PART_ID,Trial_no,Trial_type,CSI,Stim_letter,Key_pressed,letter_choose,Rt,Corr,Stimulus Time
2B-PI0804K24,1,training,10,←,no_key,no_letter,-1.0,False,63
2B-PI0804K24,2,training,10,→,right,→,0.5337330000184011,True,63
2B-PI0804K24,3,training,10,→,right,→,0.6504052000236697,True,63
2B-PI0804K24,4,training,10,↓,right,→,0.5674129000108223,False,63
2B-PI0804K24,5,training,10,↓,down,↓,0.6519281000073534,True,63
2B-PI0804K24,6,training,10,↑,up,↑,0.5338606000004802,True,63
2B-PI0804K24,7,training,10,↑,up,↑,0.600570799986599,True,63
2B-PI0804K24,8,training,10,→,right,→,0.6171166999847628,True,63
2B-PI0804K24,9,experiment,29,←,left,←,0.8005454000085592,True,63
2B-PI0804K24,10,experiment,22,←,left,←,0.8006381999875885,True,63
2B-PI0804K24,11,experiment,25,→,right,→,0.7838292999949772,True,63
2B-PI0804K24,12,experiment,27,↑,up,↑,0.683943799987901,True,63
2B-PI0804K24,13,experiment,19,↓,down,↓,0.9026423000032082,True,63
2B-PI0804K24,14,experiment,24,↓,down,↓,0.802129200019408,True,63
2B-PI0804K24,15,experiment,13,↑,up,↑,0.9170678000082262,True,63
2B-PI0804K24,16,experiment,30,↓,no_key,no_letter,-1.0,False,63
2B-PI0804K24,17,experiment,14,←,left,←,0.7506334999925457,True,63
2B-PI0804K24,18,experiment,26,→,right,→,0.7838316000124905,True,63
2B-PI0804K24,19,experiment,21,↓,down,↓,0.6505050000268966,True,63
2B-PI0804K24,20,experiment,16,↑,up,↑,0.7004379999998491,True,63
2B-PI0804K24,21,experiment,31,→,right,→,0.8172491999866907,True,63
2B-PI0804K24,22,experiment,17,↑,up,↑,0.5857014000066556,True,63
2B-PI0804K24,23,experiment,20,↑,up,↑,0.6006188999745063,True,63
2B-PI0804K24,24,experiment,15,→,right,→,0.683772799995495,True,63
2B-PI0804K24,25,experiment,18,↑,up,↑,0.633824899996398,True,63
2B-PI0804K24,26,experiment,23,↑,up,↑,0.7339285000052769,True,63
2B-PI0804K24,27,experiment,28,←,left,←,0.750467599980766,True,63
2B-PI0804K24,28,experiment,16,↑,up,↑,0.617028799984837,True,58
2B-PI0804K24,29,experiment,20,↑,up,↑,0.5853045000112616,True,58
2B-PI0804K24,30,experiment,26,←,left,←,0.767128400009824,True,58
2B-PI0804K24,31,experiment,27,↑,up,↑,0.6003789000096731,True,58
2B-PI0804K24,32,experiment,13,→,no_key,no_letter,-1.0,False,58
2B-PI0804K24,33,experiment,23,←,left,←,0.5190902999893297,True,58
2B-PI0804K24,34,experiment,17,←,left,←,0.5503922000061721,True,58
2B-PI0804K24,35,experiment,19,↑,up,↑,0.6005273000046145,True,58
2B-PI0804K24,36,experiment,25,↑,right,→,0.6358726000180468,False,58
2B-PI0804K24,37,experiment,15,→,right,→,0.8837590000184719,True,58
2B-PI0804K24,38,experiment,22,→,right,→,0.5673355000035372,True,58
2B-PI0804K24,39,experiment,14,→,right,→,0.8338613999949303,True,58
2B-PI0804K24,40,experiment,28,←,left,←,0.6836494999879505,True,58
2B-PI0804K24,41,experiment,31,←,left,←,0.8837950000015553,True,58
2B-PI0804K24,42,experiment,30,↓,down,↓,0.7511398000060581,True,58
2B-PI0804K24,43,experiment,24,↓,down,↓,0.6355587000143714,True,58
2B-PI0804K24,44,experiment,18,↓,down,↓,0.5671646999835502,True,58
2B-PI0804K24,45,experiment,29,↓,down,↓,0.4839166000019759,True,58
2B-PI0804K24,46,experiment,21,→,right,→,0.800560100004077,True,58
2B-PI0804K24,47,experiment,14,←,left,←,0.6502833999984432,True,53
2B-PI0804K24,48,experiment,15,↓,no_key,no_letter,-1.0,False,53
2B-PI0804K24,49,experiment,18,→,right,→,0.7003447999886703,True,53
2B-PI0804K24,50,experiment,29,↓,no_key,no_letter,-1.0,False,53
2B-PI0804K24,51,experiment,28,←,left,←,0.6002145999809727,True,53
2B-PI0804K24,52,experiment,20,↓,no_key,no_letter,-1.0,False,53
2B-PI0804K24,53,experiment,31,↑,up,↑,0.8338130000047386,True,53
2B-PI0804K24,54,experiment,22,↓,down,↓,0.8006091999995988,True,53
2B-PI0804K24,55,experiment,17,↑,up,↑,0.6857606999983545,True,53
2B-PI0804K24,56,experiment,24,←,left,←,0.8337370999797713,True,53
2B-PI0804K24,57,experiment,21,←,left,←,0.717167700000573,True,53
2B-PI0804K24,58,experiment,23,↓,no_key,no_letter,-1.0,False,53
2B-PI0804K24,59,experiment,13,↓,down,↓,0.6505671000049915,True,53
2B-PI0804K24,60,experiment,27,↑,up,↑,0.6670979000045918,True,53
2B-PI0804K24,61,experiment,19,→,right,→,0.5005049000028521,True,53
2B-PI0804K24,62,experiment,30,→,right,→,0.7837600999919232,True,53
2B-PI0804K24,63,experiment,25,↓,down,↓,0.5836913000093773,True,53
2B-PI0804K24,64,experiment,16,←,left,←,0.7673743999912404,True,53
2B-PI0804K24,65,experiment,26,←,left,←,0.5337776999804191,True,53
2B-PI0804K24,66,experiment,24,←,left,←,0.3836466000066139,True,69
2B-PI0804K24,67,experiment,15,↑,up,↑,0.6838562999910209,True,69
2B-PI0804K24,68,experiment,30,↓,down,↓,0.5514158000005409,True,69
2B-PI0804K24,69,experiment,22,←,left,←,0.600468099990394,True,69
2B-PI0804K24,70,experiment,28,←,left,←,0.5006772000051569,True,69
2B-PI0804K24,71,experiment,14,→,right,→,0.9840608999948017,True,69
2B-PI0804K24,72,experiment,23,↑,up,↑,0.7503553999995347,True,69
2B-PI0804K24,73,experiment,31,→,right,→,0.8337886000226717,True,69
2B-PI0804K24,74,experiment,27,↓,down,↓,0.7172091999964323,True,69
2B-PI0804K24,75,experiment,29,↑,up,↑,0.9004451000073459,True,69
2B-PI0804K24,76,experiment,17,←,left,←,0.8670811000047252,True,69
2B-PI0804K24,77,experiment,13,→,right,→,0.6839464000076987,True,69
2B-PI0804K24,78,experiment,26,↓,down,↓,0.8002987999934703,True,69
2B-PI0804K24,79,experiment,16,→,right,→,0.866826100012986,True,69
2B-PI0804K24,80,experiment,25,↑,up,↑,0.8836619000067003,True,69
2B-PI0804K24,81,experiment,19,↑,up,↑,0.583634799986612,True,69
2B-PI0804K24,82,experiment,20,→,right,→,0.48382230001152493,True,69
2B-PI0804K24,83,experiment,21,→,right,→,0.5505466999893542,True,69
2B-PI0804K24,84,experiment,18,↑,up,↑,0.7672470999823418,True,69
2B-PI0804K24,85,experiment,22,↑,up,↑,0.7670026000123471,True,64
2B-PI0804K24,86,experiment,14,↑,right,→,0.8007297999865841,False,64
2B-PI0804K24,87,experiment,26,↑,up,↑,0.750550500000827,True,64
2B-PI0804K24,88,experiment,27,↓,down,↓,0.9671725000080187,True,64
2B-PI0804K24,89,experiment,16,←,left,←,0.8173563999880571,True,64
2B-PI0804K24,90,experiment,30,→,right,→,0.5838776000018697,True,64
2B-PI0804K24,91,experiment,15,→,right,→,0.785559000010835,True,64
2B-PI0804K24,92,experiment,28,↓,down,↓,0.6672156999993604,True,64
2B-PI0804K24,93,experiment,23,↑,up,↑,0.5337800999986939,True,64
2B-PI0804K24,94,experiment,19,↑,up,↑,0.5004269999917597,True,64
2B-PI0804K24,95,experiment,17,←,left,←,0.5839553999830969,True,64
2B-PI0804K24,96,experiment,20,→,right,→,0.717065900011221,True,64
2B-PI0804K24,97,experiment,24,↑,up,↑,0.9172719999914989,True,64
2B-PI0804K24,98,experiment,18,↑,up,↑,0.7336347000091337,True,64
2B-PI0804K24,99,experiment,29,↓,down,↓,0.9504958000034094,True,64
2B-PI0804K24,100,experiment,25,←,left,←,0.53398659999948,True,64
2B-PI0804K24,101,experiment,21,↓,down,↓,0.6838638999906834,True,64
2B-PI0804K24,102,experiment,31,←,left,←,0.583870400005253,True,64
2B-PI0804K24,103,experiment,13,→,right,→,0.7690528999955859,True,64
2B-PI0804K24,104,experiment,18,→,right,→,0.5338970000157133,True,59
2B-PI0804K24,105,experiment,24,→,right,→,0.46687140001449734,True,59
2B-PI0804K24,106,experiment,27,→,right,→,0.7838294999965001,True,59
2B-PI0804K24,107,experiment,26,←,left,←,0.7034088999789674,True,59
2B-PI0804K24,108,experiment,30,↓,down,↓,0.6505864000064321,True,59
2B-PI0804K24,109,experiment,22,↑,right,→,0.667263199982699,False,59
2B-PI0804K24,110,experiment,21,←,left,←,0.8339091999805532,True,59
2B-PI0804K24,111,experiment,14,←,left,←,0.9170772999932524,True,59
2B-PI0804K24,112,experiment,20,↓,down,↓,0.6504608000104781,True,59
2B-PI0804K24,113,experiment,17,↑,no_key,no_letter,-1.0,False,59
2B-PI0804K24,114,experiment,15,←,left,←,0.817082699999446,True,59
2B-PI0804K24,115,experiment,23,→,right,→,0.8005269000132103,True,59
2B-PI0804K24,116,experiment,31,↑,up,↑,0.7838186000008136,True,59
2B-PI0804K24,117,experiment,29,↓,down,↓,0.7837623000086751,True,59
2B-PI0804K24,118,experiment,25,↑,up,↑,0.5171809000021312,True,59
2B-PI0804K24,119,experiment,16,↓,down,↓,0.9355360000045039,True,59
2B-PI0804K24,120,experiment,19,←,left,←,0.7171959999832325,True,59
2B-PI0804K24,121,experiment,28,→,right,→,0.7504215000080876,True,59
2B-PI0804K24,122,experiment,13,↑,up,↑,0.8019365000072867,True,59
2B-PI0804K24,123,experiment,30,↓,no_key,no_letter,-1.0,False,54
2B-PI0804K24,124,experiment,16,↑,up,↑,0.700531399983447,True,54
2B-PI0804K24,125,experiment,13,→,right,→,0.8004495000059251,True,54
2B-PI0804K24,126,experiment,22,↑,up,↑,0.5668503000051714,True,54
2B-PI0804K24,127,experiment,27,→,right,→,0.8337095000024419,True,54
2B-PI0804K24,128,experiment,18,↓,down,↓,0.7353174999880139,True,54
2B-PI0804K24,129,experiment,28,↑,no_key,no_letter,-1.0,False,54
2B-PI0804K24,130,experiment,19,←,left,←,0.5505455000093207,True,54
2B-PI0804K24,131,experiment,25,→,right,→,0.5670678000024054,True,54
2B-PI0804K24,132,experiment,14,↑,up,↑,0.7836364000104368,True,54
2B-PI0804K24,133,experiment,26,→,right,→,0.7839459000097122,True,54
2B-PI0804K24,134,experiment,23,↓,no_key,no_letter,-1.0,False,54
2B-PI0804K24,135,experiment,29,→,right,→,0.5337914999981876,True,54
2B-PI0804K24,136,experiment,31,←,left,←,0.6005145999952219,True,54
2B-PI0804K24,137,experiment,17,→,right,→,0.73408979998203,True,54
2B-PI0804K24,138,experiment,21,↓,no_key,no_letter,-1.0,False,54
2B-PI0804K24,139,experiment,15,↑,up,↑,0.7504135000053793,True,54
2B-PI0804K24,140,experiment,20,←,left,←,0.6673112999997102,True,54
2B-PI0804K24,141,experiment,24,→,right,→,0.6837829000141937,True,54
2B-PI0804K24,142,experiment,24,→,right,→,0.7668760000087786,True,59
2B-PI0804K24,143,experiment,13,↓,down,↓,0.9006485999852885,True,59
2B-PI0804K24,144,experiment,22,↑,up,↑,0.6837404000107199,True,59
2B-PI0804K24,145,experiment,28,→,left,←,0.4670925999816973,False,59
2B-PI0804K24,146,experiment,14,↑,up,↑,0.7171680000028573,True,59
2B-PI0804K24,147,experiment,19,←,left,←,0.7005946999997832,True,59
2B-PI0804K24,148,experiment,31,←,left,←,0.7838226000021677,True,59
2B-PI0804K24,149,experiment,30,→,right,→,0.8004120999830775,True,59
2B-PI0804K24,150,experiment,26,↓,down,↓,0.8504401000100188,True,59
2B-PI0804K24,151,experiment,17,↑,up,↑,0.5506661999970675,True,59
2B-PI0804K24,152,experiment,27,←,left,←,0.6005232999741565,True,59
2B-PI0804K24,153,experiment,21,↓,down,↓,0.7670541999978013,True,59
2B-PI0804K24,154,experiment,25,↑,up,↑,0.7671707000117749,True,59
2B-PI0804K24,155,experiment,23,↑,up,↑,0.8504368999856524,True,59
2B-PI0804K24,156,experiment,20,←,left,←,0.7171007000142708,True,59
2B-PI0804K24,157,experiment,16,↑,up,↑,0.6338457000092603,True,59
2B-PI0804K24,158,experiment,29,→,right,→,0.5020774000149686,True,59
2B-PI0804K24,159,experiment,15,←,left,←,0.6335970000072848,True,59
2B-PI0804K24,160,experiment,18,↓,down,↓,0.817275300010806,True,59
2B-PI0804K24,161,experiment,20,↓,no_key,no_letter,-1.0,False,57
2B-PI0804K24,162,experiment,31,←,left,←,0.7005080000089947,True,57
2B-PI0804K24,163,experiment,19,↑,up,↑,0.6002510999969672,True,57
2B-PI0804K24,164,experiment,16,→,right,→,0.4506650000112131,True,57
2B-PI0804K24,165,experiment,21,↑,up,↑,0.6673315000080038,True,57
2B-PI0804K24,166,experiment,23,←,left,←,0.8003063000214752,True,57
2B-PI0804K24,167,experiment,27,→,right,→,0.6336306000011973,True,57
2B-PI0804K24,168,experiment,18,←,left,←,0.5339085000159685,True,57
2B-PI0804K24,169,experiment,15,↓,down,↓,0.7671094000106677,True,57
2B-PI0804K24,170,experiment,25,←,left,←,0.483738800015999,True,57
2B-PI0804K24,171,experiment,29,↑,up,↑,0.7020931000006385,True,57
2B-PI0804K24,172,experiment,30,↑,right,→,0.6006026999966707,False,57
2B-PI0804K24,173,experiment,24,→,right,→,0.8171961000189185,True,57
2B-PI0804K24,174,experiment,17,→,right,→,0.7836320000060368,True,57
2B-PI0804K24,175,experiment,26,→,right,→,0.7505416000203695,True,57
2B-PI0804K24,176,experiment,28,↓,down,↓,0.8504978999844752,True,57
2B-PI0804K24,177,experiment,14,↑,up,↑,0.5686525999917649,True,57
2B-PI0804K24,178,experiment,13,↑,up,↑,0.45062859999598004,True,57
2B-PI0804K24,179,experiment,22,↓,down,↓,0.5504362999927253,True,57
2B-PI0804K24,180,experiment,30,←,left,←,0.5504685000050813,True,55
2B-PI0804K24,181,experiment,24,↑,up,↑,0.666466800001217,True,55
2B-PI0804K24,182,experiment,25,←,no_key,no_letter,-1.0,False,55
2B-PI0804K24,183,experiment,13,→,right,→,0.8171247999998741,True,55
2B-PI0804K24,184,experiment,28,→,right,→,0.6838758000230882,True,55
2B-PI0804K24,185,experiment,22,↑,up,↑,0.8338864000106696,True,55
2B-PI0804K24,186,experiment,26,→,right,→,0.7170503000088502,True,55
2B-PI0804K24,187,experiment,18,↑,up,↑,0.567199699988123,True,55
2B-PI0804K24,188,experiment,14,↓,down,↓,0.6505067000107374,True,55
2B-PI0804K24,189,experiment,27,↓,down,↓,0.535207500011893,True,55
2B-PI0804K24,190,experiment,29,→,right,→,0.5004398000019137,True,55
2B-PI0804K24,191,experiment,23,←,left,←,0.7339256000122987,True,55
2B-PI0804K24,192,experiment,17,↑,up,↑,0.768994100013515,True,55
2B-PI0804K24,193,experiment,20,←,left,←,0.8170372000022326,True,55
2B-PI0804K24,194,experiment,15,↓,down,↓,0.6171366999915335,True,55
2B-PI0804K24,195,experiment,31,↑,up,↑,0.5671544999931939,True,55
2B-PI0804K24,196,experiment,19,←,left,←,0.8837821000197437,True,55
2B-PI0804K24,197,experiment,21,→,right,→,0.6003352999978233,True,55
2B-PI0804K24,198,experiment,16,→,left,←,0.5520366000127979,False,55
2B-PI0804K24,199,experiment,29,←,left,←,0.6336447000212502,True,53
2B-PI0804K24,200,experiment,19,←,left,←,0.71723780001048,True,53
2B-PI0804K24,201,experiment,15,→,right,→,0.5172580000071321,True,53
2B-PI0804K24,202,experiment,25,→,no_key,no_letter,-1.0,False,53
2B-PI0804K24,203,experiment,16,→,right,→,0.5671463999897242,True,53
2B-PI0804K24,204,experiment,27,←,left,←,0.48382549997768365,True,53
2B-PI0804K24,205,experiment,18,↓,no_key,no_letter,-1.0,False,53
2B-PI0804K24,206,experiment,31,↓,down,↓,0.8504316000035033,True,53
2B-PI0804K24,207,experiment,21,←,left,←,0.6859636000008322,True,53
2B-PI0804K24,208,experiment,22,←,left,←,0.7503602999786381,True,53
2B-PI0804K24,209,experiment,24,←,left,←,0.46756639998056926,True,53
2B-PI0804K24,210,experiment,28,←,left,←,0.7005296999996062,True,53
2B-PI0804K24,211,experiment,14,↑,up,↑,0.6004336000187322,True,53
2B-PI0804K24,212,experiment,17,↑,up,↑,0.7505679000169039,True,53
2B-PI0804K24,213,experiment,30,←,no_key,no_letter,-1.0,False,53
2B-PI0804K24,214,experiment,23,←,left,←,0.6337800000037532,True,53
2B-PI0804K24,215,experiment,13,↑,left,←,0.7504356999997981,False,53
2B-PI0804K24,216,experiment,26,←,left,←,0.7170193000056315,True,53
2B-PI0804K24,217,experiment,20,↑,up,↑,0.4335733999905642,True,53
2B-PI0804K24,218,experiment,21,↑,up,↑,0.7004753999935929,True,58
2B-PI0804K24,219,experiment,15,←,left,←,0.7839040000108071,True,58
2B-PI0804K24,220,experiment,27,↑,up,↑,0.5025871000252664,True,58
2B-PI0804K24,221,experiment,29,↑,up,↑,0.6839125999831595,True,58
2B-PI0804K24,222,experiment,17,↑,up,↑,0.8002211999846622,True,58
2B-PI0804K24,223,experiment,14,↓,down,↓,0.8005648000107612,True,58
2B-PI0804K24,224,experiment,30,→,right,→,0.8835543000022881,True,58
2B-PI0804K24,225,experiment,13,←,left,←,0.6008543999923859,True,58
2B-PI0804K24,226,experiment,24,→,right,→,0.5506091999995988,True,58
2B-PI0804K24,227,experiment,23,↓,down,↓,0.5837418000155594,True,58
2B-PI0804K24,228,experiment,19,←,left,←,0.7004980999918189,True,58
2B-PI0804K24,229,experiment,31,↑,up,↑,0.6504398999968544,True,58
2B-PI0804K24,230,experiment,22,←,left,←,0.5839769000012893,True,58
2B-PI0804K24,231,experiment,28,↓,down,↓,0.6837517999811098,True,58
2B-PI0804K24,232,experiment,26,←,left,←,0.550689900002908,True,58
2B-PI0804K24,233,experiment,25,↓,down,↓,0.8505400000140071,True,58
2B-PI0804K24,234,experiment,18,←,left,←,0.750472699990496,True,58
2B-PI0804K24,235,experiment,16,↓,down,↓,0.8505579000047874,True,58
2B-PI0804K24,236,experiment,20,↑,no_key,no_letter,-1.0,False,58
2B-PI0804K24,237,experiment,18,↓,down,↓,0.6687137999979313,True,56
2B-PI0804K24,238,experiment,31,←,left,←,0.6838930000085384,True,56
2B-PI0804K24,239,experiment,28,←,left,←,0.5838840999931563,True,56
2B-PI0804K24,240,experiment,22,→,right,→,0.8002570999960881,True,56
2B-PI0804K24,241,experiment,26,←,left,←,0.6172828999988269,True,56
2B-PI0804K24,242,experiment,15,→,right,→,0.9004619000188541,True,56
2B-PI0804K24,243,experiment,20,←,left,←,0.8674233000201639,True,56
2B-PI0804K24,244,experiment,17,↑,up,↑,0.5172739000117872,True,56
2B-PI0804K24,245,experiment,13,↑,up,↑,0.6839017999882344,True,56
2B-PI0804K24,246,experiment,29,↑,no_key,no_letter,-1.0,False,56
2B-PI0804K24,247,experiment,16,→,right,→,0.5505715000035707,True,56
2B-PI0804K24,248,experiment,30,↓,no_key,no_letter,-1.0,False,56
2B-PI0804K24,249,experiment,19,↓,down,↓,0.8336837999813724,True,56
2B-PI0804K24,250,experiment,21,↓,down,↓,0.7838635999942198,True,56
2B-PI0804K24,251,experiment,24,→,right,→,0.7359271000023,True,56
2B-PI0804K24,252,experiment,23,←,left,←,0.667288800003007,True,56
2B-PI0804K24,253,experiment,25,↑,up,↑,0.5004503999953158,True,56
2B-PI0804K24,254,experiment,27,←,left,←,0.7836384999973234,True,56
2B-PI0804K24,255,experiment,14,→,no_key,no_letter,-1.0,False,56
2B-PI0804K24,256,experiment,25,↑,up,↑,0.6837612999952398,True,54
2B-PI0804K24,257,experiment,14,↓,no_key,no_letter,-1.0,False,54
2B-PI0804K24,258,experiment,18,→,right,→,0.8337601000093855,True,54
2B-PI0804K24,259,experiment,16,→,right,→,0.48377399999299087,True,54
2B-PI0804K24,260,experiment,13,→,right,→,0.6004447999875993,True,54
2B-PI0804K24,261,experiment,19,←,right,→,0.6005559999903198,False,54
2B-PI0804K24,262,experiment,22,←,left,←,0.8339586000074632,True,54
2B-PI0804K24,263,experiment,21,→,right,→,0.8338427999988198,True,54
2B-PI0804K24,264,experiment,27,↓,no_key,no_letter,-1.0,False,54
2B-PI0804K24,265,experiment,23,↓,down,↓,0.8670792999910191,True,54
2B-PI0804K24,266,experiment,31,→,right,→,0.6006436999887228,True,54
2B-PI0804K24,267,experiment,15,←,left,←,0.6672767999989446,True,54
2B-PI0804K24,268,experiment,17,↑,up,↑,0.7185839999874588,True,54
2B-PI0804K24,269,experiment,29,←,left,←,0.6337355999858119,True,54
2B-PI0804K24,270,experiment,26,↓,down,↓,0.8337975999747869,True,54
2B-PI0804K24,271,experiment,30,↓,down,↓,0.6670209000003524,True,54
2B-PI0804K24,272,experiment,28,←,left,←,0.6186611999874003,True,54
2B-PI0804K24,273,experiment,24,↑,up,↑,0.7688202999997884,True,54
2B-PI0804K24,274,experiment,20,→,right,→,0.8505171999859158,True,54
2B-PI0804K24,275,experiment,30,↓,down,↓,0.8338641000154894,True,52
2B-PI0804K24,276,experiment,18,↓,down,↓,0.7005215000244789,True,52
2B-PI0804K24,277,experiment,22,←,left,←,0.6672200000029989,True,52
2B-PI0804K24,278,experiment,25,↓,down,↓,0.78371600000537,True,52
2B-PI0804K24,279,experiment,13,←,left,←,0.6839664000144694,True,52
2B-PI0804K24,280,experiment,31,↓,down,↓,0.6854014999989886,True,52
2B-PI0804K24,281,experiment,20,←,left,←,0.6020149999822024,True,52
2B-PI0804K24,282,experiment,21,→,right,→,0.5169354999961797,True,52
2B-PI0804K24,283,experiment,24,↓,down,↓,0.7675907000084408,True,52
2B-PI0804K24,284,experiment,15,↓,down,↓,0.6840018999937456,True,52
2B-PI0804K24,285,experiment,14,←,left,←,0.8006270000187214,True,52
2B-PI0804K24,286,experiment,26,→,no_key,no_letter,-1.0,False,52
2B-PI0804K24,287,experiment,28,←,left,←,0.567313399980776,True,52
2B-PI0804K24,288,experiment,17,↑,no_key,no_letter,-1.0,False,52
2B-PI0804K24,289,experiment,19,←,left,←,0.5172004000050947,True,52
2B-PI0804K24,290,experiment,23,↑,up,↑,0.7840099000022747,True,52
2B-PI0804K24,291,experiment,16,↑,up,↑,0.76709470001515,True,52
2B-PI0804K24,292,experiment,27,←,left,←,0.5503928000107408,True,52
2B-PI0804K24,293,experiment,29,←,left,←,0.7838901999930386,True,52
2B-PI0804K24,294,experiment,13,↑,no_key,no_letter,-1.0,False,50
2B-PI0804K24,295,experiment,15,↓,no_key,no_letter,-1.0,False,50
2B-PI0804K24,296,experiment,30,↓,no_key,no_letter,-1.0,False,50
2B-PI0804K24,297,experiment,14,↓,down,↓,0.6338902999996208,True,50
2B-PI0804K24,298,experiment,20,↓,no_key,no_letter,-1.0,False,50
2B-PI0804K24,299,experiment,26,←,left,←,0.7005697999848053,True,50
2B-PI0804K24,300,experiment,22,↓,down,↓,0.600682099990081,True,50
2B-PI0804K24,301,experiment,18,↑,up,↑,0.5672045999963302,True,50
2B-PI0804K24,302,experiment,16,←,left,←,0.7337818999949377,True,50
2B-PI0804K24,303,experiment,27,←,no_key,no_letter,-1.0,False,50
2B-PI0804K24,304,experiment,31,←,left,←,0.6006797000009101,True,50
2B-PI0804K24,305,experiment,29,↓,down,↓,0.7838290000217967,True,50
2B-PI0804K24,306,experiment,19,↑,up,↑,0.5004996000207029,True,50
2B-PI0804K24,307,experiment,23,↓,down,↓,0.5014807999832556,True,50
2B-PI0804K24,308,experiment,25,←,left,←,0.450504100008402,True,50
2B-PI0804K24,309,experiment,21,←,left,←,0.5841947000008076,True,50
2B-PI0804K24,310,experiment,17,←,left,←,0.5337939000164624,True,50
2B-PI0804K24,311,experiment,28,↑,no_key,no_letter,-1.0,False,50
2B-PI0804K24,312,experiment,24,↓,down,↓,0.6668789999966975,True,50
2B-PI0804K24,313,experiment,29,←,left,←,0.6837719000177458,True,55
2B-PI0804K24,314,experiment,25,↑,left,←,0.5002926999877673,False,55
2B-PI0804K24,315,experiment,14,↓,down,↓,0.7671903000154998,True,55
2B-PI0804K24,316,experiment,27,↑,up,↑,0.7339054000040051,True,55
2B-PI0804K24,317,experiment,13,↓,down,↓,0.6836312000232283,True,55
2B-PI0804K24,318,experiment,18,←,left,←,0.4840103999886196,True,55
2B-PI0804K24,319,experiment,20,←,left,←,0.5187860000005458,True,55
2B-PI0804K24,320,experiment,21,←,left,←,0.583796099992469,True,55
2B-PI0804K24,321,experiment,30,→,right,→,0.7671202000055928,True,55
2B-PI0804K24,322,experiment,17,→,left,←,0.5338203999854159,False,55
2B-PI0804K24,323,experiment,15,→,right,→,0.7837799999979325,True,55
2B-PI0804K24,324,experiment,24,↓,down,↓,0.6673057000152767,True,55
2B-PI0804K24,325,experiment,28,↓,down,↓,0.7173544999968726,True,55
2B-PI0804K24,326,experiment,26,↓,down,↓,0.6671841999923345,True,55
2B-PI0804K24,327,experiment,22,←,left,←,0.5172513999859802,True,55
2B-PI0804K24,328,experiment,19,↑,up,↑,0.46721159998560324,True,55
2B-PI0804K24,329,experiment,16,↓,down,↓,0.650296099978732,True,55
2B-PI0804K24,330,experiment,23,↓,down,↓,0.6008438999997452,True,55
2B-PI0804K24,331,experiment,31,↓,down,↓,0.6003911000152584,True,55
2B-PI0804K24,332,experiment,20,→,right,→,0.6339966999948956,True,53
2B-PI0804K24,333,experiment,23,→,right,→,0.40033150001545437,True,53
2B-PI0804K24,334,experiment,18,→,right,→,0.3857768999878317,True,53
2B-PI0804K24,335,experiment,25,↑,up,↑,0.5171971999807283,True,53
2B-PI0804K24,336,experiment,14,↓,down,↓,0.5838017000060063,True,53
2B-PI0804K24,337,experiment,21,↓,down,↓,0.483717399998568,True,53
2B-PI0804K24,338,experiment,28,↓,no_key,no_letter,-1.0,False,53
2B-PI0804K24,339,experiment,16,↑,up,↑,0.6005251000169665,True,53
2B-PI0804K24,340,experiment,13,→,down,↓,0.6005805000022519,False,53
2B-PI0804K24,341,experiment,22,→,right,→,0.7171521999989636,True,53
2B-PI0804K24,342,experiment,19,↑,up,↑,0.5339452000043821,True,53
2B-PI0804K24,343,experiment,15,→,right,→,0.717187100002775,True,53
2B-PI0804K24,344,experiment,27,↑,up,↑,0.5339265000075102,True,53
2B-PI0804K24,345,experiment,30,↓,down,↓,0.6857078000030015,True,53
2B-PI0804K24,346,experiment,31,↓,no_key,no_letter,-1.0,False,53
2B-PI0804K24,347,experiment,24,←,left,←,0.8504768000275362,True,53
2B-PI0804K24,348,experiment,29,←,left,←,0.7670250000082888,True,53
2B-PI0804K24,349,experiment,17,↑,up,↑,0.8171852999948896,True,53
2B-PI0804K24,350,experiment,26,↓,no_key,no_letter,-1.0,False,53
