PART_ID,Trial,Stimuli,Version,Training,FIXTIME,TIME,Correct,SOA,Reversal,Reversal_count,Latency,stim_name,Rating
070M20,1,SQUARES,First_showed,training,45,15,True,8,-,-,0.4673907000105828,left,-
070M20,2,SQUARES,First_showed,training,45,15,True,8,-,-,0.41729080001823604,right,-
070M20,3,SQUARES,First_showed,training,45,15,True,8,-,-,0.3506764000048861,left,-
070M20,4,SQUARES,First_showed,training,45,15,True,8,-,-,0.06713300000410527,right,-
070M20,5,SQUARES,First_showed,training,45,15,True,8,-,-,0.06728829990606755,left,-
070M20,6,SQUARES,First_showed,training,45,15,True,8,-,-,0.133895100094378,left,-
070M20,7,SQUARES,First_showed,training,45,15,True,8,-,-,0.05057289998512715,right,-
070M20,8,SQUARES,First_showed,training,45,15,True,8,-,-,0.10084590001497418,left,-
070M20,9,SQUARES,First_showed,training,45,15,True,8,-,-,0.11724359996151179,right,-
070M20,10,SQUARES,First_showed,training,45,15,True,8,-,-,0.08369400002993643,right,-
070M20,11,SQUARES,First_showed,training,45,15,True,3,-,-,0.13385740004014224,left,-
070M20,12,SQUARES,First_showed,training,45,15,True,3,-,-,0.11699010001029819,right,-
070M20,13,SQUARES,First_showed,training,45,15,True,3,-,-,0.016837500035762787,right,-
070M20,14,SQUARES,First_showed,training,45,15,True,3,-,-,0.01700600003823638,right,-
070M20,15,SQUARES,First_showed,training,45,15,True,3,-,-,0.13386840000748634,right,-
070M20,16,SQUARES,First_showed,training,45,15,True,3,-,-,0.01672710001002997,left,-
070M20,17,SQUARES,First_showed,training,45,15,True,3,-,-,0.11702110001351684,right,-
070M20,18,SQUARES,First_showed,training,45,15,True,3,-,-,0.05038929998409003,right,-
070M20,19,SQUARES,First_showed,training,45,15,True,3,-,-,0.033810699940659106,left,-
070M20,20,SQUARES,First_showed,training,45,15,True,3,-,-,0.26743020000867546,left,-
070M20,1,SQUARES,First_showed,exp,45,15,False,3,0,0,1.4839836999308318,right,-
070M20,2,SQUARES,First_showed,exp,45,15,True,4,0,-,0.017291299998760223,right,-
070M20,3,SQUARES,First_showed,exp,45,15,True,4,1,1,0.05072149995248765,left,-
070M20,4,SQUARES,First_showed,exp,45,15,True,3,0,-,0.0007091999286785722,left,-
070M20,5,SQUARES,First_showed,exp,45,15,True,3,0,-,0.01734669995494187,left,-
070M20,6,SQUARES,First_showed,exp,45,15,True,2,0,-,0.03395359998103231,left,-
070M20,7,SQUARES,First_showed,exp,45,15,True,2,0,-,0.11744459997862577,left,-
070M20,8,SQUARES,First_showed,exp,45,15,True,1,0,-,0.1506296000443399,right,-
070M20,9,SQUARES,First_showed,exp,45,15,True,1,0,-,0.000596800004132092,left,-
070M20,10,SQUARES,First_showed,exp,45,15,True,0,0,-,0.06719470000825822,right,-
070M20,11,SQUARES,First_showed,exp,45,15,True,0,0,-,0.11715029994957149,right,-
070M20,12,SQUARES,First_showed,exp,45,15,True,-1,0,-,0.18394050002098083,right,-
070M20,13,SQUARES,First_showed,exp,45,15,False,-1,1,2,0.800689399940893,left,-
070M20,14,SQUARES,First_showed,exp,45,15,True,0,0,-,1.7674235000740737,right,-
070M20,15,SQUARES,First_showed,exp,45,15,False,0,0,-,0.10070460010319948,left,-
070M20,16,SQUARES,First_showed,exp,45,15,False,1,0,-,0.20063500001560897,right,-
070M20,17,SQUARES,First_showed,exp,45,15,True,2,0,-,0.017250999924726784,left,-
070M20,18,SQUARES,First_showed,exp,45,15,True,2,1,3,0.06733320001512766,left,-
070M20,19,SQUARES,First_showed,exp,45,15,False,1,1,4,0.4505485000554472,right,-
070M20,20,SQUARES,First_showed,exp,45,15,True,2,0,-,0.15067080000881106,left,-
070M20,21,SQUARES,First_showed,exp,45,15,True,2,1,5,0.31720900000073016,right,-
070M20,22,SQUARES,First_showed,exp,45,15,True,1,0,-,0.33395769994240254,left,-
070M20,23,SQUARES,First_showed,exp,45,15,True,1,0,-,0.1506326999515295,left,-
070M20,24,SQUARES,First_showed,exp,45,15,True,0,0,-,0.18388989998493344,right,-
070M20,25,SQUARES,First_showed,exp,45,15,False,0,1,6,0.03394079999998212,right,-
070M20,26,SQUARES,First_showed,exp,45,15,False,1,0,-,0.13407040003221482,right,-
070M20,27,SQUARES,First_showed,exp,45,15,False,2,0,-,0.10018820001278073,right,-
070M20,28,SQUARES,First_showed,exp,45,15,True,3,0,-,0.28399090003222227,left,-
070M20,29,SQUARES,First_showed,exp,45,15,True,3,1,7,0.200658000074327,right,-
070M20,30,SQUARES,First_showed,exp,45,15,True,2,0,-,0.08404089999385178,left,-
070M20,31,SQUARES,First_showed,exp,45,15,True,2,0,-,0.11721709999255836,left,-
070M20,32,SQUARES,First_showed,exp,45,15,True,1,0,-,0.21744859998580068,right,-
070M20,33,SQUARES,First_showed,exp,45,15,True,1,0,-,0.4671436999924481,right,-
070M20,34,SQUARES,First_showed,exp,45,15,True,0,0,-,0.2007661999668926,right,-
070M20,35,SQUARES,First_showed,exp,45,15,True,0,0,-,0.13406850001774728,left,-
070M20,36,SQUARES,First_showed,exp,45,15,True,-1,0,-,0.1838684999383986,left,-
070M20,37,SQUARES,First_showed,exp,45,15,False,-1,1,8,0.01725759997498244,right,-
070M20,38,SQUARES,First_showed,exp,45,15,True,0,0,-,0.10066210001241416,left,-
070M20,39,SQUARES,First_showed,exp,45,15,False,0,0,-,0.06731389998458326,right,-
070M20,40,SQUARES,First_showed,exp,45,15,True,1,0,-,0.11776149994693696,left,-
070M20,41,SQUARES,First_showed,exp,45,15,False,1,0,-,0.10077150003053248,right,-
070M20,42,SQUARES,First_showed,exp,45,15,False,2,0,-,1.5507262999890372,left,-
070M20,43,SQUARES,First_showed,exp,45,15,True,3,0,-,0.16736399999354035,left,-
070M20,44,SQUARES,First_showed,exp,45,15,True,3,1,9,0.11729449999984354,left,-
070M20,45,SQUARES,First_showed,exp,45,15,True,2,0,-,0.1837322999490425,right,-
070M20,46,SQUARES,First_showed,exp,45,15,True,2,0,-,0.2338930000551045,left,-
070M20,47,SQUARES,First_showed,exp,45,15,True,1,0,-,0.1672931999200955,left,-
070M20,48,SQUARES,First_showed,exp,45,15,True,1,0,-,0.31731979991309345,right,-
070M20,49,SQUARES,First_showed,exp,45,15,True,0,0,-,0.3334815999260172,left,-
070M20,50,SQUARES,First_showed,exp,45,15,True,0,0,-,0.2006610999815166,left,-
070M20,51,SQUARES,First_showed,exp,45,15,True,-1,0,-,0.2839214999694377,left,-
070M20,52,SQUARES,First_showed,exp,45,15,False,-1,1,10,0.10067249997518957,right,-
070M20,1,CIRCLES,First_hidden,training,45,15,True,8,-,-,0.6005428999196738,right,-
070M20,2,CIRCLES,First_hidden,training,45,15,True,8,-,-,0.21728250000160187,right,-
070M20,3,CIRCLES,First_hidden,training,45,15,True,8,-,-,0.684104899992235,left,-
070M20,4,CIRCLES,First_hidden,training,45,15,False,8,-,-,0.16722459997981787,left,-
070M20,5,CIRCLES,First_hidden,training,45,15,True,8,-,-,0.2004175999900326,left,-
070M20,6,CIRCLES,First_hidden,training,45,15,True,8,-,-,0.23396380001213402,right,-
070M20,7,CIRCLES,First_hidden,training,45,15,True,8,-,-,0.23402039997745305,right,-
070M20,8,CIRCLES,First_hidden,training,45,15,True,8,-,-,0.2001771000213921,right,-
070M20,9,CIRCLES,First_hidden,training,45,15,True,8,-,-,0.18383380002342165,left,-
070M20,10,CIRCLES,First_hidden,training,45,15,True,8,-,-,0.13340920000337064,left,-
070M20,11,CIRCLES,First_hidden,training,45,15,False,3,-,-,0.2340406000148505,left,-
070M20,12,CIRCLES,First_hidden,training,45,15,True,3,-,-,0.23385380010586232,right,-
070M20,13,CIRCLES,First_hidden,training,45,15,True,3,-,-,0.23399199999403208,left,-
070M20,14,CIRCLES,First_hidden,training,45,15,True,3,-,-,0.3005808999296278,left,-
070M20,15,CIRCLES,First_hidden,training,45,15,True,3,-,-,0.31731489999219775,right,-
070M20,16,CIRCLES,First_hidden,training,45,15,True,3,-,-,0.2502155000111088,left,-
070M20,17,CIRCLES,First_hidden,training,45,15,True,3,-,-,0.25052960007451475,left,-
070M20,18,CIRCLES,First_hidden,training,45,15,True,3,-,-,0.2840202000224963,left,-
070M20,19,CIRCLES,First_hidden,training,45,15,True,3,-,-,0.33370219997595996,right,-
070M20,20,CIRCLES,First_hidden,training,45,15,True,3,-,-,0.28409390000160784,left,-
070M20,1,CIRCLES,First_hidden,exp,45,15,True,3,0,0,0.3172474999446422,right,-
070M20,2,CIRCLES,First_hidden,exp,45,15,True,3,0,-,0.25067169999238104,left,-
070M20,3,CIRCLES,First_hidden,exp,45,15,True,2,0,-,0.36743880005087703,right,-
070M20,4,CIRCLES,First_hidden,exp,45,15,True,2,0,-,0.3839177000336349,left,-
070M20,5,CIRCLES,First_hidden,exp,45,15,True,1,0,-,0.400723300059326,right,-
070M20,6,CIRCLES,First_hidden,exp,45,15,True,1,0,-,0.3674229000462219,left,-
070M20,7,CIRCLES,First_hidden,exp,45,15,False,0,1,1,0.5674338000826538,right,-
070M20,8,CIRCLES,First_hidden,exp,45,15,True,1,0,-,0.5839862000430003,right,-
070M20,9,CIRCLES,First_hidden,exp,45,15,True,1,1,2,0.5338640999980271,right,-
070M20,10,CIRCLES,First_hidden,exp,45,15,False,0,1,3,0.3672345000086352,right,-
070M20,11,CIRCLES,First_hidden,exp,45,15,True,1,0,-,0.6339801999274641,right,-
070M20,12,CIRCLES,First_hidden,exp,45,15,False,1,0,-,0.41735300002619624,left,-
070M20,13,CIRCLES,First_hidden,exp,45,15,True,2,0,-,0.41719770000781864,right,-
070M20,14,CIRCLES,First_hidden,exp,45,15,True,2,1,4,0.35049320000689477,left,-
070M20,15,CIRCLES,First_hidden,exp,45,15,True,1,0,-,0.3674588999710977,right,-
070M20,16,CIRCLES,First_hidden,exp,45,15,False,1,1,5,0.3506286999909207,right,-
070M20,17,CIRCLES,First_hidden,exp,45,15,True,2,0,-,0.5506708000320941,left,-
070M20,18,CIRCLES,First_hidden,exp,45,15,True,2,1,6,0.4340028000297025,left,-
070M20,19,CIRCLES,First_hidden,exp,45,15,True,1,0,-,0.5006953000556678,right,-
070M20,20,CIRCLES,First_hidden,exp,45,15,True,1,0,-,0.48390840005595237,left,-
070M20,21,CIRCLES,First_hidden,exp,45,15,True,0,0,-,0.7172668999992311,left,-
070M20,22,CIRCLES,First_hidden,exp,45,15,False,0,1,7,0.5007464999798685,right,-
070M20,23,CIRCLES,First_hidden,exp,45,15,True,1,0,-,0.7840155999874696,right,-
070M20,24,CIRCLES,First_hidden,exp,45,15,False,1,0,-,0.48407649993896484,left,-
070M20,25,CIRCLES,First_hidden,exp,45,15,True,2,0,-,0.36715329997241497,right,-
070M20,26,CIRCLES,First_hidden,exp,45,15,True,2,1,8,0.33389020001050085,left,-
070M20,27,CIRCLES,First_hidden,exp,45,15,True,1,0,-,0.48403139994479716,left,-
070M20,28,CIRCLES,First_hidden,exp,45,15,False,1,1,9,0.417253699968569,left,-
070M20,29,CIRCLES,First_hidden,exp,45,15,True,2,0,-,0.3840090000303462,right,-
070M20,30,CIRCLES,First_hidden,exp,45,15,True,2,1,10,0.3673201999627054,left,-
