PART_ID,Trial,Stimuli,Version,Training,FIXTIME,TIME,Correct,SOA,Reversal,Reversal_count,Latency,stim_name,Rating
PB056K36,1,SQUARES,First_showed,training,45,15,True,8,-,-,1.4839751999970758,right,-
PB056K36,2,SQUARES,First_showed,training,45,15,True,8,-,-,1.0505814999924041,right,-
PB056K36,3,SQUARES,First_showed,training,45,15,True,8,-,-,0.45046870000078343,left,-
PB056K36,4,SQUARES,First_showed,training,45,15,True,8,-,-,0.5673765999963507,right,-
PB056K36,5,SQUARES,First_showed,training,45,15,True,8,-,-,0.4841429999942193,right,-
PB056K36,6,SQUARES,First_showed,training,45,15,True,8,-,-,0.5005403999966802,left,-
PB056K36,7,SQUARES,First_showed,training,45,15,True,8,-,-,0.4006609999923967,right,-
PB056K36,8,SQUARES,First_showed,training,45,15,True,8,-,-,0.5006749000021955,right,-
PB056K36,9,SQUARES,First_showed,training,45,15,True,8,-,-,0.6672312000009697,right,-
PB056K36,10,SQUARES,First_showed,training,45,15,True,8,-,-,0.4338339000096312,right,-
PB056K36,11,SQUARES,First_showed,training,45,15,True,3,-,-,0.38406350000877865,right,-
PB056K36,12,SQUARES,First_showed,training,45,15,True,3,-,-,0.5173418000049423,right,-
PB056K36,13,SQUARES,First_showed,training,45,15,True,3,-,-,0.43406110000796616,right,-
PB056K36,14,SQUARES,First_showed,training,45,15,True,3,-,-,0.48399540000536945,right,-
PB056K36,15,SQUARES,First_showed,training,45,15,True,3,-,-,0.3671706000022823,right,-
PB056K36,16,SQUARES,First_showed,training,45,15,True,3,-,-,0.4338046999910148,right,-
PB056K36,17,SQUARES,First_showed,training,45,15,True,3,-,-,0.31726609999896027,right,-
PB056K36,18,SQUARES,First_showed,training,45,15,True,3,-,-,0.2837887000059709,left,-
PB056K36,19,SQUARES,First_showed,training,45,15,True,3,-,-,0.31730379999498837,left,-
PB056K36,20,SQUARES,First_showed,training,45,15,True,3,-,-,0.40015099999436643,left,-
PB056K36,1,SQUARES,First_showed,exp,45,15,True,3,0,0,0.3509727000055136,right,-
PB056K36,2,SQUARES,First_showed,exp,45,15,True,3,0,-,0.5338488999987021,left,-
PB056K36,3,SQUARES,First_showed,exp,45,15,True,2,0,-,1.9008521999930963,right,-
PB056K36,4,SQUARES,First_showed,exp,45,15,True,2,0,-,0.45056309999199584,left,-
PB056K36,5,SQUARES,First_showed,exp,45,15,False,1,1,1,1.100162000002456,right,-
PB056K36,6,SQUARES,First_showed,exp,45,15,False,2,0,-,0.8672691999963718,right,-
PB056K36,7,SQUARES,First_showed,exp,45,15,True,3,0,-,0.35055480001028627,right,-
PB056K36,8,SQUARES,First_showed,exp,45,15,True,3,1,2,0.6171623000118416,left,-
PB056K36,9,SQUARES,First_showed,exp,45,15,True,2,0,-,0.8672488999873167,left,-
PB056K36,10,SQUARES,First_showed,exp,45,15,True,2,0,-,0.41685700000380166,left,-
PB056K36,11,SQUARES,First_showed,exp,45,15,False,1,1,3,0.4508386999950744,right,-
PB056K36,12,SQUARES,First_showed,exp,45,15,False,2,0,-,0.8337361000012606,right,-
PB056K36,13,SQUARES,First_showed,exp,45,15,False,3,0,-,1.117371500004083,right,-
PB056K36,14,SQUARES,First_showed,exp,45,15,True,4,0,-,0.5670795000041835,left,-
PB056K36,15,SQUARES,First_showed,exp,45,15,True,4,1,4,0.3340351999941049,right,-
PB056K36,16,SQUARES,First_showed,exp,45,15,True,3,0,-,0.4005597000068519,left,-
PB056K36,17,SQUARES,First_showed,exp,45,15,False,3,1,5,0.8671617999934824,right,-
PB056K36,18,SQUARES,First_showed,exp,45,15,True,4,0,-,0.41741940000792965,left,-
PB056K36,19,SQUARES,First_showed,exp,45,15,True,4,1,6,0.5005539999983739,right,-
PB056K36,20,SQUARES,First_showed,exp,45,15,True,3,0,-,0.4006697000004351,right,-
PB056K36,21,SQUARES,First_showed,exp,45,15,True,3,0,-,0.5005861000099685,left,-
PB056K36,22,SQUARES,First_showed,exp,45,15,True,2,0,-,0.36720120000245515,left,-
PB056K36,23,SQUARES,First_showed,exp,45,15,True,2,0,-,0.45063579999259673,left,-
PB056K36,24,SQUARES,First_showed,exp,45,15,True,1,0,-,0.4340375000028871,right,-
PB056K36,25,SQUARES,First_showed,exp,45,15,True,1,0,-,1.1673650000011548,right,-
PB056K36,26,SQUARES,First_showed,exp,45,15,True,0,0,-,1.500565300011658,right,-
PB056K36,27,SQUARES,First_showed,exp,45,15,False,0,1,7,1.5172858000005363,right,-
PB056K36,28,SQUARES,First_showed,exp,45,15,True,1,0,-,0.5173343000060413,left,-
PB056K36,29,SQUARES,First_showed,exp,45,15,False,1,0,-,1.0674091999972006,right,-
PB056K36,30,SQUARES,First_showed,exp,45,15,True,2,0,-,0.7172591000125976,left,-
PB056K36,31,SQUARES,First_showed,exp,45,15,True,2,1,8,0.5505690999998478,right,-
PB056K36,32,SQUARES,First_showed,exp,45,15,False,1,1,9,1.117328299995279,right,-
PB056K36,33,SQUARES,First_showed,exp,45,15,False,2,0,-,1.2506806000019424,right,-
PB056K36,34,SQUARES,First_showed,exp,45,15,True,3,0,-,0.4668876000068849,left,-
PB056K36,35,SQUARES,First_showed,exp,45,15,True,3,1,10,1.3500522999966051,left,-
PB056K36,1,CIRCLES,First_hidden,training,45,15,True,8,-,-,0.7172848000045633,right,-
PB056K36,2,CIRCLES,First_hidden,training,45,15,True,8,-,-,0.5673689999966882,right,-
PB056K36,3,CIRCLES,First_hidden,training,45,15,True,8,-,-,0.5005332000000635,left,-
PB056K36,4,CIRCLES,First_hidden,training,45,15,True,8,-,-,0.667260799993528,left,-
PB056K36,5,CIRCLES,First_hidden,training,45,15,True,8,-,-,0.5006198000046425,left,-
PB056K36,6,CIRCLES,First_hidden,training,45,15,True,8,-,-,0.4006348000111757,right,-
PB056K36,7,CIRCLES,First_hidden,training,45,15,True,8,-,-,0.2840890999941621,left,-
PB056K36,8,CIRCLES,First_hidden,training,45,15,True,8,-,-,0.4504543999937596,right,-
PB056K36,9,CIRCLES,First_hidden,training,45,15,True,8,-,-,0.46746749999874737,left,-
PB056K36,10,CIRCLES,First_hidden,training,45,15,True,8,-,-,0.5006953999982215,right,-
PB056K36,11,CIRCLES,First_hidden,training,45,15,True,3,-,-,0.45066360000055283,left,-
PB056K36,12,CIRCLES,First_hidden,training,45,15,True,3,-,-,0.4672730999882333,left,-
PB056K36,13,CIRCLES,First_hidden,training,45,15,True,3,-,-,0.43390930000168737,left,-
PB056K36,14,CIRCLES,First_hidden,training,45,15,True,3,-,-,0.4340565000020433,left,-
PB056K36,15,CIRCLES,First_hidden,training,45,15,True,3,-,-,0.40050229999178555,right,-
PB056K36,16,CIRCLES,First_hidden,training,45,15,True,3,-,-,0.43398400000296533,left,-
PB056K36,17,CIRCLES,First_hidden,training,45,15,True,3,-,-,0.4341547000076389,left,-
PB056K36,18,CIRCLES,First_hidden,training,45,15,True,3,-,-,0.5672487999981968,right,-
PB056K36,19,CIRCLES,First_hidden,training,45,15,True,3,-,-,0.3839991999993799,left,-
PB056K36,20,CIRCLES,First_hidden,training,45,15,True,3,-,-,0.4006579000124475,left,-
PB056K36,1,CIRCLES,First_hidden,exp,45,15,True,3,0,0,0.41727210000681225,left,-
PB056K36,2,CIRCLES,First_hidden,exp,45,15,True,3,0,-,0.5505841999984113,right,-
PB056K36,3,CIRCLES,First_hidden,exp,45,15,True,2,0,-,1.2172615000017686,left,-
PB056K36,4,CIRCLES,First_hidden,exp,45,15,True,2,0,-,0.5672840000042925,right,-
PB056K36,5,CIRCLES,First_hidden,exp,45,15,True,1,0,-,1.2672425999917323,left,-
PB056K36,6,CIRCLES,First_hidden,exp,45,15,True,1,0,-,1.0834695000085048,left,-
PB056K36,7,CIRCLES,First_hidden,exp,45,15,True,0,0,-,2.76738760000444,left,-
PB056K36,8,CIRCLES,First_hidden,exp,45,15,False,0,1,1,2.1840949000034016,left,-
PB056K36,9,CIRCLES,First_hidden,exp,45,15,True,1,0,-,2.100413899999694,left,-
PB056K36,10,CIRCLES,First_hidden,exp,45,15,True,1,1,2,1.8171991999988677,left,-
PB056K36,11,CIRCLES,First_hidden,exp,45,15,False,0,1,3,3.384051399989403,right,-
PB056K36,12,CIRCLES,First_hidden,exp,45,15,True,1,0,-,1.9175164999905974,left,-
PB056K36,13,CIRCLES,First_hidden,exp,45,15,True,1,1,4,2.967527100001462,left,-
PB056K36,14,CIRCLES,First_hidden,exp,45,15,True,0,0,-,2.1173963000037475,left,-
PB056K36,15,CIRCLES,First_hidden,exp,45,15,True,0,0,-,2.300712600001134,right,-
PB056K36,16,CIRCLES,First_hidden,exp,45,15,True,-1,0,-,2.7339304000051925,right,-
PB056K36,17,CIRCLES,First_hidden,exp,45,15,True,-1,0,-,3.1841147000086494,left,-
PB056K36,18,CIRCLES,First_hidden,exp,45,15,True,-2,0,-,2.8008153999981005,left,-
PB056K36,19,CIRCLES,First_hidden,exp,45,15,False,-2,1,5,1.9670964999968419,right,-
PB056K36,20,CIRCLES,First_hidden,exp,45,15,True,-1,0,-,1.8839705999998841,left,-
PB056K36,21,CIRCLES,First_hidden,exp,45,15,True,-1,1,6,1.9506608999945456,right,-
PB056K36,22,CIRCLES,First_hidden,exp,45,15,False,-2,1,7,2.000809700009995,left,-
PB056K36,23,CIRCLES,First_hidden,exp,45,15,True,-1,0,-,2.434105400010594,right,-
PB056K36,24,CIRCLES,First_hidden,exp,45,15,True,-1,1,8,1.6005393999948865,left,-
PB056K36,25,CIRCLES,First_hidden,exp,45,15,False,-2,1,9,1.9006761999917217,right,-
PB056K36,26,CIRCLES,First_hidden,exp,45,15,True,-1,0,-,1.7674501000001328,left,-
PB056K36,27,CIRCLES,First_hidden,exp,45,15,False,-1,0,-,2.600656800001161,right,-
PB056K36,28,CIRCLES,First_hidden,exp,45,15,False,0,0,-,2.1340582000120776,right,-
PB056K36,29,CIRCLES,First_hidden,exp,45,15,False,1,0,-,1.050664099995629,left,-
PB056K36,30,CIRCLES,First_hidden,exp,45,15,False,2,0,-,2.0173677999991924,left,-
PB056K36,31,CIRCLES,First_hidden,exp,45,15,True,3,0,-,0.8172208000032697,left,-
PB056K36,32,CIRCLES,First_hidden,exp,45,15,True,3,1,10,0.6172071000037249,right,-
