PART_ID,Trial,Stimuli,Version,Training,FIXTIME,TIME,Correct,SOA,Reversal,Reversal_count,Latency,stim_name,Rating
084M31,1,SQUARES,First_showed,training,45,15,True,8,-,-,0.20112760000006347,right,-
084M31,2,SQUARES,First_showed,training,45,15,True,8,-,-,0.6010836000000381,left,-
084M31,3,SQUARES,First_showed,training,45,15,True,8,-,-,0.15073919999997543,left,-
084M31,4,SQUARES,First_showed,training,45,15,True,8,-,-,0.05146690000003673,right,-
084M31,5,SQUARES,First_showed,training,45,15,True,8,-,-,0.15114669999991293,left,-
084M31,6,SQUARES,First_showed,training,45,15,True,8,-,-,0.0005873000000065076,right,-
084M31,7,SQUARES,First_showed,training,45,15,True,8,-,-,0.15039339999998447,left,-
084M31,8,SQUARES,First_showed,training,45,15,True,8,-,-,0.08368880000000445,right,-
084M31,9,SQUARES,First_showed,training,45,15,True,8,-,-,0.1341916000000083,left,-
084M31,10,SQUARES,First_showed,training,45,15,True,8,-,-,0.18344089999993685,right,-
084M31,11,SQUARES,First_showed,training,45,15,True,3,-,-,0.2341890999999805,left,-
084M31,12,SQUARES,First_showed,training,45,15,True,3,-,-,0.20040180000000873,left,-
084M31,13,SQUARES,First_showed,training,45,15,True,3,-,-,0.11661140000001069,left,-
084M31,14,SQUARES,First_showed,training,45,15,True,3,-,-,0.15062590000002274,left,-
084M31,15,SQUARES,First_showed,training,45,15,False,3,-,-,0.16715460000000348,right,-
084M31,16,SQUARES,First_showed,training,45,15,True,3,-,-,0.05072409999991123,right,-
084M31,17,SQUARES,First_showed,training,45,15,True,3,-,-,0.30074389999992945,left,-
084M31,18,SQUARES,First_showed,training,45,15,True,3,-,-,0.05103730000007545,right,-
084M31,19,SQUARES,First_showed,training,45,15,True,3,-,-,0.21707000000003518,left,-
084M31,20,SQUARES,First_showed,training,45,15,True,3,-,-,0.18410720000008496,right,-
084M31,1,SQUARES,First_showed,exp,45,15,False,3,0,0,0.15078329999994367,right,-
084M31,2,SQUARES,First_showed,exp,45,15,True,4,0,-,0.10034340000004249,right,-
084M31,3,SQUARES,First_showed,exp,45,15,True,4,1,1,0.05044950000001336,left,-
084M31,4,SQUARES,First_showed,exp,45,15,True,3,0,-,0.20031539999990855,left,-
084M31,5,SQUARES,First_showed,exp,45,15,True,3,0,-,0.15068110000004253,left,-
084M31,6,SQUARES,First_showed,exp,45,15,False,2,1,2,0.33393610000007357,right,-
084M31,7,SQUARES,First_showed,exp,45,15,False,3,0,-,0.1674151999999367,right,-
084M31,8,SQUARES,First_showed,exp,45,15,True,4,0,-,0.3175140000000738,left,-
084M31,9,SQUARES,First_showed,exp,45,15,True,4,1,3,0.0837463000000298,left,-
084M31,10,SQUARES,First_showed,exp,45,15,True,3,0,-,0.13367279999999937,left,-
084M31,11,SQUARES,First_showed,exp,45,15,True,3,0,-,0.10072679999996126,left,-
084M31,12,SQUARES,First_showed,exp,45,15,True,2,0,-,0.16704170000002705,left,-
084M31,13,SQUARES,First_showed,exp,45,15,False,2,1,4,0.06693989999996575,right,-
084M31,14,SQUARES,First_showed,exp,45,15,False,3,0,-,0.10043659999996635,right,-
084M31,15,SQUARES,First_showed,exp,45,15,True,4,0,-,0.06718039999998382,left,-
084M31,16,SQUARES,First_showed,exp,45,15,True,4,1,5,0.033861500000057276,left,-
084M31,17,SQUARES,First_showed,exp,45,15,False,3,1,6,0.26711550000004536,right,-
084M31,18,SQUARES,First_showed,exp,45,15,False,4,0,-,0.0003924000000097294,right,-
084M31,19,SQUARES,First_showed,exp,45,15,True,5,0,-,0.017170899999996436,left,-
084M31,20,SQUARES,First_showed,exp,45,15,True,5,1,7,3.133881400000064,left,-
084M31,21,SQUARES,First_showed,exp,45,15,False,4,1,8,0.18380889999991723,right,-
084M31,22,SQUARES,First_showed,exp,45,15,True,5,0,-,0.08406190000005154,left,-
084M31,23,SQUARES,First_showed,exp,45,15,True,5,1,9,0.01707520000002205,right,-
084M31,24,SQUARES,First_showed,exp,45,15,True,4,0,-,0.050375300000041534,right,-
084M31,25,SQUARES,First_showed,exp,45,15,True,4,0,-,0.2335074000000077,left,-
084M31,26,SQUARES,First_showed,exp,45,15,False,3,1,10,0.08389260000012655,left,-
084M31,1,CIRCLES,First_hidden,training,45,15,True,8,-,-,0.43405170000005455,right,-
084M31,2,CIRCLES,First_hidden,training,45,15,True,8,-,-,0.3173157999999603,right,-
084M31,3,CIRCLES,First_hidden,training,45,15,True,8,-,-,0.400261700000101,left,-
084M31,4,CIRCLES,First_hidden,training,45,15,True,8,-,-,0.30025610000006964,right,-
084M31,5,CIRCLES,First_hidden,training,45,15,True,8,-,-,0.4005677000000105,right,-
084M31,6,CIRCLES,First_hidden,training,45,15,True,8,-,-,0.2501249000001735,left,-
084M31,7,CIRCLES,First_hidden,training,45,15,True,8,-,-,0.23359950000008212,right,-
084M31,8,CIRCLES,First_hidden,training,45,15,True,8,-,-,0.20011449999992692,left,-
084M31,9,CIRCLES,First_hidden,training,45,15,True,8,-,-,0.3339100000000599,left,-
084M31,10,CIRCLES,First_hidden,training,45,15,True,8,-,-,0.31756190000010065,left,-
084M31,11,CIRCLES,First_hidden,training,45,15,True,3,-,-,0.2842920000000504,left,-
084M31,12,CIRCLES,First_hidden,training,45,15,True,3,-,-,0.3843859999999495,right,-
084M31,13,CIRCLES,First_hidden,training,45,15,True,3,-,-,0.38415469999995366,right,-
084M31,14,CIRCLES,First_hidden,training,45,15,True,3,-,-,0.3003610999999182,left,-
084M31,15,CIRCLES,First_hidden,training,45,15,True,3,-,-,0.35035500000003594,left,-
084M31,16,CIRCLES,First_hidden,training,45,15,True,3,-,-,0.4675024000000576,left,-
084M31,17,CIRCLES,First_hidden,training,45,15,True,3,-,-,0.3507180999999946,right,-
084M31,18,CIRCLES,First_hidden,training,45,15,True,3,-,-,0.38414450000004763,right,-
084M31,19,CIRCLES,First_hidden,training,45,15,True,3,-,-,0.3174314999998842,right,-
084M31,20,CIRCLES,First_hidden,training,45,15,True,3,-,-,0.3341740999999274,right,-
084M31,1,CIRCLES,First_hidden,exp,45,15,True,3,0,0,0.3506771999998364,left,-
084M31,2,CIRCLES,First_hidden,exp,45,15,True,3,0,-,0.3341559000000416,left,-
084M31,3,CIRCLES,First_hidden,exp,45,15,True,2,0,-,0.300971299999901,left,-
084M31,4,CIRCLES,First_hidden,exp,45,15,True,2,0,-,0.36752400000000307,right,-
084M31,5,CIRCLES,First_hidden,exp,45,15,True,1,0,-,0.4842877999999473,right,-
084M31,6,CIRCLES,First_hidden,exp,45,15,True,1,0,-,0.36745670000004793,right,-
084M31,7,CIRCLES,First_hidden,exp,45,15,False,0,1,1,0.48431570000002466,right,-
084M31,8,CIRCLES,First_hidden,exp,45,15,True,1,0,-,0.3341083999998773,right,-
084M31,9,CIRCLES,First_hidden,exp,45,15,True,1,1,2,0.4507149000000936,left,-
084M31,10,CIRCLES,First_hidden,exp,45,15,False,0,1,3,2.0342728000000534,right,-
084M31,11,CIRCLES,First_hidden,exp,45,15,True,1,0,-,0.050869300000158546,left,-
084M31,12,CIRCLES,First_hidden,exp,45,15,True,1,1,4,0.3502616000000671,right,-
084M31,13,CIRCLES,First_hidden,exp,45,15,True,0,0,-,3.000680099999954,left,-
084M31,14,CIRCLES,First_hidden,exp,45,15,True,0,0,-,0.5507451999999375,right,-
084M31,15,CIRCLES,First_hidden,exp,45,15,False,-1,1,5,0.36746019999986856,left,-
084M31,16,CIRCLES,First_hidden,exp,45,15,False,0,0,-,0.11743460000002415,left,-
084M31,17,CIRCLES,First_hidden,exp,45,15,False,1,0,-,0.11762350000003607,left,-
084M31,18,CIRCLES,First_hidden,exp,45,15,True,2,0,-,0.6342861000000539,right,-
084M31,19,CIRCLES,First_hidden,exp,45,15,True,2,1,6,0.3846400999998423,left,-
084M31,20,CIRCLES,First_hidden,exp,45,15,True,1,0,-,0.6508699999999408,right,-
084M31,21,CIRCLES,First_hidden,exp,45,15,True,1,0,-,0.4509186000000227,left,-
084M31,22,CIRCLES,First_hidden,exp,45,15,True,0,0,-,0.35101769999982935,left,-
084M31,23,CIRCLES,First_hidden,exp,45,15,True,0,0,-,0.0840714000000844,left,-
084M31,24,CIRCLES,First_hidden,exp,45,15,False,-1,1,7,0.30092560000002777,right,-
084M31,25,CIRCLES,First_hidden,exp,45,15,True,0,0,-,2.6176413000000593,left,-
084M31,26,CIRCLES,First_hidden,exp,45,15,False,0,0,-,0.33400589999996555,right,-
084M31,27,CIRCLES,First_hidden,exp,45,15,False,1,0,-,1.5843033999999534,right,-
084M31,28,CIRCLES,First_hidden,exp,45,15,True,2,0,-,0.05095989999995254,right,-
084M31,29,CIRCLES,First_hidden,exp,45,15,True,2,1,8,0.4007091000000855,right,-
084M31,30,CIRCLES,First_hidden,exp,45,15,True,1,0,-,0.35093879999999444,left,-
084M31,31,CIRCLES,First_hidden,exp,45,15,True,1,0,-,0.4003692000001138,right,-
084M31,32,CIRCLES,First_hidden,exp,45,15,True,0,0,-,0.43405940000002374,right,-
084M31,33,CIRCLES,First_hidden,exp,45,15,False,0,1,9,0.33341440000003786,right,-
084M31,34,CIRCLES,First_hidden,exp,45,15,True,1,0,-,0.2341692999998486,right,-
084M31,35,CIRCLES,First_hidden,exp,45,15,True,1,1,10,0.3666931999998724,right,-
