PART_ID,Trial,Stimuli,Version,Training,FIXTIME,TIME,Correct,SOA,Reversal,Reversal_count,Latency,stim_name,Rating
PB039K22,1,SQUARES,First_showed,training,45,15,True,8,-,-,1.450578999996651,left,-
PB039K22,2,SQUARES,First_showed,training,45,15,True,8,-,-,0.5669913000310771,right,-
PB039K22,3,SQUARES,First_showed,training,45,15,True,8,-,-,0.600172400008887,right,-
PB039K22,4,SQUARES,First_showed,training,45,15,True,8,-,-,0.5172670999891125,left,-
PB039K22,5,SQUARES,First_showed,training,45,15,True,8,-,-,0.6675956000108272,right,-
PB039K22,6,SQUARES,First_showed,training,45,15,True,8,-,-,0.38394030003109947,left,-
PB039K22,7,SQUARES,First_showed,training,45,15,True,8,-,-,0.5672137000365183,left,-
PB039K22,8,SQUARES,First_showed,training,45,15,True,8,-,-,0.43384879996301606,right,-
PB039K22,9,SQUARES,First_showed,training,45,15,True,8,-,-,0.38382809999166057,left,-
PB039K22,10,SQUARES,First_showed,training,45,15,True,8,-,-,0.41715059999842197,left,-
PB039K22,11,SQUARES,First_showed,training,45,15,True,3,-,-,0.41736540000420064,left,-
PB039K22,12,SQUARES,First_showed,training,45,15,True,3,-,-,0.5173042999813333,right,-
PB039K22,13,SQUARES,First_showed,training,45,15,True,3,-,-,0.40044649998890236,right,-
PB039K22,14,SQUARES,First_showed,training,45,15,True,3,-,-,0.4007236000034027,left,-
PB039K22,15,SQUARES,First_showed,training,45,15,True,3,-,-,0.3839460999588482,right,-
PB039K22,16,SQUARES,First_showed,training,45,15,True,3,-,-,0.4841413000249304,left,-
PB039K22,17,SQUARES,First_showed,training,45,15,True,3,-,-,0.2837466999772005,right,-
PB039K22,18,SQUARES,First_showed,training,45,15,True,3,-,-,0.48389699996914715,left,-
PB039K22,19,SQUARES,First_showed,training,45,15,True,3,-,-,0.6674120000097901,left,-
PB039K22,20,SQUARES,First_showed,training,45,15,True,3,-,-,0.3506245000171475,right,-
PB039K22,1,SQUARES,First_showed,exp,45,15,True,3,0,0,0.41727089998312294,left,-
PB039K22,2,SQUARES,First_showed,exp,45,15,True,3,0,-,0.8171670000301674,left,-
PB039K22,3,SQUARES,First_showed,exp,45,15,True,2,0,-,0.43389649997698143,right,-
PB039K22,4,SQUARES,First_showed,exp,45,15,True,2,0,-,0.4005913999862969,left,-
PB039K22,5,SQUARES,First_showed,exp,45,15,True,1,0,-,1.0005372999585234,right,-
PB039K22,6,SQUARES,First_showed,exp,45,15,False,1,1,1,1.2339223999879323,right,-
PB039K22,7,SQUARES,First_showed,exp,45,15,True,2,0,-,0.8673922999878414,left,-
PB039K22,8,SQUARES,First_showed,exp,45,15,True,2,1,2,0.416710699966643,right,-
PB039K22,9,SQUARES,First_showed,exp,45,15,True,1,0,-,0.9173181999940425,left,-
PB039K22,10,SQUARES,First_showed,exp,45,15,False,1,1,3,1.3005137000000104,left,-
PB039K22,11,SQUARES,First_showed,exp,45,15,True,2,0,-,0.4168255000258796,left,-
PB039K22,12,SQUARES,First_showed,exp,45,15,True,2,1,4,1.0174677000031807,left,-
PB039K22,13,SQUARES,First_showed,exp,45,15,False,1,1,5,0.6674393999855965,left,-
PB039K22,14,SQUARES,First_showed,exp,45,15,False,2,0,-,1.1340352999977767,left,-
PB039K22,15,SQUARES,First_showed,exp,45,15,True,3,0,-,0.45045639999443665,right,-
PB039K22,16,SQUARES,First_showed,exp,45,15,True,3,1,6,0.33385910000652075,right,-
PB039K22,17,SQUARES,First_showed,exp,45,15,True,2,0,-,1.8340592000167817,right,-
PB039K22,18,SQUARES,First_showed,exp,45,15,True,2,0,-,1.1505576000199653,left,-
PB039K22,19,SQUARES,First_showed,exp,45,15,False,1,1,7,1.3007745000068098,right,-
PB039K22,20,SQUARES,First_showed,exp,45,15,True,2,0,-,1.017362700018566,left,-
PB039K22,21,SQUARES,First_showed,exp,45,15,True,2,1,8,0.8005317999632098,left,-
PB039K22,22,SQUARES,First_showed,exp,45,15,False,1,1,9,0.8841127000050619,left,-
PB039K22,23,SQUARES,First_showed,exp,45,15,True,2,0,-,0.7007876000134274,right,-
PB039K22,24,SQUARES,First_showed,exp,45,15,True,2,1,10,1.0340463000466116,right,-
PB039K22,1,CIRCLES,First_hidden,training,45,15,True,8,-,-,1.0006908000214025,left,-
PB039K22,2,CIRCLES,First_hidden,training,45,15,True,8,-,-,0.5171646000235341,left,-
PB039K22,3,CIRCLES,First_hidden,training,45,15,True,8,-,-,0.45065680000698194,right,-
PB039K22,4,CIRCLES,First_hidden,training,45,15,True,8,-,-,1.3339669999550097,right,-
PB039K22,5,CIRCLES,First_hidden,training,45,15,True,8,-,-,0.6507940000155941,left,-
PB039K22,6,CIRCLES,First_hidden,training,45,15,True,8,-,-,0.7335537999751978,right,-
PB039K22,7,CIRCLES,First_hidden,training,45,15,True,8,-,-,0.6504865000024438,right,-
PB039K22,8,CIRCLES,First_hidden,training,45,15,True,8,-,-,0.5007539000362158,right,-
PB039K22,9,CIRCLES,First_hidden,training,45,15,True,8,-,-,0.6006545999553055,left,-
PB039K22,10,CIRCLES,First_hidden,training,45,15,True,8,-,-,0.46727020002435893,left,-
PB039K22,11,CIRCLES,First_hidden,training,45,15,True,3,-,-,0.6170186999952421,left,-
PB039K22,12,CIRCLES,First_hidden,training,45,15,True,3,-,-,0.7341556000174023,right,-
PB039K22,13,CIRCLES,First_hidden,training,45,15,True,3,-,-,1.0338656000094488,right,-
PB039K22,14,CIRCLES,First_hidden,training,45,15,True,3,-,-,0.6673807000042871,right,-
PB039K22,15,CIRCLES,First_hidden,training,45,15,True,3,-,-,0.6839824999915436,right,-
PB039K22,16,CIRCLES,First_hidden,training,45,15,True,3,-,-,0.6007300000055693,left,-
PB039K22,17,CIRCLES,First_hidden,training,45,15,True,3,-,-,0.45094099995912984,right,-
PB039K22,18,CIRCLES,First_hidden,training,45,15,True,3,-,-,0.8338804999948479,left,-
PB039K22,19,CIRCLES,First_hidden,training,45,15,True,3,-,-,0.6671738000004552,left,-
PB039K22,20,CIRCLES,First_hidden,training,45,15,True,3,-,-,0.6172870000009425,right,-
PB039K22,1,CIRCLES,First_hidden,exp,45,15,True,3,0,0,0.533538999967277,right,-
PB039K22,2,CIRCLES,First_hidden,exp,45,15,True,3,0,-,0.8674600999802351,right,-
PB039K22,3,CIRCLES,First_hidden,exp,45,15,True,2,0,-,0.5674668999854475,left,-
PB039K22,4,CIRCLES,First_hidden,exp,45,15,True,2,0,-,0.683900099946186,left,-
PB039K22,5,CIRCLES,First_hidden,exp,45,15,False,1,1,1,1.250758100009989,left,-
PB039K22,6,CIRCLES,First_hidden,exp,45,15,True,2,0,-,1.0671971999690868,left,-
PB039K22,7,CIRCLES,First_hidden,exp,45,15,True,2,1,2,1.267271200020332,left,-
PB039K22,8,CIRCLES,First_hidden,exp,45,15,False,1,1,3,0.9168875999748707,left,-
PB039K22,9,CIRCLES,First_hidden,exp,45,15,True,2,0,-,1.250554500031285,right,-
PB039K22,10,CIRCLES,First_hidden,exp,45,15,True,2,1,4,1.4338314000051469,right,-
PB039K22,11,CIRCLES,First_hidden,exp,45,15,False,1,1,5,1.0838619000278413,right,-
PB039K22,12,CIRCLES,First_hidden,exp,45,15,True,2,0,-,0.7840454999823123,left,-
PB039K22,13,CIRCLES,First_hidden,exp,45,15,True,2,1,6,1.1506445999839343,left,-
PB039K22,14,CIRCLES,First_hidden,exp,45,15,False,1,1,7,1.0834715000237338,left,-
PB039K22,15,CIRCLES,First_hidden,exp,45,15,True,2,0,-,0.9503449999610893,right,-
PB039K22,16,CIRCLES,First_hidden,exp,45,15,True,2,1,8,0.9506809000158682,left,-
PB039K22,17,CIRCLES,First_hidden,exp,45,15,False,1,1,9,1.3507550000213087,right,-
PB039K22,18,CIRCLES,First_hidden,exp,45,15,True,2,0,-,1.2673607000033371,right,-
PB039K22,19,CIRCLES,First_hidden,exp,45,15,True,2,1,10,1.0340418000123464,right,-
