PART_ID,Trial,Stimuli,Version,Training,FIXTIME,TIME,Correct,SOA,Reversal,Reversal_count,Latency,stim_name,Rating
PB051K21,1,SQUARES,First_showed,training,45,15,False,8,-,-,1.0510733999981312,right,-
PB051K21,2,SQUARES,First_showed,training,45,15,False,8,-,-,1.0508064000023296,left,-
PB051K21,3,SQUARES,First_showed,training,45,15,True,8,-,-,1.6341189999948256,right,-
PB051K21,4,SQUARES,First_showed,training,45,15,True,8,-,-,0.35062359999574255,left,-
PB051K21,5,SQUARES,First_showed,training,45,15,True,8,-,-,0.2005081999959657,right,-
PB051K21,6,SQUARES,First_showed,training,45,15,True,8,-,-,0.166905099991709,left,-
PB051K21,7,SQUARES,First_showed,training,45,15,True,8,-,-,0.18372590000217315,right,-
PB051K21,8,SQUARES,First_showed,training,45,15,True,8,-,-,0.3341462000098545,left,-
PB051K21,9,SQUARES,First_showed,training,45,15,True,8,-,-,0.36732710000069346,left,-
PB051K21,10,SQUARES,First_showed,training,45,15,True,8,-,-,0.15063840000948403,left,-
PB051K21,11,SQUARES,First_showed,training,45,15,True,3,-,-,0.21673759999976028,left,-
PB051K21,12,SQUARES,First_showed,training,45,15,True,3,-,-,0.13397789999726228,left,-
PB051K21,13,SQUARES,First_showed,training,45,15,True,3,-,-,0.2174081999983173,right,-
PB051K21,14,SQUARES,First_showed,training,45,15,True,3,-,-,0.36748280000756495,right,-
PB051K21,15,SQUARES,First_showed,training,45,15,True,3,-,-,0.1838959999877261,right,-
PB051K21,16,SQUARES,First_showed,training,45,15,True,3,-,-,0.1340803000057349,left,-
PB051K21,17,SQUARES,First_showed,training,45,15,True,3,-,-,0.1337607999885222,right,-
PB051K21,18,SQUARES,First_showed,training,45,15,True,3,-,-,0.350608499997179,right,-
PB051K21,19,SQUARES,First_showed,training,45,15,True,3,-,-,0.11736160000145901,left,-
PB051K21,20,SQUARES,First_showed,training,45,15,True,3,-,-,0.033951899997191504,right,-
PB051K21,1,SQUARES,First_showed,exp,45,15,True,3,0,0,0.5673137999983737,right,-
PB051K21,2,SQUARES,First_showed,exp,45,15,True,3,0,-,0.21722160000354052,right,-
PB051K21,3,SQUARES,First_showed,exp,45,15,True,2,0,-,0.317450500006089,right,-
PB051K21,4,SQUARES,First_showed,exp,45,15,True,2,0,-,0.28369920000841375,right,-
PB051K21,5,SQUARES,First_showed,exp,45,15,False,1,1,1,0.41720310000528116,right,-
PB051K21,6,SQUARES,First_showed,exp,45,15,True,2,0,-,0.9172077999974135,right,-
PB051K21,7,SQUARES,First_showed,exp,45,15,True,2,1,2,0.26732620000257157,right,-
PB051K21,8,SQUARES,First_showed,exp,45,15,True,1,0,-,0.13413659999787342,left,-
PB051K21,9,SQUARES,First_showed,exp,45,15,False,1,1,3,0.20064090000232682,right,-
PB051K21,10,SQUARES,First_showed,exp,45,15,True,2,0,-,0.15097760000207927,left,-
PB051K21,11,SQUARES,First_showed,exp,45,15,True,2,1,4,0.1672130999941146,left,-
PB051K21,12,SQUARES,First_showed,exp,45,15,True,1,0,-,0.2504398000019137,left,-
PB051K21,13,SQUARES,First_showed,exp,45,15,False,1,1,5,0.23387280000315513,left,-
PB051K21,14,SQUARES,First_showed,exp,45,15,True,2,0,-,0.20064179999462795,right,-
PB051K21,15,SQUARES,First_showed,exp,45,15,True,2,1,6,0.21771179999632295,right,-
PB051K21,16,SQUARES,First_showed,exp,45,15,True,1,0,-,0.1835129999963101,left,-
PB051K21,17,SQUARES,First_showed,exp,45,15,True,1,0,-,0.26693949999753386,left,-
PB051K21,18,SQUARES,First_showed,exp,45,15,False,0,1,7,0.1004555999970762,left,-
PB051K21,19,SQUARES,First_showed,exp,45,15,True,1,0,-,0.6501382999995258,left,-
PB051K21,20,SQUARES,First_showed,exp,45,15,False,1,0,-,0.23395249999884982,right,-
PB051K21,21,SQUARES,First_showed,exp,45,15,True,2,0,-,0.26728230000298936,right,-
PB051K21,22,SQUARES,First_showed,exp,45,15,False,2,0,-,0.5001286000042455,left,-
PB051K21,23,SQUARES,First_showed,exp,45,15,False,3,0,-,0.9340358000044944,left,-
PB051K21,24,SQUARES,First_showed,exp,45,15,False,4,0,-,1.0339825999981258,left,-
PB051K21,25,SQUARES,First_showed,exp,45,15,True,5,0,-,0.25092610000865534,right,-
PB051K21,26,SQUARES,First_showed,exp,45,15,False,5,0,-,1.1837680000026012,right,-
PB051K21,27,SQUARES,First_showed,exp,45,15,True,6,0,-,0.2840721999964444,right,-
PB051K21,28,SQUARES,First_showed,exp,45,15,True,6,1,8,0.21753919999173377,right,-
PB051K21,29,SQUARES,First_showed,exp,45,15,True,5,0,-,0.11729949999426026,right,-
PB051K21,30,SQUARES,First_showed,exp,45,15,True,5,0,-,0.18388499999127816,left,-
PB051K21,31,SQUARES,First_showed,exp,45,15,True,4,0,-,0.4007939000002807,right,-
PB051K21,32,SQUARES,First_showed,exp,45,15,True,4,0,-,0.1503658000001451,right,-
PB051K21,33,SQUARES,First_showed,exp,45,15,True,3,0,-,0.13364800000272226,right,-
PB051K21,34,SQUARES,First_showed,exp,45,15,True,3,0,-,0.28404670000600163,left,-
PB051K21,35,SQUARES,First_showed,exp,45,15,True,2,0,-,0.18376189999980852,left,-
PB051K21,36,SQUARES,First_showed,exp,45,15,True,2,0,-,0.1838650999998208,left,-
PB051K21,37,SQUARES,First_showed,exp,45,15,False,1,1,9,0.25052259999210946,right,-
PB051K21,38,SQUARES,First_showed,exp,45,15,False,2,0,-,0.383691800001543,left,-
PB051K21,39,SQUARES,First_showed,exp,45,15,True,3,0,-,0.21672989999933634,right,-
PB051K21,40,SQUARES,First_showed,exp,45,15,False,3,0,-,1.4172017999953823,left,-
PB051K21,41,SQUARES,First_showed,exp,45,15,True,4,0,-,0.40061310000601225,left,-
PB051K21,42,SQUARES,First_showed,exp,45,15,True,4,1,10,0.30062769999494776,left,-
PB051K21,1,CIRCLES,First_hidden,training,45,15,True,8,-,-,0.5339160000003176,right,-
PB051K21,2,CIRCLES,First_hidden,training,45,15,True,8,-,-,0.6335572999960277,left,-
PB051K21,3,CIRCLES,First_hidden,training,45,15,True,8,-,-,0.5840806000051089,left,-
PB051K21,4,CIRCLES,First_hidden,training,45,15,True,8,-,-,0.23397240000485908,left,-
PB051K21,5,CIRCLES,First_hidden,training,45,15,True,8,-,-,0.4006301000044914,right,-
PB051K21,6,CIRCLES,First_hidden,training,45,15,True,8,-,-,0.43379060000006575,right,-
PB051K21,7,CIRCLES,First_hidden,training,45,15,True,8,-,-,0.48392929999681655,left,-
PB051K21,8,CIRCLES,First_hidden,training,45,15,True,8,-,-,0.3669307999953162,right,-
PB051K21,9,CIRCLES,First_hidden,training,45,15,True,8,-,-,0.5172223999979906,left,-
PB051K21,10,CIRCLES,First_hidden,training,45,15,True,8,-,-,0.33383540000068024,right,-
PB051K21,11,CIRCLES,First_hidden,training,45,15,True,3,-,-,0.6839749999926426,right,-
PB051K21,12,CIRCLES,First_hidden,training,45,15,True,3,-,-,0.5503175999911036,left,-
PB051K21,13,CIRCLES,First_hidden,training,45,15,True,3,-,-,0.33391809999011457,right,-
PB051K21,14,CIRCLES,First_hidden,training,45,15,True,3,-,-,0.3006388999929186,left,-
PB051K21,15,CIRCLES,First_hidden,training,45,15,True,3,-,-,0.5506007000076352,right,-
PB051K21,16,CIRCLES,First_hidden,training,45,15,False,3,-,-,0.8669926000002306,right,-
PB051K21,17,CIRCLES,First_hidden,training,45,15,False,3,-,-,0.6171899999899324,left,-
PB051K21,18,CIRCLES,First_hidden,training,45,15,True,3,-,-,0.5506938999897102,left,-
PB051K21,19,CIRCLES,First_hidden,training,45,15,True,3,-,-,0.6507206999958726,left,-
PB051K21,20,CIRCLES,First_hidden,training,45,15,True,3,-,-,0.5172316999960458,right,-
PB051K21,1,CIRCLES,First_hidden,exp,45,15,True,3,0,0,0.5672153999912553,right,-
PB051K21,2,CIRCLES,First_hidden,exp,45,15,True,3,0,-,0.7507771999953547,right,-
PB051K21,3,CIRCLES,First_hidden,exp,45,15,True,2,0,-,0.5172345000028145,left,-
PB051K21,4,CIRCLES,First_hidden,exp,45,15,True,2,0,-,0.6005249000008916,left,-
PB051K21,5,CIRCLES,First_hidden,exp,45,15,True,1,0,-,0.5006684999971185,left,-
PB051K21,6,CIRCLES,First_hidden,exp,45,15,True,1,0,-,0.7506786000012653,right,-
PB051K21,7,CIRCLES,First_hidden,exp,45,15,True,0,0,-,0.8167439000098966,left,-
PB051K21,8,CIRCLES,First_hidden,exp,45,15,True,0,0,-,1.083934499998577,left,-
PB051K21,9,CIRCLES,First_hidden,exp,45,15,False,-1,1,1,1.1006475999893155,right,-
PB051K21,10,CIRCLES,First_hidden,exp,45,15,True,0,0,-,0.7171170999936294,right,-
PB051K21,11,CIRCLES,First_hidden,exp,45,15,False,0,0,-,0.48399229999631643,left,-
PB051K21,12,CIRCLES,First_hidden,exp,45,15,True,1,0,-,0.9339628000016091,left,-
PB051K21,13,CIRCLES,First_hidden,exp,45,15,True,1,1,2,0.7675718999962555,left,-
PB051K21,14,CIRCLES,First_hidden,exp,45,15,False,0,1,3,0.4505465000111144,left,-
PB051K21,15,CIRCLES,First_hidden,exp,45,15,False,1,0,-,0.5002980999997817,left,-
PB051K21,16,CIRCLES,First_hidden,exp,45,15,True,2,0,-,0.5336321000067983,left,-
PB051K21,17,CIRCLES,First_hidden,exp,45,15,True,2,1,4,1.0673979999992298,right,-
PB051K21,18,CIRCLES,First_hidden,exp,45,15,True,1,0,-,0.633826000004774,left,-
PB051K21,19,CIRCLES,First_hidden,exp,45,15,True,1,0,-,0.5003931999963243,left,-
PB051K21,20,CIRCLES,First_hidden,exp,45,15,False,0,1,5,0.6005217999918386,left,-
PB051K21,21,CIRCLES,First_hidden,exp,45,15,False,1,0,-,0.8839479000016581,right,-
PB051K21,22,CIRCLES,First_hidden,exp,45,15,True,2,0,-,0.6007702999922913,right,-
PB051K21,23,CIRCLES,First_hidden,exp,45,15,True,2,1,6,0.65068419999443,left,-
PB051K21,24,CIRCLES,First_hidden,exp,45,15,False,1,1,7,1.0008269999962067,right,-
PB051K21,25,CIRCLES,First_hidden,exp,45,15,True,2,0,-,0.5672863999934634,left,-
PB051K21,26,CIRCLES,First_hidden,exp,45,15,True,2,1,8,0.8006338999985019,right,-
PB051K21,27,CIRCLES,First_hidden,exp,45,15,True,1,0,-,0.4175377000065055,left,-
PB051K21,28,CIRCLES,First_hidden,exp,45,15,False,1,1,9,0.6339889000082621,right,-
PB051K21,29,CIRCLES,First_hidden,exp,45,15,True,2,0,-,0.43402839999180287,right,-
PB051K21,30,CIRCLES,First_hidden,exp,45,15,False,2,0,-,0.5674251000018558,right,-
PB051K21,31,CIRCLES,First_hidden,exp,45,15,True,3,0,-,0.4339570000011008,right,-
PB051K21,32,CIRCLES,First_hidden,exp,45,15,True,3,1,10,0.5672141999966698,right,-
