PART_ID,Trial,Stimuli,Training,FIXTIME,MTIME,Correct,SOA,Level,Reversal,Reversal_count,Latency,Rating
034K31,1,SQUARES,training,45,17,True,12,-,-,-,0.30013649999455083,-
034K31,2,SQUARES,training,45,17,True,12,-,-,-,0.23379170001135208,-
034K31,3,SQUARES,training,45,17,True,12,-,-,-,3.7007497000013245,-
034K31,4,SQUARES,training,45,17,True,12,-,-,-,0.4002894000004744,-
034K31,5,SQUARES,training,45,17,True,12,-,-,-,0.1839192999905208,-
034K31,6,SQUARES,training,45,17,True,12,-,-,-,0.0006132999988039955,-
034K31,7,SQUARES,training,45,17,True,12,-,-,-,0.034065200001350604,-
034K31,8,SQUARES,training,45,17,True,12,-,-,-,0.03407689998857677,-
034K31,9,SQUARES,training,45,17,True,12,-,-,-,0.2506452000088757,-
034K31,10,SQUARES,training,45,17,True,12,-,-,-,0.11726479999197181,-
034K31,11,SQUARES,training,45,17,True,6,-,-,-,0.1338065000018105,-
034K31,12,SQUARES,training,45,17,True,6,-,-,-,0.33399800000188407,-
034K31,13,SQUARES,training,45,17,True,6,-,-,-,0.1167942000029143,-
034K31,14,SQUARES,training,45,17,True,6,-,-,-,0.3672675999987405,-
034K31,15,SQUARES,training,45,17,True,6,-,-,-,0.2501942000089912,-
034K31,16,SQUARES,training,45,17,True,6,-,-,-,0.23386259999824688,-
034K31,17,SQUARES,training,45,17,True,6,-,-,-,0.2338709000032395,-
034K31,18,SQUARES,training,45,17,True,6,-,-,-,0.11718169999949168,-
034K31,19,SQUARES,training,45,17,True,6,-,-,-,0.08406889998877887,-
034K31,20,SQUARES,training,45,17,True,6,-,-,-,0.2511495999933686,-
034K31,1,SQUARES,exp,45,17,True,6,0,0,0,0.15022969999699853,-
034K31,2,SQUARES,exp,45,17,True,6,1,0,-,0.10061850000056438,-
034K31,3,SQUARES,exp,45,17,True,5,1,0,-,0.13405159999092575,-
034K31,4,SQUARES,exp,45,17,True,5,1,0,-,0.1672897000098601,-
034K31,5,SQUARES,exp,45,17,True,4,1,0,-,0.1672244000073988,-
034K31,6,SQUARES,exp,45,17,True,4,1,0,-,0.23382470000069588,-
034K31,7,SQUARES,exp,45,17,False,3,-1,1,1,0.23391429999901447,-
034K31,8,SQUARES,exp,45,17,False,4,-1,0,-,0.1836843999917619,-
034K31,9,SQUARES,exp,45,17,True,5,-1,0,-,0.03393800000776537,-
034K31,10,SQUARES,exp,45,17,True,5,1,1,2,0.26732290000654757,-
034K31,11,SQUARES,exp,45,17,True,4,1,0,-,0.3339573000121163,-
034K31,12,SQUARES,exp,45,17,True,4,1,0,-,0.10063570000056643,-
034K31,13,SQUARES,exp,45,17,False,3,-1,1,3,0.21718990000954363,-
034K31,14,SQUARES,exp,45,17,False,4,-1,0,-,0.20051640000019688,-
034K31,15,SQUARES,exp,45,17,True,5,-1,0,-,0.2172028000059072,-
034K31,16,SQUARES,exp,45,17,False,5,-1,0,-,0.23370910000812728,-
034K31,17,SQUARES,exp,45,17,True,6,-1,0,-,0.16724140000587795,-
034K31,18,SQUARES,exp,45,17,True,6,1,1,4,0.36717669999052305,-
034K31,19,SQUARES,exp,45,17,True,5,1,0,-,0.3170566999906441,-
034K31,20,SQUARES,exp,45,17,True,5,1,0,-,0.33398130000568926,-
034K31,21,SQUARES,exp,45,17,True,4,1,0,-,0.30065630000899546,-
034K31,22,SQUARES,exp,45,17,True,4,1,0,-,0.2672235000063665,-
034K31,23,SQUARES,exp,45,17,True,3,1,0,-,0.26714699999138247,-
034K31,24,SQUARES,exp,45,17,False,3,-1,1,5,0.3004547000018647,-
034K31,25,SQUARES,exp,45,17,True,4,-1,0,-,0.517740600000252,-
034K31,26,SQUARES,exp,45,17,True,4,1,1,6,0.4340286999940872,-
034K31,27,SQUARES,exp,45,17,True,3,1,0,-,0.10078730000532232,-
034K31,28,SQUARES,exp,45,17,True,3,1,0,-,0.18390329999965616,-
034K31,29,SQUARES,exp,45,17,True,2,1,0,-,0.3506377000012435,-
034K31,30,SQUARES,exp,45,17,False,2,-1,1,7,0.3504581000015605,-
034K31,31,SQUARES,exp,45,17,False,3,-1,0,-,0.3841543000016827,-
034K31,32,SQUARES,exp,45,17,True,4,-1,0,-,0.4673801999888383,-
034K31,33,SQUARES,exp,45,17,True,4,1,1,8,0.534136700007366,-
034K31,34,SQUARES,exp,45,17,True,3,1,0,-,0.45058489999792073,-
034K31,35,SQUARES,exp,45,17,True,3,1,0,-,0.4505827999964822,-
034K31,36,SQUARES,exp,45,17,False,2,-1,1,9,0.5006276000058278,-
034K31,37,SQUARES,exp,45,17,False,3,-1,0,-,0.4506212999986019,-
034K31,38,SQUARES,exp,45,17,True,4,-1,0,-,0.31697809998877347,-
034K31,39,SQUARES,exp,45,17,False,4,-1,0,-,0.4175004999997327,-
034K31,40,SQUARES,exp,45,17,True,5,-1,0,-,0.41733039999962784,-
034K31,41,SQUARES,exp,45,17,True,5,1,1,10,0.46685230000002775,-
034K31,1,CIRCLES,training,45,17,True,20,-,-,-,2.1505145999981323,-
034K31,2,CIRCLES,training,45,17,True,20,-,-,-,0.8838265999947907,-
034K31,3,CIRCLES,training,45,17,True,20,-,-,-,0.9838522000063676,-
034K31,4,CIRCLES,training,45,17,True,20,-,-,-,0.35056770000664983,-
034K31,5,CIRCLES,training,45,17,True,20,-,-,-,0.7173748000059277,-
034K31,6,CIRCLES,training,45,17,True,20,-,-,-,0.03409329999703914,-
034K31,7,CIRCLES,training,45,17,True,20,-,-,-,0.9674027000000933,-
034K31,8,CIRCLES,training,45,17,True,20,-,-,-,0.06728859999566339,-
034K31,9,CIRCLES,training,45,17,True,20,-,-,-,0.15070290000585373,-
034K31,10,CIRCLES,training,45,17,True,20,-,-,-,0.10065770000801422,-
034K31,11,CIRCLES,training,45,17,True,10,-,-,-,0.300595799999428,-
034K31,12,CIRCLES,training,45,17,True,10,-,-,-,0.18354939999699127,-
034K31,13,CIRCLES,training,45,17,True,10,-,-,-,0.01736900000832975,-
034K31,14,CIRCLES,training,45,17,True,10,-,-,-,0.13364699999510776,-
034K31,15,CIRCLES,training,45,17,True,10,-,-,-,0.40062159999797586,-
034K31,16,CIRCLES,training,45,17,True,10,-,-,-,0.33333750000747386,-
034K31,17,CIRCLES,training,45,17,True,10,-,-,-,0.31715439999243245,-
034K31,18,CIRCLES,training,45,17,True,10,-,-,-,0.2339854000019841,-
034K31,19,CIRCLES,training,45,17,True,10,-,-,-,0.06723000000056345,-
034K31,20,CIRCLES,training,45,17,True,10,-,-,-,0.68355510001129,-
034K31,1,CIRCLES,exp,45,17,True,10,0,0,0,0.017230299999937415,-
034K31,2,CIRCLES,exp,45,17,True,10,1,0,-,1.2009969000064302,-
034K31,3,CIRCLES,exp,45,17,True,9,1,0,-,0.300835800007917,-
034K31,4,CIRCLES,exp,45,17,True,9,1,0,-,0.08382740001252387,-
034K31,5,CIRCLES,exp,45,17,True,8,1,0,-,0.06727400000090711,-
034K31,6,CIRCLES,exp,45,17,True,8,1,0,-,0.03398459999880288,-
034K31,7,CIRCLES,exp,45,17,True,7,1,0,-,0.1338429999887012,-
034K31,8,CIRCLES,exp,45,17,True,7,1,0,-,0.06700770001043566,-
034K31,9,CIRCLES,exp,45,17,True,6,1,0,-,0.050500999990617856,-
034K31,10,CIRCLES,exp,45,17,True,6,1,0,-,0.16709290001017507,-
034K31,11,CIRCLES,exp,45,17,True,5,1,0,-,0.7673421000072267,-
034K31,12,CIRCLES,exp,45,17,True,5,1,0,-,0.2002453000022797,-
034K31,13,CIRCLES,exp,45,17,True,4,1,0,-,0.05063030000019353,-
034K31,14,CIRCLES,exp,45,17,True,4,1,0,-,0.28398970000853296,-
034K31,15,CIRCLES,exp,45,17,True,3,1,0,-,0.21724769999855198,-
034K31,16,CIRCLES,exp,45,17,True,3,1,0,-,0.20053760000155307,-
034K31,17,CIRCLES,exp,45,17,False,2,-1,1,1,0.1505955000029644,-
034K31,18,CIRCLES,exp,45,17,True,3,-1,0,-,0.28395240000099875,-
034K31,19,CIRCLES,exp,45,17,False,3,-1,0,-,0.3672022999962792,-
034K31,20,CIRCLES,exp,45,17,True,4,-1,0,-,0.2507063999946695,-
034K31,21,CIRCLES,exp,45,17,False,4,-1,0,-,0.31735460000345483,-
034K31,22,CIRCLES,exp,45,17,False,5,-1,0,-,0.23399720000452362,-
034K31,23,CIRCLES,exp,45,17,True,6,-1,0,-,0.2173140999948373,-
034K31,24,CIRCLES,exp,45,17,True,6,1,1,2,0.2501752999960445,-
034K31,25,CIRCLES,exp,45,17,True,5,1,0,-,0.40058469999348745,-
034K31,26,CIRCLES,exp,45,17,False,5,-1,1,3,0.5339473999920301,-
034K31,27,CIRCLES,exp,45,17,True,6,-1,0,-,0.3007147000025725,-
034K31,28,CIRCLES,exp,45,17,True,6,1,1,4,0.03395240000099875,-
034K31,29,CIRCLES,exp,45,17,True,5,1,0,-,0.3006771999935154,-
034K31,30,CIRCLES,exp,45,17,False,5,-1,1,5,0.3172641000128351,-
034K31,31,CIRCLES,exp,45,17,True,6,-1,0,-,0.20070239999040496,-
034K31,32,CIRCLES,exp,45,17,False,6,-1,0,-,0.1506370999995852,-
034K31,33,CIRCLES,exp,45,17,True,7,-1,0,-,0.2173763000027975,-
034K31,34,CIRCLES,exp,45,17,False,7,-1,0,-,0.3173147999914363,-
034K31,35,CIRCLES,exp,45,17,True,8,-1,0,-,0.20057979998819064,-
034K31,36,CIRCLES,exp,45,17,True,8,1,1,6,0.31740899999567773,-
034K31,37,CIRCLES,exp,45,17,True,7,1,0,-,0.23339009999472182,-
034K31,38,CIRCLES,exp,45,17,True,7,1,0,-,0.3839682999969227,-
034K31,39,CIRCLES,exp,45,17,True,6,1,0,-,0.25073519999568816,-
034K31,40,CIRCLES,exp,45,17,True,6,1,0,-,0.08440339998924173,-
034K31,41,CIRCLES,exp,45,17,False,5,-1,1,7,0.41710179999063257,-
034K31,42,CIRCLES,exp,45,17,True,6,-1,0,-,0.26682840001012664,-
034K31,43,CIRCLES,exp,45,17,True,6,1,1,8,0.13380460000189487,-
034K31,44,CIRCLES,exp,45,17,True,5,1,0,-,0.28391470000497065,-
034K31,45,CIRCLES,exp,45,17,True,5,1,0,-,0.1836306000041077,-
034K31,46,CIRCLES,exp,45,17,False,4,-1,1,9,0.3504837999935262,-
034K31,47,CIRCLES,exp,45,17,True,5,-1,0,-,0.2506897000130266,-
034K31,48,CIRCLES,exp,45,17,True,5,1,1,10,0.15056360000744462,-
