PART_ID,Trial_no,Trial_type,CSI,Stim_letter,Key_pressed,letter_choose,Rt,Corr,Stimulus Time,nDropped
156K28S4,1,training,120,↑,up,↑,0.49246999993920326,True,60,0
156K28S4,2,training,120,↑,up,↑,0.4602659000083804,True,60,0
156K28S4,3,training,120,↑,up,↑,0.5162378000095487,True,60,0
156K28S4,4,training,120,↑,up,↑,0.3520674002356827,True,60,0
156K28S4,5,training,120,↑,up,↑,0.32535080006346107,True,60,0
156K28S4,6,training,120,↓,up,↑,0.45210549980401993,False,60,0
156K28S4,7,training,120,↓,down,↓,0.5087056001648307,True,60,0
156K28S4,8,training,120,→,right,→,0.8315146001987159,True,60,0
156K28S4,9,training,120,↓,down,↓,0.5021913996897638,True,60,0
156K28S4,10,training,120,→,right,→,0.6173029998317361,True,60,0
156K28S4,11,training,120,→,right,→,0.34353170031681657,True,60,0
156K28S4,12,training,120,→,right,→,0.37690829997882247,True,60,0
156K28S4,13,training,120,↑,up,↑,0.3768238998018205,True,60,0
156K28S4,14,training,120,↓,down,↓,0.7436379999853671,True,60,0
156K28S4,15,training,120,↓,down,↓,0.6174389999359846,True,60,0
156K28S4,16,training,120,←,left,←,0.43519970029592514,True,60,0
156K28S4,17,training,120,↓,down,↓,0.6173910996876657,True,60,0
156K28S4,18,training,120,→,right,→,0.37691219989210367,True,60,0
156K28S4,19,training,120,↓,down,↓,0.5254897996783257,True,60,0
156K28S4,20,training,120,←,left,←,0.6700035999529064,True,60,0
156K28S4,21,no_adaptation,120,←,left,←,0.4098955998197198,True,36,0
156K28S4,22,no_adaptation,120,↓,down,↓,0.7106416998431087,True,36,0
156K28S4,23,no_adaptation,120,←,left,←,0.6572425998747349,True,36,0
156K28S4,24,no_adaptation,120,←,left,←,0.4173425999470055,True,36,0
156K28S4,25,no_adaptation,120,↓,down,↓,0.5722842002287507,True,36,0
156K28S4,26,no_adaptation,120,↓,down,↓,0.7084596999920905,True,36,0
156K28S4,27,no_adaptation,120,←,left,←,0.40088720014318824,True,36,0
156K28S4,28,no_adaptation,120,←,left,←,0.7261445000767708,True,36,0
156K28S4,29,no_adaptation,120,↓,down,↓,0.5923099000938237,True,36,0
156K28S4,30,no_adaptation,120,↓,down,↓,0.5758993001654744,True,36,0
156K28S4,31,no_adaptation,120,→,right,→,0.5041008000262082,True,36,0
156K28S4,32,no_adaptation,120,←,left,←,0.5708785997703671,True,36,0
156K28S4,33,no_adaptation,120,↓,down,↓,1.043014599941671,True,36,0
156K28S4,34,no_adaptation,120,↑,up,↑,0.6325874999165535,True,36,0
156K28S4,35,no_adaptation,120,→,right,→,0.4174480000510812,True,36,0
156K28S4,36,no_adaptation,120,←,left,←,0.564639599993825,True,36,0
156K28S4,37,no_adaptation,120,↑,up,↑,0.621184500399977,True,36,0
156K28S4,38,no_adaptation,120,→,right,→,0.6193220000714064,True,36,0
156K28S4,39,no_adaptation,120,→,right,→,0.4975248998962343,True,36,0
156K28S4,40,no_adaptation,120,←,left,←,0.5007982002571225,True,36,0
156K28S4,41,training,85,↑,up,↑,0.5526473000645638,True,36,0
156K28S4,42,training,102,↑,up,↑,0.6562652001157403,True,36,1
156K28S4,43,experiment,51,↓,down,↓,0.4693836998194456,True,36,1
156K28S4,44,experiment,104,↑,up,↑,0.4173887996003032,True,36,0
156K28S4,45,experiment,76,←,left,←,0.3756570997647941,True,36,0
156K28S4,46,experiment,97,↓,down,↓,0.5882866000756621,True,36,0
156K28S4,47,experiment,73,↓,down,↓,0.6920972997322679,True,36,1
156K28S4,48,experiment,67,→,right,→,0.45087859965860844,True,36,1
156K28S4,49,experiment,88,→,right,→,1.0096726999618113,True,36,0
156K28S4,50,experiment,58,→,right,→,0.5819073999300599,True,36,1
156K28S4,51,experiment,62,↑,up,↑,0.5296209999360144,True,36,1
156K28S4,52,experiment,103,↓,down,↓,0.5856407997198403,True,36,1
156K28S4,53,experiment,106,→,right,→,0.6225875001400709,True,36,1
156K28S4,54,experiment,56,←,left,←,0.5467396997846663,True,36,1
156K28S4,55,experiment,65,→,right,→,0.5107609000988305,True,36,1
156K28S4,56,experiment,64,←,left,←,0.572904100175947,True,36,1
156K28S4,57,experiment,82,↑,up,↑,1.0102331000380218,True,36,1
156K28S4,58,experiment,71,↓,down,↓,0.45081650000065565,True,36,1
156K28S4,59,experiment,99,←,left,←,0.4256694996729493,True,36,0
156K28S4,60,experiment,69,→,right,→,0.42572579998522997,True,36,0
156K28S4,61,experiment,102,→,right,→,0.5701029999181628,True,36,0
156K28S4,62,experiment,68,←,left,←,0.4173729997128248,True,36,1
156K28S4,63,experiment,100,↓,down,↓,0.48999009979888797,True,36,0
156K28S4,64,experiment,98,↑,up,↑,0.6693942998535931,True,36,1
156K28S4,65,experiment,95,→,right,→,0.48329730005934834,True,36,1
156K28S4,66,experiment,78,←,left,←,0.5970767997205257,True,36,1
156K28S4,67,experiment,105,↑,up,↑,0.4350021001882851,True,36,1
156K28S4,68,experiment,52,←,left,←,0.6142331999726593,True,36,0
156K28S4,69,experiment,81,↓,down,↓,0.48250719998031855,True,36,1
156K28S4,70,experiment,96,↑,up,↑,0.5346328001469374,True,36,1
156K28S4,71,experiment,61,↑,up,↑,0.5167370997369289,True,36,1
156K28S4,72,experiment,66,↑,up,↑,0.5138362995348871,True,36,1
156K28S4,73,experiment,54,←,left,←,0.9867859999649227,True,36,1
156K28S4,74,experiment,60,←,left,←,0.5675301002338529,True,36,1
156K28S4,75,experiment,101,→,right,→,0.6145730996504426,True,36,1
156K28S4,76,experiment,77,↓,down,↓,0.5080932998098433,True,36,1
156K28S4,77,experiment,75,↑,up,↑,0.4710758998990059,True,36,1
156K28S4,78,experiment,86,↓,down,↓,0.48662729980424047,True,36,1
156K28S4,79,experiment,74,→,right,→,0.4258200000040233,True,36,1
156K28S4,80,experiment,80,↓,down,↓,0.6780258002690971,True,36,0
156K28S4,81,experiment,107,↑,up,↑,0.4424046999774873,True,36,1
156K28S4,82,experiment,90,←,left,←,0.4004938001744449,True,36,0
156K28S4,83,experiment,87,↓,down,↓,0.5211299997754395,True,36,0
156K28S4,84,experiment,93,↑,up,↑,0.42571880016475916,True,36,1
156K28S4,85,experiment,70,←,left,←,0.5243482999503613,True,36,0
156K28S4,86,experiment,94,←,left,←,0.43400679994374514,True,36,1
156K28S4,87,experiment,55,↓,down,↓,0.425704900175333,True,36,0
156K28S4,88,experiment,79,↓,down,↓,0.47187389992177486,True,36,0
156K28S4,89,experiment,72,→,right,→,0.5802468000911176,True,36,0
156K28S4,90,experiment,50,←,left,←,0.6277423999272287,True,36,1
156K28S4,91,experiment,59,→,right,→,0.5188347999937832,True,36,1
156K28S4,92,experiment,89,→,right,→,0.5961786000989377,True,36,1
156K28S4,93,experiment,63,→,right,→,0.9672660999931395,True,36,1
156K28S4,94,experiment,53,↑,up,↑,0.41738139977678657,True,36,1
156K28S4,95,experiment,83,↓,down,↓,0.40002920012921095,True,36,0
156K28S4,96,experiment,84,↑,up,↑,0.36708279978483915,True,36,0
156K28S4,97,experiment,92,←,left,←,0.5752428998239338,True,36,0
156K28S4,98,experiment,49,↓,down,↓,0.3765461998991668,True,36,1
156K28S4,99,experiment,85,←,left,←,0.36736789997667074,True,36,0
156K28S4,100,experiment,57,↓,down,↓,0.41816759994253516,True,36,0
156K28S4,101,experiment,91,↑,up,↑,0.6732350001111627,True,36,0
156K28S4,102,experiment,48,↑,up,↑,0.5259827999398112,True,36,1
156K28S4,103,experiment,108,→,right,→,0.5408474002033472,True,36,1
156K28S4,104,training,101,↑,up,↑,0.9392777001485229,True,35,0
156K28S4,105,training,103,↑,up,↑,0.4422975997440517,True,35,1
156K28S4,106,experiment,52,←,left,←,0.49532559979707,True,35,0
156K28S4,107,experiment,96,↑,up,↑,0.8913313997909427,True,35,1
156K28S4,108,experiment,64,←,left,←,0.3840580000542104,True,35,1
156K28S4,109,experiment,104,↓,down,↓,0.5434042001143098,True,35,0
156K28S4,110,experiment,89,↑,up,↑,0.47610010020434856,True,35,1
156K28S4,111,experiment,97,↓,down,↓,0.5363106997683644,True,35,1
156K28S4,112,experiment,70,↓,down,↓,0.5633374997414649,True,35,1
156K28S4,113,experiment,60,→,right,→,0.560283100232482,True,35,1
156K28S4,114,experiment,65,→,left,←,0.40097449999302626,False,35,1
156K28S4,115,experiment,106,↑,up,↑,0.9280432001687586,True,35,0
156K28S4,116,experiment,69,→,right,→,0.49181879963725805,True,35,1
156K28S4,117,experiment,87,←,left,←,0.6908425996080041,True,35,1
156K28S4,118,experiment,77,↑,up,↑,0.9811335001140833,True,35,1
156K28S4,119,experiment,85,↓,down,↓,0.6092512002214789,True,35,1
156K28S4,120,experiment,61,←,left,←,0.5330543997697532,True,35,1
156K28S4,121,experiment,81,→,right,→,0.6997269997373223,True,35,1
156K28S4,122,experiment,79,↑,up,↑,0.549209600314498,True,35,1
156K28S4,123,experiment,95,→,right,→,0.5593332001008093,True,35,1
156K28S4,124,experiment,86,←,left,←,1.1637412998825312,True,35,1
156K28S4,125,experiment,80,←,left,←,0.4981245999224484,True,35,1
156K28S4,126,experiment,84,←,left,←,0.4264714000746608,True,35,1
156K28S4,127,experiment,49,→,right,→,0.5916834999807179,True,35,0
156K28S4,128,experiment,103,←,left,←,0.4935262999497354,True,35,1
156K28S4,129,experiment,108,↓,down,↓,0.5652232998982072,True,35,1
156K28S4,130,experiment,56,↓,down,↓,0.49193579982966185,True,35,1
156K28S4,131,experiment,91,↑,up,↑,0.4975427999161184,True,35,1
156K28S4,132,experiment,57,↓,down,↓,0.49837440019473433,True,35,1
156K28S4,133,experiment,72,←,left,←,0.5901290997862816,True,35,1
156K28S4,134,experiment,53,↓,down,↓,0.612535800319165,True,35,1
156K28S4,135,experiment,55,←,left,←,0.42648780019953847,True,35,1
156K28S4,136,experiment,101,↓,down,↓,0.4937240998260677,True,35,0
156K28S4,137,experiment,76,→,right,→,0.5524029000662267,True,35,1
156K28S4,138,experiment,74,↓,down,↓,0.4739453000947833,True,35,1
156K28S4,139,experiment,75,→,right,→,0.46976060001179576,True,35,1
156K28S4,140,experiment,105,↓,down,↓,0.5189684997312725,True,35,1
156K28S4,141,experiment,54,↑,up,↑,0.48812879994511604,True,35,1
156K28S4,142,experiment,92,→,right,→,0.5255780997686088,True,35,1
156K28S4,143,experiment,71,↓,down,↓,0.4653755002655089,True,35,1
156K28S4,144,experiment,58,↓,down,↓,0.5464376001618803,True,35,0
156K28S4,145,experiment,62,↑,up,↑,0.5193858998827636,True,35,1
156K28S4,146,experiment,83,↑,up,↑,0.43404179997742176,True,35,1
156K28S4,147,experiment,102,↓,down,↓,0.4593038000166416,True,35,0
156K28S4,148,experiment,50,↓,down,↓,0.5112459999509156,True,35,0
156K28S4,149,experiment,68,→,right,→,0.43374270014464855,True,35,1
156K28S4,150,experiment,100,↑,up,↑,1.00064089987427,True,35,0
156K28S4,151,experiment,59,→,right,→,0.6447952003218234,True,35,1
156K28S4,152,experiment,51,↑,up,↑,0.47409919975325465,True,35,1
156K28S4,153,experiment,107,↓,down,↓,0.6750023001804948,True,35,1
156K28S4,154,experiment,90,↑,up,↑,0.41747460002079606,True,35,1
156K28S4,155,experiment,98,↓,down,↓,0.5037410999648273,True,35,0
156K28S4,156,experiment,93,←,left,←,0.4174139997921884,True,35,1
156K28S4,157,experiment,67,↓,down,↓,0.4424414997920394,True,35,0
156K28S4,158,experiment,73,↓,down,↓,0.5782906003296375,True,35,0
156K28S4,159,experiment,66,↑,up,↑,0.6051180996000767,True,35,1
156K28S4,160,experiment,82,↓,down,↓,0.48116139974445105,True,35,1
156K28S4,161,experiment,99,↓,down,↓,0.48450819961726665,True,35,1
156K28S4,162,experiment,63,←,left,←,0.4259289000183344,True,35,1
156K28S4,163,experiment,78,↓,down,↓,0.5362873002886772,True,35,0
156K28S4,164,experiment,94,→,right,→,0.4756820001639426,True,35,1
156K28S4,165,experiment,88,↑,up,↑,0.9625562001019716,True,35,1
156K28S4,166,experiment,48,←,left,←,0.604025200009346,True,35,1
156K28S4,167,training,79,↑,up,↑,0.3840425997041166,True,34,0
156K28S4,168,training,102,↑,up,↑,0.4847319000400603,True,34,0
156K28S4,169,experiment,54,←,left,←,0.43412250000983477,True,34,1
156K28S4,170,experiment,92,↓,down,↓,0.7584902998059988,True,34,0
156K28S4,171,experiment,57,→,right,→,0.4534021997824311,True,34,1
156K28S4,172,experiment,61,↑,up,↑,0.4174260003492236,True,34,0
156K28S4,173,experiment,81,→,right,→,0.5537331998348236,True,34,0
156K28S4,174,experiment,103,↑,up,↑,0.6170992995612323,True,34,1
156K28S4,175,experiment,99,←,left,←,0.5991186001338065,True,34,1
156K28S4,176,experiment,62,→,right,→,0.49817980034276843,True,34,1
156K28S4,177,experiment,89,↓,down,↓,0.632249899674207,True,34,1
156K28S4,178,experiment,59,↑,up,↑,0.4091654997318983,True,34,1
156K28S4,179,experiment,106,↑,up,↑,0.4631779002957046,True,34,0
156K28S4,180,experiment,75,→,right,→,0.5467860996723175,True,34,1
156K28S4,181,experiment,78,↓,down,↓,0.6265642996877432,True,34,1
156K28S4,182,experiment,67,↑,up,↑,0.4341067997738719,True,34,1
156K28S4,183,experiment,107,↓,up,↑,0.6212652996182442,False,34,0
156K28S4,184,experiment,96,←,left,←,0.4258348001167178,True,34,1
156K28S4,185,experiment,79,←,left,←,0.6161315999925137,True,34,0
156K28S4,186,experiment,84,←,left,←,1.0110748996958137,True,34,1
156K28S4,187,experiment,77,←,left,←,0.6007866002619267,True,34,1
156K28S4,188,experiment,71,↓,down,↓,0.6089935000054538,True,34,1
156K28S4,189,experiment,102,←,left,←,0.4944575000554323,True,34,1
156K28S4,190,experiment,97,↓,down,↓,0.5059861000627279,True,34,1
156K28S4,191,experiment,66,↓,down,↓,0.5274240002036095,True,34,1
156K28S4,192,experiment,85,↓,down,↓,0.47784449998289347,True,34,1
156K28S4,193,experiment,94,↑,up,↑,0.4341127001680434,True,34,1
156K28S4,194,experiment,91,↓,down,↓,0.610669800080359,True,34,0
156K28S4,195,experiment,74,←,left,←,0.45778439985588193,True,34,1
156K28S4,196,experiment,98,↑,up,↑,0.4005133998580277,True,34,1
156K28S4,197,experiment,101,↓,down,↓,0.6274220999330282,True,34,0
156K28S4,198,experiment,63,↓,down,↓,0.4851277000270784,True,34,1
156K28S4,199,experiment,76,←,left,←,0.4259073999710381,True,34,1
156K28S4,200,experiment,73,↑,up,↑,0.5902999001555145,True,34,0
156K28S4,201,experiment,64,↑,up,↑,0.45754670025780797,True,34,1
156K28S4,202,experiment,70,←,left,←,0.6068401001393795,True,34,1
156K28S4,203,experiment,53,↑,up,↑,0.6125827003270388,True,34,1
156K28S4,204,experiment,88,→,right,→,0.6303106001578271,True,34,1
156K28S4,205,experiment,104,↑,up,↑,0.4091039998456836,True,34,1
156K28S4,206,experiment,60,←,left,←,0.46144420001655817,True,34,0
156K28S4,207,experiment,86,↓,down,↓,0.6938012996688485,True,34,1
156K28S4,208,experiment,51,→,right,→,0.5605603000149131,True,34,1
156K28S4,209,experiment,90,←,left,←,0.47599760023877025,True,34,1
156K28S4,210,experiment,58,→,right,→,0.7413802002556622,True,34,1
156K28S4,211,experiment,56,↓,down,↓,0.6608067997731268,True,34,1
156K28S4,212,experiment,65,↓,down,↓,0.6205938002094626,True,34,1
156K28S4,213,experiment,87,↑,up,↑,0.5822393000125885,True,34,1
156K28S4,214,experiment,95,→,right,→,0.5990813998505473,True,34,1
156K28S4,215,experiment,69,↓,down,↓,0.5437782998196781,True,34,1
156K28S4,216,experiment,100,↓,down,↓,0.5443963003344834,True,34,1
156K28S4,217,experiment,83,→,right,→,0.4648139998316765,True,34,1
156K28S4,218,experiment,108,↑,up,↑,0.4172580996528268,True,34,1
156K28S4,219,experiment,50,↑,up,↑,0.3675891002640128,True,34,0
156K28S4,220,experiment,52,↓,down,↓,0.509432400111109,True,34,0
156K28S4,221,experiment,82,→,right,→,0.6375293000601232,True,34,1
156K28S4,222,experiment,72,→,right,→,0.47593839978799224,True,34,1
156K28S4,223,experiment,48,→,right,→,0.4806935000233352,True,34,1
156K28S4,224,experiment,93,←,left,←,0.5421489998698235,True,34,1
156K28S4,225,experiment,105,←,left,←,0.43403790006414056,True,34,1
156K28S4,226,experiment,80,←,left,←,0.5285097998566926,True,34,0
156K28S4,227,experiment,68,↑,up,↑,0.4173543998040259,True,34,1
156K28S4,228,experiment,49,→,right,→,0.5550016998313367,True,34,0
156K28S4,229,experiment,55,↓,down,↓,0.6743608000688255,True,34,1
156K28S4,230,training,91,→,right,→,0.40898199984803796,True,33,0
156K28S4,231,training,64,↑,up,↑,0.5771908001042902,True,33,0
156K28S4,232,experiment,103,↑,up,↑,0.4714879998937249,True,33,1
156K28S4,233,experiment,50,→,right,→,0.963515100069344,True,33,1
156K28S4,234,experiment,92,←,left,←,0.4091322999447584,True,33,1
156K28S4,235,experiment,102,←,left,←,0.562894799746573,True,33,0
156K28S4,236,experiment,69,↑,up,↑,0.4690506001934409,True,33,1
156K28S4,237,experiment,66,↑,up,↑,0.5320796999149024,True,33,1
156K28S4,238,experiment,98,↑,up,↑,0.3754753000102937,True,33,1
156K28S4,239,experiment,78,↓,down,↓,0.45277460012584925,True,33,0
156K28S4,240,experiment,55,↓,down,↓,0.5996241001412272,True,33,1
156K28S4,241,experiment,101,↓,down,↓,0.5817554001696408,True,33,1
156K28S4,242,experiment,89,←,left,←,1.1922786999493837,True,33,1
156K28S4,243,experiment,49,←,left,←,0.401218599639833,True,33,1
156K28S4,244,experiment,105,↑,up,↑,0.6284833000972867,True,33,0
156K28S4,245,experiment,56,←,left,←,0.6085314000956714,True,33,1
156K28S4,246,experiment,85,→,right,→,0.643628700170666,True,33,1
156K28S4,247,experiment,65,↑,up,↑,0.5083554000593722,True,33,1
156K28S4,248,experiment,79,←,left,←,0.557154200039804,True,33,1
156K28S4,249,experiment,67,↓,down,↓,0.5841145003214478,True,33,1
156K28S4,250,experiment,91,↓,down,↓,0.506213900167495,True,33,1
156K28S4,251,experiment,51,↑,up,↑,0.5087001998908818,True,33,1
156K28S4,252,experiment,72,→,right,→,0.6960522001609206,True,33,1
156K28S4,253,experiment,57,↓,down,↓,0.6727358000352979,True,33,1
156K28S4,254,experiment,88,→,right,→,0.5521521000191569,True,33,1
156K28S4,255,experiment,107,↑,up,↑,0.409126800019294,True,33,1
156K28S4,256,experiment,100,→,right,→,0.4919016002677381,True,33,0
156K28S4,257,experiment,48,↓,down,↓,0.6560208997689188,True,33,1
156K28S4,258,experiment,59,←,left,←,0.5779845002107322,True,33,1
156K28S4,259,experiment,104,↓,down,↓,1.0157840000465512,True,33,1
156K28S4,260,experiment,96,→,right,→,0.5909339999780059,True,33,1
156K28S4,261,experiment,74,→,right,→,0.5261337999254465,True,33,1
156K28S4,262,experiment,87,↓,down,↓,0.532124100252986,True,33,1
156K28S4,263,experiment,80,←,left,←,0.48360540019348264,True,33,1
156K28S4,264,experiment,63,→,right,→,0.48303760029375553,True,33,1
156K28S4,265,experiment,53,←,left,←,0.4857028997503221,True,33,1
156K28S4,266,experiment,71,↓,down,↓,0.5945740998722613,True,33,1
156K28S4,267,experiment,93,↓,down,↓,0.539602099917829,True,33,1
156K28S4,268,experiment,99,←,left,←,0.5887052002362907,True,33,1
156K28S4,269,experiment,81,→,right,→,0.5537374000996351,True,33,1
156K28S4,270,experiment,60,←,left,←,0.663597300183028,True,33,1
156K28S4,271,experiment,106,↑,up,↑,0.48116760002449155,True,33,1
156K28S4,272,experiment,61,→,right,→,0.46533320005983114,True,33,1
156K28S4,273,experiment,90,←,left,←,0.42575340019539,True,33,1
156K28S4,274,experiment,76,↑,up,↑,0.47746989969164133,True,33,0
156K28S4,275,experiment,77,→,right,→,0.5845566000789404,True,33,1
156K28S4,276,experiment,52,←,left,←,0.46362499985843897,True,33,1
156K28S4,277,experiment,108,←,left,←,0.5608329996466637,True,33,1
156K28S4,278,experiment,86,←,left,←,0.44588979985564947,True,33,1
156K28S4,279,experiment,68,↑,up,↑,0.5565518997609615,True,33,1
156K28S4,280,experiment,97,←,left,←,0.4461408001370728,True,33,1
156K28S4,281,experiment,83,↑,up,↑,0.37649350007995963,True,33,1
156K28S4,282,experiment,70,↑,up,↑,0.35069700004532933,True,33,0
156K28S4,283,experiment,84,↑,up,↑,0.38372679986059666,True,33,0
156K28S4,284,experiment,73,←,left,←,0.509653199929744,True,33,0
156K28S4,285,experiment,54,←,left,←,0.5109799997881055,True,33,1
156K28S4,286,experiment,82,→,up,↑,0.6630204999819398,False,33,1
156K28S4,287,experiment,75,↓,down,↓,0.7070182999596,True,33,1
156K28S4,288,experiment,64,→,right,→,0.5611849003471434,True,33,1
156K28S4,289,experiment,58,↑,up,↑,0.5753797003999352,True,33,1
156K28S4,290,experiment,62,↑,up,↑,0.46740829991176724,True,33,1
156K28S4,291,experiment,95,↑,up,↑,0.6649334998801351,True,33,1
156K28S4,292,experiment,94,→,right,→,0.9742768001742661,True,33,1
156K28S4,293,training,74,↓,down,↓,0.6295855999924242,True,32,0
156K28S4,294,training,99,↓,down,↓,0.45132739981636405,True,32,1
156K28S4,295,experiment,89,↓,down,↓,0.4091068999841809,True,32,1
156K28S4,296,experiment,104,↓,down,↓,0.35073289973661304,True,32,0
156K28S4,297,experiment,87,↓,down,↓,0.5323484996333718,True,32,0
156K28S4,298,experiment,88,←,left,←,0.4732214999385178,True,32,1
156K28S4,299,experiment,101,←,left,←,0.5564302001148462,True,32,1
156K28S4,300,experiment,62,↑,up,↑,0.44149280013516545,True,32,1
156K28S4,301,experiment,84,↓,down,↓,0.49104040022939444,True,32,1
156K28S4,302,experiment,59,↑,up,↑,0.7154632001183927,True,32,1
156K28S4,303,experiment,77,↓,down,↓,0.5568511001765728,True,32,1
156K28S4,304,experiment,103,→,right,→,0.523892099969089,True,32,1
156K28S4,305,experiment,78,→,right,→,0.5645715999417007,True,32,1
156K28S4,306,experiment,72,↓,down,↓,0.5496451002545655,True,32,1
156K28S4,307,experiment,49,←,left,←,0.6311622001230717,True,32,1
156K28S4,308,experiment,57,↑,up,↑,0.9786090003326535,True,32,1
156K28S4,309,experiment,74,←,left,←,0.58653419977054,True,32,1
156K28S4,310,experiment,65,↑,up,↑,0.5253314999863505,True,32,1
156K28S4,311,experiment,60,→,right,→,0.6121153999119997,True,32,1
156K28S4,312,experiment,91,↓,down,↓,0.580764299724251,True,32,1
156K28S4,313,experiment,56,→,right,→,0.562525199726224,True,32,1
156K28S4,314,experiment,66,↓,down,↓,1.1495664003305137,True,32,1
156K28S4,315,experiment,100,←,left,←,0.5978838000446558,True,32,1
156K28S4,316,experiment,81,↓,down,↓,0.4746137000620365,True,32,1
156K28S4,317,experiment,93,↓,down,↓,0.47236960008740425,True,32,1
156K28S4,318,experiment,92,←,left,←,0.550332700368017,True,32,1
156K28S4,319,experiment,48,←,left,←,0.4722714996896684,True,32,1
156K28S4,320,experiment,53,↓,down,↓,0.6195139000192285,True,32,1
156K28S4,321,experiment,98,←,left,←,0.45772629976272583,True,32,1
156K28S4,322,experiment,52,↑,up,↑,0.4538393998518586,True,32,1
156K28S4,323,experiment,55,←,left,←,0.44928580010309815,True,32,1
156K28S4,324,experiment,83,→,right,→,0.4589492999948561,True,32,1
156K28S4,325,experiment,54,→,right,→,0.5983297997154295,True,32,1
156K28S4,326,experiment,106,←,left,←,0.6826842003501952,True,32,1
156K28S4,327,experiment,76,↑,up,↑,0.47773730009794235,True,32,1
156K28S4,328,experiment,71,→,right,→,0.4511428000405431,True,32,1
156K28S4,329,experiment,51,↑,up,↑,0.6235935003496706,True,32,1
156K28S4,330,experiment,95,↑,up,↑,0.4392841998487711,True,32,1
156K28S4,331,experiment,108,↓,down,↓,0.7126923999749124,True,32,1
156K28S4,332,experiment,99,↑,up,↑,0.4173692003823817,True,32,1
156K28S4,333,experiment,69,↓,down,↓,0.7065178998745978,True,32,0
156K28S4,334,experiment,64,→,right,→,0.5687152002938092,True,32,1
156K28S4,335,experiment,75,↓,down,↓,0.6965666003525257,True,32,1
156K28S4,336,experiment,96,↑,up,↑,0.49226139998063445,True,32,1
156K28S4,337,experiment,68,↑,up,↑,0.44234259985387325,True,32,1
156K28S4,338,experiment,102,↑,up,↑,0.6377709000371397,True,32,1
156K28S4,339,experiment,105,→,right,→,0.4652174999937415,True,32,1
156K28S4,340,experiment,67,↑,up,↑,0.39239809988066554,True,32,1
156K28S4,341,experiment,85,→,right,→,0.417419399600476,True,32,0
156K28S4,342,experiment,73,←,left,←,0.5293446001596749,True,32,0
156K28S4,343,experiment,70,→,right,→,0.4764447999186814,True,32,1
156K28S4,344,experiment,90,↓,down,↓,0.6511244997382164,True,32,1
156K28S4,345,experiment,50,→,right,→,1.072134899906814,True,32,1
156K28S4,346,experiment,63,↓,down,↓,0.5199947999790311,True,32,1
156K28S4,347,experiment,58,↓,down,↓,0.5356681998819113,True,32,1
156K28S4,348,experiment,86,→,right,→,0.5493719996884465,True,32,1
156K28S4,349,experiment,97,↑,up,↑,0.9267120999284089,True,32,1
156K28S4,350,experiment,80,↑,up,↑,0.6548258997499943,True,32,1
156K28S4,351,experiment,82,←,left,←,0.5130623998120427,True,32,1
156K28S4,352,experiment,79,↓,down,↓,0.48950499994680285,True,32,1
156K28S4,353,experiment,107,→,right,→,0.3674051999114454,True,32,1
156K28S4,354,experiment,94,↓,down,↓,0.4833769998513162,True,32,0
156K28S4,355,experiment,61,↓,down,↓,0.5556377000175416,True,32,1
156K28S4,356,training,95,↓,down,↓,0.5234048999845982,True,31,0
156K28S4,357,training,74,←,left,←,0.9812654000706971,True,31,1
156K28S4,358,experiment,105,↑,up,↑,0.6425791997462511,True,31,1
156K28S4,359,experiment,61,→,right,→,0.4370508003048599,True,31,1
156K28S4,360,experiment,98,←,left,←,0.39239110006019473,True,31,1
156K28S4,361,experiment,57,→,right,→,0.6865980997681618,True,31,0
156K28S4,362,experiment,56,→,right,→,0.48033150006085634,True,31,1
156K28S4,363,experiment,76,←,left,←,0.6433879001997411,True,31,1
156K28S4,364,experiment,63,→,right,→,0.48452340019866824,True,31,1
156K28S4,365,experiment,74,→,right,→,0.6083162003196776,True,31,1
156K28S4,366,experiment,102,↑,up,↑,0.49372610030695796,True,31,1
156K28S4,367,experiment,65,↑,up,↑,0.44421490002423525,True,31,1
156K28S4,368,experiment,73,↓,down,↓,0.6976185999810696,True,31,1
156K28S4,369,experiment,55,←,left,←,0.46672650007531047,True,31,1
156K28S4,370,experiment,58,↑,up,↑,0.6286547998897731,True,31,1
156K28S4,371,experiment,103,↑,up,↑,0.9289170997217298,True,31,1
156K28S4,372,experiment,59,↑,up,↑,0.6240249001421034,True,31,1
156K28S4,373,experiment,100,→,right,→,0.5415129000321031,True,31,1
156K28S4,374,experiment,104,←,left,←,0.9725612001493573,True,31,1
156K28S4,375,experiment,60,↑,up,↑,0.6334444000385702,True,31,1
156K28S4,376,experiment,83,↓,down,↓,0.7881547999568284,True,31,1
156K28S4,377,experiment,77,↑,up,↑,0.5945926001295447,True,31,1
156K28S4,378,experiment,62,←,left,←,0.43821149971336126,True,31,1
156K28S4,379,experiment,71,↓,down,↓,0.5643841996788979,True,31,1
156K28S4,380,experiment,106,←,left,←,0.45809709979221225,True,31,1
156K28S4,381,experiment,92,→,right,→,0.6487307003699243,True,31,1
156K28S4,382,experiment,84,←,left,←,0.6985581000335515,True,31,1
156K28S4,383,experiment,79,→,right,→,0.6198913999833167,True,31,1
156K28S4,384,experiment,88,←,left,←,0.5495253000408411,True,31,1
156K28S4,385,experiment,91,←,left,←,0.4809552999213338,True,31,1
156K28S4,386,experiment,82,↑,up,↑,0.5379544999450445,True,31,1
156K28S4,387,experiment,52,↑,up,↑,0.4591342997737229,True,31,1
156K28S4,388,experiment,81,↑,up,↑,0.4695259998552501,True,31,1
156K28S4,389,experiment,78,→,right,→,0.504578999709338,True,31,1
156K28S4,390,experiment,51,→,right,→,0.5313439001329243,True,31,1
156K28S4,391,experiment,72,↑,up,↑,0.4303457997739315,True,31,1
156K28S4,392,experiment,96,→,right,→,0.46022399980574846,True,31,1
156K28S4,393,experiment,70,↑,up,↑,0.4267110996879637,True,31,1
156K28S4,394,experiment,69,←,left,←,0.5377899003215134,True,31,0
156K28S4,395,experiment,68,←,left,←,0.6214045998640358,True,31,1
156K28S4,396,experiment,95,←,left,←,0.5728172999806702,True,31,1
156K28S4,397,experiment,49,←,left,←,0.5573132000863552,True,31,1
156K28S4,398,experiment,66,↑,up,↑,0.48860799986869097,True,31,1
156K28S4,399,experiment,97,←,right,→,0.6363524002954364,False,31,1
156K28S4,400,experiment,54,→,right,→,0.5287739001214504,True,31,1
156K28S4,401,experiment,48,↑,up,↑,0.45954549964517355,True,31,1
156K28S4,402,experiment,85,↑,up,↑,0.9325365996919572,True,31,1
156K28S4,403,experiment,94,→,right,→,0.6236266996711493,True,31,1
156K28S4,404,experiment,64,↓,down,↓,0.6650102999992669,True,31,1
156K28S4,405,experiment,99,↓,down,↓,0.613034799695015,True,31,1
156K28S4,406,experiment,67,↑,up,↑,0.6377742001786828,True,31,1
156K28S4,407,experiment,108,←,left,←,0.5998928998596966,True,31,1
156K28S4,408,experiment,87,←,left,←,0.6505032000131905,True,31,1
156K28S4,409,experiment,80,←,left,←,0.5015647998079658,True,31,1
156K28S4,410,experiment,89,←,left,←,0.7076601996086538,True,31,1
156K28S4,411,experiment,107,↓,down,↓,0.5472699999809265,True,31,1
156K28S4,412,experiment,90,↓,down,↓,0.5672096000052989,True,31,1
156K28S4,413,experiment,75,↑,up,↑,0.6551634999923408,True,31,1
156K28S4,414,experiment,101,←,left,←,0.4272239003330469,True,31,1
156K28S4,415,experiment,86,→,right,→,0.6607393999584019,True,31,0
156K28S4,416,experiment,50,→,right,→,0.6412353003397584,True,31,1
156K28S4,417,experiment,53,→,right,→,0.7016440997831523,True,31,1
156K28S4,418,experiment,93,←,left,←,0.6583527997136116,True,31,1
156K28S4,419,training,81,←,left,←,0.5409002997912467,True,30,0
156K28S4,420,training,106,↑,up,↑,0.6195092000998557,True,30,1
156K28S4,421,experiment,62,↓,down,↓,0.6139331995509565,True,30,1
156K28S4,422,experiment,91,→,right,→,0.40039429999887943,True,30,1
156K28S4,423,experiment,76,↑,up,↑,0.43697449984028935,True,30,0
156K28S4,424,experiment,82,↑,up,↑,0.4558736002072692,True,30,1
156K28S4,425,experiment,60,←,left,←,0.41784440027549863,True,30,1
156K28S4,426,experiment,68,→,right,→,0.5933948000892997,True,30,0
156K28S4,427,experiment,61,↓,up,↑,0.4294541999697685,False,30,1
156K28S4,428,experiment,51,↓,down,↓,0.4985781996510923,True,30,1
156K28S4,429,experiment,85,←,left,←,0.45795630011707544,True,30,1
156K28S4,430,experiment,103,→,right,→,0.5010294001549482,True,30,1
156K28S4,431,experiment,92,←,left,←,0.530247500166297,True,30,1
156K28S4,432,experiment,102,↑,up,↑,0.45836730021983385,True,30,1
156K28S4,433,experiment,63,←,left,←,0.46683939965441823,True,30,1
156K28S4,434,experiment,97,↑,up,↑,0.5436155996285379,True,30,1
156K28S4,435,experiment,105,↓,down,↓,0.6865783003158867,True,30,1
156K28S4,436,experiment,106,↓,down,↓,0.6636916999705136,True,30,1
156K28S4,437,experiment,48,↓,down,↓,0.6528038000687957,True,30,1
156K28S4,438,experiment,73,↑,up,↑,0.6903285002335906,True,30,1
156K28S4,439,experiment,70,←,left,←,0.5188672002404928,True,30,1
156K28S4,440,experiment,100,←,left,←,0.5606506997719407,True,30,1
156K28S4,441,experiment,59,↓,down,↓,0.6302816001698375,True,30,1
156K28S4,442,experiment,81,←,left,←,0.48977599991485476,True,30,1
156K28S4,443,experiment,101,←,left,←,0.572070199996233,True,30,1
156K28S4,444,experiment,65,↑,up,↑,0.46315440023317933,True,30,1
156K28S4,445,experiment,74,←,left,←,0.47561149997636676,True,30,1
156K28S4,446,experiment,77,↑,up,↑,0.7426183000206947,True,30,1
156K28S4,447,experiment,57,→,right,→,0.6136181997135282,True,30,1
156K28S4,448,experiment,83,↓,down,↓,0.5450699999928474,True,30,1
156K28S4,449,experiment,98,→,right,→,0.48276269994676113,True,30,1
156K28S4,450,experiment,84,→,right,→,0.37573189986869693,True,30,1
156K28S4,451,experiment,94,→,right,→,0.5642067999579012,True,30,0
156K28S4,452,experiment,53,→,right,→,0.6513994000852108,True,30,1
156K28S4,453,experiment,89,←,left,←,0.5714390999637544,True,30,1
156K28S4,454,experiment,67,→,right,→,0.48587579978629947,True,30,1
156K28S4,455,experiment,88,←,left,←,0.7808612999506295,True,30,1
156K28S4,456,experiment,52,↑,up,↑,0.5799541003070772,True,30,1
156K28S4,457,experiment,72,↑,up,↑,0.6126393000595272,True,30,1
156K28S4,458,experiment,54,↓,down,↓,0.6899516996927559,True,30,1
156K28S4,459,experiment,49,←,left,←,0.5495170000940561,True,30,1
156K28S4,460,experiment,80,↑,up,↑,0.6045475997962058,True,30,1
156K28S4,461,experiment,99,↓,down,↓,0.6668964996933937,True,30,1
156K28S4,462,experiment,78,←,left,←,0.4381852000951767,True,30,1
156K28S4,463,experiment,79,→,right,→,0.7057606996968389,True,30,1
156K28S4,464,experiment,58,↓,down,↓,0.6177620002999902,True,30,1
156K28S4,465,experiment,90,↓,down,↓,0.5948405000381172,True,30,1
156K28S4,466,experiment,95,→,right,→,0.4751410000026226,True,30,1
156K28S4,467,experiment,104,←,left,←,0.4218418998643756,True,30,1
156K28S4,468,experiment,71,→,right,→,0.5643745996057987,True,30,1
156K28S4,469,experiment,50,←,left,←,0.5968814003281295,True,30,1
156K28S4,470,experiment,75,→,right,→,0.5795173002406955,True,30,1
156K28S4,471,experiment,56,←,left,←,0.457485499791801,True,30,1
156K28S4,472,experiment,55,←,left,←,0.5403845999389887,True,30,1
156K28S4,473,experiment,69,→,right,→,0.7514859000220895,True,30,1
156K28S4,474,experiment,108,→,right,→,0.6290914001874626,True,30,1
156K28S4,475,experiment,93,↑,up,↑,0.43681889958679676,True,30,1
156K28S4,476,experiment,87,→,right,→,0.5178250996395946,True,30,1
156K28S4,477,experiment,66,↑,up,↑,0.4507204997353256,True,30,1
156K28S4,478,experiment,107,→,right,→,0.4926944999024272,True,30,1
156K28S4,479,experiment,96,↑,up,↑,0.5114155001938343,True,30,1
156K28S4,480,experiment,64,←,left,←,0.4535794002003968,True,30,1
156K28S4,481,experiment,86,↑,up,↑,0.38384140003472567,True,30,1
156K28S4,482,training,54,↑,up,↑,0.3675135001540184,True,29,0
156K28S4,483,training,101,↓,down,↓,0.7252084002830088,True,29,0
156K28S4,484,experiment,73,→,no_key,no_letter,-1.0,False,29,1
156K28S4,485,experiment,70,↓,down,↓,0.587514300365001,True,29,1
156K28S4,486,experiment,57,→,right,→,0.43283209996297956,True,29,1
156K28S4,487,experiment,83,→,right,→,0.6192417996935546,True,29,1
156K28S4,488,experiment,104,↑,up,↑,0.5036786999553442,True,29,1
156K28S4,489,experiment,56,→,right,→,0.49676720006391406,True,29,1
156K28S4,490,experiment,90,↑,up,↑,0.4307152000255883,True,29,1
156K28S4,491,experiment,65,→,right,→,0.575230700429529,True,29,1
156K28S4,492,experiment,51,↓,down,↓,0.607035799883306,True,29,1
156K28S4,493,experiment,98,↓,down,↓,0.4536842997185886,True,29,1
156K28S4,494,experiment,71,←,left,←,0.5797604997642338,True,29,1
156K28S4,495,experiment,91,↑,up,↑,0.47786179976537824,True,29,1
156K28S4,496,experiment,107,↓,down,↓,0.5831503001973033,True,29,1
156K28S4,497,experiment,64,→,right,→,0.5778947998769581,True,29,1
156K28S4,498,experiment,94,↑,up,↑,0.41982150031253695,True,29,1
156K28S4,499,experiment,76,↓,down,↓,0.4807688998989761,True,29,1
156K28S4,500,experiment,82,→,right,→,0.5626027998514473,True,29,1
156K28S4,501,experiment,85,↑,up,↑,0.5668677999638021,True,29,1
156K28S4,502,experiment,87,↑,up,↑,0.42722309986129403,True,29,1
156K28S4,503,experiment,69,→,right,→,0.5303841000422835,True,29,1
156K28S4,504,experiment,75,→,right,→,0.5477907001040876,True,29,1
156K28S4,505,experiment,58,↓,down,↓,0.6261746999807656,True,29,1
156K28S4,506,experiment,78,←,left,←,0.6148932003416121,True,29,1
156K28S4,507,experiment,61,←,left,←,0.4736934001557529,True,29,1
156K28S4,508,experiment,63,↓,down,↓,0.5775458002462983,True,29,1
156K28S4,509,experiment,96,←,left,←,0.698072399944067,True,29,1
156K28S4,510,experiment,95,←,left,←,0.4461011001840234,True,29,1
156K28S4,511,experiment,100,←,left,←,0.6509142001159489,True,29,1
156K28S4,512,experiment,102,↑,up,↑,0.5504989996552467,True,29,1
156K28S4,513,experiment,97,↓,down,↓,0.6078925002366304,True,29,1
156K28S4,514,experiment,66,→,right,→,0.8497159997932613,True,29,1
156K28S4,515,experiment,103,↑,up,↑,0.46889099990949035,True,29,1
156K28S4,516,experiment,79,→,right,→,0.5674306000582874,True,29,1
156K28S4,517,experiment,59,→,right,→,0.4848003997467458,True,29,1
156K28S4,518,experiment,54,←,left,←,0.591255999635905,True,29,1
156K28S4,519,experiment,52,←,left,←,0.438159900251776,True,29,1
156K28S4,520,experiment,68,↓,down,↓,0.5894452002830803,True,29,1
156K28S4,521,experiment,108,↑,up,↑,0.42593679996207356,True,29,1
156K28S4,522,experiment,84,→,right,→,0.6362287998199463,True,29,1
156K28S4,523,experiment,74,→,right,→,0.5539336004294455,True,29,1
156K28S4,524,experiment,48,←,left,←,0.587820400018245,True,29,1
156K28S4,525,experiment,81,↓,down,↓,0.7287143999710679,True,29,1
156K28S4,526,experiment,72,→,right,→,0.5154800997115672,True,29,1
156K28S4,527,experiment,50,←,left,←,0.566021999809891,True,29,1
156K28S4,528,experiment,106,↑,up,↑,0.4515611003153026,True,29,1
156K28S4,529,experiment,86,→,right,→,0.6367192002944648,True,29,1
156K28S4,530,experiment,80,→,right,→,0.5925851999782026,True,29,1
156K28S4,531,experiment,53,→,right,→,0.4309959001839161,True,29,1
156K28S4,532,experiment,62,→,right,→,0.3507139002904296,True,29,1
156K28S4,533,experiment,93,→,right,→,1.2509295996278524,True,29,0
156K28S4,534,experiment,101,←,left,←,0.622923799790442,True,29,1
156K28S4,535,experiment,88,↓,down,↓,0.4722871999256313,True,29,1
156K28S4,536,experiment,55,←,left,←,0.5467535997740924,True,29,1
156K28S4,537,experiment,92,→,right,→,0.6378306001424789,True,29,1
156K28S4,538,experiment,60,→,right,→,0.7442926000803709,True,29,1
156K28S4,539,experiment,89,→,right,→,0.572562700137496,True,29,1
156K28S4,540,experiment,49,→,right,→,0.5250665000639856,True,29,1
156K28S4,541,experiment,77,↑,up,↑,0.5180740999057889,True,29,1
156K28S4,542,experiment,67,→,right,→,0.4508688999339938,True,29,1
156K28S4,543,experiment,99,↓,down,↓,0.4955736002884805,True,29,1
156K28S4,544,experiment,105,↑,up,↑,0.448679500259459,True,29,1
156K28S4,545,training,89,←,left,←,0.4854150000028312,True,28,0
156K28S4,546,training,74,←,left,←,0.5849973000586033,True,28,1
156K28S4,547,experiment,104,→,right,→,0.47862219996750355,True,28,1
156K28S4,548,experiment,86,→,right,→,0.46270229993388057,True,28,1
156K28S4,549,experiment,77,↓,down,↓,0.7061971998773515,True,28,1
156K28S4,550,experiment,61,←,left,←,0.5132421003654599,True,28,1
156K28S4,551,experiment,72,→,right,→,0.5402764999307692,True,28,1
156K28S4,552,experiment,107,←,left,←,0.5546737001277506,True,28,1
156K28S4,553,experiment,81,↓,down,↓,0.6251113000325859,True,28,1
156K28S4,554,experiment,66,→,left,←,0.4496603002771735,False,28,1
156K28S4,555,experiment,92,↑,up,↑,0.4251874997280538,True,28,1
156K28S4,556,experiment,67,←,left,←,0.473390799947083,True,28,1
156K28S4,557,experiment,49,↓,down,↓,0.5418430999852717,True,28,1
156K28S4,558,experiment,50,→,right,→,0.5832171002402902,True,28,1
156K28S4,559,experiment,108,←,left,←,0.6355812000110745,True,28,1
156K28S4,560,experiment,75,→,right,→,0.4408741998486221,True,28,1
156K28S4,561,experiment,69,→,right,→,0.37678759964182973,True,28,1
156K28S4,562,experiment,71,↑,up,↑,0.37579229986295104,True,28,0
156K28S4,563,experiment,58,↑,up,↑,0.5816008001565933,True,28,0
156K28S4,564,experiment,93,←,left,←,0.40749230002984405,True,28,1
156K28S4,565,experiment,85,↓,down,↓,0.6419428000226617,True,28,1
156K28S4,566,experiment,98,↓,down,↓,0.6153744999319315,True,28,1
156K28S4,567,experiment,83,↑,down,↓,0.8026783000677824,False,28,1
156K28S4,568,experiment,103,↓,down,↓,0.656012199819088,True,28,1
156K28S4,569,experiment,94,↓,down,↓,0.6301945997402072,True,28,1
156K28S4,570,experiment,82,↑,up,↑,0.6011043000034988,True,28,1
156K28S4,571,experiment,78,↑,up,↑,0.9027841999195516,True,28,1
156K28S4,572,experiment,63,↑,up,↑,0.3842122000642121,True,28,1
156K28S4,573,experiment,96,↓,down,↓,0.7016357001848519,True,28,0
156K28S4,574,experiment,65,↑,up,↑,0.5637376001104712,True,28,1
156K28S4,575,experiment,54,←,left,←,0.5788100999779999,True,28,1
156K28S4,576,experiment,95,↓,down,↓,0.6997885000891984,True,28,1
156K28S4,577,experiment,87,↑,up,↑,0.5784896002151072,True,28,1
156K28S4,578,experiment,56,←,left,←,0.4886218998581171,True,28,1
156K28S4,579,experiment,73,↑,up,↑,0.3842736999504268,True,28,1
156K28S4,580,experiment,88,←,left,←,0.6310288002714515,True,28,0
156K28S4,581,experiment,48,↓,down,↓,0.6215475001372397,True,28,1
156K28S4,582,experiment,74,↓,down,↓,0.7397322002798319,True,28,1
156K28S4,583,experiment,79,↓,down,↓,0.5238155997358263,True,28,1
156K28S4,584,experiment,62,↑,up,↑,0.6494424999691546,True,28,1
156K28S4,585,experiment,90,↓,down,↓,0.577040399890393,True,28,1
156K28S4,586,experiment,55,↓,down,↓,0.6715245000086725,True,28,1
156K28S4,587,experiment,68,↓,down,↓,0.5658653997816145,True,28,1
156K28S4,588,experiment,51,↑,up,↑,0.6460138000547886,True,28,1
156K28S4,589,experiment,97,→,right,→,0.6275045000948012,True,28,1
156K28S4,590,experiment,99,↑,up,↑,0.44900660030543804,True,28,1
156K28S4,591,experiment,53,←,left,←,0.5412118001841009,True,28,1
156K28S4,592,experiment,100,↑,up,↑,0.5258796000853181,True,28,1
156K28S4,593,experiment,102,→,right,→,0.5745689002797008,True,28,1
156K28S4,594,experiment,57,↑,up,↑,0.5563314002938569,True,28,1
156K28S4,595,experiment,91,→,right,→,0.49564219964668155,True,28,1
156K28S4,596,experiment,64,↑,up,↑,0.4146103002130985,True,28,1
156K28S4,597,experiment,89,↑,up,↑,0.5036909002810717,True,28,1
156K28S4,598,experiment,59,→,right,→,0.5197443999350071,True,28,1
156K28S4,599,experiment,101,→,right,→,0.5132506000809371,True,28,1
156K28S4,600,experiment,70,↓,down,↓,0.7167232995852828,True,28,1
156K28S4,601,experiment,80,↓,down,↓,0.5890854997560382,True,28,1
156K28S4,602,experiment,76,↓,down,↓,0.5000010002404451,True,28,1
156K28S4,603,experiment,84,↑,up,↑,0.49961340008303523,True,28,1
156K28S4,604,experiment,106,←,left,←,0.5719844000414014,True,28,1
156K28S4,605,experiment,52,←,left,←,0.6194223999045789,True,28,1
156K28S4,606,experiment,105,↓,down,↓,0.6314257001504302,True,28,1
156K28S4,607,experiment,60,←,left,←,0.4978079996071756,True,28,1
156K28S4,608,training,106,↓,down,↓,0.5324929999187589,True,28,0
156K28S4,609,training,66,←,left,←,0.4888749998062849,True,28,1
156K28S4,610,experiment,53,↓,down,↓,0.6114469999447465,True,28,1
156K28S4,611,experiment,62,←,left,←,0.41464219987392426,True,28,1
156K28S4,612,experiment,80,↑,up,↑,0.6345462999306619,True,28,1
156K28S4,613,experiment,71,→,right,→,0.5455221999436617,True,28,1
156K28S4,614,experiment,90,→,right,→,0.4934608996845782,True,28,1
156K28S4,615,experiment,49,→,right,→,0.529086200054735,True,28,1
156K28S4,616,experiment,85,↑,up,↑,0.4633857002481818,True,28,1
156K28S4,617,experiment,95,→,right,→,0.5165749001316726,True,28,1
156K28S4,618,experiment,51,↓,down,↓,0.5907670999877155,True,28,1
156K28S4,619,experiment,78,↑,up,↑,0.604776400141418,True,28,1
156K28S4,620,experiment,84,←,left,←,0.6721795997582376,True,28,1
156K28S4,621,experiment,89,←,left,←,0.4312531999312341,True,28,1
156K28S4,622,experiment,91,↑,up,↑,0.4077963996678591,True,28,1
156K28S4,623,experiment,75,→,right,→,0.41427060030400753,True,28,1
156K28S4,624,experiment,59,↓,down,↓,0.6651245001703501,True,28,1
156K28S4,625,experiment,101,↓,down,↓,0.5403474997729063,True,28,1
156K28S4,626,experiment,72,↑,up,↑,0.5584593000821769,True,28,1
156K28S4,627,experiment,64,↓,down,↓,0.6106330002658069,True,28,1
156K28S4,628,experiment,52,→,right,→,0.4013045998290181,True,28,1
156K28S4,629,experiment,86,↓,down,↓,0.6516569000668824,True,28,0
156K28S4,630,experiment,105,↓,down,↓,0.5900928000919521,True,28,1
156K28S4,631,experiment,57,→,right,→,0.5082698999904096,True,28,1
156K28S4,632,experiment,87,←,left,←,0.5456461999565363,True,28,1
156K28S4,633,experiment,61,→,right,→,0.4078134000301361,True,28,1
156K28S4,634,experiment,100,→,right,→,0.5734554999507964,True,28,1
156K28S4,635,experiment,104,↑,up,↑,0.8835146999917924,True,28,1
156K28S4,636,experiment,108,↓,down,↓,0.6037085996940732,True,28,1
156K28S4,637,experiment,107,↑,up,↑,0.43979870015755296,True,28,1
156K28S4,638,experiment,81,→,right,→,0.6188299003988504,True,28,1
156K28S4,639,experiment,98,←,left,←,0.8332080999389291,True,28,1
156K28S4,640,experiment,66,←,left,←,0.5856294999830425,True,28,1
156K28S4,641,experiment,92,↓,down,↓,0.6033088997937739,True,28,1
156K28S4,642,experiment,69,→,right,→,0.5240420000627637,True,28,1
156K28S4,643,experiment,56,←,left,←,0.5961245996877551,True,28,1
156K28S4,644,experiment,77,←,left,←,0.5385331003926694,True,28,1
156K28S4,645,experiment,88,↓,down,↓,0.5592836998403072,True,28,1
156K28S4,646,experiment,70,←,left,←,0.5773359001614153,True,28,1
156K28S4,647,experiment,94,↑,up,↑,0.5946670002304018,True,28,1
156K28S4,648,experiment,97,↑,up,↑,0.4423536998219788,True,28,1
156K28S4,649,experiment,67,→,right,→,0.5781664997339249,True,28,1
156K28S4,650,experiment,96,↑,up,↑,0.5228528999723494,True,28,1
156K28S4,651,experiment,48,→,right,→,0.5656176996417344,True,28,1
156K28S4,652,experiment,93,→,right,→,0.6396437999792397,True,28,1
156K28S4,653,experiment,99,↑,up,↑,0.42082339990884066,True,28,1
156K28S4,654,experiment,50,←,left,←,0.5228085997514427,True,28,1
156K28S4,655,experiment,76,↓,up,↑,0.6522144000045955,False,28,1
156K28S4,656,experiment,82,↓,down,↓,0.5746403001248837,True,28,1
156K28S4,657,experiment,73,↑,up,↑,0.5030179996974766,True,28,1
156K28S4,658,experiment,68,→,right,→,0.6122687999159098,True,28,1
156K28S4,659,experiment,83,↑,up,↑,0.9917906001210213,True,28,1
156K28S4,660,experiment,103,←,left,←,0.4139661001972854,True,28,1
156K28S4,661,experiment,54,←,left,←,0.4665726004168391,True,28,1
156K28S4,662,experiment,106,↑,up,↑,0.3174972999840975,True,28,1
156K28S4,663,experiment,102,←,left,←,0.5091150002554059,True,28,0
156K28S4,664,experiment,58,←,right,→,0.7331477999687195,False,28,1
156K28S4,665,experiment,74,→,right,→,0.5110260997898877,True,28,1
156K28S4,666,experiment,79,→,right,→,0.51991350017488,True,28,1
156K28S4,667,experiment,55,→,right,→,0.4966855999082327,True,28,1
156K28S4,668,experiment,60,↑,up,↑,0.47246900014579296,True,28,1
156K28S4,669,experiment,63,↓,down,↓,0.7522003999911249,True,28,1
156K28S4,670,experiment,65,↓,down,↓,0.6762255001813173,True,28,1
156K28S4,671,training,60,←,left,←,0.55761480005458,True,28,0
156K28S4,672,training,80,↑,up,↑,0.46037929970771074,True,28,1
156K28S4,673,experiment,104,↓,down,↓,0.6951200999319553,True,28,1
156K28S4,674,experiment,62,→,right,→,0.6303363000042737,True,28,1
156K28S4,675,experiment,48,↓,down,↓,0.7248138003051281,True,28,1
156K28S4,676,experiment,81,↑,up,↑,0.4207007996737957,True,28,1
156K28S4,677,experiment,84,↑,up,↑,1.047584000043571,True,28,1
156K28S4,678,experiment,56,→,right,→,0.4110626997426152,True,28,1
156K28S4,679,experiment,85,→,right,→,0.36752700014039874,True,28,1
156K28S4,680,experiment,76,→,right,→,0.6131488000974059,True,28,0
156K28S4,681,experiment,90,←,left,←,0.7902215998619795,True,28,1
156K28S4,682,experiment,103,↑,up,↑,0.42801470030099154,True,28,1
156K28S4,683,experiment,78,↓,down,↓,0.4723330996930599,True,28,1
156K28S4,684,experiment,107,↓,down,↓,0.7773889000527561,True,28,1
156K28S4,685,experiment,83,→,right,→,0.4631045996211469,True,28,1
156K28S4,686,experiment,108,→,right,→,0.5038054999895394,True,28,1
156K28S4,687,experiment,69,→,right,→,0.3670736998319626,True,28,1
156K28S4,688,experiment,86,↓,down,↓,0.6885485998354852,True,28,0
156K28S4,689,experiment,58,→,right,→,0.4974488001316786,True,28,1
156K28S4,690,experiment,77,↓,down,↓,0.47537830006331205,True,28,1
156K28S4,691,experiment,102,→,right,→,0.3350790999829769,True,28,1
156K28S4,692,experiment,73,↓,down,↓,0.43955540005117655,True,28,0
156K28S4,693,experiment,94,↓,down,↓,0.5822767997160554,True,28,1
156K28S4,694,experiment,50,←,left,←,0.5260306000709534,True,28,1
156K28S4,695,experiment,72,↓,down,↓,0.592820200137794,True,28,1
156K28S4,696,experiment,51,→,right,→,0.4878857000730932,True,28,1
156K28S4,697,experiment,55,→,right,→,0.5379520002752542,True,28,1
156K28S4,698,experiment,59,↑,up,↑,0.6245860001072288,True,28,1
156K28S4,699,experiment,54,←,left,←,0.6050435998477042,True,28,1
156K28S4,700,experiment,98,↓,down,↓,0.5798343000933528,True,28,1
156K28S4,701,experiment,89,←,left,←,0.6067067999392748,True,28,1
156K28S4,702,experiment,57,↓,down,↓,0.6589267002418637,True,28,1
156K28S4,703,experiment,96,↓,down,↓,0.6643595998175442,True,28,1
156K28S4,704,experiment,100,←,left,←,0.4519663997925818,True,28,1
156K28S4,705,experiment,64,→,right,→,0.5085017997771502,True,28,1
156K28S4,706,experiment,82,←,left,←,0.716459000017494,True,28,1
156K28S4,707,experiment,60,→,right,→,0.61961629986763,True,28,1
156K28S4,708,experiment,79,↑,up,↑,0.8563874997198582,True,28,1
156K28S4,709,experiment,93,↓,up,↑,0.7586075998842716,False,28,1
156K28S4,710,experiment,61,←,left,←,0.6037691999226809,True,28,1
156K28S4,711,experiment,92,↓,down,↓,0.508763300254941,True,28,1
156K28S4,712,experiment,88,→,right,→,0.48283550003543496,True,28,1
156K28S4,713,experiment,105,↓,down,↓,0.6522580999881029,True,28,1
156K28S4,714,experiment,71,→,right,→,0.46624490013346076,True,28,1
156K28S4,715,experiment,66,↑,up,↑,0.6333165001124144,True,28,1
156K28S4,716,experiment,91,↑,up,↑,0.5053489999845624,True,28,1
156K28S4,717,experiment,87,↓,down,↓,0.5917742000892758,True,28,1
156K28S4,718,experiment,80,←,left,←,0.4451478002592921,True,28,1
156K28S4,719,experiment,97,←,left,←,0.6508682002313435,True,28,1
156K28S4,720,experiment,49,↓,down,↓,0.6482385997660458,True,28,1
156K28S4,721,experiment,101,↑,up,↑,0.636321300175041,True,28,1
156K28S4,722,experiment,67,↑,up,↑,0.5404032999649644,True,28,1
156K28S4,723,experiment,68,↓,down,↓,0.6718169003725052,True,28,1
156K28S4,724,experiment,75,←,left,←,0.9235606002621353,True,28,1
156K28S4,725,experiment,74,←,left,←,0.44549799989908934,True,28,1
156K28S4,726,experiment,63,↓,down,↓,0.7510267999023199,True,28,1
156K28S4,727,experiment,70,→,right,→,0.480695600155741,True,28,1
156K28S4,728,experiment,106,→,right,→,0.4496975000947714,True,28,1
156K28S4,729,experiment,53,↑,up,↑,0.4777921000495553,True,28,1
156K28S4,730,experiment,95,←,left,←,0.43495169980451465,True,28,1
156K28S4,731,experiment,52,←,left,←,0.37650670018047094,True,28,1
156K28S4,732,experiment,65,↓,down,↓,0.5864728996530175,True,28,0
156K28S4,733,experiment,99,→,right,→,0.4578617997467518,True,28,1
156K28S4,734,training,77,→,right,→,0.5964044998399913,True,28,0
156K28S4,735,training,101,↓,down,↓,0.4825299000367522,True,28,1
156K28S4,736,experiment,87,↓,down,↓,0.5779830999672413,True,28,1
156K28S4,737,experiment,74,↓,down,↓,0.5298834000714123,True,28,1
156K28S4,738,experiment,99,↑,up,↑,0.5391627000644803,True,28,1
156K28S4,739,experiment,61,↓,down,↓,0.6490804003551602,True,28,1
156K28S4,740,experiment,91,→,right,→,0.5922757000662386,True,28,1
156K28S4,741,experiment,52,↓,down,↓,0.5030820998363197,True,28,1
156K28S4,742,experiment,62,→,right,→,0.4147223997861147,True,28,1
156K28S4,743,experiment,55,↓,down,↓,0.5869976999238133,True,28,1
156K28S4,744,experiment,95,↓,down,↓,0.5478184996172786,True,28,1
156K28S4,745,experiment,64,↓,down,↓,0.4880482000298798,True,28,1
156K28S4,746,experiment,96,↓,down,↓,0.452377500012517,True,28,1
156K28S4,747,experiment,75,↓,down,↓,0.3757121996022761,True,28,1
156K28S4,748,experiment,72,↑,up,↑,0.6337044001556933,True,28,0
156K28S4,749,experiment,108,↑,up,↑,0.4439771999605,True,28,1
156K28S4,750,experiment,104,←,left,←,0.4393871002830565,True,28,1
156K28S4,751,experiment,54,↑,up,↑,0.4442424001172185,True,28,1
156K28S4,752,experiment,88,↑,up,↑,0.49240330001339316,True,28,1
156K28S4,753,experiment,76,↓,down,↓,0.5908859996125102,True,28,1
156K28S4,754,experiment,67,→,right,→,0.6087695001624525,True,28,1
156K28S4,755,experiment,59,→,right,→,0.4763992000371218,True,28,1
156K28S4,756,experiment,48,↑,up,↑,0.4732756996527314,True,28,1
156K28S4,757,experiment,57,←,left,←,0.45127910003066063,True,28,1
156K28S4,758,experiment,105,↑,up,↑,0.5658668000251055,True,28,1
156K28S4,759,experiment,106,→,right,→,0.4433687003329396,True,28,1
156K28S4,760,experiment,83,↑,up,↑,0.4618532997556031,True,28,1
156K28S4,761,experiment,68,→,right,→,0.5085706999525428,True,28,1
156K28S4,762,experiment,97,←,left,←,0.4080583001486957,True,28,1
156K28S4,763,experiment,70,↓,down,↓,0.6875200998038054,True,28,1
156K28S4,764,experiment,84,←,left,←,0.4161017998121679,True,28,1
156K28S4,765,experiment,82,↑,up,↑,0.4120517997071147,True,28,1
156K28S4,766,experiment,103,↑,up,↑,0.6083027999848127,True,28,1
156K28S4,767,experiment,98,→,right,→,0.45495230006054044,True,28,1
156K28S4,768,experiment,94,←,left,←,0.6369727002456784,True,28,1
156K28S4,769,experiment,58,→,right,→,0.5760523001663387,True,28,1
156K28S4,770,experiment,85,↑,up,↑,0.4764916002750397,True,28,1
156K28S4,771,experiment,69,↑,up,↑,0.4422231996431947,True,28,1
156K28S4,772,experiment,53,←,left,←,0.5425757002085447,True,28,1
156K28S4,773,experiment,60,↓,down,↓,0.7167382002808154,True,28,1
156K28S4,774,experiment,51,↑,up,↑,0.47086549969390035,True,28,1
156K28S4,775,experiment,78,←,left,←,0.6096153999678791,True,28,1
156K28S4,776,experiment,80,↑,up,↑,0.4623461002483964,True,28,1
156K28S4,777,experiment,73,←,left,←,0.6196171999908984,True,28,1
156K28S4,778,experiment,90,↓,down,↓,0.6763813998550177,True,28,1
156K28S4,779,experiment,63,↓,down,↓,0.6201710999011993,True,28,1
156K28S4,780,experiment,81,↑,up,↑,0.4802387999370694,True,28,1
156K28S4,781,experiment,77,→,right,→,0.8909777998924255,True,28,1
156K28S4,782,experiment,93,←,left,←,0.551939900033176,True,28,1
156K28S4,783,experiment,71,←,left,←,0.5459182998165488,True,28,1
156K28S4,784,experiment,66,→,right,→,0.5177476000972092,True,28,1
156K28S4,785,experiment,101,↓,down,↓,0.6952313003130257,True,28,1
156K28S4,786,experiment,89,↓,down,↓,0.5495676998980343,True,28,1
156K28S4,787,experiment,92,←,left,←,0.4169648000970483,True,28,1
156K28S4,788,experiment,65,↑,up,↑,0.4186144000850618,True,28,1
156K28S4,789,experiment,100,→,right,→,0.903254899661988,True,28,1
156K28S4,790,experiment,56,↓,down,↓,0.6245586001314223,True,28,1
156K28S4,791,experiment,50,→,right,→,0.49450339982286096,True,28,1
156K28S4,792,experiment,79,↓,down,↓,0.5682413000613451,True,28,1
156K28S4,793,experiment,102,↑,up,↑,0.40771850012242794,True,28,1
156K28S4,794,experiment,49,←,left,←,0.5100600998848677,True,28,1
156K28S4,795,experiment,107,↑,up,↑,0.41407350031659007,True,28,1
156K28S4,796,experiment,86,↓,down,↓,0.5283357999287546,True,28,1
156K28S4,797,training,91,↓,down,↓,0.5341562000103295,True,28,0
156K28S4,798,training,59,→,right,→,0.5966389998793602,True,28,1
156K28S4,799,experiment,95,↑,up,↑,0.6126618999987841,True,28,1
156K28S4,800,experiment,54,→,right,→,0.505770499818027,True,28,1
156K28S4,801,experiment,80,↑,up,↑,0.8905911999754608,True,28,1
156K28S4,802,experiment,66,→,right,→,0.4325437000952661,True,28,1
156K28S4,803,experiment,55,→,right,→,0.3757098997011781,True,28,1
156K28S4,804,experiment,51,↑,up,↑,0.8920195000246167,True,28,0
156K28S4,805,experiment,106,↓,down,↓,0.5247008996084332,True,28,1
156K28S4,806,experiment,49,↓,up,↑,0.9191370001062751,False,28,1
156K28S4,807,experiment,99,→,right,→,0.5051488997414708,True,28,1
156K28S4,808,experiment,104,→,right,→,0.49789580004289746,True,28,1
156K28S4,809,experiment,107,↑,up,↑,0.553883200045675,True,28,1
156K28S4,810,experiment,92,↑,up,↑,0.4770237999036908,True,28,1
156K28S4,811,experiment,100,←,left,←,0.672416599933058,True,28,1
156K28S4,812,experiment,90,↑,up,↑,0.43113379972055554,True,28,1
156K28S4,813,experiment,87,↓,down,↓,0.45692639984190464,True,28,1
156K28S4,814,experiment,91,↓,down,↓,0.5355060999281704,True,28,1
156K28S4,815,experiment,63,↑,up,↑,0.8129513002932072,True,28,1
156K28S4,816,experiment,61,↑,up,↑,0.6160280997864902,True,28,1
156K28S4,817,experiment,89,↓,down,↓,0.457466599997133,True,28,1
156K28S4,818,experiment,48,↑,up,↑,0.4389841998927295,True,28,1
156K28S4,819,experiment,88,→,right,→,0.43948750011622906,True,28,1
156K28S4,820,experiment,81,←,left,←,0.4426933000795543,True,28,1
156K28S4,821,experiment,101,↓,down,↓,0.41534500010311604,True,28,1
156K28S4,822,experiment,60,↓,down,↓,0.7462769998237491,True,28,1
156K28S4,823,experiment,73,↓,down,↓,0.4838552000001073,True,28,1
156K28S4,824,experiment,74,←,left,←,0.5276339999400079,True,28,1
156K28S4,825,experiment,78,↓,down,↓,0.6803679997101426,True,28,1
156K28S4,826,experiment,67,→,right,→,0.5106143997982144,True,28,1
156K28S4,827,experiment,69,↑,up,↑,0.6668295999988914,True,28,1
156K28S4,828,experiment,77,↑,up,↑,0.6461216998286545,True,28,1
156K28S4,829,experiment,97,←,left,←,0.7154878997243941,True,28,1
156K28S4,830,experiment,103,↑,up,↑,0.45221109967678785,True,28,1
156K28S4,831,experiment,68,→,right,→,0.4834402999840677,True,28,1
156K28S4,832,experiment,85,↑,up,↑,0.4433754999190569,True,28,1
156K28S4,833,experiment,53,↑,up,↑,0.6158329001627862,True,28,1
156K28S4,834,experiment,83,→,right,→,0.507271199952811,True,28,1
156K28S4,835,experiment,108,←,left,←,0.48308310005813837,True,28,1
156K28S4,836,experiment,70,←,left,←,0.4876878000795841,True,28,1
156K28S4,837,experiment,94,↑,up,↑,0.4683813997544348,True,28,1
156K28S4,838,experiment,56,→,right,→,0.4868744001723826,True,28,1
156K28S4,839,experiment,98,→,right,→,0.5465533998794854,True,28,1
156K28S4,840,experiment,75,←,left,←,0.5552244000136852,True,28,1
156K28S4,841,experiment,102,←,left,←,0.5626939996145666,True,28,1
156K28S4,842,experiment,52,←,left,←,0.5708914999850094,True,28,1
156K28S4,843,experiment,65,←,left,←,0.5500565003603697,True,28,1
156K28S4,844,experiment,59,←,left,←,0.6602284996770322,True,28,1
156K28S4,845,experiment,93,↑,up,↑,0.7226252001710236,True,28,1
156K28S4,846,experiment,82,↓,down,↓,0.6899175001308322,True,28,1
156K28S4,847,experiment,96,↑,up,↑,0.4700011000968516,True,28,1
156K28S4,848,experiment,62,↓,down,↓,0.6544154998846352,True,28,1
156K28S4,849,experiment,105,→,left,←,0.41717009991407394,False,28,1
156K28S4,850,experiment,58,→,right,→,0.6205494999885559,True,28,1
156K28S4,851,experiment,86,↑,up,↑,0.6149159995839,True,28,1
156K28S4,852,experiment,72,↓,down,↓,0.7339699999429286,True,28,1
156K28S4,853,experiment,64,←,left,←,0.4751415001228452,True,28,1
156K28S4,854,experiment,84,→,right,→,0.6518719000741839,True,28,1
156K28S4,855,experiment,50,←,left,←,0.47313089994713664,True,28,1
156K28S4,856,experiment,71,→,right,→,0.5660155997611582,True,28,1
156K28S4,857,experiment,76,↓,down,↓,0.48568740021437407,True,28,1
156K28S4,858,experiment,79,↓,down,↓,0.5759570999071002,True,28,1
156K28S4,859,experiment,57,↑,up,↑,0.4695362998172641,True,28,1
156K28S4,860,training,73,→,right,→,0.4751734002493322,True,28,0
156K28S4,861,training,68,→,left,←,0.4412547000683844,False,28,1
156K28S4,862,experiment,61,↓,down,↓,0.6350026996806264,True,28,1
156K28S4,863,experiment,103,→,right,→,0.47901599993929267,True,28,1
156K28S4,864,experiment,81,↑,up,↑,0.4009786997921765,True,28,1
156K28S4,865,experiment,101,←,left,←,0.43822160037234426,True,28,0
156K28S4,866,experiment,99,←,left,←,0.5477419998496771,True,28,1
156K28S4,867,experiment,78,↑,up,↑,0.5793647998943925,True,28,1
156K28S4,868,experiment,105,↑,up,↑,0.4810671997256577,True,28,1
156K28S4,869,experiment,49,↑,up,↑,0.4211389999836683,True,28,1
156K28S4,870,experiment,63,→,right,→,0.62293880013749,True,28,1
156K28S4,871,experiment,52,↑,up,↑,0.38420529989525676,True,28,1
156K28S4,872,experiment,68,←,left,←,1.2376920999959111,True,28,0
156K28S4,873,experiment,76,←,left,←,0.5866553001105785,True,28,1
156K28S4,874,experiment,96,↓,down,↓,0.5550343003123999,True,28,1
156K28S4,875,experiment,80,→,right,→,0.4817846999503672,True,28,1
156K28S4,876,experiment,79,→,right,→,0.5079163000918925,True,28,1
156K28S4,877,experiment,94,↑,up,↑,0.35903980024158955,True,28,1
156K28S4,878,experiment,73,→,right,→,0.6086570997722447,True,28,0
156K28S4,879,experiment,55,→,right,→,0.41431469982489944,True,28,1
156K28S4,880,experiment,98,↓,down,↓,1.0122440000995994,True,28,1
156K28S4,881,experiment,65,↓,down,↓,0.5338700003921986,True,28,1
156K28S4,882,experiment,60,↑,up,↑,0.5804894999600947,True,28,1
156K28S4,883,experiment,102,←,left,←,0.5946142999455333,True,28,1
156K28S4,884,experiment,108,↓,down,↓,0.5107062999159098,True,28,1
156K28S4,885,experiment,95,→,right,→,0.5223523997701705,True,28,1
156K28S4,886,experiment,91,↑,up,↑,0.5993702001869678,True,28,1
156K28S4,887,experiment,71,←,left,←,0.5268381000496447,True,28,1
156K28S4,888,experiment,82,→,right,→,0.5102690998464823,True,28,1
156K28S4,889,experiment,69,←,left,←,0.8107273001223803,True,28,1
156K28S4,890,experiment,72,←,left,←,0.5220971000380814,True,28,1
156K28S4,891,experiment,89,←,left,←,0.7031340003013611,True,28,1
156K28S4,892,experiment,75,→,right,→,0.5137616000138223,True,28,1
156K28S4,893,experiment,50,←,left,←,0.5482366001233459,True,28,1
156K28S4,894,experiment,66,→,right,→,0.5119872000068426,True,28,1
156K28S4,895,experiment,87,↑,up,↑,0.4464743002317846,True,28,1
156K28S4,896,experiment,59,→,right,→,0.4964293004013598,True,28,1
156K28S4,897,experiment,93,←,left,←,0.46907939994707704,True,28,1
156K28S4,898,experiment,86,→,right,→,0.4456155998632312,True,28,1
156K28S4,899,experiment,62,→,right,→,0.5430287001654506,True,28,1
156K28S4,900,experiment,57,↓,down,↓,0.6541527002118528,True,28,1
156K28S4,901,experiment,54,↑,up,↑,0.4255735999904573,True,28,1
156K28S4,902,experiment,92,→,right,→,0.6256702002137899,True,28,1
156K28S4,903,experiment,70,↓,down,↓,0.6569835999980569,True,28,1
156K28S4,904,experiment,53,↓,down,↓,0.6847883998416364,True,28,1
156K28S4,905,experiment,104,↑,down,↓,0.7583884000778198,False,28,1
156K28S4,906,experiment,90,↑,up,↑,0.5218628998845816,True,28,1
156K28S4,907,experiment,77,→,right,→,0.5628937003202736,True,28,1
156K28S4,908,experiment,100,↑,up,↑,0.4346175999380648,True,28,1
156K28S4,909,experiment,107,↑,up,↑,0.47727019991725683,True,28,1
156K28S4,910,experiment,51,←,left,←,0.40976700000464916,True,28,1
156K28S4,911,experiment,84,↑,up,↑,0.32588479993864894,True,28,1
156K28S4,912,experiment,67,←,left,←,0.43222189974039793,True,28,0
156K28S4,913,experiment,56,→,right,→,0.5159813999198377,True,28,1
156K28S4,914,experiment,97,→,right,→,0.5027026999741793,True,28,1
156K28S4,915,experiment,83,↑,up,↑,1.094802999868989,True,28,1
156K28S4,916,experiment,64,→,right,→,0.6934175998903811,True,28,1
156K28S4,917,experiment,85,→,right,→,0.6691713999025524,True,28,1
156K28S4,918,experiment,48,←,left,←,0.44228840013965964,True,28,1
156K28S4,919,experiment,88,→,right,→,0.4670521002262831,True,28,1
156K28S4,920,experiment,106,↑,up,↑,0.5167621998116374,True,28,1
156K28S4,921,experiment,58,←,left,←,0.45243219984695315,True,28,1
156K28S4,922,experiment,74,→,right,→,0.5055225999094546,True,28,1
156K28S4,923,training,85,↓,down,↓,0.5374114997684956,True,28,0
156K28S4,924,training,73,←,left,←,0.5234459000639617,True,28,1
156K28S4,925,experiment,66,↑,up,↑,0.45619599986821413,True,28,1
156K28S4,926,experiment,95,←,left,←,0.41427360009402037,True,28,1
156K28S4,927,experiment,90,←,left,←,0.543047699611634,True,28,1
156K28S4,928,experiment,69,→,right,→,0.4904583999887109,True,28,1
156K28S4,929,experiment,91,←,left,←,0.43984169978648424,True,28,1
156K28S4,930,experiment,88,←,left,←,0.6085211001336575,True,28,1
156K28S4,931,experiment,76,←,left,←,0.6627034996636212,True,28,1
156K28S4,932,experiment,68,↓,down,↓,0.6210349001921713,True,28,1
156K28S4,933,experiment,89,↑,up,↑,0.4380185999907553,True,28,1
156K28S4,934,experiment,98,←,left,←,0.5634099002927542,True,28,1
156K28S4,935,experiment,73,←,left,←,0.5641361000016332,True,28,1
156K28S4,936,experiment,67,→,left,←,0.6389227998442948,False,28,1
156K28S4,937,experiment,84,←,left,←,0.7129409001208842,True,28,1
156K28S4,938,experiment,99,↓,down,↓,0.6670531001873314,True,28,1
156K28S4,939,experiment,87,↑,up,↑,0.4991047000512481,True,28,1
156K28S4,940,experiment,62,↓,down,↓,0.5621187002398074,True,28,1
156K28S4,941,experiment,85,→,right,→,0.4951411001384258,True,28,1
156K28S4,942,experiment,63,↓,down,↓,0.6462755003012717,True,28,1
156K28S4,943,experiment,52,→,right,→,1.0266932002268732,True,28,1
156K28S4,944,experiment,83,→,right,→,0.5657395999878645,True,28,1
156K28S4,945,experiment,80,↓,down,↓,0.5720375999808311,True,28,1
156K28S4,946,experiment,72,↑,up,↑,0.620771300047636,True,28,1
156K28S4,947,experiment,57,↓,down,↓,0.7529461001977324,True,28,1
156K28S4,948,experiment,77,↓,down,↓,0.5529244998469949,True,28,1
156K28S4,949,experiment,59,←,left,←,0.6311143999919295,True,28,1
156K28S4,950,experiment,93,↑,up,↑,0.46236859960481524,True,28,1
156K28S4,951,experiment,102,↑,up,↑,0.4416903001256287,True,28,1
156K28S4,952,experiment,101,→,right,→,0.5422153999097645,True,28,1
156K28S4,953,experiment,60,↓,down,↓,0.7562595000490546,True,28,1
156K28S4,954,experiment,61,←,up,↑,0.5136184999719262,False,28,1
156K28S4,955,experiment,56,↑,up,↑,0.537837200332433,True,28,1
156K28S4,956,experiment,53,→,right,→,0.6501303003169596,True,28,1
156K28S4,957,experiment,54,←,left,←,0.45382909988984466,True,28,1
156K28S4,958,experiment,71,↓,down,↓,0.6920328997075558,True,28,1
156K28S4,959,experiment,50,←,left,←,0.4475182997994125,True,28,1
156K28S4,960,experiment,78,←,left,←,0.9710617000237107,True,28,1
156K28S4,961,experiment,79,↑,up,↑,0.6095019998028874,True,28,1
156K28S4,962,experiment,94,→,right,→,0.7774664997123182,True,28,1
156K28S4,963,experiment,81,↑,up,↑,0.5113099999725819,True,28,1
156K28S4,964,experiment,92,←,left,←,0.6199052999727428,True,28,1
156K28S4,965,experiment,65,↓,down,↓,0.7253735000267625,True,28,1
156K28S4,966,experiment,75,↓,down,↓,0.7030694996938109,True,28,1
156K28S4,967,experiment,64,←,left,←,0.5335662001743913,True,28,1
156K28S4,968,experiment,106,↓,down,↓,0.7164552002213895,True,28,1
156K28S4,969,experiment,105,←,left,←,0.4285667003132403,True,28,1
156K28S4,970,experiment,49,→,right,→,0.506721300072968,True,28,1
156K28S4,971,experiment,70,←,left,←,0.46279399981722236,True,28,1
156K28S4,972,experiment,97,↓,down,↓,0.5313780000433326,True,28,1
156K28S4,973,experiment,82,↓,down,↓,0.6105702999047935,True,28,1
156K28S4,974,experiment,100,→,right,→,0.48851990001276135,True,28,1
156K28S4,975,experiment,48,←,left,←,0.4767375998198986,True,28,1
156K28S4,976,experiment,86,↑,up,↑,0.42093809973448515,True,28,1
156K28S4,977,experiment,96,→,right,→,0.5474187000654638,True,28,1
156K28S4,978,experiment,107,→,right,→,0.4655498000793159,True,28,1
156K28S4,979,experiment,51,←,right,→,0.5415969998575747,False,28,1
156K28S4,980,experiment,104,↓,down,↓,0.6849221000447869,True,28,1
156K28S4,981,experiment,55,←,left,←,0.5589859997853637,True,28,1
156K28S4,982,experiment,108,→,right,→,0.9323394000530243,True,28,1
156K28S4,983,experiment,103,↓,down,↓,0.6443658997304738,True,28,1
156K28S4,984,experiment,74,←,left,←,0.5779694002121687,True,28,1
156K28S4,985,experiment,58,↓,down,↓,0.5756866997107863,True,28,1
156K28S4,986,training,89,↑,up,↑,0.4828618997707963,True,28,0
156K28S4,987,training,107,↓,down,↓,0.6279592998325825,True,28,1
156K28S4,988,experiment,95,→,right,→,0.3841017000377178,True,28,1
156K28S4,989,experiment,96,↓,down,↓,0.5786565998569131,True,28,0
156K28S4,990,experiment,70,→,right,→,0.48424929985776544,True,28,1
156K28S4,991,experiment,61,→,right,→,0.4841269999742508,True,28,1
156K28S4,992,experiment,107,→,right,→,0.4054594999179244,True,28,1
156K28S4,993,experiment,106,↓,down,↓,0.609256399795413,True,28,1
156K28S4,994,experiment,49,→,right,→,0.4162540999241173,True,28,1
156K28S4,995,experiment,74,←,left,←,0.6469903001561761,True,28,1
156K28S4,996,experiment,105,↓,down,↓,0.5770982000976801,True,28,1
156K28S4,997,experiment,69,↓,down,↓,0.6108943000435829,True,28,1
156K28S4,998,experiment,77,←,left,←,0.43269670009613037,True,28,1
156K28S4,999,experiment,99,↓,down,↓,0.7660996997728944,True,28,1
156K28S4,1000,experiment,92,↓,down,↓,0.4803777001798153,True,28,1
156K28S4,1001,experiment,84,←,left,←,0.4649064000695944,True,28,1
156K28S4,1002,experiment,48,→,right,→,0.7339329998940229,True,28,1
156K28S4,1003,experiment,81,↑,up,↑,0.5972368000075221,True,28,1
156K28S4,1004,experiment,54,←,left,←,0.6112408000044525,True,28,1
156K28S4,1005,experiment,73,↑,up,↑,0.4660096000880003,True,28,1
156K28S4,1006,experiment,76,→,right,→,0.8617897001095116,True,28,1
156K28S4,1007,experiment,98,↑,up,↑,0.5065067000687122,True,28,1
156K28S4,1008,experiment,82,↓,down,↓,0.6346319997683167,True,28,1
156K28S4,1009,experiment,79,→,right,→,0.4705644999630749,True,28,1
156K28S4,1010,experiment,86,↑,up,↑,0.5666386997327209,True,28,1
156K28S4,1011,experiment,78,→,right,→,0.5016830000095069,True,28,1
156K28S4,1012,experiment,83,↑,up,↑,0.5577258002012968,True,28,1
156K28S4,1013,experiment,58,←,left,←,0.5877859001047909,True,28,1
156K28S4,1014,experiment,93,↑,up,↑,0.5248751002363861,True,28,1
156K28S4,1015,experiment,108,↑,up,↑,0.4836066998541355,True,28,1
156K28S4,1016,experiment,59,↓,up,↑,0.4443773999810219,False,28,1
156K28S4,1017,experiment,90,→,right,→,0.5804188000038266,True,28,1
156K28S4,1018,experiment,72,↑,up,↑,0.42893269984051585,True,28,1
156K28S4,1019,experiment,75,→,right,→,0.5382755002938211,True,28,1
156K28S4,1020,experiment,56,↑,up,↑,0.4737140000797808,True,28,1
156K28S4,1021,experiment,87,←,left,←,0.43340309988707304,True,28,1
156K28S4,1022,experiment,94,↓,down,↓,0.6484428998082876,True,28,1
156K28S4,1023,experiment,103,→,right,→,0.4998185997828841,True,28,1
156K28S4,1024,experiment,52,↑,up,↑,0.49435949977487326,True,28,1
156K28S4,1025,experiment,62,→,right,→,0.6139344000257552,True,28,1
156K28S4,1026,experiment,102,←,left,←,0.610753399785608,True,28,1
156K28S4,1027,experiment,51,↑,up,↑,0.5131640997715294,True,28,1
156K28S4,1028,experiment,57,←,left,←,0.5532633000984788,True,28,1
156K28S4,1029,experiment,88,←,left,←,0.4616926000453532,True,28,1
156K28S4,1030,experiment,68,→,right,→,0.652352400124073,True,28,1
156K28S4,1031,experiment,80,↓,down,↓,0.5754574001766741,True,28,1
156K28S4,1032,experiment,85,↑,up,↑,0.6118013998493552,True,28,1
156K28S4,1033,experiment,101,↓,down,↓,0.6257163998670876,True,28,1
156K28S4,1034,experiment,66,→,right,→,0.5222796997986734,True,28,1
156K28S4,1035,experiment,97,↓,down,↓,0.6686319001019001,True,28,1
156K28S4,1036,experiment,67,←,left,←,0.45141439978033304,True,28,1
156K28S4,1037,experiment,64,↓,down,↓,0.6757638999260962,True,28,1
156K28S4,1038,experiment,100,↑,up,↑,0.5431244997307658,True,28,1
156K28S4,1039,experiment,53,↑,up,↑,0.48757539968937635,True,28,1
156K28S4,1040,experiment,91,↓,down,↓,0.5575974001549184,True,28,1
156K28S4,1041,experiment,50,←,left,←,0.45407090010121465,True,28,1
156K28S4,1042,experiment,104,→,right,→,0.33409310039132833,True,28,1
156K28S4,1043,experiment,71,←,left,←,0.8112094001844525,True,28,0
156K28S4,1044,experiment,60,↓,down,↓,0.42279599979519844,True,28,1
156K28S4,1045,experiment,89,→,right,→,0.5198413003236055,True,28,1
156K28S4,1046,experiment,65,↓,down,↓,0.4771072003059089,True,28,1
156K28S4,1047,experiment,55,↑,up,↑,0.4796691001392901,True,28,1
156K28S4,1048,experiment,63,↑,up,↑,0.599379800260067,True,28,1
156K28S4,1049,training,85,→,right,→,0.5492222001776099,True,28,0
156K28S4,1050,training,49,↓,down,↓,0.6706261998042464,True,28,1
156K28S4,1051,experiment,54,↓,down,↓,0.5697361002676189,True,28,1
156K28S4,1052,experiment,75,←,left,←,0.6739090997725725,True,28,1
156K28S4,1053,experiment,88,←,left,←,0.4971675002016127,True,28,1
156K28S4,1054,experiment,99,↑,up,↑,0.4044830999337137,True,28,1
156K28S4,1055,experiment,85,↓,down,↓,0.5189700000919402,True,28,0
156K28S4,1056,experiment,108,←,left,←,0.5740606002509594,True,28,1
156K28S4,1057,experiment,98,←,left,←,0.5901540997438133,True,28,1
156K28S4,1058,experiment,72,↓,down,↓,0.5261950995773077,True,28,1
156K28S4,1059,experiment,101,→,right,→,0.49518200010061264,True,28,1
156K28S4,1060,experiment,80,←,left,←,0.5446255002170801,True,28,1
156K28S4,1061,experiment,58,→,right,→,0.6713026999495924,True,28,1
156K28S4,1062,experiment,90,↓,down,↓,0.7020248002372682,True,28,1
156K28S4,1063,experiment,52,↓,down,↓,0.5205232002772391,True,28,1
156K28S4,1064,experiment,100,↓,down,↓,0.45808380004018545,True,28,1
156K28S4,1065,experiment,53,↓,down,↓,0.4939115000888705,True,28,1
156K28S4,1066,experiment,65,→,right,→,0.6123902997933328,True,28,1
156K28S4,1067,experiment,92,↓,down,↓,0.5567168002016842,True,28,1
156K28S4,1068,experiment,56,→,right,→,0.44344619987532496,True,28,1
156K28S4,1069,experiment,105,→,right,→,0.5825685001909733,True,28,1
156K28S4,1070,experiment,79,←,right,→,0.4450570996850729,False,28,1
156K28S4,1071,experiment,89,→,right,→,0.6049986002035439,True,28,1
156K28S4,1072,experiment,59,←,left,←,0.5929149999283254,True,28,1
156K28S4,1073,experiment,84,↑,up,↑,0.6767901997081935,True,28,1
156K28S4,1074,experiment,74,→,right,→,0.4728462998755276,True,28,1
156K28S4,1075,experiment,96,→,right,→,0.45357879996299744,True,28,1
156K28S4,1076,experiment,81,↓,down,↓,0.4402420995756984,True,28,1
156K28S4,1077,experiment,94,←,left,←,0.5190055998973548,True,28,1
156K28S4,1078,experiment,64,↑,up,↑,0.5167628997005522,True,28,1
156K28S4,1079,experiment,69,→,right,→,0.5610992000438273,True,28,1
156K28S4,1080,experiment,49,→,right,→,0.4104579999111593,True,28,1
156K28S4,1081,experiment,83,↓,down,↓,0.701378499623388,True,28,1
156K28S4,1082,experiment,97,↑,up,↑,0.5527257998473942,True,28,1
156K28S4,1083,experiment,62,←,left,←,0.5898771001957357,True,28,1
156K28S4,1084,experiment,71,↑,up,↑,0.5822014999575913,True,28,1
156K28S4,1085,experiment,60,↑,up,↑,0.49064380023628473,True,28,1
156K28S4,1086,experiment,51,↓,down,↓,0.6537937000393867,True,28,1
156K28S4,1087,experiment,77,↓,down,↓,0.6497507998719811,True,28,1
156K28S4,1088,experiment,93,←,left,←,0.42459920002147555,True,28,1
156K28S4,1089,experiment,104,↑,up,↑,0.6205116999335587,True,28,1
156K28S4,1090,experiment,73,↓,down,↓,0.6432877997867763,True,28,1
156K28S4,1091,experiment,103,→,right,→,0.46296800021082163,True,28,1
156K28S4,1092,experiment,102,←,left,←,0.5539874001406133,True,28,1
156K28S4,1093,experiment,82,↓,down,↓,0.600728299934417,True,28,1
156K28S4,1094,experiment,68,↑,up,↑,0.49734060000628233,True,28,1
156K28S4,1095,experiment,78,→,right,→,0.6029703002423048,True,28,1
156K28S4,1096,experiment,107,→,right,→,0.463026599958539,True,28,1
156K28S4,1097,experiment,55,↓,down,↓,0.5377134000882506,True,28,1
156K28S4,1098,experiment,61,→,right,→,0.5994899002835155,True,28,1
156K28S4,1099,experiment,76,←,left,←,0.48582160007208586,True,28,1
156K28S4,1100,experiment,91,→,right,→,0.8918607998639345,True,28,1
156K28S4,1101,experiment,87,→,right,→,0.44290070002898574,True,28,1
156K28S4,1102,experiment,67,→,right,→,0.5628022002056241,True,28,1
156K28S4,1103,experiment,66,←,left,←,0.4777608998119831,True,28,1
156K28S4,1104,experiment,106,↑,up,↑,0.607131399679929,True,28,1
156K28S4,1105,experiment,57,↑,up,↑,0.4276482998393476,True,28,1
156K28S4,1106,experiment,63,←,left,←,0.5249347002245486,True,28,1
156K28S4,1107,experiment,86,↓,down,↓,0.6350161000154912,True,28,1
156K28S4,1108,experiment,95,←,left,←,0.4817082001827657,True,28,1
156K28S4,1109,experiment,50,↑,up,↑,0.7734929001890123,True,28,1
156K28S4,1110,experiment,48,←,left,←,0.5662407004274428,True,28,1
156K28S4,1111,experiment,70,←,left,←,0.45600559981539845,True,28,1
156K28S4,1112,training,52,←,left,←,0.36737020034343004,True,28,0
156K28S4,1113,training,78,↓,down,↓,0.5814501997083426,True,28,0
156K28S4,1114,experiment,66,↓,down,↓,0.6798721998929977,True,28,1
156K28S4,1115,experiment,54,↑,up,↑,0.5542506002821028,True,28,1
156K28S4,1116,experiment,62,←,left,←,0.9910484999418259,True,28,1
156K28S4,1117,experiment,99,↑,up,↑,0.4064835999161005,True,28,1
156K28S4,1118,experiment,56,↑,up,↑,0.41924590012058616,True,28,0
156K28S4,1119,experiment,69,←,left,←,0.43455900019034743,True,28,1
156K28S4,1120,experiment,106,→,right,→,0.4935309002175927,True,28,1
156K28S4,1121,experiment,105,↑,up,↑,0.5346715999767184,True,28,1
156K28S4,1122,experiment,83,↓,up,↑,0.5014227000065148,False,28,1
156K28S4,1123,experiment,92,↑,up,↑,0.4663586001843214,True,28,1
156K28S4,1124,experiment,88,↓,down,↓,0.7620975002646446,True,28,1
156K28S4,1125,experiment,52,↑,up,↑,0.47395690018311143,True,28,1
156K28S4,1126,experiment,73,↑,up,↑,0.9501924999058247,True,28,1
156K28S4,1127,experiment,58,↑,up,↑,0.4210252999328077,True,28,1
156K28S4,1128,experiment,63,←,left,←,0.4069749000482261,True,28,1
156K28S4,1129,experiment,49,←,left,←,0.7015807996504009,True,28,0
156K28S4,1130,experiment,93,→,right,→,0.8661285997368395,True,28,1
156K28S4,1131,experiment,53,→,right,→,0.613636199850589,True,28,1
156K28S4,1132,experiment,86,↑,up,↑,0.48006359999999404,True,28,1
156K28S4,1133,experiment,59,←,left,←,0.4328085999004543,True,28,1
156K28S4,1134,experiment,107,↓,down,↓,0.6034988001920283,True,28,1
156K28S4,1135,experiment,48,↑,up,↑,0.6593138999305665,True,28,1
156K28S4,1136,experiment,100,→,right,→,0.6153342998586595,True,28,1
156K28S4,1137,experiment,57,↑,up,↑,0.507375500164926,True,28,1
156K28S4,1138,experiment,84,←,left,←,0.40326640009880066,True,28,1
156K28S4,1139,experiment,71,↓,down,↓,0.5065307999029756,True,28,1
156K28S4,1140,experiment,60,↑,up,↑,0.6259582000784576,True,28,1
156K28S4,1141,experiment,72,↓,down,↓,0.784639900084585,True,28,1
156K28S4,1142,experiment,79,↓,down,↓,0.6067017996683717,True,28,1
156K28S4,1143,experiment,61,→,right,→,0.417892400175333,True,28,1
156K28S4,1144,experiment,98,→,right,→,0.3258209000341594,True,28,1
156K28S4,1145,experiment,85,←,left,←,0.4784300001338124,True,28,0
156K28S4,1146,experiment,67,↑,up,↑,0.5407468997873366,True,28,1
156K28S4,1147,experiment,103,→,right,→,0.6364232003688812,True,28,1
156K28S4,1148,experiment,81,↓,down,↓,0.6557474997825921,True,28,1
156K28S4,1149,experiment,80,↑,up,↑,0.5865488997660577,True,28,1
156K28S4,1150,experiment,76,←,left,←,0.42586940014734864,True,28,1
156K28S4,1151,experiment,90,↓,down,↓,0.5143434996716678,True,28,1
156K28S4,1152,experiment,51,→,right,→,0.5325174001045525,True,28,1
156K28S4,1153,experiment,94,↓,down,↓,0.511470700148493,True,28,1
156K28S4,1154,experiment,77,↑,up,↑,0.5772942001931369,True,28,1
156K28S4,1155,experiment,104,↓,down,↓,0.6473445002920926,True,28,1
156K28S4,1156,experiment,50,←,left,←,0.4603034998290241,True,28,1
156K28S4,1157,experiment,78,←,left,←,0.9357230998575687,True,28,1
156K28S4,1158,experiment,87,↑,up,↑,0.42913669999688864,True,28,1
156K28S4,1159,experiment,89,↓,down,↓,0.6700602998025715,True,28,1
156K28S4,1160,experiment,74,↑,up,↑,0.9701355998404324,True,28,1
156K28S4,1161,experiment,55,←,left,←,0.5289055998437107,True,28,1
156K28S4,1162,experiment,65,↓,down,↓,0.6216559000313282,True,28,1
156K28S4,1163,experiment,68,↓,down,↓,0.5500648999586701,True,28,1
156K28S4,1164,experiment,64,→,right,→,0.5624541998840868,True,28,1
156K28S4,1165,experiment,96,→,right,→,0.35912169981747866,True,28,1
156K28S4,1166,experiment,97,↓,down,↓,0.48458069982007146,True,28,0
156K28S4,1167,experiment,70,↓,down,↓,0.5855863997712731,True,28,1
156K28S4,1168,experiment,75,↓,down,↓,0.4332027998752892,True,28,1
156K28S4,1169,experiment,91,↑,up,↑,0.46502469992265105,True,28,1
156K28S4,1170,experiment,82,↑,up,↑,0.6028307997621596,True,28,1
156K28S4,1171,experiment,95,↓,down,↓,0.722841199953109,True,28,1
156K28S4,1172,experiment,101,→,right,→,0.7399111003614962,True,28,1
156K28S4,1173,experiment,102,↑,up,↑,0.4518633997067809,True,28,1
156K28S4,1174,experiment,108,↑,up,↑,0.637682699598372,True,28,1
156K28S4,1175,training,74,→,right,→,0.38399669993668795,True,28,0
156K28S4,1176,training,91,→,right,→,0.4979553003795445,True,28,0
156K28S4,1177,experiment,62,↓,down,↓,0.7210019999183714,True,28,1
156K28S4,1178,experiment,71,↓,down,↓,0.532400700263679,True,28,1
156K28S4,1179,experiment,90,←,left,←,0.5128219001926482,True,28,1
156K28S4,1180,experiment,80,←,left,←,0.9375055995769799,True,28,1
156K28S4,1181,experiment,68,↓,down,↓,0.5968186999671161,True,28,1
156K28S4,1182,experiment,57,↓,down,↓,0.593584000132978,True,28,1
156K28S4,1183,experiment,49,↑,up,↑,0.6735128001309931,True,28,1
156K28S4,1184,experiment,64,↓,down,↓,0.6970199001953006,True,28,1
156K28S4,1185,experiment,67,←,left,←,0.6941582998260856,True,28,1
156K28S4,1186,experiment,105,←,left,←,0.5351724997162819,True,28,1
156K28S4,1187,experiment,48,↓,down,↓,0.6895770002156496,True,28,1
156K28S4,1188,experiment,52,↓,down,↓,0.5644477000460029,True,28,1
156K28S4,1189,experiment,56,→,right,→,0.5467031002044678,True,28,1
156K28S4,1190,experiment,96,→,right,→,0.5649490002542734,True,28,1
156K28S4,1191,experiment,99,←,left,←,0.6930685001425445,True,28,1
156K28S4,1192,experiment,104,←,left,←,0.5741698001511395,True,28,1
156K28S4,1193,experiment,77,↑,up,↑,0.5172966001555324,True,28,1
156K28S4,1194,experiment,60,↑,up,↑,0.5003534001298249,True,28,1
156K28S4,1195,experiment,78,↓,down,↓,1.0700117000378668,True,28,1
156K28S4,1196,experiment,103,→,right,→,0.5047522000968456,True,28,1
156K28S4,1197,experiment,92,←,left,←,0.4534615003503859,True,28,1
156K28S4,1198,experiment,106,→,right,→,0.6158733000047505,True,28,1
156K28S4,1199,experiment,72,↓,down,↓,0.6868606000207365,True,28,1
156K28S4,1200,experiment,101,←,left,←,0.5535770999267697,True,28,1
156K28S4,1201,experiment,66,→,right,→,0.5333102997392416,True,28,1
156K28S4,1202,experiment,53,↓,down,↓,0.49410950019955635,True,28,1
156K28S4,1203,experiment,82,←,left,←,0.5427850000560284,True,28,1
156K28S4,1204,experiment,81,→,right,→,0.6459131999872625,True,28,1
156K28S4,1205,experiment,87,→,right,→,0.6871378002688289,True,28,1
156K28S4,1206,experiment,73,↑,up,↑,0.5153812998905778,True,28,1
156K28S4,1207,experiment,51,→,right,→,0.5412845001555979,True,28,1
156K28S4,1208,experiment,65,↓,down,↓,0.5855012000538409,True,28,1
156K28S4,1209,experiment,88,↓,down,↓,0.5964777995832264,True,28,1
156K28S4,1210,experiment,102,←,left,←,0.4582481002435088,True,28,1
156K28S4,1211,experiment,69,←,left,←,0.5447108000516891,True,28,1
156K28S4,1212,experiment,108,←,left,←,0.42284630006179214,True,28,1
156K28S4,1213,experiment,54,←,left,←,0.9393651997670531,True,28,1
156K28S4,1214,experiment,97,→,right,→,0.5091589000076056,True,28,1
156K28S4,1215,experiment,89,↓,down,↓,0.45080449990928173,True,28,1
156K28S4,1216,experiment,91,→,right,→,0.8821322000585496,True,28,1
156K28S4,1217,experiment,50,↓,down,↓,0.5019781002774835,True,28,1
156K28S4,1218,experiment,55,→,right,→,0.47939820028841496,True,28,1
156K28S4,1219,experiment,94,←,left,←,0.43643010035157204,True,28,1
156K28S4,1220,experiment,58,↑,up,↑,0.4476626003161073,True,28,1
156K28S4,1221,experiment,83,←,left,←,0.5296398000791669,True,28,1
156K28S4,1222,experiment,79,→,right,→,0.4817598997615278,True,28,1
156K28S4,1223,experiment,95,←,left,←,0.4304202999919653,True,28,1
156K28S4,1224,experiment,98,→,right,→,0.6281468002125621,True,28,1
156K28S4,1225,experiment,74,←,left,←,0.44231379963457584,True,28,1
156K28S4,1226,experiment,70,↓,down,↓,0.4329739003442228,True,28,1
156K28S4,1227,experiment,85,↑,up,↑,0.5070457998663187,True,28,1
156K28S4,1228,experiment,86,↓,down,↓,0.4498596000485122,True,28,1
156K28S4,1229,experiment,75,←,left,←,0.4150242996402085,True,28,1
156K28S4,1230,experiment,100,↑,up,↑,0.6042916001752019,True,28,1
156K28S4,1231,experiment,59,↓,down,↓,0.5359789999201894,True,28,1
156K28S4,1232,experiment,76,↑,up,↑,0.5290366997942328,True,28,1
156K28S4,1233,experiment,63,↓,down,↓,0.774868099950254,True,28,1
156K28S4,1234,experiment,61,←,left,←,0.41167639987543225,True,28,1
156K28S4,1235,experiment,93,↑,up,↑,0.40401489986106753,True,28,1
156K28S4,1236,experiment,107,←,left,←,0.5110381003469229,True,28,1
156K28S4,1237,experiment,84,↓,down,↓,0.5184061997570097,True,28,1
156K28S4,1238,training,107,↓,down,↓,0.5777330002747476,True,28,0
156K28S4,1239,training,90,↓,down,↓,0.4048689999617636,True,28,1
156K28S4,1240,experiment,98,←,left,←,0.4036305001936853,True,28,1
156K28S4,1241,experiment,48,→,right,→,0.6424402999691665,True,28,0
156K28S4,1242,experiment,79,↓,down,↓,0.6940121999941766,True,28,1
156K28S4,1243,experiment,64,↑,up,↑,0.5967704001814127,True,28,1
156K28S4,1244,experiment,77,↑,up,↑,0.45888679986819625,True,28,1
156K28S4,1245,experiment,80,→,right,→,0.5656329998746514,True,28,1
156K28S4,1246,experiment,61,←,left,←,0.4588293000124395,True,28,1
156K28S4,1247,experiment,75,→,right,→,0.4151217001490295,True,28,1
156K28S4,1248,experiment,59,↓,down,↓,0.6821543001569808,True,28,1
156K28S4,1249,experiment,70,↓,down,↓,0.6075245002284646,True,28,1
156K28S4,1250,experiment,73,↑,up,↑,0.4542660997249186,True,28,1
156K28S4,1251,experiment,92,→,right,→,0.477067600004375,True,28,1
156K28S4,1252,experiment,94,→,right,→,0.48249860014766455,True,28,1
156K28S4,1253,experiment,99,↑,up,↑,0.5578507999889553,True,28,1
156K28S4,1254,experiment,89,→,right,→,0.4335909001529217,True,28,1
156K28S4,1255,experiment,74,←,left,←,0.5912646003998816,True,28,1
156K28S4,1256,experiment,97,→,right,→,0.47908789990469813,True,28,1
156K28S4,1257,experiment,88,←,left,←,0.4624394001439214,True,28,1
156K28S4,1258,experiment,85,→,right,→,0.4874851000495255,True,28,1
156K28S4,1259,experiment,84,↓,down,↓,0.6075118998996913,True,28,1
156K28S4,1260,experiment,83,←,left,←,0.4195324000902474,True,28,1
156K28S4,1261,experiment,51,↑,up,↑,0.43304929975420237,True,28,1
156K28S4,1262,experiment,86,←,left,←,0.4907704000361264,True,28,1
156K28S4,1263,experiment,107,←,left,←,0.46710259979590774,True,28,1
156K28S4,1264,experiment,62,↑,up,↑,0.4915579999797046,True,28,1
156K28S4,1265,experiment,105,←,right,→,0.3591912998817861,False,28,1
156K28S4,1266,experiment,91,→,right,→,0.6233756998553872,True,28,0
156K28S4,1267,experiment,53,→,right,→,0.4764335001818836,True,28,1
156K28S4,1268,experiment,49,↑,up,↑,0.48088480019941926,True,28,1
156K28S4,1269,experiment,87,↓,down,↓,0.6562457997351885,True,28,1
156K28S4,1270,experiment,56,↑,up,↑,0.5872375001199543,True,28,1
156K28S4,1271,experiment,103,←,left,←,0.6330287996679544,True,28,1
156K28S4,1272,experiment,104,→,right,→,0.5007767998613417,True,28,1
156K28S4,1273,experiment,63,←,left,←,0.7715125000104308,True,28,1
156K28S4,1274,experiment,52,←,left,←,0.4992944002151489,True,28,1
156K28S4,1275,experiment,90,↑,up,↑,0.6569352997466922,True,28,1
156K28S4,1276,experiment,65,↓,down,↓,0.5767470998689532,True,28,1
156K28S4,1277,experiment,108,↓,down,↓,0.637449599802494,True,28,1
156K28S4,1278,experiment,82,↑,up,↑,0.5922493999823928,True,28,1
156K28S4,1279,experiment,68,↑,up,↑,0.9054070999845862,True,28,1
156K28S4,1280,experiment,95,↓,down,↓,0.5253261998295784,True,28,1
156K28S4,1281,experiment,57,→,right,→,0.620908800046891,True,28,1
156K28S4,1282,experiment,72,←,left,←,0.4436655999161303,True,28,1
156K28S4,1283,experiment,58,↑,up,↑,0.43838190007954836,True,28,1
156K28S4,1284,experiment,54,↑,up,↑,0.4665469001047313,True,28,1
156K28S4,1285,experiment,81,↓,down,↓,0.6125893997959793,True,28,1
156K28S4,1286,experiment,69,↑,up,↑,0.4133566999807954,True,28,1
156K28S4,1287,experiment,55,↑,up,↑,0.5454249000176787,True,28,1
156K28S4,1288,experiment,78,←,left,←,0.7937251999974251,True,28,1
156K28S4,1289,experiment,50,←,left,←,0.6248671002686024,True,28,1
156K28S4,1290,experiment,66,↑,up,↑,0.48965629981830716,True,28,1
156K28S4,1291,experiment,106,↓,down,↓,0.6343648000620306,True,28,1
156K28S4,1292,experiment,71,↓,down,↓,0.5850933999754488,True,28,1
156K28S4,1293,experiment,102,↓,down,↓,0.6714467001147568,True,28,1
156K28S4,1294,experiment,96,←,left,←,0.6041102996096015,True,28,1
156K28S4,1295,experiment,93,↓,down,↓,0.5645278999581933,True,28,1
156K28S4,1296,experiment,101,→,right,→,0.4680000999942422,True,28,1
156K28S4,1297,experiment,60,←,left,←,0.4849978000856936,True,28,1
156K28S4,1298,experiment,67,←,left,←,0.4350974000990391,True,28,1
156K28S4,1299,experiment,76,↑,up,↑,0.4401950999163091,True,28,1
156K28S4,1300,experiment,100,→,left,←,0.5730384001508355,False,28,1
156K28S4,1301,training,73,→,left,←,0.512865699827671,False,28,0
156K28S4,1302,training,65,←,left,←,0.9182488997466862,True,28,1
156K28S4,1303,experiment,62,↑,up,↑,0.36749269999563694,True,28,1
156K28S4,1304,experiment,105,↓,up,↑,0.5462454003281891,False,28,0
156K28S4,1305,experiment,107,←,left,←,0.48035089997574687,True,28,1
156K28S4,1306,experiment,104,↓,down,↓,0.594104299787432,True,28,1
156K28S4,1307,experiment,51,↓,down,↓,0.4174429001286626,True,28,1
156K28S4,1308,experiment,98,↑,up,↑,0.6155120003968477,True,28,1
156K28S4,1309,experiment,91,↓,down,↓,0.720401699654758,True,28,1
156K28S4,1310,experiment,53,←,left,←,0.5777318999171257,True,28,1
156K28S4,1311,experiment,48,→,right,→,0.562448900192976,True,28,1
156K28S4,1312,experiment,67,←,left,←,0.42928950022906065,True,28,1
156K28S4,1313,experiment,99,↓,down,↓,0.5305357002653182,True,28,1
156K28S4,1314,experiment,75,→,right,→,0.6839502998627722,True,28,1
156K28S4,1315,experiment,108,↓,down,↓,0.6043150997720659,True,28,1
156K28S4,1316,experiment,83,↓,down,↓,0.488433999940753,True,28,1
156K28S4,1317,experiment,82,↑,up,↑,0.47309309989213943,True,28,1
156K28S4,1318,experiment,96,→,right,→,0.4379499997012317,True,28,1
156K28S4,1319,experiment,86,↓,down,↓,0.623244000133127,True,28,1
156K28S4,1320,experiment,59,←,left,←,0.48228799970820546,True,28,1
156K28S4,1321,experiment,100,↑,up,↑,0.6453843996860087,True,28,1
156K28S4,1322,experiment,77,→,right,→,0.5537093998864293,True,28,1
156K28S4,1323,experiment,94,→,right,→,0.7001633001491427,True,28,1
156K28S4,1324,experiment,50,←,right,→,0.583281499799341,False,28,1
156K28S4,1325,experiment,84,←,left,←,0.5796552998945117,True,28,1
156K28S4,1326,experiment,76,↑,up,↑,0.5865667997859418,True,28,1
156K28S4,1327,experiment,69,→,right,→,0.6040199003182352,True,28,1
156K28S4,1328,experiment,65,↓,down,↓,0.6221015001647174,True,28,1
156K28S4,1329,experiment,95,←,left,←,0.5491325999610126,True,28,1
156K28S4,1330,experiment,55,↑,up,↑,0.5086214998736978,True,28,1
156K28S4,1331,experiment,60,↓,down,↓,0.5720553998835385,True,28,1
156K28S4,1332,experiment,61,↑,up,↑,0.4325187997892499,True,28,1
156K28S4,1333,experiment,101,←,left,←,0.4292305000126362,True,28,1
156K28S4,1334,experiment,80,↓,down,↓,0.42505129985511303,True,28,1
156K28S4,1335,experiment,88,→,left,←,0.5944906999357045,False,28,1
156K28S4,1336,experiment,106,↑,up,↑,0.4390479000285268,True,28,1
156K28S4,1337,experiment,54,↑,up,↑,0.49925380013883114,True,28,1
156K28S4,1338,experiment,49,←,left,←,0.4625641000457108,True,28,1
156K28S4,1339,experiment,64,↓,down,↓,0.6623549000360072,True,28,1
156K28S4,1340,experiment,103,→,right,→,0.5613095997832716,True,28,1
156K28S4,1341,experiment,52,←,left,←,0.6014070003293455,True,28,1
156K28S4,1342,experiment,90,←,left,←,0.47507609985768795,True,28,1
156K28S4,1343,experiment,71,↓,down,↓,0.5202974998392165,True,28,1
156K28S4,1344,experiment,58,←,left,←,0.432010100223124,True,28,1
156K28S4,1345,experiment,63,↑,up,↑,0.4653965998440981,True,28,1
156K28S4,1346,experiment,66,↑,up,↑,0.42471579974517226,True,28,1
156K28S4,1347,experiment,97,→,right,→,0.46302130026742816,True,28,1
156K28S4,1348,experiment,68,↑,up,↑,0.7976493001915514,True,28,1
156K28S4,1349,experiment,74,←,left,←,0.5325974998995662,True,28,1
156K28S4,1350,experiment,72,↑,down,↓,0.806837999727577,False,28,1
156K28S4,1351,experiment,56,←,left,←,0.5874685999006033,True,28,1
156K28S4,1352,experiment,85,↑,up,↑,0.43924419954419136,True,28,1
156K28S4,1353,experiment,81,→,left,←,0.49031159980222583,False,28,1
156K28S4,1354,experiment,87,→,right,→,0.37566230027005076,True,28,1
156K28S4,1355,experiment,57,↑,up,↑,0.5348837003111839,True,28,0
156K28S4,1356,experiment,92,↓,up,↑,0.49054279970005155,False,28,1
156K28S4,1357,experiment,79,→,left,←,0.6042886995710433,False,28,1
156K28S4,1358,experiment,89,↓,down,↓,0.6702517997473478,True,28,1
156K28S4,1359,experiment,73,↑,up,↑,0.4113115002401173,True,28,1
156K28S4,1360,experiment,70,→,right,→,0.5384470000863075,True,28,1
156K28S4,1361,experiment,78,←,left,←,0.4190195999108255,True,28,1
156K28S4,1362,experiment,102,→,right,→,0.5912464000284672,True,28,1
156K28S4,1363,experiment,93,→,right,→,0.5762662999331951,True,28,1
156K28S4,1364,training,62,→,right,→,0.5842763003893197,True,28,0
156K28S4,1365,training,69,↑,up,↑,0.7375280996784568,True,28,1
156K28S4,1366,experiment,84,←,left,←,0.5276264999993145,True,28,1
156K28S4,1367,experiment,83,↑,up,↑,0.47859610011801124,True,28,1
156K28S4,1368,experiment,70,↑,up,↑,0.9959793998859823,True,28,1
156K28S4,1369,experiment,91,↑,up,↑,0.453706500120461,True,28,1
156K28S4,1370,experiment,57,→,right,→,0.48068170016631484,True,28,1
156K28S4,1371,experiment,67,↑,up,↑,0.407092799898237,True,28,1
156K28S4,1372,experiment,56,↑,up,↑,0.8353423001244664,True,28,0
156K28S4,1373,experiment,87,←,left,←,0.46890039974823594,True,28,1
156K28S4,1374,experiment,96,↑,up,↑,0.4737796001136303,True,28,1
156K28S4,1375,experiment,97,←,left,←,0.446133800316602,True,28,1
156K28S4,1376,experiment,53,←,left,←,0.5785520002245903,True,28,1
156K28S4,1377,experiment,50,↓,up,↑,0.4265942997299135,False,28,1
156K28S4,1378,experiment,52,↑,up,↑,0.47210410004481673,True,28,1
156K28S4,1379,experiment,95,→,right,→,0.5092229000292718,True,28,1
156K28S4,1380,experiment,100,→,right,→,0.831165499985218,True,28,1
156K28S4,1381,experiment,72,→,right,→,0.5735971997492015,True,28,1
156K28S4,1382,experiment,90,↓,down,↓,0.5443704002536833,True,28,1
156K28S4,1383,experiment,106,↓,down,↓,0.5430784001946449,True,28,1
156K28S4,1384,experiment,61,↑,up,↑,0.436712599825114,True,28,1
156K28S4,1385,experiment,101,→,right,→,0.4335245001129806,True,28,1
156K28S4,1386,experiment,81,↓,down,↓,0.7409481001086533,True,28,1
156K28S4,1387,experiment,102,↓,down,↓,0.740939799696207,True,28,1
156K28S4,1388,experiment,59,→,right,→,0.41952979983761907,True,28,1
156K28S4,1389,experiment,58,↓,down,↓,0.5508661000058055,True,28,1
156K28S4,1390,experiment,94,←,left,←,0.5771625000052154,True,28,1
156K28S4,1391,experiment,107,↓,down,↓,0.6782761998474598,True,28,1
156K28S4,1392,experiment,75,→,right,→,0.48994210036471486,True,28,1
156K28S4,1393,experiment,88,→,right,→,0.4326856997795403,True,28,1
156K28S4,1394,experiment,51,←,left,←,0.59809589991346,True,28,1
156K28S4,1395,experiment,63,↓,down,↓,0.5527841998264194,True,28,1
156K28S4,1396,experiment,93,←,right,→,0.5714847999624908,False,28,1
156K28S4,1397,experiment,82,←,left,←,0.41009079990908504,True,28,1
156K28S4,1398,experiment,80,↑,up,↑,0.4616582999005914,True,28,1
156K28S4,1399,experiment,74,→,right,→,0.42646409990265965,True,28,1
156K28S4,1400,experiment,89,←,left,←,0.44346420001238585,True,28,1
156K28S4,1401,experiment,71,↓,down,↓,0.4499662001617253,True,28,1
156K28S4,1402,experiment,99,←,left,←,0.375872700009495,True,28,1
156K28S4,1403,experiment,86,←,left,←,0.546329100150615,True,28,0
156K28S4,1404,experiment,79,↑,up,↑,0.46607140032574534,True,28,1
156K28S4,1405,experiment,48,←,left,←,0.46288289967924356,True,28,1
156K28S4,1406,experiment,108,←,left,←,0.38409450044855475,True,28,1
156K28S4,1407,experiment,62,↓,down,↓,0.651640800293535,True,28,0
156K28S4,1408,experiment,64,→,right,→,0.42818979965522885,True,28,1
156K28S4,1409,experiment,92,←,left,←,0.5237984000705183,True,28,1
156K28S4,1410,experiment,73,→,right,→,0.44617600040510297,True,28,1
156K28S4,1411,experiment,77,→,right,→,0.434697899967432,True,28,1
156K28S4,1412,experiment,76,↑,up,↑,0.4477447997778654,True,28,1
156K28S4,1413,experiment,85,↓,down,↓,0.37568040005862713,True,28,1
156K28S4,1414,experiment,105,←,left,←,0.5425995998084545,True,28,0
156K28S4,1415,experiment,55,←,left,←,0.4463136000558734,True,28,1
156K28S4,1416,experiment,104,→,right,→,0.5293554998934269,True,28,1
156K28S4,1417,experiment,49,↓,down,↓,0.6594620998948812,True,28,1
156K28S4,1418,experiment,98,→,right,→,0.5201898999512196,True,28,1
156K28S4,1419,experiment,60,↑,up,↑,0.43925270019099116,True,28,1
156K28S4,1420,experiment,54,↓,down,↓,0.6594336000271142,True,28,1
156K28S4,1421,experiment,68,↓,down,↓,0.45814740005880594,True,28,1
156K28S4,1422,experiment,69,↓,down,↓,0.4245053003542125,True,28,1
156K28S4,1423,experiment,103,↓,down,↓,0.47693820018321276,True,28,1
156K28S4,1424,experiment,78,↓,down,↓,0.3674519998021424,True,28,1
156K28S4,1425,experiment,66,←,left,←,0.44267090037465096,True,28,0
156K28S4,1426,experiment,65,→,right,→,0.5068210000172257,True,28,1
156K28S4,1427,training,80,←,left,←,0.6446393998339772,True,28,0
156K28S4,1428,training,76,→,left,←,0.42540539987385273,False,28,1
156K28S4,1429,experiment,54,↑,right,→,0.6941168997436762,False,28,1
156K28S4,1430,experiment,67,←,left,←,0.5317840003408492,True,28,1
156K28S4,1431,experiment,92,↑,up,↑,0.47947749961167574,True,28,1
156K28S4,1432,experiment,82,↑,up,↑,0.4729860997758806,True,28,1
156K28S4,1433,experiment,98,↓,down,↓,0.5490563004277647,True,28,1
156K28S4,1434,experiment,65,←,left,←,0.37570679979398847,True,28,1
156K28S4,1435,experiment,59,→,right,→,0.49388600001111627,True,28,0
156K28S4,1436,experiment,70,↑,up,↑,0.4110218998976052,True,28,1
156K28S4,1437,experiment,85,→,right,→,0.5654163002036512,True,28,1
156K28S4,1438,experiment,68,←,left,←,0.4161052000708878,True,28,1
156K28S4,1439,experiment,97,↑,up,↑,0.6705503999255598,True,28,1
156K28S4,1440,experiment,79,↑,up,↑,0.5291380998678505,True,28,1
156K28S4,1441,experiment,73,←,left,←,0.5632914998568594,True,28,1
156K28S4,1442,experiment,99,↓,down,↓,0.5632364000193775,True,28,1
156K28S4,1443,experiment,48,→,right,→,0.42843420011922717,True,28,1
156K28S4,1444,experiment,76,↑,up,↑,0.8974120002239943,True,28,1
156K28S4,1445,experiment,89,→,right,→,0.5754786999896169,True,28,1
156K28S4,1446,experiment,91,↓,down,↓,0.4499731999821961,True,28,1
156K28S4,1447,experiment,77,←,left,←,0.38383240019902587,True,28,1
156K28S4,1448,experiment,94,↑,up,↑,0.3838042002171278,True,28,0
156K28S4,1449,experiment,103,→,right,→,0.44441769970580935,True,28,0
156K28S4,1450,experiment,100,↑,up,↑,0.5451115998439491,True,28,1
156K28S4,1451,experiment,52,←,left,←,0.6498397998511791,True,28,1
156K28S4,1452,experiment,63,←,left,←,0.4267017999663949,True,28,1
156K28S4,1453,experiment,95,↓,down,↓,0.5936548998579383,True,28,1
156K28S4,1454,experiment,66,←,left,←,0.404415600001812,True,28,1
156K28S4,1455,experiment,50,←,left,←,0.5945272999815643,True,28,0
156K28S4,1456,experiment,60,↑,up,↑,0.5506281000562012,True,28,1
156K28S4,1457,experiment,87,→,right,→,0.6114321001805365,True,28,1
156K28S4,1458,experiment,57,→,left,←,0.44771880004554987,False,28,1
156K28S4,1459,experiment,86,↑,up,↑,0.4087494998238981,True,28,1
156K28S4,1460,experiment,88,↓,down,↓,0.5870376997627318,True,28,1
156K28S4,1461,experiment,96,←,left,←,0.6753805996850133,True,28,1
156K28S4,1462,experiment,71,↑,up,↑,0.4166199001483619,True,28,1
156K28S4,1463,experiment,53,←,left,←,0.4299257001839578,True,28,1
156K28S4,1464,experiment,69,↑,up,↑,0.4372215000912547,True,28,1
156K28S4,1465,experiment,62,↓,up,↑,0.4708871003240347,False,28,1
156K28S4,1466,experiment,72,←,left,←,0.41219700034707785,True,28,1
156K28S4,1467,experiment,81,→,right,→,0.5995594998821616,True,28,1
156K28S4,1468,experiment,64,←,right,→,0.5143650001846254,False,28,1
156K28S4,1469,experiment,56,↓,down,↓,0.5703758001327515,True,28,1
156K28S4,1470,experiment,106,←,left,←,0.4242807999253273,True,28,1
156K28S4,1471,experiment,83,↓,down,↓,0.4751901002600789,True,28,1
156K28S4,1472,experiment,108,←,left,←,1.028415400069207,True,28,1
156K28S4,1473,experiment,80,→,right,→,0.4720792998559773,True,28,1
156K28S4,1474,experiment,75,↑,up,↑,0.6435464997775853,True,28,1
156K28S4,1475,experiment,105,↑,up,↑,0.6305935001000762,True,28,1
156K28S4,1476,experiment,55,←,left,←,0.5627470999024808,True,28,1
156K28S4,1477,experiment,101,↓,down,↓,0.4181475997902453,True,28,1
156K28S4,1478,experiment,51,→,right,→,0.408681099768728,True,28,1
156K28S4,1479,experiment,74,←,left,←,0.534963599871844,True,28,1
156K28S4,1480,experiment,78,↑,up,↑,0.5912941000424325,True,28,1
156K28S4,1481,experiment,61,↑,up,↑,0.44319389993324876,True,28,1
156K28S4,1482,experiment,49,↓,down,↓,0.552844200283289,True,28,1
156K28S4,1483,experiment,84,→,right,→,0.3256966997869313,True,28,1
156K28S4,1484,experiment,102,↓,down,↓,0.5911566996946931,True,28,0
156K28S4,1485,experiment,90,→,right,→,0.3340866998769343,True,28,1
156K28S4,1486,experiment,107,→,right,→,0.350687799975276,True,28,0
