PART_ID,Trial_no,Trial_type,CSI,Stim_letter,Key_pressed,letter_choose,Rt,Corr,Stimulus Time,nDropped
156K28S3,1,training,120,↑,up,↑,0.7395846000872552,True,60,2
156K28S3,2,training,120,→,right,→,0.46018930012360215,True,60,0
156K28S3,3,training,120,↓,down,↓,0.6256868001073599,True,60,0
156K28S3,4,training,120,↑,up,↑,0.45183219993487,True,60,0
156K28S3,5,training,120,→,right,→,0.609256399795413,True,60,0
156K28S3,6,training,120,↓,down,↓,0.5510909003205597,True,60,0
156K28S3,7,training,120,→,right,→,0.6091386997140944,True,60,0
156K28S3,8,training,120,↑,up,↑,0.6341428998857737,True,60,0
156K28S3,9,training,120,↓,down,↓,0.6258817999623716,True,60,0
156K28S3,10,training,120,←,left,←,0.6167613002471626,True,60,0
156K28S3,11,training,120,←,left,←,0.5999813000671566,True,60,0
156K28S3,12,training,120,→,right,→,0.6011000000871718,True,60,0
156K28S3,13,training,120,→,right,→,0.6421117000281811,True,60,0
156K28S3,14,training,120,↓,down,↓,0.5090622999705374,True,60,0
156K28S3,15,training,120,↑,up,↑,0.6255108001641929,True,60,0
156K28S3,16,training,120,←,left,←,0.5584947997704148,True,60,0
156K28S3,17,training,120,←,left,←,0.5173813002184033,True,60,0
156K28S3,18,training,120,←,left,←,0.5250110998749733,True,60,0
156K28S3,19,training,120,↓,down,↓,0.5176679999567568,True,60,0
156K28S3,20,training,120,↑,up,↑,0.4601914999075234,True,60,0
156K28S3,21,no_adaptation,120,↓,down,↓,0.854451599996537,True,36,0
156K28S3,22,no_adaptation,120,→,right,→,0.5231603998690844,True,36,0
156K28S3,23,no_adaptation,120,←,left,←,0.5331401000730693,True,36,0
156K28S3,24,no_adaptation,120,→,right,→,0.6391087998636067,True,36,0
156K28S3,25,no_adaptation,120,→,right,→,0.4848637003451586,True,36,0
156K28S3,26,no_adaptation,120,↓,down,↓,0.5120749999769032,True,36,0
156K28S3,27,no_adaptation,120,↓,down,↓,0.5705610997974873,True,36,0
156K28S3,28,no_adaptation,120,↑,up,↑,0.5792457000352442,True,36,0
156K28S3,29,no_adaptation,120,←,left,←,0.7226416999474168,True,36,0
156K28S3,30,no_adaptation,120,↓,down,↓,0.7408084999769926,True,36,0
156K28S3,31,no_adaptation,120,←,left,←,0.5822809999808669,True,36,0
156K28S3,32,no_adaptation,120,↑,up,↑,0.5181788001209497,True,36,0
156K28S3,33,no_adaptation,120,↑,up,↑,0.45046549988910556,True,36,0
156K28S3,34,no_adaptation,120,↑,up,↑,0.4084518998861313,True,36,0
156K28S3,35,no_adaptation,120,↑,up,↑,0.6115019000135362,True,36,0
156K28S3,36,no_adaptation,120,↓,down,↓,0.9141505998559296,True,36,0
156K28S3,37,no_adaptation,120,←,left,←,0.6925046001560986,True,36,0
156K28S3,38,no_adaptation,120,↑,up,↑,0.4005531002767384,True,36,0
156K28S3,39,no_adaptation,120,↑,up,↑,0.9029031000100076,True,36,0
156K28S3,40,no_adaptation,120,→,right,→,0.6894200001843274,True,36,0
156K28S3,41,training,84,↑,up,↑,0.5781054999679327,True,36,0
156K28S3,42,training,50,↓,down,↓,0.6986298998817801,True,36,1
156K28S3,43,experiment,78,→,right,→,0.500088700093329,True,36,1
156K28S3,44,experiment,55,←,left,←,0.6057207998819649,True,36,1
156K28S3,45,experiment,48,←,left,←,0.4851253000088036,True,36,1
156K28S3,46,experiment,104,↑,up,↑,0.40894499979913235,True,36,1
156K28S3,47,experiment,88,←,left,←,0.5198826999403536,True,36,0
156K28S3,48,experiment,82,←,left,←,0.6396714998409152,True,36,1
156K28S3,49,experiment,76,↑,up,↑,0.6527350996620953,True,36,1
156K28S3,50,experiment,67,→,right,→,0.6121121998876333,True,36,1
156K28S3,51,experiment,98,↓,down,↓,0.562561800237745,True,36,1
156K28S3,52,experiment,66,→,right,→,0.6537676998414099,True,36,1
156K28S3,53,experiment,61,↓,down,↓,0.6785837998613715,True,36,1
156K28S3,54,experiment,54,←,left,←,0.5689801997505128,True,36,1
156K28S3,55,experiment,90,←,left,←,0.4920206000097096,True,36,1
156K28S3,56,experiment,81,←,left,←,0.4934195000678301,True,36,1
156K28S3,57,experiment,63,↓,down,↓,0.5321081001311541,True,36,1
156K28S3,58,experiment,53,↑,up,↑,0.5893054003827274,True,36,1
156K28S3,59,experiment,102,←,left,←,0.5310178003273904,True,36,1
156K28S3,60,experiment,91,→,right,→,0.5190077000297606,True,36,1
156K28S3,61,experiment,87,↓,down,↓,0.5811442001722753,True,36,1
156K28S3,62,experiment,97,→,right,→,0.5651721996255219,True,36,1
156K28S3,63,experiment,62,↓,down,↓,0.5460270000621676,True,36,1
156K28S3,64,experiment,83,↓,down,↓,0.5199812999926507,True,36,1
156K28S3,65,experiment,52,↓,down,↓,0.6019770000129938,True,36,1
156K28S3,66,experiment,75,↓,down,↓,0.5689745000563562,True,36,1
156K28S3,67,experiment,93,→,right,→,0.866885400377214,True,36,1
156K28S3,68,experiment,50,↓,down,↓,1.3109178002923727,True,36,1
156K28S3,69,experiment,96,→,right,→,1.1541200000792742,True,36,1
156K28S3,70,experiment,84,←,left,←,0.43400759994983673,True,36,1
156K28S3,71,experiment,107,→,right,→,0.41734359972178936,True,36,0
156K28S3,72,experiment,105,↑,up,↑,0.5418105004355311,True,36,0
156K28S3,73,experiment,79,↓,down,↓,0.5813870998099446,True,36,1
156K28S3,74,experiment,92,←,right,→,0.8870795001275837,False,36,1
156K28S3,75,experiment,106,→,right,→,0.6236129999160767,True,36,1
156K28S3,76,experiment,94,↓,down,↓,0.542992000002414,True,36,1
156K28S3,77,experiment,56,↑,up,↑,0.694509600289166,True,36,1
156K28S3,78,experiment,71,↓,down,↓,0.5148067995905876,True,36,1
156K28S3,79,experiment,51,→,right,→,0.5250073000788689,True,36,1
156K28S3,80,experiment,108,↑,up,↑,0.6436414998024702,True,36,1
156K28S3,81,experiment,103,↑,up,↑,0.6074253995902836,True,36,1
156K28S3,82,experiment,65,↓,down,↓,0.5613148999400437,True,36,1
156K28S3,83,experiment,85,←,left,←,0.5661903000436723,True,36,1
156K28S3,84,experiment,70,→,right,→,0.5041728001087904,True,36,1
156K28S3,85,experiment,68,↓,down,↓,0.4174008001573384,True,36,1
156K28S3,86,experiment,89,→,right,→,0.41740879975259304,True,36,1
156K28S3,87,experiment,77,→,right,→,0.5151027999818325,True,36,0
156K28S3,88,experiment,73,↓,down,↓,0.5977261997759342,True,36,1
156K28S3,89,experiment,99,→,right,→,0.6282264003530145,True,36,1
156K28S3,90,experiment,72,→,right,→,0.6509734997525811,True,36,1
156K28S3,91,experiment,80,←,left,←,0.6540172998793423,True,36,1
156K28S3,92,experiment,74,↓,down,↓,0.5947022000327706,True,36,1
156K28S3,93,experiment,100,↑,up,↑,0.9934003003872931,True,36,1
156K28S3,94,experiment,64,←,left,←,0.5324398996308446,True,36,1
156K28S3,95,experiment,95,↑,up,↑,0.5428419001400471,True,36,1
156K28S3,96,experiment,86,↓,down,↓,0.5881829001009464,True,36,1
156K28S3,97,experiment,49,↑,up,↑,0.5959687000140548,True,36,1
156K28S3,98,experiment,69,↓,down,↓,0.604782700072974,True,36,1
156K28S3,99,experiment,58,→,right,→,0.6088273995555937,True,36,1
156K28S3,100,experiment,57,↑,up,↑,0.6055797999724746,True,36,1
156K28S3,101,experiment,101,↑,up,↑,0.5552437002770603,True,36,1
156K28S3,102,experiment,59,→,right,→,0.5293686999939382,True,36,1
156K28S3,103,experiment,60,←,left,←,0.5276042995974422,True,36,1
156K28S3,104,training,57,→,right,→,0.9669109997339547,True,35,0
156K28S3,105,training,105,↑,up,↑,0.39272990031167865,True,35,1
156K28S3,106,experiment,59,←,left,←,0.4016684000380337,True,35,0
156K28S3,107,experiment,87,→,left,←,0.674868700094521,False,35,0
156K28S3,108,experiment,63,↓,down,↓,0.6745191998779774,True,35,1
156K28S3,109,experiment,82,↓,down,↓,0.5960153001360595,True,35,1
156K28S3,110,experiment,53,←,left,←,0.6660309000872076,True,35,1
156K28S3,111,experiment,66,→,right,→,0.6730351997539401,True,35,1
156K28S3,112,experiment,92,→,right,→,0.6391087998636067,True,35,1
156K28S3,113,experiment,57,↓,down,↓,0.5064357998780906,True,35,1
156K28S3,114,experiment,74,←,left,←,0.42504459992051125,True,35,1
156K28S3,115,experiment,90,↑,up,↑,0.6692750998772681,True,35,0
156K28S3,116,experiment,60,↓,down,↓,0.6786160999909043,True,35,1
156K28S3,117,experiment,71,↑,up,↑,0.4090933003462851,True,35,1
156K28S3,118,experiment,101,→,right,→,0.6092242002487183,True,35,0
156K28S3,119,experiment,67,→,right,→,0.6260109003633261,True,35,1
156K28S3,120,experiment,55,↑,up,↑,0.5986484000459313,True,35,1
156K28S3,121,experiment,80,↓,down,↓,0.4598755999468267,True,35,1
156K28S3,122,experiment,89,←,left,←,0.434086199849844,True,35,1
156K28S3,123,experiment,61,←,left,←,0.7408444001339376,True,35,0
156K28S3,124,experiment,106,↑,up,↑,1.1473209001123905,True,35,1
156K28S3,125,experiment,103,↑,up,↑,0.6824951004236937,True,35,1
156K28S3,126,experiment,81,↓,down,↓,0.6922619002871215,True,35,1
156K28S3,127,experiment,72,↓,down,↓,0.5041164001449943,True,35,1
156K28S3,128,experiment,98,→,right,→,0.44242919981479645,True,35,1
156K28S3,129,experiment,107,→,right,→,1.0128999999724329,True,35,0
156K28S3,130,experiment,86,↑,up,↑,0.687091900035739,True,35,1
156K28S3,131,experiment,65,←,left,←,0.9013708001002669,True,35,1
156K28S3,132,experiment,49,↑,up,↑,0.44173850025981665,True,35,1
156K28S3,133,experiment,51,→,right,→,0.9895576001144946,True,35,0
156K28S3,134,experiment,52,→,right,→,0.7482902002520859,True,35,1
156K28S3,135,experiment,83,←,left,←,0.4903225000016391,True,35,1
156K28S3,136,experiment,70,←,left,←,0.6714535998180509,True,35,1
156K28S3,137,experiment,91,↓,down,↓,0.5177907003089786,True,35,1
156K28S3,138,experiment,104,→,right,→,0.517759199719876,True,35,1
156K28S3,139,experiment,85,↑,up,↑,0.41686580004170537,True,35,1
156K28S3,140,experiment,105,↓,down,↓,0.7043270003050566,True,35,0
156K28S3,141,experiment,99,→,right,→,0.602619499899447,True,35,1
156K28S3,142,experiment,77,←,left,←,0.43330160016193986,True,35,1
156K28S3,143,experiment,62,↓,down,↓,1.0021601999178529,True,35,0
156K28S3,144,experiment,69,↓,down,↓,0.5308087999001145,True,35,1
156K28S3,145,experiment,78,↓,down,↓,0.7072283001616597,True,35,1
156K28S3,146,experiment,84,↓,down,↓,0.5705085000954568,True,35,1
156K28S3,147,experiment,48,←,left,←,0.6433176998980343,True,35,1
156K28S3,148,experiment,96,↑,up,↑,0.4417137000709772,True,35,1
156K28S3,149,experiment,97,↑,up,↑,0.6867424002848566,True,35,0
156K28S3,150,experiment,64,←,left,←,0.4941297001205385,True,35,1
156K28S3,151,experiment,100,←,left,←,0.6565183997154236,True,35,1
156K28S3,152,experiment,50,←,left,←,0.43457099981606007,True,35,1
156K28S3,153,experiment,94,↑,up,↑,0.44233400002121925,True,35,0
156K28S3,154,experiment,54,←,left,←,1.0239649000577629,True,35,0
156K28S3,155,experiment,102,↑,up,↑,0.6605520998127759,True,35,1
156K28S3,156,experiment,58,↓,down,↓,0.9984177998267114,True,35,1
156K28S3,157,experiment,73,→,right,→,0.9978729002177715,True,35,1
156K28S3,158,experiment,88,←,left,←,0.6241689999587834,True,35,1
156K28S3,159,experiment,95,→,right,→,0.6793321999721229,True,35,1
156K28S3,160,experiment,68,↑,up,↑,0.5488486997783184,True,35,1
156K28S3,161,experiment,108,←,left,←,0.6345553998835385,True,35,1
156K28S3,162,experiment,76,↓,down,↓,0.5358788999728858,True,35,1
156K28S3,163,experiment,79,↓,down,↓,0.48788890009745955,True,35,1
156K28S3,164,experiment,56,←,left,←,0.5933431000448763,True,35,1
156K28S3,165,experiment,93,→,right,→,0.6905680000782013,True,35,1
156K28S3,166,experiment,75,↑,up,↑,0.6852909000590444,True,35,1
156K28S3,167,training,105,↓,down,↓,0.6648454000242054,True,34,0
156K28S3,168,training,89,↑,up,↑,0.6085586999543011,True,34,1
156K28S3,169,experiment,75,↑,up,↑,0.4633986996486783,True,34,1
156K28S3,170,experiment,86,↑,up,↑,0.5670443000271916,True,34,1
156K28S3,171,experiment,106,→,right,→,0.4926762003451586,True,34,1
156K28S3,172,experiment,78,←,left,←,0.5267083998769522,True,34,1
156K28S3,173,experiment,102,↑,up,↑,0.5837071998976171,True,34,1
156K28S3,174,experiment,92,←,right,→,0.6572258998639882,False,34,1
156K28S3,175,experiment,88,→,right,→,0.6572381001897156,True,34,1
156K28S3,176,experiment,93,←,left,←,0.4717267001979053,True,34,1
156K28S3,177,experiment,79,←,left,←,0.674324999563396,True,34,1
156K28S3,178,experiment,107,→,right,→,0.5153222000226378,True,34,1
156K28S3,179,experiment,49,↓,down,↓,0.6857956000603735,True,34,1
156K28S3,180,experiment,54,↑,up,↑,0.5922308000735939,True,34,1
156K28S3,181,experiment,52,←,left,←,0.583103199955076,True,34,1
156K28S3,182,experiment,56,→,right,→,0.6687885001301765,True,34,1
156K28S3,183,experiment,85,↓,up,↑,0.6457620998844504,False,34,1
156K28S3,184,experiment,55,↑,up,↑,0.5128178996965289,True,34,1
156K28S3,185,experiment,96,→,right,→,0.6599265998229384,True,34,1
156K28S3,186,experiment,94,←,left,←,0.6178902997635305,True,34,1
156K28S3,187,experiment,95,↓,down,↓,0.5856766998767853,True,34,1
156K28S3,188,experiment,71,→,right,→,0.5303964000195265,True,34,1
156K28S3,189,experiment,80,↑,up,↑,0.6259665000252426,True,34,1
156K28S3,190,experiment,72,↑,up,↑,0.464529599994421,True,34,1
156K28S3,191,experiment,73,↓,down,↓,0.6375126000493765,True,34,1
156K28S3,192,experiment,51,↑,up,↑,0.5943328002467752,True,34,1
156K28S3,193,experiment,104,↑,up,↑,0.5116869998164475,True,34,1
156K28S3,194,experiment,101,↑,up,↑,0.4815218998119235,True,34,1
156K28S3,195,experiment,59,↑,up,↑,0.4664682000875473,True,34,1
156K28S3,196,experiment,65,↑,up,↑,0.5938644004054368,True,34,1
156K28S3,197,experiment,69,←,left,←,0.6587675996124744,True,34,1
156K28S3,198,experiment,74,↓,down,↓,0.6233390998095274,True,34,1
156K28S3,199,experiment,98,←,left,←,0.5175719000399113,True,34,1
156K28S3,200,experiment,81,↓,down,↓,0.6215417999774218,True,34,1
156K28S3,201,experiment,76,→,right,→,0.6669560000300407,True,34,1
156K28S3,202,experiment,62,←,left,←,0.5793250999413431,True,34,1
156K28S3,203,experiment,67,↑,up,↑,0.4538512001745403,True,34,1
156K28S3,204,experiment,53,↑,up,↑,0.9690890000201762,True,34,0
156K28S3,205,experiment,97,↑,up,↑,0.4738915003836155,True,34,1
156K28S3,206,experiment,103,↑,up,↑,0.42589360009878874,True,34,1
156K28S3,207,experiment,87,↑,up,↑,0.6214978997595608,True,34,0
156K28S3,208,experiment,57,←,left,←,0.5372967999428511,True,34,1
156K28S3,209,experiment,100,↓,down,↓,0.49800819996744394,True,34,1
156K28S3,210,experiment,50,↑,up,↑,0.6130237998440862,True,34,1
156K28S3,211,experiment,82,↑,up,↑,0.41813879972323775,True,34,1
156K28S3,212,experiment,84,↓,down,↓,0.5237237997353077,True,34,0
156K28S3,213,experiment,60,↑,up,↑,0.6183621999807656,True,34,1
156K28S3,214,experiment,66,→,right,→,0.5797358001582325,True,34,1
156K28S3,215,experiment,64,↑,up,↑,0.4550087000243366,True,34,1
156K28S3,216,experiment,48,↓,down,↓,0.6355694001540542,True,34,1
156K28S3,217,experiment,108,←,left,←,0.7420395999215543,True,34,1
156K28S3,218,experiment,105,←,left,←,1.0050262999720871,True,34,1
156K28S3,219,experiment,91,→,right,→,0.6860075001604855,True,34,1
156K28S3,220,experiment,83,→,right,→,0.6948802000842988,True,34,1
156K28S3,221,experiment,90,←,left,←,0.5889944997616112,True,34,1
156K28S3,222,experiment,77,↓,down,↓,0.7150881001725793,True,34,1
156K28S3,223,experiment,99,↑,up,↑,0.6370365000329912,True,34,1
156K28S3,224,experiment,58,↑,up,↑,0.6803926001302898,True,34,1
156K28S3,225,experiment,68,→,right,→,0.7819639998488128,True,34,1
156K28S3,226,experiment,61,←,left,←,0.4819621001370251,True,34,1
156K28S3,227,experiment,89,↑,up,↑,0.6331580001860857,True,34,1
156K28S3,228,experiment,63,↓,down,↓,0.51469979993999,True,34,1
156K28S3,229,experiment,70,→,right,→,0.9417876997031271,True,34,1
156K28S3,230,training,77,→,right,→,0.5319318003021181,True,33,0
156K28S3,231,training,49,→,right,→,0.4465915998443961,True,33,1
156K28S3,232,experiment,96,↓,down,↓,0.5557908001355827,True,33,1
156K28S3,233,experiment,49,←,left,←,0.5409145001322031,True,33,1
156K28S3,234,experiment,56,↑,up,↑,0.6207508998923004,True,33,1
156K28S3,235,experiment,70,↑,up,↑,0.5641537997871637,True,33,1
156K28S3,236,experiment,102,→,right,→,0.5635171001777053,True,33,1
156K28S3,237,experiment,98,→,right,→,0.5557984998449683,True,33,1
156K28S3,238,experiment,107,↓,down,↓,0.48986929981037974,True,33,1
156K28S3,239,experiment,85,←,left,←,0.785290400031954,True,33,1
156K28S3,240,experiment,59,→,right,→,0.5979603002779186,True,33,1
156K28S3,241,experiment,76,↑,up,↑,0.46856960002332926,True,33,1
156K28S3,242,experiment,81,↑,up,↑,0.8066449998877943,True,33,1
156K28S3,243,experiment,93,↑,up,↑,0.4632188002578914,True,33,1
156K28S3,244,experiment,60,↑,up,↑,0.44876290019601583,True,33,1
156K28S3,245,experiment,82,←,left,←,0.6019715997390449,True,33,1
156K28S3,246,experiment,99,←,left,←,0.688820599578321,True,33,1
156K28S3,247,experiment,94,←,left,←,0.5733512998558581,True,33,1
156K28S3,248,experiment,92,←,left,←,0.49530250020325184,True,33,1
156K28S3,249,experiment,63,↓,down,↓,0.4862044998444617,True,33,1
156K28S3,250,experiment,55,↓,down,↓,0.6483836001716554,True,33,1
156K28S3,251,experiment,105,←,left,←,0.6671124002896249,True,33,1
156K28S3,252,experiment,66,↓,down,↓,0.5541769000701606,True,33,1
156K28S3,253,experiment,62,→,right,→,0.550739100202918,True,33,1
156K28S3,254,experiment,88,←,left,←,0.6113906996324658,True,33,1
156K28S3,255,experiment,50,←,left,←,0.9379017995670438,True,33,1
156K28S3,256,experiment,106,←,left,←,0.48094990011304617,True,33,1
156K28S3,257,experiment,57,→,right,→,0.6347457999363542,True,33,1
156K28S3,258,experiment,51,↓,down,↓,0.631772699765861,True,33,1
156K28S3,259,experiment,95,↓,down,↓,0.6624743998982012,True,33,1
156K28S3,260,experiment,84,↓,down,↓,0.4958353000693023,True,33,1
156K28S3,261,experiment,74,↓,down,↓,0.49184249993413687,True,33,1
156K28S3,262,experiment,68,←,left,←,0.6490179998800159,True,33,1
156K28S3,263,experiment,48,↓,down,↓,0.47864330001175404,True,33,1
156K28S3,264,experiment,75,↑,up,↑,0.6743066003546119,True,33,1
156K28S3,265,experiment,100,→,right,→,0.5811777003109455,True,33,1
156K28S3,266,experiment,58,↓,down,↓,0.7142883003689349,True,33,1
156K28S3,267,experiment,89,→,right,→,0.6075702998787165,True,33,1
156K28S3,268,experiment,71,→,right,→,0.5994275999255478,True,33,1
156K28S3,269,experiment,86,↓,down,↓,0.5623789001256227,True,33,1
156K28S3,270,experiment,79,→,right,→,0.7611819002777338,True,33,1
156K28S3,271,experiment,61,←,left,←,0.7102383999153972,True,33,1
156K28S3,272,experiment,69,←,left,←,0.6106159999035299,True,33,1
156K28S3,273,experiment,108,↑,up,↑,0.49392390018329024,True,33,1
156K28S3,274,experiment,90,→,right,→,0.5478978003375232,True,33,1
156K28S3,275,experiment,72,→,right,→,0.4856674000620842,True,33,1
156K28S3,276,experiment,97,→,right,→,0.5701748998835683,True,33,1
156K28S3,277,experiment,103,↓,down,↓,0.6166726001538336,True,33,1
156K28S3,278,experiment,83,→,right,→,0.6601561000570655,True,33,1
156K28S3,279,experiment,54,→,right,→,0.8319381000474095,True,33,1
156K28S3,280,experiment,64,↑,up,↑,0.5120373000390828,True,33,1
156K28S3,281,experiment,65,→,right,→,0.6219055000692606,True,33,1
156K28S3,282,experiment,91,↓,down,↓,0.5582079002633691,True,33,1
156K28S3,283,experiment,52,←,left,←,0.7423924999311566,True,33,1
156K28S3,284,experiment,101,←,left,←,0.6147805000655353,True,33,1
156K28S3,285,experiment,67,←,left,←,0.6952729998156428,True,33,1
156K28S3,286,experiment,104,←,left,←,0.4806709000840783,True,33,1
156K28S3,287,experiment,87,→,right,→,0.560489300172776,True,33,1
156K28S3,288,experiment,77,↓,down,↓,0.5759503003209829,True,33,1
156K28S3,289,experiment,80,↓,down,↓,0.5338240000419319,True,33,1
156K28S3,290,experiment,73,↑,up,↑,0.6158928000368178,True,33,1
156K28S3,291,experiment,78,↑,up,↑,0.8532436001114547,True,33,1
156K28S3,292,experiment,53,←,left,←,0.8969812002032995,True,33,1
156K28S3,293,training,57,↑,up,↑,0.6636305996216834,True,32,0
156K28S3,294,training,72,→,right,→,0.43759529991075397,True,32,1
156K28S3,295,experiment,55,↓,down,↓,0.7044820999726653,True,32,1
156K28S3,296,experiment,64,↑,up,↑,0.5023146998137236,True,32,1
156K28S3,297,experiment,89,↓,down,↓,0.5967033999040723,True,32,1
156K28S3,298,experiment,108,→,right,→,0.40909519977867603,True,32,1
156K28S3,299,experiment,59,↓,down,↓,0.5717273000627756,True,32,0
156K28S3,300,experiment,60,←,left,←,0.6403875001706183,True,32,1
156K28S3,301,experiment,69,→,right,→,0.4094412997364998,True,32,1
156K28S3,302,experiment,104,↓,down,↓,0.49978099996224046,True,32,0
156K28S3,303,experiment,100,↓,down,↓,0.48638470005244017,True,32,1
156K28S3,304,experiment,70,↑,up,↑,0.6353834001347423,True,32,1
156K28S3,305,experiment,68,→,right,→,0.45937819965183735,True,32,1
156K28S3,306,experiment,107,→,right,→,0.597057499922812,True,32,1
156K28S3,307,experiment,97,↓,down,↓,0.5001372001133859,True,32,1
156K28S3,308,experiment,50,↑,up,↑,0.543296099640429,True,32,1
156K28S3,309,experiment,72,↓,down,↓,0.5373166003264487,True,32,1
156K28S3,310,experiment,90,→,right,→,0.5737062999978662,True,32,1
156K28S3,311,experiment,53,←,left,←,0.7246592999435961,True,32,1
156K28S3,312,experiment,94,↓,left,←,0.9601107002235949,False,32,1
156K28S3,313,experiment,85,→,right,→,0.6368450997397304,True,32,1
156K28S3,314,experiment,96,↑,up,↑,0.5791985001415014,True,32,1
156K28S3,315,experiment,58,↑,up,↑,0.5844976999796927,True,32,1
156K28S3,316,experiment,81,←,left,←,0.67004289990291,True,32,1
156K28S3,317,experiment,75,→,right,→,0.498286500107497,True,32,1
156K28S3,318,experiment,88,←,left,←,0.5845184996724129,True,32,1
156K28S3,319,experiment,95,→,right,→,0.7531218002550304,True,32,1
156K28S3,320,experiment,56,←,left,←,0.6482414999045432,True,32,1
156K28S3,321,experiment,98,←,left,←,0.6052430998533964,True,32,1
156K28S3,322,experiment,77,→,right,→,0.6030178996734321,True,32,1
156K28S3,323,experiment,93,↓,down,↓,0.44393090019002557,True,32,1
156K28S3,324,experiment,106,→,right,→,0.7023151000030339,True,32,1
156K28S3,325,experiment,76,↓,down,↓,0.5527973999269307,True,32,1
156K28S3,326,experiment,65,→,right,→,0.46908550010994077,True,32,1
156K28S3,327,experiment,52,→,right,→,0.6009900998324156,True,32,1
156K28S3,328,experiment,101,↓,down,↓,0.5106071000918746,True,32,1
156K28S3,329,experiment,49,↓,down,↓,0.5698142000474036,True,32,1
156K28S3,330,experiment,74,←,left,←,0.5864315000362694,True,32,1
156K28S3,331,experiment,83,↓,down,↓,0.5510140997357666,True,32,1
156K28S3,332,experiment,48,←,left,←,0.6566078998148441,True,32,1
156K28S3,333,experiment,57,↓,down,↓,0.5473643001168966,True,32,1
156K28S3,334,experiment,99,↓,down,↓,0.5640046000480652,True,32,1
156K28S3,335,experiment,82,←,left,←,0.5057382001541555,True,32,1
156K28S3,336,experiment,63,→,right,→,0.6481121000833809,True,32,1
156K28S3,337,experiment,78,→,right,→,0.4838547999970615,True,32,1
156K28S3,338,experiment,84,→,right,→,0.9720756998285651,True,32,1
156K28S3,339,experiment,67,→,right,→,0.670429099816829,True,32,1
156K28S3,340,experiment,86,→,right,→,0.5426893997937441,True,32,1
156K28S3,341,experiment,62,→,right,→,0.6524793999269605,True,32,1
156K28S3,342,experiment,71,↑,up,↑,0.6982251000590622,True,32,1
156K28S3,343,experiment,91,←,left,←,0.6636450998485088,True,32,1
156K28S3,344,experiment,79,→,right,→,0.5622721998952329,True,32,1
156K28S3,345,experiment,51,↓,down,↓,0.5866924999281764,True,32,1
156K28S3,346,experiment,66,→,right,→,0.5251553002744913,True,32,1
156K28S3,347,experiment,80,↑,up,↑,0.5489157997071743,True,32,1
156K28S3,348,experiment,105,↑,up,↑,0.5558790001086891,True,32,1
156K28S3,349,experiment,103,↓,down,↓,0.6025847001001239,True,32,1
156K28S3,350,experiment,102,→,right,→,0.6484373998828232,True,32,1
156K28S3,351,experiment,73,→,right,→,0.5576781998388469,True,32,1
156K28S3,352,experiment,61,→,right,→,0.5389171997085214,True,32,1
156K28S3,353,experiment,92,→,right,→,0.6462360001169145,True,32,1
156K28S3,354,experiment,54,↑,up,↑,0.5778923002071679,True,32,1
156K28S3,355,experiment,87,←,left,←,0.7416260000318289,True,32,1
156K28S3,356,training,66,←,left,←,0.5669257999397814,True,31,0
156K28S3,357,training,86,↑,up,↑,0.9952815002761781,True,31,1
156K28S3,358,experiment,82,↑,up,↑,0.40107390005141497,True,31,1
156K28S3,359,experiment,77,→,right,→,0.45376829989254475,True,31,0
156K28S3,360,experiment,73,←,left,←,0.9469501003623009,True,31,1
156K28S3,361,experiment,90,←,left,←,0.6628370000980794,True,31,1
156K28S3,362,experiment,70,→,right,→,0.6845399998128414,True,31,1
156K28S3,363,experiment,91,←,left,←,0.6666497001424432,True,31,1
156K28S3,364,experiment,85,→,right,→,0.4913930003531277,True,31,1
156K28S3,365,experiment,103,←,left,←,0.7649115999229252,True,31,1
156K28S3,366,experiment,99,↓,down,↓,0.6450383998453617,True,31,1
156K28S3,367,experiment,102,→,right,→,0.5449862000532448,True,31,1
156K28S3,368,experiment,75,↓,down,↓,0.6980325002223253,True,31,1
156K28S3,369,experiment,54,→,right,→,0.42792259994894266,True,31,1
156K28S3,370,experiment,95,↓,down,↓,0.5065295998938382,True,31,0
156K28S3,371,experiment,61,↑,up,↑,0.5775994998402894,True,31,1
156K28S3,372,experiment,93,→,left,←,0.8834118996746838,False,31,1
156K28S3,373,experiment,80,←,left,←,0.5890886001288891,True,31,1
156K28S3,374,experiment,79,↓,down,↓,0.5307122999802232,True,31,1
156K28S3,375,experiment,52,↑,up,↑,0.460317499935627,True,31,1
156K28S3,376,experiment,51,↑,up,↑,0.45645339973270893,True,31,1
156K28S3,377,experiment,100,→,right,→,0.564338100142777,True,31,1
156K28S3,378,experiment,107,→,right,→,0.4658679002895951,True,31,1
156K28S3,379,experiment,72,←,left,←,0.6467601996846497,True,31,1
156K28S3,380,experiment,58,↑,up,↑,0.4415350998751819,True,31,1
156K28S3,381,experiment,76,↑,up,↑,0.43808289989829063,True,31,1
156K28S3,382,experiment,53,↓,down,↓,0.6104084998369217,True,31,1
156K28S3,383,experiment,64,↓,down,↓,0.7247162000276148,True,31,1
156K28S3,384,experiment,69,→,right,→,0.5122018000110984,True,31,1
156K28S3,385,experiment,92,↑,up,↑,0.6370208999142051,True,31,1
156K28S3,386,experiment,68,→,right,→,0.6123791001737118,True,31,1
156K28S3,387,experiment,50,→,right,→,0.45941959973424673,True,31,1
156K28S3,388,experiment,60,←,left,←,0.652513800188899,True,31,1
156K28S3,389,experiment,48,←,left,←,0.5942303999327123,True,31,1
156K28S3,390,experiment,96,←,left,←,0.5386648997664452,True,31,1
156K28S3,391,experiment,56,↓,down,↓,0.8097128998488188,True,31,1
156K28S3,392,experiment,98,↑,up,↑,0.6324807996861637,True,31,1
156K28S3,393,experiment,67,↑,up,↑,0.6326934001408517,True,31,1
156K28S3,394,experiment,63,→,right,→,0.6579966000281274,True,31,1
156K28S3,395,experiment,65,←,left,←,0.7536212997511029,True,31,1
156K28S3,396,experiment,83,←,left,←,0.5276864999905229,True,31,1
156K28S3,397,experiment,87,←,left,←,0.5653983000665903,True,31,1
156K28S3,398,experiment,88,←,left,←,0.6171316998079419,True,31,1
156K28S3,399,experiment,101,↓,down,↓,0.662476799916476,True,31,1
156K28S3,400,experiment,57,↑,up,↑,0.6409109001979232,True,31,1
156K28S3,401,experiment,84,↓,up,↑,0.7546182000078261,False,31,1
156K28S3,402,experiment,74,↓,down,↓,0.6356236999854445,True,31,1
156K28S3,403,experiment,108,↑,up,↑,0.629981099627912,True,31,1
156K28S3,404,experiment,94,←,left,←,0.4610327002592385,True,31,1
156K28S3,405,experiment,97,↑,up,↑,0.6177654000930488,True,31,1
156K28S3,406,experiment,86,↓,down,↓,0.612222199793905,True,31,1
156K28S3,407,experiment,55,→,right,→,0.48102800035849214,True,31,1
156K28S3,408,experiment,104,↑,up,↑,0.6105524003505707,True,31,1
156K28S3,409,experiment,71,←,left,←,0.4503488000482321,True,31,1
156K28S3,410,experiment,66,↑,up,↑,0.9302669996395707,True,31,1
156K28S3,411,experiment,49,←,left,←,0.8125748997554183,True,31,1
156K28S3,412,experiment,106,↓,down,↓,0.5998037001118064,True,31,1
156K28S3,413,experiment,89,→,right,→,0.6422120998613536,True,31,1
156K28S3,414,experiment,81,↓,down,↓,0.49292280012741685,True,31,1
156K28S3,415,experiment,105,↓,down,↓,0.5498571000061929,True,31,1
156K28S3,416,experiment,62,←,left,←,0.9633479998447001,True,31,1
156K28S3,417,experiment,78,↑,up,↑,0.4499742998741567,True,31,1
156K28S3,418,experiment,59,↓,down,↓,0.6600669003091753,True,31,1
156K28S3,419,training,52,←,left,←,0.5791842001490295,True,30,0
156K28S3,420,training,89,↓,down,↓,0.6216581999324262,True,30,1
156K28S3,421,experiment,95,↑,up,↑,0.6127418000251055,True,30,1
156K28S3,422,experiment,55,→,right,→,0.5375637002289295,True,30,1
156K28S3,423,experiment,75,↓,down,↓,0.4985630000010133,True,30,1
156K28S3,424,experiment,64,↑,up,↑,0.6329775000922382,True,30,1
156K28S3,425,experiment,65,→,right,→,0.6019982001744211,True,30,1
156K28S3,426,experiment,52,↑,up,↑,0.4885547999292612,True,30,1
156K28S3,427,experiment,105,→,right,→,0.5374394999817014,True,30,1
156K28S3,428,experiment,94,↓,up,↑,0.6519492999650538,False,30,1
156K28S3,429,experiment,101,↑,up,↑,0.5919368998147547,True,30,1
156K28S3,430,experiment,59,↓,down,↓,0.5885250000283122,True,30,1
156K28S3,431,experiment,91,←,left,←,0.7422650000080466,True,30,1
156K28S3,432,experiment,104,↓,down,↓,0.5336281997151673,True,30,1
156K28S3,433,experiment,103,→,left,←,0.6693907999433577,False,30,1
156K28S3,434,experiment,89,←,left,←,0.629248000215739,True,30,1
156K28S3,435,experiment,70,→,right,→,0.4917175001464784,True,30,1
156K28S3,436,experiment,61,↓,down,↓,0.5635903999209404,True,30,1
156K28S3,437,experiment,102,→,right,→,0.43531979992985725,True,30,1
156K28S3,438,experiment,58,→,right,→,0.5981914000585675,True,30,1
156K28S3,439,experiment,53,↑,up,↑,0.515875999815762,True,30,1
156K28S3,440,experiment,69,↓,down,↓,0.5920585999265313,True,30,1
156K28S3,441,experiment,92,←,left,←,0.5453023998998106,True,30,1
156K28S3,442,experiment,84,↓,down,↓,0.49520260002464056,True,30,1
156K28S3,443,experiment,50,←,left,←,0.49040709994733334,True,30,1
156K28S3,444,experiment,77,↓,down,↓,0.5090276999399066,True,30,1
156K28S3,445,experiment,107,↑,up,↑,0.6448170002549887,True,30,1
156K28S3,446,experiment,48,↓,down,↓,0.6347497999668121,True,30,1
156K28S3,447,experiment,57,↓,down,↓,0.638138999696821,True,30,1
156K28S3,448,experiment,100,←,up,↑,0.9068264998495579,False,30,1
156K28S3,449,experiment,99,↓,down,↓,0.5571078001521528,True,30,1
156K28S3,450,experiment,85,↓,down,↓,0.4901479003019631,True,30,1
156K28S3,451,experiment,79,↓,down,↓,0.9158585001714528,True,30,1
156K28S3,452,experiment,74,↑,up,↑,0.48621390014886856,True,30,1
156K28S3,453,experiment,108,↑,up,↑,0.6389648001641035,True,30,1
156K28S3,454,experiment,76,←,left,←,0.6274550002999604,True,30,1
156K28S3,455,experiment,63,↓,down,↓,0.5173271000385284,True,30,1
156K28S3,456,experiment,86,←,left,←,0.5635087001137435,True,30,1
156K28S3,457,experiment,51,↓,down,↓,0.7797501999884844,True,30,1
156K28S3,458,experiment,60,↓,down,↓,0.5527156996540725,True,30,1
156K28S3,459,experiment,98,↓,down,↓,0.5453618001192808,True,30,1
156K28S3,460,experiment,54,↑,up,↑,0.6413994999602437,True,30,1
156K28S3,461,experiment,93,↓,down,↓,0.6408891002647579,True,30,1
156K28S3,462,experiment,72,→,right,→,0.639076900202781,True,30,1
156K28S3,463,experiment,88,←,left,←,0.6233550002798438,True,30,1
156K28S3,464,experiment,68,→,right,→,0.5756040001288056,True,30,1
156K28S3,465,experiment,56,←,left,←,0.5974376001395285,True,30,1
156K28S3,466,experiment,66,↓,down,↓,0.5190775999799371,True,30,1
156K28S3,467,experiment,82,↑,up,↑,0.6068965001031756,True,30,1
156K28S3,468,experiment,90,←,left,←,0.5524715003557503,True,30,1
156K28S3,469,experiment,73,↓,down,↓,0.4817005000077188,True,30,1
156K28S3,470,experiment,78,↓,down,↓,0.5400797999463975,True,30,1
156K28S3,471,experiment,62,↓,down,↓,0.45745430001989007,True,30,1
156K28S3,472,experiment,87,→,right,→,0.4741515996865928,True,30,1
156K28S3,473,experiment,71,↑,up,↑,1.0630451003089547,True,30,1
156K28S3,474,experiment,83,→,right,→,0.7042656997218728,True,30,1
156K28S3,475,experiment,96,↑,up,↑,0.7400378999300301,True,30,1
156K28S3,476,experiment,81,↑,up,↑,0.8668771996162832,True,30,1
156K28S3,477,experiment,80,↓,down,↓,0.637097000144422,True,30,1
156K28S3,478,experiment,97,↑,up,↑,0.5547929997555912,True,30,1
156K28S3,479,experiment,106,↓,down,↓,0.5688619003631175,True,30,1
156K28S3,480,experiment,49,←,left,←,0.6095478995703161,True,30,1
156K28S3,481,experiment,67,↓,down,↓,0.5705113001167774,True,30,1
156K28S3,482,training,58,↑,up,↑,0.9837727998383343,True,29,0
156K28S3,483,training,86,→,right,→,0.7391284997574985,True,29,1
156K28S3,484,experiment,107,↓,down,↓,0.57757250033319,True,29,1
156K28S3,485,experiment,52,↓,down,↓,0.7052825000137091,True,29,1
156K28S3,486,experiment,53,↓,down,↓,0.5309537001885474,True,29,1
156K28S3,487,experiment,57,→,right,→,0.570392900146544,True,29,1
156K28S3,488,experiment,92,↑,up,↑,0.9008780000731349,True,29,1
156K28S3,489,experiment,98,↓,down,↓,0.5354547998867929,True,29,1
156K28S3,490,experiment,61,↓,down,↓,0.5896668001078069,True,29,1
156K28S3,491,experiment,60,→,right,→,0.689765399787575,True,29,1
156K28S3,492,experiment,55,↑,up,↑,0.6674322001636028,True,29,1
156K28S3,493,experiment,48,←,left,←,0.6645432002842426,True,29,1
156K28S3,494,experiment,102,↓,down,↓,0.6995473001152277,True,29,1
156K28S3,495,experiment,68,↓,down,↓,0.528833799995482,True,29,1
156K28S3,496,experiment,70,↑,up,↑,0.6123434999026358,True,29,1
156K28S3,497,experiment,94,↓,down,↓,0.6276929001323879,True,29,1
156K28S3,498,experiment,51,←,left,←,0.6814733003266156,True,29,1
156K28S3,499,experiment,56,←,left,←,0.7393450001254678,True,29,1
156K28S3,500,experiment,89,↓,down,↓,0.5274895001202822,True,29,1
156K28S3,501,experiment,83,↓,down,↓,0.5105488002300262,True,29,1
156K28S3,502,experiment,59,↓,down,↓,0.7025833996012807,True,29,1
156K28S3,503,experiment,66,↑,down,↓,0.6686112000606954,False,29,1
156K28S3,504,experiment,78,←,left,←,0.5914063001982868,True,29,1
156K28S3,505,experiment,64,↓,down,↓,0.546114300377667,True,29,1
156K28S3,506,experiment,62,→,right,→,0.5270866001956165,True,29,1
156K28S3,507,experiment,54,→,right,→,0.7281726999208331,True,29,1
156K28S3,508,experiment,85,←,left,←,0.6220836997963488,True,29,1
156K28S3,509,experiment,49,→,right,→,0.8208417999558151,True,29,1
156K28S3,510,experiment,63,→,right,→,0.8305270001292229,True,29,1
156K28S3,511,experiment,76,↑,up,↑,0.6518526002764702,True,29,1
156K28S3,512,experiment,86,↓,down,↓,0.5486682001501322,True,29,1
156K28S3,513,experiment,50,↑,up,↑,0.6457081995904446,True,29,1
156K28S3,514,experiment,96,↓,left,←,1.0917580998502672,False,29,1
156K28S3,515,experiment,104,↑,up,↑,0.43694299971684813,True,29,1
156K28S3,516,experiment,100,↓,down,↓,0.6096876999363303,True,29,1
156K28S3,517,experiment,67,→,right,→,0.5386045002378523,True,29,1
156K28S3,518,experiment,103,←,left,←,0.45841870037838817,True,29,1
156K28S3,519,experiment,74,↓,down,↓,0.5671294000931084,True,29,1
156K28S3,520,experiment,91,←,left,←,0.729747099801898,True,29,1
156K28S3,521,experiment,90,↓,down,↓,0.5020209001377225,True,29,1
156K28S3,522,experiment,71,↓,down,↓,0.47432880010455847,True,29,1
156K28S3,523,experiment,95,→,right,→,0.5113902003504336,True,29,1
156K28S3,524,experiment,88,→,right,→,0.9571609999984503,True,29,1
156K28S3,525,experiment,97,→,right,→,0.43013030011206865,True,29,1
156K28S3,526,experiment,99,→,right,→,0.41238659992814064,True,29,1
156K28S3,527,experiment,69,↓,down,↓,0.46806690003722906,True,29,1
156K28S3,528,experiment,58,↓,down,↓,0.5894952001981437,True,29,1
156K28S3,529,experiment,87,↓,down,↓,0.4808566002175212,True,29,1
156K28S3,530,experiment,106,←,left,←,0.5698359999805689,True,29,1
156K28S3,531,experiment,80,←,left,←,0.4639489999972284,True,29,1
156K28S3,532,experiment,93,↑,up,↑,0.43019980005919933,True,29,1
156K28S3,533,experiment,105,↑,up,↑,0.8413800001144409,True,29,1
156K28S3,534,experiment,108,↑,up,↑,0.731437100097537,True,29,1
156K28S3,535,experiment,77,↓,down,↓,0.5961433998309076,True,29,1
156K28S3,536,experiment,72,→,right,→,0.5158787001855671,True,29,1
156K28S3,537,experiment,79,↓,down,↓,0.5005322997458279,True,29,1
156K28S3,538,experiment,65,↓,down,↓,0.442635599989444,True,29,1
156K28S3,539,experiment,75,↑,down,↓,0.7039818000048399,False,29,1
156K28S3,540,experiment,81,↓,down,↓,0.5203996999189258,True,29,1
156K28S3,541,experiment,73,←,left,←,0.5948554999195039,True,29,1
156K28S3,542,experiment,84,→,left,←,1.4789001001045108,False,29,1
156K28S3,543,experiment,82,←,left,←,0.584094500169158,True,29,1
156K28S3,544,experiment,101,→,right,→,0.5906650996766984,True,29,1
156K28S3,545,training,70,↓,down,↓,0.7769880997948349,True,28,0
156K28S3,546,training,96,↓,down,↓,0.521813599858433,True,28,1
156K28S3,547,experiment,67,→,right,→,0.6623955997638404,True,28,1
156K28S3,548,experiment,101,←,left,←,0.6497929999604821,True,28,1
156K28S3,549,experiment,89,↓,down,↓,0.5061596999876201,True,28,1
156K28S3,550,experiment,91,↑,up,↑,0.6868998999707401,True,28,1
156K28S3,551,experiment,83,→,right,→,0.5111702000722289,True,28,1
156K28S3,552,experiment,66,→,right,→,0.676675499882549,True,28,1
156K28S3,553,experiment,68,↓,down,↓,0.59495780011639,True,28,1
156K28S3,554,experiment,102,←,left,←,0.624741300009191,True,28,1
156K28S3,555,experiment,64,→,right,→,0.6182780000381172,True,28,1
156K28S3,556,experiment,73,↑,up,↑,0.6813221997581422,True,28,1
156K28S3,557,experiment,108,↑,up,↑,1.0252133002504706,True,28,1
156K28S3,558,experiment,86,↑,up,↑,0.6435079998336732,True,28,1
156K28S3,559,experiment,87,→,right,→,0.6206767000257969,True,28,1
156K28S3,560,experiment,54,↑,up,↑,0.5289561999961734,True,28,1
156K28S3,561,experiment,77,←,left,←,0.7776672998443246,True,28,1
156K28S3,562,experiment,69,↓,down,↓,0.7634341004304588,True,28,1
156K28S3,563,experiment,50,↑,up,↑,0.5882359999231994,True,28,1
156K28S3,564,experiment,88,↓,down,↓,0.9105682000517845,True,28,1
156K28S3,565,experiment,107,↑,up,↑,0.4621904003433883,True,28,1
156K28S3,566,experiment,56,→,right,→,0.6489507998339832,True,28,1
156K28S3,567,experiment,98,→,right,→,0.573603100143373,True,28,1
156K28S3,568,experiment,71,←,left,←,0.6147991004399955,True,28,1
156K28S3,569,experiment,48,↑,up,↑,0.6618520999327302,True,28,1
156K28S3,570,experiment,95,→,right,→,0.4751407001167536,True,28,1
156K28S3,571,experiment,70,↓,down,↓,0.4018248999491334,True,28,1
156K28S3,572,experiment,104,←,down,↓,0.6692932997830212,False,28,1
156K28S3,573,experiment,60,←,left,←,0.6224225996993482,True,28,1
156K28S3,574,experiment,52,↓,down,↓,0.5403167000040412,True,28,1
156K28S3,575,experiment,93,←,left,←,0.558848399668932,True,28,1
156K28S3,576,experiment,61,←,left,←,0.9719194998033345,True,28,1
156K28S3,577,experiment,105,→,right,→,0.5375598999671638,True,28,1
156K28S3,578,experiment,97,→,right,→,0.6596854999661446,True,28,1
156K28S3,579,experiment,106,↓,down,↓,0.5735813998617232,True,28,1
156K28S3,580,experiment,100,→,right,→,0.6610197001136839,True,28,1
156K28S3,581,experiment,72,↓,down,↓,0.5864943000487983,True,28,1
156K28S3,582,experiment,59,↓,down,↓,0.5672367997467518,True,28,1
156K28S3,583,experiment,65,→,right,→,0.8506650999188423,True,28,1
156K28S3,584,experiment,90,→,right,→,0.554558000061661,True,28,1
156K28S3,585,experiment,57,→,right,→,0.6970218997448683,True,28,1
156K28S3,586,experiment,49,←,right,→,0.6206453000195324,False,28,1
156K28S3,587,experiment,99,←,left,←,0.706424199976027,True,28,1
156K28S3,588,experiment,78,←,left,←,0.7397950999438763,True,28,1
156K28S3,589,experiment,58,←,left,←,0.658561599906534,True,28,1
156K28S3,590,experiment,85,←,left,←,0.5478361998684704,True,28,1
156K28S3,591,experiment,81,→,left,←,0.7061902997083962,False,28,1
156K28S3,592,experiment,74,↑,up,↑,0.7174136997200549,True,28,1
156K28S3,593,experiment,84,→,left,←,0.5960335996933281,False,28,1
156K28S3,594,experiment,76,↓,down,↓,0.6984501001425087,True,28,1
156K28S3,595,experiment,75,↑,up,↑,0.6612672000192106,True,28,1
156K28S3,596,experiment,92,→,right,→,0.5162023999728262,True,28,1
156K28S3,597,experiment,53,↑,down,↓,0.7812803997658193,False,28,1
156K28S3,598,experiment,62,↑,up,↑,0.5532613000832498,True,28,1
156K28S3,599,experiment,82,↑,up,↑,0.6077904999256134,True,28,1
156K28S3,600,experiment,103,↓,down,↓,0.5883891000412405,True,28,1
156K28S3,601,experiment,96,↑,up,↑,0.444512200076133,True,28,1
156K28S3,602,experiment,63,←,left,←,0.6137843001633883,True,28,1
156K28S3,603,experiment,51,→,right,→,0.523637100122869,True,28,1
156K28S3,604,experiment,80,←,right,→,1.1717098001390696,False,28,1
156K28S3,605,experiment,94,↓,down,↓,0.6611256999894977,True,28,1
156K28S3,606,experiment,79,↓,down,↓,0.5681835999712348,True,28,1
156K28S3,607,experiment,55,↓,down,↓,0.8708622995764017,True,28,1
156K28S3,608,training,106,↑,up,↑,0.448435100261122,True,28,0
156K28S3,609,training,98,↓,up,↑,0.5976833002641797,False,28,1
156K28S3,610,experiment,48,→,left,←,0.6929687997326255,False,28,1
156K28S3,611,experiment,73,→,right,→,0.5290355999022722,True,28,1
156K28S3,612,experiment,75,↓,down,↓,0.690773299895227,True,28,1
156K28S3,613,experiment,49,↓,down,↓,0.6942644999362528,True,28,1
156K28S3,614,experiment,85,↓,down,↓,0.5100837000645697,True,28,1
156K28S3,615,experiment,74,←,left,←,0.5449047000147402,True,28,1
156K28S3,616,experiment,99,←,left,←,0.5138481999747455,True,28,1
156K28S3,617,experiment,82,←,right,→,0.8095009997487068,False,28,1
156K28S3,618,experiment,87,↓,down,↓,0.5400505000725389,True,28,1
156K28S3,619,experiment,92,←,left,←,0.5111243999563158,True,28,1
156K28S3,620,experiment,63,→,right,→,0.653575399890542,True,28,1
156K28S3,621,experiment,62,↓,down,↓,0.4543387000449002,True,28,1
156K28S3,622,experiment,67,→,right,→,0.6376670002937317,True,28,1
156K28S3,623,experiment,83,→,right,→,0.6001603999175131,True,28,1
156K28S3,624,experiment,69,→,right,→,0.7128914999775589,True,28,1
156K28S3,625,experiment,106,←,left,←,0.58484570030123,True,28,1
156K28S3,626,experiment,101,↑,up,↑,0.599289100151509,True,28,1
156K28S3,627,experiment,68,↑,up,↑,0.5524675999768078,True,28,1
156K28S3,628,experiment,84,←,left,←,0.6861202996224165,True,28,1
156K28S3,629,experiment,78,→,right,→,0.5846329997293651,True,28,1
156K28S3,630,experiment,96,↓,down,↓,0.6808394999243319,True,28,1
156K28S3,631,experiment,90,→,right,→,0.46312860026955605,True,28,1
156K28S3,632,experiment,51,↑,up,↑,0.6915811998769641,True,28,1
156K28S3,633,experiment,60,→,right,→,0.7314121001400054,True,28,1
156K28S3,634,experiment,91,←,left,←,0.6712769996374846,True,28,1
156K28S3,635,experiment,103,←,left,←,0.6341258999891579,True,28,1
156K28S3,636,experiment,98,←,left,←,0.4638070003129542,True,28,1
156K28S3,637,experiment,58,↓,down,↓,0.537523000035435,True,28,1
156K28S3,638,experiment,77,→,right,→,0.4738809000700712,True,28,1
156K28S3,639,experiment,65,↓,down,↓,0.520972799975425,True,28,1
156K28S3,640,experiment,66,←,left,←,0.47777590015903115,True,28,1
156K28S3,641,experiment,79,←,left,←,0.44017389975488186,True,28,1
156K28S3,642,experiment,104,↑,up,↑,0.4835697002708912,True,28,1
156K28S3,643,experiment,102,→,right,→,0.6301144999451935,True,28,1
156K28S3,644,experiment,61,↓,down,↓,0.6401101001538336,True,28,1
156K28S3,645,experiment,57,→,right,→,0.5551550998352468,True,28,1
156K28S3,646,experiment,80,↑,up,↑,0.4819792998023331,True,28,1
156K28S3,647,experiment,55,↓,down,↓,0.651978800073266,True,28,1
156K28S3,648,experiment,105,↓,down,↓,0.4466337002813816,True,28,1
156K28S3,649,experiment,59,←,left,←,0.8487299000844359,True,28,1
156K28S3,650,experiment,107,↑,up,↑,0.5387297999113798,True,28,1
156K28S3,651,experiment,76,→,right,→,0.45169629994779825,True,28,1
156K28S3,652,experiment,54,↑,up,↑,0.6791922999545932,True,28,1
156K28S3,653,experiment,50,←,left,←,0.4749206001870334,True,28,1
156K28S3,654,experiment,89,→,right,→,0.4583824002183974,True,28,1
156K28S3,655,experiment,100,←,left,←,0.4700503000058234,True,28,1
156K28S3,656,experiment,81,↑,up,↑,0.7042764998041093,True,28,1
156K28S3,657,experiment,72,←,left,←,0.5075890002772212,True,28,1
156K28S3,658,experiment,97,↑,down,↓,0.6948719001375139,False,28,1
156K28S3,659,experiment,95,↑,up,↑,0.49091550009325147,True,28,1
156K28S3,660,experiment,53,↑,up,↑,0.5653524002991617,True,28,1
156K28S3,661,experiment,70,→,left,←,0.5754513000138104,False,28,1
156K28S3,662,experiment,94,←,left,←,0.6806022999808192,True,28,1
156K28S3,663,experiment,71,↓,down,↓,0.6056331000290811,True,28,1
156K28S3,664,experiment,86,←,left,←,0.5358925997279584,True,28,1
156K28S3,665,experiment,108,↓,down,↓,0.5506506999954581,True,28,1
156K28S3,666,experiment,56,→,right,→,0.5734673999249935,True,28,1
156K28S3,667,experiment,88,↑,up,↑,0.6730718999169767,True,28,1
156K28S3,668,experiment,52,→,right,→,1.0041763000190258,True,28,1
156K28S3,669,experiment,64,↑,up,↑,0.6702740998007357,True,28,1
156K28S3,670,experiment,93,↑,up,↑,0.5482407999224961,True,28,1
156K28S3,671,training,75,←,left,←,0.5431651999242604,True,28,0
156K28S3,672,training,72,←,left,←,0.4571223999373615,True,28,1
156K28S3,673,experiment,74,↑,up,↑,0.5659237997606397,True,28,1
156K28S3,674,experiment,98,↑,up,↑,0.526494899764657,True,28,1
156K28S3,675,experiment,49,→,right,→,0.6811707997694612,True,28,1
156K28S3,676,experiment,101,↑,up,↑,0.9955055001191795,True,28,1
156K28S3,677,experiment,70,↓,down,↓,0.5638919998891652,True,28,1
156K28S3,678,experiment,81,←,left,←,0.6820205003023148,True,28,1
156K28S3,679,experiment,87,↑,up,↑,0.44124630000442266,True,28,1
156K28S3,680,experiment,67,←,left,←,0.5130313001573086,True,28,1
156K28S3,681,experiment,86,←,right,→,0.5358560997992754,False,28,1
156K28S3,682,experiment,50,↑,up,↑,0.5137712000869215,True,28,1
156K28S3,683,experiment,92,↓,down,↓,0.6783738001249731,True,28,1
156K28S3,684,experiment,61,←,left,←,0.47889639995992184,True,28,1
156K28S3,685,experiment,84,↑,up,↑,0.5190285001881421,True,28,1
156K28S3,686,experiment,94,↑,up,↑,0.42682640021666884,True,28,1
156K28S3,687,experiment,91,↑,up,↑,0.40413150005042553,True,28,1
156K28S3,688,experiment,65,→,right,→,0.564881700091064,True,28,1
156K28S3,689,experiment,55,↑,up,↑,0.42005900014191866,True,28,1
156K28S3,690,experiment,52,↓,down,↓,0.7130843000486493,True,28,1
156K28S3,691,experiment,96,←,left,←,0.5002604001201689,True,28,1
156K28S3,692,experiment,82,←,left,←,0.44474960025399923,True,28,1
156K28S3,693,experiment,53,←,left,←,0.4732328997924924,True,28,1
156K28S3,694,experiment,63,↓,down,↓,0.5367928999476135,True,28,1
156K28S3,695,experiment,83,←,right,→,0.7677734000608325,False,28,1
156K28S3,696,experiment,88,↓,down,↓,0.6432056999765337,True,28,1
156K28S3,697,experiment,107,←,left,←,0.4694882999174297,True,28,1
156K28S3,698,experiment,89,→,right,→,0.444932600017637,True,28,1
156K28S3,699,experiment,69,↓,down,↓,0.4759291000664234,True,28,1
156K28S3,700,experiment,64,←,left,←,0.4516754001379013,True,28,1
156K28S3,701,experiment,58,↓,down,↓,0.5659226002171636,True,28,1
156K28S3,702,experiment,72,→,down,↓,0.5670487000606954,False,28,1
156K28S3,703,experiment,105,←,left,←,0.5009357002563775,True,28,1
156K28S3,704,experiment,71,↓,down,↓,0.5930666998028755,True,28,1
156K28S3,705,experiment,93,↓,down,↓,0.5221267999149859,True,28,1
156K28S3,706,experiment,60,→,down,↓,0.5208308002911508,False,28,1
156K28S3,707,experiment,103,↑,up,↑,0.47317539993673563,True,28,1
156K28S3,708,experiment,106,↓,down,↓,0.5145239001139998,True,28,1
156K28S3,709,experiment,99,→,down,↓,0.5566493002697825,False,28,1
156K28S3,710,experiment,108,←,left,←,0.506156800314784,True,28,1
156K28S3,711,experiment,77,→,right,→,0.7403776003047824,True,28,1
156K28S3,712,experiment,104,←,left,←,0.5070187002420425,True,28,1
156K28S3,713,experiment,97,↑,down,↓,0.5421615997329354,False,28,1
156K28S3,714,experiment,54,←,left,←,0.7265162002295256,True,28,1
156K28S3,715,experiment,59,↓,down,↓,0.4692563000135124,True,28,1
156K28S3,716,experiment,76,↓,down,↓,0.6093215001747012,True,28,1
156K28S3,717,experiment,56,↑,up,↑,0.5179049000144005,True,28,1
156K28S3,718,experiment,102,←,right,→,0.5992024000734091,False,28,1
156K28S3,719,experiment,57,↓,down,↓,0.5315546998754144,True,28,1
156K28S3,720,experiment,62,←,left,←,0.6815419998019934,True,28,1
156K28S3,721,experiment,90,←,right,→,0.6159920003265142,False,28,1
156K28S3,722,experiment,85,↓,down,↓,0.6583679001778364,True,28,1
156K28S3,723,experiment,51,→,right,→,0.6788037000223994,True,28,1
156K28S3,724,experiment,80,←,left,←,0.648433799855411,True,28,1
156K28S3,725,experiment,48,↑,up,↑,0.5669037001207471,True,28,1
156K28S3,726,experiment,73,↑,up,↑,0.5431862003169954,True,28,1
156K28S3,727,experiment,79,↑,up,↑,0.5026597999967635,True,28,1
156K28S3,728,experiment,100,↓,down,↓,0.745188900269568,True,28,1
156K28S3,729,experiment,68,↑,up,↑,0.652146200183779,True,28,1
156K28S3,730,experiment,66,↓,down,↓,0.732012199703604,True,28,1
156K28S3,731,experiment,95,↑,up,↑,0.5346331000328064,True,28,1
156K28S3,732,experiment,75,↑,up,↑,0.6322874999605119,True,28,1
156K28S3,733,experiment,78,→,right,→,0.6283360999077559,True,28,1
156K28S3,734,training,105,↓,down,↓,0.623558399733156,True,28,0
156K28S3,735,training,77,↓,down,↓,0.6126073999330401,True,28,1
156K28S3,736,experiment,63,↓,down,↓,0.5750187998637557,True,28,1
156K28S3,737,experiment,69,↓,down,↓,0.48100730031728745,True,28,1
156K28S3,738,experiment,75,↑,up,↑,0.8204024001024663,True,28,1
156K28S3,739,experiment,77,←,right,→,0.48179230000823736,False,28,1
156K28S3,740,experiment,55,→,right,→,0.5877649998292327,True,28,1
156K28S3,741,experiment,100,↑,up,↑,0.5225689997896552,True,28,1
156K28S3,742,experiment,58,↓,down,↓,0.6258462998084724,True,28,1
156K28S3,743,experiment,50,→,right,→,0.7279934999532998,True,28,1
156K28S3,744,experiment,74,→,right,→,0.769921800121665,True,28,1
156K28S3,745,experiment,97,→,right,→,0.7066142000257969,True,28,1
156K28S3,746,experiment,95,←,right,→,0.5343157001771033,False,28,1
156K28S3,747,experiment,62,←,left,←,0.5963423000648618,True,28,1
156K28S3,748,experiment,80,→,right,→,0.7611612998880446,True,28,1
156K28S3,749,experiment,93,←,left,←,0.4676526999101043,True,28,1
156K28S3,750,experiment,83,→,right,→,0.7809151997789741,True,28,1
156K28S3,751,experiment,65,←,left,←,0.4796566003933549,True,28,1
156K28S3,752,experiment,66,↑,up,↑,0.5741043998859823,True,28,1
156K28S3,753,experiment,59,↓,down,↓,0.5870271003805101,True,28,1
156K28S3,754,experiment,60,→,right,→,0.5274665001779795,True,28,1
156K28S3,755,experiment,94,↓,down,↓,0.8269005999900401,True,28,1
156K28S3,756,experiment,68,→,right,→,0.6109204003587365,True,28,1
156K28S3,757,experiment,73,→,right,→,0.5220142998732626,True,28,1
156K28S3,758,experiment,52,↑,up,↑,0.48325589997693896,True,28,1
156K28S3,759,experiment,76,→,right,→,0.6868203999474645,True,28,1
156K28S3,760,experiment,82,→,right,→,0.6315756002441049,True,28,1
156K28S3,761,experiment,87,←,left,←,0.5292670000344515,True,28,1
156K28S3,762,experiment,57,←,left,←,0.5286381999030709,True,28,1
156K28S3,763,experiment,79,↑,up,↑,0.8011234998703003,True,28,1
156K28S3,764,experiment,96,↓,down,↓,0.745066300034523,True,28,1
156K28S3,765,experiment,84,↑,up,↑,0.6230673003010452,True,28,1
156K28S3,766,experiment,70,↓,down,↓,0.6942145000211895,True,28,1
156K28S3,767,experiment,91,→,right,→,0.6438486999832094,True,28,1
156K28S3,768,experiment,101,↓,down,↓,0.8401882001198828,True,28,1
156K28S3,769,experiment,64,↑,up,↑,0.4809821997769177,True,28,1
156K28S3,770,experiment,86,→,left,←,0.9366130996495485,False,28,1
156K28S3,771,experiment,90,↑,up,↑,0.6289269998669624,True,28,1
156K28S3,772,experiment,72,↑,up,↑,0.579717299900949,True,28,1
156K28S3,773,experiment,99,↑,up,↑,0.7158685000613332,True,28,1
156K28S3,774,experiment,49,↑,up,↑,0.6463836003094912,True,28,1
156K28S3,775,experiment,104,↓,down,↓,0.6812018002383411,True,28,1
156K28S3,776,experiment,106,←,left,←,0.5704581001773477,True,28,1
156K28S3,777,experiment,67,↓,down,↓,0.5648906999267638,True,28,1
156K28S3,778,experiment,105,→,right,→,0.5309456000104547,True,28,1
156K28S3,779,experiment,81,←,left,←,0.6587239000946283,True,28,1
156K28S3,780,experiment,85,←,left,←,0.5313818003050983,True,28,1
156K28S3,781,experiment,102,↑,down,↓,0.6599107999354601,False,28,1
156K28S3,782,experiment,108,→,right,→,0.5013620001263916,True,28,1
156K28S3,783,experiment,61,↑,down,↓,0.8205363000743091,False,28,1
156K28S3,784,experiment,78,↑,up,↑,0.6499439999461174,True,28,1
156K28S3,785,experiment,54,↓,down,↓,0.5652350001037121,True,28,1
156K28S3,786,experiment,51,↑,up,↑,0.5093763996846974,True,28,1
156K28S3,787,experiment,92,→,right,→,0.5541119002737105,True,28,1
156K28S3,788,experiment,56,→,right,→,0.6254041995853186,True,28,1
156K28S3,789,experiment,71,↓,down,↓,0.7603480000980198,True,28,1
156K28S3,790,experiment,53,↓,down,↓,0.848045099992305,True,28,1
156K28S3,791,experiment,88,←,left,←,0.7603851999156177,True,28,1
156K28S3,792,experiment,107,↓,down,↓,0.605990500189364,True,28,1
156K28S3,793,experiment,103,→,right,→,0.4990329002030194,True,28,1
156K28S3,794,experiment,48,→,right,→,0.5268080998212099,True,28,1
156K28S3,795,experiment,89,↑,up,↑,0.5958846998400986,True,28,1
156K28S3,796,experiment,98,→,right,→,0.5870345998555422,True,28,1
156K28S3,797,training,68,←,left,←,0.5961881000548601,True,28,0
156K28S3,798,training,94,←,left,←,0.7165792998857796,True,28,1
156K28S3,799,experiment,96,→,right,→,0.5435890997759998,True,28,1
156K28S3,800,experiment,69,←,left,←,0.6588639998808503,True,28,1
156K28S3,801,experiment,75,↑,up,↑,0.42322289990261197,True,28,1
156K28S3,802,experiment,81,↑,up,↑,0.5147410999052227,True,28,1
156K28S3,803,experiment,76,→,right,→,1.7325489004142582,True,28,1
156K28S3,804,experiment,49,↑,up,↑,0.5024037999100983,True,28,1
156K28S3,805,experiment,50,↓,down,↓,0.47351970011368394,True,28,1
156K28S3,806,experiment,93,←,left,←,0.5912930001504719,True,28,1
156K28S3,807,experiment,98,←,left,←,0.5188376000151038,True,28,1
156K28S3,808,experiment,55,↑,up,↑,0.8153380998410285,True,28,1
156K28S3,809,experiment,53,↓,down,↓,0.5168971000239253,True,28,1
156K28S3,810,experiment,68,↑,up,↑,0.4651625002734363,True,28,1
156K28S3,811,experiment,105,↓,down,↓,0.659392099827528,True,28,1
156K28S3,812,experiment,95,↓,down,↓,0.5053598000667989,True,28,1
156K28S3,813,experiment,101,↓,down,↓,0.5791494003497064,True,28,1
156K28S3,814,experiment,92,↑,down,↓,0.5726601998321712,False,28,1
156K28S3,815,experiment,89,↑,up,↑,0.5837039998732507,True,28,1
156K28S3,816,experiment,77,←,left,←,0.49490389972925186,True,28,1
156K28S3,817,experiment,80,↑,up,↑,0.5598559002391994,True,28,1
156K28S3,818,experiment,86,→,right,→,0.4608919001184404,True,28,1
156K28S3,819,experiment,84,↑,up,↑,0.7100700000301003,True,28,1
156K28S3,820,experiment,107,↓,down,↓,0.6615983000956476,True,28,1
156K28S3,821,experiment,91,→,right,→,0.4686626000329852,True,28,1
156K28S3,822,experiment,52,←,left,←,0.44051520014181733,True,28,1
156K28S3,823,experiment,67,↑,down,↓,1.064437999855727,False,28,1
156K28S3,824,experiment,82,→,right,→,0.42601210018619895,True,28,1
156K28S3,825,experiment,94,↓,down,↓,0.45726019982248545,True,28,1
156K28S3,826,experiment,65,→,right,→,0.6570214000530541,True,28,1
156K28S3,827,experiment,62,←,left,←,0.6418046001344919,True,28,1
156K28S3,828,experiment,83,↑,up,↑,0.9641672996804118,True,28,1
156K28S3,829,experiment,103,→,right,→,0.4350759000517428,True,28,1
156K28S3,830,experiment,108,↑,up,↑,0.5097233997657895,True,28,1
156K28S3,831,experiment,88,←,left,←,0.6355733000673354,True,28,1
156K28S3,832,experiment,71,↓,down,↓,0.37602310022339225,True,28,1
156K28S3,833,experiment,61,→,right,→,0.7023280002176762,True,28,1
156K28S3,834,experiment,48,→,right,→,0.9541166997514665,True,28,1
156K28S3,835,experiment,78,↓,down,↓,0.5375613998621702,True,28,1
156K28S3,836,experiment,73,↓,down,↓,0.4755989001132548,True,28,1
156K28S3,837,experiment,74,↑,up,↑,0.4632800002582371,True,28,1
156K28S3,838,experiment,54,↑,up,↑,0.45879320008680224,True,28,1
156K28S3,839,experiment,106,→,left,←,0.8368363999761641,False,28,1
156K28S3,840,experiment,100,→,right,→,0.4579014000482857,True,28,1
156K28S3,841,experiment,70,→,right,→,0.4398905001580715,True,28,1
156K28S3,842,experiment,90,↑,down,↓,0.6239599003456533,False,28,1
156K28S3,843,experiment,66,↓,down,↓,0.44069959968328476,True,28,1
156K28S3,844,experiment,79,←,down,↓,0.65239920001477,False,28,1
156K28S3,845,experiment,87,↓,down,↓,0.5411522998474538,True,28,1
156K28S3,846,experiment,64,↓,down,↓,0.4981186999939382,True,28,1
156K28S3,847,experiment,57,↑,up,↑,0.5147744999267161,True,28,1
156K28S3,848,experiment,72,←,left,←,0.48595419991761446,True,28,1
156K28S3,849,experiment,104,↓,down,↓,0.5035924999974668,True,28,1
156K28S3,850,experiment,59,→,right,→,0.6555681000463665,True,28,1
156K28S3,851,experiment,99,↑,up,↑,0.5399947999976575,True,28,1
156K28S3,852,experiment,102,↑,up,↑,0.45995029993355274,True,28,1
156K28S3,853,experiment,56,←,left,←,0.6787880999036133,True,28,1
156K28S3,854,experiment,51,↑,up,↑,0.4661547997966409,True,28,1
156K28S3,855,experiment,60,↓,down,↓,0.4752218001522124,True,28,1
156K28S3,856,experiment,58,→,right,→,0.668773700017482,True,28,1
156K28S3,857,experiment,97,↑,up,↑,0.713639899622649,True,28,1
156K28S3,858,experiment,63,→,right,→,0.4795256000943482,True,28,1
156K28S3,859,experiment,85,↓,down,↓,0.5597220999188721,True,28,1
156K28S3,860,training,95,→,right,→,0.4035960999317467,True,28,0
156K28S3,861,training,86,↑,up,↑,0.6703210999257863,True,28,0
156K28S3,862,experiment,74,←,left,←,0.4902376998215914,True,28,1
156K28S3,863,experiment,52,←,left,←,0.701086699962616,True,28,1
156K28S3,864,experiment,84,→,right,→,0.6767780999653041,True,28,1
156K28S3,865,experiment,101,→,right,→,0.5837012999691069,True,28,1
156K28S3,866,experiment,59,↓,down,↓,0.5325809000059962,True,28,1
156K28S3,867,experiment,77,←,left,←,0.47750960011035204,True,28,1
156K28S3,868,experiment,57,→,right,→,0.5914908000268042,True,28,1
156K28S3,869,experiment,55,←,left,←,0.5248312000185251,True,28,1
156K28S3,870,experiment,102,↓,down,↓,0.4456825000233948,True,28,1
156K28S3,871,experiment,98,↑,down,↓,0.6029875003732741,False,28,1
156K28S3,872,experiment,68,←,left,←,0.6197649999521673,True,28,1
156K28S3,873,experiment,62,↓,down,↓,0.5421217000111938,True,28,1
156K28S3,874,experiment,51,↓,down,↓,0.5193658000789583,True,28,1
156K28S3,875,experiment,106,↓,down,↓,0.5589155000634491,True,28,1
156K28S3,876,experiment,89,←,left,←,0.8025885997340083,True,28,1
156K28S3,877,experiment,66,←,left,←,0.5806574001908302,True,28,1
156K28S3,878,experiment,71,↑,up,↑,0.6210315003991127,True,28,1
156K28S3,879,experiment,70,←,left,←,0.5727916001342237,True,28,1
156K28S3,880,experiment,86,↓,down,↓,0.6325521999970078,True,28,1
156K28S3,881,experiment,67,←,right,→,0.6649699001573026,False,28,1
156K28S3,882,experiment,97,←,left,←,0.6772273001261055,True,28,1
156K28S3,883,experiment,103,←,left,←,0.7039593001827598,True,28,1
156K28S3,884,experiment,96,←,left,←,0.5791767002083361,True,28,1
156K28S3,885,experiment,58,↑,up,↑,0.5761910998262465,True,28,1
156K28S3,886,experiment,99,↓,down,↓,1.0400501997210085,True,28,1
156K28S3,887,experiment,93,↑,up,↑,0.583043500315398,True,28,1
156K28S3,888,experiment,107,←,right,→,0.7802093997597694,False,28,1
156K28S3,889,experiment,80,←,left,←,0.6098504001274705,True,28,1
156K28S3,890,experiment,92,↓,down,↓,0.4344523996114731,True,28,1
156K28S3,891,experiment,54,→,left,←,0.6549240997992456,False,28,1
156K28S3,892,experiment,105,↓,down,↓,0.5932431998662651,True,28,1
156K28S3,893,experiment,88,←,left,←,0.5479819998145103,True,28,1
156K28S3,894,experiment,69,↓,down,↓,0.4309263997711241,True,28,1
156K28S3,895,experiment,63,←,left,←,0.6725887996144593,True,28,1
156K28S3,896,experiment,83,↓,down,↓,0.5451756999827921,True,28,1
156K28S3,897,experiment,76,↓,down,↓,0.46593179972842336,True,28,1
156K28S3,898,experiment,50,↓,down,↓,0.5183432996273041,True,28,1
156K28S3,899,experiment,108,←,left,←,0.7817080998793244,True,28,1
156K28S3,900,experiment,104,←,left,←,0.4993358999490738,True,28,1
156K28S3,901,experiment,56,↑,up,↑,0.6921910000964999,True,28,1
156K28S3,902,experiment,94,←,left,←,0.497074699960649,True,28,1
156K28S3,903,experiment,75,↓,down,↓,0.5397391002625227,True,28,1
156K28S3,904,experiment,78,→,right,→,0.6040109996683896,True,28,1
156K28S3,905,experiment,85,←,left,←,0.4867639997974038,True,28,1
156K28S3,906,experiment,100,→,right,→,0.5859921001829207,True,28,1
156K28S3,907,experiment,65,←,left,←,0.5405296999961138,True,28,1
156K28S3,908,experiment,48,→,right,→,0.7587005998939276,True,28,1
156K28S3,909,experiment,64,←,left,←,0.666739699896425,True,28,1
156K28S3,910,experiment,53,↓,down,↓,0.48610949981957674,True,28,1
156K28S3,911,experiment,91,←,left,←,0.7241926002316177,True,28,1
156K28S3,912,experiment,95,←,left,←,0.5591436000540853,True,28,1
156K28S3,913,experiment,90,←,left,←,0.45854520006105304,True,28,1
156K28S3,914,experiment,49,→,right,→,0.49603400006890297,True,28,1
156K28S3,915,experiment,87,↓,down,↓,0.5666597997769713,True,28,1
156K28S3,916,experiment,73,←,left,←,0.47115679970011115,True,28,1
156K28S3,917,experiment,81,↑,down,↓,0.8332469002343714,False,28,1
156K28S3,918,experiment,72,↑,up,↑,0.6077283001504838,True,28,1
156K28S3,919,experiment,82,↑,up,↑,0.5157945998944342,True,28,1
156K28S3,920,experiment,60,←,right,→,0.6343249999918044,False,28,1
156K28S3,921,experiment,79,←,left,←,0.6224676002748311,True,28,1
156K28S3,922,experiment,61,↓,down,↓,0.5049351998604834,True,28,1
156K28S3,923,training,54,↓,down,↓,0.5908075999468565,True,28,0
156K28S3,924,training,55,↑,up,↑,0.47637519985437393,True,28,1
156K28S3,925,experiment,65,→,right,→,0.5153112998232245,True,28,1
156K28S3,926,experiment,58,↑,up,↑,0.48328280029818416,True,28,1
156K28S3,927,experiment,62,→,right,→,0.7310182000510395,True,28,1
156K28S3,928,experiment,76,←,left,←,0.6599833997897804,True,28,1
156K28S3,929,experiment,64,↑,up,↑,0.5164124998264015,True,28,1
156K28S3,930,experiment,94,↑,up,↑,0.4398035001941025,True,28,1
156K28S3,931,experiment,84,←,left,←,0.5859444998204708,True,28,1
156K28S3,932,experiment,83,→,right,→,0.6309274001978338,True,28,1
156K28S3,933,experiment,88,↑,up,↑,0.4396176999434829,True,28,1
156K28S3,934,experiment,55,→,right,→,0.5794930998235941,True,28,1
156K28S3,935,experiment,89,←,left,←,0.47809539968147874,True,28,1
156K28S3,936,experiment,61,←,left,←,0.5746161001734436,True,28,1
156K28S3,937,experiment,60,←,left,←,0.5152289997786283,True,28,1
156K28S3,938,experiment,49,↑,up,↑,0.5022574001923203,True,28,1
156K28S3,939,experiment,80,→,right,→,0.5432122000493109,True,28,1
156K28S3,940,experiment,72,→,right,→,0.47319940011948347,True,28,1
156K28S3,941,experiment,71,→,right,→,0.5667996001429856,True,28,1
156K28S3,942,experiment,75,←,left,←,0.47862339997664094,True,28,1
156K28S3,943,experiment,86,→,right,→,0.6784510998986661,True,28,1
156K28S3,944,experiment,59,→,right,→,0.743526500184089,True,28,1
156K28S3,945,experiment,106,↑,up,↑,0.5342067000456154,True,28,1
156K28S3,946,experiment,98,→,right,→,0.7198811997659504,True,28,1
156K28S3,947,experiment,56,←,left,←,0.57636300008744,True,28,1
156K28S3,948,experiment,87,←,right,→,0.5320987002924085,False,28,1
156K28S3,949,experiment,82,→,right,→,0.5552042997442186,True,28,1
156K28S3,950,experiment,103,→,right,→,0.5383521998301148,True,28,1
156K28S3,951,experiment,99,→,right,→,0.5876600001938641,True,28,1
156K28S3,952,experiment,105,←,left,←,0.512568200007081,True,28,1
156K28S3,953,experiment,66,↑,up,↑,0.8617120999842882,True,28,1
156K28S3,954,experiment,52,↓,down,↓,0.6495741000398993,True,28,1
156K28S3,955,experiment,79,↑,up,↑,0.4769333000294864,True,28,1
156K28S3,956,experiment,54,→,right,→,0.4878224995918572,True,28,1
156K28S3,957,experiment,51,↓,down,↓,0.6026537003926933,True,28,1
156K28S3,958,experiment,101,←,left,←,0.432604500092566,True,28,1
156K28S3,959,experiment,53,←,right,→,0.6617320999503136,False,28,1
156K28S3,960,experiment,81,←,left,←,0.47978240018710494,True,28,1
156K28S3,961,experiment,48,←,right,→,0.6206975001841784,False,28,1
156K28S3,962,experiment,50,↑,up,↑,0.4986320002935827,True,28,1
156K28S3,963,experiment,97,↓,down,↓,0.830415700096637,True,28,1
156K28S3,964,experiment,90,←,left,←,0.6624133000150323,True,28,1
156K28S3,965,experiment,102,↑,up,↑,0.705679299775511,True,28,1
156K28S3,966,experiment,95,→,right,→,0.5892757000401616,True,28,1
156K28S3,967,experiment,70,↑,up,↑,0.49404559982940555,True,28,1
156K28S3,968,experiment,74,→,right,→,0.6172548998147249,True,28,1
156K28S3,969,experiment,100,←,left,←,0.43922509998083115,True,28,1
156K28S3,970,experiment,93,↓,up,↑,0.66207529976964,False,28,1
156K28S3,971,experiment,57,←,up,↑,0.5524412002414465,False,28,1
156K28S3,972,experiment,68,↓,down,↓,0.6991816996596754,True,28,1
156K28S3,973,experiment,63,↓,down,↓,0.5378958000801504,True,28,1
156K28S3,974,experiment,73,←,left,←,0.5076717999763787,True,28,1
156K28S3,975,experiment,85,↓,down,↓,0.6430015000514686,True,28,1
156K28S3,976,experiment,107,↓,down,↓,0.4212051001377404,True,28,1
156K28S3,977,experiment,96,←,left,←,0.4997332999482751,True,28,1
156K28S3,978,experiment,77,←,left,←,0.4379433998838067,True,28,1
156K28S3,979,experiment,67,←,left,←,0.7582466001622379,True,28,1
156K28S3,980,experiment,104,↑,up,↑,0.6525538000278175,True,28,1
156K28S3,981,experiment,78,→,right,→,0.6727211000397801,True,28,1
156K28S3,982,experiment,69,→,right,→,0.5667853001505136,True,28,1
156K28S3,983,experiment,91,↑,up,↑,0.5691764000803232,True,28,1
156K28S3,984,experiment,92,→,right,→,0.5552042997442186,True,28,1
156K28S3,985,experiment,108,↑,up,↑,0.5524889002554119,True,28,1
156K28S3,986,training,52,←,right,→,0.8491361998021603,False,28,0
156K28S3,987,training,62,↑,up,↑,0.4501772001385689,True,28,1
156K28S3,988,experiment,93,→,right,→,0.6088717002421618,True,28,1
156K28S3,989,experiment,86,←,left,←,0.5396981998346746,True,28,1
156K28S3,990,experiment,90,↑,up,↑,0.5038745999336243,True,28,1
156K28S3,991,experiment,78,↑,up,↑,0.4574108999222517,True,28,1
156K28S3,992,experiment,85,→,right,→,0.49045389983803034,True,28,1
156K28S3,993,experiment,99,↑,up,↑,0.46160219982266426,True,28,1
156K28S3,994,experiment,62,←,left,←,0.6143979001790285,True,28,1
156K28S3,995,experiment,100,→,right,→,0.6439593001268804,True,28,1
156K28S3,996,experiment,91,←,left,←,0.4918696000240743,True,28,1
156K28S3,997,experiment,82,↓,down,↓,0.8364095999859273,True,28,1
156K28S3,998,experiment,53,←,left,←,0.40919880010187626,True,28,1
156K28S3,999,experiment,52,↓,down,↓,0.6632475997321308,True,28,1
156K28S3,1000,experiment,66,→,right,→,0.4702993999235332,True,28,1
156K28S3,1001,experiment,80,←,left,←,0.5606148997321725,True,28,1
156K28S3,1002,experiment,50,↓,down,↓,0.6734100999310613,True,28,1
156K28S3,1003,experiment,49,↑,up,↑,0.5339135001413524,True,28,1
156K28S3,1004,experiment,55,→,right,→,1.0056627998128533,True,28,1
156K28S3,1005,experiment,84,↓,down,↓,0.6093036001548171,True,28,1
156K28S3,1006,experiment,76,↑,up,↑,0.43110950011759996,True,28,1
156K28S3,1007,experiment,107,→,right,→,0.5778804998844862,True,28,1
156K28S3,1008,experiment,108,↓,down,↓,0.44645259995013475,True,28,1
156K28S3,1009,experiment,54,↑,up,↑,0.546266199555248,True,28,1
156K28S3,1010,experiment,88,←,left,←,0.670616399962455,True,28,1
156K28S3,1011,experiment,89,↓,down,↓,0.5578246000222862,True,28,1
156K28S3,1012,experiment,94,↓,down,↓,0.5356179000809789,True,28,1
156K28S3,1013,experiment,71,←,left,←,0.5145983998663723,True,28,1
156K28S3,1014,experiment,104,→,right,→,0.36766420025378466,True,28,1
156K28S3,1015,experiment,70,←,left,←,0.6123461998067796,True,28,0
156K28S3,1016,experiment,61,←,left,←,0.45535449963063,True,28,1
156K28S3,1017,experiment,77,→,right,→,0.42764970008283854,True,28,1
156K28S3,1018,experiment,59,↑,up,↑,0.4698489001020789,True,28,1
156K28S3,1019,experiment,48,←,left,←,0.5708956997841597,True,28,1
156K28S3,1020,experiment,57,↑,down,↓,0.7928023999556899,False,28,1
156K28S3,1021,experiment,73,↓,down,↓,0.6969212996773422,True,28,1
156K28S3,1022,experiment,97,↑,up,↑,0.5957497004419565,True,28,1
156K28S3,1023,experiment,58,↓,down,↓,0.560247799847275,True,28,1
156K28S3,1024,experiment,102,↑,up,↑,0.6158279003575444,True,28,1
156K28S3,1025,experiment,65,→,down,↓,0.6492902999743819,False,28,1
156K28S3,1026,experiment,72,↓,down,↓,0.5350048998370767,True,28,1
156K28S3,1027,experiment,69,→,right,→,0.6104907998815179,True,28,1
156K28S3,1028,experiment,95,→,right,→,0.4104275000281632,True,28,1
156K28S3,1029,experiment,68,←,left,←,0.44260780001059175,True,28,1
156K28S3,1030,experiment,79,←,left,←,0.40618939977139235,True,28,1
156K28S3,1031,experiment,74,→,right,→,0.4050417998805642,True,28,0
156K28S3,1032,experiment,103,↓,down,↓,0.41044249990954995,True,28,1
156K28S3,1033,experiment,101,↓,down,↓,0.6718762000091374,True,28,1
156K28S3,1034,experiment,81,↑,down,↓,0.6973137999884784,False,28,1
156K28S3,1035,experiment,96,↓,down,↓,0.5411511999554932,True,28,1
156K28S3,1036,experiment,75,→,right,→,0.6940290001221001,True,28,1
156K28S3,1037,experiment,60,↓,down,↓,0.5420566000975668,True,28,1
156K28S3,1038,experiment,87,↑,up,↑,0.6671188999898732,True,28,1
156K28S3,1039,experiment,106,↓,down,↓,0.7569693000987172,True,28,1
156K28S3,1040,experiment,83,←,left,←,0.46651719976216555,True,28,1
156K28S3,1041,experiment,51,↑,up,↑,0.4626131998375058,True,28,1
156K28S3,1042,experiment,98,↓,down,↓,0.5630577001720667,True,28,1
156K28S3,1043,experiment,63,←,left,←,0.6871398999355733,True,28,1
156K28S3,1044,experiment,67,←,right,→,0.4934853999875486,False,28,1
156K28S3,1045,experiment,105,→,right,→,0.48641679994761944,True,28,1
156K28S3,1046,experiment,92,↑,up,↑,0.491990199778229,True,28,1
156K28S3,1047,experiment,64,↑,up,↑,0.6510693999007344,True,28,1
156K28S3,1048,experiment,56,←,left,←,0.5497795999981463,True,28,1
156K28S3,1049,training,107,↓,up,↑,0.5895694000646472,False,28,0
156K28S3,1050,training,107,→,right,→,0.5938174999319017,True,28,1
156K28S3,1051,experiment,85,↓,down,↓,0.6377635998651385,True,28,1
156K28S3,1052,experiment,58,←,left,←,0.5522893001325428,True,28,1
156K28S3,1053,experiment,89,↑,up,↑,0.48427690006792545,True,28,1
156K28S3,1054,experiment,106,↑,up,↑,0.43774789990857244,True,28,1
156K28S3,1055,experiment,98,↑,up,↑,0.5792970000766218,True,28,1
156K28S3,1056,experiment,86,←,left,←,0.46293010003864765,True,28,1
156K28S3,1057,experiment,72,↓,down,↓,0.6121038002893329,True,28,1
156K28S3,1058,experiment,96,↓,down,↓,0.5391307999379933,True,28,1
156K28S3,1059,experiment,93,↓,down,↓,0.5662732999771833,True,28,1
156K28S3,1060,experiment,71,↓,down,↓,0.5597651000134647,True,28,1
156K28S3,1061,experiment,49,→,right,→,0.5766727002337575,True,28,1
156K28S3,1062,experiment,76,←,left,←,0.5523564997129142,True,28,1
156K28S3,1063,experiment,108,↑,up,↑,0.6539531997404993,True,28,1
156K28S3,1064,experiment,87,↓,down,↓,0.5502595002762973,True,28,1
156K28S3,1065,experiment,52,↓,down,↓,0.5829709996469319,True,28,1
156K28S3,1066,experiment,95,←,left,←,0.6235408000648022,True,28,1
156K28S3,1067,experiment,75,←,left,←,0.5890953000634909,True,28,1
156K28S3,1068,experiment,63,↑,up,↑,0.5766742001287639,True,28,1
156K28S3,1069,experiment,105,↑,up,↑,0.4622354996390641,True,28,1
156K28S3,1070,experiment,90,↓,down,↓,0.581377699971199,True,28,1
156K28S3,1071,experiment,101,←,left,←,0.5079227997921407,True,28,1
156K28S3,1072,experiment,67,↓,down,↓,0.6895921998657286,True,28,1
156K28S3,1073,experiment,60,→,right,→,0.7371307001449168,True,28,1
156K28S3,1074,experiment,82,→,right,→,0.46410669991746545,True,28,1
156K28S3,1075,experiment,61,↓,down,↓,0.5615995000116527,True,28,1
156K28S3,1076,experiment,77,←,left,←,0.5447313999757171,True,28,1
156K28S3,1077,experiment,107,↓,down,↓,0.4631731999106705,True,28,1
156K28S3,1078,experiment,84,→,right,→,0.41644009994342923,True,28,1
156K28S3,1079,experiment,103,↑,up,↑,0.4134853999130428,True,28,1
156K28S3,1080,experiment,57,→,right,→,0.6011079996824265,True,28,1
156K28S3,1081,experiment,64,→,right,→,0.5316310999915004,True,28,1
156K28S3,1082,experiment,73,→,right,→,0.6934686000458896,True,28,1
156K28S3,1083,experiment,56,↑,up,↑,0.48668080009520054,True,28,1
156K28S3,1084,experiment,62,→,right,→,0.6063055996783078,True,28,1
156K28S3,1085,experiment,94,↑,up,↑,0.46243209997192025,True,28,1
156K28S3,1086,experiment,53,↑,up,↑,0.46603390015661716,True,28,1
156K28S3,1087,experiment,59,↑,up,↑,0.38347129989415407,True,28,1
156K28S3,1088,experiment,68,→,right,→,0.9248616001568735,True,28,0
156K28S3,1089,experiment,65,↓,down,↓,0.7860409999266267,True,28,1
156K28S3,1090,experiment,70,→,right,→,0.40359050035476685,True,28,1
156K28S3,1091,experiment,83,←,right,→,0.6628919001668692,False,28,1
156K28S3,1092,experiment,78,↓,right,→,0.4662529998458922,False,28,1
156K28S3,1093,experiment,55,←,left,←,0.556595700327307,True,28,1
156K28S3,1094,experiment,79,←,left,←,0.45967220002785325,True,28,1
156K28S3,1095,experiment,100,←,left,←,0.49563280027359724,True,28,1
156K28S3,1096,experiment,99,→,right,→,0.4903919999487698,True,28,1
156K28S3,1097,experiment,66,←,left,←,0.6567910998128355,True,28,1
156K28S3,1098,experiment,81,↓,down,↓,0.5148525000549853,True,28,1
156K28S3,1099,experiment,50,↑,down,↓,0.813298599794507,False,28,1
156K28S3,1100,experiment,54,↓,down,↓,0.9227638999000192,True,28,1
156K28S3,1101,experiment,51,→,right,→,0.43606510013341904,True,28,1
156K28S3,1102,experiment,97,↑,up,↑,0.49811229994520545,True,28,1
156K28S3,1103,experiment,91,↑,up,↑,0.3843376999720931,True,28,1
156K28S3,1104,experiment,88,↑,up,↑,0.586534499656409,True,28,0
156K28S3,1105,experiment,48,→,right,→,0.4426575000397861,True,28,1
156K28S3,1106,experiment,102,↓,down,↓,0.6787971002049744,True,28,1
156K28S3,1107,experiment,74,↑,up,↑,0.4185812999494374,True,28,1
156K28S3,1108,experiment,69,→,right,→,0.44273649994283915,True,28,1
156K28S3,1109,experiment,92,↓,down,↓,0.5540455998852849,True,28,1
156K28S3,1110,experiment,104,↓,down,↓,0.5690357000567019,True,28,1
156K28S3,1111,experiment,80,←,down,↓,0.7993426998145878,False,28,1
156K28S3,1112,training,57,↑,down,↓,0.6782509000040591,False,28,0
156K28S3,1113,training,91,←,left,←,0.996667199768126,True,28,1
156K28S3,1114,experiment,107,←,left,←,0.48110360000282526,True,28,1
156K28S3,1115,experiment,68,↑,up,↑,0.5268677999265492,True,28,1
156K28S3,1116,experiment,96,↑,up,↑,0.6414429997093976,True,28,1
156K28S3,1117,experiment,85,→,right,→,0.4193263999186456,True,28,1
156K28S3,1118,experiment,108,↑,up,↑,0.4538210001774132,True,28,1
156K28S3,1119,experiment,50,↓,down,↓,0.6992804002948105,True,28,1
156K28S3,1120,experiment,76,↓,down,↓,0.7329452000558376,True,28,1
156K28S3,1121,experiment,79,↓,down,↓,0.5410337001085281,True,28,1
156K28S3,1122,experiment,83,←,left,←,0.47538409987464547,True,28,1
156K28S3,1123,experiment,75,↓,down,↓,0.6393801001831889,True,28,1
156K28S3,1124,experiment,106,↓,down,↓,0.4582851999439299,True,28,1
156K28S3,1125,experiment,98,↓,down,↓,0.4627800998277962,True,28,1
156K28S3,1126,experiment,65,←,left,←,0.8780124997720122,True,28,1
156K28S3,1127,experiment,74,↓,down,↓,0.5379942995496094,True,28,1
156K28S3,1128,experiment,103,←,left,←,0.722012700047344,True,28,1
156K28S3,1129,experiment,58,→,right,→,0.5611140001565218,True,28,1
156K28S3,1130,experiment,52,←,left,←,0.6332477000541985,True,28,1
156K28S3,1131,experiment,101,↓,down,↓,0.5501013998873532,True,28,1
156K28S3,1132,experiment,55,↓,down,↓,0.5655529997311532,True,28,1
156K28S3,1133,experiment,89,↑,up,↑,0.47281689988449216,True,28,1
156K28S3,1134,experiment,69,←,right,→,0.5747998999431729,False,28,1
156K28S3,1135,experiment,78,↓,down,↓,0.46922320034354925,True,28,1
156K28S3,1136,experiment,77,→,left,←,0.656791300047189,False,28,1
156K28S3,1137,experiment,105,→,right,→,0.4196743001230061,True,28,1
156K28S3,1138,experiment,60,↑,up,↑,0.5817954996600747,True,28,1
156K28S3,1139,experiment,90,↑,up,↑,0.4721818999387324,True,28,1
156K28S3,1140,experiment,70,→,right,→,0.621883099898696,True,28,1
156K28S3,1141,experiment,91,→,right,→,0.4939534002915025,True,28,1
156K28S3,1142,experiment,72,↑,up,↑,0.46640249993652105,True,28,1
156K28S3,1143,experiment,56,↓,down,↓,0.49235930014401674,True,28,1
156K28S3,1144,experiment,62,→,right,→,0.6281493999995291,True,28,1
156K28S3,1145,experiment,63,←,left,←,0.5975784999318421,True,28,1
156K28S3,1146,experiment,61,↑,up,↑,0.5210094000212848,True,28,1
156K28S3,1147,experiment,88,↓,up,↑,0.6545293000526726,False,28,1
156K28S3,1148,experiment,94,←,left,←,0.5008330997079611,True,28,1
156K28S3,1149,experiment,87,↑,up,↑,0.6831305003724992,True,28,1
156K28S3,1150,experiment,84,↑,up,↑,0.4755601999349892,True,28,1
156K28S3,1151,experiment,64,↓,down,↓,0.5709330998361111,True,28,1
156K28S3,1152,experiment,73,↓,down,↓,0.627630400005728,True,28,1
156K28S3,1153,experiment,71,←,left,←,0.45878730015829206,True,28,1
156K28S3,1154,experiment,49,→,left,←,0.6639018002897501,False,28,1
156K28S3,1155,experiment,102,→,left,←,0.7148729003965855,False,28,1
156K28S3,1156,experiment,67,→,right,→,0.5518236998468637,True,28,1
156K28S3,1157,experiment,48,↓,down,↓,0.46530239982530475,True,28,1
156K28S3,1158,experiment,81,→,right,→,0.6034232000820339,True,28,1
156K28S3,1159,experiment,54,↑,down,↓,0.64942939998582,False,28,1
156K28S3,1160,experiment,59,→,right,→,0.6114785997197032,True,28,1
156K28S3,1161,experiment,57,→,right,→,0.49571420019492507,True,28,1
156K28S3,1162,experiment,97,↓,down,↓,0.5390395000576973,True,28,1
156K28S3,1163,experiment,93,→,right,→,0.6782044996507466,True,28,1
156K28S3,1164,experiment,104,↓,down,↓,0.7202016999945045,True,28,1
156K28S3,1165,experiment,66,←,left,←,0.6052995999343693,True,28,1
156K28S3,1166,experiment,95,→,right,→,0.7247752002440393,True,28,1
156K28S3,1167,experiment,86,↑,up,↑,0.4586899997666478,True,28,1
156K28S3,1168,experiment,100,↑,up,↑,0.6946530002169311,True,28,1
156K28S3,1169,experiment,53,↓,down,↓,0.5455093001946807,True,28,1
156K28S3,1170,experiment,80,↓,down,↓,0.5364672997966409,True,28,1
156K28S3,1171,experiment,92,↑,up,↑,0.4443586999550462,True,28,1
156K28S3,1172,experiment,51,→,right,→,0.4972819001413882,True,28,1
156K28S3,1173,experiment,99,↑,up,↑,0.6122443000786006,True,28,1
156K28S3,1174,experiment,82,→,right,→,0.46370190009474754,True,28,1
156K28S3,1175,training,103,→,right,→,0.6431204997934401,True,28,0
156K28S3,1176,training,75,→,right,→,0.5285187000408769,True,28,1
156K28S3,1177,experiment,71,←,left,←,0.6354984999634326,True,28,1
156K28S3,1178,experiment,84,→,right,→,0.6136834002099931,True,28,1
156K28S3,1179,experiment,72,←,left,←,0.44472109992057085,True,28,1
156K28S3,1180,experiment,86,↓,down,↓,0.7345171002671123,True,28,1
156K28S3,1181,experiment,92,←,left,←,0.6262877001427114,True,28,1
156K28S3,1182,experiment,55,↓,down,↓,0.5342674003913999,True,28,1
156K28S3,1183,experiment,97,←,left,←,0.7522967997938395,True,28,1
156K28S3,1184,experiment,79,←,left,←,0.6316872998140752,True,28,1
156K28S3,1185,experiment,100,←,left,←,0.6207320000976324,True,28,1
156K28S3,1186,experiment,73,↓,down,↓,0.6113530001603067,True,28,1
156K28S3,1187,experiment,81,←,left,←,0.6555323000065982,True,28,1
156K28S3,1188,experiment,60,↑,up,↑,0.6168816001154482,True,28,1
156K28S3,1189,experiment,95,←,left,←,0.8643273999914527,True,28,1
156K28S3,1190,experiment,74,←,left,←,0.581001200247556,True,28,1
156K28S3,1191,experiment,104,←,left,←,0.5703596002422273,True,28,1
156K28S3,1192,experiment,48,↑,down,↓,0.7470567999407649,False,28,1
156K28S3,1193,experiment,67,↓,down,↓,0.5507832998409867,True,28,1
156K28S3,1194,experiment,65,→,right,→,0.8186286999844015,True,28,1
156K28S3,1195,experiment,64,↓,down,↓,0.500193600077182,True,28,1
156K28S3,1196,experiment,102,↓,down,↓,0.6138945003040135,True,28,1
156K28S3,1197,experiment,56,→,right,→,0.6343808001838624,True,28,1
156K28S3,1198,experiment,59,←,left,←,0.5491995997726917,True,28,1
156K28S3,1199,experiment,83,←,left,←,0.6032448997721076,True,28,1
156K28S3,1200,experiment,78,→,right,→,0.5288228997960687,True,28,1
156K28S3,1201,experiment,94,↓,down,↓,0.644040800165385,True,28,1
156K28S3,1202,experiment,77,↑,up,↑,0.4963052999228239,True,28,1
156K28S3,1203,experiment,93,↓,down,↓,0.541074899956584,True,28,1
156K28S3,1204,experiment,54,→,right,→,0.6531998999416828,True,28,1
156K28S3,1205,experiment,62,↑,up,↑,0.4942966001108289,True,28,1
156K28S3,1206,experiment,61,←,left,←,0.758006100077182,True,28,1
156K28S3,1207,experiment,107,↑,up,↑,0.46796469995751977,True,28,1
156K28S3,1208,experiment,101,←,left,←,0.526993399951607,True,28,1
156K28S3,1209,experiment,91,←,left,←,0.65137580037117,True,28,1
156K28S3,1210,experiment,105,↓,down,↓,0.6461211000569165,True,28,1
156K28S3,1211,experiment,52,↑,up,↑,0.48250710032880306,True,28,1
156K28S3,1212,experiment,108,↓,down,↓,0.5148788997903466,True,28,1
156K28S3,1213,experiment,82,↓,down,↓,0.6426617000252008,True,28,1
156K28S3,1214,experiment,53,↑,up,↑,0.48739879997447133,True,28,1
156K28S3,1215,experiment,57,→,right,→,0.5841679000295699,True,28,1
156K28S3,1216,experiment,80,↑,up,↑,0.46182999992743134,True,28,1
156K28S3,1217,experiment,50,←,left,←,0.4746445999480784,True,28,1
156K28S3,1218,experiment,90,↑,up,↑,0.48947919998317957,True,28,1
156K28S3,1219,experiment,68,→,right,→,0.5830267001874745,True,28,1
156K28S3,1220,experiment,88,←,left,←,0.6259242002852261,True,28,1
156K28S3,1221,experiment,106,→,right,→,0.46143680019304156,True,28,1
156K28S3,1222,experiment,96,→,right,→,0.5946341999806464,True,28,1
156K28S3,1223,experiment,69,↑,up,↑,0.42785479966551065,True,28,1
156K28S3,1224,experiment,89,→,right,→,0.5964387003332376,True,28,1
156K28S3,1225,experiment,103,←,left,←,0.6259889001958072,True,28,1
156K28S3,1226,experiment,85,→,right,→,0.6043273000977933,True,28,1
156K28S3,1227,experiment,76,→,right,→,0.826608999632299,True,28,1
156K28S3,1228,experiment,75,→,right,→,0.6243265997618437,True,28,1
156K28S3,1229,experiment,66,↓,down,↓,0.7129513998515904,True,28,1
156K28S3,1230,experiment,63,↑,up,↑,0.527025599963963,True,28,1
156K28S3,1231,experiment,98,→,left,←,0.6171247996389866,False,28,1
156K28S3,1232,experiment,99,↓,down,↓,0.5911528998985887,True,28,1
156K28S3,1233,experiment,58,↑,up,↑,0.5078877001069486,True,28,1
156K28S3,1234,experiment,49,↓,down,↓,0.6311232000589371,True,28,1
156K28S3,1235,experiment,70,↑,up,↑,0.7500511999242008,True,28,1
156K28S3,1236,experiment,87,→,right,→,0.6267698998562992,True,28,1
156K28S3,1237,experiment,51,←,left,←,0.672478100284934,True,28,1
156K28S3,1238,training,100,→,right,→,0.41506730020046234,True,28,0
156K28S3,1239,training,100,↑,up,↑,0.49233319982886314,True,28,1
156K28S3,1240,experiment,85,←,left,←,0.6437860000878572,True,28,1
156K28S3,1241,experiment,104,→,right,→,0.4474196000955999,True,28,1
156K28S3,1242,experiment,77,←,left,←,0.8192844996228814,True,28,1
156K28S3,1243,experiment,50,↑,up,↑,0.5296753998845816,True,28,1
156K28S3,1244,experiment,65,↑,up,↑,0.478749199770391,True,28,1
156K28S3,1245,experiment,57,↓,down,↓,0.5765463998541236,True,28,1
156K28S3,1246,experiment,62,→,right,→,0.5650106999091804,True,28,1
156K28S3,1247,experiment,64,↓,up,↑,0.624662899877876,False,28,1
156K28S3,1248,experiment,63,→,right,→,0.5220878999680281,True,28,1
156K28S3,1249,experiment,78,←,left,←,0.6828068001195788,True,28,1
156K28S3,1250,experiment,91,←,right,→,0.7450229995884001,False,28,1
156K28S3,1251,experiment,71,→,right,→,0.5634243004024029,True,28,1
156K28S3,1252,experiment,103,→,right,→,0.5379972001537681,True,28,1
156K28S3,1253,experiment,72,→,right,→,0.644692599773407,True,28,1
156K28S3,1254,experiment,107,↑,up,↑,0.6551629002206028,True,28,1
156K28S3,1255,experiment,84,←,left,←,0.4801074001006782,True,28,1
156K28S3,1256,experiment,79,←,right,→,0.5300964000634849,False,28,1
156K28S3,1257,experiment,101,↑,up,↑,0.5309450998902321,True,28,1
156K28S3,1258,experiment,89,←,left,←,0.6155726001597941,True,28,1
156K28S3,1259,experiment,83,↑,up,↑,0.7390711000189185,True,28,1
156K28S3,1260,experiment,75,→,right,→,0.5079977000132203,True,28,1
156K28S3,1261,experiment,69,↓,down,↓,0.6164175998419523,True,28,1
156K28S3,1262,experiment,54,←,left,←,0.5497447000816464,True,28,1
156K28S3,1263,experiment,52,←,left,←,0.534238999709487,True,28,1
156K28S3,1264,experiment,96,↑,down,↓,0.6325226002372801,False,28,1
156K28S3,1265,experiment,73,←,left,←,0.6783622000366449,True,28,1
156K28S3,1266,experiment,59,←,left,←,0.5117227002047002,True,28,1
156K28S3,1267,experiment,76,↓,down,↓,0.5777847999706864,True,28,1
156K28S3,1268,experiment,108,→,right,→,0.7345428001135588,True,28,1
156K28S3,1269,experiment,99,↑,up,↑,0.5755894999019802,True,28,1
156K28S3,1270,experiment,98,→,right,→,0.5517325000837445,True,28,1
156K28S3,1271,experiment,97,←,left,←,0.4971796004101634,True,28,1
156K28S3,1272,experiment,58,↑,up,↑,0.7454917998984456,True,28,1
156K28S3,1273,experiment,67,↓,down,↓,0.5968478000722826,True,28,1
156K28S3,1274,experiment,100,→,right,→,0.7394090001471341,True,28,1
156K28S3,1275,experiment,66,→,right,→,0.5273481998592615,True,28,1
156K28S3,1276,experiment,86,→,right,→,0.42144619999453425,True,28,1
156K28S3,1277,experiment,95,↑,up,↑,0.508527500089258,True,28,1
156K28S3,1278,experiment,88,↓,down,↓,0.5146357999183238,True,28,1
156K28S3,1279,experiment,87,↑,up,↑,0.4090785002335906,True,28,1
156K28S3,1280,experiment,48,←,left,←,0.49592369981110096,True,28,1
156K28S3,1281,experiment,61,↓,down,↓,0.6076759998686612,True,28,1
156K28S3,1282,experiment,90,→,right,→,0.40872259996831417,True,28,1
156K28S3,1283,experiment,80,↑,up,↑,0.4295536996796727,True,28,1
156K28S3,1284,experiment,60,↓,down,↓,0.6162474998272955,True,28,1
156K28S3,1285,experiment,106,↓,up,↑,0.6518763997592032,False,28,1
156K28S3,1286,experiment,81,→,right,→,0.526306000072509,True,28,1
156K28S3,1287,experiment,70,→,right,→,0.6017110999673605,True,28,1
156K28S3,1288,experiment,49,←,left,←,0.6332115000113845,True,28,1
156K28S3,1289,experiment,55,→,left,←,0.7175277001224458,False,28,1
156K28S3,1290,experiment,94,↓,down,↓,0.5209015998989344,True,28,1
156K28S3,1291,experiment,68,↑,up,↑,0.5331827001646161,True,28,1
156K28S3,1292,experiment,53,↑,up,↑,0.4217639002017677,True,28,1
156K28S3,1293,experiment,93,←,left,←,0.4540598001331091,True,28,1
156K28S3,1294,experiment,74,↑,down,↓,0.6023043999448419,False,28,1
156K28S3,1295,experiment,105,↓,down,↓,0.5591930001974106,True,28,1
156K28S3,1296,experiment,51,→,right,→,0.5113725000992417,True,28,1
156K28S3,1297,experiment,92,↓,down,↓,0.6040878002531826,True,28,1
156K28S3,1298,experiment,102,↑,up,↑,0.6094737998209894,True,28,1
156K28S3,1299,experiment,56,→,left,←,0.5181177002377808,False,28,1
156K28S3,1300,experiment,82,←,left,←,0.45394269982352853,True,28,1
156K28S3,1301,training,61,→,right,→,0.4333057999610901,True,28,0
156K28S3,1302,training,65,↑,up,↑,0.6658162004314363,True,28,1
156K28S3,1303,experiment,108,↓,down,↓,0.6667844001203775,True,28,1
156K28S3,1304,experiment,53,↓,right,→,0.742291800212115,False,28,1
156K28S3,1305,experiment,77,↓,down,↓,0.6148401000536978,True,28,1
156K28S3,1306,experiment,98,←,right,→,0.5812446000054479,False,28,1
156K28S3,1307,experiment,101,→,right,→,0.4998666997998953,True,28,1
156K28S3,1308,experiment,55,↓,down,↓,0.541073499713093,True,28,1
156K28S3,1309,experiment,96,↓,down,↓,0.4871516996063292,True,28,1
156K28S3,1310,experiment,89,↓,down,↓,0.6303770001977682,True,28,1
156K28S3,1311,experiment,107,↓,down,↓,0.512476300355047,True,28,1
156K28S3,1312,experiment,56,→,left,←,0.8256462998688221,False,28,1
156K28S3,1313,experiment,81,↑,up,↑,0.5567439999431372,True,28,1
156K28S3,1314,experiment,71,→,left,←,0.5983706996776164,False,28,1
156K28S3,1315,experiment,88,←,left,←,0.5291702002286911,True,28,1
156K28S3,1316,experiment,87,←,left,←,0.5989199997857213,True,28,1
156K28S3,1317,experiment,80,←,left,←,0.6196568002924323,True,28,1
156K28S3,1318,experiment,52,↓,down,↓,0.6254425998777151,True,28,1
156K28S3,1319,experiment,58,↑,down,↓,0.6769925998523831,False,28,1
156K28S3,1320,experiment,70,↑,up,↑,0.522138400003314,True,28,1
156K28S3,1321,experiment,84,↓,down,↓,0.5771527998149395,True,28,1
156K28S3,1322,experiment,67,↓,down,↓,0.483283500187099,True,28,1
156K28S3,1323,experiment,100,↑,down,↓,0.574335899669677,False,28,1
156K28S3,1324,experiment,49,↓,down,↓,0.5514496001414955,True,28,1
156K28S3,1325,experiment,99,↓,down,↓,0.43948120018467307,True,28,1
156K28S3,1326,experiment,79,→,right,→,0.8432447002269328,True,28,1
156K28S3,1327,experiment,105,↓,down,↓,0.47053899988532066,True,28,1
156K28S3,1328,experiment,66,↓,down,↓,0.5495582995936275,True,28,1
156K28S3,1329,experiment,106,↑,down,↓,0.6679988000541925,False,28,1
156K28S3,1330,experiment,93,→,right,→,0.7856221999973059,True,28,1
156K28S3,1331,experiment,94,↓,right,→,0.7869175001978874,False,28,1
156K28S3,1332,experiment,92,↑,up,↑,0.5324217998422682,True,28,1
156K28S3,1333,experiment,103,↑,up,↑,0.548567199613899,True,28,1
156K28S3,1334,experiment,51,→,right,→,0.47785010002553463,True,28,1
156K28S3,1335,experiment,62,↓,down,↓,0.5732718999497592,True,28,1
156K28S3,1336,experiment,57,↑,up,↑,0.5232432000339031,True,28,1
156K28S3,1337,experiment,78,→,right,→,0.7317858999595046,True,28,1
156K28S3,1338,experiment,63,↑,up,↑,0.7372174998745322,True,28,1
156K28S3,1339,experiment,75,↑,up,↑,0.5066065001301467,True,28,1
156K28S3,1340,experiment,65,←,left,←,0.689015899784863,True,28,1
156K28S3,1341,experiment,86,←,left,←,0.5200759996660054,True,28,1
156K28S3,1342,experiment,72,←,left,←,0.5870996997691691,True,28,1
156K28S3,1343,experiment,64,↓,down,↓,0.541918100323528,True,28,1
156K28S3,1344,experiment,104,↑,up,↑,0.42941860016435385,True,28,1
156K28S3,1345,experiment,69,→,right,→,0.5567626999691129,True,28,1
156K28S3,1346,experiment,85,←,right,→,0.5618871003389359,False,28,1
156K28S3,1347,experiment,74,→,right,→,0.5223977002315223,True,28,1
156K28S3,1348,experiment,102,←,left,←,0.6113996999338269,True,28,1
156K28S3,1349,experiment,48,↑,up,↑,0.6667911997064948,True,28,1
156K28S3,1350,experiment,50,↓,down,↓,0.5830475999973714,True,28,1
156K28S3,1351,experiment,60,↓,down,↓,0.6274721999652684,True,28,1
156K28S3,1352,experiment,61,↑,up,↑,0.4537875996902585,True,28,1
156K28S3,1353,experiment,97,→,right,→,0.36667050002142787,True,28,1
156K28S3,1354,experiment,82,↑,up,↑,0.4088453999720514,True,28,0
156K28S3,1355,experiment,59,↓,up,↑,0.5558019997552037,False,28,1
156K28S3,1356,experiment,83,→,right,→,0.44165890011936426,True,28,1
156K28S3,1357,experiment,68,→,left,←,0.49695609975606203,False,28,1
156K28S3,1358,experiment,90,↑,up,↑,0.49451979994773865,True,28,1
156K28S3,1359,experiment,76,→,right,→,0.9374616001732647,True,28,1
156K28S3,1360,experiment,73,←,left,←,0.47492629988119006,True,28,1
156K28S3,1361,experiment,95,→,right,→,0.5600602002814412,True,28,1
156K28S3,1362,experiment,54,→,right,→,0.6795899998396635,True,28,1
156K28S3,1363,experiment,91,→,right,→,0.45382210006937385,True,28,1
156K28S3,1364,training,101,↓,down,↓,0.6052689999341965,True,28,0
156K28S3,1365,training,58,→,right,→,0.41698959982022643,True,28,1
156K28S3,1366,experiment,77,↓,down,↓,0.7023638999089599,True,28,1
156K28S3,1367,experiment,54,→,right,→,0.41583209997043014,True,28,1
156K28S3,1368,experiment,61,↑,down,↓,0.5546631002798676,False,28,1
156K28S3,1369,experiment,64,→,right,→,0.5673776003532112,True,28,1
156K28S3,1370,experiment,99,→,right,→,0.38381809974089265,True,28,1
156K28S3,1371,experiment,87,←,left,←,0.473798300139606,True,28,0
156K28S3,1372,experiment,52,↑,up,↑,0.7492300998419523,True,28,1
156K28S3,1373,experiment,49,→,right,→,0.5426799999549985,True,28,1
156K28S3,1374,experiment,107,↓,down,↓,0.7172869998030365,True,28,1
156K28S3,1375,experiment,69,→,right,→,0.6013857997022569,True,28,1
156K28S3,1376,experiment,102,→,right,→,0.4946932001039386,True,28,1
156K28S3,1377,experiment,58,←,left,←,0.5598096000030637,True,28,1
156K28S3,1378,experiment,66,←,left,←,0.5550468997098505,True,28,1
156K28S3,1379,experiment,67,←,left,←,0.446027799975127,True,28,1
156K28S3,1380,experiment,72,↑,down,↓,0.5957570997998118,False,28,1
156K28S3,1381,experiment,55,↓,down,↓,0.5614608996547759,True,28,1
156K28S3,1382,experiment,86,←,left,←,0.5259501999244094,True,28,1
156K28S3,1383,experiment,65,↑,up,↑,0.4430313999764621,True,28,1
156K28S3,1384,experiment,51,←,left,←,1.0961583000607789,True,28,1
156K28S3,1385,experiment,70,→,right,→,0.4285854999907315,True,28,1
156K28S3,1386,experiment,95,→,right,→,0.6276328000240028,True,28,1
156K28S3,1387,experiment,71,↓,down,↓,0.40303320018574595,True,28,1
156K28S3,1388,experiment,78,←,down,↓,0.6800189996138215,False,28,1
156K28S3,1389,experiment,93,↑,down,↓,0.7174455998465419,False,28,1
156K28S3,1390,experiment,82,→,right,→,0.46104760002344847,True,28,1
156K28S3,1391,experiment,73,↓,down,↓,0.49017619993537664,True,28,1
156K28S3,1392,experiment,91,↓,down,↓,0.5122903999872506,True,28,1
156K28S3,1393,experiment,79,↓,down,↓,0.44931000005453825,True,28,1
156K28S3,1394,experiment,56,←,left,←,0.37596500013023615,True,28,1
156K28S3,1395,experiment,101,↑,up,↑,0.9631031998433173,True,28,0
156K28S3,1396,experiment,84,↑,up,↑,0.7124760998412967,True,28,1
156K28S3,1397,experiment,81,←,left,←,0.6001594001427293,True,28,1
156K28S3,1398,experiment,63,←,left,←,0.450861900113523,True,28,1
156K28S3,1399,experiment,108,↓,down,↓,0.35004210006445646,True,28,1
156K28S3,1400,experiment,98,←,left,←,0.42138110008090734,True,28,0
156K28S3,1401,experiment,62,→,up,↑,0.7674253000877798,False,28,1
156K28S3,1402,experiment,80,↑,up,↑,0.4859926998615265,True,28,1
156K28S3,1403,experiment,83,↑,down,↓,0.6305980999022722,False,28,1
156K28S3,1404,experiment,57,↑,down,↓,0.6580229001119733,False,28,1
156K28S3,1405,experiment,92,↑,up,↑,0.4649710999801755,True,28,1
156K28S3,1406,experiment,106,←,up,↑,0.5543534001335502,False,28,1
156K28S3,1407,experiment,89,↓,down,↓,0.6620959001593292,True,28,1
156K28S3,1408,experiment,103,↓,down,↓,0.7692159004509449,True,28,1
156K28S3,1409,experiment,105,→,down,↓,0.7510555000044405,False,28,1
156K28S3,1410,experiment,97,→,right,→,0.6246720002964139,True,28,1
156K28S3,1411,experiment,85,→,right,→,0.5313205001875758,True,28,1
156K28S3,1412,experiment,88,↑,up,↑,0.4007041002623737,True,28,1
156K28S3,1413,experiment,104,↓,down,↓,0.6368122999556363,True,28,0
156K28S3,1414,experiment,75,→,down,↓,0.7381310998462141,False,28,1
156K28S3,1415,experiment,68,↓,down,↓,0.5977341998368502,True,28,1
156K28S3,1416,experiment,60,↑,down,↓,0.5931728999130428,False,28,1
156K28S3,1417,experiment,48,←,left,←,0.6173247997649014,True,28,1
156K28S3,1418,experiment,74,←,left,←,0.6160201001912355,True,28,1
156K28S3,1419,experiment,96,←,left,←,0.4306740998290479,True,28,1
156K28S3,1420,experiment,76,↑,up,↑,0.4042580001987517,True,28,1
156K28S3,1421,experiment,50,↑,up,↑,0.4032544996589422,True,28,0
156K28S3,1422,experiment,53,↓,down,↓,0.5203529000282288,True,28,1
156K28S3,1423,experiment,94,→,right,→,0.9400989999994636,True,28,1
156K28S3,1424,experiment,59,→,right,→,1.042049600277096,True,28,1
156K28S3,1425,experiment,100,→,right,→,0.40760620031505823,True,28,1
156K28S3,1426,experiment,90,↑,up,↑,0.41607999987900257,True,28,1
156K28S3,1427,training,79,↓,down,↓,0.6504747001454234,True,28,0
156K28S3,1428,training,79,←,left,←,0.4381234999746084,True,28,1
156K28S3,1429,experiment,103,→,right,→,0.5536136003211141,True,28,1
156K28S3,1430,experiment,67,↑,up,↑,0.5807436001487076,True,28,1
156K28S3,1431,experiment,52,→,left,←,0.6674756999127567,False,28,1
156K28S3,1432,experiment,53,→,right,→,0.5273020998574793,True,28,1
156K28S3,1433,experiment,77,←,left,←,0.47995289973914623,True,28,1
156K28S3,1434,experiment,63,↓,down,↓,0.6316635999828577,True,28,1
156K28S3,1435,experiment,89,←,left,←,0.8081282000057399,True,28,1
156K28S3,1436,experiment,92,←,left,←,0.7450286000967026,True,28,1
156K28S3,1437,experiment,78,↓,down,↓,0.6011601998470724,True,28,1
156K28S3,1438,experiment,85,←,left,←,0.5081885997205973,True,28,1
156K28S3,1439,experiment,50,↓,down,↓,0.5750907999463379,True,28,1
156K28S3,1440,experiment,81,←,left,←,0.5727299996651709,True,28,1
156K28S3,1441,experiment,48,→,right,→,0.5574909001588821,True,28,1
156K28S3,1442,experiment,54,→,right,→,0.645225299987942,True,28,1
156K28S3,1443,experiment,55,↑,up,↑,0.6407711999490857,True,28,1
156K28S3,1444,experiment,108,←,left,←,0.5627129003405571,True,28,1
156K28S3,1445,experiment,87,←,left,←,0.5270511000417173,True,28,1
156K28S3,1446,experiment,101,↓,down,↓,0.4960810001939535,True,28,1
156K28S3,1447,experiment,73,↓,down,↓,0.4678527000360191,True,28,1
156K28S3,1448,experiment,82,↑,up,↑,0.701698699966073,True,28,1
156K28S3,1449,experiment,74,↑,up,↑,0.6566903996281326,True,28,1
156K28S3,1450,experiment,98,↓,down,↓,0.5015134001150727,True,28,1
156K28S3,1451,experiment,106,↓,down,↓,0.5259066000580788,True,28,1
156K28S3,1452,experiment,107,↑,up,↑,0.6690414003096521,True,28,1
156K28S3,1453,experiment,88,←,left,←,0.49242989998310804,True,28,1
156K28S3,1454,experiment,83,→,right,→,0.8212871998548508,True,28,1
156K28S3,1455,experiment,61,←,left,←,0.5274084997363389,True,28,1
156K28S3,1456,experiment,58,↑,up,↑,0.48714559990912676,True,28,1
156K28S3,1457,experiment,68,↑,up,↑,0.6130834999494255,True,28,1
156K28S3,1458,experiment,95,←,left,←,0.5880093001760542,True,28,1
156K28S3,1459,experiment,75,↑,up,↑,0.562960899900645,True,28,1
156K28S3,1460,experiment,90,←,left,←,0.5661210999824107,True,28,1
156K28S3,1461,experiment,76,↓,up,↑,0.525821499992162,False,28,1
156K28S3,1462,experiment,79,↓,down,↓,0.4305243999697268,True,28,1
156K28S3,1463,experiment,62,↓,down,↓,0.7362043000757694,True,28,1
156K28S3,1464,experiment,100,←,left,←,0.43269219994544983,True,28,1
156K28S3,1465,experiment,57,↑,up,↑,0.660226000007242,True,28,1
156K28S3,1466,experiment,94,↓,down,↓,0.5142658003605902,True,28,1
156K28S3,1467,experiment,102,→,right,→,0.3840178004465997,True,28,1
156K28S3,1468,experiment,72,↑,up,↑,0.4354365998879075,True,28,0
156K28S3,1469,experiment,93,↑,up,↑,1.0908697000704706,True,28,1
156K28S3,1470,experiment,70,↑,down,↓,0.6801100000739098,False,28,1
156K28S3,1471,experiment,69,←,up,↑,0.6531219999305904,False,28,1
156K28S3,1472,experiment,59,↓,down,↓,0.4389952002093196,True,28,1
156K28S3,1473,experiment,56,←,left,←,0.9544351999647915,True,28,1
156K28S3,1474,experiment,65,←,left,←,0.7905219998210669,True,28,1
156K28S3,1475,experiment,84,↑,up,↑,0.7225079000927508,True,28,1
156K28S3,1476,experiment,66,↑,up,↑,0.5271501997485757,True,28,1
156K28S3,1477,experiment,104,→,right,→,0.4638665998354554,True,28,1
156K28S3,1478,experiment,64,→,right,→,0.4552449998445809,True,28,1
156K28S3,1479,experiment,80,↑,up,↑,0.594289599917829,True,28,1
156K28S3,1480,experiment,91,↑,up,↑,0.4358160998672247,True,28,1
156K28S3,1481,experiment,86,↓,up,↑,0.5255300998687744,False,28,1
156K28S3,1482,experiment,49,←,left,←,0.5359486998058856,True,28,1
156K28S3,1483,experiment,96,→,right,→,0.5302285999059677,True,28,1
156K28S3,1484,experiment,97,→,left,←,0.5163103002123535,False,28,1
156K28S3,1485,experiment,51,←,left,←,0.5985004003159702,True,28,1
