PART_ID,Trial_no,Trial_type,CSI,Stim_letter,Key_pressed,letter_choose,Rt,Corr,Stimulus Time,nDropped
158K23S3,1,training,120,↓,right,→,1.2891081999987364,False,60,2
158K23S3,2,training,120,↑,up,↑,0.6926575996913016,True,60,0
158K23S3,3,training,120,→,right,→,1.5674128998070955,True,60,0
158K23S3,4,training,120,↓,down,↓,0.5670892996713519,True,60,0
158K23S3,5,training,120,↑,up,↑,0.8238719999790192,True,60,0
158K23S3,6,training,120,→,right,→,0.8140710000880063,True,60,0
158K23S3,7,training,120,←,left,←,0.7331489999778569,True,60,0
158K23S3,8,training,120,←,left,←,0.6424711998552084,True,60,0
158K23S3,9,training,120,→,right,→,1.3151647001504898,True,60,0
158K23S3,10,training,120,→,right,→,1.1816278002224863,True,60,0
158K23S3,11,training,120,↑,up,↑,1.5014893999323249,True,60,0
158K23S3,12,training,120,↑,up,↑,1.128561600111425,True,60,0
158K23S3,13,training,120,→,left,←,1.8900005002506077,False,60,0
158K23S3,14,training,120,↑,up,↑,0.8456906001083553,True,60,0
158K23S3,15,training,120,←,left,←,1.5544599001295865,True,60,0
158K23S3,16,training,120,→,right,→,0.7073784000240266,True,60,0
158K23S3,17,training,120,↑,up,↑,0.5919151003472507,True,60,0
158K23S3,18,training,120,←,left,←,0.6007552999071777,True,60,0
158K23S3,19,training,120,←,right,→,1.3559073000214994,False,60,0
158K23S3,20,training,120,↑,up,↑,0.7964431000873446,True,60,0
158K23S3,21,no_adaptation,120,←,left,←,0.5998716996982694,True,36,0
158K23S3,22,no_adaptation,120,↑,up,↑,0.5754090999253094,True,36,0
158K23S3,23,no_adaptation,120,↑,up,↑,0.7589708999730647,True,36,0
158K23S3,24,no_adaptation,120,↓,down,↓,0.728023000061512,True,36,0
158K23S3,25,no_adaptation,120,→,right,→,0.7536642998456955,True,36,0
158K23S3,26,no_adaptation,120,↓,down,↓,0.7309983000159264,True,36,0
158K23S3,27,no_adaptation,120,→,right,→,0.6847824002616107,True,36,0
158K23S3,28,no_adaptation,120,→,right,→,0.75243049999699,True,36,0
158K23S3,29,no_adaptation,120,→,right,→,0.593075199984014,True,36,0
158K23S3,30,no_adaptation,120,→,right,→,0.6481984001584351,True,36,0
158K23S3,31,no_adaptation,120,↑,down,↓,0.6533992001786828,False,36,0
158K23S3,32,no_adaptation,120,↓,down,↓,0.5782102001830935,True,36,0
158K23S3,33,no_adaptation,120,↓,down,↓,0.6504645999521017,True,36,0
158K23S3,34,no_adaptation,120,↓,down,↓,0.4954836000688374,True,36,0
158K23S3,35,no_adaptation,120,→,right,→,0.6104709999635816,True,36,0
158K23S3,36,no_adaptation,120,←,right,→,0.6409102999605238,False,36,0
158K23S3,37,no_adaptation,120,→,right,→,0.4713960001245141,True,36,0
158K23S3,38,no_adaptation,120,↑,up,↑,0.5703787999227643,True,36,0
158K23S3,39,no_adaptation,120,↓,down,↓,0.5865156999789178,True,36,0
158K23S3,40,no_adaptation,120,↑,no_key,no_letter,-1.0,False,36,0
158K23S3,41,training,61,↓,down,↓,0.5460788998752832,True,36,0
158K23S3,42,training,51,→,right,→,0.9471247997134924,True,36,1
158K23S3,43,experiment,59,→,right,→,1.1528566000051796,True,36,1
158K23S3,44,experiment,90,→,right,→,1.084752299822867,True,36,1
158K23S3,45,experiment,50,↓,down,↓,1.1844061999581754,True,36,1
158K23S3,46,experiment,67,↓,down,↓,0.9385521002113819,True,36,1
158K23S3,47,experiment,55,↓,down,↓,1.058160699903965,True,36,1
158K23S3,48,experiment,74,←,left,←,1.1752090002410114,True,36,1
158K23S3,49,experiment,48,↓,down,↓,0.8798385001718998,True,36,1
158K23S3,50,experiment,73,→,right,→,0.7958957999944687,True,36,1
158K23S3,51,experiment,70,→,right,→,1.2042490001767874,True,36,1
158K23S3,52,experiment,80,↑,up,↑,0.9209278002381325,True,36,1
158K23S3,53,experiment,65,→,right,→,1.2700808998197317,True,36,1
158K23S3,54,experiment,81,↓,down,↓,0.9200083999894559,True,36,1
158K23S3,55,experiment,97,←,left,←,0.8425091002136469,True,36,1
158K23S3,56,experiment,51,←,left,←,0.9916477999649942,True,36,1
158K23S3,57,experiment,92,↑,up,↑,0.8409625999629498,True,36,1
158K23S3,58,experiment,78,↓,down,↓,0.7569364001974463,True,36,1
158K23S3,59,experiment,60,↑,up,↑,1.2347382996231318,True,36,1
158K23S3,60,experiment,103,↑,up,↑,0.8866201001219451,True,36,1
158K23S3,61,experiment,63,←,left,←,0.7339121997356415,True,36,1
158K23S3,62,experiment,64,→,right,→,1.0669948002323508,True,36,1
158K23S3,63,experiment,77,↑,up,↑,0.8059741999022663,True,36,1
158K23S3,64,experiment,66,↑,up,↑,0.8314754003658891,True,36,1
158K23S3,65,experiment,71,↑,up,↑,0.8622658997774124,True,36,1
158K23S3,66,experiment,57,↑,up,↑,0.8885611002333462,True,36,1
158K23S3,67,experiment,52,↓,down,↓,0.835203199647367,True,36,1
158K23S3,68,experiment,102,→,right,→,0.6155183999799192,True,36,1
158K23S3,69,experiment,49,→,right,→,0.8624859000556171,True,36,1
158K23S3,70,experiment,100,↑,up,↑,0.6899995999410748,True,36,1
158K23S3,71,experiment,79,→,right,→,0.7076221001334488,True,36,1
158K23S3,72,experiment,87,→,right,→,0.9140208000317216,True,36,1
158K23S3,73,experiment,54,↓,down,↓,0.7711045001633465,True,36,1
158K23S3,74,experiment,98,←,left,←,0.6671214001253247,True,36,1
158K23S3,75,experiment,91,↓,down,↓,0.6980800996534526,True,36,1
158K23S3,76,experiment,61,↑,up,↑,0.8091832003556192,True,36,1
158K23S3,77,experiment,72,↑,up,↑,0.7524593002162874,True,36,1
158K23S3,78,experiment,93,↑,up,↑,0.7952546002343297,True,36,1
158K23S3,79,experiment,58,↑,up,↑,0.9360410999506712,True,36,1
158K23S3,80,experiment,88,↑,up,↑,0.7410194003023207,True,36,1
158K23S3,81,experiment,101,←,left,←,0.6053257999010384,True,36,1
158K23S3,82,experiment,56,↓,down,↓,0.818028399720788,True,36,1
158K23S3,83,experiment,99,↑,up,↑,0.8162299999967217,True,36,1
158K23S3,84,experiment,75,↑,down,↓,0.8463115002959967,False,36,1
158K23S3,85,experiment,107,↑,up,↑,0.7687244997359812,True,36,1
158K23S3,86,experiment,89,→,right,→,0.6117551000788808,True,36,1
158K23S3,87,experiment,94,↑,up,↑,0.8681881995871663,True,36,1
158K23S3,88,experiment,96,↑,up,↑,0.8968389998190105,True,36,1
158K23S3,89,experiment,53,←,left,←,0.9073112001642585,True,36,1
158K23S3,90,experiment,108,←,left,←,0.7863436001352966,True,36,1
158K23S3,91,experiment,106,←,left,←,0.6230991999618709,True,36,1
158K23S3,92,experiment,62,↓,down,↓,0.7693920000456274,True,36,1
158K23S3,93,experiment,86,→,right,→,0.653666699770838,True,36,1
158K23S3,94,experiment,85,↓,down,↓,0.7589292000047863,True,36,1
158K23S3,95,experiment,104,↓,down,↓,0.7580367000773549,True,36,1
158K23S3,96,experiment,76,↑,up,↑,0.7896924996748567,True,36,1
158K23S3,97,experiment,95,↑,up,↑,0.6462451000697911,True,36,1
158K23S3,98,experiment,83,→,right,→,0.9520507999695837,True,36,1
158K23S3,99,experiment,84,←,left,←,0.8297369000501931,True,36,1
158K23S3,100,experiment,82,→,right,→,0.7128788996487856,True,36,1
158K23S3,101,experiment,68,↓,down,↓,0.7010614997707307,True,36,1
158K23S3,102,experiment,69,↑,up,↑,0.7538928999565542,True,36,1
158K23S3,103,experiment,105,→,right,→,0.7042254996486008,True,36,1
158K23S3,104,training,93,←,left,←,0.5854051997885108,True,35,0
158K23S3,105,training,84,←,left,←,0.6135660000145435,True,35,1
158K23S3,106,experiment,87,↓,down,↓,1.0240173996426165,True,35,1
158K23S3,107,experiment,97,←,left,←,0.8463178998790681,True,35,1
158K23S3,108,experiment,83,←,left,←,0.7844577003270388,True,35,1
158K23S3,109,experiment,90,←,left,←,0.9466634001582861,True,35,1
158K23S3,110,experiment,57,↓,down,↓,0.8814292000606656,True,35,1
158K23S3,111,experiment,88,↓,down,↓,0.8007411998696625,True,35,1
158K23S3,112,experiment,98,↓,down,↓,0.871380599681288,True,35,1
158K23S3,113,experiment,104,↑,up,↑,0.7293441998772323,True,35,1
158K23S3,114,experiment,106,↓,left,←,1.9046533000655472,False,35,1
158K23S3,115,experiment,94,→,right,→,0.7802784000523388,True,35,1
158K23S3,116,experiment,51,↑,up,↑,1.1000051000155509,True,35,1
158K23S3,117,experiment,70,↑,up,↑,0.8719501998275518,True,35,1
158K23S3,118,experiment,64,→,right,→,0.7117409999482334,True,35,1
158K23S3,119,experiment,95,↓,down,↓,0.7872524000704288,True,35,1
158K23S3,120,experiment,50,↑,up,↑,0.8506974000483751,True,35,1
158K23S3,121,experiment,54,←,right,→,0.7825286998413503,False,35,1
158K23S3,122,experiment,86,↓,down,↓,0.7461140998639166,True,35,1
158K23S3,123,experiment,91,↑,up,↑,0.7414242997765541,True,35,1
158K23S3,124,experiment,108,↑,up,↑,0.875462600030005,True,35,1
158K23S3,125,experiment,84,→,right,→,1.0043684002012014,True,35,1
158K23S3,126,experiment,78,←,left,←,0.7055318001657724,True,35,1
158K23S3,127,experiment,93,↓,down,↓,0.6700349999591708,True,35,1
158K23S3,128,experiment,49,↑,up,↑,0.8345945999026299,True,35,1
158K23S3,129,experiment,102,←,left,←,0.6870112000033259,True,35,1
158K23S3,130,experiment,61,←,left,←,0.8870770996436477,True,35,1
158K23S3,131,experiment,52,←,left,←,0.9461508002132177,True,35,1
158K23S3,132,experiment,55,←,left,←,0.7538073998875916,True,35,1
158K23S3,133,experiment,59,←,left,←,0.6558904000557959,True,35,1
158K23S3,134,experiment,73,↓,down,↓,0.7649010997265577,True,35,1
158K23S3,135,experiment,82,↑,up,↑,0.8826393000781536,True,35,1
158K23S3,136,experiment,71,↑,up,↑,0.9033216000534594,True,35,1
158K23S3,137,experiment,89,↑,up,↑,0.773469400126487,True,35,1
158K23S3,138,experiment,65,↑,up,↑,0.7362863002344966,True,35,1
158K23S3,139,experiment,105,↑,up,↑,0.7756430003792048,True,35,1
158K23S3,140,experiment,56,↑,up,↑,0.8537778002209961,True,35,1
158K23S3,141,experiment,77,↓,down,↓,0.7375030000694096,True,35,1
158K23S3,142,experiment,103,→,right,→,0.6733261998742819,True,35,1
158K23S3,143,experiment,63,→,right,→,0.833060699980706,True,35,1
158K23S3,144,experiment,53,↓,down,↓,0.8055423996411264,True,35,1
158K23S3,145,experiment,80,↑,up,↑,0.754296800121665,True,35,1
158K23S3,146,experiment,79,↑,up,↑,0.7062663999386132,True,35,1
158K23S3,147,experiment,68,←,left,←,0.6703273998573422,True,35,1
158K23S3,148,experiment,58,↑,up,↑,0.7037799996323884,True,35,1
158K23S3,149,experiment,76,↓,down,↓,0.7778082001022995,True,35,1
158K23S3,150,experiment,75,→,right,→,0.8816277999430895,True,35,1
158K23S3,151,experiment,74,↓,down,↓,0.7812683000229299,True,35,1
158K23S3,152,experiment,66,↑,up,↑,0.6635883003473282,True,35,1
158K23S3,153,experiment,96,↑,up,↑,0.8205781001597643,True,35,1
158K23S3,154,experiment,107,↓,down,↓,0.9516368000768125,True,35,1
158K23S3,155,experiment,100,↑,up,↑,0.8878828003071249,True,35,1
158K23S3,156,experiment,81,←,left,←,1.032935299910605,True,35,1
158K23S3,157,experiment,62,←,left,←,0.9224753002636135,True,35,1
158K23S3,158,experiment,85,→,right,→,0.8729245001450181,True,35,1
158K23S3,159,experiment,48,→,left,←,1.26968829985708,False,35,1
158K23S3,160,experiment,101,→,right,→,0.7452321997843683,True,35,1
158K23S3,161,experiment,67,←,left,←,0.7565757003612816,True,35,1
158K23S3,162,experiment,69,←,left,←,0.7751893997192383,True,35,1
158K23S3,163,experiment,72,↓,down,↓,0.7515958002768457,True,35,1
158K23S3,164,experiment,99,↓,down,↓,0.6806264999322593,True,35,1
158K23S3,165,experiment,60,←,left,←,0.7528277998790145,True,35,1
158K23S3,166,experiment,92,→,right,→,0.7244506999850273,True,35,1
158K23S3,167,training,76,↑,up,↑,0.7377928998321295,True,34,0
158K23S3,168,training,58,→,right,→,0.8966861004009843,True,34,1
158K23S3,169,experiment,56,←,left,←,1.0014937003143132,True,34,1
158K23S3,170,experiment,52,↑,up,↑,1.0717898001894355,True,34,1
158K23S3,171,experiment,59,↑,up,↑,1.0172214997000992,True,34,1
158K23S3,172,experiment,81,↓,down,↓,0.8773343004286289,True,34,1
158K23S3,173,experiment,96,→,right,→,1.0258483001962304,True,34,1
158K23S3,174,experiment,95,→,right,→,0.896802700124681,True,34,1
158K23S3,175,experiment,71,→,right,→,1.2455148003064096,True,34,1
158K23S3,176,experiment,61,←,left,←,0.8151881000958383,True,34,1
158K23S3,177,experiment,57,←,left,←,0.8910178001970053,True,34,1
158K23S3,178,experiment,53,←,left,←,0.9174810000695288,True,34,1
158K23S3,179,experiment,51,↓,down,↓,0.7917491998523474,True,34,1
158K23S3,180,experiment,91,→,right,→,0.7052410999312997,True,34,1
158K23S3,181,experiment,77,→,right,→,0.7632275000214577,True,34,1
158K23S3,182,experiment,65,←,left,←,0.9664410999976099,True,34,1
158K23S3,183,experiment,62,↑,up,↑,0.7870126999914646,True,34,1
158K23S3,184,experiment,68,↑,up,↑,0.8927258001640439,True,34,1
158K23S3,185,experiment,73,←,left,←,0.7123159002512693,True,34,1
158K23S3,186,experiment,64,↓,down,↓,0.8859594999812543,True,34,1
158K23S3,187,experiment,70,↓,down,↓,0.8431975999847054,True,34,1
158K23S3,188,experiment,87,↓,down,↓,0.7642121999524534,True,34,1
158K23S3,189,experiment,93,↑,up,↑,0.6698933001607656,True,34,1
158K23S3,190,experiment,82,←,left,←,0.623575999867171,True,34,1
158K23S3,191,experiment,63,↑,up,↑,1.9137341999448836,True,34,1
158K23S3,192,experiment,104,↑,up,↑,0.7379176001995802,True,34,1
158K23S3,193,experiment,80,↑,up,↑,0.7455710000358522,True,34,1
158K23S3,194,experiment,103,←,left,←,1.21684949984774,True,34,1
158K23S3,195,experiment,58,←,left,←,0.8525455999188125,True,34,1
158K23S3,196,experiment,83,↓,down,↓,0.7906563999131322,True,34,1
158K23S3,197,experiment,84,→,right,→,0.6826605997048318,True,34,1
158K23S3,198,experiment,66,↓,down,↓,0.785085600335151,True,34,1
158K23S3,199,experiment,55,←,left,←,0.7910829000174999,True,34,1
158K23S3,200,experiment,101,←,left,←,0.6934446999803185,True,34,1
158K23S3,201,experiment,99,↑,up,↑,0.8248752001672983,True,34,1
158K23S3,202,experiment,88,→,right,→,0.6180380997247994,True,34,1
158K23S3,203,experiment,94,↑,up,↑,0.6735546002164483,True,34,1
158K23S3,204,experiment,48,←,left,←,0.7342066997662187,True,34,1
158K23S3,205,experiment,75,↓,down,↓,0.7598457001149654,True,34,1
158K23S3,206,experiment,107,←,left,←,0.653328999876976,True,34,1
158K23S3,207,experiment,98,↑,up,↑,0.5622926000505686,True,34,1
158K23S3,208,experiment,69,→,right,→,0.6365341995842755,True,34,1
158K23S3,209,experiment,85,↓,up,↑,0.830407100263983,False,34,1
158K23S3,210,experiment,78,↓,down,↓,0.7388729001395404,True,34,1
158K23S3,211,experiment,90,→,right,→,0.5988611001521349,True,34,1
158K23S3,212,experiment,72,←,left,←,0.7105920999310911,True,34,1
158K23S3,213,experiment,54,↓,down,↓,0.7518647997640073,True,34,1
158K23S3,214,experiment,76,←,left,←,0.6489030001685023,True,34,1
158K23S3,215,experiment,106,↑,up,↑,0.6587631003931165,True,34,1
158K23S3,216,experiment,86,↑,up,↑,0.6194409998133779,True,34,1
158K23S3,217,experiment,89,←,left,←,0.6210400001145899,True,34,1
158K23S3,218,experiment,60,↓,down,↓,0.8075379999354482,True,34,1
158K23S3,219,experiment,102,→,right,→,0.5888598002493382,True,34,1
158K23S3,220,experiment,79,→,right,→,1.4984993999823928,True,34,1
158K23S3,221,experiment,92,↑,up,↑,0.6154670002870262,True,34,1
158K23S3,222,experiment,67,→,right,→,0.7287303996272385,True,34,1
158K23S3,223,experiment,49,→,right,→,0.7387210000306368,True,34,1
158K23S3,224,experiment,105,→,right,→,0.46603469969704747,True,34,1
158K23S3,225,experiment,74,←,left,←,0.6785010998137295,True,34,1
158K23S3,226,experiment,50,↑,up,↑,0.6661962000653148,True,34,1
158K23S3,227,experiment,100,→,right,→,0.5341937998309731,True,34,1
158K23S3,228,experiment,97,→,right,→,0.4881464000791311,True,34,1
158K23S3,229,experiment,108,→,right,→,0.5681886002421379,True,34,1
158K23S3,230,training,55,←,left,←,0.6461904998868704,True,33,0
158K23S3,231,training,100,←,left,←,0.5306023000739515,True,33,1
158K23S3,232,experiment,51,→,right,→,0.7319621997885406,True,33,1
158K23S3,233,experiment,64,→,right,→,0.5690660998225212,True,33,1
158K23S3,234,experiment,48,↓,down,↓,0.658003699965775,True,33,1
158K23S3,235,experiment,62,←,left,←,0.618862499948591,True,33,1
158K23S3,236,experiment,63,↑,up,↑,0.6050853999331594,True,33,1
158K23S3,237,experiment,52,↑,up,↑,0.6033466998487711,True,33,1
158K23S3,238,experiment,90,↑,up,↑,0.4853054000996053,True,33,1
158K23S3,239,experiment,79,↑,up,↑,0.5032747001387179,True,33,1
158K23S3,240,experiment,99,→,right,→,0.6177675002254546,True,33,1
158K23S3,241,experiment,56,↓,down,↓,0.7502934001386166,True,33,1
158K23S3,242,experiment,72,→,right,→,0.5518755000084639,True,33,1
158K23S3,243,experiment,65,↑,up,↑,0.5323749003000557,True,33,1
158K23S3,244,experiment,98,←,left,←,0.6620480003766716,True,33,1
158K23S3,245,experiment,73,↓,down,↓,0.6831379001960158,True,33,1
158K23S3,246,experiment,96,↑,up,↑,0.5431006997823715,True,33,1
158K23S3,247,experiment,83,↓,down,↓,0.6934899999760091,True,33,1
158K23S3,248,experiment,105,↑,up,↑,0.6386253996752203,True,33,1
158K23S3,249,experiment,49,→,right,→,0.6762783997692168,True,33,1
158K23S3,250,experiment,89,↓,down,↓,0.699378399644047,True,33,1
158K23S3,251,experiment,82,↓,down,↓,0.820049099624157,True,33,1
158K23S3,252,experiment,61,↑,up,↑,0.6142954002134502,True,33,1
158K23S3,253,experiment,71,→,right,→,0.6698699998669326,True,33,1
158K23S3,254,experiment,80,→,right,→,0.6322436998598278,True,33,1
158K23S3,255,experiment,55,↑,up,↑,0.5645442996174097,True,33,1
158K23S3,256,experiment,103,↓,down,↓,0.7870248002000153,True,33,1
158K23S3,257,experiment,95,↑,up,↑,0.5957418000325561,True,33,1
158K23S3,258,experiment,66,↓,down,↓,0.6375874001532793,True,33,1
158K23S3,259,experiment,97,↑,up,↑,0.5713134999386966,True,33,1
158K23S3,260,experiment,58,↓,down,↓,0.624556299764663,True,33,1
158K23S3,261,experiment,84,↓,down,↓,0.5874107000418007,True,33,1
158K23S3,262,experiment,92,↑,up,↑,0.7170903999358416,True,33,1
158K23S3,263,experiment,74,←,left,←,0.9751760000362992,True,33,1
158K23S3,264,experiment,67,←,left,←,0.5214448999613523,True,33,1
158K23S3,265,experiment,69,↓,down,↓,0.6133710001595318,True,33,1
158K23S3,266,experiment,94,↑,up,↑,0.6131580998189747,True,33,1
158K23S3,267,experiment,59,↑,up,↑,0.6486484999768436,True,33,1
158K23S3,268,experiment,81,↓,down,↓,0.6353361997753382,True,33,1
158K23S3,269,experiment,70,→,right,→,0.6906022001057863,True,33,1
158K23S3,270,experiment,60,→,right,→,0.5463709998875856,True,33,1
158K23S3,271,experiment,57,↓,down,↓,0.6173217999748886,True,33,1
158K23S3,272,experiment,54,→,right,→,0.5582944001071155,True,33,1
158K23S3,273,experiment,86,→,right,→,0.4670375999994576,True,33,1
158K23S3,274,experiment,107,↓,down,↓,0.6282998002134264,True,33,1
158K23S3,275,experiment,53,←,left,←,0.5533916000276804,True,33,1
158K23S3,276,experiment,77,↑,up,↑,0.5856464998796582,True,33,1
158K23S3,277,experiment,76,↑,up,↑,0.5365705001167953,True,33,1
158K23S3,278,experiment,93,←,left,←,0.5718835000880063,True,33,1
158K23S3,279,experiment,101,→,right,→,0.6189818000420928,True,33,1
158K23S3,280,experiment,88,←,left,←,0.5403857999481261,True,33,1
158K23S3,281,experiment,87,↑,up,↑,0.4813382998108864,True,33,1
158K23S3,282,experiment,108,↑,up,↑,0.4504519999027252,True,33,1
158K23S3,283,experiment,85,↓,down,↓,0.7547810999676585,True,33,1
158K23S3,284,experiment,75,→,right,→,0.5635754996910691,True,33,1
158K23S3,285,experiment,104,→,right,→,0.4427574002183974,True,33,1
158K23S3,286,experiment,100,←,left,←,0.5662869000807405,True,33,1
158K23S3,287,experiment,106,→,right,→,0.5080539998598397,True,33,1
158K23S3,288,experiment,68,↑,up,↑,0.4648790000937879,True,33,1
158K23S3,289,experiment,102,→,left,←,1.523797099944204,False,33,1
158K23S3,290,experiment,50,↓,down,↓,0.6458004000596702,True,33,1
158K23S3,291,experiment,91,↓,down,↓,0.7258697999641299,True,33,1
158K23S3,292,experiment,78,→,right,→,0.46237169997766614,True,33,1
158K23S3,293,training,62,↑,up,↑,0.5717440000735223,True,32,0
158K23S3,294,training,77,↑,up,↑,0.5388880004175007,True,32,1
158K23S3,295,experiment,80,→,right,→,0.9621771001257002,True,32,1
158K23S3,296,experiment,51,↓,down,↓,0.6582427998073399,True,32,1
158K23S3,297,experiment,55,↑,up,↑,0.6853644996881485,True,32,1
158K23S3,298,experiment,102,→,no_key,no_letter,-1.0,False,32,1
158K23S3,299,experiment,77,↓,up,↑,1.0641875001601875,False,32,1
158K23S3,300,experiment,82,↓,down,↓,0.6258752001449466,True,32,1
158K23S3,301,experiment,91,←,left,←,0.6421746998094022,True,32,1
158K23S3,302,experiment,56,↑,up,↑,0.5976398000493646,True,32,1
158K23S3,303,experiment,48,↓,down,↓,0.661426099948585,True,32,1
158K23S3,304,experiment,98,→,right,→,0.5460097002796829,True,32,1
158K23S3,305,experiment,108,↑,up,↑,0.9278422999195755,True,32,1
158K23S3,306,experiment,83,↓,down,↓,0.5826443997211754,True,32,1
158K23S3,307,experiment,67,←,left,←,0.5691110002808273,True,32,1
158K23S3,308,experiment,92,←,left,←,0.5952767999842763,True,32,1
158K23S3,309,experiment,66,←,left,←,0.5733002000488341,True,32,1
158K23S3,310,experiment,68,↑,up,↑,0.5993997002951801,True,32,1
158K23S3,311,experiment,61,↑,up,↑,0.5069703999906778,True,32,1
158K23S3,312,experiment,93,←,left,←,0.5191907002590597,True,32,1
158K23S3,313,experiment,69,→,right,→,0.6354626999236643,True,32,1
158K23S3,314,experiment,87,→,right,→,0.6447382001206279,True,32,1
158K23S3,315,experiment,74,↑,up,↑,0.5860351002775133,True,32,1
158K23S3,316,experiment,86,←,left,←,0.5903323004022241,True,32,1
158K23S3,317,experiment,94,→,right,→,0.6307726996019483,True,32,1
158K23S3,318,experiment,65,→,right,→,0.5193653996102512,True,32,1
158K23S3,319,experiment,99,↑,up,↑,0.4811774999834597,True,32,1
158K23S3,320,experiment,50,↑,up,↑,0.6693827002309263,True,32,1
158K23S3,321,experiment,53,→,right,→,0.7844666000455618,True,32,1
158K23S3,322,experiment,78,←,left,←,0.5669887997210026,True,32,1
158K23S3,323,experiment,85,→,right,→,0.5397773999720812,True,32,1
158K23S3,324,experiment,104,↑,up,↑,0.4828630001284182,True,32,1
158K23S3,325,experiment,75,↓,down,↓,0.6382801998406649,True,32,1
158K23S3,326,experiment,106,→,right,→,0.5369747998192906,True,32,1
158K23S3,327,experiment,79,←,left,←,0.5686535998247564,True,32,1
158K23S3,328,experiment,96,↓,right,→,0.8577056997455657,False,32,1
158K23S3,329,experiment,59,←,left,←,0.5314616998657584,True,32,1
158K23S3,330,experiment,107,↑,up,↑,0.5861948998644948,True,32,1
158K23S3,331,experiment,103,→,right,→,0.5760927996598184,True,32,1
158K23S3,332,experiment,54,↑,up,↑,0.5909767998382449,True,32,1
158K23S3,333,experiment,81,→,right,→,0.5719698001630604,True,32,1
158K23S3,334,experiment,76,↑,up,↑,0.5313649997115135,True,32,1
158K23S3,335,experiment,64,↓,down,↓,0.6887791999615729,True,32,1
158K23S3,336,experiment,95,→,right,→,0.5169219998642802,True,32,1
158K23S3,337,experiment,89,→,right,→,0.5943129998631775,True,32,1
158K23S3,338,experiment,62,↓,down,↓,0.6856194003485143,True,32,1
158K23S3,339,experiment,57,←,left,←,0.5190186998806894,True,32,1
158K23S3,340,experiment,60,→,right,→,0.5421995995566249,True,32,1
158K23S3,341,experiment,90,→,right,→,0.4093374996446073,True,32,1
158K23S3,342,experiment,52,←,left,←,0.5119774998165667,True,32,1
158K23S3,343,experiment,101,←,left,←,0.4736661999486387,True,32,1
158K23S3,344,experiment,84,↓,down,↓,0.6423998000100255,True,32,1
158K23S3,345,experiment,49,→,down,↓,1.1925260000862181,False,32,1
158K23S3,346,experiment,88,→,right,→,0.650826399680227,True,32,1
158K23S3,347,experiment,70,→,right,→,0.553142299875617,True,32,1
158K23S3,348,experiment,58,↑,up,↑,0.7037557000294328,True,32,1
158K23S3,349,experiment,73,→,right,→,1.2747292998246849,True,32,1
158K23S3,350,experiment,71,↓,down,↓,0.6634816001169384,True,32,1
158K23S3,351,experiment,97,↑,up,↑,0.6364429001696408,True,32,1
158K23S3,352,experiment,63,→,right,→,0.5497404001653194,True,32,1
158K23S3,353,experiment,105,↑,up,↑,0.5242687002755702,True,32,1
158K23S3,354,experiment,100,↓,down,↓,0.5974753997288644,True,32,1
158K23S3,355,experiment,72,←,left,←,0.5331610003486276,True,32,1
158K23S3,356,training,56,←,left,←,0.607702299952507,True,31,0
158K23S3,357,training,102,↓,left,←,0.7086584996432066,False,31,1
158K23S3,358,experiment,105,↑,up,↑,0.6612427998334169,True,31,1
158K23S3,359,experiment,95,↓,down,↓,0.6106988997198641,True,31,1
158K23S3,360,experiment,54,↓,down,↓,0.5120948003605008,True,31,1
158K23S3,361,experiment,97,→,right,→,0.586816200055182,True,31,1
158K23S3,362,experiment,83,↑,up,↑,0.6796629996970296,True,31,1
158K23S3,363,experiment,77,↑,up,↑,0.44258240005001426,True,31,1
158K23S3,364,experiment,90,↓,down,↓,0.6187346000224352,True,31,1
158K23S3,365,experiment,71,←,left,←,0.4740483998320997,True,31,1
158K23S3,366,experiment,72,↓,down,↓,0.4792065001092851,True,31,1
158K23S3,367,experiment,73,↓,down,↓,0.40005579963326454,True,31,1
158K23S3,368,experiment,79,→,right,→,0.544257199857384,True,31,0
158K23S3,369,experiment,86,→,right,→,0.5176921999081969,True,31,1
158K23S3,370,experiment,53,↑,up,↑,0.6314340000972152,True,31,1
158K23S3,371,experiment,70,↓,down,↓,0.5501927002333105,True,31,1
158K23S3,372,experiment,76,→,right,→,0.5426581003703177,True,31,1
158K23S3,373,experiment,107,→,right,→,0.39163960004225373,True,31,1
158K23S3,374,experiment,65,↓,down,↓,0.6552341999486089,True,31,0
158K23S3,375,experiment,93,↓,down,↓,0.4455094998702407,True,31,1
158K23S3,376,experiment,56,↑,up,↑,0.5846664998680353,True,31,1
158K23S3,377,experiment,75,↓,down,↓,0.5123186996206641,True,31,1
158K23S3,378,experiment,94,↑,up,↑,0.6044734003953636,True,31,1
158K23S3,379,experiment,68,←,left,←,1.2929020998999476,True,31,1
158K23S3,380,experiment,99,↑,up,↑,0.4879690003581345,True,31,1
158K23S3,381,experiment,49,→,right,→,0.6914200000464916,True,31,1
158K23S3,382,experiment,48,→,right,→,0.4877701001241803,True,31,1
158K23S3,383,experiment,66,↑,up,↑,0.6618488002568483,True,31,1
158K23S3,384,experiment,80,↓,down,↓,0.6006478001363575,True,31,1
158K23S3,385,experiment,78,↑,up,↑,0.4860475999303162,True,31,1
158K23S3,386,experiment,62,↓,down,↓,0.6141860000789165,True,31,1
158K23S3,387,experiment,60,→,right,→,1.0249430001713336,True,31,1
158K23S3,388,experiment,104,↑,down,↓,0.6531651001423597,False,31,1
158K23S3,389,experiment,100,←,left,←,0.6732104998081923,True,31,1
158K23S3,390,experiment,69,→,right,→,0.6073047001846135,True,31,1
158K23S3,391,experiment,81,↓,down,↓,0.4912103000096977,True,31,1
158K23S3,392,experiment,50,↑,up,↑,0.6468953001312912,True,31,1
158K23S3,393,experiment,88,↓,down,↓,0.5198809998109937,True,31,1
158K23S3,394,experiment,101,↓,down,↓,0.6646810998208821,True,31,1
158K23S3,395,experiment,106,→,right,→,0.810143300332129,True,31,1
158K23S3,396,experiment,85,↑,up,↑,0.5172354998067021,True,31,1
158K23S3,397,experiment,102,→,right,→,0.6304305996745825,True,31,1
158K23S3,398,experiment,61,↓,down,↓,0.6963408002629876,True,31,1
158K23S3,399,experiment,108,↓,down,↓,0.48100999975576997,True,31,1
158K23S3,400,experiment,58,→,right,→,0.513383099809289,True,31,1
158K23S3,401,experiment,91,→,right,→,0.4544845996424556,True,31,1
158K23S3,402,experiment,57,↑,up,↑,0.6013349997811019,True,31,1
158K23S3,403,experiment,82,←,left,←,0.48535959981381893,True,31,1
158K23S3,404,experiment,103,←,left,←,0.5275961002334952,True,31,1
158K23S3,405,experiment,63,↑,no_key,no_letter,-1.0,False,31,1
158K23S3,406,experiment,67,→,right,→,0.9854395003058016,True,31,1
158K23S3,407,experiment,96,←,left,←,0.48160909954458475,True,31,1
158K23S3,408,experiment,89,↓,down,↓,0.6484473003074527,True,31,1
158K23S3,409,experiment,55,↓,down,↓,0.5558517002500594,True,31,1
158K23S3,410,experiment,64,←,left,←,0.6637868997640908,True,31,1
158K23S3,411,experiment,84,↓,no_key,no_letter,-1.0,False,31,1
158K23S3,412,experiment,59,→,down,↓,1.0399426999501884,False,31,1
158K23S3,413,experiment,92,→,right,→,0.535731999669224,True,31,1
158K23S3,414,experiment,98,→,right,→,0.5128409001044929,True,31,1
158K23S3,415,experiment,51,←,right,→,0.7629548003897071,False,31,1
158K23S3,416,experiment,87,→,left,←,1.2629559999331832,False,31,1
158K23S3,417,experiment,52,→,right,→,0.6431166999973357,True,31,1
158K23S3,418,experiment,74,↓,down,↓,0.5045476998202503,True,31,1
158K23S3,419,training,97,↑,up,↑,0.4697791999205947,True,30,0
158K23S3,420,training,55,↓,down,↓,0.6566771999932826,True,30,1
158K23S3,421,experiment,73,←,left,←,0.5654755001887679,True,30,1
158K23S3,422,experiment,82,↑,up,↑,0.5874918000772595,True,30,1
158K23S3,423,experiment,71,←,left,←,0.5396372997201979,True,30,1
158K23S3,424,experiment,96,↑,up,↑,0.5260103000327945,True,30,1
158K23S3,425,experiment,104,→,right,→,0.5097759002819657,True,30,1
158K23S3,426,experiment,50,↑,up,↑,0.560631999745965,True,30,1
158K23S3,427,experiment,78,↑,up,↑,0.4559261999092996,True,30,1
158K23S3,428,experiment,100,↑,up,↑,0.4440049999393523,True,30,1
158K23S3,429,experiment,91,→,right,→,0.4913146002218127,True,30,1
158K23S3,430,experiment,53,↓,up,↑,0.6940019996836782,False,30,1
158K23S3,431,experiment,75,↑,up,↑,0.5209226002916694,True,30,1
158K23S3,432,experiment,64,←,left,←,0.7264196998439729,True,30,1
158K23S3,433,experiment,52,→,right,→,0.5438035000115633,True,30,1
158K23S3,434,experiment,93,←,left,←,0.5868966998532414,True,30,1
158K23S3,435,experiment,77,→,right,→,0.5134351002052426,True,30,1
158K23S3,436,experiment,94,↑,up,↑,0.44568599993363023,True,30,1
158K23S3,437,experiment,68,→,right,→,0.4844105998054147,True,30,1
158K23S3,438,experiment,92,↓,down,↓,0.9379532001912594,True,30,1
158K23S3,439,experiment,103,←,left,←,0.4496502000838518,True,30,1
158K23S3,440,experiment,62,→,right,→,0.5871820002794266,True,30,1
158K23S3,441,experiment,99,↓,down,↓,0.6261387998238206,True,30,1
158K23S3,442,experiment,54,→,right,→,0.5831058998592198,True,30,1
158K23S3,443,experiment,90,←,left,←,0.9372317004017532,True,30,1
158K23S3,444,experiment,101,↓,down,↓,0.5538667002692819,True,30,1
158K23S3,445,experiment,49,←,left,←,0.7310776999220252,True,30,1
158K23S3,446,experiment,51,↑,up,↑,0.5484001999720931,True,30,1
158K23S3,447,experiment,108,→,right,→,0.9621477997861803,True,30,1
158K23S3,448,experiment,85,→,right,→,0.5350311999209225,True,30,1
158K23S3,449,experiment,98,↑,up,↑,0.49675319995731115,True,30,1
158K23S3,450,experiment,57,←,left,←,0.5695325997658074,True,30,1
158K23S3,451,experiment,105,←,left,←,0.5115877999924123,True,30,1
158K23S3,452,experiment,59,→,right,→,0.5754046998918056,True,30,1
158K23S3,453,experiment,81,→,right,→,0.47702370025217533,True,30,1
158K23S3,454,experiment,107,→,right,→,0.430761800147593,True,30,1
158K23S3,455,experiment,67,↓,up,↑,0.7745082997716963,False,30,1
158K23S3,456,experiment,58,←,left,←,0.4915981004014611,True,30,1
158K23S3,457,experiment,84,↑,up,↑,0.49164090026170015,True,30,1
158K23S3,458,experiment,48,↑,up,↑,0.7361785001121461,True,30,1
158K23S3,459,experiment,66,←,left,←,0.6922575999051332,True,30,1
158K23S3,460,experiment,102,↓,up,↑,0.6141605000011623,False,30,1
158K23S3,461,experiment,106,→,right,→,0.505833700299263,True,30,1
158K23S3,462,experiment,95,←,left,←,0.5336119998246431,True,30,1
158K23S3,463,experiment,76,↓,down,↓,0.6786714997142553,True,30,1
158K23S3,464,experiment,72,↓,down,↓,1.195639600045979,True,30,1
158K23S3,465,experiment,87,↓,down,↓,0.4782169000245631,True,30,1
158K23S3,466,experiment,79,→,right,→,0.7523624999448657,True,30,1
158K23S3,467,experiment,86,→,right,→,0.5023487000726163,True,30,1
158K23S3,468,experiment,97,↑,up,↑,0.6496069999411702,True,30,1
158K23S3,469,experiment,60,←,left,←,0.5069070998579264,True,30,1
158K23S3,470,experiment,88,←,left,←,0.5213152999058366,True,30,1
158K23S3,471,experiment,55,←,left,←,0.4898651000112295,True,30,1
158K23S3,472,experiment,80,↑,up,↑,0.42738479981198907,True,30,1
158K23S3,473,experiment,69,←,left,←,1.2104678000323474,True,30,1
158K23S3,474,experiment,61,→,right,→,0.7011025999672711,True,30,1
158K23S3,475,experiment,70,↓,down,↓,0.6340553001500666,True,30,1
158K23S3,476,experiment,89,←,left,←,1.4903012001886964,True,30,1
158K23S3,477,experiment,74,→,right,→,0.4695199001580477,True,30,1
158K23S3,478,experiment,63,→,right,→,0.6215959000401199,True,30,1
158K23S3,479,experiment,83,↓,up,↑,0.7929192003794014,False,30,1
158K23S3,480,experiment,65,←,left,←,0.5714080999605358,True,30,1
158K23S3,481,experiment,56,←,left,←,0.7539784000255167,True,30,1
158K23S3,482,training,84,↑,up,↑,0.6958876000717282,True,29,0
158K23S3,483,training,84,↑,up,↑,0.4799259998835623,True,29,1
158K23S3,484,experiment,108,←,left,←,0.5041918000206351,True,29,1
158K23S3,485,experiment,98,←,left,←,0.523316300008446,True,29,1
158K23S3,486,experiment,64,←,left,←,0.6247573997825384,True,29,1
158K23S3,487,experiment,54,←,left,←,0.4936620998196304,True,29,1
158K23S3,488,experiment,107,→,right,→,0.5178278000093997,True,29,1
158K23S3,489,experiment,48,↓,down,↓,0.7051092004403472,True,29,1
158K23S3,490,experiment,80,←,left,←,0.4736403999850154,True,29,1
158K23S3,491,experiment,75,←,left,←,0.5416798000223935,True,29,1
158K23S3,492,experiment,78,↑,up,↑,0.5257012997753918,True,29,1
158K23S3,493,experiment,67,↓,down,↓,0.8023777999915183,True,29,1
158K23S3,494,experiment,86,→,right,→,0.5012382003478706,True,29,1
158K23S3,495,experiment,55,←,left,←,0.4943562000989914,True,29,1
158K23S3,496,experiment,85,↓,down,↓,0.6141444002278149,True,29,1
158K23S3,497,experiment,77,↓,down,↓,0.6195739000104368,True,29,1
158K23S3,498,experiment,49,←,left,←,0.6022330997511744,True,29,1
158K23S3,499,experiment,97,↓,down,↓,0.42645870009437203,True,29,1
158K23S3,500,experiment,91,→,right,→,0.42609250033274293,True,29,1
158K23S3,501,experiment,66,↑,up,↑,0.5941274003125727,True,29,1
158K23S3,502,experiment,79,→,right,→,0.6558734001591802,True,29,1
158K23S3,503,experiment,100,↓,left,←,1.3159046000801027,False,29,1
158K23S3,504,experiment,102,←,left,←,0.5890975999645889,True,29,1
158K23S3,505,experiment,81,↓,down,↓,0.48977480037137866,True,29,1
158K23S3,506,experiment,73,↑,up,↑,0.6137144002132118,True,29,1
158K23S3,507,experiment,61,←,left,←,0.504300500266254,True,29,1
158K23S3,508,experiment,52,→,left,←,0.9149998002685606,False,29,1
158K23S3,509,experiment,68,→,right,→,0.5031623998656869,True,29,1
158K23S3,510,experiment,62,→,right,→,0.48586959997192025,True,29,1
158K23S3,511,experiment,70,→,right,→,0.45098840026184916,True,29,1
158K23S3,512,experiment,89,↓,down,↓,0.6350656002759933,True,29,1
158K23S3,513,experiment,95,→,right,→,0.5058260997757316,True,29,1
158K23S3,514,experiment,58,↓,down,↓,0.6178093999624252,True,29,1
158K23S3,515,experiment,56,↑,down,↓,1.1504937000572681,False,29,1
158K23S3,516,experiment,53,←,left,←,0.5662650996819139,True,29,1
158K23S3,517,experiment,105,↓,down,↓,0.37588230008259416,True,29,1
158K23S3,518,experiment,103,→,right,→,0.642281100153923,True,29,0
158K23S3,519,experiment,71,↓,down,↓,0.6250598998740315,True,29,1
158K23S3,520,experiment,94,↓,down,↓,0.5841556000523269,True,29,1
158K23S3,521,experiment,83,↑,down,↓,1.0451074000447989,False,29,1
158K23S3,522,experiment,51,↑,up,↑,0.6259741000831127,True,29,1
158K23S3,523,experiment,87,↓,left,←,0.7876534997485578,False,29,1
158K23S3,524,experiment,90,↓,down,↓,0.4702584003098309,True,29,1
158K23S3,525,experiment,104,↓,down,↓,0.44075729977339506,True,29,1
158K23S3,526,experiment,88,←,no_key,no_letter,-1.0,False,29,1
158K23S3,527,experiment,101,←,left,←,0.6505444003269076,True,29,1
158K23S3,528,experiment,69,←,left,←,0.53722869977355,True,29,1
158K23S3,529,experiment,92,↑,up,↑,0.4606029996648431,True,29,1
158K23S3,530,experiment,60,←,left,←,0.7501110997982323,True,29,1
158K23S3,531,experiment,84,←,left,←,0.539769500028342,True,29,1
158K23S3,532,experiment,72,→,left,←,0.5978587996214628,False,29,1
158K23S3,533,experiment,99,↑,up,↑,0.5168429999612272,True,29,1
158K23S3,534,experiment,74,→,right,→,0.7190967001952231,True,29,1
158K23S3,535,experiment,82,↑,up,↑,0.5271896002814174,True,29,1
158K23S3,536,experiment,59,↑,up,↑,0.46239620028063655,True,29,1
158K23S3,537,experiment,106,↑,up,↑,0.35903589986264706,True,29,1
158K23S3,538,experiment,50,→,no_key,no_letter,-1.0,False,29,0
158K23S3,539,experiment,76,→,right,→,0.6024632002227008,True,29,1
158K23S3,540,experiment,96,↓,down,↓,0.6420438000932336,True,29,1
158K23S3,541,experiment,93,→,left,←,0.8968810001388192,False,29,1
158K23S3,542,experiment,57,↑,down,↓,0.5540192001499236,False,29,1
158K23S3,543,experiment,65,↑,up,↑,0.5578045002184808,True,29,1
158K23S3,544,experiment,63,←,left,←,0.4345919997431338,True,29,1
158K23S3,545,training,61,↑,up,↑,0.5123570999130607,True,29,0
158K23S3,546,training,98,↓,up,↑,0.594794699922204,False,29,1
158K23S3,547,experiment,87,←,left,←,0.5257541001774371,True,29,1
158K23S3,548,experiment,70,↑,up,↑,0.44982949970290065,True,29,1
158K23S3,549,experiment,77,↑,no_key,no_letter,-1.0,False,29,1
158K23S3,550,experiment,95,↓,down,↓,0.7370597003027797,True,29,1
158K23S3,551,experiment,105,↑,up,↑,0.9125345000065863,True,29,1
158K23S3,552,experiment,84,→,left,←,0.9591291998513043,False,29,1
158K23S3,553,experiment,106,↑,up,↑,0.5732827000319958,True,29,1
158K23S3,554,experiment,107,↓,down,↓,0.6261837999336421,True,29,1
158K23S3,555,experiment,63,↑,up,↑,0.6999853001907468,True,29,1
158K23S3,556,experiment,94,↓,down,↓,0.608296999707818,True,29,1
158K23S3,557,experiment,59,←,left,←,0.6922150999307632,True,29,1
158K23S3,558,experiment,68,↑,up,↑,0.6813365002162755,True,29,1
158K23S3,559,experiment,81,↓,down,↓,0.4909997000358999,True,29,1
158K23S3,560,experiment,57,↓,down,↓,0.4359724000096321,True,29,1
158K23S3,561,experiment,92,↑,up,↑,0.5632881000638008,True,29,1
158K23S3,562,experiment,82,↓,down,↓,0.6649727001786232,True,29,1
158K23S3,563,experiment,71,↑,up,↑,0.6143887001089752,True,29,1
158K23S3,564,experiment,61,↓,down,↓,0.6173223997466266,True,29,1
158K23S3,565,experiment,54,←,left,←,0.6781989000737667,True,29,1
158K23S3,566,experiment,64,←,left,←,0.4775620000436902,True,29,1
158K23S3,567,experiment,67,→,right,→,0.5880565997213125,True,29,1
158K23S3,568,experiment,98,↓,down,↓,0.45957399997860193,True,29,1
158K23S3,569,experiment,60,↑,up,↑,0.5967737999744713,True,29,1
158K23S3,570,experiment,101,↑,no_key,no_letter,-1.0,False,29,1
158K23S3,571,experiment,72,↑,up,↑,0.4546580999158323,True,29,1
158K23S3,572,experiment,108,←,left,←,0.5280611999332905,True,29,1
158K23S3,573,experiment,102,↓,down,↓,0.5525157996453345,True,29,1
158K23S3,574,experiment,55,↓,down,↓,0.6800167001783848,True,29,1
158K23S3,575,experiment,49,←,no_key,no_letter,-1.0,False,29,1
158K23S3,576,experiment,69,↓,down,↓,0.3506924998946488,True,29,1
158K23S3,577,experiment,99,↓,down,↓,0.3253705999813974,True,29,0
158K23S3,578,experiment,51,↓,down,↓,0.3255964000709355,True,29,0
158K23S3,579,experiment,52,←,left,←,0.4197035999968648,True,29,1
158K23S3,580,experiment,104,←,right,→,0.6952952998690307,False,29,1
158K23S3,581,experiment,91,←,down,↓,0.7889527999795973,False,29,1
158K23S3,582,experiment,58,↓,down,↓,0.5056310002692044,True,29,1
158K23S3,583,experiment,53,←,left,←,0.5794460000470281,True,29,1
158K23S3,584,experiment,83,↓,down,↓,0.45612220000475645,True,29,1
158K23S3,585,experiment,73,↓,down,↓,0.36744470009580255,True,29,1
158K23S3,586,experiment,86,→,right,→,0.4895255998708308,True,29,0
158K23S3,587,experiment,74,↓,down,↓,0.3758395998738706,True,29,1
158K23S3,588,experiment,96,↓,down,↓,0.3507042001001537,True,29,0
158K23S3,589,experiment,79,↓,down,↓,0.3331019999459386,True,29,0
158K23S3,590,experiment,50,↓,down,↓,0.4856576998718083,True,29,0
158K23S3,591,experiment,62,←,left,←,0.4777401997707784,True,29,1
158K23S3,592,experiment,66,↑,up,↑,0.6042889999225736,True,29,1
158K23S3,593,experiment,56,↑,up,↑,0.4894798002205789,True,29,1
158K23S3,594,experiment,65,↑,up,↑,0.38410700019448996,True,29,1
158K23S3,595,experiment,89,→,right,→,0.6660869000479579,True,29,0
158K23S3,596,experiment,100,↓,up,↑,1.2298877001740038,False,29,1
158K23S3,597,experiment,48,←,left,←,0.5641577998176217,True,29,1
158K23S3,598,experiment,103,←,left,←,0.39223930006846786,True,29,1
158K23S3,599,experiment,88,←,left,←,0.533234799746424,True,29,0
158K23S3,600,experiment,75,←,left,←,0.48691509990021586,True,29,1
158K23S3,601,experiment,90,↑,up,↑,0.717422700021416,True,29,1
158K23S3,602,experiment,78,→,right,→,0.5262968996539712,True,29,1
158K23S3,603,experiment,76,→,left,←,0.5356717999093235,False,29,1
158K23S3,604,experiment,93,→,right,→,0.4271452999673784,True,29,1
158K23S3,605,experiment,97,←,right,→,0.44936419976875186,False,29,1
158K23S3,606,experiment,85,↑,up,↑,0.4265228002332151,True,29,1
158K23S3,607,experiment,80,→,right,→,0.5424408996477723,True,29,1
158K23S3,608,training,80,←,left,←,0.5907709999009967,True,29,0
158K23S3,609,training,105,↓,down,↓,0.7317592999897897,True,29,1
158K23S3,610,experiment,74,←,left,←,0.5732720997184515,True,29,1
158K23S3,611,experiment,106,←,left,←,0.4429422998800874,True,29,1
158K23S3,612,experiment,97,→,right,→,0.5043173003941774,True,29,1
158K23S3,613,experiment,56,↑,up,↑,0.6811015997081995,True,29,1
158K23S3,614,experiment,100,→,right,→,0.391669400036335,True,29,1
158K23S3,615,experiment,69,→,no_key,no_letter,-1.0,False,29,0
158K23S3,616,experiment,91,→,right,→,0.7219480001367629,True,29,1
158K23S3,617,experiment,73,↓,down,↓,0.7404379001818597,True,29,1
158K23S3,618,experiment,64,←,left,←,0.5528516001068056,True,29,1
158K23S3,619,experiment,57,→,up,↑,0.7356600998900831,False,29,1
158K23S3,620,experiment,82,↑,up,↑,0.5749244000762701,True,29,1
158K23S3,621,experiment,60,→,right,→,0.5077121998183429,True,29,1
158K23S3,622,experiment,92,←,left,←,0.4241504999808967,True,29,1
158K23S3,623,experiment,107,←,left,←,0.5473747998476028,True,29,1
158K23S3,624,experiment,68,↑,up,↑,0.4864337998442352,True,29,1
158K23S3,625,experiment,85,→,right,→,0.5102567998692393,True,29,1
158K23S3,626,experiment,102,↓,down,↓,0.5036512999795377,True,29,1
158K23S3,627,experiment,80,→,right,→,0.5607114997692406,True,29,1
158K23S3,628,experiment,103,→,right,→,0.5042954999953508,True,29,1
158K23S3,629,experiment,108,→,right,→,0.5037163002416492,True,29,1
158K23S3,630,experiment,105,↑,up,↑,0.7122062002308667,True,29,1
158K23S3,631,experiment,55,↑,up,↑,0.5694879000075161,True,29,1
158K23S3,632,experiment,87,→,right,→,0.4140027998946607,True,29,1
158K23S3,633,experiment,76,↓,down,↓,0.6587692000903189,True,29,1
158K23S3,634,experiment,50,←,left,←,0.5354100000113249,True,29,1
158K23S3,635,experiment,104,↓,down,↓,0.4714061003178358,True,29,1
158K23S3,636,experiment,81,↑,down,↓,0.5449330001138151,False,29,1
158K23S3,637,experiment,48,←,left,←,0.5073266997933388,True,29,1
158K23S3,638,experiment,79,→,right,→,0.5000308998860419,True,29,1
158K23S3,639,experiment,93,→,right,→,0.5207492001354694,True,29,1
158K23S3,640,experiment,49,↑,up,↑,0.5952421999536455,True,29,1
158K23S3,641,experiment,101,←,no_key,no_letter,-1.0,False,29,1
158K23S3,642,experiment,99,↑,up,↑,0.5157872000709176,True,29,1
158K23S3,643,experiment,89,↑,left,←,0.8095426997169852,False,29,1
158K23S3,644,experiment,83,↓,down,↓,0.6210014000535011,True,29,1
158K23S3,645,experiment,95,←,right,→,0.7402571002021432,False,29,1
158K23S3,646,experiment,59,→,right,→,0.4983159997500479,True,29,1
158K23S3,647,experiment,63,↑,down,↓,1.3214205000549555,False,29,1
158K23S3,648,experiment,94,→,right,→,0.391618300229311,True,29,1
158K23S3,649,experiment,75,→,left,←,0.6191432997584343,False,29,0
158K23S3,650,experiment,90,→,right,→,0.35901519982144237,True,29,1
158K23S3,651,experiment,65,→,right,→,0.447592600248754,True,29,0
158K23S3,652,experiment,77,↓,down,↓,0.6196503001265228,True,29,1
158K23S3,653,experiment,51,↑,down,↓,1.0260308999568224,False,29,1
158K23S3,654,experiment,70,↓,down,↓,0.3759921998716891,True,29,1
158K23S3,655,experiment,67,↑,down,↓,0.883218000177294,False,29,1
158K23S3,656,experiment,96,↓,down,↓,0.6718243998475373,True,29,1
158K23S3,657,experiment,71,→,right,→,0.42056139977648854,True,29,1
158K23S3,658,experiment,98,↓,down,↓,0.4268952999264002,True,29,1
158K23S3,659,experiment,78,→,right,→,0.6394181000068784,True,29,1
158K23S3,660,experiment,52,→,right,→,0.5159957003779709,True,29,1
158K23S3,661,experiment,88,←,left,←,0.6735793999396265,True,29,1
158K23S3,662,experiment,62,→,right,→,0.409852699842304,True,29,1
158K23S3,663,experiment,72,↑,down,↓,1.0729181999340653,False,29,0
158K23S3,664,experiment,58,↑,up,↑,0.746198299806565,True,29,1
158K23S3,665,experiment,53,↑,left,←,0.6985289002768695,False,29,1
158K23S3,666,experiment,54,→,right,→,0.6843480002135038,True,29,1
158K23S3,667,experiment,61,↓,down,↓,0.5562468999996781,True,29,1
158K23S3,668,experiment,66,←,left,←,0.4161988999694586,True,29,1
158K23S3,669,experiment,86,↓,down,↓,0.777706400025636,True,29,1
158K23S3,670,experiment,84,↓,down,↓,0.5184082002379,True,29,1
158K23S3,671,training,64,←,left,←,0.9343259003944695,True,29,0
158K23S3,672,training,71,←,left,←,0.7132330997847021,True,29,1
158K23S3,673,experiment,87,↓,down,↓,0.6867237999103963,True,29,1
158K23S3,674,experiment,84,←,left,←,0.43920669984072447,True,29,1
158K23S3,675,experiment,49,→,left,←,0.645151199772954,False,29,1
158K23S3,676,experiment,89,←,left,←,0.39239530032500625,True,29,1
158K23S3,677,experiment,50,→,right,→,0.5324265002273023,True,29,0
158K23S3,678,experiment,96,↑,up,↑,0.4790894999168813,True,29,1
158K23S3,679,experiment,93,↑,up,↑,0.3016496002674103,True,29,1
158K23S3,680,experiment,101,←,left,←,0.5502428002655506,True,29,0
158K23S3,681,experiment,88,↓,down,↓,0.666669299826026,True,29,1
158K23S3,682,experiment,55,→,right,→,0.4930525003001094,True,29,1
158K23S3,683,experiment,75,←,left,←,0.45639709988608956,True,29,1
158K23S3,684,experiment,98,→,left,←,0.8369603003375232,False,29,1
158K23S3,685,experiment,67,↓,down,↓,0.645119700115174,True,29,1
158K23S3,686,experiment,54,→,right,→,0.6487145996652544,True,29,1
158K23S3,687,experiment,99,→,right,→,0.4615282998420298,True,29,1
158K23S3,688,experiment,62,↓,down,↓,0.5347267999313772,True,29,1
158K23S3,689,experiment,81,→,right,→,0.5013724998570979,True,29,1
158K23S3,690,experiment,95,↓,down,↓,0.433888899628073,True,29,1
158K23S3,691,experiment,94,↓,down,↓,0.5285078999586403,True,29,1
158K23S3,692,experiment,80,↓,down,↓,0.4330039001069963,True,29,1
158K23S3,693,experiment,83,↓,down,↓,0.3841962004080415,True,29,1
158K23S3,694,experiment,68,↑,up,↑,0.5730504998937249,True,29,1
158K23S3,695,experiment,105,↓,down,↓,0.4349381998181343,True,29,1
158K23S3,696,experiment,107,←,left,←,0.7172686001285911,True,29,1
158K23S3,697,experiment,73,←,left,←,0.4165439000353217,True,29,1
158K23S3,698,experiment,71,→,right,→,0.39246390014886856,True,29,1
158K23S3,699,experiment,64,→,right,→,0.3167448998428881,True,29,0
158K23S3,700,experiment,65,→,right,→,0.36671080021187663,True,29,0
158K23S3,701,experiment,108,←,no_key,no_letter,-1.0,False,29,0
158K23S3,702,experiment,70,←,left,←,0.6153234001249075,True,29,1
158K23S3,703,experiment,56,←,left,←,0.5636455998755991,True,29,1
158K23S3,704,experiment,61,→,right,→,0.40841349959373474,True,29,1
158K23S3,705,experiment,76,→,left,←,0.5661440999247134,False,29,0
158K23S3,706,experiment,78,↓,down,↓,0.613253100309521,True,29,1
158K23S3,707,experiment,104,←,left,←,0.7858519996516407,True,29,1
158K23S3,708,experiment,52,→,no_key,no_letter,-1.0,False,29,1
158K23S3,709,experiment,57,↓,down,↓,0.592866700142622,True,29,1
158K23S3,710,experiment,82,←,right,→,0.653778700158,False,29,1
158K23S3,711,experiment,51,→,left,←,0.7943120999261737,False,29,1
158K23S3,712,experiment,106,←,no_key,no_letter,-1.0,False,29,1
158K23S3,713,experiment,91,↓,right,→,0.7560351002030075,False,29,1
158K23S3,714,experiment,53,←,left,←,0.42017609998583794,True,29,1
158K23S3,715,experiment,92,←,right,→,0.49167959997430444,False,29,1
158K23S3,716,experiment,74,→,right,→,0.5914794998243451,True,29,1
158K23S3,717,experiment,58,↓,down,↓,0.5158460000529885,True,29,1
158K23S3,718,experiment,86,↓,down,↓,0.35071570007130504,True,29,1
158K23S3,719,experiment,63,←,left,←,0.6867076000198722,True,29,0
158K23S3,720,experiment,48,↓,right,→,0.595325700007379,False,29,1
158K23S3,721,experiment,59,↓,right,→,0.503458000253886,False,29,1
158K23S3,722,experiment,66,↓,down,↓,0.4853912000544369,True,29,1
158K23S3,723,experiment,102,↑,down,↓,0.5036102002486587,False,29,1
158K23S3,724,experiment,90,←,left,←,0.6292257001623511,True,29,1
158K23S3,725,experiment,77,→,right,→,0.4980344003997743,True,29,1
158K23S3,726,experiment,79,←,left,←,0.49909549998119473,True,29,1
158K23S3,727,experiment,69,↑,up,↑,0.6079787001945078,True,29,1
158K23S3,728,experiment,72,←,no_key,no_letter,-1.0,False,29,1
158K23S3,729,experiment,97,↑,up,↑,0.4342670002952218,True,29,1
158K23S3,730,experiment,60,→,right,→,0.4926450001075864,True,29,1
158K23S3,731,experiment,85,→,right,→,0.5803786003962159,True,29,1
158K23S3,732,experiment,103,↓,left,←,0.8506521000526845,False,29,1
158K23S3,733,experiment,100,↑,up,↑,0.4946401999332011,True,29,1
158K23S3,734,training,64,↑,up,↑,0.5032576001249254,True,29,0
158K23S3,735,training,89,←,left,←,0.5175964999943972,True,29,1
158K23S3,736,experiment,72,↑,no_key,no_letter,-1.0,False,29,1
158K23S3,737,experiment,102,→,right,→,0.6576940002851188,True,29,1
158K23S3,738,experiment,91,↓,down,↓,0.62477090023458,True,29,1
158K23S3,739,experiment,63,→,right,→,0.4582914998754859,True,29,1
158K23S3,740,experiment,56,←,left,←,0.5890502999536693,True,29,1
158K23S3,741,experiment,83,←,no_key,no_letter,-1.0,False,29,1
158K23S3,742,experiment,64,↓,down,↓,0.5914073996245861,True,29,1
158K23S3,743,experiment,97,↑,up,↑,0.5751030999235809,True,29,1
158K23S3,744,experiment,98,↓,down,↓,0.6310514998622239,True,29,1
158K23S3,745,experiment,62,↑,up,↑,0.48121590027585626,True,29,1
158K23S3,746,experiment,61,→,down,↓,0.6010821000672877,False,29,1
158K23S3,747,experiment,49,→,right,→,0.5124438996426761,True,29,1
158K23S3,748,experiment,55,←,left,←,0.4971789000555873,True,29,1
158K23S3,749,experiment,94,↓,down,↓,0.48554199980571866,True,29,1
158K23S3,750,experiment,82,→,right,→,0.5908042998053133,True,29,1
158K23S3,751,experiment,54,→,right,→,0.5488459002226591,True,29,1
158K23S3,752,experiment,67,→,right,→,0.367597000207752,True,29,1
158K23S3,753,experiment,52,←,left,←,0.5916411001235247,True,29,0
158K23S3,754,experiment,73,→,left,←,0.5676476000808179,False,29,1
158K23S3,755,experiment,50,↑,up,↑,0.5677466001361609,True,29,1
158K23S3,756,experiment,105,↓,down,↓,0.5178331001661718,True,29,1
158K23S3,757,experiment,100,↓,down,↓,0.5034698997624218,True,29,1
158K23S3,758,experiment,106,←,left,←,0.5998638002201915,True,29,1
158K23S3,759,experiment,51,→,right,→,0.49458379996940494,True,29,1
158K23S3,760,experiment,59,→,right,→,0.48705280013382435,True,29,1
158K23S3,761,experiment,101,←,left,←,0.4897477999329567,True,29,1
158K23S3,762,experiment,103,←,left,←,0.6196999000385404,True,29,1
158K23S3,763,experiment,104,←,left,←,0.5282217999920249,True,29,1
158K23S3,764,experiment,66,↑,up,↑,0.6526122996583581,True,29,1
158K23S3,765,experiment,48,→,right,→,0.5704508000053465,True,29,1
158K23S3,766,experiment,77,→,right,→,0.4897715002298355,True,29,1
158K23S3,767,experiment,87,↑,up,↑,0.5528762997128069,True,29,1
158K23S3,768,experiment,60,→,left,←,0.5826133997179568,False,29,1
158K23S3,769,experiment,99,↓,down,↓,0.6700949999503791,True,29,1
158K23S3,770,experiment,57,↑,up,↑,0.5360605004243553,True,29,1
158K23S3,771,experiment,81,↓,down,↓,0.6956193000078201,True,29,1
158K23S3,772,experiment,86,↑,down,↓,0.43078389996662736,False,29,1
158K23S3,773,experiment,65,↑,up,↑,0.6639473997056484,True,29,1
158K23S3,774,experiment,75,←,left,←,0.4997823000885546,True,29,1
158K23S3,775,experiment,85,↑,down,↓,0.6830168999731541,False,29,1
158K23S3,776,experiment,84,↓,right,→,0.3840024000965059,False,29,1
158K23S3,777,experiment,69,↑,up,↑,0.5327078001573682,True,29,0
158K23S3,778,experiment,93,↓,down,↓,0.6561023001559079,True,29,1
158K23S3,779,experiment,74,↑,down,↓,0.6048868000507355,False,29,1
158K23S3,780,experiment,53,→,right,→,0.4663364002481103,True,29,1
158K23S3,781,experiment,90,←,left,←,0.6497704000212252,True,29,1
158K23S3,782,experiment,92,→,right,→,0.5605905000120401,True,29,1
158K23S3,783,experiment,68,→,right,→,0.515372000169009,True,29,1
158K23S3,784,experiment,88,↑,up,↑,0.6409574998542666,True,29,1
158K23S3,785,experiment,76,↓,down,↓,0.9496049997396767,True,29,1
158K23S3,786,experiment,79,↑,up,↑,0.5974254999309778,True,29,1
158K23S3,787,experiment,95,←,left,←,0.5091934003867209,True,29,1
158K23S3,788,experiment,89,↑,up,↑,0.5709569999016821,True,29,1
158K23S3,789,experiment,107,→,right,→,0.5757162999361753,True,29,1
158K23S3,790,experiment,70,→,left,←,1.0495462999679148,False,29,1
158K23S3,791,experiment,96,↑,down,↓,0.9831771999597549,False,29,1
158K23S3,792,experiment,71,↑,up,↑,0.9117836998775601,True,29,1
158K23S3,793,experiment,58,←,left,←,0.6237965999171138,True,29,1
158K23S3,794,experiment,78,←,left,←,0.6124970000237226,True,29,1
158K23S3,795,experiment,108,→,right,→,0.6715571000240743,True,29,1
158K23S3,796,experiment,80,←,left,←,0.8014507000334561,True,29,1
158K23S3,797,training,83,→,right,→,0.44158750027418137,True,29,0
158K23S3,798,training,88,↓,down,↓,0.6983447000384331,True,29,1
158K23S3,799,experiment,106,←,left,←,0.6345934998244047,True,29,1
158K23S3,800,experiment,77,→,right,→,0.5992274000309408,True,29,1
158K23S3,801,experiment,58,→,right,→,0.5957567002624273,True,29,1
158K23S3,802,experiment,54,←,left,←,0.5458257999271154,True,29,1
158K23S3,803,experiment,98,↑,up,↑,0.9143905998207629,True,29,1
158K23S3,804,experiment,78,→,right,→,0.6678289999254048,True,29,1
158K23S3,805,experiment,65,→,right,→,0.4594548000022769,True,29,1
158K23S3,806,experiment,53,←,left,←,0.5026879999786615,True,29,1
158K23S3,807,experiment,108,↓,down,↓,0.6549836001358926,True,29,1
158K23S3,808,experiment,63,↓,down,↓,0.4792065001092851,True,29,1
158K23S3,809,experiment,93,↓,down,↓,0.4928538999520242,True,29,1
158K23S3,810,experiment,104,→,right,→,0.5422313995659351,True,29,1
158K23S3,811,experiment,71,↓,down,↓,0.5048516001552343,True,29,1
158K23S3,812,experiment,87,←,left,←,0.46301349997520447,True,29,1
158K23S3,813,experiment,72,↓,down,↓,0.42100790003314614,True,29,1
158K23S3,814,experiment,70,→,right,→,0.5238975998945534,True,29,1
158K23S3,815,experiment,66,↓,no_key,no_letter,-1.0,False,29,1
158K23S3,816,experiment,59,↑,down,↓,0.7518360000103712,False,29,1
158K23S3,817,experiment,95,↑,down,↓,0.9465675000101328,False,29,1
158K23S3,818,experiment,91,←,left,←,0.5651833000592887,True,29,1
158K23S3,819,experiment,50,→,left,←,0.9018092001788318,False,29,1
158K23S3,820,experiment,79,↑,up,↑,0.5269753998145461,True,29,1
158K23S3,821,experiment,61,←,left,←,0.5734620001167059,True,29,1
158K23S3,822,experiment,51,←,left,←,0.557192100211978,True,29,1
158K23S3,823,experiment,55,←,left,←,0.5242793997749686,True,29,1
158K23S3,824,experiment,84,←,left,←,0.47523760003969073,True,29,1
158K23S3,825,experiment,85,↑,up,↑,0.6673798002302647,True,29,1
158K23S3,826,experiment,99,→,right,→,0.45543550001457334,True,29,1
158K23S3,827,experiment,83,←,left,←,0.48937710002064705,True,29,1
158K23S3,828,experiment,68,←,left,←,0.7189846001565456,True,29,1
158K23S3,829,experiment,96,←,right,→,0.5136096999049187,False,29,1
158K23S3,830,experiment,105,←,left,←,0.35872039990499616,True,29,1
158K23S3,831,experiment,92,←,left,←,0.692480199970305,True,29,0
158K23S3,832,experiment,102,←,left,←,0.5821403996087611,True,29,1
158K23S3,833,experiment,100,→,right,→,0.5331375999376178,True,29,1
158K23S3,834,experiment,107,→,right,→,0.46810830011963844,True,29,1
158K23S3,835,experiment,97,←,left,←,0.342582399956882,True,29,1
158K23S3,836,experiment,75,↑,left,←,0.6013667997904122,False,29,1
158K23S3,837,experiment,49,↑,up,↑,0.600770200137049,True,29,1
158K23S3,838,experiment,57,↑,down,↓,0.7815530998632312,False,29,1
158K23S3,839,experiment,101,↓,down,↓,0.5163100999779999,True,29,1
158K23S3,840,experiment,103,↑,up,↑,0.533090699929744,True,29,1
158K23S3,841,experiment,56,←,left,←,0.5325772003270686,True,29,1
158K23S3,842,experiment,76,←,left,←,0.37577869975939393,True,29,1
158K23S3,843,experiment,81,↑,up,↑,0.7153896000236273,True,29,0
158K23S3,844,experiment,89,↑,up,↑,0.5924754003062844,True,29,1
158K23S3,845,experiment,67,↑,up,↑,0.5624847998842597,True,29,1
158K23S3,846,experiment,73,→,left,←,0.5312951002269983,False,29,1
158K23S3,847,experiment,60,↓,down,↓,0.4813522999174893,True,29,1
158K23S3,848,experiment,64,←,left,←,0.48847969993948936,True,29,1
158K23S3,849,experiment,82,→,right,→,0.5131365000270307,True,29,1
158K23S3,850,experiment,48,↑,up,↑,0.5803259997628629,True,29,1
158K23S3,851,experiment,80,↓,down,↓,0.7379870000295341,True,29,1
158K23S3,852,experiment,69,↑,up,↑,0.4934334000572562,True,29,1
158K23S3,853,experiment,86,↑,up,↑,0.4444678998552263,True,29,1
158K23S3,854,experiment,94,←,left,←,0.4668597001582384,True,29,1
158K23S3,855,experiment,52,←,left,←,0.47064860025420785,True,29,1
158K23S3,856,experiment,74,←,left,←,0.4592764996923506,True,29,1
158K23S3,857,experiment,90,→,left,←,0.6424777000211179,False,29,1
158K23S3,858,experiment,88,→,right,→,0.4911925997585058,True,29,1
158K23S3,859,experiment,62,↑,up,↑,0.7786380997858942,True,29,1
158K23S3,860,training,52,↑,up,↑,0.48372439993545413,True,29,0
158K23S3,861,training,90,→,right,→,0.5623017000034451,True,29,1
158K23S3,862,experiment,88,→,left,←,0.5262826001271605,False,29,1
158K23S3,863,experiment,99,↑,up,↑,0.4402781003154814,True,29,1
158K23S3,864,experiment,89,↑,up,↑,0.4483990999870002,True,29,1
158K23S3,865,experiment,71,↓,down,↓,0.6144865998066962,True,29,1
158K23S3,866,experiment,97,↓,down,↓,0.8532712003216147,True,29,1
158K23S3,867,experiment,87,↓,down,↓,0.46987110003829,True,29,1
158K23S3,868,experiment,107,↑,up,↑,0.6313379998318851,True,29,1
158K23S3,869,experiment,57,↓,up,↑,0.6426468002609909,False,29,1
158K23S3,870,experiment,58,↓,down,↓,0.7014681003056467,True,29,1
158K23S3,871,experiment,68,↑,up,↑,0.41925489995628595,True,29,1
158K23S3,872,experiment,82,←,left,←,0.43001769995316863,True,29,1
158K23S3,873,experiment,69,↓,down,↓,0.6855179998092353,True,29,1
158K23S3,874,experiment,54,←,left,←,0.6157570001669228,True,29,1
158K23S3,875,experiment,79,↓,up,↑,1.4526982000097632,False,29,1
158K23S3,876,experiment,90,→,right,→,0.38397249998524785,True,29,1
158K23S3,877,experiment,64,↓,left,←,0.9031101004220545,False,29,0
158K23S3,878,experiment,59,↓,down,↓,0.5910794003866613,True,29,1
158K23S3,879,experiment,53,↓,down,↓,0.6053353999741375,True,29,1
158K23S3,880,experiment,62,←,left,←,0.487975399941206,True,29,1
158K23S3,881,experiment,72,→,left,←,0.548099699895829,False,29,1
158K23S3,882,experiment,76,→,right,→,0.48446300020441413,True,29,1
158K23S3,883,experiment,85,←,left,←,0.39178270008414984,True,29,1
158K23S3,884,experiment,48,↑,up,↑,0.8444163999520242,True,29,0
158K23S3,885,experiment,77,←,left,←,0.43268430000171065,True,29,1
158K23S3,886,experiment,73,↑,up,↑,0.46299360040575266,True,29,1
158K23S3,887,experiment,60,↑,right,→,0.6161929001100361,False,29,1
158K23S3,888,experiment,56,↑,left,←,0.6366245998069644,False,29,1
158K23S3,889,experiment,86,↑,up,↑,0.46234160009771585,True,29,1
158K23S3,890,experiment,55,→,left,←,0.6571551002562046,False,29,1
158K23S3,891,experiment,67,↓,down,↓,0.5683987997472286,True,29,1
158K23S3,892,experiment,91,←,down,↓,0.5068927998654544,False,29,1
158K23S3,893,experiment,95,→,right,→,0.47064310032874346,True,29,1
158K23S3,894,experiment,83,←,left,←,0.41625289991497993,True,29,1
158K23S3,895,experiment,52,↑,up,↑,0.7491724002175033,True,29,1
158K23S3,896,experiment,92,←,left,←,0.48013969976454973,True,29,1
158K23S3,897,experiment,84,←,left,←,0.45690990006551147,True,29,1
158K23S3,898,experiment,94,→,right,→,0.3923245002515614,True,29,1
158K23S3,899,experiment,49,→,right,→,0.5508064003661275,True,29,0
158K23S3,900,experiment,98,↓,down,↓,0.6075594001449645,True,29,1
158K23S3,901,experiment,63,←,left,←,0.5220960001461208,True,29,1
158K23S3,902,experiment,74,→,right,→,0.5642841998487711,True,29,1
158K23S3,903,experiment,78,←,left,←,0.4672524998895824,True,29,1
158K23S3,904,experiment,51,↑,up,↑,0.5993691999465227,True,29,1
158K23S3,905,experiment,65,↑,up,↑,0.625464899931103,True,29,1
158K23S3,906,experiment,81,↓,down,↓,0.6209785998798907,True,29,1
158K23S3,907,experiment,96,→,right,→,0.5236267996951938,True,29,1
158K23S3,908,experiment,70,←,left,←,0.42376779997721314,True,29,1
158K23S3,909,experiment,102,↓,down,↓,0.48394070006906986,True,29,1
158K23S3,910,experiment,61,←,left,←,0.5478833997622132,True,29,1
158K23S3,911,experiment,103,↓,down,↓,0.4353668000549078,True,29,1
158K23S3,912,experiment,75,←,left,←,0.47262199968099594,True,29,1
158K23S3,913,experiment,104,→,no_key,no_letter,-1.0,False,29,1
158K23S3,914,experiment,101,↓,down,↓,0.7643524003215134,True,29,1
158K23S3,915,experiment,108,→,right,→,0.7131929998286068,True,29,1
158K23S3,916,experiment,100,↓,up,↑,1.3229040997102857,False,29,1
158K23S3,917,experiment,80,↓,down,↓,0.6909427996724844,True,29,1
158K23S3,918,experiment,93,→,right,→,0.5358962998725474,True,29,1
158K23S3,919,experiment,105,↓,left,←,0.6471953000873327,False,29,1
158K23S3,920,experiment,50,←,left,←,0.5403451998718083,True,29,1
158K23S3,921,experiment,66,↑,up,↑,0.45638510026037693,True,29,1
158K23S3,922,experiment,106,←,left,←,0.5065059000626206,True,29,1
158K23S3,923,training,86,↑,up,↑,0.5247490997426212,True,29,0
158K23S3,924,training,82,↓,down,↓,0.6120374999009073,True,29,1
158K23S3,925,experiment,92,→,right,→,0.5964746000245214,True,29,1
158K23S3,926,experiment,56,↑,up,↑,0.5778243001550436,True,29,1
158K23S3,927,experiment,69,↑,up,↑,0.5636797002516687,True,29,1
158K23S3,928,experiment,99,→,left,←,0.5634407000616193,False,29,1
158K23S3,929,experiment,55,↓,down,↓,0.6584178996272385,True,29,1
158K23S3,930,experiment,66,→,left,←,0.6094776000827551,False,29,1
158K23S3,931,experiment,102,↓,down,↓,0.6549349999986589,True,29,1
158K23S3,932,experiment,67,↓,down,↓,0.5344603001140058,True,29,1
158K23S3,933,experiment,54,←,left,←,0.4630873999558389,True,29,1
158K23S3,934,experiment,51,↓,down,↓,0.5230263997800648,True,29,1
158K23S3,935,experiment,100,→,left,←,0.5883822999894619,False,29,1
158K23S3,936,experiment,101,→,right,→,0.4429354998283088,True,29,1
158K23S3,937,experiment,78,→,right,→,0.5269580003805459,True,29,1
158K23S3,938,experiment,106,→,right,→,0.7345523997209966,True,29,1
158K23S3,939,experiment,62,↓,down,↓,0.5483940001577139,True,29,1
158K23S3,940,experiment,58,↓,down,↓,0.6266212998889387,True,29,1
158K23S3,941,experiment,107,←,no_key,no_letter,-1.0,False,29,1
158K23S3,942,experiment,86,→,right,→,0.4600470997393131,True,29,1
158K23S3,943,experiment,53,→,right,→,0.575836299918592,True,29,1
158K23S3,944,experiment,88,↓,left,←,0.6759541998617351,False,29,1
158K23S3,945,experiment,64,↑,up,↑,0.4111490002833307,True,29,1
158K23S3,946,experiment,80,↑,down,↓,0.7110371999442577,False,29,0
158K23S3,947,experiment,108,←,left,←,0.5263108997605741,True,29,1
158K23S3,948,experiment,94,←,left,←,0.32509819976985455,True,29,1
158K23S3,949,experiment,82,→,right,→,0.49694980029016733,True,29,0
158K23S3,950,experiment,68,↓,down,↓,0.558209499809891,True,29,1
158K23S3,951,experiment,87,↓,down,↓,0.35899920016527176,True,29,1
158K23S3,952,experiment,85,↑,down,↓,0.5270643001422286,False,29,0
158K23S3,953,experiment,81,↓,down,↓,0.3419471001252532,True,29,1
158K23S3,954,experiment,63,↑,down,↓,0.45146590005606413,False,29,0
158K23S3,955,experiment,84,←,left,←,0.4932750998996198,True,29,1
158K23S3,956,experiment,77,↓,down,↓,0.47194489976391196,True,29,1
158K23S3,957,experiment,72,←,down,↓,0.5003705997951329,False,29,1
158K23S3,958,experiment,65,→,right,→,0.6986831999383867,True,29,1
158K23S3,959,experiment,50,→,right,→,0.4298189003020525,True,29,1
158K23S3,960,experiment,105,↓,down,↓,0.3757866001687944,True,29,1
158K23S3,961,experiment,49,←,left,←,0.3678375999443233,True,29,0
158K23S3,962,experiment,48,←,right,→,0.9539374001324177,False,29,0
158K23S3,963,experiment,96,↑,right,→,0.3674192000180483,False,29,1
158K23S3,964,experiment,70,←,left,←,0.36762139992788434,True,29,0
158K23S3,965,experiment,83,←,down,↓,0.5460481001064181,False,29,0
158K23S3,966,experiment,75,↑,down,↓,0.32565660029649734,False,29,1
158K23S3,967,experiment,57,→,no_key,no_letter,-1.0,False,29,1
158K23S3,968,experiment,59,→,left,←,1.0897793001495302,False,29,1
158K23S3,969,experiment,71,←,left,←,0.5338872000575066,True,29,1
158K23S3,970,experiment,97,←,left,←,0.5359915001317859,True,29,1
158K23S3,971,experiment,60,→,right,→,0.38426800025627017,True,29,1
158K23S3,972,experiment,90,↑,left,←,0.5683965003117919,False,29,0
158K23S3,973,experiment,91,→,right,→,0.515153800137341,True,29,1
158K23S3,974,experiment,76,→,right,→,0.6368328002281487,True,29,1
158K23S3,975,experiment,95,↑,up,↑,0.5795877003110945,True,29,1
158K23S3,976,experiment,104,↑,up,↑,0.45759129989892244,True,29,1
158K23S3,977,experiment,61,←,left,←,0.4829756999388337,True,29,1
158K23S3,978,experiment,52,→,right,→,0.5019815000705421,True,29,1
158K23S3,979,experiment,73,↓,up,↑,0.497307900339365,False,29,1
158K23S3,980,experiment,98,↓,up,↑,0.6843119999393821,False,29,1
158K23S3,981,experiment,74,↓,up,↑,0.44778559962287545,False,29,1
158K23S3,982,experiment,79,←,left,←,0.723374200053513,True,29,1
158K23S3,983,experiment,93,→,right,→,0.45510170003399253,True,29,1
158K23S3,984,experiment,89,↓,down,↓,0.3843584000132978,True,29,1
158K23S3,985,experiment,103,↑,down,↓,0.5488578998483717,False,29,0
158K23S3,986,training,74,←,left,←,0.5481603997759521,True,29,0
158K23S3,987,training,66,←,left,←,0.43998830020427704,True,29,1
158K23S3,988,experiment,104,↓,down,↓,0.683613299857825,True,29,1
158K23S3,989,experiment,74,←,left,←,0.5109900003299117,True,29,1
158K23S3,990,experiment,75,→,right,→,0.529394700191915,True,29,1
158K23S3,991,experiment,93,↑,up,↑,0.7087821001186967,True,29,1
158K23S3,992,experiment,62,↑,up,↑,0.3750171000137925,True,29,1
158K23S3,993,experiment,91,↓,left,←,0.6857816996052861,False,29,0
158K23S3,994,experiment,79,→,left,←,0.5196618000045419,False,29,1
158K23S3,995,experiment,67,←,left,←,0.5563865001313388,True,29,1
158K23S3,996,experiment,57,↑,up,↑,0.45079659996554255,True,29,1
158K23S3,997,experiment,56,↑,up,↑,0.4222740000113845,True,29,1
158K23S3,998,experiment,71,←,right,→,0.6454022000543773,False,29,1
158K23S3,999,experiment,107,↓,up,↑,0.5273495996370912,False,29,1
158K23S3,1000,experiment,84,←,left,←,0.5903679998591542,True,29,1
158K23S3,1001,experiment,99,↓,down,↓,0.4771841000765562,True,29,1
158K23S3,1002,experiment,49,↓,down,↓,0.5856854002922773,True,29,1
158K23S3,1003,experiment,80,←,right,→,0.5196427996270359,False,29,1
158K23S3,1004,experiment,82,→,right,→,0.3593874000944197,True,29,1
158K23S3,1005,experiment,81,↑,no_key,no_letter,-1.0,False,29,0
158K23S3,1006,experiment,85,↑,up,↑,0.5802322998642921,True,29,1
158K23S3,1007,experiment,52,→,up,↑,0.6591726001352072,False,29,1
158K23S3,1008,experiment,60,↓,up,↑,0.4287578999064863,False,29,1
158K23S3,1009,experiment,95,←,no_key,no_letter,-1.0,False,29,1
158K23S3,1010,experiment,51,←,right,→,0.525649200193584,False,29,1
158K23S3,1011,experiment,55,↑,up,↑,0.5498776002787054,True,29,1
158K23S3,1012,experiment,73,↓,down,↓,0.7995045999996364,True,29,1
158K23S3,1013,experiment,97,↑,down,↓,0.5907192002050579,False,29,1
158K23S3,1014,experiment,96,↑,right,→,1.0786453001201153,False,29,1
158K23S3,1015,experiment,48,→,right,→,0.5876342998817563,True,29,1
158K23S3,1016,experiment,105,→,down,↓,0.5774646997451782,False,29,1
158K23S3,1017,experiment,86,↓,down,↓,0.4847984998486936,True,29,1
158K23S3,1018,experiment,58,↑,down,↓,1.0862920000217855,False,29,1
158K23S3,1019,experiment,65,←,down,↓,0.540540300309658,False,29,1
158K23S3,1020,experiment,103,←,left,←,0.6442793002352118,True,29,1
158K23S3,1021,experiment,94,←,left,←,1.8513461002148688,True,29,1
158K23S3,1022,experiment,66,←,left,←,0.4746902999468148,True,29,1
158K23S3,1023,experiment,70,→,left,←,0.5359149998985231,False,29,1
158K23S3,1024,experiment,100,↑,up,↑,0.5371779999695718,True,29,1
158K23S3,1025,experiment,83,↑,up,↑,0.34236689982935786,True,29,1
158K23S3,1026,experiment,68,←,left,←,0.4827982001006603,True,29,1
158K23S3,1027,experiment,72,↑,up,↑,0.6317011001519859,True,29,1
158K23S3,1028,experiment,98,→,right,→,0.46938579995185137,True,29,1
158K23S3,1029,experiment,87,→,right,→,0.7249235999770463,True,29,1
158K23S3,1030,experiment,88,↑,no_key,no_letter,-1.0,False,29,1
158K23S3,1031,experiment,102,↑,up,↑,0.3664429998025298,True,29,1
158K23S3,1032,experiment,90,→,right,→,0.6225304999388754,True,29,0
158K23S3,1033,experiment,78,↓,down,↓,0.7469402002170682,True,29,1
158K23S3,1034,experiment,59,↓,down,↓,0.7616456998512149,True,29,1
158K23S3,1035,experiment,106,↑,no_key,no_letter,-1.0,False,29,1
158K23S3,1036,experiment,61,↓,down,↓,0.9822844001464546,True,29,1
158K23S3,1037,experiment,101,↓,down,↓,0.6530176997184753,True,29,1
158K23S3,1038,experiment,64,→,right,→,0.6213747998699546,True,29,1
158K23S3,1039,experiment,54,→,right,→,0.47453360026702285,True,29,1
158K23S3,1040,experiment,92,→,right,→,0.47243950003758073,True,29,1
158K23S3,1041,experiment,108,↑,up,↑,0.625450000166893,True,29,1
158K23S3,1042,experiment,76,↓,down,↓,0.6788523001596332,True,29,1
158K23S3,1043,experiment,69,↓,down,↓,0.5082057998515666,True,29,1
158K23S3,1044,experiment,53,↑,up,↑,0.478016700129956,True,29,1
158K23S3,1045,experiment,63,→,right,→,0.430033499840647,True,29,1
158K23S3,1046,experiment,77,→,right,→,0.6589556001126766,True,29,1
158K23S3,1047,experiment,50,↑,up,↑,0.43962049996480346,True,29,1
158K23S3,1048,experiment,89,→,right,→,0.7043148004449904,True,29,1
158K23S3,1049,training,107,←,left,←,0.41882710019126534,True,29,0
158K23S3,1050,training,68,↑,up,↑,0.4184783003292978,True,29,1
158K23S3,1051,experiment,80,→,right,→,0.4789164997637272,True,29,1
158K23S3,1052,experiment,65,↓,down,↓,0.7338534002192318,True,29,1
158K23S3,1053,experiment,78,←,left,←,0.5905728996731341,True,29,1
158K23S3,1054,experiment,48,→,right,→,1.7584378998726606,True,29,1
158K23S3,1055,experiment,86,←,left,←,0.6028817002661526,True,29,1
158K23S3,1056,experiment,75,↓,down,↓,0.6176554001867771,True,29,1
158K23S3,1057,experiment,88,↑,up,↑,0.699295099824667,True,29,1
158K23S3,1058,experiment,51,↓,down,↓,0.6460624001920223,True,29,1
158K23S3,1059,experiment,93,←,left,←,0.5647281999699771,True,29,1
158K23S3,1060,experiment,57,←,right,→,0.5548700001090765,False,29,1
158K23S3,1061,experiment,54,↑,up,↑,1.858551099896431,True,29,1
158K23S3,1062,experiment,76,↑,up,↑,0.3916881000623107,True,29,1
158K23S3,1063,experiment,62,←,left,←,0.48933969996869564,True,29,0
158K23S3,1064,experiment,107,→,left,←,0.689695299603045,False,29,1
158K23S3,1065,experiment,97,←,left,←,0.38411840004846454,True,29,1
158K23S3,1066,experiment,99,↓,down,↓,0.7483891998417675,True,29,0
158K23S3,1067,experiment,84,↑,up,↑,1.4900914002209902,True,29,1
158K23S3,1068,experiment,64,→,right,→,0.5526460004039109,True,29,1
158K23S3,1069,experiment,87,↓,down,↓,0.6694510001689196,True,29,1
158K23S3,1070,experiment,82,←,left,←,0.4239501999691129,True,29,1
158K23S3,1071,experiment,70,←,left,←,0.6865198998712003,True,29,1
158K23S3,1072,experiment,103,→,right,→,0.37496909964829683,True,29,1
158K23S3,1073,experiment,101,↓,down,↓,0.3842086996883154,True,29,0
158K23S3,1074,experiment,73,→,no_key,no_letter,-1.0,False,29,0
158K23S3,1075,experiment,74,↓,down,↓,0.4655884997919202,True,29,1
158K23S3,1076,experiment,106,←,left,←,0.6673556002788246,True,29,1
158K23S3,1077,experiment,89,←,left,←,0.36717370012775064,True,29,1
158K23S3,1078,experiment,58,→,right,→,0.4166605998761952,True,29,0
158K23S3,1079,experiment,50,↑,up,↑,0.5504130003973842,True,29,1
158K23S3,1080,experiment,77,↓,down,↓,0.6784051996655762,True,29,1
158K23S3,1081,experiment,60,←,left,←,0.5509617999196053,True,29,1
158K23S3,1082,experiment,61,←,left,←,0.5644412999972701,True,29,1
158K23S3,1083,experiment,83,↑,up,↑,0.537750500254333,True,29,1
158K23S3,1084,experiment,63,←,left,←,0.7831888999789953,True,29,1
158K23S3,1085,experiment,72,→,right,→,0.4552668002434075,True,29,1
158K23S3,1086,experiment,68,↓,left,←,0.5339946998283267,False,29,1
158K23S3,1087,experiment,56,→,right,→,0.5423058997839689,True,29,1
158K23S3,1088,experiment,85,←,left,←,0.4117006999440491,True,29,1
158K23S3,1089,experiment,53,←,right,→,0.6570578003302217,False,29,0
158K23S3,1090,experiment,52,↑,up,↑,0.46908949967473745,True,29,1
158K23S3,1091,experiment,100,→,right,→,0.3924193000420928,True,29,1
158K23S3,1092,experiment,67,↓,down,↓,0.7144311000593007,True,29,0
158K23S3,1093,experiment,59,→,right,→,0.44949400005862117,True,29,1
158K23S3,1094,experiment,96,↓,down,↓,0.503324399702251,True,29,1
158K23S3,1095,experiment,69,→,right,→,0.4763986002653837,True,29,1
158K23S3,1096,experiment,55,↑,up,↑,0.4233069000765681,True,29,1
158K23S3,1097,experiment,49,↑,right,→,0.4771798998117447,False,29,1
158K23S3,1098,experiment,108,↓,down,↓,0.598070100415498,True,29,1
158K23S3,1099,experiment,79,→,right,→,0.6110980999656022,True,29,1
158K23S3,1100,experiment,66,→,right,→,0.44448859989643097,True,29,1
158K23S3,1101,experiment,71,↑,up,↑,0.5069595002569258,True,29,1
158K23S3,1102,experiment,92,↑,up,↑,0.6560408999212086,True,29,1
158K23S3,1103,experiment,98,→,no_key,no_letter,-1.0,False,29,1
158K23S3,1104,experiment,94,↑,up,↑,0.4722326002083719,True,29,1
158K23S3,1105,experiment,90,↓,down,↓,0.6470158998854458,True,29,1
158K23S3,1106,experiment,81,→,left,←,0.6577111999504268,False,29,1
158K23S3,1107,experiment,104,↑,up,↑,0.5162956998683512,True,29,1
158K23S3,1108,experiment,95,↑,up,↑,0.4476835001260042,True,29,1
158K23S3,1109,experiment,91,↓,down,↓,0.6311236000619829,True,29,1
158K23S3,1110,experiment,102,→,down,↓,0.49144789995625615,False,29,1
158K23S3,1111,experiment,105,←,left,←,0.3921113000251353,True,29,1
158K23S3,1112,training,64,↓,down,↓,0.7122130999341607,True,29,0
158K23S3,1113,training,105,↓,down,↓,0.4880739999935031,True,29,1
158K23S3,1114,experiment,63,↑,up,↑,0.5672368998639286,True,29,1
158K23S3,1115,experiment,82,↑,up,↑,0.37565060006454587,True,29,1
158K23S3,1116,experiment,71,←,left,←,0.5256277997978032,True,29,0
158K23S3,1117,experiment,94,↓,down,↓,0.7450632001273334,True,29,1
158K23S3,1118,experiment,55,←,left,←,0.48881349992007017,True,29,1
158K23S3,1119,experiment,59,←,left,←,0.5451798997819424,True,29,1
158K23S3,1120,experiment,58,↓,down,↓,0.5762590998783708,True,29,1
158K23S3,1121,experiment,89,→,down,↓,0.539351699873805,False,29,1
158K23S3,1122,experiment,92,←,left,←,0.5106361000798643,True,29,1
158K23S3,1123,experiment,108,↑,up,↑,0.6781264003366232,True,29,1
158K23S3,1124,experiment,93,→,left,←,0.5878636999987066,False,29,1
158K23S3,1125,experiment,54,↓,down,↓,0.3674012999981642,True,29,1
158K23S3,1126,experiment,53,→,right,→,0.40902769984677434,True,29,0
158K23S3,1127,experiment,60,←,left,←,0.38382659992203116,True,29,0
158K23S3,1128,experiment,74,←,left,←,0.35867600003257394,True,29,0
158K23S3,1129,experiment,65,↓,no_key,no_letter,-1.0,False,29,0
158K23S3,1130,experiment,80,↑,up,↑,0.4792093997821212,True,29,1
158K23S3,1131,experiment,62,↓,down,↓,0.4469901998527348,True,29,1
158K23S3,1132,experiment,66,→,right,→,0.3831210001371801,True,29,1
158K23S3,1133,experiment,98,→,left,←,1.0460370001383126,False,29,0
158K23S3,1134,experiment,83,←,no_key,no_letter,-1.0,False,29,1
158K23S3,1135,experiment,100,←,left,←,0.5942675000987947,True,29,1
158K23S3,1136,experiment,50,←,left,←,0.6013834998011589,True,29,1
158K23S3,1137,experiment,78,→,left,←,0.4552640998736024,False,29,1
158K23S3,1138,experiment,101,↓,up,↑,0.5307698999531567,False,29,1
158K23S3,1139,experiment,69,←,left,←,0.3676964999176562,True,29,1
158K23S3,1140,experiment,97,→,right,→,0.454659900162369,True,29,0
158K23S3,1141,experiment,104,→,left,←,0.5697035999037325,False,29,1
158K23S3,1142,experiment,91,→,down,↓,0.8443988999351859,False,29,1
158K23S3,1143,experiment,68,↑,up,↑,0.4759303997270763,True,29,1
158K23S3,1144,experiment,96,→,up,↑,0.23419189965352416,False,29,1
158K23S3,1145,experiment,48,↓,up,↑,0.4157889001071453,False,29,0
158K23S3,1146,experiment,77,↓,left,←,0.42820070032030344,False,29,0
158K23S3,1147,experiment,52,↑,down,↓,0.23373069986701012,False,29,1
158K23S3,1148,experiment,86,→,no_key,no_letter,-1.0,False,29,0
158K23S3,1149,experiment,72,↑,up,↑,0.4861210002563894,True,29,1
158K23S3,1150,experiment,81,↑,up,↑,0.4791128998622298,True,29,1
158K23S3,1151,experiment,76,↓,left,←,0.6426166999153793,False,29,1
158K23S3,1152,experiment,57,↓,down,↓,0.3263930003158748,True,29,1
158K23S3,1153,experiment,95,←,left,←,0.6397732999175787,True,29,0
158K23S3,1154,experiment,88,↑,up,↑,0.6804710999131203,True,29,1
158K23S3,1155,experiment,106,→,right,→,0.37568769976496696,True,29,1
158K23S3,1156,experiment,75,→,right,→,0.38735449966043234,True,29,0
158K23S3,1157,experiment,73,←,left,←,0.4407603000290692,True,29,1
158K23S3,1158,experiment,105,↑,up,↑,0.4279781002551317,True,29,1
158K23S3,1159,experiment,99,↑,up,↑,0.5377107998356223,True,29,1
158K23S3,1160,experiment,107,↑,up,↑,0.6161555000580847,True,29,1
158K23S3,1161,experiment,90,↓,up,↑,0.5612678001634777,False,29,1
158K23S3,1162,experiment,61,↑,up,↑,0.4942485000938177,True,29,1
158K23S3,1163,experiment,67,↓,down,↓,0.5481269001029432,True,29,1
158K23S3,1164,experiment,56,↓,down,↓,0.3586347997188568,True,29,1
158K23S3,1165,experiment,70,←,right,→,0.6854607998393476,False,29,0
158K23S3,1166,experiment,103,↑,up,↑,0.7429543999023736,True,29,1
158K23S3,1167,experiment,79,→,right,→,0.4155085999518633,True,29,1
158K23S3,1168,experiment,51,→,right,→,0.5407357001677155,True,29,0
158K23S3,1169,experiment,87,←,left,←,0.3423644998110831,True,29,1
158K23S3,1170,experiment,49,↑,up,↑,0.5713303000666201,True,29,0
158K23S3,1171,experiment,102,→,right,→,0.3667242000810802,True,29,1
158K23S3,1172,experiment,84,↓,up,↑,0.7190319998189807,False,29,0
158K23S3,1173,experiment,64,↓,up,↑,0.556452099699527,False,29,1
158K23S3,1174,experiment,85,→,left,←,0.47353259986266494,False,29,1
158K23S3,1175,training,72,←,left,←,0.5466172997839749,True,29,0
158K23S3,1176,training,75,↓,left,←,0.6434082998894155,False,29,1
158K23S3,1177,experiment,99,↑,down,↓,0.5045901001431048,False,29,1
158K23S3,1178,experiment,70,↑,left,←,0.5489825000986457,False,29,1
158K23S3,1179,experiment,75,↓,left,←,0.7018272001296282,False,29,1
158K23S3,1180,experiment,79,↑,up,↑,0.5110776000656188,True,29,1
158K23S3,1181,experiment,65,↓,up,↑,0.6688115000724792,False,29,1
158K23S3,1182,experiment,55,→,right,→,1.5437622000463307,True,29,1
158K23S3,1183,experiment,48,→,left,←,0.5535857998766005,False,29,1
158K23S3,1184,experiment,100,←,up,↑,0.681997500360012,False,29,1
158K23S3,1185,experiment,78,→,left,←,0.4520767997018993,False,29,1
158K23S3,1186,experiment,107,↓,down,↓,0.486134999897331,True,29,1
158K23S3,1187,experiment,93,→,right,→,0.43560370011255145,True,29,1
158K23S3,1188,experiment,85,←,left,←,0.4297806001268327,True,29,1
158K23S3,1189,experiment,74,←,left,←,0.6123859998770058,True,29,1
158K23S3,1190,experiment,81,↑,up,↑,0.6079061003401875,True,29,1
158K23S3,1191,experiment,51,↓,down,↓,0.6541128996759653,True,29,1
158K23S3,1192,experiment,58,↑,up,↑,0.5922548999078572,True,29,1
158K23S3,1193,experiment,67,↓,down,↓,0.6511610001325607,True,29,1
158K23S3,1194,experiment,62,←,left,←,0.531050999648869,True,29,1
158K23S3,1195,experiment,73,←,left,←,0.3336732001043856,True,29,1
158K23S3,1196,experiment,68,↑,down,↓,0.5287542999722064,False,29,0
158K23S3,1197,experiment,91,↓,down,↓,0.36689009983092546,True,29,1
158K23S3,1198,experiment,66,↓,down,↓,0.3833222999237478,True,29,0
158K23S3,1199,experiment,97,→,left,←,0.9114295998588204,False,29,0
158K23S3,1200,experiment,96,←,left,←,0.42713649990037084,True,29,1
158K23S3,1201,experiment,90,↓,down,↓,0.5233507002703846,True,29,1
158K23S3,1202,experiment,69,→,right,→,0.3756558997556567,True,29,1
158K23S3,1203,experiment,88,→,right,→,0.3925862996838987,True,29,0
158K23S3,1204,experiment,84,→,right,→,0.7499965000897646,True,29,0
158K23S3,1205,experiment,106,←,left,←,0.48403820022940636,True,29,1
158K23S3,1206,experiment,60,↑,up,↑,0.5088046998716891,True,29,1
158K23S3,1207,experiment,89,↓,down,↓,0.6903150998987257,True,29,1
158K23S3,1208,experiment,92,↑,up,↑,0.7756996001116931,True,29,1
158K23S3,1209,experiment,83,←,right,→,0.47655140003189445,False,29,1
158K23S3,1210,experiment,105,←,left,←,0.4229280003346503,True,29,1
158K23S3,1211,experiment,86,←,left,←,0.46442179987207055,True,29,1
158K23S3,1212,experiment,72,↓,down,↓,0.4854818000458181,True,29,1
158K23S3,1213,experiment,57,→,right,→,0.6469586999155581,True,29,1
158K23S3,1214,experiment,53,↓,down,↓,0.359222199767828,True,29,1
158K23S3,1215,experiment,61,←,left,←,0.3765810998156667,True,29,0
158K23S3,1216,experiment,64,↑,up,↑,0.5145693998783827,True,29,0
158K23S3,1217,experiment,59,↓,down,↓,0.4981178999878466,True,29,1
158K23S3,1218,experiment,95,←,no_key,no_letter,-1.0,False,29,1
158K23S3,1219,experiment,94,←,left,←,0.5779258999973536,True,29,1
158K23S3,1220,experiment,108,←,left,←,0.49488409981131554,True,29,1
158K23S3,1221,experiment,71,→,right,→,0.5629839999601245,True,29,1
158K23S3,1222,experiment,63,↑,down,↓,0.8231681999750435,False,29,1
158K23S3,1223,experiment,77,→,right,→,0.37570489989593625,True,29,1
158K23S3,1224,experiment,80,→,right,→,0.3841703999787569,True,29,0
158K23S3,1225,experiment,56,←,left,←,0.4393356000073254,True,29,0
158K23S3,1226,experiment,101,←,left,←,0.6037973999045789,True,29,1
158K23S3,1227,experiment,76,→,right,→,0.5620129997842014,True,29,1
158K23S3,1228,experiment,52,←,left,←,0.5619744998402894,True,29,1
158K23S3,1229,experiment,103,→,left,←,0.3090093000791967,False,29,1
158K23S3,1230,experiment,54,→,right,→,0.6583990999497473,True,29,0
158K23S3,1231,experiment,49,↑,up,↑,0.4951294995844364,True,29,1
158K23S3,1232,experiment,82,←,right,→,0.4323538998141885,False,29,1
158K23S3,1233,experiment,87,↑,no_key,no_letter,-1.0,False,29,1
158K23S3,1234,experiment,98,→,right,→,0.6282000001519918,True,29,1
158K23S3,1235,experiment,104,↑,up,↑,0.5439357999712229,True,29,1
158K23S3,1236,experiment,50,↑,up,↑,0.35052999993786216,True,29,1
158K23S3,1237,experiment,102,↓,up,↑,0.4887790000066161,False,29,0
158K23S3,1238,training,68,↓,up,↑,0.765947500243783,False,29,0
158K23S3,1239,training,107,↓,down,↓,1.6192707000300288,True,29,1
158K23S3,1240,experiment,100,←,left,←,0.4094806001521647,True,29,1
158K23S3,1241,experiment,58,↓,down,↓,1.1646607001312077,True,29,1
158K23S3,1242,experiment,90,→,right,→,0.3836619998328388,True,29,1
158K23S3,1243,experiment,84,←,left,←,0.5474236998707056,True,29,0
158K23S3,1244,experiment,96,↑,down,↓,1.0452466001734138,False,29,1
158K23S3,1245,experiment,102,↓,down,↓,0.3756858999840915,True,29,1
158K23S3,1246,experiment,55,↓,down,↓,0.6874051997438073,True,29,0
158K23S3,1247,experiment,94,←,right,→,0.7800447000190616,False,29,1
158K23S3,1248,experiment,88,↓,down,↓,0.6869600000791252,True,29,1
158K23S3,1249,experiment,78,↑,down,↓,0.8255107998847961,False,29,1
158K23S3,1250,experiment,91,→,right,→,0.8257129997946322,True,29,1
158K23S3,1251,experiment,75,←,left,←,0.38429119996726513,True,29,1
158K23S3,1252,experiment,70,↓,right,→,0.5361358998343349,False,29,0
158K23S3,1253,experiment,63,↓,down,↓,0.6537978001870215,True,29,1
158K23S3,1254,experiment,67,↓,no_key,no_letter,-1.0,False,29,1
158K23S3,1255,experiment,61,↓,down,↓,0.5800458998419344,True,29,1
158K23S3,1256,experiment,74,←,down,↓,0.5319980997592211,False,29,1
158K23S3,1257,experiment,62,↓,down,↓,0.6414032997563481,True,29,1
158K23S3,1258,experiment,53,←,left,←,0.7499402998946607,True,29,1
158K23S3,1259,experiment,51,←,right,→,0.6707461001351476,False,29,1
158K23S3,1260,experiment,65,→,right,→,0.38328370032832026,True,29,1
158K23S3,1261,experiment,57,←,left,←,0.5311246002092957,True,29,0
158K23S3,1262,experiment,80,→,right,→,0.4666534001007676,True,29,1
158K23S3,1263,experiment,69,→,left,←,0.9124892000108957,False,29,1
158K23S3,1264,experiment,101,↑,up,↑,0.6018957998603582,True,29,1
158K23S3,1265,experiment,87,→,down,↓,0.836731499992311,False,29,1
158K23S3,1266,experiment,68,↓,down,↓,0.5238669998943806,True,29,1
158K23S3,1267,experiment,98,→,right,→,0.3583017000928521,True,29,1
158K23S3,1268,experiment,60,↓,down,↓,0.6031363997608423,True,29,0
158K23S3,1269,experiment,52,←,left,←,0.6978821996599436,True,29,1
158K23S3,1270,experiment,92,→,right,→,0.3753162999637425,True,29,1
158K23S3,1271,experiment,86,↑,up,↑,0.5062353000976145,True,29,0
158K23S3,1272,experiment,76,←,left,←,0.3589117000810802,True,29,1
158K23S3,1273,experiment,107,←,left,←,0.38407539995387197,True,29,0
158K23S3,1274,experiment,77,→,no_key,no_letter,-1.0,False,29,0
158K23S3,1275,experiment,49,→,right,→,0.54730169987306,True,29,1
158K23S3,1276,experiment,59,↑,up,↑,0.6095479000359774,True,29,1
158K23S3,1277,experiment,54,←,right,→,0.47888229973614216,False,29,1
158K23S3,1278,experiment,103,→,right,→,0.3840037998743355,True,29,1
158K23S3,1279,experiment,89,←,left,←,0.6920264000073075,True,29,1
158K23S3,1280,experiment,99,→,right,→,0.3832461000420153,True,29,1
158K23S3,1281,experiment,48,→,right,→,0.5587118002586067,True,29,0
158K23S3,1282,experiment,85,↓,down,↓,0.651602900121361,True,29,1
158K23S3,1283,experiment,50,←,down,↓,0.48061349987983704,False,29,1
158K23S3,1284,experiment,93,→,down,↓,0.6462270999327302,False,29,1
158K23S3,1285,experiment,83,→,right,→,0.41677350038662553,True,29,1
158K23S3,1286,experiment,82,←,left,←,0.7961210003122687,True,29,0
158K23S3,1287,experiment,108,↑,left,←,0.41617210023105145,False,29,1
158K23S3,1288,experiment,73,←,right,→,0.3759612999856472,False,29,0
158K23S3,1289,experiment,105,→,right,→,0.6922842003405094,True,29,0
158K23S3,1290,experiment,56,←,right,→,0.693633500020951,False,29,1
158K23S3,1291,experiment,106,←,right,→,0.5660256003029644,False,29,1
158K23S3,1292,experiment,72,↑,up,↑,0.5754354000091553,True,29,1
158K23S3,1293,experiment,79,←,down,↓,0.6935092001222074,False,29,1
158K23S3,1294,experiment,71,↓,down,↓,0.4740178999491036,True,29,1
158K23S3,1295,experiment,104,→,right,→,0.4839932997711003,True,29,1
158K23S3,1296,experiment,95,↓,down,↓,0.456693799700588,True,29,1
158K23S3,1297,experiment,66,↓,down,↓,0.5281773000024259,True,29,1
158K23S3,1298,experiment,97,↑,up,↑,0.5146484998986125,True,29,1
158K23S3,1299,experiment,81,↑,up,↑,0.890514800325036,True,29,1
158K23S3,1300,experiment,64,←,left,←,0.5294662998057902,True,29,1
158K23S3,1301,training,90,↑,up,↑,0.9761799997650087,True,29,0
158K23S3,1302,training,97,→,right,→,0.46466280007734895,True,29,1
158K23S3,1303,experiment,64,→,right,→,0.48800390027463436,True,29,1
158K23S3,1304,experiment,92,→,left,←,0.6217797002755105,False,29,1
158K23S3,1305,experiment,62,↓,down,↓,0.5918991998769343,True,29,1
158K23S3,1306,experiment,54,→,right,→,0.4700849000364542,True,29,1
158K23S3,1307,experiment,84,↑,up,↑,0.9190237000584602,True,29,1
158K23S3,1308,experiment,90,↑,up,↑,0.5884040002711117,True,29,1
158K23S3,1309,experiment,93,→,left,←,0.49341259989887476,False,29,1
158K23S3,1310,experiment,96,←,right,→,0.4411506000906229,False,29,1
158K23S3,1311,experiment,74,↑,up,↑,0.7104646000079811,True,29,1
158K23S3,1312,experiment,99,←,right,→,0.44091679994016886,False,29,1
158K23S3,1313,experiment,48,↑,right,→,0.4949692999944091,False,29,1
158K23S3,1314,experiment,85,→,right,→,0.486720799934119,True,29,1
158K23S3,1315,experiment,59,↓,right,→,0.5995299997739494,False,29,1
158K23S3,1316,experiment,106,→,right,→,0.44381470000371337,True,29,1
158K23S3,1317,experiment,108,←,left,←,0.3590688002295792,True,29,1
158K23S3,1318,experiment,88,→,right,→,0.426197599619627,True,29,0
158K23S3,1319,experiment,78,→,right,→,0.42310559982433915,True,29,1
158K23S3,1320,experiment,83,←,left,←,0.41033909982070327,True,29,1
158K23S3,1321,experiment,94,→,right,→,0.39245180040597916,True,29,1
158K23S3,1322,experiment,61,→,left,←,0.4686555997468531,False,29,0
158K23S3,1323,experiment,65,←,no_key,no_letter,-1.0,False,29,1
158K23S3,1324,experiment,107,↓,right,→,0.5235512997023761,False,29,1
158K23S3,1325,experiment,81,→,right,→,0.43544579995796084,True,29,1
158K23S3,1326,experiment,76,←,right,→,0.5126062999479473,False,29,1
158K23S3,1327,experiment,53,→,right,→,0.44188440032303333,True,29,1
158K23S3,1328,experiment,91,↓,down,↓,0.4498339002020657,True,29,1
158K23S3,1329,experiment,80,←,left,←,0.3501200000755489,True,29,1
158K23S3,1330,experiment,87,↓,right,→,0.417567300144583,False,29,0
158K23S3,1331,experiment,73,←,left,←,0.33402479998767376,True,29,1
158K23S3,1332,experiment,58,←,left,←,0.34305950021371245,True,29,0
158K23S3,1333,experiment,68,↑,up,↑,0.44902920024469495,True,29,0
158K23S3,1334,experiment,63,↓,down,↓,0.5861607999540865,True,29,1
158K23S3,1335,experiment,75,↑,up,↑,0.4575072997249663,True,29,1
158K23S3,1336,experiment,77,↓,right,→,0.4529506000690162,False,29,1
158K23S3,1337,experiment,102,→,right,→,0.38441129960119724,True,29,1
158K23S3,1338,experiment,86,←,left,←,0.4205923001281917,True,29,0
158K23S3,1339,experiment,51,→,right,→,0.5378379002213478,True,29,1
158K23S3,1340,experiment,103,←,left,←,0.3173902998678386,True,29,1
158K23S3,1341,experiment,70,←,right,→,0.41353349993005395,False,29,0
158K23S3,1342,experiment,52,↓,down,↓,0.6825000001117587,True,29,1
158K23S3,1343,experiment,79,←,left,←,0.39234390016645193,True,29,1
158K23S3,1344,experiment,98,←,left,←,0.547607600223273,True,29,0
158K23S3,1345,experiment,97,←,right,→,0.4210373000241816,False,29,1
158K23S3,1346,experiment,101,↓,down,↓,0.426309899892658,True,29,1
158K23S3,1347,experiment,89,←,left,←,0.39234340004622936,True,29,1
158K23S3,1348,experiment,55,↑,down,↓,0.5121955000795424,False,29,0
158K23S3,1349,experiment,50,↑,down,↓,0.45894209994003177,False,29,1
158K23S3,1350,experiment,57,←,right,→,0.5494177998043597,False,29,1
158K23S3,1351,experiment,56,→,left,←,0.6927278996445239,False,29,1
158K23S3,1352,experiment,71,←,no_key,no_letter,-1.0,False,29,1
158K23S3,1353,experiment,82,↑,right,→,0.41761620016768575,False,29,1
158K23S3,1354,experiment,95,↑,down,↓,0.7281591999344528,False,29,1
158K23S3,1355,experiment,67,←,left,←,0.44496210012584925,True,29,1
158K23S3,1356,experiment,105,←,no_key,no_letter,-1.0,False,29,1
158K23S3,1357,experiment,100,↓,down,↓,0.5373757001943886,True,29,1
158K23S3,1358,experiment,72,↑,up,↑,0.6435810001567006,True,29,1
158K23S3,1359,experiment,69,↑,up,↑,0.42665829975157976,True,29,1
158K23S3,1360,experiment,49,↓,up,↑,0.6970404996536672,False,29,1
158K23S3,1361,experiment,66,↓,down,↓,0.5754599999636412,True,29,1
158K23S3,1362,experiment,104,→,right,→,0.4213595003820956,True,29,1
158K23S3,1363,experiment,60,←,left,←,0.6557750999927521,True,29,1
158K23S3,1364,training,70,←,left,←,0.40914220036938787,True,29,0
158K23S3,1365,training,64,←,left,←,0.3412119001150131,True,29,0
158K23S3,1366,experiment,77,↓,down,↓,0.6746379998512566,True,29,0
158K23S3,1367,experiment,60,→,right,→,0.5395833998918533,True,29,1
158K23S3,1368,experiment,69,↓,down,↓,0.4863764997571707,True,29,1
158K23S3,1369,experiment,75,↑,up,↑,0.6980081000365317,True,29,1
158K23S3,1370,experiment,74,↓,down,↓,0.43680639984086156,True,29,1
158K23S3,1371,experiment,95,←,left,←,0.5311944000422955,True,29,1
158K23S3,1372,experiment,82,←,left,←,0.5062348004430532,True,29,1
158K23S3,1373,experiment,76,→,down,↓,0.5646847998723388,False,29,1
158K23S3,1374,experiment,72,↓,down,↓,0.46939249988645315,True,29,1
158K23S3,1375,experiment,70,←,left,←,0.3674133997410536,True,29,1
158K23S3,1376,experiment,89,→,right,→,0.47026599990203977,True,29,0
158K23S3,1377,experiment,51,←,left,←,0.4823759002611041,True,29,1
158K23S3,1378,experiment,65,←,down,↓,0.6011652001179755,False,29,1
158K23S3,1379,experiment,66,↑,down,↓,0.46715940022841096,False,29,1
158K23S3,1380,experiment,48,↑,down,↓,0.5600380999967456,False,29,1
158K23S3,1381,experiment,108,→,down,↓,0.55750049976632,False,29,1
158K23S3,1382,experiment,102,↑,up,↑,0.5087087000720203,True,29,1
158K23S3,1383,experiment,55,↑,up,↑,0.5741816000081599,True,29,1
158K23S3,1384,experiment,67,↑,up,↑,0.5362329999916255,True,29,1
158K23S3,1385,experiment,61,↑,up,↑,0.35912439972162247,True,29,1
158K23S3,1386,experiment,68,↓,up,↑,0.5452399998903275,False,29,0
158K23S3,1387,experiment,91,↓,up,↑,0.5004470003768802,False,29,1
158K23S3,1388,experiment,49,↑,down,↓,0.6799333998933434,False,29,1
158K23S3,1389,experiment,63,→,right,→,0.4713535998016596,True,29,1
158K23S3,1390,experiment,93,↑,up,↑,0.5890891002491117,True,29,1
158K23S3,1391,experiment,92,←,left,←,0.5505597000010312,True,29,1
158K23S3,1392,experiment,85,→,right,→,0.5238034003414214,True,29,1
158K23S3,1393,experiment,56,→,right,→,0.41204289998859167,True,29,1
158K23S3,1394,experiment,98,↑,left,←,0.7542781000956893,False,29,0
158K23S3,1395,experiment,54,←,left,←,0.46568539971485734,True,29,1
158K23S3,1396,experiment,104,←,right,→,0.5080792000517249,False,29,1
158K23S3,1397,experiment,100,←,left,←,0.3256803001277149,True,29,1
158K23S3,1398,experiment,58,→,right,→,0.46923930011689663,True,29,1
158K23S3,1399,experiment,73,→,left,←,0.4266100996173918,False,29,1
158K23S3,1400,experiment,81,↓,left,←,0.3836208996362984,False,29,1
158K23S3,1401,experiment,103,↓,down,↓,0.5793937998823822,True,29,0
158K23S3,1402,experiment,59,↑,up,↑,0.5118423001840711,True,29,1
158K23S3,1403,experiment,79,→,left,←,0.5696387998759747,False,29,1
158K23S3,1404,experiment,84,↓,right,→,0.6539878998883069,False,29,1
158K23S3,1405,experiment,80,→,right,→,0.3757270001806319,True,29,1
158K23S3,1406,experiment,78,→,right,→,0.34232259960845113,True,29,0
158K23S3,1407,experiment,87,→,right,→,0.5239687999710441,True,29,0
158K23S3,1408,experiment,83,←,down,↓,0.6991392001509666,False,29,1
158K23S3,1409,experiment,88,→,right,→,0.40995300002396107,True,29,1
158K23S3,1410,experiment,86,→,left,←,0.4997243997640908,False,29,0
158K23S3,1411,experiment,96,↑,up,↑,0.43153770035132766,True,29,1
158K23S3,1412,experiment,53,→,right,→,0.47646200004965067,True,29,1
158K23S3,1413,experiment,99,↑,left,←,0.5605159997940063,False,29,1
158K23S3,1414,experiment,62,↓,down,↓,0.6050757998600602,True,29,1
158K23S3,1415,experiment,64,→,no_key,no_letter,-1.0,False,29,1
158K23S3,1416,experiment,90,↓,right,→,0.3179429997690022,False,29,1
158K23S3,1417,experiment,101,←,left,←,1.6051266002468765,True,29,1
158K23S3,1418,experiment,107,→,right,→,0.39205959998071194,True,29,1
158K23S3,1419,experiment,106,↑,up,↑,0.437293800059706,True,29,0
158K23S3,1420,experiment,105,←,right,→,0.5203420002944767,False,29,1
158K23S3,1421,experiment,57,↑,right,→,0.34270190028473735,False,29,1
158K23S3,1422,experiment,71,←,left,←,0.5382209997624159,True,29,0
158K23S3,1423,experiment,52,↓,down,↓,0.49905139999464154,True,29,1
158K23S3,1424,experiment,50,↓,down,↓,0.5741396998055279,True,29,1
158K23S3,1425,experiment,94,→,right,→,0.4238400999456644,True,29,1
158K23S3,1426,experiment,97,↓,no_key,no_letter,-1.0,False,29,1
158K23S3,1427,training,90,↑,up,↑,0.4952557999640703,True,29,0
158K23S3,1428,training,55,↓,up,↑,0.4649934000335634,False,29,1
158K23S3,1429,experiment,63,↓,down,↓,0.6013703998178244,True,29,1
158K23S3,1430,experiment,77,↑,up,↑,0.4711498999968171,True,29,1
158K23S3,1431,experiment,73,→,right,→,0.33383299969136715,True,29,1
158K23S3,1432,experiment,101,↑,up,↑,0.47590130008757114,True,29,0
158K23S3,1433,experiment,66,↑,no_key,no_letter,-1.0,False,29,1
158K23S3,1434,experiment,99,←,left,←,0.38410509983077645,True,29,1
158K23S3,1435,experiment,78,↑,up,↑,0.5390743003226817,True,29,1
158K23S3,1436,experiment,49,←,left,←,0.5087172999046743,True,29,1
158K23S3,1437,experiment,54,↓,up,↑,0.47840180015191436,False,29,1
158K23S3,1438,experiment,50,←,left,←,0.3248967002145946,True,29,1
158K23S3,1439,experiment,93,←,right,→,0.5818378999829292,False,29,0
158K23S3,1440,experiment,52,↓,down,↓,0.6928229001350701,True,29,1
158K23S3,1441,experiment,57,↑,up,↑,0.6058601001277566,True,29,1
158K23S3,1442,experiment,87,↑,left,←,0.5842485004104674,False,29,1
158K23S3,1443,experiment,51,←,right,→,0.503973999992013,False,29,1
158K23S3,1444,experiment,59,←,left,←,0.43980180006474257,True,29,1
158K23S3,1445,experiment,48,↓,down,↓,0.4542864002287388,True,29,1
158K23S3,1446,experiment,68,→,down,↓,0.5013733999803662,False,29,1
158K23S3,1447,experiment,84,←,left,←,0.3669511997140944,True,29,1
158K23S3,1448,experiment,102,←,left,←,0.3677607998251915,True,29,0
158K23S3,1449,experiment,60,←,up,↑,1.0319373002275825,False,29,0
158K23S3,1450,experiment,85,→,no_key,no_letter,-1.0,False,29,1
158K23S3,1451,experiment,56,←,left,←,0.5707229999825358,True,29,1
158K23S3,1452,experiment,90,↓,down,↓,0.5571882999502122,True,29,1
158K23S3,1453,experiment,96,→,right,→,0.5665863999165595,True,29,1
158K23S3,1454,experiment,53,→,right,→,0.5583766996860504,True,29,1
158K23S3,1455,experiment,95,↑,down,↓,0.44793560029938817,False,29,1
158K23S3,1456,experiment,64,↓,no_key,no_letter,-1.0,False,29,1
158K23S3,1457,experiment,100,←,left,←,1.2582094999961555,True,29,1
158K23S3,1458,experiment,61,↓,down,↓,0.5712173003703356,True,29,1
158K23S3,1459,experiment,74,↓,down,↓,0.4358363002538681,True,29,1
158K23S3,1460,experiment,80,↓,down,↓,0.4392369999550283,True,29,1
158K23S3,1461,experiment,86,↓,down,↓,0.5367731000296772,True,29,1
158K23S3,1462,experiment,79,→,right,→,0.5128122996538877,True,29,1
158K23S3,1463,experiment,103,↓,down,↓,0.4095624000765383,True,29,1
158K23S3,1464,experiment,94,→,right,→,0.4097139001823962,True,29,0
158K23S3,1465,experiment,104,→,right,→,0.36711869994178414,True,29,0
158K23S3,1466,experiment,108,←,left,←,0.3917395998723805,True,29,0
158K23S3,1467,experiment,91,↓,down,↓,1.1075841002166271,True,29,0
158K23S3,1468,experiment,98,←,left,←,0.5741816000081599,True,29,1
158K23S3,1469,experiment,70,←,left,←,0.3177694999612868,True,29,1
158K23S3,1470,experiment,55,←,left,←,0.4400882003828883,True,29,0
158K23S3,1471,experiment,81,↓,up,↑,0.8751529003493488,False,29,1
158K23S3,1472,experiment,88,←,down,↓,0.9224520004354417,False,29,1
158K23S3,1473,experiment,106,↑,up,↑,0.6339436997659504,True,29,1
158K23S3,1474,experiment,75,←,right,→,0.5831538001075387,False,29,1
158K23S3,1475,experiment,62,→,right,→,0.530954800080508,True,29,1
158K23S3,1476,experiment,83,→,right,→,0.5615584002807736,True,29,1
158K23S3,1477,experiment,82,↑,right,→,0.4476605001837015,False,29,1
158K23S3,1478,experiment,58,←,down,↓,0.586126200389117,False,29,1
158K23S3,1479,experiment,67,↑,down,↓,0.45220440020784736,False,29,1
158K23S3,1480,experiment,76,↓,down,↓,0.5767224002629519,True,29,1
158K23S3,1481,experiment,105,←,left,←,0.6306288000196218,True,29,1
158K23S3,1482,experiment,69,↑,down,↓,0.6857192004099488,False,29,1
158K23S3,1483,experiment,97,↑,up,↑,0.5220393999479711,True,29,1
158K23S3,1484,experiment,107,↓,down,↓,0.5207487996667624,True,29,1
