PART_ID,Trial_no,Trial_type,CSI,Stim_letter,Key_pressed,letter_choose,Rt,Corr,Stimulus Time,nDropped
159K21S3,1,training,120,←,right,→,0.4926956999115646,False,60,0
159K21S3,2,training,120,←,left,←,0.5091685000807047,True,60,0
159K21S3,3,training,120,→,right,→,0.4768467000685632,True,60,0
159K21S3,4,training,120,←,left,←,0.46873270021751523,True,60,0
159K21S3,5,training,120,↓,down,↓,0.6784911998547614,True,60,0
159K21S3,6,training,120,↑,up,↑,0.41856699995696545,True,60,0
159K21S3,7,training,120,←,left,←,0.31850629998371005,True,60,0
159K21S3,8,training,120,↓,down,↓,0.5508145000785589,True,60,0
159K21S3,9,training,120,←,left,←,0.592162299901247,True,60,0
159K21S3,10,training,120,↑,up,↑,0.5588600002229214,True,60,0
159K21S3,11,training,120,↑,down,↓,0.6099948002956808,False,60,0
159K21S3,12,training,120,→,left,←,0.39368569990620017,False,60,0
159K21S3,13,training,120,↑,up,↑,0.4848117004148662,True,60,0
159K21S3,14,training,120,↓,down,↓,0.6091289999894798,True,60,0
159K21S3,15,training,120,←,left,←,0.4686002000235021,True,60,0
159K21S3,16,training,120,↑,up,↑,0.46858259988948703,True,60,0
159K21S3,17,training,120,←,left,←,0.45186989987269044,True,60,0
159K21S3,18,training,120,↓,down,↓,0.6091070002876222,True,60,0
159K21S3,19,training,120,↓,down,↓,0.6507373000495136,True,60,0
159K21S3,20,training,120,↑,no_key,no_letter,-1.0,False,60,0
159K21S3,21,no_adaptation,120,→,no_key,no_letter,-1.0,False,36,0
159K21S3,22,no_adaptation,120,↑,up,↑,0.4505141000263393,True,36,0
159K21S3,23,no_adaptation,120,↑,up,↑,0.5813899002969265,True,36,0
159K21S3,24,no_adaptation,120,↓,down,↓,0.645200100261718,True,36,0
159K21S3,25,no_adaptation,120,←,no_key,no_letter,-1.0,False,36,0
159K21S3,26,no_adaptation,120,←,left,←,0.43408719962462783,True,36,0
159K21S3,27,no_adaptation,120,↓,down,↓,0.5202278001233935,True,36,0
159K21S3,28,no_adaptation,120,↑,up,↑,0.6264496999792755,True,36,0
159K21S3,29,no_adaptation,120,↑,up,↑,0.4886632999405265,True,36,0
159K21S3,30,no_adaptation,120,↓,down,↓,0.5561706996522844,True,36,0
159K21S3,31,no_adaptation,120,↑,no_key,no_letter,-1.0,False,36,0
159K21S3,32,no_adaptation,120,←,left,←,0.38409190019592643,True,36,0
159K21S3,33,no_adaptation,120,↑,up,↑,0.4507257002405822,True,36,0
159K21S3,34,no_adaptation,120,←,up,↑,0.49753230018541217,False,36,0
159K21S3,35,no_adaptation,120,↓,down,↓,0.4423295999877155,True,36,0
159K21S3,36,no_adaptation,120,↓,down,↓,0.6098684999160469,True,36,0
159K21S3,37,no_adaptation,120,←,left,←,0.47329230001196265,True,36,0
159K21S3,38,no_adaptation,120,↓,down,↓,0.4343628999777138,True,36,0
159K21S3,39,no_adaptation,120,←,no_key,no_letter,-1.0,False,36,0
159K21S3,40,no_adaptation,120,→,right,→,0.6664296998642385,True,36,0
159K21S3,41,training,62,↓,down,↓,0.5199160999618471,True,36,0
159K21S3,42,training,68,↑,up,↑,0.5163798998109996,True,36,1
159K21S3,43,experiment,70,←,left,←,0.40096750017255545,True,36,1
159K21S3,44,experiment,105,←,right,→,0.5005969000048935,False,36,0
159K21S3,45,experiment,73,←,left,←,0.40022259997203946,True,36,1
159K21S3,46,experiment,54,→,right,→,0.6450717998668551,True,36,0
159K21S3,47,experiment,67,↑,up,↑,0.3925761003047228,True,36,1
159K21S3,48,experiment,94,↑,up,↑,0.6052918997593224,True,36,0
159K21S3,49,experiment,90,↓,down,↓,0.6785745001398027,True,36,1
159K21S3,50,experiment,64,←,left,←,0.3837485001422465,True,36,1
159K21S3,51,experiment,52,←,right,→,0.5567244002595544,False,36,0
159K21S3,52,experiment,74,←,no_key,no_letter,-1.0,False,36,1
159K21S3,53,experiment,83,↑,up,↑,0.3842128999531269,True,36,1
159K21S3,54,experiment,60,↓,up,↑,0.6067757001146674,False,36,0
159K21S3,55,experiment,86,←,left,←,0.4343044999986887,True,36,1
159K21S3,56,experiment,68,↑,up,↑,0.3925296999514103,True,36,0
159K21S3,57,experiment,63,↑,up,↑,0.5316860000602901,True,36,0
159K21S3,58,experiment,59,←,left,←,0.6104202000424266,True,36,1
159K21S3,59,experiment,72,←,left,←,0.474337600171566,True,36,1
159K21S3,60,experiment,108,→,no_key,no_letter,-1.0,False,36,1
159K21S3,61,experiment,89,↓,down,↓,0.541457399725914,True,36,1
159K21S3,62,experiment,91,←,left,←,0.45093190018087626,True,36,1
159K21S3,63,experiment,85,←,left,←,0.3671106002293527,True,36,0
159K21S3,64,experiment,87,↑,no_key,no_letter,-1.0,False,36,0
159K21S3,65,experiment,71,←,right,→,0.8471578997559845,False,36,1
159K21S3,66,experiment,102,↓,down,↓,0.5948106003925204,True,36,1
159K21S3,67,experiment,101,↓,down,↓,0.6331635001115501,True,36,1
159K21S3,68,experiment,104,→,right,→,0.4694207003340125,True,36,1
159K21S3,69,experiment,92,↑,up,↑,0.6349538001231849,True,36,1
159K21S3,70,experiment,58,↑,up,↑,0.49409900000318885,True,36,1
159K21S3,71,experiment,81,→,right,→,0.5991273000836372,True,36,1
159K21S3,72,experiment,50,↓,down,↓,0.4942501997575164,True,36,1
159K21S3,73,experiment,107,↑,up,↑,0.6145898001268506,True,36,1
159K21S3,74,experiment,56,↓,down,↓,0.4675948000513017,True,36,1
159K21S3,75,experiment,100,→,right,→,0.4507363000884652,True,36,0
159K21S3,76,experiment,79,↑,up,↑,0.42642010003328323,True,36,0
159K21S3,77,experiment,62,↓,up,↑,0.5789089999161661,False,36,0
159K21S3,78,experiment,69,↓,down,↓,0.39174610003829,True,36,1
159K21S3,79,experiment,95,←,left,←,0.5487435003742576,True,36,0
159K21S3,80,experiment,88,↓,down,↓,0.569028299767524,True,36,1
159K21S3,81,experiment,65,←,left,←,0.45074949972331524,True,36,1
159K21S3,82,experiment,66,←,left,←,0.49203559989109635,True,36,0
159K21S3,83,experiment,84,↓,down,↓,0.5320258997380733,True,36,1
159K21S3,84,experiment,97,←,left,←,0.3920694999396801,True,36,1
159K21S3,85,experiment,99,↑,no_key,no_letter,-1.0,False,36,0
159K21S3,86,experiment,48,↓,no_key,no_letter,-1.0,False,36,1
159K21S3,87,experiment,82,→,no_key,no_letter,-1.0,False,36,1
159K21S3,88,experiment,98,→,no_key,no_letter,-1.0,False,36,1
159K21S3,89,experiment,75,↓,down,↓,0.483402400277555,True,36,1
159K21S3,90,experiment,51,→,left,←,0.6146399001590908,False,36,1
159K21S3,91,experiment,53,←,left,←,0.5880043995566666,True,36,1
159K21S3,92,experiment,78,→,right,→,0.4434077995829284,True,36,1
159K21S3,93,experiment,57,←,left,←,0.59667730005458,True,36,0
159K21S3,94,experiment,80,←,left,←,0.505933300126344,True,36,1
159K21S3,95,experiment,77,↓,down,↓,0.6356214000843465,True,36,1
159K21S3,96,experiment,61,←,left,←,0.5096501000225544,True,36,1
159K21S3,97,experiment,49,←,left,←,0.5128647000528872,True,36,1
159K21S3,98,experiment,55,←,no_key,no_letter,-1.0,False,36,1
159K21S3,99,experiment,103,←,no_key,no_letter,-1.0,False,36,1
159K21S3,100,experiment,93,↓,down,↓,0.594469599891454,True,36,1
159K21S3,101,experiment,106,↓,down,↓,0.5029775002039969,True,36,1
159K21S3,102,experiment,76,↓,left,←,0.45086639979854226,False,36,1
159K21S3,103,experiment,96,←,left,←,0.662741799838841,True,36,0
159K21S3,104,training,67,→,right,→,0.47264849999919534,True,36,0
159K21S3,105,training,72,→,right,→,1.1330137001350522,True,36,0
159K21S3,106,experiment,57,→,right,→,0.7642926997505128,True,36,1
159K21S3,107,experiment,54,→,right,→,0.4340482000261545,True,36,1
159K21S3,108,experiment,97,↓,down,↓,0.48922899970784783,True,36,0
159K21S3,109,experiment,60,↓,down,↓,0.6012574001215398,True,36,1
159K21S3,110,experiment,68,←,left,←,0.562179499771446,True,36,1
159K21S3,111,experiment,108,↓,no_key,no_letter,-1.0,False,36,1
159K21S3,112,experiment,85,←,no_key,no_letter,-1.0,False,36,1
159K21S3,113,experiment,89,→,right,→,0.4798604999668896,True,36,1
159K21S3,114,experiment,50,↑,down,↓,0.691009699832648,False,36,1
159K21S3,115,experiment,87,↓,down,↓,0.6502659996040165,True,36,1
159K21S3,116,experiment,90,↓,down,↓,0.5218494003638625,True,36,1
159K21S3,117,experiment,92,↑,up,↑,0.4424465000629425,True,36,1
159K21S3,118,experiment,84,←,left,←,0.527808599639684,True,36,0
159K21S3,119,experiment,72,→,left,←,0.5385855999775231,False,36,1
159K21S3,120,experiment,71,→,no_key,no_letter,-1.0,False,36,1
159K21S3,121,experiment,93,←,left,←,0.486780300270766,True,36,1
159K21S3,122,experiment,58,↓,down,↓,0.575320600066334,True,36,1
159K21S3,123,experiment,49,←,no_key,no_letter,-1.0,False,36,1
159K21S3,124,experiment,55,↑,up,↑,0.718395299743861,True,36,1
159K21S3,125,experiment,73,→,left,←,0.4813904999755323,False,36,1
159K21S3,126,experiment,70,↑,up,↑,0.7341918000020087,True,36,1
159K21S3,127,experiment,53,←,left,←,0.5827868999913335,True,36,1
159K21S3,128,experiment,98,→,right,→,0.4790876000188291,True,36,1
159K21S3,129,experiment,101,↓,down,↓,0.697511900216341,True,36,1
159K21S3,130,experiment,81,↓,down,↓,0.5699506998062134,True,36,1
159K21S3,131,experiment,104,←,no_key,no_letter,-1.0,False,36,1
159K21S3,132,experiment,61,←,left,←,0.4853585995733738,True,36,1
159K21S3,133,experiment,62,↑,no_key,no_letter,-1.0,False,36,1
159K21S3,134,experiment,63,←,left,←,0.6248324001207948,True,36,1
159K21S3,135,experiment,80,←,left,←,0.5407579001039267,True,36,1
159K21S3,136,experiment,67,↑,up,↑,0.6244745999574661,True,36,1
159K21S3,137,experiment,86,→,right,→,0.6104077002964914,True,36,1
159K21S3,138,experiment,83,→,right,→,0.5580313000828028,True,36,1
159K21S3,139,experiment,76,→,right,→,0.3837449001148343,True,36,1
159K21S3,140,experiment,102,↑,up,↑,0.6362084001302719,True,36,0
159K21S3,141,experiment,65,↑,up,↑,0.37565770000219345,True,36,1
159K21S3,142,experiment,75,↓,down,↓,0.5413373000919819,True,36,0
159K21S3,143,experiment,91,↓,down,↓,0.8481252999044955,True,36,1
159K21S3,144,experiment,56,←,left,←,0.5393709000200033,True,36,1
159K21S3,145,experiment,105,←,left,←,0.44350899988785386,True,36,1
159K21S3,146,experiment,107,↑,up,↑,0.5640487000346184,True,36,0
159K21S3,147,experiment,79,↑,up,↑,0.4906454002484679,True,36,1
159K21S3,148,experiment,66,→,no_key,no_letter,-1.0,False,36,1
159K21S3,149,experiment,106,←,no_key,no_letter,-1.0,False,36,1
159K21S3,150,experiment,51,↓,down,↓,0.5502068996429443,True,36,1
159K21S3,151,experiment,77,↓,down,↓,0.5901550999842584,True,36,1
159K21S3,152,experiment,59,←,left,←,0.41747340001165867,True,36,1
159K21S3,153,experiment,69,→,no_key,no_letter,-1.0,False,36,0
159K21S3,154,experiment,82,↑,up,↑,0.6398701001890004,True,36,1
159K21S3,155,experiment,95,←,left,←,0.7022069999948144,True,36,1
159K21S3,156,experiment,100,←,left,←,0.3090278999879956,True,36,1
159K21S3,157,experiment,103,↑,up,↑,0.5853565996512771,True,36,0
159K21S3,158,experiment,78,↑,up,↑,0.40916649997234344,True,36,1
159K21S3,159,experiment,99,←,left,←,0.3348061996512115,True,36,0
159K21S3,160,experiment,64,→,right,→,0.522129500284791,True,36,0
159K21S3,161,experiment,48,→,right,→,0.7009192002005875,True,36,1
159K21S3,162,experiment,88,↑,up,↑,0.5553649999201298,True,36,1
159K21S3,163,experiment,96,←,left,←,0.40922620007768273,True,36,1
159K21S3,164,experiment,74,←,left,←,0.3757184003479779,True,36,0
159K21S3,165,experiment,94,↓,down,↓,0.7003845004364848,True,36,0
159K21S3,166,experiment,52,→,right,→,0.4946783999912441,True,36,1
159K21S3,167,training,80,↓,down,↓,0.5798037997446954,True,36,0
159K21S3,168,training,95,↓,down,↓,0.6525336001068354,True,36,1
159K21S3,169,experiment,72,↓,down,↓,0.5782862999476492,True,36,1
159K21S3,170,experiment,103,→,right,→,0.4504243000410497,True,36,1
159K21S3,171,experiment,68,←,left,←,0.6314270999282598,True,36,0
159K21S3,172,experiment,59,↑,up,↑,0.6021137000061572,True,36,1
159K21S3,173,experiment,105,↓,down,↓,0.4497082997113466,True,36,1
159K21S3,174,experiment,48,→,up,↑,0.7242701998911798,False,36,0
159K21S3,175,experiment,69,→,right,→,0.6159732998348773,True,36,1
159K21S3,176,experiment,89,←,left,←,0.43411169992759824,True,36,1
159K21S3,177,experiment,107,↑,no_key,no_letter,-1.0,False,36,0
159K21S3,178,experiment,55,↑,up,↑,0.554330799728632,True,36,1
159K21S3,179,experiment,52,→,right,→,0.44322439981624484,True,36,1
159K21S3,180,experiment,77,←,left,←,0.4941946002654731,True,36,0
159K21S3,181,experiment,57,↑,no_key,no_letter,-1.0,False,36,1
159K21S3,182,experiment,53,↑,up,↑,0.40065860003232956,True,36,1
159K21S3,183,experiment,80,←,left,←,0.4011856000870466,True,36,0
159K21S3,184,experiment,108,↓,up,↑,0.5742692998610437,False,36,0
159K21S3,185,experiment,100,←,left,←,0.4340572999790311,True,36,1
159K21S3,186,experiment,81,↓,down,↓,0.4732176000252366,True,36,0
159K21S3,187,experiment,88,←,no_key,no_letter,-1.0,False,36,1
159K21S3,188,experiment,106,←,left,←,0.359258099924773,True,36,1
159K21S3,189,experiment,56,→,right,→,0.7480393000878394,True,36,0
159K21S3,190,experiment,90,↑,up,↑,0.6002193000167608,True,36,1
159K21S3,191,experiment,61,←,left,←,0.6431346000172198,True,36,1
159K21S3,192,experiment,63,↑,up,↑,0.8122860002331436,True,36,1
159K21S3,193,experiment,70,↓,down,↓,0.6762279001995921,True,36,1
159K21S3,194,experiment,102,↑,up,↑,0.5991098000667989,True,36,1
159K21S3,195,experiment,82,↑,up,↑,0.595288600306958,True,36,1
159K21S3,196,experiment,101,→,right,→,0.6257148999720812,True,36,1
159K21S3,197,experiment,79,→,right,→,0.5340499999001622,True,36,1
159K21S3,198,experiment,76,→,right,→,0.6074058003723621,True,36,1
159K21S3,199,experiment,99,→,right,→,0.3091286001726985,True,36,1
159K21S3,200,experiment,66,↓,down,↓,0.5066000004298985,True,36,0
159K21S3,201,experiment,49,→,right,→,0.6377436998300254,True,36,1
159K21S3,202,experiment,71,↓,down,↓,0.6201202999800444,True,36,1
159K21S3,203,experiment,51,↓,down,↓,0.5783112999051809,True,36,1
159K21S3,204,experiment,97,↓,down,↓,0.43387810001149774,True,36,1
159K21S3,205,experiment,87,→,right,→,0.44237300008535385,True,36,0
159K21S3,206,experiment,95,↑,up,↑,0.426742700394243,True,36,0
159K21S3,207,experiment,75,↓,down,↓,0.702804600354284,True,36,0
159K21S3,208,experiment,78,←,left,←,0.5285506001673639,True,36,1
159K21S3,209,experiment,58,↑,up,↑,0.7520082001574337,True,36,1
159K21S3,210,experiment,64,←,left,←,0.40075139980763197,True,36,1
159K21S3,211,experiment,67,→,right,→,0.47800520015880466,True,36,0
159K21S3,212,experiment,60,↓,down,↓,0.49392699962481856,True,36,1
159K21S3,213,experiment,92,→,right,→,0.7399808000773191,True,36,1
159K21S3,214,experiment,74,→,right,→,0.47719440003857017,True,36,1
159K21S3,215,experiment,93,↑,up,↑,0.6900062998756766,True,36,1
159K21S3,216,experiment,83,→,right,→,0.6913256999105215,True,36,1
159K21S3,217,experiment,54,←,left,←,0.6845564004033804,True,36,1
159K21S3,218,experiment,86,→,right,→,0.6920855999924242,True,36,1
159K21S3,219,experiment,98,→,right,→,0.5035910001024604,True,36,1
159K21S3,220,experiment,85,←,no_key,no_letter,-1.0,False,36,1
159K21S3,221,experiment,96,↑,up,↑,0.5674769002944231,True,36,1
159K21S3,222,experiment,73,↓,down,↓,0.6481737000867724,True,36,1
159K21S3,223,experiment,104,↑,no_key,no_letter,-1.0,False,36,1
159K21S3,224,experiment,50,↑,up,↑,0.5715383999049664,True,36,1
159K21S3,225,experiment,65,↑,up,↑,0.4004346001893282,True,36,1
159K21S3,226,experiment,62,↑,up,↑,0.3924028999172151,True,36,0
159K21S3,227,experiment,84,←,no_key,no_letter,-1.0,False,36,0
159K21S3,228,experiment,91,↑,up,↑,0.735583100002259,True,36,1
159K21S3,229,experiment,94,←,left,←,0.43403339991346,True,36,1
159K21S3,230,training,82,↓,down,↓,0.7175284000113606,True,36,0
159K21S3,231,training,88,←,left,←,0.4090688000433147,True,36,1
159K21S3,232,experiment,82,→,no_key,no_letter,-1.0,False,36,0
159K21S3,233,experiment,66,↓,down,↓,0.5938488999381661,True,36,1
159K21S3,234,experiment,61,←,left,←,0.4504876001738012,True,36,1
159K21S3,235,experiment,78,↑,up,↑,0.5128394002094865,True,36,0
159K21S3,236,experiment,50,←,left,←,0.579396499786526,True,36,1
159K21S3,237,experiment,90,↓,down,↓,0.5337358000688255,True,36,1
159K21S3,238,experiment,63,←,left,←,0.4174476000480354,True,36,1
159K21S3,239,experiment,97,→,right,→,0.633531800005585,True,36,0
159K21S3,240,experiment,51,↑,up,↑,0.45018359972164035,True,36,1
159K21S3,241,experiment,59,↑,up,↑,0.5447639999911189,True,36,0
159K21S3,242,experiment,96,↑,up,↑,0.666745999827981,True,36,1
159K21S3,243,experiment,100,↓,down,↓,0.798499200027436,True,36,1
159K21S3,244,experiment,48,↑,up,↑,0.5101547003723681,True,36,1
159K21S3,245,experiment,67,↑,up,↑,0.5633394001051784,True,36,1
159K21S3,246,experiment,83,↑,up,↑,0.35069849994033575,True,36,1
159K21S3,247,experiment,49,↑,up,↑,0.6181636000983417,True,36,0
159K21S3,248,experiment,68,→,right,→,0.8985228003002703,True,36,1
159K21S3,249,experiment,52,↑,up,↑,0.4507188000716269,True,36,1
159K21S3,250,experiment,80,↓,no_key,no_letter,-1.0,False,36,0
159K21S3,251,experiment,81,↑,up,↑,0.5658988999202847,True,36,1
159K21S3,252,experiment,75,↓,down,↓,0.693673400208354,True,36,1
159K21S3,253,experiment,88,↓,down,↓,0.4687277995981276,True,36,1
159K21S3,254,experiment,53,→,right,→,0.45077629992738366,True,36,0
159K21S3,255,experiment,98,↓,down,↓,0.6041645999066532,True,36,0
159K21S3,256,experiment,99,→,right,→,0.45076350029557943,True,36,1
159K21S3,257,experiment,89,↓,down,↓,0.5466427998617291,True,36,0
159K21S3,258,experiment,57,→,right,→,0.7133748000487685,True,36,1
159K21S3,259,experiment,69,←,left,←,0.3923342004418373,True,36,1
159K21S3,260,experiment,86,↓,down,↓,0.7685448997654021,True,36,0
159K21S3,261,experiment,106,↓,down,↓,0.5502764000557363,True,36,1
159K21S3,262,experiment,65,←,left,←,0.4340459001250565,True,36,1
159K21S3,263,experiment,108,↑,up,↑,0.5723039996810257,True,36,0
159K21S3,264,experiment,71,↓,down,↓,0.5972862998023629,True,36,1
159K21S3,265,experiment,85,←,left,←,0.6407316001132131,True,36,1
159K21S3,266,experiment,74,←,left,←,0.7580801998265088,True,36,1
159K21S3,267,experiment,62,→,right,→,0.5226998003199697,True,36,1
159K21S3,268,experiment,103,←,left,←,0.5551875997334719,True,36,1
159K21S3,269,experiment,56,→,right,→,0.5139724002219737,True,36,1
159K21S3,270,experiment,95,→,right,→,0.4699356001801789,True,36,1
159K21S3,271,experiment,101,↑,up,↑,0.6244582999497652,True,36,1
159K21S3,272,experiment,55,←,left,←,0.4089185995981097,True,36,1
159K21S3,273,experiment,105,↓,down,↓,0.592824200168252,True,36,0
159K21S3,274,experiment,60,←,left,←,0.43419469986110926,True,36,1
159K21S3,275,experiment,87,←,left,←,0.4258222999051213,True,36,0
159K21S3,276,experiment,72,↓,down,↓,0.6124688000418246,True,36,0
159K21S3,277,experiment,93,←,left,←,0.3590041999705136,True,36,1
159K21S3,278,experiment,64,→,right,→,0.7202723999507725,True,36,0
159K21S3,279,experiment,79,↓,down,↓,0.6329037002287805,True,36,1
159K21S3,280,experiment,76,↓,down,↓,0.5020167003385723,True,36,1
159K21S3,281,experiment,92,←,left,←,0.6358462003991008,True,36,1
159K21S3,282,experiment,102,→,right,→,0.6713996999897063,True,36,1
159K21S3,283,experiment,91,→,right,→,0.38376120012253523,True,36,1
159K21S3,284,experiment,104,←,left,←,0.5234182998538017,True,36,0
159K21S3,285,experiment,77,↓,down,↓,0.6205210997723043,True,36,1
159K21S3,286,experiment,94,←,left,←,0.4508845997042954,True,36,1
159K21S3,287,experiment,107,↑,no_key,no_letter,-1.0,False,36,0
159K21S3,288,experiment,58,→,right,→,0.6435813000425696,True,36,1
159K21S3,289,experiment,70,→,right,→,0.36739359982311726,True,36,1
159K21S3,290,experiment,54,→,right,→,0.561037799809128,True,36,0
159K21S3,291,experiment,73,←,left,←,0.6180900000035763,True,36,1
159K21S3,292,experiment,84,↓,down,↓,0.5892010000534356,True,36,1
159K21S3,293,training,101,↓,down,↓,0.5192690999247134,True,35,0
159K21S3,294,training,80,←,no_key,no_letter,-1.0,False,35,1
159K21S3,295,experiment,58,↓,left,←,0.30912069976329803,False,35,1
159K21S3,296,experiment,63,↑,up,↑,0.4917718996293843,True,35,0
159K21S3,297,experiment,104,↑,up,↑,0.43404070008546114,True,35,1
159K21S3,298,experiment,62,↓,down,↓,0.46328310016542673,True,35,0
159K21S3,299,experiment,73,↑,up,↑,0.4166679000481963,True,35,1
159K21S3,300,experiment,72,←,no_key,no_letter,-1.0,False,35,0
159K21S3,301,experiment,50,→,left,←,0.4987872000783682,False,35,1
159K21S3,302,experiment,68,↓,down,↓,0.5755821000784636,True,35,1
159K21S3,303,experiment,48,↑,up,↑,0.7763526998460293,True,35,1
159K21S3,304,experiment,99,↓,down,↓,0.5842189001850784,True,35,1
159K21S3,305,experiment,98,↑,up,↑,0.6238544001244009,True,35,1
159K21S3,306,experiment,77,↑,no_key,no_letter,-1.0,False,35,1
159K21S3,307,experiment,103,↓,down,↓,0.6597688999027014,True,35,1
159K21S3,308,experiment,106,↓,down,↓,0.5815975000150502,True,35,1
159K21S3,309,experiment,81,←,left,←,0.38406109996140003,True,35,1
159K21S3,310,experiment,59,↓,down,↓,0.9674930996261537,True,35,0
159K21S3,311,experiment,53,→,no_key,no_letter,-1.0,False,35,1
159K21S3,312,experiment,90,→,right,→,0.32586489990353584,True,35,1
159K21S3,313,experiment,78,←,left,←,0.42584680020809174,True,35,0
159K21S3,314,experiment,102,↑,up,↑,0.5348986000753939,True,35,0
159K21S3,315,experiment,51,↓,down,↓,0.5843054996803403,True,35,1
159K21S3,316,experiment,108,↑,up,↑,0.6126259001903236,True,35,1
159K21S3,317,experiment,92,←,left,←,0.6129425000399351,True,35,1
159K21S3,318,experiment,80,↑,no_key,no_letter,-1.0,False,35,1
159K21S3,319,experiment,96,↓,down,↓,0.6265964000485837,True,35,1
159K21S3,320,experiment,74,←,left,←,0.37571420008316636,True,35,1
159K21S3,321,experiment,70,↑,up,↑,0.5137781999073923,True,35,0
159K21S3,322,experiment,49,→,left,←,0.4007166000083089,False,35,1
159K21S3,323,experiment,57,↑,left,←,0.4425880000926554,False,35,0
159K21S3,324,experiment,69,↑,up,↑,0.3924555997364223,True,35,0
159K21S3,325,experiment,97,↓,down,↓,0.6790960999205709,True,35,0
159K21S3,326,experiment,65,←,left,←,0.4007048001512885,True,35,1
159K21S3,327,experiment,52,←,right,→,0.6439848002046347,False,35,0
159K21S3,328,experiment,64,←,left,←,0.41742230020463467,True,35,1
159K21S3,329,experiment,87,↑,up,↑,0.46238839998841286,True,35,0
159K21S3,330,experiment,79,↓,down,↓,0.5852051000110805,True,35,0
159K21S3,331,experiment,100,↓,down,↓,0.5442079002968967,True,35,1
159K21S3,332,experiment,76,→,right,→,0.4811931001022458,True,35,1
159K21S3,333,experiment,101,↓,down,↓,0.4996237000450492,True,35,1
159K21S3,334,experiment,91,↓,down,↓,0.593047899659723,True,35,1
159K21S3,335,experiment,93,←,left,←,0.4351026997901499,True,35,1
159K21S3,336,experiment,66,↑,up,↑,0.809891200158745,True,35,0
159K21S3,337,experiment,71,→,right,→,0.6256269998848438,True,35,1
159K21S3,338,experiment,95,↑,up,↑,0.5525851999409497,True,35,1
159K21S3,339,experiment,61,↓,down,↓,0.9659894001670182,True,35,1
159K21S3,340,experiment,107,↑,up,↑,0.5793200000189245,True,35,1
159K21S3,341,experiment,88,→,right,→,0.42577109998092055,True,35,1
159K21S3,342,experiment,82,←,left,←,0.40853479970246553,True,35,0
159K21S3,343,experiment,55,↑,up,↑,0.5344106000848114,True,35,0
159K21S3,344,experiment,84,↓,down,↓,0.6126127000898123,True,35,1
159K21S3,345,experiment,67,↑,up,↑,0.5253436998464167,True,35,1
159K21S3,346,experiment,54,↓,down,↓,0.6540593998506665,True,35,1
159K21S3,347,experiment,75,↓,down,↓,0.5068314000964165,True,35,1
159K21S3,348,experiment,56,↑,up,↑,0.547713200096041,True,35,1
159K21S3,349,experiment,105,↓,down,↓,0.634264400228858,True,35,1
159K21S3,350,experiment,94,→,right,→,0.5375136001966894,True,35,1
159K21S3,351,experiment,83,←,left,←,0.592044800054282,True,35,1
159K21S3,352,experiment,85,↓,down,↓,0.6514224000275135,True,35,1
159K21S3,353,experiment,60,↑,up,↑,0.5891893999651074,True,35,1
159K21S3,354,experiment,86,↑,up,↑,0.5925503000617027,True,35,1
159K21S3,355,experiment,89,←,left,←,0.6189457001164556,True,35,1
159K21S3,356,training,57,↓,down,↓,0.6025593001395464,True,35,0
159K21S3,357,training,88,←,left,←,0.41737359995022416,True,35,1
159K21S3,358,experiment,88,↑,up,↑,0.5663058003410697,True,35,0
159K21S3,359,experiment,57,←,left,←,0.5484372000209987,True,35,1
159K21S3,360,experiment,58,←,left,←,0.6190187996253371,True,35,1
159K21S3,361,experiment,66,↑,up,↑,0.4339111000299454,True,35,1
159K21S3,362,experiment,106,←,left,←,0.6065984000451863,True,35,0
159K21S3,363,experiment,82,↓,down,↓,0.48273600032553077,True,35,1
159K21S3,364,experiment,75,↓,down,↓,0.502074200194329,True,35,1
159K21S3,365,experiment,84,↑,up,↑,0.5897836000658572,True,35,1
159K21S3,366,experiment,70,←,left,←,0.5425279000774026,True,35,1
159K21S3,367,experiment,105,→,right,→,0.7095428998582065,True,35,1
159K21S3,368,experiment,48,→,right,→,0.6969494000077248,True,35,1
159K21S3,369,experiment,54,↑,up,↑,0.5227353000082076,True,35,1
159K21S3,370,experiment,55,→,no_key,no_letter,-1.0,False,35,1
159K21S3,371,experiment,100,←,left,←,0.4090454997494817,True,35,1
159K21S3,372,experiment,51,→,right,→,0.35901679983362556,True,35,0
159K21S3,373,experiment,90,↑,up,↑,0.540238399989903,True,35,0
159K21S3,374,experiment,104,↓,down,↓,0.47585880011320114,True,35,1
159K21S3,375,experiment,77,→,right,→,0.4087669998407364,True,35,1
159K21S3,376,experiment,83,←,left,←,0.48202080000191927,True,35,0
159K21S3,377,experiment,59,↑,up,↑,0.5707944999448955,True,35,1
159K21S3,378,experiment,64,→,right,→,0.5583650004118681,True,35,1
159K21S3,379,experiment,49,↑,up,↑,0.6075475998222828,True,35,1
159K21S3,380,experiment,102,↓,down,↓,0.516871000174433,True,35,1
159K21S3,381,experiment,52,↓,down,↓,0.46296019991859794,True,35,1
159K21S3,382,experiment,71,↓,down,↓,0.7718313001096249,True,35,0
159K21S3,383,experiment,101,↑,up,↑,0.5388922998681664,True,35,1
159K21S3,384,experiment,50,←,left,←,0.5083325998857617,True,35,1
159K21S3,385,experiment,79,→,right,→,0.5254178997129202,True,35,1
159K21S3,386,experiment,97,←,left,←,0.48011850006878376,True,35,1
159K21S3,387,experiment,74,←,left,←,0.5074617997743189,True,35,1
159K21S3,388,experiment,108,↓,down,↓,0.7068891003727913,True,35,1
159K21S3,389,experiment,86,↑,up,↑,0.5855807000771165,True,35,1
159K21S3,390,experiment,87,↑,up,↑,0.5009706001728773,True,35,1
159K21S3,391,experiment,63,↓,down,↓,0.7397012999281287,True,35,1
159K21S3,392,experiment,99,→,right,→,0.7167018000036478,True,35,1
159K21S3,393,experiment,78,→,right,→,0.5096962000243366,True,35,1
159K21S3,394,experiment,81,→,right,→,0.40081779984757304,True,35,1
159K21S3,395,experiment,62,↑,up,↑,0.7129421001300216,True,35,0
159K21S3,396,experiment,68,←,left,←,0.4006952000781894,True,35,1
159K21S3,397,experiment,89,↑,up,↑,0.5270556001923978,True,35,0
159K21S3,398,experiment,56,↑,up,↑,0.6472632000222802,True,35,1
159K21S3,399,experiment,76,←,left,←,0.4340626997873187,True,35,1
159K21S3,400,experiment,92,↓,down,↓,0.6029483997263014,True,35,0
159K21S3,401,experiment,61,↑,up,↑,0.5264083999209106,True,35,1
159K21S3,402,experiment,95,↓,down,↓,0.5935077997855842,True,35,1
159K21S3,403,experiment,91,↓,down,↓,0.48323719995096326,True,35,1
159K21S3,404,experiment,94,→,no_key,no_letter,-1.0,False,35,1
159K21S3,405,experiment,98,→,right,→,0.4731438001617789,True,35,1
159K21S3,406,experiment,93,↑,up,↑,0.5423846999183297,True,35,1
159K21S3,407,experiment,67,↓,down,↓,0.5621871999464929,True,35,1
159K21S3,408,experiment,69,→,right,→,0.516575800254941,True,35,1
159K21S3,409,experiment,96,↑,no_key,no_letter,-1.0,False,35,1
159K21S3,410,experiment,60,←,left,←,0.4928784999065101,True,35,1
159K21S3,411,experiment,103,↑,up,↑,0.3756960001774132,True,35,1
159K21S3,412,experiment,65,↑,up,↑,0.36746420012786984,True,35,0
159K21S3,413,experiment,72,←,left,←,0.5541282999329269,True,35,0
159K21S3,414,experiment,53,←,left,←,0.39237220026552677,True,35,1
159K21S3,415,experiment,80,←,left,←,0.35072079999372363,True,35,0
159K21S3,416,experiment,107,←,left,←,0.3340652999468148,True,35,0
159K21S3,417,experiment,85,↑,up,↑,0.48283870005980134,True,35,0
159K21S3,418,experiment,73,↓,down,↓,0.5347919999621809,True,35,1
159K21S3,419,training,75,→,right,→,0.667696500197053,True,34,0
159K21S3,420,training,59,←,no_key,no_letter,-1.0,False,34,1
159K21S3,421,experiment,100,↑,up,↑,0.3506035995669663,True,34,1
159K21S3,422,experiment,57,→,right,→,0.5877728001214564,True,34,0
159K21S3,423,experiment,101,←,left,←,0.4821036998182535,True,34,1
159K21S3,424,experiment,68,↓,down,↓,0.6398328999057412,True,34,1
159K21S3,425,experiment,91,→,right,→,0.6954776998609304,True,34,1
159K21S3,426,experiment,58,↓,right,→,0.576282599940896,False,34,1
159K21S3,427,experiment,71,→,right,→,0.6813431000337005,True,34,1
159K21S3,428,experiment,99,←,left,←,0.5408018003217876,True,34,1
159K21S3,429,experiment,89,←,left,←,0.4890755000524223,True,34,1
159K21S3,430,experiment,64,↓,down,↓,0.5358441998250782,True,34,1
159K21S3,431,experiment,75,→,right,→,0.6812811996787786,True,34,1
159K21S3,432,experiment,82,→,right,→,0.4174049003049731,True,34,1
159K21S3,433,experiment,102,↓,down,↓,0.6550607001408935,True,34,0
159K21S3,434,experiment,77,→,right,→,0.4749565999954939,True,34,1
159K21S3,435,experiment,83,↓,down,↓,0.418091899715364,True,34,1
159K21S3,436,experiment,74,→,no_key,no_letter,-1.0,False,34,0
159K21S3,437,experiment,76,←,left,←,0.9221111000515521,True,34,1
159K21S3,438,experiment,55,→,right,→,0.49845510022714734,True,34,1
159K21S3,439,experiment,54,↑,no_key,no_letter,-1.0,False,34,1
159K21S3,440,experiment,63,↓,down,↓,0.4653805000707507,True,34,1
159K21S3,441,experiment,56,↓,down,↓,0.5712072001770139,True,34,1
159K21S3,442,experiment,60,→,right,→,0.42548689991235733,True,34,1
159K21S3,443,experiment,94,←,left,←,0.6069594998843968,True,34,0
159K21S3,444,experiment,69,↑,up,↑,0.7994293002411723,True,34,1
159K21S3,445,experiment,80,→,right,→,0.5004050000570714,True,34,1
159K21S3,446,experiment,50,↑,up,↑,0.4876836999319494,True,34,1
159K21S3,447,experiment,103,↑,up,↑,0.6335761002264917,True,34,1
159K21S3,448,experiment,104,→,no_key,no_letter,-1.0,False,34,1
159K21S3,449,experiment,65,↑,up,↑,0.46556479996070266,True,34,1
159K21S3,450,experiment,85,←,left,←,0.6258555999957025,True,34,1
159K21S3,451,experiment,51,←,left,←,0.5116365002468228,True,34,1
159K21S3,452,experiment,61,→,right,→,0.4257881003431976,True,34,1
159K21S3,453,experiment,52,←,left,←,0.4918575999327004,True,34,0
159K21S3,454,experiment,67,↑,up,↑,0.6176658999174833,True,34,1
159K21S3,455,experiment,81,↑,up,↑,0.5496694999746978,True,34,1
159K21S3,456,experiment,105,←,no_key,no_letter,-1.0,False,34,1
159K21S3,457,experiment,66,↓,down,↓,0.5600383998826146,True,34,1
159K21S3,458,experiment,108,←,left,←,0.5653653000481427,True,34,1
159K21S3,459,experiment,78,↑,up,↑,0.5882657002657652,True,34,1
159K21S3,460,experiment,96,←,left,←,0.45298629999160767,True,34,1
159K21S3,461,experiment,90,←,left,←,0.3590359999798238,True,34,0
159K21S3,462,experiment,79,↓,down,↓,0.5146657000295818,True,34,0
159K21S3,463,experiment,73,↓,down,↓,0.6452795001678169,True,34,1
159K21S3,464,experiment,84,↓,down,↓,0.6074318997561932,True,34,1
159K21S3,465,experiment,107,→,right,→,0.491036799736321,True,34,1
159K21S3,466,experiment,70,↓,down,↓,0.6797361997887492,True,34,1
159K21S3,467,experiment,97,→,left,←,0.6598232998512685,False,34,1
159K21S3,468,experiment,53,→,right,→,0.48754180036485195,True,34,1
159K21S3,469,experiment,87,↑,up,↑,0.6386282001622021,True,34,1
159K21S3,470,experiment,49,↑,up,↑,0.7723701000213623,True,34,1
159K21S3,471,experiment,59,↓,no_key,no_letter,-1.0,False,34,1
159K21S3,472,experiment,86,←,left,←,0.5423460002057254,True,34,1
159K21S3,473,experiment,106,→,right,→,0.46911370009183884,True,34,1
159K21S3,474,experiment,88,←,left,←,0.5466661998070776,True,34,1
159K21S3,475,experiment,72,→,right,→,0.4010107000358403,True,34,1
159K21S3,476,experiment,93,↓,down,↓,0.6048000999726355,True,34,0
159K21S3,477,experiment,48,↑,no_key,no_letter,-1.0,False,34,1
159K21S3,478,experiment,98,↑,up,↑,0.6930737001821399,True,34,1
159K21S3,479,experiment,95,↑,up,↑,0.4894439000636339,True,34,1
159K21S3,480,experiment,62,←,left,←,0.3925191001035273,True,34,1
159K21S3,481,experiment,92,↓,no_key,no_letter,-1.0,False,34,0
159K21S3,482,training,80,↑,up,↑,0.6008055000565946,True,34,0
159K21S3,483,training,75,→,left,←,0.408929499797523,False,34,1
159K21S3,484,experiment,94,←,left,←,0.5750178000889719,True,34,0
159K21S3,485,experiment,56,↓,down,↓,0.6611109003424644,True,34,1
159K21S3,486,experiment,69,↓,down,↓,0.7394798998720944,True,34,1
159K21S3,487,experiment,100,↑,up,↑,0.4685276998206973,True,34,1
159K21S3,488,experiment,60,→,right,→,0.4245502999983728,True,34,1
159K21S3,489,experiment,99,↑,up,↑,0.4007544000633061,True,34,0
159K21S3,490,experiment,87,↓,down,↓,0.5167489000596106,True,34,0
159K21S3,491,experiment,105,←,left,←,0.46945760026574135,True,34,1
159K21S3,492,experiment,49,→,right,→,0.8335815998725593,True,34,1
159K21S3,493,experiment,107,→,right,→,0.43414719961583614,True,34,1
159K21S3,494,experiment,77,→,right,→,0.36744070006534457,True,34,0
159K21S3,495,experiment,90,↑,up,↑,0.611601899843663,True,34,0
159K21S3,496,experiment,108,↓,down,↓,0.5427200002595782,True,34,1
159K21S3,497,experiment,61,←,left,←,0.45304130017757416,True,34,1
159K21S3,498,experiment,53,←,left,←,0.3674086998216808,True,34,0
159K21S3,499,experiment,76,↑,up,↑,0.6076873000711203,True,34,0
159K21S3,500,experiment,97,←,left,←,0.43384260032325983,True,34,1
159K21S3,501,experiment,63,→,right,→,0.464205099735409,True,34,0
159K21S3,502,experiment,83,↓,up,↑,0.5212563001550734,False,34,1
159K21S3,503,experiment,52,↓,down,↓,0.5069245998747647,True,34,1
159K21S3,504,experiment,103,↑,up,↑,0.5000204998068511,True,34,1
159K21S3,505,experiment,51,↓,down,↓,0.47890340024605393,True,34,1
159K21S3,506,experiment,68,→,left,←,0.4611483998596668,False,34,1
159K21S3,507,experiment,62,←,no_key,no_letter,-1.0,False,34,1
159K21S3,508,experiment,95,←,no_key,no_letter,-1.0,False,34,1
159K21S3,509,experiment,88,→,right,→,0.48313240008428693,True,34,1
159K21S3,510,experiment,74,→,right,→,0.70274080010131,True,34,1
159K21S3,511,experiment,101,↓,down,↓,0.5929103000089526,True,34,1
159K21S3,512,experiment,55,↑,up,↑,0.7185969003476202,True,34,1
159K21S3,513,experiment,78,←,left,←,0.5435871998779476,True,34,1
159K21S3,514,experiment,75,←,left,←,0.5767479999922216,True,34,1
159K21S3,515,experiment,67,→,right,→,0.5710971001535654,True,34,1
159K21S3,516,experiment,64,↓,down,↓,0.9825716000050306,True,34,1
159K21S3,517,experiment,93,↑,up,↑,0.5357945999130607,True,34,1
159K21S3,518,experiment,54,←,left,←,0.40127940010279417,True,34,1
159K21S3,519,experiment,98,←,left,←,0.7025759997777641,True,34,0
159K21S3,520,experiment,81,↓,down,↓,0.47154400032013655,True,34,1
159K21S3,521,experiment,48,↑,up,↑,0.7080161003395915,True,34,1
159K21S3,522,experiment,71,→,right,→,0.5838493998162448,True,34,1
159K21S3,523,experiment,58,↓,down,↓,0.5809609997086227,True,34,1
159K21S3,524,experiment,82,←,no_key,no_letter,-1.0,False,34,1
159K21S3,525,experiment,57,↓,down,↓,0.4726959001272917,True,34,1
159K21S3,526,experiment,86,→,right,→,0.592623199801892,True,34,1
159K21S3,527,experiment,96,↓,down,↓,0.5526650999672711,True,34,1
159K21S3,528,experiment,104,←,left,←,0.5916718002408743,True,34,1
159K21S3,529,experiment,72,↓,down,↓,0.49574120016768575,True,34,1
159K21S3,530,experiment,79,↓,down,↓,0.5134895001538098,True,34,1
159K21S3,531,experiment,70,→,right,→,0.589198200032115,True,34,1
159K21S3,532,experiment,80,↑,up,↑,0.6106340000405908,True,34,1
159K21S3,533,experiment,66,←,no_key,no_letter,-1.0,False,34,1
159K21S3,534,experiment,106,←,left,←,0.5621512997895479,True,34,1
159K21S3,535,experiment,85,→,right,→,0.5993984001688659,True,34,1
159K21S3,536,experiment,92,↓,down,↓,0.4889190001413226,True,34,1
159K21S3,537,experiment,89,↓,down,↓,0.6066218004561961,True,34,1
159K21S3,538,experiment,91,↓,down,↓,0.5437189000658691,True,34,1
159K21S3,539,experiment,84,←,left,←,0.8137498996220529,True,34,1
159K21S3,540,experiment,50,→,no_key,no_letter,-1.0,False,34,1
159K21S3,541,experiment,65,→,right,→,0.8000763999298215,True,34,1
159K21S3,542,experiment,73,←,left,←,0.425545500125736,True,34,1
159K21S3,543,experiment,102,↑,up,↑,0.6281073000282049,True,34,0
159K21S3,544,experiment,59,↓,down,↓,0.4256784003227949,True,34,1
159K21S3,545,training,96,↑,up,↑,0.46815430000424385,True,34,0
159K21S3,546,training,57,→,right,→,0.43423409992828965,True,34,1
159K21S3,547,experiment,84,↑,up,↑,0.5200626999139786,True,34,0
159K21S3,548,experiment,74,←,left,←,0.5224591000005603,True,34,1
159K21S3,549,experiment,50,←,left,←,0.5165729997679591,True,34,1
159K21S3,550,experiment,87,→,right,→,0.3924481999129057,True,34,1
159K21S3,551,experiment,97,←,left,←,0.37572639994323254,True,34,0
159K21S3,552,experiment,51,←,left,←,0.38408919982612133,True,34,0
159K21S3,553,experiment,59,↓,down,↓,0.4780502002686262,True,34,0
159K21S3,554,experiment,105,→,right,→,0.46390590025112033,True,34,1
159K21S3,555,experiment,96,←,left,←,0.35924729984253645,True,34,1
159K21S3,556,experiment,103,←,left,←,0.35902970004826784,True,34,0
159K21S3,557,experiment,95,←,right,→,0.40087740030139685,False,34,0
159K21S3,558,experiment,57,↓,down,↓,0.4729185001924634,True,34,0
159K21S3,559,experiment,93,↑,up,↑,0.4708177000284195,True,34,1
159K21S3,560,experiment,67,→,right,→,0.557069499976933,True,34,1
159K21S3,561,experiment,70,↓,down,↓,0.5910956999287009,True,34,1
159K21S3,562,experiment,68,←,no_key,no_letter,-1.0,False,34,1
159K21S3,563,experiment,65,↓,down,↓,0.6285721003077924,True,34,1
159K21S3,564,experiment,79,↑,up,↑,0.616848099976778,True,34,1
159K21S3,565,experiment,104,←,left,←,0.47719720005989075,True,34,1
159K21S3,566,experiment,85,←,left,←,0.501573400106281,True,34,1
159K21S3,567,experiment,49,↓,down,↓,0.5213448000140488,True,34,1
159K21S3,568,experiment,106,←,left,←,0.4804881000891328,True,34,1
159K21S3,569,experiment,71,→,right,→,0.409268899820745,True,34,1
159K21S3,570,experiment,60,↓,down,↓,0.7842502002604306,True,34,0
159K21S3,571,experiment,66,←,left,←,0.3246861998923123,True,34,1
159K21S3,572,experiment,99,→,right,→,0.6761007998138666,True,34,0
159K21S3,573,experiment,76,→,right,→,0.4954087999649346,True,34,1
159K21S3,574,experiment,55,↓,down,↓,0.5129450000822544,True,34,1
159K21S3,575,experiment,52,↑,up,↑,0.6106027001515031,True,34,1
159K21S3,576,experiment,107,↓,down,↓,0.5823296001181006,True,34,1
159K21S3,577,experiment,63,→,right,→,0.4091241001151502,True,34,1
159K21S3,578,experiment,100,↑,no_key,no_letter,-1.0,False,34,0
159K21S3,579,experiment,78,↑,up,↑,0.5190653000026941,True,34,1
159K21S3,580,experiment,64,→,right,→,0.37566740019246936,True,34,1
159K21S3,581,experiment,94,→,right,→,0.5978964003734291,True,34,0
159K21S3,582,experiment,86,↑,up,↑,0.5047808000817895,True,34,1
159K21S3,583,experiment,90,←,left,←,0.5584489000029862,True,34,1
159K21S3,584,experiment,83,→,right,→,0.39217500016093254,True,34,1
159K21S3,585,experiment,62,↓,down,↓,0.48712259996682405,True,34,0
159K21S3,586,experiment,108,↑,up,↑,0.6070904997177422,True,34,1
159K21S3,587,experiment,81,↑,up,↑,0.7156996000558138,True,34,1
159K21S3,588,experiment,53,→,left,←,0.6690442999824882,False,34,1
159K21S3,589,experiment,98,↑,up,↑,0.5372359999455512,True,34,1
159K21S3,590,experiment,54,→,right,→,0.6499816998839378,True,34,1
159K21S3,591,experiment,75,→,right,→,0.4257549997419119,True,34,1
159K21S3,592,experiment,102,↓,down,↓,0.4909687000326812,True,34,0
159K21S3,593,experiment,92,→,no_key,no_letter,-1.0,False,34,1
159K21S3,594,experiment,89,→,right,→,0.6763021000660956,True,34,1
159K21S3,595,experiment,91,←,no_key,no_letter,-1.0,False,34,1
159K21S3,596,experiment,72,←,left,←,0.4604902002029121,True,34,1
159K21S3,597,experiment,58,↓,down,↓,0.6057490003295243,True,34,1
159K21S3,598,experiment,48,→,right,→,0.41750349989160895,True,34,1
159K21S3,599,experiment,88,↑,up,↑,0.5745716001838446,True,34,0
159K21S3,600,experiment,61,←,no_key,no_letter,-1.0,False,34,1
159K21S3,601,experiment,101,↑,up,↑,0.5230984999798238,True,34,1
159K21S3,602,experiment,56,→,no_key,no_letter,-1.0,False,34,1
159K21S3,603,experiment,69,←,left,←,0.35891069984063506,True,34,1
159K21S3,604,experiment,80,→,left,←,0.425764299929142,False,34,0
159K21S3,605,experiment,77,↓,no_key,no_letter,-1.0,False,34,0
159K21S3,606,experiment,73,→,right,→,0.6578528000973165,True,34,1
159K21S3,607,experiment,82,↑,up,↑,0.41736620012670755,True,34,1
159K21S3,608,training,97,↑,up,↑,0.5663926000706851,True,34,0
159K21S3,609,training,100,↓,down,↓,0.47820130037143826,True,34,1
159K21S3,610,experiment,53,←,left,←,0.6008593998849392,True,34,1
159K21S3,611,experiment,88,↑,up,↑,0.6432261997833848,True,34,1
159K21S3,612,experiment,95,←,no_key,no_letter,-1.0,False,34,1
159K21S3,613,experiment,87,←,left,←,0.526160900015384,True,34,1
159K21S3,614,experiment,107,↓,down,↓,0.5171133000403643,True,34,1
159K21S3,615,experiment,67,↓,down,↓,0.6418654001317918,True,34,1
159K21S3,616,experiment,94,↑,up,↑,0.5605498002842069,True,34,1
159K21S3,617,experiment,99,→,no_key,no_letter,-1.0,False,34,1
159K21S3,618,experiment,81,↓,down,↓,0.5835979003459215,True,34,1
159K21S3,619,experiment,77,←,left,←,0.4257450997829437,True,34,1
159K21S3,620,experiment,101,←,left,←,0.35920710023492575,True,34,0
159K21S3,621,experiment,54,↓,down,↓,0.6501662000082433,True,34,0
159K21S3,622,experiment,97,↓,down,↓,0.4794425000436604,True,34,1
159K21S3,623,experiment,58,←,left,←,0.36714239977300167,True,34,1
159K21S3,624,experiment,80,↑,up,↑,0.6788243995979428,True,34,0
159K21S3,625,experiment,74,↑,up,↑,0.5786545001901686,True,34,1
159K21S3,626,experiment,72,→,right,→,0.6438431995920837,True,34,1
159K21S3,627,experiment,82,←,left,←,0.4702757000923157,True,34,1
159K21S3,628,experiment,50,↓,down,↓,0.46671519987285137,True,34,1
159K21S3,629,experiment,75,←,left,←,0.383816400077194,True,34,1
159K21S3,630,experiment,73,→,right,→,0.46241800021380186,True,34,0
159K21S3,631,experiment,91,←,no_key,no_letter,-1.0,False,34,1
159K21S3,632,experiment,89,↓,down,↓,0.6325519001111388,True,34,1
159K21S3,633,experiment,52,←,left,←,0.4092204002663493,True,34,1
159K21S3,634,experiment,69,←,left,←,0.375749200116843,True,34,0
159K21S3,635,experiment,100,↓,down,↓,0.4691476998850703,True,34,0
159K21S3,636,experiment,92,←,left,←,0.5949842999689281,True,34,1
159K21S3,637,experiment,108,←,left,←,0.5830051000230014,True,34,1
159K21S3,638,experiment,84,↓,down,↓,0.5313579002395272,True,34,1
159K21S3,639,experiment,85,↓,down,↓,0.45820509968325496,True,34,1
159K21S3,640,experiment,96,→,right,→,0.4709378001280129,True,34,1
159K21S3,641,experiment,102,↓,down,↓,0.5376287996768951,True,34,1
159K21S3,642,experiment,60,↓,down,↓,0.4879866000264883,True,34,1
159K21S3,643,experiment,55,←,left,←,0.3841029996983707,True,34,1
159K21S3,644,experiment,79,→,left,←,0.46379789989441633,False,34,0
159K21S3,645,experiment,98,↑,up,↑,0.4839514996856451,True,34,1
159K21S3,646,experiment,66,↓,down,↓,0.6263451003469527,True,34,1
159K21S3,647,experiment,68,←,left,←,0.45112500013783574,True,34,1
159K21S3,648,experiment,76,↑,up,↑,1.0065295998938382,True,34,0
159K21S3,649,experiment,104,↓,down,↓,0.40912359999492764,True,34,1
159K21S3,650,experiment,56,→,left,←,0.5676221000030637,False,34,0
159K21S3,651,experiment,62,→,right,→,0.5399230001494288,True,34,1
159K21S3,652,experiment,83,↑,up,↑,0.578324300237,True,34,1
159K21S3,653,experiment,61,←,left,←,0.40034829964861274,True,34,1
159K21S3,654,experiment,63,←,left,←,0.37558799982070923,True,34,0
159K21S3,655,experiment,64,↑,up,↑,0.5402855002321303,True,34,0
159K21S3,656,experiment,78,↓,down,↓,0.7163494997657835,True,34,1
159K21S3,657,experiment,48,→,right,→,0.6315055000595748,True,34,1
159K21S3,658,experiment,49,→,right,→,0.3923452999442816,True,34,1
159K21S3,659,experiment,59,→,left,←,0.41831899993121624,False,34,0
159K21S3,660,experiment,93,↑,up,↑,0.5290397997014225,True,34,0
159K21S3,661,experiment,103,←,left,←,0.5050383997149765,True,34,1
159K21S3,662,experiment,65,→,right,→,0.45541829988360405,True,34,1
159K21S3,663,experiment,106,←,left,←,0.37579819979146123,True,34,1
159K21S3,664,experiment,57,←,left,←,0.6222733999602497,True,34,0
159K21S3,665,experiment,70,→,right,→,0.4542809999547899,True,34,1
159K21S3,666,experiment,105,↑,up,↑,0.5040742000564933,True,34,1
159K21S3,667,experiment,86,↓,down,↓,0.4711445001885295,True,34,1
159K21S3,668,experiment,90,←,left,←,0.4173286999575794,True,34,1
159K21S3,669,experiment,51,↑,up,↑,0.36739589972421527,True,34,0
159K21S3,670,experiment,71,←,no_key,no_letter,-1.0,False,34,0
159K21S3,671,training,105,↓,down,↓,0.7351294998079538,True,34,0
159K21S3,672,training,86,←,left,←,0.3673664000816643,True,34,1
159K21S3,673,experiment,103,←,left,←,0.587189800105989,True,34,0
159K21S3,674,experiment,80,→,right,→,0.5210065999999642,True,34,1
159K21S3,675,experiment,90,↓,down,↓,0.6137423003092408,True,34,1
159K21S3,676,experiment,74,↑,up,↑,0.4007505998015404,True,34,1
159K21S3,677,experiment,67,↑,up,↑,0.5811698003672063,True,34,0
159K21S3,678,experiment,79,←,left,←,0.3840397000312805,True,34,1
159K21S3,679,experiment,52,→,no_key,no_letter,-1.0,False,34,0
159K21S3,680,experiment,65,↓,down,↓,0.7580291000194848,True,34,1
159K21S3,681,experiment,71,↓,down,↓,0.3590029999613762,True,34,1
159K21S3,682,experiment,54,→,left,←,0.4173309002071619,False,34,0
159K21S3,683,experiment,87,←,left,←,0.7203998998738825,True,34,0
159K21S3,684,experiment,73,↑,up,↑,1.115134899970144,True,34,1
159K21S3,685,experiment,91,↓,down,↓,0.5197259001433849,True,34,1
159K21S3,686,experiment,83,↓,down,↓,0.5512232999317348,True,34,1
159K21S3,687,experiment,63,↓,down,↓,0.5559066999703646,True,34,1
159K21S3,688,experiment,61,↓,down,↓,0.43417120026424527,True,34,1
159K21S3,689,experiment,64,↓,no_key,no_letter,-1.0,False,34,0
159K21S3,690,experiment,96,↓,down,↓,0.4007310997694731,True,34,1
159K21S3,691,experiment,75,↑,up,↑,0.418321100063622,True,34,0
159K21S3,692,experiment,82,↑,up,↑,0.4342334996908903,True,34,0
159K21S3,693,experiment,66,→,right,→,0.6288538998924196,True,34,0
159K21S3,694,experiment,58,→,right,→,0.3673731996677816,True,34,1
159K21S3,695,experiment,72,↓,right,→,0.32568230014294386,False,34,0
159K21S3,696,experiment,62,→,right,→,0.5828097998164594,True,34,0
159K21S3,697,experiment,107,←,left,←,0.47567750001326203,True,34,1
159K21S3,698,experiment,81,→,right,→,0.4338107001967728,True,34,1
159K21S3,699,experiment,104,→,right,→,0.3590857000090182,True,34,0
159K21S3,700,experiment,89,↑,up,↑,0.4684338001534343,True,34,0
159K21S3,701,experiment,48,→,right,→,0.5209038001485169,True,34,1
159K21S3,702,experiment,55,↑,up,↑,0.6013573003001511,True,34,1
159K21S3,703,experiment,69,↑,up,↑,0.4256894998252392,True,34,1
159K21S3,704,experiment,76,↑,up,↑,0.48712889989838004,True,34,0
159K21S3,705,experiment,86,←,left,←,0.4256924004293978,True,34,1
159K21S3,706,experiment,85,↑,up,↑,0.5045508001931012,True,34,0
159K21S3,707,experiment,51,→,no_key,no_letter,-1.0,False,34,1
159K21S3,708,experiment,77,↓,down,↓,0.578974099829793,True,34,1
159K21S3,709,experiment,101,↓,down,↓,0.6179227000102401,True,34,1
159K21S3,710,experiment,98,↓,down,↓,0.417446699924767,True,34,1
159K21S3,711,experiment,56,↓,down,↓,0.4257185999304056,True,34,0
159K21S3,712,experiment,92,←,left,←,0.9161432003602386,True,34,0
159K21S3,713,experiment,105,←,left,←,0.350749300327152,True,34,1
159K21S3,714,experiment,106,→,right,→,0.7381389001384377,True,34,0
159K21S3,715,experiment,59,↓,down,↓,0.5045636999420822,True,34,1
159K21S3,716,experiment,49,↑,up,↑,0.4601785996928811,True,34,1
159K21S3,717,experiment,84,←,no_key,no_letter,-1.0,False,34,1
159K21S3,718,experiment,78,↑,up,↑,0.5162864997982979,True,34,1
159K21S3,719,experiment,100,←,left,←,0.47813270008191466,True,34,1
159K21S3,720,experiment,50,←,left,←,0.5620002998039126,True,34,1
159K21S3,721,experiment,88,→,right,→,0.5420578001067042,True,34,1
159K21S3,722,experiment,93,→,right,→,0.5691592004150152,True,34,1
159K21S3,723,experiment,108,↑,up,↑,0.8384094997309148,True,34,1
159K21S3,724,experiment,97,↑,no_key,no_letter,-1.0,False,34,1
159K21S3,725,experiment,70,→,right,→,0.4784460999071598,True,34,1
159K21S3,726,experiment,95,↑,up,↑,0.6592298001050949,True,34,1
159K21S3,727,experiment,53,↑,up,↑,0.5348964002914727,True,34,1
159K21S3,728,experiment,99,↑,up,↑,0.5042361002415419,True,34,1
159K21S3,729,experiment,57,→,left,←,0.4660851997323334,False,34,1
159K21S3,730,experiment,94,←,left,←,0.5664504999294877,True,34,1
159K21S3,731,experiment,60,↓,down,↓,0.6194813000038266,True,34,1
159K21S3,732,experiment,68,←,left,←,0.5561103001236916,True,34,1
159K21S3,733,experiment,102,↑,up,↑,0.6833365000784397,True,34,1
159K21S3,734,training,95,←,left,←,0.516848299652338,True,34,0
159K21S3,735,training,90,←,left,←,0.3924258998595178,True,34,1
159K21S3,736,experiment,55,↑,up,↑,0.42499700002372265,True,34,0
159K21S3,737,experiment,88,↓,up,↑,0.48820050014182925,False,34,0
159K21S3,738,experiment,91,←,left,←,0.40066870022565126,True,34,1
159K21S3,739,experiment,76,←,left,←,0.3508616001345217,True,34,0
159K21S3,740,experiment,101,↓,down,↓,0.5960168000310659,True,34,0
159K21S3,741,experiment,50,←,left,←,0.45931959990411997,True,34,1
159K21S3,742,experiment,80,↑,no_key,no_letter,-1.0,False,34,1
159K21S3,743,experiment,87,↓,down,↓,0.6658707000315189,True,34,1
159K21S3,744,experiment,56,↓,down,↓,0.4841951997950673,True,34,1
159K21S3,745,experiment,100,→,right,→,0.46357749961316586,True,34,1
159K21S3,746,experiment,64,↑,down,↓,0.6071958001703024,False,34,1
159K21S3,747,experiment,74,↓,up,↑,0.5097174001857638,False,34,1
159K21S3,748,experiment,54,↓,down,↓,0.5592159000225365,True,34,1
159K21S3,749,experiment,81,↑,up,↑,0.6618615998886526,True,34,1
159K21S3,750,experiment,85,↓,down,↓,0.6306886002421379,True,34,1
159K21S3,751,experiment,62,↑,up,↑,0.6722948998212814,True,34,1
159K21S3,752,experiment,93,↑,up,↑,0.38373959995806217,True,34,1
159K21S3,753,experiment,106,↓,down,↓,0.47487689973786473,True,34,0
159K21S3,754,experiment,90,↓,down,↓,0.6095052002929151,True,34,1
159K21S3,755,experiment,66,↓,down,↓,0.5468604997731745,True,34,1
159K21S3,756,experiment,58,↓,down,↓,0.6332221999764442,True,34,1
159K21S3,757,experiment,61,↑,up,↑,0.6273582000285387,True,34,1
159K21S3,758,experiment,89,←,left,←,0.5564134996384382,True,34,1
159K21S3,759,experiment,108,←,no_key,no_letter,-1.0,False,34,1
159K21S3,760,experiment,94,→,right,→,0.6759001002646983,True,34,1
159K21S3,761,experiment,79,↑,up,↑,0.4703203998506069,True,34,1
159K21S3,762,experiment,102,↑,up,↑,0.5773008000105619,True,34,1
159K21S3,763,experiment,48,→,right,→,0.6422156002372503,True,34,1
159K21S3,764,experiment,49,→,right,→,0.4174236999824643,True,34,1
159K21S3,765,experiment,65,↑,up,↑,0.4810926001518965,True,34,0
159K21S3,766,experiment,83,↓,left,←,0.32584850024431944,False,34,1
159K21S3,767,experiment,51,→,left,←,0.4832553002052009,False,34,0
159K21S3,768,experiment,60,→,right,→,0.5398121001198888,True,34,1
159K21S3,769,experiment,107,←,left,←,0.6580217001028359,True,34,1
159K21S3,770,experiment,96,←,left,←,0.41716339997947216,True,34,1
159K21S3,771,experiment,84,→,right,→,0.6741939000785351,True,34,0
159K21S3,772,experiment,72,←,left,←,0.5988575997762382,True,34,1
159K21S3,773,experiment,77,↓,no_key,no_letter,-1.0,False,34,1
159K21S3,774,experiment,103,↓,down,↓,0.70022530015558,True,34,1
159K21S3,775,experiment,63,←,left,←,0.4006873997859657,True,34,1
159K21S3,776,experiment,99,↑,up,↑,0.40903820004314184,True,34,0
159K21S3,777,experiment,57,↓,down,↓,0.5334158996120095,True,34,0
159K21S3,778,experiment,73,↓,down,↓,0.5033343997783959,True,34,1
159K21S3,779,experiment,75,↑,up,↑,0.6181262000463903,True,34,1
159K21S3,780,experiment,53,↓,down,↓,0.4796012998558581,True,34,1
159K21S3,781,experiment,98,↑,up,↑,0.6032306998968124,True,34,1
159K21S3,782,experiment,78,↑,up,↑,0.3508386998437345,True,34,1
159K21S3,783,experiment,97,↓,down,↓,0.5540415002033114,True,34,0
159K21S3,784,experiment,105,↓,down,↓,0.608750400133431,True,34,1
159K21S3,785,experiment,68,→,right,→,0.4579549999907613,True,34,1
159K21S3,786,experiment,86,→,right,→,0.5944399000145495,True,34,1
159K21S3,787,experiment,71,↓,down,↓,0.6666065002791584,True,34,1
159K21S3,788,experiment,95,←,left,←,0.5279588000848889,True,34,1
159K21S3,789,experiment,92,↓,down,↓,0.460719000082463,True,34,1
159K21S3,790,experiment,70,↓,down,↓,0.6020670998841524,True,34,1
159K21S3,791,experiment,104,←,right,→,0.5352211003191769,False,34,1
159K21S3,792,experiment,52,←,left,←,0.6242244997993112,True,34,1
159K21S3,793,experiment,69,→,right,→,0.48009430011734366,True,34,1
159K21S3,794,experiment,67,↑,up,↑,0.5820259000174701,True,34,1
159K21S3,795,experiment,59,↑,up,↑,0.4340463997796178,True,34,1
159K21S3,796,experiment,82,→,right,→,0.4258598000742495,True,34,0
159K21S3,797,training,52,↓,down,↓,0.4907660996541381,True,34,0
159K21S3,798,training,54,↓,down,↓,0.4687936003319919,True,34,1
159K21S3,799,experiment,84,↓,down,↓,0.5738106998614967,True,34,1
159K21S3,800,experiment,69,↑,up,↑,0.6398319997824728,True,34,1
159K21S3,801,experiment,51,→,no_key,no_letter,-1.0,False,34,1
159K21S3,802,experiment,81,←,left,←,0.4175084000453353,True,34,1
159K21S3,803,experiment,108,↑,no_key,no_letter,-1.0,False,34,0
159K21S3,804,experiment,66,↓,down,↓,0.49743680004030466,True,34,1
159K21S3,805,experiment,57,→,right,→,0.6422350998036563,True,34,1
159K21S3,806,experiment,95,↓,down,↓,0.7045469000004232,True,34,1
159K21S3,807,experiment,72,↓,down,↓,0.46873540012165904,True,34,1
159K21S3,808,experiment,61,↓,down,↓,0.9250460998155177,True,34,1
159K21S3,809,experiment,52,→,right,→,0.6225116001442075,True,34,1
159K21S3,810,experiment,67,↓,down,↓,0.48678489960730076,True,34,1
159K21S3,811,experiment,90,→,left,←,0.4694171999581158,False,34,1
159K21S3,812,experiment,58,↑,no_key,no_letter,-1.0,False,34,1
159K21S3,813,experiment,91,→,right,→,0.4585980996489525,True,34,1
159K21S3,814,experiment,79,←,left,←,0.48463140008971095,True,34,1
159K21S3,815,experiment,63,↓,down,↓,0.796040799934417,True,34,1
159K21S3,816,experiment,80,←,left,←,0.6331124999560416,True,34,1
159K21S3,817,experiment,101,↑,up,↑,0.4173738998360932,True,34,1
159K21S3,818,experiment,54,↑,up,↑,0.6025348003022373,True,34,0
159K21S3,819,experiment,68,←,left,←,0.3923019003123045,True,34,1
159K21S3,820,experiment,55,→,right,→,0.42583579989150167,True,34,0
159K21S3,821,experiment,73,↑,up,↑,0.5992085998877883,True,34,0
159K21S3,822,experiment,48,←,left,←,0.3506702999584377,True,34,1
159K21S3,823,experiment,53,↑,up,↑,0.3599592000246048,True,34,0
159K21S3,824,experiment,88,→,right,→,0.39311219984665513,True,34,0
159K21S3,825,experiment,94,↑,up,↑,0.3840916999615729,True,34,0
159K21S3,826,experiment,92,↓,down,↓,0.7238631001673639,True,34,0
159K21S3,827,experiment,104,→,left,←,0.7158571998588741,False,34,1
159K21S3,828,experiment,60,↑,up,↑,0.5950012998655438,True,34,1
159K21S3,829,experiment,62,↑,up,↑,0.3516939003020525,True,34,1
159K21S3,830,experiment,77,↑,up,↑,0.3507786998525262,True,34,0
159K21S3,831,experiment,83,↓,down,↓,0.5556596000678837,True,34,0
159K21S3,832,experiment,64,→,right,→,0.5355847999453545,True,34,1
159K21S3,833,experiment,78,←,left,←,0.4088415000587702,True,34,1
159K21S3,834,experiment,82,→,right,→,0.4917488000355661,True,34,0
159K21S3,835,experiment,96,↓,down,↓,0.6236382001079619,True,34,1
159K21S3,836,experiment,59,↓,down,↓,0.49914879957214,True,34,1
159K21S3,837,experiment,49,↑,up,↑,0.4091398003511131,True,34,1
159K21S3,838,experiment,97,←,left,←,0.4006873001344502,True,34,0
159K21S3,839,experiment,87,←,left,←,0.36732219997793436,True,34,0
159K21S3,840,experiment,70,←,right,→,0.584940199740231,False,34,0
159K21S3,841,experiment,106,→,left,←,0.4090355997905135,False,34,1
159K21S3,842,experiment,100,↑,up,↑,0.6196804000064731,True,34,0
159K21S3,843,experiment,85,→,right,→,0.47060889983549714,True,34,1
159K21S3,844,experiment,98,↓,down,↓,0.48246009973809123,True,34,1
159K21S3,845,experiment,56,→,right,→,0.676277699880302,True,34,1
159K21S3,846,experiment,74,↑,up,↑,0.49633859982714057,True,34,1
159K21S3,847,experiment,65,↑,up,↑,0.4787416998296976,True,34,1
159K21S3,848,experiment,93,↑,up,↑,0.7084357999265194,True,34,1
159K21S3,849,experiment,76,←,left,←,0.425793900154531,True,34,1
159K21S3,850,experiment,75,↓,down,↓,0.5158362002111971,True,34,0
159K21S3,851,experiment,103,→,right,→,0.4256996000185609,True,34,1
159K21S3,852,experiment,50,↓,up,↑,0.7064084000885487,False,34,0
159K21S3,853,experiment,99,↓,down,↓,0.6606955002062023,True,34,1
159K21S3,854,experiment,105,→,right,→,0.5191571996547282,True,34,1
159K21S3,855,experiment,86,↑,up,↑,0.5734708998352289,True,34,1
159K21S3,856,experiment,102,↓,down,↓,0.5801658001728356,True,34,1
159K21S3,857,experiment,71,→,right,→,0.42603630013763905,True,34,1
159K21S3,858,experiment,107,←,left,←,0.4797244998626411,True,34,0
159K21S3,859,experiment,89,←,left,←,0.5583438002504408,True,34,1
159K21S3,860,training,64,←,no_key,no_letter,-1.0,False,34,0
159K21S3,861,training,90,→,right,→,0.45747849997133017,True,34,1
159K21S3,862,experiment,84,←,left,←,0.6667480003088713,True,34,1
159K21S3,863,experiment,89,←,left,←,0.4011154999025166,True,34,1
159K21S3,864,experiment,74,→,left,←,0.672791600227356,False,34,0
159K21S3,865,experiment,77,→,left,←,0.7559718997217715,False,34,1
159K21S3,866,experiment,72,←,left,←,0.6052368995733559,True,34,1
159K21S3,867,experiment,57,↑,up,↑,0.5457121003419161,True,34,1
159K21S3,868,experiment,100,↑,up,↑,0.40926899993792176,True,34,1
159K21S3,869,experiment,102,↑,up,↑,0.3340153000317514,True,34,0
159K21S3,870,experiment,56,↑,up,↑,0.4004946001805365,True,34,0
159K21S3,871,experiment,96,←,left,←,0.3757725995965302,True,34,0
159K21S3,872,experiment,87,→,right,→,0.48973899986594915,True,34,0
159K21S3,873,experiment,80,→,right,→,0.42620600014925003,True,34,1
159K21S3,874,experiment,49,↑,up,↑,0.40931280003860593,True,34,0
159K21S3,875,experiment,105,↑,up,↑,0.5572714996524155,True,34,0
159K21S3,876,experiment,92,↑,up,↑,0.38482740009203553,True,34,1
159K21S3,877,experiment,54,↓,down,↓,0.5738294003531337,True,34,0
159K21S3,878,experiment,79,↓,down,↓,0.5321810999885201,True,34,1
159K21S3,879,experiment,66,↑,up,↑,0.5044680000282824,True,34,1
159K21S3,880,experiment,69,↓,down,↓,0.6689993999898434,True,34,1
159K21S3,881,experiment,85,↑,up,↑,0.5176657000556588,True,34,1
159K21S3,882,experiment,70,→,right,→,0.49747510021552444,True,34,1
159K21S3,883,experiment,91,↑,up,↑,0.41738930018618703,True,34,1
159K21S3,884,experiment,68,↑,up,↑,0.4949904000386596,True,34,0
159K21S3,885,experiment,63,←,left,←,0.6540281996130943,True,34,1
159K21S3,886,experiment,51,→,right,→,0.6908379998058081,True,34,1
159K21S3,887,experiment,64,↓,down,↓,0.7375142001546919,True,34,1
159K21S3,888,experiment,67,→,left,←,0.4618305000476539,False,34,1
159K21S3,889,experiment,106,↓,down,↓,0.43406909983605146,True,34,1
159K21S3,890,experiment,99,↑,no_key,no_letter,-1.0,False,34,0
159K21S3,891,experiment,101,↓,down,↓,0.595891899894923,True,34,1
159K21S3,892,experiment,83,←,left,←,0.5118889999575913,True,34,1
159K21S3,893,experiment,58,↑,up,↑,0.3929695999249816,True,34,1
159K21S3,894,experiment,81,→,right,→,0.48446570010855794,True,34,0
159K21S3,895,experiment,93,↑,up,↑,0.4083899003453553,True,34,1
159K21S3,896,experiment,95,↓,down,↓,0.48913270002231,True,34,0
159K21S3,897,experiment,75,↓,down,↓,0.5805021999403834,True,34,1
159K21S3,898,experiment,62,←,left,←,0.48003540001809597,True,34,1
159K21S3,899,experiment,71,←,left,←,0.350409799721092,True,34,1
159K21S3,900,experiment,55,↓,down,↓,0.5639626001939178,True,34,0
159K21S3,901,experiment,52,↓,down,↓,0.5556395002640784,True,34,1
159K21S3,902,experiment,103,↓,down,↓,0.5386676001362503,True,34,1
159K21S3,903,experiment,98,↑,down,↓,0.5800589001737535,False,34,1
159K21S3,904,experiment,60,→,right,→,0.4342388999648392,True,34,1
159K21S3,905,experiment,73,↑,up,↑,0.4625821001827717,True,34,0
159K21S3,906,experiment,94,←,left,←,0.5566635001450777,True,34,1
159K21S3,907,experiment,108,→,right,→,0.5212750998325646,True,34,1
159K21S3,908,experiment,65,←,left,←,0.4251149999909103,True,34,1
159K21S3,909,experiment,90,↓,down,↓,0.6067050001583993,True,34,0
159K21S3,910,experiment,48,↑,up,↑,0.409360199701041,True,34,1
159K21S3,911,experiment,82,←,left,←,0.39243779983371496,True,34,0
159K21S3,912,experiment,53,↑,up,↑,0.38402740005403757,True,34,0
159K21S3,913,experiment,107,↓,down,↓,0.5164699000306427,True,34,0
159K21S3,914,experiment,97,↓,down,↓,0.6792247998528183,True,34,1
159K21S3,915,experiment,76,↑,up,↑,0.6181963998824358,True,34,1
159K21S3,916,experiment,88,↑,up,↑,0.41685659997165203,True,34,1
159K21S3,917,experiment,50,↓,down,↓,0.5702045997604728,True,34,0
159K21S3,918,experiment,86,↑,up,↑,0.4549797000363469,True,34,1
159K21S3,919,experiment,78,↑,up,↑,0.35069029964506626,True,34,0
159K21S3,920,experiment,104,↑,up,↑,0.3841189998202026,True,34,0
159K21S3,921,experiment,61,←,left,←,0.4923995998688042,True,34,0
159K21S3,922,experiment,59,↓,down,↓,0.5728195998817682,True,34,1
159K21S3,923,training,69,↓,down,↓,0.4941885997541249,True,33,0
159K21S3,924,training,70,↓,down,↓,0.41724340012297034,True,33,1
159K21S3,925,experiment,76,↑,up,↑,0.5685250996612012,True,33,0
159K21S3,926,experiment,107,↓,down,↓,0.47798730013892055,True,33,1
159K21S3,927,experiment,84,↑,up,↑,0.62247130041942,True,33,1
159K21S3,928,experiment,86,↓,down,↓,0.6244851001538336,True,33,1
159K21S3,929,experiment,93,↓,down,↓,1.1844696998596191,True,33,1
159K21S3,930,experiment,94,↓,down,↓,0.7371430001221597,True,33,1
159K21S3,931,experiment,82,→,right,→,0.6322444998659194,True,33,1
159K21S3,932,experiment,99,↓,down,↓,0.549638600088656,True,33,1
159K21S3,933,experiment,60,↓,down,↓,0.6273789000697434,True,33,1
159K21S3,934,experiment,57,↓,no_key,no_letter,-1.0,False,33,1
159K21S3,935,experiment,65,↑,up,↑,0.707398499827832,True,33,1
159K21S3,936,experiment,49,↓,down,↓,0.4469054997898638,True,33,1
159K21S3,937,experiment,51,←,left,←,0.4171925000846386,True,33,1
159K21S3,938,experiment,75,↑,up,↑,0.5769028998911381,True,33,0
159K21S3,939,experiment,100,←,left,←,0.3505497998557985,True,33,1
159K21S3,940,experiment,64,←,left,←,0.46067530009895563,True,33,0
159K21S3,941,experiment,80,→,right,→,0.4257876998744905,True,33,1
159K21S3,942,experiment,74,←,left,←,0.4925501998513937,True,33,0
159K21S3,943,experiment,81,←,left,←,0.7576437997631729,True,33,1
159K21S3,944,experiment,102,→,left,←,0.41787050012499094,False,33,1
159K21S3,945,experiment,92,←,left,←,0.5730809001252055,True,33,0
159K21S3,946,experiment,55,↓,down,↓,0.979483800008893,True,33,1
159K21S3,947,experiment,58,→,right,→,0.6484093000181019,True,33,1
159K21S3,948,experiment,61,←,left,←,0.6099006999284029,True,33,1
159K21S3,949,experiment,52,←,left,←,0.6639638002961874,True,33,1
159K21S3,950,experiment,88,↑,up,↑,0.5997513998299837,True,33,1
159K21S3,951,experiment,98,→,right,→,0.39253420010209084,True,33,1
159K21S3,952,experiment,106,→,right,→,0.40904049994423985,True,33,0
159K21S3,953,experiment,78,↑,up,↑,0.5361898001283407,True,33,0
159K21S3,954,experiment,87,→,right,→,0.8216039999388158,True,33,1
159K21S3,955,experiment,59,→,right,→,0.418289199937135,True,33,1
159K21S3,956,experiment,68,→,right,→,0.40173269994556904,True,33,0
159K21S3,957,experiment,103,↓,down,↓,0.581457800231874,True,33,0
159K21S3,958,experiment,66,→,left,←,0.5278416997753084,False,33,1
159K21S3,959,experiment,91,↑,up,↑,0.6765327001921833,True,33,1
159K21S3,960,experiment,95,→,right,→,0.48124209977686405,True,33,1
159K21S3,961,experiment,97,←,left,←,0.42571379989385605,True,33,1
159K21S3,962,experiment,77,←,left,←,0.3923619003035128,True,33,0
159K21S3,963,experiment,72,↑,up,↑,0.49778159987181425,True,33,0
159K21S3,964,experiment,89,↓,down,↓,0.5678838999010623,True,33,1
159K21S3,965,experiment,62,↓,down,↓,0.6043032999150455,True,33,1
159K21S3,966,experiment,85,→,right,→,0.7994997999630868,True,33,1
159K21S3,967,experiment,53,←,left,←,0.5574877001345158,True,33,1
159K21S3,968,experiment,101,→,no_key,no_letter,-1.0,False,33,1
159K21S3,969,experiment,67,↑,up,↑,0.5287405997514725,True,33,1
159K21S3,970,experiment,105,↑,up,↑,0.5363794001750648,True,33,1
159K21S3,971,experiment,56,↓,down,↓,0.5281445998698473,True,33,1
159K21S3,972,experiment,73,→,left,←,0.45115779992192984,False,33,1
159K21S3,973,experiment,79,←,left,←,0.6777073997072875,True,33,1
159K21S3,974,experiment,90,→,right,→,0.460302600171417,True,33,1
159K21S3,975,experiment,63,↓,down,↓,0.48482130002230406,True,33,1
159K21S3,976,experiment,104,↓,down,↓,0.5985618997365236,True,33,1
159K21S3,977,experiment,54,←,left,←,0.5643688002601266,True,33,1
159K21S3,978,experiment,108,→,no_key,no_letter,-1.0,False,33,1
159K21S3,979,experiment,83,↑,up,↑,0.4252452002838254,True,33,1
159K21S3,980,experiment,69,↑,up,↑,0.534916200209409,True,33,0
159K21S3,981,experiment,96,↑,up,↑,0.5932527999393642,True,33,1
159K21S3,982,experiment,70,→,right,→,0.7939781001769006,True,33,1
159K21S3,983,experiment,50,←,left,←,0.4184462996199727,True,33,1
159K21S3,984,experiment,48,↓,down,↓,0.4883173000998795,True,33,0
159K21S3,985,experiment,71,→,left,←,0.6282019000500441,False,33,1
159K21S3,986,training,101,↓,down,↓,0.5550910998135805,True,33,0
159K21S3,987,training,91,↑,up,↑,0.6221867999993265,True,33,1
159K21S3,988,experiment,62,←,left,←,0.600222600158304,True,33,1
159K21S3,989,experiment,82,↓,down,↓,0.6046160999685526,True,33,1
159K21S3,990,experiment,83,↓,down,↓,0.6007508002221584,True,33,1
159K21S3,991,experiment,61,↓,down,↓,0.4761831001378596,True,33,1
159K21S3,992,experiment,80,→,right,→,0.47086929995566607,True,33,1
159K21S3,993,experiment,84,↑,up,↑,0.6309362999163568,True,33,1
159K21S3,994,experiment,108,→,right,→,0.44946360029280186,True,33,1
159K21S3,995,experiment,101,←,left,←,0.40069539984688163,True,33,0
159K21S3,996,experiment,73,↑,up,↑,0.4924607998691499,True,33,0
159K21S3,997,experiment,74,←,left,←,0.5118249002844095,True,33,1
159K21S3,998,experiment,67,↑,up,↑,0.40904129995033145,True,33,1
159K21S3,999,experiment,76,↑,up,↑,0.40070260036736727,True,33,0
159K21S3,1000,experiment,69,↓,down,↓,0.49107280001044273,True,33,0
159K21S3,1001,experiment,94,→,right,→,0.4642317998223007,True,33,1
159K21S3,1002,experiment,85,→,left,←,0.5286220000125468,False,33,1
159K21S3,1003,experiment,77,↓,down,↓,0.5056225000880659,True,33,1
159K21S3,1004,experiment,99,←,left,←,0.32574469968676567,True,33,1
159K21S3,1005,experiment,100,↓,down,↓,0.5891635003499687,True,33,0
159K21S3,1006,experiment,87,↑,up,↑,0.7920834999531507,True,33,1
159K21S3,1007,experiment,54,←,left,←,0.41668369993567467,True,33,1
159K21S3,1008,experiment,59,→,right,→,0.6013450999744236,True,33,0
159K21S3,1009,experiment,81,←,left,←,0.3340632999315858,True,33,1
159K21S3,1010,experiment,65,→,right,→,0.6024714997038245,True,33,0
159K21S3,1011,experiment,98,↑,up,↑,0.6894585001282394,True,33,1
159K21S3,1012,experiment,95,↓,down,↓,0.549959700088948,True,33,1
159K21S3,1013,experiment,68,↑,up,↑,0.5050882999785244,True,33,1
159K21S3,1014,experiment,88,→,right,→,0.5270086000673473,True,33,1
159K21S3,1015,experiment,66,←,left,←,0.4442727998830378,True,33,1
159K21S3,1016,experiment,56,↓,up,↑,0.4551882999949157,False,33,0
159K21S3,1017,experiment,103,←,left,←,0.5779508999548852,True,33,1
159K21S3,1018,experiment,72,←,right,→,0.5066744000650942,False,33,1
159K21S3,1019,experiment,106,←,left,←,0.6666806000284851,True,33,1
159K21S3,1020,experiment,52,→,right,→,0.4469988998025656,True,33,1
159K21S3,1021,experiment,75,↑,up,↑,0.5551869999617338,True,33,1
159K21S3,1022,experiment,105,←,left,←,0.45031150011345744,True,33,1
159K21S3,1023,experiment,78,↓,down,↓,0.46105200005695224,True,33,1
159K21S3,1024,experiment,107,↓,down,↓,0.5907614002935588,True,33,1
159K21S3,1025,experiment,53,↑,no_key,no_letter,-1.0,False,33,1
159K21S3,1026,experiment,64,←,left,←,0.5216687000356615,True,33,1
159K21S3,1027,experiment,102,←,left,←,0.3924677995964885,True,33,1
159K21S3,1028,experiment,57,↓,down,↓,0.5351502997800708,True,33,0
159K21S3,1029,experiment,71,←,left,←,0.561920799780637,True,33,1
159K21S3,1030,experiment,91,↑,up,↑,0.8209736002609134,True,33,1
159K21S3,1031,experiment,86,↑,up,↑,0.687257600016892,True,33,1
159K21S3,1032,experiment,51,←,left,←,0.4092147001065314,True,33,1
159K21S3,1033,experiment,93,↑,no_key,no_letter,-1.0,False,33,0
159K21S3,1034,experiment,50,→,left,←,0.47599139995872974,False,33,1
159K21S3,1035,experiment,63,→,right,→,0.3591761998832226,True,33,1
159K21S3,1036,experiment,70,↑,up,↑,0.49342940002679825,True,33,0
159K21S3,1037,experiment,104,→,right,→,0.7511328002437949,True,33,1
159K21S3,1038,experiment,96,↑,up,↑,0.3757529999129474,True,33,1
159K21S3,1039,experiment,97,→,right,→,0.5126326996833086,True,33,0
159K21S3,1040,experiment,48,→,right,→,0.36733750021085143,True,33,1
159K21S3,1041,experiment,60,←,left,←,0.5767953996546566,True,33,0
159K21S3,1042,experiment,58,↑,up,↑,0.367726500146091,True,33,1
159K21S3,1043,experiment,49,↑,up,↑,0.5668049999512732,True,33,0
159K21S3,1044,experiment,89,→,right,→,0.6741777001880109,True,33,1
159K21S3,1045,experiment,92,←,left,←,0.4645241000689566,True,33,1
159K21S3,1046,experiment,55,↑,up,↑,0.38421789975836873,True,33,1
159K21S3,1047,experiment,90,←,left,←,0.409018499776721,True,33,0
159K21S3,1048,experiment,79,→,right,→,0.4174522999674082,True,33,0
159K21S3,1049,training,67,↓,down,↓,0.5345649998635054,True,32,0
159K21S3,1050,training,83,→,right,→,0.40080130007117987,True,32,1
159K21S3,1051,experiment,91,↑,up,↑,0.40087739983573556,True,32,0
159K21S3,1052,experiment,66,←,no_key,no_letter,-1.0,False,32,0
159K21S3,1053,experiment,74,↑,up,↑,0.4091554000042379,True,32,1
159K21S3,1054,experiment,84,←,left,←,0.6840937999077141,True,32,0
159K21S3,1055,experiment,108,→,right,→,0.41734859999269247,True,32,1
159K21S3,1056,experiment,76,→,right,→,0.41748820012435317,True,32,0
159K21S3,1057,experiment,105,↓,down,↓,0.613633600063622,True,32,0
159K21S3,1058,experiment,93,←,left,←,0.43813750008121133,True,32,1
159K21S3,1059,experiment,99,↑,no_key,no_letter,-1.0,False,32,0
159K21S3,1060,experiment,59,↓,down,↓,0.4574865000322461,True,32,1
159K21S3,1061,experiment,78,→,right,→,0.45275470009073615,True,32,1
159K21S3,1062,experiment,54,↑,down,↓,0.6081447997130454,False,32,1
159K21S3,1063,experiment,102,→,right,→,0.44586650002747774,True,32,1
159K21S3,1064,experiment,98,→,right,→,0.4090634002350271,True,32,1
159K21S3,1065,experiment,104,→,right,→,0.3680582996457815,True,32,0
159K21S3,1066,experiment,100,→,left,←,0.47001329995691776,False,32,0
159K21S3,1067,experiment,65,←,left,←,0.7413544999435544,True,32,1
159K21S3,1068,experiment,56,←,right,→,0.45305259991437197,False,32,1
159K21S3,1069,experiment,77,↓,down,↓,0.6565196998417377,True,32,1
159K21S3,1070,experiment,106,→,right,→,0.38407899998128414,True,32,1
159K21S3,1071,experiment,52,←,left,←,0.41735530039295554,True,32,0
159K21S3,1072,experiment,88,↑,up,↑,0.6427935999818146,True,32,0
159K21S3,1073,experiment,95,←,left,←,0.46509689977392554,True,32,1
159K21S3,1074,experiment,94,→,no_key,no_letter,-1.0,False,32,1
159K21S3,1075,experiment,48,↑,up,↑,0.5691787004470825,True,32,1
159K21S3,1076,experiment,62,→,right,→,0.4454485001042485,True,32,1
159K21S3,1077,experiment,57,↑,up,↑,0.544225599616766,True,32,1
159K21S3,1078,experiment,73,↓,down,↓,0.6099654003046453,True,32,1
159K21S3,1079,experiment,51,↑,up,↑,0.5843952000141144,True,32,1
159K21S3,1080,experiment,96,←,left,←,0.3507089000195265,True,32,1
159K21S3,1081,experiment,68,→,right,→,0.5076232999563217,True,32,0
159K21S3,1082,experiment,86,↑,up,↑,0.40071360021829605,True,32,1
159K21S3,1083,experiment,101,→,right,→,0.7199727003462613,True,32,0
159K21S3,1084,experiment,72,↓,down,↓,0.4830027003772557,True,32,1
159K21S3,1085,experiment,69,↑,up,↑,0.41739790001884103,True,32,1
159K21S3,1086,experiment,97,↑,up,↑,0.5749381999485195,True,32,0
159K21S3,1087,experiment,60,↑,up,↑,0.37578330002725124,True,32,1
159K21S3,1088,experiment,92,↓,down,↓,0.5014144000597298,True,32,0
159K21S3,1089,experiment,82,↓,down,↓,0.5024390001781285,True,32,1
159K21S3,1090,experiment,63,←,left,←,0.4764908002689481,True,32,1
159K21S3,1091,experiment,87,→,right,→,0.3926063999533653,True,32,1
159K21S3,1092,experiment,79,→,left,←,0.6496714996173978,False,32,0
159K21S3,1093,experiment,64,↓,down,↓,0.47430070023983717,True,32,1
159K21S3,1094,experiment,80,←,left,←,0.46816529985517263,True,32,1
159K21S3,1095,experiment,58,↓,down,↓,0.5339017999358475,True,32,1
159K21S3,1096,experiment,49,←,left,←,0.6160109997726977,True,32,1
159K21S3,1097,experiment,103,↑,up,↑,0.6690556001849473,True,32,1
159K21S3,1098,experiment,75,←,left,←,0.5528588998131454,True,32,1
159K21S3,1099,experiment,70,←,left,←,0.45139479963108897,True,32,1
159K21S3,1100,experiment,90,↓,down,↓,0.4828981002792716,True,32,1
159K21S3,1101,experiment,67,↓,down,↓,0.4651259002275765,True,32,1
159K21S3,1102,experiment,107,←,left,←,0.5864034998230636,True,32,1
159K21S3,1103,experiment,89,↑,up,↑,0.6370971002615988,True,32,1
159K21S3,1104,experiment,71,↑,up,↑,0.7238415000028908,True,32,1
159K21S3,1105,experiment,53,←,no_key,no_letter,-1.0,False,32,1
159K21S3,1106,experiment,83,→,right,→,0.46744839986786246,True,32,1
159K21S3,1107,experiment,81,←,left,←,0.40039069997146726,True,32,1
159K21S3,1108,experiment,85,←,no_key,no_letter,-1.0,False,32,0
159K21S3,1109,experiment,55,←,left,←,0.5684715998359025,True,32,1
159K21S3,1110,experiment,61,→,right,→,0.4451628001406789,True,32,1
159K21S3,1111,experiment,50,↓,down,↓,0.7229302003979683,True,32,1
159K21S3,1112,training,83,↑,up,↑,0.5500678000971675,True,32,0
159K21S3,1113,training,106,←,left,←,0.367348600178957,True,32,1
159K21S3,1114,experiment,75,↓,down,↓,0.4759599999524653,True,32,0
159K21S3,1115,experiment,88,→,left,←,0.48364009987562895,False,32,1
159K21S3,1116,experiment,84,←,no_key,no_letter,-1.0,False,32,1
159K21S3,1117,experiment,76,←,left,←,0.5406285999342799,True,32,1
159K21S3,1118,experiment,93,↑,up,↑,0.6236594999209046,True,32,1
159K21S3,1119,experiment,67,↓,down,↓,0.7120690001174808,True,32,1
159K21S3,1120,experiment,90,→,right,→,0.4458909002132714,True,32,1
159K21S3,1121,experiment,80,↓,down,↓,0.5044975001364946,True,32,1
159K21S3,1122,experiment,53,→,right,→,0.6106406999751925,True,32,1
159K21S3,1123,experiment,89,→,right,→,0.47597500029951334,True,32,1
159K21S3,1124,experiment,94,↑,up,↑,0.6893446003086865,True,32,1
159K21S3,1125,experiment,58,↑,up,↑,0.40088410023599863,True,32,1
159K21S3,1126,experiment,81,↓,down,↓,0.5025447001680732,True,32,0
159K21S3,1127,experiment,87,↑,up,↑,0.5731828999705613,True,32,1
159K21S3,1128,experiment,71,↓,down,↓,0.6063769003376365,True,32,1
159K21S3,1129,experiment,98,↓,down,↓,0.5491380002349615,True,32,1
159K21S3,1130,experiment,105,←,left,←,0.5237336996942759,True,32,1
159K21S3,1131,experiment,83,↑,up,↑,0.6268457002006471,True,32,1
159K21S3,1132,experiment,108,↑,up,↑,0.5496248998679221,True,32,1
159K21S3,1133,experiment,61,←,left,←,0.4909699000418186,True,32,1
159K21S3,1134,experiment,63,↑,up,↑,0.6660739998333156,True,32,1
159K21S3,1135,experiment,59,→,right,→,0.603386300150305,True,32,1
159K21S3,1136,experiment,99,↓,down,↓,0.49823009967803955,True,32,1
159K21S3,1137,experiment,57,→,right,→,0.41642360016703606,True,32,1
159K21S3,1138,experiment,60,→,left,←,0.453881099820137,False,32,0
159K21S3,1139,experiment,96,↑,up,↑,0.49911569990217686,True,32,1
159K21S3,1140,experiment,78,←,left,←,0.49268130026757717,True,32,1
159K21S3,1141,experiment,107,↑,up,↑,0.40912130009382963,True,32,1
159K21S3,1142,experiment,66,↓,up,↑,0.5662054000422359,False,32,0
159K21S3,1143,experiment,106,↓,down,↓,0.643938499968499,True,32,1
159K21S3,1144,experiment,82,↓,down,↓,0.454799999948591,True,32,1
159K21S3,1145,experiment,50,↓,down,↓,0.5634487001225352,True,32,1
159K21S3,1146,experiment,54,←,left,←,0.4006701000034809,True,32,1
159K21S3,1147,experiment,49,↑,up,↑,0.3757098000496626,True,32,0
159K21S3,1148,experiment,73,←,left,←,0.7857066001743078,True,32,0
159K21S3,1149,experiment,102,→,right,→,0.6563127003610134,True,32,1
159K21S3,1150,experiment,65,→,right,→,0.40071320021525025,True,32,1
159K21S3,1151,experiment,97,↑,up,↑,0.6151883997954428,True,32,0
159K21S3,1152,experiment,92,←,left,←,0.37662689993157983,True,32,1
159K21S3,1153,experiment,68,→,no_key,no_letter,-1.0,False,32,0
159K21S3,1154,experiment,72,←,left,←,0.3256716001778841,True,32,1
159K21S3,1155,experiment,91,←,left,←,0.3507953998632729,True,32,0
159K21S3,1156,experiment,74,↑,up,↑,0.5198356998153031,True,32,0
159K21S3,1157,experiment,69,↑,up,↑,0.4093101997859776,True,32,1
159K21S3,1158,experiment,56,←,left,←,0.4564772001467645,True,32,0
159K21S3,1159,experiment,70,↑,up,↑,0.46242390014231205,True,32,1
159K21S3,1160,experiment,95,↑,no_key,no_letter,-1.0,False,32,1
159K21S3,1161,experiment,100,→,right,→,0.5969414003193378,True,32,1
159K21S3,1162,experiment,62,↑,up,↑,0.44057440012693405,True,32,1
159K21S3,1163,experiment,51,→,right,→,0.4690689998678863,True,32,1
159K21S3,1164,experiment,48,↓,down,↓,0.5462984000332654,True,32,1
159K21S3,1165,experiment,85,←,left,←,0.5275910999625921,True,32,1
159K21S3,1166,experiment,77,↑,up,↑,0.3933080998249352,True,32,1
159K21S3,1167,experiment,52,←,left,←,0.43970749992877245,True,32,0
159K21S3,1168,experiment,64,↓,down,↓,0.5515725999139249,True,32,1
159K21S3,1169,experiment,79,↑,up,↑,0.5349817997775972,True,32,1
159K21S3,1170,experiment,104,↑,up,↑,0.7666579997166991,True,32,1
159K21S3,1171,experiment,101,→,right,→,0.8139887000434101,True,32,1
159K21S3,1172,experiment,103,↑,up,↑,0.5069498997181654,True,32,1
159K21S3,1173,experiment,86,→,right,→,0.5613652002066374,True,32,1
159K21S3,1174,experiment,55,↓,down,↓,0.5844462001696229,True,32,1
159K21S3,1175,training,57,↓,down,↓,0.47828409960493445,True,31,0
159K21S3,1176,training,81,↓,down,↓,0.495826099999249,True,31,1
159K21S3,1177,experiment,67,←,left,←,0.445558600127697,True,31,1
159K21S3,1178,experiment,88,↑,up,↑,0.4007800999097526,True,31,1
159K21S3,1179,experiment,66,↑,up,↑,0.495074599981308,True,31,0
159K21S3,1180,experiment,59,←,left,←,0.5515207001008093,True,31,1
159K21S3,1181,experiment,61,↓,down,↓,0.6689435997977853,True,31,1
159K21S3,1182,experiment,57,←,left,←,0.3669729996472597,True,31,1
159K21S3,1183,experiment,62,→,right,→,0.6989283002912998,True,31,0
159K21S3,1184,experiment,102,→,right,→,0.9164184001274407,True,31,1
159K21S3,1185,experiment,48,↓,down,↓,0.5914706997573376,True,31,1
159K21S3,1186,experiment,108,↑,up,↑,0.40903889993205667,True,31,1
159K21S3,1187,experiment,58,→,right,→,0.40914459992200136,True,31,0
159K21S3,1188,experiment,83,→,left,←,0.4987626001238823,False,31,0
159K21S3,1189,experiment,89,↓,down,↓,0.6088879997842014,True,31,1
159K21S3,1190,experiment,80,↓,down,↓,0.7093906002119184,True,31,1
159K21S3,1191,experiment,56,↑,up,↑,0.5182929998263717,True,31,1
159K21S3,1192,experiment,94,→,right,→,0.4090558001771569,True,31,1
159K21S3,1193,experiment,96,↑,up,↑,0.5530237997882068,True,31,0
159K21S3,1194,experiment,86,↑,up,↑,0.3352276002988219,True,31,1
159K21S3,1195,experiment,105,↓,down,↓,0.6848653997294605,True,31,0
159K21S3,1196,experiment,97,↑,no_key,no_letter,-1.0,False,31,1
159K21S3,1197,experiment,52,←,left,←,0.5860524997115135,True,31,1
159K21S3,1198,experiment,51,↓,down,↓,0.465431600343436,True,31,1
159K21S3,1199,experiment,53,→,right,→,0.5489916000515223,True,31,1
159K21S3,1200,experiment,85,↓,down,↓,0.6262950003147125,True,31,1
159K21S3,1201,experiment,55,↑,up,↑,0.6947186999022961,True,31,1
159K21S3,1202,experiment,76,←,left,←,0.5374143999069929,True,31,1
159K21S3,1203,experiment,91,↑,up,↑,0.5255166003480554,True,31,1
159K21S3,1204,experiment,70,←,left,←,0.4337124000303447,True,31,1
159K21S3,1205,experiment,87,→,no_key,no_letter,-1.0,False,31,1
159K21S3,1206,experiment,95,↑,up,↑,0.5088292001746595,True,31,1
159K21S3,1207,experiment,60,→,left,←,0.42881920002400875,False,31,1
159K21S3,1208,experiment,54,→,right,→,0.44894500030204654,True,31,0
159K21S3,1209,experiment,72,→,left,←,0.45452249981462955,False,31,1
159K21S3,1210,experiment,50,→,right,→,0.47555150045081973,True,31,1
159K21S3,1211,experiment,93,←,left,←,0.43373889988288283,True,31,1
159K21S3,1212,experiment,106,→,right,→,0.4600588004104793,True,31,1
159K21S3,1213,experiment,65,↓,down,↓,0.5318382000550628,True,31,1
159K21S3,1214,experiment,81,↓,down,↓,0.6191809996962547,True,31,1
159K21S3,1215,experiment,100,←,left,←,0.4013328002765775,True,31,1
159K21S3,1216,experiment,79,←,left,←,0.6295938999392092,True,31,0
159K21S3,1217,experiment,75,↓,down,↓,0.6110563999973238,True,31,1
159K21S3,1218,experiment,73,→,right,→,0.5620387000963092,True,31,1
159K21S3,1219,experiment,104,↓,down,↓,0.4568536998704076,True,31,1
159K21S3,1220,experiment,82,←,left,←,0.4009899999946356,True,31,1
159K21S3,1221,experiment,90,↓,down,↓,0.5003192997537553,True,31,0
159K21S3,1222,experiment,64,↓,down,↓,0.47466730000451207,True,31,1
159K21S3,1223,experiment,63,↓,down,↓,0.4584278999827802,True,31,1
159K21S3,1224,experiment,99,←,left,←,0.40040910011157393,True,31,1
159K21S3,1225,experiment,68,↑,up,↑,0.39242930011823773,True,31,0
159K21S3,1226,experiment,98,→,no_key,no_letter,-1.0,False,31,0
159K21S3,1227,experiment,107,←,no_key,no_letter,-1.0,False,31,1
159K21S3,1228,experiment,69,←,left,←,0.5450162999331951,True,31,1
159K21S3,1229,experiment,74,↑,up,↑,0.5307121998630464,True,31,1
159K21S3,1230,experiment,77,→,right,→,0.5313999000936747,True,31,1
159K21S3,1231,experiment,84,←,left,←,0.4575898996554315,True,31,1
159K21S3,1232,experiment,101,↓,down,↓,0.5093608000315726,True,31,1
159K21S3,1233,experiment,103,←,no_key,no_letter,-1.0,False,31,1
159K21S3,1234,experiment,71,→,left,←,0.46521349996328354,False,31,1
159K21S3,1235,experiment,92,↓,down,↓,0.49558519991114736,True,31,1
159K21S3,1236,experiment,78,→,right,→,0.5856757001020014,True,31,1
159K21S3,1237,experiment,49,↓,down,↓,0.5777389002032578,True,31,1
159K21S3,1238,training,88,→,right,→,0.6814795997925103,True,31,0
159K21S3,1239,training,80,←,left,←,0.5231674998067319,True,31,1
159K21S3,1240,experiment,63,→,right,→,0.5849052001722157,True,31,1
159K21S3,1241,experiment,74,←,left,←,0.4726950000040233,True,31,1
159K21S3,1242,experiment,68,↓,down,↓,0.7587335999123752,True,31,1
159K21S3,1243,experiment,50,→,no_key,no_letter,-1.0,False,31,1
159K21S3,1244,experiment,81,↑,up,↑,0.38435509987175465,True,31,1
159K21S3,1245,experiment,94,↓,down,↓,0.7517955000512302,True,31,0
159K21S3,1246,experiment,72,↑,up,↑,0.40043949987739325,True,31,1
159K21S3,1247,experiment,85,↑,up,↑,0.3587798001244664,True,31,0
159K21S3,1248,experiment,78,↓,down,↓,0.5321602001786232,True,31,0
159K21S3,1249,experiment,59,↑,down,↓,0.6103870002552867,False,31,1
159K21S3,1250,experiment,66,↑,up,↑,0.3337468998506665,True,31,1
159K21S3,1251,experiment,70,←,left,←,0.7185844997875392,True,31,0
159K21S3,1252,experiment,100,↑,up,↑,0.36742059979587793,True,31,1
159K21S3,1253,experiment,56,→,left,←,0.6784339998848736,False,31,0
159K21S3,1254,experiment,71,↑,up,↑,0.42807439994066954,True,31,1
159K21S3,1255,experiment,61,↓,down,↓,0.6055263997986913,True,31,0
159K21S3,1256,experiment,106,↓,down,↓,0.7056499002501369,True,31,1
159K21S3,1257,experiment,98,↑,up,↑,0.5807120995596051,True,31,1
159K21S3,1258,experiment,96,↓,down,↓,0.516639799810946,True,31,1
159K21S3,1259,experiment,108,↓,down,↓,0.6278922003693879,True,31,1
159K21S3,1260,experiment,75,←,left,←,0.5533786001615226,True,31,1
159K21S3,1261,experiment,91,→,right,→,0.5487819998525083,True,31,1
159K21S3,1262,experiment,84,↓,down,↓,0.5945131001062691,True,31,1
159K21S3,1263,experiment,82,←,left,←,0.40887829987332225,True,31,1
159K21S3,1264,experiment,79,→,left,←,0.44413999980315566,False,31,0
159K21S3,1265,experiment,86,→,right,→,0.5094256000593305,True,31,1
159K21S3,1266,experiment,73,←,left,←,0.3757717995904386,True,31,1
159K21S3,1267,experiment,95,←,left,←,0.4971555001102388,True,31,0
159K21S3,1268,experiment,55,↑,no_key,no_letter,-1.0,False,31,1
159K21S3,1269,experiment,104,→,right,→,0.4425985999405384,True,31,1
159K21S3,1270,experiment,92,↑,up,↑,0.3841496999375522,True,31,1
159K21S3,1271,experiment,54,←,left,←,0.39320020005106926,True,31,0
159K21S3,1272,experiment,107,→,right,→,0.643741000443697,True,31,0
159K21S3,1273,experiment,99,←,left,←,0.576794599648565,True,31,1
159K21S3,1274,experiment,62,→,left,←,0.4847856997512281,False,31,1
159K21S3,1275,experiment,103,←,left,←,0.3844534996896982,True,31,1
159K21S3,1276,experiment,67,↑,up,↑,0.36723530013114214,True,31,0
159K21S3,1277,experiment,51,→,left,←,0.7046209000982344,False,31,0
159K21S3,1278,experiment,102,→,right,→,0.5541301998309791,True,31,1
159K21S3,1279,experiment,77,→,right,→,0.4006790998391807,True,31,1
159K21S3,1280,experiment,49,→,right,→,0.6173324999399483,True,31,0
159K21S3,1281,experiment,88,↓,down,↓,0.5150188002735376,True,31,1
159K21S3,1282,experiment,105,↓,down,↓,0.6592883998528123,True,31,1
159K21S3,1283,experiment,60,→,no_key,no_letter,-1.0,False,31,1
159K21S3,1284,experiment,57,←,left,←,0.5083856000564992,True,31,1
159K21S3,1285,experiment,52,←,left,←,0.6061812001280487,True,31,1
159K21S3,1286,experiment,93,→,right,→,0.38414639979600906,True,31,1
159K21S3,1287,experiment,58,←,left,←,0.6112668998539448,True,31,0
159K21S3,1288,experiment,97,↓,down,↓,0.5942391999997199,True,31,1
159K21S3,1289,experiment,65,↑,up,↑,0.692649899981916,True,31,1
159K21S3,1290,experiment,87,→,right,→,0.44403589982539415,True,31,1
159K21S3,1291,experiment,48,↓,down,↓,0.713544599711895,True,31,1
159K21S3,1292,experiment,64,↑,up,↑,0.5671983999200165,True,31,1
159K21S3,1293,experiment,53,→,right,→,0.7426322000101209,True,31,1
159K21S3,1294,experiment,89,←,left,←,0.43585649970918894,True,31,1
159K21S3,1295,experiment,76,←,left,←,0.5281577999703586,True,31,1
159K21S3,1296,experiment,101,←,left,←,0.5612407000735402,True,31,1
159K21S3,1297,experiment,83,→,right,→,0.6068262001499534,True,31,1
159K21S3,1298,experiment,80,→,right,→,0.3925660001114011,True,31,1
159K21S3,1299,experiment,90,↑,up,↑,0.3840728001669049,True,31,0
159K21S3,1300,experiment,69,→,right,→,0.6226449999958277,True,31,0
159K21S3,1301,training,96,↓,down,↓,0.6348165003582835,True,31,0
159K21S3,1302,training,103,↑,up,↑,0.3598772999830544,True,31,1
159K21S3,1303,experiment,81,←,left,←,0.4090567003004253,True,31,0
159K21S3,1304,experiment,69,←,left,←,0.7404824998229742,True,31,0
159K21S3,1305,experiment,78,←,left,←,0.5404876000247896,True,31,1
159K21S3,1306,experiment,79,↑,up,↑,0.3921771999448538,True,31,1
159K21S3,1307,experiment,98,↑,up,↑,0.563378400169313,True,31,0
159K21S3,1308,experiment,71,↓,down,↓,0.452776700258255,True,31,1
159K21S3,1309,experiment,83,→,right,→,0.4392077997326851,True,31,1
159K21S3,1310,experiment,82,↑,left,←,0.40911999996751547,False,31,1
159K21S3,1311,experiment,103,↑,up,↑,0.5023654000833631,True,31,0
159K21S3,1312,experiment,57,↓,down,↓,0.45514370035380125,True,31,1
159K21S3,1313,experiment,93,↓,down,↓,0.7575656999833882,True,31,1
159K21S3,1314,experiment,68,↑,no_key,no_letter,-1.0,False,31,1
159K21S3,1315,experiment,48,↓,up,↑,0.5067830998450518,False,31,1
159K21S3,1316,experiment,50,↓,down,↓,0.6055475999601185,True,31,1
159K21S3,1317,experiment,80,←,left,←,0.40816539991647005,True,31,1
159K21S3,1318,experiment,65,↓,down,↓,0.4996138997375965,True,31,0
159K21S3,1319,experiment,49,↑,down,↓,0.54299829993397,False,31,1
159K21S3,1320,experiment,106,↑,up,↑,0.5338795999996364,True,31,1
159K21S3,1321,experiment,85,→,right,→,0.5878278999589384,True,31,1
159K21S3,1322,experiment,72,←,left,←,0.5479025999084115,True,31,1
159K21S3,1323,experiment,63,←,left,←,0.8006487996317446,True,31,1
159K21S3,1324,experiment,58,↓,down,↓,0.6370333996601403,True,31,1
159K21S3,1325,experiment,108,←,left,←,0.43188099982216954,True,31,1
159K21S3,1326,experiment,89,↓,down,↓,0.5677772997878492,True,31,1
159K21S3,1327,experiment,54,↑,up,↑,0.6070044999942183,True,31,1
159K21S3,1328,experiment,51,↑,no_key,no_letter,-1.0,False,31,1
159K21S3,1329,experiment,107,←,no_key,no_letter,-1.0,False,31,1
159K21S3,1330,experiment,76,←,left,←,0.40907569974660873,True,31,1
159K21S3,1331,experiment,99,↑,left,←,0.3506808001548052,False,31,0
159K21S3,1332,experiment,59,←,left,←,0.5212242999114096,True,31,0
159K21S3,1333,experiment,87,↑,up,↑,0.392544100061059,True,31,1
159K21S3,1334,experiment,67,↓,down,↓,0.4883492002263665,True,31,0
159K21S3,1335,experiment,91,↓,down,↓,0.454082699958235,True,31,1
159K21S3,1336,experiment,75,↑,up,↑,0.58651759987697,True,31,1
159K21S3,1337,experiment,94,←,left,←,0.4360972000285983,True,31,1
159K21S3,1338,experiment,96,→,right,→,0.6576288999058306,True,31,1
159K21S3,1339,experiment,61,↑,up,↑,0.38421420007944107,True,31,1
159K21S3,1340,experiment,60,←,left,←,0.6467297999188304,True,31,0
159K21S3,1341,experiment,105,↓,down,↓,0.6655978998169303,True,31,1
159K21S3,1342,experiment,55,←,left,←,0.5722566996701062,True,31,1
159K21S3,1343,experiment,73,←,left,←,0.3924157000146806,True,31,1
159K21S3,1344,experiment,77,→,right,→,0.7946534003131092,True,31,0
159K21S3,1345,experiment,56,↑,up,↑,0.3931458997540176,True,31,1
159K21S3,1346,experiment,102,↑,up,↑,0.5896728998050094,True,31,0
159K21S3,1347,experiment,101,←,left,←,0.5638219001702964,True,31,1
159K21S3,1348,experiment,74,↑,up,↑,0.5402402002364397,True,31,1
159K21S3,1349,experiment,92,←,left,←,0.3764980002306402,True,31,1
159K21S3,1350,experiment,53,↑,up,↑,0.5261659999378026,True,31,0
159K21S3,1351,experiment,86,↑,up,↑,0.5241565001197159,True,31,1
159K21S3,1352,experiment,90,↑,up,↑,0.569079099688679,True,31,1
159K21S3,1353,experiment,104,↓,down,↓,0.463285599835217,True,31,1
159K21S3,1354,experiment,70,↓,down,↓,0.4289969000965357,True,31,1
159K21S3,1355,experiment,84,←,left,←,0.5194721003063023,True,31,0
159K21S3,1356,experiment,62,↓,down,↓,0.5504467999562621,True,31,1
159K21S3,1357,experiment,95,↑,up,↑,0.3674145000986755,True,31,1
159K21S3,1358,experiment,97,↑,up,↑,0.904326000250876,True,31,0
159K21S3,1359,experiment,100,↑,up,↑,0.3757397998124361,True,31,1
159K21S3,1360,experiment,64,←,left,←,0.517677899915725,True,31,0
159K21S3,1361,experiment,88,↑,up,↑,0.49140110006555915,True,31,1
159K21S3,1362,experiment,52,↓,down,↓,0.6221809000708163,True,31,1
159K21S3,1363,experiment,66,↑,up,↑,0.3843931001611054,True,31,1
159K21S3,1364,training,97,→,no_key,no_letter,-1.0,False,31,0
159K21S3,1365,training,70,↓,down,↓,0.46755849989131093,True,31,1
159K21S3,1366,experiment,48,↓,down,↓,0.5125958998687565,True,31,1
159K21S3,1367,experiment,84,→,right,→,0.47158690029755235,True,31,1
159K21S3,1368,experiment,96,↓,down,↓,0.5163866998627782,True,31,1
159K21S3,1369,experiment,55,→,right,→,0.4851959003135562,True,31,1
159K21S3,1370,experiment,58,→,left,←,0.8302573999390006,False,31,1
159K21S3,1371,experiment,103,←,left,←,0.5063465996645391,True,31,1
159K21S3,1372,experiment,75,↓,down,↓,0.4847115003503859,True,31,1
159K21S3,1373,experiment,70,→,right,→,0.6337597998790443,True,31,1
159K21S3,1374,experiment,54,←,no_key,no_letter,-1.0,False,31,1
159K21S3,1375,experiment,52,←,left,←,0.6634615999646485,True,31,1
159K21S3,1376,experiment,60,←,left,←,0.7604427002370358,True,31,1
159K21S3,1377,experiment,53,←,left,←,0.46447250014171004,True,31,1
159K21S3,1378,experiment,50,←,left,←,0.3673598999157548,True,31,1
159K21S3,1379,experiment,64,↑,up,↑,0.592206799890846,True,31,0
159K21S3,1380,experiment,65,↓,down,↓,0.5946093997918069,True,31,1
159K21S3,1381,experiment,99,↑,up,↑,0.4576208000071347,True,31,1
159K21S3,1382,experiment,62,→,right,→,0.5623912001028657,True,31,1
159K21S3,1383,experiment,82,↓,down,↓,0.5764315999113023,True,31,1
159K21S3,1384,experiment,93,←,left,←,0.5460914000868797,True,31,1
159K21S3,1385,experiment,73,↑,up,↑,0.6035825000144541,True,31,1
159K21S3,1386,experiment,87,↑,up,↑,0.3759105997160077,True,31,1
159K21S3,1387,experiment,51,←,left,←,0.5181903000921011,True,31,0
159K21S3,1388,experiment,71,←,left,←,0.481090999674052,True,31,1
159K21S3,1389,experiment,61,→,right,→,0.4811447998508811,True,31,1
159K21S3,1390,experiment,56,↑,no_key,no_letter,-1.0,False,31,1
159K21S3,1391,experiment,81,→,no_key,no_letter,-1.0,False,31,1
159K21S3,1392,experiment,57,↑,up,↑,0.5540653001517057,True,31,1
159K21S3,1393,experiment,108,→,right,→,0.5757146999239922,True,31,1
159K21S3,1394,experiment,94,↓,down,↓,0.5050467001274228,True,31,1
159K21S3,1395,experiment,59,←,left,←,0.36744390008971095,True,31,1
159K21S3,1396,experiment,105,↓,down,↓,0.6305525000207126,True,31,0
159K21S3,1397,experiment,106,↑,up,↑,0.5456162001937628,True,31,1
159K21S3,1398,experiment,72,↓,down,↓,0.5074931997805834,True,31,1
159K21S3,1399,experiment,49,→,right,→,0.5666207997128367,True,31,1
159K21S3,1400,experiment,101,↑,up,↑,0.6457766001112759,True,31,1
159K21S3,1401,experiment,97,↑,up,↑,0.4354612003080547,True,31,1
159K21S3,1402,experiment,74,←,left,←,0.6012631999328732,True,31,1
159K21S3,1403,experiment,67,↓,down,↓,0.5545890000648797,True,31,1
159K21S3,1404,experiment,86,↑,up,↑,0.5434097000397742,True,31,1
159K21S3,1405,experiment,83,←,left,←,0.4381646001711488,True,31,1
159K21S3,1406,experiment,95,←,left,←,0.5081638996489346,True,31,1
159K21S3,1407,experiment,78,↑,up,↑,0.581595900002867,True,31,1
159K21S3,1408,experiment,77,↓,down,↓,0.5803342000581324,True,31,1
159K21S3,1409,experiment,69,↑,up,↑,0.5417981999926269,True,31,1
159K21S3,1410,experiment,68,←,left,←,0.5051997001282871,True,31,1
159K21S3,1411,experiment,91,←,left,←,0.4542712001129985,True,31,1
159K21S3,1412,experiment,79,↓,down,↓,0.5052501996979117,True,31,1
159K21S3,1413,experiment,63,↑,up,↑,0.5919522996991873,True,31,1
159K21S3,1414,experiment,80,←,no_key,no_letter,-1.0,False,31,1
159K21S3,1415,experiment,89,→,left,←,0.6580707998946309,False,31,1
159K21S3,1416,experiment,98,↑,up,↑,0.4312396002933383,True,31,1
159K21S3,1417,experiment,88,↑,up,↑,0.47173190023750067,True,31,0
159K21S3,1418,experiment,76,↑,up,↑,0.3922387999482453,True,31,1
159K21S3,1419,experiment,92,←,no_key,no_letter,-1.0,False,31,0
159K21S3,1420,experiment,107,→,right,→,0.627145899925381,True,31,1
159K21S3,1421,experiment,66,→,right,→,0.3506472003646195,True,31,1
159K21S3,1422,experiment,102,←,left,←,0.4511170997284353,True,31,0
159K21S3,1423,experiment,90,↓,down,↓,0.6991860000416636,True,31,1
159K21S3,1424,experiment,100,←,left,←,0.44540980039164424,True,31,1
159K21S3,1425,experiment,85,↓,down,↓,0.662648200057447,True,31,1
159K21S3,1426,experiment,104,↓,down,↓,0.5292973998002708,True,31,1
159K21S3,1427,training,71,↓,down,↓,0.4895835998468101,True,31,0
159K21S3,1428,training,64,←,left,←,0.4561765999533236,True,31,1
159K21S3,1429,experiment,81,↑,up,↑,0.42703239992260933,True,31,1
159K21S3,1430,experiment,78,←,left,←,0.582890700083226,True,31,0
159K21S3,1431,experiment,74,↑,up,↑,0.518802999984473,True,31,1
159K21S3,1432,experiment,53,↓,down,↓,0.576173699926585,True,31,1
159K21S3,1433,experiment,66,←,left,←,0.350692399777472,True,31,1
159K21S3,1434,experiment,84,←,left,←,0.5523543995805085,True,31,0
159K21S3,1435,experiment,65,←,left,←,0.35940020019188523,True,31,1
159K21S3,1436,experiment,82,↓,down,↓,0.5381380002945662,True,31,0
159K21S3,1437,experiment,72,↓,down,↓,0.4446650999598205,True,31,1
159K21S3,1438,experiment,63,↓,no_key,no_letter,-1.0,False,31,1
159K21S3,1439,experiment,91,←,left,←,0.3841625996865332,True,31,1
159K21S3,1440,experiment,85,→,no_key,no_letter,-1.0,False,31,0
159K21S3,1441,experiment,98,↑,no_key,no_letter,-1.0,False,31,1
159K21S3,1442,experiment,95,←,left,←,0.4004279999062419,True,31,1
159K21S3,1443,experiment,76,↑,no_key,no_letter,-1.0,False,31,0
159K21S3,1444,experiment,50,↑,up,↑,0.3676339997909963,True,31,1
159K21S3,1445,experiment,101,↓,down,↓,0.4415140999481082,True,31,0
159K21S3,1446,experiment,57,↓,down,↓,0.4370442000217736,True,31,1
159K21S3,1447,experiment,75,←,left,←,0.40911819972097874,True,31,1
159K21S3,1448,experiment,103,↓,down,↓,0.6382026001811028,True,31,0
159K21S3,1449,experiment,93,↑,up,↑,0.47716289991512895,True,31,1
159K21S3,1450,experiment,64,→,right,→,0.6286733997985721,True,31,1
159K21S3,1451,experiment,99,↑,up,↑,0.5464689997024834,True,31,1
159K21S3,1452,experiment,71,↑,up,↑,0.5167796001769602,True,31,1
159K21S3,1453,experiment,60,→,right,→,0.5238263998180628,True,31,1
159K21S3,1454,experiment,73,↓,left,←,0.36751140002161264,False,31,1
159K21S3,1455,experiment,52,↑,down,↓,0.43035539984703064,False,31,0
159K21S3,1456,experiment,97,↓,down,↓,0.7478439998812973,True,31,0
159K21S3,1457,experiment,104,→,right,→,0.42740590032190084,True,31,1
159K21S3,1458,experiment,56,←,left,←,0.37570409988984466,True,31,0
159K21S3,1459,experiment,70,↓,down,↓,0.47984089981764555,True,31,0
159K21S3,1460,experiment,89,←,left,←,0.3515917998738587,True,31,1
159K21S3,1461,experiment,79,↓,down,↓,0.43762309988960624,True,31,0
159K21S3,1462,experiment,51,↑,no_key,no_letter,-1.0,False,31,1
159K21S3,1463,experiment,62,↓,down,↓,0.4642819999717176,True,31,1
159K21S3,1464,experiment,107,↓,down,↓,0.569554700050503,True,31,1
159K21S3,1465,experiment,58,↓,down,↓,0.4396810997277498,True,31,1
159K21S3,1466,experiment,69,→,right,→,0.46237679990008473,True,31,1
159K21S3,1467,experiment,48,←,left,←,0.4359782999381423,True,31,1
159K21S3,1468,experiment,88,↓,down,↓,0.49229810014367104,True,31,1
159K21S3,1469,experiment,77,→,right,→,0.45470040012151003,True,31,1
159K21S3,1470,experiment,54,↓,down,↓,0.562168300151825,True,31,1
159K21S3,1471,experiment,67,←,left,←,0.36755550000816584,True,31,1
159K21S3,1472,experiment,100,↓,down,↓,0.564310799818486,True,31,0
159K21S3,1473,experiment,92,←,left,←,0.49464609986171126,True,31,1
159K21S3,1474,experiment,68,←,right,→,0.4920806000009179,False,31,1
159K21S3,1475,experiment,55,↑,up,↑,0.6700014998205006,True,31,1
159K21S3,1476,experiment,61,←,left,←,0.5187624995596707,True,31,1
159K21S3,1477,experiment,49,↓,down,↓,0.4340068995952606,True,31,1
159K21S3,1478,experiment,80,↑,up,↑,0.6448335996828973,True,31,1
159K21S3,1479,experiment,59,↓,up,↑,0.6231460999697447,False,31,1
159K21S3,1480,experiment,87,↓,down,↓,0.6088808001950383,True,31,1
159K21S3,1481,experiment,96,↓,down,↓,0.5762877003289759,True,31,1
159K21S3,1482,experiment,108,←,left,←,0.43758710008114576,True,31,1
159K21S3,1483,experiment,102,↑,up,↑,0.40145889995619655,True,31,1
159K21S3,1484,experiment,106,↓,down,↓,0.45280850026756525,True,31,0
159K21S3,1485,experiment,94,↓,down,↓,0.5550098000094295,True,31,1
159K21S3,1486,experiment,83,→,no_key,no_letter,-1.0,False,31,1
159K21S3,1487,experiment,105,↑,up,↑,0.4091634997166693,True,31,1
159K21S3,1488,experiment,86,↓,down,↓,0.45063390024006367,True,31,0
159K21S3,1489,experiment,90,←,left,←,0.3837703000754118,True,31,1
159K21S3,1490,training,78,↑,up,↑,0.8474904000759125,True,31,0
159K21S3,1491,training,98,←,left,←,0.47642010031268,True,31,1
