PART_ID,Trial,Stimuli,Version,Training,FIXTIME,TIME,Correct,SOA,Reversal,Reversal_count,Latency,stim_name,Rating
170K19,1,SQUARES,First_showed,training,45,15,True,8,-,-,0.36737300000095274,left,-
170K19,2,SQUARES,First_showed,training,45,15,True,8,-,-,0.20077989999845158,left,-
170K19,3,SQUARES,First_showed,training,45,15,True,8,-,-,0.11752720000367844,right,-
170K19,4,SQUARES,First_showed,training,45,15,True,8,-,-,0.2508927000017138,right,-
170K19,5,SQUARES,First_showed,training,45,15,True,8,-,-,0.30077650000021094,right,-
170K19,6,SQUARES,First_showed,training,45,15,False,8,-,-,0.41748830000142334,left,-
170K19,7,SQUARES,First_showed,training,45,15,True,8,-,-,0.6009125999989919,left,-
170K19,8,SQUARES,First_showed,training,45,15,True,8,-,-,0.26741340000444325,left,-
170K19,9,SQUARES,First_showed,training,45,15,True,8,-,-,0.2008088000002317,right,-
170K19,10,SQUARES,First_showed,training,45,15,True,8,-,-,0.15051820000371663,left,-
170K19,11,SQUARES,First_showed,training,45,15,True,3,-,-,0.2673711999959778,right,-
170K19,12,SQUARES,First_showed,training,45,15,True,3,-,-,0.20062260000122478,right,-
170K19,13,SQUARES,First_showed,training,45,15,True,3,-,-,0.2175476999982493,left,-
170K19,14,SQUARES,First_showed,training,45,15,True,3,-,-,0.23396150000189664,left,-
170K19,15,SQUARES,First_showed,training,45,15,True,3,-,-,0.2507698999979766,left,-
170K19,16,SQUARES,First_showed,training,45,15,True,3,-,-,0.26701569999568164,right,-
170K19,17,SQUARES,First_showed,training,45,15,True,3,-,-,0.18408990000170888,right,-
170K19,18,SQUARES,First_showed,training,45,15,True,3,-,-,0.11739420000230893,left,-
170K19,19,SQUARES,First_showed,training,45,15,True,3,-,-,0.2508391000010306,left,-
170K19,20,SQUARES,First_showed,training,45,15,True,3,-,-,0.20066470000165282,right,-
170K19,1,SQUARES,First_showed,exp,45,15,True,3,0,0,0.13428299999941373,right,-
170K19,2,SQUARES,First_showed,exp,45,15,True,3,0,-,0.31752140000025975,right,-
170K19,3,SQUARES,First_showed,exp,45,15,True,2,0,-,0.2839996000038809,right,-
170K19,4,SQUARES,First_showed,exp,45,15,True,2,0,-,0.1516533999965759,right,-
170K19,5,SQUARES,First_showed,exp,45,15,False,1,1,1,0.2007547000030172,right,-
170K19,6,SQUARES,First_showed,exp,45,15,True,2,0,-,0.18424429999868153,left,-
170K19,7,SQUARES,First_showed,exp,45,15,True,2,1,2,0.18410389999917243,left,-
170K19,8,SQUARES,First_showed,exp,45,15,True,1,0,-,0.2838922000009916,left,-
170K19,9,SQUARES,First_showed,exp,45,15,True,1,0,-,0.28366519999690354,right,-
170K19,10,SQUARES,First_showed,exp,45,15,False,0,1,3,0.2174486000003526,left,-
170K19,11,SQUARES,First_showed,exp,45,15,False,1,0,-,0.2508503999997629,left,-
170K19,12,SQUARES,First_showed,exp,45,15,False,2,0,-,0.25082900000415975,right,-
170K19,13,SQUARES,First_showed,exp,45,15,True,3,0,-,0.30061879999993835,right,-
170K19,14,SQUARES,First_showed,exp,45,15,True,3,1,4,0.30078169999615056,right,-
170K19,15,SQUARES,First_showed,exp,45,15,True,2,0,-,0.33410790000198176,right,-
170K19,16,SQUARES,First_showed,exp,45,15,True,2,0,-,0.16735580000386108,left,-
170K19,17,SQUARES,First_showed,exp,45,15,False,1,1,5,0.16729470000427682,right,-
170K19,18,SQUARES,First_showed,exp,45,15,True,2,0,-,0.017370000001392327,right,-
170K19,19,SQUARES,First_showed,exp,45,15,False,2,0,-,0.7006901999993715,left,-
170K19,20,SQUARES,First_showed,exp,45,15,True,3,0,-,0.8174547000016901,right,-
170K19,21,SQUARES,First_showed,exp,45,15,True,3,1,6,0.6007654999993974,right,-
170K19,22,SQUARES,First_showed,exp,45,15,True,2,0,-,0.3841831000027014,right,-
170K19,23,SQUARES,First_showed,exp,45,15,True,2,0,-,0.4838021000032313,right,-
170K19,24,SQUARES,First_showed,exp,45,15,False,1,1,7,0.31750299999839626,right,-
170K19,25,SQUARES,First_showed,exp,45,15,True,2,0,-,0.3174065999992308,left,-
170K19,26,SQUARES,First_showed,exp,45,15,True,2,1,8,0.30062260000704555,left,-
170K19,27,SQUARES,First_showed,exp,45,15,True,1,0,-,0.4673445000007632,left,-
170K19,28,SQUARES,First_showed,exp,45,15,False,1,1,9,0.3340557000046829,left,-
170K19,29,SQUARES,First_showed,exp,45,15,False,2,0,-,0.3175201999983983,left,-
170K19,30,SQUARES,First_showed,exp,45,15,True,3,0,-,0.2506842000002507,left,-
170K19,31,SQUARES,First_showed,exp,45,15,True,3,1,10,0.18408170000475366,right,-
170K19,1,CIRCLES,First_hidden,training,45,15,True,8,-,-,1.1172015000047395,right,-
170K19,2,CIRCLES,First_hidden,training,45,15,True,8,-,-,0.5007549000001745,right,-
170K19,3,CIRCLES,First_hidden,training,45,15,True,8,-,-,0.5008290000041598,right,-
170K19,4,CIRCLES,First_hidden,training,45,15,True,8,-,-,0.5168333999972674,right,-
170K19,5,CIRCLES,First_hidden,training,45,15,True,8,-,-,0.35083730000042124,right,-
170K19,6,CIRCLES,First_hidden,training,45,15,True,8,-,-,0.31758880000415957,right,-
170K19,7,CIRCLES,First_hidden,training,45,15,True,8,-,-,0.2507416000007652,left,-
170K19,8,CIRCLES,First_hidden,training,45,15,True,8,-,-,0.21738550000009127,left,-
170K19,9,CIRCLES,First_hidden,training,45,15,True,8,-,-,0.2673856000037631,right,-
170K19,10,CIRCLES,First_hidden,training,45,15,True,8,-,-,0.36736999999993714,right,-
170K19,11,CIRCLES,First_hidden,training,45,15,True,3,-,-,0.5504666999986512,right,-
170K19,12,CIRCLES,First_hidden,training,45,15,True,3,-,-,0.5007925999962026,left,-
170K19,13,CIRCLES,First_hidden,training,45,15,True,3,-,-,0.5840090999990935,left,-
170K19,14,CIRCLES,First_hidden,training,45,15,True,3,-,-,0.417277100001229,right,-
170K19,15,CIRCLES,First_hidden,training,45,15,True,3,-,-,0.38412349999998696,left,-
170K19,16,CIRCLES,First_hidden,training,45,15,True,3,-,-,0.6342590999993263,right,-
170K19,17,CIRCLES,First_hidden,training,45,15,True,3,-,-,0.3674768999990192,left,-
170K19,18,CIRCLES,First_hidden,training,45,15,True,3,-,-,0.5177651999983937,left,-
170K19,19,CIRCLES,First_hidden,training,45,15,True,3,-,-,0.43392880000465084,right,-
170K19,20,CIRCLES,First_hidden,training,45,15,True,3,-,-,0.48415189999650465,right,-
170K19,1,CIRCLES,First_hidden,exp,45,15,True,3,0,0,0.43405880000500474,right,-
170K19,2,CIRCLES,First_hidden,exp,45,15,True,3,0,-,0.4342296000031638,right,-
170K19,3,CIRCLES,First_hidden,exp,45,15,True,2,0,-,0.367354099995282,left,-
170K19,4,CIRCLES,First_hidden,exp,45,15,True,2,0,-,0.40063869999721646,left,-
170K19,5,CIRCLES,First_hidden,exp,45,15,True,1,0,-,0.48406409999734024,right,-
170K19,6,CIRCLES,First_hidden,exp,45,15,True,1,0,-,0.38407680000091204,left,-
170K19,7,CIRCLES,First_hidden,exp,45,15,False,0,1,1,0.48382999999739695,left,-
170K19,8,CIRCLES,First_hidden,exp,45,15,True,1,0,-,0.567470100002538,left,-
170K19,9,CIRCLES,First_hidden,exp,45,15,True,1,1,2,0.5341503000017838,left,-
170K19,10,CIRCLES,First_hidden,exp,45,15,False,0,1,3,0.7338928999961354,left,-
170K19,11,CIRCLES,First_hidden,exp,45,15,True,1,0,-,0.5342476000005263,right,-
170K19,12,CIRCLES,First_hidden,exp,45,15,True,1,1,4,0.5674399999988964,right,-
170K19,13,CIRCLES,First_hidden,exp,45,15,False,0,1,5,0.6507319000011194,right,-
170K19,14,CIRCLES,First_hidden,exp,45,15,True,1,0,-,0.5174264000015683,left,-
170K19,15,CIRCLES,First_hidden,exp,45,15,True,1,1,6,0.48401580000063404,right,-
170K19,16,CIRCLES,First_hidden,exp,45,15,False,0,1,7,0.7340965000039432,right,-
170K19,17,CIRCLES,First_hidden,exp,45,15,True,1,0,-,0.41744399999879533,left,-
170K19,18,CIRCLES,First_hidden,exp,45,15,True,1,1,8,0.5340854000023683,right,-
170K19,19,CIRCLES,First_hidden,exp,45,15,False,0,1,9,0.5007305000035558,right,-
170K19,20,CIRCLES,First_hidden,exp,45,15,True,1,0,-,0.350852900002792,right,-
170K19,21,CIRCLES,First_hidden,exp,45,15,True,1,1,10,0.3340941999995266,right,-
