PART_ID,Trial,Stimuli,Version,Training,FIXTIME,TIME,Correct,SOA,Reversal,Reversal_count,Latency,stim_name,Rating
PB031M18,1,SQUARES,First_showed,training,45,15,True,8,-,-,0.7174527999595739,left,-
PB031M18,2,SQUARES,First_showed,training,45,15,True,8,-,-,0.1839258999680169,left,-
PB031M18,3,SQUARES,First_showed,training,45,15,True,8,-,-,0.3505198000348173,right,-
PB031M18,4,SQUARES,First_showed,training,45,15,True,8,-,-,0.1838552999543026,right,-
PB031M18,5,SQUARES,First_showed,training,45,15,True,8,-,-,0.21734639996429905,left,-
PB031M18,6,SQUARES,First_showed,training,45,15,True,8,-,-,0.06737489998340607,left,-
PB031M18,7,SQUARES,First_showed,training,45,15,True,8,-,-,0.03384099999675527,left,-
PB031M18,8,SQUARES,First_showed,training,45,15,True,8,-,-,0.050194499955978245,right,-
PB031M18,9,SQUARES,First_showed,training,45,15,True,8,-,-,0.05058209999697283,right,-
PB031M18,10,SQUARES,First_showed,training,45,15,True,8,-,-,0.1675114999525249,right,-
PB031M18,11,SQUARES,First_showed,training,45,15,True,3,-,-,0.13405100000090897,right,-
PB031M18,12,SQUARES,First_showed,training,45,15,True,3,-,-,0.2507750000222586,left,-
PB031M18,13,SQUARES,First_showed,training,45,15,True,3,-,-,0.1671230000210926,left,-
PB031M18,14,SQUARES,First_showed,training,45,15,True,3,-,-,0.13393089995952323,left,-
PB031M18,15,SQUARES,First_showed,training,45,15,True,3,-,-,0.11748269997769967,left,-
PB031M18,16,SQUARES,First_showed,training,45,15,True,3,-,-,0.20066349999979138,right,-
PB031M18,17,SQUARES,First_showed,training,45,15,True,3,-,-,0.13392400002339855,left,-
PB031M18,18,SQUARES,First_showed,training,45,15,True,3,-,-,0.06739819998620078,right,-
PB031M18,19,SQUARES,First_showed,training,45,15,True,3,-,-,0.017184800002723932,right,-
PB031M18,20,SQUARES,First_showed,training,45,15,True,3,-,-,0.050767699955031276,right,-
PB031M18,1,SQUARES,First_showed,exp,45,15,False,3,0,0,0.11725900002056733,left,-
PB031M18,2,SQUARES,First_showed,exp,45,15,True,4,0,-,0.1005260000238195,right,-
PB031M18,3,SQUARES,First_showed,exp,45,15,False,4,0,-,0.05001160001847893,left,-
PB031M18,4,SQUARES,First_showed,exp,45,15,True,5,0,-,0.10058590001426637,left,-
PB031M18,5,SQUARES,First_showed,exp,45,15,True,5,1,1,0.06741790001979098,left,-
PB031M18,6,SQUARES,First_showed,exp,45,15,False,4,1,2,0.11714070005109534,left,-
PB031M18,7,SQUARES,First_showed,exp,45,15,True,5,0,-,0.16684339998755604,right,-
PB031M18,8,SQUARES,First_showed,exp,45,15,True,5,1,3,0.03386199998203665,right,-
PB031M18,9,SQUARES,First_showed,exp,45,15,True,4,0,-,0.050600500020664185,right,-
PB031M18,10,SQUARES,First_showed,exp,45,15,True,4,0,-,0.20069510000757873,left,-
PB031M18,11,SQUARES,First_showed,exp,45,15,False,3,1,4,0.06728080002358183,left,-
PB031M18,12,SQUARES,First_showed,exp,45,15,True,4,0,-,0.13407430000370368,right,-
PB031M18,13,SQUARES,First_showed,exp,45,15,True,4,1,5,1.2672400000155903,right,-
PB031M18,14,SQUARES,First_showed,exp,45,15,False,3,1,6,0.050760499958414584,left,-
PB031M18,15,SQUARES,First_showed,exp,45,15,False,4,0,-,0.017395100032445043,left,-
PB031M18,16,SQUARES,First_showed,exp,45,15,False,5,0,-,0.6001420000102371,left,-
PB031M18,17,SQUARES,First_showed,exp,45,15,False,6,0,-,0.06675059994449839,left,-
PB031M18,18,SQUARES,First_showed,exp,45,15,True,7,0,-,0.0006617000326514244,right,-
PB031M18,19,SQUARES,First_showed,exp,45,15,False,7,0,-,0.0006587000098079443,left,-
PB031M18,20,SQUARES,First_showed,exp,45,15,False,8,0,-,0.4503982000169344,left,-
PB031M18,21,SQUARES,First_showed,exp,45,15,True,9,0,-,0.5838867999846116,right,-
PB031M18,22,SQUARES,First_showed,exp,45,15,False,9,0,-,0.1339045999920927,left,-
PB031M18,23,SQUARES,First_showed,exp,45,15,True,10,0,-,0.3671996000339277,right,-
PB031M18,24,SQUARES,First_showed,exp,45,15,True,10,1,7,0.33351919997949153,right,-
PB031M18,25,SQUARES,First_showed,exp,45,15,True,9,0,-,0.11719469999661669,left,-
PB031M18,26,SQUARES,First_showed,exp,45,15,True,9,0,-,0.01722819998394698,right,-
PB031M18,27,SQUARES,First_showed,exp,45,15,True,8,0,-,0.11684679996687919,left,-
PB031M18,28,SQUARES,First_showed,exp,45,15,True,8,0,-,0.0005605999613180757,left,-
PB031M18,29,SQUARES,First_showed,exp,45,15,True,7,0,-,0.05054359999485314,right,-
PB031M18,30,SQUARES,First_showed,exp,45,15,True,7,0,-,0.0006215000175870955,right,-
PB031M18,31,SQUARES,First_showed,exp,45,15,True,6,0,-,0.0172694000066258,right,-
PB031M18,32,SQUARES,First_showed,exp,45,15,True,6,0,-,0.3504302999936044,right,-
PB031M18,33,SQUARES,First_showed,exp,45,15,False,5,1,8,0.11695150000741705,left,-
PB031M18,34,SQUARES,First_showed,exp,45,15,True,6,0,-,0.03392440004972741,right,-
PB031M18,35,SQUARES,First_showed,exp,45,15,True,6,1,9,0.000699699972756207,right,-
PB031M18,36,SQUARES,First_showed,exp,45,15,False,5,1,10,0.050739699974656105,left,-
PB031M18,1,CIRCLES,First_hidden,training,45,15,True,8,-,-,0.3672144000302069,right,-
PB031M18,2,CIRCLES,First_hidden,training,45,15,True,8,-,-,0.317187600012403,right,-
PB031M18,3,CIRCLES,First_hidden,training,45,15,True,8,-,-,0.2505421999958344,left,-
PB031M18,4,CIRCLES,First_hidden,training,45,15,True,8,-,-,0.16725030000088736,left,-
PB031M18,5,CIRCLES,First_hidden,training,45,15,True,8,-,-,0.2508452000329271,right,-
PB031M18,6,CIRCLES,First_hidden,training,45,15,True,8,-,-,0.3505742999841459,right,-
PB031M18,7,CIRCLES,First_hidden,training,45,15,True,8,-,-,0.35064540000166744,right,-
PB031M18,8,CIRCLES,First_hidden,training,45,15,True,8,-,-,0.15102940000360832,right,-
PB031M18,9,CIRCLES,First_hidden,training,45,15,True,8,-,-,0.13375079998513684,left,-
PB031M18,10,CIRCLES,First_hidden,training,45,15,True,8,-,-,0.16711019998183474,left,-
PB031M18,11,CIRCLES,First_hidden,training,45,15,True,3,-,-,0.5172872000257485,right,-
PB031M18,12,CIRCLES,First_hidden,training,45,15,True,3,-,-,0.21733750001294538,left,-
PB031M18,13,CIRCLES,First_hidden,training,45,15,True,3,-,-,0.2339708999497816,left,-
PB031M18,14,CIRCLES,First_hidden,training,45,15,True,3,-,-,0.33385589998215437,right,-
PB031M18,15,CIRCLES,First_hidden,training,45,15,True,3,-,-,0.16724550002254546,left,-
PB031M18,16,CIRCLES,First_hidden,training,45,15,True,3,-,-,0.2506048000068404,left,-
PB031M18,17,CIRCLES,First_hidden,training,45,15,False,3,-,-,0.3505404999596067,right,-
PB031M18,18,CIRCLES,First_hidden,training,45,15,True,3,-,-,0.2004694999777712,left,-
PB031M18,19,CIRCLES,First_hidden,training,45,15,True,3,-,-,0.5338026999961585,right,-
PB031M18,20,CIRCLES,First_hidden,training,45,15,True,3,-,-,0.20098659995710477,left,-
PB031M18,1,CIRCLES,First_hidden,exp,45,15,True,3,0,0,0.38413199997739866,right,-
PB031M18,2,CIRCLES,First_hidden,exp,45,15,True,3,0,-,0.35055620002094656,right,-
PB031M18,3,CIRCLES,First_hidden,exp,45,15,True,2,0,-,0.23401269997702911,left,-
PB031M18,4,CIRCLES,First_hidden,exp,45,15,True,2,0,-,0.233815899991896,left,-
PB031M18,5,CIRCLES,First_hidden,exp,45,15,True,1,0,-,0.30023829999845475,right,-
PB031M18,6,CIRCLES,First_hidden,exp,45,15,True,1,0,-,0.08417310001095757,left,-
PB031M18,7,CIRCLES,First_hidden,exp,45,15,True,0,0,-,0.25053949997527525,left,-
PB031M18,8,CIRCLES,First_hidden,exp,45,15,True,0,0,-,0.31733980000717565,left,-
PB031M18,9,CIRCLES,First_hidden,exp,45,15,True,-1,0,-,0.06725209997966886,left,-
PB031M18,10,CIRCLES,First_hidden,exp,45,15,False,-1,1,1,0.23402610002085567,right,-
PB031M18,11,CIRCLES,First_hidden,exp,45,15,True,0,0,-,0.7007524999789894,left,-
PB031M18,12,CIRCLES,First_hidden,exp,45,15,True,0,1,2,0.03400739998323843,left,-
PB031M18,13,CIRCLES,First_hidden,exp,45,15,False,-1,1,3,0.10057169996434823,right,-
PB031M18,14,CIRCLES,First_hidden,exp,45,15,True,0,0,-,0.08400370000163093,left,-
PB031M18,15,CIRCLES,First_hidden,exp,45,15,True,0,1,4,0.033668900025077164,right,-
PB031M18,16,CIRCLES,First_hidden,exp,45,15,True,-1,0,-,0.0839401000412181,left,-
PB031M18,17,CIRCLES,First_hidden,exp,45,15,True,-1,0,-,0.23396710003726184,left,-
PB031M18,18,CIRCLES,First_hidden,exp,45,15,False,-2,1,5,0.2670981999835931,right,-
PB031M18,19,CIRCLES,First_hidden,exp,45,15,True,-1,0,-,0.2838558999937959,left,-
PB031M18,20,CIRCLES,First_hidden,exp,45,15,False,-1,0,-,0.6174520999775268,right,-
PB031M18,21,CIRCLES,First_hidden,exp,45,15,False,0,0,-,0.3168821000144817,right,-
PB031M18,22,CIRCLES,First_hidden,exp,45,15,True,1,0,-,0.4002029999974184,left,-
PB031M18,23,CIRCLES,First_hidden,exp,45,15,True,1,1,6,0.3507583999889903,left,-
PB031M18,24,CIRCLES,First_hidden,exp,45,15,True,0,0,-,0.4006846999982372,left,-
PB031M18,25,CIRCLES,First_hidden,exp,45,15,False,0,1,7,0.25070139998570085,right,-
PB031M18,26,CIRCLES,First_hidden,exp,45,15,False,1,0,-,0.017305499990470707,left,-
PB031M18,27,CIRCLES,First_hidden,exp,45,15,False,2,0,-,0.33405990002211183,left,-
PB031M18,28,CIRCLES,First_hidden,exp,45,15,True,3,0,-,0.30058009998174384,left,-
PB031M18,29,CIRCLES,First_hidden,exp,45,15,False,3,0,-,0.3004708999651484,right,-
PB031M18,30,CIRCLES,First_hidden,exp,45,15,True,4,0,-,0.03392319998238236,left,-
PB031M18,31,CIRCLES,First_hidden,exp,45,15,True,4,1,8,0.25060780002968386,left,-
PB031M18,32,CIRCLES,First_hidden,exp,45,15,False,3,1,9,0.30048530001658946,right,-
PB031M18,33,CIRCLES,First_hidden,exp,45,15,True,4,0,-,0.4672011000220664,left,-
PB031M18,34,CIRCLES,First_hidden,exp,45,15,True,4,1,10,0.23397949995705858,left,-
