PART_ID,Trial_no,Trial_type,CSI,Stim_letter,Key_pressed,letter_choose,Rt,Corr,Stimulus Time,nDropped
JJ-K-32K32S1,1,training,120,←,no_key,no_letter,-1.0,False,60,1
JJ-K-32K32S1,2,training,120,↓,right,→,0.8059261001180857,False,60,0
JJ-K-32K32S1,3,training,120,↑,up,↑,1.1003106001298875,True,60,0
JJ-K-32K32S1,4,training,120,↓,down,↓,0.7350564999505877,True,60,0
JJ-K-32K32S1,5,training,120,→,left,←,0.9206660999916494,False,60,0
JJ-K-32K32S1,6,training,120,→,no_key,no_letter,-1.0,False,60,0
JJ-K-32K32S1,7,training,120,←,left,←,0.47011390002444386,True,60,0
JJ-K-32K32S1,8,training,120,→,right,→,0.5341513999737799,True,60,0
JJ-K-32K32S1,9,training,120,↑,up,↑,0.6952366000041366,True,60,0
JJ-K-32K32S1,10,training,120,←,down,↓,0.9303960998076946,False,60,0
JJ-K-32K32S1,11,training,120,↑,up,↑,0.8122950000688434,True,60,0
JJ-K-32K32S1,12,training,120,→,left,←,0.608962900005281,False,60,0
JJ-K-32K32S1,13,training,120,↑,up,↑,1.2734041002113372,True,60,0
JJ-K-32K32S1,14,training,120,↑,no_key,no_letter,-1.0,False,60,0
JJ-K-32K32S1,15,training,120,↑,up,↑,0.5091315000317991,True,60,0
JJ-K-32K32S1,16,training,120,↓,down,↓,0.7678316999226809,True,60,0
JJ-K-32K32S1,17,training,120,←,left,←,0.6337228999473155,True,60,0
JJ-K-32K32S1,18,training,120,↓,down,↓,0.7096198000945151,True,60,0
JJ-K-32K32S1,19,training,120,→,right,→,0.7520076998043805,True,60,0
JJ-K-32K32S1,20,training,120,↓,down,↓,0.6426381999626756,True,60,0
JJ-K-32K32S1,21,no_adaptation,120,→,right,→,1.543333100154996,True,36,0
JJ-K-32K32S1,22,no_adaptation,120,↓,down,↓,1.4965902999974787,True,36,0
JJ-K-32K32S1,23,no_adaptation,120,→,right,→,0.8195799000095576,True,36,0
JJ-K-32K32S1,24,no_adaptation,120,↓,down,↓,0.8816128999460489,True,36,0
JJ-K-32K32S1,25,no_adaptation,120,↓,down,↓,0.6296210999134928,True,36,0
JJ-K-32K32S1,26,no_adaptation,120,←,right,→,0.5952091000508517,False,36,0
JJ-K-32K32S1,27,no_adaptation,120,↑,up,↑,0.7944235999602824,True,36,0
JJ-K-32K32S1,28,no_adaptation,120,↓,down,↓,0.5694685999769717,True,36,0
JJ-K-32K32S1,29,no_adaptation,120,→,right,→,0.617657900089398,True,36,0
JJ-K-32K32S1,30,no_adaptation,120,→,right,→,0.6719926001969725,True,36,0
JJ-K-32K32S1,31,no_adaptation,120,←,left,←,0.7800873999949545,True,36,0
JJ-K-32K32S1,32,no_adaptation,120,↑,up,↑,0.6679754999931902,True,36,0
JJ-K-32K32S1,33,no_adaptation,120,↓,no_key,no_letter,-1.0,False,36,0
JJ-K-32K32S1,34,no_adaptation,120,→,left,←,0.7041720000561327,False,36,0
JJ-K-32K32S1,35,no_adaptation,120,↓,down,↓,0.8349407000932842,True,36,0
JJ-K-32K32S1,36,no_adaptation,120,→,right,→,0.5764994001947343,True,36,0
JJ-K-32K32S1,37,no_adaptation,120,↑,up,↑,0.8243122000712901,True,36,0
JJ-K-32K32S1,38,no_adaptation,120,↑,up,↑,0.5504105999134481,True,36,0
JJ-K-32K32S1,39,no_adaptation,120,→,right,→,0.8233114001341164,True,36,0
JJ-K-32K32S1,40,no_adaptation,120,↑,up,↑,0.7255168000701815,True,36,0
JJ-K-32K32S1,41,training,95,→,right,→,0.7258652001619339,True,36,0
JJ-K-32K32S1,42,training,81,↓,down,↓,0.7894951000344008,True,36,1
JJ-K-32K32S1,43,experiment,58,→,right,→,0.7540493998676538,True,36,1
JJ-K-32K32S1,44,experiment,75,↑,up,↑,0.6025789000559598,True,36,1
JJ-K-32K32S1,45,experiment,66,←,left,←,0.6042520001064986,True,36,1
JJ-K-32K32S1,46,experiment,97,←,left,←,0.5396370999515057,True,36,1
JJ-K-32K32S1,47,experiment,72,↑,up,↑,0.6375579999294132,True,36,1
JJ-K-32K32S1,48,experiment,101,←,left,←,0.45124930003657937,True,36,1
JJ-K-32K32S1,49,experiment,71,←,left,←,0.5278737000189722,True,36,0
JJ-K-32K32S1,50,experiment,64,↑,up,↑,0.6048579998314381,True,36,1
JJ-K-32K32S1,51,experiment,49,↑,up,↑,0.43453180021606386,True,36,1
JJ-K-32K32S1,52,experiment,88,↑,no_key,no_letter,-1.0,False,36,0
JJ-K-32K32S1,53,experiment,76,↑,up,↑,0.5487466000486165,True,36,1
JJ-K-32K32S1,54,experiment,65,→,right,→,0.4885211999062449,True,36,1
JJ-K-32K32S1,55,experiment,102,↓,down,↓,0.6988296001218259,True,36,1
JJ-K-32K32S1,56,experiment,48,→,right,→,0.6466121000703424,True,36,1
JJ-K-32K32S1,57,experiment,59,←,left,←,0.7525269000325352,True,36,1
JJ-K-32K32S1,58,experiment,107,↑,up,↑,0.558653999818489,True,36,1
JJ-K-32K32S1,59,experiment,106,←,left,←,0.6928133999463171,True,36,1
JJ-K-32K32S1,60,experiment,96,↑,up,↑,0.5446261998731643,True,36,1
JJ-K-32K32S1,61,experiment,86,←,left,←,0.5262439998332411,True,36,1
JJ-K-32K32S1,62,experiment,85,↑,up,↑,0.5884870998561382,True,36,1
JJ-K-32K32S1,63,experiment,108,↑,up,↑,0.5205647998955101,True,36,1
JJ-K-32K32S1,64,experiment,84,↑,up,↑,0.5274965001735836,True,36,1
JJ-K-32K32S1,65,experiment,103,→,right,→,0.799547899980098,True,36,1
JJ-K-32K32S1,66,experiment,83,↑,up,↑,0.5874924000818282,True,36,1
JJ-K-32K32S1,67,experiment,79,→,left,←,0.7535230999346823,False,36,1
JJ-K-32K32S1,68,experiment,92,↑,up,↑,0.5079185001086444,True,36,1
JJ-K-32K32S1,69,experiment,69,↑,up,↑,0.4803162000607699,True,36,1
JJ-K-32K32S1,70,experiment,100,↑,up,↑,0.49148180009797215,True,36,1
JJ-K-32K32S1,71,experiment,56,←,left,←,0.501082600094378,True,36,1
JJ-K-32K32S1,72,experiment,74,→,right,→,0.7839259000029415,True,36,1
JJ-K-32K32S1,73,experiment,55,←,left,←,0.5500183999538422,True,36,1
JJ-K-32K32S1,74,experiment,52,↓,down,↓,0.934362200088799,True,36,1
JJ-K-32K32S1,75,experiment,104,→,no_key,no_letter,-1.0,False,36,1
JJ-K-32K32S1,76,experiment,68,↑,no_key,no_letter,-1.0,False,36,1
JJ-K-32K32S1,77,experiment,99,←,left,←,0.4882819000631571,True,36,1
JJ-K-32K32S1,78,experiment,73,←,left,←,0.5957641000859439,True,36,1
JJ-K-32K32S1,79,experiment,91,↑,up,↑,0.5253240000456572,True,36,1
JJ-K-32K32S1,80,experiment,93,←,left,←,0.5609722998924553,True,36,1
JJ-K-32K32S1,81,experiment,95,↑,up,↑,0.5866571001242846,True,36,1
JJ-K-32K32S1,82,experiment,82,→,right,→,0.6473754001781344,True,36,1
JJ-K-32K32S1,83,experiment,62,↓,down,↓,0.7444074000231922,True,36,1
JJ-K-32K32S1,84,experiment,67,↓,down,↓,0.6522092001978308,True,36,1
JJ-K-32K32S1,85,experiment,77,←,left,←,0.5283451001159847,True,36,1
JJ-K-32K32S1,86,experiment,80,↓,down,↓,0.6798819000832736,True,36,1
JJ-K-32K32S1,87,experiment,60,↑,up,↑,0.6083231999073178,True,36,1
JJ-K-32K32S1,88,experiment,51,←,left,←,0.5348514001816511,True,36,1
JJ-K-32K32S1,89,experiment,70,↓,down,↓,0.7138886000029743,True,36,1
JJ-K-32K32S1,90,experiment,53,↓,down,↓,0.6993883000686765,True,36,1
JJ-K-32K32S1,91,experiment,54,↓,down,↓,0.5170539000537246,True,36,1
JJ-K-32K32S1,92,experiment,98,←,left,←,0.4954508999362588,True,36,1
JJ-K-32K32S1,93,experiment,78,↓,down,↓,0.721173900179565,True,36,1
JJ-K-32K32S1,94,experiment,50,↓,down,↓,0.6675545999314636,True,36,1
JJ-K-32K32S1,95,experiment,63,←,left,←,0.5636763998772949,True,36,1
JJ-K-32K32S1,96,experiment,87,←,left,←,0.4509705000091344,True,36,1
JJ-K-32K32S1,97,experiment,105,↓,down,↓,0.5941268999595195,True,36,0
JJ-K-32K32S1,98,experiment,89,←,left,←,0.5160741999279708,True,36,1
JJ-K-32K32S1,99,experiment,57,↓,down,↓,0.7082581999711692,True,36,1
JJ-K-32K32S1,100,experiment,81,→,left,←,1.092453399905935,False,36,1
JJ-K-32K32S1,101,experiment,94,→,right,→,0.7053563999943435,True,36,1
JJ-K-32K32S1,102,experiment,61,←,left,←,0.6401831000111997,True,36,1
JJ-K-32K32S1,103,experiment,90,←,left,←,0.6242144000716507,True,36,1
JJ-K-32K32S1,104,training,69,↓,left,←,0.5008402999956161,False,35,0
JJ-K-32K32S1,105,training,104,→,right,→,0.5741115999408066,True,35,1
JJ-K-32K32S1,106,experiment,100,↑,up,↑,0.6613962000701576,True,35,1
JJ-K-32K32S1,107,experiment,48,→,right,→,0.6342734999489039,True,35,1
JJ-K-32K32S1,108,experiment,52,→,left,←,0.40107930009253323,False,35,1
JJ-K-32K32S1,109,experiment,74,→,no_key,no_letter,-1.0,False,35,0
JJ-K-32K32S1,110,experiment,105,↓,down,↓,0.7001847000792623,True,35,1
JJ-K-32K32S1,111,experiment,82,↓,down,↓,0.6442790001165122,True,35,1
JJ-K-32K32S1,112,experiment,72,←,left,←,0.7221571998670697,True,35,1
JJ-K-32K32S1,113,experiment,79,↓,down,↓,0.6184288000222296,True,35,1
JJ-K-32K32S1,114,experiment,65,→,right,→,0.6677095999475569,True,35,1
JJ-K-32K32S1,115,experiment,71,↑,up,↑,0.6413859999738634,True,35,1
JJ-K-32K32S1,116,experiment,58,→,right,→,0.7880220001097769,True,35,1
JJ-K-32K32S1,117,experiment,69,←,left,←,0.6690457998774946,True,35,1
JJ-K-32K32S1,118,experiment,60,↑,up,↑,0.7101429998874664,True,35,1
JJ-K-32K32S1,119,experiment,62,↓,down,↓,0.5565649999771267,True,35,1
JJ-K-32K32S1,120,experiment,70,←,left,←,0.5506519998889416,True,35,1
JJ-K-32K32S1,121,experiment,51,→,no_key,no_letter,-1.0,False,35,1
JJ-K-32K32S1,122,experiment,80,→,right,→,0.9100169001612812,True,35,1
JJ-K-32K32S1,123,experiment,94,↓,down,↓,0.6899406998418272,True,35,1
JJ-K-32K32S1,124,experiment,61,→,right,→,0.5936628999188542,True,35,1
JJ-K-32K32S1,125,experiment,64,↓,down,↓,0.5641091999132186,True,35,1
JJ-K-32K32S1,126,experiment,67,→,right,→,0.5106380998622626,True,35,1
JJ-K-32K32S1,127,experiment,84,↑,up,↑,0.7182251999620348,True,35,1
JJ-K-32K32S1,128,experiment,78,↓,down,↓,0.7352050999179482,True,35,1
JJ-K-32K32S1,129,experiment,103,→,right,→,0.47942329989746213,True,35,1
JJ-K-32K32S1,130,experiment,66,↓,down,↓,0.6857134001329541,True,35,1
JJ-K-32K32S1,131,experiment,77,←,right,→,0.49595999997109175,False,35,1
JJ-K-32K32S1,132,experiment,104,←,left,←,0.6653228001669049,True,35,1
JJ-K-32K32S1,133,experiment,56,→,right,→,0.691591199953109,True,35,1
JJ-K-32K32S1,134,experiment,93,↑,up,↑,0.6889092999044806,True,35,1
JJ-K-32K32S1,135,experiment,87,↓,down,↓,0.6319122000131756,True,35,1
JJ-K-32K32S1,136,experiment,59,↓,down,↓,0.6425806998740882,True,35,1
JJ-K-32K32S1,137,experiment,76,→,right,→,0.6632623998448253,True,35,1
JJ-K-32K32S1,138,experiment,63,↓,down,↓,0.6873132998589426,True,35,1
JJ-K-32K32S1,139,experiment,86,←,left,←,0.6789017000701278,True,35,1
JJ-K-32K32S1,140,experiment,49,↓,down,↓,0.6827939997892827,True,35,1
JJ-K-32K32S1,141,experiment,50,↓,down,↓,0.5105425000656396,True,35,1
JJ-K-32K32S1,142,experiment,89,↓,down,↓,0.636348000029102,True,35,1
JJ-K-32K32S1,143,experiment,92,↓,down,↓,0.6276207999326289,True,35,1
JJ-K-32K32S1,144,experiment,75,↑,up,↑,0.6975183000322431,True,35,1
JJ-K-32K32S1,145,experiment,106,↓,down,↓,0.4663137998431921,True,35,1
JJ-K-32K32S1,146,experiment,55,←,left,←,0.5483008997980505,True,35,1
JJ-K-32K32S1,147,experiment,83,↑,up,↑,0.642089799977839,True,35,1
JJ-K-32K32S1,148,experiment,98,↓,down,↓,0.44283449999056756,True,35,1
JJ-K-32K32S1,149,experiment,96,↑,up,↑,0.5332916001789272,True,35,1
JJ-K-32K32S1,150,experiment,57,←,left,←,0.5728553000371903,True,35,1
JJ-K-32K32S1,151,experiment,101,↓,down,↓,0.5877475999295712,True,35,1
JJ-K-32K32S1,152,experiment,53,←,left,←,0.5942324998322874,True,35,1
JJ-K-32K32S1,153,experiment,107,→,right,→,0.7586405000183731,True,35,1
JJ-K-32K32S1,154,experiment,102,↑,up,↑,0.5738947000354528,True,35,1
JJ-K-32K32S1,155,experiment,91,→,right,→,0.7523808998521417,True,35,1
JJ-K-32K32S1,156,experiment,108,←,left,←,0.6223413001280278,True,35,1
JJ-K-32K32S1,157,experiment,90,→,right,→,0.590569700114429,True,35,1
JJ-K-32K32S1,158,experiment,81,↓,down,↓,0.6197571000084281,True,35,1
JJ-K-32K32S1,159,experiment,95,→,right,→,0.6911823998671025,True,35,1
JJ-K-32K32S1,160,experiment,54,→,right,→,0.613298999844119,True,35,1
JJ-K-32K32S1,161,experiment,88,→,left,←,0.7349115998949856,False,35,1
JJ-K-32K32S1,162,experiment,68,→,right,→,0.802877000067383,True,35,1
JJ-K-32K32S1,163,experiment,99,←,left,←,0.5451844001654536,True,35,1
JJ-K-32K32S1,164,experiment,85,↑,up,↑,0.6229387000203133,True,35,1
JJ-K-32K32S1,165,experiment,73,←,left,←,0.5011029001325369,True,35,1
JJ-K-32K32S1,166,experiment,97,→,right,→,0.4651451997924596,True,35,1
JJ-K-32K32S1,167,training,62,←,left,←,0.521051499992609,True,34,0
JJ-K-32K32S1,168,training,98,→,right,→,0.46710030012764037,True,34,1
JJ-K-32K32S1,169,experiment,94,→,right,→,0.48893680004402995,True,34,1
JJ-K-32K32S1,170,experiment,107,↑,up,↑,0.5850998000241816,True,34,1
JJ-K-32K32S1,171,experiment,68,↑,up,↑,0.7071034000255167,True,34,1
JJ-K-32K32S1,172,experiment,54,←,left,←,0.540414199931547,True,34,1
JJ-K-32K32S1,173,experiment,83,↑,up,↑,0.5706058000214398,True,34,1
JJ-K-32K32S1,174,experiment,91,←,left,←,0.6290182999800891,True,34,1
JJ-K-32K32S1,175,experiment,67,→,right,→,0.5172402998432517,True,34,1
JJ-K-32K32S1,176,experiment,55,←,left,←,0.5022185000125319,True,34,1
JJ-K-32K32S1,177,experiment,75,↑,up,↑,0.5286518998909742,True,34,1
JJ-K-32K32S1,178,experiment,97,↓,down,↓,0.562707900069654,True,34,1
JJ-K-32K32S1,179,experiment,56,↑,up,↑,0.6330950998235494,True,34,1
JJ-K-32K32S1,180,experiment,61,←,left,←,0.5071701998822391,True,34,1
JJ-K-32K32S1,181,experiment,99,↓,down,↓,0.7015903999563307,True,34,1
JJ-K-32K32S1,182,experiment,65,←,left,←,0.6756206001155078,True,34,1
JJ-K-32K32S1,183,experiment,49,→,right,→,0.7041565999388695,True,34,1
JJ-K-32K32S1,184,experiment,81,↑,up,↑,0.5446128000039607,True,34,1
JJ-K-32K32S1,185,experiment,73,↑,up,↑,0.5621908998582512,True,34,1
JJ-K-32K32S1,186,experiment,74,→,right,→,0.5227458998560905,True,34,1
JJ-K-32K32S1,187,experiment,95,↑,up,↑,0.557558000087738,True,34,1
JJ-K-32K32S1,188,experiment,53,↑,up,↑,0.5174318000208586,True,34,1
JJ-K-32K32S1,189,experiment,82,←,left,←,0.613026199862361,True,34,1
JJ-K-32K32S1,190,experiment,102,↓,down,↓,0.6661119998898357,True,34,1
JJ-K-32K32S1,191,experiment,85,←,right,→,0.5310587000567466,False,34,1
JJ-K-32K32S1,192,experiment,104,↓,down,↓,0.5624833998735994,True,34,1
JJ-K-32K32S1,193,experiment,60,↓,down,↓,0.471919700037688,True,34,1
JJ-K-32K32S1,194,experiment,50,←,left,←,0.5883257000241429,True,34,1
JJ-K-32K32S1,195,experiment,80,←,left,←,0.6899462000001222,True,34,1
JJ-K-32K32S1,196,experiment,77,↓,down,↓,1.2681439998559654,True,34,1
JJ-K-32K32S1,197,experiment,57,←,left,←,0.6062195999547839,True,34,1
JJ-K-32K32S1,198,experiment,79,←,left,←,0.4911819000262767,True,34,1
JJ-K-32K32S1,199,experiment,84,→,right,→,0.7873372999019921,True,34,1
JJ-K-32K32S1,200,experiment,92,→,left,←,0.6766336001455784,False,34,1
JJ-K-32K32S1,201,experiment,76,↑,up,↑,0.6000284999608994,True,34,1
JJ-K-32K32S1,202,experiment,87,↓,down,↓,0.5387386998627335,True,34,1
JJ-K-32K32S1,203,experiment,48,↓,down,↓,0.6768528001848608,True,34,1
JJ-K-32K32S1,204,experiment,78,↑,up,↑,0.5194772998802364,True,34,1
JJ-K-32K32S1,205,experiment,59,←,left,←,1.2309783000964671,True,34,1
JJ-K-32K32S1,206,experiment,86,←,left,←,0.48865930014289916,True,34,1
JJ-K-32K32S1,207,experiment,58,↑,up,↑,0.5933961998671293,True,34,1
JJ-K-32K32S1,208,experiment,101,→,right,→,0.6479493998922408,True,34,1
JJ-K-32K32S1,209,experiment,64,↓,down,↓,0.6321660000830889,True,34,1
JJ-K-32K32S1,210,experiment,62,←,left,←,0.7458347000647336,True,34,1
JJ-K-32K32S1,211,experiment,93,←,left,←,0.6288362999912351,True,34,1
JJ-K-32K32S1,212,experiment,69,↑,up,↑,0.6842606000136584,True,34,1
JJ-K-32K32S1,213,experiment,66,→,right,→,0.5307499999180436,True,34,1
JJ-K-32K32S1,214,experiment,106,←,left,←,0.4896477998699993,True,34,1
JJ-K-32K32S1,215,experiment,105,→,left,←,0.8107115000020713,False,34,1
JJ-K-32K32S1,216,experiment,71,→,right,→,0.5785141999367625,True,34,1
JJ-K-32K32S1,217,experiment,72,→,right,→,1.4033009000122547,True,34,1
JJ-K-32K32S1,218,experiment,70,↑,up,↑,0.6911247000098228,True,34,1
JJ-K-32K32S1,219,experiment,100,←,right,→,0.7337594998534769,False,34,1
JJ-K-32K32S1,220,experiment,51,→,right,→,0.74331139982678,True,34,1
JJ-K-32K32S1,221,experiment,52,↑,up,↑,0.5759493000805378,True,34,1
JJ-K-32K32S1,222,experiment,108,→,right,→,0.5328957000747323,True,34,1
JJ-K-32K32S1,223,experiment,88,↑,down,↓,0.9696202001068741,False,34,1
JJ-K-32K32S1,224,experiment,90,↑,up,↑,0.820391200017184,True,34,1
JJ-K-32K32S1,225,experiment,63,←,left,←,0.5982505001593381,True,34,1
JJ-K-32K32S1,226,experiment,98,←,right,→,0.5252068000845611,False,34,1
JJ-K-32K32S1,227,experiment,89,↓,down,↓,0.6821890999563038,True,34,1
JJ-K-32K32S1,228,experiment,96,↓,down,↓,0.7025079000741243,True,34,1
JJ-K-32K32S1,229,experiment,103,←,left,←,0.7600246998481452,True,34,1
JJ-K-32K32S1,230,training,103,↓,down,↓,0.5383080001920462,True,33,0
JJ-K-32K32S1,231,training,96,→,right,→,0.6283479002304375,True,33,1
JJ-K-32K32S1,232,experiment,73,→,right,→,0.5788299001287669,True,33,1
JJ-K-32K32S1,233,experiment,94,↑,up,↑,1.0199011000804603,True,33,1
JJ-K-32K32S1,234,experiment,85,↓,down,↓,0.6302803999278694,True,33,1
JJ-K-32K32S1,235,experiment,49,←,right,→,0.7644708999432623,False,33,1
JJ-K-32K32S1,236,experiment,58,↓,down,↓,0.5703043998219073,True,33,1
JJ-K-32K32S1,237,experiment,75,←,left,←,0.6100842000450939,True,33,1
JJ-K-32K32S1,238,experiment,67,↑,up,↑,0.5791768000926822,True,33,1
JJ-K-32K32S1,239,experiment,86,↓,down,↓,0.510679799830541,True,33,1
JJ-K-32K32S1,240,experiment,87,↑,up,↑,0.5412314999848604,True,33,1
JJ-K-32K32S1,241,experiment,55,→,right,→,0.5089098000898957,True,33,1
JJ-K-32K32S1,242,experiment,82,↑,up,↑,0.5730653000064194,True,33,1
JJ-K-32K32S1,243,experiment,76,→,left,←,0.580346800154075,False,33,1
JJ-K-32K32S1,244,experiment,89,←,right,→,0.6471772000659257,False,33,1
JJ-K-32K32S1,245,experiment,104,↑,up,↑,0.5302419001236558,True,33,1
JJ-K-32K32S1,246,experiment,79,←,left,←,0.5942707001231611,True,33,1
JJ-K-32K32S1,247,experiment,63,←,left,←,0.6291507999412715,True,33,1
JJ-K-32K32S1,248,experiment,77,↑,up,↑,0.5941121000796556,True,33,1
JJ-K-32K32S1,249,experiment,92,↑,up,↑,0.52336460002698,True,33,1
JJ-K-32K32S1,250,experiment,78,↓,down,↓,0.6360071999952197,True,33,1
JJ-K-32K32S1,251,experiment,90,↑,up,↑,0.6362437000498176,True,33,1
JJ-K-32K32S1,252,experiment,71,↓,down,↓,0.6270169999916106,True,33,1
JJ-K-32K32S1,253,experiment,102,→,no_key,no_letter,-1.0,False,33,1
JJ-K-32K32S1,254,experiment,105,←,left,←,0.6143217999488115,True,33,1
JJ-K-32K32S1,255,experiment,81,→,right,→,0.5865275000687689,True,33,1
JJ-K-32K32S1,256,experiment,62,→,left,←,0.40936810011044145,False,33,1
JJ-K-32K32S1,257,experiment,64,↑,up,↑,0.5440569999627769,True,33,1
JJ-K-32K32S1,258,experiment,69,↓,down,↓,0.4011119999922812,True,33,1
JJ-K-32K32S1,259,experiment,88,↓,down,↓,0.5970763000659645,True,33,0
JJ-K-32K32S1,260,experiment,52,→,right,→,0.7235357000026852,True,33,1
JJ-K-32K32S1,261,experiment,99,→,left,←,0.47716020001098514,False,33,1
JJ-K-32K32S1,262,experiment,106,←,left,←,0.782749299891293,True,33,1
JJ-K-32K32S1,263,experiment,108,←,left,←,0.547052500071004,True,33,1
JJ-K-32K32S1,264,experiment,98,←,right,→,0.492012299830094,False,33,1
JJ-K-32K32S1,265,experiment,74,↓,down,↓,0.6794753998983651,True,33,1
JJ-K-32K32S1,266,experiment,93,↑,up,↑,0.5886015999130905,True,33,1
JJ-K-32K32S1,267,experiment,95,←,left,←,0.5171918000560254,True,33,1
JJ-K-32K32S1,268,experiment,96,←,left,←,0.520207199966535,True,33,1
JJ-K-32K32S1,269,experiment,101,↑,up,↑,0.6012059000786394,True,33,1
JJ-K-32K32S1,270,experiment,84,↓,down,↓,0.8212922001257539,True,33,1
JJ-K-32K32S1,271,experiment,66,↑,up,↑,0.6537645999342203,True,33,1
JJ-K-32K32S1,272,experiment,65,↓,down,↓,0.5903167000506073,True,33,1
JJ-K-32K32S1,273,experiment,97,↑,up,↑,1.6290675001218915,True,33,1
JJ-K-32K32S1,274,experiment,53,→,right,→,0.7856781999580562,True,33,1
JJ-K-32K32S1,275,experiment,80,←,left,←,0.4177629998885095,True,33,1
JJ-K-32K32S1,276,experiment,72,←,left,←,0.6858145999722183,True,33,0
JJ-K-32K32S1,277,experiment,48,↓,down,↓,0.7702238999772817,True,33,1
JJ-K-32K32S1,278,experiment,70,←,left,←,0.5720811998471618,True,33,1
JJ-K-32K32S1,279,experiment,103,↓,down,↓,0.5863123999442905,True,33,1
JJ-K-32K32S1,280,experiment,107,↑,up,↑,0.5829667001962662,True,33,1
JJ-K-32K32S1,281,experiment,100,↑,up,↑,0.614126899978146,True,33,1
JJ-K-32K32S1,282,experiment,56,→,right,→,0.6824271001387388,True,33,1
JJ-K-32K32S1,283,experiment,60,→,right,→,0.6267099000979215,True,33,1
JJ-K-32K32S1,284,experiment,50,↓,down,↓,0.6246746999677271,True,33,1
JJ-K-32K32S1,285,experiment,57,←,left,←,0.5726451999507844,True,33,1
JJ-K-32K32S1,286,experiment,83,↑,up,↑,0.6735232002101839,True,33,1
JJ-K-32K32S1,287,experiment,54,←,left,←,0.5802876001689583,True,33,1
JJ-K-32K32S1,288,experiment,68,↓,down,↓,0.6619061001110822,True,33,1
JJ-K-32K32S1,289,experiment,51,→,right,→,0.5384802999906242,True,33,1
JJ-K-32K32S1,290,experiment,61,↑,up,↑,0.8960339000914246,True,33,1
JJ-K-32K32S1,291,experiment,59,←,left,←,0.5681644999422133,True,33,1
JJ-K-32K32S1,292,experiment,91,↑,up,↑,0.546991900075227,True,33,1
JJ-K-32K32S1,293,training,65,←,left,←,0.6161509999074042,True,33,0
JJ-K-32K32S1,294,training,71,↑,up,↑,0.583511000033468,True,33,1
JJ-K-32K32S1,295,experiment,96,↓,down,↓,0.6077676999848336,True,33,1
JJ-K-32K32S1,296,experiment,77,↑,left,←,1.0457482000347227,False,33,1
JJ-K-32K32S1,297,experiment,97,→,right,→,0.5948642999865115,True,33,1
JJ-K-32K32S1,298,experiment,95,↑,up,↑,0.5631069999653846,True,33,1
JJ-K-32K32S1,299,experiment,66,↓,down,↓,0.582377600017935,True,33,1
JJ-K-32K32S1,300,experiment,106,→,right,→,0.555242600152269,True,33,1
JJ-K-32K32S1,301,experiment,58,→,right,→,0.5534405999351293,True,33,1
JJ-K-32K32S1,302,experiment,90,↓,down,↓,0.7168475999496877,True,33,1
JJ-K-32K32S1,303,experiment,65,↓,down,↓,0.5862529999576509,True,33,1
JJ-K-32K32S1,304,experiment,74,←,left,←,0.8019111999310553,True,33,1
JJ-K-32K32S1,305,experiment,108,↑,up,↑,0.6291370999533683,True,33,1
JJ-K-32K32S1,306,experiment,87,↑,up,↑,0.5669820001348853,True,33,1
JJ-K-32K32S1,307,experiment,48,→,right,→,0.5200022000353783,True,33,1
JJ-K-32K32S1,308,experiment,83,↓,down,↓,0.7114950001705438,True,33,1
JJ-K-32K32S1,309,experiment,104,←,right,→,0.5843287999741733,False,33,1
JJ-K-32K32S1,310,experiment,80,←,left,←,0.5902378000319004,True,33,1
JJ-K-32K32S1,311,experiment,72,↑,up,↑,0.5739740000572056,True,33,1
JJ-K-32K32S1,312,experiment,55,↑,up,↑,0.5882983000483364,True,33,1
JJ-K-32K32S1,313,experiment,84,←,left,←,0.5524063999764621,True,33,1
JJ-K-32K32S1,314,experiment,64,↓,down,↓,0.5245743000414222,True,33,1
JJ-K-32K32S1,315,experiment,88,↓,down,↓,0.47391739999875426,True,33,1
JJ-K-32K32S1,316,experiment,76,↓,down,↓,0.4462530999444425,True,33,1
JJ-K-32K32S1,317,experiment,54,↓,no_key,no_letter,-1.0,False,33,0
JJ-K-32K32S1,318,experiment,59,↑,down,↓,0.40095299994572997,False,33,1
JJ-K-32K32S1,319,experiment,61,↑,left,←,1.2341126999817789,False,33,0
JJ-K-32K32S1,320,experiment,68,←,left,←,0.6260037999600172,True,33,1
JJ-K-32K32S1,321,experiment,78,→,right,→,0.6067111999727786,True,33,1
JJ-K-32K32S1,322,experiment,100,↓,down,↓,0.6528463000431657,True,33,1
JJ-K-32K32S1,323,experiment,69,←,right,→,0.7711916998960078,False,33,1
JJ-K-32K32S1,324,experiment,53,←,left,←,0.6426684001926333,True,33,1
JJ-K-32K32S1,325,experiment,62,↓,down,↓,0.5319733999203891,True,33,1
JJ-K-32K32S1,326,experiment,91,→,right,→,0.5922638000920415,True,33,1
JJ-K-32K32S1,327,experiment,49,→,right,→,0.6798580999020487,True,33,1
JJ-K-32K32S1,328,experiment,67,↓,left,←,0.501963600050658,False,33,1
JJ-K-32K32S1,329,experiment,103,↑,up,↑,0.5508953998796642,True,33,1
JJ-K-32K32S1,330,experiment,86,→,right,→,0.5400132001377642,True,33,1
JJ-K-32K32S1,331,experiment,73,→,right,→,0.5979700998868793,True,33,1
JJ-K-32K32S1,332,experiment,82,←,left,←,0.6502322000451386,True,33,1
JJ-K-32K32S1,333,experiment,71,←,left,←,0.6641458000522107,True,33,1
JJ-K-32K32S1,334,experiment,57,↑,up,↑,0.5862719998694956,True,33,1
JJ-K-32K32S1,335,experiment,105,↓,down,↓,0.5832857000641525,True,33,1
JJ-K-32K32S1,336,experiment,60,↓,down,↓,0.8994164001196623,True,33,1
JJ-K-32K32S1,337,experiment,51,↓,down,↓,0.6144003998488188,True,33,1
JJ-K-32K32S1,338,experiment,98,↓,down,↓,0.5967894000932574,True,33,1
JJ-K-32K32S1,339,experiment,63,→,right,→,0.6155538000166416,True,33,1
JJ-K-32K32S1,340,experiment,50,→,right,→,0.5339689000975341,True,33,1
JJ-K-32K32S1,341,experiment,89,→,right,→,0.530696100089699,True,33,1
JJ-K-32K32S1,342,experiment,56,↓,down,↓,0.7223704000934958,True,33,1
JJ-K-32K32S1,343,experiment,93,↑,up,↑,0.646271999925375,True,33,1
JJ-K-32K32S1,344,experiment,70,↓,down,↓,0.588447299785912,True,33,1
JJ-K-32K32S1,345,experiment,92,←,left,←,0.7099967000540346,True,33,1
JJ-K-32K32S1,346,experiment,99,↑,up,↑,0.6564996999222785,True,33,1
JJ-K-32K32S1,347,experiment,107,→,right,→,0.6660009000916034,True,33,1
JJ-K-32K32S1,348,experiment,85,←,left,←,0.7544176999945194,True,33,1
JJ-K-32K32S1,349,experiment,75,↑,up,↑,0.5628697001375258,True,33,1
JJ-K-32K32S1,350,experiment,101,↓,down,↓,0.5783480000682175,True,33,1
JJ-K-32K32S1,351,experiment,81,→,right,→,0.5679707999806851,True,33,1
JJ-K-32K32S1,352,experiment,79,↓,down,↓,0.6309243999421597,True,33,1
JJ-K-32K32S1,353,experiment,102,←,left,←,0.515023399842903,True,33,1
JJ-K-32K32S1,354,experiment,52,←,left,←,0.6930617999751121,True,33,1
JJ-K-32K32S1,355,experiment,94,←,left,←,0.5456830998882651,True,33,1
JJ-K-32K32S1,356,training,104,↑,down,↓,1.0866859001107514,False,33,0
JJ-K-32K32S1,357,training,97,←,left,←,0.4746002000756562,True,33,1
JJ-K-32K32S1,358,experiment,99,↓,down,↓,0.5904625998809934,True,33,1
JJ-K-32K32S1,359,experiment,90,↑,up,↑,0.5846008001826704,True,33,1
JJ-K-32K32S1,360,experiment,98,↓,down,↓,0.5282224998809397,True,33,1
JJ-K-32K32S1,361,experiment,86,→,right,→,0.6301470000762492,True,33,1
JJ-K-32K32S1,362,experiment,61,↓,down,↓,0.5762905001174659,True,33,1
JJ-K-32K32S1,363,experiment,62,←,left,←,1.4602753999643028,True,33,1
JJ-K-32K32S1,364,experiment,87,←,right,→,0.5725175999104977,False,33,1
JJ-K-32K32S1,365,experiment,85,↓,down,↓,0.5928857999388129,True,33,1
JJ-K-32K32S1,366,experiment,91,←,left,←,0.5307510001584888,True,33,1
JJ-K-32K32S1,367,experiment,65,→,right,→,0.5836174001451582,True,33,1
JJ-K-32K32S1,368,experiment,73,←,left,←,0.48746369988657534,True,33,1
JJ-K-32K32S1,369,experiment,71,→,left,←,0.44476009998470545,False,33,1
JJ-K-32K32S1,370,experiment,92,↓,down,↓,0.634990300051868,True,33,0
JJ-K-32K32S1,371,experiment,101,←,left,←,0.7277758000418544,True,33,1
JJ-K-32K32S1,372,experiment,79,→,right,→,0.5599537000525743,True,33,1
JJ-K-32K32S1,373,experiment,83,←,left,←,0.5096626000013202,True,33,1
JJ-K-32K32S1,374,experiment,52,←,left,←,0.6960118999704719,True,33,1
JJ-K-32K32S1,375,experiment,75,↑,up,↑,0.5305834000464529,True,33,1
JJ-K-32K32S1,376,experiment,80,↑,up,↑,0.810253000119701,True,33,1
JJ-K-32K32S1,377,experiment,100,↓,down,↓,0.5839199000038207,True,33,1
JJ-K-32K32S1,378,experiment,59,→,right,→,0.5490793001372367,True,33,1
JJ-K-32K32S1,379,experiment,60,↑,up,↑,0.6265219999477267,True,33,1
JJ-K-32K32S1,380,experiment,67,←,left,←,0.627125000115484,True,33,1
JJ-K-32K32S1,381,experiment,82,↑,up,↑,0.5742832000833005,True,33,1
JJ-K-32K32S1,382,experiment,94,↓,down,↓,0.6395652999635786,True,33,1
JJ-K-32K32S1,383,experiment,102,→,right,→,0.6995214000344276,True,33,1
JJ-K-32K32S1,384,experiment,55,↑,up,↑,0.62913169991225,True,33,1
JJ-K-32K32S1,385,experiment,88,↓,down,↓,0.693993299966678,True,33,1
JJ-K-32K32S1,386,experiment,105,←,left,←,0.6467957999557257,True,33,1
JJ-K-32K32S1,387,experiment,76,→,right,→,0.635156000033021,True,33,1
JJ-K-32K32S1,388,experiment,66,↑,up,↑,0.5555924000218511,True,33,1
JJ-K-32K32S1,389,experiment,63,→,right,→,0.6718963999301195,True,33,1
JJ-K-32K32S1,390,experiment,64,↑,up,↑,0.543472999939695,True,33,1
JJ-K-32K32S1,391,experiment,72,↓,down,↓,0.585590299917385,True,33,1
JJ-K-32K32S1,392,experiment,74,↑,up,↑,0.8491198001429439,True,33,1
JJ-K-32K32S1,393,experiment,108,↓,down,↓,0.650777000002563,True,33,1
JJ-K-32K32S1,394,experiment,93,→,right,→,0.48213749984279275,True,33,1
JJ-K-32K32S1,395,experiment,77,↑,up,↑,0.7078609999734908,True,33,1
JJ-K-32K32S1,396,experiment,107,↑,up,↑,0.675549500156194,True,33,1
JJ-K-32K32S1,397,experiment,51,→,right,→,0.5673831000458449,True,33,1
JJ-K-32K32S1,398,experiment,68,←,left,←,0.6019524000585079,True,33,1
JJ-K-32K32S1,399,experiment,84,←,left,←,0.6695371998939663,True,33,1
JJ-K-32K32S1,400,experiment,70,→,right,→,0.47510759998112917,True,33,1
JJ-K-32K32S1,401,experiment,106,←,left,←,0.4928623999003321,True,33,1
JJ-K-32K32S1,402,experiment,104,←,right,→,0.44677539984695613,False,33,1
JJ-K-32K32S1,403,experiment,48,→,right,→,0.6276996999513358,True,33,1
JJ-K-32K32S1,404,experiment,78,↑,up,↑,0.5841615998651832,True,33,1
JJ-K-32K32S1,405,experiment,96,↓,down,↓,0.6964847999624908,True,33,1
JJ-K-32K32S1,406,experiment,89,↓,down,↓,0.5908711000811309,True,33,1
JJ-K-32K32S1,407,experiment,58,↑,up,↑,0.6277090997900814,True,33,1
JJ-K-32K32S1,408,experiment,50,←,left,←,0.6736697000451386,True,33,1
JJ-K-32K32S1,409,experiment,97,↑,up,↑,0.646035399986431,True,33,1
JJ-K-32K32S1,410,experiment,81,→,right,→,0.6410197999794036,True,33,1
JJ-K-32K32S1,411,experiment,69,←,right,→,0.5277582998387516,False,33,1
JJ-K-32K32S1,412,experiment,56,←,right,→,0.4719924000091851,False,33,1
JJ-K-32K32S1,413,experiment,53,↑,up,↑,0.5711493999697268,True,33,1
JJ-K-32K32S1,414,experiment,57,→,right,→,0.576773300068453,True,33,1
JJ-K-32K32S1,415,experiment,49,→,right,→,0.705345300026238,True,33,1
JJ-K-32K32S1,416,experiment,103,↑,up,↑,0.6662091000471264,True,33,1
JJ-K-32K32S1,417,experiment,95,←,left,←,0.5516823001671582,True,33,1
JJ-K-32K32S1,418,experiment,54,→,right,→,0.5754172999877483,True,33,1
JJ-K-32K32S1,419,training,102,↓,down,↓,0.5852255001664162,True,32,0
JJ-K-32K32S1,420,training,53,↓,down,↓,0.9039531999733299,True,32,1
JJ-K-32K32S1,421,experiment,57,↓,down,↓,0.8009015000425279,True,32,1
JJ-K-32K32S1,422,experiment,90,→,right,→,0.6182947000488639,True,32,1
JJ-K-32K32S1,423,experiment,58,↑,up,↑,0.5580267999321222,True,32,1
JJ-K-32K32S1,424,experiment,106,→,left,←,0.4601219000760466,False,32,1
JJ-K-32K32S1,425,experiment,91,→,right,→,0.5712703000754118,True,32,1
JJ-K-32K32S1,426,experiment,72,↑,up,↑,0.5078543999698013,True,32,1
JJ-K-32K32S1,427,experiment,108,→,right,→,0.6593543000053614,True,32,1
JJ-K-32K32S1,428,experiment,79,→,right,→,0.6866989000700414,True,32,1
JJ-K-32K32S1,429,experiment,62,↑,up,↑,0.6619365999940783,True,32,1
JJ-K-32K32S1,430,experiment,82,↑,up,↑,0.6320702999364585,True,32,1
JJ-K-32K32S1,431,experiment,87,→,right,→,0.5133911999873817,True,32,1
JJ-K-32K32S1,432,experiment,99,↓,down,↓,0.6439775999169797,True,32,1
JJ-K-32K32S1,433,experiment,49,←,left,←,0.5452521999832243,True,32,1
JJ-K-32K32S1,434,experiment,63,←,left,←,0.6460257999133319,True,32,1
JJ-K-32K32S1,435,experiment,50,←,right,→,0.7394902999512851,False,32,1
JJ-K-32K32S1,436,experiment,70,↑,up,↑,0.4702249001711607,True,32,1
JJ-K-32K32S1,437,experiment,60,→,right,→,0.7509544000495225,True,32,1
JJ-K-32K32S1,438,experiment,69,←,left,←,0.6656071001198143,True,32,1
JJ-K-32K32S1,439,experiment,48,→,right,→,0.542773799970746,True,32,1
JJ-K-32K32S1,440,experiment,101,→,right,→,0.5670831999741495,True,32,1
JJ-K-32K32S1,441,experiment,102,↓,down,↓,0.7500736999791116,True,32,1
JJ-K-32K32S1,442,experiment,61,↑,up,↑,0.45954700000584126,True,32,1
JJ-K-32K32S1,443,experiment,74,←,left,←,0.5202709999866784,True,32,1
JJ-K-32K32S1,444,experiment,59,→,right,→,0.4878874998539686,True,32,1
JJ-K-32K32S1,445,experiment,84,→,right,→,0.5763693999033421,True,32,1
JJ-K-32K32S1,446,experiment,89,↓,down,↓,0.7791104998905212,True,32,1
JJ-K-32K32S1,447,experiment,95,←,left,←,0.6276495000347495,True,32,1
JJ-K-32K32S1,448,experiment,83,←,right,→,0.5747561999596655,False,32,1
JJ-K-32K32S1,449,experiment,80,↓,down,↓,0.6689060998614877,True,32,1
JJ-K-32K32S1,450,experiment,85,←,left,←,0.5096241999417543,True,32,1
JJ-K-32K32S1,451,experiment,97,→,right,→,0.48066410003229976,True,32,1
JJ-K-32K32S1,452,experiment,73,←,left,←,0.7088109001051635,True,32,1
JJ-K-32K32S1,453,experiment,77,↓,down,↓,0.6386829998809844,True,32,1
JJ-K-32K32S1,454,experiment,94,←,left,←,0.5654289999511093,True,32,1
JJ-K-32K32S1,455,experiment,71,←,left,←,0.47859530011191964,True,32,1
JJ-K-32K32S1,456,experiment,81,←,left,←,0.4485261000227183,True,32,1
JJ-K-32K32S1,457,experiment,65,↑,up,↑,0.6804192999843508,True,32,1
JJ-K-32K32S1,458,experiment,105,→,left,←,0.649720499990508,False,32,1
JJ-K-32K32S1,459,experiment,56,→,right,→,0.8527722000144422,True,32,1
JJ-K-32K32S1,460,experiment,51,↑,up,↑,0.5456826000008732,True,32,1
JJ-K-32K32S1,461,experiment,54,←,left,←,0.5853940001688898,True,32,1
JJ-K-32K32S1,462,experiment,96,↑,up,↑,0.6979055001866072,True,32,1
JJ-K-32K32S1,463,experiment,76,↑,up,↑,0.5240936998743564,True,32,1
JJ-K-32K32S1,464,experiment,67,↓,up,↑,0.7763737998902798,False,32,1
JJ-K-32K32S1,465,experiment,107,↑,up,↑,0.6694575999863446,True,32,1
JJ-K-32K32S1,466,experiment,104,↑,up,↑,0.5117468000389636,True,32,1
JJ-K-32K32S1,467,experiment,52,↑,no_key,no_letter,-1.0,False,32,1
JJ-K-32K32S1,468,experiment,92,↓,down,↓,0.6611175001598895,True,32,1
JJ-K-32K32S1,469,experiment,86,↑,up,↑,0.5898763001896441,True,32,1
JJ-K-32K32S1,470,experiment,78,←,left,←,0.5080051000695676,True,32,1
JJ-K-32K32S1,471,experiment,100,→,right,→,0.5180363000836223,True,32,1
JJ-K-32K32S1,472,experiment,98,→,right,→,0.6162246000021696,True,32,1
JJ-K-32K32S1,473,experiment,64,→,right,→,0.6180457000155002,True,32,1
JJ-K-32K32S1,474,experiment,88,→,right,→,0.611656499793753,True,32,1
JJ-K-32K32S1,475,experiment,53,↑,left,←,1.9213823999743909,False,32,1
JJ-K-32K32S1,476,experiment,55,→,right,→,0.6098346000071615,True,32,1
JJ-K-32K32S1,477,experiment,75,↑,up,↑,0.5603942999150604,True,32,1
JJ-K-32K32S1,478,experiment,103,←,left,←,0.5831762999296188,True,32,1
JJ-K-32K32S1,479,experiment,66,↑,up,↑,0.5134002000559121,True,32,1
JJ-K-32K32S1,480,experiment,93,↓,down,↓,0.6137229998130351,True,32,1
JJ-K-32K32S1,481,experiment,68,←,left,←,0.5499937001150101,True,32,1
JJ-K-32K32S1,482,training,81,←,left,←,0.5937127999495715,True,32,0
JJ-K-32K32S1,483,training,64,←,left,←,0.46041019982658327,True,32,1
JJ-K-32K32S1,484,experiment,85,↑,up,↑,0.5653631000313908,True,32,1
JJ-K-32K32S1,485,experiment,74,←,left,←,0.5256509000901133,True,32,1
JJ-K-32K32S1,486,experiment,100,↓,down,↓,0.6229158001951873,True,32,1
JJ-K-32K32S1,487,experiment,78,↓,up,↑,0.5878511001355946,False,32,1
JJ-K-32K32S1,488,experiment,71,→,right,→,0.5722019001841545,True,32,1
JJ-K-32K32S1,489,experiment,94,↑,left,←,0.4096733999904245,False,32,1
JJ-K-32K32S1,490,experiment,76,→,right,→,0.47519849985837936,True,32,1
JJ-K-32K32S1,491,experiment,80,→,right,→,0.5575555001851171,True,32,1
JJ-K-32K32S1,492,experiment,52,→,up,↑,0.7575185000896454,False,32,1
JJ-K-32K32S1,493,experiment,81,↓,down,↓,0.7159754999447614,True,32,1
JJ-K-32K32S1,494,experiment,48,←,left,←,0.622834200039506,True,32,1
JJ-K-32K32S1,495,experiment,53,↓,down,↓,0.9718086998909712,True,32,1
JJ-K-32K32S1,496,experiment,56,↑,up,↑,0.6499806998763233,True,32,1
JJ-K-32K32S1,497,experiment,106,→,left,←,0.7643104000017047,False,32,1
JJ-K-32K32S1,498,experiment,102,→,right,→,0.6113557000644505,True,32,1
JJ-K-32K32S1,499,experiment,105,←,left,←,0.5998162999749184,True,32,1
JJ-K-32K32S1,500,experiment,75,↓,down,↓,0.7265070001594722,True,32,1
JJ-K-32K32S1,501,experiment,51,↓,up,↑,0.70407719979994,False,32,1
JJ-K-32K32S1,502,experiment,108,←,left,←,0.6315799001604319,True,32,1
JJ-K-32K32S1,503,experiment,49,↑,up,↑,0.7815317001659423,True,32,1
JJ-K-32K32S1,504,experiment,55,↑,up,↑,0.6596696998458356,True,32,1
JJ-K-32K32S1,505,experiment,64,→,left,←,0.6357352000195533,False,32,1
JJ-K-32K32S1,506,experiment,61,↓,down,↓,0.7333326998632401,True,32,1
JJ-K-32K32S1,507,experiment,62,↓,down,↓,0.6751931998878717,True,32,1
JJ-K-32K32S1,508,experiment,97,↑,down,↓,0.4875048999674618,False,32,1
JJ-K-32K32S1,509,experiment,101,→,right,→,0.7699995001312345,True,32,1
JJ-K-32K32S1,510,experiment,91,↑,up,↑,0.748498999979347,True,32,1
JJ-K-32K32S1,511,experiment,59,←,left,←,0.6107310000807047,True,32,1
JJ-K-32K32S1,512,experiment,77,↓,down,↓,0.6880387999117374,True,32,1
JJ-K-32K32S1,513,experiment,89,→,right,→,0.44670079997740686,True,32,1
JJ-K-32K32S1,514,experiment,96,←,right,→,0.6281844000332057,False,32,1
JJ-K-32K32S1,515,experiment,58,↑,up,↑,0.5911723000463098,True,32,1
JJ-K-32K32S1,516,experiment,93,←,left,←,0.568316200049594,True,32,1
JJ-K-32K32S1,517,experiment,70,↓,down,↓,0.6179921000730246,True,32,1
JJ-K-32K32S1,518,experiment,57,←,left,←,0.6539990999735892,True,32,1
JJ-K-32K32S1,519,experiment,72,↓,down,↓,0.6355872000567615,True,32,1
JJ-K-32K32S1,520,experiment,63,↓,down,↓,0.5248141000047326,True,32,1
JJ-K-32K32S1,521,experiment,90,←,left,←,0.78566879988648,True,32,1
JJ-K-32K32S1,522,experiment,54,↓,down,↓,0.5841508000157773,True,32,1
JJ-K-32K32S1,523,experiment,66,↑,up,↑,0.570567199960351,True,32,1
JJ-K-32K32S1,524,experiment,79,→,right,→,0.5287242999766022,True,32,1
JJ-K-32K32S1,525,experiment,87,←,no_key,no_letter,-1.0,False,32,1
JJ-K-32K32S1,526,experiment,73,↑,up,↑,0.7520791999995708,True,32,1
JJ-K-32K32S1,527,experiment,107,→,right,→,0.6057204001117498,True,32,1
JJ-K-32K32S1,528,experiment,65,↑,up,↑,0.5275515001267195,True,32,1
JJ-K-32K32S1,529,experiment,99,→,right,→,0.5851785999257118,True,32,1
JJ-K-32K32S1,530,experiment,88,→,right,→,0.4368115998804569,True,32,1
JJ-K-32K32S1,531,experiment,103,←,left,←,1.02389630000107,True,32,0
JJ-K-32K32S1,532,experiment,68,←,left,←,0.4960485000628978,True,32,1
JJ-K-32K32S1,533,experiment,67,↑,left,←,0.5334315998479724,False,32,1
JJ-K-32K32S1,534,experiment,83,↑,up,↑,0.5961426999419928,True,32,1
JJ-K-32K32S1,535,experiment,50,→,left,←,0.5791970000136644,False,32,1
JJ-K-32K32S1,536,experiment,98,←,left,←,0.5150025000330061,True,32,1
JJ-K-32K32S1,537,experiment,69,↓,no_key,no_letter,-1.0,False,32,1
JJ-K-32K32S1,538,experiment,92,←,no_key,no_letter,-1.0,False,32,1
JJ-K-32K32S1,539,experiment,84,↑,right,→,0.5609210999682546,False,32,1
JJ-K-32K32S1,540,experiment,82,↓,down,↓,0.6867666998878121,True,32,1
JJ-K-32K32S1,541,experiment,86,↓,no_key,no_letter,-1.0,False,32,1
JJ-K-32K32S1,542,experiment,95,↑,up,↑,0.696900200098753,True,32,1
JJ-K-32K32S1,543,experiment,60,↑,down,↓,0.5524911000393331,False,32,1
JJ-K-32K32S1,544,experiment,104,↑,up,↑,0.4404462000820786,True,32,1
JJ-K-32K32S1,545,training,100,↓,right,→,1.7462251000106335,False,32,0
JJ-K-32K32S1,546,training,83,↑,up,↑,0.4882528001908213,True,32,1
JJ-K-32K32S1,547,experiment,53,↑,down,↓,0.7227806998416781,False,32,1
JJ-K-32K32S1,548,experiment,88,→,right,→,0.6560013999696821,True,32,1
JJ-K-32K32S1,549,experiment,108,↑,up,↑,0.48147239978425205,True,32,1
JJ-K-32K32S1,550,experiment,55,↑,up,↑,0.6197191001847386,True,32,1
JJ-K-32K32S1,551,experiment,66,↑,up,↑,0.40124100004322827,True,32,1
JJ-K-32K32S1,552,experiment,105,↑,no_key,no_letter,-1.0,False,32,0
JJ-K-32K32S1,553,experiment,68,↑,no_key,no_letter,-1.0,False,32,1
JJ-K-32K32S1,554,experiment,78,→,right,→,0.660727099981159,True,32,1
JJ-K-32K32S1,555,experiment,101,↑,up,↑,0.5443860997911543,True,32,1
JJ-K-32K32S1,556,experiment,65,↓,down,↓,0.7009443000424653,True,32,1
JJ-K-32K32S1,557,experiment,85,←,left,←,0.41796269989572465,True,32,1
JJ-K-32K32S1,558,experiment,91,←,left,←,0.38468259992077947,True,32,0
JJ-K-32K32S1,559,experiment,97,↓,down,↓,1.3083534000907093,True,32,0
JJ-K-32K32S1,560,experiment,76,←,left,←,0.59838299988769,True,32,1
JJ-K-32K32S1,561,experiment,95,↓,down,↓,0.8461806999985129,True,32,1
JJ-K-32K32S1,562,experiment,72,↓,down,↓,0.49235570011660457,True,32,1
JJ-K-32K32S1,563,experiment,58,↓,down,↓,0.5570058999583125,True,32,1
JJ-K-32K32S1,564,experiment,60,↑,up,↑,0.634550399845466,True,32,1
JJ-K-32K32S1,565,experiment,102,←,left,←,0.5747852998320013,True,32,1
JJ-K-32K32S1,566,experiment,69,←,no_key,no_letter,-1.0,False,32,1
JJ-K-32K32S1,567,experiment,86,→,left,←,0.3920599000994116,False,32,1
JJ-K-32K32S1,568,experiment,74,↓,down,↓,0.6292677000164986,True,32,0
JJ-K-32K32S1,569,experiment,61,↓,down,↓,0.58330939989537,True,32,1
JJ-K-32K32S1,570,experiment,62,↑,down,↓,0.6908968999050558,False,32,1
JJ-K-32K32S1,571,experiment,70,↓,down,↓,0.4401622998993844,True,32,1
JJ-K-32K32S1,572,experiment,104,↑,up,↑,0.9147777000907809,True,32,1
JJ-K-32K32S1,573,experiment,83,↑,up,↑,0.5940473000518978,True,32,1
JJ-K-32K32S1,574,experiment,94,→,right,→,0.9148438000120223,True,32,1
JJ-K-32K32S1,575,experiment,99,←,left,←,0.7247155997902155,True,32,1
JJ-K-32K32S1,576,experiment,73,←,no_key,no_letter,-1.0,False,32,1
JJ-K-32K32S1,577,experiment,49,↓,left,←,0.48112350003793836,False,32,1
JJ-K-32K32S1,578,experiment,106,↓,down,↓,0.5382180998567492,True,32,1
JJ-K-32K32S1,579,experiment,92,↓,down,↓,0.9736806000582874,True,32,1
JJ-K-32K32S1,580,experiment,54,→,right,→,0.644103400176391,True,32,1
JJ-K-32K32S1,581,experiment,103,→,right,→,0.6799892999697477,True,32,1
JJ-K-32K32S1,582,experiment,93,↑,no_key,no_letter,-1.0,False,32,1
JJ-K-32K32S1,583,experiment,71,→,right,→,0.4175440000835806,True,32,1
JJ-K-32K32S1,584,experiment,52,↓,down,↓,0.7015317999757826,True,32,1
JJ-K-32K32S1,585,experiment,96,↑,up,↑,0.6250601001083851,True,32,1
JJ-K-32K32S1,586,experiment,87,←,left,←,0.6109386999160051,True,32,1
JJ-K-32K32S1,587,experiment,59,↑,up,↑,0.7741419998928905,True,32,1
JJ-K-32K32S1,588,experiment,84,↑,no_key,no_letter,-1.0,False,32,1
JJ-K-32K32S1,589,experiment,57,↑,up,↑,0.546004300005734,True,32,1
JJ-K-32K32S1,590,experiment,98,←,left,←,0.5870592999272048,True,32,1
JJ-K-32K32S1,591,experiment,107,↑,up,↑,0.5593328999821097,True,32,1
JJ-K-32K32S1,592,experiment,51,←,left,←,0.543774199904874,True,32,1
JJ-K-32K32S1,593,experiment,64,↓,down,↓,0.6442736000753939,True,32,1
JJ-K-32K32S1,594,experiment,90,→,right,→,0.7642357998993248,True,32,1
JJ-K-32K32S1,595,experiment,82,↓,down,↓,0.7698337999172509,True,32,1
JJ-K-32K32S1,596,experiment,77,←,left,←,0.6650452998001128,True,32,1
JJ-K-32K32S1,597,experiment,67,←,left,←,0.7517157001420856,True,32,1
JJ-K-32K32S1,598,experiment,63,↑,down,↓,0.5725266998633742,False,32,1
JJ-K-32K32S1,599,experiment,48,→,right,→,0.6931425998918712,True,32,1
JJ-K-32K32S1,600,experiment,89,←,left,←,0.5796012999489903,True,32,1
JJ-K-32K32S1,601,experiment,81,←,left,←,0.5133476001210511,True,32,1
JJ-K-32K32S1,602,experiment,75,↑,up,↑,0.539478899911046,True,32,1
JJ-K-32K32S1,603,experiment,100,←,left,←,0.436851599952206,True,32,1
JJ-K-32K32S1,604,experiment,50,←,left,←,0.5136849998962134,True,32,0
JJ-K-32K32S1,605,experiment,56,↓,down,↓,0.6179027000907809,True,32,1
JJ-K-32K32S1,606,experiment,80,←,left,←,0.4386986999306828,True,32,1
JJ-K-32K32S1,607,experiment,79,↑,up,↑,0.586153700016439,True,32,0
JJ-K-32K32S1,608,training,71,↓,left,←,1.0122203999198973,False,32,0
JJ-K-32K32S1,609,training,66,→,left,←,0.5974991000257432,False,32,1
JJ-K-32K32S1,610,experiment,69,→,left,←,0.40949250012636185,False,32,1
JJ-K-32K32S1,611,experiment,97,↑,up,↑,0.5724061999935657,True,32,1
JJ-K-32K32S1,612,experiment,83,←,left,←,0.7614909999538213,True,32,1
JJ-K-32K32S1,613,experiment,107,←,left,←,0.6711746999062598,True,32,1
JJ-K-32K32S1,614,experiment,59,↓,down,↓,0.6080713998526335,True,32,1
JJ-K-32K32S1,615,experiment,98,→,right,→,0.5429554001893848,True,32,1
JJ-K-32K32S1,616,experiment,66,↑,up,↑,0.6349728999193758,True,32,1
JJ-K-32K32S1,617,experiment,68,→,left,←,0.706674600020051,False,32,1
JJ-K-32K32S1,618,experiment,79,↑,up,↑,0.4756753998808563,True,32,1
JJ-K-32K32S1,619,experiment,65,↑,up,↑,0.6748979000840336,True,32,1
JJ-K-32K32S1,620,experiment,76,↓,down,↓,0.5902452000882477,True,32,1
JJ-K-32K32S1,621,experiment,80,→,right,→,0.6359346001408994,True,32,1
JJ-K-32K32S1,622,experiment,96,↑,up,↑,0.6821147999726236,True,32,1
JJ-K-32K32S1,623,experiment,57,→,right,→,0.5794937000609934,True,32,1
JJ-K-32K32S1,624,experiment,101,↑,up,↑,0.5060793000739068,True,32,1
JJ-K-32K32S1,625,experiment,90,→,right,→,0.527478100033477,True,32,1
JJ-K-32K32S1,626,experiment,108,→,right,→,0.7742606999818236,True,32,1
JJ-K-32K32S1,627,experiment,58,→,right,→,0.5154872999992222,True,32,1
JJ-K-32K32S1,628,experiment,82,↑,up,↑,0.56320929992944,True,32,1
JJ-K-32K32S1,629,experiment,67,↓,down,↓,0.5263530998490751,True,32,1
JJ-K-32K32S1,630,experiment,75,←,left,←,0.6798191999550909,True,32,1
JJ-K-32K32S1,631,experiment,64,→,right,→,0.5029525000136346,True,32,1
JJ-K-32K32S1,632,experiment,106,↓,down,↓,0.5510112999472767,True,32,1
JJ-K-32K32S1,633,experiment,48,←,left,←,0.5606205000076443,True,32,1
JJ-K-32K32S1,634,experiment,103,↑,up,↑,0.5276397000998259,True,32,1
JJ-K-32K32S1,635,experiment,62,←,left,←,0.49357619998045266,True,32,1
JJ-K-32K32S1,636,experiment,81,←,left,←,0.44674609997309744,True,32,1
JJ-K-32K32S1,637,experiment,93,→,right,→,0.621218099957332,True,32,1
JJ-K-32K32S1,638,experiment,63,←,no_key,no_letter,-1.0,False,32,1
JJ-K-32K32S1,639,experiment,51,→,right,→,0.5922089999075979,True,32,1
JJ-K-32K32S1,640,experiment,50,→,right,→,0.5996456001885235,True,32,1
JJ-K-32K32S1,641,experiment,94,→,left,←,0.4179664000403136,False,32,1
JJ-K-32K32S1,642,experiment,61,↑,up,↑,0.6028069998137653,True,32,1
JJ-K-32K32S1,643,experiment,72,←,left,←,0.530233999947086,True,32,1
JJ-K-32K32S1,644,experiment,53,↓,down,↓,0.6110572000034153,True,32,1
JJ-K-32K32S1,645,experiment,85,↑,up,↑,0.853986999951303,True,32,1
JJ-K-32K32S1,646,experiment,73,↑,up,↑,0.5234350999817252,True,32,1
JJ-K-32K32S1,647,experiment,105,←,left,←,0.6268754999618977,True,32,1
JJ-K-32K32S1,648,experiment,52,↑,up,↑,0.6484825999941677,True,32,1
JJ-K-32K32S1,649,experiment,84,→,right,→,0.6502427998930216,True,32,1
JJ-K-32K32S1,650,experiment,88,→,right,→,0.5145427000243217,True,32,1
JJ-K-32K32S1,651,experiment,74,→,right,→,0.5329017001204193,True,32,1
JJ-K-32K32S1,652,experiment,95,→,left,←,0.5436403001658618,False,32,1
JJ-K-32K32S1,653,experiment,99,↓,down,↓,0.6963821998797357,True,32,1
JJ-K-32K32S1,654,experiment,100,↓,down,↓,0.7307718999218196,True,32,1
JJ-K-32K32S1,655,experiment,77,↓,down,↓,0.6273470998276025,True,32,1
JJ-K-32K32S1,656,experiment,70,←,left,←,0.8666224998887628,True,32,1
JJ-K-32K32S1,657,experiment,91,←,left,←,0.6412692999001592,True,32,1
JJ-K-32K32S1,658,experiment,104,←,right,→,0.4685207000002265,False,32,1
JJ-K-32K32S1,659,experiment,54,←,right,→,0.5998092000372708,False,32,1
JJ-K-32K32S1,660,experiment,87,→,right,→,0.6024166999850422,True,32,1
JJ-K-32K32S1,661,experiment,78,↓,down,↓,0.6241000001318753,True,32,1
JJ-K-32K32S1,662,experiment,89,↓,down,↓,0.5850793998688459,True,32,1
JJ-K-32K32S1,663,experiment,86,→,right,→,0.6610048001166433,True,32,1
JJ-K-32K32S1,664,experiment,55,↓,down,↓,0.503983800066635,True,32,1
JJ-K-32K32S1,665,experiment,92,↓,no_key,no_letter,-1.0,False,32,1
JJ-K-32K32S1,666,experiment,71,↑,down,↓,0.5109943000134081,False,32,1
JJ-K-32K32S1,667,experiment,56,←,right,→,0.8159276000224054,False,32,1
JJ-K-32K32S1,668,experiment,60,↓,down,↓,0.7230555999558419,True,32,1
JJ-K-32K32S1,669,experiment,49,→,right,→,0.6052844999358058,True,32,1
JJ-K-32K32S1,670,experiment,102,←,left,←,0.5627849998418242,True,32,1
JJ-K-32K32S1,671,training,78,↑,no_key,no_letter,-1.0,False,32,0
JJ-K-32K32S1,672,training,105,↑,up,↑,0.6151841999962926,True,32,1
JJ-K-32K32S1,673,experiment,86,←,left,←,0.5856603998690844,True,32,1
JJ-K-32K32S1,674,experiment,91,↑,up,↑,0.6351814998779446,True,32,1
JJ-K-32K32S1,675,experiment,50,↑,up,↑,0.4652331001125276,True,32,1
JJ-K-32K32S1,676,experiment,92,↑,up,↑,0.44755859998986125,True,32,1
JJ-K-32K32S1,677,experiment,64,←,right,→,0.5759417999070138,False,32,1
JJ-K-32K32S1,678,experiment,105,←,left,←,0.44585860008373857,True,32,1
JJ-K-32K32S1,679,experiment,70,←,left,←,0.9077739999629557,True,32,1
JJ-K-32K32S1,680,experiment,72,←,left,←,0.6873949998989701,True,32,1
JJ-K-32K32S1,681,experiment,71,↑,up,↑,0.5078638000413775,True,32,1
JJ-K-32K32S1,682,experiment,49,↓,up,↑,0.4627720999997109,False,32,1
JJ-K-32K32S1,683,experiment,81,↑,down,↓,0.8169706999324262,False,32,1
JJ-K-32K32S1,684,experiment,53,↑,no_key,no_letter,-1.0,False,32,1
JJ-K-32K32S1,685,experiment,95,↑,up,↑,0.48881349992007017,True,32,1
JJ-K-32K32S1,686,experiment,87,→,right,→,0.6317748001310974,True,32,1
JJ-K-32K32S1,687,experiment,56,←,left,←,0.46776529983617365,True,32,1
JJ-K-32K32S1,688,experiment,107,↓,down,↓,0.6610453000757843,True,32,1
JJ-K-32K32S1,689,experiment,97,↑,up,↑,0.5697029000148177,True,32,1
JJ-K-32K32S1,690,experiment,102,↑,up,↑,0.4886873001232743,True,32,1
JJ-K-32K32S1,691,experiment,51,↓,down,↓,0.5797570000868291,True,32,1
JJ-K-32K32S1,692,experiment,90,↓,down,↓,0.7102001998573542,True,32,1
JJ-K-32K32S1,693,experiment,84,→,left,←,0.7097001001238823,False,32,1
JJ-K-32K32S1,694,experiment,93,↓,down,↓,0.5139285000041127,True,32,1
JJ-K-32K32S1,695,experiment,59,→,right,→,0.6734778000973165,True,32,1
JJ-K-32K32S1,696,experiment,101,→,right,→,0.5806052999105304,True,32,1
JJ-K-32K32S1,697,experiment,55,↓,down,↓,0.8024441001471132,True,32,1
JJ-K-32K32S1,698,experiment,74,↑,up,↑,0.6092834998853505,True,32,1
JJ-K-32K32S1,699,experiment,77,↓,down,↓,0.5348316999152303,True,32,1
JJ-K-32K32S1,700,experiment,104,↓,down,↓,0.5425793998874724,True,32,1
JJ-K-32K32S1,701,experiment,82,←,left,←,1.437324000056833,True,32,1
JJ-K-32K32S1,702,experiment,103,→,right,→,0.5129263000562787,True,32,1
JJ-K-32K32S1,703,experiment,62,←,left,←,0.5513905000407249,True,32,1
JJ-K-32K32S1,704,experiment,61,↑,up,↑,0.5968464000616223,True,32,1
JJ-K-32K32S1,705,experiment,100,↓,down,↓,0.5470783999189734,True,32,1
JJ-K-32K32S1,706,experiment,73,↑,up,↑,0.5328974998556077,True,32,1
JJ-K-32K32S1,707,experiment,88,↑,up,↑,0.5935422999318689,True,32,1
JJ-K-32K32S1,708,experiment,63,←,down,↓,0.6047769000288099,False,32,1
JJ-K-32K32S1,709,experiment,94,←,left,←,0.5250371000729501,True,32,1
JJ-K-32K32S1,710,experiment,66,↑,up,↑,0.6340590000618249,True,32,1
JJ-K-32K32S1,711,experiment,98,→,right,→,0.5515691000036895,True,32,1
JJ-K-32K32S1,712,experiment,108,←,left,←,0.46125630009919405,True,32,1
JJ-K-32K32S1,713,experiment,48,→,left,←,0.914325000019744,False,32,1
JJ-K-32K32S1,714,experiment,69,←,left,←,0.5264423000626266,True,32,1
JJ-K-32K32S1,715,experiment,68,←,left,←,0.5464636001270264,True,32,1
JJ-K-32K32S1,716,experiment,57,↓,up,↑,0.8252236000262201,False,32,1
JJ-K-32K32S1,717,experiment,58,↑,up,↑,0.6688075000420213,True,32,1
JJ-K-32K32S1,718,experiment,96,→,right,→,0.8255748001392931,True,32,1
JJ-K-32K32S1,719,experiment,80,←,left,←,0.557649799855426,True,32,1
JJ-K-32K32S1,720,experiment,60,←,left,←,0.627129300031811,True,32,1
JJ-K-32K32S1,721,experiment,85,↓,down,↓,0.7333955999929458,True,32,1
JJ-K-32K32S1,722,experiment,76,↑,up,↑,0.6225030000787228,True,32,1
JJ-K-32K32S1,723,experiment,79,←,left,←,0.4747478000354022,True,32,1
JJ-K-32K32S1,724,experiment,89,↓,down,↓,0.5140152999665588,True,32,1
JJ-K-32K32S1,725,experiment,99,←,left,←,0.491817899979651,True,32,1
JJ-K-32K32S1,726,experiment,54,↑,up,↑,1.3020982998423278,True,32,1
JJ-K-32K32S1,727,experiment,75,→,right,→,0.5846382000017911,True,32,1
JJ-K-32K32S1,728,experiment,83,↓,down,↓,0.6691104001365602,True,32,1
JJ-K-32K32S1,729,experiment,106,→,right,→,0.5587534999940544,True,32,1
JJ-K-32K32S1,730,experiment,67,→,right,→,0.5617675001267344,True,32,1
JJ-K-32K32S1,731,experiment,52,↓,down,↓,0.6653275000862777,True,32,1
JJ-K-32K32S1,732,experiment,78,↑,up,↑,0.604544699890539,True,32,1
JJ-K-32K32S1,733,experiment,65,↑,up,↑,0.5747217000462115,True,32,1
JJ-K-32K32S1,734,training,103,↓,up,↑,0.3843735000118613,False,32,0
JJ-K-32K32S1,735,training,101,↑,up,↑,0.5544290998950601,True,32,0
JJ-K-32K32S1,736,experiment,76,←,left,←,0.554507999913767,True,32,1
JJ-K-32K32S1,737,experiment,83,←,left,←,0.6242412000428885,True,32,1
JJ-K-32K32S1,738,experiment,86,→,right,→,0.562382600037381,True,32,1
JJ-K-32K32S1,739,experiment,70,→,right,→,0.5324092002119869,True,32,1
JJ-K-32K32S1,740,experiment,103,←,left,←,0.45255040004849434,True,32,1
JJ-K-32K32S1,741,experiment,62,↓,down,↓,0.6771572998259217,True,32,1
JJ-K-32K32S1,742,experiment,96,↑,up,↑,0.5539282998070121,True,32,1
JJ-K-32K32S1,743,experiment,88,↓,down,↓,0.5977731000166386,True,32,1
JJ-K-32K32S1,744,experiment,107,↓,down,↓,0.5299833999015391,True,32,1
JJ-K-32K32S1,745,experiment,52,↓,down,↓,0.6430913999211043,True,32,1
JJ-K-32K32S1,746,experiment,108,↑,up,↑,0.5490871998481452,True,32,1
JJ-K-32K32S1,747,experiment,85,→,right,→,0.5705422000028193,True,32,1
JJ-K-32K32S1,748,experiment,66,←,left,←,0.5812419999856502,True,32,1
JJ-K-32K32S1,749,experiment,82,↓,down,↓,0.5945001000072807,True,32,1
JJ-K-32K32S1,750,experiment,102,↑,up,↑,0.47218200005590916,True,32,1
JJ-K-32K32S1,751,experiment,51,→,right,→,0.6761455999221653,True,32,1
JJ-K-32K32S1,752,experiment,105,↑,up,↑,0.5175918000750244,True,32,1
JJ-K-32K32S1,753,experiment,95,↑,up,↑,0.5132049999665469,True,32,1
JJ-K-32K32S1,754,experiment,49,→,left,←,0.5720305999275297,False,32,1
JJ-K-32K32S1,755,experiment,71,↑,up,↑,0.5091311000287533,True,32,1
JJ-K-32K32S1,756,experiment,54,↓,down,↓,0.6946548998821527,True,32,1
JJ-K-32K32S1,757,experiment,60,↑,up,↑,0.5904972001444548,True,32,1
JJ-K-32K32S1,758,experiment,57,←,left,←,0.6114349002018571,True,32,1
JJ-K-32K32S1,759,experiment,81,↓,down,↓,0.7601793999783695,True,32,1
JJ-K-32K32S1,760,experiment,75,↓,down,↓,0.680321800056845,True,32,1
JJ-K-32K32S1,761,experiment,69,→,right,→,0.5418241999577731,True,32,1
JJ-K-32K32S1,762,experiment,67,↓,down,↓,0.6575427001807839,True,32,1
JJ-K-32K32S1,763,experiment,104,↓,down,↓,0.604134599911049,True,32,1
JJ-K-32K32S1,764,experiment,80,↓,down,↓,0.592895400011912,True,32,1
JJ-K-32K32S1,765,experiment,99,↓,down,↓,0.5278342000674456,True,32,1
JJ-K-32K32S1,766,experiment,59,↓,down,↓,0.6306164998095483,True,32,1
JJ-K-32K32S1,767,experiment,106,←,left,←,0.6419951999559999,True,32,1
JJ-K-32K32S1,768,experiment,53,←,left,←,1.4944258998148143,True,32,1
JJ-K-32K32S1,769,experiment,72,↓,down,↓,0.6264750000555068,True,32,1
JJ-K-32K32S1,770,experiment,48,←,left,←,0.47312110010534525,True,32,1
JJ-K-32K32S1,771,experiment,68,↑,left,←,1.511269300011918,False,32,1
JJ-K-32K32S1,772,experiment,61,↓,down,↓,0.5902040000073612,True,32,1
JJ-K-32K32S1,773,experiment,90,↑,up,↑,0.6801295001059771,True,32,1
JJ-K-32K32S1,774,experiment,55,↓,down,↓,0.5462274998426437,True,32,1
JJ-K-32K32S1,775,experiment,89,↑,up,↑,0.6303316000849009,True,32,1
JJ-K-32K32S1,776,experiment,79,←,left,←,0.6184509000740945,True,32,1
JJ-K-32K32S1,777,experiment,100,→,right,→,0.552014300134033,True,32,1
JJ-K-32K32S1,778,experiment,58,→,right,→,0.5185461000073701,True,32,1
JJ-K-32K32S1,779,experiment,65,→,right,→,0.4998869998380542,True,32,1
JJ-K-32K32S1,780,experiment,78,↓,down,↓,0.6057383001316339,True,32,1
JJ-K-32K32S1,781,experiment,64,→,right,→,0.5519121999386698,True,32,1
JJ-K-32K32S1,782,experiment,98,↓,down,↓,0.6007020999677479,True,32,1
JJ-K-32K32S1,783,experiment,101,↓,down,↓,0.4548369999974966,True,32,1
JJ-K-32K32S1,784,experiment,94,←,right,→,0.620737699791789,False,32,1
JJ-K-32K32S1,785,experiment,87,←,left,←,0.48650870006531477,True,32,1
JJ-K-32K32S1,786,experiment,84,←,left,←,0.478805499849841,True,32,1
JJ-K-32K32S1,787,experiment,73,←,left,←,0.46761419996619225,True,32,1
JJ-K-32K32S1,788,experiment,77,→,right,→,0.71082210005261,True,32,1
JJ-K-32K32S1,789,experiment,63,→,left,←,0.5252219999674708,False,32,1
JJ-K-32K32S1,790,experiment,56,→,right,→,0.5893868000712246,True,32,1
JJ-K-32K32S1,791,experiment,50,←,left,←,0.5966312999371439,True,32,1
JJ-K-32K32S1,792,experiment,92,←,right,→,0.6057015999685973,False,32,1
JJ-K-32K32S1,793,experiment,97,↓,down,↓,0.6366262999363244,True,32,1
JJ-K-32K32S1,794,experiment,91,←,left,←,0.5087386998347938,True,32,1
JJ-K-32K32S1,795,experiment,74,←,left,←,0.4792520999908447,True,32,1
JJ-K-32K32S1,796,experiment,93,→,right,→,0.6927016999106854,True,32,1
JJ-K-32K32S1,797,training,55,→,up,↑,0.9851231998763978,False,31,0
JJ-K-32K32S1,798,training,72,↓,down,↓,0.5851841000840068,True,31,1
JJ-K-32K32S1,799,experiment,87,↑,up,↑,0.9489892998244613,True,31,1
JJ-K-32K32S1,800,experiment,71,↓,down,↓,0.6628097998909652,True,31,1
JJ-K-32K32S1,801,experiment,51,↓,up,↑,0.5870411000214517,False,31,1
JJ-K-32K32S1,802,experiment,59,←,left,←,0.48761900002136827,True,31,1
JJ-K-32K32S1,803,experiment,82,←,left,←,0.4804243999533355,True,31,1
JJ-K-32K32S1,804,experiment,54,↑,up,↑,0.6185391000472009,True,31,1
JJ-K-32K32S1,805,experiment,73,→,right,→,0.4975751000456512,True,31,1
JJ-K-32K32S1,806,experiment,57,←,left,←,0.6342819000128657,True,31,1
JJ-K-32K32S1,807,experiment,49,↓,down,↓,0.7923235001508147,True,31,1
JJ-K-32K32S1,808,experiment,75,↑,up,↑,0.5193831000942737,True,31,1
JJ-K-32K32S1,809,experiment,80,↑,up,↑,0.5357851001899689,True,31,1
JJ-K-32K32S1,810,experiment,60,→,right,→,0.7020833001006395,True,31,1
JJ-K-32K32S1,811,experiment,100,←,right,→,0.5846675001084805,False,31,1
JJ-K-32K32S1,812,experiment,84,→,left,←,0.40103999990969896,False,31,1
JJ-K-32K32S1,813,experiment,106,←,left,←,0.5365641000680625,True,31,0
JJ-K-32K32S1,814,experiment,90,↓,down,↓,0.7570273999590427,True,31,1
JJ-K-32K32S1,815,experiment,97,←,right,→,0.5180975999683142,False,31,1
JJ-K-32K32S1,816,experiment,72,↑,up,↑,1.001212100032717,True,31,1
JJ-K-32K32S1,817,experiment,50,←,no_key,no_letter,-1.0,False,31,1
JJ-K-32K32S1,818,experiment,52,↑,up,↑,0.5055149998515844,True,31,1
JJ-K-32K32S1,819,experiment,55,←,left,←,0.5144974999129772,True,31,1
JJ-K-32K32S1,820,experiment,66,↓,down,↓,0.687342599965632,True,31,1
JJ-K-32K32S1,821,experiment,63,→,right,→,0.5827379999682307,True,31,1
JJ-K-32K32S1,822,experiment,95,→,right,→,0.7433378000278026,True,31,1
JJ-K-32K32S1,823,experiment,102,←,left,←,0.5435267998836935,True,31,1
JJ-K-32K32S1,824,experiment,85,↑,up,↑,0.5410975001286715,True,31,1
JJ-K-32K32S1,825,experiment,56,→,right,→,0.5645673000253737,True,31,1
JJ-K-32K32S1,826,experiment,86,→,right,→,0.5767858999315649,True,31,1
JJ-K-32K32S1,827,experiment,81,↓,down,↓,0.7105033001862466,True,31,1
JJ-K-32K32S1,828,experiment,67,↑,up,↑,0.5317224999889731,True,31,1
JJ-K-32K32S1,829,experiment,65,↑,up,↑,0.5924466999713331,True,31,1
JJ-K-32K32S1,830,experiment,78,↑,up,↑,0.5344108999706805,True,31,1
JJ-K-32K32S1,831,experiment,96,↑,up,↑,0.5929048999678344,True,31,1
JJ-K-32K32S1,832,experiment,105,↑,up,↑,0.39265769999474287,True,31,1
JJ-K-32K32S1,833,experiment,88,→,right,→,0.6004354001488537,True,31,0
JJ-K-32K32S1,834,experiment,101,↑,up,↑,0.5102589998859912,True,31,1
JJ-K-32K32S1,835,experiment,76,→,left,←,0.5123811999801546,False,31,1
JJ-K-32K32S1,836,experiment,77,→,right,→,0.4898185001220554,True,31,1
JJ-K-32K32S1,837,experiment,58,→,right,→,0.6346257999539375,True,31,1
JJ-K-32K32S1,838,experiment,99,←,left,←,0.511909699998796,True,31,1
JJ-K-32K32S1,839,experiment,70,←,left,←,0.6916945001576096,True,31,1
JJ-K-32K32S1,840,experiment,92,←,left,←,0.5610200001392514,True,31,1
JJ-K-32K32S1,841,experiment,103,←,left,←,0.5280504000838846,True,31,1
JJ-K-32K32S1,842,experiment,94,↓,down,↓,0.810891899978742,True,31,1
JJ-K-32K32S1,843,experiment,64,→,right,→,0.5332569000311196,True,31,1
JJ-K-32K32S1,844,experiment,69,→,left,←,0.4805372999981046,False,31,1
JJ-K-32K32S1,845,experiment,93,↓,down,↓,0.8299288998823613,True,31,1
JJ-K-32K32S1,846,experiment,74,↑,up,↑,0.5316922001075,True,31,1
JJ-K-32K32S1,847,experiment,68,↓,down,↓,0.6314948999788612,True,31,1
JJ-K-32K32S1,848,experiment,108,→,right,→,0.5537729000207037,True,31,1
JJ-K-32K32S1,849,experiment,83,↓,down,↓,0.6153748000506312,True,31,1
JJ-K-32K32S1,850,experiment,79,↓,down,↓,0.564255400095135,True,31,1
JJ-K-32K32S1,851,experiment,89,↑,up,↑,0.503757799975574,True,31,1
JJ-K-32K32S1,852,experiment,91,→,right,→,0.5886109999846667,True,31,1
JJ-K-32K32S1,853,experiment,107,↑,up,↑,0.5928746999707073,True,31,1
JJ-K-32K32S1,854,experiment,48,←,right,→,0.6491104001179338,False,31,1
JJ-K-32K32S1,855,experiment,61,→,right,→,0.5545489001087844,True,31,1
JJ-K-32K32S1,856,experiment,98,↓,down,↓,0.7632595999166369,True,31,1
JJ-K-32K32S1,857,experiment,62,→,right,→,0.6077271001413465,True,31,1
JJ-K-32K32S1,858,experiment,104,↓,down,↓,0.6363939000293612,True,31,1
JJ-K-32K32S1,859,experiment,53,←,left,←,0.5694452000316232,True,31,1
JJ-K-32K32S1,860,training,88,←,left,←,0.5108272999059409,True,31,0
JJ-K-32K32S1,861,training,83,→,right,→,0.5981356999836862,True,31,1
JJ-K-32K32S1,862,experiment,75,←,left,←,0.612953299889341,True,31,1
JJ-K-32K32S1,863,experiment,82,↑,up,↑,0.6005754000507295,True,31,1
JJ-K-32K32S1,864,experiment,52,←,left,←,0.5750697001349181,True,31,1
JJ-K-32K32S1,865,experiment,50,←,left,←,0.5030795000493526,True,31,1
JJ-K-32K32S1,866,experiment,85,↑,up,↑,0.6062771000433713,True,31,1
JJ-K-32K32S1,867,experiment,70,←,left,←,0.48660059995017946,True,31,1
JJ-K-32K32S1,868,experiment,108,→,right,→,0.5510278998408467,True,31,1
JJ-K-32K32S1,869,experiment,101,→,left,←,0.5751241000834852,False,31,1
JJ-K-32K32S1,870,experiment,62,↑,up,↑,0.5309484000317752,True,31,1
JJ-K-32K32S1,871,experiment,59,↓,down,↓,0.7298592999577522,True,31,1
JJ-K-32K32S1,872,experiment,56,→,right,→,1.0095473998226225,True,31,1
JJ-K-32K32S1,873,experiment,55,←,left,←,0.5105604999698699,True,31,1
JJ-K-32K32S1,874,experiment,93,↓,down,↓,0.7070772000588477,True,31,1
JJ-K-32K32S1,875,experiment,57,↑,up,↑,0.6193997000809759,True,31,1
JJ-K-32K32S1,876,experiment,96,→,right,→,0.7540118000470102,True,31,1
JJ-K-32K32S1,877,experiment,84,←,left,←,0.6154114999808371,True,31,1
JJ-K-32K32S1,878,experiment,81,↑,up,↑,0.563514000037685,True,31,1
JJ-K-32K32S1,879,experiment,91,↑,down,↓,0.6782118000555784,False,31,1
JJ-K-32K32S1,880,experiment,63,→,right,→,0.5901369999628514,True,31,1
JJ-K-32K32S1,881,experiment,78,↑,up,↑,0.7162593000102788,True,31,1
JJ-K-32K32S1,882,experiment,69,→,right,→,0.47218909999355674,True,31,1
JJ-K-32K32S1,883,experiment,83,→,right,→,0.46525739994831383,True,31,1
JJ-K-32K32S1,884,experiment,68,←,left,←,0.6076056000310928,True,31,1
JJ-K-32K32S1,885,experiment,60,↑,up,↑,0.6030346001498401,True,31,1
JJ-K-32K32S1,886,experiment,58,→,right,→,0.5032234999816865,True,31,1
JJ-K-32K32S1,887,experiment,89,↓,down,↓,0.6374184000305831,True,31,1
JJ-K-32K32S1,888,experiment,61,→,right,→,0.575272599933669,True,31,1
JJ-K-32K32S1,889,experiment,107,→,right,→,0.5085497999098152,True,31,1
JJ-K-32K32S1,890,experiment,48,→,no_key,no_letter,-1.0,False,31,1
JJ-K-32K32S1,891,experiment,74,←,left,←,0.4649243999738246,True,31,1
JJ-K-32K32S1,892,experiment,54,↓,down,↓,0.6362852999009192,True,31,1
JJ-K-32K32S1,893,experiment,103,←,left,←,0.6003771999385208,True,31,1
JJ-K-32K32S1,894,experiment,92,→,right,→,0.4574092000257224,True,31,1
JJ-K-32K32S1,895,experiment,51,↑,up,↑,0.5180321000516415,True,31,1
JJ-K-32K32S1,896,experiment,105,←,left,←,0.5418569999746978,True,31,1
JJ-K-32K32S1,897,experiment,95,←,no_key,no_letter,-1.0,False,31,1
JJ-K-32K32S1,898,experiment,90,↓,down,↓,0.6608726000413299,True,31,1
JJ-K-32K32S1,899,experiment,100,←,up,↑,0.4967508998233825,False,31,1
JJ-K-32K32S1,900,experiment,64,↓,down,↓,0.6392606999725103,True,31,1
JJ-K-32K32S1,901,experiment,88,↑,up,↑,0.8639390000607818,True,31,1
JJ-K-32K32S1,902,experiment,71,→,right,→,0.6611945999320596,True,31,1
JJ-K-32K32S1,903,experiment,87,→,right,→,0.5412071000318974,True,31,1
JJ-K-32K32S1,904,experiment,99,←,right,→,0.5103430999442935,False,31,1
JJ-K-32K32S1,905,experiment,98,←,right,→,0.5210332002025098,False,31,1
JJ-K-32K32S1,906,experiment,72,←,left,←,0.4364310000091791,True,31,1
JJ-K-32K32S1,907,experiment,80,↑,up,↑,0.8391891000792384,True,31,1
JJ-K-32K32S1,908,experiment,76,↑,up,↑,0.579997600056231,True,31,1
JJ-K-32K32S1,909,experiment,66,→,left,←,0.4386563999578357,False,31,1
JJ-K-32K32S1,910,experiment,97,↑,up,↑,0.6286434999201447,True,31,1
JJ-K-32K32S1,911,experiment,79,↑,up,↑,0.6163898999802768,True,31,1
JJ-K-32K32S1,912,experiment,102,↑,no_key,no_letter,-1.0,False,31,1
JJ-K-32K32S1,913,experiment,65,→,right,→,0.506485200021416,True,31,1
JJ-K-32K32S1,914,experiment,67,→,right,→,0.5514010000042617,True,31,1
JJ-K-32K32S1,915,experiment,94,→,right,→,0.6417614000383765,True,31,1
JJ-K-32K32S1,916,experiment,73,↓,down,↓,0.7835156000219285,True,31,1
JJ-K-32K32S1,917,experiment,86,↑,up,↑,0.5311346999369562,True,31,1
JJ-K-32K32S1,918,experiment,106,↑,up,↑,0.45823909994214773,True,31,1
JJ-K-32K32S1,919,experiment,53,↓,up,↑,1.4300280001480132,False,31,1
JJ-K-32K32S1,920,experiment,49,↓,down,↓,0.6919960998930037,True,31,1
JJ-K-32K32S1,921,experiment,104,↓,down,↓,0.7095231001731008,True,31,1
JJ-K-32K32S1,922,experiment,77,↓,up,↑,0.6071029000449926,False,31,1
JJ-K-32K32S1,923,training,62,←,left,←,0.513647299958393,True,31,0
JJ-K-32K32S1,924,training,105,↑,up,↑,0.5455836998298764,True,31,1
JJ-K-32K32S1,925,experiment,100,→,right,→,0.6822345000691712,True,31,1
JJ-K-32K32S1,926,experiment,49,↓,down,↓,0.6860480001196265,True,31,1
JJ-K-32K32S1,927,experiment,91,→,right,→,0.5477318000048399,True,31,1
JJ-K-32K32S1,928,experiment,87,↓,down,↓,0.6084292999003083,True,31,1
JJ-K-32K32S1,929,experiment,95,←,left,←,0.5601525998208672,True,31,1
JJ-K-32K32S1,930,experiment,98,→,right,→,0.6005486000794917,True,31,1
JJ-K-32K32S1,931,experiment,79,↓,down,↓,0.6461543999612331,True,31,1
JJ-K-32K32S1,932,experiment,82,↓,no_key,no_letter,-1.0,False,31,1
JJ-K-32K32S1,933,experiment,106,→,right,→,0.5839270001742989,True,31,1
JJ-K-32K32S1,934,experiment,77,←,left,←,0.5106413001194596,True,31,1
JJ-K-32K32S1,935,experiment,65,↓,down,↓,0.5482531001325697,True,31,1
JJ-K-32K32S1,936,experiment,83,↓,down,↓,0.5388835999183357,True,31,1
JJ-K-32K32S1,937,experiment,69,→,right,→,0.6134814000688493,True,31,1
JJ-K-32K32S1,938,experiment,104,↑,up,↑,0.6180161000229418,True,31,1
JJ-K-32K32S1,939,experiment,74,↑,down,↓,0.48023259988985956,False,31,1
JJ-K-32K32S1,940,experiment,59,←,left,←,0.5531691999640316,True,31,1
JJ-K-32K32S1,941,experiment,80,←,left,←,0.4561405999120325,True,31,1
JJ-K-32K32S1,942,experiment,85,←,left,←,0.4893084999639541,True,31,1
JJ-K-32K32S1,943,experiment,57,←,right,→,0.4662250999826938,False,31,1
JJ-K-32K32S1,944,experiment,50,↓,down,↓,0.6467956998385489,True,31,1
JJ-K-32K32S1,945,experiment,53,←,left,←,0.6111242999322712,True,31,1
JJ-K-32K32S1,946,experiment,54,↓,down,↓,0.5841591998469085,True,31,1
JJ-K-32K32S1,947,experiment,89,→,left,←,0.6670166999101639,False,31,1
JJ-K-32K32S1,948,experiment,70,↓,down,↓,0.5286252000369132,True,31,1
JJ-K-32K32S1,949,experiment,105,↓,down,↓,0.44833719986490905,True,31,1
JJ-K-32K32S1,950,experiment,72,↑,up,↑,0.6941983001306653,True,31,1
JJ-K-32K32S1,951,experiment,101,→,right,→,0.6322046001441777,True,31,1
JJ-K-32K32S1,952,experiment,66,↑,down,↓,0.5764064001850784,False,31,1
JJ-K-32K32S1,953,experiment,68,↑,up,↑,0.5386207001283765,True,31,1
JJ-K-32K32S1,954,experiment,108,↓,down,↓,0.48078850004822016,True,31,1
JJ-K-32K32S1,955,experiment,99,←,left,←,0.4441648998763412,True,31,1
JJ-K-32K32S1,956,experiment,107,↑,down,↓,0.8463887001853436,False,31,1
JJ-K-32K32S1,957,experiment,78,→,left,←,0.5217442000284791,False,31,1
JJ-K-32K32S1,958,experiment,94,↑,up,↑,0.6210974999703467,True,31,1
JJ-K-32K32S1,959,experiment,75,←,right,→,0.5946368998847902,False,31,1
JJ-K-32K32S1,960,experiment,96,←,left,←,0.6426542000845075,True,31,1
JJ-K-32K32S1,961,experiment,60,↓,down,↓,0.5965749998576939,True,31,1
JJ-K-32K32S1,962,experiment,56,↑,up,↑,0.6178204999305308,True,31,1
JJ-K-32K32S1,963,experiment,97,→,right,→,1.5444503999315202,True,31,1
JJ-K-32K32S1,964,experiment,55,↑,down,↓,0.640170400030911,False,31,1
JJ-K-32K32S1,965,experiment,81,↓,up,↑,0.5151699997950345,False,31,1
JJ-K-32K32S1,966,experiment,84,→,right,→,0.6101917999330908,True,31,1
JJ-K-32K32S1,967,experiment,52,↑,down,↓,1.0962485999334604,False,31,1
JJ-K-32K32S1,968,experiment,88,→,right,→,0.5905717997811735,True,31,1
JJ-K-32K32S1,969,experiment,103,←,left,←,0.52423350000754,True,31,1
JJ-K-32K32S1,970,experiment,67,↓,down,↓,0.6167959000449628,True,31,1
JJ-K-32K32S1,971,experiment,102,↑,up,↑,0.6857586998958141,True,31,1
JJ-K-32K32S1,972,experiment,51,→,right,→,0.5128363999538124,True,31,1
JJ-K-32K32S1,973,experiment,64,→,left,←,0.4948384999297559,False,31,1
JJ-K-32K32S1,974,experiment,62,←,left,←,1.0543486999813467,True,31,1
JJ-K-32K32S1,975,experiment,92,←,left,←,0.5730006000958383,True,31,1
JJ-K-32K32S1,976,experiment,73,↓,down,↓,0.7174937999807298,True,31,1
JJ-K-32K32S1,977,experiment,48,→,right,→,0.6884570000693202,True,31,1
JJ-K-32K32S1,978,experiment,93,↓,down,↓,0.6613298999145627,True,31,1
JJ-K-32K32S1,979,experiment,61,↓,down,↓,0.8865437000058591,True,31,1
JJ-K-32K32S1,980,experiment,71,→,left,←,1.6193224999587983,False,31,1
JJ-K-32K32S1,981,experiment,63,↑,up,↑,0.6928915998432785,True,31,1
JJ-K-32K32S1,982,experiment,90,↓,down,↓,0.6107596999499947,True,31,1
JJ-K-32K32S1,983,experiment,58,←,left,←,0.8229320000391454,True,31,1
JJ-K-32K32S1,984,experiment,76,↓,down,↓,0.7243492000270635,True,31,1
JJ-K-32K32S1,985,experiment,86,→,right,→,0.5703457999043167,True,31,1
JJ-K-32K32S1,986,training,86,→,right,→,0.629507599864155,True,31,0
JJ-K-32K32S1,987,training,76,←,left,←,0.5145270000211895,True,31,1
JJ-K-32K32S1,988,experiment,97,←,left,←,0.5093194001819938,True,31,1
JJ-K-32K32S1,989,experiment,83,←,right,→,0.5172049000393599,False,31,1
JJ-K-32K32S1,990,experiment,50,→,right,→,0.5035735999699682,True,31,1
JJ-K-32K32S1,991,experiment,98,↑,up,↑,0.7382846002001315,True,31,1
JJ-K-32K32S1,992,experiment,107,←,left,←,0.5844169999472797,True,31,1
JJ-K-32K32S1,993,experiment,55,←,left,←,0.5426371998619288,True,31,1
JJ-K-32K32S1,994,experiment,84,→,right,→,0.6527438000775874,True,31,1
JJ-K-32K32S1,995,experiment,87,←,left,←,0.493668100098148,True,31,1
JJ-K-32K32S1,996,experiment,72,↑,up,↑,0.6330758999101818,True,31,1
JJ-K-32K32S1,997,experiment,92,→,right,→,0.6490744999609888,True,31,1
JJ-K-32K32S1,998,experiment,62,↑,up,↑,0.5698422000277787,True,31,1
JJ-K-32K32S1,999,experiment,108,←,left,←,0.6466740998439491,True,31,1
JJ-K-32K32S1,1000,experiment,89,←,left,←,0.5904757999815047,True,31,1
JJ-K-32K32S1,1001,experiment,91,↓,down,↓,0.6323691001161933,True,31,1
JJ-K-32K32S1,1002,experiment,80,↑,up,↑,0.6120736999437213,True,31,1
JJ-K-32K32S1,1003,experiment,75,↑,up,↑,0.6586913000792265,True,31,1
JJ-K-32K32S1,1004,experiment,95,→,left,←,0.5840461000334471,False,31,1
JJ-K-32K32S1,1005,experiment,105,→,right,→,0.6214286000467837,True,31,1
JJ-K-32K32S1,1006,experiment,81,↓,down,↓,0.5132323000580072,True,31,1
JJ-K-32K32S1,1007,experiment,94,↓,down,↓,0.5730011998675764,True,31,1
JJ-K-32K32S1,1008,experiment,104,→,right,→,0.6509414999745786,True,31,1
JJ-K-32K32S1,1009,experiment,48,→,right,→,0.6487449000123888,True,31,1
JJ-K-32K32S1,1010,experiment,60,←,left,←,0.6344202999025583,True,31,1
JJ-K-32K32S1,1011,experiment,82,→,right,→,0.5173303000628948,True,31,1
JJ-K-32K32S1,1012,experiment,100,→,right,→,0.551216599997133,True,31,1
JJ-K-32K32S1,1013,experiment,61,↑,up,↑,0.6286134000401944,True,31,1
JJ-K-32K32S1,1014,experiment,101,↑,up,↑,0.6892854999750853,True,31,1
JJ-K-32K32S1,1015,experiment,66,↓,down,↓,0.6073043998330832,True,31,1
JJ-K-32K32S1,1016,experiment,73,→,right,→,0.5984809000510722,True,31,1
JJ-K-32K32S1,1017,experiment,93,↓,down,↓,0.5191271000076085,True,31,1
JJ-K-32K32S1,1018,experiment,49,←,right,→,0.6260158999357373,False,31,1
JJ-K-32K32S1,1019,experiment,65,→,right,→,0.8749729001428932,True,31,1
JJ-K-32K32S1,1020,experiment,56,↑,up,↑,0.9970654998905957,True,31,1
JJ-K-32K32S1,1021,experiment,103,→,right,→,0.6264350002165884,True,31,1
JJ-K-32K32S1,1022,experiment,74,→,right,→,0.7924183998256922,True,31,1
JJ-K-32K32S1,1023,experiment,51,→,right,→,0.5195630001835525,True,31,1
JJ-K-32K32S1,1024,experiment,53,→,right,→,0.5610251999460161,True,31,1
JJ-K-32K32S1,1025,experiment,96,←,left,←,0.6101663000881672,True,31,1
JJ-K-32K32S1,1026,experiment,52,←,right,→,0.5764908001292497,False,31,1
JJ-K-32K32S1,1027,experiment,54,↓,down,↓,0.5671532000415027,True,31,1
JJ-K-32K32S1,1028,experiment,90,↑,up,↑,0.4983242000453174,True,31,1
JJ-K-32K32S1,1029,experiment,67,→,right,→,0.5677126999944448,True,31,1
JJ-K-32K32S1,1030,experiment,88,↓,down,↓,0.6353655999992043,True,31,1
JJ-K-32K32S1,1031,experiment,106,←,right,→,0.5903123000171036,False,31,1
JJ-K-32K32S1,1032,experiment,70,→,right,→,0.5431094998493791,True,31,1
JJ-K-32K32S1,1033,experiment,102,↓,down,↓,0.6231624998617917,True,31,1
JJ-K-32K32S1,1034,experiment,69,→,right,→,0.6148119000717998,True,31,1
JJ-K-32K32S1,1035,experiment,86,↑,up,↑,0.6412862001452595,True,31,1
JJ-K-32K32S1,1036,experiment,57,←,left,←,0.5402899000328034,True,31,1
JJ-K-32K32S1,1037,experiment,64,↑,up,↑,0.6891491999849677,True,31,1
JJ-K-32K32S1,1038,experiment,68,↑,down,↓,0.5743835000321269,False,31,1
JJ-K-32K32S1,1039,experiment,76,↓,down,↓,0.6379396999254823,True,31,1
JJ-K-32K32S1,1040,experiment,85,←,right,→,0.727663500001654,False,31,1
JJ-K-32K32S1,1041,experiment,77,→,left,←,0.7202486998867244,False,31,1
JJ-K-32K32S1,1042,experiment,79,→,right,→,0.6171761001460254,True,31,1
JJ-K-32K32S1,1043,experiment,63,↑,up,↑,0.7390596999321133,True,31,1
JJ-K-32K32S1,1044,experiment,59,↓,down,↓,0.6493776000570506,True,31,1
JJ-K-32K32S1,1045,experiment,78,←,left,←,0.8850979001726955,True,31,1
JJ-K-32K32S1,1046,experiment,99,→,left,←,0.7925500001292676,False,31,1
JJ-K-32K32S1,1047,experiment,71,↑,right,→,1.2089507998898625,False,31,1
JJ-K-32K32S1,1048,experiment,58,→,right,→,0.5971039000432938,True,31,1
JJ-K-32K32S1,1049,training,106,↓,up,↑,0.8245683999266475,False,31,0
JJ-K-32K32S1,1050,training,55,→,right,→,0.5490965000353754,True,31,1
JJ-K-32K32S1,1051,experiment,107,↑,up,↑,0.8431119001470506,True,31,1
JJ-K-32K32S1,1052,experiment,54,↓,up,↑,0.5430504998657852,False,31,1
JJ-K-32K32S1,1053,experiment,106,←,left,←,0.47793379984796047,True,31,1
JJ-K-32K32S1,1054,experiment,64,←,left,←,0.485444099875167,True,31,1
JJ-K-32K32S1,1055,experiment,59,↓,down,↓,0.6298886998556554,True,31,1
JJ-K-32K32S1,1056,experiment,71,→,right,→,0.548719400074333,True,31,1
JJ-K-32K32S1,1057,experiment,58,←,left,←,0.531266100006178,True,31,1
JJ-K-32K32S1,1058,experiment,56,→,right,→,0.6670317000243813,True,31,1
JJ-K-32K32S1,1059,experiment,75,↑,up,↑,0.5750719998031855,True,31,1
JJ-K-32K32S1,1060,experiment,79,←,left,←,0.5263116999994963,True,31,1
JJ-K-32K32S1,1061,experiment,80,→,left,←,0.5735405997838825,False,31,1
JJ-K-32K32S1,1062,experiment,99,→,right,→,0.5411644000560045,True,31,1
JJ-K-32K32S1,1063,experiment,83,↓,down,↓,0.7795156000647694,True,31,1
JJ-K-32K32S1,1064,experiment,70,↑,down,↓,0.5805640001781285,False,31,1
JJ-K-32K32S1,1065,experiment,92,→,right,→,0.5422604000195861,True,31,1
JJ-K-32K32S1,1066,experiment,62,←,left,←,0.8837150000035763,True,31,1
JJ-K-32K32S1,1067,experiment,61,←,left,←,0.5878456998616457,True,31,1
JJ-K-32K32S1,1068,experiment,49,↓,down,↓,0.6834745998494327,True,31,1
JJ-K-32K32S1,1069,experiment,90,→,right,→,0.5780471998732537,True,31,1
JJ-K-32K32S1,1070,experiment,63,→,right,→,0.7096953999716789,True,31,1
JJ-K-32K32S1,1071,experiment,66,→,right,→,0.5949518999550492,True,31,1
JJ-K-32K32S1,1072,experiment,94,↑,up,↑,0.5958335001487285,True,31,1
JJ-K-32K32S1,1073,experiment,108,→,right,→,0.5593952001072466,True,31,1
JJ-K-32K32S1,1074,experiment,91,↑,up,↑,0.746567599941045,True,31,1
JJ-K-32K32S1,1075,experiment,100,↑,up,↑,0.5791764000896364,True,31,1
JJ-K-32K32S1,1076,experiment,72,→,right,→,0.6435533000621945,True,31,1
JJ-K-32K32S1,1077,experiment,95,↑,up,↑,0.5616106998641044,True,31,1
JJ-K-32K32S1,1078,experiment,50,→,right,→,0.6022313998546451,True,31,1
JJ-K-32K32S1,1079,experiment,52,↑,up,↑,0.7048639999702573,True,31,1
JJ-K-32K32S1,1080,experiment,89,←,left,←,0.5424664998427033,True,31,1
JJ-K-32K32S1,1081,experiment,103,↓,up,↑,0.5021786000579596,False,31,1
JJ-K-32K32S1,1082,experiment,55,↓,down,↓,0.5916015000548214,True,31,1
JJ-K-32K32S1,1083,experiment,85,↑,up,↑,0.6112251000013202,True,31,1
JJ-K-32K32S1,1084,experiment,101,←,left,←,0.5289132001344115,True,31,1
JJ-K-32K32S1,1085,experiment,84,←,left,←,0.6241685999557376,True,31,1
JJ-K-32K32S1,1086,experiment,53,↓,down,↓,0.732706000097096,True,31,1
JJ-K-32K32S1,1087,experiment,57,←,left,←,0.5480523998849094,True,31,1
JJ-K-32K32S1,1088,experiment,69,←,left,←,0.5671034001279622,True,31,1
JJ-K-32K32S1,1089,experiment,78,←,left,←,0.5100374000612646,True,31,1
JJ-K-32K32S1,1090,experiment,67,→,right,→,0.6272116999607533,True,31,1
JJ-K-32K32S1,1091,experiment,74,↑,up,↑,0.5611580000258982,True,31,1
JJ-K-32K32S1,1092,experiment,73,↑,up,↑,0.5303493000101298,True,31,1
JJ-K-32K32S1,1093,experiment,104,←,left,←,0.5059468001127243,True,31,1
JJ-K-32K32S1,1094,experiment,60,↓,down,↓,0.7772864999715239,True,31,1
JJ-K-32K32S1,1095,experiment,68,→,right,→,0.6514024999924004,True,31,1
JJ-K-32K32S1,1096,experiment,98,←,left,←,0.5204123000148684,True,31,1
JJ-K-32K32S1,1097,experiment,86,↓,down,↓,0.7263797998894006,True,31,1
JJ-K-32K32S1,1098,experiment,65,↑,up,↑,0.5236968998797238,True,31,1
JJ-K-32K32S1,1099,experiment,96,↑,up,↑,0.6621821001172066,True,31,1
JJ-K-32K32S1,1100,experiment,77,↑,up,↑,0.5695470001082867,True,31,1
JJ-K-32K32S1,1101,experiment,51,←,left,←,0.5697332001291215,True,31,1
JJ-K-32K32S1,1102,experiment,102,→,right,→,0.5768959999550134,True,31,1
JJ-K-32K32S1,1103,experiment,105,←,left,←,0.48621250013820827,True,31,1
JJ-K-32K32S1,1104,experiment,88,→,right,→,0.6052492999006063,True,31,1
JJ-K-32K32S1,1105,experiment,48,↑,up,↑,0.4927302000578493,True,31,1
JJ-K-32K32S1,1106,experiment,76,←,left,←,0.47932730009779334,True,31,1
JJ-K-32K32S1,1107,experiment,81,↓,down,↓,0.6966889000032097,True,31,1
JJ-K-32K32S1,1108,experiment,93,↑,up,↑,0.557887899922207,True,31,1
JJ-K-32K32S1,1109,experiment,87,↑,up,↑,0.6098597999662161,True,31,1
JJ-K-32K32S1,1110,experiment,97,↑,up,↑,0.5608281998429447,True,31,1
JJ-K-32K32S1,1111,experiment,82,↑,up,↑,1.6310822998639196,True,31,1
JJ-K-32K32S1,1112,training,96,←,left,←,0.9293785998597741,True,30,0
JJ-K-32K32S1,1113,training,101,↓,down,↓,0.7383592000696808,True,30,1
JJ-K-32K32S1,1114,experiment,49,→,right,→,0.539824599865824,True,30,1
JJ-K-32K32S1,1115,experiment,97,→,right,→,0.5413182999473065,True,30,1
JJ-K-32K32S1,1116,experiment,64,↓,down,↓,0.6103827999904752,True,30,1
JJ-K-32K32S1,1117,experiment,85,↑,up,↑,0.5651912000030279,True,30,1
JJ-K-32K32S1,1118,experiment,72,→,right,→,0.4863709998317063,True,30,1
JJ-K-32K32S1,1119,experiment,59,↑,up,↑,0.4790731000248343,True,30,1
JJ-K-32K32S1,1120,experiment,102,←,left,←,0.673627199837938,True,30,1
JJ-K-32K32S1,1121,experiment,81,↑,up,↑,0.5233060999307781,True,30,1
JJ-K-32K32S1,1122,experiment,69,→,right,→,0.6148023998830467,True,30,1
JJ-K-32K32S1,1123,experiment,90,↑,up,↑,0.5680880001746118,True,30,1
JJ-K-32K32S1,1124,experiment,94,→,right,→,0.6338136999402195,True,30,1
JJ-K-32K32S1,1125,experiment,76,→,right,→,0.6227773001883179,True,30,1
JJ-K-32K32S1,1126,experiment,57,←,left,←,0.5385958000551909,True,30,1
JJ-K-32K32S1,1127,experiment,62,→,right,→,0.5838827998377383,True,30,1
JJ-K-32K32S1,1128,experiment,99,↑,up,↑,0.5673169000074267,True,30,1
JJ-K-32K32S1,1129,experiment,106,→,right,→,0.5570547999814153,True,30,1
JJ-K-32K32S1,1130,experiment,58,↑,up,↑,0.507137400098145,True,30,1
JJ-K-32K32S1,1131,experiment,78,→,right,→,0.6844631999265403,True,30,1
JJ-K-32K32S1,1132,experiment,55,↓,down,↓,0.7107063999865204,True,30,1
JJ-K-32K32S1,1133,experiment,60,↓,down,↓,0.6698417998850346,True,30,1
JJ-K-32K32S1,1134,experiment,80,←,left,←,0.6246308998670429,True,30,1
JJ-K-32K32S1,1135,experiment,74,→,right,→,0.5903225000947714,True,30,1
JJ-K-32K32S1,1136,experiment,56,↓,down,↓,0.73979949997738,True,30,1
JJ-K-32K32S1,1137,experiment,107,→,right,→,0.5541799000930041,True,30,1
JJ-K-32K32S1,1138,experiment,108,↑,up,↑,0.5676502001006156,True,30,1
JJ-K-32K32S1,1139,experiment,70,→,right,→,1.7292301000561565,True,30,1
JJ-K-32K32S1,1140,experiment,96,↓,down,↓,0.6513765000272542,True,30,1
JJ-K-32K32S1,1141,experiment,68,←,left,←,0.5306931999512017,True,30,1
JJ-K-32K32S1,1142,experiment,105,↓,down,↓,0.6979259001091123,True,30,1
JJ-K-32K32S1,1143,experiment,52,→,right,→,0.6282426998950541,True,30,1
JJ-K-32K32S1,1144,experiment,53,↑,down,↓,0.7774883999954909,False,30,1
JJ-K-32K32S1,1145,experiment,54,↑,up,↑,0.6560681001283228,True,30,1
JJ-K-32K32S1,1146,experiment,67,↓,down,↓,0.7991198999807239,True,30,1
JJ-K-32K32S1,1147,experiment,66,←,left,←,0.5767431000713259,True,30,1
JJ-K-32K32S1,1148,experiment,103,↑,up,↑,0.7030160999856889,True,30,1
JJ-K-32K32S1,1149,experiment,65,→,right,→,0.6051340999547392,True,30,1
JJ-K-32K32S1,1150,experiment,104,↓,down,↓,0.8656223998405039,True,30,1
JJ-K-32K32S1,1151,experiment,87,↑,no_key,no_letter,-1.0,False,30,1
JJ-K-32K32S1,1152,experiment,101,→,right,→,0.5791074999142438,True,30,1
JJ-K-32K32S1,1153,experiment,75,↑,up,↑,0.5701795001514256,True,30,1
JJ-K-32K32S1,1154,experiment,84,↑,up,↑,0.5430366999935359,True,30,1
JJ-K-32K32S1,1155,experiment,79,↑,up,↑,0.47885299986228347,True,30,1
JJ-K-32K32S1,1156,experiment,61,↓,down,↓,0.7107697001192719,True,30,1
JJ-K-32K32S1,1157,experiment,77,↑,up,↑,0.9041452999226749,True,30,1
JJ-K-32K32S1,1158,experiment,48,↓,down,↓,0.7396249999292195,True,30,1
JJ-K-32K32S1,1159,experiment,93,→,right,→,0.5106498999521136,True,30,1
JJ-K-32K32S1,1160,experiment,63,↓,down,↓,0.5487061999738216,True,30,1
JJ-K-32K32S1,1161,experiment,100,→,right,→,0.6610513001214713,True,30,1
JJ-K-32K32S1,1162,experiment,95,↓,down,↓,0.7389937001280487,True,30,1
JJ-K-32K32S1,1163,experiment,51,→,up,↑,0.5237176001537591,False,30,1
JJ-K-32K32S1,1164,experiment,89,↑,up,↑,0.6089817001484334,True,30,1
JJ-K-32K32S1,1165,experiment,91,←,left,←,0.44196349987760186,True,30,1
JJ-K-32K32S1,1166,experiment,86,←,left,←,0.5232398000080138,True,30,1
JJ-K-32K32S1,1167,experiment,98,↓,down,↓,0.7174126000609249,True,30,1
JJ-K-32K32S1,1168,experiment,88,←,left,←,0.49113349989056587,True,30,1
JJ-K-32K32S1,1169,experiment,92,←,left,←,0.5366199999116361,True,30,1
JJ-K-32K32S1,1170,experiment,50,→,right,→,0.6343145999126136,True,30,1
JJ-K-32K32S1,1171,experiment,73,↑,up,↑,0.6003612000495195,True,30,1
JJ-K-32K32S1,1172,experiment,71,↑,up,↑,0.6164591000415385,True,30,1
JJ-K-32K32S1,1173,experiment,82,←,left,←,0.5241564000025392,True,30,1
JJ-K-32K32S1,1174,experiment,83,→,right,→,0.7474648000206798,True,30,1
JJ-K-32K32S1,1175,training,101,→,right,→,0.6574946998152882,True,29,0
JJ-K-32K32S1,1176,training,49,←,left,←,0.462850300129503,True,29,1
JJ-K-32K32S1,1177,experiment,55,←,left,←,0.48180429986678064,True,29,1
JJ-K-32K32S1,1178,experiment,100,↓,down,↓,0.6608714000321925,True,29,1
JJ-K-32K32S1,1179,experiment,53,↓,down,↓,0.5527375000528991,True,29,1
JJ-K-32K32S1,1180,experiment,84,→,right,→,0.5662679998204112,True,29,1
JJ-K-32K32S1,1181,experiment,52,↑,up,↑,0.6702117000240833,True,29,1
JJ-K-32K32S1,1182,experiment,61,←,left,←,0.5267596000339836,True,29,1
JJ-K-32K32S1,1183,experiment,80,↓,down,↓,0.6707063000649214,True,29,1
JJ-K-32K32S1,1184,experiment,71,←,left,←,0.3928608000278473,True,29,1
JJ-K-32K32S1,1185,experiment,67,←,left,←,0.5172159001231194,True,29,0
JJ-K-32K32S1,1186,experiment,90,→,right,→,0.5301740998402238,True,29,1
JJ-K-32K32S1,1187,experiment,58,↓,down,↓,0.6251608000602573,True,29,1
JJ-K-32K32S1,1188,experiment,104,↑,up,↑,0.5976068000309169,True,29,1
JJ-K-32K32S1,1189,experiment,75,↓,down,↓,0.612041899934411,True,29,1
JJ-K-32K32S1,1190,experiment,65,→,right,→,0.6453817998990417,True,29,1
JJ-K-32K32S1,1191,experiment,78,→,right,→,0.5535720998886973,True,29,1
JJ-K-32K32S1,1192,experiment,95,↑,up,↑,0.7234255999792367,True,29,1
JJ-K-32K32S1,1193,experiment,57,→,right,→,0.6032823999412358,True,29,1
JJ-K-32K32S1,1194,experiment,51,↓,down,↓,0.6338313000742346,True,29,1
JJ-K-32K32S1,1195,experiment,106,←,left,←,0.5014074998907745,True,29,1
JJ-K-32K32S1,1196,experiment,63,→,right,→,0.5317260997835547,True,29,1
JJ-K-32K32S1,1197,experiment,92,←,left,←,0.7994518000632524,True,29,1
JJ-K-32K32S1,1198,experiment,107,↓,down,↓,0.7075335998088121,True,29,1
JJ-K-32K32S1,1199,experiment,102,↑,up,↑,0.5248022000305355,True,29,1
JJ-K-32K32S1,1200,experiment,79,←,left,←,0.7331874000374228,True,29,1
JJ-K-32K32S1,1201,experiment,68,↓,down,↓,0.6488727999385446,True,29,1
JJ-K-32K32S1,1202,experiment,49,←,left,←,0.5984173000324517,True,29,1
JJ-K-32K32S1,1203,experiment,105,↓,down,↓,0.6271106000058353,True,29,1
JJ-K-32K32S1,1204,experiment,97,↓,down,↓,0.6173521999735385,True,29,1
JJ-K-32K32S1,1205,experiment,77,→,right,→,0.6387289999984205,True,29,1
JJ-K-32K32S1,1206,experiment,101,↓,down,↓,0.6752086998894811,True,29,1
JJ-K-32K32S1,1207,experiment,87,←,left,←,0.5069662998430431,True,29,1
JJ-K-32K32S1,1208,experiment,103,↓,down,↓,0.48399259988218546,True,29,1
JJ-K-32K32S1,1209,experiment,74,↓,down,↓,0.6158010000362992,True,29,1
JJ-K-32K32S1,1210,experiment,85,←,left,←,0.5384506999980658,True,29,1
JJ-K-32K32S1,1211,experiment,66,↓,down,↓,0.5986051000654697,True,29,1
JJ-K-32K32S1,1212,experiment,86,←,left,←,0.5215962000656873,True,29,1
JJ-K-32K32S1,1213,experiment,60,←,left,←,0.6005150999408215,True,29,1
JJ-K-32K32S1,1214,experiment,88,←,left,←,0.586981600150466,True,29,1
JJ-K-32K32S1,1215,experiment,76,↑,up,↑,0.6656545998994261,True,29,1
JJ-K-32K32S1,1216,experiment,96,→,left,←,0.6868900000117719,False,29,1
JJ-K-32K32S1,1217,experiment,89,↑,left,←,1.1331211000215262,False,29,1
JJ-K-32K32S1,1218,experiment,98,↑,up,↑,0.7427143000531942,True,29,1
JJ-K-32K32S1,1219,experiment,59,→,left,←,0.5970916000660509,False,29,1
JJ-K-32K32S1,1220,experiment,94,←,left,←,0.6056009000167251,True,29,1
JJ-K-32K32S1,1221,experiment,69,↑,up,↑,0.54980230005458,True,29,1
JJ-K-32K32S1,1222,experiment,83,↑,up,↑,0.5321157998405397,True,29,1
JJ-K-32K32S1,1223,experiment,72,→,left,←,0.53429099987261,False,29,1
JJ-K-32K32S1,1224,experiment,73,→,right,→,0.5604968999978155,True,29,1
JJ-K-32K32S1,1225,experiment,50,↑,up,↑,0.5293958999682218,True,29,1
JJ-K-32K32S1,1226,experiment,56,↑,up,↑,0.6729280999861658,True,29,1
JJ-K-32K32S1,1227,experiment,93,↓,down,↓,0.7827184000052512,True,29,1
JJ-K-32K32S1,1228,experiment,99,↑,up,↑,0.573941299924627,True,29,1
JJ-K-32K32S1,1229,experiment,64,→,right,→,1.2654037000611424,True,29,1
JJ-K-32K32S1,1230,experiment,48,→,right,→,0.6545023999642581,True,29,1
JJ-K-32K32S1,1231,experiment,82,↑,up,↑,0.6403560000471771,True,29,1
JJ-K-32K32S1,1232,experiment,108,→,right,→,0.5946225000079721,True,29,1
JJ-K-32K32S1,1233,experiment,70,←,left,←,0.6515091999899596,True,29,1
JJ-K-32K32S1,1234,experiment,54,→,right,→,0.5430008000694215,True,29,1
JJ-K-32K32S1,1235,experiment,81,←,left,←,0.5900297998450696,True,29,1
JJ-K-32K32S1,1236,experiment,62,←,right,→,0.5534808000084013,False,29,1
JJ-K-32K32S1,1237,experiment,91,↑,up,↑,0.5409981999546289,True,29,1
JJ-K-32K32S1,1238,training,50,↑,up,↑,0.5110561000183225,True,28,0
JJ-K-32K32S1,1239,training,67,↑,up,↑,0.5880634000059217,True,28,1
JJ-K-32K32S1,1240,experiment,73,←,left,←,0.8597943999338895,True,28,1
JJ-K-32K32S1,1241,experiment,106,→,right,→,1.0939449998550117,True,28,1
JJ-K-32K32S1,1242,experiment,59,↑,up,↑,0.5421229999046773,True,28,1
JJ-K-32K32S1,1243,experiment,91,→,right,→,0.994040000019595,True,28,1
JJ-K-32K32S1,1244,experiment,87,↑,up,↑,0.5966372999828309,True,28,1
JJ-K-32K32S1,1245,experiment,81,↓,down,↓,0.7533096000552177,True,28,1
JJ-K-32K32S1,1246,experiment,99,↓,down,↓,0.5780476999934763,True,28,1
JJ-K-32K32S1,1247,experiment,71,↓,down,↓,0.7547931999433786,True,28,1
JJ-K-32K32S1,1248,experiment,63,↑,up,↑,0.5912886001169682,True,28,1
JJ-K-32K32S1,1249,experiment,88,←,left,←,0.601760399993509,True,28,1
JJ-K-32K32S1,1250,experiment,53,↓,down,↓,0.6796726000029594,True,28,1
JJ-K-32K32S1,1251,experiment,62,↑,up,↑,0.5432774999644607,True,28,1
JJ-K-32K32S1,1252,experiment,64,↓,down,↓,0.4600213000085205,True,28,1
JJ-K-32K32S1,1253,experiment,78,←,left,←,0.5190773999784142,True,28,1
JJ-K-32K32S1,1254,experiment,68,↑,left,←,0.6754809999838471,False,28,1
JJ-K-32K32S1,1255,experiment,79,→,left,←,0.5737155999522656,False,28,1
JJ-K-32K32S1,1256,experiment,101,↑,up,↑,0.7968935000244528,True,28,1
JJ-K-32K32S1,1257,experiment,65,←,left,←,0.5670162998139858,True,28,1
JJ-K-32K32S1,1258,experiment,83,↓,down,↓,0.7723773000761867,True,28,1
JJ-K-32K32S1,1259,experiment,103,→,right,→,0.5228726998902857,True,28,1
JJ-K-32K32S1,1260,experiment,96,←,left,←,0.6294738999567926,True,28,1
JJ-K-32K32S1,1261,experiment,86,↓,down,↓,0.7111194999888539,True,28,1
JJ-K-32K32S1,1262,experiment,94,←,left,←,0.4747671999502927,True,28,1
JJ-K-32K32S1,1263,experiment,67,↑,up,↑,0.5533290999010205,True,28,1
JJ-K-32K32S1,1264,experiment,50,←,left,←,0.7062110998667777,True,28,1
JJ-K-32K32S1,1265,experiment,85,→,left,←,0.5370408999733627,False,28,1
JJ-K-32K32S1,1266,experiment,56,←,left,←,0.5127830000128597,True,28,1
JJ-K-32K32S1,1267,experiment,102,←,left,←,0.4903337999712676,True,28,1
JJ-K-32K32S1,1268,experiment,92,↑,up,↑,0.6237554999534041,True,28,1
JJ-K-32K32S1,1269,experiment,60,→,left,←,0.5944581001531333,False,28,1
JJ-K-32K32S1,1270,experiment,54,→,right,→,0.6483318998944014,True,28,1
JJ-K-32K32S1,1271,experiment,61,→,left,←,0.6178061999380589,False,28,1
JJ-K-32K32S1,1272,experiment,48,←,left,←,0.5689604000654072,True,28,1
JJ-K-32K32S1,1273,experiment,84,↓,down,↓,0.7180036997888237,True,28,1
JJ-K-32K32S1,1274,experiment,66,→,right,→,0.6991896000690758,True,28,1
JJ-K-32K32S1,1275,experiment,82,→,right,→,0.5073514999821782,True,28,1
JJ-K-32K32S1,1276,experiment,72,↑,up,↑,0.5269694000016898,True,28,1
JJ-K-32K32S1,1277,experiment,100,→,right,→,0.471857100026682,True,28,1
JJ-K-32K32S1,1278,experiment,90,↓,down,↓,0.6946903001517057,True,28,1
JJ-K-32K32S1,1279,experiment,74,→,left,←,0.7859521000646055,False,28,1
JJ-K-32K32S1,1280,experiment,97,←,left,←,0.5535303000360727,True,28,1
JJ-K-32K32S1,1281,experiment,80,←,left,←,0.560796600067988,True,28,1
JJ-K-32K32S1,1282,experiment,89,↑,no_key,no_letter,-1.0,False,28,1
JJ-K-32K32S1,1283,experiment,58,↑,up,↑,0.5005148998461664,True,28,1
JJ-K-32K32S1,1284,experiment,107,↑,up,↑,0.37628549989312887,True,28,1
JJ-K-32K32S1,1285,experiment,70,↑,up,↑,0.5338128998409957,True,28,0
JJ-K-32K32S1,1286,experiment,49,←,left,←,0.5838713000994176,True,28,1
JJ-K-32K32S1,1287,experiment,104,↑,up,↑,0.5175634000916034,True,28,1
JJ-K-32K32S1,1288,experiment,51,←,left,←,0.4798588000703603,True,28,1
JJ-K-32K32S1,1289,experiment,55,↓,down,↓,0.7460348999593407,True,28,1
JJ-K-32K32S1,1290,experiment,105,↓,down,↓,0.9608722999691963,True,28,1
JJ-K-32K32S1,1291,experiment,76,↑,up,↑,0.5289236002136022,True,28,1
JJ-K-32K32S1,1292,experiment,108,↓,down,↓,0.5911040999926627,True,28,1
JJ-K-32K32S1,1293,experiment,95,↑,up,↑,0.6877383000683039,True,28,1
JJ-K-32K32S1,1294,experiment,69,→,right,→,0.5326571001205593,True,28,1
JJ-K-32K32S1,1295,experiment,93,↑,down,↓,0.7039400001522154,False,28,1
JJ-K-32K32S1,1296,experiment,75,↑,up,↑,0.5386087000370026,True,28,1
JJ-K-32K32S1,1297,experiment,77,→,right,→,0.46723329997621477,True,28,1
JJ-K-32K32S1,1298,experiment,52,→,right,→,0.8228678000159562,True,28,1
JJ-K-32K32S1,1299,experiment,57,←,left,←,0.52269780007191,True,28,1
JJ-K-32K32S1,1300,experiment,98,↓,down,↓,0.7725597000680864,True,28,1
JJ-K-32K32S1,1301,training,53,←,left,←,0.7660247997846454,True,28,0
JJ-K-32K32S1,1302,training,62,↑,up,↑,0.5863429000601172,True,28,1
JJ-K-32K32S1,1303,experiment,91,↓,down,↓,0.6198857000563294,True,28,1
JJ-K-32K32S1,1304,experiment,101,→,right,→,0.6412814999930561,True,28,1
JJ-K-32K32S1,1305,experiment,74,↓,down,↓,0.5982055000495166,True,28,1
JJ-K-32K32S1,1306,experiment,57,→,right,→,0.5552540000062436,True,28,1
JJ-K-32K32S1,1307,experiment,58,↑,up,↑,0.5372929000295699,True,28,1
JJ-K-32K32S1,1308,experiment,53,→,right,→,0.6097698998637497,True,28,1
JJ-K-32K32S1,1309,experiment,54,→,right,→,0.5190590999554843,True,28,1
JJ-K-32K32S1,1310,experiment,88,↑,left,←,0.4845598000101745,False,28,1
JJ-K-32K32S1,1311,experiment,84,↑,up,↑,0.5247772000730038,True,28,1
JJ-K-32K32S1,1312,experiment,69,→,right,→,0.6244659998919815,True,28,1
JJ-K-32K32S1,1313,experiment,98,←,right,→,0.5186489000916481,False,28,1
JJ-K-32K32S1,1314,experiment,70,→,right,→,0.5863008999731392,True,28,1
JJ-K-32K32S1,1315,experiment,100,→,right,→,0.521542500006035,True,28,1
JJ-K-32K32S1,1316,experiment,62,←,left,←,0.6476743998937309,True,28,1
JJ-K-32K32S1,1317,experiment,55,↓,down,↓,0.7470208001323044,True,28,1
JJ-K-32K32S1,1318,experiment,65,↑,up,↑,0.6710375999100506,True,28,1
JJ-K-32K32S1,1319,experiment,96,↑,up,↑,0.6916848998516798,True,28,1
JJ-K-32K32S1,1320,experiment,66,→,right,→,0.569734999909997,True,28,1
JJ-K-32K32S1,1321,experiment,90,→,right,→,0.6128523999359459,True,28,1
JJ-K-32K32S1,1322,experiment,99,↑,up,↑,0.5307823000475764,True,28,1
JJ-K-32K32S1,1323,experiment,102,↑,up,↑,0.6351923998445272,True,28,1
JJ-K-32K32S1,1324,experiment,73,←,left,←,0.61723170010373,True,28,1
JJ-K-32K32S1,1325,experiment,89,→,right,→,0.5466082999482751,True,28,1
JJ-K-32K32S1,1326,experiment,78,↓,down,↓,0.6902884999290109,True,28,1
JJ-K-32K32S1,1327,experiment,68,↓,down,↓,0.6238220001105219,True,28,1
JJ-K-32K32S1,1328,experiment,61,←,left,←,0.5382717999164015,True,28,1
JJ-K-32K32S1,1329,experiment,67,↓,down,↓,0.6779525000602007,True,28,1
JJ-K-32K32S1,1330,experiment,50,←,left,←,0.8499666000716388,True,28,1
JJ-K-32K32S1,1331,experiment,86,↑,up,↑,0.5708788998890668,True,28,1
JJ-K-32K32S1,1332,experiment,71,→,right,→,0.5560796000063419,True,28,1
JJ-K-32K32S1,1333,experiment,56,↑,up,↑,0.5469502999912947,True,28,1
JJ-K-32K32S1,1334,experiment,106,←,left,←,0.5532539999112487,True,28,1
JJ-K-32K32S1,1335,experiment,48,→,right,→,0.5949579000007361,True,28,1
JJ-K-32K32S1,1336,experiment,79,↑,left,←,0.8327446000184864,False,28,1
JJ-K-32K32S1,1337,experiment,92,↑,up,↑,0.5763697000220418,True,28,1
JJ-K-32K32S1,1338,experiment,63,↓,down,↓,0.6440558999311179,True,28,1
JJ-K-32K32S1,1339,experiment,77,→,right,→,0.5285732001066208,True,28,1
JJ-K-32K32S1,1340,experiment,108,↓,down,↓,0.6712712999433279,True,28,1
JJ-K-32K32S1,1341,experiment,64,↑,up,↑,0.494654200039804,True,28,1
JJ-K-32K32S1,1342,experiment,76,←,left,←,0.6333602000959218,True,28,1
JJ-K-32K32S1,1343,experiment,49,→,right,→,0.5114305999595672,True,28,1
JJ-K-32K32S1,1344,experiment,94,←,right,→,0.6355312999803573,False,28,1
JJ-K-32K32S1,1345,experiment,85,←,left,←,0.5177486999891698,True,28,1
JJ-K-32K32S1,1346,experiment,104,↑,up,↑,0.7661445999983698,True,28,1
JJ-K-32K32S1,1347,experiment,82,↓,down,↓,0.6516668999101967,True,28,1
JJ-K-32K32S1,1348,experiment,97,↓,down,↓,0.513046900043264,True,28,1
JJ-K-32K32S1,1349,experiment,107,→,right,→,0.5527128002140671,True,28,1
JJ-K-32K32S1,1350,experiment,105,↓,down,↓,0.582772099878639,True,28,1
JJ-K-32K32S1,1351,experiment,93,↑,up,↑,0.6640765001066029,True,28,1
JJ-K-32K32S1,1352,experiment,60,→,right,→,0.5613240997772664,True,28,1
JJ-K-32K32S1,1353,experiment,75,→,right,→,0.6891160001978278,True,28,1
JJ-K-32K32S1,1354,experiment,80,←,left,←,0.6586851999163628,True,28,1
JJ-K-32K32S1,1355,experiment,72,↑,up,↑,0.5519642999861389,True,28,1
JJ-K-32K32S1,1356,experiment,83,→,right,→,0.5336446000728756,True,28,1
JJ-K-32K32S1,1357,experiment,87,↓,down,↓,0.6591797999572009,True,28,1
JJ-K-32K32S1,1358,experiment,81,↓,down,↓,0.6614805001299828,True,28,1
JJ-K-32K32S1,1359,experiment,51,↓,down,↓,0.569609799887985,True,28,1
JJ-K-32K32S1,1360,experiment,52,↑,down,↓,0.5374447999056429,False,28,1
JJ-K-32K32S1,1361,experiment,95,←,left,←,0.5955968000926077,True,28,1
JJ-K-32K32S1,1362,experiment,103,↓,down,↓,0.5852461999747902,True,28,1
JJ-K-32K32S1,1363,experiment,59,←,left,←,0.5818878000136465,True,28,1
JJ-K-32K32S1,1364,training,101,→,left,←,0.7556189999449998,False,28,0
JJ-K-32K32S1,1365,training,65,↓,down,↓,0.6630584001541138,True,28,1
JJ-K-32K32S1,1366,experiment,71,↑,down,↓,1.068526699906215,False,28,1
JJ-K-32K32S1,1367,experiment,84,↓,down,↓,0.5815059000160545,True,28,1
JJ-K-32K32S1,1368,experiment,61,↑,up,↑,0.6978593000676483,True,28,1
JJ-K-32K32S1,1369,experiment,91,←,left,←,0.5909448999445885,True,28,1
JJ-K-32K32S1,1370,experiment,82,→,right,→,0.5556645998731256,True,28,1
JJ-K-32K32S1,1371,experiment,100,→,right,→,0.6035395001526922,True,28,1
JJ-K-32K32S1,1372,experiment,97,↑,up,↑,0.5628037999849766,True,28,1
JJ-K-32K32S1,1373,experiment,53,←,left,←,0.6581377999391407,True,28,1
JJ-K-32K32S1,1374,experiment,60,↓,down,↓,0.6916476001497358,True,28,1
JJ-K-32K32S1,1375,experiment,94,↓,right,→,1.0481646000407636,False,28,1
JJ-K-32K32S1,1376,experiment,74,↑,down,↓,1.277170400135219,False,28,1
JJ-K-32K32S1,1377,experiment,102,→,right,→,0.6235642000101507,True,28,1
JJ-K-32K32S1,1378,experiment,52,→,left,←,0.6209696000441909,False,28,1
JJ-K-32K32S1,1379,experiment,57,←,left,←,0.5687319000717252,True,28,1
JJ-K-32K32S1,1380,experiment,50,←,left,←,0.5051678000018001,True,28,1
JJ-K-32K32S1,1381,experiment,68,←,no_key,no_letter,-1.0,False,28,1
JJ-K-32K32S1,1382,experiment,105,↑,up,↑,0.6062117998953909,True,28,1
JJ-K-32K32S1,1383,experiment,76,↓,down,↓,0.6923116000834852,True,28,1
JJ-K-32K32S1,1384,experiment,58,↓,down,↓,0.6613611998036504,True,28,1
JJ-K-32K32S1,1385,experiment,106,↑,down,↓,1.1512655999977142,False,28,1
JJ-K-32K32S1,1386,experiment,70,→,left,←,0.6494511000346392,False,28,1
JJ-K-32K32S1,1387,experiment,73,↓,down,↓,0.5028399000875652,True,28,1
JJ-K-32K32S1,1388,experiment,79,←,left,←,0.5762630999088287,True,28,1
JJ-K-32K32S1,1389,experiment,103,↑,up,↑,0.5586286000907421,True,28,1
JJ-K-32K32S1,1390,experiment,66,→,left,←,0.6340563001576811,False,28,1
JJ-K-32K32S1,1391,experiment,55,→,right,→,0.5421998000238091,True,28,1
JJ-K-32K32S1,1392,experiment,81,←,right,→,0.5730558999348432,False,28,1
JJ-K-32K32S1,1393,experiment,75,↑,up,↑,0.5888452001381665,True,28,1
JJ-K-32K32S1,1394,experiment,107,↑,up,↑,0.7291884999722242,True,28,1
JJ-K-32K32S1,1395,experiment,99,→,left,←,0.7546368998009712,False,28,1
JJ-K-32K32S1,1396,experiment,64,→,right,→,0.5911443999502808,True,28,1
JJ-K-32K32S1,1397,experiment,98,↑,up,↑,0.6063630999997258,True,28,1
JJ-K-32K32S1,1398,experiment,108,↓,down,↓,0.5696815999690443,True,28,1
JJ-K-32K32S1,1399,experiment,62,↑,up,↑,0.6063605998642743,True,28,1
JJ-K-32K32S1,1400,experiment,96,←,left,←,0.7014657999388874,True,28,1
JJ-K-32K32S1,1401,experiment,54,←,left,←,0.7350745000876486,True,28,1
JJ-K-32K32S1,1402,experiment,59,←,left,←,0.6059942999854684,True,28,1
JJ-K-32K32S1,1403,experiment,56,↓,left,←,0.5388088000472635,False,28,1
JJ-K-32K32S1,1404,experiment,88,↑,up,↑,0.7755022998899221,True,28,1
JJ-K-32K32S1,1405,experiment,49,↑,up,↑,0.5198965999297798,True,28,1
