PART_ID,Trial_no,Trial_type,CSI,Stim_letter,Key_pressed,letter_choose,Rt,Corr,Stimulus Time,nDropped
KS-K-21K21S2,1,training,120,←,left,←,0.7744857000652701,True,60,1
KS-K-21K21S2,2,training,120,↑,up,↑,0.35159229999408126,True,60,0
KS-K-21K21S2,3,training,120,←,left,←,0.3700488999020308,True,60,0
KS-K-21K21S2,4,training,120,←,left,←,0.35250520007684827,True,60,0
KS-K-21K21S2,5,training,120,→,right,→,0.41921439999714494,True,60,0
KS-K-21K21S2,6,training,120,↓,down,↓,0.6992127001285553,True,60,0
KS-K-21K21S2,7,training,120,←,left,←,0.3685266000684351,True,60,0
KS-K-21K21S2,8,training,120,→,right,→,0.40997759997844696,True,60,0
KS-K-21K21S2,9,training,120,←,left,←,0.5420438000001013,True,60,0
KS-K-21K21S2,10,training,120,→,no_key,no_letter,-1.0,False,60,0
KS-K-21K21S2,11,training,120,←,left,←,0.5004386000800878,True,60,0
KS-K-21K21S2,12,training,120,↓,down,↓,0.6097685999702662,True,60,0
KS-K-21K21S2,13,training,120,→,right,→,0.5004285001195967,True,60,0
KS-K-21K21S2,14,training,120,↑,up,↑,0.611290100030601,True,60,0
KS-K-21K21S2,15,training,120,↑,up,↑,0.4102040999568999,True,60,0
KS-K-21K21S2,16,training,120,←,left,←,0.4269235001411289,True,60,0
KS-K-21K21S2,17,training,120,↓,down,↓,0.7260085002053529,True,60,0
KS-K-21K21S2,18,training,120,↑,up,↑,0.4183207000605762,True,60,0
KS-K-21K21S2,19,training,120,→,right,→,0.4518897000234574,True,60,0
KS-K-21K21S2,20,training,120,↓,down,↓,0.6786801998969167,True,60,0
KS-K-21K21S2,21,no_adaptation,120,↑,up,↑,0.6611363999545574,True,36,0
KS-K-21K21S2,22,no_adaptation,120,↑,up,↑,0.3594969001132995,True,36,0
KS-K-21K21S2,23,no_adaptation,120,↓,down,↓,0.5055784999858588,True,36,0
KS-K-21K21S2,24,no_adaptation,120,↑,up,↑,0.3506129998713732,True,36,0
KS-K-21K21S2,25,no_adaptation,120,←,left,←,0.4512188001535833,True,36,0
KS-K-21K21S2,26,no_adaptation,120,→,right,→,0.5538230000529438,True,36,0
KS-K-21K21S2,27,no_adaptation,120,←,left,←,0.5467743999324739,True,36,0
KS-K-21K21S2,28,no_adaptation,120,←,left,←,0.43456969992257655,True,36,0
KS-K-21K21S2,29,no_adaptation,120,←,left,←,0.47392080002464354,True,36,0
KS-K-21K21S2,30,no_adaptation,120,→,right,→,0.6049726998899132,True,36,0
KS-K-21K21S2,31,no_adaptation,120,↓,down,↓,0.7314770000521094,True,36,0
KS-K-21K21S2,32,no_adaptation,120,↓,down,↓,0.5813217000104487,True,36,0
KS-K-21K21S2,33,no_adaptation,120,→,right,→,0.4340969000477344,True,36,0
KS-K-21K21S2,34,no_adaptation,120,←,left,←,0.6747916999738663,True,36,0
KS-K-21K21S2,35,no_adaptation,120,←,left,←,0.5427733000833541,True,36,0
KS-K-21K21S2,36,no_adaptation,120,↓,down,↓,0.6959583999123424,True,36,0
KS-K-21K21S2,37,no_adaptation,120,↑,up,↑,0.6110686000902206,True,36,0
KS-K-21K21S2,38,no_adaptation,120,↓,down,↓,0.6177225999999791,True,36,0
KS-K-21K21S2,39,no_adaptation,120,↓,down,↓,0.5437833999749273,True,36,0
KS-K-21K21S2,40,no_adaptation,120,→,right,→,0.425315200118348,True,36,0
KS-K-21K21S2,41,training,75,↑,up,↑,0.49017350003123283,True,36,0
KS-K-21K21S2,42,training,85,↓,down,↓,0.5698520001024008,True,36,1
KS-K-21K21S2,43,experiment,61,→,right,→,0.5266059001442045,True,36,1
KS-K-21K21S2,44,experiment,73,→,left,←,0.4738032000605017,False,36,1
KS-K-21K21S2,45,experiment,83,→,right,→,0.53808440011926,True,36,0
KS-K-21K21S2,46,experiment,87,→,right,→,0.5352622999344021,True,36,1
KS-K-21K21S2,47,experiment,49,↓,down,↓,0.5533322999253869,True,36,1
KS-K-21K21S2,48,experiment,81,↑,up,↑,0.5280339000746608,True,36,1
KS-K-21K21S2,49,experiment,105,←,left,←,0.4258834000211209,True,36,1
KS-K-21K21S2,50,experiment,85,↓,down,↓,0.5132846001069993,True,36,0
KS-K-21K21S2,51,experiment,71,↓,down,↓,0.6372476001270115,True,36,1
KS-K-21K21S2,52,experiment,64,→,right,→,0.38425159989856184,True,36,1
KS-K-21K21S2,53,experiment,59,←,left,←,0.8022312999237329,True,36,1
KS-K-21K21S2,54,experiment,57,←,left,←,0.37565890001133084,True,36,1
KS-K-21K21S2,55,experiment,103,↑,up,↑,0.5893703999463469,True,36,0
KS-K-21K21S2,56,experiment,56,→,right,→,0.427719300147146,True,36,1
KS-K-21K21S2,57,experiment,86,↓,down,↓,0.5000327997840941,True,36,1
KS-K-21K21S2,58,experiment,68,↓,down,↓,0.5127872999291867,True,36,1
KS-K-21K21S2,59,experiment,53,←,left,←,0.5943839000537992,True,36,1
KS-K-21K21S2,60,experiment,108,↓,down,↓,0.442118699895218,True,36,1
KS-K-21K21S2,61,experiment,52,←,left,←,1.0271735999267548,True,36,0
KS-K-21K21S2,62,experiment,67,→,right,→,0.3422030000947416,True,36,1
KS-K-21K21S2,63,experiment,90,←,left,←,0.3594843000173569,True,36,0
KS-K-21K21S2,64,experiment,48,→,right,→,0.5357317000161856,True,36,0
KS-K-21K21S2,65,experiment,107,↑,up,↑,0.3589574999641627,True,36,1
KS-K-21K21S2,66,experiment,89,↑,up,↑,0.6016448000445962,True,36,0
KS-K-21K21S2,67,experiment,75,↓,down,↓,0.480629000114277,True,36,1
KS-K-21K21S2,68,experiment,100,↑,up,↑,0.5393693000078201,True,36,1
KS-K-21K21S2,69,experiment,60,↑,up,↑,0.33357659983448684,True,36,1
KS-K-21K21S2,70,experiment,65,↑,up,↑,0.2767299998085946,True,36,0
KS-K-21K21S2,71,experiment,58,↑,up,↑,0.26868829992599785,True,36,0
KS-K-21K21S2,72,experiment,63,↓,down,↓,0.6933476000558585,True,36,0
KS-K-21K21S2,73,experiment,66,→,right,→,0.6913699000142515,True,36,1
KS-K-21K21S2,74,experiment,51,→,right,→,0.35108300019055605,True,36,1
KS-K-21K21S2,75,experiment,84,↓,down,↓,0.48388219997286797,True,36,1
KS-K-21K21S2,76,experiment,93,→,right,→,0.6011297998484224,True,36,1
KS-K-21K21S2,77,experiment,76,→,right,→,0.4511221998836845,True,36,1
KS-K-21K21S2,78,experiment,98,↓,down,↓,0.5242587998509407,True,36,1
KS-K-21K21S2,79,experiment,101,←,left,←,0.4428003001958132,True,36,1
KS-K-21K21S2,80,experiment,69,→,right,→,0.5240545999258757,True,36,1
KS-K-21K21S2,81,experiment,54,↑,up,↑,0.5810057001654059,True,36,1
KS-K-21K21S2,82,experiment,91,↓,down,↓,0.5828187000006437,True,36,1
KS-K-21K21S2,83,experiment,104,↑,up,↑,0.34200479998253286,True,36,1
KS-K-21K21S2,84,experiment,82,↑,up,↑,0.48293870012275875,True,36,0
KS-K-21K21S2,85,experiment,79,↑,up,↑,0.5170934000052512,True,36,1
KS-K-21K21S2,86,experiment,50,→,right,→,0.5433992999605834,True,36,1
KS-K-21K21S2,87,experiment,72,↓,down,↓,0.5216574999503791,True,36,1
KS-K-21K21S2,88,experiment,97,↑,up,↑,0.48417819989845157,True,36,1
KS-K-21K21S2,89,experiment,88,↑,up,↑,0.3510762001387775,True,36,1
KS-K-21K21S2,90,experiment,92,←,left,←,0.38479659985750914,True,36,1
KS-K-21K21S2,91,experiment,96,←,left,←,0.5261945000384003,True,36,0
KS-K-21K21S2,92,experiment,80,↑,up,↑,0.29196940013207495,True,36,1
KS-K-21K21S2,93,experiment,102,↓,up,↑,0.29218270001001656,False,36,0
KS-K-21K21S2,94,experiment,95,↑,no_key,no_letter,-1.0,False,36,0
KS-K-21K21S2,95,experiment,106,←,left,←,0.5532693001441658,True,36,1
KS-K-21K21S2,96,experiment,94,↓,down,↓,1.0435023999307305,True,36,1
KS-K-21K21S2,97,experiment,62,↓,down,↓,0.6608856001403183,True,36,1
KS-K-21K21S2,98,experiment,77,↓,down,↓,0.6566896999720484,True,36,1
KS-K-21K21S2,99,experiment,70,←,left,←,0.4867777000181377,True,36,1
KS-K-21K21S2,100,experiment,99,↑,up,↑,0.553598300088197,True,36,1
KS-K-21K21S2,101,experiment,55,↓,down,↓,0.8886805002111942,True,36,1
KS-K-21K21S2,102,experiment,74,→,right,→,0.6604260001331568,True,36,1
KS-K-21K21S2,103,experiment,78,→,right,→,0.5196673001628369,True,36,1
KS-K-21K21S2,104,training,59,←,left,←,0.6851204999256879,True,35,0
KS-K-21K21S2,105,training,61,→,right,→,0.6612265999428928,True,35,1
KS-K-21K21S2,106,experiment,104,↓,down,↓,0.4959017999935895,True,35,1
KS-K-21K21S2,107,experiment,49,←,left,←,1.1793919999618083,True,35,1
KS-K-21K21S2,108,experiment,90,→,right,→,0.5735924001783133,True,35,1
KS-K-21K21S2,109,experiment,58,←,left,←,0.5472297000233084,True,35,1
KS-K-21K21S2,110,experiment,98,↑,up,↑,0.5001095999032259,True,35,1
KS-K-21K21S2,111,experiment,92,←,left,←,0.3677886000368744,True,35,1
KS-K-21K21S2,112,experiment,86,↑,up,↑,0.3752697999589145,True,35,1
KS-K-21K21S2,113,experiment,71,←,left,←,0.46222330001182854,True,35,0
KS-K-21K21S2,114,experiment,94,←,left,←,0.3510290998965502,True,35,0
KS-K-21K21S2,115,experiment,96,↓,down,↓,0.48536930000409484,True,35,0
KS-K-21K21S2,116,experiment,67,↓,down,↓,0.7071952999103814,True,35,1
KS-K-21K21S2,117,experiment,91,→,right,→,0.3589657999109477,True,35,1
KS-K-21K21S2,118,experiment,82,←,left,←,0.35129260015673935,True,35,0
KS-K-21K21S2,119,experiment,77,←,left,←,0.5259382000658661,True,35,0
KS-K-21K21S2,120,experiment,62,↓,down,↓,0.6998130001593381,True,35,1
KS-K-21K21S2,121,experiment,102,←,left,←,0.5736060999333858,True,35,1
KS-K-21K21S2,122,experiment,84,→,right,→,0.3843976000789553,True,35,1
KS-K-21K21S2,123,experiment,81,↑,up,↑,0.5674728001467884,True,35,0
KS-K-21K21S2,124,experiment,75,↓,down,↓,0.5116135000716895,True,35,1
KS-K-21K21S2,125,experiment,101,←,left,←,0.40061690006405115,True,35,1
KS-K-21K21S2,126,experiment,79,←,left,←,0.5023048999719322,True,35,0
KS-K-21K21S2,127,experiment,48,↑,up,↑,0.35949389985762537,True,35,1
KS-K-21K21S2,128,experiment,78,↓,down,↓,0.6413769999053329,True,35,1
KS-K-21K21S2,129,experiment,88,↓,down,↓,0.7457684001419693,True,35,1
KS-K-21K21S2,130,experiment,99,→,right,→,0.6105549999047071,True,35,1
KS-K-21K21S2,131,experiment,59,↑,up,↑,0.757905500009656,True,35,1
KS-K-21K21S2,132,experiment,55,↑,up,↑,0.4427279999945313,True,35,1
KS-K-21K21S2,133,experiment,66,↑,up,↑,0.3508770000189543,True,35,0
KS-K-21K21S2,134,experiment,97,↓,down,↓,0.6618860000744462,True,35,1
KS-K-21K21S2,135,experiment,65,↑,up,↑,0.40065630013123155,True,35,1
KS-K-21K21S2,136,experiment,103,→,right,→,0.3588370999787003,True,35,0
KS-K-21K21S2,137,experiment,74,←,left,←,0.6828306999523193,True,35,0
KS-K-21K21S2,138,experiment,60,↓,down,↓,0.6671141998376697,True,35,1
KS-K-21K21S2,139,experiment,85,→,right,→,0.571963099995628,True,35,1
KS-K-21K21S2,140,experiment,56,→,right,→,0.5862998000811785,True,35,1
KS-K-21K21S2,141,experiment,54,↑,up,↑,0.5764028001576662,True,35,1
KS-K-21K21S2,142,experiment,53,↑,up,↑,0.5922701000235975,True,35,1
KS-K-21K21S2,143,experiment,100,↓,down,↓,0.6621476002037525,True,35,1
KS-K-21K21S2,144,experiment,68,→,right,→,0.508345799986273,True,35,1
KS-K-21K21S2,145,experiment,52,↑,up,↑,0.3595606000162661,True,35,1
KS-K-21K21S2,146,experiment,87,↑,up,↑,0.35053990012966096,True,35,0
KS-K-21K21S2,147,experiment,69,←,right,→,0.4171760999597609,False,35,0
KS-K-21K21S2,148,experiment,64,←,left,←,0.5346429001074284,True,35,0
KS-K-21K21S2,149,experiment,93,→,right,→,0.3846082000527531,True,35,1
KS-K-21K21S2,150,experiment,83,↑,up,↑,0.37644580006599426,True,35,1
KS-K-21K21S2,151,experiment,89,→,right,→,0.48916570004075766,True,35,1
KS-K-21K21S2,152,experiment,107,↑,up,↑,0.3764839000068605,True,35,1
KS-K-21K21S2,153,experiment,70,↓,down,↓,0.7068225999828428,True,35,0
KS-K-21K21S2,154,experiment,95,→,right,→,0.6544535998255014,True,35,1
KS-K-21K21S2,155,experiment,50,↓,down,↓,0.4749336999375373,True,35,1
KS-K-21K21S2,156,experiment,63,↑,up,↑,0.46675819996744394,True,35,1
KS-K-21K21S2,157,experiment,57,←,left,←,0.39279689989052713,True,35,0
KS-K-21K21S2,158,experiment,61,↑,up,↑,0.350794899975881,True,35,1
KS-K-21K21S2,159,experiment,76,→,right,→,0.5843883999623358,True,35,0
KS-K-21K21S2,160,experiment,80,↑,up,↑,0.3514960999600589,True,35,1
KS-K-21K21S2,161,experiment,108,→,right,→,0.38343349983915687,True,35,0
KS-K-21K21S2,162,experiment,72,↑,up,↑,0.46813950012438,True,35,0
KS-K-21K21S2,163,experiment,106,↑,up,↑,0.5334879998117685,True,35,1
KS-K-21K21S2,164,experiment,73,→,right,→,0.5834447999950498,True,35,1
KS-K-21K21S2,165,experiment,105,←,left,←,0.5328820999711752,True,35,1
KS-K-21K21S2,166,experiment,51,→,right,→,0.7342974001076072,True,35,1
KS-K-21K21S2,167,training,93,↓,down,↓,0.6727199000306427,True,34,0
KS-K-21K21S2,168,training,100,→,no_key,no_letter,-1.0,False,34,1
KS-K-21K21S2,169,experiment,51,↓,down,↓,0.7887585000135005,True,34,1
KS-K-21K21S2,170,experiment,94,↓,down,↓,0.6934162001125515,True,34,1
KS-K-21K21S2,171,experiment,82,↑,up,↑,0.5502180000767112,True,34,1
KS-K-21K21S2,172,experiment,56,→,right,→,0.5653609000146389,True,34,1
KS-K-21K21S2,173,experiment,80,→,right,→,0.3929968001320958,True,34,1
KS-K-21K21S2,174,experiment,84,↓,down,↓,0.6393917999230325,True,34,0
KS-K-21K21S2,175,experiment,93,↑,up,↑,0.5423428998328745,True,34,1
KS-K-21K21S2,176,experiment,60,→,right,→,0.4608064000494778,True,34,1
KS-K-21K21S2,177,experiment,67,↓,down,↓,0.4753062999807298,True,34,1
KS-K-21K21S2,178,experiment,101,←,left,←,0.3761279999744147,True,34,1
KS-K-21K21S2,179,experiment,61,←,left,←,0.3676967998035252,True,34,0
KS-K-21K21S2,180,experiment,72,←,left,←,0.5149439999368042,True,34,0
KS-K-21K21S2,181,experiment,95,←,left,←,0.3755812000017613,True,34,1
KS-K-21K21S2,182,experiment,105,←,left,←,0.49182739993557334,True,34,0
KS-K-21K21S2,183,experiment,78,↑,up,↑,0.3921192998532206,True,34,1
KS-K-21K21S2,184,experiment,49,↑,up,↑,0.35015229997225106,True,34,0
KS-K-21K21S2,185,experiment,99,↑,up,↑,0.5979104000143707,True,34,0
KS-K-21K21S2,186,experiment,48,←,left,←,0.46970269992016256,True,34,1
KS-K-21K21S2,187,experiment,102,↑,left,←,0.308776400052011,False,34,1
KS-K-21K21S2,188,experiment,73,↑,no_key,no_letter,-1.0,False,34,0
KS-K-21K21S2,189,experiment,107,←,left,←,0.48115860018879175,True,34,1
KS-K-21K21S2,190,experiment,85,↑,up,↑,0.5609997999854386,True,34,1
KS-K-21K21S2,191,experiment,91,→,up,↑,0.4836687999777496,False,34,1
KS-K-21K21S2,192,experiment,76,←,left,←,0.4628202999010682,True,34,1
KS-K-21K21S2,193,experiment,89,→,right,→,0.4781063999980688,True,34,1
KS-K-21K21S2,194,experiment,81,↓,down,↓,0.687558300094679,True,34,1
KS-K-21K21S2,195,experiment,106,→,no_key,no_letter,-1.0,False,34,1
KS-K-21K21S2,196,experiment,87,↓,down,↓,0.5646170999389142,True,34,1
KS-K-21K21S2,197,experiment,52,↓,down,↓,0.46079510007984936,True,34,1
KS-K-21K21S2,198,experiment,66,↑,up,↑,0.603475600015372,True,34,1
KS-K-21K21S2,199,experiment,62,←,left,←,0.8946869999635965,True,34,1
KS-K-21K21S2,200,experiment,100,↑,up,↑,0.7290479999501258,True,34,1
KS-K-21K21S2,201,experiment,98,↑,up,↑,0.5390327000059187,True,34,1
KS-K-21K21S2,202,experiment,77,→,right,→,0.6354277001228184,True,34,1
KS-K-21K21S2,203,experiment,54,←,left,←,0.6555510999169201,True,34,1
KS-K-21K21S2,204,experiment,92,→,right,→,0.6141547001898289,True,34,1
KS-K-21K21S2,205,experiment,96,↓,down,↓,0.885336099890992,True,34,1
KS-K-21K21S2,206,experiment,108,←,left,←,0.40945639996789396,True,34,1
KS-K-21K21S2,207,experiment,75,←,left,←,0.392875500023365,True,34,0
KS-K-21K21S2,208,experiment,50,←,left,←,0.3928376999683678,True,34,0
KS-K-21K21S2,209,experiment,97,↑,up,↑,0.5378600999247283,True,34,1
KS-K-21K21S2,210,experiment,74,↓,down,↓,0.4753485999535769,True,34,1
KS-K-21K21S2,211,experiment,86,←,left,←,0.3837943999096751,True,34,1
KS-K-21K21S2,212,experiment,55,↓,down,↓,0.5610603999812156,True,34,0
KS-K-21K21S2,213,experiment,53,←,left,←,0.4888406000100076,True,34,1
KS-K-21K21S2,214,experiment,65,←,left,←,0.33419559989124537,True,34,1
KS-K-21K21S2,215,experiment,71,→,right,→,0.6898355998564512,True,34,0
KS-K-21K21S2,216,experiment,58,↓,down,↓,0.49841880006715655,True,34,1
KS-K-21K21S2,217,experiment,64,↑,up,↑,0.3695288000162691,True,34,1
KS-K-21K21S2,218,experiment,69,←,left,←,0.37561170011758804,True,34,1
KS-K-21K21S2,219,experiment,90,→,right,→,0.6368077001534402,True,34,0
KS-K-21K21S2,220,experiment,68,↓,down,↓,0.4841909999959171,True,34,1
KS-K-21K21S2,221,experiment,104,→,right,→,0.5338882999494672,True,34,1
KS-K-21K21S2,222,experiment,63,←,left,←,0.5153578000608832,True,34,1
KS-K-21K21S2,223,experiment,57,↓,down,↓,0.6594517000485212,True,34,1
KS-K-21K21S2,224,experiment,83,↑,up,↑,0.6934046999085695,True,34,1
KS-K-21K21S2,225,experiment,59,↓,down,↓,0.5414726000744849,True,34,1
KS-K-21K21S2,226,experiment,88,←,left,←,0.40116979996673763,True,34,1
KS-K-21K21S2,227,experiment,79,→,right,→,0.46328549995087087,True,34,0
KS-K-21K21S2,228,experiment,70,↓,down,↓,0.6689565000124276,True,34,1
KS-K-21K21S2,229,experiment,103,↓,down,↓,0.5356948000844568,True,34,1
KS-K-21K21S2,230,training,49,↓,down,↓,0.6060874001123011,True,33,0
KS-K-21K21S2,231,training,77,↑,up,↑,0.6434257999062538,True,33,1
KS-K-21K21S2,232,experiment,95,↓,down,↓,0.48208440002053976,True,33,1
KS-K-21K21S2,233,experiment,66,→,right,→,0.40147899999283254,True,33,1
KS-K-21K21S2,234,experiment,56,↓,down,↓,0.7171606998890638,True,33,1
KS-K-21K21S2,235,experiment,89,←,down,↓,0.922677299939096,False,33,1
KS-K-21K21S2,236,experiment,78,↑,up,↑,0.4092524000443518,True,33,1
KS-K-21K21S2,237,experiment,99,↓,down,↓,0.4733728999271989,True,33,0
KS-K-21K21S2,238,experiment,84,→,right,→,0.4109326000325382,True,33,1
KS-K-21K21S2,239,experiment,68,→,right,→,0.3593397999648005,True,33,0
KS-K-21K21S2,240,experiment,65,↑,up,↑,0.5575578999705613,True,33,1
KS-K-21K21S2,241,experiment,102,↑,up,↑,0.3585464998614043,True,33,1
KS-K-21K21S2,242,experiment,82,↑,up,↑,0.33373369998298585,True,33,0
KS-K-21K21S2,243,experiment,67,↓,down,↓,0.670531699899584,True,33,0
KS-K-21K21S2,244,experiment,106,←,left,←,0.3777859997935593,True,33,1
KS-K-21K21S2,245,experiment,55,↓,down,↓,0.9098307997919619,True,33,0
KS-K-21K21S2,246,experiment,92,↓,down,↓,0.5383051000535488,True,33,1
KS-K-21K21S2,247,experiment,80,→,right,→,0.5538457001093775,True,33,1
KS-K-21K21S2,248,experiment,74,↓,down,↓,0.5791048998944461,True,33,1
KS-K-21K21S2,249,experiment,108,←,left,←,0.6071317000314593,True,33,1
KS-K-21K21S2,250,experiment,51,→,right,→,0.6535959001630545,True,33,1
KS-K-21K21S2,251,experiment,59,←,left,←,0.8873503999784589,True,33,1
KS-K-21K21S2,252,experiment,101,↑,up,↑,0.40269499993883073,True,33,1
KS-K-21K21S2,253,experiment,52,↓,down,↓,0.5595548001583666,True,33,0
KS-K-21K21S2,254,experiment,100,→,right,→,0.6235258001834154,True,33,1
KS-K-21K21S2,255,experiment,79,↑,up,↑,0.40113990008831024,True,33,1
KS-K-21K21S2,256,experiment,77,↑,up,↑,0.4894308999646455,True,33,0
KS-K-21K21S2,257,experiment,88,↑,up,↑,0.6161422000732273,True,33,1
KS-K-21K21S2,258,experiment,63,↓,down,↓,0.7623864999040961,True,33,1
KS-K-21K21S2,259,experiment,61,←,left,←,0.5833415000233799,True,33,1
KS-K-21K21S2,260,experiment,50,↓,down,↓,0.5909293000586331,True,33,1
KS-K-21K21S2,261,experiment,73,↑,up,↑,0.5506892001722008,True,33,1
KS-K-21K21S2,262,experiment,58,↑,up,↑,0.5650768999475986,True,33,1
KS-K-21K21S2,263,experiment,69,←,left,←,0.4084718998055905,True,33,1
KS-K-21K21S2,264,experiment,86,←,left,←,0.5456275001633912,True,33,0
KS-K-21K21S2,265,experiment,93,↓,down,↓,0.6443775999359787,True,33,1
KS-K-21K21S2,266,experiment,54,↓,down,↓,0.4960650000721216,True,33,1
KS-K-21K21S2,267,experiment,49,←,left,←,0.3761550998315215,True,33,1
KS-K-21K21S2,268,experiment,76,↓,down,↓,0.5468653999269009,True,33,1
KS-K-21K21S2,269,experiment,98,↓,down,↓,0.4523291999939829,True,33,1
KS-K-21K21S2,270,experiment,71,↑,up,↑,0.6016985999885947,True,33,1
KS-K-21K21S2,271,experiment,96,↓,down,↓,0.5214447998441756,True,33,1
KS-K-21K21S2,272,experiment,64,↓,down,↓,0.5910040000453591,True,33,1
KS-K-21K21S2,273,experiment,105,↑,up,↑,0.35880489996634424,True,33,1
KS-K-21K21S2,274,experiment,70,↓,down,↓,0.6695322999730706,True,33,0
KS-K-21K21S2,275,experiment,94,→,right,→,0.7550900999922305,True,33,1
KS-K-21K21S2,276,experiment,85,↑,up,↑,0.5760349999181926,True,33,1
KS-K-21K21S2,277,experiment,91,↑,up,↑,0.37555609992705286,True,33,1
KS-K-21K21S2,278,experiment,60,→,right,→,0.6228433998767287,True,33,0
KS-K-21K21S2,279,experiment,87,↑,up,↑,0.35179640003480017,True,33,1
KS-K-21K21S2,280,experiment,53,←,left,←,0.7922179000452161,True,33,1
KS-K-21K21S2,281,experiment,104,↓,down,↓,0.6855701000895351,True,33,1
KS-K-21K21S2,282,experiment,97,↑,up,↑,0.6018032000865787,True,33,1
KS-K-21K21S2,283,experiment,81,→,right,→,0.4472485000733286,True,33,1
KS-K-21K21S2,284,experiment,103,↑,up,↑,0.35947080003097653,True,33,1
KS-K-21K21S2,285,experiment,62,↑,up,↑,0.9262463001068681,True,33,0
KS-K-21K21S2,286,experiment,90,↑,up,↑,0.6748300001490861,True,33,1
KS-K-21K21S2,287,experiment,57,→,right,→,0.5329040000215173,True,33,1
KS-K-21K21S2,288,experiment,107,←,left,←,0.358890000032261,True,33,1
KS-K-21K21S2,289,experiment,75,←,left,←,0.3757765998598188,True,33,0
KS-K-21K21S2,290,experiment,48,→,right,→,0.5719300000928342,True,33,0
KS-K-21K21S2,291,experiment,83,↓,down,↓,0.6729236000683159,True,33,1
KS-K-21K21S2,292,experiment,72,←,left,←,0.5097348999697715,True,33,1
KS-K-21K21S2,293,training,91,→,right,→,0.4092725000809878,True,32,0
KS-K-21K21S2,294,training,103,↑,up,↑,0.5297246999107301,True,32,0
KS-K-21K21S2,295,experiment,57,↓,down,↓,0.5453485001344234,True,32,1
KS-K-21K21S2,296,experiment,94,↑,up,↑,0.3428348999004811,True,32,1
KS-K-21K21S2,297,experiment,98,↓,down,↓,0.6045048001687974,True,32,1
KS-K-21K21S2,298,experiment,84,↓,down,↓,0.5119431999046355,True,32,1
KS-K-21K21S2,299,experiment,53,←,left,←,0.5696192998439074,True,32,1
KS-K-21K21S2,300,experiment,88,↓,down,↓,0.5012896000407636,True,32,1
KS-K-21K21S2,301,experiment,90,→,right,→,0.35096090007573366,True,32,1
KS-K-21K21S2,302,experiment,51,←,left,←,0.40894169989041984,True,32,1
KS-K-21K21S2,303,experiment,106,↑,up,↑,0.3596882000565529,True,32,0
KS-K-21K21S2,304,experiment,61,↓,down,↓,0.5877092001028359,True,32,0
KS-K-21K21S2,305,experiment,93,↑,up,↑,0.3509963999968022,True,32,1
KS-K-21K21S2,306,experiment,52,↓,down,↓,0.5327051000203937,True,32,1
KS-K-21K21S2,307,experiment,48,↓,down,↓,0.48725809995085,True,32,1
KS-K-21K21S2,308,experiment,59,←,no_key,no_letter,-1.0,False,32,1
KS-K-21K21S2,309,experiment,97,↓,down,↓,0.7295436998829246,True,32,1
KS-K-21K21S2,310,experiment,79,←,left,←,0.5455300000030547,True,32,1
KS-K-21K21S2,311,experiment,63,←,left,←,0.44651479995809495,True,32,1
KS-K-21K21S2,312,experiment,65,↑,up,↑,0.35938070015981793,True,32,1
KS-K-21K21S2,313,experiment,83,↑,up,↑,0.3168931999243796,True,32,0
KS-K-21K21S2,314,experiment,89,↓,down,↓,0.7448933999985456,True,32,0
KS-K-21K21S2,315,experiment,55,↓,down,↓,0.4806927000172436,True,32,1
KS-K-21K21S2,316,experiment,68,→,right,→,0.7344245000276715,True,32,1
KS-K-21K21S2,317,experiment,74,←,left,←,0.36933119990862906,True,32,1
KS-K-21K21S2,318,experiment,102,↓,down,↓,0.5585060999728739,True,32,0
KS-K-21K21S2,319,experiment,80,←,left,←,0.5410136000718921,True,32,1
KS-K-21K21S2,320,experiment,76,↓,down,↓,0.5338742998428643,True,32,1
KS-K-21K21S2,321,experiment,108,→,right,→,0.580535399960354,True,32,1
KS-K-21K21S2,322,experiment,86,→,right,→,0.5521895999554545,True,32,1
KS-K-21K21S2,323,experiment,91,→,right,→,0.30856729997321963,True,32,1
KS-K-21K21S2,324,experiment,49,↑,right,→,0.8782852001022547,False,32,0
KS-K-21K21S2,325,experiment,99,←,left,←,0.6498838001862168,True,32,1
KS-K-21K21S2,326,experiment,64,↑,up,↑,0.6501941999886185,True,32,1
KS-K-21K21S2,327,experiment,71,←,left,←,0.4484055999200791,True,32,1
KS-K-21K21S2,328,experiment,82,↑,up,↑,0.3838418999221176,True,32,1
KS-K-21K21S2,329,experiment,62,→,right,→,0.6302094000857323,True,32,0
KS-K-21K21S2,330,experiment,92,←,left,←,0.5418134999927133,True,32,1
KS-K-21K21S2,331,experiment,70,↓,down,↓,0.6246575999539346,True,32,1
KS-K-21K21S2,332,experiment,104,←,left,←,0.5566620000172406,True,32,1
KS-K-21K21S2,333,experiment,56,↑,up,↑,0.3680748001206666,True,32,1
KS-K-21K21S2,334,experiment,85,↓,down,↓,0.6317590998951346,True,32,1
KS-K-21K21S2,335,experiment,81,←,left,←,0.3679717001505196,True,32,1
KS-K-21K21S2,336,experiment,77,→,right,→,0.6103397000115365,True,32,1
KS-K-21K21S2,337,experiment,58,←,left,←,0.383632899960503,True,32,1
KS-K-21K21S2,338,experiment,66,↑,up,↑,0.5127300000749528,True,32,0
KS-K-21K21S2,339,experiment,69,←,left,←,0.35110970004461706,True,32,1
KS-K-21K21S2,340,experiment,105,←,left,←,0.3595063998363912,True,32,0
KS-K-21K21S2,341,experiment,101,←,left,←,0.5703201999422163,True,32,0
KS-K-21K21S2,342,experiment,60,↓,down,↓,0.4795167001429945,True,32,1
KS-K-21K21S2,343,experiment,87,←,left,←,0.3677948000840843,True,32,1
KS-K-21K21S2,344,experiment,78,→,right,→,0.5977215000893921,True,32,1
KS-K-21K21S2,345,experiment,103,↓,down,↓,0.47508800006471574,True,32,1
KS-K-21K21S2,346,experiment,100,↓,down,↓,0.5584096000529826,True,32,1
KS-K-21K21S2,347,experiment,72,←,left,←,0.5038440001662821,True,32,1
KS-K-21K21S2,348,experiment,50,↑,down,↓,0.8589056998025626,False,32,1
KS-K-21K21S2,349,experiment,75,←,left,←,0.3600331998895854,True,32,1
KS-K-21K21S2,350,experiment,54,↑,up,↑,0.6058201000560075,True,32,0
KS-K-21K21S2,351,experiment,73,→,right,→,0.6846908999141306,True,32,1
KS-K-21K21S2,352,experiment,96,←,left,←,0.5371929001994431,True,32,1
KS-K-21K21S2,353,experiment,95,↓,down,↓,0.48360810009762645,True,32,1
KS-K-21K21S2,354,experiment,107,↓,down,↓,0.4446362000890076,True,32,1
KS-K-21K21S2,355,experiment,67,↓,down,↓,0.6680220998823643,True,32,1
KS-K-21K21S2,356,training,48,→,right,→,0.4468171999324113,True,31,0
KS-K-21K21S2,357,training,68,↑,up,↑,0.318888199981302,True,31,1
KS-K-21K21S2,358,experiment,77,→,right,→,0.40121310018002987,True,31,0
KS-K-21K21S2,359,experiment,61,→,right,→,0.5777749998960644,True,31,0
KS-K-21K21S2,360,experiment,49,↑,up,↑,0.35890959994867444,True,31,1
KS-K-21K21S2,361,experiment,85,←,left,←,0.47117800009436905,True,31,0
KS-K-21K21S2,362,experiment,58,↓,down,↓,0.4885293000843376,True,31,1
KS-K-21K21S2,363,experiment,71,↑,up,↑,0.35931730014272034,True,31,1
KS-K-21K21S2,364,experiment,59,↑,up,↑,0.3174353002104908,True,31,0
KS-K-21K21S2,365,experiment,104,↑,up,↑,0.3339245000388473,True,31,0
KS-K-21K21S2,366,experiment,78,→,right,→,0.674370100023225,True,31,0
KS-K-21K21S2,367,experiment,89,←,left,←,0.4413788001984358,True,31,1
KS-K-21K21S2,368,experiment,60,←,left,←,0.6916503000538796,True,31,1
KS-K-21K21S2,369,experiment,98,↓,down,↓,0.4870216001290828,True,31,1
KS-K-21K21S2,370,experiment,95,↓,down,↓,0.6995402001775801,True,31,1
KS-K-21K21S2,371,experiment,67,↑,up,↑,0.56940110004507,True,31,1
KS-K-21K21S2,372,experiment,82,←,left,←,0.6307969999033958,True,31,1
KS-K-21K21S2,373,experiment,50,↑,up,↑,0.6685788000468165,True,31,1
KS-K-21K21S2,374,experiment,81,←,left,←,0.37594690010882914,True,31,1
KS-K-21K21S2,375,experiment,76,↑,up,↑,0.4615849999245256,True,31,1
KS-K-21K21S2,376,experiment,90,↑,up,↑,0.3262713998556137,True,31,1
KS-K-21K21S2,377,experiment,106,→,right,→,0.6516346000134945,True,31,1
KS-K-21K21S2,378,experiment,55,↓,down,↓,0.49525079992599785,True,31,1
KS-K-21K21S2,379,experiment,56,→,right,→,0.7288369999732822,True,31,1
KS-K-21K21S2,380,experiment,72,↑,up,↑,0.3510201999451965,True,31,1
KS-K-21K21S2,381,experiment,101,↑,up,↑,0.343244899995625,True,31,0
KS-K-21K21S2,382,experiment,74,→,no_key,no_letter,-1.0,False,31,0
KS-K-21K21S2,383,experiment,94,→,right,→,0.5590731999836862,True,31,1
KS-K-21K21S2,384,experiment,66,↓,down,↓,0.6744921999052167,True,31,1
KS-K-21K21S2,385,experiment,100,←,left,←,0.6218240999151021,True,31,1
KS-K-21K21S2,386,experiment,91,↓,down,↓,0.4701517999637872,True,31,1
KS-K-21K21S2,387,experiment,63,←,left,←,0.3595900998916477,True,31,1
KS-K-21K21S2,388,experiment,52,→,no_key,no_letter,-1.0,False,31,1
KS-K-21K21S2,389,experiment,87,↓,down,↓,0.47507010004483163,True,31,1
KS-K-21K21S2,390,experiment,68,←,left,←,0.3844566000625491,True,31,1
KS-K-21K21S2,391,experiment,96,↑,down,↓,0.7854620001744479,False,31,1
KS-K-21K21S2,392,experiment,65,↓,down,↓,0.6117416000925004,True,31,1
KS-K-21K21S2,393,experiment,69,→,right,→,0.45220009982585907,True,31,1
KS-K-21K21S2,394,experiment,79,←,left,←,0.3930043999571353,True,31,1
KS-K-21K21S2,395,experiment,51,↑,up,↑,0.36732569988816977,True,31,1
KS-K-21K21S2,396,experiment,93,↑,up,↑,0.5601884999778122,True,31,0
KS-K-21K21S2,397,experiment,57,→,right,→,1.622438000049442,True,31,1
KS-K-21K21S2,398,experiment,53,↓,down,↓,0.6594541999511421,True,31,1
KS-K-21K21S2,399,experiment,108,↑,up,↑,0.3677701000124216,True,31,1
KS-K-21K21S2,400,experiment,97,→,right,→,0.6372988999355584,True,31,1
KS-K-21K21S2,401,experiment,99,↑,up,↑,0.3765004000160843,True,31,1
KS-K-21K21S2,402,experiment,102,↑,up,↑,0.552734199911356,True,31,0
KS-K-21K21S2,403,experiment,84,↓,down,↓,0.4783192998729646,True,31,1
KS-K-21K21S2,404,experiment,105,↑,up,↑,0.7517342998180538,True,31,1
KS-K-21K21S2,405,experiment,83,←,left,←,0.5896050999872386,True,31,1
KS-K-21K21S2,406,experiment,73,↓,down,↓,0.47768669994547963,True,31,1
KS-K-21K21S2,407,experiment,92,←,left,←,0.5952812000177801,True,31,1
KS-K-21K21S2,408,experiment,70,←,left,←,0.3420764999464154,True,31,1
KS-K-21K21S2,409,experiment,48,↑,up,↑,0.5815683000255376,True,31,0
KS-K-21K21S2,410,experiment,64,↑,up,↑,0.5128511001821607,True,31,1
KS-K-21K21S2,411,experiment,86,→,right,→,0.43111680005677044,True,31,1
KS-K-21K21S2,412,experiment,80,↓,down,↓,0.48298080009408295,True,31,0
KS-K-21K21S2,413,experiment,62,↑,up,↑,0.37626749998889863,True,31,1
KS-K-21K21S2,414,experiment,107,↑,up,↑,0.3006895000580698,True,31,0
KS-K-21K21S2,415,experiment,103,←,right,→,0.9045847998932004,False,31,0
KS-K-21K21S2,416,experiment,88,←,left,←,0.3680414000991732,True,31,1
KS-K-21K21S2,417,experiment,54,↑,up,↑,0.430216999957338,True,31,0
KS-K-21K21S2,418,experiment,75,↑,up,↑,0.3428472999949008,True,31,0
KS-K-21K21S2,419,training,58,←,left,←,0.5746510999742895,True,30,0
KS-K-21K21S2,420,training,97,↑,up,↑,0.35182979982346296,True,30,1
KS-K-21K21S2,421,experiment,95,↑,up,↑,0.6243551999796182,True,30,0
KS-K-21K21S2,422,experiment,93,↑,up,↑,0.4881368998903781,True,30,1
KS-K-21K21S2,423,experiment,64,↑,up,↑,0.3418755999300629,True,30,1
KS-K-21K21S2,424,experiment,69,←,left,←,0.5376639999449253,True,30,0
KS-K-21K21S2,425,experiment,83,→,right,→,0.6721959998831153,True,30,1
KS-K-21K21S2,426,experiment,82,↓,down,↓,0.681491200113669,True,30,1
KS-K-21K21S2,427,experiment,60,→,right,→,0.6818848999682814,True,30,1
KS-K-21K21S2,428,experiment,79,→,right,→,0.5877994999755174,True,30,1
KS-K-21K21S2,429,experiment,59,↑,up,↑,0.36932910000905395,True,30,1
KS-K-21K21S2,430,experiment,74,↑,up,↑,0.520109600154683,True,30,0
KS-K-21K21S2,431,experiment,58,→,right,→,0.6555594000965357,True,30,1
KS-K-21K21S2,432,experiment,61,→,right,→,0.34299209993332624,True,30,1
KS-K-21K21S2,433,experiment,105,↓,down,↓,0.48738980013877153,True,30,1
KS-K-21K21S2,434,experiment,84,→,right,→,0.35050499998033047,True,30,1
KS-K-21K21S2,435,experiment,96,←,right,→,0.44870629999786615,False,30,0
KS-K-21K21S2,436,experiment,70,↑,up,↑,0.5353046001400799,True,30,1
KS-K-21K21S2,437,experiment,106,↑,up,↑,0.3347302000038326,True,30,1
KS-K-21K21S2,438,experiment,56,↑,up,↑,0.3179790999274701,True,30,0
KS-K-21K21S2,439,experiment,49,→,no_key,no_letter,-1.0,False,30,0
KS-K-21K21S2,440,experiment,77,↓,down,↓,0.6409503999166191,True,30,1
KS-K-21K21S2,441,experiment,80,→,right,→,0.4839859001804143,True,30,1
KS-K-21K21S2,442,experiment,73,←,left,←,0.48025589995086193,True,30,1
KS-K-21K21S2,443,experiment,53,→,right,→,0.4350588999222964,True,30,1
KS-K-21K21S2,444,experiment,50,↓,up,↑,0.8167091000359505,False,30,1
KS-K-21K21S2,445,experiment,103,↓,down,↓,0.6692721000872552,True,30,1
KS-K-21K21S2,446,experiment,63,↓,no_key,no_letter,-1.0,False,30,1
KS-K-21K21S2,447,experiment,67,←,left,←,0.5057572000660002,True,30,1
KS-K-21K21S2,448,experiment,101,→,right,→,0.5393854000139982,True,30,1
KS-K-21K21S2,449,experiment,104,↓,down,↓,0.5786876000929624,True,30,1
KS-K-21K21S2,450,experiment,92,↑,up,↑,0.6443155999295413,True,30,1
KS-K-21K21S2,451,experiment,62,→,right,→,0.5899809999391437,True,30,1
KS-K-21K21S2,452,experiment,72,↓,down,↓,0.6619904001709074,True,30,1
KS-K-21K21S2,453,experiment,54,↑,up,↑,0.4810526999644935,True,30,1
KS-K-21K21S2,454,experiment,97,→,right,→,0.4292055999394506,True,30,1
KS-K-21K21S2,455,experiment,108,←,left,←,0.6074743999633938,True,30,1
KS-K-21K21S2,456,experiment,48,↓,down,↓,0.6307634999975562,True,30,1
KS-K-21K21S2,457,experiment,78,↑,up,↑,0.37620639987289906,True,30,1
KS-K-21K21S2,458,experiment,99,↓,down,↓,0.49061259999871254,True,30,1
KS-K-21K21S2,459,experiment,71,↓,down,↓,0.727134200045839,True,30,1
KS-K-21K21S2,460,experiment,88,→,right,→,0.4005442000925541,True,30,1
KS-K-21K21S2,461,experiment,86,→,right,→,0.34439979982562363,True,30,0
KS-K-21K21S2,462,experiment,100,↓,down,↓,0.5910688999574631,True,30,0
KS-K-21K21S2,463,experiment,52,↓,down,↓,0.47809890005737543,True,30,1
KS-K-21K21S2,464,experiment,102,←,left,←,0.5444226001854986,True,30,1
KS-K-21K21S2,465,experiment,85,←,left,←,0.5102079999633133,True,30,1
KS-K-21K21S2,466,experiment,55,←,left,←,0.32524360017850995,True,30,1
KS-K-21K21S2,467,experiment,91,→,right,→,0.699213899904862,True,30,0
KS-K-21K21S2,468,experiment,90,↓,down,↓,0.5211549999658018,True,30,1
KS-K-21K21S2,469,experiment,57,←,left,←,0.33360909996554255,True,30,1
KS-K-21K21S2,470,experiment,89,→,right,→,0.437394600128755,True,30,0
KS-K-21K21S2,471,experiment,94,→,right,→,0.3343048000242561,True,30,1
KS-K-21K21S2,472,experiment,81,←,left,←,0.35079870000481606,True,30,1
KS-K-21K21S2,473,experiment,87,→,right,→,0.33446200005710125,True,30,0
KS-K-21K21S2,474,experiment,51,↑,up,↑,0.3697211998514831,True,30,1
KS-K-21K21S2,475,experiment,107,↑,up,↑,0.3674088998232037,True,30,0
KS-K-21K21S2,476,experiment,66,→,right,→,1.0083649000152946,True,30,0
KS-K-21K21S2,477,experiment,75,↑,up,↑,0.42296550003811717,True,30,1
KS-K-21K21S2,478,experiment,68,←,left,←,0.4628413999453187,True,30,0
KS-K-21K21S2,479,experiment,98,↓,down,↓,0.6912342999130487,True,30,1
KS-K-21K21S2,480,experiment,76,↑,up,↑,0.4618032998405397,True,30,1
KS-K-21K21S2,481,experiment,65,←,left,←,0.3676825000438839,True,30,1
KS-K-21K21S2,482,training,99,→,right,→,0.6108982998412102,True,29,0
KS-K-21K21S2,483,training,53,↑,up,↑,1.2000776000786573,True,29,1
KS-K-21K21S2,484,experiment,83,→,right,→,0.5162611999548972,True,29,1
KS-K-21K21S2,485,experiment,58,→,right,→,0.3252028999850154,True,29,1
KS-K-21K21S2,486,experiment,98,↓,down,↓,0.47780440002679825,True,29,0
KS-K-21K21S2,487,experiment,60,←,left,←,0.37621189979836345,True,29,1
KS-K-21K21S2,488,experiment,53,→,right,→,0.38462499994784594,True,29,1
KS-K-21K21S2,489,experiment,96,↑,up,↑,0.6372924000024796,True,29,1
KS-K-21K21S2,490,experiment,70,←,left,←,0.4518981999717653,True,29,1
KS-K-21K21S2,491,experiment,72,↑,no_key,no_letter,-1.0,False,29,1
KS-K-21K21S2,492,experiment,89,←,left,←,0.42307540006004274,True,29,1
KS-K-21K21S2,493,experiment,78,→,right,→,0.411571100121364,True,29,1
KS-K-21K21S2,494,experiment,71,←,left,←,0.6030058001633734,True,29,0
KS-K-21K21S2,495,experiment,97,←,left,←,0.36784070008434355,True,29,1
KS-K-21K21S2,496,experiment,84,→,right,→,0.6233841001521796,True,29,1
KS-K-21K21S2,497,experiment,77,→,right,→,0.33425630000419915,True,29,1
KS-K-21K21S2,498,experiment,69,→,right,→,0.3179914001375437,True,29,0
KS-K-21K21S2,499,experiment,82,→,right,→,1.3347601001150906,True,29,0
KS-K-21K21S2,500,experiment,93,→,right,→,0.33457359997555614,True,29,1
KS-K-21K21S2,501,experiment,55,→,right,→,0.5380261999089271,True,29,0
KS-K-21K21S2,502,experiment,105,←,left,←,0.6411107999738306,True,29,1
KS-K-21K21S2,503,experiment,51,↓,down,↓,0.5263971001841128,True,29,1
KS-K-21K21S2,504,experiment,64,→,right,→,0.3585974001325667,True,29,1
KS-K-21K21S2,505,experiment,100,→,right,→,0.46712490008212626,True,29,0
KS-K-21K21S2,506,experiment,49,↓,down,↓,0.6078776000067592,True,29,1
KS-K-21K21S2,507,experiment,62,←,no_key,no_letter,-1.0,False,29,1
KS-K-21K21S2,508,experiment,59,↑,up,↑,0.6344368001446128,True,29,1
KS-K-21K21S2,509,experiment,108,↑,up,↑,0.7567177000455558,True,29,1
KS-K-21K21S2,510,experiment,86,←,left,←,0.39241410000249743,True,29,1
KS-K-21K21S2,511,experiment,73,←,left,←,0.34230769984424114,True,29,0
KS-K-21K21S2,512,experiment,50,←,left,←,0.3424055001232773,True,29,0
KS-K-21K21S2,513,experiment,76,←,left,←,0.3931342998985201,True,29,0
KS-K-21K21S2,514,experiment,87,↑,up,↑,0.5812081000767648,True,29,1
KS-K-21K21S2,515,experiment,57,↓,up,↑,0.7702853002119809,False,29,1
KS-K-21K21S2,516,experiment,66,←,no_key,no_letter,-1.0,False,29,1
KS-K-21K21S2,517,experiment,99,→,right,→,0.4393575000576675,True,29,1
KS-K-21K21S2,518,experiment,74,↓,down,↓,0.5088672998826951,True,29,1
KS-K-21K21S2,519,experiment,52,←,left,←,0.41490960004739463,True,29,1
KS-K-21K21S2,520,experiment,101,→,right,→,0.46038549998775125,True,29,0
KS-K-21K21S2,521,experiment,65,↓,down,↓,0.8596783999819309,True,29,1
KS-K-21K21S2,522,experiment,79,↓,down,↓,0.6706418001558632,True,29,1
KS-K-21K21S2,523,experiment,67,←,left,←,0.5411998999770731,True,29,1
KS-K-21K21S2,524,experiment,90,←,left,←,0.521281799999997,True,29,1
KS-K-21K21S2,525,experiment,81,↓,down,↓,0.48097910010255873,True,29,1
KS-K-21K21S2,526,experiment,104,↑,up,↑,0.42688159993849695,True,29,1
KS-K-21K21S2,527,experiment,48,→,right,→,0.3862769000697881,True,29,1
KS-K-21K21S2,528,experiment,63,←,left,←,0.3678204999305308,True,29,0
KS-K-21K21S2,529,experiment,107,↓,down,↓,0.4970834997948259,True,29,0
KS-K-21K21S2,530,experiment,92,←,left,←,0.6459782000165433,True,29,1
KS-K-21K21S2,531,experiment,75,←,left,←,0.5069047999568284,True,29,1
KS-K-21K21S2,532,experiment,80,↑,up,↑,0.595927800051868,True,29,1
KS-K-21K21S2,533,experiment,88,↑,up,↑,0.5421205000020564,True,29,1
KS-K-21K21S2,534,experiment,56,↑,up,↑,0.5495414000470191,True,29,1
KS-K-21K21S2,535,experiment,68,↓,down,↓,0.5206703001167625,True,29,1
KS-K-21K21S2,536,experiment,54,↑,up,↑,0.5294695999473333,True,29,1
KS-K-21K21S2,537,experiment,91,↓,down,↓,0.6615184000693262,True,29,1
KS-K-21K21S2,538,experiment,106,→,right,→,0.615464000031352,True,29,1
KS-K-21K21S2,539,experiment,94,↓,down,↓,0.5431633000262082,True,29,1
KS-K-21K21S2,540,experiment,102,↓,down,↓,0.6632523001171649,True,29,1
KS-K-21K21S2,541,experiment,103,↓,down,↓,0.690029000164941,True,29,1
KS-K-21K21S2,542,experiment,61,←,left,←,0.5696374999824911,True,29,1
KS-K-21K21S2,543,experiment,95,←,left,←,0.3762182998470962,True,29,1
KS-K-21K21S2,544,experiment,85,←,left,←,0.5510888998396695,True,29,0
KS-K-21K21S2,545,training,52,↑,up,↑,0.5943561000749469,True,28,0
KS-K-21K21S2,546,training,74,↓,down,↓,0.6336858000140637,True,28,1
KS-K-21K21S2,547,experiment,66,↓,down,↓,0.4339693000074476,True,28,1
KS-K-21K21S2,548,experiment,78,↓,down,↓,0.5984269001055509,True,28,1
KS-K-21K21S2,549,experiment,63,↑,up,↑,1.2731882999651134,True,28,1
KS-K-21K21S2,550,experiment,57,↑,up,↑,0.5549176000058651,True,28,1
KS-K-21K21S2,551,experiment,64,→,right,→,0.44722130009904504,True,28,1
KS-K-21K21S2,552,experiment,81,↓,down,↓,0.6578414000105113,True,28,1
KS-K-21K21S2,553,experiment,83,↓,down,↓,0.5393252000212669,True,28,1
KS-K-21K21S2,554,experiment,103,→,right,→,0.5070744999684393,True,28,1
KS-K-21K21S2,555,experiment,77,↓,down,↓,0.6448331999126822,True,28,1
KS-K-21K21S2,556,experiment,65,↑,up,↑,0.5251392000354826,True,28,1
KS-K-21K21S2,557,experiment,59,↑,up,↑,0.35881260014139116,True,28,1
KS-K-21K21S2,558,experiment,55,←,left,←,1.8270731999073178,True,28,0
KS-K-21K21S2,559,experiment,72,→,right,→,0.6097539998590946,True,28,1
KS-K-21K21S2,560,experiment,71,←,right,→,0.4976334001403302,False,28,1
KS-K-21K21S2,561,experiment,51,↑,up,↑,0.35142929991707206,True,28,1
KS-K-21K21S2,562,experiment,79,↓,down,↓,0.699284499976784,True,28,1
KS-K-21K21S2,563,experiment,52,↑,up,↑,0.3837870000861585,True,28,1
KS-K-21K21S2,564,experiment,95,↑,up,↑,0.3676259000785649,True,28,0
KS-K-21K21S2,565,experiment,74,↓,up,↑,0.3109016998205334,False,28,1
KS-K-21K21S2,566,experiment,73,←,left,←,0.4486218998208642,True,28,1
KS-K-21K21S2,567,experiment,70,←,left,←,0.6069831000640988,True,28,1
KS-K-21K21S2,568,experiment,50,←,left,←,0.6297403001226485,True,28,1
KS-K-21K21S2,569,experiment,75,↓,down,↓,0.4992950998712331,True,28,1
KS-K-21K21S2,570,experiment,97,↓,down,↓,0.4787755999714136,True,28,1
KS-K-21K21S2,571,experiment,105,→,left,←,0.7043183001223952,False,28,1
KS-K-21K21S2,572,experiment,82,↑,up,↑,0.6483405998442322,True,28,1
KS-K-21K21S2,573,experiment,90,↓,down,↓,0.4958702998701483,True,28,1
KS-K-21K21S2,574,experiment,49,→,right,→,0.5314376999158412,True,28,1
KS-K-21K21S2,575,experiment,68,↑,up,↑,0.6233121000695974,True,28,1
KS-K-21K21S2,576,experiment,86,→,no_key,no_letter,-1.0,False,28,1
KS-K-21K21S2,577,experiment,100,←,left,←,0.4194616999011487,True,28,1
KS-K-21K21S2,578,experiment,87,→,right,→,0.581226299982518,True,28,1
KS-K-21K21S2,579,experiment,107,↓,down,↓,0.5059257000684738,True,28,1
KS-K-21K21S2,580,experiment,99,↓,down,↓,0.46825699997134507,True,28,1
KS-K-21K21S2,581,experiment,61,→,no_key,no_letter,-1.0,False,28,1
KS-K-21K21S2,582,experiment,54,↓,down,↓,0.8544877001550049,True,28,1
KS-K-21K21S2,583,experiment,80,↑,up,↑,0.6173165000509471,True,28,1
KS-K-21K21S2,584,experiment,76,→,right,→,0.4308542001526803,True,28,1
KS-K-21K21S2,585,experiment,94,↑,up,↑,0.5904150998685509,True,28,1
KS-K-21K21S2,586,experiment,85,←,left,←,0.3845887000206858,True,28,1
KS-K-21K21S2,587,experiment,84,←,left,←,0.6217728999909014,True,28,0
KS-K-21K21S2,588,experiment,96,↓,down,↓,0.5164419999346137,True,28,1
KS-K-21K21S2,589,experiment,98,↑,up,↑,0.34451399999670684,True,28,1
KS-K-21K21S2,590,experiment,91,↓,down,↓,0.5459044000599533,True,28,0
KS-K-21K21S2,591,experiment,93,↑,up,↑,0.6529671000316739,True,28,1
KS-K-21K21S2,592,experiment,102,←,no_key,no_letter,-1.0,False,28,1
KS-K-21K21S2,593,experiment,62,←,left,←,0.43130520009435713,True,28,1
KS-K-21K21S2,594,experiment,104,→,right,→,0.4350367998704314,True,28,1
KS-K-21K21S2,595,experiment,89,→,no_key,no_letter,-1.0,False,28,1
KS-K-21K21S2,596,experiment,108,→,right,→,0.5714953001588583,True,28,1
KS-K-21K21S2,597,experiment,53,←,left,←,0.8583862998057157,True,28,1
KS-K-21K21S2,598,experiment,92,←,left,←,0.5289799999445677,True,28,1
KS-K-21K21S2,599,experiment,101,→,right,→,0.5217212000861764,True,28,1
KS-K-21K21S2,600,experiment,69,→,left,←,0.533535499824211,False,28,1
KS-K-21K21S2,601,experiment,88,↓,down,↓,0.5386558999307454,True,28,1
KS-K-21K21S2,602,experiment,60,←,left,←,0.3838720000348985,True,28,1
KS-K-21K21S2,603,experiment,56,→,right,→,0.4540541998576373,True,28,0
KS-K-21K21S2,604,experiment,106,←,no_key,no_letter,-1.0,False,28,1
KS-K-21K21S2,605,experiment,67,↑,up,↑,0.6375851000193506,True,28,1
KS-K-21K21S2,606,experiment,48,↑,up,↑,0.31746200006455183,True,28,1
KS-K-21K21S2,607,experiment,58,←,left,←,0.35948610003106296,True,28,0
KS-K-21K21S2,608,training,54,↓,up,↑,1.1686227000318468,False,28,0
KS-K-21K21S2,609,training,108,↓,down,↓,0.6535960000474006,True,28,1
KS-K-21K21S2,610,experiment,84,→,right,→,0.4073903998360038,True,28,1
KS-K-21K21S2,611,experiment,79,→,right,→,0.3429248998872936,True,28,0
KS-K-21K21S2,612,experiment,93,↑,up,↑,0.36771959997713566,True,28,1
KS-K-21K21S2,613,experiment,66,←,left,←,0.5212274000514299,True,28,1
KS-K-21K21S2,614,experiment,105,←,no_key,no_letter,-1.0,False,28,1
KS-K-21K21S2,615,experiment,99,→,right,→,0.6674663000740111,True,28,1
KS-K-21K21S2,616,experiment,49,←,left,←,0.43216220010071993,True,28,1
KS-K-21K21S2,617,experiment,86,←,left,←,0.33449169993400574,True,28,1
KS-K-21K21S2,618,experiment,87,→,right,→,0.4549640000332147,True,28,1
KS-K-21K21S2,619,experiment,57,↓,right,→,0.8412027000449598,False,28,1
KS-K-21K21S2,620,experiment,102,→,right,→,0.42961829993873835,True,28,1
KS-K-21K21S2,621,experiment,73,←,left,←,0.3763856999576092,True,28,1
KS-K-21K21S2,622,experiment,101,→,no_key,no_letter,-1.0,False,28,1
KS-K-21K21S2,623,experiment,106,→,right,→,0.359578900039196,True,28,1
KS-K-21K21S2,624,experiment,96,↓,down,↓,0.7154583998490125,True,28,0
KS-K-21K21S2,625,experiment,76,→,right,→,0.6611862999852747,True,28,1
KS-K-21K21S2,626,experiment,92,↑,up,↑,0.37554039992392063,True,28,1
KS-K-21K21S2,627,experiment,61,↓,down,↓,0.5197854000143707,True,28,0
KS-K-21K21S2,628,experiment,91,←,left,←,0.6763130000326782,True,28,1
KS-K-21K21S2,629,experiment,51,↑,up,↑,0.688233100110665,True,28,1
KS-K-21K21S2,630,experiment,75,→,right,→,0.4113056999631226,True,28,1
KS-K-21K21S2,631,experiment,100,→,right,→,0.41739509999752045,True,28,1
KS-K-21K21S2,632,experiment,71,→,left,←,0.784710600040853,False,28,1
KS-K-21K21S2,633,experiment,68,→,right,→,0.5944219001103193,True,28,1
KS-K-21K21S2,634,experiment,95,↑,up,↑,0.3590134000405669,True,28,1
KS-K-21K21S2,635,experiment,80,↑,up,↑,0.3346355000976473,True,28,0
KS-K-21K21S2,636,experiment,108,↑,up,↑,0.5351990999188274,True,28,0
KS-K-21K21S2,637,experiment,54,↓,down,↓,0.5039470999035984,True,28,1
KS-K-21K21S2,638,experiment,72,↓,down,↓,0.4589626002125442,True,28,1
KS-K-21K21S2,639,experiment,52,↓,down,↓,0.4952144999988377,True,28,1
KS-K-21K21S2,640,experiment,90,↑,left,←,0.7647458999417722,False,28,1
KS-K-21K21S2,641,experiment,74,←,left,←,0.3429914000444114,True,28,1
KS-K-21K21S2,642,experiment,107,↑,up,↑,0.9232526998966932,True,28,1
KS-K-21K21S2,643,experiment,62,↑,up,↑,0.5852709000464529,True,28,1
KS-K-21K21S2,644,experiment,88,↑,up,↑,0.2942439999897033,True,28,1
KS-K-21K21S2,645,experiment,94,→,right,→,0.6568642999045551,True,28,0
KS-K-21K21S2,646,experiment,83,↑,up,↑,0.3426636001095176,True,28,1
KS-K-21K21S2,647,experiment,56,→,left,←,0.5053943998645991,False,28,0
KS-K-21K21S2,648,experiment,63,↑,up,↑,0.463757700053975,True,28,1
KS-K-21K21S2,649,experiment,69,→,right,→,0.6378536000847816,True,28,1
KS-K-21K21S2,650,experiment,89,↓,down,↓,0.686311700148508,True,28,1
KS-K-21K21S2,651,experiment,98,→,right,→,0.5539528001099825,True,28,1
KS-K-21K21S2,652,experiment,81,→,right,→,0.4167162000667304,True,28,1
KS-K-21K21S2,653,experiment,50,↑,up,↑,0.40695769991725683,True,28,1
KS-K-21K21S2,654,experiment,65,↑,up,↑,0.5289261001162231,True,28,0
KS-K-21K21S2,655,experiment,104,←,left,←,0.6246615001000464,True,28,1
KS-K-21K21S2,656,experiment,70,↑,up,↑,0.3507417000364512,True,28,1
KS-K-21K21S2,657,experiment,53,←,left,←,0.36933539994060993,True,28,0
KS-K-21K21S2,658,experiment,59,←,left,←,0.3594839998986572,True,28,0
KS-K-21K21S2,659,experiment,67,↑,up,↑,0.4795400002039969,True,28,1
KS-K-21K21S2,660,experiment,64,↑,up,↑,0.3679333000909537,True,28,1
KS-K-21K21S2,661,experiment,97,↓,down,↓,0.5189932999201119,True,28,1
KS-K-21K21S2,662,experiment,78,↑,up,↑,0.36105379997752607,True,28,1
KS-K-21K21S2,663,experiment,48,←,left,←,0.6326882001012564,True,28,1
KS-K-21K21S2,664,experiment,103,→,right,→,0.948674599872902,True,28,1
KS-K-21K21S2,665,experiment,82,→,right,→,0.5869712000712752,True,28,1
KS-K-21K21S2,666,experiment,85,↑,up,↑,0.4710260001011193,True,28,1
KS-K-21K21S2,667,experiment,55,↑,up,↑,1.4176882000174373,True,28,1
KS-K-21K21S2,668,experiment,58,←,left,←,0.3593012001365423,True,28,1
KS-K-21K21S2,669,experiment,60,↑,left,←,0.6906501001212746,False,28,1
KS-K-21K21S2,670,experiment,77,←,left,←,0.3592721000313759,True,28,1
KS-K-21K21S2,671,training,74,→,right,→,0.4972008001059294,True,28,0
KS-K-21K21S2,672,training,106,→,right,→,0.5695423998404294,True,28,1
KS-K-21K21S2,673,experiment,58,↓,down,↓,0.47957510012201965,True,28,1
KS-K-21K21S2,674,experiment,106,↓,right,→,0.5285219000652432,False,28,1
KS-K-21K21S2,675,experiment,56,→,right,→,0.30981160001829267,True,28,1
KS-K-21K21S2,676,experiment,48,↑,up,↑,0.40446650004014373,True,28,1
KS-K-21K21S2,677,experiment,65,←,left,←,0.47767870011739433,True,28,1
KS-K-21K21S2,678,experiment,64,←,left,←,0.5808729000855237,True,28,1
KS-K-21K21S2,679,experiment,50,→,right,→,0.37615310004912317,True,28,1
KS-K-21K21S2,680,experiment,63,←,left,←,0.5443297999445349,True,28,1
KS-K-21K21S2,681,experiment,53,↓,down,↓,0.47245949995703995,True,28,1
KS-K-21K21S2,682,experiment,60,→,right,→,0.4812243999913335,True,28,1
KS-K-21K21S2,683,experiment,86,→,right,→,0.37787239998579025,True,28,1
KS-K-21K21S2,684,experiment,97,→,right,→,0.6005530001129955,True,28,0
KS-K-21K21S2,685,experiment,99,↑,up,↑,0.5514552001841366,True,28,1
KS-K-21K21S2,686,experiment,52,↓,down,↓,0.6798509999644011,True,28,1
KS-K-21K21S2,687,experiment,101,←,right,→,0.6264490000903606,False,28,1
KS-K-21K21S2,688,experiment,82,→,right,→,0.3509986998979002,True,28,1
KS-K-21K21S2,689,experiment,70,↑,up,↑,0.5518940999172628,True,28,0
KS-K-21K21S2,690,experiment,108,←,left,←,0.5177412999328226,True,28,1
KS-K-21K21S2,691,experiment,95,↓,down,↓,0.6489852000959218,True,28,1
KS-K-21K21S2,692,experiment,66,←,left,←,0.4169405000284314,True,28,1
KS-K-21K21S2,693,experiment,93,←,left,←,0.5610418999567628,True,28,1
KS-K-21K21S2,694,experiment,68,↑,up,↑,0.5235011000186205,True,28,1
KS-K-21K21S2,695,experiment,74,←,left,←,0.5017194000538439,True,28,1
KS-K-21K21S2,696,experiment,88,←,left,←,0.32600120012648404,True,28,1
KS-K-21K21S2,697,experiment,80,→,right,→,0.44388559996150434,True,28,0
KS-K-21K21S2,698,experiment,73,↑,up,↑,0.37616169988177717,True,28,1
KS-K-21K21S2,699,experiment,91,↑,up,↑,0.5473094000481069,True,28,0
KS-K-21K21S2,700,experiment,96,↑,up,↑,0.5333076000679284,True,28,1
KS-K-21K21S2,701,experiment,51,→,right,→,0.43042370001785457,True,28,1
KS-K-21K21S2,702,experiment,76,→,right,→,0.40444589988328516,True,28,1
KS-K-21K21S2,703,experiment,83,←,left,←,1.3111654999665916,True,28,0
KS-K-21K21S2,704,experiment,55,↑,up,↑,0.47997800004668534,True,28,1
KS-K-21K21S2,705,experiment,71,↓,down,↓,0.5967371000442654,True,28,1
KS-K-21K21S2,706,experiment,72,→,right,→,0.38438599999062717,True,28,1
KS-K-21K21S2,707,experiment,105,→,right,→,0.4177610999904573,True,28,0
KS-K-21K21S2,708,experiment,75,←,left,←,0.6874730000272393,True,28,1
KS-K-21K21S2,709,experiment,54,↓,down,↓,0.48971869982779026,True,28,1
KS-K-21K21S2,710,experiment,57,↑,no_key,no_letter,-1.0,False,28,1
KS-K-21K21S2,711,experiment,61,→,right,→,0.8740652999840677,True,28,1
KS-K-21K21S2,712,experiment,62,←,left,←,0.31777300010435283,True,28,1
KS-K-21K21S2,713,experiment,49,↓,up,↑,0.4206254999153316,False,28,1
KS-K-21K21S2,714,experiment,102,→,right,→,0.5930882999673486,True,28,1
KS-K-21K21S2,715,experiment,104,↓,down,↓,0.5585227999836206,True,28,1
KS-K-21K21S2,716,experiment,79,←,left,←,1.4856594000011683,True,28,1
KS-K-21K21S2,717,experiment,85,↑,up,↑,0.5095188999548554,True,28,1
KS-K-21K21S2,718,experiment,90,↓,up,↑,0.5149075000081211,False,28,1
KS-K-21K21S2,719,experiment,67,→,left,←,0.6317121000029147,False,28,1
KS-K-21K21S2,720,experiment,81,←,left,←,0.531300500035286,True,28,1
KS-K-21K21S2,721,experiment,87,←,left,←,0.5125319000799209,True,28,1
KS-K-21K21S2,722,experiment,77,↓,down,↓,0.47413069987669587,True,28,1
KS-K-21K21S2,723,experiment,84,↓,up,↑,0.5786051999311894,False,28,1
KS-K-21K21S2,724,experiment,92,↓,down,↓,0.580539199989289,True,28,1
KS-K-21K21S2,725,experiment,98,←,left,←,0.5965157998725772,True,28,1
KS-K-21K21S2,726,experiment,103,→,left,←,0.6342071001417935,False,28,1
KS-K-21K21S2,727,experiment,94,↓,down,↓,0.4568455000407994,True,28,1
KS-K-21K21S2,728,experiment,89,↑,up,↑,0.5686627998948097,True,28,1
KS-K-21K21S2,729,experiment,78,↑,up,↑,0.5115559999831021,True,28,1
KS-K-21K21S2,730,experiment,107,↓,down,↓,0.663352900184691,True,28,1
KS-K-21K21S2,731,experiment,59,↑,up,↑,0.5214404000435024,True,28,1
KS-K-21K21S2,732,experiment,100,↑,no_key,no_letter,-1.0,False,28,1
KS-K-21K21S2,733,experiment,69,←,left,←,0.49506089999340475,True,28,1
KS-K-21K21S2,734,training,56,→,right,→,0.5917659001424909,True,28,0
KS-K-21K21S2,735,training,88,↑,up,↑,0.3676769998855889,True,28,1
KS-K-21K21S2,736,experiment,103,→,right,→,0.3759651000145823,True,28,1
KS-K-21K21S2,737,experiment,78,↑,up,↑,0.36099640000611544,True,28,1
KS-K-21K21S2,738,experiment,90,←,left,←,0.5063917001243681,True,28,0
KS-K-21K21S2,739,experiment,67,↓,down,↓,0.45555120008066297,True,28,1
KS-K-21K21S2,740,experiment,81,↑,up,↑,0.545616100076586,True,28,1
KS-K-21K21S2,741,experiment,58,↑,up,↑,0.3775838001165539,True,28,1
KS-K-21K21S2,742,experiment,86,←,left,←,0.35110749979503453,True,28,0
KS-K-21K21S2,743,experiment,62,←,right,→,0.8564484000671655,False,28,0
KS-K-21K21S2,744,experiment,106,↑,up,↑,0.3676416000816971,True,28,1
KS-K-21K21S2,745,experiment,63,→,right,→,0.43045350001193583,True,28,1
KS-K-21K21S2,746,experiment,98,→,right,→,0.5641279998235404,True,28,1
KS-K-21K21S2,747,experiment,69,←,right,→,0.46997279999777675,False,28,1
KS-K-21K21S2,748,experiment,97,↑,up,↑,0.48287900001741946,True,28,1
KS-K-21K21S2,749,experiment,88,→,right,→,0.37620469997636974,True,28,1
KS-K-21K21S2,750,experiment,83,↓,down,↓,0.6626561998855323,True,28,1
KS-K-21K21S2,751,experiment,99,←,no_key,no_letter,-1.0,False,28,1
KS-K-21K21S2,752,experiment,66,→,right,→,0.4482526001520455,True,28,1
KS-K-21K21S2,753,experiment,64,→,right,→,0.3594404000323266,True,28,1
KS-K-21K21S2,754,experiment,93,↑,up,↑,1.8266634000465274,True,28,0
KS-K-21K21S2,755,experiment,48,↓,down,↓,0.697280699852854,True,28,1
KS-K-21K21S2,756,experiment,55,↑,up,↑,0.35959809995256364,True,28,1
KS-K-21K21S2,757,experiment,80,→,right,→,1.0010063000954688,True,28,1
KS-K-21K21S2,758,experiment,75,→,right,→,0.6238369001075625,True,28,1
KS-K-21K21S2,759,experiment,51,↑,no_key,no_letter,-1.0,False,28,1
KS-K-21K21S2,760,experiment,70,→,right,→,0.4976880999747664,True,28,1
KS-K-21K21S2,761,experiment,104,←,left,←,0.8108349000103772,True,28,1
KS-K-21K21S2,762,experiment,101,↑,up,↑,0.5204580000136048,True,28,1
KS-K-21K21S2,763,experiment,107,←,left,←,0.5034805000759661,True,28,1
KS-K-21K21S2,764,experiment,100,↓,down,↓,0.6815271000377834,True,28,1
KS-K-21K21S2,765,experiment,65,→,left,←,0.4400913000572473,False,28,1
KS-K-21K21S2,766,experiment,57,↓,down,↓,0.4673564999829978,True,28,1
KS-K-21K21S2,767,experiment,79,→,right,→,0.3759105000644922,True,28,1
KS-K-21K21S2,768,experiment,102,↑,up,↑,1.7805822999216616,True,28,0
KS-K-21K21S2,769,experiment,108,↑,up,↑,0.6807449997868389,True,28,1
KS-K-21K21S2,770,experiment,73,↑,up,↑,0.4847880001179874,True,28,1
KS-K-21K21S2,771,experiment,49,←,left,←,0.6647876999340951,True,28,1
KS-K-21K21S2,772,experiment,96,←,left,←,0.37593789980746806,True,28,1
KS-K-21K21S2,773,experiment,92,←,left,←,0.351238600211218,True,28,0
KS-K-21K21S2,774,experiment,61,↓,down,↓,0.7167658000253141,True,28,1
KS-K-21K21S2,775,experiment,59,→,left,←,0.5161974001675844,False,28,1
KS-K-21K21S2,776,experiment,91,→,right,→,0.3513734999578446,True,28,1
KS-K-21K21S2,777,experiment,77,↓,down,↓,0.4728482000064105,True,28,0
KS-K-21K21S2,778,experiment,95,←,left,←,0.3513690000399947,True,28,1
KS-K-21K21S2,779,experiment,85,↓,down,↓,0.5228818999603391,True,28,1
KS-K-21K21S2,780,experiment,71,↑,up,↑,0.6297721001319587,True,28,1
KS-K-21K21S2,781,experiment,82,↓,down,↓,0.4650010000914335,True,28,1
KS-K-21K21S2,782,experiment,87,→,right,→,0.5529505000449717,True,28,1
KS-K-21K21S2,783,experiment,50,←,left,←,0.498060799902305,True,28,1
KS-K-21K21S2,784,experiment,89,→,no_key,no_letter,-1.0,False,28,1
KS-K-21K21S2,785,experiment,74,↑,down,↓,0.6986241000704467,False,28,1
KS-K-21K21S2,786,experiment,84,↑,up,↑,0.5943092999514192,True,28,1
KS-K-21K21S2,787,experiment,60,↑,up,↑,0.46228180010803044,True,28,1
KS-K-21K21S2,788,experiment,56,←,left,←,0.6009128999430686,True,28,1
KS-K-21K21S2,789,experiment,52,←,left,←,0.3682555998675525,True,28,1
KS-K-21K21S2,790,experiment,94,↓,down,↓,0.5128145001363009,True,28,1
KS-K-21K21S2,791,experiment,72,←,left,←,0.3427629000507295,True,28,1
KS-K-21K21S2,792,experiment,105,←,left,←,0.3179105999879539,True,28,0
KS-K-21K21S2,793,experiment,68,↓,down,↓,0.4865311998873949,True,28,1
KS-K-21K21S2,794,experiment,76,↓,down,↓,0.4974334000144154,True,28,1
KS-K-21K21S2,795,experiment,54,↑,up,↑,0.4191370999906212,True,28,1
KS-K-21K21S2,796,experiment,53,←,left,←,0.40834850003011525,True,28,1
KS-K-21K21S2,797,training,60,→,right,→,0.9360877999570221,True,28,0
KS-K-21K21S2,798,training,78,←,left,←,0.3507004000712186,True,28,1
KS-K-21K21S2,799,experiment,71,→,right,→,0.6262374999932945,True,28,0
KS-K-21K21S2,800,experiment,91,↓,down,↓,0.5705500999465585,True,28,1
KS-K-21K21S2,801,experiment,49,→,right,→,0.626971899997443,True,28,1
KS-K-21K21S2,802,experiment,93,→,right,→,0.3596003002021462,True,28,1
KS-K-21K21S2,803,experiment,77,↓,down,↓,0.6581103999633342,True,28,1
KS-K-21K21S2,804,experiment,96,←,left,←,0.37624110002070665,True,28,1
KS-K-21K21S2,805,experiment,103,↑,no_key,no_letter,-1.0,False,28,0
KS-K-21K21S2,806,experiment,72,↓,down,↓,0.5851727998815477,True,28,1
KS-K-21K21S2,807,experiment,83,→,right,→,0.7337505999021232,True,28,1
KS-K-21K21S2,808,experiment,58,←,left,←,0.3424587999470532,True,28,1
KS-K-21K21S2,809,experiment,88,→,right,→,0.36788769997656345,True,28,0
KS-K-21K21S2,810,experiment,65,→,right,→,0.3585535001475364,True,28,0
KS-K-21K21S2,811,experiment,51,↓,right,→,0.9724882999435067,False,28,0
KS-K-21K21S2,812,experiment,102,→,right,→,0.36756520019844174,True,28,1
KS-K-21K21S2,813,experiment,87,→,right,→,0.6709154997952282,True,28,0
KS-K-21K21S2,814,experiment,55,↓,down,↓,0.5854116000700742,True,28,1
KS-K-21K21S2,815,experiment,95,↑,up,↑,0.41008280008099973,True,28,1
KS-K-21K21S2,816,experiment,100,←,left,←,0.4473872999660671,True,28,1
KS-K-21K21S2,817,experiment,64,↑,up,↑,0.5839365001302212,True,28,1
KS-K-21K21S2,818,experiment,94,↓,down,↓,0.4729344001971185,True,28,1
KS-K-21K21S2,819,experiment,48,←,left,←,0.4138577999547124,True,28,1
KS-K-21K21S2,820,experiment,106,↑,up,↑,0.3428676000330597,True,28,1
KS-K-21K21S2,821,experiment,86,←,left,←,0.5184694000054151,True,28,1
KS-K-21K21S2,822,experiment,84,↑,up,↑,0.4695900999940932,True,28,1
KS-K-21K21S2,823,experiment,54,←,left,←,0.47262390004470944,True,28,1
KS-K-21K21S2,824,experiment,78,↓,up,↑,0.9393581999465823,False,28,1
KS-K-21K21S2,825,experiment,70,↑,left,←,0.6380640999414027,False,28,1
KS-K-21K21S2,826,experiment,82,←,left,←,0.5127272999379784,True,28,1
KS-K-21K21S2,827,experiment,62,→,right,→,0.4232790998648852,True,28,1
KS-K-21K21S2,828,experiment,97,↑,up,↑,0.5976267999503762,True,28,1
KS-K-21K21S2,829,experiment,60,↓,up,↑,0.5132522000931203,False,28,1
KS-K-21K21S2,830,experiment,92,↓,down,↓,0.6616418999619782,True,28,1
KS-K-21K21S2,831,experiment,67,↓,down,↓,0.44479280011728406,True,28,1
KS-K-21K21S2,832,experiment,85,↓,down,↓,0.6545056998729706,True,28,1
KS-K-21K21S2,833,experiment,98,→,right,→,0.6115480998996645,True,28,1
KS-K-21K21S2,834,experiment,108,←,no_key,no_letter,-1.0,False,28,1
KS-K-21K21S2,835,experiment,53,→,right,→,0.5605050001759082,True,28,1
KS-K-21K21S2,836,experiment,81,→,right,→,0.6070948000997305,True,28,1
KS-K-21K21S2,837,experiment,66,↓,down,↓,0.4883456998504698,True,28,1
KS-K-21K21S2,838,experiment,69,↓,down,↓,0.4773824999574572,True,28,1
KS-K-21K21S2,839,experiment,99,↑,down,↓,0.7046695000026375,False,28,1
KS-K-21K21S2,840,experiment,68,↑,up,↑,0.35861060000024736,True,28,1
KS-K-21K21S2,841,experiment,89,→,right,→,0.41672690003179014,True,28,0
KS-K-21K21S2,842,experiment,63,↑,up,↑,0.383923799963668,True,28,1
KS-K-21K21S2,843,experiment,59,↑,up,↑,0.3095342998858541,True,28,0
KS-K-21K21S2,844,experiment,73,←,left,←,0.3594255999196321,True,28,0
KS-K-21K21S2,845,experiment,101,↓,up,↑,0.7696576002053916,False,28,0
KS-K-21K21S2,846,experiment,105,↑,up,↑,0.38444940000772476,True,28,1
KS-K-21K21S2,847,experiment,107,→,left,←,0.5001395000144839,False,28,0
KS-K-21K21S2,848,experiment,75,→,left,←,0.5747683001682162,False,28,1
KS-K-21K21S2,849,experiment,50,→,right,→,0.4308134999591857,True,28,1
KS-K-21K21S2,850,experiment,79,←,left,←,0.6029101999010891,True,28,1
KS-K-21K21S2,851,experiment,90,←,left,←,0.500286600086838,True,28,1
KS-K-21K21S2,852,experiment,56,←,left,←,0.5651825000531971,True,28,1
KS-K-21K21S2,853,experiment,76,↑,up,↑,0.5330699000041932,True,28,1
KS-K-21K21S2,854,experiment,52,↑,up,↑,0.3361319999676198,True,28,1
KS-K-21K21S2,855,experiment,80,←,left,←,0.3340255001094192,True,28,1
KS-K-21K21S2,856,experiment,57,↑,up,↑,0.405229700030759,True,28,0
KS-K-21K21S2,857,experiment,61,↓,down,↓,0.9435123999137431,True,28,1
KS-K-21K21S2,858,experiment,104,→,right,→,0.3528660999145359,True,28,1
KS-K-21K21S2,859,experiment,74,↑,up,↑,0.5033803000114858,True,28,1
KS-K-21K21S2,860,training,86,→,right,→,0.5010023999493569,True,28,0
KS-K-21K21S2,861,training,72,←,left,←,0.35113690001890063,True,28,1
KS-K-21K21S2,862,experiment,65,→,right,→,0.5965090999379754,True,28,0
KS-K-21K21S2,863,experiment,73,↓,down,↓,0.49989099986851215,True,28,1
KS-K-21K21S2,864,experiment,75,←,left,←,0.4946816998999566,True,28,1
KS-K-21K21S2,865,experiment,77,→,right,→,0.3834238999988884,True,28,1
KS-K-21K21S2,866,experiment,80,←,left,←,0.5826775999739766,True,28,0
KS-K-21K21S2,867,experiment,63,↑,up,↑,0.5139347999356687,True,28,1
KS-K-21K21S2,868,experiment,68,→,right,→,0.5983529998920858,True,28,1
KS-K-21K21S2,869,experiment,102,↓,down,↓,0.49188080010935664,True,28,1
KS-K-21K21S2,870,experiment,54,→,left,←,0.47005989984609187,False,28,1
KS-K-21K21S2,871,experiment,66,←,left,←,0.5172532999422401,True,28,1
KS-K-21K21S2,872,experiment,107,↓,down,↓,0.6525524999015033,True,28,1
KS-K-21K21S2,873,experiment,95,←,left,←,0.41874890006147325,True,28,1
KS-K-21K21S2,874,experiment,59,↑,up,↑,0.3350156999658793,True,28,1
KS-K-21K21S2,875,experiment,90,→,right,→,0.4027257999405265,True,28,0
KS-K-21K21S2,876,experiment,70,←,left,←,0.4030049000866711,True,28,0
KS-K-21K21S2,877,experiment,101,↑,up,↑,0.608177499845624,True,28,0
KS-K-21K21S2,878,experiment,58,←,left,←,0.38453759998083115,True,28,1
KS-K-21K21S2,879,experiment,78,←,left,←,0.3005148000083864,True,28,0
KS-K-21K21S2,880,experiment,56,↑,up,↑,0.8588771000504494,True,28,0
KS-K-21K21S2,881,experiment,83,←,left,←,0.3592516998760402,True,28,1
KS-K-21K21S2,882,experiment,82,→,left,←,0.8103901001159102,False,28,1
KS-K-21K21S2,883,experiment,53,↓,down,↓,0.46395240002311766,True,28,1
KS-K-21K21S2,884,experiment,92,↑,up,↑,0.5828551999293268,True,28,1
KS-K-21K21S2,885,experiment,104,↑,up,↑,0.37623540009371936,True,28,1
KS-K-21K21S2,886,experiment,62,→,left,←,0.5279516000300646,False,28,1
KS-K-21K21S2,887,experiment,81,→,right,→,0.42336300015449524,True,28,1
KS-K-21K21S2,888,experiment,50,←,left,←,0.4058125000447035,True,28,1
KS-K-21K21S2,889,experiment,61,←,left,←,0.35115680005401373,True,28,0
KS-K-21K21S2,890,experiment,91,→,right,→,0.4040763999801129,True,28,0
KS-K-21K21S2,891,experiment,49,↑,up,↑,0.3510705998633057,True,28,0
KS-K-21K21S2,892,experiment,108,↓,down,↓,0.6081801000982523,True,28,0
KS-K-21K21S2,893,experiment,103,→,left,←,0.7012283001095057,False,28,1
KS-K-21K21S2,894,experiment,64,↓,up,↑,0.5956482000183314,False,28,1
KS-K-21K21S2,895,experiment,79,↓,down,↓,0.47320870007388294,True,28,1
KS-K-21K21S2,896,experiment,106,↑,up,↑,0.3760820999741554,True,28,1
KS-K-21K21S2,897,experiment,52,↑,up,↑,0.33400829997844994,True,28,0
KS-K-21K21S2,898,experiment,89,→,right,→,1.0703310000244528,True,28,0
KS-K-21K21S2,899,experiment,57,↑,up,↑,0.47990650008432567,True,28,1
KS-K-21K21S2,900,experiment,98,→,right,→,0.4119443001691252,True,28,1
KS-K-21K21S2,901,experiment,51,←,left,←,0.5217153001576662,True,28,1
KS-K-21K21S2,902,experiment,69,→,right,→,0.5655778001528233,True,28,1
KS-K-21K21S2,903,experiment,94,↓,down,↓,0.6712526001501828,True,28,1
KS-K-21K21S2,904,experiment,60,↑,up,↑,0.49597789999097586,True,28,1
KS-K-21K21S2,905,experiment,84,→,right,→,0.6476630999241024,True,28,1
KS-K-21K21S2,906,experiment,88,←,left,←,0.3609248998109251,True,28,1
KS-K-21K21S2,907,experiment,71,←,left,←,0.3678678998257965,True,28,0
KS-K-21K21S2,908,experiment,55,↑,up,↑,0.35989469988271594,True,28,1
KS-K-21K21S2,909,experiment,76,↓,down,↓,0.47919980017468333,True,28,0
KS-K-21K21S2,910,experiment,105,↑,up,↑,0.5923311000224203,True,28,1
KS-K-21K21S2,911,experiment,100,↑,up,↑,0.6794924999121577,True,28,1
KS-K-21K21S2,912,experiment,99,↓,down,↓,0.4664867001120001,True,28,1
KS-K-21K21S2,913,experiment,97,→,left,←,0.6231875999365002,False,28,1
KS-K-21K21S2,914,experiment,96,←,left,←,0.5818795999512076,True,28,1
KS-K-21K21S2,915,experiment,74,↓,down,↓,0.5097711998969316,True,28,1
KS-K-21K21S2,916,experiment,72,←,left,←,0.42507530003786087,True,28,1
KS-K-21K21S2,917,experiment,93,↑,up,↑,0.6327745001763105,True,28,1
KS-K-21K21S2,918,experiment,86,→,right,→,0.3596353998873383,True,28,1
KS-K-21K21S2,919,experiment,48,←,left,←,0.384447299875319,True,28,1
KS-K-21K21S2,920,experiment,85,→,right,→,0.7034220998175442,True,28,1
KS-K-21K21S2,921,experiment,87,↓,down,↓,0.5019830998498946,True,28,1
KS-K-21K21S2,922,experiment,67,→,no_key,no_letter,-1.0,False,28,1
KS-K-21K21S2,923,training,95,→,right,→,0.31783260009251535,True,28,0
KS-K-21K21S2,924,training,92,→,right,→,0.267184300115332,True,28,0
KS-K-21K21S2,925,experiment,94,←,no_key,no_letter,-1.0,False,28,0
KS-K-21K21S2,926,experiment,102,←,left,←,0.549523500027135,True,28,1
KS-K-21K21S2,927,experiment,65,↓,down,↓,0.6256639999337494,True,28,1
KS-K-21K21S2,928,experiment,107,↑,down,↓,1.2207937999628484,False,28,1
KS-K-21K21S2,929,experiment,57,→,right,→,0.6002919999882579,True,28,1
KS-K-21K21S2,930,experiment,53,→,right,→,0.5824356998782605,True,28,1
KS-K-21K21S2,931,experiment,84,↓,down,↓,0.5869276998564601,True,28,1
KS-K-21K21S2,932,experiment,64,→,right,→,0.5173850001301616,True,28,1
KS-K-21K21S2,933,experiment,55,←,left,←,0.5903877001255751,True,28,1
KS-K-21K21S2,934,experiment,82,↓,down,↓,0.6351491999812424,True,28,1
KS-K-21K21S2,935,experiment,69,↑,up,↑,0.6020345001015812,True,28,1
KS-K-21K21S2,936,experiment,86,→,right,→,0.4057479000184685,True,28,1
KS-K-21K21S2,937,experiment,101,←,left,←,0.5949035999365151,True,28,0
KS-K-21K21S2,938,experiment,60,↑,up,↑,0.38428570004180074,True,28,1
KS-K-21K21S2,939,experiment,105,→,right,→,0.5796084001194686,True,28,1
KS-K-21K21S2,940,experiment,52,↑,up,↑,0.35934339999221265,True,28,1
KS-K-21K21S2,941,experiment,61,→,right,→,0.40783379995264113,True,28,0
KS-K-21K21S2,942,experiment,54,←,left,←,0.3762497000861913,True,28,1
KS-K-21K21S2,943,experiment,103,←,right,→,0.635414500022307,False,28,0
KS-K-21K21S2,944,experiment,71,→,right,→,0.5378263001330197,True,28,1
KS-K-21K21S2,945,experiment,88,↑,up,↑,0.5264610999729484,True,28,1
KS-K-21K21S2,946,experiment,56,→,right,→,0.622779699973762,True,28,1
KS-K-21K21S2,947,experiment,68,↓,down,↓,0.4465864000376314,True,28,1
KS-K-21K21S2,948,experiment,80,→,right,→,0.32623620005324483,True,28,1
KS-K-21K21S2,949,experiment,85,↑,up,↑,0.42383770016022027,True,28,1
KS-K-21K21S2,950,experiment,100,↓,down,↓,0.7093591999728233,True,28,1
KS-K-21K21S2,951,experiment,73,←,left,←,0.4482410999480635,True,28,1
KS-K-21K21S2,952,experiment,92,→,left,←,0.5192611999809742,False,28,1
KS-K-21K21S2,953,experiment,66,↑,up,↑,0.6040308000519872,True,28,1
KS-K-21K21S2,954,experiment,78,→,right,→,0.37624859996140003,True,28,1
KS-K-21K21S2,955,experiment,50,↑,up,↑,1.0652851001359522,True,28,1
KS-K-21K21S2,956,experiment,81,↑,left,←,0.555257799802348,False,28,1
KS-K-21K21S2,957,experiment,108,↓,down,↓,0.46466100006364286,True,28,1
KS-K-21K21S2,958,experiment,106,↓,down,↓,0.41833080002106726,True,28,1
KS-K-21K21S2,959,experiment,79,↓,down,↓,0.6310926000587642,True,28,1
KS-K-21K21S2,960,experiment,91,←,left,←,0.5352833999786526,True,28,1
KS-K-21K21S2,961,experiment,51,→,left,←,0.5765108000487089,False,28,1
KS-K-21K21S2,962,experiment,76,→,no_key,no_letter,-1.0,False,28,1
KS-K-21K21S2,963,experiment,75,↓,down,↓,0.49050850002095103,True,28,1
KS-K-21K21S2,964,experiment,93,→,right,→,0.6076613001059741,True,28,1
KS-K-21K21S2,965,experiment,77,↑,up,↑,0.6053578001447022,True,28,1
KS-K-21K21S2,966,experiment,59,↑,up,↑,0.4331629001535475,True,28,1
KS-K-21K21S2,967,experiment,96,→,left,←,0.5593602999579161,False,28,1
KS-K-21K21S2,968,experiment,95,↓,down,↓,0.49717359989881516,True,28,1
KS-K-21K21S2,969,experiment,98,←,no_key,no_letter,-1.0,False,28,1
KS-K-21K21S2,970,experiment,70,↑,up,↑,0.5123896999284625,True,28,1
KS-K-21K21S2,971,experiment,83,→,no_key,no_letter,-1.0,False,28,1
KS-K-21K21S2,972,experiment,99,↑,up,↑,0.42625469993799925,True,28,1
KS-K-21K21S2,973,experiment,72,→,right,→,0.616985599976033,True,28,1
KS-K-21K21S2,974,experiment,49,↓,down,↓,0.4875723000150174,True,28,1
KS-K-21K21S2,975,experiment,89,↑,up,↑,0.5585547999944538,True,28,1
KS-K-21K21S2,976,experiment,67,↑,up,↑,0.48920650011859834,True,28,1
KS-K-21K21S2,977,experiment,97,↓,up,↑,0.5251696999184787,False,28,1
KS-K-21K21S2,978,experiment,58,↑,up,↑,0.4523946000263095,True,28,1
KS-K-21K21S2,979,experiment,74,↓,down,↓,0.4895353999454528,True,28,1
KS-K-21K21S2,980,experiment,48,←,left,←,0.3503791999537498,True,28,1
KS-K-21K21S2,981,experiment,87,←,left,←,0.5539764999412,True,28,0
KS-K-21K21S2,982,experiment,90,←,left,←,0.3758657998405397,True,28,1
KS-K-21K21S2,983,experiment,63,↑,up,↑,0.4811591999605298,True,28,1
KS-K-21K21S2,984,experiment,62,→,left,←,0.4649829000700265,False,28,1
KS-K-21K21S2,985,experiment,104,→,right,→,0.6434394000098109,True,28,1
KS-K-21K21S2,986,training,99,↑,up,↑,0.3429527000989765,True,28,0
KS-K-21K21S2,987,training,51,←,left,←,0.36759430007077754,True,28,0
KS-K-21K21S2,988,experiment,78,→,right,→,0.38407630007714033,True,28,0
KS-K-21K21S2,989,experiment,79,←,left,←,0.7263810997828841,True,28,0
KS-K-21K21S2,990,experiment,56,←,left,←,0.34332509990781546,True,28,1
KS-K-21K21S2,991,experiment,80,↑,up,↑,0.49349809996783733,True,28,0
KS-K-21K21S2,992,experiment,95,←,left,←,0.4734816998243332,True,28,1
KS-K-21K21S2,993,experiment,89,↓,down,↓,0.5047967000864446,True,28,1
KS-K-21K21S2,994,experiment,62,←,left,←,0.4793815000448376,True,28,1
KS-K-21K21S2,995,experiment,85,↓,down,↓,0.6234454000368714,True,28,1
KS-K-21K21S2,996,experiment,61,↓,down,↓,0.6818548000883311,True,28,1
KS-K-21K21S2,997,experiment,83,→,right,→,0.40316849993541837,True,28,1
KS-K-21K21S2,998,experiment,88,→,right,→,0.3508748000022024,True,28,0
KS-K-21K21S2,999,experiment,64,↑,up,↑,0.6566875001881272,True,28,0
KS-K-21K21S2,1000,experiment,54,←,left,←,0.41245970013551414,True,28,1
KS-K-21K21S2,1001,experiment,69,↑,up,↑,0.35045960010029376,True,28,1
KS-K-21K21S2,1002,experiment,100,→,right,→,0.5483864000998437,True,28,0
KS-K-21K21S2,1003,experiment,68,←,left,←,0.3257200000807643,True,28,1
KS-K-21K21S2,1004,experiment,75,↑,up,↑,0.5689291001763195,True,28,0
KS-K-21K21S2,1005,experiment,82,↓,down,↓,0.6786217000335455,True,28,1
KS-K-21K21S2,1006,experiment,87,↓,down,↓,0.49437409988604486,True,28,1
KS-K-21K21S2,1007,experiment,57,↑,down,↓,0.7190757000353187,False,28,1
KS-K-21K21S2,1008,experiment,58,←,left,←,0.5746573999058455,True,28,1
KS-K-21K21S2,1009,experiment,106,→,right,→,0.5881811999715865,True,28,1
KS-K-21K21S2,1010,experiment,98,↑,up,↑,0.40384009992703795,True,28,1
KS-K-21K21S2,1011,experiment,101,↑,up,↑,0.42531530000269413,True,28,0
KS-K-21K21S2,1012,experiment,77,→,right,→,0.46229019993916154,True,28,1
KS-K-21K21S2,1013,experiment,50,↓,down,↓,0.6507999999448657,True,28,1
KS-K-21K21S2,1014,experiment,99,→,right,→,0.3763669999316335,True,28,1
KS-K-21K21S2,1015,experiment,97,←,left,←,0.38459719996899366,True,28,1
KS-K-21K21S2,1016,experiment,103,←,left,←,0.3344360999763012,True,28,0
KS-K-21K21S2,1017,experiment,94,↑,up,↑,0.35266049997881055,True,28,0
KS-K-21K21S2,1018,experiment,53,↓,down,↓,0.47950729983858764,True,28,1
KS-K-21K21S2,1019,experiment,93,↑,up,↑,0.33369569992646575,True,28,1
KS-K-21K21S2,1020,experiment,52,↑,up,↑,0.33378019998781383,True,28,0
KS-K-21K21S2,1021,experiment,84,↑,up,↑,0.28458199999295175,True,28,0
KS-K-21K21S2,1022,experiment,63,↓,up,↑,0.3010362999048084,False,28,0
KS-K-21K21S2,1023,experiment,48,→,left,←,0.5342825001571327,False,28,0
KS-K-21K21S2,1024,experiment,60,↓,down,↓,0.5647275999654084,True,28,1
KS-K-21K21S2,1025,experiment,51,→,right,→,0.41304960008710623,True,28,1
KS-K-21K21S2,1026,experiment,70,↓,up,↑,0.8285161999519914,False,28,1
KS-K-21K21S2,1027,experiment,76,↑,up,↑,0.40183350001461804,True,28,1
KS-K-21K21S2,1028,experiment,92,↓,up,↑,0.834723100066185,False,28,0
KS-K-21K21S2,1029,experiment,67,→,right,→,0.5788183000404388,True,28,1
KS-K-21K21S2,1030,experiment,72,↓,down,↓,0.41923319990746677,True,28,1
KS-K-21K21S2,1031,experiment,91,→,right,→,0.4118522999342531,True,28,1
KS-K-21K21S2,1032,experiment,66,↓,down,↓,0.4527330999262631,True,28,1
KS-K-21K21S2,1033,experiment,74,←,left,←,0.5458599000703543,True,28,1
KS-K-21K21S2,1034,experiment,55,↓,down,↓,0.5292076000478119,True,28,1
KS-K-21K21S2,1035,experiment,90,→,left,←,0.5334862000308931,False,28,1
KS-K-21K21S2,1036,experiment,81,←,left,←,0.5488335001282394,True,28,1
KS-K-21K21S2,1037,experiment,73,↓,left,←,0.5742107999976724,False,28,1
KS-K-21K21S2,1038,experiment,107,←,left,←,0.5634271001908928,True,28,1
KS-K-21K21S2,1039,experiment,71,←,left,←,0.5009203001391143,True,28,1
KS-K-21K21S2,1040,experiment,102,→,no_key,no_letter,-1.0,False,28,1
KS-K-21K21S2,1041,experiment,108,↓,down,↓,0.5659493999555707,True,28,1
KS-K-21K21S2,1042,experiment,49,↓,down,↓,0.5667979998979717,True,28,1
KS-K-21K21S2,1043,experiment,105,←,left,←,0.5487772000487894,True,28,1
KS-K-21K21S2,1044,experiment,96,←,left,←,0.5105742998421192,True,28,1
KS-K-21K21S2,1045,experiment,65,→,right,→,0.38381049991585314,True,28,1
KS-K-21K21S2,1046,experiment,104,←,left,←,0.3431039999704808,True,28,0
KS-K-21K21S2,1047,experiment,59,↓,down,↓,0.6478252001106739,True,28,1
KS-K-21K21S2,1048,experiment,86,→,right,→,0.45684659993276,True,28,1
KS-K-21K21S2,1049,training,88,←,right,→,1.0708474998828024,False,28,0
KS-K-21K21S2,1050,training,50,↑,up,↑,0.41870560008101165,True,28,1
KS-K-21K21S2,1051,experiment,108,↑,up,↑,0.4377581998705864,True,28,1
KS-K-21K21S2,1052,experiment,102,←,left,←,0.3338260999880731,True,28,1
KS-K-21K21S2,1053,experiment,69,↑,up,↑,0.2943716000299901,True,28,0
KS-K-21K21S2,1054,experiment,63,↑,up,↑,0.30924260010942817,True,28,0
KS-K-21K21S2,1055,experiment,103,↑,up,↑,0.5564531998243183,True,28,0
KS-K-21K21S2,1056,experiment,105,←,left,←,0.4183056000620127,True,28,1
KS-K-21K21S2,1057,experiment,62,→,right,→,0.4609411000274122,True,28,1
KS-K-21K21S2,1058,experiment,60,←,left,←,0.5180899000260979,True,28,1
KS-K-21K21S2,1059,experiment,49,←,left,←,0.5289803999476135,True,28,1
KS-K-21K21S2,1060,experiment,70,←,left,←,0.334547100123018,True,28,1
KS-K-21K21S2,1061,experiment,101,→,left,←,0.5728166999761015,False,28,1
KS-K-21K21S2,1062,experiment,68,←,left,←,0.3671196000650525,True,28,1
KS-K-21K21S2,1063,experiment,106,←,left,←,0.4601215000730008,True,28,0
KS-K-21K21S2,1064,experiment,51,→,left,←,0.8562360999640077,False,28,1
KS-K-21K21S2,1065,experiment,82,↑,up,↑,0.45821169996634126,True,28,1
KS-K-21K21S2,1066,experiment,104,↓,up,↑,0.3427466999273747,False,28,1
KS-K-21K21S2,1067,experiment,94,↓,up,↑,0.7915131999179721,False,28,0
KS-K-21K21S2,1068,experiment,77,↑,up,↑,0.6776387998834252,True,28,1
KS-K-21K21S2,1069,experiment,59,←,left,←,0.37603859999217093,True,28,1
KS-K-21K21S2,1070,experiment,74,↓,down,↓,0.47065640008077025,True,28,0
KS-K-21K21S2,1071,experiment,56,↑,up,↑,0.8406140999868512,True,28,1
KS-K-21K21S2,1072,experiment,92,→,left,←,0.44009799999184906,False,28,1
KS-K-21K21S2,1073,experiment,96,↑,up,↑,0.5821152999997139,True,28,1
KS-K-21K21S2,1074,experiment,80,←,left,←,0.5878780998755246,True,28,1
KS-K-21K21S2,1075,experiment,65,←,left,←,0.34309089998714626,True,28,1
KS-K-21K21S2,1076,experiment,84,←,left,←,0.5400242998730391,True,28,0
KS-K-21K21S2,1077,experiment,66,↑,up,↑,0.32630109996534884,True,28,1
KS-K-21K21S2,1078,experiment,53,↑,up,↑,0.5130386999808252,True,28,0
KS-K-21K21S2,1079,experiment,57,↓,down,↓,0.48898339993320405,True,28,1
KS-K-21K21S2,1080,experiment,58,→,right,→,1.7696511000394821,True,28,1
KS-K-21K21S2,1081,experiment,87,→,right,→,0.6615502000786364,True,28,1
KS-K-21K21S2,1082,experiment,99,↑,down,↓,0.6416593999601901,False,28,1
KS-K-21K21S2,1083,experiment,61,←,left,←,0.3839614000171423,True,28,1
KS-K-21K21S2,1084,experiment,86,←,left,←,0.550764000043273,True,28,0
KS-K-21K21S2,1085,experiment,71,→,right,→,0.6086091999895871,True,28,1
KS-K-21K21S2,1086,experiment,73,↑,left,←,0.6160466000437737,False,28,1
KS-K-21K21S2,1087,experiment,91,↓,right,→,0.7765522999688983,False,28,1
KS-K-21K21S2,1088,experiment,95,↓,down,↓,0.609603299992159,True,28,1
KS-K-21K21S2,1089,experiment,48,↑,up,↑,0.42503110016696155,True,28,1
KS-K-21K21S2,1090,experiment,88,↓,down,↓,0.6506684001069516,True,28,1
KS-K-21K21S2,1091,experiment,54,←,left,←,1.2862426999490708,True,28,1
KS-K-21K21S2,1092,experiment,67,←,left,←,0.33411090006120503,True,28,1
KS-K-21K21S2,1093,experiment,72,←,left,←,0.718263000017032,True,28,0
KS-K-21K21S2,1094,experiment,76,↓,down,↓,0.5360169999767095,True,28,1
KS-K-21K21S2,1095,experiment,81,→,right,→,0.38445849996060133,True,28,1
KS-K-21K21S2,1096,experiment,75,↑,up,↑,0.6144266000483185,True,28,1
KS-K-21K21S2,1097,experiment,89,→,right,→,0.45622469997033477,True,28,1
KS-K-21K21S2,1098,experiment,79,←,left,←,0.6748621000442654,True,28,1
KS-K-21K21S2,1099,experiment,107,→,right,→,0.37594330008141696,True,28,1
KS-K-21K21S2,1100,experiment,52,→,right,→,0.3263341002166271,True,28,0
KS-K-21K21S2,1101,experiment,100,↓,down,↓,0.46008979994803667,True,28,0
KS-K-21K21S2,1102,experiment,98,↑,up,↑,0.6489184000529349,True,28,1
KS-K-21K21S2,1103,experiment,83,↑,up,↑,0.6109303999692202,True,28,1
KS-K-21K21S2,1104,experiment,90,→,right,→,0.572381200036034,True,28,1
KS-K-21K21S2,1105,experiment,64,→,right,→,0.6157273000571877,True,28,1
KS-K-21K21S2,1106,experiment,85,↓,down,↓,0.44241350004449487,True,28,1
KS-K-21K21S2,1107,experiment,50,→,right,→,0.40872470010071993,True,28,1
KS-K-21K21S2,1108,experiment,93,↓,down,↓,0.4398143000435084,True,28,1
KS-K-21K21S2,1109,experiment,97,↑,up,↑,0.4216564998496324,True,28,1
KS-K-21K21S2,1110,experiment,78,←,left,←,0.5622912000399083,True,28,1
KS-K-21K21S2,1111,experiment,55,↑,up,↑,0.48118770006112754,True,28,1
KS-K-21K21S2,1112,training,73,←,left,←,0.516184699954465,True,28,0
KS-K-21K21S2,1113,training,93,←,left,←,0.6885357999708503,True,28,1
KS-K-21K21S2,1114,experiment,68,→,right,→,0.33452640008181334,True,28,1
KS-K-21K21S2,1115,experiment,88,↓,down,↓,0.6821026999969035,True,28,0
KS-K-21K21S2,1116,experiment,108,↓,down,↓,0.6184602999128401,True,28,1
KS-K-21K21S2,1117,experiment,98,↑,up,↑,0.36964130005799234,True,28,1
KS-K-21K21S2,1118,experiment,102,→,left,←,0.9672461999580264,False,28,0
KS-K-21K21S2,1119,experiment,62,↑,up,↑,0.37600870011374354,True,28,1
KS-K-21K21S2,1120,experiment,53,→,left,←,0.5383874999824911,False,28,1
KS-K-21K21S2,1121,experiment,65,→,right,→,0.44687740015797317,True,28,1
KS-K-21K21S2,1122,experiment,101,←,left,←,0.5309977000579238,True,28,1
KS-K-21K21S2,1123,experiment,57,↓,down,↓,0.49829720007255673,True,28,1
KS-K-21K21S2,1124,experiment,76,↑,up,↑,0.5807485999539495,True,28,1
KS-K-21K21S2,1125,experiment,71,←,left,←,0.37595759984105825,True,28,1
KS-K-21K21S2,1126,experiment,61,↑,up,↑,0.5215745000168681,True,28,1
KS-K-21K21S2,1127,experiment,90,↓,down,↓,0.4623380999546498,True,28,1
KS-K-21K21S2,1128,experiment,107,←,left,←,0.5518951001577079,True,28,1
KS-K-21K21S2,1129,experiment,96,↓,down,↓,0.46576099982485175,True,28,1
KS-K-21K21S2,1130,experiment,87,→,left,←,0.4494503999594599,False,28,1
KS-K-21K21S2,1131,experiment,56,↓,down,↓,0.5086860000155866,True,28,1
KS-K-21K21S2,1132,experiment,104,←,left,←,0.6132797999307513,True,28,1
KS-K-21K21S2,1133,experiment,89,↓,down,↓,0.4946357998996973,True,28,1
KS-K-21K21S2,1134,experiment,81,↓,down,↓,0.4637372000142932,True,28,1
KS-K-21K21S2,1135,experiment,55,↑,right,→,0.722590500023216,False,28,1
KS-K-21K21S2,1136,experiment,84,←,left,←,0.6013449998572469,True,28,1
KS-K-21K21S2,1137,experiment,49,↑,up,↑,0.36788240005262196,True,28,1
KS-K-21K21S2,1138,experiment,60,↑,up,↑,0.5414936000015587,True,28,0
KS-K-21K21S2,1139,experiment,92,↓,down,↓,0.6809086001012474,True,28,1
KS-K-21K21S2,1140,experiment,75,↓,down,↓,0.46814330015331507,True,28,1
KS-K-21K21S2,1141,experiment,91,→,right,→,0.42692569992505014,True,28,1
KS-K-21K21S2,1142,experiment,69,↓,down,↓,0.698365299962461,True,28,1
KS-K-21K21S2,1143,experiment,74,↑,up,↑,0.3592970999889076,True,28,1
KS-K-21K21S2,1144,experiment,73,↓,down,↓,0.4861238000448793,True,28,0
KS-K-21K21S2,1145,experiment,66,←,left,←,0.4047919998411089,True,28,1
KS-K-21K21S2,1146,experiment,86,→,right,→,0.5993490999098867,True,28,0
KS-K-21K21S2,1147,experiment,59,↓,down,↓,0.4591578000690788,True,28,1
KS-K-21K21S2,1148,experiment,67,←,left,←,0.3843755000270903,True,28,1
KS-K-21K21S2,1149,experiment,78,→,left,←,0.5282108997926116,False,28,0
KS-K-21K21S2,1150,experiment,93,→,right,→,0.4123134999535978,True,28,1
KS-K-21K21S2,1151,experiment,72,↓,down,↓,0.48319289996288717,True,28,1
KS-K-21K21S2,1152,experiment,48,←,left,←,0.3528175000101328,True,28,1
KS-K-21K21S2,1153,experiment,95,←,left,←,0.5850823000073433,True,28,0
KS-K-21K21S2,1154,experiment,77,←,left,←,0.37641629995778203,True,28,1
KS-K-21K21S2,1155,experiment,97,↓,down,↓,0.4718430999200791,True,28,1
KS-K-21K21S2,1156,experiment,70,←,left,←,0.35935840010643005,True,28,1
KS-K-21K21S2,1157,experiment,58,←,no_key,no_letter,-1.0,False,28,0
KS-K-21K21S2,1158,experiment,85,↑,down,↓,0.6182189998216927,False,28,1
KS-K-21K21S2,1159,experiment,80,↑,left,←,0.5427713000681251,False,28,1
KS-K-21K21S2,1160,experiment,83,↓,down,↓,0.4448645000811666,True,28,1
KS-K-21K21S2,1161,experiment,52,↑,up,↑,0.4416581999976188,True,28,1
KS-K-21K21S2,1162,experiment,103,↑,up,↑,0.3338445001281798,True,28,1
KS-K-21K21S2,1163,experiment,51,↓,down,↓,0.5103975997772068,True,28,0
KS-K-21K21S2,1164,experiment,106,↑,left,←,0.6306636000517756,False,28,1
KS-K-21K21S2,1165,experiment,63,←,left,←,0.34275870001874864,True,28,1
KS-K-21K21S2,1166,experiment,100,↓,down,↓,0.4805070001166314,True,28,1
KS-K-21K21S2,1167,experiment,50,↑,down,↓,1.0281456999946386,False,28,1
KS-K-21K21S2,1168,experiment,64,→,right,→,0.35925009986385703,True,28,1
KS-K-21K21S2,1169,experiment,82,↑,up,↑,0.5632390000391752,True,28,1
KS-K-21K21S2,1170,experiment,94,→,no_key,no_letter,-1.0,False,28,1
KS-K-21K21S2,1171,experiment,105,←,no_key,no_letter,-1.0,False,28,1
KS-K-21K21S2,1172,experiment,54,→,left,←,0.7026240001432598,False,28,1
KS-K-21K21S2,1173,experiment,79,→,left,←,0.5440634998958558,False,28,1
KS-K-21K21S2,1174,experiment,99,→,right,→,0.5452473000623286,True,28,1
KS-K-21K21S2,1175,training,65,→,left,←,0.8255438001360744,False,28,0
KS-K-21K21S2,1176,training,55,→,right,→,0.5814100001007318,True,28,1
KS-K-21K21S2,1177,experiment,63,←,left,←,0.5772174000740051,True,28,1
KS-K-21K21S2,1178,experiment,92,↑,up,↑,0.5467630000784993,True,28,1
KS-K-21K21S2,1179,experiment,67,↑,up,↑,0.35886120004579425,True,28,1
KS-K-21K21S2,1180,experiment,107,↓,down,↓,0.5240482001099735,True,28,0
KS-K-21K21S2,1181,experiment,60,↑,down,↓,0.634479699889198,False,28,1
KS-K-21K21S2,1182,experiment,102,→,right,→,0.47883479995653033,True,28,1
KS-K-21K21S2,1183,experiment,74,↓,down,↓,0.5625535000581294,True,28,1
KS-K-21K21S2,1184,experiment,86,↓,down,↓,0.407395200105384,True,28,1
KS-K-21K21S2,1185,experiment,56,↓,no_key,no_letter,-1.0,False,28,0
KS-K-21K21S2,1186,experiment,77,↑,up,↑,0.4376221999991685,True,28,1
KS-K-21K21S2,1187,experiment,78,↑,up,↑,0.7616830000188202,True,28,1
KS-K-21K21S2,1188,experiment,91,↑,up,↑,0.6127984002232552,True,28,1
KS-K-21K21S2,1189,experiment,80,↑,up,↑,0.34281770000234246,True,28,1
KS-K-21K21S2,1190,experiment,50,↑,up,↑,0.35956860007718205,True,28,0
KS-K-21K21S2,1191,experiment,87,↓,up,↑,0.6626283000223339,False,28,1
KS-K-21K21S2,1192,experiment,59,↓,up,↑,0.8563624999951571,False,28,1
KS-K-21K21S2,1193,experiment,53,↑,up,↑,0.3502279999665916,True,28,1
KS-K-21K21S2,1194,experiment,106,←,left,←,0.4029320999979973,True,28,0
KS-K-21K21S2,1195,experiment,75,↑,up,↑,0.6006771000102162,True,28,1
KS-K-21K21S2,1196,experiment,70,←,left,←,0.3843598000239581,True,28,1
KS-K-21K21S2,1197,experiment,104,←,left,←,0.4783314000815153,True,28,0
KS-K-21K21S2,1198,experiment,69,↓,up,↑,0.7242038999684155,False,28,1
KS-K-21K21S2,1199,experiment,66,↑,up,↑,0.6088525000959635,True,28,1
KS-K-21K21S2,1200,experiment,93,↓,down,↓,0.7131513999775052,True,28,1
KS-K-21K21S2,1201,experiment,52,→,right,→,0.367771599907428,True,28,1
KS-K-21K21S2,1202,experiment,57,→,no_key,no_letter,-1.0,False,28,0
KS-K-21K21S2,1203,experiment,84,↑,up,↑,0.37767130020074546,True,28,1
KS-K-21K21S2,1204,experiment,95,↑,up,↑,0.600788600044325,True,28,0
KS-K-21K21S2,1205,experiment,98,↑,up,↑,0.6795268000569195,True,28,1
KS-K-21K21S2,1206,experiment,79,←,left,←,0.402560300193727,True,28,1
KS-K-21K21S2,1207,experiment,103,↑,up,↑,0.575030299834907,True,28,0
KS-K-21K21S2,1208,experiment,54,↑,up,↑,0.35928309988230467,True,28,1
KS-K-21K21S2,1209,experiment,51,→,right,→,0.6137708998285234,True,28,0
KS-K-21K21S2,1210,experiment,61,←,left,←,0.3838573000393808,True,28,1
KS-K-21K21S2,1211,experiment,101,→,right,→,0.5828574001789093,True,28,0
KS-K-21K21S2,1212,experiment,64,↓,down,↓,0.7140591000206769,True,28,1
KS-K-21K21S2,1213,experiment,62,→,right,→,0.6564218001440167,True,28,1
KS-K-21K21S2,1214,experiment,68,↓,down,↓,0.4791119999717921,True,28,1
KS-K-21K21S2,1215,experiment,81,↓,down,↓,0.4647669999394566,True,28,1
KS-K-21K21S2,1216,experiment,89,↓,no_key,no_letter,-1.0,False,28,1
KS-K-21K21S2,1217,experiment,99,↑,down,↓,0.6343366999644786,False,28,1
KS-K-21K21S2,1218,experiment,72,←,left,←,0.5606259000487626,True,28,1
KS-K-21K21S2,1219,experiment,48,↓,down,↓,0.6341669000685215,True,28,1
KS-K-21K21S2,1220,experiment,94,↓,down,↓,0.4177460998762399,True,28,1
KS-K-21K21S2,1221,experiment,90,↑,up,↑,0.7303472000639886,True,28,1
KS-K-21K21S2,1222,experiment,49,↓,down,↓,0.6763212999794632,True,28,1
KS-K-21K21S2,1223,experiment,108,→,no_key,no_letter,-1.0,False,28,1
KS-K-21K21S2,1224,experiment,83,→,right,→,0.516740299994126,True,28,1
KS-K-21K21S2,1225,experiment,55,←,left,←,0.3427929999306798,True,28,1
KS-K-21K21S2,1226,experiment,97,→,right,→,0.4153888998553157,True,28,1
KS-K-21K21S2,1227,experiment,76,↑,up,↑,0.34198140003718436,True,28,1
KS-K-21K21S2,1228,experiment,88,←,left,←,0.3511661000084132,True,28,0
KS-K-21K21S2,1229,experiment,73,←,left,←,0.291898800060153,True,28,0
KS-K-21K21S2,1230,experiment,82,←,left,←,0.5627150000073016,True,28,0
KS-K-21K21S2,1231,experiment,65,↓,left,←,0.8222185999620706,False,28,1
KS-K-21K21S2,1232,experiment,58,←,left,←,0.34226379985921085,True,28,1
KS-K-21K21S2,1233,experiment,85,↑,up,↑,0.3598412999417633,True,28,0
KS-K-21K21S2,1234,experiment,96,←,left,←,0.36109390016645193,True,28,1
KS-K-21K21S2,1235,experiment,105,↓,up,↑,0.9659895000513643,False,28,0
KS-K-21K21S2,1236,experiment,71,↑,up,↑,0.5431043000426143,True,28,1
KS-K-21K21S2,1237,experiment,100,↓,down,↓,0.4878408999647945,True,28,1
KS-K-21K21S2,1238,training,59,→,right,→,0.3761926000006497,True,28,0
KS-K-21K21S2,1239,training,107,←,left,←,0.37614349997602403,True,28,0
KS-K-21K21S2,1240,experiment,49,↓,down,↓,0.4891367999371141,True,28,1
KS-K-21K21S2,1241,experiment,63,↑,up,↑,0.5601228999439627,True,28,1
KS-K-21K21S2,1242,experiment,66,→,right,→,0.43562520015984774,True,28,1
KS-K-21K21S2,1243,experiment,77,↑,up,↑,0.308704299852252,True,28,1
KS-K-21K21S2,1244,experiment,71,↑,up,↑,0.7158794000279158,True,28,0
KS-K-21K21S2,1245,experiment,94,↓,up,↑,0.8394701997749507,False,28,1
KS-K-21K21S2,1246,experiment,99,↑,up,↑,0.6765197000931948,True,28,1
KS-K-21K21S2,1247,experiment,81,←,left,←,0.40623570000752807,True,28,1
KS-K-21K21S2,1248,experiment,70,→,right,→,0.44626310002058744,True,28,0
KS-K-21K21S2,1249,experiment,78,↓,down,↓,0.6101737001445144,True,28,1
KS-K-21K21S2,1250,experiment,74,↑,up,↑,0.35119080008007586,True,28,1
KS-K-21K21S2,1251,experiment,50,←,left,←,0.33382029994390905,True,28,0
KS-K-21K21S2,1252,experiment,102,↑,up,↑,0.5378992001060396,True,28,0
KS-K-21K21S2,1253,experiment,64,↓,down,↓,0.49439010000787675,True,28,1
KS-K-21K21S2,1254,experiment,60,←,left,←,0.574496999848634,True,28,1
KS-K-21K21S2,1255,experiment,48,↑,up,↑,0.33633270021528006,True,28,1
KS-K-21K21S2,1256,experiment,82,↓,down,↓,1.8937651000451297,True,28,0
KS-K-21K21S2,1257,experiment,97,↓,down,↓,0.45717009995132685,True,28,1
KS-K-21K21S2,1258,experiment,96,→,no_key,no_letter,-1.0,False,28,1
KS-K-21K21S2,1259,experiment,75,↓,down,↓,0.6252084001898766,True,28,1
KS-K-21K21S2,1260,experiment,90,←,left,←,0.3677566999103874,True,28,1
KS-K-21K21S2,1261,experiment,62,↑,up,↑,0.35115649993531406,True,28,0
KS-K-21K21S2,1262,experiment,57,↓,down,↓,0.4924651999026537,True,28,1
KS-K-21K21S2,1263,experiment,89,→,right,→,0.33440919988788664,True,28,1
KS-K-21K21S2,1264,experiment,88,↑,up,↑,0.6954793999902904,True,28,0
KS-K-21K21S2,1265,experiment,56,→,right,→,0.37542150006629527,True,28,1
KS-K-21K21S2,1266,experiment,61,↑,up,↑,0.34256460005417466,True,28,0
KS-K-21K21S2,1267,experiment,59,↑,up,↑,0.3422555001452565,True,28,0
KS-K-21K21S2,1268,experiment,98,→,right,→,0.6839374001137912,True,28,0
KS-K-21K21S2,1269,experiment,53,↑,up,↑,0.5347292998339981,True,28,1
KS-K-21K21S2,1270,experiment,104,↓,down,↓,0.6383223999291658,True,28,1
KS-K-21K21S2,1271,experiment,95,↑,up,↑,0.6128108000848442,True,28,1
KS-K-21K21S2,1272,experiment,86,←,left,←,0.35973169980570674,True,28,1
KS-K-21K21S2,1273,experiment,87,←,left,←,0.6108142000157386,True,28,0
KS-K-21K21S2,1274,experiment,72,→,right,→,0.3346778000704944,True,28,1
KS-K-21K21S2,1275,experiment,103,→,right,→,0.545482600107789,True,28,0
KS-K-21K21S2,1276,experiment,85,→,right,→,0.3610529999714345,True,28,1
KS-K-21K21S2,1277,experiment,100,←,left,←,0.5908675000537187,True,28,0
KS-K-21K21S2,1278,experiment,55,↑,up,↑,0.5884771000128239,True,28,1
KS-K-21K21S2,1279,experiment,67,↑,up,↑,0.3278206998948008,True,28,1
KS-K-21K21S2,1280,experiment,83,→,right,→,0.5007230998016894,True,28,0
KS-K-21K21S2,1281,experiment,58,↑,up,↑,0.34275850001722574,True,28,1
KS-K-21K21S2,1282,experiment,79,↑,up,↑,0.35861909994855523,True,28,0
KS-K-21K21S2,1283,experiment,92,↓,down,↓,0.7429862997960299,True,28,0
KS-K-21K21S2,1284,experiment,91,↑,up,↑,0.3421331997960806,True,28,1
KS-K-21K21S2,1285,experiment,68,←,left,←,0.5735707001294941,True,28,0
KS-K-21K21S2,1286,experiment,101,↓,down,↓,0.6848402998875827,True,28,1
KS-K-21K21S2,1287,experiment,73,←,left,←,0.5208977998699993,True,28,1
KS-K-21K21S2,1288,experiment,107,←,left,←,0.5283560999669135,True,28,1
KS-K-21K21S2,1289,experiment,106,↓,down,↓,0.47119630011729896,True,28,1
KS-K-21K21S2,1290,experiment,69,↓,down,↓,0.629488600185141,True,28,1
KS-K-21K21S2,1291,experiment,105,↓,down,↓,0.4250465000513941,True,28,1
KS-K-21K21S2,1292,experiment,84,←,left,←,0.547893799841404,True,28,1
KS-K-21K21S2,1293,experiment,54,↑,up,↑,0.4755412000231445,True,28,1
KS-K-21K21S2,1294,experiment,80,←,left,←,0.4060765001922846,True,28,1
KS-K-21K21S2,1295,experiment,65,↑,up,↑,0.40752019989304245,True,28,1
KS-K-21K21S2,1296,experiment,93,←,right,→,0.7757697000633925,False,28,1
KS-K-21K21S2,1297,experiment,76,←,left,←,0.4711352000012994,True,28,1
KS-K-21K21S2,1298,experiment,108,→,right,→,0.7197879999876022,True,28,1
KS-K-21K21S2,1299,experiment,51,↓,down,↓,0.490219300147146,True,28,1
KS-K-21K21S2,1300,experiment,52,→,right,→,0.4051995000336319,True,28,1
KS-K-21K21S2,1301,training,53,↓,no_key,no_letter,-1.0,False,28,0
KS-K-21K21S2,1302,training,59,→,right,→,0.7112435000017285,True,28,1
KS-K-21K21S2,1303,experiment,84,←,left,←,0.3358050000388175,True,28,1
KS-K-21K21S2,1304,experiment,69,→,right,→,0.5531362001784146,True,28,0
KS-K-21K21S2,1305,experiment,77,↓,down,↓,0.4812520002014935,True,28,1
KS-K-21K21S2,1306,experiment,81,→,right,→,0.5623999999370426,True,28,1
KS-K-21K21S2,1307,experiment,98,→,right,→,0.37560640019364655,True,28,1
KS-K-21K21S2,1308,experiment,50,→,right,→,0.3845566001255065,True,28,0
KS-K-21K21S2,1309,experiment,108,→,right,→,0.59080889984034,True,28,0
KS-K-21K21S2,1310,experiment,104,↑,up,↑,0.5721503999084234,True,28,1
KS-K-21K21S2,1311,experiment,70,↓,up,↑,0.6696035000495613,False,28,1
KS-K-21K21S2,1312,experiment,56,↓,left,←,0.6078241001814604,False,28,1
KS-K-21K21S2,1313,experiment,60,→,no_key,no_letter,-1.0,False,28,1
KS-K-21K21S2,1314,experiment,67,→,right,→,0.56068170000799,True,28,1
KS-K-21K21S2,1315,experiment,87,→,right,→,0.5729239999782294,True,28,1
KS-K-21K21S2,1316,experiment,90,↑,no_key,no_letter,-1.0,False,28,1
KS-K-21K21S2,1317,experiment,82,↑,up,↑,0.36920349998399615,True,28,1
KS-K-21K21S2,1318,experiment,71,↑,up,↑,0.5925730001181364,True,28,0
KS-K-21K21S2,1319,experiment,100,→,right,→,0.7112773000262678,True,28,1
KS-K-21K21S2,1320,experiment,80,←,left,←,0.5281559999566525,True,28,1
KS-K-21K21S2,1321,experiment,54,→,right,→,0.44875549990683794,True,28,1
KS-K-21K21S2,1322,experiment,57,→,right,→,0.3427653999533504,True,28,1
KS-K-21K21S2,1323,experiment,96,→,right,→,0.5011850998271257,True,28,0
KS-K-21K21S2,1324,experiment,101,↓,down,↓,0.4633082998916507,True,28,1
KS-K-21K21S2,1325,experiment,97,→,right,→,0.4201526001561433,True,28,1
KS-K-21K21S2,1326,experiment,88,↓,left,←,0.8536443000193685,False,28,1
KS-K-21K21S2,1327,experiment,86,↓,down,↓,0.42278070002794266,True,28,1
KS-K-21K21S2,1328,experiment,79,↑,up,↑,0.5149774001911283,True,28,1
KS-K-21K21S2,1329,experiment,103,↑,up,↑,0.5716574001125991,True,28,1
KS-K-21K21S2,1330,experiment,83,←,left,←,0.5767169001046568,True,28,1
KS-K-21K21S2,1331,experiment,76,↓,up,↑,0.5762977001722902,False,28,1
KS-K-21K21S2,1332,experiment,95,←,left,←,0.5211004999000579,True,28,1
KS-K-21K21S2,1333,experiment,61,↓,down,↓,0.4957246999256313,True,28,1
KS-K-21K21S2,1334,experiment,53,↑,no_key,no_letter,-1.0,False,28,1
KS-K-21K21S2,1335,experiment,55,↓,down,↓,0.6109154999721795,True,28,1
KS-K-21K21S2,1336,experiment,51,→,right,→,0.6093580001033843,True,28,1
KS-K-21K21S2,1337,experiment,63,↑,up,↑,0.3427852999884635,True,28,1
KS-K-21K21S2,1338,experiment,78,↓,down,↓,0.4674372000154108,True,28,1
KS-K-21K21S2,1339,experiment,52,←,left,←,0.3524609999731183,True,28,1
KS-K-21K21S2,1340,experiment,99,←,left,←,0.6233251001685858,True,28,0
KS-K-21K21S2,1341,experiment,106,←,left,←,0.5388097998220474,True,28,1
KS-K-21K21S2,1342,experiment,64,→,left,←,0.551457199966535,False,28,1
KS-K-21K21S2,1343,experiment,74,↑,up,↑,0.3672621001023799,True,28,1
KS-K-21K21S2,1344,experiment,93,↑,up,↑,0.3344728001393378,True,28,0
KS-K-21K21S2,1345,experiment,89,↓,down,↓,0.6944844000972807,True,28,0
KS-K-21K21S2,1346,experiment,85,→,right,→,0.614111099857837,True,28,1
KS-K-21K21S2,1347,experiment,68,↓,down,↓,0.5744269001297653,True,28,1
KS-K-21K21S2,1348,experiment,73,←,left,←,0.5667479000985622,True,28,1
KS-K-21K21S2,1349,experiment,48,←,left,←,0.35308069991879165,True,28,1
KS-K-21K21S2,1350,experiment,91,↓,down,↓,0.42691759997978806,True,28,0
KS-K-21K21S2,1351,experiment,66,↑,up,↑,0.7633619999978691,True,28,1
KS-K-21K21S2,1352,experiment,92,↑,up,↑,0.3759300000965595,True,28,1
KS-K-21K21S2,1353,experiment,72,←,left,←,0.3361742999404669,True,28,1
KS-K-21K21S2,1354,experiment,65,↑,up,↑,0.36784439999610186,True,28,0
KS-K-21K21S2,1355,experiment,105,↓,down,↓,0.6721169000957161,True,28,1
KS-K-21K21S2,1356,experiment,107,←,left,←,0.37643259996548295,True,28,1
KS-K-21K21S2,1357,experiment,58,↓,down,↓,0.4862618998158723,True,28,1
KS-K-21K21S2,1358,experiment,49,←,right,→,0.7861652998253703,False,28,1
KS-K-21K21S2,1359,experiment,102,↓,down,↓,0.6323762000538409,True,28,1
KS-K-21K21S2,1360,experiment,59,←,left,←,0.351368100149557,True,28,1
KS-K-21K21S2,1361,experiment,94,↓,down,↓,0.45292529999278486,True,28,1
KS-K-21K21S2,1362,experiment,62,↑,up,↑,0.35965360002592206,True,28,1
KS-K-21K21S2,1363,experiment,75,→,right,→,0.43851380003616214,True,28,0
KS-K-21K21S2,1364,training,77,↑,up,↑,0.5382797999773175,True,28,0
KS-K-21K21S2,1365,training,84,↑,up,↑,0.34287740010768175,True,28,1
KS-K-21K21S2,1366,experiment,101,→,right,→,0.4086875000502914,True,28,1
KS-K-21K21S2,1367,experiment,102,↑,up,↑,0.3263234000187367,True,28,1
KS-K-21K21S2,1368,experiment,77,→,right,→,0.367538999998942,True,28,0
KS-K-21K21S2,1369,experiment,70,←,left,←,0.3589963000267744,True,28,1
KS-K-21K21S2,1370,experiment,72,↓,down,↓,0.5524501001928002,True,28,0
KS-K-21K21S2,1371,experiment,89,→,right,→,0.35054420004598796,True,28,1
KS-K-21K21S2,1372,experiment,76,↓,down,↓,0.420521599939093,True,28,0
KS-K-21K21S2,1373,experiment,94,↓,down,↓,0.6040036999620497,True,28,1
KS-K-21K21S2,1374,experiment,99,→,right,→,0.5943837000522763,True,28,1
KS-K-21K21S2,1375,experiment,65,←,no_key,no_letter,-1.0,False,28,1
KS-K-21K21S2,1376,experiment,87,→,left,←,0.7792355001438409,False,28,1
KS-K-21K21S2,1377,experiment,51,←,left,←,0.3680497999303043,True,28,1
KS-K-21K21S2,1378,experiment,92,→,right,→,0.38454459980130196,True,28,1
KS-K-21K21S2,1379,experiment,79,↑,up,↑,0.6024740999564528,True,28,1
KS-K-21K21S2,1380,experiment,83,←,left,←,0.6944810999557376,True,28,1
KS-K-21K21S2,1381,experiment,55,←,left,←,0.504317499930039,True,28,1
KS-K-21K21S2,1382,experiment,64,←,left,←,0.5264116001781076,True,28,1
KS-K-21K21S2,1383,experiment,49,→,no_key,no_letter,-1.0,False,28,1
KS-K-21K21S2,1384,experiment,71,↑,up,↑,0.46059509995393455,True,28,1
KS-K-21K21S2,1385,experiment,75,↑,left,←,0.585090700071305,False,28,1
KS-K-21K21S2,1386,experiment,61,↓,down,↓,0.48527600010856986,True,28,1
KS-K-21K21S2,1387,experiment,80,↓,down,↓,0.45497949980199337,True,28,1
KS-K-21K21S2,1388,experiment,85,↓,no_key,no_letter,-1.0,False,28,1
KS-K-21K21S2,1389,experiment,91,↑,up,↑,0.8131463997997344,True,28,1
KS-K-21K21S2,1390,experiment,93,←,no_key,no_letter,-1.0,False,28,1
KS-K-21K21S2,1391,experiment,53,←,right,→,0.6710967000108212,False,28,1
KS-K-21K21S2,1392,experiment,57,←,left,←,0.4820183999836445,True,28,1
KS-K-21K21S2,1393,experiment,52,↑,up,↑,0.3754984000697732,True,28,1
KS-K-21K21S2,1394,experiment,98,→,right,→,0.42800409998744726,True,28,0
KS-K-21K21S2,1395,experiment,54,←,no_key,no_letter,-1.0,False,28,1
KS-K-21K21S2,1396,experiment,56,→,left,←,0.5133890998549759,False,28,1
KS-K-21K21S2,1397,experiment,50,↑,up,↑,0.5317992998752743,True,28,1
KS-K-21K21S2,1398,experiment,100,→,right,→,0.4131878998596221,True,28,1
KS-K-21K21S2,1399,experiment,90,→,left,←,0.5259953001514077,False,28,1
KS-K-21K21S2,1400,experiment,106,↑,up,↑,0.5252656999509782,True,28,1
KS-K-21K21S2,1401,experiment,103,→,right,→,0.4216839000582695,True,28,1
KS-K-21K21S2,1402,experiment,96,↑,up,↑,0.5803060000762343,True,28,1
KS-K-21K21S2,1403,experiment,74,↓,up,↑,0.8920461998786777,False,28,1
KS-K-21K21S2,1404,experiment,63,←,left,←,0.3676694000605494,True,28,1
