PART_ID,Trial_no,Trial_type,CSI,Stim_letter,Key_pressed,letter_choose,Rt,Corr,Stimulus Time,nDropped
RC-M-23M23S1,1,training,120,↓,no_key,no_letter,-1.0,False,60,1
RC-M-23M23S1,2,training,120,↓,down,↓,0.9887227000435814,True,60,0
RC-M-23M23S1,3,training,120,←,left,←,0.650954999960959,True,60,0
RC-M-23M23S1,4,training,120,↓,down,↓,0.584606199990958,True,60,0
RC-M-23M23S1,5,training,120,→,right,→,0.6093100999714807,True,60,0
RC-M-23M23S1,6,training,120,←,left,←,0.5918104000156745,True,60,0
RC-M-23M23S1,7,training,120,→,right,→,0.642291700001806,True,60,0
RC-M-23M23S1,8,training,120,↓,down,↓,0.6093160000164062,True,60,0
RC-M-23M23S1,9,training,120,↓,down,↓,0.5527570999693125,True,60,0
RC-M-23M23S1,10,training,120,↑,down,↓,0.4771235000807792,False,60,0
RC-M-23M23S1,11,training,120,↓,down,↓,1.9336969000287354,True,60,0
RC-M-23M23S1,12,training,120,→,right,→,1.3348421000409871,True,60,0
RC-M-23M23S1,13,training,120,→,right,→,0.5511821999680251,True,60,0
RC-M-23M23S1,14,training,120,→,left,←,0.5590312000131235,False,60,0
RC-M-23M23S1,15,training,120,←,left,←,0.60862149996683,True,60,0
RC-M-23M23S1,16,training,120,←,left,←,0.6096691000275314,True,60,0
RC-M-23M23S1,17,training,120,↓,down,↓,0.7270444999448955,True,60,0
RC-M-23M23S1,18,training,120,↓,down,↓,0.849038099986501,True,60,0
RC-M-23M23S1,19,training,120,↑,up,↑,1.2621099000098184,True,60,0
RC-M-23M23S1,20,training,120,↑,up,↑,0.550767199951224,True,60,0
RC-M-23M23S1,21,no_adaptation,120,↑,up,↑,0.7313411999493837,True,36,0
RC-M-23M23S1,22,no_adaptation,120,←,left,←,0.5654458000790328,True,36,0
RC-M-23M23S1,23,no_adaptation,120,←,left,←,0.5098431999795139,True,36,0
RC-M-23M23S1,24,no_adaptation,120,↑,up,↑,0.6245126000139862,True,36,0
RC-M-23M23S1,25,no_adaptation,120,→,right,→,0.5985896000638604,True,36,0
RC-M-23M23S1,26,no_adaptation,120,↑,up,↑,0.43362869997508824,True,36,0
RC-M-23M23S1,27,no_adaptation,120,←,up,↑,0.5873648000415415,False,36,0
RC-M-23M23S1,28,no_adaptation,120,↑,up,↑,0.46780630003195256,True,36,0
RC-M-23M23S1,29,no_adaptation,120,↓,up,↑,0.6071027000434697,False,36,0
RC-M-23M23S1,30,no_adaptation,120,↑,up,↑,0.5179397000465542,True,36,0
RC-M-23M23S1,31,no_adaptation,120,→,right,→,0.6087369000306353,True,36,0
RC-M-23M23S1,32,no_adaptation,120,↓,down,↓,0.5674416000256315,True,36,0
RC-M-23M23S1,33,no_adaptation,120,←,left,←,0.6398185000289232,True,36,0
RC-M-23M23S1,34,no_adaptation,120,→,right,→,0.7014702999731526,True,36,0
RC-M-23M23S1,35,no_adaptation,120,↓,down,↓,0.8565347000258043,True,36,0
RC-M-23M23S1,36,no_adaptation,120,↑,up,↑,0.5015838000690565,True,36,0
RC-M-23M23S1,37,no_adaptation,120,↑,up,↑,0.4885132999625057,True,36,0
RC-M-23M23S1,38,no_adaptation,120,→,right,→,0.6595807999838144,True,36,0
RC-M-23M23S1,39,no_adaptation,120,→,right,→,0.48866869998164475,True,36,0
RC-M-23M23S1,40,no_adaptation,120,↑,up,↑,0.4091769000515342,True,36,0
RC-M-23M23S1,41,training,98,↑,up,↑,0.5713565000332892,True,36,0
RC-M-23M23S1,42,training,91,↑,up,↑,0.661890699993819,True,36,1
RC-M-23M23S1,43,experiment,67,→,right,→,0.5891573000699282,True,36,1
RC-M-23M23S1,44,experiment,80,↑,up,↑,0.4091095000039786,True,36,1
RC-M-23M23S1,45,experiment,61,↑,up,↑,0.49341440002899617,True,36,0
RC-M-23M23S1,46,experiment,96,←,left,←,0.5455124999862164,True,36,1
RC-M-23M23S1,47,experiment,53,↓,down,↓,0.6099812999600545,True,36,1
RC-M-23M23S1,48,experiment,69,↑,up,↑,0.49035470001399517,True,36,1
RC-M-23M23S1,49,experiment,76,→,right,→,0.4852417999645695,True,36,1
RC-M-23M23S1,50,experiment,79,↓,down,↓,0.6708262000465766,True,36,1
RC-M-23M23S1,51,experiment,54,←,left,←,0.7455899000633508,True,36,1
RC-M-23M23S1,52,experiment,49,→,right,→,0.7073476000223309,True,36,1
RC-M-23M23S1,53,experiment,98,↓,down,↓,0.5819259999552742,True,36,1
RC-M-23M23S1,54,experiment,82,→,right,→,0.47562529996503145,True,36,1
RC-M-23M23S1,55,experiment,89,↓,down,↓,0.681674399995245,True,36,1
RC-M-23M23S1,56,experiment,66,→,right,→,0.44219760003034025,True,36,1
RC-M-23M23S1,57,experiment,68,↑,down,↓,0.679323700023815,False,36,0
RC-M-23M23S1,58,experiment,86,↑,up,↑,0.47179149999283254,True,36,1
RC-M-23M23S1,59,experiment,71,←,left,←,0.7641518999589607,True,36,0
RC-M-23M23S1,60,experiment,85,→,right,→,0.4731290000490844,True,36,1
RC-M-23M23S1,61,experiment,50,→,left,←,0.7974447999149561,False,36,0
RC-M-23M23S1,62,experiment,77,→,right,→,0.5393794000847265,True,36,1
RC-M-23M23S1,63,experiment,95,←,left,←,0.49364879995118827,True,36,1
RC-M-23M23S1,64,experiment,59,↑,up,↑,0.5738175999140367,True,36,1
RC-M-23M23S1,65,experiment,74,→,right,→,0.47860410006251186,True,36,1
RC-M-23M23S1,66,experiment,93,→,right,→,0.483506599906832,True,36,1
RC-M-23M23S1,67,experiment,75,→,right,→,0.5347010999685153,True,36,1
RC-M-23M23S1,68,experiment,52,↓,no_key,no_letter,-1.0,False,36,1
RC-M-23M23S1,69,experiment,90,←,left,←,0.546771900029853,True,36,1
RC-M-23M23S1,70,experiment,65,↑,up,↑,0.5907980999909341,True,36,1
RC-M-23M23S1,71,experiment,102,↑,up,↑,0.716561600100249,True,36,1
RC-M-23M23S1,72,experiment,58,↓,down,↓,0.6525006000883877,True,36,1
RC-M-23M23S1,73,experiment,88,←,left,←,0.7328500999137759,True,36,1
RC-M-23M23S1,74,experiment,107,←,left,←,0.6515283000189811,True,36,1
RC-M-23M23S1,75,experiment,97,→,right,→,0.552951900055632,True,36,1
RC-M-23M23S1,76,experiment,84,↓,down,↓,0.7025957000441849,True,36,1
RC-M-23M23S1,77,experiment,55,↑,up,↑,0.5282635999610648,True,36,1
RC-M-23M23S1,78,experiment,48,←,left,←,0.7228192999027669,True,36,1
RC-M-23M23S1,79,experiment,91,↑,up,↑,0.5032141000265256,True,36,1
RC-M-23M23S1,80,experiment,83,↑,up,↑,0.5271872999146581,True,36,1
RC-M-23M23S1,81,experiment,87,↓,down,↓,0.48501139995642006,True,36,1
RC-M-23M23S1,82,experiment,78,←,left,←,0.5435191000578925,True,36,1
RC-M-23M23S1,83,experiment,73,→,right,→,0.5691501999972388,True,36,1
RC-M-23M23S1,84,experiment,72,←,left,←,0.4432189998915419,True,36,1
RC-M-23M23S1,85,experiment,70,→,left,←,0.904316799947992,False,36,0
RC-M-23M23S1,86,experiment,99,→,right,→,0.6029177999589592,True,36,1
RC-M-23M23S1,87,experiment,105,↓,down,↓,0.5276666999561712,True,36,1
RC-M-23M23S1,88,experiment,101,←,left,←,0.5446246999781579,True,36,1
RC-M-23M23S1,89,experiment,62,→,left,←,0.4942586999386549,False,36,1
RC-M-23M23S1,90,experiment,57,↓,down,↓,0.5834441999904811,True,36,1
RC-M-23M23S1,91,experiment,60,←,left,←,0.5795972999185324,True,36,1
RC-M-23M23S1,92,experiment,92,→,right,→,0.5736670000478625,True,36,1
RC-M-23M23S1,93,experiment,51,↑,up,↑,0.5813261000439525,True,36,1
RC-M-23M23S1,94,experiment,64,←,left,←,0.6000296999700367,True,36,1
RC-M-23M23S1,95,experiment,81,↓,down,↓,0.6048839999129996,True,36,1
RC-M-23M23S1,96,experiment,56,←,left,←,0.6575123999500647,True,36,1
RC-M-23M23S1,97,experiment,108,↓,down,↓,0.6591314999386668,True,36,1
RC-M-23M23S1,98,experiment,104,↑,up,↑,0.4783217000076547,True,36,1
RC-M-23M23S1,99,experiment,100,→,right,→,1.2487055999226868,True,36,1
RC-M-23M23S1,100,experiment,63,↓,down,↓,0.7855867000762373,True,36,1
RC-M-23M23S1,101,experiment,106,↓,down,↓,0.6625651000067592,True,36,1
RC-M-23M23S1,102,experiment,94,→,no_key,no_letter,-1.0,False,36,1
RC-M-23M23S1,103,experiment,103,←,left,←,0.5707384999841452,True,36,1
RC-M-23M23S1,104,training,77,↓,down,↓,0.5974562000483274,True,35,0
RC-M-23M23S1,105,training,107,↑,up,↑,0.5853964000707492,True,35,1
RC-M-23M23S1,106,experiment,105,→,right,→,0.5268823000369594,True,35,1
RC-M-23M23S1,107,experiment,101,→,right,→,0.5198775000171736,True,35,1
RC-M-23M23S1,108,experiment,106,←,left,←,0.6396795000182465,True,35,1
RC-M-23M23S1,109,experiment,82,↑,up,↑,0.4417662000050768,True,35,1
RC-M-23M23S1,110,experiment,102,↓,down,↓,0.573953100014478,True,35,0
RC-M-23M23S1,111,experiment,96,↑,up,↑,0.6067307000048459,True,35,1
RC-M-23M23S1,112,experiment,69,←,left,←,0.8070954999420792,True,35,1
RC-M-23M23S1,113,experiment,108,↓,down,↓,0.6423920999513939,True,35,1
RC-M-23M23S1,114,experiment,80,←,left,←,0.5897463000146672,True,35,1
RC-M-23M23S1,115,experiment,48,→,right,→,0.6216211999999359,True,35,1
RC-M-23M23S1,116,experiment,103,→,right,→,0.56205259996932,True,35,1
RC-M-23M23S1,117,experiment,65,↓,down,↓,0.6855770999100059,True,35,1
RC-M-23M23S1,118,experiment,77,←,left,←,1.8722784999990836,True,35,1
RC-M-23M23S1,119,experiment,62,↑,up,↑,0.6243142000166699,True,35,1
RC-M-23M23S1,120,experiment,49,↑,up,↑,0.7108861999586225,True,35,1
RC-M-23M23S1,121,experiment,52,↑,up,↑,0.6246685000369325,True,35,1
RC-M-23M23S1,122,experiment,59,→,up,↑,1.3398968999972567,False,35,1
RC-M-23M23S1,123,experiment,72,←,left,←,0.5497859999304637,True,35,1
RC-M-23M23S1,124,experiment,79,→,right,→,0.49331759999040514,True,35,1
RC-M-23M23S1,125,experiment,100,↑,up,↑,0.5680493999971077,True,35,1
RC-M-23M23S1,126,experiment,89,↑,up,↑,0.49942869995720685,True,35,1
RC-M-23M23S1,127,experiment,61,↓,down,↓,0.706718000001274,True,35,1
RC-M-23M23S1,128,experiment,107,→,right,→,0.6102693999418989,True,35,1
RC-M-23M23S1,129,experiment,98,→,right,→,0.5776582000544295,True,35,1
RC-M-23M23S1,130,experiment,78,↑,up,↑,0.48809480003546923,True,35,1
RC-M-23M23S1,131,experiment,99,→,right,→,0.5147432000376284,True,35,1
RC-M-23M23S1,132,experiment,63,←,left,←,0.504946600063704,True,35,1
RC-M-23M23S1,133,experiment,74,↑,up,↑,0.40944800002034754,True,35,1
RC-M-23M23S1,134,experiment,92,←,left,←,0.48413220001384616,True,35,0
RC-M-23M23S1,135,experiment,50,→,right,→,0.632028799969703,True,35,1
RC-M-23M23S1,136,experiment,64,↑,up,↑,0.4341139999451116,True,35,1
RC-M-23M23S1,137,experiment,86,←,left,←,0.5223288999404758,True,35,0
RC-M-23M23S1,138,experiment,104,↑,up,↑,0.4091261000139639,True,35,1
RC-M-23M23S1,139,experiment,95,→,right,→,0.5697716000722721,True,35,0
RC-M-23M23S1,140,experiment,55,←,left,←,0.5685151000507176,True,35,1
RC-M-23M23S1,141,experiment,88,↓,down,↓,0.6121430998900905,True,35,1
RC-M-23M23S1,142,experiment,84,→,right,→,0.655199799919501,True,35,1
RC-M-23M23S1,143,experiment,97,→,right,→,0.5403539000544697,True,35,1
RC-M-23M23S1,144,experiment,94,↑,up,↑,0.47925400000531226,True,35,1
RC-M-23M23S1,145,experiment,56,↓,up,↑,0.47301870002411306,False,35,1
RC-M-23M23S1,146,experiment,60,→,right,→,0.5696425000205636,True,35,1
RC-M-23M23S1,147,experiment,58,←,left,←,0.7352891999762505,True,35,1
RC-M-23M23S1,148,experiment,73,↑,up,↑,0.5533414001110941,True,35,1
RC-M-23M23S1,149,experiment,67,↓,down,↓,0.5088429000461474,True,35,1
RC-M-23M23S1,150,experiment,70,↑,down,↓,0.8728142000036314,False,35,1
RC-M-23M23S1,151,experiment,71,→,right,→,0.5418192999204621,True,35,1
RC-M-23M23S1,152,experiment,83,→,right,→,0.5484513000119478,True,35,1
RC-M-23M23S1,153,experiment,87,←,left,←,0.6816342000383884,True,35,1
RC-M-23M23S1,154,experiment,54,↑,up,↑,0.5634015999967232,True,35,1
RC-M-23M23S1,155,experiment,68,↓,down,↓,0.5738227999536321,True,35,1
RC-M-23M23S1,156,experiment,90,↑,up,↑,0.4967750000068918,True,35,1
RC-M-23M23S1,157,experiment,66,←,left,←,0.6142188999801874,True,35,1
RC-M-23M23S1,158,experiment,91,↓,down,↓,0.48715229996014386,True,35,1
RC-M-23M23S1,159,experiment,75,←,no_key,no_letter,-1.0,False,35,1
RC-M-23M23S1,160,experiment,85,↓,down,↓,0.574980599922128,True,35,1
RC-M-23M23S1,161,experiment,81,↑,up,↑,0.5166005999781191,True,35,1
RC-M-23M23S1,162,experiment,93,→,right,→,0.5370410999748856,True,35,1
RC-M-23M23S1,163,experiment,76,↑,up,↑,0.6258194000693038,True,35,1
RC-M-23M23S1,164,experiment,51,→,right,→,0.5273730999324471,True,35,1
RC-M-23M23S1,165,experiment,53,→,right,→,0.7288109000073746,True,35,1
RC-M-23M23S1,166,experiment,57,←,left,←,0.560567400068976,True,35,1
RC-M-23M23S1,167,training,104,→,right,→,0.5911417999304831,True,34,0
RC-M-23M23S1,168,training,63,↑,up,↑,0.5140306999674067,True,34,1
RC-M-23M23S1,169,experiment,52,←,left,←,0.5476329999510199,True,34,1
RC-M-23M23S1,170,experiment,82,↓,down,↓,0.6103849998908117,True,34,1
RC-M-23M23S1,171,experiment,91,←,left,←,0.451861499925144,True,34,1
RC-M-23M23S1,172,experiment,92,↑,up,↑,0.5619073000270873,True,34,0
RC-M-23M23S1,173,experiment,66,→,right,→,0.6293618000345305,True,34,1
RC-M-23M23S1,174,experiment,53,↓,down,↓,0.514080399996601,True,34,1
RC-M-23M23S1,175,experiment,85,↑,up,↑,0.5526848000008613,True,34,1
RC-M-23M23S1,176,experiment,70,←,left,←,0.6111310000997037,True,34,1
RC-M-23M23S1,177,experiment,104,←,left,←,0.5757149999262765,True,34,1
RC-M-23M23S1,178,experiment,51,↓,up,↑,0.4796541000250727,False,34,1
RC-M-23M23S1,179,experiment,80,←,left,←,0.46550399996340275,True,34,1
RC-M-23M23S1,180,experiment,58,↓,up,↑,1.1229389000218362,False,34,1
RC-M-23M23S1,181,experiment,62,↓,up,↑,1.128945600008592,False,34,1
RC-M-23M23S1,182,experiment,55,↓,down,↓,0.5613123000366613,True,34,1
RC-M-23M23S1,183,experiment,49,↑,up,↑,0.45076160004828125,True,34,1
RC-M-23M23S1,184,experiment,71,↓,down,↓,0.5361130000092089,True,34,0
RC-M-23M23S1,185,experiment,65,↑,up,↑,0.6369860999984667,True,34,1
RC-M-23M23S1,186,experiment,76,→,right,→,0.8020047000609338,True,34,1
RC-M-23M23S1,187,experiment,96,←,left,←,0.641750100068748,True,34,1
RC-M-23M23S1,188,experiment,56,→,left,←,0.9330439000623301,False,34,1
RC-M-23M23S1,189,experiment,67,→,right,→,0.6811263000126928,True,34,1
RC-M-23M23S1,190,experiment,93,→,right,→,0.7744777000043541,True,34,1
RC-M-23M23S1,191,experiment,88,←,left,←,0.6898648999631405,True,34,1
RC-M-23M23S1,192,experiment,84,↑,up,↑,0.4819345000432804,True,34,1
RC-M-23M23S1,193,experiment,102,↑,up,↑,0.5564189000288025,True,34,1
RC-M-23M23S1,194,experiment,59,←,left,←,0.6741520999930799,True,34,1
RC-M-23M23S1,195,experiment,75,↓,down,↓,0.5976675999118015,True,34,1
RC-M-23M23S1,196,experiment,108,←,left,←,0.4895520999561995,True,34,1
RC-M-23M23S1,197,experiment,97,↓,down,↓,0.46944100002292544,True,34,1
RC-M-23M23S1,198,experiment,105,↓,down,↓,0.6552374999737367,True,34,1
RC-M-23M23S1,199,experiment,86,→,right,→,0.4258109999354929,True,34,1
RC-M-23M23S1,200,experiment,60,↑,up,↑,0.4744452000595629,True,34,0
RC-M-23M23S1,201,experiment,63,↑,up,↑,0.4901126999175176,True,34,1
RC-M-23M23S1,202,experiment,78,↓,down,↓,0.5560651000123471,True,34,1
RC-M-23M23S1,203,experiment,98,↑,up,↑,0.5975284000160173,True,34,1
RC-M-23M23S1,204,experiment,101,↓,down,↓,0.5628425000468269,True,34,1
RC-M-23M23S1,205,experiment,48,←,left,←,0.5882268999703228,True,34,1
RC-M-23M23S1,206,experiment,74,←,left,←,0.5000136999879032,True,34,1
RC-M-23M23S1,207,experiment,107,→,right,→,0.6437183000380173,True,34,1
RC-M-23M23S1,208,experiment,103,↓,down,↓,0.5116044000023976,True,34,1
RC-M-23M23S1,209,experiment,57,↓,down,↓,0.511636900017038,True,34,1
RC-M-23M23S1,210,experiment,90,↓,down,↓,0.6854181999806315,True,34,1
RC-M-23M23S1,211,experiment,83,↑,up,↑,0.5180849999887869,True,34,1
RC-M-23M23S1,212,experiment,79,→,right,→,0.6310213999822736,True,34,1
RC-M-23M23S1,213,experiment,68,←,left,←,0.4944983999012038,True,34,1
RC-M-23M23S1,214,experiment,100,↑,up,↑,0.4973310000495985,True,34,1
RC-M-23M23S1,215,experiment,95,↓,down,↓,0.493303700000979,True,34,1
RC-M-23M23S1,216,experiment,106,↓,down,↓,0.5580491999862716,True,34,1
RC-M-23M23S1,217,experiment,89,→,right,→,0.4581985999830067,True,34,1
RC-M-23M23S1,218,experiment,50,→,right,→,0.6624469000380486,True,34,1
RC-M-23M23S1,219,experiment,64,↓,down,↓,0.4627057999605313,True,34,1
RC-M-23M23S1,220,experiment,77,←,left,←,0.729460500064306,True,34,1
RC-M-23M23S1,221,experiment,99,↑,up,↑,0.5070561000611633,True,34,1
RC-M-23M23S1,222,experiment,94,↑,up,↑,0.598972300067544,True,34,1
RC-M-23M23S1,223,experiment,72,↑,up,↑,0.4788481000578031,True,34,1
RC-M-23M23S1,224,experiment,69,↓,down,↓,0.5320243000751361,True,34,1
RC-M-23M23S1,225,experiment,87,↑,up,↑,1.0254924000473693,True,34,1
RC-M-23M23S1,226,experiment,61,→,left,←,0.9558804000262171,False,34,1
RC-M-23M23S1,227,experiment,54,↓,down,↓,0.6511920000193641,True,34,1
RC-M-23M23S1,228,experiment,81,←,left,←,0.7579714000457898,True,34,1
RC-M-23M23S1,229,experiment,73,→,right,→,0.455790700041689,True,34,1
RC-M-23M23S1,230,training,95,↑,up,↑,0.8180134000722319,True,33,0
RC-M-23M23S1,231,training,70,↑,up,↑,0.5456486999755725,True,33,1
RC-M-23M23S1,232,experiment,92,←,left,←,0.6287783000152558,True,33,1
RC-M-23M23S1,233,experiment,95,→,right,→,0.5159244000678882,True,33,1
RC-M-23M23S1,234,experiment,73,→,right,→,0.6864829000551254,True,33,1
RC-M-23M23S1,235,experiment,78,↑,up,↑,1.3927469999762252,True,33,1
RC-M-23M23S1,236,experiment,50,→,left,←,0.7522568999556825,False,33,1
RC-M-23M23S1,237,experiment,74,↑,up,↑,0.6253366000019014,True,33,1
RC-M-23M23S1,238,experiment,63,↓,down,↓,0.8429559000069275,True,33,1
RC-M-23M23S1,239,experiment,87,←,left,←,0.5403731999685988,True,33,1
RC-M-23M23S1,240,experiment,80,↑,up,↑,0.5793663999065757,True,33,1
RC-M-23M23S1,241,experiment,77,←,left,←,0.5380439000437036,True,33,1
RC-M-23M23S1,242,experiment,85,←,left,←,0.42488379997666925,True,33,1
RC-M-23M23S1,243,experiment,61,↑,up,↑,0.46638660004828125,True,33,0
RC-M-23M23S1,244,experiment,52,↓,down,↓,0.5742719999980181,True,33,1
RC-M-23M23S1,245,experiment,102,←,left,←,0.4177808000240475,True,33,1
RC-M-23M23S1,246,experiment,64,→,right,→,0.4702343000099063,True,33,0
RC-M-23M23S1,247,experiment,49,←,left,←,1.594757299986668,True,33,1
RC-M-23M23S1,248,experiment,100,→,right,→,0.45756220002658665,True,33,1
RC-M-23M23S1,249,experiment,101,→,right,→,0.5090849000262097,True,33,1
RC-M-23M23S1,250,experiment,72,←,right,→,0.4566297000274062,False,33,1
RC-M-23M23S1,251,experiment,103,↓,down,↓,0.6114117000252008,True,33,1
RC-M-23M23S1,252,experiment,71,↓,down,↓,0.691257799975574,True,33,1
RC-M-23M23S1,253,experiment,62,→,right,→,0.47442839993163943,True,33,1
RC-M-23M23S1,254,experiment,69,↑,up,↑,0.6323283000383526,True,33,1
RC-M-23M23S1,255,experiment,93,←,left,←,0.5995878999819979,True,33,1
RC-M-23M23S1,256,experiment,54,↑,up,↑,0.4457965000765398,True,33,1
RC-M-23M23S1,257,experiment,91,←,left,←,0.4007078999420628,True,33,0
RC-M-23M23S1,258,experiment,86,↑,up,↑,0.5517618999583647,True,33,0
RC-M-23M23S1,259,experiment,83,↑,up,↑,0.5656447000801563,True,33,1
RC-M-23M23S1,260,experiment,67,↑,up,↑,0.568356900010258,True,33,1
RC-M-23M23S1,261,experiment,94,↓,down,↓,0.7782880999147892,True,33,1
RC-M-23M23S1,262,experiment,105,↓,down,↓,0.46410869993269444,True,33,1
RC-M-23M23S1,263,experiment,75,↑,up,↑,0.5078504999401048,True,33,1
RC-M-23M23S1,264,experiment,53,↑,up,↑,0.4537545000202954,True,33,1
RC-M-23M23S1,265,experiment,65,→,left,←,0.9413050999864936,False,33,1
RC-M-23M23S1,266,experiment,108,↓,no_key,no_letter,-1.0,False,33,1
RC-M-23M23S1,267,experiment,88,←,no_key,no_letter,-1.0,False,33,1
RC-M-23M23S1,268,experiment,107,→,right,→,0.5420169000281021,True,33,1
RC-M-23M23S1,269,experiment,98,→,right,→,0.7355144000612199,True,33,1
RC-M-23M23S1,270,experiment,59,←,left,←,0.582238300004974,True,33,1
RC-M-23M23S1,271,experiment,66,←,left,←,0.7286344999447465,True,33,1
RC-M-23M23S1,272,experiment,57,↑,up,↑,0.544183999998495,True,33,1
RC-M-23M23S1,273,experiment,68,↓,down,↓,0.5876362000126392,True,33,1
RC-M-23M23S1,274,experiment,82,↑,left,←,0.8324800999835134,False,33,1
RC-M-23M23S1,275,experiment,90,←,left,←,0.5526867000153288,True,33,1
RC-M-23M23S1,276,experiment,76,↑,up,↑,0.65718039998319,True,33,1
RC-M-23M23S1,277,experiment,89,↓,down,↓,0.656890100101009,True,33,1
RC-M-23M23S1,278,experiment,56,↓,down,↓,0.5075240000151098,True,33,1
RC-M-23M23S1,279,experiment,99,↓,down,↓,0.4623622000217438,True,33,1
RC-M-23M23S1,280,experiment,79,↑,up,↑,0.6007091000210494,True,33,1
RC-M-23M23S1,281,experiment,81,→,right,→,0.48533900000620633,True,33,1
RC-M-23M23S1,282,experiment,51,←,left,←,0.7288114000111818,True,33,1
RC-M-23M23S1,283,experiment,60,→,right,→,0.7270632999716327,True,33,1
RC-M-23M23S1,284,experiment,55,↑,up,↑,0.44824529998004436,True,33,1
RC-M-23M23S1,285,experiment,58,↑,up,↑,0.6902162999613211,True,33,0
RC-M-23M23S1,286,experiment,96,↓,down,↓,0.47814330004621297,True,33,1
RC-M-23M23S1,287,experiment,84,←,left,←,0.7507764999754727,True,33,1
RC-M-23M23S1,288,experiment,48,↓,down,↓,0.5205580000765622,True,33,1
RC-M-23M23S1,289,experiment,97,↓,up,↑,0.4993042000569403,False,33,1
RC-M-23M23S1,290,experiment,104,→,right,→,0.5804482999956235,True,33,1
RC-M-23M23S1,291,experiment,70,→,right,→,0.4617306999862194,True,33,1
RC-M-23M23S1,292,experiment,106,→,right,→,0.44825749995652586,True,33,1
RC-M-23M23S1,293,training,74,↓,down,↓,0.5855136000318453,True,33,0
RC-M-23M23S1,294,training,84,↓,down,↓,0.4542177999392152,True,33,1
RC-M-23M23S1,295,experiment,51,←,left,←,0.49050690000876784,True,33,1
RC-M-23M23S1,296,experiment,84,↓,down,↓,0.6023556999862194,True,33,1
RC-M-23M23S1,297,experiment,87,←,left,←,0.5091587000060827,True,33,1
RC-M-23M23S1,298,experiment,105,→,right,→,0.49349749996326864,True,33,1
RC-M-23M23S1,299,experiment,72,←,right,→,0.3921870000194758,False,33,1
RC-M-23M23S1,300,experiment,106,→,right,→,0.7577719000400975,True,33,0
RC-M-23M23S1,301,experiment,52,←,left,←,0.5901523999636993,True,33,1
RC-M-23M23S1,302,experiment,76,←,left,←,0.6608397000236437,True,33,1
RC-M-23M23S1,303,experiment,57,↑,up,↑,0.48728419991675764,True,33,1
RC-M-23M23S1,304,experiment,103,→,left,←,0.7773286000592634,False,33,1
RC-M-23M23S1,305,experiment,67,←,left,←,0.7793485999573022,True,33,1
RC-M-23M23S1,306,experiment,95,↓,down,↓,0.7082128999754786,True,33,1
RC-M-23M23S1,307,experiment,58,↓,down,↓,0.6761718000052497,True,33,1
RC-M-23M23S1,308,experiment,71,→,left,←,0.7131402000086382,False,33,1
RC-M-23M23S1,309,experiment,65,→,no_key,no_letter,-1.0,False,33,1
RC-M-23M23S1,310,experiment,59,→,right,→,0.6294655000092462,True,33,1
RC-M-23M23S1,311,experiment,66,→,right,→,0.781710600014776,True,33,1
RC-M-23M23S1,312,experiment,64,↑,up,↑,0.5127625999739394,True,33,1
RC-M-23M23S1,313,experiment,93,↑,up,↑,0.7416867999127135,True,33,1
RC-M-23M23S1,314,experiment,101,↑,up,↑,0.6377373000141233,True,33,1
RC-M-23M23S1,315,experiment,80,↓,down,↓,0.6091590999858454,True,33,1
RC-M-23M23S1,316,experiment,92,↓,down,↓,0.7055335999466479,True,33,1
RC-M-23M23S1,317,experiment,86,↑,up,↑,1.1603206999134272,True,33,1
RC-M-23M23S1,318,experiment,53,→,right,→,0.6081539000151679,True,33,1
RC-M-23M23S1,319,experiment,102,↓,down,↓,0.6132927000289783,True,33,1
RC-M-23M23S1,320,experiment,107,→,right,→,0.5450055999681354,True,33,1
RC-M-23M23S1,321,experiment,54,→,right,→,0.4730212999274954,True,33,1
RC-M-23M23S1,322,experiment,108,↓,down,↓,0.5377702000550926,True,33,1
RC-M-23M23S1,323,experiment,83,↓,down,↓,0.5602290000533685,True,33,1
RC-M-23M23S1,324,experiment,70,↑,up,↑,0.6023532999679446,True,33,1
RC-M-23M23S1,325,experiment,81,↓,down,↓,0.6550791000481695,True,33,1
RC-M-23M23S1,326,experiment,48,↓,down,↓,0.6686446000821888,True,33,1
RC-M-23M23S1,327,experiment,82,↓,down,↓,0.550167900044471,True,33,1
RC-M-23M23S1,328,experiment,79,↓,down,↓,0.46954999992158264,True,33,1
RC-M-23M23S1,329,experiment,69,→,right,→,0.4755627999547869,True,33,1
RC-M-23M23S1,330,experiment,73,→,right,→,0.4008629999589175,True,33,1
RC-M-23M23S1,331,experiment,90,→,right,→,0.49762909999117255,True,33,0
RC-M-23M23S1,332,experiment,94,←,right,→,0.47798109997529536,False,33,1
RC-M-23M23S1,333,experiment,56,↓,down,↓,0.5840487000532448,True,33,1
RC-M-23M23S1,334,experiment,62,↑,up,↑,0.6679360000416636,True,33,1
RC-M-23M23S1,335,experiment,55,←,left,←,0.7424938000040129,True,33,1
RC-M-23M23S1,336,experiment,63,→,left,←,0.724023999995552,False,33,1
RC-M-23M23S1,337,experiment,74,↑,up,↑,0.6138226999901235,True,33,1
RC-M-23M23S1,338,experiment,91,→,right,→,0.5823400999652222,True,33,1
RC-M-23M23S1,339,experiment,100,→,right,→,0.38404809997882694,True,33,1
RC-M-23M23S1,340,experiment,85,←,left,←,0.528909599990584,True,33,0
RC-M-23M23S1,341,experiment,78,↓,down,↓,0.5056508000707254,True,33,1
RC-M-23M23S1,342,experiment,60,→,left,←,0.5369061999954283,False,33,1
RC-M-23M23S1,343,experiment,50,↑,left,←,0.7547508999705315,False,33,1
RC-M-23M23S1,344,experiment,61,→,right,→,0.7355856999056414,True,33,1
RC-M-23M23S1,345,experiment,49,↓,down,↓,0.5938154000323266,True,33,1
RC-M-23M23S1,346,experiment,75,←,left,←,0.5610794000094756,True,33,1
RC-M-23M23S1,347,experiment,97,↓,down,↓,0.497857499984093,True,33,1
RC-M-23M23S1,348,experiment,98,→,right,→,0.6049475000472739,True,33,1
RC-M-23M23S1,349,experiment,89,→,right,→,0.38393919996451586,True,33,1
RC-M-23M23S1,350,experiment,104,↓,down,↓,0.4449212000472471,True,33,0
RC-M-23M23S1,351,experiment,96,↑,up,↑,0.5941530000418425,True,33,1
RC-M-23M23S1,352,experiment,77,←,left,←,0.42616669996641576,True,33,1
RC-M-23M23S1,353,experiment,68,→,right,→,0.38426219997927547,True,33,0
RC-M-23M23S1,354,experiment,99,→,left,←,0.40889429999515414,False,33,0
RC-M-23M23S1,355,experiment,88,→,right,→,0.3928730000043288,True,33,0
RC-M-23M23S1,356,training,79,↑,up,↑,0.5658715999452397,True,33,0
RC-M-23M23S1,357,training,100,→,right,→,0.47730050003156066,True,33,1
RC-M-23M23S1,358,experiment,105,↑,up,↑,0.5910859999712557,True,33,1
RC-M-23M23S1,359,experiment,49,↓,down,↓,0.6628490999573842,True,33,1
RC-M-23M23S1,360,experiment,69,↑,up,↑,0.5010191999608651,True,33,1
RC-M-23M23S1,361,experiment,68,↓,down,↓,0.7148409999208525,True,33,1
RC-M-23M23S1,362,experiment,73,→,left,←,0.7972475000424311,False,33,1
RC-M-23M23S1,363,experiment,74,←,left,←,0.49984659999608994,True,33,1
RC-M-23M23S1,364,experiment,76,←,left,←,0.7262475000461563,True,33,1
RC-M-23M23S1,365,experiment,77,↑,up,↑,0.6151981999864802,True,33,1
RC-M-23M23S1,366,experiment,57,←,left,←,0.6672396999783814,True,33,1
RC-M-23M23S1,367,experiment,84,↑,up,↑,0.7322513000108302,True,33,1
RC-M-23M23S1,368,experiment,71,↓,down,↓,0.55097800004296,True,33,1
RC-M-23M23S1,369,experiment,83,↓,down,↓,0.7572030000155792,True,33,1
RC-M-23M23S1,370,experiment,60,↓,down,↓,0.5386749999597669,True,33,1
RC-M-23M23S1,371,experiment,86,↓,down,↓,0.4563912999583408,True,33,1
RC-M-23M23S1,372,experiment,96,←,left,←,0.7494991000276059,True,33,1
RC-M-23M23S1,373,experiment,81,↓,down,↓,0.44489909999538213,True,33,1
RC-M-23M23S1,374,experiment,87,←,left,←,0.5647494000149891,True,33,0
RC-M-23M23S1,375,experiment,93,←,left,←,0.4630125999683514,True,33,1
RC-M-23M23S1,376,experiment,53,→,left,←,0.8422724999254569,False,33,1
RC-M-23M23S1,377,experiment,58,←,left,←,0.54091639991384,True,33,1
RC-M-23M23S1,378,experiment,52,↓,down,↓,0.7257318000774831,True,33,1
RC-M-23M23S1,379,experiment,80,↑,up,↑,0.7496981000294909,True,33,1
RC-M-23M23S1,380,experiment,56,↓,down,↓,0.6127315000630915,True,33,1
RC-M-23M23S1,381,experiment,95,↓,down,↓,0.5645998999243602,True,33,1
RC-M-23M23S1,382,experiment,65,↑,up,↑,0.5599296999862418,True,33,1
RC-M-23M23S1,383,experiment,51,↓,down,↓,0.4963079000590369,True,33,1
RC-M-23M23S1,384,experiment,63,↓,down,↓,0.6235055000288412,True,33,1
RC-M-23M23S1,385,experiment,64,→,right,→,0.641098799998872,True,33,1
RC-M-23M23S1,386,experiment,72,↑,up,↑,0.6227631000801921,True,33,1
RC-M-23M23S1,387,experiment,106,↓,down,↓,0.6343533999752253,True,33,1
RC-M-23M23S1,388,experiment,55,→,right,→,0.5743276999564841,True,33,1
RC-M-23M23S1,389,experiment,89,←,left,←,0.5054693000856787,True,33,1
RC-M-23M23S1,390,experiment,67,↑,up,↑,0.5344152000034228,True,33,1
RC-M-23M23S1,391,experiment,90,←,left,←,0.5228064999682829,True,33,1
RC-M-23M23S1,392,experiment,101,←,left,←,0.531636199913919,True,33,1
RC-M-23M23S1,393,experiment,97,←,no_key,no_letter,-1.0,False,33,1
RC-M-23M23S1,394,experiment,78,↑,up,↑,0.5339728998951614,True,33,1
RC-M-23M23S1,395,experiment,61,↑,left,←,0.40923440002370626,False,33,1
RC-M-23M23S1,396,experiment,62,→,no_key,no_letter,-1.0,False,33,0
RC-M-23M23S1,397,experiment,82,←,left,←,0.5728882999392226,True,33,1
RC-M-23M23S1,398,experiment,98,←,left,←,0.45338570000603795,True,33,1
RC-M-23M23S1,399,experiment,102,→,right,→,0.656293599982746,True,33,1
RC-M-23M23S1,400,experiment,103,←,left,←,0.4176568000111729,True,33,1
RC-M-23M23S1,401,experiment,94,←,left,←,0.6666885000886396,True,33,0
RC-M-23M23S1,402,experiment,48,→,right,→,0.7037300000665709,True,33,1
RC-M-23M23S1,403,experiment,79,↓,down,↓,0.48123389994725585,True,33,1
RC-M-23M23S1,404,experiment,66,→,left,←,0.5357001000083983,False,33,1
RC-M-23M23S1,405,experiment,75,→,right,→,0.5849501000484452,True,33,1
RC-M-23M23S1,406,experiment,50,↑,up,↑,0.977093999972567,True,33,1
RC-M-23M23S1,407,experiment,92,↓,down,↓,0.6508867000229657,True,33,1
RC-M-23M23S1,408,experiment,99,↑,up,↑,0.5033546999329701,True,33,1
RC-M-23M23S1,409,experiment,107,↑,up,↑,0.46369709994178265,True,33,1
RC-M-23M23S1,410,experiment,70,←,left,←,0.9812383999815211,True,33,1
RC-M-23M23S1,411,experiment,88,←,left,←,0.8242394999833778,True,33,1
RC-M-23M23S1,412,experiment,100,↑,up,↑,0.6374970000470057,True,33,1
RC-M-23M23S1,413,experiment,59,↓,down,↓,0.6398686000611633,True,33,1
RC-M-23M23S1,414,experiment,54,↑,up,↑,0.6040541999973357,True,33,1
RC-M-23M23S1,415,experiment,104,↑,up,↑,1.2250064000254497,True,33,1
RC-M-23M23S1,416,experiment,91,→,no_key,no_letter,-1.0,False,33,1
RC-M-23M23S1,417,experiment,108,←,left,←,0.511140099959448,True,33,1
RC-M-23M23S1,418,experiment,85,↓,down,↓,0.6701044000219554,True,33,1
RC-M-23M23S1,419,training,92,↑,up,↑,0.572423700010404,True,33,0
RC-M-23M23S1,420,training,83,→,right,→,0.6016995999962091,True,33,1
RC-M-23M23S1,421,experiment,58,←,left,←,0.4622080000117421,True,33,1
RC-M-23M23S1,422,experiment,68,→,right,→,0.4448604000499472,True,33,1
RC-M-23M23S1,423,experiment,102,↑,up,↑,0.6801295999903232,True,33,1
RC-M-23M23S1,424,experiment,82,↑,up,↑,0.5456692000152543,True,33,1
RC-M-23M23S1,425,experiment,64,←,left,←,0.4463583999313414,True,33,1
RC-M-23M23S1,426,experiment,62,→,right,→,0.41752739995718,True,33,0
RC-M-23M23S1,427,experiment,66,↓,down,↓,0.47178700007498264,True,33,0
RC-M-23M23S1,428,experiment,108,←,left,←,0.37578659993596375,True,33,1
RC-M-23M23S1,429,experiment,56,↓,down,↓,0.5983949999790639,True,33,0
RC-M-23M23S1,430,experiment,84,↓,down,↓,0.617909700027667,True,33,1
RC-M-23M23S1,431,experiment,86,↑,up,↑,0.5803209999576211,True,33,1
RC-M-23M23S1,432,experiment,73,←,left,←,0.5324170000385493,True,33,1
RC-M-23M23S1,433,experiment,99,↑,up,↑,0.4777843999909237,True,33,1
RC-M-23M23S1,434,experiment,52,←,left,←,0.6730507999891415,True,33,1
RC-M-23M23S1,435,experiment,104,↓,down,↓,0.6032329999143258,True,33,1
RC-M-23M23S1,436,experiment,95,→,right,→,0.5070338000077754,True,33,1
RC-M-23M23S1,437,experiment,81,↓,up,↑,0.4836657999549061,False,33,1
RC-M-23M23S1,438,experiment,67,↓,down,↓,0.7219204999273643,True,33,1
RC-M-23M23S1,439,experiment,63,↓,down,↓,0.7835660999407992,True,33,1
RC-M-23M23S1,440,experiment,60,↑,up,↑,0.5078429999994114,True,33,1
RC-M-23M23S1,441,experiment,61,→,right,→,0.6989294000668451,True,33,1
RC-M-23M23S1,442,experiment,100,←,left,←,0.6692540000658482,True,33,1
RC-M-23M23S1,443,experiment,69,←,left,←,0.4993181999307126,True,33,1
RC-M-23M23S1,444,experiment,54,↓,down,↓,0.6529832000378519,True,33,1
RC-M-23M23S1,445,experiment,101,↑,up,↑,0.48096800001803786,True,33,1
RC-M-23M23S1,446,experiment,50,↓,down,↓,0.5569837000221014,True,33,1
RC-M-23M23S1,447,experiment,83,↑,up,↑,0.7948107999982312,True,33,1
RC-M-23M23S1,448,experiment,91,←,left,←,0.524514100048691,True,33,1
RC-M-23M23S1,449,experiment,59,→,right,→,0.6275886999210343,True,33,1
RC-M-23M23S1,450,experiment,78,←,left,←,0.6003505999688059,True,33,1
RC-M-23M23S1,451,experiment,94,↓,down,↓,0.5126244999701157,True,33,1
RC-M-23M23S1,452,experiment,48,→,right,→,0.7716790999984369,True,33,1
RC-M-23M23S1,453,experiment,70,→,right,→,0.45377430005464703,True,33,1
RC-M-23M23S1,454,experiment,80,←,left,←,0.5356912000570446,True,33,1
RC-M-23M23S1,455,experiment,76,←,left,←,0.5768327999394387,True,33,1
RC-M-23M23S1,456,experiment,55,↑,up,↑,0.8713316000066698,True,33,1
RC-M-23M23S1,457,experiment,88,↑,up,↑,0.5750816999934614,True,33,1
RC-M-23M23S1,458,experiment,96,→,right,→,0.7115430000703782,True,33,1
RC-M-23M23S1,459,experiment,103,↑,up,↑,0.5127876999322325,True,33,1
RC-M-23M23S1,460,experiment,53,←,left,←,0.7219617000082508,True,33,1
RC-M-23M23S1,461,experiment,74,←,left,←,0.5483069999609143,True,33,1
RC-M-23M23S1,462,experiment,85,↑,up,↑,0.6095163999125361,True,33,1
RC-M-23M23S1,463,experiment,89,↑,up,↑,0.4596538000041619,True,33,1
RC-M-23M23S1,464,experiment,90,↓,left,←,0.3926667000632733,False,33,1
RC-M-23M23S1,465,experiment,71,↓,down,↓,0.810369799961336,True,33,0
RC-M-23M23S1,466,experiment,87,↑,up,↑,0.6286772000603378,True,33,1
RC-M-23M23S1,467,experiment,107,↓,down,↓,0.5201954999938607,True,33,1
RC-M-23M23S1,468,experiment,93,↑,up,↑,0.5158355999737978,True,33,1
RC-M-23M23S1,469,experiment,105,→,right,→,0.587981199962087,True,33,1
RC-M-23M23S1,470,experiment,98,→,right,→,0.491784599958919,True,33,1
RC-M-23M23S1,471,experiment,79,↓,down,↓,0.6136614000424743,True,33,1
RC-M-23M23S1,472,experiment,57,↑,up,↑,0.5453559999587014,True,33,1
RC-M-23M23S1,473,experiment,106,↑,up,↑,0.5040790000930429,True,33,1
RC-M-23M23S1,474,experiment,75,←,left,←,0.5935766000766307,True,33,1
RC-M-23M23S1,475,experiment,72,←,left,←,0.47330880002118647,True,33,1
RC-M-23M23S1,476,experiment,77,←,left,←,0.7083477000705898,True,33,1
RC-M-23M23S1,477,experiment,51,→,right,→,0.6546159000135958,True,33,1
RC-M-23M23S1,478,experiment,49,←,left,←,0.715838999953121,True,33,1
RC-M-23M23S1,479,experiment,92,→,right,→,0.5201162999728695,True,33,1
RC-M-23M23S1,480,experiment,65,→,right,→,0.5336003000847995,True,33,1
RC-M-23M23S1,481,experiment,97,→,no_key,no_letter,-1.0,False,33,1
RC-M-23M23S1,482,training,106,→,right,→,0.45097969996277243,True,32,0
RC-M-23M23S1,483,training,55,↓,down,↓,1.230305999983102,True,32,1
RC-M-23M23S1,484,experiment,100,→,right,→,0.5633101999992505,True,32,1
RC-M-23M23S1,485,experiment,68,↓,down,↓,0.6696256999857724,True,32,1
RC-M-23M23S1,486,experiment,60,↑,up,↑,0.6144108000444248,True,32,1
RC-M-23M23S1,487,experiment,72,←,right,→,0.4379801000468433,False,32,1
RC-M-23M23S1,488,experiment,64,↑,up,↑,0.4390390000771731,True,32,0
RC-M-23M23S1,489,experiment,96,↑,up,↑,0.62833740003407,True,32,0
RC-M-23M23S1,490,experiment,62,↓,down,↓,0.4172694000881165,True,32,1
RC-M-23M23S1,491,experiment,91,→,right,→,0.6232809000648558,True,32,0
RC-M-23M23S1,492,experiment,84,←,left,←,0.7057582999113947,True,32,1
RC-M-23M23S1,493,experiment,97,↓,down,↓,0.5808344000251964,True,32,1
RC-M-23M23S1,494,experiment,59,←,left,←,0.45785710006020963,True,32,1
RC-M-23M23S1,495,experiment,58,→,right,→,0.4679286000318825,True,32,1
RC-M-23M23S1,496,experiment,74,→,right,→,0.6722186000552028,True,32,1
RC-M-23M23S1,497,experiment,48,↓,down,↓,0.5489894000347704,True,32,1
RC-M-23M23S1,498,experiment,55,↓,down,↓,0.44502949994057417,True,32,1
RC-M-23M23S1,499,experiment,69,↑,up,↑,0.5471533000236377,True,32,1
RC-M-23M23S1,500,experiment,76,→,right,→,0.5234040999785066,True,32,1
RC-M-23M23S1,501,experiment,65,↑,up,↑,0.5286222000140697,True,32,1
RC-M-23M23S1,502,experiment,61,↓,down,↓,0.47148459998425096,True,32,1
RC-M-23M23S1,503,experiment,86,←,right,→,0.5508938999846578,False,32,1
RC-M-23M23S1,504,experiment,83,↑,up,↑,0.41735970007721335,True,32,1
RC-M-23M23S1,505,experiment,70,↑,up,↑,0.4007361999247223,True,32,0
RC-M-23M23S1,506,experiment,66,→,right,→,0.4538354999385774,True,32,0
RC-M-23M23S1,507,experiment,107,←,left,←,0.7355641999747604,True,32,1
RC-M-23M23S1,508,experiment,80,↓,down,↓,0.5033674000296742,True,32,1
RC-M-23M23S1,509,experiment,93,↓,down,↓,0.6121898000128567,True,32,1
RC-M-23M23S1,510,experiment,89,→,left,←,0.7577620000811294,False,32,1
RC-M-23M23S1,511,experiment,95,↓,down,↓,0.6555304999928921,True,32,1
RC-M-23M23S1,512,experiment,56,→,right,→,0.6823551000561565,True,32,1
RC-M-23M23S1,513,experiment,67,↓,down,↓,0.5762400000821799,True,32,1
RC-M-23M23S1,514,experiment,108,→,right,→,0.6132393999723718,True,32,1
RC-M-23M23S1,515,experiment,78,↑,up,↑,0.49008429993409663,True,32,1
RC-M-23M23S1,516,experiment,88,←,left,←,0.624612900079228,True,32,1
RC-M-23M23S1,517,experiment,49,↓,down,↓,0.5991739999735728,True,32,1
RC-M-23M23S1,518,experiment,82,→,right,→,0.5156870000064373,True,32,1
RC-M-23M23S1,519,experiment,52,↓,down,↓,0.5252177999354899,True,32,1
RC-M-23M23S1,520,experiment,63,↓,down,↓,0.9151598999742419,True,32,1
RC-M-23M23S1,521,experiment,50,←,left,←,0.5813922999659553,True,32,1
RC-M-23M23S1,522,experiment,53,↓,down,↓,0.6042557000182569,True,32,1
RC-M-23M23S1,523,experiment,101,↑,down,↓,0.8263962999917567,False,32,1
RC-M-23M23S1,524,experiment,85,←,right,→,0.7881732999812812,False,32,1
RC-M-23M23S1,525,experiment,105,←,left,←,0.46584550000261515,True,32,1
RC-M-23M23S1,526,experiment,75,←,left,←,0.5658037000102922,True,32,1
RC-M-23M23S1,527,experiment,54,↑,up,↑,0.6129428000422195,True,32,1
RC-M-23M23S1,528,experiment,77,←,left,←,0.6103640000801533,True,32,1
RC-M-23M23S1,529,experiment,94,↓,down,↓,0.5941860000602901,True,32,1
RC-M-23M23S1,530,experiment,87,↓,down,↓,0.44608140003401786,True,32,1
RC-M-23M23S1,531,experiment,92,→,right,→,0.724299699999392,True,32,1
RC-M-23M23S1,532,experiment,79,→,right,→,0.5727359000593424,True,32,1
RC-M-23M23S1,533,experiment,90,↓,down,↓,0.4794988000066951,True,32,1
RC-M-23M23S1,534,experiment,106,←,left,←,0.4963813000358641,True,32,1
RC-M-23M23S1,535,experiment,99,↓,down,↓,0.5471069000195712,True,32,1
RC-M-23M23S1,536,experiment,57,→,right,→,0.6345567000098526,True,32,1
RC-M-23M23S1,537,experiment,51,↓,down,↓,0.8873268000315875,True,32,1
RC-M-23M23S1,538,experiment,71,↑,up,↑,0.4442593000130728,True,32,1
RC-M-23M23S1,539,experiment,73,↑,up,↑,0.48141600005328655,True,32,1
RC-M-23M23S1,540,experiment,98,↓,down,↓,0.7011831999989226,True,32,1
RC-M-23M23S1,541,experiment,103,↓,down,↓,0.5582711000461131,True,32,1
RC-M-23M23S1,542,experiment,104,↑,up,↑,0.7730402000015602,True,32,1
RC-M-23M23S1,543,experiment,102,←,left,←,0.4365201999899,True,32,1
RC-M-23M23S1,544,experiment,81,↑,up,↑,0.5349296999629587,True,32,1
RC-M-23M23S1,545,training,82,←,left,←,0.5135912999976426,True,31,0
RC-M-23M23S1,546,training,96,←,left,←,1.6443008000496775,True,31,1
RC-M-23M23S1,547,experiment,81,←,left,←,0.3765724999830127,True,31,1
RC-M-23M23S1,548,experiment,108,↑,up,↑,0.4360741999698803,True,31,0
RC-M-23M23S1,549,experiment,56,→,right,→,0.5268550000619143,True,31,1
RC-M-23M23S1,550,experiment,52,↓,up,↑,0.5202741000102833,False,31,1
RC-M-23M23S1,551,experiment,51,↓,down,↓,0.5464022000087425,True,31,1
RC-M-23M23S1,552,experiment,94,→,right,→,0.4687398000387475,True,31,1
RC-M-23M23S1,553,experiment,78,←,left,←,0.6558342999778688,True,31,1
RC-M-23M23S1,554,experiment,70,↑,up,↑,0.5417984999949113,True,31,1
RC-M-23M23S1,555,experiment,79,←,left,←,0.46167140000034124,True,31,1
RC-M-23M23S1,556,experiment,49,↑,down,↓,0.5388900999678299,False,31,1
RC-M-23M23S1,557,experiment,57,↓,down,↓,0.6578219999792054,True,31,1
RC-M-23M23S1,558,experiment,61,↓,down,↓,0.5389222999801859,True,31,1
RC-M-23M23S1,559,experiment,107,↑,up,↑,0.5934855999657884,True,31,1
RC-M-23M23S1,560,experiment,75,←,left,←,0.5282050999812782,True,31,1
RC-M-23M23S1,561,experiment,82,↓,down,↓,0.5198397000785917,True,31,1
RC-M-23M23S1,562,experiment,85,←,left,←,0.7266832999885082,True,31,1
RC-M-23M23S1,563,experiment,48,↓,down,↓,0.50523379992228,True,31,1
RC-M-23M23S1,564,experiment,88,↑,up,↑,0.6072118999436498,True,31,1
RC-M-23M23S1,565,experiment,73,→,right,→,0.6543074999935925,True,31,1
RC-M-23M23S1,566,experiment,74,↑,up,↑,0.5951481000520289,True,31,1
RC-M-23M23S1,567,experiment,65,↑,up,↑,0.4380158999701962,True,31,1
RC-M-23M23S1,568,experiment,69,↑,up,↑,0.5087941000238061,True,31,1
RC-M-23M23S1,569,experiment,68,↑,up,↑,1.1134331000503153,True,31,1
RC-M-23M23S1,570,experiment,71,↓,down,↓,0.6525577999418601,True,31,1
RC-M-23M23S1,571,experiment,50,↓,down,↓,0.5457339999265969,True,31,1
RC-M-23M23S1,572,experiment,91,←,left,←,0.6530433999141678,True,31,1
RC-M-23M23S1,573,experiment,89,←,left,←,0.5893248999491334,True,31,1
RC-M-23M23S1,574,experiment,63,↑,up,↑,0.4724314999766648,True,31,1
RC-M-23M23S1,575,experiment,53,↑,up,↑,0.5712935000192374,True,31,1
RC-M-23M23S1,576,experiment,87,↑,up,↑,0.5034498999593779,True,31,1
RC-M-23M23S1,577,experiment,96,↓,down,↓,0.6270711999386549,True,31,1
RC-M-23M23S1,578,experiment,101,↑,up,↑,0.5521268000593409,True,31,1
RC-M-23M23S1,579,experiment,80,↓,down,↓,0.6951777000213042,True,31,1
RC-M-23M23S1,580,experiment,103,↑,up,↑,0.521047499962151,True,31,1
RC-M-23M23S1,581,experiment,90,↓,down,↓,0.5735979999881238,True,31,1
RC-M-23M23S1,582,experiment,64,→,right,→,0.6009765999624506,True,31,1
RC-M-23M23S1,583,experiment,54,→,right,→,0.9187367999693379,True,31,1
RC-M-23M23S1,584,experiment,95,↑,up,↑,0.48214620002545416,True,31,1
RC-M-23M23S1,585,experiment,62,→,left,←,0.5858923000050709,False,31,1
RC-M-23M23S1,586,experiment,66,↓,down,↓,0.6683882999932393,True,31,1
RC-M-23M23S1,587,experiment,59,←,left,←,0.5418261999730021,True,31,1
RC-M-23M23S1,588,experiment,98,↓,down,↓,0.4952476000180468,True,31,1
RC-M-23M23S1,589,experiment,55,↓,down,↓,0.47268610005266964,True,31,1
RC-M-23M23S1,590,experiment,67,→,right,→,0.6073599000228569,True,31,1
RC-M-23M23S1,591,experiment,93,↑,up,↑,0.4005361000308767,True,31,1
RC-M-23M23S1,592,experiment,106,→,right,→,0.4996377000352368,True,31,0
RC-M-23M23S1,593,experiment,84,←,left,←,0.49939189990982413,True,31,1
RC-M-23M23S1,594,experiment,83,→,right,→,0.44370939990039915,True,31,1
RC-M-23M23S1,595,experiment,86,←,left,←,0.48468839994166046,True,31,1
RC-M-23M23S1,596,experiment,102,→,right,→,0.5755802999483421,True,31,1
RC-M-23M23S1,597,experiment,105,→,right,→,0.8125854999525473,True,31,1
RC-M-23M23S1,598,experiment,92,↑,up,↑,0.4377500000409782,True,31,1
RC-M-23M23S1,599,experiment,72,↑,up,↑,0.9710780999157578,True,31,1
RC-M-23M23S1,600,experiment,76,→,right,→,0.5863632999826223,True,31,1
RC-M-23M23S1,601,experiment,60,↓,down,↓,0.5911060000071302,True,31,1
RC-M-23M23S1,602,experiment,77,→,left,←,0.7893208999885246,False,31,1
RC-M-23M23S1,603,experiment,58,↑,up,↑,0.4981081000296399,True,31,1
RC-M-23M23S1,604,experiment,99,→,right,→,0.4610708999680355,True,31,1
RC-M-23M23S1,605,experiment,104,↑,up,↑,0.6951926000183448,True,31,1
RC-M-23M23S1,606,experiment,97,→,right,→,0.5229480999987572,True,31,1
RC-M-23M23S1,607,experiment,100,↓,down,↓,0.7403392000123858,True,31,1
RC-M-23M23S1,608,training,72,→,right,→,0.5072716000722721,True,30,0
RC-M-23M23S1,609,training,91,↓,down,↓,0.4803017999511212,True,30,1
RC-M-23M23S1,610,experiment,70,↓,down,↓,0.3923952999757603,True,30,1
RC-M-23M23S1,611,experiment,81,↓,down,↓,0.5379927000030875,True,30,0
RC-M-23M23S1,612,experiment,67,↑,up,↑,0.39268689998425543,True,30,1
RC-M-23M23S1,613,experiment,83,↓,down,↓,0.39266350003890693,True,30,0
RC-M-23M23S1,614,experiment,106,←,no_key,no_letter,-1.0,False,30,0
RC-M-23M23S1,615,experiment,96,↑,left,←,0.8652237999485806,False,30,1
RC-M-23M23S1,616,experiment,90,↑,up,↑,0.560131200007163,True,30,1
RC-M-23M23S1,617,experiment,108,↓,down,↓,0.4376630000770092,True,30,1
RC-M-23M23S1,618,experiment,98,→,right,→,0.46689969999715686,True,30,1
RC-M-23M23S1,619,experiment,79,→,left,←,0.4301050000358373,False,30,1
RC-M-23M23S1,620,experiment,82,←,left,←,0.7048618999542668,True,30,1
RC-M-23M23S1,621,experiment,97,←,left,←,0.42870379996020347,True,30,1
RC-M-23M23S1,622,experiment,94,↓,down,↓,0.5153416000539437,True,30,1
RC-M-23M23S1,623,experiment,63,↑,up,↑,0.49737860006280243,True,30,1
RC-M-23M23S1,624,experiment,100,←,left,←,0.49152040004264563,True,30,1
RC-M-23M23S1,625,experiment,62,→,left,←,0.4008256000233814,False,30,1
RC-M-23M23S1,626,experiment,105,↓,down,↓,0.5674189999699593,True,30,0
RC-M-23M23S1,627,experiment,84,←,left,←,0.5564166000112891,True,30,1
RC-M-23M23S1,628,experiment,75,←,right,→,1.6849886999698356,False,30,1
RC-M-23M23S1,629,experiment,64,←,left,←,0.5718380999751389,True,30,1
RC-M-23M23S1,630,experiment,58,→,right,→,0.7053838999709114,True,30,1
RC-M-23M23S1,631,experiment,66,←,left,←,0.5585144999204203,True,30,1
RC-M-23M23S1,632,experiment,72,↑,up,↑,0.584049699944444,True,30,1
RC-M-23M23S1,633,experiment,86,↑,up,↑,0.5075345999794081,True,30,1
RC-M-23M23S1,634,experiment,77,←,left,←,0.7100689000217244,True,30,1
RC-M-23M23S1,635,experiment,95,←,left,←,0.8091160000767559,True,30,1
RC-M-23M23S1,636,experiment,68,↑,up,↑,0.5938092999858782,True,30,1
RC-M-23M23S1,637,experiment,73,←,left,←,0.6415717001073062,True,30,1
RC-M-23M23S1,638,experiment,102,←,left,←,1.3415694000432268,True,30,1
RC-M-23M23S1,639,experiment,52,↓,down,↓,0.6148903999710456,True,30,1
RC-M-23M23S1,640,experiment,69,↑,up,↑,0.526531899929978,True,30,1
RC-M-23M23S1,641,experiment,60,↑,up,↑,0.7332371000666171,True,30,1
RC-M-23M23S1,642,experiment,76,↓,down,↓,0.43849780003074557,True,30,1
RC-M-23M23S1,643,experiment,93,↑,up,↑,0.4218311000149697,True,30,1
RC-M-23M23S1,644,experiment,87,→,right,→,0.6630614000605419,True,30,1
RC-M-23M23S1,645,experiment,48,↓,down,↓,0.5159474000101909,True,30,1
RC-M-23M23S1,646,experiment,78,→,right,→,0.7010746999876574,True,30,1
RC-M-23M23S1,647,experiment,88,→,right,→,0.971424899995327,True,30,1
RC-M-23M23S1,648,experiment,56,↓,down,↓,0.593390499940142,True,30,1
RC-M-23M23S1,649,experiment,89,→,left,←,0.6281036000000313,False,30,1
RC-M-23M23S1,650,experiment,54,↑,up,↑,0.5207519000396132,True,30,1
RC-M-23M23S1,651,experiment,53,↓,down,↓,0.5062125999247655,True,30,1
RC-M-23M23S1,652,experiment,103,↑,up,↑,0.4431172999320552,True,30,1
RC-M-23M23S1,653,experiment,91,↑,up,↑,0.5308033000910655,True,30,1
RC-M-23M23S1,654,experiment,57,←,left,←,0.51459750009235,True,30,1
RC-M-23M23S1,655,experiment,85,↑,up,↑,0.5210044999839738,True,30,1
RC-M-23M23S1,656,experiment,99,→,right,→,0.4588882001116872,True,30,1
RC-M-23M23S1,657,experiment,80,←,left,←,0.4377331000287086,True,30,1
RC-M-23M23S1,658,experiment,71,↓,down,↓,0.7477972001070157,True,30,1
RC-M-23M23S1,659,experiment,50,↓,down,↓,0.5008147000335157,True,30,1
RC-M-23M23S1,660,experiment,74,→,right,→,0.4246832999633625,True,30,1
RC-M-23M23S1,661,experiment,51,↑,up,↑,0.4218366000568494,True,30,1
RC-M-23M23S1,662,experiment,107,↑,up,↑,0.5125145999481902,True,30,0
RC-M-23M23S1,663,experiment,55,→,right,→,0.42531449999660254,True,30,1
RC-M-23M23S1,664,experiment,104,→,right,→,0.5815044000046328,True,30,0
RC-M-23M23S1,665,experiment,101,→,right,→,0.4364106999710202,True,30,1
RC-M-23M23S1,666,experiment,92,↓,right,→,0.3424321999773383,False,30,1
RC-M-23M23S1,667,experiment,65,↑,down,↓,0.9114340000087395,False,30,0
RC-M-23M23S1,668,experiment,59,←,left,←,0.6549930999753997,True,30,1
RC-M-23M23S1,669,experiment,61,→,right,→,0.5529382999520749,True,30,1
RC-M-23M23S1,670,experiment,49,↑,up,↑,0.49768869997933507,True,30,1
RC-M-23M23S1,671,training,81,→,right,→,0.4337174999527633,True,30,0
RC-M-23M23S1,672,training,81,↑,up,↑,0.5250216999556869,True,30,1
RC-M-23M23S1,673,experiment,73,→,right,→,0.4396662999643013,True,30,1
RC-M-23M23S1,674,experiment,48,←,left,←,0.6545088000129908,True,30,1
RC-M-23M23S1,675,experiment,65,↓,down,↓,0.45351759996265173,True,30,1
RC-M-23M23S1,676,experiment,67,↓,down,↓,0.5569267000537366,True,30,1
RC-M-23M23S1,677,experiment,99,→,right,→,0.637218099902384,True,30,1
RC-M-23M23S1,678,experiment,72,↑,right,→,0.7475655999733135,False,30,1
RC-M-23M23S1,679,experiment,93,↓,down,↓,0.518218099954538,True,30,1
RC-M-23M23S1,680,experiment,54,←,left,←,0.7672489000251517,True,30,1
RC-M-23M23S1,681,experiment,63,→,right,→,0.6193761000176892,True,30,1
RC-M-23M23S1,682,experiment,96,←,left,←,0.6024792999960482,True,30,1
RC-M-23M23S1,683,experiment,75,←,left,←,0.5850649999920279,True,30,1
RC-M-23M23S1,684,experiment,103,→,left,←,0.5909318000776693,False,30,1
RC-M-23M23S1,685,experiment,56,↑,down,↓,0.612606400041841,False,30,1
RC-M-23M23S1,686,experiment,78,↑,down,↓,0.8739585999865085,False,30,1
RC-M-23M23S1,687,experiment,76,←,left,←,0.5412378999171779,True,30,1
RC-M-23M23S1,688,experiment,89,↓,down,↓,0.5217534999828786,True,30,1
RC-M-23M23S1,689,experiment,70,↓,down,↓,0.453954599914141,True,30,1
RC-M-23M23S1,690,experiment,85,←,left,←,0.6710107999388129,True,30,1
RC-M-23M23S1,691,experiment,52,←,left,←,0.49060999997891486,True,30,1
RC-M-23M23S1,692,experiment,51,↓,down,↓,0.6536429999396205,True,30,1
RC-M-23M23S1,693,experiment,58,←,left,←,0.640127299935557,True,30,1
RC-M-23M23S1,694,experiment,84,→,right,→,0.722107500070706,True,30,1
RC-M-23M23S1,695,experiment,66,↑,up,↑,1.7190400999970734,True,30,1
RC-M-23M23S1,696,experiment,106,←,left,←,0.5984635000349954,True,30,1
RC-M-23M23S1,697,experiment,100,↑,up,↑,0.49300290003884584,True,30,1
RC-M-23M23S1,698,experiment,97,→,right,→,0.4485707998974249,True,30,1
RC-M-23M23S1,699,experiment,104,↓,down,↓,0.5395165999652818,True,30,1
RC-M-23M23S1,700,experiment,64,←,left,←,0.4482434999663383,True,30,1
RC-M-23M23S1,701,experiment,108,↓,down,↓,0.47420179995242506,True,30,1
RC-M-23M23S1,702,experiment,60,←,left,←,0.6269238999811932,True,30,1
RC-M-23M23S1,703,experiment,77,↑,up,↑,0.6318807998904958,True,30,1
RC-M-23M23S1,704,experiment,80,↓,down,↓,0.5317351999692619,True,30,1
RC-M-23M23S1,705,experiment,83,↑,up,↑,0.7542714000446722,True,30,1
RC-M-23M23S1,706,experiment,68,↑,up,↑,0.43739029997959733,True,30,1
RC-M-23M23S1,707,experiment,87,↓,down,↓,0.43089970003347844,True,30,1
RC-M-23M23S1,708,experiment,98,↑,up,↑,0.5402575000189245,True,30,1
RC-M-23M23S1,709,experiment,88,↓,down,↓,0.45675849996041507,True,30,1
RC-M-23M23S1,710,experiment,101,←,left,←,0.4213404000038281,True,30,1
RC-M-23M23S1,711,experiment,62,→,right,→,0.5187448000069708,True,30,1
RC-M-23M23S1,712,experiment,95,↓,down,↓,0.5621155999833718,True,30,1
RC-M-23M23S1,713,experiment,82,→,right,→,0.5200597000075504,True,30,1
RC-M-23M23S1,714,experiment,71,↑,up,↑,0.6516296999761835,True,30,1
RC-M-23M23S1,715,experiment,79,↑,up,↑,0.43953289999626577,True,30,1
RC-M-23M23S1,716,experiment,92,→,right,→,0.654467000043951,True,30,1
RC-M-23M23S1,717,experiment,50,←,left,←,0.4990764999529347,True,30,1
RC-M-23M23S1,718,experiment,53,↓,down,↓,0.6132379999617115,True,30,1
RC-M-23M23S1,719,experiment,55,↓,down,↓,0.4502892999444157,True,30,1
RC-M-23M23S1,720,experiment,105,↓,down,↓,0.6210567000089213,True,30,1
RC-M-23M23S1,721,experiment,90,↑,up,↑,0.5578313999576494,True,30,1
RC-M-23M23S1,722,experiment,49,←,left,←,0.5587488000746816,True,30,1
RC-M-23M23S1,723,experiment,86,←,left,←,0.4754535999381915,True,30,1
RC-M-23M23S1,724,experiment,59,↓,down,↓,0.5328494000714272,True,30,1
RC-M-23M23S1,725,experiment,57,↑,up,↑,0.4004820000845939,True,30,1
RC-M-23M23S1,726,experiment,107,↓,down,↓,0.48788520006928593,True,30,0
RC-M-23M23S1,727,experiment,102,↑,up,↑,0.4897893000161275,True,30,1
RC-M-23M23S1,728,experiment,74,←,left,←,0.46136630000546575,True,30,1
RC-M-23M23S1,729,experiment,94,↑,up,↑,0.3338743000058457,True,30,1
RC-M-23M23S1,730,experiment,69,←,left,←,0.3922034000279382,True,30,0
RC-M-23M23S1,731,experiment,91,↓,down,↓,0.6634765999624506,True,30,0
RC-M-23M23S1,732,experiment,81,↑,up,↑,0.3508576999884099,True,30,1
RC-M-23M23S1,733,experiment,61,↓,down,↓,0.4709874000400305,True,30,0
RC-M-23M23S1,734,training,58,↓,down,↓,0.4628696999279782,True,29,0
RC-M-23M23S1,735,training,82,↑,up,↑,0.3505560999037698,True,29,1
RC-M-23M23S1,736,experiment,102,↑,up,↑,0.6719811999937519,True,29,0
RC-M-23M23S1,737,experiment,48,→,right,→,0.5649098000722006,True,29,1
RC-M-23M23S1,738,experiment,62,↓,down,↓,0.7534036999568343,True,29,1
RC-M-23M23S1,739,experiment,82,↓,down,↓,0.5679996999679133,True,29,1
RC-M-23M23S1,740,experiment,94,↓,up,↑,0.7292379999998957,False,29,1
RC-M-23M23S1,741,experiment,64,←,left,←,0.49437850003596395,True,29,1
RC-M-23M23S1,742,experiment,66,↑,up,↑,0.3673271000152454,True,29,1
RC-M-23M23S1,743,experiment,50,↑,up,↑,0.3423353999387473,True,29,0
RC-M-23M23S1,744,experiment,89,→,left,←,0.4725805000634864,False,29,0
RC-M-23M23S1,745,experiment,53,↓,down,↓,0.6998614000622183,True,29,1
RC-M-23M23S1,746,experiment,74,↑,up,↑,0.3757049000123516,True,29,1
RC-M-23M23S1,747,experiment,72,→,right,→,0.5671540999319404,True,29,0
RC-M-23M23S1,748,experiment,65,→,right,→,0.5866671000840142,True,29,1
RC-M-23M23S1,749,experiment,97,↓,down,↓,0.6668409000849351,True,29,1
RC-M-23M23S1,750,experiment,107,↓,down,↓,0.44400679995305836,True,29,1
RC-M-23M23S1,751,experiment,95,↑,down,↓,0.8343079999322072,False,29,1
RC-M-23M23S1,752,experiment,86,↓,down,↓,0.5082290999125689,True,29,1
RC-M-23M23S1,753,experiment,69,→,right,→,0.6886773000005633,True,29,1
RC-M-23M23S1,754,experiment,81,→,right,→,0.6259942000033334,True,29,1
RC-M-23M23S1,755,experiment,77,↑,up,↑,0.5105385999195278,True,29,1
RC-M-23M23S1,756,experiment,87,↑,up,↑,0.45299869996961206,True,29,1
RC-M-23M23S1,757,experiment,63,↑,up,↑,0.5099383000051603,True,29,1
RC-M-23M23S1,758,experiment,104,↓,down,↓,0.5984932000283152,True,29,1
RC-M-23M23S1,759,experiment,84,↑,up,↑,0.4823220999678597,True,29,1
RC-M-23M23S1,760,experiment,49,←,left,←,0.606402299948968,True,29,1
RC-M-23M23S1,761,experiment,60,←,left,←,0.7778770999284461,True,29,1
RC-M-23M23S1,762,experiment,92,↑,up,↑,0.4756424000952393,True,29,1
RC-M-23M23S1,763,experiment,90,→,right,→,0.5943244000663981,True,29,1
RC-M-23M23S1,764,experiment,61,↓,down,↓,0.5581864000996575,True,29,1
RC-M-23M23S1,765,experiment,99,↑,up,↑,0.5670457000378519,True,29,1
RC-M-23M23S1,766,experiment,88,↑,up,↑,0.4189858000027016,True,29,1
RC-M-23M23S1,767,experiment,52,→,right,→,0.5437544999876991,True,29,1
RC-M-23M23S1,768,experiment,78,↑,up,↑,0.4396703999955207,True,29,1
RC-M-23M23S1,769,experiment,58,←,left,←,0.5066091999178752,True,29,1
RC-M-23M23S1,770,experiment,79,↓,down,↓,0.45966610009782016,True,29,1
RC-M-23M23S1,771,experiment,93,←,left,←,0.4899353999644518,True,29,1
RC-M-23M23S1,772,experiment,57,↓,down,↓,0.6272126999683678,True,29,1
RC-M-23M23S1,773,experiment,73,←,left,←,0.4260533000342548,True,29,1
RC-M-23M23S1,774,experiment,106,↓,down,↓,0.6209226000355557,True,29,1
RC-M-23M23S1,775,experiment,80,←,left,←,0.5529067000607029,True,29,1
RC-M-23M23S1,776,experiment,96,↓,down,↓,0.49863229994662106,True,29,1
RC-M-23M23S1,777,experiment,105,←,left,←,0.5633409000001848,True,29,1
RC-M-23M23S1,778,experiment,68,↓,down,↓,0.4777235999936238,True,29,1
RC-M-23M23S1,779,experiment,98,↑,up,↑,0.4740158000495285,True,29,1
RC-M-23M23S1,780,experiment,75,←,right,→,0.6696969999466091,False,29,1
RC-M-23M23S1,781,experiment,100,→,right,→,0.521165799931623,True,29,1
RC-M-23M23S1,782,experiment,71,↓,down,↓,0.508331699995324,True,29,1
RC-M-23M23S1,783,experiment,56,↑,up,↑,0.44544719997793436,True,29,1
RC-M-23M23S1,784,experiment,59,←,left,←,0.5114494999870658,True,29,1
RC-M-23M23S1,785,experiment,51,←,left,←,0.5136557000223547,True,29,1
RC-M-23M23S1,786,experiment,55,→,left,←,0.5146524999290705,False,29,1
RC-M-23M23S1,787,experiment,76,→,right,→,0.7241808000253513,True,29,1
RC-M-23M23S1,788,experiment,103,←,right,→,0.5084762000478804,False,29,1
RC-M-23M23S1,789,experiment,101,←,left,←,0.5983698000200093,True,29,1
RC-M-23M23S1,790,experiment,83,↓,down,↓,0.586286999983713,True,29,1
RC-M-23M23S1,791,experiment,67,↑,up,↑,0.7804744000313804,True,29,1
RC-M-23M23S1,792,experiment,91,↑,up,↑,0.6705499000381678,True,29,1
RC-M-23M23S1,793,experiment,54,←,left,←,0.4976495000300929,True,29,1
RC-M-23M23S1,794,experiment,85,←,left,←,0.4968020999804139,True,29,1
RC-M-23M23S1,795,experiment,70,→,right,→,0.49318669992499053,True,29,1
RC-M-23M23S1,796,experiment,108,↑,up,↑,0.42946809995919466,True,29,1
RC-M-23M23S1,797,training,56,↓,down,↓,0.51873439992778,True,28,0
RC-M-23M23S1,798,training,102,↓,down,↓,0.4959279999602586,True,28,1
RC-M-23M23S1,799,experiment,74,↑,down,↓,0.44283509999513626,False,28,1
RC-M-23M23S1,800,experiment,48,←,left,←,0.44152680004481226,True,28,1
RC-M-23M23S1,801,experiment,50,←,left,←,0.43900170002598315,True,28,1
RC-M-23M23S1,802,experiment,91,↑,up,↑,0.5580310999648646,True,28,1
RC-M-23M23S1,803,experiment,80,↑,up,↑,0.35020089999306947,True,28,1
RC-M-23M23S1,804,experiment,67,→,left,←,0.5999070999678224,False,28,0
RC-M-23M23S1,805,experiment,68,↓,down,↓,0.5216804000083357,True,28,1
RC-M-23M23S1,806,experiment,71,→,right,→,0.4523971000453457,True,28,1
RC-M-23M23S1,807,experiment,70,↓,down,↓,0.5147053999826312,True,28,1
RC-M-23M23S1,808,experiment,101,→,right,→,0.443963999976404,True,28,1
RC-M-23M23S1,809,experiment,57,↓,down,↓,0.599249399965629,True,28,1
RC-M-23M23S1,810,experiment,82,↓,down,↓,0.47536489996127784,True,28,1
RC-M-23M23S1,811,experiment,49,↑,up,↑,0.4319683000212535,True,28,1
RC-M-23M23S1,812,experiment,93,←,left,←,0.5839143999619409,True,28,1
RC-M-23M23S1,813,experiment,64,→,right,→,0.6345002000452951,True,28,1
RC-M-23M23S1,814,experiment,88,↑,up,↑,0.48359069996513426,True,28,1
RC-M-23M23S1,815,experiment,100,↑,up,↑,0.7263985999161378,True,28,1
RC-M-23M23S1,816,experiment,51,→,right,→,0.5681258999975398,True,28,1
RC-M-23M23S1,817,experiment,60,→,right,→,0.5334352999925613,True,28,1
RC-M-23M23S1,818,experiment,59,↓,down,↓,0.572078499943018,True,28,1
RC-M-23M23S1,819,experiment,104,↓,down,↓,0.6181127999443561,True,28,1
RC-M-23M23S1,820,experiment,98,←,left,←,0.5523593999678269,True,28,1
RC-M-23M23S1,821,experiment,54,→,left,←,0.792180799995549,False,28,1
RC-M-23M23S1,822,experiment,106,↓,down,↓,0.6688234999310225,True,28,1
RC-M-23M23S1,823,experiment,52,↓,down,↓,0.6726572000188753,True,28,1
RC-M-23M23S1,824,experiment,61,↓,down,↓,0.545113299973309,True,28,1
RC-M-23M23S1,825,experiment,95,↓,down,↓,0.7393559999763966,True,28,1
RC-M-23M23S1,826,experiment,90,←,left,←,0.43956580001395196,True,28,1
RC-M-23M23S1,827,experiment,102,↓,down,↓,0.5474454000359401,True,28,1
RC-M-23M23S1,828,experiment,73,↑,up,↑,0.47673989995382726,True,28,1
RC-M-23M23S1,829,experiment,65,→,left,←,0.9004554999992251,False,28,1
RC-M-23M23S1,830,experiment,78,→,left,←,0.6058609000174329,False,28,1
RC-M-23M23S1,831,experiment,55,↑,up,↑,0.5627377999480814,True,28,1
RC-M-23M23S1,832,experiment,94,→,left,←,1.2210184000432491,False,28,1
RC-M-23M23S1,833,experiment,89,↓,down,↓,0.5578308999538422,True,28,1
RC-M-23M23S1,834,experiment,108,↑,down,↓,0.5557580000022426,False,28,1
RC-M-23M23S1,835,experiment,96,→,right,→,0.5084499000804499,True,28,1
RC-M-23M23S1,836,experiment,75,→,right,→,0.47092029999475926,True,28,1
RC-M-23M23S1,837,experiment,53,←,left,←,0.5059135999763384,True,28,1
RC-M-23M23S1,838,experiment,87,←,left,←,0.44039390003308654,True,28,1
RC-M-23M23S1,839,experiment,97,←,left,←,0.494135900051333,True,28,1
RC-M-23M23S1,840,experiment,85,↑,up,↑,1.469810799928382,True,28,1
RC-M-23M23S1,841,experiment,77,↑,up,↑,0.37605630001053214,True,28,1
RC-M-23M23S1,842,experiment,58,←,left,←,0.5822297000559047,True,28,0
RC-M-23M23S1,843,experiment,86,←,left,←,0.649896000046283,True,28,1
RC-M-23M23S1,844,experiment,84,↓,down,↓,0.6357750999741256,True,28,1
RC-M-23M23S1,845,experiment,66,→,right,→,0.5482443999499083,True,28,1
RC-M-23M23S1,846,experiment,103,↓,down,↓,0.6754701000172645,True,28,1
RC-M-23M23S1,847,experiment,81,↓,down,↓,0.5892388999927789,True,28,1
RC-M-23M23S1,848,experiment,99,↑,up,↑,1.4921322000445798,True,28,1
RC-M-23M23S1,849,experiment,76,←,left,←,0.5267497000750154,True,28,1
RC-M-23M23S1,850,experiment,92,→,left,←,0.6908664000220597,False,28,1
RC-M-23M23S1,851,experiment,62,→,left,←,0.6424009999027476,False,28,1
RC-M-23M23S1,852,experiment,107,↓,down,↓,0.5085233999416232,True,28,1
RC-M-23M23S1,853,experiment,72,→,right,→,0.5919181000208482,True,28,1
RC-M-23M23S1,854,experiment,79,↓,down,↓,0.5254524999763817,True,28,1
RC-M-23M23S1,855,experiment,63,→,left,←,0.5396448000101373,False,28,1
RC-M-23M23S1,856,experiment,105,↑,up,↑,0.5227352000074461,True,28,1
RC-M-23M23S1,857,experiment,56,→,right,→,0.5544741000048816,True,28,1
RC-M-23M23S1,858,experiment,83,←,left,←,0.5843171000014991,True,28,1
RC-M-23M23S1,859,experiment,69,←,left,←,0.6020828000037,True,28,1
RC-M-23M23S1,860,training,55,←,left,←,0.6534402999095619,True,28,0
RC-M-23M23S1,861,training,104,←,left,←,0.44046040007378906,True,28,1
RC-M-23M23S1,862,experiment,55,→,left,←,0.6361173000186682,False,28,1
RC-M-23M23S1,863,experiment,61,↑,up,↑,0.4622420999221504,True,28,1
RC-M-23M23S1,864,experiment,72,↑,up,↑,0.48380759998690337,True,28,1
RC-M-23M23S1,865,experiment,108,←,right,→,0.5404401998966932,False,28,1
RC-M-23M23S1,866,experiment,90,↓,down,↓,0.5761690000072122,True,28,1
RC-M-23M23S1,867,experiment,106,↑,up,↑,0.5014331999700516,True,28,1
RC-M-23M23S1,868,experiment,73,←,left,←,0.5129654000047594,True,28,1
RC-M-23M23S1,869,experiment,83,↑,up,↑,0.4408916999818757,True,28,1
RC-M-23M23S1,870,experiment,87,←,left,←,0.5376104000024498,True,28,1
RC-M-23M23S1,871,experiment,74,→,left,←,0.5467264000326395,False,28,1
RC-M-23M23S1,872,experiment,101,→,left,←,0.650764900026843,False,28,1
RC-M-23M23S1,873,experiment,97,→,left,←,0.4882283000042662,False,28,1
RC-M-23M23S1,874,experiment,54,↑,up,↑,0.48232469998765737,True,28,1
RC-M-23M23S1,875,experiment,95,←,left,←,0.47981219994835556,True,28,1
RC-M-23M23S1,876,experiment,51,←,left,←,0.7396985999075696,True,28,1
RC-M-23M23S1,877,experiment,99,←,left,←,0.6840334000298753,True,28,1
RC-M-23M23S1,878,experiment,85,←,left,←,0.4919476000359282,True,28,1
RC-M-23M23S1,879,experiment,50,↓,down,↓,0.5273963999934494,True,28,1
RC-M-23M23S1,880,experiment,62,→,right,→,0.6215114999795333,True,28,1
RC-M-23M23S1,881,experiment,75,↓,down,↓,0.659092599991709,True,28,1
RC-M-23M23S1,882,experiment,78,↑,up,↑,0.4386518000392243,True,28,1
RC-M-23M23S1,883,experiment,59,↓,down,↓,0.4971297999145463,True,28,1
RC-M-23M23S1,884,experiment,82,↑,up,↑,0.6893804999999702,True,28,1
RC-M-23M23S1,885,experiment,79,↓,down,↓,0.5309191000415012,True,28,1
RC-M-23M23S1,886,experiment,104,↑,up,↑,0.4748527000192553,True,28,1
RC-M-23M23S1,887,experiment,107,→,left,←,0.7160780999111012,False,28,1
RC-M-23M23S1,888,experiment,93,↓,down,↓,0.4238069000421092,True,28,1
RC-M-23M23S1,889,experiment,92,↑,up,↑,0.5757928000530228,True,28,1
RC-M-23M23S1,890,experiment,88,←,down,↓,0.7309295000741258,False,28,1
RC-M-23M23S1,891,experiment,96,→,right,→,0.606112299952656,True,28,1
RC-M-23M23S1,892,experiment,58,→,right,→,0.8579065999947488,True,28,1
RC-M-23M23S1,893,experiment,52,↑,up,↑,0.6537680000765249,True,28,1
RC-M-23M23S1,894,experiment,71,↑,down,↓,0.7878011000575498,False,28,1
RC-M-23M23S1,895,experiment,66,←,right,→,0.5817478999961168,False,28,1
RC-M-23M23S1,896,experiment,68,↓,down,↓,0.5995601000031456,True,28,1
RC-M-23M23S1,897,experiment,81,→,left,←,0.5802333999890834,False,28,1
RC-M-23M23S1,898,experiment,49,→,right,→,0.6124254000606015,True,28,1
RC-M-23M23S1,899,experiment,63,←,left,←,0.5024867000756785,True,28,1
RC-M-23M23S1,900,experiment,91,↑,down,↓,0.7410242999903858,False,28,1
RC-M-23M23S1,901,experiment,89,↑,up,↑,0.47217039996758103,True,28,1
RC-M-23M23S1,902,experiment,60,→,left,←,0.6008348000468686,False,28,1
RC-M-23M23S1,903,experiment,98,→,right,→,0.4959290000842884,True,28,1
RC-M-23M23S1,904,experiment,94,←,left,←,0.4924624999985099,True,28,1
RC-M-23M23S1,905,experiment,53,↑,up,↑,0.7188051999546587,True,28,1
RC-M-23M23S1,906,experiment,84,→,right,→,0.48600350006017834,True,28,1
RC-M-23M23S1,907,experiment,100,↑,up,↑,0.48888820002321154,True,28,1
RC-M-23M23S1,908,experiment,57,←,left,←,0.5221376999979839,True,28,1
RC-M-23M23S1,909,experiment,102,→,left,←,0.6029308999422938,False,28,1
RC-M-23M23S1,910,experiment,76,↓,down,↓,0.5931710000149906,True,28,1
RC-M-23M23S1,911,experiment,56,↓,down,↓,0.4942601000657305,True,28,1
RC-M-23M23S1,912,experiment,77,↓,down,↓,0.44083950005006045,True,28,1
RC-M-23M23S1,913,experiment,64,↑,up,↑,0.4736969000659883,True,28,1
RC-M-23M23S1,914,experiment,105,←,right,→,0.5394409999717027,False,28,1
RC-M-23M23S1,915,experiment,48,↑,up,↑,0.6055673999944702,True,28,1
RC-M-23M23S1,916,experiment,80,←,left,←,0.538264200091362,True,28,1
RC-M-23M23S1,917,experiment,70,←,left,←,0.41370219993405044,True,28,1
RC-M-23M23S1,918,experiment,65,→,left,←,0.4547521999338642,False,28,1
RC-M-23M23S1,919,experiment,103,↓,down,↓,0.6817348999902606,True,28,1
RC-M-23M23S1,920,experiment,69,↓,down,↓,0.5912086999742314,True,28,1
RC-M-23M23S1,921,experiment,67,→,left,←,0.585085800033994,False,28,1
RC-M-23M23S1,922,experiment,86,↓,down,↓,0.5086557000176981,True,28,1
RC-M-23M23S1,923,training,107,→,left,←,0.5917000999907032,False,28,0
RC-M-23M23S1,924,training,60,→,left,←,0.9478908999590203,False,28,1
RC-M-23M23S1,925,experiment,87,←,left,←,0.4565221999073401,True,28,1
RC-M-23M23S1,926,experiment,57,←,left,←,0.5230373000958934,True,28,1
RC-M-23M23S1,927,experiment,101,←,left,←,0.6760583000723273,True,28,1
RC-M-23M23S1,928,experiment,64,↑,left,←,0.6515317999292165,False,28,1
RC-M-23M23S1,929,experiment,56,→,left,←,0.6385197999188676,False,28,1
RC-M-23M23S1,930,experiment,104,↑,up,↑,0.4659334000898525,True,28,1
RC-M-23M23S1,931,experiment,72,↓,down,↓,0.615038999938406,True,28,1
RC-M-23M23S1,932,experiment,74,↑,down,↓,0.7573106000199914,False,28,1
RC-M-23M23S1,933,experiment,93,→,left,←,0.4477000000188127,False,28,1
RC-M-23M23S1,934,experiment,62,→,right,→,0.5367325999541208,True,28,1
RC-M-23M23S1,935,experiment,97,←,left,←,0.6352475999156013,True,28,1
RC-M-23M23S1,936,experiment,68,←,left,←,0.4983647000044584,True,28,1
RC-M-23M23S1,937,experiment,96,→,right,→,0.5662710000760853,True,28,1
RC-M-23M23S1,938,experiment,95,←,left,←,0.5597093000542372,True,28,1
RC-M-23M23S1,939,experiment,90,↑,up,↑,0.45881929993629456,True,28,1
RC-M-23M23S1,940,experiment,81,→,right,→,0.7014457000186667,True,28,1
RC-M-23M23S1,941,experiment,55,←,left,←,0.5915032000048086,True,28,1
RC-M-23M23S1,942,experiment,52,↑,up,↑,0.5175842000171542,True,28,1
RC-M-23M23S1,943,experiment,103,↓,down,↓,0.5502548000076786,True,28,1
RC-M-23M23S1,944,experiment,54,↓,down,↓,0.6700683999806643,True,28,1
RC-M-23M23S1,945,experiment,89,↑,up,↑,0.5174058999400586,True,28,1
RC-M-23M23S1,946,experiment,65,↑,down,↓,0.5789901999523863,False,28,1
RC-M-23M23S1,947,experiment,99,←,left,←,0.5147047000937164,True,28,1
RC-M-23M23S1,948,experiment,86,↓,down,↓,0.5930655999109149,True,28,1
RC-M-23M23S1,949,experiment,108,→,left,←,0.5807259000139311,False,28,1
RC-M-23M23S1,950,experiment,50,→,right,→,0.5726485999766737,True,28,1
RC-M-23M23S1,951,experiment,59,↑,down,↓,0.6499658999964595,False,28,1
RC-M-23M23S1,952,experiment,67,→,left,←,0.5852196000050753,False,28,1
RC-M-23M23S1,953,experiment,79,↓,down,↓,0.5591935000848025,True,28,1
RC-M-23M23S1,954,experiment,73,↑,down,↓,0.44030029990244657,False,28,1
RC-M-23M23S1,955,experiment,105,←,left,←,0.5074129001004621,True,28,1
RC-M-23M23S1,956,experiment,66,↓,down,↓,0.45678280002903193,True,28,1
RC-M-23M23S1,957,experiment,83,↑,down,↓,0.834499099990353,False,28,1
RC-M-23M23S1,958,experiment,107,→,right,→,0.5814803000539541,True,28,1
RC-M-23M23S1,959,experiment,63,↓,down,↓,0.6485766000114381,True,28,1
RC-M-23M23S1,960,experiment,58,↑,up,↑,0.6348699999507517,True,28,1
RC-M-23M23S1,961,experiment,100,↓,down,↓,0.6244212000165135,True,28,1
RC-M-23M23S1,962,experiment,70,→,right,→,0.6953580999979749,True,28,1
RC-M-23M23S1,963,experiment,75,→,right,→,0.5949745000107214,True,28,1
RC-M-23M23S1,964,experiment,51,↑,up,↑,0.5215554999886081,True,28,1
RC-M-23M23S1,965,experiment,91,↓,down,↓,0.6537271999986842,True,28,1
RC-M-23M23S1,966,experiment,71,↑,up,↑,0.5478547000093386,True,28,1
RC-M-23M23S1,967,experiment,98,→,right,→,0.7005611000349745,True,28,1
RC-M-23M23S1,968,experiment,78,→,right,→,0.630493399919942,True,28,1
RC-M-23M23S1,969,experiment,80,↓,down,↓,0.5302093999926001,True,28,1
RC-M-23M23S1,970,experiment,88,↑,down,↓,0.5752995000220835,False,28,1
RC-M-23M23S1,971,experiment,92,←,left,←,0.48131419997662306,True,28,1
RC-M-23M23S1,972,experiment,106,↓,down,↓,0.4742907000472769,True,28,1
RC-M-23M23S1,973,experiment,84,→,right,→,0.4830420999787748,True,28,1
RC-M-23M23S1,974,experiment,94,↑,up,↑,0.4087929999222979,True,28,1
RC-M-23M23S1,975,experiment,82,↑,up,↑,0.5401257000630721,True,28,1
RC-M-23M23S1,976,experiment,60,←,left,←,0.4344061999581754,True,28,1
RC-M-23M23S1,977,experiment,85,←,right,→,0.42059610004071146,False,28,1
RC-M-23M23S1,978,experiment,48,↓,down,↓,0.6111114000668749,True,28,1
RC-M-23M23S1,979,experiment,77,↓,down,↓,0.5610670000314713,True,28,1
RC-M-23M23S1,980,experiment,102,↓,down,↓,0.5281640000175685,True,28,1
RC-M-23M23S1,981,experiment,61,↑,down,↓,0.47077899996656924,False,28,1
RC-M-23M23S1,982,experiment,53,↑,up,↑,0.45796629996038973,True,28,1
RC-M-23M23S1,983,experiment,69,↑,right,→,0.4807242000242695,False,28,1
RC-M-23M23S1,984,experiment,76,→,right,→,0.4041375999804586,True,28,1
RC-M-23M23S1,985,experiment,49,→,right,→,0.4985486000077799,True,28,0
RC-M-23M23S1,986,training,85,↑,up,↑,0.41805049998220056,True,28,0
RC-M-23M23S1,987,training,75,→,right,→,0.48787369998171926,True,28,1
RC-M-23M23S1,988,experiment,75,↑,up,↑,0.4910105000017211,True,28,1
RC-M-23M23S1,989,experiment,74,→,right,→,0.45427650003694,True,28,1
RC-M-23M23S1,990,experiment,85,↑,up,↑,0.5352769000455737,True,28,1
RC-M-23M23S1,991,experiment,53,→,left,←,0.4722646999871358,False,28,1
RC-M-23M23S1,992,experiment,105,→,right,→,0.5781281000236049,True,28,1
RC-M-23M23S1,993,experiment,73,→,right,→,0.5306604000506923,True,28,1
RC-M-23M23S1,994,experiment,61,←,left,←,0.5602207999909297,True,28,1
RC-M-23M23S1,995,experiment,102,→,right,→,0.44769159995485097,True,28,1
RC-M-23M23S1,996,experiment,67,→,right,→,0.4710175000363961,True,28,1
RC-M-23M23S1,997,experiment,66,→,right,→,0.4864472000626847,True,28,1
RC-M-23M23S1,998,experiment,91,←,left,←,0.5722185000777245,True,28,1
RC-M-23M23S1,999,experiment,63,→,right,→,0.5124164000153542,True,28,1
RC-M-23M23S1,1000,experiment,76,↓,down,↓,0.4106263000285253,True,28,1
RC-M-23M23S1,1001,experiment,108,↓,down,↓,0.4454619000898674,True,28,1
RC-M-23M23S1,1002,experiment,79,←,left,←,0.497197899967432,True,28,1
RC-M-23M23S1,1003,experiment,103,←,left,←,0.5385263999924064,True,28,1
RC-M-23M23S1,1004,experiment,51,↓,down,↓,0.48364820005372167,True,28,1
RC-M-23M23S1,1005,experiment,59,→,right,→,0.47633610002230853,True,28,1
RC-M-23M23S1,1006,experiment,56,↓,down,↓,0.71073020005133,True,28,1
RC-M-23M23S1,1007,experiment,60,←,no_key,no_letter,-1.0,False,28,1
RC-M-23M23S1,1008,experiment,88,←,left,←,0.5083057000301778,True,28,1
RC-M-23M23S1,1009,experiment,100,→,left,←,0.40672430000267923,False,28,1
RC-M-23M23S1,1010,experiment,94,↓,right,→,0.38371800002641976,False,28,1
RC-M-23M23S1,1011,experiment,81,→,right,→,0.6510907999472693,True,28,0
RC-M-23M23S1,1012,experiment,54,→,right,→,0.5986674999585375,True,28,1
RC-M-23M23S1,1013,experiment,86,↑,down,↓,0.641683999914676,False,28,1
RC-M-23M23S1,1014,experiment,82,→,right,→,0.6044659999897704,True,28,1
RC-M-23M23S1,1015,experiment,65,↓,down,↓,0.7902275000233203,True,28,1
RC-M-23M23S1,1016,experiment,57,↑,up,↑,0.7711830000625923,True,28,1
RC-M-23M23S1,1017,experiment,97,→,left,←,0.6435341000324115,False,28,1
RC-M-23M23S1,1018,experiment,92,↓,down,↓,0.5710153999971226,True,28,1
RC-M-23M23S1,1019,experiment,95,←,left,←,0.7001231999602169,True,28,1
RC-M-23M23S1,1020,experiment,71,→,right,→,0.5200590000022203,True,28,1
RC-M-23M23S1,1021,experiment,99,→,right,→,0.682591799995862,True,28,1
RC-M-23M23S1,1022,experiment,106,↑,up,↑,0.6429564000573009,True,28,1
RC-M-23M23S1,1023,experiment,70,←,left,←,0.4658663000445813,True,28,1
RC-M-23M23S1,1024,experiment,52,←,left,←,0.5895860000746325,True,28,1
RC-M-23M23S1,1025,experiment,104,↓,down,↓,0.5629179999232292,True,28,1
RC-M-23M23S1,1026,experiment,96,↓,down,↓,0.5082310999277979,True,28,1
RC-M-23M23S1,1027,experiment,69,←,left,←,0.6409116999711841,True,28,1
RC-M-23M23S1,1028,experiment,58,←,left,←,0.4517567000584677,True,28,1
RC-M-23M23S1,1029,experiment,48,←,left,←,0.4254814999876544,True,28,1
RC-M-23M23S1,1030,experiment,87,↑,down,↓,0.7869215999962762,False,28,1
RC-M-23M23S1,1031,experiment,101,→,right,→,0.6500189000507817,True,28,1
RC-M-23M23S1,1032,experiment,93,←,left,←,0.41707640001550317,True,28,1
RC-M-23M23S1,1033,experiment,64,←,left,←,0.3672413000604138,True,28,1
RC-M-23M23S1,1034,experiment,62,→,left,←,0.4865318000083789,False,28,0
RC-M-23M23S1,1035,experiment,90,↓,down,↓,0.6366472999798134,True,28,1
RC-M-23M23S1,1036,experiment,50,→,right,→,0.5224826999474317,True,28,1
RC-M-23M23S1,1037,experiment,80,→,right,→,1.3384732999838889,True,28,1
RC-M-23M23S1,1038,experiment,72,↓,down,↓,0.47663920000195503,True,28,1
RC-M-23M23S1,1039,experiment,83,↓,left,←,0.42230600002221763,False,28,1
RC-M-23M23S1,1040,experiment,89,↑,up,↑,0.614868399919942,True,28,1
RC-M-23M23S1,1041,experiment,68,↑,up,↑,0.6632032999768853,True,28,1
RC-M-23M23S1,1042,experiment,49,←,left,←,0.5238269000547007,True,28,1
RC-M-23M23S1,1043,experiment,78,←,left,←,0.420992000028491,True,28,1
RC-M-23M23S1,1044,experiment,84,→,right,→,0.5192434000782669,True,28,1
RC-M-23M23S1,1045,experiment,107,↑,up,↑,0.590749999973923,True,28,1
RC-M-23M23S1,1046,experiment,98,→,right,→,0.46195760008413345,True,28,1
RC-M-23M23S1,1047,experiment,55,→,right,→,0.6333789000054821,True,28,1
RC-M-23M23S1,1048,experiment,77,→,right,→,0.4540452000219375,True,28,1
RC-M-23M23S1,1049,training,67,↑,up,↑,0.49890100001357496,True,28,0
RC-M-23M23S1,1050,training,88,↓,down,↓,0.48933669994585216,True,28,1
RC-M-23M23S1,1051,experiment,91,←,left,←,0.3681366000091657,True,28,1
RC-M-23M23S1,1052,experiment,64,↑,up,↑,0.5461099999956787,True,28,0
RC-M-23M23S1,1053,experiment,79,←,left,←,0.425382100045681,True,28,1
RC-M-23M23S1,1054,experiment,70,→,right,→,0.48907639994286,True,28,1
RC-M-23M23S1,1055,experiment,100,↑,up,↑,0.48364719992969185,True,28,1
RC-M-23M23S1,1056,experiment,85,←,right,→,0.5796502000885084,False,28,1
RC-M-23M23S1,1057,experiment,75,←,left,←,0.4115036999573931,True,28,1
RC-M-23M23S1,1058,experiment,95,→,right,→,0.4349846000550315,True,28,1
RC-M-23M23S1,1059,experiment,83,→,right,→,0.31751979992259294,True,28,1
RC-M-23M23S1,1060,experiment,103,→,right,→,1.574518600013107,True,28,0
RC-M-23M23S1,1061,experiment,101,→,right,→,0.41383370000403374,True,28,1
RC-M-23M23S1,1062,experiment,63,↓,down,↓,0.5833954999689013,True,28,1
RC-M-23M23S1,1063,experiment,106,→,right,→,0.4523403999628499,True,28,1
RC-M-23M23S1,1064,experiment,66,→,left,←,0.5483324000379071,False,28,1
RC-M-23M23S1,1065,experiment,53,←,right,→,0.44413560000248253,False,28,1
RC-M-23M23S1,1066,experiment,87,←,left,←,0.4692301999311894,True,28,1
RC-M-23M23S1,1067,experiment,93,↑,up,↑,0.5633283999050036,True,28,1
RC-M-23M23S1,1068,experiment,59,←,left,←,0.5130939999362454,True,28,1
RC-M-23M23S1,1069,experiment,72,↓,down,↓,0.48402139998506755,True,28,1
RC-M-23M23S1,1070,experiment,84,←,left,←,0.5243983999826014,True,28,1
RC-M-23M23S1,1071,experiment,60,→,right,→,0.45116819988470525,True,28,1
RC-M-23M23S1,1072,experiment,48,↓,down,↓,0.4245450000744313,True,28,1
RC-M-23M23S1,1073,experiment,55,←,left,←,0.46112140000332147,True,28,1
RC-M-23M23S1,1074,experiment,67,↓,down,↓,0.38448739994782954,True,28,1
RC-M-23M23S1,1075,experiment,105,↓,down,↓,0.4334993999218568,True,28,0
RC-M-23M23S1,1076,experiment,90,←,left,←,0.4497420999687165,True,28,1
RC-M-23M23S1,1077,experiment,71,→,left,←,1.3197976000374183,False,28,1
RC-M-23M23S1,1078,experiment,88,→,right,→,0.4061146000167355,True,28,1
RC-M-23M23S1,1079,experiment,78,↓,down,↓,0.49094290006905794,True,28,1
RC-M-23M23S1,1080,experiment,76,→,left,←,0.44558259996119887,False,28,1
RC-M-23M23S1,1081,experiment,94,↓,down,↓,0.5482801999896765,True,28,1
RC-M-23M23S1,1082,experiment,58,↑,down,↓,0.49099580000620335,False,28,1
RC-M-23M23S1,1083,experiment,56,↓,down,↓,0.4283852999797091,True,28,1
RC-M-23M23S1,1084,experiment,51,↑,up,↑,0.4495640000095591,True,28,1
RC-M-23M23S1,1085,experiment,61,←,left,←,0.4431055000750348,True,28,1
RC-M-23M23S1,1086,experiment,99,←,left,←,0.5520923000294715,True,28,1
RC-M-23M23S1,1087,experiment,104,←,left,←,0.49537130002863705,True,28,1
RC-M-23M23S1,1088,experiment,102,↑,up,↑,0.7452301000012085,True,28,1
RC-M-23M23S1,1089,experiment,80,↑,up,↑,0.46463090006727725,True,28,1
RC-M-23M23S1,1090,experiment,62,→,right,→,0.6010011999169365,True,28,1
RC-M-23M23S1,1091,experiment,86,←,right,→,0.5081581000704318,False,28,1
RC-M-23M23S1,1092,experiment,73,←,left,←,0.3598004999803379,True,28,1
RC-M-23M23S1,1093,experiment,98,→,right,→,0.4551281000021845,True,28,0
RC-M-23M23S1,1094,experiment,108,↑,up,↑,0.6246368999127299,True,28,1
RC-M-23M23S1,1095,experiment,57,←,left,←,0.5483159000286832,True,28,1
RC-M-23M23S1,1096,experiment,74,↓,down,↓,0.5973711999831721,True,28,1
RC-M-23M23S1,1097,experiment,69,→,right,→,0.5422785000409931,True,28,1
RC-M-23M23S1,1098,experiment,54,↓,down,↓,0.5342748999828473,True,28,1
RC-M-23M23S1,1099,experiment,49,←,left,←,0.5364847999298945,True,28,1
RC-M-23M23S1,1100,experiment,65,→,right,→,1.269135499955155,True,28,1
RC-M-23M23S1,1101,experiment,77,↓,down,↓,0.632479399908334,True,28,1
RC-M-23M23S1,1102,experiment,50,→,left,←,0.886136700049974,False,28,1
RC-M-23M23S1,1103,experiment,96,↓,down,↓,0.4505444000242278,True,28,1
RC-M-23M23S1,1104,experiment,107,↑,up,↑,0.38413080002646893,True,28,1
RC-M-23M23S1,1105,experiment,68,→,right,→,0.5819988999282941,True,28,0
RC-M-23M23S1,1106,experiment,97,←,right,→,0.6140366999898106,False,28,1
RC-M-23M23S1,1107,experiment,89,↓,down,↓,0.5838970999466255,True,28,1
RC-M-23M23S1,1108,experiment,92,↑,up,↑,0.4491385999135673,True,28,1
RC-M-23M23S1,1109,experiment,81,↑,up,↑,0.5556388999102637,True,28,1
RC-M-23M23S1,1110,experiment,52,←,right,→,0.6039538000477478,False,28,1
RC-M-23M23S1,1111,experiment,82,↓,up,↑,0.5524233999894932,False,28,1
RC-M-23M23S1,1112,training,52,←,left,←,0.4338821000419557,True,28,0
RC-M-23M23S1,1113,training,88,↑,up,↑,0.5949207999510691,True,28,1
RC-M-23M23S1,1114,experiment,71,→,right,→,0.384026600047946,True,28,1
RC-M-23M23S1,1115,experiment,84,↑,up,↑,0.5512199000222608,True,28,0
RC-M-23M23S1,1116,experiment,51,←,left,←,0.5519223998999223,True,28,1
RC-M-23M23S1,1117,experiment,94,←,left,←,0.46648219996131957,True,28,1
RC-M-23M23S1,1118,experiment,65,←,left,←,0.5060130000347272,True,28,1
RC-M-23M23S1,1119,experiment,56,←,left,←,0.5624609999358654,True,28,1
RC-M-23M23S1,1120,experiment,58,↑,up,↑,1.488307400024496,True,28,1
RC-M-23M23S1,1121,experiment,98,↓,down,↓,0.47536329994909465,True,28,1
RC-M-23M23S1,1122,experiment,105,←,left,←,0.5571951000019908,True,28,1
RC-M-23M23S1,1123,experiment,66,↑,up,↑,0.49666069995146245,True,28,1
RC-M-23M23S1,1124,experiment,85,↑,up,↑,0.38415669999085367,True,28,1
RC-M-23M23S1,1125,experiment,76,←,left,←,0.6147803000640124,True,28,0
RC-M-23M23S1,1126,experiment,55,↓,up,↑,0.4198136000195518,False,28,1
RC-M-23M23S1,1127,experiment,59,↓,down,↓,0.3840493999887258,True,28,1
RC-M-23M23S1,1128,experiment,108,←,left,←,0.3841412999900058,True,28,0
RC-M-23M23S1,1129,experiment,49,↑,up,↑,0.4347862999420613,True,28,0
RC-M-23M23S1,1130,experiment,97,↓,down,↓,0.5928821000270545,True,28,1
RC-M-23M23S1,1131,experiment,64,→,left,←,0.5638555000768974,False,28,1
RC-M-23M23S1,1132,experiment,95,↓,down,↓,0.5411888000089675,True,28,1
RC-M-23M23S1,1133,experiment,52,↑,up,↑,0.5418100000824779,True,28,1
RC-M-23M23S1,1134,experiment,82,↑,up,↑,0.5084427000256255,True,28,1
RC-M-23M23S1,1135,experiment,53,↓,down,↓,0.5504522999981418,True,28,1
RC-M-23M23S1,1136,experiment,104,↑,up,↑,0.5012679999927059,True,28,1
RC-M-23M23S1,1137,experiment,91,↑,down,↓,0.4908663999522105,False,28,1
RC-M-23M23S1,1138,experiment,69,→,right,→,0.5757308999309316,True,28,1
RC-M-23M23S1,1139,experiment,103,↓,left,←,1.8382228000555187,False,28,1
RC-M-23M23S1,1140,experiment,81,↑,up,↑,0.5292061000363901,True,28,1
RC-M-23M23S1,1141,experiment,60,↑,down,↓,0.5837186999851838,False,28,1
RC-M-23M23S1,1142,experiment,80,↓,down,↓,0.50173849996645,True,28,1
RC-M-23M23S1,1143,experiment,67,→,left,←,0.7789482000516728,False,28,1
RC-M-23M23S1,1144,experiment,88,←,left,←,0.5898448000662029,True,28,1
RC-M-23M23S1,1145,experiment,57,↓,down,↓,0.5791106000542641,True,28,1
RC-M-23M23S1,1146,experiment,62,↓,down,↓,0.5430545000126585,True,28,1
RC-M-23M23S1,1147,experiment,96,→,right,→,0.6332170999376103,True,28,1
RC-M-23M23S1,1148,experiment,107,↓,down,↓,0.5640984999481589,True,28,1
RC-M-23M23S1,1149,experiment,74,→,right,→,0.5482542000245303,True,28,1
RC-M-23M23S1,1150,experiment,79,→,right,→,0.4676467999815941,True,28,1
RC-M-23M23S1,1151,experiment,83,→,right,→,0.4290504000382498,True,28,1
RC-M-23M23S1,1152,experiment,70,↓,right,→,0.9163246999960393,False,28,1
RC-M-23M23S1,1153,experiment,78,←,left,←,0.6057913999538869,True,28,1
RC-M-23M23S1,1154,experiment,48,↓,left,←,0.9972795000066981,False,28,1
RC-M-23M23S1,1155,experiment,61,→,right,→,0.6880322999786586,True,28,1
RC-M-23M23S1,1156,experiment,89,→,right,→,0.49473200005013496,True,28,1
RC-M-23M23S1,1157,experiment,86,↑,up,↑,0.40614049998112023,True,28,1
RC-M-23M23S1,1158,experiment,90,↓,down,↓,0.6156573999905959,True,28,0
RC-M-23M23S1,1159,experiment,92,←,right,→,0.5838539999676868,False,28,1
RC-M-23M23S1,1160,experiment,106,↓,down,↓,0.5728616999695078,True,28,1
RC-M-23M23S1,1161,experiment,50,→,left,←,0.5731595999095589,False,28,1
RC-M-23M23S1,1162,experiment,63,↑,up,↑,0.7933944999240339,True,28,1
RC-M-23M23S1,1163,experiment,99,↓,down,↓,0.511925800004974,True,28,1
RC-M-23M23S1,1164,experiment,75,→,right,→,0.45812369999475777,True,28,1
RC-M-23M23S1,1165,experiment,93,→,right,→,0.8731611000839621,True,28,1
RC-M-23M23S1,1166,experiment,87,←,left,←,0.4881561999209225,True,28,1
RC-M-23M23S1,1167,experiment,72,↓,down,↓,0.5962132000131533,True,28,1
RC-M-23M23S1,1168,experiment,77,→,right,→,0.4503147000214085,True,28,1
RC-M-23M23S1,1169,experiment,101,←,left,←,0.4623843999579549,True,28,1
RC-M-23M23S1,1170,experiment,100,←,left,←,0.6186318999389187,True,28,1
RC-M-23M23S1,1171,experiment,102,→,left,←,0.5354405998950824,False,28,1
RC-M-23M23S1,1172,experiment,68,←,right,→,0.7711335000349209,False,28,1
RC-M-23M23S1,1173,experiment,73,←,left,←,0.4125444999663159,True,28,1
RC-M-23M23S1,1174,experiment,54,↓,down,↓,0.6170180999906734,True,28,1
RC-M-23M23S1,1175,training,62,↑,up,↑,0.8285573000321165,True,28,0
RC-M-23M23S1,1176,training,75,←,left,←,1.2343748999992386,True,28,1
RC-M-23M23S1,1177,experiment,51,→,right,→,0.4559580000350252,True,28,1
RC-M-23M23S1,1178,experiment,65,→,right,→,1.0154718999983743,True,28,1
RC-M-23M23S1,1179,experiment,102,↑,up,↑,0.3764789999695495,True,28,1
RC-M-23M23S1,1180,experiment,66,←,left,←,0.4075387000339106,True,28,0
RC-M-23M23S1,1181,experiment,92,↑,up,↑,0.5434582999441773,True,28,1
RC-M-23M23S1,1182,experiment,84,↓,up,↑,0.5015187999233603,False,28,1
RC-M-23M23S1,1183,experiment,75,↓,down,↓,0.3757427999516949,True,28,1
RC-M-23M23S1,1184,experiment,55,↓,down,↓,0.43051860004197806,True,28,0
RC-M-23M23S1,1185,experiment,104,↓,down,↓,0.5139324000338092,True,28,1
RC-M-23M23S1,1186,experiment,105,↑,up,↑,0.37578559992834926,True,28,1
RC-M-23M23S1,1187,experiment,94,←,left,←,0.4112911999691278,True,28,0
RC-M-23M23S1,1188,experiment,56,→,right,→,0.4162096999352798,True,28,1
RC-M-23M23S1,1189,experiment,96,↑,up,↑,0.3672588999615982,True,28,1
RC-M-23M23S1,1190,experiment,72,←,left,←,0.4395723999477923,True,28,0
RC-M-23M23S1,1191,experiment,100,←,left,←,0.4520847999956459,True,28,1
RC-M-23M23S1,1192,experiment,77,↓,down,↓,0.5842731000157073,True,28,1
RC-M-23M23S1,1193,experiment,49,↑,right,→,1.0883795000845566,False,28,1
RC-M-23M23S1,1194,experiment,108,↑,up,↑,0.4966304999543354,True,28,1
RC-M-23M23S1,1195,experiment,58,↓,down,↓,1.2328312000026926,True,28,1
RC-M-23M23S1,1196,experiment,74,↑,down,↓,0.6467734000179917,False,28,1
RC-M-23M23S1,1197,experiment,107,→,right,→,0.4887988999253139,True,28,1
RC-M-23M23S1,1198,experiment,80,→,right,→,0.5779656999511644,True,28,1
RC-M-23M23S1,1199,experiment,89,→,right,→,0.46896089997608215,True,28,1
RC-M-23M23S1,1200,experiment,83,←,left,←,0.43845180002972484,True,28,1
RC-M-23M23S1,1201,experiment,61,→,right,→,0.5522467000409961,True,28,1
RC-M-23M23S1,1202,experiment,79,→,left,←,0.7276450999779627,False,28,1
RC-M-23M23S1,1203,experiment,60,↑,up,↑,0.4305695000803098,True,28,1
RC-M-23M23S1,1204,experiment,103,←,left,←,0.41060429997742176,True,28,1
RC-M-23M23S1,1205,experiment,81,→,right,→,0.5029599999543279,True,28,1
RC-M-23M23S1,1206,experiment,71,↓,down,↓,0.5788866000948474,True,28,1
RC-M-23M23S1,1207,experiment,82,→,left,←,0.5362989000277594,False,28,1
RC-M-23M23S1,1208,experiment,76,→,right,→,0.513298699981533,True,28,1
RC-M-23M23S1,1209,experiment,86,↓,down,↓,0.6236471000593156,True,28,1
RC-M-23M23S1,1210,experiment,99,→,left,←,0.48556449997704476,False,28,1
RC-M-23M23S1,1211,experiment,98,←,left,←,0.5450420000124723,True,28,1
RC-M-23M23S1,1212,experiment,106,↓,down,↓,0.4720166000770405,True,28,1
RC-M-23M23S1,1213,experiment,57,←,left,←,0.4342727999901399,True,28,1
RC-M-23M23S1,1214,experiment,64,↓,down,↓,0.5466589999850839,True,28,1
RC-M-23M23S1,1215,experiment,63,→,right,→,0.42366470000706613,True,28,1
RC-M-23M23S1,1216,experiment,88,↑,up,↑,0.30041630007326603,True,28,1
RC-M-23M23S1,1217,experiment,62,↑,up,↑,1.119831999996677,True,28,0
RC-M-23M23S1,1218,experiment,52,→,right,→,0.47351470007561147,True,28,1
RC-M-23M23S1,1219,experiment,93,←,left,←,1.2149927999125794,True,28,1
RC-M-23M23S1,1220,experiment,48,←,left,←,0.4303735999856144,True,28,1
RC-M-23M23S1,1221,experiment,101,↓,down,↓,0.6108620000304654,True,28,1
RC-M-23M23S1,1222,experiment,53,←,left,←,0.47256740008015186,True,28,1
RC-M-23M23S1,1223,experiment,54,←,right,→,0.45960980001837015,False,28,1
RC-M-23M23S1,1224,experiment,95,↑,up,↑,0.5133560000685975,True,28,1
RC-M-23M23S1,1225,experiment,90,↓,down,↓,0.47807880002073944,True,28,1
RC-M-23M23S1,1226,experiment,67,→,right,→,1.356455700006336,True,28,1
RC-M-23M23S1,1227,experiment,97,↑,down,↓,0.4776866000611335,False,28,1
RC-M-23M23S1,1228,experiment,68,↓,up,↑,0.555477499961853,False,28,1
RC-M-23M23S1,1229,experiment,85,↑,down,↓,0.4731197999790311,False,28,1
RC-M-23M23S1,1230,experiment,78,↑,up,↑,0.6672602000180632,True,28,1
RC-M-23M23S1,1231,experiment,91,↓,left,←,1.4259552999865264,False,28,1
RC-M-23M23S1,1232,experiment,50,↑,down,↓,0.8160462999949232,False,28,1
RC-M-23M23S1,1233,experiment,59,→,right,→,0.4754065000452101,True,28,1
RC-M-23M23S1,1234,experiment,69,→,right,→,0.4893184999236837,True,28,1
RC-M-23M23S1,1235,experiment,87,↓,down,↓,0.44830669998191297,True,28,1
RC-M-23M23S1,1236,experiment,70,↑,up,↑,0.622668500058353,True,28,1
RC-M-23M23S1,1237,experiment,73,←,left,←,0.4930018000304699,True,28,1
RC-M-23M23S1,1238,training,50,↓,down,↓,0.5269261000212282,True,28,0
RC-M-23M23S1,1239,training,64,↓,down,↓,0.492384499986656,True,28,1
RC-M-23M23S1,1240,experiment,61,←,left,←,0.40481540001928806,True,28,1
RC-M-23M23S1,1241,experiment,81,←,right,→,0.42466629995033145,False,28,0
RC-M-23M23S1,1242,experiment,88,↓,down,↓,0.4026213000761345,True,28,1
RC-M-23M23S1,1243,experiment,54,←,left,←,0.41536909993737936,True,28,1
RC-M-23M23S1,1244,experiment,107,↑,up,↑,0.427010599989444,True,28,1
RC-M-23M23S1,1245,experiment,62,←,left,←,1.1488396000349894,True,28,1
RC-M-23M23S1,1246,experiment,101,←,left,←,0.42106019996572286,True,28,1
RC-M-23M23S1,1247,experiment,94,↑,up,↑,0.532433999935165,True,28,1
RC-M-23M23S1,1248,experiment,66,→,right,→,0.49660069996025413,True,28,1
RC-M-23M23S1,1249,experiment,63,↓,down,↓,1.271309999981895,True,28,1
RC-M-23M23S1,1250,experiment,73,→,right,→,0.4043989999918267,True,28,1
RC-M-23M23S1,1251,experiment,93,↑,left,←,0.4124053999548778,False,28,0
RC-M-23M23S1,1252,experiment,55,→,up,↑,0.7291170000098646,False,28,1
RC-M-23M23S1,1253,experiment,70,→,right,→,0.41251139994710684,True,28,1
RC-M-23M23S1,1254,experiment,52,↓,up,↑,0.6179809999885038,False,28,1
RC-M-23M23S1,1255,experiment,50,↓,down,↓,0.4491425999440253,True,28,1
RC-M-23M23S1,1256,experiment,98,→,right,→,0.42154199990909547,True,28,1
RC-M-23M23S1,1257,experiment,87,↓,down,↓,0.6074742999626324,True,28,1
RC-M-23M23S1,1258,experiment,59,↑,up,↑,0.6991061000153422,True,28,1
RC-M-23M23S1,1259,experiment,67,↑,up,↑,0.4246280000079423,True,28,1
RC-M-23M23S1,1260,experiment,100,↑,up,↑,0.6618367999326438,True,28,1
RC-M-23M23S1,1261,experiment,85,→,right,→,0.43884760001674294,True,28,1
RC-M-23M23S1,1262,experiment,76,↓,down,↓,0.707703800057061,True,28,1
RC-M-23M23S1,1263,experiment,51,←,left,←,0.566009399946779,True,28,1
RC-M-23M23S1,1264,experiment,58,↑,up,↑,0.451921800035052,True,28,1
RC-M-23M23S1,1265,experiment,104,→,right,→,0.5589682999998331,True,28,1
RC-M-23M23S1,1266,experiment,80,→,right,→,1.7334321999223903,True,28,1
RC-M-23M23S1,1267,experiment,92,↓,down,↓,0.41739389998838305,True,28,1
RC-M-23M23S1,1268,experiment,48,→,right,→,0.6161440999712795,True,28,1
RC-M-23M23S1,1269,experiment,91,←,down,↓,0.7928529999917373,False,28,1
RC-M-23M23S1,1270,experiment,75,←,left,←,0.5518968999385834,True,28,1
RC-M-23M23S1,1271,experiment,97,↓,down,↓,0.7533206000225618,True,28,1
RC-M-23M23S1,1272,experiment,53,→,right,→,0.44136880000587553,True,28,1
RC-M-23M23S1,1273,experiment,57,↓,right,→,0.620664200047031,False,28,1
RC-M-23M23S1,1274,experiment,103,←,left,←,0.4651425000047311,True,28,1
RC-M-23M23S1,1275,experiment,102,↑,down,↓,0.5962508999509737,False,28,1
RC-M-23M23S1,1276,experiment,95,←,left,←,0.5882543999468908,True,28,1
RC-M-23M23S1,1277,experiment,79,←,left,←,0.6184613000368699,True,28,1
RC-M-23M23S1,1278,experiment,72,←,left,←,0.5773890999844298,True,28,1
RC-M-23M23S1,1279,experiment,89,←,left,←,0.597113800002262,True,28,1
RC-M-23M23S1,1280,experiment,96,→,up,↑,1.2681015999987721,False,28,1
RC-M-23M23S1,1281,experiment,83,←,left,←,0.5099274999229237,True,28,1
RC-M-23M23S1,1282,experiment,99,←,left,←,0.4398562000133097,True,28,1
RC-M-23M23S1,1283,experiment,74,→,right,→,0.5014682000037283,True,28,1
RC-M-23M23S1,1284,experiment,49,↓,down,↓,0.5447880999417976,True,28,1
RC-M-23M23S1,1285,experiment,64,↑,down,↓,0.38418489997275174,False,28,1
RC-M-23M23S1,1286,experiment,69,↑,up,↑,0.5505209999391809,True,28,0
RC-M-23M23S1,1287,experiment,106,←,left,←,0.4770792000927031,True,28,1
RC-M-23M23S1,1288,experiment,108,←,left,←,0.406366000068374,True,28,1
RC-M-23M23S1,1289,experiment,56,→,left,←,0.6503310999833047,False,28,1
RC-M-23M23S1,1290,experiment,60,↓,down,↓,0.5402718000113964,True,28,1
RC-M-23M23S1,1291,experiment,68,↑,up,↑,0.62352510006167,True,28,1
RC-M-23M23S1,1292,experiment,105,→,right,→,0.45118810003623366,True,28,1
RC-M-23M23S1,1293,experiment,65,→,left,←,0.611280900076963,False,28,1
RC-M-23M23S1,1294,experiment,82,↑,up,↑,1.5755443000234663,True,28,1
RC-M-23M23S1,1295,experiment,77,→,left,←,0.4944688000250608,False,28,1
RC-M-23M23S1,1296,experiment,86,↓,down,↓,0.4538110999856144,True,28,1
RC-M-23M23S1,1297,experiment,90,↑,down,↓,0.5580360000021756,False,28,1
RC-M-23M23S1,1298,experiment,78,↓,down,↓,0.4607996999984607,True,28,1
RC-M-23M23S1,1299,experiment,71,←,left,←,0.7469470999203622,True,28,1
RC-M-23M23S1,1300,experiment,84,→,left,←,0.45625229994766414,False,28,1
RC-M-23M23S1,1301,training,64,→,right,→,0.8796191000146791,True,28,0
RC-M-23M23S1,1302,training,71,→,left,←,0.532744999974966,False,28,1
RC-M-23M23S1,1303,experiment,49,→,right,→,0.5109990999335423,True,28,1
RC-M-23M23S1,1304,experiment,61,↑,up,↑,0.47007180005311966,True,28,1
RC-M-23M23S1,1305,experiment,108,←,left,←,0.5509399999864399,True,28,1
RC-M-23M23S1,1306,experiment,80,↓,down,↓,0.4861322999931872,True,28,1
RC-M-23M23S1,1307,experiment,79,→,right,→,0.48834729997906834,True,28,1
RC-M-23M23S1,1308,experiment,72,←,up,↑,0.5882004000013694,False,28,1
RC-M-23M23S1,1309,experiment,96,↑,up,↑,0.5722800999647006,True,28,1
RC-M-23M23S1,1310,experiment,62,→,right,→,0.4802995000500232,True,28,1
RC-M-23M23S1,1311,experiment,92,←,left,←,0.5660537000512704,True,28,1
RC-M-23M23S1,1312,experiment,57,↓,down,↓,1.356029799906537,True,28,1
RC-M-23M23S1,1313,experiment,73,→,right,→,0.4372254000045359,True,28,1
RC-M-23M23S1,1314,experiment,97,↑,up,↑,0.3423544999677688,True,28,1
RC-M-23M23S1,1315,experiment,100,↓,down,↓,0.4597485000267625,True,28,0
RC-M-23M23S1,1316,experiment,78,↓,down,↓,0.47930579993408173,True,28,1
RC-M-23M23S1,1317,experiment,84,→,right,→,0.44739599991589785,True,28,1
RC-M-23M23S1,1318,experiment,91,↓,down,↓,0.4548172999639064,True,28,1
RC-M-23M23S1,1319,experiment,107,↓,down,↓,0.5206860000034794,True,28,1
RC-M-23M23S1,1320,experiment,86,→,right,→,0.430964499944821,True,28,1
RC-M-23M23S1,1321,experiment,87,↓,down,↓,1.5441818999825045,True,28,1
RC-M-23M23S1,1322,experiment,75,↓,down,↓,0.40914720005821437,True,28,1
RC-M-23M23S1,1323,experiment,59,↑,up,↑,0.6770770999137312,True,28,0
RC-M-23M23S1,1324,experiment,85,→,right,→,1.2609885999700055,True,28,1
RC-M-23M23S1,1325,experiment,105,→,left,←,0.5035025000106543,False,28,1
RC-M-23M23S1,1326,experiment,101,↓,down,↓,0.45753680006600916,True,28,1
RC-M-23M23S1,1327,experiment,82,↑,up,↑,0.45975659997202456,True,28,1
RC-M-23M23S1,1328,experiment,95,→,left,←,0.5296378000639379,False,28,1
RC-M-23M23S1,1329,experiment,63,↑,up,↑,0.4147912000771612,True,28,1
RC-M-23M23S1,1330,experiment,99,→,right,→,0.6049923000391573,True,28,1
RC-M-23M23S1,1331,experiment,66,→,right,→,0.6943904999643564,True,28,1
RC-M-23M23S1,1332,experiment,94,↑,up,↑,0.4591570000629872,True,28,1
RC-M-23M23S1,1333,experiment,65,→,up,↑,0.7467464000219479,False,28,1
RC-M-23M23S1,1334,experiment,103,↑,up,↑,0.5461180999409407,True,28,1
RC-M-23M23S1,1335,experiment,71,↑,up,↑,0.47645259997807443,True,28,1
RC-M-23M23S1,1336,experiment,50,→,left,←,0.6726576000219211,False,28,1
RC-M-23M23S1,1337,experiment,83,↑,up,↑,0.5537219999823719,True,28,1
RC-M-23M23S1,1338,experiment,55,→,left,←,0.8730799000477418,False,28,1
RC-M-23M23S1,1339,experiment,67,↓,down,↓,0.4714948999462649,True,28,1
RC-M-23M23S1,1340,experiment,54,←,left,←,0.5141913000261411,True,28,1
RC-M-23M23S1,1341,experiment,64,→,right,→,0.4399487000191584,True,28,1
RC-M-23M23S1,1342,experiment,93,↓,down,↓,0.4070740999886766,True,28,1
RC-M-23M23S1,1343,experiment,53,↓,down,↓,0.6288464000681415,True,28,0
RC-M-23M23S1,1344,experiment,90,↓,down,↓,0.4616653999546543,True,28,1
RC-M-23M23S1,1345,experiment,58,←,left,←,0.7596838000463322,True,28,1
RC-M-23M23S1,1346,experiment,70,←,left,←,0.49776269996073097,True,28,1
RC-M-23M23S1,1347,experiment,104,←,left,←,0.7309085000306368,True,28,1
RC-M-23M23S1,1348,experiment,88,↓,down,↓,0.43979410000611097,True,28,1
RC-M-23M23S1,1349,experiment,51,→,right,→,0.5649311000015587,True,28,1
RC-M-23M23S1,1350,experiment,102,→,right,→,0.811822299961932,True,28,1
RC-M-23M23S1,1351,experiment,106,↑,up,↑,0.5601538999471813,True,28,1
RC-M-23M23S1,1352,experiment,60,→,left,←,0.5654057000065222,False,28,1
RC-M-23M23S1,1353,experiment,69,→,right,→,0.4474103000247851,True,28,1
RC-M-23M23S1,1354,experiment,89,↑,up,↑,1.7756685999920592,True,28,1
RC-M-23M23S1,1355,experiment,52,↑,up,↑,0.5107445999747142,True,28,1
RC-M-23M23S1,1356,experiment,76,←,up,↑,0.6170024999883026,False,28,1
RC-M-23M23S1,1357,experiment,77,→,right,→,0.5104544999776408,True,28,1
RC-M-23M23S1,1358,experiment,56,→,right,→,0.526912400033325,True,28,1
RC-M-23M23S1,1359,experiment,74,↓,down,↓,0.6092046000994742,True,28,1
RC-M-23M23S1,1360,experiment,68,←,left,←,0.513829999952577,True,28,1
RC-M-23M23S1,1361,experiment,48,↓,down,↓,0.6051682999823242,True,28,1
RC-M-23M23S1,1362,experiment,98,→,right,→,0.5000578999752179,True,28,1
RC-M-23M23S1,1363,experiment,81,←,left,←,0.460373800015077,True,28,1
RC-M-23M23S1,1364,training,55,↓,down,↓,0.4983669000212103,True,28,0
RC-M-23M23S1,1365,training,82,↓,down,↓,0.38402470003347844,True,28,1
RC-M-23M23S1,1366,experiment,96,→,right,→,0.46684880007524043,True,28,0
RC-M-23M23S1,1367,experiment,95,←,left,←,0.5201911999611184,True,28,1
RC-M-23M23S1,1368,experiment,87,↑,down,↓,0.5104551000986248,False,28,1
RC-M-23M23S1,1369,experiment,49,←,left,←,0.585426100064069,True,28,1
RC-M-23M23S1,1370,experiment,61,→,right,→,0.693734799977392,True,28,1
RC-M-23M23S1,1371,experiment,71,↑,down,↓,0.7300365000264719,False,28,1
RC-M-23M23S1,1372,experiment,105,←,left,←,0.4974621000001207,True,28,1
RC-M-23M23S1,1373,experiment,74,↓,down,↓,0.6043962999247015,True,28,1
RC-M-23M23S1,1374,experiment,72,→,right,→,0.4596625999547541,True,28,1
RC-M-23M23S1,1375,experiment,65,→,right,→,0.4754991000518203,True,28,1
RC-M-23M23S1,1376,experiment,83,↑,up,↑,0.47659069998189807,True,28,1
RC-M-23M23S1,1377,experiment,63,←,left,←,0.4206803999841213,True,28,1
RC-M-23M23S1,1378,experiment,107,←,left,←,0.663713000016287,True,28,1
RC-M-23M23S1,1379,experiment,98,↓,down,↓,0.45198670006357133,True,28,1
RC-M-23M23S1,1380,experiment,99,→,right,→,0.42509989999234676,True,28,1
RC-M-23M23S1,1381,experiment,90,↓,up,↑,0.5937141999602318,False,28,1
RC-M-23M23S1,1382,experiment,77,→,right,→,1.7517671000678092,True,28,1
RC-M-23M23S1,1383,experiment,80,→,right,→,0.5509497999446467,True,28,1
RC-M-23M23S1,1384,experiment,52,↓,down,↓,0.47129040001891553,True,28,1
RC-M-23M23S1,1385,experiment,85,↓,down,↓,0.5361096999840811,True,28,1
RC-M-23M23S1,1386,experiment,84,↓,down,↓,0.4146273999940604,True,28,1
RC-M-23M23S1,1387,experiment,89,↓,down,↓,0.5197934999596328,True,28,1
RC-M-23M23S1,1388,experiment,108,↓,down,↓,0.7748695999616757,True,28,1
RC-M-23M23S1,1389,experiment,53,↓,down,↓,0.5978211999172345,True,28,1
RC-M-23M23S1,1390,experiment,81,↑,up,↑,0.5467917000642046,True,28,1
RC-M-23M23S1,1391,experiment,79,→,left,←,0.8664412000216544,False,28,1
RC-M-23M23S1,1392,experiment,82,→,right,→,0.6278427999932319,True,28,1
RC-M-23M23S1,1393,experiment,78,→,right,→,0.5444462000159547,True,28,1
RC-M-23M23S1,1394,experiment,88,←,left,←,0.5652051999932155,True,28,1
RC-M-23M23S1,1395,experiment,104,→,right,→,0.6594076999463141,True,28,1
RC-M-23M23S1,1396,experiment,67,←,right,→,0.5385625000344589,False,28,1
RC-M-23M23S1,1397,experiment,58,↓,down,↓,0.5932307000039145,True,28,1
RC-M-23M23S1,1398,experiment,94,↑,up,↑,0.5461833999725059,True,28,1
RC-M-23M23S1,1399,experiment,64,←,left,←,0.5025146000552922,True,28,1
RC-M-23M23S1,1400,experiment,62,→,left,←,0.4774304999737069,False,28,1
RC-M-23M23S1,1401,experiment,55,↑,up,↑,0.48793019994627684,True,28,1
RC-M-23M23S1,1402,experiment,101,→,right,→,0.5863158999709412,True,28,1
