PART_ID,Block_no,Trial_no,Block_type,Trial_type,CSI,Stim_letter,Key_pressed,letter_choose,Rt,Corr,Stimulus Time,Level,Reversal,Revs_count
015K25,1,1,PS,train,33,↑,no_key,no_letter,-1.0,False,30,-,-,-
015K25,1,2,PS,train,46,←,left,←,0.7884398999158293,True,30,-,-,-
015K25,1,3,PS,train,46,→,right,→,0.5505723000969738,True,30,-,-,-
015K25,1,4,PS,train,36,↑,up,↑,0.6338338998612016,True,30,-,-,-
015K25,1,5,PS,train,25,↓,down,↓,0.7683953999076039,True,30,-,-,-
015K25,1,6,PS,train,43,←,left,←,0.5838212000671774,True,30,-,-,-
015K25,1,7,PS,train,46,↓,down,↓,0.9010025998577476,True,30,-,-,-
015K25,1,8,PS,train,33,→,right,→,0.4841798001434654,True,30,-,-,-
015K25,1,9,PS,train,30,↓,down,↓,1.485984800150618,True,30,-,-,-
015K25,1,10,PS,train,40,→,right,→,0.46790229994803667,True,30,-,-,-
015K25,2,11,AS,train,32,↓,right,→,0.4514262001030147,False,45,-,-,-
015K25,2,12,AS,train,38,→,left,←,0.667757699964568,False,45,-,-,-
015K25,2,13,AS,train,50,←,left,←,0.8002806000877172,True,45,-,-,-
015K25,2,14,AS,train,38,→,right,→,0.5845039999112487,True,45,-,-,-
015K25,2,15,AS,train,26,↑,up,↑,0.7340136000420898,True,45,-,-,-
015K25,2,16,AS,train,49,→,right,→,0.6011375000234693,True,45,-,-,-
015K25,2,17,AS,train,49,↑,up,↑,0.63453199993819,True,45,-,-,-
015K25,2,18,AS,train,45,↓,down,↓,0.6842539999634027,True,45,-,-,-
015K25,2,19,AS,train,29,←,left,←,0.5178563001099974,True,45,-,-,-
015K25,2,20,AS,train,28,↓,down,↓,0.7335584000684321,True,45,-,-,-
015K25,-,21,PS,adaptive,48,↑,up,↑,1.8128569999244064,True,10,0,0,0
015K25,-,22,PS,adaptive,43,↓,up,↑,1.467485300032422,False,10,-1,0,0
015K25,-,23,PS,adaptive,43,↑,up,↑,0.7903249999508262,True,11,-1,0,0
015K25,-,24,PS,adaptive,43,↓,down,↓,0.7440263999160379,True,11,1,1,1
015K25,-,25,PS,adaptive,31,←,left,←,0.8716177002061158,True,10,1,0,1
015K25,-,26,PS,adaptive,50,→,right,→,0.6591738001443446,True,10,1,0,1
015K25,-,27,PS,adaptive,36,↓,up,↑,1.8079954001586884,False,9,-1,1,2
015K25,-,28,PS,adaptive,37,↑,up,↑,0.5645168998744339,True,10,-1,0,2
015K25,-,29,PS,adaptive,47,→,left,←,0.9011255998630077,False,10,-1,0,2
015K25,-,30,PS,adaptive,46,←,left,←,0.7003019999247044,True,11,-1,0,2
015K25,-,31,PS,adaptive,32,↓,down,↓,0.8379271000158042,True,11,1,1,3
015K25,-,32,PS,adaptive,50,←,left,←,0.5300644000526518,True,10,1,0,3
015K25,-,33,PS,adaptive,49,→,right,→,0.5436072000302374,True,10,1,0,3
015K25,-,34,PS,adaptive,28,↑,up,↑,0.7712425000499934,True,9,1,0,3
015K25,-,35,PS,adaptive,45,↓,up,↑,1.1663204999640584,False,9,-1,1,4
015K25,-,36,AS,adaptive,35,↑,right,→,0.8717630999162793,False,20,-1,0,0
015K25,-,37,AS,adaptive,48,↓,down,↓,0.6108449001330882,True,21,-1,0,0
015K25,-,38,AS,adaptive,33,←,left,←,0.5545931998640299,True,21,1,1,1
015K25,-,39,AS,adaptive,40,↓,down,↓,0.5655767000280321,True,20,1,0,1
015K25,-,40,AS,adaptive,31,←,right,→,0.9953222998883575,False,20,-1,1,2
015K25,-,41,AS,adaptive,29,↓,down,↓,0.6275386000052094,True,21,-1,0,2
015K25,-,42,AS,adaptive,26,↑,up,↑,0.8316849998664111,True,21,1,1,3
015K25,-,43,AS,adaptive,29,→,right,→,0.6158806998282671,True,20,1,0,3
015K25,-,44,AS,adaptive,29,←,left,←,0.5518774001393467,True,20,1,0,3
015K25,-,45,AS,adaptive,34,↓,down,↓,0.7472560999449342,True,19,1,0,3
015K25,-,46,AS,adaptive,26,↑,up,↑,0.7423900999128819,True,19,1,0,3
015K25,-,47,AS,adaptive,25,→,right,→,0.5566920998971909,True,18,1,0,3
015K25,-,48,AS,adaptive,28,↓,down,↓,1.2004092999268323,True,18,1,0,3
015K25,-,49,AS,adaptive,26,↑,up,↑,0.9412544001825154,True,17,1,0,3
015K25,-,50,AS,adaptive,35,↓,down,↓,0.685152699938044,True,17,1,0,3
015K25,-,51,AS,adaptive,41,↑,up,↑,0.7748935001436621,True,16,1,0,3
015K25,-,52,AS,adaptive,29,→,right,→,0.8179358998313546,True,16,1,0,3
015K25,-,53,AS,adaptive,36,↓,down,↓,0.5715282999444753,True,15,1,0,3
015K25,-,54,AS,adaptive,29,→,right,→,1.0146385000552982,True,15,1,0,3
015K25,-,55,AS,adaptive,43,↑,down,↓,0.6445490999612957,False,14,-1,1,4
015K25,1,56,AS,intra_train,47,→,right,→,0.5602901000529528,True,22,-,-,-
015K25,1,57,AS,intra_train,43,←,left,←,0.6458939001895487,True,22,-,-,-
015K25,1,58,AS,intra_train,37,↓,down,↓,0.7733054999262094,True,22,-,-,-
015K25,1,59,AS,intra_train,27,←,right,→,1.4727678000926971,False,22,-,-,-
015K25,1,60,AS,intra_train,37,↓,down,↓,1.0081672999076545,True,22,-,-,-
015K25,1,61,AS,exp,38,↑,up,↑,0.7385698000434786,True,15,0,0,0
015K25,1,62,AS,exp,45,↓,right,→,1.6164108000230044,False,15,-1,0,0
015K25,1,63,AS,exp,41,↑,up,↑,0.880535600008443,True,16,-1,0,0
015K25,1,64,AS,exp,25,←,left,←,0.7615308999083936,True,16,1,1,1
015K25,1,65,AS,exp,46,→,right,→,0.8227847998496145,True,15,1,0,1
015K25,1,66,AS,exp,38,↓,up,↑,0.8916090000420809,False,15,-1,1,2
015K25,1,67,AS,exp,43,↑,up,↑,0.6836060998030007,True,16,-1,0,2
015K25,1,68,AS,exp,25,←,left,←,0.7519978999625891,True,16,1,1,3
015K25,1,69,AS,exp,41,↓,right,→,1.3831182001158595,False,15,-1,1,4
015K25,1,70,AS,exp,35,↑,up,↑,0.7839921000413597,True,16,-1,0,4
015K25,1,71,AS,exp,49,↓,down,↓,1.1032805000431836,True,16,1,1,5
015K25,1,72,AS,exp,35,←,right,→,0.7398431000765413,False,15,-1,1,6
015K25,1,73,AS,exp,47,→,right,→,0.5365071999840438,True,16,-1,0,6
015K25,1,74,AS,exp,27,↓,down,↓,0.8792010000906885,True,16,1,1,7
015K25,1,75,AS,exp,43,←,right,→,0.7598569998517632,False,15,-1,1,8
015K25,1,76,AS,exp,37,→,right,→,0.716816000174731,True,16,-1,0,8
015K25,1,77,AS,exp,35,←,left,←,0.6840795001480728,True,16,1,1,9
015K25,1,78,AS,exp,48,↓,down,↓,0.6969721999485046,True,15,1,0,9
015K25,1,79,AS,exp,34,←,left,←,0.7631479999981821,True,15,1,0,9
015K25,1,80,AS,exp,26,↓,down,↓,0.703236100031063,True,14,1,0,9
015K25,1,81,AS,exp,38,↑,down,↓,0.7376383999362588,False,14,-1,1,10
015K25,1,82,AS,exp,50,→,right,→,0.661732800072059,True,15,-1,0,10
015K25,1,83,AS,exp,43,↑,up,↑,0.7915060999803245,True,15,1,1,11
015K25,1,84,AS,exp,50,→,right,→,0.5965313001070172,True,14,1,0,11
015K25,1,85,AS,exp,33,↓,down,↓,0.7874928000383079,True,14,1,0,11
015K25,1,86,AS,exp,27,←,right,→,0.7873744000680745,False,13,-1,1,12
015K25,1,87,AS,exp,48,↑,up,↑,0.6785212000831962,True,14,-1,0,12
015K25,1,88,AS,exp,35,←,left,←,0.7554816999472678,True,14,1,1,13
015K25,1,89,AS,exp,25,→,right,→,0.6292341998778284,True,13,1,0,13
015K25,1,90,AS,exp,46,↑,up,↑,0.7170484000816941,True,13,1,0,13
015K25,1,91,AS,exp,42,→,right,→,0.5985004999674857,True,12,1,0,13
015K25,1,92,AS,exp,41,↓,down,↓,0.6434478000737727,True,12,1,0,13
015K25,1,93,AS,exp,50,↑,down,↓,0.8311547997873276,False,11,-1,1,14
015K25,2,94,PS,intra_train,50,←,left,←,0.6991447999607772,True,15,-,-,-
015K25,2,95,PS,intra_train,49,→,right,→,0.5320033999159932,True,15,-,-,-
015K25,2,96,PS,intra_train,49,↓,down,↓,0.6236596999224275,True,15,-,-,-
015K25,2,97,PS,intra_train,39,→,right,→,0.6331122000701725,True,15,-,-,-
015K25,2,98,PS,intra_train,41,↓,down,↓,0.5675665999297053,True,15,-,-,-
015K25,2,99,PS,exp,37,→,right,→,0.5308544000145048,True,10,0,0,0
015K25,2,100,PS,exp,36,↑,left,←,0.9368876998778433,False,10,-1,0,0
015K25,2,101,PS,exp,45,←,left,←,0.5294085999485105,True,11,-1,0,0
015K25,2,102,PS,exp,36,↓,down,↓,0.5431762000080198,True,11,1,1,1
015K25,2,103,PS,exp,32,←,down,↓,0.7015345999971032,False,10,-1,1,2
015K25,2,104,PS,exp,41,→,left,←,0.6434470999520272,False,11,-1,0,2
015K25,2,105,PS,exp,33,←,left,←,0.5942063999827951,True,12,-1,0,2
015K25,2,106,PS,exp,25,↓,down,↓,0.5036677999887615,True,12,1,1,3
015K25,2,107,PS,exp,37,←,left,←,0.5756232000421733,True,11,1,0,3
015K25,2,108,PS,exp,49,↓,down,↓,0.4982096999883652,True,11,1,0,3
015K25,2,109,PS,exp,42,→,right,→,0.5282390001229942,True,10,1,0,3
015K25,2,110,PS,exp,50,↑,left,←,0.8104216998908669,False,10,-1,1,4
015K25,2,111,PS,exp,26,↓,down,↓,0.4468892998993397,True,11,-1,0,4
015K25,2,112,PS,exp,40,→,left,←,0.6949002000037581,False,11,-1,0,4
015K25,2,113,PS,exp,29,←,down,↓,0.7455823000054806,False,12,-1,0,4
015K25,2,114,PS,exp,45,↑,up,↑,0.961450400063768,True,13,-1,0,4
015K25,2,115,PS,exp,36,→,left,←,0.6074164998717606,False,13,-1,0,4
015K25,2,116,PS,exp,36,↑,up,↑,0.5661466000601649,True,14,-1,0,4
015K25,2,117,PS,exp,47,↓,down,↓,0.5971341000404209,True,14,1,1,5
015K25,2,118,PS,exp,45,←,left,←,0.554713899968192,True,13,1,0,5
015K25,2,119,PS,exp,26,→,right,→,0.5498477998189628,True,13,1,0,5
015K25,2,120,PS,exp,46,←,left,←,0.4722390999086201,True,12,1,0,5
015K25,2,121,PS,exp,31,↑,up,↑,0.6623333999887109,True,12,1,0,5
015K25,2,122,PS,exp,47,→,right,→,0.4830307001248002,True,11,1,0,5
015K25,2,123,PS,exp,42,←,left,←,0.5006082998588681,True,11,1,0,5
015K25,2,124,PS,exp,31,↑,up,↑,0.6685550000984222,True,10,1,0,5
015K25,2,125,PS,exp,43,←,left,←,0.45259950007312,True,10,1,0,5
015K25,2,126,PS,exp,37,↓,right,→,1.2715778001584113,False,9,-1,1,6
015K25,2,127,PS,exp,29,←,left,←,0.4265224998816848,True,10,-1,0,6
015K25,2,128,PS,exp,44,↓,left,←,0.3462771000340581,False,10,-1,0,6
015K25,2,129,PS,exp,34,↑,up,↑,0.74597920011729,True,11,-1,0,6
015K25,2,130,PS,exp,39,→,right,→,0.4540828999597579,True,11,1,1,7
015K25,2,131,PS,exp,36,↓,down,↓,0.642333600204438,True,10,1,0,7
015K25,2,132,PS,exp,28,↑,left,←,0.6175757001619786,False,10,-1,1,8
015K25,2,133,PS,exp,37,←,left,←,0.45268909982405603,True,11,-1,0,8
015K25,2,134,PS,exp,26,↓,right,→,0.49184719985350966,False,11,-1,0,8
015K25,2,135,PS,exp,34,→,no_key,no_letter,-1.0,False,12,-1,0,8
015K25,2,136,PS,exp,33,←,left,←,0.6550312999170274,True,13,-1,0,8
015K25,2,137,PS,exp,47,→,right,→,0.5350229998584837,True,13,1,1,9
015K25,2,138,PS,exp,45,↑,up,↑,0.5796780998352915,True,12,1,0,9
015K25,2,139,PS,exp,27,←,left,←,0.4412756999954581,True,12,1,0,9
015K25,2,140,PS,exp,39,→,right,→,0.4610899998806417,True,11,1,0,9
015K25,2,141,PS,exp,30,↓,down,↓,0.6504466999322176,True,11,1,0,9
015K25,2,142,PS,exp,46,←,left,←,0.6347368999850005,True,10,1,0,9
015K25,2,143,PS,exp,47,↑,up,↑,0.6437669000588357,True,10,1,0,9
015K25,2,144,PS,exp,49,→,right,→,0.4893875999841839,True,9,1,0,9
015K25,2,145,PS,exp,50,↑,up,↑,0.6432764001656324,True,9,1,0,9
015K25,2,146,PS,exp,47,↓,down,↓,0.607756600016728,True,8,1,0,9
015K25,2,147,PS,exp,43,↑,up,↑,0.5370475999079645,True,8,1,0,9
015K25,2,148,PS,exp,43,→,right,→,0.5478626999538392,True,7,1,0,9
015K25,2,149,PS,exp,40,↑,left,←,0.5812965000513941,False,7,-1,1,10
015K25,2,150,PS,exp,45,↓,up,↑,0.7793641998432577,False,8,-1,0,10
015K25,2,151,PS,exp,35,→,right,→,0.5367467999458313,True,9,-1,0,10
015K25,2,152,PS,exp,36,←,left,←,0.49238929990679026,True,9,1,1,11
015K25,2,153,PS,exp,37,↑,left,←,0.5021209002006799,False,8,-1,1,12
015K25,2,154,PS,exp,46,→,right,→,0.4387783999554813,True,9,-1,0,12
015K25,2,155,PS,exp,38,←,right,→,0.6445006998255849,False,9,-1,0,12
015K25,2,156,PS,exp,31,→,left,←,0.3906650000717491,False,10,-1,0,12
015K25,2,157,PS,exp,40,←,left,←,0.6179845000151545,True,11,-1,0,12
015K25,2,158,PS,exp,45,↓,down,↓,0.6909708001185209,True,11,1,1,13
015K25,2,159,PS,exp,40,↑,up,↑,0.6421185999643058,True,10,1,0,13
015K25,2,160,PS,exp,29,↓,right,→,0.662452399963513,False,10,-1,1,14
015K25,3,161,PS,intra_train,28,→,right,→,1.264309999998659,True,15,-,-,-
015K25,3,162,PS,intra_train,41,↑,left,←,0.42642299993894994,False,15,-,-,-
015K25,3,163,PS,intra_train,36,→,right,→,0.5533738001249731,True,15,-,-,-
015K25,3,164,PS,intra_train,33,↓,down,↓,0.8166614000219852,True,15,-,-,-
015K25,3,165,PS,intra_train,29,↑,up,↑,0.7143897002097219,True,15,-,-,-
015K25,3,166,PS,exp,28,←,left,←,0.4731503000948578,True,10,0,0,0
015K25,3,167,PS,exp,27,→,left,←,0.7389772001188248,False,10,-1,0,0
015K25,3,168,PS,exp,25,↓,down,↓,0.6697182001080364,True,11,-1,0,0
015K25,3,169,PS,exp,27,→,right,→,0.5107303000986576,True,11,1,1,1
015K25,3,170,PS,exp,36,↑,up,↑,0.7403683001175523,True,10,1,0,1
015K25,3,171,PS,exp,41,→,right,→,0.5301078001502901,True,10,1,0,1
015K25,3,172,PS,exp,25,←,left,←,0.6877024997957051,True,9,1,0,1
015K25,3,173,PS,exp,30,↓,left,←,0.5860635000281036,False,9,-1,1,2
015K25,3,174,PS,exp,44,↑,right,→,0.8000839999876916,False,10,-1,0,2
015K25,3,175,PS,exp,39,←,left,←,0.4678352000191808,True,11,-1,0,2
015K25,3,176,PS,exp,29,→,right,→,1.1447050999850035,True,11,1,1,3
015K25,3,177,PS,exp,38,↑,up,↑,0.9496021999511868,True,10,1,0,3
015K25,3,178,PS,exp,27,→,right,→,0.6743109999224544,True,10,1,0,3
015K25,3,179,PS,exp,28,↓,down,↓,0.6692468000110239,True,9,1,0,3
015K25,3,180,PS,exp,46,←,left,←,0.5222277999855578,True,9,1,0,3
015K25,3,181,PS,exp,26,↓,left,←,0.7188175001647323,False,8,-1,1,4
015K25,3,182,PS,exp,29,↑,left,←,0.6172339001204818,False,9,-1,0,4
015K25,3,183,PS,exp,37,→,right,→,0.8718139999546111,True,10,-1,0,4
015K25,3,184,PS,exp,28,↑,up,↑,0.8476572001818568,True,10,1,1,5
015K25,3,185,PS,exp,48,→,up,↑,0.7930276999250054,False,9,-1,1,6
015K25,3,186,PS,exp,28,←,left,←,0.5468275998719037,True,10,-1,0,6
015K25,3,187,PS,exp,33,↓,down,↓,0.6481838999316096,True,10,1,1,7
015K25,3,188,PS,exp,34,←,left,←,0.8848037000279874,True,9,1,0,7
015K25,3,189,PS,exp,41,↑,down,↓,0.8367606999818236,False,9,-1,1,8
015K25,3,190,PS,exp,28,←,left,←,0.6270097999367863,True,10,-1,0,8
015K25,3,191,PS,exp,43,↑,right,→,1.579805999994278,False,10,-1,0,8
015K25,3,192,PS,exp,32,→,right,→,0.6420748000964522,True,11,-1,0,8
015K25,3,193,PS,exp,40,↑,left,←,0.7523000000510365,False,11,-1,0,8
015K25,3,194,PS,exp,40,→,right,→,0.5346788999158889,True,12,-1,0,8
015K25,3,195,PS,exp,35,↑,right,→,1.7351595999207348,False,12,-1,0,8
015K25,3,196,PS,exp,46,→,right,→,0.5317789998371154,True,13,-1,0,8
015K25,3,197,PS,exp,45,↓,down,↓,0.6013546998146921,True,13,1,1,9
015K25,3,198,PS,exp,42,→,right,→,0.43721370003186166,True,12,1,0,9
015K25,3,199,PS,exp,34,↓,down,↓,0.5126121998764575,True,12,1,0,9
015K25,3,200,PS,exp,29,←,left,←,0.5752620999701321,True,11,1,0,9
015K25,3,201,PS,exp,39,→,right,→,0.544242300093174,True,11,1,0,9
015K25,3,202,PS,exp,36,↓,down,↓,0.7628509001806378,True,10,1,0,9
015K25,3,203,PS,exp,36,→,right,→,0.20049139996990561,True,10,1,0,9
015K25,3,204,PS,exp,35,↓,down,↓,0.571286000078544,True,9,1,0,9
015K25,3,205,PS,exp,30,→,right,→,0.4240539001766592,True,9,1,0,9
015K25,3,206,PS,exp,25,↓,left,←,0.591381800128147,False,8,-1,1,10
015K25,3,207,PS,exp,32,←,left,←,0.48956979997456074,True,9,-1,0,10
015K25,3,208,PS,exp,50,↓,down,↓,0.9729392998851836,True,9,1,1,11
015K25,3,209,PS,exp,33,→,right,→,0.5058450999204069,True,8,1,0,11
015K25,3,210,PS,exp,27,←,left,←,0.5356407000217587,True,8,1,0,11
015K25,3,211,PS,exp,27,→,right,→,0.48793910001404583,True,7,1,0,11
015K25,3,212,PS,exp,49,↓,down,↓,0.5271451999433339,True,7,1,0,11
015K25,3,213,PS,exp,48,↑,left,←,0.4826418999582529,False,6,-1,1,12
015K25,3,214,PS,exp,34,←,left,←,0.4159440000075847,True,7,-1,0,12
015K25,3,215,PS,exp,32,↓,right,→,0.6506272000260651,False,7,-1,0,12
015K25,3,216,PS,exp,45,→,right,→,0.4722607000730932,True,8,-1,0,12
015K25,3,217,PS,exp,42,←,left,←,0.4497296998742968,True,8,1,1,13
015K25,3,218,PS,exp,41,↑,down,↓,0.6187705998308957,False,7,-1,1,14
015K25,4,219,AS,intra_train,45,↓,left,←,0.3838290001731366,False,22,-,-,-
015K25,4,220,AS,intra_train,42,↑,right,→,1.1728451000526547,False,22,-,-,-
015K25,4,221,AS,intra_train,36,←,left,←,0.4340313000138849,True,22,-,-,-
015K25,4,222,AS,intra_train,45,↓,down,↓,0.598285699961707,True,22,-,-,-
015K25,4,223,AS,intra_train,37,→,left,←,0.6816368999425322,False,22,-,-,-
015K25,4,224,AS,exp,49,←,left,←,0.49570000008679926,True,15,0,0,0
015K25,4,225,AS,exp,44,↑,right,→,0.9626652000006288,False,15,-1,0,0
015K25,4,226,AS,exp,26,↓,down,↓,0.6326997999567538,True,16,-1,0,0
015K25,4,227,AS,exp,50,→,right,→,0.6213703001849353,True,16,1,1,1
015K25,4,228,AS,exp,38,←,left,←,0.5045759999193251,True,15,1,0,1
015K25,4,229,AS,exp,41,→,right,→,0.5217836000956595,True,15,1,0,1
015K25,4,230,AS,exp,37,←,left,←,0.8261884001549333,True,14,1,0,1
015K25,4,231,AS,exp,26,↓,down,↓,0.5867997000459582,True,14,1,0,1
015K25,4,232,AS,exp,44,→,right,→,0.5903666999656707,True,13,1,0,1
015K25,4,233,AS,exp,37,↑,up,↑,1.3191409001592547,True,13,1,0,1
015K25,4,234,AS,exp,35,→,right,→,0.6828642999753356,True,12,1,0,1
015K25,4,235,AS,exp,35,↑,down,↓,0.8264938001520932,False,12,-1,1,2
015K25,4,236,AS,exp,39,←,left,←,0.6725879001896828,True,13,-1,0,2
015K25,4,237,AS,exp,36,↓,down,↓,0.4663611000869423,True,13,1,1,3
015K25,4,238,AS,exp,50,↑,up,↑,1.032530799973756,True,12,1,0,3
015K25,4,239,AS,exp,26,←,left,←,0.41697270004078746,True,12,1,0,3
015K25,4,240,AS,exp,50,↓,right,→,0.9003941998817027,False,11,-1,1,4
015K25,4,241,AS,exp,27,→,right,→,0.6893691997975111,True,12,-1,0,4
015K25,4,242,AS,exp,34,←,right,→,0.8225595999974757,False,12,-1,0,4
015K25,4,243,AS,exp,29,↑,up,↑,1.189706299919635,True,13,-1,0,4
015K25,4,244,AS,exp,48,←,left,←,0.6486559000331908,True,13,1,1,5
015K25,4,245,AS,exp,29,↓,down,↓,0.5909392000176013,True,12,1,0,5
015K25,4,246,AS,exp,33,→,right,→,0.831513499841094,True,12,1,0,5
015K25,4,247,AS,exp,38,←,left,←,0.45913659990765154,True,11,1,0,5
015K25,4,248,AS,exp,29,↑,up,↑,1.0056426001247019,True,11,1,0,5
015K25,4,249,AS,exp,41,↓,right,→,0.7985095998737961,False,10,-1,1,6
015K25,4,250,AS,exp,44,→,right,→,0.7245725998654962,True,11,-1,0,6
015K25,4,251,AS,exp,43,←,left,←,0.743106999900192,True,11,1,1,7
015K25,4,252,AS,exp,28,→,right,→,0.5628996000159532,True,10,1,0,7
015K25,4,253,AS,exp,47,↓,down,↓,0.6246732000727206,True,10,1,0,7
015K25,4,254,AS,exp,43,←,right,→,0.5884106000885367,False,9,-1,1,8
015K25,4,255,AS,exp,36,↑,down,↓,0.8115048999898136,False,10,-1,0,8
015K25,4,256,AS,exp,30,→,right,→,0.708185400115326,True,11,-1,0,8
015K25,4,257,AS,exp,38,↓,down,↓,0.7663708999752998,True,11,1,1,9
015K25,4,258,AS,exp,26,↑,right,→,0.9258148998487741,False,10,-1,1,10
015K25,4,259,AS,exp,36,←,left,←,0.6505119998473674,True,11,-1,0,10
015K25,4,260,AS,exp,27,↑,up,↑,0.8576628998853266,True,11,1,1,11
015K25,4,261,AS,exp,34,→,right,→,0.6793119998183101,True,10,1,0,11
015K25,4,262,AS,exp,27,←,right,→,1.0929417998995632,False,10,-1,1,12
015K25,4,263,AS,exp,39,→,up,↑,0.7846033000387251,False,11,-1,0,12
015K25,4,264,AS,exp,28,↓,up,↑,0.8231421001255512,False,12,-1,0,12
015K25,4,265,AS,exp,50,←,left,←,0.6113444999791682,True,13,-1,0,12
015K25,4,266,AS,exp,34,→,right,→,0.681649399921298,True,13,1,1,13
015K25,4,267,AS,exp,29,↑,left,←,1.0768629999365658,False,12,-1,1,14
015K25,5,268,AS,intra_train,26,→,left,←,0.500438200077042,False,22,-,-,-
015K25,5,269,AS,intra_train,28,↑,up,↑,0.67492979997769,True,22,-,-,-
015K25,5,270,AS,intra_train,28,↓,down,↓,1.0164510998874903,True,22,-,-,-
015K25,5,271,AS,intra_train,28,↑,up,↑,0.6639918000437319,True,22,-,-,-
015K25,5,272,AS,intra_train,28,→,right,→,0.598560499958694,True,22,-,-,-
015K25,5,273,AS,exp,48,↑,right,→,1.0116158002056181,False,15,-1,0,0
015K25,5,274,AS,exp,34,←,left,←,0.8738856001291424,True,16,-1,0,0
015K25,5,275,AS,exp,28,→,right,→,0.6909417000133544,True,16,1,1,1
015K25,5,276,AS,exp,45,↓,down,↓,0.7363747998606414,True,15,1,0,1
015K25,5,277,AS,exp,49,→,right,→,0.652320499997586,True,15,1,0,1
015K25,5,278,AS,exp,46,←,left,←,0.842406699899584,True,14,1,0,1
015K25,5,279,AS,exp,49,→,right,→,0.6618374998215586,True,14,1,0,1
015K25,5,280,AS,exp,34,↓,down,↓,0.9820220000110567,True,13,1,0,1
015K25,5,281,AS,exp,26,↑,up,↑,0.7182519000489265,True,13,1,0,1
015K25,5,282,AS,exp,25,←,left,←,0.9841495999135077,True,12,1,0,1
015K25,5,283,AS,exp,42,↑,up,↑,0.7316576999146491,True,12,1,0,1
015K25,5,284,AS,exp,36,→,left,←,0.6031767001841217,False,11,-1,1,2
015K25,5,285,AS,exp,42,↓,down,↓,0.7199277000036091,True,12,-1,0,2
015K25,5,286,AS,exp,40,←,down,↓,0.6388189001008868,False,12,-1,0,2
015K25,5,287,AS,exp,39,→,right,→,0.45250330003909767,True,13,-1,0,2
015K25,5,288,AS,exp,40,←,left,←,0.8893235998693854,True,13,1,1,3
015K25,5,289,AS,exp,28,↓,up,↑,0.8415403000544757,False,12,-1,1,4
015K25,5,290,AS,exp,34,←,left,←,0.4971120001282543,True,13,-1,0,4
015K25,5,291,AS,exp,32,↓,down,↓,0.6404705999884754,True,13,1,1,5
015K25,5,292,AS,exp,35,→,right,→,0.56120890006423,True,12,1,0,5
015K25,5,293,AS,exp,28,←,left,←,0.4935429999604821,True,12,1,0,5
015K25,5,294,AS,exp,37,↓,down,↓,0.691081500146538,True,11,1,0,5
015K25,5,295,AS,exp,28,←,left,←,0.5238942999858409,True,11,1,0,5
015K25,5,296,AS,exp,42,↑,left,←,0.6685958998277783,False,10,-1,1,6
015K25,5,297,AS,exp,42,←,left,←,0.5904480000026524,True,11,-1,0,6
015K25,5,298,AS,exp,34,↓,up,↑,1.7183868000283837,False,11,-1,0,6
015K25,5,299,AS,exp,37,→,right,→,0.6561817999463528,True,12,-1,0,6
015K25,5,300,AS,exp,32,↓,left,←,0.7325939999427646,False,12,-1,0,6
015K25,5,301,AS,exp,29,←,left,←,0.43978759995661676,True,13,-1,0,6
015K25,5,302,AS,exp,39,↑,up,↑,0.8915552999824286,True,13,1,1,7
015K25,5,303,AS,exp,46,←,left,←,0.4406530999112874,True,12,1,0,7
015K25,5,304,AS,exp,42,↓,up,↑,1.2268692997749895,False,12,-1,1,8
015K25,5,305,AS,exp,33,→,right,→,0.7121112998574972,True,13,-1,0,8
015K25,5,306,AS,exp,32,↑,up,↑,1.223974899854511,True,13,1,1,9
015K25,5,307,AS,exp,45,←,left,←,0.5178801000583917,True,12,1,0,9
015K25,5,308,AS,exp,50,→,left,←,0.4298997998703271,False,12,-1,1,10
015K25,5,309,AS,exp,43,←,left,←,0.6202543000690639,True,13,-1,0,10
015K25,5,310,AS,exp,49,→,up,↑,0.7629880998283625,False,13,-1,0,10
015K25,5,311,AS,exp,33,←,left,←,0.632278700126335,True,14,-1,0,10
015K25,5,312,AS,exp,37,↓,down,↓,0.6375758999492973,True,14,1,1,11
015K25,5,313,AS,exp,27,↑,right,→,0.8528974999208003,False,13,-1,1,12
015K25,5,314,AS,exp,28,→,right,→,0.6396816000342369,True,14,-1,0,12
015K25,5,315,AS,exp,34,←,right,→,0.6002936998847872,False,14,-1,0,12
015K25,5,316,AS,exp,49,→,right,→,0.6020482000894845,True,15,-1,0,12
015K25,5,317,AS,exp,28,↑,up,↑,0.5818799999542534,True,15,1,1,13
015K25,5,318,AS,exp,50,→,right,→,0.5459099998697639,True,14,1,0,13
015K25,5,319,AS,exp,37,↓,down,↓,0.6204635999165475,True,14,1,0,13
015K25,5,320,AS,exp,42,→,right,→,0.620822099968791,True,13,1,0,13
015K25,5,321,AS,exp,49,↑,up,↑,0.7223912000190467,True,13,1,0,13
015K25,5,322,AS,exp,44,↓,left,←,0.6889541000127792,False,12,-1,1,14
015K25,6,323,PS,intra_train,47,↑,up,↑,0.523492299951613,True,15,-,-,-
015K25,6,324,PS,intra_train,43,←,left,←,1.2458808000665158,True,15,-,-,-
015K25,6,325,PS,intra_train,38,↓,down,↓,1.1494518001563847,True,15,-,-,-
015K25,6,326,PS,intra_train,43,→,right,→,0.6678347999695688,True,15,-,-,-
015K25,6,327,PS,intra_train,32,↑,down,↓,0.8677544000092894,False,15,-,-,-
015K25,6,328,PS,exp,44,→,right,→,0.6059818000067025,True,10,0,0,0
015K25,6,329,PS,exp,31,←,left,←,0.5686629000119865,True,10,1,0,0
015K25,6,330,PS,exp,28,↑,right,→,0.401995699852705,False,9,-1,1,1
015K25,6,331,PS,exp,44,←,no_key,no_letter,-1.0,False,10,-1,0,1
015K25,6,332,PS,exp,41,↑,up,↑,1.2310115001164377,True,11,-1,0,1
015K25,6,333,PS,exp,49,↓,down,↓,0.6495441000442952,True,11,1,1,2
015K25,6,334,PS,exp,39,←,left,←,0.5540245999582112,True,10,1,0,2
015K25,6,335,PS,exp,49,↓,down,↓,0.6210590000264347,True,10,1,0,2
015K25,6,336,PS,exp,41,←,left,←,0.6454805999528617,True,9,1,0,2
015K25,6,337,PS,exp,40,→,right,→,0.6100258000660688,True,9,1,0,2
015K25,6,338,PS,exp,44,←,right,→,0.5122633001301438,False,8,-1,1,3
015K25,6,339,PS,exp,42,↓,down,↓,0.6720328000374138,True,9,-1,0,3
015K25,6,340,PS,exp,37,→,right,→,0.6705338000319898,True,9,1,1,4
015K25,6,341,PS,exp,29,←,down,↓,0.7977619001176208,False,8,-1,1,5
015K25,6,342,PS,exp,30,→,left,←,0.5299176000989974,False,9,-1,0,5
015K25,6,343,PS,exp,40,←,left,←,0.45927310013212264,True,10,-1,0,5
015K25,6,344,PS,exp,49,→,left,←,0.47629000013694167,False,10,-1,0,5
015K25,6,345,PS,exp,41,←,left,←,0.545442400034517,True,11,-1,0,5
015K25,6,346,PS,exp,46,↓,left,←,0.7046327998396009,False,11,-1,0,5
015K25,6,347,PS,exp,27,←,left,←,0.49294580006971955,True,12,-1,0,5
015K25,6,348,PS,exp,37,↓,down,↓,0.5469950002152473,True,12,1,1,6
015K25,6,349,PS,exp,46,↑,left,←,0.46126669994555414,False,11,-1,1,7
015K25,6,350,PS,exp,50,→,right,→,0.7247742000035942,True,12,-1,0,7
015K25,6,351,PS,exp,48,↑,right,→,0.7241965001448989,False,12,-1,0,7
015K25,6,352,PS,exp,33,↓,left,←,0.5591788999736309,False,13,-1,0,7
015K25,6,353,PS,exp,49,↑,up,↑,1.1245008001569659,True,14,-1,0,7
015K25,6,354,PS,exp,41,↓,no_key,no_letter,-1.0,False,14,-1,0,7
015K25,6,355,PS,exp,50,→,right,→,0.5865257999394089,True,15,-1,0,7
015K25,6,356,PS,exp,30,↓,down,↓,0.5514161000028253,True,15,1,1,8
015K25,6,357,PS,exp,31,↑,up,↑,0.5887953999917954,True,14,1,0,8
015K25,6,358,PS,exp,42,→,right,→,0.47968849982135,True,14,1,0,8
015K25,6,359,PS,exp,32,↓,right,→,0.5821743998676538,False,13,-1,1,9
015K25,6,360,PS,exp,49,←,left,←,0.5990752999205142,True,14,-1,0,9
015K25,6,361,PS,exp,30,↓,right,→,1.0710076000541449,False,14,-1,0,9
015K25,6,362,PS,exp,45,↑,up,↑,0.6318109000567347,True,15,-1,0,9
015K25,6,363,PS,exp,48,↓,down,↓,0.5129358000122011,True,15,1,1,10
015K25,6,364,PS,exp,29,←,down,↓,1.0263197000604123,False,14,-1,1,11
015K25,6,365,PS,exp,25,↓,right,→,0.5566844001878053,False,15,-1,0,11
015K25,6,366,PS,exp,48,→,right,→,0.4542330000549555,True,16,-1,0,11
015K25,6,367,PS,exp,25,←,left,←,0.8928243999835104,True,16,1,1,12
015K25,6,368,PS,exp,28,↓,down,↓,0.6336835999973118,True,15,1,0,12
015K25,6,369,PS,exp,43,←,left,←,0.4236994998063892,True,15,1,0,12
015K25,6,370,PS,exp,38,↓,down,↓,0.5941027000080794,True,14,1,0,12
015K25,6,371,PS,exp,28,→,right,→,0.5723284999839962,True,14,1,0,12
015K25,6,372,PS,exp,26,↓,down,↓,0.9734743998851627,True,13,1,0,12
015K25,6,373,PS,exp,39,→,right,→,0.46792609989643097,True,13,1,0,12
015K25,6,374,PS,exp,37,↑,left,←,0.6689267000183463,False,12,-1,1,13
015K25,6,375,PS,exp,29,↓,down,↓,0.7532261000014842,True,13,-1,0,13
015K25,6,376,PS,exp,37,↑,up,↑,0.586072200210765,True,13,1,1,14
015K25,7,377,PS,intra_train,36,←,left,←,0.4581674998626113,True,15,-,-,-
015K25,7,378,PS,intra_train,44,→,right,→,0.4615199000108987,True,15,-,-,-
015K25,7,379,PS,intra_train,39,↓,down,↓,0.7248600001912564,True,15,-,-,-
015K25,7,380,PS,intra_train,45,↑,up,↑,0.7388064998667687,True,15,-,-,-
015K25,7,381,PS,intra_train,25,→,right,→,0.5844378999900073,True,15,-,-,-
015K25,7,382,PS,exp,49,←,right,→,0.5314030998852104,False,10,-1,0,0
015K25,7,383,PS,exp,31,→,left,←,0.4368682000786066,False,11,-1,0,0
015K25,7,384,PS,exp,32,↑,up,↑,0.7170669999904931,True,12,-1,0,0
015K25,7,385,PS,exp,30,→,right,→,0.6937049999833107,True,12,1,1,1
015K25,7,386,PS,exp,49,←,left,←,0.5457214000634849,True,11,1,0,1
015K25,7,387,PS,exp,39,↑,up,↑,0.6969892999622971,True,11,1,0,1
015K25,7,388,PS,exp,28,↓,down,↓,0.6962204999290407,True,10,1,0,1
015K25,7,389,PS,exp,36,←,left,←,0.5135147999972105,True,10,1,0,1
015K25,7,390,PS,exp,39,↓,down,↓,0.5974360001273453,True,9,1,0,1
015K25,7,391,PS,exp,29,→,right,→,0.4948257999494672,True,9,1,0,1
015K25,7,392,PS,exp,25,↓,down,↓,0.5686788000166416,True,8,1,0,1
015K25,7,393,PS,exp,32,↑,left,←,0.5185167999006808,False,8,-1,1,2
015K25,7,394,PS,exp,30,←,left,←,0.4947973999660462,True,9,-1,0,2
015K25,7,395,PS,exp,42,→,right,→,0.47323339991271496,True,9,1,1,3
015K25,7,396,PS,exp,29,←,left,←,0.8431613999418914,True,8,1,0,3
015K25,7,397,PS,exp,27,↓,down,↓,0.5741135000716895,True,8,1,0,3
015K25,7,398,PS,exp,45,←,left,←,0.5529293001163751,True,7,1,0,3
015K25,7,399,PS,exp,42,↓,down,↓,0.6671815000008792,True,7,1,0,3
015K25,7,400,PS,exp,26,↑,up,↑,0.613874000031501,True,6,1,0,3
015K25,7,401,PS,exp,30,←,left,←,0.6076927999965847,True,6,1,0,3
015K25,7,402,PS,exp,36,→,up,↑,0.7424633000046015,False,5,-1,1,4
015K25,7,403,PS,exp,35,↓,down,↓,0.6413028000388294,True,6,-1,0,4
015K25,7,404,PS,exp,44,→,right,→,0.5592390999663621,True,6,1,1,5
015K25,7,405,PS,exp,31,←,left,←,0.47674060007557273,True,5,1,0,5
015K25,7,406,PS,exp,37,↓,down,↓,0.6953915001358837,True,5,1,0,5
015K25,7,407,PS,exp,43,→,right,→,0.7082642000168562,True,4,1,0,5
015K25,7,408,PS,exp,47,↑,up,↑,0.8068142000120133,True,4,1,0,5
015K25,7,409,PS,exp,49,→,left,←,0.49494019988924265,False,3,-1,1,6
015K25,7,410,PS,exp,29,←,up,↑,0.9526515000034124,False,4,-1,0,6
015K25,7,411,PS,exp,31,↓,left,←,1.3104514998849481,False,5,-1,0,6
015K25,7,412,PS,exp,27,→,right,→,0.59092149999924,True,6,-1,0,6
015K25,7,413,PS,exp,34,↓,left,←,0.6012808000668883,False,6,-1,0,6
015K25,7,414,PS,exp,42,←,left,←,0.5857939999550581,True,7,-1,0,6
015K25,7,415,PS,exp,33,↓,down,↓,0.6419474000576884,True,7,1,1,7
015K25,7,416,PS,exp,49,→,right,→,0.8645721001084894,True,6,1,0,7
015K25,7,417,PS,exp,39,↓,down,↓,1.3116570999845862,True,6,1,0,7
015K25,7,418,PS,exp,43,↑,left,←,0.6757921001408249,False,5,-1,1,8
015K25,7,419,PS,exp,28,←,left,←,0.6672320000361651,True,6,-1,0,8
015K25,7,420,PS,exp,46,→,right,→,0.7659680000506341,True,6,1,1,9
015K25,7,421,PS,exp,31,←,up,↑,1.2660608000587672,False,5,-1,1,10
015K25,7,422,PS,exp,28,→,left,←,0.589699300006032,False,6,-1,0,10
015K25,7,423,PS,exp,30,←,left,←,0.5381734999828041,True,7,-1,0,10
015K25,7,424,PS,exp,27,↑,left,←,0.5421618002001196,False,7,-1,0,10
015K25,7,425,PS,exp,49,→,left,←,0.5164934999775141,False,8,-1,0,10
015K25,7,426,PS,exp,43,←,left,←,0.6421691998839378,True,9,-1,0,10
015K25,7,427,PS,exp,47,→,right,→,0.5934331999160349,True,9,1,1,11
015K25,7,428,PS,exp,31,↑,up,↑,0.710420300019905,True,8,1,0,11
015K25,7,429,PS,exp,48,↓,left,←,0.46894099982455373,False,8,-1,1,12
015K25,7,430,PS,exp,26,←,left,←,0.5157002999912947,True,9,-1,0,12
015K25,7,431,PS,exp,31,↑,up,↑,0.6074809001293033,True,9,1,1,13
015K25,7,432,PS,exp,37,←,left,←,0.26730030006729066,True,8,1,0,13
015K25,7,433,PS,exp,47,↑,up,↑,0.49752760003320873,True,8,1,0,13
015K25,7,434,PS,exp,49,↓,left,←,0.5846013999544084,False,7,-1,1,14
015K25,8,435,AS,intra_train,30,↑,no_key,no_letter,-1.0,False,22,-,-,-
015K25,8,436,AS,intra_train,31,→,right,→,0.48457479989156127,True,22,-,-,-
015K25,8,437,AS,intra_train,46,←,left,←,0.450443800073117,True,22,-,-,-
015K25,8,438,AS,intra_train,40,↑,left,←,0.7341710000764579,False,22,-,-,-
015K25,8,439,AS,intra_train,39,→,right,→,0.46713269990868866,True,22,-,-,-
015K25,8,440,AS,exp,36,↑,right,→,0.7416911998298019,False,15,-1,0,0
015K25,8,441,AS,exp,35,←,no_key,no_letter,-1.0,False,16,-1,0,0
015K25,8,442,AS,exp,29,→,right,→,0.46589360013604164,True,17,-1,0,0
015K25,8,443,AS,exp,30,↑,left,←,0.416109099984169,False,17,-1,0,0
015K25,8,444,AS,exp,36,←,left,←,0.512889500008896,True,18,-1,0,0
015K25,8,445,AS,exp,41,→,right,→,0.5718954999465495,True,18,1,1,1
015K25,8,446,AS,exp,35,↓,down,↓,0.6082516999449581,True,17,1,0,1
015K25,8,447,AS,exp,45,↑,no_key,no_letter,-1.0,False,17,-1,1,2
015K25,8,448,AS,exp,29,→,left,←,0.7543085999786854,False,18,-1,0,2
015K25,8,449,AS,exp,31,↑,up,↑,0.624016199959442,True,19,-1,0,2
015K25,8,450,AS,exp,39,←,left,←,0.5511409000027925,True,19,1,1,3
015K25,8,451,AS,exp,28,↓,right,→,0.7057906000409275,False,18,-1,1,4
015K25,8,452,AS,exp,36,←,left,←,1.3860498999711126,True,19,-1,0,4
015K25,8,453,AS,exp,29,↑,up,↑,0.7299478000495583,True,19,1,1,5
015K25,8,454,AS,exp,29,←,left,←,0.5093437000177801,True,18,1,0,5
015K25,8,455,AS,exp,43,↓,left,←,0.43380370014347136,False,18,-1,1,6
015K25,8,456,AS,exp,39,←,right,→,0.49583290005102754,False,19,-1,0,6
015K25,8,457,AS,exp,42,↑,up,↑,0.8320212999824435,True,20,-1,0,6
015K25,8,458,AS,exp,33,←,left,←,0.5212624999694526,True,20,1,1,7
015K25,8,459,AS,exp,33,↑,up,↑,0.7448994000442326,True,19,1,0,7
015K25,8,460,AS,exp,38,↓,down,↓,0.8216355999466032,True,19,1,0,7
015K25,8,461,AS,exp,50,→,right,→,0.6092414997983724,True,18,1,0,7
015K25,8,462,AS,exp,49,↓,down,↓,0.6147397998720407,True,18,1,0,7
015K25,8,463,AS,exp,33,↑,up,↑,0.8170211999677122,True,17,1,0,7
015K25,8,464,AS,exp,41,←,up,↑,0.8312740998808295,False,17,-1,1,8
015K25,8,465,AS,exp,27,→,right,→,0.592939400114119,True,18,-1,0,8
015K25,8,466,AS,exp,43,↓,down,↓,0.7296581999398768,True,18,1,1,9
015K25,8,467,AS,exp,26,↑,up,↑,1.0077349999919534,True,17,1,0,9
015K25,8,468,AS,exp,40,←,left,←,0.7698920001275837,True,17,1,0,9
015K25,8,469,AS,exp,34,↓,right,→,0.6219925999175757,False,16,-1,1,10
015K25,8,470,AS,exp,32,↑,up,↑,0.8082820000126958,True,17,-1,0,10
015K25,8,471,AS,exp,36,→,right,→,0.6379470999818295,True,17,1,1,11
015K25,8,472,AS,exp,45,↓,down,↓,0.8902968000620604,True,16,1,0,11
015K25,8,473,AS,exp,33,↑,up,↑,0.5941765999887139,True,16,1,0,11
015K25,8,474,AS,exp,32,↓,down,↓,0.5819405000656843,True,15,1,0,11
015K25,8,475,AS,exp,25,←,right,→,0.6519469998311251,False,15,-1,1,12
015K25,8,476,AS,exp,49,↓,down,↓,0.6808513000141829,True,16,-1,0,12
015K25,8,477,AS,exp,49,→,right,→,0.6160691000986844,True,16,1,1,13
015K25,8,478,AS,exp,49,↑,down,↓,0.5958347998093814,False,15,-1,1,14
