PART_ID,Block_no,Trial_no,Block_type,Trial_type,CSI,Stim_letter,Key_pressed,letter_choose,Rt,Corr,Stimulus Time,Level,Reversal,Revs_count
070M20,1,1,PS,train,29,→,right,→,1.1987318999599665,True,30,-,-,-
070M20,1,2,PS,train,33,←,left,←,0.417864799965173,True,30,-,-,-
070M20,1,3,PS,train,35,↓,down,↓,0.5674305000575259,True,30,-,-,-
070M20,1,4,PS,train,45,→,right,→,0.4504454000853002,True,30,-,-,-
070M20,1,5,PS,train,40,←,left,←,0.3679456999525428,True,30,-,-,-
070M20,1,6,PS,train,40,↑,up,↑,0.5339374000905082,True,30,-,-,-
070M20,1,7,PS,train,41,←,left,←,0.4338546999497339,True,30,-,-,-
070M20,1,8,PS,train,32,→,right,→,0.7123429999919608,True,30,-,-,-
070M20,1,9,PS,train,45,↓,down,↓,0.46776560007128865,True,30,-,-,-
070M20,1,10,PS,train,38,←,left,←,0.533861399977468,True,30,-,-,-
070M20,2,11,AS,train,31,↑,no_key,no_letter,-1.0,False,45,-,-,-
070M20,2,12,AS,train,45,→,right,→,0.5511150000384077,True,45,-,-,-
070M20,2,13,AS,train,35,↑,no_key,no_letter,-1.0,False,45,-,-,-
070M20,2,14,AS,train,38,→,right,→,1.4364910000003874,True,45,-,-,-
070M20,2,15,AS,train,43,↑,up,↑,0.5012341000838205,True,45,-,-,-
070M20,2,16,AS,train,28,←,left,←,0.6344046000158414,True,45,-,-,-
070M20,2,17,AS,train,44,↓,down,↓,0.6678664000937715,True,45,-,-,-
070M20,2,18,AS,train,40,←,left,←,0.5178342000581324,True,45,-,-,-
070M20,2,19,AS,train,29,↑,left,←,0.3345604999922216,False,45,-,-,-
070M20,2,20,AS,train,43,←,left,←,0.43442800000775605,True,45,-,-,-
070M20,-,21,PS,adaptive,35,↓,left,←,1.8250741999363527,False,10,-1,0,0
070M20,-,22,PS,adaptive,47,←,left,←,0.4099639999913052,True,11,-1,0,0
070M20,-,23,PS,adaptive,27,↓,down,↓,0.5390474000014365,True,11,1,1,1
070M20,-,24,PS,adaptive,47,←,left,←,0.4190151001093909,True,10,1,0,1
070M20,-,25,PS,adaptive,27,↓,down,↓,0.4766805999679491,True,10,1,0,1
070M20,-,26,PS,adaptive,40,↑,up,↑,0.45166310004424304,True,9,1,0,1
070M20,-,27,PS,adaptive,26,←,left,←,0.4342171000316739,True,9,1,0,1
070M20,-,28,PS,adaptive,26,↓,up,↑,0.611045700032264,False,8,-1,1,2
070M20,-,29,PS,adaptive,37,↑,up,↑,0.4719520000508055,True,9,-1,0,2
070M20,-,30,PS,adaptive,34,←,left,←,0.4319071000209078,True,9,1,1,3
070M20,-,31,PS,adaptive,47,↓,down,↓,0.433661499992013,True,8,1,0,3
070M20,-,32,PS,adaptive,32,←,left,←,0.41362390003632754,True,8,1,0,3
070M20,-,33,PS,adaptive,50,↓,left,←,0.6887714999029413,False,7,-1,1,4
070M20,-,34,AS,adaptive,29,←,left,←,0.7036489000311121,True,20,0,0,0
070M20,-,35,AS,adaptive,46,↓,down,↓,0.6392300999723375,True,20,1,0,0
070M20,-,36,AS,adaptive,25,→,down,↓,0.8541424999712035,False,19,-1,1,1
070M20,-,37,AS,adaptive,25,↓,up,↑,0.9024021000368521,False,20,-1,0,1
070M20,-,38,AS,adaptive,26,→,right,→,0.6374872999731451,True,21,-1,0,1
070M20,-,39,AS,adaptive,41,↓,down,↓,0.6013595999684185,True,21,1,1,2
070M20,-,40,AS,adaptive,25,←,left,←,0.6236250000074506,True,20,1,0,2
070M20,-,41,AS,adaptive,26,→,right,→,0.6123079999815673,True,20,1,0,2
070M20,-,42,AS,adaptive,37,↑,up,↑,0.589709599968046,True,19,1,0,2
070M20,-,43,AS,adaptive,46,↓,up,↑,0.6651689000427723,False,19,-1,1,3
070M20,-,44,AS,adaptive,41,←,left,←,0.5923926999093965,True,20,-1,0,3
070M20,-,45,AS,adaptive,39,↓,down,↓,0.6583202999318019,True,20,1,1,4
070M20,1,46,AS,intra_train,43,←,left,←,0.6351982000051066,True,28,-,-,-
070M20,1,47,AS,intra_train,38,↓,down,↓,0.6510907000629231,True,28,-,-,-
070M20,1,48,AS,intra_train,39,→,left,←,0.4837874999502674,False,28,-,-,-
070M20,1,49,AS,intra_train,33,↓,down,↓,0.6716063000494614,True,28,-,-,-
070M20,1,50,AS,intra_train,38,↑,down,↓,0.6004193000262603,False,28,-,-,-
070M20,1,51,AS,exp,39,↓,down,↓,0.5466585999820381,True,19,0,0,0
070M20,1,52,AS,exp,49,→,right,→,0.5754001999739558,True,19,1,0,0
070M20,1,53,AS,exp,46,↓,down,↓,0.5544027999276295,True,18,1,0,0
070M20,1,54,AS,exp,49,→,right,→,0.5256353999720886,True,18,1,0,0
070M20,1,55,AS,exp,29,↑,down,↓,0.6591617999365553,False,17,-1,1,1
070M20,1,56,AS,exp,34,→,right,→,0.33371820009779185,True,18,-1,0,1
070M20,1,57,AS,exp,26,←,right,→,0.5035693999379873,False,18,-1,0,1
070M20,1,58,AS,exp,28,↓,down,↓,0.6505453999852762,True,19,-1,0,1
070M20,1,59,AS,exp,46,↑,up,↑,0.4005866999505088,True,19,1,1,2
070M20,1,60,AS,exp,45,↓,down,↓,0.5463944999501109,True,18,1,0,2
070M20,1,61,AS,exp,33,→,right,→,1.0203538000350818,True,18,1,0,2
070M20,1,62,AS,exp,34,←,left,←,0.4788585000205785,True,17,1,0,2
070M20,1,63,AS,exp,43,→,right,→,0.4982132000150159,True,17,1,0,2
070M20,1,64,AS,exp,33,↑,up,↑,0.5620160000398755,True,16,1,0,2
070M20,1,65,AS,exp,39,←,left,←,0.3838441999396309,True,16,1,0,2
070M20,1,66,AS,exp,32,→,right,→,0.35039130004588515,True,15,1,0,2
070M20,1,67,AS,exp,32,←,left,←,0.31727160001173615,True,15,1,0,2
070M20,1,68,AS,exp,31,↑,up,↑,0.6045833999523893,True,14,1,0,2
070M20,1,69,AS,exp,25,→,right,→,0.3171572000719607,True,14,1,0,2
070M20,1,70,AS,exp,48,↑,up,↑,0.8013350999681279,True,13,1,0,2
070M20,1,71,AS,exp,38,↓,down,↓,0.4127625999972224,True,13,1,0,2
070M20,1,72,AS,exp,35,←,right,→,0.6155885000480339,False,12,-1,1,3
070M20,1,73,AS,exp,30,↓,up,↑,0.4510584999807179,False,13,-1,0,3
070M20,1,74,AS,exp,48,↑,up,↑,0.4936073999851942,True,14,-1,0,3
070M20,1,75,AS,exp,37,←,left,←,0.5415199999697506,True,14,1,1,4
070M20,1,76,AS,exp,34,↑,up,↑,0.4580310001038015,True,13,1,0,4
070M20,1,77,AS,exp,50,→,right,→,0.33381920005194843,True,13,1,0,4
070M20,1,78,AS,exp,36,↓,down,↓,0.5313456000294536,True,12,1,0,4
070M20,1,79,AS,exp,29,↑,up,↑,0.7029930000426248,True,12,1,0,4
070M20,1,80,AS,exp,29,→,left,←,0.4543326999992132,False,11,-1,1,5
070M20,1,81,AS,exp,44,↓,up,↑,0.6279118000529706,False,12,-1,0,5
070M20,1,82,AS,exp,25,↑,up,↑,0.35057040001265705,True,13,-1,0,5
070M20,1,83,AS,exp,46,→,right,→,0.9286042000167072,True,13,1,1,6
070M20,1,84,AS,exp,37,←,right,→,0.48486239998601377,False,12,-1,1,7
070M20,1,85,AS,exp,35,→,left,←,0.8146073999814689,False,13,-1,0,7
070M20,1,86,AS,exp,42,↑,up,↑,0.35060740006156266,True,14,-1,0,7
070M20,1,87,AS,exp,32,→,right,→,0.4056235000025481,True,14,1,1,8
070M20,1,88,AS,exp,40,↓,right,→,0.8406216000439599,False,13,-1,1,9
070M20,1,89,AS,exp,29,↑,up,↑,0.8114197000395507,True,14,-1,0,9
070M20,1,90,AS,exp,27,←,left,←,0.4861831999151036,True,14,1,1,10
070M20,1,91,AS,exp,32,→,left,←,0.4845239999704063,False,13,-1,1,11
070M20,1,92,AS,exp,33,←,right,→,0.5116219000192359,False,14,-1,0,11
070M20,1,93,AS,exp,46,↑,up,↑,0.5378452999284491,True,15,-1,0,11
070M20,1,94,AS,exp,26,→,up,↑,0.6622727999929339,False,15,-1,0,11
070M20,1,95,AS,exp,33,↑,up,↑,0.4991304000141099,True,16,-1,0,11
070M20,1,96,AS,exp,31,←,left,←,0.5808440999826416,True,16,1,1,12
070M20,1,97,AS,exp,45,→,left,←,0.5315299000358209,False,15,-1,1,13
070M20,1,98,AS,exp,49,←,left,←,0.47969040006864816,True,16,-1,0,13
070M20,1,99,AS,exp,33,↑,up,↑,0.4697232999606058,True,16,1,1,14
070M20,2,100,PS,intra_train,50,→,right,→,0.4581132000312209,True,12,-,-,-
070M20,2,101,PS,intra_train,27,↓,right,→,0.36732600000686944,False,12,-,-,-
070M20,2,102,PS,intra_train,26,↑,up,↑,0.4204987999983132,True,12,-,-,-
070M20,2,103,PS,intra_train,40,←,left,←,0.41489540005568415,True,12,-,-,-
070M20,2,104,PS,intra_train,37,↓,down,↓,0.5881997999968007,True,12,-,-,-
070M20,2,105,PS,exp,48,→,down,↓,0.5817175999982283,False,8,-1,0,0
070M20,2,106,PS,exp,35,↑,up,↑,0.46654519997537136,True,9,-1,0,0
070M20,2,107,PS,exp,42,→,right,→,0.4113951000617817,True,9,1,1,1
070M20,2,108,PS,exp,29,←,left,←,0.540545399999246,True,8,1,0,1
070M20,2,109,PS,exp,48,↑,up,↑,0.39341380004771054,True,8,1,0,1
070M20,2,110,PS,exp,36,→,left,←,0.4684544999618083,False,7,-1,1,2
070M20,2,111,PS,exp,44,↓,up,↑,0.6043049999279901,False,8,-1,0,2
070M20,2,112,PS,exp,25,↑,left,←,0.32252159994095564,False,9,-1,0,2
070M20,2,113,PS,exp,50,←,left,←,0.5400115000084043,True,10,-1,0,2
070M20,2,114,PS,exp,44,↑,right,→,0.37236179993487895,False,10,-1,0,2
070M20,2,115,PS,exp,48,←,left,←,0.39604569994844496,True,11,-1,0,2
070M20,2,116,PS,exp,49,→,left,←,0.6664534999290481,False,11,-1,0,2
070M20,2,117,PS,exp,46,↑,up,↑,0.4401830000570044,True,12,-1,0,2
070M20,2,118,PS,exp,44,↓,left,←,0.4076200999552384,False,12,-1,0,2
070M20,2,119,PS,exp,29,↑,up,↑,0.4297267000656575,True,13,-1,0,2
070M20,2,120,PS,exp,27,←,right,→,1.4407298000296578,False,13,-1,0,2
070M20,2,121,PS,exp,28,↑,up,↑,1.3362902000080794,True,14,-1,0,2
070M20,2,122,PS,exp,32,→,right,→,0.40225209994241595,True,14,1,1,3
070M20,2,123,PS,exp,37,↑,left,←,0.6062565998872742,False,13,-1,1,4
070M20,2,124,PS,exp,33,↓,left,←,0.33374649996403605,False,14,-1,0,4
070M20,2,125,PS,exp,31,→,right,→,0.9050649999408051,True,15,-1,0,4
070M20,2,126,PS,exp,39,↓,down,↓,0.8182586999610066,True,15,1,1,5
070M20,2,127,PS,exp,28,→,right,→,0.4356673000147566,True,14,1,0,5
070M20,2,128,PS,exp,28,↓,down,↓,0.4261804000707343,True,14,1,0,5
070M20,2,129,PS,exp,30,←,left,←,0.419448500033468,True,13,1,0,5
070M20,2,130,PS,exp,46,↓,down,↓,0.4020649999147281,True,13,1,0,5
070M20,2,131,PS,exp,41,↑,right,→,0.5180132000241429,False,12,-1,1,6
070M20,2,132,PS,exp,31,↓,right,→,0.48178250005003065,False,13,-1,0,6
070M20,2,133,PS,exp,35,↑,up,↑,0.48294180002994835,True,14,-1,0,6
070M20,2,134,PS,exp,42,→,right,→,0.45579639996867627,True,14,1,1,7
070M20,2,135,PS,exp,46,←,right,→,0.40371630003210157,False,13,-1,1,8
070M20,2,136,PS,exp,49,→,right,→,0.4080764000536874,True,14,-1,0,8
070M20,2,137,PS,exp,45,↑,right,→,0.3672671999083832,False,14,-1,0,8
070M20,2,138,PS,exp,26,→,right,→,0.5791148000862449,True,15,-1,0,8
070M20,2,139,PS,exp,31,↑,up,↑,0.838327500037849,True,15,1,1,9
070M20,2,140,PS,exp,25,↓,down,↓,0.6059600999578834,True,14,1,0,9
070M20,2,141,PS,exp,25,↑,up,↑,0.7979308000067249,True,14,1,0,9
070M20,2,142,PS,exp,39,↓,up,↑,0.4489818000001833,False,13,-1,1,10
070M20,2,143,PS,exp,44,←,left,←,0.5181979000335559,True,14,-1,0,10
070M20,2,144,PS,exp,43,→,right,→,0.7552385999588296,True,14,1,1,11
070M20,2,145,PS,exp,48,←,left,←,0.4369033999973908,True,13,1,0,11
070M20,2,146,PS,exp,41,→,left,←,0.9570064999861643,False,13,-1,1,12
070M20,2,147,PS,exp,42,←,left,←,0.4234672000166029,True,14,-1,0,12
070M20,2,148,PS,exp,48,↑,up,↑,0.4486330000218004,True,14,1,1,13
070M20,2,149,PS,exp,33,↓,down,↓,0.43556799995712936,True,13,1,0,13
070M20,2,150,PS,exp,40,→,right,→,0.472868200042285,True,13,1,0,13
070M20,2,151,PS,exp,47,←,right,→,0.8780285000102594,False,12,-1,1,14
070M20,3,152,PS,intra_train,38,↑,right,→,1.5737051999894902,False,12,-,-,-
070M20,3,153,PS,intra_train,38,←,left,←,0.5186021999688819,True,12,-,-,-
070M20,3,154,PS,intra_train,32,→,right,→,0.33398289990145713,True,12,-,-,-
070M20,3,155,PS,intra_train,33,↓,left,←,0.3820127999642864,False,12,-,-,-
070M20,3,156,PS,intra_train,47,←,left,←,0.389672200079076,True,12,-,-,-
070M20,3,157,PS,exp,35,→,right,→,0.330687899957411,True,8,0,0,0
070M20,3,158,PS,exp,42,↑,down,↓,1.1725853000534698,False,8,-1,0,0
070M20,3,159,PS,exp,49,←,left,←,0.5531930999131873,True,9,-1,0,0
070M20,3,160,PS,exp,26,↓,up,↑,0.42497580009512603,False,9,-1,0,0
070M20,3,161,PS,exp,38,→,left,←,0.4224843999836594,False,10,-1,0,0
070M20,3,162,PS,exp,34,←,left,←,0.9691840000450611,True,11,-1,0,0
070M20,3,163,PS,exp,38,↓,down,↓,0.42711009993217885,True,11,1,1,1
070M20,3,164,PS,exp,47,↑,up,↑,0.42503769998438656,True,10,1,0,1
070M20,3,165,PS,exp,41,↓,down,↓,0.463450999930501,True,10,1,0,1
070M20,3,166,PS,exp,36,←,left,←,0.42928349995054305,True,9,1,0,1
070M20,3,167,PS,exp,31,↑,down,↓,0.48989570001140237,False,9,-1,1,2
070M20,3,168,PS,exp,40,←,left,←,0.545549500035122,True,10,-1,0,2
070M20,3,169,PS,exp,41,↑,right,→,0.7851458999793977,False,10,-1,0,2
070M20,3,170,PS,exp,45,→,right,→,0.4546806999715045,True,11,-1,0,2
070M20,3,171,PS,exp,34,↓,down,↓,0.5510797000024468,True,11,1,1,3
070M20,3,172,PS,exp,44,↑,up,↑,0.6541957999579608,True,10,1,0,3
070M20,3,173,PS,exp,39,→,right,→,0.41095799999311566,True,10,1,0,3
070M20,3,174,PS,exp,43,↓,down,↓,0.46086830005515367,True,9,1,0,3
070M20,3,175,PS,exp,37,↑,down,↓,0.48303330002818257,False,9,-1,1,4
070M20,3,176,PS,exp,25,↓,down,↓,0.4044191000284627,True,10,-1,0,4
070M20,3,177,PS,exp,47,↑,up,↑,0.4567823000252247,True,10,1,1,5
070M20,3,178,PS,exp,31,→,down,↓,0.6417830000864342,False,9,-1,1,6
070M20,3,179,PS,exp,42,←,left,←,0.38145250000525266,True,10,-1,0,6
070M20,3,180,PS,exp,40,↓,right,→,0.3968147999839857,False,10,-1,0,6
070M20,3,181,PS,exp,46,←,right,→,0.38980490004178137,False,11,-1,0,6
070M20,3,182,PS,exp,48,→,right,→,0.4495516000315547,True,12,-1,0,6
070M20,3,183,PS,exp,41,↑,up,↑,0.38604490004945546,True,12,1,1,7
070M20,3,184,PS,exp,50,←,left,←,0.5076420000987127,True,11,1,0,7
070M20,3,185,PS,exp,42,↑,up,↑,0.38759529998060316,True,11,1,0,7
070M20,3,186,PS,exp,49,→,right,→,0.4363123000366613,True,10,1,0,7
070M20,3,187,PS,exp,44,↑,up,↑,0.7686232000123709,True,10,1,0,7
070M20,3,188,PS,exp,43,←,left,←,0.3768170999828726,True,9,1,0,7
070M20,3,189,PS,exp,40,→,right,→,0.613527899957262,True,9,1,0,7
070M20,3,190,PS,exp,35,←,right,→,0.39349290006794035,False,8,-1,1,8
070M20,3,191,PS,exp,43,→,right,→,0.36669729999266565,True,9,-1,0,8
070M20,3,192,PS,exp,31,↑,right,→,0.5645424999529496,False,9,-1,0,8
070M20,3,193,PS,exp,44,←,left,←,0.5380439000437036,True,10,-1,0,8
070M20,3,194,PS,exp,36,↓,up,↑,0.38173120003193617,False,10,-1,0,8
070M20,3,195,PS,exp,33,←,left,←,0.4459833001019433,True,11,-1,0,8
070M20,3,196,PS,exp,35,→,right,→,0.4859403999289498,True,11,1,1,9
070M20,3,197,PS,exp,43,←,left,←,0.8067235000198707,True,10,1,0,9
070M20,3,198,PS,exp,36,↓,down,↓,0.4278516999911517,True,10,1,0,9
070M20,3,199,PS,exp,28,←,left,←,0.5412481999956071,True,9,1,0,9
070M20,3,200,PS,exp,46,↓,down,↓,0.4787596999667585,True,9,1,0,9
070M20,3,201,PS,exp,26,←,left,←,0.5496975999558344,True,8,1,0,9
070M20,3,202,PS,exp,44,↑,up,↑,0.40413399995304644,True,8,1,0,9
070M20,3,203,PS,exp,32,←,left,←,0.48470949998591095,True,7,1,0,9
070M20,3,204,PS,exp,43,↓,down,↓,0.4231312000192702,True,7,1,0,9
070M20,3,205,PS,exp,46,←,left,←,0.3821313000516966,True,6,1,0,9
070M20,3,206,PS,exp,28,↑,left,←,0.6535229999572039,False,6,-1,1,10
070M20,3,207,PS,exp,44,←,left,←,0.4219463999615982,True,7,-1,0,10
070M20,3,208,PS,exp,47,↓,down,↓,0.4568475999403745,True,7,1,1,11
070M20,3,209,PS,exp,34,↑,down,↓,0.5797104000812396,False,6,-1,1,12
070M20,3,210,PS,exp,30,←,right,→,0.4089429999003187,False,7,-1,0,12
070M20,3,211,PS,exp,34,↑,up,↑,0.5900621999753639,True,8,-1,0,12
070M20,3,212,PS,exp,48,↓,down,↓,0.48432469996623695,True,8,1,1,13
070M20,3,213,PS,exp,30,←,left,←,0.4150705999927595,True,7,1,0,13
070M20,3,214,PS,exp,39,↑,up,↑,0.4160588000668213,True,7,1,0,13
070M20,3,215,PS,exp,47,←,left,←,0.37708819995168597,True,6,1,0,13
070M20,3,216,PS,exp,48,→,right,→,0.41914410004392266,True,6,1,0,13
070M20,3,217,PS,exp,28,↓,left,←,0.5651211999356747,False,5,-1,1,14
070M20,4,218,AS,intra_train,39,←,right,→,0.5005113000515848,False,28,-,-,-
070M20,4,219,AS,intra_train,36,→,right,→,0.5840922999195755,True,28,-,-,-
070M20,4,220,AS,intra_train,27,↓,down,↓,0.5838936999207363,True,28,-,-,-
070M20,4,221,AS,intra_train,40,←,left,←,0.4838370999787003,True,28,-,-,-
070M20,4,222,AS,intra_train,38,↑,up,↑,0.642526000039652,True,28,-,-,-
070M20,4,223,AS,exp,28,↓,down,↓,0.6134907000232488,True,19,0,0,0
070M20,4,224,AS,exp,41,↑,up,↑,0.785085599985905,True,19,1,0,0
070M20,4,225,AS,exp,31,←,left,←,0.6972472999477759,True,18,1,0,0
070M20,4,226,AS,exp,28,↑,up,↑,0.5476261000148952,True,18,1,0,0
070M20,4,227,AS,exp,34,→,right,→,0.611132699996233,True,17,1,0,0
070M20,4,228,AS,exp,45,←,left,←,0.4912888000253588,True,17,1,0,0
070M20,4,229,AS,exp,36,↓,down,↓,0.5747440999839455,True,16,1,0,0
070M20,4,230,AS,exp,39,←,left,←,0.3337427000515163,True,16,1,0,0
070M20,4,231,AS,exp,33,↓,down,↓,0.4379701999714598,True,15,1,0,0
070M20,4,232,AS,exp,46,↑,up,↑,1.1084740000078455,True,15,1,0,0
070M20,4,233,AS,exp,40,→,right,→,0.3671434000134468,True,14,1,0,0
070M20,4,234,AS,exp,43,↓,down,↓,0.6028395999455824,True,14,1,0,0
070M20,4,235,AS,exp,45,↑,up,↑,0.8226684000110254,True,13,1,0,0
070M20,4,236,AS,exp,44,→,down,↓,0.6460575999226421,False,13,-1,1,1
070M20,4,237,AS,exp,28,←,right,→,0.42510840005706996,False,14,-1,0,1
070M20,4,238,AS,exp,48,↓,down,↓,0.9384150999831036,True,15,-1,0,1
070M20,4,239,AS,exp,37,↑,up,↑,0.5608974000206217,True,15,1,1,2
070M20,4,240,AS,exp,48,→,left,←,0.4180579000385478,False,14,-1,1,3
070M20,4,241,AS,exp,26,↓,down,↓,0.5751687999581918,True,15,-1,0,3
070M20,4,242,AS,exp,38,←,right,→,0.7446449000854045,False,15,-1,0,3
070M20,4,243,AS,exp,44,↑,up,↑,0.5218979999190196,True,16,-1,0,3
070M20,4,244,AS,exp,39,←,left,←,0.560372699983418,True,16,1,1,4
070M20,4,245,AS,exp,46,↓,down,↓,0.4551980000687763,True,15,1,0,4
070M20,4,246,AS,exp,35,→,left,←,1.0163056999444962,False,15,-1,1,5
070M20,4,247,AS,exp,40,↑,right,→,0.5235690999543294,False,16,-1,0,5
070M20,4,248,AS,exp,42,→,left,←,0.3837307000067085,False,17,-1,0,5
070M20,4,249,AS,exp,29,↑,left,←,0.6220463999779895,False,18,-1,0,5
070M20,4,250,AS,exp,47,←,right,→,0.5287471999181435,False,19,-1,0,5
070M20,4,251,AS,exp,33,→,right,→,0.5687745999312028,True,20,-1,0,5
070M20,4,252,AS,exp,26,↑,up,↑,0.5290244000498205,True,20,1,1,6
070M20,4,253,AS,exp,33,→,right,→,0.3838156000711024,True,19,1,0,6
070M20,4,254,AS,exp,34,↑,left,←,0.4504535999149084,False,19,-1,1,7
070M20,4,255,AS,exp,49,→,right,→,0.5583102999953553,True,20,-1,0,7
070M20,4,256,AS,exp,48,↓,up,↑,0.4170054999412969,False,20,-1,0,7
070M20,4,257,AS,exp,43,→,left,←,0.4838408000068739,False,21,-1,0,7
070M20,4,258,AS,exp,49,↑,up,↑,1.0071934999432415,True,22,-1,0,7
070M20,4,259,AS,exp,36,↓,down,↓,0.40073359990492463,True,22,1,1,8
070M20,4,260,AS,exp,36,←,left,←,0.45042540004942566,True,21,1,0,8
070M20,4,261,AS,exp,44,↑,up,↑,0.6075701001100242,True,21,1,0,8
070M20,4,262,AS,exp,46,←,left,←,0.8827664999989793,True,20,1,0,8
070M20,4,263,AS,exp,40,↓,down,↓,0.9529426000081003,True,20,1,0,8
070M20,4,264,AS,exp,44,→,no_key,no_letter,-1.0,False,19,-1,1,9
070M20,4,265,AS,exp,29,←,left,←,0.7972602000227198,True,20,-1,0,9
070M20,4,266,AS,exp,27,↑,down,↓,0.7648739999858662,False,20,-1,0,9
070M20,4,267,AS,exp,25,←,left,←,0.7481855000369251,True,21,-1,0,9
070M20,4,268,AS,exp,45,→,right,→,0.9369285999564454,True,21,1,1,10
070M20,4,269,AS,exp,36,←,left,←,0.8529969999799505,True,20,1,0,10
070M20,4,270,AS,exp,45,↑,up,↑,0.5677005999023095,True,20,1,0,10
070M20,4,271,AS,exp,40,↓,down,↓,0.746746200020425,True,19,1,0,10
070M20,4,272,AS,exp,29,←,up,↑,1.316429500002414,False,19,-1,1,11
070M20,4,273,AS,exp,33,↑,up,↑,0.5562082999385893,True,20,-1,0,11
070M20,4,274,AS,exp,40,↓,down,↓,0.46713449992239475,True,20,1,1,12
070M20,4,275,AS,exp,34,←,left,←,0.6537215999560431,True,19,1,0,12
070M20,4,276,AS,exp,47,↑,up,↑,0.5481235999614,True,19,1,0,12
070M20,4,277,AS,exp,50,←,left,←,0.6018772999523208,True,18,1,0,12
070M20,4,278,AS,exp,45,↓,right,→,0.5930609999923036,False,18,-1,1,13
070M20,4,279,AS,exp,31,→,right,→,1.0022069999249652,True,19,-1,0,13
070M20,4,280,AS,exp,27,←,left,←,0.40065329999197274,True,19,1,1,14
070M20,5,281,AS,intra_train,33,→,right,→,0.7737339999293908,True,28,-,-,-
070M20,5,282,AS,intra_train,46,←,left,←,0.5002744999947026,True,28,-,-,-
070M20,5,283,AS,intra_train,46,↓,down,↓,0.5171811999753118,True,28,-,-,-
070M20,5,284,AS,intra_train,25,→,right,→,0.5171377999940887,True,28,-,-,-
070M20,5,285,AS,intra_train,32,↑,up,↑,0.4179613000014797,True,28,-,-,-
070M20,5,286,AS,exp,42,←,up,↑,0.5243274999083951,False,19,-1,0,0
070M20,5,287,AS,exp,26,↑,up,↑,0.40053260000422597,True,20,-1,0,0
070M20,5,288,AS,exp,43,←,left,←,0.5930678000440821,True,20,1,1,1
070M20,5,289,AS,exp,35,↑,up,↑,0.6240794999757782,True,19,1,0,1
070M20,5,290,AS,exp,37,←,left,←,1.0022606999846175,True,19,1,0,1
070M20,5,291,AS,exp,41,↓,down,↓,0.7829830999253318,True,18,1,0,1
070M20,5,292,AS,exp,32,←,left,←,0.5839214000152424,True,18,1,0,1
070M20,5,293,AS,exp,33,↓,left,←,1.314049300039187,False,17,-1,1,2
070M20,5,294,AS,exp,38,↑,up,↑,0.604202099959366,True,18,-1,0,2
070M20,5,295,AS,exp,44,→,right,→,0.4169801000971347,True,18,1,1,3
070M20,5,296,AS,exp,38,↓,left,←,0.8634849999798462,False,17,-1,1,4
070M20,5,297,AS,exp,38,←,right,→,0.4002771000377834,False,18,-1,0,4
070M20,5,298,AS,exp,27,↓,down,↓,0.8471141000045463,True,19,-1,0,4
070M20,5,299,AS,exp,38,←,left,←,0.49304540001321584,True,19,1,1,5
070M20,5,300,AS,exp,41,↑,up,↑,0.48552139999810606,True,18,1,0,5
070M20,5,301,AS,exp,31,→,right,→,0.5926593000767753,True,18,1,0,5
070M20,5,302,AS,exp,39,↑,up,↑,0.4894126000581309,True,17,1,0,5
070M20,5,303,AS,exp,31,←,left,←,0.5330315000610426,True,17,1,0,5
070M20,5,304,AS,exp,45,→,right,→,0.4003489000024274,True,16,1,0,5
070M20,5,305,AS,exp,37,←,left,←,0.8833460999885574,True,16,1,0,5
070M20,5,306,AS,exp,44,↑,left,←,0.5147437000414357,False,15,-1,1,6
070M20,5,307,AS,exp,44,↓,down,↓,0.4565954999998212,True,16,-1,0,6
070M20,5,308,AS,exp,44,↑,up,↑,0.3670648999977857,True,16,1,1,7
070M20,5,309,AS,exp,25,→,left,←,0.6465239999815822,False,15,-1,1,8
070M20,5,310,AS,exp,49,↑,up,↑,0.505856900010258,True,16,-1,0,8
070M20,5,311,AS,exp,31,←,left,←,0.7278057000366971,True,16,1,1,9
070M20,5,312,AS,exp,44,→,right,→,0.8558102000970393,True,15,1,0,9
070M20,5,313,AS,exp,45,↓,up,↑,1.4084380000131205,False,15,-1,1,10
070M20,5,314,AS,exp,39,→,right,→,0.5622319000540301,True,16,-1,0,10
070M20,5,315,AS,exp,26,←,left,←,0.4835148999700323,True,16,1,1,11
070M20,5,316,AS,exp,39,→,left,←,1.0292199000250548,False,15,-1,1,12
070M20,5,317,AS,exp,26,↑,right,→,0.8399747000075877,False,16,-1,0,12
070M20,5,318,AS,exp,48,↓,no_key,no_letter,-1.0,False,17,-1,0,12
070M20,5,319,AS,exp,42,↑,left,←,1.8847601000452414,False,18,-1,0,12
070M20,5,320,AS,exp,39,→,right,→,0.3671392999822274,True,19,-1,0,12
070M20,5,321,AS,exp,32,↑,left,←,1.9570843999972567,False,19,-1,0,12
070M20,5,322,AS,exp,42,↓,down,↓,0.6727384999394417,True,20,-1,0,12
070M20,5,323,AS,exp,35,↑,up,↑,1.7530330000445247,True,20,1,1,13
070M20,5,324,AS,exp,38,↓,down,↓,0.5161613000091165,True,19,1,0,13
070M20,5,325,AS,exp,40,→,right,→,0.7473943999502808,True,19,1,0,13
070M20,5,326,AS,exp,48,←,right,→,0.5552290000487119,False,18,-1,1,14
070M20,6,327,PS,intra_train,45,↑,up,↑,0.529323700000532,True,12,-,-,-
070M20,6,328,PS,intra_train,27,→,right,→,0.5053484999807552,True,12,-,-,-
070M20,6,329,PS,intra_train,46,↓,down,↓,0.5382789000868797,True,12,-,-,-
070M20,6,330,PS,intra_train,26,→,right,→,0.4339970999862999,True,12,-,-,-
070M20,6,331,PS,intra_train,31,↓,down,↓,0.3916957000037655,True,12,-,-,-
070M20,6,332,PS,exp,33,←,right,→,0.45548779994715005,False,8,-1,0,0
070M20,6,333,PS,exp,41,↑,up,↑,0.4423784000100568,True,9,-1,0,0
070M20,6,334,PS,exp,43,→,right,→,0.38690230005886406,True,9,1,1,1
070M20,6,335,PS,exp,30,↓,right,→,0.37852589995600283,False,8,-1,1,2
070M20,6,336,PS,exp,27,←,left,←,0.39367909997235984,True,9,-1,0,2
070M20,6,337,PS,exp,40,→,right,→,0.37685980007518083,True,9,1,1,3
070M20,6,338,PS,exp,38,↑,right,→,0.33944570005405694,False,8,-1,1,4
070M20,6,339,PS,exp,43,↓,right,→,0.3710335000650957,False,9,-1,0,4
070M20,6,340,PS,exp,46,→,right,→,0.39361939998343587,True,10,-1,0,4
070M20,6,341,PS,exp,27,↑,left,←,0.339723699958995,False,10,-1,0,4
070M20,6,342,PS,exp,35,↓,left,←,0.424384200014174,False,11,-1,0,4
070M20,6,343,PS,exp,34,↑,right,→,0.31713360000867397,False,12,-1,0,4
070M20,6,344,PS,exp,45,→,right,→,0.8938012000871822,True,13,-1,0,4
070M20,6,345,PS,exp,25,←,left,←,0.6167383999563754,True,13,1,1,5
070M20,6,346,PS,exp,31,↑,up,↑,1.1263822000473738,True,12,1,0,5
070M20,6,347,PS,exp,34,←,left,←,0.4867223999463022,True,12,1,0,5
070M20,6,348,PS,exp,43,↓,down,↓,0.5528328999644145,True,11,1,0,5
070M20,6,349,PS,exp,33,↑,up,↑,0.3867547999834642,True,11,1,0,5
070M20,6,350,PS,exp,35,→,right,→,1.5854511000216007,True,10,1,0,5
070M20,6,351,PS,exp,45,←,left,←,0.5003875999245793,True,10,1,0,5
070M20,6,352,PS,exp,35,→,right,→,0.5671144999796525,True,9,1,0,5
070M20,6,353,PS,exp,38,←,left,←,0.28381050005555153,True,9,1,0,5
070M20,6,354,PS,exp,45,→,right,→,0.44623320002574474,True,8,1,0,5
070M20,6,355,PS,exp,42,↓,down,↓,0.43601430009584874,True,8,1,0,5
070M20,6,356,PS,exp,31,←,left,←,0.8471156999003142,True,7,1,0,5
070M20,6,357,PS,exp,27,↑,up,↑,0.3821778999408707,True,7,1,0,5
070M20,6,358,PS,exp,40,→,right,→,0.3514127000235021,True,6,1,0,5
070M20,6,359,PS,exp,37,↑,left,←,0.7375349000794813,False,6,-1,1,6
070M20,6,360,PS,exp,46,→,right,→,0.39953320007771254,True,7,-1,0,6
070M20,6,361,PS,exp,26,←,right,→,0.40200350002851337,False,7,-1,0,6
070M20,6,362,PS,exp,35,↑,left,←,0.34926330007147044,False,8,-1,0,6
070M20,6,363,PS,exp,38,↓,down,↓,0.46457170008216053,True,9,-1,0,6
070M20,6,364,PS,exp,28,→,left,←,0.3638390999985859,False,9,-1,0,6
070M20,6,365,PS,exp,35,←,left,←,0.4602911000838503,True,10,-1,0,6
070M20,6,366,PS,exp,35,→,right,→,0.3640111000277102,True,10,1,1,7
070M20,6,367,PS,exp,41,←,left,←,0.3394999000011012,True,9,1,0,7
070M20,6,368,PS,exp,42,↑,up,↑,0.38088249997235835,True,9,1,0,7
070M20,6,369,PS,exp,42,→,right,→,0.43550450005568564,True,8,1,0,7
070M20,6,370,PS,exp,32,←,left,←,0.738363099982962,True,8,1,0,7
070M20,6,371,PS,exp,33,↑,left,←,1.5677770000183955,False,7,-1,1,8
070M20,6,372,PS,exp,47,↓,down,↓,0.5158814999740571,True,8,-1,0,8
070M20,6,373,PS,exp,42,←,left,←,0.46722979994956404,True,8,1,1,9
070M20,6,374,PS,exp,28,↑,up,↑,0.43278799997642636,True,7,1,0,9
070M20,6,375,PS,exp,44,↓,left,←,0.5394494999200106,False,7,-1,1,10
070M20,6,376,PS,exp,37,↑,up,↑,0.45634090004023165,True,8,-1,0,10
070M20,6,377,PS,exp,43,↓,down,↓,0.4682557999622077,True,8,1,1,11
070M20,6,378,PS,exp,42,↑,up,↑,0.4003969000186771,True,7,1,0,11
070M20,6,379,PS,exp,41,←,right,→,0.4870000999653712,False,7,-1,1,12
070M20,6,380,PS,exp,50,→,right,→,0.405780200031586,True,8,-1,0,12
070M20,6,381,PS,exp,46,↓,right,→,0.7321814999449998,False,8,-1,0,12
070M20,6,382,PS,exp,36,→,left,←,0.3241787999868393,False,9,-1,0,12
070M20,6,383,PS,exp,26,↓,down,↓,0.4899207999696955,True,10,-1,0,12
070M20,6,384,PS,exp,48,←,left,←,0.4340797000331804,True,10,1,1,13
070M20,6,385,PS,exp,36,↑,up,↑,0.39400739991106093,True,9,1,0,13
070M20,6,386,PS,exp,28,→,right,→,0.3805124000646174,True,9,1,0,13
070M20,6,387,PS,exp,32,↑,up,↑,0.4157914000097662,True,8,1,0,13
070M20,6,388,PS,exp,41,→,right,→,0.3852723999880254,True,8,1,0,13
070M20,6,389,PS,exp,28,↓,down,↓,0.5217762999236584,True,7,1,0,13
070M20,6,390,PS,exp,43,↑,left,←,1.1135696999263018,False,7,-1,1,14
070M20,7,391,PS,intra_train,50,←,left,←,0.5732296999776736,True,12,-,-,-
070M20,7,392,PS,intra_train,34,↑,up,↑,0.492158499895595,True,12,-,-,-
070M20,7,393,PS,intra_train,36,←,left,←,0.48500220000278205,True,12,-,-,-
070M20,7,394,PS,intra_train,28,→,right,→,0.4611320999683812,True,12,-,-,-
070M20,7,395,PS,intra_train,43,↑,up,↑,0.4505027000559494,True,12,-,-,-
070M20,7,396,PS,exp,31,→,right,→,0.5470707999775186,True,8,0,0,0
070M20,7,397,PS,exp,25,↑,up,↑,0.39968240004964173,True,8,1,0,0
070M20,7,398,PS,exp,32,←,up,↑,0.5073491999646649,False,7,-1,1,1
070M20,7,399,PS,exp,42,↓,up,↑,0.47322179994080216,False,8,-1,0,1
070M20,7,400,PS,exp,33,←,left,←,0.4039769000373781,True,9,-1,0,1
070M20,7,401,PS,exp,33,↑,up,↑,0.43176260008476675,True,9,1,1,2
070M20,7,402,PS,exp,45,→,right,→,0.46247600007336587,True,8,1,0,2
070M20,7,403,PS,exp,31,↑,up,↑,0.420517300022766,True,8,1,0,2
070M20,7,404,PS,exp,41,→,right,→,0.40113730006851256,True,7,1,0,2
070M20,7,405,PS,exp,47,←,left,←,0.3714615000644699,True,7,1,0,2
070M20,7,406,PS,exp,41,↑,up,↑,0.48046240000985563,True,6,1,0,2
070M20,7,407,PS,exp,25,←,left,←,0.37518470000941306,True,6,1,0,2
070M20,7,408,PS,exp,46,→,right,→,0.4199193000094965,True,5,1,0,2
070M20,7,409,PS,exp,31,↓,up,↑,0.39639329991769046,False,5,-1,1,3
070M20,7,410,PS,exp,49,←,left,←,0.38877389999106526,True,6,-1,0,3
070M20,7,411,PS,exp,28,→,left,←,0.32508859992958605,False,6,-1,0,3
070M20,7,412,PS,exp,25,←,right,→,0.6420859999489039,False,7,-1,0,3
070M20,7,413,PS,exp,33,→,right,→,0.44361159997060895,True,8,-1,0,3
070M20,7,414,PS,exp,32,↑,left,←,0.7088572999928147,False,8,-1,0,3
070M20,7,415,PS,exp,25,↓,down,↓,0.47352349990978837,True,9,-1,0,3
070M20,7,416,PS,exp,49,←,left,←,0.3730411999858916,True,9,1,1,4
070M20,7,417,PS,exp,28,↑,up,↑,0.47346389992162585,True,8,1,0,4
070M20,7,418,PS,exp,34,←,left,←,0.36200039996765554,True,8,1,0,4
070M20,7,419,PS,exp,46,↓,down,↓,0.33576519996859133,True,7,1,0,4
070M20,7,420,PS,exp,46,↑,up,↑,0.45146410004235804,True,7,1,0,4
070M20,7,421,PS,exp,36,←,left,←,0.38460350001696497,True,6,1,0,4
070M20,7,422,PS,exp,25,→,right,→,0.40852069994434714,True,6,1,0,4
070M20,7,423,PS,exp,32,←,left,←,0.7951700000558048,True,5,1,0,4
070M20,7,424,PS,exp,44,→,left,←,0.5518701000837609,False,5,-1,1,5
070M20,7,425,PS,exp,36,↑,up,↑,0.42109289998188615,True,6,-1,0,5
070M20,7,426,PS,exp,41,←,up,↑,0.526893200003542,False,6,-1,0,5
070M20,7,427,PS,exp,49,→,right,→,0.3692861000308767,True,7,-1,0,5
070M20,7,428,PS,exp,46,←,left,←,0.3915328999282792,True,7,1,1,6
070M20,7,429,PS,exp,37,↑,left,←,1.449637999990955,False,6,-1,1,7
070M20,7,430,PS,exp,27,→,right,→,0.42100690002553165,True,7,-1,0,7
070M20,7,431,PS,exp,36,↑,up,↑,0.3864504999946803,True,7,1,1,8
070M20,7,432,PS,exp,26,→,left,←,0.7667926999274641,False,6,-1,1,9
070M20,7,433,PS,exp,28,←,left,←,0.44318350008688867,True,7,-1,0,9
070M20,7,434,PS,exp,33,↑,left,←,1.0023973999777809,False,7,-1,0,9
070M20,7,435,PS,exp,37,↓,down,↓,0.4936448000371456,True,8,-1,0,9
070M20,7,436,PS,exp,32,←,left,←,0.8446841000113636,True,8,1,1,10
070M20,7,437,PS,exp,49,→,right,→,0.3861777000129223,True,7,1,0,10
070M20,7,438,PS,exp,27,←,left,←,0.7375389999942854,True,7,1,0,10
070M20,7,439,PS,exp,34,↑,left,←,0.5426607000408694,False,6,-1,1,11
070M20,7,440,PS,exp,42,→,no_key,no_letter,-1.0,False,7,-1,0,11
070M20,7,441,PS,exp,42,←,left,←,0.4951981999911368,True,8,-1,0,11
070M20,7,442,PS,exp,50,↓,down,↓,0.43995929998345673,True,8,1,1,12
070M20,7,443,PS,exp,46,→,right,→,0.4637635999824852,True,7,1,0,12
070M20,7,444,PS,exp,50,↓,right,→,0.5650080000050366,False,7,-1,1,13
070M20,7,445,PS,exp,29,↑,right,→,0.4241557000204921,False,8,-1,0,13
070M20,7,446,PS,exp,29,←,left,←,0.828275499981828,True,9,-1,0,13
070M20,7,447,PS,exp,42,↓,down,↓,0.4081292001064867,True,9,1,1,14
070M20,8,448,AS,intra_train,48,↑,up,↑,0.4010653999866918,True,28,-,-,-
070M20,8,449,AS,intra_train,49,←,left,←,0.9820799001026899,True,28,-,-,-
070M20,8,450,AS,intra_train,30,↑,up,↑,0.7117436000844464,True,28,-,-,-
070M20,8,451,AS,intra_train,44,←,left,←,0.46727289992850274,True,28,-,-,-
070M20,8,452,AS,intra_train,32,↑,up,↑,0.5835656999843195,True,28,-,-,-
070M20,8,453,AS,exp,35,↓,up,↑,0.6471613999456167,False,19,-1,0,0
070M20,8,454,AS,exp,35,←,left,←,0.40028149995487183,True,20,-1,0,0
070M20,8,455,AS,exp,26,↑,up,↑,0.4005885999649763,True,20,1,1,1
070M20,8,456,AS,exp,38,↓,up,↑,0.5841829999117181,False,19,-1,1,2
070M20,8,457,AS,exp,41,←,left,←,0.5327641000039876,True,20,-1,0,2
070M20,8,458,AS,exp,35,→,up,↑,0.6570217999396846,False,20,-1,0,2
070M20,8,459,AS,exp,42,↑,up,↑,0.4505005000391975,True,21,-1,0,2
070M20,8,460,AS,exp,25,↓,up,↑,0.5245795000810176,False,21,-1,0,2
070M20,8,461,AS,exp,32,→,right,→,0.4672119999304414,True,22,-1,0,2
070M20,8,462,AS,exp,48,↓,down,↓,1.1407963000237942,True,22,1,1,3
070M20,8,463,AS,exp,26,→,up,↑,0.5887191999936476,False,21,-1,1,4
070M20,8,464,AS,exp,30,←,left,←,0.35047710000071675,True,22,-1,0,4
070M20,8,465,AS,exp,27,↓,right,→,0.5004574999911711,False,22,-1,0,4
070M20,8,466,AS,exp,36,↑,up,↑,0.4171974000055343,True,23,-1,0,4
070M20,8,467,AS,exp,28,←,left,←,0.4337619999423623,True,23,1,1,5
070M20,8,468,AS,exp,35,→,right,→,0.3012618999928236,True,22,1,0,5
070M20,8,469,AS,exp,28,↑,left,←,0.367084699915722,False,22,-1,1,6
070M20,8,470,AS,exp,28,←,left,←,0.40050190000329167,True,23,-1,0,6
070M20,8,471,AS,exp,30,↓,down,↓,0.7617962999502197,True,23,1,1,7
070M20,8,472,AS,exp,49,←,left,←,0.4003556000534445,True,22,1,0,7
070M20,8,473,AS,exp,50,→,left,←,0.5602771999547258,False,22,-1,1,8
070M20,8,474,AS,exp,40,←,left,←,0.41692430002149194,True,23,-1,0,8
070M20,8,475,AS,exp,40,→,right,→,0.4338178000180051,True,23,1,1,9
070M20,8,476,AS,exp,29,↑,down,↓,1.111899400013499,False,22,-1,1,10
070M20,8,477,AS,exp,28,←,left,←,0.3344492999603972,True,23,-1,0,10
070M20,8,478,AS,exp,25,↑,up,↑,0.4337593999225646,True,23,1,1,11
070M20,8,479,AS,exp,25,→,right,→,0.5476878000190482,True,22,1,0,11
070M20,8,480,AS,exp,28,←,up,↑,1.0044296000851318,False,22,-1,1,12
070M20,8,481,AS,exp,40,↓,down,↓,0.45035509997978806,True,23,-1,0,12
070M20,8,482,AS,exp,38,↑,right,→,0.9033844999503344,False,23,-1,0,12
070M20,8,483,AS,exp,33,←,left,←,0.40055049990769476,True,24,-1,0,12
070M20,8,484,AS,exp,43,↓,right,→,0.6360415000235662,False,24,-1,0,12
070M20,8,485,AS,exp,26,←,left,←,0.8924774000188336,True,25,-1,0,12
070M20,8,486,AS,exp,49,↑,right,→,0.8654616000130773,False,25,-1,0,12
070M20,8,487,AS,exp,45,↓,down,↓,0.753487900015898,True,26,-1,0,12
070M20,8,488,AS,exp,33,←,right,→,1.388588499976322,False,26,-1,0,12
070M20,8,489,AS,exp,36,→,left,←,0.433822900056839,False,27,-1,0,12
070M20,8,490,AS,exp,31,←,right,→,0.4671386999543756,False,28,-1,0,12
070M20,8,491,AS,exp,30,→,right,→,0.40117369999643415,True,29,-1,0,12
070M20,8,492,AS,exp,35,←,left,←,0.43465059995651245,True,29,1,1,13
070M20,8,493,AS,exp,34,↓,down,↓,0.4506565999472514,True,28,1,0,13
070M20,8,494,AS,exp,40,→,right,→,0.6406237001065165,True,28,1,0,13
070M20,8,495,AS,exp,48,↑,up,↑,0.688804299919866,True,27,1,0,13
070M20,8,496,AS,exp,36,←,right,→,0.48409779998473823,False,27,-1,1,14
