PART_ID,Block_no,Trial_no,Block_type,Trial_type,CSI,Stim_letter,Key_pressed,letter_choose,Rt,Corr,Stimulus Time,Level,Reversal,Revs_count
072M29,1,1,PS,train,33,→,right,→,0.6171324000000027,True,30,-,-,-
072M29,1,2,PS,train,31,↓,down,↓,0.7757265000000189,True,30,-,-,-
072M29,1,3,PS,train,30,←,no_key,no_letter,-1.0,False,30,-,-,-
072M29,1,4,PS,train,29,↑,no_key,no_letter,-1.0,False,30,-,-,-
072M29,1,5,PS,train,36,←,left,←,0.6689296000000127,True,30,-,-,-
072M29,1,6,PS,train,35,→,right,→,0.5837994000000037,True,30,-,-,-
072M29,1,7,PS,train,46,↑,up,↑,0.5838290000000086,True,30,-,-,-
072M29,1,8,PS,train,46,→,right,→,0.46817619999998783,True,30,-,-,-
072M29,1,9,PS,train,40,↓,down,↓,0.4837892000000181,True,30,-,-,-
072M29,1,10,PS,train,28,←,left,←,0.567005800000004,True,30,-,-,-
072M29,2,11,AS,train,30,↓,down,↓,0.5845658000000071,True,45,-,-,-
072M29,2,12,AS,train,42,←,left,←,0.7502762999999959,True,45,-,-,-
072M29,2,13,AS,train,49,→,no_key,no_letter,-1.0,False,45,-,-,-
072M29,2,14,AS,train,31,←,left,←,0.9200554999999895,True,45,-,-,-
072M29,2,15,AS,train,27,→,right,→,0.7172327000000109,True,45,-,-,-
072M29,2,16,AS,train,26,↓,down,↓,0.584068899999977,True,45,-,-,-
072M29,2,17,AS,train,34,→,right,→,0.6848255999999822,True,45,-,-,-
072M29,2,18,AS,train,40,↑,up,↑,0.9254213000000107,True,45,-,-,-
072M29,2,19,AS,train,34,→,right,→,0.7336563000000069,True,45,-,-,-
072M29,2,20,AS,train,37,↑,up,↑,0.5521227000000124,True,45,-,-,-
072M29,-,21,PS,adaptive,37,↓,down,↓,0.6402826000000061,True,10,0,0,0
072M29,-,22,PS,adaptive,29,←,left,←,0.48203979999999547,True,10,1,0,0
072M29,-,23,PS,adaptive,39,↑,up,↑,0.8137360999999999,True,9,1,0,0
072M29,-,24,PS,adaptive,44,→,right,→,0.4539491999999825,True,9,1,0,0
072M29,-,25,PS,adaptive,29,←,left,←,0.5528635000000008,True,8,1,0,0
072M29,-,26,PS,adaptive,33,↓,down,↓,0.5370108000000187,True,8,1,0,0
072M29,-,27,PS,adaptive,38,←,left,←,0.5431470000000047,True,7,1,0,0
072M29,-,28,PS,adaptive,35,↑,up,↑,0.6039541000000099,True,7,1,0,0
072M29,-,29,PS,adaptive,40,←,left,←,0.5878042999999877,True,6,1,0,0
072M29,-,30,PS,adaptive,42,↓,up,↑,0.8345067999999856,False,6,-1,1,1
072M29,-,31,PS,adaptive,33,↑,up,↑,0.6194457,True,7,-1,0,1
072M29,-,32,PS,adaptive,34,↓,right,→,0.7006411000000128,False,7,-1,0,1
072M29,-,33,PS,adaptive,41,→,right,→,0.5895083000000056,True,8,-1,0,1
072M29,-,34,PS,adaptive,46,↓,down,↓,0.5535597000000223,True,8,1,1,2
072M29,-,35,PS,adaptive,47,←,left,←,0.5718959000000154,True,7,1,0,2
072M29,-,36,PS,adaptive,40,→,right,→,0.598884599999991,True,7,1,0,2
072M29,-,37,PS,adaptive,47,↑,left,←,0.5538632999999891,False,6,-1,1,3
072M29,-,38,PS,adaptive,40,↓,down,↓,0.5637356000000011,True,7,-1,0,3
072M29,-,39,PS,adaptive,40,←,right,→,0.756895400000019,False,7,-1,0,3
072M29,-,40,PS,adaptive,25,→,right,→,0.6892281000000082,True,8,-1,0,3
072M29,-,41,PS,adaptive,43,↓,down,↓,0.5077367000000095,True,8,1,1,4
072M29,-,42,AS,adaptive,32,↑,up,↑,0.793031300000024,True,20,0,0,0
072M29,-,43,AS,adaptive,37,←,left,←,0.6939753000000053,True,20,1,0,0
072M29,-,44,AS,adaptive,41,→,left,←,0.5922003000000018,False,19,-1,1,1
072M29,-,45,AS,adaptive,34,↑,up,↑,0.7836350999999979,True,20,-1,0,1
072M29,-,46,AS,adaptive,43,↓,down,↓,0.580280799999997,True,20,1,1,2
072M29,-,47,AS,adaptive,32,↑,up,↑,0.952297399999992,True,19,1,0,2
072M29,-,48,AS,adaptive,40,→,right,→,0.6581352999999979,True,19,1,0,2
072M29,-,49,AS,adaptive,44,↓,down,↓,1.1101917999999955,True,18,1,0,2
072M29,-,50,AS,adaptive,48,←,up,↑,0.8980078000000162,False,18,-1,1,3
072M29,-,51,AS,adaptive,43,↓,down,↓,0.6280097000000069,True,19,-1,0,3
072M29,-,52,AS,adaptive,36,←,up,↑,0.8831061000000204,False,19,-1,0,3
072M29,-,53,AS,adaptive,45,→,right,→,0.5691737999999873,True,20,-1,0,3
072M29,-,54,AS,adaptive,49,↑,down,↓,0.8489648000000329,False,20,-1,0,3
072M29,-,55,AS,adaptive,33,↓,down,↓,0.585037600000021,True,21,-1,0,3
072M29,-,56,AS,adaptive,47,→,up,↑,0.9731841999999915,False,21,-1,0,3
072M29,-,57,AS,adaptive,30,←,no_key,no_letter,-1.0,False,22,-1,0,3
072M29,-,58,AS,adaptive,28,→,left,←,1.6038566999999944,False,23,-1,0,3
072M29,-,59,AS,adaptive,49,↑,up,↑,0.9511299000000122,True,24,-1,0,3
072M29,-,60,AS,adaptive,49,→,left,←,0.46723259999998845,False,24,-1,0,3
072M29,-,61,AS,adaptive,43,↓,down,↓,0.6495335000000182,True,25,-1,0,3
072M29,-,62,AS,adaptive,46,↑,up,↑,0.7733504000000266,True,25,1,1,4
072M29,1,63,PS,intra_train,35,↓,down,↓,0.49012989999999945,True,10,-,-,-
072M29,1,64,PS,intra_train,34,→,right,→,0.46005969999998797,True,10,-,-,-
072M29,1,65,PS,intra_train,29,↑,up,↑,0.5719753999999853,True,10,-,-,-
072M29,1,66,PS,intra_train,28,←,left,←,0.49366359999999077,True,10,-,-,-
072M29,1,67,PS,intra_train,45,→,right,→,0.5687651000000074,True,10,-,-,-
072M29,1,68,PS,exp,47,←,left,←,0.6808060999999839,True,7,0,0,0
072M29,1,69,PS,exp,37,→,right,→,1.1441335000000095,True,7,1,0,0
072M29,1,70,PS,exp,47,↑,right,→,0.6718061999999918,False,6,-1,1,1
072M29,1,71,PS,exp,45,→,right,→,0.4730222000000026,True,7,-1,0,1
072M29,1,72,PS,exp,30,←,left,←,0.5282781000000227,True,7,1,1,2
072M29,1,73,PS,exp,49,↑,left,←,0.5937006999999994,False,6,-1,1,3
072M29,1,74,PS,exp,36,↓,right,→,0.5041608000000224,False,7,-1,0,3
072M29,1,75,PS,exp,28,↑,left,←,0.3890202000000045,False,8,-1,0,3
072M29,1,76,PS,exp,26,↓,down,↓,0.5293533000000252,True,9,-1,0,3
072M29,1,77,PS,exp,47,←,left,←,0.47520620000000235,True,9,1,1,4
072M29,1,78,PS,exp,37,↑,down,↓,0.47410859999996546,False,8,-1,1,5
072M29,1,79,PS,exp,26,→,left,←,0.4533339999999839,False,9,-1,0,5
072M29,1,80,PS,exp,49,←,right,→,0.4046736000000237,False,10,-1,0,5
072M29,1,81,PS,exp,31,↓,down,↓,0.5334925000000226,True,11,-1,0,5
072M29,1,82,PS,exp,28,↑,left,←,0.8338931000000116,False,11,-1,0,5
072M29,1,83,PS,exp,29,←,left,←,0.5234863000000018,True,12,-1,0,5
072M29,1,84,PS,exp,49,↑,up,↑,0.5812025000000176,True,12,1,1,6
072M29,1,85,PS,exp,38,↓,down,↓,0.5441134000000147,True,11,1,0,6
072M29,1,86,PS,exp,49,↑,up,↑,0.5188156999999478,True,11,1,0,6
072M29,1,87,PS,exp,30,↓,down,↓,0.46862480000004325,True,10,1,0,6
072M29,1,88,PS,exp,32,←,right,→,0.4718265999999858,False,10,-1,1,7
072M29,1,89,PS,exp,35,↓,down,↓,0.49237270000003264,True,11,-1,0,7
072M29,1,90,PS,exp,26,↑,up,↑,0.6595932999999832,True,11,1,1,8
072M29,1,91,PS,exp,25,↓,left,←,0.5615943000000243,False,10,-1,1,9
072M29,1,92,PS,exp,33,↑,up,↑,0.542579700000033,True,11,-1,0,9
072M29,1,93,PS,exp,38,→,up,↑,0.6931278000000134,False,11,-1,0,9
072M29,1,94,PS,exp,39,←,left,←,0.45755719999999656,True,12,-1,0,9
072M29,1,95,PS,exp,34,↓,down,↓,0.5797205000000076,True,12,1,1,10
072M29,1,96,PS,exp,25,→,right,→,0.46023939999997765,True,11,1,0,10
072M29,1,97,PS,exp,25,↓,down,↓,0.4781394999999975,True,11,1,0,10
072M29,1,98,PS,exp,31,←,left,←,0.3893716999999697,True,10,1,0,10
072M29,1,99,PS,exp,40,↑,left,←,0.6273424999999975,False,10,-1,1,11
072M29,1,100,PS,exp,26,↓,down,↓,0.45516620000000785,True,11,-1,0,11
072M29,1,101,PS,exp,34,→,right,→,0.6304092999999966,True,11,1,1,12
072M29,1,102,PS,exp,30,↓,down,↓,0.5134939999999801,True,10,1,0,12
072M29,1,103,PS,exp,42,←,left,←,0.47148700000002464,True,10,1,0,12
072M29,1,104,PS,exp,40,↓,down,↓,0.46788979999996627,True,9,1,0,12
072M29,1,105,PS,exp,32,←,left,←,0.6292339999999967,True,9,1,0,12
072M29,1,106,PS,exp,48,↑,right,→,0.5149792999999931,False,8,-1,1,13
072M29,1,107,PS,exp,30,←,left,←,0.43234559999996236,True,9,-1,0,13
072M29,1,108,PS,exp,30,↑,up,↑,0.6837987999999768,True,9,1,1,14
072M29,2,109,AS,intra_train,34,←,left,←,0.8439581000000089,True,36,-,-,-
072M29,2,110,AS,intra_train,47,→,right,→,0.8279413999999861,True,36,-,-,-
072M29,2,111,AS,intra_train,44,↓,right,→,0.7006242999999586,False,36,-,-,-
072M29,2,112,AS,intra_train,32,→,right,→,0.7750393999999687,True,36,-,-,-
072M29,2,113,AS,intra_train,30,↑,right,→,0.5177906000000121,False,36,-,-,-
072M29,2,114,AS,exp,45,↓,down,↓,0.8112042000000201,True,24,0,0,0
072M29,2,115,AS,exp,27,←,left,←,0.882585000000006,True,24,1,0,0
072M29,2,116,AS,exp,33,→,right,→,0.6604454999999803,True,23,1,0,0
072M29,2,117,AS,exp,43,↑,up,↑,0.8110824999999977,True,23,1,0,0
072M29,2,118,AS,exp,39,→,down,↓,1.5991612999999916,False,22,-1,1,1
072M29,2,119,AS,exp,44,←,left,←,0.7720539000000031,True,23,-1,0,1
072M29,2,120,AS,exp,32,→,right,→,0.6184323000000518,True,23,1,1,2
072M29,2,121,AS,exp,39,↑,up,↑,0.7005970000000161,True,22,1,0,2
072M29,2,122,AS,exp,27,↓,down,↓,0.7164086999999881,True,22,1,0,2
072M29,2,123,AS,exp,45,→,right,→,0.5412162999999737,True,21,1,0,2
072M29,2,124,AS,exp,43,←,left,←,0.7358854000000292,True,21,1,0,2
072M29,2,125,AS,exp,38,→,right,→,0.6100405999999907,True,20,1,0,2
072M29,2,126,AS,exp,45,←,left,←,0.6895388000000366,True,20,1,0,2
072M29,2,127,AS,exp,42,↑,up,↑,1.014801700000021,True,19,1,0,2
072M29,2,128,AS,exp,50,→,right,→,0.815953899999954,True,19,1,0,2
072M29,2,129,AS,exp,42,↓,right,→,0.5566003000000137,False,18,-1,1,3
072M29,2,130,AS,exp,38,→,down,↓,0.8947655000000054,False,19,-1,0,3
072M29,2,131,AS,exp,25,←,left,←,0.5448826000000508,True,20,-1,0,3
072M29,2,132,AS,exp,49,↑,up,↑,0.7457663000000139,True,20,1,1,4
072M29,2,133,AS,exp,27,←,left,←,0.6578375999999935,True,19,1,0,4
072M29,2,134,AS,exp,28,↓,up,↑,0.6677573000000052,False,19,-1,1,5
072M29,2,135,AS,exp,47,←,left,←,0.8779485999999679,True,20,-1,0,5
072M29,2,136,AS,exp,34,→,right,→,0.6887927000000218,True,20,1,1,6
072M29,2,137,AS,exp,45,←,left,←,0.6183201000000054,True,19,1,0,6
072M29,2,138,AS,exp,42,↑,down,↓,1.1449977999999987,False,19,-1,1,7
072M29,2,139,AS,exp,48,→,right,→,0.7597986000000105,True,20,-1,0,7
072M29,2,140,AS,exp,46,←,up,↑,1.40575130000002,False,20,-1,0,7
072M29,2,141,AS,exp,29,↑,up,↑,0.6997556000000031,True,21,-1,0,7
072M29,2,142,AS,exp,33,→,up,↑,1.4561099000000013,False,21,-1,0,7
072M29,2,143,AS,exp,35,←,left,←,0.6208407999999963,True,22,-1,0,7
072M29,2,144,AS,exp,25,↑,up,↑,0.6043477000000621,True,22,1,1,8
072M29,2,145,AS,exp,34,←,no_key,no_letter,-1.0,False,21,-1,1,9
072M29,2,146,AS,exp,46,→,right,→,0.6865791999999828,True,22,-1,0,9
072M29,2,147,AS,exp,28,←,right,→,0.5915524000000687,False,22,-1,0,9
072M29,2,148,AS,exp,37,→,right,→,0.599764499999992,True,23,-1,0,9
072M29,2,149,AS,exp,49,↓,down,↓,0.8108548999999812,True,23,1,1,10
072M29,2,150,AS,exp,48,←,left,←,0.7268391000000065,True,22,1,0,10
072M29,2,151,AS,exp,30,↓,down,↓,0.6051331999999547,True,22,1,0,10
072M29,2,152,AS,exp,27,←,left,←,0.5729718999999704,True,21,1,0,10
072M29,2,153,AS,exp,42,↑,up,↑,0.8404207999999471,True,21,1,0,10
072M29,2,154,AS,exp,32,→,right,→,0.6466348999999809,True,20,1,0,10
072M29,2,155,AS,exp,47,↓,down,↓,0.5760957000001099,True,20,1,0,10
072M29,2,156,AS,exp,30,←,right,→,0.6862211000000116,False,19,-1,1,11
072M29,2,157,AS,exp,42,↑,left,←,0.4670074000000568,False,20,-1,0,11
072M29,2,158,AS,exp,36,↓,down,↓,0.5701123000000052,True,21,-1,0,11
072M29,2,159,AS,exp,35,→,right,→,0.5994246000000203,True,21,1,1,12
072M29,2,160,AS,exp,33,←,no_key,no_letter,-1.0,False,20,-1,1,13
072M29,2,161,AS,exp,26,→,right,→,0.5972216999999773,True,21,-1,0,13
072M29,2,162,AS,exp,41,↓,down,↓,0.610881500000005,True,21,1,1,14
072M29,3,163,AS,intra_train,45,←,left,←,0.6504860999999664,True,36,-,-,-
072M29,3,164,AS,intra_train,38,↑,up,↑,0.7737068000000136,True,36,-,-,-
072M29,3,165,AS,intra_train,41,←,left,←,0.6837692999999945,True,36,-,-,-
072M29,3,166,AS,intra_train,47,→,right,→,0.5675524000000678,True,36,-,-,-
072M29,3,167,AS,intra_train,37,↓,no_key,no_letter,-1.0,False,36,-,-,-
072M29,3,168,AS,exp,27,→,right,→,0.6448998000000756,True,24,0,0,0
072M29,3,169,AS,exp,44,↓,down,↓,0.6721390000000156,True,24,1,0,0
072M29,3,170,AS,exp,47,↑,up,↑,0.8563712000000123,True,23,1,0,0
072M29,3,171,AS,exp,44,→,right,→,0.8285343000000012,True,23,1,0,0
072M29,3,172,AS,exp,31,↓,down,↓,0.6390936999999894,True,22,1,0,0
072M29,3,173,AS,exp,31,→,right,→,1.89697620000004,True,22,1,0,0
072M29,3,174,AS,exp,50,↑,up,↑,0.8229100999999446,True,21,1,0,0
072M29,3,175,AS,exp,45,↓,down,↓,0.6325795999999855,True,21,1,0,0
072M29,3,176,AS,exp,41,←,left,←,0.6669750000000931,True,20,1,0,0
072M29,3,177,AS,exp,40,→,right,→,0.6278158999999732,True,20,1,0,0
072M29,3,178,AS,exp,36,↑,up,↑,0.8249844000000621,True,19,1,0,0
072M29,3,179,AS,exp,49,←,left,←,0.6139609000000519,True,19,1,0,0
072M29,3,180,AS,exp,44,↓,up,↑,1.0037449000000151,False,18,-1,1,1
072M29,3,181,AS,exp,46,→,right,→,0.6857905000000528,True,19,-1,0,1
072M29,3,182,AS,exp,39,←,left,←,0.6374385999999959,True,19,1,1,2
072M29,3,183,AS,exp,25,↑,down,↓,1.7925013000000263,False,18,-1,1,3
072M29,3,184,AS,exp,49,↓,down,↓,0.5242920000000595,True,19,-1,0,3
072M29,3,185,AS,exp,25,←,up,↑,0.9956751999999369,False,19,-1,0,3
072M29,3,186,AS,exp,33,↓,down,↓,0.6114050999999563,True,20,-1,0,3
072M29,3,187,AS,exp,26,←,down,↓,0.786015300000031,False,20,-1,0,3
072M29,3,188,AS,exp,44,↓,down,↓,0.9745480000000271,True,21,-1,0,3
072M29,3,189,AS,exp,27,←,left,←,0.7329204000000118,True,21,1,1,4
072M29,3,190,AS,exp,29,→,right,→,0.7029343000000381,True,20,1,0,4
072M29,3,191,AS,exp,31,←,left,←,0.5794879999999694,True,20,1,0,4
072M29,3,192,AS,exp,42,↑,down,↓,0.8537607000000662,False,19,-1,1,5
072M29,3,193,AS,exp,50,↓,down,↓,0.28455170000006547,True,20,-1,0,5
072M29,3,194,AS,exp,30,↑,up,↑,0.7977968999999803,True,20,1,1,6
072M29,3,195,AS,exp,48,↓,down,↓,0.6794676000000663,True,19,1,0,6
072M29,3,196,AS,exp,28,↑,down,↓,1.0809325000000172,False,19,-1,1,7
072M29,3,197,AS,exp,33,→,right,→,0.9948506999999154,True,20,-1,0,7
072M29,3,198,AS,exp,25,↓,up,↑,0.919263800000067,False,20,-1,0,7
072M29,3,199,AS,exp,49,↑,up,↑,0.7538144999999759,True,21,-1,0,7
072M29,3,200,AS,exp,35,←,left,←,0.6714347000000771,True,21,1,1,8
072M29,3,201,AS,exp,43,↑,up,↑,0.5310557000000244,True,20,1,0,8
072M29,3,202,AS,exp,25,→,left,←,0.45045219999997244,False,20,-1,1,9
072M29,3,203,AS,exp,27,↓,down,↓,0.6292627999999922,True,21,-1,0,9
072M29,3,204,AS,exp,41,↑,up,↑,0.5979892000000291,True,21,1,1,10
072M29,3,205,AS,exp,47,→,right,→,1.4288547999999537,True,20,1,0,10
072M29,3,206,AS,exp,32,←,right,→,0.7159457000000202,False,20,-1,1,11
072M29,3,207,AS,exp,32,↑,right,→,0.2845290999999861,False,21,-1,0,11
072M29,3,208,AS,exp,39,→,no_key,no_letter,-1.0,False,22,-1,0,11
072M29,3,209,AS,exp,43,←,left,←,0.5629827999999861,True,23,-1,0,11
072M29,3,210,AS,exp,43,↑,up,↑,0.9224120000000084,True,23,1,1,12
072M29,3,211,AS,exp,35,↓,up,↑,1.099261599999977,False,22,-1,1,13
072M29,3,212,AS,exp,33,↑,down,↓,0.6861339999999245,False,23,-1,0,13
072M29,3,213,AS,exp,37,→,right,→,0.6080387999999175,True,24,-1,0,13
072M29,3,214,AS,exp,27,↓,down,↓,0.4838042000000087,True,24,1,1,14
072M29,4,215,PS,intra_train,26,←,left,←,0.48075379999988854,True,10,-,-,-
072M29,4,216,PS,intra_train,29,→,right,→,0.4424562000000378,True,10,-,-,-
072M29,4,217,PS,intra_train,39,↓,up,↑,0.8404445999999552,False,10,-,-,-
072M29,4,218,PS,intra_train,46,↑,up,↑,0.6073570999999447,True,10,-,-,-
072M29,4,219,PS,intra_train,47,←,down,↓,0.9711757000000034,False,10,-,-,-
072M29,4,220,PS,exp,37,↓,down,↓,0.536934899999892,True,7,0,0,0
072M29,4,221,PS,exp,46,↑,up,↑,0.5855323000000681,True,7,1,0,0
072M29,4,222,PS,exp,35,←,left,←,0.47552359999997407,True,6,1,0,0
072M29,4,223,PS,exp,31,↑,up,↑,0.538673000000017,True,6,1,0,0
072M29,4,224,PS,exp,34,→,right,→,0.46263469999996687,True,5,1,0,0
072M29,4,225,PS,exp,39,↓,right,→,0.7276145999999244,False,5,-1,1,1
072M29,4,226,PS,exp,28,→,left,←,0.5628599000000349,False,6,-1,0,1
072M29,4,227,PS,exp,47,←,left,←,0.5376022000000376,True,7,-1,0,1
072M29,4,228,PS,exp,36,↓,down,↓,0.49882610000008754,True,7,1,1,2
072M29,4,229,PS,exp,50,←,left,←,0.5440792999999076,True,6,1,0,2
072M29,4,230,PS,exp,31,↑,right,→,0.49919150000005175,False,6,-1,1,3
072M29,4,231,PS,exp,25,→,right,→,0.6208453999998937,True,7,-1,0,3
072M29,4,232,PS,exp,26,↑,right,→,0.6300016000000142,False,7,-1,0,3
072M29,4,233,PS,exp,27,←,left,←,0.5995920000000297,True,8,-1,0,3
072M29,4,234,PS,exp,25,→,right,→,0.6483678999999256,True,8,1,1,4
072M29,4,235,PS,exp,33,↑,up,↑,0.6402839999999514,True,7,1,0,4
072M29,4,236,PS,exp,39,←,left,←,0.7051696999999422,True,7,1,0,4
072M29,4,237,PS,exp,47,↑,right,→,0.48287600000003295,False,6,-1,1,5
072M29,4,238,PS,exp,48,↓,left,←,0.5318977000000586,False,7,-1,0,5
072M29,4,239,PS,exp,36,←,left,←,0.47166149999998197,True,8,-1,0,5
072M29,4,240,PS,exp,42,→,down,↓,0.764637099999959,False,8,-1,0,5
072M29,4,241,PS,exp,41,↑,up,↑,0.6360340999999607,True,9,-1,0,5
072M29,4,242,PS,exp,40,←,left,←,0.5780022000000145,True,9,1,1,6
072M29,4,243,PS,exp,46,↓,up,↑,0.7093384000000924,False,8,-1,1,7
072M29,4,244,PS,exp,26,↑,up,↑,0.5180136999999831,True,9,-1,0,7
072M29,4,245,PS,exp,39,→,right,→,0.6210991000000377,True,9,1,1,8
072M29,4,246,PS,exp,31,↓,up,↑,0.6273975000000291,False,8,-1,1,9
072M29,4,247,PS,exp,43,→,left,←,0.6759322000000338,False,9,-1,0,9
072M29,4,248,PS,exp,48,↓,up,↑,0.6550233000000389,False,10,-1,0,9
072M29,4,249,PS,exp,38,→,right,→,0.6003319999999803,True,11,-1,0,9
072M29,4,250,PS,exp,30,↓,down,↓,0.6267209000000094,True,11,1,1,10
072M29,4,251,PS,exp,49,↑,up,↑,0.6444732999999587,True,10,1,0,10
072M29,4,252,PS,exp,26,←,left,←,0.5746259999999666,True,10,1,0,10
072M29,4,253,PS,exp,30,↓,down,↓,0.5854336999999532,True,9,1,0,10
072M29,4,254,PS,exp,37,→,right,→,0.583877799999982,True,9,1,0,10
072M29,4,255,PS,exp,32,←,up,↑,0.7471950000000334,False,8,-1,1,11
072M29,4,256,PS,exp,42,→,right,→,0.5424829000000955,True,9,-1,0,11
072M29,4,257,PS,exp,28,←,left,←,0.6358042000000523,True,9,1,1,12
072M29,4,258,PS,exp,31,↑,up,↑,0.5859455999999454,True,8,1,0,12
072M29,4,259,PS,exp,30,↓,right,→,0.7101345000000947,False,8,-1,1,13
072M29,4,260,PS,exp,27,→,right,→,0.600677399999995,True,9,-1,0,13
072M29,4,261,PS,exp,26,←,left,←,0.5231132999999772,True,9,1,1,14
072M29,5,262,PS,intra_train,41,↑,up,↑,0.6291545000000269,True,10,-,-,-
072M29,5,263,PS,intra_train,43,↓,down,↓,0.6750082999999449,True,10,-,-,-
072M29,5,264,PS,intra_train,30,←,left,←,0.47503710000000865,True,10,-,-,-
072M29,5,265,PS,intra_train,32,↑,up,↑,0.6453828999999587,True,10,-,-,-
072M29,5,266,PS,intra_train,38,→,right,→,0.6155632999999625,True,10,-,-,-
072M29,5,267,PS,exp,46,↑,up,↑,0.5942588999999998,True,7,0,0,0
072M29,5,268,PS,exp,33,←,left,←,0.4720105000000103,True,7,1,0,0
072M29,5,269,PS,exp,33,↓,down,↓,0.4702303999999913,True,6,1,0,0
072M29,5,270,PS,exp,49,→,right,→,0.5533123999999816,True,6,1,0,0
072M29,5,271,PS,exp,27,↓,up,↑,0.7098972000000003,False,5,-1,1,1
072M29,5,272,PS,exp,38,→,right,→,0.5877094999999599,True,6,-1,0,1
072M29,5,273,PS,exp,36,↓,down,↓,0.6194357000000537,True,6,1,1,2
072M29,5,274,PS,exp,45,←,left,←,0.5371472000000495,True,5,1,0,2
072M29,5,275,PS,exp,44,↑,up,↑,0.5613040000000638,True,5,1,0,2
072M29,5,276,PS,exp,36,←,left,←,0.5299205000000029,True,4,1,0,2
072M29,5,277,PS,exp,30,↓,right,→,0.5842471999999361,False,4,-1,1,3
072M29,5,278,PS,exp,49,→,up,↑,0.6668750000000045,False,5,-1,0,3
072M29,5,279,PS,exp,49,←,right,→,0.6124829000000318,False,6,-1,0,3
072M29,5,280,PS,exp,45,↓,up,↑,0.595168899999976,False,7,-1,0,3
072M29,5,281,PS,exp,46,←,left,←,0.5291191999999683,True,8,-1,0,3
072M29,5,282,PS,exp,36,↑,up,↑,0.5678567999999586,True,8,1,1,4
072M29,5,283,PS,exp,47,→,right,→,0.4717412999999624,True,7,1,0,4
072M29,5,284,PS,exp,44,←,right,→,0.5308383999999933,False,7,-1,1,5
072M29,5,285,PS,exp,47,↑,up,↑,0.6027858000001061,True,8,-1,0,5
072M29,5,286,PS,exp,38,↓,down,↓,0.5248983999999837,True,8,1,1,6
072M29,5,287,PS,exp,35,→,up,↑,0.618074100000058,False,7,-1,1,7
072M29,5,288,PS,exp,42,↑,up,↑,0.5431032000000187,True,8,-1,0,7
072M29,5,289,PS,exp,27,←,right,→,0.5143362000000025,False,8,-1,0,7
072M29,5,290,PS,exp,26,↓,up,↑,0.48156280000000606,False,9,-1,0,7
072M29,5,291,PS,exp,46,←,up,↑,0.38945030000002134,False,10,-1,0,7
072M29,5,292,PS,exp,46,→,up,↑,0.20035910000001422,False,11,-1,0,7
072M29,5,293,PS,exp,46,↓,down,↓,0.5064124000000447,True,12,-1,0,7
072M29,5,294,PS,exp,46,→,right,→,0.5796562000000449,True,12,1,1,8
072M29,5,295,PS,exp,49,↑,right,→,0.5333704000000807,False,11,-1,1,9
072M29,5,296,PS,exp,39,↓,down,↓,0.48019780000004175,True,12,-1,0,9
072M29,5,297,PS,exp,40,↑,up,↑,0.7041623000000072,True,12,1,1,10
072M29,5,298,PS,exp,37,↓,down,↓,0.5508227999999917,True,11,1,0,10
072M29,5,299,PS,exp,45,←,left,←,0.5007272000000285,True,11,1,0,10
072M29,5,300,PS,exp,27,↑,up,↑,0.5601692999999841,True,10,1,0,10
072M29,5,301,PS,exp,41,←,left,←,0.5644698999999491,True,10,1,0,10
072M29,5,302,PS,exp,38,↑,up,↑,0.656916899999942,True,9,1,0,10
072M29,5,303,PS,exp,29,→,left,←,0.6740948000000344,False,9,-1,1,11
072M29,5,304,PS,exp,40,↓,down,↓,0.4669670999999198,True,10,-1,0,11
072M29,5,305,PS,exp,48,↑,up,↑,0.6717985000000226,True,10,1,1,12
072M29,5,306,PS,exp,29,←,right,→,0.6090046000000484,False,9,-1,1,13
072M29,5,307,PS,exp,36,↓,down,↓,0.46087039999997614,True,10,-1,0,13
072M29,5,308,PS,exp,27,←,left,←,0.41017920000001595,True,10,1,1,14
072M29,6,309,AS,intra_train,41,→,right,→,0.5838985000000321,True,36,-,-,-
072M29,6,310,AS,intra_train,49,↑,up,↑,2.0222698000000037,True,36,-,-,-
072M29,6,311,AS,intra_train,30,←,left,←,1.3848953000000392,True,36,-,-,-
072M29,6,312,AS,intra_train,47,↑,up,↑,0.9530651000000034,True,36,-,-,-
072M29,6,313,AS,intra_train,44,→,right,→,0.6669348000000355,True,36,-,-,-
072M29,6,314,AS,exp,36,↑,up,↑,1.4166063000000122,True,24,0,0,0
072M29,6,315,AS,exp,34,↓,down,↓,0.6540595999999823,True,24,1,0,0
072M29,6,316,AS,exp,40,→,right,→,0.600459399999977,True,23,1,0,0
072M29,6,317,AS,exp,26,←,left,←,1.2378047000000834,True,23,1,0,0
072M29,6,318,AS,exp,49,→,right,→,0.6965556999999762,True,22,1,0,0
072M29,6,319,AS,exp,39,↑,up,↑,0.5741024999999809,True,22,1,0,0
072M29,6,320,AS,exp,36,↓,up,↑,0.7177541000000929,False,21,-1,1,1
072M29,6,321,AS,exp,37,←,left,←,0.6725361000000021,True,22,-1,0,1
072M29,6,322,AS,exp,42,↓,down,↓,0.7839058999999224,True,22,1,1,2
072M29,6,323,AS,exp,46,←,left,←,0.6063114000000951,True,21,1,0,2
072M29,6,324,AS,exp,44,↓,down,↓,1.2333992999999737,True,21,1,0,2
072M29,6,325,AS,exp,44,↑,up,↑,0.5589376000000357,True,20,1,0,2
072M29,6,326,AS,exp,39,←,left,←,0.6264880999999605,True,20,1,0,2
072M29,6,327,AS,exp,36,↑,up,↑,0.6867698999999448,True,19,1,0,2
072M29,6,328,AS,exp,38,↓,up,↑,0.6451613000000407,False,19,-1,1,3
072M29,6,329,AS,exp,28,←,left,←,0.5788522999999941,True,20,-1,0,3
072M29,6,330,AS,exp,37,→,right,→,0.6525046999998949,True,20,1,1,4
072M29,6,331,AS,exp,34,←,left,←,0.6561064999999644,True,19,1,0,4
072M29,6,332,AS,exp,42,↓,down,↓,0.8419698000000153,True,19,1,0,4
072M29,6,333,AS,exp,47,←,left,←,0.5377607000000353,True,18,1,0,4
072M29,6,334,AS,exp,40,→,right,→,0.707224799999949,True,18,1,0,4
072M29,6,335,AS,exp,36,↑,up,↑,0.6043244999999615,True,17,1,0,4
072M29,6,336,AS,exp,31,→,right,→,0.6808289000000514,True,17,1,0,4
072M29,6,337,AS,exp,37,↑,up,↑,0.7028347000001531,True,16,1,0,4
072M29,6,338,AS,exp,38,↓,up,↑,0.6361234999999397,False,16,-1,1,5
072M29,6,339,AS,exp,33,↑,right,→,0.6655643999999938,False,17,-1,0,5
072M29,6,340,AS,exp,26,→,right,→,0.511776300000065,True,18,-1,0,5
072M29,6,341,AS,exp,25,←,left,←,0.5519480999998905,True,18,1,1,6
072M29,6,342,AS,exp,44,→,right,→,0.5585039999998571,True,17,1,0,6
072M29,6,343,AS,exp,46,↑,up,↑,0.7050792000000001,True,17,1,0,6
072M29,6,344,AS,exp,47,↓,down,↓,0.8025106000000051,True,16,1,0,6
072M29,6,345,AS,exp,41,↑,up,↑,0.6206372999999985,True,16,1,0,6
072M29,6,346,AS,exp,27,←,left,←,0.7611120000001392,True,15,1,0,6
072M29,6,347,AS,exp,39,↓,down,↓,0.6353110000000015,True,15,1,0,6
072M29,6,348,AS,exp,29,↑,left,←,0.5487990999999965,False,14,-1,1,7
072M29,6,349,AS,exp,43,←,left,←,1.5051551999999901,True,15,-1,0,7
072M29,6,350,AS,exp,48,↑,up,↑,0.721916100000044,True,15,1,1,8
072M29,6,351,AS,exp,50,←,left,←,0.5121943999999985,True,14,1,0,8
072M29,6,352,AS,exp,45,↑,down,↓,0.8357499999999618,False,14,-1,1,9
072M29,6,353,AS,exp,34,↓,down,↓,0.7678928000000269,True,15,-1,0,9
072M29,6,354,AS,exp,48,→,right,→,0.5765240000000631,True,15,1,1,10
072M29,6,355,AS,exp,50,↓,up,↑,0.7745826000000307,False,14,-1,1,11
072M29,6,356,AS,exp,32,↑,down,↓,0.6603104000000712,False,15,-1,0,11
072M29,6,357,AS,exp,42,→,right,→,0.5159019999998691,True,16,-1,0,11
072M29,6,358,AS,exp,29,↓,right,→,1.380799399999887,False,16,-1,0,11
072M29,6,359,AS,exp,28,←,left,←,0.7640051000000767,True,17,-1,0,11
072M29,6,360,AS,exp,37,↓,down,↓,0.6725017000001117,True,17,1,1,12
072M29,6,361,AS,exp,42,↑,up,↑,0.7040901999998823,True,16,1,0,12
072M29,6,362,AS,exp,41,←,left,←,0.6375021000001198,True,16,1,0,12
072M29,6,363,AS,exp,45,↑,down,↓,0.6932538999999451,False,15,-1,1,13
072M29,6,364,AS,exp,35,↓,down,↓,0.5024728000000778,True,16,-1,0,13
072M29,6,365,AS,exp,35,←,left,←,0.7537211000001207,True,16,1,1,14
072M29,7,366,AS,intra_train,33,↑,up,↑,1.5865696000000753,True,36,-,-,-
072M29,7,367,AS,intra_train,50,→,right,→,0.7170772999998007,True,36,-,-,-
072M29,7,368,AS,intra_train,39,←,left,←,0.6838036999999986,True,36,-,-,-
072M29,7,369,AS,intra_train,47,↓,down,↓,0.5509956000000784,True,36,-,-,-
072M29,7,370,AS,intra_train,35,←,left,←,0.6008093000000372,True,36,-,-,-
072M29,7,371,AS,exp,38,↑,up,↑,0.7710070999999061,True,24,0,0,0
072M29,7,372,AS,exp,27,→,right,→,0.5748722000000726,True,24,1,0,0
072M29,7,373,AS,exp,41,↑,up,↑,0.567785400000048,True,23,1,0,0
072M29,7,374,AS,exp,29,→,right,→,0.5821754999999484,True,23,1,0,0
072M29,7,375,AS,exp,35,↓,down,↓,0.5800532999999177,True,22,1,0,0
072M29,7,376,AS,exp,25,↑,up,↑,0.6825833999998849,True,22,1,0,0
072M29,7,377,AS,exp,43,↓,down,↓,0.48378810000008343,True,21,1,0,0
072M29,7,378,AS,exp,42,↑,up,↑,0.5657979999998588,True,21,1,0,0
072M29,7,379,AS,exp,44,↓,down,↓,0.6905163999999786,True,20,1,0,0
072M29,7,380,AS,exp,44,→,right,→,0.4512390999998388,True,20,1,0,0
072M29,7,381,AS,exp,45,↑,up,↑,0.6161937000001672,True,19,1,0,0
072M29,7,382,AS,exp,30,↓,down,↓,0.5016574000001128,True,19,1,0,0
072M29,7,383,AS,exp,42,↑,down,↓,0.5297765000000254,False,18,-1,1,1
072M29,7,384,AS,exp,50,↓,down,↓,0.7484917000001587,True,19,-1,0,1
072M29,7,385,AS,exp,45,←,left,←,0.5137979999999516,True,19,1,1,2
072M29,7,386,AS,exp,42,↑,up,↑,0.6812248000001091,True,18,1,0,2
072M29,7,387,AS,exp,29,←,right,→,0.4974343000001227,False,18,-1,1,3
072M29,7,388,AS,exp,47,→,right,→,0.5279476999999133,True,19,-1,0,3
072M29,7,389,AS,exp,44,←,left,←,0.6429725999998936,True,19,1,1,4
072M29,7,390,AS,exp,38,↓,down,↓,0.6554312999999183,True,18,1,0,4
072M29,7,391,AS,exp,50,←,left,←,0.548674500000061,True,18,1,0,4
072M29,7,392,AS,exp,40,↑,up,↑,0.6402524000000085,True,17,1,0,4
072M29,7,393,AS,exp,27,↓,down,↓,0.5231102000000192,True,17,1,0,4
072M29,7,394,AS,exp,35,←,left,←,0.5777286000000004,True,16,1,0,4
072M29,7,395,AS,exp,45,↓,down,↓,0.5976992999999311,True,16,1,0,4
072M29,7,396,AS,exp,33,↑,up,↑,0.5976334999998016,True,15,1,0,4
072M29,7,397,AS,exp,36,↓,down,↓,0.5266163999999662,True,15,1,0,4
072M29,7,398,AS,exp,35,→,right,→,0.523379800000157,True,14,1,0,4
072M29,7,399,AS,exp,41,←,left,←,0.5605218000000605,True,14,1,0,4
072M29,7,400,AS,exp,25,↓,down,↓,0.6991152000000511,True,13,1,0,4
072M29,7,401,AS,exp,35,→,left,←,0.6979405000001861,False,13,-1,1,5
072M29,7,402,AS,exp,49,←,down,↓,0.8930013000001509,False,14,-1,0,5
072M29,7,403,AS,exp,29,→,left,←,0.7913546000002043,False,15,-1,0,5
072M29,7,404,AS,exp,30,←,left,←,0.48929339999995136,True,16,-1,0,5
072M29,7,405,AS,exp,46,→,right,→,0.7731539999999768,True,16,1,1,6
072M29,7,406,AS,exp,49,↓,down,↓,0.7230392000001302,True,15,1,0,6
072M29,7,407,AS,exp,43,←,right,→,0.7380918999999722,False,15,-1,1,7
072M29,7,408,AS,exp,30,→,right,→,0.6333520999999109,True,16,-1,0,7
072M29,7,409,AS,exp,25,←,down,↓,1.2358115000001817,False,16,-1,0,7
072M29,7,410,AS,exp,41,→,right,→,0.8156962999998996,True,17,-1,0,7
072M29,7,411,AS,exp,44,↑,right,→,0.9181062000000111,False,17,-1,0,7
072M29,7,412,AS,exp,49,↓,down,↓,0.7194368999998915,True,18,-1,0,7
072M29,7,413,AS,exp,49,→,right,→,0.5926698999999189,True,18,1,1,8
072M29,7,414,AS,exp,30,↓,down,↓,0.7060480000000098,True,17,1,0,8
072M29,7,415,AS,exp,50,→,right,→,0.6041887000001225,True,17,1,0,8
072M29,7,416,AS,exp,43,←,left,←,0.6311862000000019,True,16,1,0,8
072M29,7,417,AS,exp,27,↑,up,↑,0.7732105000000047,True,16,1,0,8
072M29,7,418,AS,exp,29,→,right,→,0.6789724999998725,True,15,1,0,8
072M29,7,419,AS,exp,33,←,left,←,0.7030738000000838,True,15,1,0,8
072M29,7,420,AS,exp,48,↑,up,↑,0.6383792999999969,True,14,1,0,8
072M29,7,421,AS,exp,36,↓,down,↓,1.1895363999999518,True,14,1,0,8
072M29,7,422,AS,exp,45,↑,up,↑,0.6768801999999141,True,13,1,0,8
072M29,7,423,AS,exp,39,←,left,←,0.4856955000000198,True,13,1,0,8
072M29,7,424,AS,exp,35,→,right,→,0.5150630999999066,True,12,1,0,8
072M29,7,425,AS,exp,31,←,left,←,0.6640841999999338,True,12,1,0,8
072M29,7,426,AS,exp,41,→,right,→,0.6177224000000479,True,11,1,0,8
072M29,7,427,AS,exp,50,↓,down,↓,0.6591275000000678,True,11,1,0,8
072M29,7,428,AS,exp,26,↑,down,↓,1.0186561000000438,False,10,-1,1,9
072M29,7,429,AS,exp,40,↓,down,↓,0.9723360000000412,True,11,-1,0,9
072M29,7,430,AS,exp,45,↑,up,↑,0.7538278999998056,True,11,1,1,10
072M29,7,431,AS,exp,41,↓,down,↓,0.6981683999999859,True,10,1,0,10
072M29,7,432,AS,exp,32,→,right,→,0.6308827000000292,True,10,1,0,10
072M29,7,433,AS,exp,43,↑,right,→,0.8056465999998181,False,9,-1,1,11
072M29,7,434,AS,exp,41,↓,down,↓,0.8061480999999731,True,10,-1,0,11
072M29,7,435,AS,exp,44,→,left,←,0.7859052999999676,False,10,-1,0,11
072M29,7,436,AS,exp,26,↑,down,↓,0.5247062999999343,False,11,-1,0,11
072M29,7,437,AS,exp,40,←,down,↓,0.8180319999999028,False,12,-1,0,11
072M29,7,438,AS,exp,48,→,left,←,0.6926828000000569,False,13,-1,0,11
072M29,7,439,AS,exp,36,↑,left,←,0.5453741000001173,False,14,-1,0,11
072M29,7,440,AS,exp,45,→,right,→,0.47610520000012,True,15,-1,0,11
072M29,7,441,AS,exp,49,↓,down,↓,0.6503961999999319,True,15,1,1,12
072M29,7,442,AS,exp,34,↑,down,↓,0.9219966999999087,False,14,-1,1,13
072M29,7,443,AS,exp,27,←,down,↓,0.6925496999999723,False,15,-1,0,13
072M29,7,444,AS,exp,42,→,right,→,0.571801300000061,True,16,-1,0,13
072M29,7,445,AS,exp,47,↑,down,↓,0.7225910000001932,False,16,-1,0,13
072M29,7,446,AS,exp,49,→,right,→,0.6862674999999854,True,17,-1,0,13
072M29,7,447,AS,exp,34,↑,up,↑,0.806385599999885,True,17,1,1,14
072M29,8,448,PS,intra_train,49,←,left,←,0.5964329000000816,True,10,-,-,-
072M29,8,449,PS,intra_train,42,↓,down,↓,0.48026740000000245,True,10,-,-,-
072M29,8,450,PS,intra_train,46,→,right,→,0.7183178000000225,True,10,-,-,-
072M29,8,451,PS,intra_train,43,↑,up,↑,0.6511698000001616,True,10,-,-,-
072M29,8,452,PS,intra_train,31,↓,right,→,0.7936466999999539,False,10,-,-,-
072M29,8,453,PS,exp,39,→,right,→,0.666531999999961,True,7,0,0,0
072M29,8,454,PS,exp,34,↓,right,→,0.51041320000013,False,7,-1,0,0
072M29,8,455,PS,exp,40,←,left,←,0.5199210999999195,True,8,-1,0,0
072M29,8,456,PS,exp,43,↓,down,↓,0.5077167000001737,True,8,1,1,1
072M29,8,457,PS,exp,29,←,down,↓,0.5772371000000476,False,7,-1,1,2
072M29,8,458,PS,exp,38,↓,down,↓,0.43183509999994385,True,8,-1,0,2
072M29,8,459,PS,exp,40,←,down,↓,0.2006610000000819,False,8,-1,0,2
072M29,8,460,PS,exp,28,↓,right,→,0.5570024999999532,False,9,-1,0,2
072M29,8,461,PS,exp,28,↑,down,↓,0.5158031000000847,False,10,-1,0,2
072M29,8,462,PS,exp,45,↓,right,→,1.1245349000000715,False,11,-1,0,2
072M29,8,463,PS,exp,42,↑,right,→,0.6739875000000666,False,12,-1,0,2
072M29,8,464,PS,exp,34,↓,down,↓,0.4639027000000624,True,13,-1,0,2
072M29,8,465,PS,exp,29,↑,up,↑,0.771261000000095,True,13,1,1,3
072M29,8,466,PS,exp,43,↓,down,↓,0.47527609999997367,True,12,1,0,3
072M29,8,467,PS,exp,48,→,right,→,0.5310626999998931,True,12,1,0,3
072M29,8,468,PS,exp,35,↑,left,←,0.16711349999991398,False,11,-1,1,4
072M29,8,469,PS,exp,50,→,right,→,0.15122509999991962,True,12,-1,0,4
072M29,8,470,PS,exp,34,↓,down,↓,1.6696383999999398,True,12,1,1,5
072M29,8,471,PS,exp,37,→,right,→,0.5942038000000593,True,11,1,0,5
072M29,8,472,PS,exp,39,←,right,→,0.49761579999994865,False,11,-1,1,6
072M29,8,473,PS,exp,37,↑,down,↓,0.5126314999999977,False,12,-1,0,6
072M29,8,474,PS,exp,31,↓,down,↓,0.4622047999998813,True,13,-1,0,6
072M29,8,475,PS,exp,48,↑,down,↓,0.8489976999999271,False,13,-1,0,6
072M29,8,476,PS,exp,39,←,left,←,0.5921593999999004,True,14,-1,0,6
072M29,8,477,PS,exp,45,↑,down,↓,0.6678445000000011,False,14,-1,0,6
072M29,8,478,PS,exp,42,←,left,←,0.7342252000000826,True,15,-1,0,6
072M29,8,479,PS,exp,46,↑,up,↑,0.8165692999998555,True,15,1,1,7
072M29,8,480,PS,exp,33,↓,down,↓,0.49744600000008177,True,14,1,0,7
072M29,8,481,PS,exp,39,←,left,←,0.47906079999984286,True,14,1,0,7
072M29,8,482,PS,exp,38,→,right,→,0.6153532999999243,True,13,1,0,7
072M29,8,483,PS,exp,47,←,left,←,0.5910200000000714,True,13,1,0,7
072M29,8,484,PS,exp,45,↓,down,↓,0.546442199999774,True,12,1,0,7
072M29,8,485,PS,exp,30,→,right,→,0.6359838000000764,True,12,1,0,7
072M29,8,486,PS,exp,39,↑,up,↑,0.7107271999998375,True,11,1,0,7
072M29,8,487,PS,exp,27,↓,down,↓,0.6968286999999691,True,11,1,0,7
072M29,8,488,PS,exp,36,←,right,→,0.4596513999999843,False,10,-1,1,8
072M29,8,489,PS,exp,37,→,right,→,0.51268570000002,True,11,-1,0,8
072M29,8,490,PS,exp,42,↑,up,↑,0.6336045000000468,True,11,1,1,9
072M29,8,491,PS,exp,38,←,left,←,0.48913690000017596,True,10,1,0,9
072M29,8,492,PS,exp,47,→,right,→,0.49515180000003056,True,10,1,0,9
072M29,8,493,PS,exp,50,↓,down,↓,0.5149473000001308,True,9,1,0,9
072M29,8,494,PS,exp,30,↑,down,↓,0.6410887999998067,False,9,-1,1,10
072M29,8,495,PS,exp,46,→,right,→,0.5083062999999584,True,10,-1,0,10
072M29,8,496,PS,exp,45,↓,down,↓,0.4990491999999449,True,10,1,1,11
072M29,8,497,PS,exp,37,↑,up,↑,0.6056332000000566,True,9,1,0,11
072M29,8,498,PS,exp,30,↓,down,↓,0.497334599999931,True,9,1,0,11
072M29,8,499,PS,exp,27,→,right,→,0.5819518999999218,True,8,1,0,11
072M29,8,500,PS,exp,49,↑,up,↑,0.5961826000000201,True,8,1,0,11
072M29,8,501,PS,exp,34,↓,right,→,0.672623700000031,False,7,-1,1,12
072M29,8,502,PS,exp,35,←,left,←,0.6510548000001108,True,8,-1,0,12
072M29,8,503,PS,exp,28,→,right,→,0.5386231999998472,True,8,1,1,13
072M29,8,504,PS,exp,34,↑,up,↑,0.6629147000001012,True,7,1,0,13
072M29,8,505,PS,exp,43,↓,down,↓,0.566479500000014,True,7,1,0,13
072M29,8,506,PS,exp,32,↑,up,↑,0.7912883999999849,True,6,1,0,13
072M29,8,507,PS,exp,43,←,down,↓,1.2392197000001488,False,6,-1,1,14
