PART_ID,Block_no,Trial_no,Block_type,Trial_type,CSI,Stim_letter,Key_pressed,letter_choose,Rt,Corr,Stimulus Time,Level,Reversal,Revs_count
093M21,1,1,PS,train,35,←,left,←,0.8304378000029828,True,30,-,-,-
093M21,1,2,PS,train,26,→,right,→,1.6299805000016931,True,30,-,-,-
093M21,1,3,PS,train,36,←,left,←,1.1787883999932092,True,30,-,-,-
093M21,1,4,PS,train,40,↓,down,↓,0.9618643000139855,True,30,-,-,-
093M21,1,5,PS,train,28,↑,up,↑,1.1898876000195742,True,30,-,-,-
093M21,1,6,PS,train,34,↓,down,↓,1.247766499989666,True,30,-,-,-
093M21,1,7,PS,train,42,↑,up,↑,0.6824998999945819,True,30,-,-,-
093M21,1,8,PS,train,44,↓,down,↓,0.7792329999792855,True,30,-,-,-
093M21,1,9,PS,train,28,↑,up,↑,0.779011000005994,True,30,-,-,-
093M21,1,10,PS,train,36,→,right,→,0.9204032999987248,True,30,-,-,-
093M21,2,11,AS,train,38,↓,down,↓,0.9358966000145301,True,45,-,-,-
093M21,2,12,AS,train,43,↑,up,↑,1.41448649999802,True,45,-,-,-
093M21,2,13,AS,train,30,↓,no_key,no_letter,-1.0,False,45,-,-,-
093M21,2,14,AS,train,27,←,left,←,0.8337553000019398,True,45,-,-,-
093M21,2,15,AS,train,28,↑,up,↑,0.833822999993572,True,45,-,-,-
093M21,2,16,AS,train,46,↓,down,↓,0.7178231999860145,True,45,-,-,-
093M21,2,17,AS,train,40,→,right,→,0.7838635999942198,True,45,-,-,-
093M21,2,18,AS,train,25,↑,up,↑,1.2215459999861196,True,45,-,-,-
093M21,2,19,AS,train,32,←,left,←,0.6179161000181921,True,45,-,-,-
093M21,2,20,AS,train,48,→,right,→,2.2238963000127114,True,45,-,-,-
093M21,-,21,PS,adaptive,25,←,left,←,0.7099065000074916,True,10,0,0,0
093M21,-,22,PS,adaptive,40,↓,down,↓,0.7784033000061754,True,10,1,0,0
093M21,-,23,PS,adaptive,37,→,right,→,0.48078480002004653,True,9,1,0,0
093M21,-,24,PS,adaptive,40,↑,left,←,1.0213415999896824,False,9,-1,1,1
093M21,-,25,PS,adaptive,27,↓,left,←,1.425594899978023,False,10,-1,0,1
093M21,-,26,PS,adaptive,44,↑,down,↓,1.7772609000094235,False,11,-1,0,1
093M21,-,27,PS,adaptive,43,←,left,←,0.6202981999958865,True,12,-1,0,1
093M21,-,28,PS,adaptive,27,→,right,→,0.5881747000094038,True,12,1,1,2
093M21,-,29,PS,adaptive,40,←,left,←,0.649401599977864,True,11,1,0,2
093M21,-,30,PS,adaptive,31,↑,up,↑,0.8739702999882866,True,11,1,0,2
093M21,-,31,PS,adaptive,40,→,up,↑,1.010509000014281,False,10,-1,1,3
093M21,-,32,PS,adaptive,42,←,left,←,0.7121153000043705,True,11,-1,0,3
093M21,-,33,PS,adaptive,43,→,right,→,0.5026555999938864,True,11,1,1,4
093M21,-,34,AS,adaptive,28,↓,left,←,1.3202060000039637,False,20,-1,0,0
093M21,-,35,AS,adaptive,28,→,right,→,0.7326067999820225,True,21,-1,0,0
093M21,-,36,AS,adaptive,34,↑,left,←,1.0205923999892548,False,21,-1,0,0
093M21,-,37,AS,adaptive,39,←,left,←,0.628351899998961,True,22,-1,0,0
093M21,-,38,AS,adaptive,50,↑,up,↑,0.684923599998001,True,22,1,1,1
093M21,-,39,AS,adaptive,41,↓,down,↓,0.6455782999983057,True,21,1,0,1
093M21,-,40,AS,adaptive,35,→,left,←,1.0440217000141274,False,21,-1,1,2
093M21,-,41,AS,adaptive,28,↑,up,↑,0.5927566000027582,True,22,-1,0,2
093M21,-,42,AS,adaptive,38,↓,up,↑,0.9381235000037123,False,22,-1,0,2
093M21,-,43,AS,adaptive,27,←,left,←,0.8720652000047266,True,23,-1,0,2
093M21,-,44,AS,adaptive,44,↑,right,→,1.04130989999976,False,23,-1,0,2
093M21,-,45,AS,adaptive,33,↓,up,↑,0.9822181999916211,False,24,-1,0,2
093M21,-,46,AS,adaptive,45,←,left,←,0.78170439999667,True,25,-1,0,2
093M21,-,47,AS,adaptive,43,→,right,→,0.48382540000602603,True,25,1,1,3
093M21,-,48,AS,adaptive,41,↓,left,←,0.6503126999887172,False,24,-1,1,4
093M21,1,49,AS,intra_train,28,↑,up,↑,0.8435097000037786,True,37,-,-,-
093M21,1,50,AS,intra_train,39,↓,down,↓,1.0358049999922514,True,37,-,-,-
093M21,1,51,AS,intra_train,41,↑,right,→,0.5180986000050325,False,37,-,-,-
093M21,1,52,AS,intra_train,29,→,right,→,0.6672203000052832,True,37,-,-,-
093M21,1,53,AS,intra_train,29,↓,down,↓,0.7171753000002354,True,37,-,-,-
093M21,1,54,AS,exp,26,←,left,←,0.5171778999792878,True,25,0,0,0
093M21,1,55,AS,exp,46,↑,down,↓,1.1581175999890547,False,25,-1,0,0
093M21,1,56,AS,exp,28,→,right,→,0.7145103000220843,True,26,-1,0,0
093M21,1,57,AS,exp,30,←,left,←,0.8778897000011057,True,26,1,1,1
093M21,1,58,AS,exp,28,↓,down,↓,0.9330198000243399,True,25,1,0,1
093M21,1,59,AS,exp,28,→,right,→,0.534347999986494,True,25,1,0,1
093M21,1,60,AS,exp,32,←,no_key,no_letter,-1.0,False,24,-1,1,2
093M21,1,61,AS,exp,33,↓,right,→,0.5337884000036865,False,25,-1,0,2
093M21,1,62,AS,exp,38,→,left,←,1.252947899978608,False,26,-1,0,2
093M21,1,63,AS,exp,42,↑,right,→,1.2154321999987587,False,27,-1,0,2
093M21,1,64,AS,exp,25,→,left,←,0.4178257999883499,False,28,-1,0,2
093M21,1,65,AS,exp,49,↓,down,↓,0.4836425999819767,True,29,-1,0,2
093M21,1,66,AS,exp,41,→,right,→,0.4515882999985479,True,29,1,1,3
093M21,1,67,AS,exp,31,↑,down,↓,0.5504218999994919,False,28,-1,1,4
093M21,1,68,AS,exp,31,←,no_key,no_letter,-1.0,False,29,-1,0,4
093M21,1,69,AS,exp,48,↑,left,←,0.6170885999745224,False,30,-1,0,4
093M21,1,70,AS,exp,26,→,right,→,0.41781829998944886,True,31,-1,0,4
093M21,1,71,AS,exp,46,↓,down,↓,0.7385893999889959,True,31,1,1,5
093M21,1,72,AS,exp,46,↑,up,↑,0.765235600003507,True,30,1,0,5
093M21,1,73,AS,exp,41,→,right,→,0.5670368999999482,True,30,1,0,5
093M21,1,74,AS,exp,32,↑,up,↑,0.6964196000189986,True,29,1,0,5
093M21,1,75,AS,exp,25,←,right,→,0.48391999999876134,False,29,-1,1,6
093M21,1,76,AS,exp,42,→,right,→,0.709612400009064,True,30,-1,0,6
093M21,1,77,AS,exp,42,↑,up,↑,0.5339022999978624,True,30,1,1,7
093M21,1,78,AS,exp,37,←,left,←,0.790530599973863,True,29,1,0,7
093M21,1,79,AS,exp,34,→,right,→,0.4179028000216931,True,29,1,0,7
093M21,1,80,AS,exp,46,↑,up,↑,0.5671809999912512,True,28,1,0,7
093M21,1,81,AS,exp,30,↓,down,↓,1.0100193000107538,True,28,1,0,7
093M21,1,82,AS,exp,37,←,left,←,0.6548538000206463,True,27,1,0,7
093M21,1,83,AS,exp,26,→,right,→,0.694189700006973,True,27,1,0,7
093M21,1,84,AS,exp,40,←,left,←,0.6157720999908634,True,26,1,0,7
093M21,1,85,AS,exp,40,↓,right,→,0.5004256000102032,False,26,-1,1,8
093M21,1,86,AS,exp,44,↑,down,↓,1.1615778999985196,False,27,-1,0,8
093M21,1,87,AS,exp,28,←,left,←,0.6461736999917775,True,28,-1,0,8
093M21,1,88,AS,exp,40,↓,down,↓,0.9693674000154715,True,28,1,1,9
093M21,1,89,AS,exp,28,↑,up,↑,0.8882448000076693,True,27,1,0,9
093M21,1,90,AS,exp,43,↓,right,→,1.1718013000208884,False,27,-1,1,10
093M21,1,91,AS,exp,29,←,left,←,0.48366639998857863,True,28,-1,0,10
093M21,1,92,AS,exp,25,↓,down,↓,1.049021899991203,True,28,1,1,11
093M21,1,93,AS,exp,40,→,right,→,0.6214746999903582,True,27,1,0,11
093M21,1,94,AS,exp,31,↓,up,↑,0.8302236000017729,False,27,-1,1,12
093M21,1,95,AS,exp,37,↑,up,↑,0.9145086999924388,True,28,-1,0,12
093M21,1,96,AS,exp,38,↓,down,↓,0.8021937000157777,True,28,1,1,13
093M21,1,97,AS,exp,41,↑,no_key,no_letter,-1.0,False,27,-1,1,14
093M21,2,98,PS,intra_train,46,↓,down,↓,0.8738618000061251,True,15,-,-,-
093M21,2,99,PS,intra_train,32,↑,up,↑,0.7660171999887098,True,15,-,-,-
093M21,2,100,PS,intra_train,33,↓,no_key,no_letter,-1.0,False,15,-,-,-
093M21,2,101,PS,intra_train,48,←,left,←,0.5776292000082321,True,15,-,-,-
093M21,2,102,PS,intra_train,26,↑,up,↑,0.7893778999859933,True,15,-,-,-
093M21,2,103,PS,exp,38,↓,down,↓,0.7292697000084445,True,10,0,0,0
093M21,2,104,PS,exp,27,→,right,→,0.5205267000128515,True,10,1,0,0
093M21,2,105,PS,exp,38,←,left,←,0.5435499000013806,True,9,1,0,0
093M21,2,106,PS,exp,26,↑,up,↑,0.7280556000187062,True,9,1,0,0
093M21,2,107,PS,exp,45,←,left,←,0.5514260000200011,True,8,1,0,0
093M21,2,108,PS,exp,25,↑,up,↑,0.7192709999799263,True,8,1,0,0
093M21,2,109,PS,exp,48,←,left,←,0.37343440001131967,True,7,1,0,0
093M21,2,110,PS,exp,36,→,right,→,0.5591033000091556,True,7,1,0,0
093M21,2,111,PS,exp,28,↓,up,↑,0.6302251000015531,False,6,-1,1,1
093M21,2,112,PS,exp,25,→,right,→,0.6663735999900382,True,7,-1,0,1
093M21,2,113,PS,exp,40,↓,down,↓,0.776650999992853,True,7,1,1,2
093M21,2,114,PS,exp,40,→,up,↑,0.7059044000052381,False,6,-1,1,3
093M21,2,115,PS,exp,49,↑,up,↑,0.6823642999806907,True,7,-1,0,3
093M21,2,116,PS,exp,50,→,up,↑,0.9585211000230629,False,7,-1,0,3
093M21,2,117,PS,exp,35,↓,up,↑,0.6701105999818537,False,8,-1,0,3
093M21,2,118,PS,exp,41,←,left,←,0.7530244000081439,True,9,-1,0,3
093M21,2,119,PS,exp,46,↓,up,↑,0.8400849000026938,False,9,-1,0,3
093M21,2,120,PS,exp,37,↑,up,↑,0.5773139999946579,True,10,-1,0,3
093M21,2,121,PS,exp,36,↓,down,↓,1.0171701000072062,True,10,1,1,4
093M21,2,122,PS,exp,39,←,left,←,0.746826599992346,True,9,1,0,4
093M21,2,123,PS,exp,44,↑,up,↑,1.1640104999823961,True,9,1,0,4
093M21,2,124,PS,exp,40,→,up,↑,1.0482068000128493,False,8,-1,1,5
093M21,2,125,PS,exp,36,↑,up,↑,0.5408786000043619,True,9,-1,0,5
093M21,2,126,PS,exp,25,↓,up,↑,0.5155311000125948,False,9,-1,0,5
093M21,2,127,PS,exp,31,←,up,↑,0.4196419999934733,False,10,-1,0,5
093M21,2,128,PS,exp,26,→,right,→,0.4850880999874789,True,11,-1,0,5
093M21,2,129,PS,exp,45,↑,up,↑,0.4654175999748986,True,11,1,1,6
093M21,2,130,PS,exp,26,←,right,→,0.7557632999960333,False,10,-1,1,7
093M21,2,131,PS,exp,28,↓,up,↑,0.7225397000147495,False,11,-1,0,7
093M21,2,132,PS,exp,41,→,up,↑,1.0659976000024471,False,12,-1,0,7
093M21,2,133,PS,exp,38,←,no_key,no_letter,-1.0,False,13,-1,0,7
093M21,2,134,PS,exp,37,↓,down,↓,0.802542400022503,True,14,-1,0,7
093M21,2,135,PS,exp,42,↑,up,↑,0.5690314999956172,True,14,1,1,8
093M21,2,136,PS,exp,26,→,left,←,0.8452348999853712,False,13,-1,1,9
093M21,2,137,PS,exp,40,↑,down,↓,0.8322411999979522,False,14,-1,0,9
093M21,2,138,PS,exp,37,→,right,→,0.6573058000067249,True,15,-1,0,9
093M21,2,139,PS,exp,48,↑,up,↑,0.5278670999978203,True,15,1,1,10
093M21,2,140,PS,exp,35,↓,down,↓,0.8161850000033155,True,14,1,0,10
093M21,2,141,PS,exp,40,←,left,←,0.5082644999783952,True,14,1,0,10
093M21,2,142,PS,exp,43,→,right,→,0.5467174999939743,True,13,1,0,10
093M21,2,143,PS,exp,35,←,left,←,0.439719200017862,True,13,1,0,10
093M21,2,144,PS,exp,36,↑,up,↑,0.5600729000288993,True,12,1,0,10
093M21,2,145,PS,exp,30,↓,left,←,0.42230480001308024,False,12,-1,1,11
093M21,2,146,PS,exp,50,↑,right,→,0.4168567000015173,False,13,-1,0,11
093M21,2,147,PS,exp,26,↓,down,↓,0.7463249999855179,True,14,-1,0,11
093M21,2,148,PS,exp,46,↑,up,↑,0.8696570000029169,True,14,1,1,12
093M21,2,149,PS,exp,37,→,right,→,0.5331941999902483,True,13,1,0,12
093M21,2,150,PS,exp,34,↑,up,↑,0.6971518000063952,True,13,1,0,12
093M21,2,151,PS,exp,26,←,left,←,0.5591759999806527,True,12,1,0,12
093M21,2,152,PS,exp,30,↓,down,↓,0.8956135000044014,True,12,1,0,12
093M21,2,153,PS,exp,29,←,left,←,0.5350773000100162,True,11,1,0,12
093M21,2,154,PS,exp,39,↑,up,↑,0.6016073000209872,True,11,1,0,12
093M21,2,155,PS,exp,41,↓,down,↓,0.7620049999968614,True,10,1,0,12
093M21,2,156,PS,exp,44,←,left,←,0.5519581999978982,True,10,1,0,12
093M21,2,157,PS,exp,39,↑,up,↑,0.9627650000038557,True,9,1,0,12
093M21,2,158,PS,exp,25,↓,down,↓,0.7777967000147328,True,9,1,0,12
093M21,2,159,PS,exp,29,↑,up,↑,0.8856531000055838,True,8,1,0,12
093M21,2,160,PS,exp,50,←,left,←,0.47945529999560677,True,8,1,0,12
093M21,2,161,PS,exp,26,↑,up,↑,0.6270942000264768,True,7,1,0,12
093M21,2,162,PS,exp,40,↓,down,↓,0.7250213999941479,True,7,1,0,12
093M21,2,163,PS,exp,26,↑,right,→,1.002516900014598,False,6,-1,1,13
093M21,2,164,PS,exp,30,↓,left,←,0.443456300010439,False,7,-1,0,13
093M21,2,165,PS,exp,30,↑,down,↓,0.7262687000038568,False,8,-1,0,13
093M21,2,166,PS,exp,34,↓,down,↓,0.7984433000092395,True,9,-1,0,13
093M21,2,167,PS,exp,39,→,right,→,0.4853296999935992,True,9,1,1,14
093M21,3,168,PS,intra_train,29,←,left,←,0.6026979000016581,True,15,-,-,-
093M21,3,169,PS,intra_train,34,↑,up,↑,0.5378658999979962,True,15,-,-,-
093M21,3,170,PS,intra_train,25,←,left,←,0.5554485000029672,True,15,-,-,-
093M21,3,171,PS,intra_train,37,↑,up,↑,0.5737078000092879,True,15,-,-,-
093M21,3,172,PS,intra_train,33,↓,down,↓,0.7201589000178501,True,15,-,-,-
093M21,3,173,PS,exp,36,↑,up,↑,0.6872109000105411,True,10,0,0,0
093M21,3,174,PS,exp,48,→,right,→,0.4349025000119582,True,10,1,0,0
093M21,3,175,PS,exp,45,←,up,↑,0.7019047999929171,False,9,-1,1,1
093M21,3,176,PS,exp,38,↓,down,↓,0.6259754000057001,True,10,-1,0,1
093M21,3,177,PS,exp,36,←,left,←,0.5295538000063971,True,10,1,1,2
093M21,3,178,PS,exp,26,↑,up,↑,0.6344315999886021,True,9,1,0,2
093M21,3,179,PS,exp,27,↓,down,↓,0.6954039000265766,True,9,1,0,2
093M21,3,180,PS,exp,48,←,left,←,0.48864269998739474,True,8,1,0,2
093M21,3,181,PS,exp,48,→,right,→,0.4026591000147164,True,8,1,0,2
093M21,3,182,PS,exp,26,←,up,↑,0.7289875000133179,False,7,-1,1,3
093M21,3,183,PS,exp,32,↓,right,→,0.591497099987464,False,8,-1,0,3
093M21,3,184,PS,exp,25,↑,up,↑,0.4818284999928437,True,9,-1,0,3
093M21,3,185,PS,exp,50,←,left,←,0.4984561000019312,True,9,1,1,4
093M21,3,186,PS,exp,33,↓,down,↓,0.8840236999967601,True,8,1,0,4
093M21,3,187,PS,exp,27,←,left,←,0.4774926000100095,True,8,1,0,4
093M21,3,188,PS,exp,27,→,left,←,0.5187181999790482,False,7,-1,1,5
093M21,3,189,PS,exp,40,↓,down,↓,0.6790272000071127,True,8,-1,0,5
093M21,3,190,PS,exp,32,→,left,←,0.43931099999463186,False,8,-1,0,5
093M21,3,191,PS,exp,32,↑,up,↑,0.5305981000128668,True,9,-1,0,5
093M21,3,192,PS,exp,42,→,right,→,0.40128120000008494,True,9,1,1,6
093M21,3,193,PS,exp,38,↑,left,←,0.6910110999888275,False,8,-1,1,7
093M21,3,194,PS,exp,30,←,left,←,0.5197216999949887,True,9,-1,0,7
093M21,3,195,PS,exp,30,↓,left,←,0.5432327000016812,False,9,-1,0,7
093M21,3,196,PS,exp,37,←,left,←,0.46183889999520034,True,10,-1,0,7
093M21,3,197,PS,exp,38,↓,no_key,no_letter,-1.0,False,10,-1,0,7
093M21,3,198,PS,exp,35,↑,up,↑,0.5014618999848608,True,11,-1,0,7
093M21,3,199,PS,exp,47,→,right,→,0.5184829000208993,True,11,1,1,8
093M21,3,200,PS,exp,46,←,left,←,0.4757611000095494,True,10,1,0,8
093M21,3,201,PS,exp,26,↑,up,↑,0.5813021999783814,True,10,1,0,8
093M21,3,202,PS,exp,42,↓,down,↓,0.7628691999998409,True,9,1,0,8
093M21,3,203,PS,exp,26,↑,right,→,0.45038340002065524,False,9,-1,1,9
093M21,3,204,PS,exp,47,←,left,←,0.3557905000052415,True,10,-1,0,9
093M21,3,205,PS,exp,30,↓,down,↓,0.7556877000024542,True,10,1,1,10
093M21,3,206,PS,exp,29,↑,up,↑,0.5011873999901582,True,9,1,0,10
093M21,3,207,PS,exp,48,→,right,→,0.3548431000090204,True,9,1,0,10
093M21,3,208,PS,exp,45,↑,up,↑,0.5061400000122376,True,8,1,0,10
093M21,3,209,PS,exp,49,↓,down,↓,0.6841765000135638,True,8,1,0,10
093M21,3,210,PS,exp,27,←,left,←,0.5563549999787938,True,7,1,0,10
093M21,3,211,PS,exp,29,→,right,→,0.5405312000075355,True,7,1,0,10
093M21,3,212,PS,exp,48,↑,left,←,0.3686860000016168,False,6,-1,1,11
093M21,3,213,PS,exp,46,←,left,←,0.5459659000043757,True,7,-1,0,11
093M21,3,214,PS,exp,38,↓,down,↓,0.7541482000087854,True,7,1,1,12
093M21,3,215,PS,exp,35,→,right,→,0.48509300002478994,True,6,1,0,12
093M21,3,216,PS,exp,28,←,left,←,0.49747040000511333,True,6,1,0,12
093M21,3,217,PS,exp,25,→,right,→,0.9696829000022262,True,5,1,0,12
093M21,3,218,PS,exp,46,←,left,←,0.5282609999994747,True,5,1,0,12
093M21,3,219,PS,exp,47,↓,up,↑,0.8524792999960482,False,4,-1,1,13
093M21,3,220,PS,exp,41,→,down,↓,0.7658933999773581,False,5,-1,0,13
093M21,3,221,PS,exp,28,←,left,←,0.5181162999942899,True,6,-1,0,13
093M21,3,222,PS,exp,39,→,right,→,0.48944269999628887,True,6,1,1,14
093M21,4,223,AS,intra_train,37,↓,down,↓,0.633918800012907,True,37,-,-,-
093M21,4,224,AS,intra_train,42,←,left,←,0.6504613000142854,True,37,-,-,-
093M21,4,225,AS,intra_train,38,↓,down,↓,0.5346268999855965,True,37,-,-,-
093M21,4,226,AS,intra_train,32,←,left,←,0.8178271999931894,True,37,-,-,-
093M21,4,227,AS,intra_train,42,↑,up,↑,0.6004498999973293,True,37,-,-,-
093M21,4,228,AS,exp,35,←,left,←,0.6012630999903195,True,25,0,0,0
093M21,4,229,AS,exp,28,↓,up,↑,0.5977275999903213,False,25,-1,0,0
093M21,4,230,AS,exp,27,←,left,←,0.48373770000762306,True,26,-1,0,0
093M21,4,231,AS,exp,30,↓,down,↓,0.677151399984723,True,26,1,1,1
093M21,4,232,AS,exp,32,←,left,←,0.6078028999909293,True,25,1,0,1
093M21,4,233,AS,exp,28,→,no_key,no_letter,-1.0,False,25,-1,1,2
093M21,4,234,AS,exp,29,←,left,←,0.5335779000015464,True,26,-1,0,2
093M21,4,235,AS,exp,41,→,right,→,0.46659249998629093,True,26,1,1,3
093M21,4,236,AS,exp,45,↑,no_key,no_letter,-1.0,False,25,-1,1,4
093M21,4,237,AS,exp,47,←,left,←,0.46726920001674443,True,26,-1,0,4
093M21,4,238,AS,exp,46,→,right,→,0.5671595000021625,True,26,1,1,5
093M21,4,239,AS,exp,48,↓,down,↓,0.8495355999912135,True,25,1,0,5
093M21,4,240,AS,exp,26,↑,up,↑,0.9156551999913063,True,25,1,0,5
093M21,4,241,AS,exp,30,→,right,→,0.6868540999712422,True,24,1,0,5
093M21,4,242,AS,exp,30,↑,up,↑,0.8238978000008501,True,24,1,0,5
093M21,4,243,AS,exp,29,→,right,→,0.9255640000046697,True,23,1,0,5
093M21,4,244,AS,exp,32,↓,down,↓,0.9066983999800868,True,23,1,0,5
093M21,4,245,AS,exp,31,←,left,←,0.7323478999896906,True,22,1,0,5
093M21,4,246,AS,exp,35,↓,up,↑,1.1001121000153944,False,22,-1,1,6
093M21,4,247,AS,exp,30,←,up,↑,0.9916207999922335,False,23,-1,0,6
093M21,4,248,AS,exp,49,↓,down,↓,0.7153458999819122,True,24,-1,0,6
093M21,4,249,AS,exp,32,↑,up,↑,0.5338401999906637,True,24,1,1,7
093M21,4,250,AS,exp,30,←,left,←,0.640854000026593,True,23,1,0,7
093M21,4,251,AS,exp,35,→,right,→,0.46721360000083223,True,23,1,0,7
093M21,4,252,AS,exp,30,↑,up,↑,0.8518722000007983,True,22,1,0,7
093M21,4,253,AS,exp,50,→,right,→,0.6206979000126012,True,22,1,0,7
093M21,4,254,AS,exp,32,←,left,←,0.5769723000121303,True,21,1,0,7
093M21,4,255,AS,exp,35,→,right,→,0.5397184000175912,True,21,1,0,7
093M21,4,256,AS,exp,36,←,left,←,0.6443107999803033,True,20,1,0,7
093M21,4,257,AS,exp,45,↓,down,↓,1.0135005000047386,True,20,1,0,7
093M21,4,258,AS,exp,34,↑,left,←,0.7347883000038564,False,19,-1,1,8
093M21,4,259,AS,exp,48,←,left,←,0.6503617000125814,True,20,-1,0,8
093M21,4,260,AS,exp,46,↓,down,↓,0.7267753000196535,True,20,1,1,9
093M21,4,261,AS,exp,47,→,left,←,0.6953368999820668,False,19,-1,1,10
093M21,4,262,AS,exp,33,←,left,←,0.8752803000097629,True,20,-1,0,10
093M21,4,263,AS,exp,49,→,right,→,0.6746144000208005,True,20,1,1,11
093M21,4,264,AS,exp,26,↓,down,↓,0.8506583999842405,True,19,1,0,11
093M21,4,265,AS,exp,29,→,right,→,0.6424691000138409,True,19,1,0,11
093M21,4,266,AS,exp,49,←,right,→,0.5191835000005085,False,18,-1,1,12
093M21,4,267,AS,exp,32,↓,down,↓,0.7751808000029996,True,19,-1,0,12
093M21,4,268,AS,exp,50,↑,left,←,0.6303559999796562,False,19,-1,0,12
093M21,4,269,AS,exp,32,↓,down,↓,0.6404943999950774,True,20,-1,0,12
093M21,4,270,AS,exp,40,←,left,←,0.6096371999883559,True,20,1,1,13
093M21,4,271,AS,exp,32,↓,down,↓,0.6042461000033654,True,19,1,0,13
093M21,4,272,AS,exp,30,→,right,→,0.4869677000096999,True,19,1,0,13
093M21,4,273,AS,exp,25,←,left,←,0.7214387999847531,True,18,1,0,13
093M21,4,274,AS,exp,50,↑,down,↓,0.5832722999912221,False,18,-1,1,14
093M21,5,275,AS,intra_train,40,→,right,→,0.4179053000116255,True,37,-,-,-
093M21,5,276,AS,intra_train,37,↓,down,↓,0.926256500009913,True,37,-,-,-
093M21,5,277,AS,intra_train,27,→,right,→,0.5846254000207409,True,37,-,-,-
093M21,5,278,AS,intra_train,31,↓,down,↓,0.733791199978441,True,37,-,-,-
093M21,5,279,AS,intra_train,44,→,right,→,0.650369100010721,True,37,-,-,-
093M21,5,280,AS,exp,29,↑,up,↑,0.7965750000148546,True,25,0,0,0
093M21,5,281,AS,exp,48,↓,down,↓,0.5996112999855541,True,25,1,0,0
093M21,5,282,AS,exp,31,→,right,→,0.7309055000077933,True,24,1,0,0
093M21,5,283,AS,exp,34,↑,up,↑,0.8837584999855608,True,24,1,0,0
093M21,5,284,AS,exp,37,↓,down,↓,1.0301136999914888,True,23,1,0,0
093M21,5,285,AS,exp,35,←,down,↓,0.9253490999981295,False,23,-1,1,1
093M21,5,286,AS,exp,44,→,right,→,0.45052680000662804,True,24,-1,0,1
093M21,5,287,AS,exp,41,↓,no_key,no_letter,-1.0,False,24,-1,0,1
093M21,5,288,AS,exp,27,↑,up,↑,0.9067715000128374,True,25,-1,0,1
093M21,5,289,AS,exp,31,→,right,→,0.5338585000135936,True,25,1,1,2
093M21,5,290,AS,exp,29,↓,down,↓,0.6996094000060111,True,24,1,0,2
093M21,5,291,AS,exp,42,←,left,←,0.5337153000000399,True,24,1,0,2
093M21,5,292,AS,exp,25,↓,down,↓,0.7860568999894895,True,23,1,0,2
093M21,5,293,AS,exp,49,↑,right,→,0.4671041000110563,False,23,-1,1,3
093M21,5,294,AS,exp,38,←,left,←,0.8670745999843348,True,24,-1,0,3
093M21,5,295,AS,exp,38,↑,up,↑,0.8038255000137724,True,24,1,1,4
093M21,5,296,AS,exp,31,→,no_key,no_letter,-1.0,False,23,-1,1,5
093M21,5,297,AS,exp,42,↓,right,→,0.533815799979493,False,24,-1,0,5
093M21,5,298,AS,exp,25,→,right,→,0.5976782999932766,True,25,-1,0,5
093M21,5,299,AS,exp,45,↓,left,←,0.5337851000076625,False,25,-1,0,5
093M21,5,300,AS,exp,36,←,left,←,0.9590687000018079,True,26,-1,0,5
093M21,5,301,AS,exp,37,→,no_key,no_letter,-1.0,False,26,-1,0,5
093M21,5,302,AS,exp,43,←,no_key,no_letter,-1.0,False,27,-1,0,5
093M21,5,303,AS,exp,47,↑,up,↑,0.6521317000151612,True,28,-1,0,5
093M21,5,304,AS,exp,42,↓,down,↓,0.8198652000282891,True,28,1,1,6
093M21,5,305,AS,exp,30,←,left,←,0.733262099995045,True,27,1,0,6
093M21,5,306,AS,exp,39,→,right,→,0.4997919999877922,True,27,1,0,6
093M21,5,307,AS,exp,40,↑,left,←,0.6421985999913886,False,26,-1,1,7
093M21,5,308,AS,exp,47,↓,down,↓,1.1920884000137448,True,27,-1,0,7
093M21,5,309,AS,exp,27,←,left,←,0.6442854999913834,True,27,1,1,8
093M21,5,310,AS,exp,41,→,left,←,0.6063290000020061,False,26,-1,1,9
093M21,5,311,AS,exp,39,←,left,←,0.6765986999962479,True,27,-1,0,9
093M21,5,312,AS,exp,42,↑,up,↑,0.582735900010448,True,27,1,1,10
093M21,5,313,AS,exp,41,→,right,→,0.5338520999939647,True,26,1,0,10
093M21,5,314,AS,exp,36,↑,right,→,0.550602200004505,False,26,-1,1,11
093M21,5,315,AS,exp,28,→,right,→,0.7196984000038356,True,27,-1,0,11
093M21,5,316,AS,exp,33,↑,left,←,0.5337588000111282,False,27,-1,0,11
093M21,5,317,AS,exp,42,↓,down,↓,0.9615668999904301,True,28,-1,0,11
093M21,5,318,AS,exp,37,↑,up,↑,0.8114417000033427,True,28,1,1,12
093M21,5,319,AS,exp,44,←,right,→,0.5171585000061896,False,27,-1,1,13
093M21,5,320,AS,exp,34,→,no_key,no_letter,-1.0,False,28,-1,0,13
093M21,5,321,AS,exp,46,↓,down,↓,0.8119976000161842,True,29,-1,0,13
093M21,5,322,AS,exp,41,→,right,→,0.6957913000078406,True,29,1,1,14
093M21,6,323,PS,intra_train,35,←,left,←,0.6123651999805588,True,15,-,-,-
093M21,6,324,PS,intra_train,29,→,right,→,0.4426231999823358,True,15,-,-,-
093M21,6,325,PS,intra_train,36,↓,left,←,0.3837745999917388,False,15,-,-,-
093M21,6,326,PS,intra_train,35,→,right,→,0.38378279999597,True,15,-,-,-
093M21,6,327,PS,intra_train,43,↓,down,↓,0.5516557000228204,True,15,-,-,-
093M21,6,328,PS,exp,38,→,right,→,0.5237740000011399,True,10,0,0,0
093M21,6,329,PS,exp,35,↓,left,←,0.7918038000061642,False,10,-1,0,0
093M21,6,330,PS,exp,39,←,right,→,0.47772240001359023,False,11,-1,0,0
093M21,6,331,PS,exp,40,↑,up,↑,0.6186398999998346,True,12,-1,0,0
093M21,6,332,PS,exp,37,→,right,→,0.627645799977472,True,12,1,1,1
093M21,6,333,PS,exp,47,←,no_key,no_letter,-1.0,False,11,-1,1,2
093M21,6,334,PS,exp,26,→,no_key,no_letter,-1.0,False,12,-1,0,2
093M21,6,335,PS,exp,45,↓,left,←,0.40434770000865683,False,13,-1,0,2
093M21,6,336,PS,exp,31,→,right,→,0.8185124000010546,True,14,-1,0,2
093M21,6,337,PS,exp,36,↑,up,↑,0.571127900009742,True,14,1,1,3
093M21,6,338,PS,exp,30,←,left,←,0.516409499978181,True,13,1,0,3
093M21,6,339,PS,exp,41,↑,up,↑,0.6236969000019599,True,13,1,0,3
093M21,6,340,PS,exp,48,←,left,←,0.5567415000114124,True,12,1,0,3
093M21,6,341,PS,exp,30,↓,down,↓,0.6255078999965917,True,12,1,0,3
093M21,6,342,PS,exp,49,↑,down,↓,0.6450582999968901,False,11,-1,1,4
093M21,6,343,PS,exp,34,↓,down,↓,0.6372525000188034,True,12,-1,0,4
093M21,6,344,PS,exp,35,←,left,←,0.5249517999764066,True,12,1,1,5
093M21,6,345,PS,exp,47,↑,right,→,0.44679500002530403,False,11,-1,1,6
093M21,6,346,PS,exp,38,→,left,←,0.4397451000113506,False,12,-1,0,6
093M21,6,347,PS,exp,42,←,right,→,0.4283129000104964,False,13,-1,0,6
093M21,6,348,PS,exp,30,↑,up,↑,1.044083300017519,True,14,-1,0,6
093M21,6,349,PS,exp,33,←,left,←,0.45080720001715235,True,14,1,1,7
093M21,6,350,PS,exp,38,→,right,→,0.4240980999893509,True,13,1,0,7
093M21,6,351,PS,exp,46,←,left,←,0.47883160001947545,True,13,1,0,7
093M21,6,352,PS,exp,27,↓,down,↓,0.7207025999960024,True,12,1,0,7
093M21,6,353,PS,exp,49,←,left,←,0.43462479999288917,True,12,1,0,7
093M21,6,354,PS,exp,29,→,right,→,0.45249260001583025,True,11,1,0,7
093M21,6,355,PS,exp,32,←,left,←,0.31719519998296164,True,11,1,0,7
093M21,6,356,PS,exp,43,↑,up,↑,0.5598942999786232,True,10,1,0,7
093M21,6,357,PS,exp,26,→,right,→,0.44524979998823255,True,10,1,0,7
093M21,6,358,PS,exp,26,←,right,→,0.48419399998965673,False,9,-1,1,8
093M21,6,359,PS,exp,27,→,right,→,0.3603978999890387,True,10,-1,0,8
093M21,6,360,PS,exp,28,↓,right,→,0.300470399990445,False,10,-1,0,8
093M21,6,361,PS,exp,49,→,right,→,0.5179477999918163,True,11,-1,0,8
093M21,6,362,PS,exp,26,←,left,←,0.5139843000215478,True,11,1,1,9
093M21,6,363,PS,exp,45,↓,down,↓,0.43348770000739023,True,10,1,0,9
093M21,6,364,PS,exp,45,←,down,↓,0.3481300999992527,False,10,-1,1,10
093M21,6,365,PS,exp,29,↑,no_key,no_letter,-1.0,False,11,-1,0,10
093M21,6,366,PS,exp,26,←,left,←,0.47558469997602515,True,12,-1,0,10
093M21,6,367,PS,exp,36,→,right,→,0.469021500000963,True,12,1,1,11
093M21,6,368,PS,exp,28,↑,down,↓,0.8571794999879785,False,11,-1,1,12
093M21,6,369,PS,exp,48,↓,no_key,no_letter,-1.0,False,12,-1,0,12
093M21,6,370,PS,exp,30,↑,up,↑,0.6022828000131994,True,13,-1,0,12
093M21,6,371,PS,exp,31,↓,down,↓,0.5675648999749683,True,13,1,1,13
093M21,6,372,PS,exp,40,↑,up,↑,0.5442921999783721,True,12,1,0,13
093M21,6,373,PS,exp,37,←,left,←,0.5924724000215065,True,12,1,0,13
093M21,6,374,PS,exp,35,→,right,→,0.5755749999952968,True,11,1,0,13
093M21,6,375,PS,exp,44,↓,down,↓,0.5318519999855198,True,11,1,0,13
093M21,6,376,PS,exp,43,←,left,←,0.49534170000697486,True,10,1,0,13
093M21,6,377,PS,exp,27,↓,down,↓,0.5447944000188727,True,10,1,0,13
093M21,6,378,PS,exp,41,←,left,←,0.4320086000079755,True,9,1,0,13
093M21,6,379,PS,exp,41,↓,down,↓,0.5558562999940477,True,9,1,0,13
093M21,6,380,PS,exp,41,←,left,←,0.6327996000181884,True,8,1,0,13
093M21,6,381,PS,exp,36,↑,up,↑,0.6340392999991309,True,8,1,0,13
093M21,6,382,PS,exp,30,←,left,←,0.522298200026853,True,7,1,0,13
093M21,6,383,PS,exp,28,↑,up,↑,0.5085994999972172,True,7,1,0,13
093M21,6,384,PS,exp,33,←,left,←,0.5205362999986392,True,6,1,0,13
093M21,6,385,PS,exp,25,↑,up,↑,0.6941122999996878,True,6,1,0,13
093M21,6,386,PS,exp,27,↓,down,↓,0.6391147999966051,True,5,1,0,13
093M21,6,387,PS,exp,49,←,left,←,0.663693799986504,True,5,1,0,13
093M21,6,388,PS,exp,49,↓,left,←,0.48934919998282567,False,4,-1,1,14
093M21,7,389,PS,intra_train,28,↑,left,←,0.4465716000122484,False,15,-,-,-
093M21,7,390,PS,intra_train,41,←,left,←,0.47401440000976436,True,15,-,-,-
093M21,7,391,PS,intra_train,33,↓,down,↓,0.588242000027094,True,15,-,-,-
093M21,7,392,PS,intra_train,37,→,right,→,0.5128473999793641,True,15,-,-,-
093M21,7,393,PS,intra_train,30,←,left,←,0.4175872999767307,True,15,-,-,-
093M21,7,394,PS,exp,34,↑,up,↑,0.8222593999817036,True,10,0,0,0
093M21,7,395,PS,exp,50,→,right,→,0.5037750999908894,True,10,1,0,0
093M21,7,396,PS,exp,40,↑,up,↑,0.40537739999126643,True,9,1,0,0
093M21,7,397,PS,exp,29,←,left,←,0.4655027999833692,True,9,1,0,0
093M21,7,398,PS,exp,35,→,right,→,0.38504930000635795,True,8,1,0,0
093M21,7,399,PS,exp,30,↓,up,↑,0.5568197999964468,False,8,-1,1,1
093M21,7,400,PS,exp,34,→,right,→,0.47306779999053106,True,9,-1,0,1
093M21,7,401,PS,exp,27,↑,up,↑,0.41257949999999255,True,9,1,1,2
093M21,7,402,PS,exp,27,←,left,←,0.46826269998564385,True,8,1,0,2
093M21,7,403,PS,exp,39,→,right,→,0.43381550000049174,True,8,1,0,2
093M21,7,404,PS,exp,33,↓,up,↑,0.5999396999832243,False,7,-1,1,3
093M21,7,405,PS,exp,46,↑,up,↑,1.086812399997143,True,8,-1,0,3
093M21,7,406,PS,exp,29,↓,down,↓,0.6864886000112165,True,8,1,1,4
093M21,7,407,PS,exp,31,↑,right,→,0.4693645000224933,False,7,-1,1,5
093M21,7,408,PS,exp,26,→,right,→,0.525951299990993,True,8,-1,0,5
093M21,7,409,PS,exp,32,↓,down,↓,0.8050868000136688,True,8,1,1,6
093M21,7,410,PS,exp,36,→,left,←,0.49856209999416023,False,7,-1,1,7
093M21,7,411,PS,exp,45,↑,up,↑,0.5936231999949086,True,8,-1,0,7
093M21,7,412,PS,exp,29,←,left,←,0.5020668000215665,True,8,1,1,8
093M21,7,413,PS,exp,25,↓,down,↓,0.6225983999902382,True,7,1,0,8
093M21,7,414,PS,exp,36,↑,up,↑,0.5461982999986503,True,7,1,0,8
093M21,7,415,PS,exp,26,←,up,↑,0.6015758000139613,False,6,-1,1,9
093M21,7,416,PS,exp,44,→,right,→,0.49959140000282787,True,7,-1,0,9
093M21,7,417,PS,exp,40,←,down,↓,0.6896814999927301,False,7,-1,0,9
093M21,7,418,PS,exp,38,↑,left,←,0.5479249999916647,False,8,-1,0,9
093M21,7,419,PS,exp,41,←,down,↓,0.5206546999979764,False,9,-1,0,9
093M21,7,420,PS,exp,50,↑,down,↓,0.44120090000797063,False,10,-1,0,9
093M21,7,421,PS,exp,49,→,right,→,0.4166900999844074,True,11,-1,0,9
093M21,7,422,PS,exp,30,↑,up,↑,0.5459898000117391,True,11,1,1,10
093M21,7,423,PS,exp,37,←,left,←,0.6462013999989722,True,10,1,0,10
093M21,7,424,PS,exp,30,→,right,→,0.41256029999931343,True,10,1,0,10
093M21,7,425,PS,exp,40,←,right,→,0.32514570001512766,False,9,-1,1,11
093M21,7,426,PS,exp,37,↑,up,↑,0.5394737000169698,True,10,-1,0,11
093M21,7,427,PS,exp,30,→,right,→,0.42321169999195263,True,10,1,1,12
093M21,7,428,PS,exp,48,↑,up,↑,0.5173183000006247,True,9,1,0,12
093M21,7,429,PS,exp,40,↓,down,↓,0.6968609000032302,True,9,1,0,12
093M21,7,430,PS,exp,34,←,left,←,0.46810590001405217,True,8,1,0,12
093M21,7,431,PS,exp,48,↑,up,↑,0.5596051999891642,True,8,1,0,12
093M21,7,432,PS,exp,42,→,right,→,0.46643760000006296,True,7,1,0,12
093M21,7,433,PS,exp,48,↓,right,→,0.38857739997911267,False,7,-1,1,13
093M21,7,434,PS,exp,31,↑,up,↑,0.7491448999790009,True,8,-1,0,13
093M21,7,435,PS,exp,31,←,left,←,0.49234589998377487,True,8,1,1,14
093M21,8,436,AS,intra_train,36,↓,down,↓,0.809640199993737,True,37,-,-,-
093M21,8,437,AS,intra_train,43,→,left,←,0.6174035999865737,False,37,-,-,-
093M21,8,438,AS,intra_train,49,↓,down,↓,0.6172044000122696,True,37,-,-,-
093M21,8,439,AS,intra_train,29,←,left,←,0.683835400006501,True,37,-,-,-
093M21,8,440,AS,intra_train,50,↓,down,↓,0.8516435000055935,True,37,-,-,-
093M21,8,441,AS,exp,43,→,no_key,no_letter,-1.0,False,25,-1,0,0
093M21,8,442,AS,exp,26,↑,up,↑,0.8722382999840192,True,26,-1,0,0
093M21,8,443,AS,exp,37,→,no_key,no_letter,-1.0,False,26,-1,0,0
093M21,8,444,AS,exp,34,←,left,←,0.5839373999915551,True,27,-1,0,0
093M21,8,445,AS,exp,40,↑,up,↑,0.8448511000024155,True,27,1,1,1
093M21,8,446,AS,exp,41,←,left,←,0.4012245000049006,True,26,1,0,1
093M21,8,447,AS,exp,47,↓,down,↓,0.6244949000247288,True,26,1,0,1
093M21,8,448,AS,exp,32,↑,no_key,no_letter,-1.0,False,25,-1,1,2
093M21,8,449,AS,exp,27,←,right,→,0.43372899998212233,False,26,-1,0,2
093M21,8,450,AS,exp,46,↑,up,↑,0.4670711999933701,True,27,-1,0,2
093M21,8,451,AS,exp,31,←,no_key,no_letter,-1.0,False,27,-1,0,2
093M21,8,452,AS,exp,27,↓,right,→,0.5336867999867536,False,28,-1,0,2
093M21,8,453,AS,exp,28,↑,up,↑,0.617031899979338,True,29,-1,0,2
093M21,8,454,AS,exp,39,←,left,←,0.46707109999260865,True,29,1,1,3
093M21,8,455,AS,exp,30,↑,up,↑,0.6440970000112429,True,28,1,0,3
093M21,8,456,AS,exp,32,←,left,←,0.8555776000139304,True,28,1,0,3
093M21,8,457,AS,exp,46,↓,down,↓,0.5839185999939218,True,27,1,0,3
093M21,8,458,AS,exp,32,↑,up,↑,0.5505900999996811,True,27,1,0,3
093M21,8,459,AS,exp,42,↓,no_key,no_letter,-1.0,False,26,-1,1,4
093M21,8,460,AS,exp,50,→,right,→,0.5339181000017561,True,27,-1,0,4
093M21,8,461,AS,exp,49,↑,up,↑,0.858976600022288,True,27,1,1,5
093M21,8,462,AS,exp,26,↓,down,↓,0.6325011999870185,True,26,1,0,5
093M21,8,463,AS,exp,27,↑,up,↑,0.5170955999928992,True,26,1,0,5
093M21,8,464,AS,exp,28,←,right,→,0.6648582000052556,False,25,-1,1,6
093M21,8,465,AS,exp,38,↑,up,↑,0.5171265000244603,True,26,-1,0,6
093M21,8,466,AS,exp,39,←,left,←,0.8920476000057533,True,26,1,1,7
093M21,8,467,AS,exp,30,→,left,←,0.550339300010819,False,25,-1,1,8
093M21,8,468,AS,exp,43,↓,down,↓,0.9592443000001367,True,26,-1,0,8
093M21,8,469,AS,exp,34,→,right,→,0.5004462000215426,True,26,1,1,9
093M21,8,470,AS,exp,45,↓,down,↓,0.5843546999967657,True,25,1,0,9
093M21,8,471,AS,exp,47,↑,up,↑,0.75851660000626,True,25,1,0,9
093M21,8,472,AS,exp,34,→,right,→,0.8086000999901444,True,24,1,0,9
093M21,8,473,AS,exp,44,↑,up,↑,0.6680202999850735,True,24,1,0,9
093M21,8,474,AS,exp,46,↓,down,↓,0.8028841000050306,True,23,1,0,9
093M21,8,475,AS,exp,27,↑,up,↑,1.09161609999137,True,23,1,0,9
093M21,8,476,AS,exp,29,→,right,→,0.4670464000082575,True,22,1,0,9
093M21,8,477,AS,exp,30,←,left,←,0.8040202999836765,True,22,1,0,9
093M21,8,478,AS,exp,33,↑,up,↑,0.467136000021128,True,21,1,0,9
093M21,8,479,AS,exp,25,←,left,←,0.4670168000156991,True,21,1,0,9
093M21,8,480,AS,exp,35,→,up,↑,0.829108100006124,False,20,-1,1,10
093M21,8,481,AS,exp,25,←,left,←,0.6349144999985583,True,21,-1,0,10
093M21,8,482,AS,exp,25,↑,no_key,no_letter,-1.0,False,21,-1,0,10
093M21,8,483,AS,exp,38,←,left,←,0.46709399999235757,True,22,-1,0,10
093M21,8,484,AS,exp,25,↑,up,↑,0.5454107999976259,True,22,1,1,11
093M21,8,485,AS,exp,44,↓,up,↑,0.4335321999969892,False,21,-1,1,12
093M21,8,486,AS,exp,37,←,left,←,0.64960550001706,True,22,-1,0,12
093M21,8,487,AS,exp,46,→,right,→,0.46708570001646876,True,22,1,1,13
093M21,8,488,AS,exp,46,↑,up,↑,0.43348770000739023,True,21,1,0,13
093M21,8,489,AS,exp,31,↓,down,↓,0.5723394999804441,True,21,1,0,13
093M21,8,490,AS,exp,35,→,right,→,0.5527286999858916,True,20,1,0,13
093M21,8,491,AS,exp,26,↑,up,↑,0.4339271000062581,True,20,1,0,13
093M21,8,492,AS,exp,47,→,right,→,0.5424096999922767,True,19,1,0,13
093M21,8,493,AS,exp,45,←,left,←,0.5716822000104003,True,19,1,0,13
093M21,8,494,AS,exp,37,↑,right,→,0.631982999999309,False,18,-1,1,14
