PART_ID,Block_no,Trial_no,Block_type,Trial_type,CSI,Stim_letter,Key_pressed,letter_choose,Rt,Corr,Stimulus Time,Level,Reversal,Revs_count
170K19,1,1,PS,train,37,→,right,→,0.8015359999990324,True,30,-,-,-
170K19,1,2,PS,train,33,↓,down,↓,1.9652610999983153,True,30,-,-,-
170K19,1,3,PS,train,37,→,right,→,1.2291334999972605,True,30,-,-,-
170K19,1,4,PS,train,29,↓,down,↓,0.9183084000032977,True,30,-,-,-
170K19,1,5,PS,train,37,←,left,←,1.265637099997548,True,30,-,-,-
170K19,1,6,PS,train,38,↓,down,↓,1.4530247000002419,True,30,-,-,-
170K19,1,7,PS,train,41,↑,up,↑,1.005346300000383,True,30,-,-,-
170K19,1,8,PS,train,47,←,left,←,0.9100770000004559,True,30,-,-,-
170K19,1,9,PS,train,40,↑,up,↑,1.38551539999753,True,30,-,-,-
170K19,1,10,PS,train,28,→,right,→,0.8904877999957534,True,30,-,-,-
170K19,2,11,AS,train,40,↑,up,↑,2.14517949999572,True,45,-,-,-
170K19,2,12,AS,train,41,→,no_key,no_letter,-1.0,False,45,-,-,-
170K19,2,13,AS,train,42,↑,up,↑,1.5582756999938283,True,45,-,-,-
170K19,2,14,AS,train,28,↓,down,↓,1.0037956000014674,True,45,-,-,-
170K19,2,15,AS,train,25,↑,up,↑,0.8005688999983249,True,45,-,-,-
170K19,2,16,AS,train,34,↓,down,↓,0.8839005999980145,True,45,-,-,-
170K19,2,17,AS,train,30,←,left,←,1.1388813000012306,True,45,-,-,-
170K19,2,18,AS,train,26,↑,up,↑,0.9896956000011414,True,45,-,-,-
170K19,2,19,AS,train,50,→,right,→,0.8172288999994635,True,45,-,-,-
170K19,2,20,AS,train,40,↑,up,↑,1.02596430000267,True,45,-,-,-
170K19,-,21,PS,adaptive,46,←,up,↑,1.4448970000012196,False,10,-1,0,0
170K19,-,22,PS,adaptive,40,↑,up,↑,1.220145200000843,True,11,-1,0,0
170K19,-,23,PS,adaptive,50,↓,down,↓,1.0724438000033842,True,11,1,1,1
170K19,-,24,PS,adaptive,37,↑,up,↑,1.1951023000001442,True,10,1,0,1
170K19,-,25,PS,adaptive,42,←,up,↑,0.8976114000033704,False,10,-1,1,2
170K19,-,26,PS,adaptive,37,↓,down,↓,0.7476794999965932,True,11,-1,0,2
170K19,-,27,PS,adaptive,25,↑,right,→,0.749767499997688,False,11,-1,0,2
170K19,-,28,PS,adaptive,29,←,right,→,1.0028247000009287,False,12,-1,0,2
170K19,-,29,PS,adaptive,29,↓,right,→,1.008390999995754,False,13,-1,0,2
170K19,-,30,PS,adaptive,37,←,left,←,0.9334369999996852,True,14,-1,0,2
170K19,-,31,PS,adaptive,27,↓,down,↓,0.732545899998513,True,14,1,1,3
170K19,-,32,PS,adaptive,36,↑,up,↑,0.6399953000000096,True,13,1,0,3
170K19,-,33,PS,adaptive,43,←,left,←,0.7199280999993789,True,13,1,0,3
170K19,-,34,PS,adaptive,25,↓,down,↓,0.8727117999951588,True,12,1,0,3
170K19,-,35,PS,adaptive,33,←,left,←,0.8042604000002029,True,12,1,0,3
170K19,-,36,PS,adaptive,28,↓,up,↑,0.6731540999971912,False,11,-1,1,4
170K19,-,37,AS,adaptive,39,↑,up,↑,1.0271117000011145,True,20,0,0,0
170K19,-,38,AS,adaptive,49,↓,down,↓,1.0729434000022593,True,20,1,0,0
170K19,-,39,AS,adaptive,40,←,up,↑,1.0831465000010212,False,19,-1,1,1
170K19,-,40,AS,adaptive,42,→,left,←,0.8378077999950619,False,20,-1,0,1
170K19,-,41,AS,adaptive,39,←,left,←,0.8535627000019304,True,21,-1,0,1
170K19,-,42,AS,adaptive,40,↑,up,↑,0.857564400001138,True,21,1,1,2
170K19,-,43,AS,adaptive,29,←,left,←,0.736497199999576,True,20,1,0,2
170K19,-,44,AS,adaptive,31,↑,up,↑,0.8699955999982194,True,20,1,0,2
170K19,-,45,AS,adaptive,26,→,right,→,0.7533547999992152,True,19,1,0,2
170K19,-,46,AS,adaptive,50,←,left,←,0.6584717000005185,True,19,1,0,2
170K19,-,47,AS,adaptive,46,↓,up,↑,0.7422020000012708,False,18,-1,1,3
170K19,-,48,AS,adaptive,34,←,left,←,0.6936367000016617,True,19,-1,0,3
170K19,-,49,AS,adaptive,39,↑,up,↑,0.8158694000012474,True,19,1,1,4
170K19,1,50,AS,intra_train,39,↓,down,↓,0.8470841000016662,True,27,-,-,-
170K19,1,51,AS,intra_train,25,←,left,←,0.6538113999995403,True,27,-,-,-
170K19,1,52,AS,intra_train,30,→,right,→,0.7645833999995375,True,27,-,-,-
170K19,1,53,AS,intra_train,43,←,left,←,1.3279316999978619,True,27,-,-,-
170K19,1,54,AS,intra_train,48,↓,up,↑,0.7260085000016261,False,27,-,-,-
170K19,1,55,AS,exp,41,↑,up,↑,0.6341738999981317,True,18,0,0,0
170K19,1,56,AS,exp,31,→,left,←,0.7365927999999258,False,18,-1,0,0
170K19,1,57,AS,exp,47,↓,down,↓,0.798422700005176,True,19,-1,0,0
170K19,1,58,AS,exp,38,→,right,→,0.6240296000032686,True,19,1,1,1
170K19,1,59,AS,exp,45,↓,down,↓,0.7339782999988529,True,18,1,0,1
170K19,1,60,AS,exp,42,→,left,←,0.7743217999959597,False,18,-1,1,2
170K19,1,61,AS,exp,48,↓,down,↓,0.7579193000055966,True,19,-1,0,2
170K19,1,62,AS,exp,31,↑,up,↑,1.0135556000022916,True,19,1,1,3
170K19,1,63,AS,exp,38,←,right,→,0.6286165000055917,False,18,-1,1,4
170K19,1,64,AS,exp,35,↑,up,↑,0.8096021999954246,True,19,-1,0,4
170K19,1,65,AS,exp,48,←,left,←,0.6373165999975754,True,19,1,1,5
170K19,1,66,AS,exp,46,↑,left,←,1.1816827000002377,False,18,-1,1,6
170K19,1,67,AS,exp,25,→,right,→,0.715504100000544,True,19,-1,0,6
170K19,1,68,AS,exp,39,↑,up,↑,0.6852768000026117,True,19,1,1,7
170K19,1,69,AS,exp,29,→,right,→,0.7419282999981078,True,18,1,0,7
170K19,1,70,AS,exp,38,↑,up,↑,0.641064199997345,True,18,1,0,7
170K19,1,71,AS,exp,41,↓,left,←,1.0708546000023489,False,17,-1,1,8
170K19,1,72,AS,exp,25,→,left,←,0.7378993999955128,False,18,-1,0,8
170K19,1,73,AS,exp,40,←,left,←,0.6931052999934764,True,19,-1,0,8
170K19,1,74,AS,exp,39,→,left,←,0.9328549999991083,False,19,-1,0,8
170K19,1,75,AS,exp,48,←,right,→,0.6036938000033842,False,20,-1,0,8
170K19,1,76,AS,exp,40,↑,up,↑,0.7769144999983837,True,21,-1,0,8
170K19,1,77,AS,exp,28,→,left,←,0.6907172999999602,False,21,-1,0,8
170K19,1,78,AS,exp,43,←,left,←,0.7198777000012342,True,22,-1,0,8
170K19,1,79,AS,exp,40,↑,up,↑,0.9375322999985656,True,22,1,1,9
170K19,1,80,AS,exp,48,←,left,←,0.6862088000052609,True,21,1,0,9
170K19,1,81,AS,exp,43,↑,up,↑,0.6951437999960035,True,21,1,0,9
170K19,1,82,AS,exp,50,→,right,→,0.7442526000013459,True,20,1,0,9
170K19,1,83,AS,exp,30,↓,down,↓,0.7349149000001489,True,20,1,0,9
170K19,1,84,AS,exp,35,←,left,←,0.778887799999211,True,19,1,0,9
170K19,1,85,AS,exp,31,↑,up,↑,0.7743738999997731,True,19,1,0,9
170K19,1,86,AS,exp,49,←,no_key,no_letter,-1.0,False,18,-1,1,10
170K19,1,87,AS,exp,28,→,right,→,0.9438769999978831,True,19,-1,0,10
170K19,1,88,AS,exp,27,←,left,←,0.7357816999938223,True,19,1,1,11
170K19,1,89,AS,exp,46,↓,up,↑,1.103178500001377,False,18,-1,1,12
170K19,1,90,AS,exp,48,↑,right,→,1.0548111999960383,False,19,-1,0,12
170K19,1,91,AS,exp,44,→,left,←,0.8779643999951077,False,20,-1,0,12
170K19,1,92,AS,exp,42,↑,up,↑,0.7550164999993285,True,21,-1,0,12
170K19,1,93,AS,exp,27,←,left,←,0.8305192999978317,True,21,1,1,13
170K19,1,94,AS,exp,37,↑,up,↑,1.377712400004384,True,20,1,0,13
170K19,1,95,AS,exp,35,↓,up,↑,1.1280436999950325,False,20,-1,1,14
170K19,2,96,PS,intra_train,28,→,right,→,0.7813296000022092,True,18,-,-,-
170K19,2,97,PS,intra_train,43,↓,down,↓,0.808540300000459,True,18,-,-,-
170K19,2,98,PS,intra_train,28,←,right,→,0.7500937000004342,False,18,-,-,-
170K19,2,99,PS,intra_train,39,↑,up,↑,0.8416467999995803,True,18,-,-,-
170K19,2,100,PS,intra_train,42,←,left,←,0.5829307999956654,True,18,-,-,-
170K19,2,101,PS,exp,50,↓,down,↓,0.652134500000102,True,12,0,0,0
170K19,2,102,PS,exp,33,↑,down,↓,1.002943999999843,False,12,-1,0,0
170K19,2,103,PS,exp,30,→,right,→,0.5655345999985002,True,13,-1,0,0
170K19,2,104,PS,exp,26,↑,up,↑,0.7720974999974715,True,13,1,1,1
170K19,2,105,PS,exp,43,↓,up,↑,0.8456389999992098,False,12,-1,1,2
170K19,2,106,PS,exp,30,→,left,←,0.7094694999977946,False,13,-1,0,2
170K19,2,107,PS,exp,47,←,left,←,0.8045249000060721,True,14,-1,0,2
170K19,2,108,PS,exp,50,→,right,→,0.7002856000035536,True,14,1,1,3
170K19,2,109,PS,exp,30,←,left,←,0.6773429000022588,True,13,1,0,3
170K19,2,110,PS,exp,41,→,right,→,0.894859499996528,True,13,1,0,3
170K19,2,111,PS,exp,49,↓,up,↑,0.7928497000029893,False,12,-1,1,4
170K19,2,112,PS,exp,43,←,left,←,0.7460957000002963,True,13,-1,0,4
170K19,2,113,PS,exp,42,↑,left,←,0.9230796000047121,False,13,-1,0,4
170K19,2,114,PS,exp,31,←,left,←,0.6140407999992021,True,14,-1,0,4
170K19,2,115,PS,exp,36,↑,up,↑,0.8776257999998052,True,14,1,1,5
170K19,2,116,PS,exp,37,←,left,←,0.7393278000017744,True,13,1,0,5
170K19,2,117,PS,exp,35,↑,up,↑,0.7311102999956347,True,13,1,0,5
170K19,2,118,PS,exp,28,→,up,↑,0.9150898000007146,False,12,-1,1,6
170K19,2,119,PS,exp,48,←,left,←,0.6862991000016336,True,13,-1,0,6
170K19,2,120,PS,exp,30,→,right,→,0.5357751999981701,True,13,1,1,7
170K19,2,121,PS,exp,49,↑,up,↑,0.7037594000066747,True,12,1,0,7
170K19,2,122,PS,exp,47,↓,down,↓,0.8448257000054582,True,12,1,0,7
170K19,2,123,PS,exp,40,←,up,↑,0.8445664999962901,False,11,-1,1,8
170K19,2,124,PS,exp,48,→,left,←,0.7314694000015152,False,12,-1,0,8
170K19,2,125,PS,exp,31,↑,up,↑,0.8434703999955673,True,13,-1,0,8
170K19,2,126,PS,exp,44,→,right,→,0.26717350000399165,True,13,1,1,9
170K19,2,127,PS,exp,44,↑,up,↑,0.5017635999975028,True,12,1,0,9
170K19,2,128,PS,exp,26,←,left,←,0.6427195999931428,True,12,1,0,9
170K19,2,129,PS,exp,33,↑,up,↑,1.1913532000035048,True,11,1,0,9
170K19,2,130,PS,exp,46,→,right,→,0.6302689000003738,True,11,1,0,9
170K19,2,131,PS,exp,35,↓,down,↓,0.6884797000020626,True,10,1,0,9
170K19,2,132,PS,exp,30,←,down,↓,0.7862814000036451,False,10,-1,1,10
170K19,2,133,PS,exp,27,↑,up,↑,0.8389123000015388,True,11,-1,0,10
170K19,2,134,PS,exp,34,→,left,←,0.8371987999998964,False,11,-1,0,10
170K19,2,135,PS,exp,50,↓,down,↓,0.7063224999947124,True,12,-1,0,10
170K19,2,136,PS,exp,38,←,left,←,0.5537257000032696,True,12,1,1,11
170K19,2,137,PS,exp,38,↓,down,↓,0.604332599999907,True,11,1,0,11
170K19,2,138,PS,exp,37,←,left,←,0.530163999996148,True,11,1,0,11
170K19,2,139,PS,exp,47,↓,down,↓,0.6430538999993587,True,10,1,0,11
170K19,2,140,PS,exp,41,→,down,↓,0.6958375999965938,False,10,-1,1,12
170K19,2,141,PS,exp,49,↓,down,↓,0.7287817000033101,True,11,-1,0,12
170K19,2,142,PS,exp,38,→,left,←,0.6410532999943825,False,11,-1,0,12
170K19,2,143,PS,exp,27,↑,right,→,0.6948276999974041,False,12,-1,0,12
170K19,2,144,PS,exp,41,↓,up,↑,1.2144293000019388,False,13,-1,0,12
170K19,2,145,PS,exp,37,←,right,→,1.091306499998609,False,14,-1,0,12
170K19,2,146,PS,exp,26,↑,up,↑,0.7837958000018261,True,15,-1,0,12
170K19,2,147,PS,exp,35,↓,right,→,0.627133900001354,False,15,-1,0,12
170K19,2,148,PS,exp,46,↑,down,↓,1.151073599998199,False,16,-1,0,12
170K19,2,149,PS,exp,49,→,left,←,0.7598494000048959,False,17,-1,0,12
170K19,2,150,PS,exp,43,←,left,←,0.8889771999965888,True,18,-1,0,12
170K19,2,151,PS,exp,37,↓,up,↑,1.1935509000031743,False,18,-1,0,12
170K19,2,152,PS,exp,43,→,right,→,0.7467447000017273,True,19,-1,0,12
170K19,2,153,PS,exp,47,←,left,←,0.7813243999989936,True,19,1,1,13
170K19,2,154,PS,exp,50,↑,up,↑,0.8717825999992783,True,18,1,0,13
170K19,2,155,PS,exp,26,→,right,→,0.7656385000009323,True,18,1,0,13
170K19,2,156,PS,exp,47,↑,up,↑,0.8681594999943627,True,17,1,0,13
170K19,2,157,PS,exp,30,↓,down,↓,0.5836571999971056,True,17,1,0,13
170K19,2,158,PS,exp,33,↑,up,↑,0.8306221999955596,True,16,1,0,13
170K19,2,159,PS,exp,48,→,right,→,0.6831980000060867,True,16,1,0,13
170K19,2,160,PS,exp,28,↓,down,↓,0.8022874999951455,True,15,1,0,13
170K19,2,161,PS,exp,49,←,up,↑,1.1478225999962888,False,15,-1,1,14
170K19,3,162,PS,intra_train,30,→,right,→,0.6289556999981869,True,18,-,-,-
170K19,3,163,PS,intra_train,47,↓,down,↓,0.7013682000033441,True,18,-,-,-
170K19,3,164,PS,intra_train,44,→,right,→,0.7447891999981948,True,18,-,-,-
170K19,3,165,PS,intra_train,31,↑,up,↑,0.891832199995406,True,18,-,-,-
170K19,3,166,PS,intra_train,46,→,right,→,0.6617459999979474,True,18,-,-,-
170K19,3,167,PS,exp,39,↓,down,↓,0.6152202999946894,True,12,0,0,0
170K19,3,168,PS,exp,38,←,left,←,0.5520913000000292,True,12,1,0,0
170K19,3,169,PS,exp,49,↑,down,↓,0.9135538999980781,False,11,-1,1,1
170K19,3,170,PS,exp,29,↓,down,↓,0.5466909000024316,True,12,-1,0,1
170K19,3,171,PS,exp,48,→,right,→,0.5493738000004669,True,12,1,1,2
170K19,3,172,PS,exp,36,↑,up,↑,0.6558969999969122,True,11,1,0,2
170K19,3,173,PS,exp,31,→,left,←,0.8019860999993398,False,11,-1,1,3
170K19,3,174,PS,exp,39,↑,up,↑,1.1238194000034127,True,12,-1,0,3
170K19,3,175,PS,exp,39,←,left,←,0.6654683000015211,True,12,1,1,4
170K19,3,176,PS,exp,43,→,left,←,1.082979400001932,False,11,-1,1,5
170K19,3,177,PS,exp,37,↑,left,←,0.8968185999983689,False,12,-1,0,5
170K19,3,178,PS,exp,30,↓,down,↓,0.730666099996597,True,13,-1,0,5
170K19,3,179,PS,exp,36,↑,up,↑,0.7844733999954769,True,13,1,1,6
170K19,3,180,PS,exp,42,↓,down,↓,0.8012272999985726,True,12,1,0,6
170K19,3,181,PS,exp,29,→,left,←,0.9131448999978602,False,12,-1,1,7
170K19,3,182,PS,exp,28,↑,up,↑,0.9420863999985158,True,13,-1,0,7
170K19,3,183,PS,exp,40,←,left,←,0.672951100001228,True,13,1,1,8
170K19,3,184,PS,exp,35,↑,up,↑,0.8628252999988035,True,12,1,0,8
170K19,3,185,PS,exp,43,↓,down,↓,0.6926585999972303,True,12,1,0,8
170K19,3,186,PS,exp,40,→,right,→,0.6181118000022252,True,11,1,0,8
170K19,3,187,PS,exp,35,←,left,←,0.5930097999953432,True,11,1,0,8
170K19,3,188,PS,exp,42,↓,down,↓,0.6033708000031766,True,10,1,0,8
170K19,3,189,PS,exp,47,←,left,←,0.6305057999998098,True,10,1,0,8
170K19,3,190,PS,exp,47,↓,down,↓,0.7713092999983928,True,9,1,0,8
170K19,3,191,PS,exp,48,↑,up,↑,0.8491183999940404,True,9,1,0,8
170K19,3,192,PS,exp,28,←,up,↑,0.7627747000005911,False,8,-1,1,9
170K19,3,193,PS,exp,32,→,up,↑,0.8059905999980401,False,9,-1,0,9
170K19,3,194,PS,exp,41,↓,right,→,0.9793413000006694,False,10,-1,0,9
170K19,3,195,PS,exp,34,←,left,←,0.6050233999994816,True,11,-1,0,9
170K19,3,196,PS,exp,28,↑,up,↑,0.8122413999954006,True,11,1,1,10
170K19,3,197,PS,exp,43,→,left,←,0.6510973999975249,False,10,-1,1,11
170K19,3,198,PS,exp,39,↓,down,↓,1.2812897000039811,True,11,-1,0,11
170K19,3,199,PS,exp,44,↑,up,↑,0.7866820999988704,True,11,1,1,12
170K19,3,200,PS,exp,27,←,right,→,0.858480500006408,False,10,-1,1,13
170K19,3,201,PS,exp,29,↓,down,↓,0.6621305000007851,True,11,-1,0,13
170K19,3,202,PS,exp,48,↑,up,↑,0.6714713999972446,True,11,1,1,14
170K19,4,203,AS,intra_train,26,↓,down,↓,0.7983003999979701,True,27,-,-,-
170K19,4,204,AS,intra_train,38,←,left,←,0.6178843999950914,True,27,-,-,-
170K19,4,205,AS,intra_train,42,↑,up,↑,0.8569375000006403,True,27,-,-,-
170K19,4,206,AS,intra_train,41,←,left,←,0.7108733999994001,True,27,-,-,-
170K19,4,207,AS,intra_train,26,↑,up,↑,1.1269623999978648,True,27,-,-,-
170K19,4,208,AS,exp,37,↓,up,↑,0.9181740999993053,False,18,-1,0,0
170K19,4,209,AS,exp,29,←,right,→,0.8434273999955622,False,19,-1,0,0
170K19,4,210,AS,exp,34,↓,down,↓,1.0735287000061362,True,20,-1,0,0
170K19,4,211,AS,exp,41,↑,up,↑,0.730776500000502,True,20,1,1,1
170K19,4,212,AS,exp,42,←,left,←,0.8612801999988733,True,19,1,0,1
170K19,4,213,AS,exp,26,↑,up,↑,0.7730258000010508,True,19,1,0,1
170K19,4,214,AS,exp,42,→,right,→,0.813299300003564,True,18,1,0,1
170K19,4,215,AS,exp,50,↓,up,↑,0.7712975999966147,False,18,-1,1,2
170K19,4,216,AS,exp,26,←,left,←,0.7785859999930835,True,19,-1,0,2
170K19,4,217,AS,exp,39,↑,up,↑,0.8291513000003761,True,19,1,1,3
170K19,4,218,AS,exp,42,→,right,→,0.5753028000035556,True,18,1,0,3
170K19,4,219,AS,exp,48,↑,up,↑,0.6805260999972234,True,18,1,0,3
170K19,4,220,AS,exp,36,↓,down,↓,0.6373972000001231,True,17,1,0,3
170K19,4,221,AS,exp,36,↑,up,↑,0.7831384999954025,True,17,1,0,3
170K19,4,222,AS,exp,47,→,left,←,0.689440399997693,False,16,-1,1,4
170K19,4,223,AS,exp,26,↑,up,↑,0.9519100999968941,True,17,-1,0,4
170K19,4,224,AS,exp,41,←,left,←,0.7098779000007198,True,17,1,1,5
170K19,4,225,AS,exp,26,→,right,→,0.8963519999961136,True,16,1,0,5
170K19,4,226,AS,exp,49,↑,up,↑,0.754787199999555,True,16,1,0,5
170K19,4,227,AS,exp,33,←,left,←,0.7785711000033189,True,15,1,0,5
170K19,4,228,AS,exp,34,↑,up,↑,0.7149147000018274,True,15,1,0,5
170K19,4,229,AS,exp,35,↓,down,↓,0.8661796000014874,True,14,1,0,5
170K19,4,230,AS,exp,30,↑,up,↑,1.0818633000017144,True,14,1,0,5
170K19,4,231,AS,exp,35,←,right,→,0.8316063000020222,False,13,-1,1,6
170K19,4,232,AS,exp,46,→,right,→,0.7097418999983347,True,14,-1,0,6
170K19,4,233,AS,exp,27,←,right,→,0.7233468999984325,False,14,-1,0,6
170K19,4,234,AS,exp,32,↓,up,↑,1.0435214000026463,False,15,-1,0,6
170K19,4,235,AS,exp,30,←,left,←,0.6937165000053938,True,16,-1,0,6
170K19,4,236,AS,exp,37,→,right,→,0.7399464000045555,True,16,1,1,7
170K19,4,237,AS,exp,43,←,right,→,0.7329561000005924,False,15,-1,1,8
170K19,4,238,AS,exp,41,↑,up,↑,0.9006288000018685,True,16,-1,0,8
170K19,4,239,AS,exp,39,↓,down,↓,0.768678300002648,True,16,1,1,9
170K19,4,240,AS,exp,49,↑,down,↓,1.138603500003228,False,15,-1,1,10
170K19,4,241,AS,exp,33,→,right,→,0.6357853999943472,True,16,-1,0,10
170K19,4,242,AS,exp,48,↓,right,→,0.9993756999974721,False,16,-1,0,10
170K19,4,243,AS,exp,35,←,up,↑,0.9364413000002969,False,17,-1,0,10
170K19,4,244,AS,exp,31,↓,up,↑,0.9278396000008797,False,18,-1,0,10
170K19,4,245,AS,exp,49,←,right,→,1.1095086999994237,False,19,-1,0,10
170K19,4,246,AS,exp,38,↓,left,←,0.9584625999996206,False,20,-1,0,10
170K19,4,247,AS,exp,32,↑,up,↑,0.7418267000030028,True,21,-1,0,10
170K19,4,248,AS,exp,37,→,right,→,0.5464054000040051,True,21,1,1,11
170K19,4,249,AS,exp,33,↑,up,↑,0.847053199999209,True,20,1,0,11
170K19,4,250,AS,exp,41,→,right,→,0.67020610000327,True,20,1,0,11
170K19,4,251,AS,exp,36,↓,right,→,1.0084562999982154,False,19,-1,1,12
170K19,4,252,AS,exp,43,←,left,←,0.764147599998978,True,20,-1,0,12
170K19,4,253,AS,exp,33,↓,down,↓,0.8484845999992103,True,20,1,1,13
170K19,4,254,AS,exp,30,←,left,←,1.0463269000028959,True,19,1,0,13
170K19,4,255,AS,exp,26,→,right,→,0.7733148999977857,True,19,1,0,13
170K19,4,256,AS,exp,49,←,left,←,0.7455381999970996,True,18,1,0,13
170K19,4,257,AS,exp,32,→,right,→,0.8007290999958059,True,18,1,0,13
170K19,4,258,AS,exp,39,←,right,→,0.8901856000011321,False,17,-1,1,14
170K19,5,259,AS,intra_train,44,→,right,→,0.5838693999976385,True,27,-,-,-
170K19,5,260,AS,intra_train,44,↓,down,↓,0.981718600000022,True,27,-,-,-
170K19,5,261,AS,intra_train,38,←,left,←,1.6941753999999491,True,27,-,-,-
170K19,5,262,AS,intra_train,42,→,right,→,0.7001384999966831,True,27,-,-,-
170K19,5,263,AS,intra_train,33,←,left,←,0.8171851000006427,True,27,-,-,-
170K19,5,264,AS,exp,28,↓,right,→,0.7825601000004099,False,18,-1,0,0
170K19,5,265,AS,exp,35,←,left,←,0.4853976000013063,True,19,-1,0,0
170K19,5,266,AS,exp,44,→,right,→,0.6096742999943672,True,19,1,1,1
170K19,5,267,AS,exp,32,↓,right,→,0.9313375999990967,False,18,-1,1,2
170K19,5,268,AS,exp,36,→,right,→,1.017917999997735,True,19,-1,0,2
170K19,5,269,AS,exp,44,←,left,←,0.8054654000006849,True,19,1,1,3
170K19,5,270,AS,exp,36,↓,up,↑,0.9210160000002361,False,18,-1,1,4
170K19,5,271,AS,exp,34,←,left,←,0.8138772000020253,True,19,-1,0,4
170K19,5,272,AS,exp,43,↑,up,↑,0.7877348999973037,True,19,1,1,5
170K19,5,273,AS,exp,37,↓,down,↓,0.8414589000021806,True,18,1,0,5
170K19,5,274,AS,exp,37,↑,up,↑,0.8539011999964714,True,18,1,0,5
170K19,5,275,AS,exp,29,→,right,→,0.7004388999994262,True,17,1,0,5
170K19,5,276,AS,exp,28,↓,down,↓,0.8063719000056153,True,17,1,0,5
170K19,5,277,AS,exp,41,→,right,→,0.6709883000003174,True,16,1,0,5
170K19,5,278,AS,exp,33,↓,up,↑,0.8547484000009717,False,16,-1,1,6
170K19,5,279,AS,exp,25,→,right,→,0.7915973999988637,True,17,-1,0,6
170K19,5,280,AS,exp,29,←,right,→,0.7148152000008849,False,17,-1,0,6
170K19,5,281,AS,exp,46,↓,down,↓,0.7130133999962709,True,18,-1,0,6
170K19,5,282,AS,exp,25,→,left,←,0.7623363000020618,False,18,-1,0,6
170K19,5,283,AS,exp,30,↓,up,↑,0.8472982000021148,False,19,-1,0,6
170K19,5,284,AS,exp,28,↑,left,←,1.2081270999988192,False,20,-1,0,6
170K19,5,285,AS,exp,30,↓,up,↑,1.0936541999981273,False,21,-1,0,6
170K19,5,286,AS,exp,43,→,down,↓,0.6085707000020193,False,22,-1,0,6
170K19,5,287,AS,exp,50,←,up,↑,1.0476575000066077,False,23,-1,0,6
170K19,5,288,AS,exp,44,↑,up,↑,1.0037510999973165,True,24,-1,0,6
170K19,5,289,AS,exp,30,←,left,←,0.7800140000035753,True,24,1,1,7
170K19,5,290,AS,exp,32,↑,up,↑,1.0138245999987703,True,23,1,0,7
170K19,5,291,AS,exp,33,↓,down,↓,0.791492800002743,True,23,1,0,7
170K19,5,292,AS,exp,35,↑,up,↑,0.6591057999976329,True,22,1,0,7
170K19,5,293,AS,exp,32,↓,down,↓,0.8875744999968447,True,22,1,0,7
170K19,5,294,AS,exp,35,←,left,←,0.739033499994548,True,21,1,0,7
170K19,5,295,AS,exp,41,→,right,→,0.7428194000021904,True,21,1,0,7
170K19,5,296,AS,exp,48,←,left,←,0.817829100000381,True,20,1,0,7
170K19,5,297,AS,exp,27,→,right,→,0.46721310000430094,True,20,1,0,7
170K19,5,298,AS,exp,42,↑,up,↑,0.8527887000018382,True,19,1,0,7
170K19,5,299,AS,exp,44,→,right,→,0.6972902000052272,True,19,1,0,7
170K19,5,300,AS,exp,34,↓,down,↓,0.8476713999989443,True,18,1,0,7
170K19,5,301,AS,exp,43,→,right,→,0.8512647000025027,True,18,1,0,7
170K19,5,302,AS,exp,46,↑,up,↑,0.8732621999952244,True,17,1,0,7
170K19,5,303,AS,exp,34,↓,down,↓,0.7471340999982203,True,17,1,0,7
170K19,5,304,AS,exp,25,→,right,→,0.588870899999165,True,16,1,0,7
170K19,5,305,AS,exp,33,↓,down,↓,0.6211573999971733,True,16,1,0,7
170K19,5,306,AS,exp,37,→,left,←,0.7929550000044401,False,15,-1,1,8
170K19,5,307,AS,exp,40,←,left,←,0.6810488999981317,True,16,-1,0,8
170K19,5,308,AS,exp,47,↑,up,↑,0.9109484999935376,True,16,1,1,9
170K19,5,309,AS,exp,26,↓,down,↓,0.7254523000010522,True,15,1,0,9
170K19,5,310,AS,exp,41,→,left,←,0.8338580999989063,False,15,-1,1,10
170K19,5,311,AS,exp,49,↑,down,↓,0.8446082000009483,False,16,-1,0,10
170K19,5,312,AS,exp,50,←,left,←,0.7016715999998269,True,17,-1,0,10
170K19,5,313,AS,exp,33,↑,up,↑,0.9107048000005307,True,17,1,1,11
170K19,5,314,AS,exp,47,←,left,←,0.5898218000002089,True,16,1,0,11
170K19,5,315,AS,exp,42,↓,down,↓,0.568862000000081,True,16,1,0,11
170K19,5,316,AS,exp,44,→,right,→,0.8828806999954395,True,15,1,0,11
170K19,5,317,AS,exp,42,←,right,→,0.854407299993909,False,15,-1,1,12
170K19,5,318,AS,exp,33,↓,down,↓,0.6737194000015734,True,16,-1,0,12
170K19,5,319,AS,exp,37,←,left,←,0.6054049999947893,True,16,1,1,13
170K19,5,320,AS,exp,38,↓,down,↓,0.6062096000023303,True,15,1,0,13
170K19,5,321,AS,exp,43,↑,up,↑,0.9565677999999025,True,15,1,0,13
170K19,5,322,AS,exp,49,←,left,←,0.7204213000004529,True,14,1,0,13
170K19,5,323,AS,exp,49,↑,up,↑,0.9169957999984035,True,14,1,0,13
170K19,5,324,AS,exp,35,↓,down,↓,0.6359359999987646,True,13,1,0,13
170K19,5,325,AS,exp,50,↑,left,←,0.8982762999949045,False,13,-1,1,14
170K19,6,326,PS,intra_train,36,→,right,→,0.5513252000018838,True,18,-,-,-
170K19,6,327,PS,intra_train,32,↓,down,↓,0.6443758999957936,True,18,-,-,-
170K19,6,328,PS,intra_train,46,→,right,→,0.58657459999813,True,18,-,-,-
170K19,6,329,PS,intra_train,48,←,left,←,1.3277308999968227,True,18,-,-,-
170K19,6,330,PS,intra_train,39,→,right,→,0.8212990000029095,True,18,-,-,-
170K19,6,331,PS,exp,30,←,left,←,0.6246919999975944,True,12,0,0,0
170K19,6,332,PS,exp,36,→,right,→,0.603251000000455,True,12,1,0,0
170K19,6,333,PS,exp,28,←,no_key,no_letter,-1.0,False,11,-1,1,1
170K19,6,334,PS,exp,32,→,left,←,0.5599163000006229,False,12,-1,0,1
170K19,6,335,PS,exp,27,↑,up,↑,0.8593894000005093,True,13,-1,0,1
170K19,6,336,PS,exp,45,→,right,→,0.6760565000004135,True,13,1,1,2
170K19,6,337,PS,exp,41,↑,up,↑,0.7194695999933174,True,12,1,0,2
170K19,6,338,PS,exp,42,←,left,←,0.5443708000020706,True,12,1,0,2
170K19,6,339,PS,exp,35,→,right,→,0.7229269000017666,True,11,1,0,2
170K19,6,340,PS,exp,44,↑,up,↑,0.6708022000020719,True,11,1,0,2
170K19,6,341,PS,exp,50,←,left,←,0.49035039999580476,True,10,1,0,2
170K19,6,342,PS,exp,38,→,right,→,0.6838457000048948,True,10,1,0,2
170K19,6,343,PS,exp,36,↑,up,↑,0.6572640000013052,True,9,1,0,2
170K19,6,344,PS,exp,31,↓,down,↓,0.6211618000015733,True,9,1,0,2
170K19,6,345,PS,exp,27,→,right,→,0.538226399999985,True,8,1,0,2
170K19,6,346,PS,exp,39,←,right,→,0.7461487999971723,False,8,-1,1,3
170K19,6,347,PS,exp,31,↑,up,↑,1.026756799998111,True,9,-1,0,3
170K19,6,348,PS,exp,41,↓,down,↓,0.7825288000021828,True,9,1,1,4
170K19,6,349,PS,exp,26,→,right,→,0.5486235999997007,True,8,1,0,4
170K19,6,350,PS,exp,45,↓,down,↓,0.7426392999987002,True,8,1,0,4
170K19,6,351,PS,exp,34,↑,up,↑,0.8358709000021918,True,7,1,0,4
170K19,6,352,PS,exp,26,→,down,↓,0.7942448000030708,False,7,-1,1,5
170K19,6,353,PS,exp,25,↑,up,↑,0.8375520999979926,True,8,-1,0,5
170K19,6,354,PS,exp,44,→,right,→,0.6077489000017522,True,8,1,1,6
170K19,6,355,PS,exp,48,↓,up,↑,0.9151239999991958,False,7,-1,1,7
170K19,6,356,PS,exp,48,←,down,↓,0.6009685999961221,False,8,-1,0,7
170K19,6,357,PS,exp,28,↓,down,↓,0.672474200000579,True,9,-1,0,7
170K19,6,358,PS,exp,41,↑,right,→,0.9626821000056225,False,9,-1,0,7
170K19,6,359,PS,exp,41,→,right,→,0.5201900000029127,True,10,-1,0,7
170K19,6,360,PS,exp,45,↑,up,↑,0.7121886000022641,True,10,1,1,8
170K19,6,361,PS,exp,43,→,right,→,0.5551274999961606,True,9,1,0,8
170K19,6,362,PS,exp,37,←,right,→,0.6090031000057934,False,9,-1,1,9
170K19,6,363,PS,exp,38,↓,down,↓,0.635925299997325,True,10,-1,0,9
170K19,6,364,PS,exp,37,→,right,→,0.7259010999987368,True,10,1,1,10
170K19,6,365,PS,exp,40,↑,up,↑,0.8036190000057104,True,9,1,0,10
170K19,6,366,PS,exp,45,←,left,←,0.629455100002815,True,9,1,0,10
170K19,6,367,PS,exp,35,→,right,→,1.0193356999952812,True,8,1,0,10
170K19,6,368,PS,exp,42,↑,left,←,0.6796345000038855,False,8,-1,1,11
170K19,6,369,PS,exp,29,↓,down,↓,0.5436083999957191,True,9,-1,0,11
170K19,6,370,PS,exp,45,↑,down,↓,0.619910000001255,False,9,-1,0,11
170K19,6,371,PS,exp,28,→,right,→,0.5028267999950913,True,10,-1,0,11
170K19,6,372,PS,exp,50,↑,up,↑,0.6417551999984425,True,10,1,1,12
170K19,6,373,PS,exp,38,→,right,→,0.4279452000046149,True,9,1,0,12
170K19,6,374,PS,exp,33,↓,down,↓,0.938809899998887,True,9,1,0,12
170K19,6,375,PS,exp,39,↑,up,↑,0.6985615000012331,True,8,1,0,12
170K19,6,376,PS,exp,45,↓,down,↓,0.4433824000007007,True,8,1,0,12
170K19,6,377,PS,exp,44,←,down,↓,0.4469448000018019,False,7,-1,1,13
170K19,6,378,PS,exp,35,→,right,→,0.5338617999950657,True,8,-1,0,13
170K19,6,379,PS,exp,37,↑,up,↑,0.7598234000033699,True,8,1,1,14
170K19,7,380,PS,intra_train,49,↓,down,↓,0.8148663999963901,True,18,-,-,-
170K19,7,381,PS,intra_train,42,→,right,→,0.7418506000030902,True,18,-,-,-
170K19,7,382,PS,intra_train,36,↓,down,↓,0.5563193999987561,True,18,-,-,-
170K19,7,383,PS,intra_train,26,→,right,→,0.5645117000021855,True,18,-,-,-
170K19,7,384,PS,intra_train,50,←,left,←,1.028340400000161,True,18,-,-,-
170K19,7,385,PS,exp,41,↓,down,↓,0.6913842000067234,True,12,0,0,0
170K19,7,386,PS,exp,29,→,right,→,0.5407742000024882,True,12,1,0,0
170K19,7,387,PS,exp,37,←,left,←,0.6607918000008794,True,11,1,0,0
170K19,7,388,PS,exp,32,↓,down,↓,0.6234938999987207,True,11,1,0,0
170K19,7,389,PS,exp,29,←,left,←,0.5122941999943578,True,10,1,0,0
170K19,7,390,PS,exp,38,→,right,→,0.5879390999980387,True,10,1,0,0
170K19,7,391,PS,exp,39,←,left,←,0.4046693999989657,True,9,1,0,0
170K19,7,392,PS,exp,40,↑,up,↑,0.8375449000013759,True,9,1,0,0
170K19,7,393,PS,exp,25,←,down,↓,0.5678945000036038,False,8,-1,1,1
170K19,7,394,PS,exp,42,↑,up,↑,0.7872638999979245,True,9,-1,0,1
170K19,7,395,PS,exp,43,←,left,←,0.4387501000019256,True,9,1,1,2
170K19,7,396,PS,exp,44,↓,down,↓,0.7771391999995103,True,8,1,0,2
170K19,7,397,PS,exp,39,↑,right,→,0.5197219999972731,False,8,-1,1,3
170K19,7,398,PS,exp,46,←,up,↑,0.6353468999950564,False,9,-1,0,3
170K19,7,399,PS,exp,50,↑,up,↑,0.7377106999992975,True,10,-1,0,3
170K19,7,400,PS,exp,34,←,left,←,0.6164795000004233,True,10,1,1,4
170K19,7,401,PS,exp,37,↓,down,↓,0.7710552999997162,True,9,1,0,4
170K19,7,402,PS,exp,43,→,right,→,0.5270151000004262,True,9,1,0,4
170K19,7,403,PS,exp,39,↑,up,↑,0.6229767999975593,True,8,1,0,4
170K19,7,404,PS,exp,28,←,left,←,0.5611770000032266,True,8,1,0,4
170K19,7,405,PS,exp,30,→,right,→,0.6757966000004672,True,7,1,0,4
170K19,7,406,PS,exp,36,↓,right,→,0.8954490999967675,False,7,-1,1,5
170K19,7,407,PS,exp,33,→,down,↓,0.5918956000023172,False,8,-1,0,5
170K19,7,408,PS,exp,38,↓,down,↓,0.779748600005405,True,9,-1,0,5
170K19,7,409,PS,exp,28,↑,up,↑,0.6685374999942724,True,9,1,1,6
170K19,7,410,PS,exp,25,↓,up,↑,0.7355791000009049,False,8,-1,1,7
170K19,7,411,PS,exp,49,→,right,→,0.5922802999994019,True,9,-1,0,7
170K19,7,412,PS,exp,48,↓,down,↓,0.6067389000018011,True,9,1,1,8
170K19,7,413,PS,exp,45,←,right,→,1.0270725999944261,False,8,-1,1,9
170K19,7,414,PS,exp,32,↑,right,→,0.9135848000005353,False,9,-1,0,9
170K19,7,415,PS,exp,33,→,right,→,0.5039470999981859,True,10,-1,0,9
170K19,7,416,PS,exp,33,←,down,↓,0.7116405999986455,False,10,-1,0,9
170K19,7,417,PS,exp,26,→,right,→,0.5101047999996808,True,11,-1,0,9
170K19,7,418,PS,exp,43,↓,right,→,0.7435311999943224,False,11,-1,0,9
170K19,7,419,PS,exp,44,↑,up,↑,0.688496299997496,True,12,-1,0,9
170K19,7,420,PS,exp,41,→,up,↑,1.0833800999971572,False,12,-1,0,9
170K19,7,421,PS,exp,43,←,left,←,0.6929845999984536,True,13,-1,0,9
170K19,7,422,PS,exp,25,↑,up,↑,0.7304489000016474,True,13,1,1,10
170K19,7,423,PS,exp,36,↓,down,↓,0.776111300001503,True,12,1,0,10
170K19,7,424,PS,exp,50,→,right,→,0.7865435999992769,True,12,1,0,10
170K19,7,425,PS,exp,45,←,left,←,0.7021663000050467,True,11,1,0,10
170K19,7,426,PS,exp,38,↑,up,↑,0.6805184999975609,True,11,1,0,10
170K19,7,427,PS,exp,27,←,left,←,0.6660324999975273,True,10,1,0,10
170K19,7,428,PS,exp,36,→,right,→,0.5174859999970067,True,10,1,0,10
170K19,7,429,PS,exp,38,↓,down,↓,0.7210509000069578,True,9,1,0,10
170K19,7,430,PS,exp,28,↑,up,↑,0.6478974999990896,True,9,1,0,10
170K19,7,431,PS,exp,39,↓,down,↓,0.6432067999994615,True,8,1,0,10
170K19,7,432,PS,exp,46,←,right,→,0.7647973999992246,False,8,-1,1,11
170K19,7,433,PS,exp,35,→,right,→,0.49402780000673374,True,9,-1,0,11
170K19,7,434,PS,exp,49,↑,up,↑,0.7014732999959961,True,9,1,1,12
170K19,7,435,PS,exp,33,↓,left,←,0.7163214000029257,False,8,-1,1,13
170K19,7,436,PS,exp,30,→,up,↑,0.7710499999957392,False,9,-1,0,13
170K19,7,437,PS,exp,35,↓,up,↑,0.7260365999973146,False,10,-1,0,13
170K19,7,438,PS,exp,35,→,right,→,1.1178869999930612,True,11,-1,0,13
170K19,7,439,PS,exp,50,↓,down,↓,0.619270700000925,True,11,1,1,14
170K19,8,440,AS,intra_train,38,↑,up,↑,0.8972298999942723,True,27,-,-,-
170K19,8,441,AS,intra_train,41,→,right,→,0.8576415999996243,True,27,-,-,-
170K19,8,442,AS,intra_train,37,↑,up,↑,0.8351339000000735,True,27,-,-,-
170K19,8,443,AS,intra_train,44,→,right,→,0.714654999996128,True,27,-,-,-
170K19,8,444,AS,intra_train,30,↑,up,↑,1.6843835999970906,True,27,-,-,-
170K19,8,445,AS,exp,39,←,left,←,0.7282627999957185,True,18,0,0,0
170K19,8,446,AS,exp,35,→,right,→,0.7065702000036254,True,18,1,0,0
170K19,8,447,AS,exp,33,↑,up,↑,0.6224714999989374,True,17,1,0,0
170K19,8,448,AS,exp,33,↓,right,→,1.0272998999935226,False,17,-1,1,1
170K19,8,449,AS,exp,37,→,right,→,0.7804980000000796,True,18,-1,0,1
170K19,8,450,AS,exp,46,←,right,→,0.7603817999988678,False,18,-1,0,1
170K19,8,451,AS,exp,50,→,right,→,0.8693827000024612,True,19,-1,0,1
170K19,8,452,AS,exp,39,←,left,←,0.7833491000055801,True,19,1,1,2
170K19,8,453,AS,exp,40,→,right,→,0.6942765999992844,True,18,1,0,2
170K19,8,454,AS,exp,48,↑,up,↑,0.778493999998318,True,18,1,0,2
170K19,8,455,AS,exp,29,↓,up,↑,0.828631199998199,False,17,-1,1,3
170K19,8,456,AS,exp,44,↑,left,←,0.8261233999946853,False,18,-1,0,3
170K19,8,457,AS,exp,50,→,right,→,0.5457055000006221,True,19,-1,0,3
170K19,8,458,AS,exp,31,↓,right,→,0.9309677999990527,False,19,-1,0,3
170K19,8,459,AS,exp,43,↑,up,↑,0.6878529000023264,True,20,-1,0,3
170K19,8,460,AS,exp,43,↓,down,↓,0.7981863000022713,True,20,1,1,4
170K19,8,461,AS,exp,47,←,left,←,0.7801834999991115,True,19,1,0,4
170K19,8,462,AS,exp,42,↓,down,↓,0.787352400002419,True,19,1,0,4
170K19,8,463,AS,exp,48,→,right,→,0.8279092000011588,True,18,1,0,4
170K19,8,464,AS,exp,43,←,right,→,1.078140000005078,False,18,-1,1,5
170K19,8,465,AS,exp,29,↓,down,↓,0.8676069000066491,True,19,-1,0,5
170K19,8,466,AS,exp,49,→,right,→,0.5576992999995127,True,19,1,1,6
170K19,8,467,AS,exp,38,↑,up,↑,1.0409346999949776,True,18,1,0,6
170K19,8,468,AS,exp,27,←,up,↑,0.9165145000006305,False,18,-1,1,7
170K19,8,469,AS,exp,45,↑,up,↑,0.613804299995536,True,19,-1,0,7
170K19,8,470,AS,exp,28,→,right,→,0.660872799999197,True,19,1,1,8
170K19,8,471,AS,exp,33,←,right,→,1.3634731999991345,False,18,-1,1,9
170K19,8,472,AS,exp,36,↑,up,↑,0.7466583000059472,True,19,-1,0,9
170K19,8,473,AS,exp,34,→,left,←,1.0191782000038074,False,19,-1,0,9
170K19,8,474,AS,exp,29,↑,right,→,0.915543199997046,False,20,-1,0,9
170K19,8,475,AS,exp,42,↓,down,↓,0.5455377000034787,True,21,-1,0,9
170K19,8,476,AS,exp,30,←,left,←,0.5903366999991704,True,21,1,1,10
170K19,8,477,AS,exp,32,→,right,→,0.8070106000013766,True,20,1,0,10
170K19,8,478,AS,exp,30,↓,down,↓,0.5420959000039147,True,20,1,0,10
170K19,8,479,AS,exp,39,→,left,←,0.6970417999982601,False,19,-1,1,11
170K19,8,480,AS,exp,46,←,left,←,0.9590525000021444,True,20,-1,0,11
170K19,8,481,AS,exp,36,↓,down,↓,0.7090138999992632,True,20,1,1,12
170K19,8,482,AS,exp,28,→,right,→,0.8289293000052567,True,19,1,0,12
170K19,8,483,AS,exp,45,↑,up,↑,0.7577371000006679,True,19,1,0,12
170K19,8,484,AS,exp,26,←,left,←,1.0369484000038938,True,18,1,0,12
170K19,8,485,AS,exp,38,↑,up,↑,0.683950199992978,True,18,1,0,12
170K19,8,486,AS,exp,30,→,right,→,0.790687100001378,True,17,1,0,12
170K19,8,487,AS,exp,47,↑,up,↑,0.5898967999964952,True,17,1,0,12
170K19,8,488,AS,exp,29,↓,up,↑,0.8544651000047452,False,16,-1,1,13
170K19,8,489,AS,exp,28,←,left,←,0.6100994999942486,True,17,-1,0,13
170K19,8,490,AS,exp,48,↑,up,↑,0.9227935999952024,True,17,1,1,14
