PART_ID,Block_no,Trial_no,Block_type,Trial_type,CSI,Stim_letter,Key_pressed,letter_choose,Rt,Corr,Stimulus Time,Level,Reversal,Revs_count
209K20,1,1,PS,train,45,→,right,→,0.7193938999989768,True,30,-,-,-
209K20,1,2,PS,train,37,↓,down,↓,0.7173418999991554,True,30,-,-,-
209K20,1,3,PS,train,31,←,left,←,0.6007970999999088,True,30,-,-,-
209K20,1,4,PS,train,44,↑,up,↑,0.6004017000013846,True,30,-,-,-
209K20,1,5,PS,train,42,←,left,←,0.4678373000006104,True,30,-,-,-
209K20,1,6,PS,train,32,↓,down,↓,0.7345382000003156,True,30,-,-,-
209K20,1,7,PS,train,43,↑,up,↑,0.5172260999988794,True,30,-,-,-
209K20,1,8,PS,train,32,↓,no_key,no_letter,-1.0,False,30,-,-,-
209K20,1,9,PS,train,29,→,left,←,0.4679720999993151,False,30,-,-,-
209K20,1,10,PS,train,39,↓,down,↓,0.6005429000015283,True,30,-,-,-
209K20,2,11,AS,train,31,↑,up,↑,0.717787399998997,True,45,-,-,-
209K20,2,12,AS,train,49,←,left,←,0.7013812000004691,True,45,-,-,-
209K20,2,13,AS,train,32,→,right,→,0.5845835999989504,True,45,-,-,-
209K20,2,14,AS,train,28,↓,down,↓,0.6178297000005841,True,45,-,-,-
209K20,2,15,AS,train,41,↑,up,↑,0.7348763000009058,True,45,-,-,-
209K20,2,16,AS,train,34,←,down,↓,1.9948150999989593,False,45,-,-,-
209K20,2,17,AS,train,38,↑,up,↑,0.46783179999874847,True,45,-,-,-
209K20,2,18,AS,train,36,→,right,→,0.7011557000005268,True,45,-,-,-
209K20,2,19,AS,train,34,↓,down,↓,0.7498579000002792,True,45,-,-,-
209K20,2,20,AS,train,29,←,left,←,0.4178033999996842,True,45,-,-,-
209K20,-,21,PS,adaptive,37,→,right,→,0.9346116999986407,True,10,0,0,0
209K20,-,22,PS,adaptive,44,↓,down,↓,0.46114309999938996,True,10,1,0,0
209K20,-,23,PS,adaptive,28,↑,right,→,0.7044834999996965,False,9,-1,1,1
209K20,-,24,PS,adaptive,50,↓,down,↓,0.8109684999999445,True,10,-1,0,1
209K20,-,25,PS,adaptive,50,→,right,→,0.6306280999997398,True,10,1,1,2
209K20,-,26,PS,adaptive,41,←,right,→,0.7563204999987647,False,9,-1,1,3
209K20,-,27,PS,adaptive,32,↑,right,→,1.500694399999702,False,10,-1,0,3
209K20,-,28,PS,adaptive,32,←,down,↓,0.5452303000001848,False,11,-1,0,3
209K20,-,29,PS,adaptive,29,↑,up,↑,0.5868686999983765,True,12,-1,0,3
209K20,-,30,PS,adaptive,28,→,right,→,0.4137477000003855,True,12,1,1,4
209K20,-,31,AS,adaptive,27,←,left,←,0.6276722000002337,True,20,0,0,0
209K20,-,32,AS,adaptive,28,→,no_key,no_letter,-1.0,False,20,-1,0,0
209K20,-,33,AS,adaptive,30,←,left,←,0.7284806999996363,True,21,-1,0,0
209K20,-,34,AS,adaptive,48,→,right,→,0.715394799999558,True,21,1,1,1
209K20,-,35,AS,adaptive,43,↑,right,→,1.0384520000006887,False,20,-1,1,2
209K20,-,36,AS,adaptive,40,→,right,→,0.5951294999995298,True,21,-1,0,2
209K20,-,37,AS,adaptive,35,←,left,←,0.6695708999995986,True,21,1,1,3
209K20,-,38,AS,adaptive,35,→,right,→,0.5308827000008023,True,20,1,0,3
209K20,-,39,AS,adaptive,33,←,right,→,1.0810396999986551,False,20,-1,1,4
209K20,1,40,PS,intra_train,32,↑,up,↑,0.4640125000005355,True,16,-,-,-
209K20,1,41,PS,intra_train,40,←,left,←,0.4007302999998501,True,16,-,-,-
209K20,1,42,PS,intra_train,47,↓,down,↓,0.7498926000007486,True,16,-,-,-
209K20,1,43,PS,intra_train,47,↑,up,↑,0.5439384000001155,True,16,-,-,-
209K20,1,44,PS,intra_train,37,→,right,→,0.502882499999032,True,16,-,-,-
209K20,1,45,PS,exp,37,←,left,←,0.4948720000011235,True,11,0,0,0
209K20,1,46,PS,exp,47,→,right,→,0.4625641999991785,True,11,1,0,0
209K20,1,47,PS,exp,40,↓,down,↓,0.7133061999993515,True,10,1,0,0
209K20,1,48,PS,exp,46,→,right,→,0.422525099998893,True,10,1,0,0
209K20,1,49,PS,exp,50,↓,left,←,1.1418110000013257,False,9,-1,1,1
209K20,1,50,PS,exp,29,→,no_key,no_letter,-1.0,False,10,-1,0,1
209K20,1,51,PS,exp,36,↓,down,↓,0.5690353999998479,True,11,-1,0,1
209K20,1,52,PS,exp,27,←,left,←,0.6877965000003314,True,11,1,1,2
209K20,1,53,PS,exp,36,↑,up,↑,0.8709467999997287,True,10,1,0,2
209K20,1,54,PS,exp,36,→,right,→,0.48815489999833517,True,10,1,0,2
209K20,1,55,PS,exp,28,↓,left,←,0.6673849999988306,False,9,-1,1,3
209K20,1,56,PS,exp,43,→,left,←,0.4990226000008988,False,10,-1,0,3
209K20,1,57,PS,exp,50,←,left,←,0.6303299999999581,True,11,-1,0,3
209K20,1,58,PS,exp,33,↓,left,←,1.1621865999986767,False,11,-1,0,3
209K20,1,59,PS,exp,36,→,left,←,0.5379709999997431,False,12,-1,0,3
209K20,1,60,PS,exp,35,↑,up,↑,0.5842415999995865,True,13,-1,0,3
209K20,1,61,PS,exp,27,→,right,→,0.4818899000001693,True,13,1,1,4
209K20,1,62,PS,exp,30,↓,down,↓,0.44379920000028505,True,12,1,0,4
209K20,1,63,PS,exp,43,→,right,→,0.49939970000014,True,12,1,0,4
209K20,1,64,PS,exp,29,←,left,←,0.7153964999997697,True,11,1,0,4
209K20,1,65,PS,exp,26,↓,down,↓,0.6445723999986512,True,11,1,0,4
209K20,1,66,PS,exp,48,←,left,←,0.5152952999997069,True,10,1,0,4
209K20,1,67,PS,exp,49,↓,left,←,1.0393606000016007,False,10,-1,1,5
209K20,1,68,PS,exp,26,→,left,←,0.932729099999051,False,11,-1,0,5
209K20,1,69,PS,exp,50,←,left,←,0.5328059999992547,True,12,-1,0,5
209K20,1,70,PS,exp,29,→,right,→,0.5380676000004314,True,12,1,1,6
209K20,1,71,PS,exp,43,←,left,←,0.5198343000010937,True,11,1,0,6
209K20,1,72,PS,exp,39,↑,up,↑,0.9091576000009809,True,11,1,0,6
209K20,1,73,PS,exp,50,↓,left,←,0.4781169999987469,False,10,-1,1,7
209K20,1,74,PS,exp,43,→,up,↑,0.8658603000003495,False,11,-1,0,7
209K20,1,75,PS,exp,30,↑,up,↑,0.5212661000005028,True,12,-1,0,7
209K20,1,76,PS,exp,35,→,right,→,0.47747030000027735,True,12,1,1,8
209K20,1,77,PS,exp,29,↓,down,↓,0.6134216000009474,True,11,1,0,8
209K20,1,78,PS,exp,39,←,left,←,0.6007070999985444,True,11,1,0,8
209K20,1,79,PS,exp,41,↑,up,↑,0.5543504999986908,True,10,1,0,8
209K20,1,80,PS,exp,47,←,left,←,0.4245456999997259,True,10,1,0,8
209K20,1,81,PS,exp,27,↑,left,←,0.632027300000118,False,9,-1,1,9
209K20,1,82,PS,exp,34,←,left,←,0.5510116000004928,True,10,-1,0,9
209K20,1,83,PS,exp,27,→,left,←,0.5278172999987873,False,10,-1,0,9
209K20,1,84,PS,exp,36,↑,left,←,0.7350127999998222,False,11,-1,0,9
209K20,1,85,PS,exp,36,→,right,→,0.4278166999993118,True,12,-1,0,9
209K20,1,86,PS,exp,32,↑,up,↑,0.6115449000008084,True,12,1,1,10
209K20,1,87,PS,exp,43,←,left,←,0.3964056000004348,True,11,1,0,10
209K20,1,88,PS,exp,46,↓,left,←,0.888919299999543,False,11,-1,1,11
209K20,1,89,PS,exp,43,←,left,←,0.6099252000003617,True,12,-1,0,11
209K20,1,90,PS,exp,47,↑,left,←,0.572475699998904,False,12,-1,0,11
209K20,1,91,PS,exp,35,↓,down,↓,1.3007854999996198,True,13,-1,0,11
209K20,1,92,PS,exp,31,→,right,→,0.5162414999995235,True,13,1,1,12
209K20,1,93,PS,exp,48,↑,up,↑,0.5877044999997452,True,12,1,0,12
209K20,1,94,PS,exp,27,←,left,←,0.5923009999987698,True,12,1,0,12
209K20,1,95,PS,exp,30,↑,up,↑,0.8036146000013105,True,11,1,0,12
209K20,1,96,PS,exp,38,←,left,←,0.5301116999999067,True,11,1,0,12
209K20,1,97,PS,exp,37,↑,left,←,0.774779800000033,False,10,-1,1,13
209K20,1,98,PS,exp,31,↓,down,↓,0.6309031999990111,True,11,-1,0,13
209K20,1,99,PS,exp,26,↑,up,↑,0.8365601999994396,True,11,1,1,14
209K20,2,100,AS,intra_train,34,→,right,→,0.5339134999994712,True,31,-,-,-
209K20,2,101,AS,intra_train,26,↓,down,↓,0.6170484000012948,True,31,-,-,-
209K20,2,102,AS,intra_train,35,↑,up,↑,0.9444676999992225,True,31,-,-,-
209K20,2,103,AS,intra_train,34,→,right,→,0.5671259000009741,True,31,-,-,-
209K20,2,104,AS,intra_train,36,←,right,→,0.5839124000012816,False,31,-,-,-
209K20,2,105,AS,exp,27,→,right,→,0.7221136999996816,True,21,0,0,0
209K20,2,106,AS,exp,31,↓,down,↓,0.7660439000010228,True,21,1,0,0
209K20,2,107,AS,exp,46,↑,no_key,no_letter,-1.0,False,20,-1,1,1
209K20,2,108,AS,exp,49,→,right,→,0.7489659999992,True,21,-1,0,1
209K20,2,109,AS,exp,36,←,right,→,0.7024404999992839,False,21,-1,0,1
209K20,2,110,AS,exp,30,↓,down,↓,0.7123769999998331,True,22,-1,0,1
209K20,2,111,AS,exp,44,↑,down,↓,0.99081169999954,False,22,-1,0,1
209K20,2,112,AS,exp,32,←,left,←,0.668134800000189,True,23,-1,0,1
209K20,2,113,AS,exp,45,→,right,→,0.7561351999993349,True,23,1,1,2
209K20,2,114,AS,exp,38,↑,up,↑,0.7808043000004545,True,22,1,0,2
209K20,2,115,AS,exp,46,→,right,→,0.8382956000004924,True,22,1,0,2
209K20,2,116,AS,exp,43,↓,down,↓,0.5822186000004876,True,21,1,0,2
209K20,2,117,AS,exp,34,←,right,→,0.7852937000006932,False,21,-1,1,3
209K20,2,118,AS,exp,36,↓,down,↓,0.5609692999987601,True,22,-1,0,3
209K20,2,119,AS,exp,48,↑,up,↑,0.6816696999994747,True,22,1,1,4
209K20,2,120,AS,exp,27,→,right,→,0.6185795000001235,True,21,1,0,4
209K20,2,121,AS,exp,39,←,right,→,0.5584787000007054,False,21,-1,1,5
209K20,2,122,AS,exp,45,↑,up,↑,0.40041569999993953,True,22,-1,0,5
209K20,2,123,AS,exp,43,→,right,→,0.4672742000002472,True,22,1,1,6
209K20,2,124,AS,exp,40,↑,up,↑,0.8983275000009598,True,21,1,0,6
209K20,2,125,AS,exp,45,←,left,←,0.3837698999996064,True,21,1,0,6
209K20,2,126,AS,exp,38,→,right,→,0.4504194000001007,True,20,1,0,6
209K20,2,127,AS,exp,42,↓,down,↓,1.0266888000005565,True,20,1,0,6
209K20,2,128,AS,exp,33,←,left,←,0.40053220000118017,True,19,1,0,6
209K20,2,129,AS,exp,27,→,right,→,0.6435220999992453,True,19,1,0,6
209K20,2,130,AS,exp,49,←,left,←,0.8990997000000789,True,18,1,0,6
209K20,2,131,AS,exp,42,→,right,→,0.7298487000007299,True,18,1,0,6
209K20,2,132,AS,exp,32,←,right,→,0.5813312999998743,False,17,-1,1,7
209K20,2,133,AS,exp,43,↑,down,↓,0.9566257999995287,False,18,-1,0,7
209K20,2,134,AS,exp,27,↓,down,↓,0.49720090000118944,True,19,-1,0,7
209K20,2,135,AS,exp,43,→,right,→,0.60217030000058,True,19,1,1,8
209K20,2,136,AS,exp,26,←,left,←,0.41709309999896504,True,18,1,0,8
209K20,2,137,AS,exp,45,↑,down,↓,0.672115200000917,False,18,-1,1,9
209K20,2,138,AS,exp,30,↓,right,→,1.6368583000003127,False,19,-1,0,9
209K20,2,139,AS,exp,25,←,right,→,0.506779599998481,False,20,-1,0,9
209K20,2,140,AS,exp,41,↑,right,→,0.9949544999999489,False,21,-1,0,9
209K20,2,141,AS,exp,41,↓,down,↓,0.7833518000006734,True,22,-1,0,9
209K20,2,142,AS,exp,45,↑,up,↑,0.8662676999992982,True,22,1,1,10
209K20,2,143,AS,exp,25,↓,down,↓,0.5175312999999733,True,21,1,0,10
209K20,2,144,AS,exp,34,↑,up,↑,0.5264941999994335,True,21,1,0,10
209K20,2,145,AS,exp,35,↓,down,↓,0.5219476999991457,True,20,1,0,10
209K20,2,146,AS,exp,39,←,right,→,0.6300672999987,False,20,-1,1,11
209K20,2,147,AS,exp,27,→,right,→,0.4336961999997584,True,21,-1,0,11
209K20,2,148,AS,exp,48,↑,up,↑,0.5306221000009828,True,21,1,1,12
209K20,2,149,AS,exp,31,↓,down,↓,0.5079587000000174,True,20,1,0,12
209K20,2,150,AS,exp,31,→,right,→,0.6316792000015994,True,20,1,0,12
209K20,2,151,AS,exp,33,←,right,→,0.9037067000008392,False,19,-1,1,13
209K20,2,152,AS,exp,38,↑,up,↑,0.4171294999996462,True,20,-1,0,13
209K20,2,153,AS,exp,31,→,right,→,0.634070399999473,True,20,1,1,14
209K20,3,154,AS,intra_train,45,←,left,←,0.633704799998668,True,31,-,-,-
209K20,3,155,AS,intra_train,31,↑,up,↑,0.6170928999999887,True,31,-,-,-
209K20,3,156,AS,intra_train,43,←,left,←,0.4678927000004478,True,31,-,-,-
209K20,3,157,AS,intra_train,35,→,right,→,0.4011647000006633,True,31,-,-,-
209K20,3,158,AS,intra_train,38,↑,up,↑,0.4844756000002235,True,31,-,-,-
209K20,3,159,AS,exp,46,↓,down,↓,1.3818100999997114,True,21,0,0,0
209K20,3,160,AS,exp,33,↑,up,↑,0.5724910000008094,True,21,1,0,0
209K20,3,161,AS,exp,43,→,right,→,0.4672817999999097,True,20,1,0,0
209K20,3,162,AS,exp,26,←,left,←,0.36721550000038405,True,20,1,0,0
209K20,3,163,AS,exp,32,↓,down,↓,0.6758245000000898,True,19,1,0,0
209K20,3,164,AS,exp,27,↑,up,↑,0.4505152999990969,True,19,1,0,0
209K20,3,165,AS,exp,47,←,right,→,0.5337006000008842,False,18,-1,1,1
209K20,3,166,AS,exp,39,↑,right,→,0.5221922000000632,False,19,-1,0,1
209K20,3,167,AS,exp,37,→,right,→,0.506963399999222,True,20,-1,0,1
209K20,3,168,AS,exp,29,↓,right,→,0.9377354999996896,False,20,-1,0,1
209K20,3,169,AS,exp,46,↑,up,↑,0.48374110000077053,True,21,-1,0,1
209K20,3,170,AS,exp,28,→,right,→,0.4508306999996421,True,21,1,1,2
209K20,3,171,AS,exp,28,↑,right,→,0.9534942999998748,False,20,-1,1,3
209K20,3,172,AS,exp,30,→,right,→,0.46713850000014645,True,21,-1,0,3
209K20,3,173,AS,exp,27,←,right,→,0.5660625000000437,False,21,-1,0,3
209K20,3,174,AS,exp,46,↓,down,↓,0.4670980999999301,True,22,-1,0,3
209K20,3,175,AS,exp,43,→,right,→,0.4338091000008717,True,22,1,1,4
209K20,3,176,AS,exp,35,↓,down,↓,0.9746761999995215,True,21,1,0,4
209K20,3,177,AS,exp,41,↑,up,↑,0.4170338999992964,True,21,1,0,4
209K20,3,178,AS,exp,29,→,right,→,0.526685599999837,True,20,1,0,4
209K20,3,179,AS,exp,49,←,left,←,0.4337408999999752,True,20,1,0,4
209K20,3,180,AS,exp,47,↓,right,→,0.9429143999986991,False,19,-1,1,5
209K20,3,181,AS,exp,41,↑,down,↓,1.235277199999473,False,20,-1,0,5
209K20,3,182,AS,exp,35,↓,down,↓,0.6186336999999185,True,21,-1,0,5
209K20,3,183,AS,exp,30,↑,up,↑,0.6957309000008536,True,21,1,1,6
209K20,3,184,AS,exp,41,↓,down,↓,0.5767477999997936,True,20,1,0,6
209K20,3,185,AS,exp,27,←,left,←,1.3741415999993478,True,20,1,0,6
209K20,3,186,AS,exp,43,→,right,→,0.4944974000009097,True,19,1,0,6
209K20,3,187,AS,exp,48,←,left,←,0.6943262999993749,True,19,1,0,6
209K20,3,188,AS,exp,37,↑,up,↑,0.716839799999434,True,18,1,0,6
209K20,3,189,AS,exp,40,←,left,←,0.7285802999995212,True,18,1,0,6
209K20,3,190,AS,exp,45,↓,down,↓,0.6861864999991667,True,17,1,0,6
209K20,3,191,AS,exp,41,→,right,→,0.5344867000003433,True,17,1,0,6
209K20,3,192,AS,exp,50,↓,down,↓,0.4547858999994787,True,16,1,0,6
209K20,3,193,AS,exp,37,↑,up,↑,1.042876299999989,True,16,1,0,6
209K20,3,194,AS,exp,29,→,right,→,0.4942573000007542,True,15,1,0,6
209K20,3,195,AS,exp,43,↓,right,→,0.8790900999993028,False,15,-1,1,7
209K20,3,196,AS,exp,34,↑,up,↑,0.38377089999994496,True,16,-1,0,7
209K20,3,197,AS,exp,46,←,no_key,no_letter,-1.0,False,16,-1,0,7
209K20,3,198,AS,exp,42,↑,up,↑,0.6105697999992117,True,17,-1,0,7
209K20,3,199,AS,exp,30,↓,down,↓,0.5089018999988184,True,17,1,1,8
209K20,3,200,AS,exp,37,↑,down,↓,0.5151085999987117,False,16,-1,1,9
209K20,3,201,AS,exp,37,↓,down,↓,0.38422559999889927,True,17,-1,0,9
209K20,3,202,AS,exp,44,←,right,→,0.5844453999998223,False,17,-1,0,9
209K20,3,203,AS,exp,42,↑,up,↑,0.8521452000004501,True,18,-1,0,9
209K20,3,204,AS,exp,37,↓,down,↓,0.4773253000003024,True,18,1,1,10
209K20,3,205,AS,exp,41,←,right,→,0.4947909000002255,False,17,-1,1,11
209K20,3,206,AS,exp,27,↓,down,↓,0.4171015999982046,True,18,-1,0,11
209K20,3,207,AS,exp,35,↑,up,↑,0.5115894999999,True,18,1,1,12
209K20,3,208,AS,exp,45,↓,down,↓,0.4641253999998298,True,17,1,0,12
209K20,3,209,AS,exp,25,→,no_key,no_letter,-1.0,False,17,-1,1,13
209K20,3,210,AS,exp,40,↓,right,→,0.8459929000000557,False,18,-1,0,13
209K20,3,211,AS,exp,35,←,right,→,0.6223390000013751,False,19,-1,0,13
209K20,3,212,AS,exp,37,↑,up,↑,1.1609358000005159,True,20,-1,0,13
209K20,3,213,AS,exp,34,↓,down,↓,0.6675250999996933,True,20,1,1,14
209K20,4,214,PS,intra_train,27,←,left,←,0.779108400000041,True,16,-,-,-
209K20,4,215,PS,intra_train,28,↓,down,↓,0.47447160000047006,True,16,-,-,-
209K20,4,216,PS,intra_train,38,→,left,←,0.946237200001633,False,16,-,-,-
209K20,4,217,PS,intra_train,38,↑,up,↑,0.4486902000007831,True,16,-,-,-
209K20,4,218,PS,intra_train,38,↓,down,↓,0.6245548000006238,True,16,-,-,-
209K20,4,219,PS,exp,30,→,right,→,0.49066949999905773,True,11,0,0,0
209K20,4,220,PS,exp,42,↓,left,←,0.6100313999995706,False,11,-1,0,0
209K20,4,221,PS,exp,45,←,left,←,0.38086160000057134,True,12,-1,0,0
209K20,4,222,PS,exp,37,→,right,→,0.4151409000005515,True,12,1,1,1
209K20,4,223,PS,exp,36,↑,up,↑,0.4003809999994701,True,11,1,0,1
209K20,4,224,PS,exp,41,↓,down,↓,0.5575858999982302,True,11,1,0,1
209K20,4,225,PS,exp,50,↑,left,←,0.4460648999993282,False,10,-1,1,2
209K20,4,226,PS,exp,32,←,right,→,0.5421530999992683,False,11,-1,0,2
209K20,4,227,PS,exp,47,↑,left,←,0.521738199999163,False,12,-1,0,2
209K20,4,228,PS,exp,38,→,right,→,0.542943299999024,True,13,-1,0,2
209K20,4,229,PS,exp,43,←,left,←,0.7171078999999736,True,13,1,1,3
209K20,4,230,PS,exp,37,↑,up,↑,0.5820954000009806,True,12,1,0,3
209K20,4,231,PS,exp,37,↓,down,↓,0.5537898999991739,True,12,1,0,3
209K20,4,232,PS,exp,40,↑,up,↑,0.5419390999995812,True,11,1,0,3
209K20,4,233,PS,exp,34,←,left,←,0.6880336000012903,True,11,1,0,3
209K20,4,234,PS,exp,36,→,right,→,0.46847560000060184,True,10,1,0,3
209K20,4,235,PS,exp,38,↑,up,↑,0.8381406999997125,True,10,1,0,3
209K20,4,236,PS,exp,34,→,left,←,0.45316640000055486,False,9,-1,1,4
209K20,4,237,PS,exp,25,←,left,←,0.5077909999999974,True,10,-1,0,4
209K20,4,238,PS,exp,41,↑,up,↑,0.5026366000001872,True,10,1,1,5
209K20,4,239,PS,exp,26,→,right,→,0.5370703999997204,True,9,1,0,5
209K20,4,240,PS,exp,34,←,left,←,0.4091561000004731,True,9,1,0,5
209K20,4,241,PS,exp,49,↓,up,↑,0.79954109999926,False,8,-1,1,6
209K20,4,242,PS,exp,40,→,right,→,0.6924727999994502,True,9,-1,0,6
209K20,4,243,PS,exp,46,↑,left,←,0.6172074000005523,False,9,-1,0,6
209K20,4,244,PS,exp,37,←,left,←,0.6228439999995317,True,10,-1,0,6
209K20,4,245,PS,exp,30,→,right,→,0.5396710000004532,True,10,1,1,7
209K20,4,246,PS,exp,26,←,left,←,0.45676339999954507,True,9,1,0,7
209K20,4,247,PS,exp,37,↓,down,↓,0.6320030999995652,True,9,1,0,7
209K20,4,248,PS,exp,40,↑,left,←,1.5256012000008923,False,8,-1,1,8
209K20,4,249,PS,exp,28,→,right,→,0.5268254000002344,True,9,-1,0,8
209K20,4,250,PS,exp,26,↑,left,←,0.5207838999995147,False,9,-1,0,8
209K20,4,251,PS,exp,29,→,right,→,0.46244230000047537,True,10,-1,0,8
209K20,4,252,PS,exp,27,←,left,←,0.3968814999989263,True,10,1,1,9
209K20,4,253,PS,exp,43,↓,left,←,0.589911299999585,False,9,-1,1,10
209K20,4,254,PS,exp,30,→,right,→,0.5017287999999098,True,10,-1,0,10
209K20,4,255,PS,exp,42,↑,up,↑,0.4945404999998573,True,10,1,1,11
209K20,4,256,PS,exp,30,←,left,←,0.45041520000086166,True,9,1,0,11
209K20,4,257,PS,exp,38,↑,up,↑,0.384214300000167,True,9,1,0,11
209K20,4,258,PS,exp,40,←,left,←,0.4196186999997735,True,8,1,0,11
209K20,4,259,PS,exp,45,↑,up,↑,0.43052429999988817,True,8,1,0,11
209K20,4,260,PS,exp,43,→,right,→,0.5088379999997414,True,7,1,0,11
209K20,4,261,PS,exp,46,↓,down,↓,0.6592295999998896,True,7,1,0,11
209K20,4,262,PS,exp,44,←,left,←,0.4653171999998449,True,6,1,0,11
209K20,4,263,PS,exp,31,→,right,→,0.42357739999897603,True,6,1,0,11
209K20,4,264,PS,exp,32,↓,down,↓,0.7019177000001946,True,5,1,0,11
209K20,4,265,PS,exp,25,←,left,←,0.43358469999839144,True,5,1,0,11
209K20,4,266,PS,exp,30,↓,left,←,0.4283770000001823,False,4,-1,1,12
209K20,4,267,PS,exp,27,↑,up,↑,0.6695175000004383,True,5,-1,0,12
209K20,4,268,PS,exp,41,↓,down,↓,0.7615150000001449,True,5,1,1,13
209K20,4,269,PS,exp,44,←,left,←,1.244523900000786,True,4,1,0,13
209K20,4,270,PS,exp,47,↑,left,←,0.7157185000014579,False,4,-1,1,14
209K20,5,271,PS,intra_train,45,←,left,←,0.6558156000010058,True,16,-,-,-
209K20,5,272,PS,intra_train,46,→,left,←,1.6793042000008427,False,16,-,-,-
209K20,5,273,PS,intra_train,30,←,left,←,0.4523946999997861,True,16,-,-,-
209K20,5,274,PS,intra_train,31,↓,down,↓,0.5863757999995869,True,16,-,-,-
209K20,5,275,PS,intra_train,50,←,left,←,0.43564040000092064,True,16,-,-,-
209K20,5,276,PS,exp,34,↑,up,↑,0.47957169999972393,True,11,0,0,0
209K20,5,277,PS,exp,36,←,left,←,0.4242552000014257,True,11,1,0,0
209K20,5,278,PS,exp,46,→,right,→,0.4179311999996571,True,10,1,0,0
209K20,5,279,PS,exp,33,↑,up,↑,0.4488557000004221,True,10,1,0,0
209K20,5,280,PS,exp,41,↓,down,↓,0.5489331999997376,True,9,1,0,0
209K20,5,281,PS,exp,25,←,left,←,0.41234369999983755,True,9,1,0,0
209K20,5,282,PS,exp,48,↑,up,↑,0.43932669999958307,True,8,1,0,0
209K20,5,283,PS,exp,48,←,left,←,0.41024670000115293,True,8,1,0,0
209K20,5,284,PS,exp,48,↑,up,↑,0.7424533000012161,True,7,1,0,0
209K20,5,285,PS,exp,48,←,left,←,0.4308595000002242,True,7,1,0,0
209K20,5,286,PS,exp,31,→,right,→,0.4153291000002355,True,6,1,0,0
209K20,5,287,PS,exp,39,↓,down,↓,0.540547599999627,True,6,1,0,0
209K20,5,288,PS,exp,33,→,left,←,0.501561799999763,False,5,-1,1,1
209K20,5,289,PS,exp,31,↓,left,←,0.49071449999973993,False,6,-1,0,1
209K20,5,290,PS,exp,28,↑,left,←,0.7355681999997614,False,7,-1,0,1
209K20,5,291,PS,exp,25,←,left,←,0.516551899998376,True,8,-1,0,1
209K20,5,292,PS,exp,38,↓,left,←,0.5381101000002673,False,8,-1,0,1
209K20,5,293,PS,exp,33,←,left,←,0.49513760000081675,True,9,-1,0,1
209K20,5,294,PS,exp,25,↓,left,←,0.4083460000001651,False,9,-1,0,1
209K20,5,295,PS,exp,43,↑,up,↑,0.5894093999995675,True,10,-1,0,1
209K20,5,296,PS,exp,28,↓,down,↓,0.5188546999997925,True,10,1,1,2
209K20,5,297,PS,exp,43,↑,left,←,0.4444113000008656,False,9,-1,1,3
209K20,5,298,PS,exp,27,→,right,→,0.6726909000008163,True,10,-1,0,3
209K20,5,299,PS,exp,34,←,left,←,0.5554682000001776,True,10,1,1,4
209K20,5,300,PS,exp,44,→,left,←,0.45372560000032536,False,9,-1,1,5
209K20,5,301,PS,exp,33,↑,left,←,0.6025621000007959,False,10,-1,0,5
209K20,5,302,PS,exp,37,↓,down,↓,0.6189346000010119,True,11,-1,0,5
209K20,5,303,PS,exp,41,↑,up,↑,0.4610522000002675,True,11,1,1,6
209K20,5,304,PS,exp,34,←,left,←,0.43003800000042247,True,10,1,0,6
209K20,5,305,PS,exp,25,↑,up,↑,0.5223919000000024,True,10,1,0,6
209K20,5,306,PS,exp,42,↓,down,↓,0.6271830000005139,True,9,1,0,6
209K20,5,307,PS,exp,38,↑,up,↑,0.7802642999995442,True,9,1,0,6
209K20,5,308,PS,exp,49,←,left,←,0.5031307000008383,True,8,1,0,6
209K20,5,309,PS,exp,49,↓,no_key,no_letter,-1.0,False,8,-1,1,7
209K20,5,310,PS,exp,45,→,down,↓,0.9702166999995825,False,9,-1,0,7
209K20,5,311,PS,exp,30,←,left,←,0.38564880000012636,True,10,-1,0,7
209K20,5,312,PS,exp,25,↓,down,↓,0.8977125000001251,True,10,1,1,8
209K20,5,313,PS,exp,33,←,left,←,0.5576924000015424,True,9,1,0,8
209K20,5,314,PS,exp,40,→,right,→,0.4789550000004965,True,9,1,0,8
209K20,5,315,PS,exp,41,↑,up,↑,0.5055766999994376,True,8,1,0,8
209K20,5,316,PS,exp,38,↓,up,↑,0.7899747000010393,False,8,-1,1,9
209K20,5,317,PS,exp,36,↑,left,←,0.41502810000019963,False,9,-1,0,9
209K20,5,318,PS,exp,41,→,right,→,1.4840206999997463,True,10,-1,0,9
209K20,5,319,PS,exp,42,↓,down,↓,0.6499755999993795,True,10,1,1,10
209K20,5,320,PS,exp,34,↑,left,←,0.9536155999994662,False,9,-1,1,11
209K20,5,321,PS,exp,31,←,left,←,0.6803101999994396,True,10,-1,0,11
209K20,5,322,PS,exp,48,→,up,↑,1.1627463000004354,False,10,-1,0,11
209K20,5,323,PS,exp,29,←,left,←,0.5367691999999806,True,11,-1,0,11
209K20,5,324,PS,exp,32,↓,left,←,0.8182161000004271,False,11,-1,0,11
209K20,5,325,PS,exp,34,←,left,←,0.7231173999989551,True,12,-1,0,11
209K20,5,326,PS,exp,30,↑,up,↑,0.4584405000005063,True,12,1,1,12
209K20,5,327,PS,exp,42,→,left,←,0.6651533000003838,False,11,-1,1,13
209K20,5,328,PS,exp,36,←,left,←,0.4309354999986681,True,12,-1,0,13
209K20,5,329,PS,exp,32,↓,down,↓,0.6874234000006254,True,12,1,1,14
209K20,6,330,AS,intra_train,39,←,left,←,0.5174956000009843,True,31,-,-,-
209K20,6,331,AS,intra_train,39,↓,left,←,0.7223477999996248,False,31,-,-,-
209K20,6,332,AS,intra_train,35,←,left,←,0.5838429999985237,True,31,-,-,-
209K20,6,333,AS,intra_train,49,↓,down,↓,0.6172337000007246,True,31,-,-,-
209K20,6,334,AS,intra_train,35,→,right,→,0.5002463000000716,True,31,-,-,-
209K20,6,335,AS,exp,38,↓,down,↓,0.5331413999992947,True,21,0,0,0
209K20,6,336,AS,exp,46,←,left,←,0.6068348000007973,True,21,1,0,0
209K20,6,337,AS,exp,47,↑,up,↑,0.6249661000001652,True,20,1,0,0
209K20,6,338,AS,exp,45,→,right,→,0.4502886000009312,True,20,1,0,0
209K20,6,339,AS,exp,32,←,right,→,0.5326746999999159,False,19,-1,1,1
209K20,6,340,AS,exp,50,↑,up,↑,0.5372489000001224,True,20,-1,0,1
209K20,6,341,AS,exp,31,→,right,→,0.5560772999997425,True,20,1,1,2
209K20,6,342,AS,exp,49,↓,down,↓,1.6753843000005872,True,19,1,0,2
209K20,6,343,AS,exp,37,↑,right,→,0.6206571999991866,False,19,-1,1,3
209K20,6,344,AS,exp,37,↓,down,↓,0.7898757000002661,True,20,-1,0,3
209K20,6,345,AS,exp,29,→,right,→,0.6231196999997337,True,20,1,1,4
209K20,6,346,AS,exp,28,←,right,→,0.5694242999998096,False,19,-1,1,5
209K20,6,347,AS,exp,30,↓,down,↓,0.4170814999997674,True,20,-1,0,5
209K20,6,348,AS,exp,43,→,right,→,0.46721230000002834,True,20,1,1,6
209K20,6,349,AS,exp,43,↑,up,↑,1.0158210999998118,True,19,1,0,6
209K20,6,350,AS,exp,33,←,left,←,0.4168640999996569,True,19,1,0,6
209K20,6,351,AS,exp,28,↓,right,→,0.9464304999983142,False,18,-1,1,7
209K20,6,352,AS,exp,30,→,right,→,0.5465218999997887,True,19,-1,0,7
209K20,6,353,AS,exp,49,↑,up,↑,0.4336774000003061,True,19,1,1,8
209K20,6,354,AS,exp,26,→,right,→,0.43364440000004834,True,18,1,0,8
209K20,6,355,AS,exp,47,↓,down,↓,0.4689843000014662,True,18,1,0,8
209K20,6,356,AS,exp,48,↑,up,↑,0.46786940000129107,True,17,1,0,8
209K20,6,357,AS,exp,31,←,right,→,0.49810320000142383,False,17,-1,1,9
209K20,6,358,AS,exp,43,→,right,→,0.46918270000060147,True,18,-1,0,9
209K20,6,359,AS,exp,41,↓,down,↓,0.5157037999997556,True,18,1,1,10
209K20,6,360,AS,exp,41,→,right,→,0.36715820000063104,True,17,1,0,10
209K20,6,361,AS,exp,45,↓,right,→,0.7808621000003768,False,17,-1,1,11
209K20,6,362,AS,exp,37,↑,up,↑,0.4005539999998291,True,18,-1,0,11
209K20,6,363,AS,exp,43,←,right,→,0.5169884000006277,False,18,-1,0,11
209K20,6,364,AS,exp,50,↑,up,↑,0.6160480999988067,True,19,-1,0,11
209K20,6,365,AS,exp,41,←,left,←,0.744997499999954,True,19,1,1,12
209K20,6,366,AS,exp,41,↑,up,↑,0.5267897000012454,True,18,1,0,12
209K20,6,367,AS,exp,40,→,right,→,0.4171175999999832,True,18,1,0,12
209K20,6,368,AS,exp,27,←,right,→,1.2480052999999316,False,17,-1,1,13
209K20,6,369,AS,exp,42,↑,up,↑,0.41716619999897375,True,18,-1,0,13
209K20,6,370,AS,exp,49,←,left,←,0.9088597999998456,True,18,1,1,14
209K20,7,371,AS,intra_train,44,→,right,→,0.6503616999998485,True,31,-,-,-
209K20,7,372,AS,intra_train,47,←,right,→,0.5012963000008313,False,31,-,-,-
209K20,7,373,AS,intra_train,44,↓,down,↓,0.7639359000004333,True,31,-,-,-
209K20,7,374,AS,intra_train,29,←,left,←,0.4844611000007717,True,31,-,-,-
209K20,7,375,AS,intra_train,34,↓,down,↓,0.6170980999995663,True,31,-,-,-
209K20,7,376,AS,exp,42,↑,up,↑,0.46710799999891606,True,21,0,0,0
209K20,7,377,AS,exp,43,←,no_key,no_letter,-1.0,False,21,-1,0,0
209K20,7,378,AS,exp,32,↑,left,←,0.6111505999997462,False,22,-1,0,0
209K20,7,379,AS,exp,30,↓,down,↓,0.6285587000002124,True,23,-1,0,0
209K20,7,380,AS,exp,30,←,left,←,0.7024810000002617,True,23,1,1,1
209K20,7,381,AS,exp,32,↑,up,↑,0.5005222999989201,True,22,1,0,1
209K20,7,382,AS,exp,26,←,left,←,0.7062838999991072,True,22,1,0,1
209K20,7,383,AS,exp,48,↑,right,→,0.9223663000011584,False,21,-1,1,2
209K20,7,384,AS,exp,28,←,right,→,0.5867784000001848,False,22,-1,0,2
209K20,7,385,AS,exp,48,↑,up,↑,0.4169259000009333,True,23,-1,0,2
209K20,7,386,AS,exp,41,←,left,←,0.450432899999214,True,23,1,1,3
209K20,7,387,AS,exp,50,↓,down,↓,0.5003241000013077,True,22,1,0,3
209K20,7,388,AS,exp,28,→,no_key,no_letter,-1.0,False,22,-1,1,4
209K20,7,389,AS,exp,30,←,no_key,no_letter,-1.0,False,23,-1,0,4
209K20,7,390,AS,exp,48,↓,down,↓,1.1147019,True,24,-1,0,4
209K20,7,391,AS,exp,30,→,right,→,0.668196300001,True,24,1,1,5
209K20,7,392,AS,exp,41,↑,up,↑,0.7582500999997137,True,23,1,0,5
209K20,7,393,AS,exp,49,→,right,→,0.5691987999998673,True,23,1,0,5
209K20,7,394,AS,exp,34,↑,up,↑,0.6810808999998699,True,22,1,0,5
209K20,7,395,AS,exp,34,↓,down,↓,0.7657717999991291,True,22,1,0,5
209K20,7,396,AS,exp,42,→,right,→,0.7625221999987843,True,21,1,0,5
209K20,7,397,AS,exp,39,↑,down,↓,1.0552655999999843,False,21,-1,1,6
209K20,7,398,AS,exp,48,↓,down,↓,1.5072697999985394,True,22,-1,0,6
209K20,7,399,AS,exp,36,←,left,←,0.6343944000000192,True,22,1,1,7
209K20,7,400,AS,exp,37,→,right,→,0.45049160000053234,True,21,1,0,7
209K20,7,401,AS,exp,50,←,left,←,0.7103592000003118,True,21,1,0,7
209K20,7,402,AS,exp,30,↑,up,↑,0.6543209999999817,True,20,1,0,7
209K20,7,403,AS,exp,36,↓,up,↑,1.0642777000011847,False,20,-1,1,8
209K20,7,404,AS,exp,44,↑,up,↑,0.7853789999990113,True,21,-1,0,8
209K20,7,405,AS,exp,46,←,left,←,0.6460142999985692,True,21,1,1,9
209K20,7,406,AS,exp,30,↑,up,↑,0.8894826000014291,True,20,1,0,9
209K20,7,407,AS,exp,31,←,left,←,0.4671911999994336,True,20,1,0,9
209K20,7,408,AS,exp,32,↑,up,↑,0.9795768999993015,True,19,1,0,9
209K20,7,409,AS,exp,25,→,right,→,0.6918532999989111,True,19,1,0,9
209K20,7,410,AS,exp,35,↑,up,↑,0.7032466000000568,True,18,1,0,9
209K20,7,411,AS,exp,43,←,left,←,0.8189019999990705,True,18,1,0,9
209K20,7,412,AS,exp,34,↑,up,↑,0.7443342000005941,True,17,1,0,9
209K20,7,413,AS,exp,48,↓,down,↓,0.600784800000838,True,17,1,0,9
209K20,7,414,AS,exp,49,↑,left,←,1.0789225000007718,False,16,-1,1,10
209K20,7,415,AS,exp,36,↓,down,↓,0.8058958999990864,True,17,-1,0,10
209K20,7,416,AS,exp,39,→,right,→,0.4679861000004166,True,17,1,1,11
209K20,7,417,AS,exp,37,←,right,→,0.9340250000004744,False,16,-1,1,12
209K20,7,418,AS,exp,30,↑,up,↑,0.383860599999025,True,17,-1,0,12
209K20,7,419,AS,exp,25,←,left,←,0.4003997999989224,True,17,1,1,13
209K20,7,420,AS,exp,50,→,right,→,0.5073475999997754,True,16,1,0,13
209K20,7,421,AS,exp,50,←,no_key,no_letter,-1.0,False,16,-1,1,14
209K20,8,422,PS,intra_train,43,↑,left,←,0.9652505999983987,False,16,-,-,-
209K20,8,423,PS,intra_train,42,↓,down,↓,0.5944949000004272,True,16,-,-,-
209K20,8,424,PS,intra_train,27,←,left,←,0.7498634999992646,True,16,-,-,-
209K20,8,425,PS,intra_train,37,↑,down,↓,0.8175746000015351,False,16,-,-,-
209K20,8,426,PS,intra_train,34,←,left,←,0.5062672999993083,True,16,-,-,-
209K20,8,427,PS,exp,40,→,right,→,0.47699029999967024,True,11,0,0,0
209K20,8,428,PS,exp,47,↑,up,↑,0.5427614000000176,True,11,1,0,0
209K20,8,429,PS,exp,27,←,down,↓,1.0541039999989152,False,10,-1,1,1
209K20,8,430,PS,exp,29,→,right,→,0.5577468999999837,True,11,-1,0,1
209K20,8,431,PS,exp,32,↑,left,←,0.5673704000000726,False,11,-1,0,1
209K20,8,432,PS,exp,50,→,right,→,0.46298100000058184,True,12,-1,0,1
209K20,8,433,PS,exp,40,←,left,←,0.425724500000797,True,12,1,1,2
209K20,8,434,PS,exp,31,↓,down,↓,0.685165799999595,True,11,1,0,2
209K20,8,435,PS,exp,36,→,right,→,0.5944780000008905,True,11,1,0,2
209K20,8,436,PS,exp,27,↓,down,↓,1.1102840999992623,True,10,1,0,2
209K20,8,437,PS,exp,28,↑,left,←,0.7717587999995885,False,10,-1,1,3
209K20,8,438,PS,exp,43,→,right,→,0.6346106000000873,True,11,-1,0,3
209K20,8,439,PS,exp,38,↓,down,↓,0.6862851000005321,True,11,1,1,4
209K20,8,440,PS,exp,42,←,left,←,0.4338370000004943,True,10,1,0,4
209K20,8,441,PS,exp,35,↓,down,↓,0.6284212999998999,True,10,1,0,4
209K20,8,442,PS,exp,42,←,left,←,0.47467020000112825,True,9,1,0,4
209K20,8,443,PS,exp,34,→,right,→,0.43374559999938356,True,9,1,0,4
209K20,8,444,PS,exp,42,↑,right,→,0.6697002999990218,False,8,-1,1,5
209K20,8,445,PS,exp,44,↓,down,↓,0.5651496999998926,True,9,-1,0,5
209K20,8,446,PS,exp,44,↑,up,↑,0.6236109000001306,True,9,1,1,6
209K20,8,447,PS,exp,25,←,left,←,0.5059707000000344,True,8,1,0,6
209K20,8,448,PS,exp,40,↑,right,→,0.6697547999992821,False,8,-1,1,7
209K20,8,449,PS,exp,29,↓,down,↓,0.9587800999997853,True,9,-1,0,7
209K20,8,450,PS,exp,43,↑,up,↑,0.6867022999995243,True,9,1,1,8
209K20,8,451,PS,exp,37,↓,left,←,0.6172128999987763,False,8,-1,1,9
209K20,8,452,PS,exp,38,←,left,←,0.3813420999995287,True,9,-1,0,9
209K20,8,453,PS,exp,25,→,left,←,0.775467800000115,False,9,-1,0,9
209K20,8,454,PS,exp,44,↓,down,↓,0.5234966999996686,True,10,-1,0,9
209K20,8,455,PS,exp,33,↑,up,↑,1.0083226999995532,True,10,1,1,10
209K20,8,456,PS,exp,41,→,right,→,0.7032154999997147,True,9,1,0,10
209K20,8,457,PS,exp,35,↓,down,↓,0.6005103000006784,True,9,1,0,10
209K20,8,458,PS,exp,44,→,left,←,0.7259477999996307,False,8,-1,1,11
209K20,8,459,PS,exp,31,↑,down,↓,0.6210546000002068,False,9,-1,0,11
209K20,8,460,PS,exp,39,↓,down,↓,0.5534250000000611,True,10,-1,0,11
209K20,8,461,PS,exp,32,←,left,←,0.872441900000922,True,10,1,1,12
209K20,8,462,PS,exp,28,↑,up,↑,0.7030374000005395,True,9,1,0,12
209K20,8,463,PS,exp,47,←,down,↓,0.8594972000009875,False,9,-1,1,13
209K20,8,464,PS,exp,35,↓,down,↓,0.6148196000012831,True,10,-1,0,13
209K20,8,465,PS,exp,34,←,left,←,0.5041958000001614,True,10,1,1,14
