PART_ID,Block_no,Trial_no,Block_type,Trial_type,CSI,Stim_letter,Key_pressed,letter_choose,Rt,Corr,Stimulus Time,Level,Reversal,Revs_count
PB009K20,1,1,PS,train,50,←,left,←,0.8463765000051353,True,30,-,-,-
PB009K20,1,2,PS,train,29,→,right,→,0.5837625999993179,True,30,-,-,-
PB009K20,1,3,PS,train,31,↑,no_key,no_letter,-1.0,False,30,-,-,-
PB009K20,1,4,PS,train,42,↓,down,↓,1.000343799998518,True,30,-,-,-
PB009K20,1,5,PS,train,45,→,right,→,0.7830394999764394,True,30,-,-,-
PB009K20,1,6,PS,train,39,↓,down,↓,0.7494917000003625,True,30,-,-,-
PB009K20,1,7,PS,train,25,→,right,→,0.7870457000099123,True,30,-,-,-
PB009K20,1,8,PS,train,32,←,left,←,0.74050359998364,True,30,-,-,-
PB009K20,1,9,PS,train,43,↓,down,↓,1.8154717000143137,True,30,-,-,-
PB009K20,1,10,PS,train,29,→,right,→,0.6173847999889404,True,30,-,-,-
PB009K20,2,11,AS,train,35,↓,down,↓,0.7672277999809012,True,45,-,-,-
PB009K20,2,12,AS,train,47,↑,up,↑,0.9512267999816686,True,45,-,-,-
PB009K20,2,13,AS,train,48,←,left,←,0.7010439999867231,True,45,-,-,-
PB009K20,2,14,AS,train,46,→,right,→,0.5844423999951687,True,45,-,-,-
PB009K20,2,15,AS,train,25,↑,up,↑,0.94211639999412,True,45,-,-,-
PB009K20,2,16,AS,train,35,→,right,→,0.634287900000345,True,45,-,-,-
PB009K20,2,17,AS,train,34,↓,down,↓,0.8169440000201575,True,45,-,-,-
PB009K20,2,18,AS,train,48,↑,up,↑,0.5845245999807958,True,45,-,-,-
PB009K20,2,19,AS,train,45,→,right,→,0.783984599984251,True,45,-,-,-
PB009K20,2,20,AS,train,27,↑,up,↑,1.5751909999817144,True,45,-,-,-
PB009K20,-,21,PS,adaptive,30,←,left,←,0.9451317000202835,True,10,0,0,0
PB009K20,-,22,PS,adaptive,42,→,right,→,0.9536314999859314,True,10,1,0,0
PB009K20,-,23,PS,adaptive,31,↑,down,↓,1.4459652999939863,False,9,-1,1,1
PB009K20,-,24,PS,adaptive,41,→,right,→,0.6960105999896768,True,10,-1,0,1
PB009K20,-,25,PS,adaptive,45,↓,down,↓,0.688036599982297,True,10,1,1,2
PB009K20,-,26,PS,adaptive,28,↑,up,↑,0.7503018999996129,True,9,1,0,2
PB009K20,-,27,PS,adaptive,40,→,right,→,0.6334494999900926,True,9,1,0,2
PB009K20,-,28,PS,adaptive,35,←,left,←,0.6748962999845389,True,8,1,0,2
PB009K20,-,29,PS,adaptive,40,→,right,→,0.5837049999972805,True,8,1,0,2
PB009K20,-,30,PS,adaptive,49,↑,up,↑,0.6332745999970939,True,7,1,0,2
PB009K20,-,31,PS,adaptive,40,↓,down,↓,0.7011188000033144,True,7,1,0,2
PB009K20,-,32,PS,adaptive,30,→,right,→,0.6873104000114836,True,6,1,0,2
PB009K20,-,33,PS,adaptive,27,↑,up,↑,0.6659875999903306,True,6,1,0,2
PB009K20,-,34,PS,adaptive,27,←,right,→,0.6474970999988727,False,5,-1,1,3
PB009K20,-,35,PS,adaptive,39,→,left,←,0.7702913999964949,False,6,-1,0,3
PB009K20,-,36,PS,adaptive,44,↑,up,↑,0.5989173999987543,True,7,-1,0,3
PB009K20,-,37,PS,adaptive,44,→,right,→,0.6339703999983612,True,7,1,1,4
PB009K20,-,38,AS,adaptive,34,↑,up,↑,1.652250199986156,True,20,0,0,0
PB009K20,-,39,AS,adaptive,27,←,left,←,0.8872730000002775,True,20,1,0,0
PB009K20,-,40,AS,adaptive,48,↓,down,↓,0.6925053999875672,True,19,1,0,0
PB009K20,-,41,AS,adaptive,43,→,right,→,0.5908928999851923,True,19,1,0,0
PB009K20,-,42,AS,adaptive,42,↑,up,↑,0.8751432000135537,True,18,1,0,0
PB009K20,-,43,AS,adaptive,36,→,right,→,0.6881834999949206,True,18,1,0,0
PB009K20,-,44,AS,adaptive,30,↑,down,↓,1.0188666000030935,False,17,-1,1,1
PB009K20,-,45,AS,adaptive,49,→,right,→,1.7064469000033569,True,18,-1,0,1
PB009K20,-,46,AS,adaptive,47,↓,down,↓,0.8684766000078525,True,18,1,1,2
PB009K20,-,47,AS,adaptive,27,→,down,↓,0.8210434999782592,False,17,-1,1,3
PB009K20,-,48,AS,adaptive,32,↑,up,↑,0.7426357000076678,True,18,-1,0,3
PB009K20,-,49,AS,adaptive,32,→,right,→,0.7596386999939568,True,18,1,1,4
PB009K20,1,50,AS,intra_train,25,←,left,←,1.0147689000004902,True,25,-,-,-
PB009K20,1,51,AS,intra_train,45,↓,down,↓,0.9229390999826137,True,25,-,-,-
PB009K20,1,52,AS,intra_train,32,↑,up,↑,0.8179017000074964,True,25,-,-,-
PB009K20,1,53,AS,intra_train,43,←,left,←,0.9541528999980073,True,25,-,-,-
PB009K20,1,54,AS,intra_train,31,↑,up,↑,0.8537434000172652,True,25,-,-,-
PB009K20,1,55,AS,exp,38,↓,down,↓,0.708074399997713,True,17,0,0,0
PB009K20,1,56,AS,exp,41,←,left,←,0.8640769000048749,True,17,1,0,0
PB009K20,1,57,AS,exp,29,↓,down,↓,0.9106523999944329,True,16,1,0,0
PB009K20,1,58,AS,exp,48,↑,up,↑,0.8547231999982614,True,16,1,0,0
PB009K20,1,59,AS,exp,47,←,left,←,0.6563092999858782,True,15,1,0,0
PB009K20,1,60,AS,exp,31,→,right,→,0.7152265000040643,True,15,1,0,0
PB009K20,1,61,AS,exp,41,↓,down,↓,0.6305530000245199,True,14,1,0,0
PB009K20,1,62,AS,exp,47,←,left,←,0.7124334000109229,True,14,1,0,0
PB009K20,1,63,AS,exp,46,↓,up,↑,1.8212805000075605,False,13,-1,1,1
PB009K20,1,64,AS,exp,31,↑,up,↑,0.6452486999914981,True,14,-1,0,1
PB009K20,1,65,AS,exp,35,↓,down,↓,0.6334715000120923,True,14,1,1,2
PB009K20,1,66,AS,exp,49,←,left,←,0.5554521000012755,True,13,1,0,2
PB009K20,1,67,AS,exp,35,↑,right,→,0.9178052000061143,False,13,-1,1,3
PB009K20,1,68,AS,exp,35,↓,left,←,0.9013924000028055,False,14,-1,0,3
PB009K20,1,69,AS,exp,42,←,left,←,0.51270459999796,True,15,-1,0,3
PB009K20,1,70,AS,exp,36,→,right,→,0.6179669999983162,True,15,1,1,4
PB009K20,1,71,AS,exp,30,↑,down,↓,1.303271599987056,False,14,-1,1,5
PB009K20,1,72,AS,exp,50,→,right,→,0.5533321000111755,True,15,-1,0,5
PB009K20,1,73,AS,exp,44,↑,up,↑,0.5712905999971554,True,15,1,1,6
PB009K20,1,74,AS,exp,25,↓,right,→,0.9542914000048768,False,14,-1,1,7
PB009K20,1,75,AS,exp,29,→,left,←,0.9609436999890022,False,15,-1,0,7
PB009K20,1,76,AS,exp,31,←,right,→,0.9906660999986343,False,16,-1,0,7
PB009K20,1,77,AS,exp,27,↓,down,↓,1.023985600011656,True,17,-1,0,7
PB009K20,1,78,AS,exp,29,←,left,←,0.6783410000207368,True,17,1,1,8
PB009K20,1,79,AS,exp,39,↑,up,↑,1.4993409999879077,True,16,1,0,8
PB009K20,1,80,AS,exp,48,→,right,→,0.722491299995454,True,16,1,0,8
PB009K20,1,81,AS,exp,29,←,down,↓,0.9553939999896102,False,15,-1,1,9
PB009K20,1,82,AS,exp,36,↑,up,↑,0.6991181000194047,True,16,-1,0,9
PB009K20,1,83,AS,exp,37,→,right,→,1.0609018999966793,True,16,1,1,10
PB009K20,1,84,AS,exp,29,↓,left,←,1.3529779999807943,False,15,-1,1,11
PB009K20,1,85,AS,exp,37,↑,up,↑,0.7706897000025492,True,16,-1,0,11
PB009K20,1,86,AS,exp,45,→,right,→,0.710593499999959,True,16,1,1,12
PB009K20,1,87,AS,exp,43,↓,down,↓,0.6170635000162292,True,15,1,0,12
PB009K20,1,88,AS,exp,28,←,right,→,0.6606562999950256,False,15,-1,1,13
PB009K20,1,89,AS,exp,28,↑,up,↑,0.8864694000221789,True,16,-1,0,13
PB009K20,1,90,AS,exp,37,←,left,←,0.7000769000151195,True,16,1,1,14
PB009K20,2,91,PS,intra_train,28,→,right,→,0.5210255999991205,True,9,-,-,-
PB009K20,2,92,PS,intra_train,28,↑,up,↑,0.6543903000128921,True,9,-,-,-
PB009K20,2,93,PS,intra_train,43,↓,down,↓,0.6850722999952268,True,9,-,-,-
PB009K20,2,94,PS,intra_train,35,↑,up,↑,0.6268682999943849,True,9,-,-,-
PB009K20,2,95,PS,intra_train,30,↓,down,↓,0.762977200007299,True,9,-,-,-
PB009K20,2,96,PS,exp,38,→,left,←,0.7489014999882784,False,6,-1,0,0
PB009K20,2,97,PS,exp,47,↑,right,→,0.76633860002039,False,7,-1,0,0
PB009K20,2,98,PS,exp,42,←,left,←,0.5500951999856625,True,8,-1,0,0
PB009K20,2,99,PS,exp,48,↓,up,↑,0.8300176000047941,False,8,-1,0,0
PB009K20,2,100,PS,exp,26,↑,down,↓,0.841181099996902,False,9,-1,0,0
PB009K20,2,101,PS,exp,33,←,left,←,0.6206115999957547,True,10,-1,0,0
PB009K20,2,102,PS,exp,41,↓,down,↓,0.6299324999854434,True,10,1,1,1
PB009K20,2,103,PS,exp,43,↑,up,↑,0.5025296999956481,True,9,1,0,1
PB009K20,2,104,PS,exp,41,→,right,→,0.5175415000121575,True,9,1,0,1
PB009K20,2,105,PS,exp,42,←,left,←,0.6020679000066593,True,8,1,0,1
PB009K20,2,106,PS,exp,34,↑,right,→,0.8825080999813508,False,8,-1,1,2
PB009K20,2,107,PS,exp,37,→,right,→,0.6143098999746144,True,9,-1,0,2
PB009K20,2,108,PS,exp,26,←,up,↑,0.8103573000116739,False,9,-1,0,2
PB009K20,2,109,PS,exp,27,→,right,→,0.49997659999644384,True,10,-1,0,2
PB009K20,2,110,PS,exp,29,←,left,←,0.46901680002338253,True,10,1,1,3
PB009K20,2,111,PS,exp,50,↓,down,↓,0.600468999997247,True,9,1,0,3
PB009K20,2,112,PS,exp,25,←,left,←,0.5124862999946345,True,9,1,0,3
PB009K20,2,113,PS,exp,26,→,right,→,0.664090500009479,True,8,1,0,3
PB009K20,2,114,PS,exp,30,↓,down,↓,0.547166800010018,True,8,1,0,3
PB009K20,2,115,PS,exp,44,←,left,←,0.60968110000249,True,7,1,0,3
PB009K20,2,116,PS,exp,41,↓,down,↓,0.6900033999991138,True,7,1,0,3
PB009K20,2,117,PS,exp,39,↑,up,↑,0.5515698000090197,True,6,1,0,3
PB009K20,2,118,PS,exp,38,←,left,←,0.849287999997614,True,6,1,0,3
PB009K20,2,119,PS,exp,34,↓,down,↓,0.5723626000108197,True,5,1,0,3
PB009K20,2,120,PS,exp,37,↑,left,←,0.7128196000121534,False,5,-1,1,4
PB009K20,2,121,PS,exp,41,↓,right,→,0.6736579999851529,False,6,-1,0,4
PB009K20,2,122,PS,exp,49,↑,up,↑,0.5793225000088569,True,7,-1,0,4
PB009K20,2,123,PS,exp,39,→,right,→,0.43967069999780506,True,7,1,1,5
PB009K20,2,124,PS,exp,45,↑,down,↓,0.8461637000145856,False,6,-1,1,6
PB009K20,2,125,PS,exp,41,→,right,→,0.4301990999956615,True,7,-1,0,6
PB009K20,2,126,PS,exp,34,↑,left,←,0.9500605000066571,False,7,-1,0,6
PB009K20,2,127,PS,exp,39,↓,right,→,0.5719475999940187,False,8,-1,0,6
PB009K20,2,128,PS,exp,46,←,left,←,0.6443394999951124,True,9,-1,0,6
PB009K20,2,129,PS,exp,46,↑,up,↑,0.7851686000067275,True,9,1,1,7
PB009K20,2,130,PS,exp,37,↓,down,↓,0.5812647999846376,True,8,1,0,7
PB009K20,2,131,PS,exp,35,→,up,↑,1.2158635999949183,False,8,-1,1,8
PB009K20,2,132,PS,exp,27,←,left,←,0.5239049000083469,True,9,-1,0,8
PB009K20,2,133,PS,exp,43,→,right,→,0.7636355999857187,True,9,1,1,9
PB009K20,2,134,PS,exp,34,←,left,←,0.5928161999909207,True,8,1,0,9
PB009K20,2,135,PS,exp,31,↑,up,↑,0.60808909998741,True,8,1,0,9
PB009K20,2,136,PS,exp,43,←,left,←,0.4204013000125997,True,7,1,0,9
PB009K20,2,137,PS,exp,46,↑,right,→,0.7627920999948401,False,7,-1,1,10
PB009K20,2,138,PS,exp,33,↓,up,↑,0.52805389999412,False,8,-1,0,10
PB009K20,2,139,PS,exp,28,→,right,→,0.4618555000051856,True,9,-1,0,10
PB009K20,2,140,PS,exp,42,↓,left,←,0.9556856999988668,False,9,-1,0,10
PB009K20,2,141,PS,exp,26,←,left,←,0.5895928000099957,True,10,-1,0,10
PB009K20,2,142,PS,exp,30,↓,left,←,0.6660441000130959,False,10,-1,0,10
PB009K20,2,143,PS,exp,28,→,right,→,0.49319209999521263,True,11,-1,0,10
PB009K20,2,144,PS,exp,43,↓,down,↓,0.5641978000057861,True,11,1,1,11
PB009K20,2,145,PS,exp,48,→,right,→,0.4963166000088677,True,10,1,0,11
PB009K20,2,146,PS,exp,34,↓,right,→,0.35470929997973144,False,10,-1,1,12
PB009K20,2,147,PS,exp,44,→,right,→,0.4860436999879312,True,11,-1,0,12
PB009K20,2,148,PS,exp,26,←,left,←,0.5151012999995146,True,11,1,1,13
PB009K20,2,149,PS,exp,50,→,right,→,0.4235480999923311,True,10,1,0,13
PB009K20,2,150,PS,exp,37,↓,down,↓,0.5918794000172056,True,10,1,0,13
PB009K20,2,151,PS,exp,42,→,no_key,no_letter,-1.0,False,9,-1,1,14
PB009K20,3,152,PS,intra_train,47,←,left,←,0.5261406000063289,True,9,-,-,-
PB009K20,3,153,PS,intra_train,39,↓,down,↓,0.7332102000073064,True,9,-,-,-
PB009K20,3,154,PS,intra_train,28,→,right,→,0.49526259998674504,True,9,-,-,-
PB009K20,3,155,PS,intra_train,43,↑,up,↑,1.2445115000009537,True,9,-,-,-
PB009K20,3,156,PS,intra_train,31,←,right,→,0.5354711999825668,False,9,-,-,-
PB009K20,3,157,PS,exp,50,↓,left,←,0.9157177999732085,False,6,-1,0,0
PB009K20,3,158,PS,exp,33,←,up,↑,1.00007799998275,False,7,-1,0,0
PB009K20,3,159,PS,exp,36,↓,down,↓,0.559529999998631,True,8,-1,0,0
PB009K20,3,160,PS,exp,39,↑,up,↑,0.49281060000066645,True,8,1,1,1
PB009K20,3,161,PS,exp,42,↓,right,→,0.683523999992758,False,7,-1,1,2
PB009K20,3,162,PS,exp,25,↑,up,↑,0.5661938000121154,True,8,-1,0,2
PB009K20,3,163,PS,exp,35,↓,down,↓,0.5635333999816794,True,8,1,1,3
PB009K20,3,164,PS,exp,31,→,right,→,0.6760062999965157,True,7,1,0,3
PB009K20,3,165,PS,exp,27,↑,up,↑,0.5394054999924265,True,7,1,0,3
PB009K20,3,166,PS,exp,31,→,left,←,1.4608653000032064,False,6,-1,1,4
PB009K20,3,167,PS,exp,39,↑,up,↑,0.5203965000109747,True,7,-1,0,4
PB009K20,3,168,PS,exp,25,↓,right,→,0.8840399999753572,False,7,-1,0,4
PB009K20,3,169,PS,exp,32,→,right,→,0.6009727999917232,True,8,-1,0,4
PB009K20,3,170,PS,exp,44,↓,down,↓,0.4800491999776568,True,8,1,1,5
PB009K20,3,171,PS,exp,46,↑,up,↑,0.5237035000172909,True,7,1,0,5
PB009K20,3,172,PS,exp,26,↓,left,←,0.7428909000009298,False,7,-1,1,6
PB009K20,3,173,PS,exp,25,→,right,→,0.5187555000011344,True,8,-1,0,6
PB009K20,3,174,PS,exp,47,↓,down,↓,0.5454037000017706,True,8,1,1,7
PB009K20,3,175,PS,exp,41,→,right,→,0.5081519999948796,True,7,1,0,7
PB009K20,3,176,PS,exp,44,↑,left,←,0.6221082999836653,False,7,-1,1,8
PB009K20,3,177,PS,exp,35,→,right,→,0.49789979998604394,True,8,-1,0,8
PB009K20,3,178,PS,exp,45,↑,left,←,0.7162059000111185,False,8,-1,0,8
PB009K20,3,179,PS,exp,45,→,right,→,0.38262579997535795,True,9,-1,0,8
PB009K20,3,180,PS,exp,27,←,right,→,0.4834596999862697,False,9,-1,0,8
PB009K20,3,181,PS,exp,44,↓,down,↓,0.7427266000013333,True,10,-1,0,8
PB009K20,3,182,PS,exp,42,→,right,→,0.35172430000966415,True,10,1,1,9
PB009K20,3,183,PS,exp,41,←,left,←,0.48288749999483116,True,9,1,0,9
PB009K20,3,184,PS,exp,44,↑,up,↑,0.47914870001841336,True,9,1,0,9
PB009K20,3,185,PS,exp,36,→,right,→,0.48969629997736774,True,8,1,0,9
PB009K20,3,186,PS,exp,41,↓,down,↓,0.7072986999992281,True,8,1,0,9
PB009K20,3,187,PS,exp,33,↑,left,←,0.8404523000062909,False,7,-1,1,10
PB009K20,3,188,PS,exp,36,←,right,→,0.6716385000036098,False,8,-1,0,10
PB009K20,3,189,PS,exp,36,→,left,←,0.5781488999782596,False,9,-1,0,10
PB009K20,3,190,PS,exp,50,↑,up,↑,0.4874316000204999,True,10,-1,0,10
PB009K20,3,191,PS,exp,34,↓,down,↓,0.5519147999875713,True,10,1,1,11
PB009K20,3,192,PS,exp,49,←,left,←,0.753680699999677,True,9,1,0,11
PB009K20,3,193,PS,exp,40,→,right,→,0.40865650001796894,True,9,1,0,11
PB009K20,3,194,PS,exp,28,↑,up,↑,0.4878533000010066,True,8,1,0,11
PB009K20,3,195,PS,exp,49,←,left,←,0.6227182000002358,True,8,1,0,11
PB009K20,3,196,PS,exp,41,↓,down,↓,0.7012370000011288,True,7,1,0,11
PB009K20,3,197,PS,exp,38,↑,up,↑,0.8091352000192273,True,7,1,0,11
PB009K20,3,198,PS,exp,29,→,right,→,0.8274267000088003,True,6,1,0,11
PB009K20,3,199,PS,exp,48,←,left,←,0.6122775999829173,True,6,1,0,11
PB009K20,3,200,PS,exp,50,↑,down,↓,0.8374342000170145,False,5,-1,1,12
PB009K20,3,201,PS,exp,37,↓,right,→,0.5325343000004068,False,6,-1,0,12
PB009K20,3,202,PS,exp,42,→,left,←,0.7004107999964617,False,7,-1,0,12
PB009K20,3,203,PS,exp,36,←,left,←,0.638551300013205,True,8,-1,0,12
PB009K20,3,204,PS,exp,38,↓,down,↓,0.6681097999971826,True,8,1,1,13
PB009K20,3,205,PS,exp,36,←,left,←,0.6616090000024997,True,7,1,0,13
PB009K20,3,206,PS,exp,32,↑,up,↑,0.5980037999979686,True,7,1,0,13
PB009K20,3,207,PS,exp,37,→,up,↑,0.649156800005585,False,6,-1,1,14
PB009K20,4,208,AS,intra_train,42,↓,down,↓,0.8557593000004999,True,25,-,-,-
PB009K20,4,209,AS,intra_train,50,←,left,←,1.287741999985883,True,25,-,-,-
PB009K20,4,210,AS,intra_train,41,→,right,→,0.5933005000115372,True,25,-,-,-
PB009K20,4,211,AS,intra_train,27,←,left,←,0.6576699999859557,True,25,-,-,-
PB009K20,4,212,AS,intra_train,26,→,right,→,0.5505319000221789,True,25,-,-,-
PB009K20,4,213,AS,exp,41,←,left,←,1.3376244999817573,True,17,0,0,0
PB009K20,4,214,AS,exp,43,↓,down,↓,0.8240441999805626,True,17,1,0,0
PB009K20,4,215,AS,exp,37,↑,right,→,0.8110609999857843,False,16,-1,1,1
PB009K20,4,216,AS,exp,49,←,left,←,0.8544996000127867,True,17,-1,0,1
PB009K20,4,217,AS,exp,44,→,right,→,0.5081096999929287,True,17,1,1,2
PB009K20,4,218,AS,exp,48,←,left,←,0.7009232999989763,True,16,1,0,2
PB009K20,4,219,AS,exp,48,↓,down,↓,0.5848058999981731,True,16,1,0,2
PB009K20,4,220,AS,exp,47,←,left,←,0.5797857999859843,True,15,1,0,2
PB009K20,4,221,AS,exp,45,↑,up,↑,0.6462014999997336,True,15,1,0,2
PB009K20,4,222,AS,exp,40,→,right,→,0.7637991000083275,True,14,1,0,2
PB009K20,4,223,AS,exp,39,←,left,←,0.5788909000111744,True,14,1,0,2
PB009K20,4,224,AS,exp,30,→,right,→,0.754243499977747,True,13,1,0,2
PB009K20,4,225,AS,exp,45,↑,up,↑,0.6631094999902416,True,13,1,0,2
PB009K20,4,226,AS,exp,32,→,right,→,0.656745200016303,True,12,1,0,2
PB009K20,4,227,AS,exp,41,←,left,←,0.7251161999884062,True,12,1,0,2
PB009K20,4,228,AS,exp,25,→,right,→,0.5950933000131045,True,11,1,0,2
PB009K20,4,229,AS,exp,47,↓,down,↓,0.8607605000142939,True,11,1,0,2
PB009K20,4,230,AS,exp,43,→,no_key,no_letter,-1.0,False,10,-1,1,3
PB009K20,4,231,AS,exp,43,↑,up,↑,0.8271319000050426,True,11,-1,0,3
PB009K20,4,232,AS,exp,40,←,left,←,0.6317595999862533,True,11,1,1,4
PB009K20,4,233,AS,exp,49,↑,up,↑,0.619780000008177,True,10,1,0,4
PB009K20,4,234,AS,exp,45,←,left,←,0.7537172999873292,True,10,1,0,4
PB009K20,4,235,AS,exp,28,↑,down,↓,0.8209283000032883,False,9,-1,1,5
PB009K20,4,236,AS,exp,30,→,no_key,no_letter,-1.0,False,10,-1,0,5
PB009K20,4,237,AS,exp,37,←,down,↓,0.8201184000063222,False,11,-1,0,5
PB009K20,4,238,AS,exp,50,↓,no_key,no_letter,-1.0,False,12,-1,0,5
PB009K20,4,239,AS,exp,47,↑,down,↓,1.54005879999022,False,13,-1,0,5
PB009K20,4,240,AS,exp,47,→,right,→,0.492795699974522,True,14,-1,0,5
PB009K20,4,241,AS,exp,29,←,left,←,0.6250983999925666,True,14,1,1,6
PB009K20,4,242,AS,exp,47,↑,right,→,0.6923070999910124,False,13,-1,1,7
PB009K20,4,243,AS,exp,29,↓,down,↓,0.6205597000080161,True,14,-1,0,7
PB009K20,4,244,AS,exp,35,→,up,↑,0.7094559000106528,False,14,-1,0,7
PB009K20,4,245,AS,exp,47,↓,down,↓,0.6706124000193086,True,15,-1,0,7
PB009K20,4,246,AS,exp,34,→,right,→,0.5074871000251733,True,15,1,1,8
PB009K20,4,247,AS,exp,31,↑,down,↓,1.0125991000095382,False,14,-1,1,9
PB009K20,4,248,AS,exp,43,→,right,→,0.5335217000101693,True,15,-1,0,9
PB009K20,4,249,AS,exp,28,↓,down,↓,0.731152500025928,True,15,1,1,10
PB009K20,4,250,AS,exp,39,→,down,↓,0.9716371000104118,False,14,-1,1,11
PB009K20,4,251,AS,exp,34,←,right,→,0.5167541999835521,False,15,-1,0,11
PB009K20,4,252,AS,exp,27,→,right,→,0.7662789000023622,True,16,-1,0,11
PB009K20,4,253,AS,exp,38,←,left,←,0.7361044999852311,True,16,1,1,12
PB009K20,4,254,AS,exp,36,↓,down,↓,0.7379330999974627,True,15,1,0,12
PB009K20,4,255,AS,exp,26,↑,up,↑,0.7166555999720003,True,15,1,0,12
PB009K20,4,256,AS,exp,28,↓,down,↓,0.6029533999972045,True,14,1,0,12
PB009K20,4,257,AS,exp,32,→,right,→,0.42672960000345483,True,14,1,0,12
PB009K20,4,258,AS,exp,27,↑,up,↑,1.2732431000040378,True,13,1,0,12
PB009K20,4,259,AS,exp,28,←,left,←,0.678162500000326,True,13,1,0,12
PB009K20,4,260,AS,exp,35,→,down,↓,0.7973110000020824,False,12,-1,1,13
PB009K20,4,261,AS,exp,42,↓,up,↑,1.02031240001088,False,13,-1,0,13
PB009K20,4,262,AS,exp,44,←,right,→,0.5507525999855716,False,14,-1,0,13
PB009K20,4,263,AS,exp,42,→,left,←,0.7216389999957755,False,15,-1,0,13
PB009K20,4,264,AS,exp,29,←,right,→,0.44385589999728836,False,16,-1,0,13
PB009K20,4,265,AS,exp,41,↓,down,↓,0.6482560000149533,True,17,-1,0,13
PB009K20,4,266,AS,exp,42,→,left,←,0.5275870999903418,False,17,-1,0,13
PB009K20,4,267,AS,exp,50,↑,down,↓,0.5102414999855682,False,18,-1,0,13
PB009K20,4,268,AS,exp,35,↓,down,↓,0.6585380999895278,True,19,-1,0,13
PB009K20,4,269,AS,exp,42,↑,up,↑,0.747480899997754,True,19,1,1,14
PB009K20,5,270,AS,intra_train,29,↓,down,↓,0.9450769999821205,True,25,-,-,-
PB009K20,5,271,AS,intra_train,47,→,right,→,1.3950192999909632,True,25,-,-,-
PB009K20,5,272,AS,intra_train,27,↑,up,↑,0.8473152999940794,True,25,-,-,-
PB009K20,5,273,AS,intra_train,27,→,left,←,0.8609421000001021,False,25,-,-,-
PB009K20,5,274,AS,intra_train,36,↓,down,↓,0.7080714000039734,True,25,-,-,-
PB009K20,5,275,AS,exp,35,→,right,→,0.8392481000046246,True,17,0,0,0
PB009K20,5,276,AS,exp,30,←,left,←,0.670355300011579,True,17,1,0,0
PB009K20,5,277,AS,exp,33,↑,up,↑,1.1022960999980569,True,16,1,0,0
PB009K20,5,278,AS,exp,27,→,down,↓,0.8289737000013702,False,16,-1,1,1
PB009K20,5,279,AS,exp,35,←,left,←,0.6357250000000931,True,17,-1,0,1
PB009K20,5,280,AS,exp,44,→,right,→,0.6103276999783702,True,17,1,1,2
PB009K20,5,281,AS,exp,42,↓,down,↓,0.6658174000040162,True,16,1,0,2
PB009K20,5,282,AS,exp,46,↑,up,↑,0.6949731000058819,True,16,1,0,2
PB009K20,5,283,AS,exp,37,↓,down,↓,0.5784244000096805,True,15,1,0,2
PB009K20,5,284,AS,exp,35,←,left,←,1.0577691000071354,True,15,1,0,2
PB009K20,5,285,AS,exp,31,→,right,→,0.5034167999983765,True,14,1,0,2
PB009K20,5,286,AS,exp,42,←,right,→,0.8422568000096362,False,14,-1,1,3
PB009K20,5,287,AS,exp,35,↓,down,↓,0.874327199999243,True,15,-1,0,3
PB009K20,5,288,AS,exp,46,↑,up,↑,0.7301556000020355,True,15,1,1,4
PB009K20,5,289,AS,exp,44,↓,down,↓,0.7187095000117552,True,14,1,0,4
PB009K20,5,290,AS,exp,27,←,left,←,0.734496000019135,True,14,1,0,4
PB009K20,5,291,AS,exp,44,→,right,→,0.6162632999767084,True,13,1,0,4
PB009K20,5,292,AS,exp,37,←,left,←,0.624163900007261,True,13,1,0,4
PB009K20,5,293,AS,exp,26,↑,up,↑,0.7521189000108279,True,12,1,0,4
PB009K20,5,294,AS,exp,31,←,left,←,0.6534568999777548,True,12,1,0,4
PB009K20,5,295,AS,exp,33,→,left,←,0.6490557999932207,False,11,-1,1,5
PB009K20,5,296,AS,exp,43,↓,down,↓,0.8022631999920122,True,12,-1,0,5
PB009K20,5,297,AS,exp,33,↑,down,↓,0.623851200012723,False,12,-1,0,5
PB009K20,5,298,AS,exp,42,←,right,→,0.5057462000113446,False,13,-1,0,5
PB009K20,5,299,AS,exp,26,→,left,←,0.5569864000135567,False,14,-1,0,5
PB009K20,5,300,AS,exp,31,↑,down,↓,0.6879674999800045,False,15,-1,0,5
PB009K20,5,301,AS,exp,28,↓,up,↑,0.7668572000111453,False,16,-1,0,5
PB009K20,5,302,AS,exp,48,→,right,→,0.5072615999961272,True,17,-1,0,5
PB009K20,5,303,AS,exp,36,←,down,↓,0.9644220000191126,False,17,-1,0,5
PB009K20,5,304,AS,exp,34,↓,down,↓,0.6137807000195608,True,18,-1,0,5
PB009K20,5,305,AS,exp,36,←,right,→,0.7617185999988578,False,18,-1,0,5
PB009K20,5,306,AS,exp,39,→,right,→,0.6692111000011209,True,19,-1,0,5
PB009K20,5,307,AS,exp,48,←,left,←,0.7778746999974828,True,19,1,1,6
PB009K20,5,308,AS,exp,35,↑,up,↑,0.5086115000012796,True,18,1,0,6
PB009K20,5,309,AS,exp,42,↓,down,↓,0.7372469000110868,True,18,1,0,6
PB009K20,5,310,AS,exp,31,←,left,←,0.4616218999726698,True,17,1,0,6
PB009K20,5,311,AS,exp,29,↑,up,↑,0.4169650000112597,True,17,1,0,6
PB009K20,5,312,AS,exp,32,↓,left,←,1.1538319000101183,False,16,-1,1,7
PB009K20,5,313,AS,exp,44,↑,up,↑,0.6590347999881487,True,17,-1,0,7
PB009K20,5,314,AS,exp,30,→,right,→,0.5882235000026412,True,17,1,1,8
PB009K20,5,315,AS,exp,43,←,left,←,0.4689899999939371,True,16,1,0,8
PB009K20,5,316,AS,exp,37,↓,down,↓,0.5892477000015788,True,16,1,0,8
PB009K20,5,317,AS,exp,31,←,up,↑,0.6931021999916993,False,15,-1,1,9
PB009K20,5,318,AS,exp,36,↓,down,↓,0.621712899999693,True,16,-1,0,9
PB009K20,5,319,AS,exp,25,→,no_key,no_letter,-1.0,False,16,-1,0,9
PB009K20,5,320,AS,exp,49,↑,left,←,0.8525738999887835,False,17,-1,0,9
PB009K20,5,321,AS,exp,46,→,left,←,0.7799215999839362,False,18,-1,0,9
PB009K20,5,322,AS,exp,42,↑,no_key,no_letter,-1.0,False,19,-1,0,9
PB009K20,5,323,AS,exp,49,↓,down,↓,0.9214185000164434,True,20,-1,0,9
PB009K20,5,324,AS,exp,42,→,right,→,0.625995000009425,True,20,1,1,10
PB009K20,5,325,AS,exp,47,↓,down,↓,0.760379399987869,True,19,1,0,10
PB009K20,5,326,AS,exp,48,←,no_key,no_letter,-1.0,False,19,-1,1,11
PB009K20,5,327,AS,exp,39,→,right,→,0.6094663000258151,True,20,-1,0,11
PB009K20,5,328,AS,exp,48,↑,up,↑,0.6763579999969807,True,20,1,1,12
PB009K20,5,329,AS,exp,48,→,right,→,1.316660700016655,True,19,1,0,12
PB009K20,5,330,AS,exp,25,↑,up,↑,0.5954987999866717,True,19,1,0,12
PB009K20,5,331,AS,exp,50,↓,down,↓,0.8254854000115301,True,18,1,0,12
PB009K20,5,332,AS,exp,30,←,left,←,0.8496134000015445,True,18,1,0,12
PB009K20,5,333,AS,exp,40,↓,down,↓,0.4785048999765422,True,17,1,0,12
PB009K20,5,334,AS,exp,45,←,right,→,0.5037714999925811,False,17,-1,1,13
PB009K20,5,335,AS,exp,32,↑,right,→,0.8297137999907136,False,18,-1,0,13
PB009K20,5,336,AS,exp,39,↓,down,↓,0.5975191000034101,True,19,-1,0,13
PB009K20,5,337,AS,exp,35,→,right,→,0.603777500014985,True,19,1,1,14
PB009K20,6,338,PS,intra_train,25,←,right,→,0.566953299974557,False,9,-,-,-
PB009K20,6,339,PS,intra_train,39,→,right,→,0.5793889999913517,True,9,-,-,-
PB009K20,6,340,PS,intra_train,43,↓,down,↓,0.6897308999905363,True,9,-,-,-
PB009K20,6,341,PS,intra_train,49,←,left,←,0.5999263999983668,True,9,-,-,-
PB009K20,6,342,PS,intra_train,42,→,right,→,0.4691637000069022,True,9,-,-,-
PB009K20,6,343,PS,exp,28,←,left,←,0.5131824999989476,True,6,0,0,0
PB009K20,6,344,PS,exp,37,↓,down,↓,0.7099932999990415,True,6,1,0,0
PB009K20,6,345,PS,exp,34,↑,left,←,0.8589801000198349,False,5,-1,1,1
PB009K20,6,346,PS,exp,38,←,left,←,0.6193047999986447,True,6,-1,0,1
PB009K20,6,347,PS,exp,49,→,down,↓,0.7436113999865483,False,6,-1,0,1
PB009K20,6,348,PS,exp,31,↓,down,↓,0.6146237000066321,True,7,-1,0,1
PB009K20,6,349,PS,exp,48,↑,left,←,0.5242233999888413,False,7,-1,0,1
PB009K20,6,350,PS,exp,44,←,left,←,0.467665100004524,True,8,-1,0,1
PB009K20,6,351,PS,exp,45,↓,down,↓,0.6012613000057172,True,8,1,1,2
PB009K20,6,352,PS,exp,25,→,left,←,0.4422273999953177,False,7,-1,1,3
PB009K20,6,353,PS,exp,46,←,right,→,0.5815371999924537,False,8,-1,0,3
PB009K20,6,354,PS,exp,36,↑,down,↓,1.3340382000023965,False,9,-1,0,3
PB009K20,6,355,PS,exp,38,→,right,→,0.44498810000368394,True,10,-1,0,3
PB009K20,6,356,PS,exp,27,↑,up,↑,0.48796590001438744,True,10,1,1,4
PB009K20,6,357,PS,exp,29,→,down,↓,0.5795038999931421,False,9,-1,1,5
PB009K20,6,358,PS,exp,42,←,left,←,0.5818271999887656,True,10,-1,0,5
PB009K20,6,359,PS,exp,30,→,right,→,0.4739345999842044,True,10,1,1,6
PB009K20,6,360,PS,exp,44,←,left,←,0.43664040000294335,True,9,1,0,6
PB009K20,6,361,PS,exp,34,↓,down,↓,0.6270746999944095,True,9,1,0,6
PB009K20,6,362,PS,exp,37,→,right,→,0.38834269999642856,True,8,1,0,6
PB009K20,6,363,PS,exp,38,↑,up,↑,0.4726919000095222,True,8,1,0,6
PB009K20,6,364,PS,exp,40,↓,down,↓,0.5241792000015266,True,7,1,0,6
PB009K20,6,365,PS,exp,33,←,left,←,0.5700633999949787,True,7,1,0,6
PB009K20,6,366,PS,exp,31,↓,down,↓,0.7248380999953952,True,6,1,0,6
PB009K20,6,367,PS,exp,45,←,left,←,0.5168583999911789,True,6,1,0,6
PB009K20,6,368,PS,exp,46,↓,no_key,no_letter,-1.0,False,5,-1,1,7
PB009K20,6,369,PS,exp,32,→,down,↓,0.745869300008053,False,6,-1,0,7
PB009K20,6,370,PS,exp,38,↓,down,↓,0.6149994000152219,True,7,-1,0,7
PB009K20,6,371,PS,exp,40,←,right,→,0.44112900001346134,False,7,-1,0,7
PB009K20,6,372,PS,exp,37,→,down,↓,0.656354700011434,False,8,-1,0,7
PB009K20,6,373,PS,exp,44,↑,down,↓,0.8828024999820627,False,9,-1,0,7
PB009K20,6,374,PS,exp,32,←,left,←,0.5421833000145853,True,10,-1,0,7
PB009K20,6,375,PS,exp,49,→,right,→,0.4395568000036292,True,10,1,1,8
PB009K20,6,376,PS,exp,36,↓,down,↓,0.5582949999952689,True,9,1,0,8
PB009K20,6,377,PS,exp,40,↑,down,↓,0.7281825999962166,False,9,-1,1,9
PB009K20,6,378,PS,exp,47,←,left,←,0.3521459999901708,True,10,-1,0,9
PB009K20,6,379,PS,exp,35,→,right,→,0.44206770000164397,True,10,1,1,10
PB009K20,6,380,PS,exp,42,↑,up,↑,0.4956289000110701,True,9,1,0,10
PB009K20,6,381,PS,exp,29,→,right,→,0.47805020000669174,True,9,1,0,10
PB009K20,6,382,PS,exp,50,↓,down,↓,0.5651124999858439,True,8,1,0,10
PB009K20,6,383,PS,exp,41,→,right,→,0.39452950001577847,True,8,1,0,10
PB009K20,6,384,PS,exp,34,←,left,←,0.5182440000062343,True,7,1,0,10
PB009K20,6,385,PS,exp,43,→,right,→,0.4322059999976773,True,7,1,0,10
PB009K20,6,386,PS,exp,38,↓,down,↓,0.5542796999798156,True,6,1,0,10
PB009K20,6,387,PS,exp,34,→,right,→,0.5285502000187989,True,6,1,0,10
PB009K20,6,388,PS,exp,48,↓,left,←,0.4860476000176277,False,5,-1,1,11
PB009K20,6,389,PS,exp,45,→,right,→,0.4158361000008881,True,6,-1,0,11
PB009K20,6,390,PS,exp,38,↓,left,←,0.6591581999964546,False,6,-1,0,11
PB009K20,6,391,PS,exp,33,←,right,→,0.3238498000137042,False,7,-1,0,11
PB009K20,6,392,PS,exp,25,↓,down,↓,0.6001160999876447,True,8,-1,0,11
PB009K20,6,393,PS,exp,31,→,right,→,0.3962734999950044,True,8,1,1,12
PB009K20,6,394,PS,exp,32,←,left,←,0.5546927999821492,True,7,1,0,12
PB009K20,6,395,PS,exp,40,↓,down,↓,0.5398335999925621,True,7,1,0,12
PB009K20,6,396,PS,exp,50,→,right,→,0.4004420000128448,True,6,1,0,12
PB009K20,6,397,PS,exp,42,←,left,←,0.4769731000124011,True,6,1,0,12
PB009K20,6,398,PS,exp,40,→,down,↓,0.6463739999744575,False,5,-1,1,13
PB009K20,6,399,PS,exp,49,↓,down,↓,0.6436637000006158,True,6,-1,0,13
PB009K20,6,400,PS,exp,49,↑,left,←,0.5459666999813635,False,6,-1,0,13
PB009K20,6,401,PS,exp,34,←,left,←,0.5096135000057984,True,7,-1,0,13
PB009K20,6,402,PS,exp,29,↓,down,↓,0.6119403000047896,True,7,1,1,14
PB009K20,7,403,PS,intra_train,33,↑,up,↑,0.595278299995698,True,9,-,-,-
PB009K20,7,404,PS,intra_train,44,→,right,→,0.514896900014719,True,9,-,-,-
PB009K20,7,405,PS,intra_train,29,↑,up,↑,0.5024050000065472,True,9,-,-,-
PB009K20,7,406,PS,intra_train,43,→,right,→,0.5481176000030246,True,9,-,-,-
PB009K20,7,407,PS,intra_train,40,↑,up,↑,0.45544400002108887,True,9,-,-,-
PB009K20,7,408,PS,exp,41,↓,down,↓,0.5733027000096627,True,6,0,0,0
PB009K20,7,409,PS,exp,34,↑,up,↑,0.5301181999966502,True,6,1,0,0
PB009K20,7,410,PS,exp,28,↓,left,←,0.8184412999835331,False,5,-1,1,1
PB009K20,7,411,PS,exp,43,↑,up,↑,0.515044100000523,True,6,-1,0,1
PB009K20,7,412,PS,exp,49,←,left,←,0.5573576999886427,True,6,1,1,2
PB009K20,7,413,PS,exp,34,↓,down,↓,0.6019153000088409,True,5,1,0,2
PB009K20,7,414,PS,exp,40,→,left,←,0.5360000999935437,False,5,-1,1,3
PB009K20,7,415,PS,exp,25,←,up,↑,0.21710899999015965,False,6,-1,0,3
PB009K20,7,416,PS,exp,27,↓,right,→,0.08449420001124963,False,7,-1,0,3
PB009K20,7,417,PS,exp,39,←,left,←,0.7414204000087921,True,8,-1,0,3
PB009K20,7,418,PS,exp,41,→,right,→,0.475515500002075,True,8,1,1,4
PB009K20,7,419,PS,exp,33,←,left,←,0.5881540999980643,True,7,1,0,4
PB009K20,7,420,PS,exp,35,↑,up,↑,0.51812140000402,True,7,1,0,4
PB009K20,7,421,PS,exp,38,→,left,←,0.6297909000131767,False,6,-1,1,5
PB009K20,7,422,PS,exp,26,↑,up,↑,0.48399810001137666,True,7,-1,0,5
PB009K20,7,423,PS,exp,43,↓,down,↓,0.5700330999970902,True,7,1,1,6
PB009K20,7,424,PS,exp,28,←,no_key,no_letter,-1.0,False,6,-1,1,7
PB009K20,7,425,PS,exp,50,↓,down,↓,0.5624772000010125,True,7,-1,0,7
PB009K20,7,426,PS,exp,28,→,right,→,0.43477289998554625,True,7,1,1,8
PB009K20,7,427,PS,exp,28,↓,left,←,0.7979175000218675,False,6,-1,1,9
PB009K20,7,428,PS,exp,25,→,right,→,0.6089964999991935,True,7,-1,0,9
PB009K20,7,429,PS,exp,34,←,left,←,0.41462419999879785,True,7,1,1,10
PB009K20,7,430,PS,exp,29,→,right,→,0.4939758999971673,True,6,1,0,10
PB009K20,7,431,PS,exp,40,↑,left,←,0.792413499992108,False,6,-1,1,11
PB009K20,7,432,PS,exp,33,→,down,↓,0.7915073000185657,False,7,-1,0,11
PB009K20,7,433,PS,exp,27,↑,left,←,0.513111599982949,False,8,-1,0,11
PB009K20,7,434,PS,exp,34,←,right,→,0.654332300007809,False,9,-1,0,11
PB009K20,7,435,PS,exp,42,→,right,→,0.531809499982046,True,10,-1,0,11
PB009K20,7,436,PS,exp,40,↓,down,↓,0.632384299999103,True,10,1,1,12
PB009K20,7,437,PS,exp,41,→,right,→,0.4046538000111468,True,9,1,0,12
PB009K20,7,438,PS,exp,44,←,left,←,0.34039120000670664,True,9,1,0,12
PB009K20,7,439,PS,exp,50,→,left,←,0.6167693999886978,False,8,-1,1,13
PB009K20,7,440,PS,exp,50,←,left,←,0.5161984000005759,True,9,-1,0,13
PB009K20,7,441,PS,exp,43,↓,down,↓,0.621723899996141,True,9,1,1,14
PB009K20,8,442,AS,intra_train,46,→,right,→,0.6019287000235636,True,25,-,-,-
PB009K20,8,443,AS,intra_train,39,↑,up,↑,0.6538810000056401,True,25,-,-,-
PB009K20,8,444,AS,intra_train,33,←,left,←,0.6524665999750141,True,25,-,-,-
PB009K20,8,445,AS,intra_train,28,↑,up,↑,0.822766600002069,True,25,-,-,-
PB009K20,8,446,AS,intra_train,38,←,right,→,0.3846389999962412,False,25,-,-,-
PB009K20,8,447,AS,exp,40,→,up,↑,0.921508699975675,False,17,-1,0,0
PB009K20,8,448,AS,exp,32,↓,down,↓,0.7361425000126474,True,18,-1,0,0
PB009K20,8,449,AS,exp,29,←,left,←,0.5275216999871191,True,18,1,1,1
PB009K20,8,450,AS,exp,35,↑,up,↑,0.5202562999911606,True,17,1,0,1
PB009K20,8,451,AS,exp,32,↓,down,↓,0.7889448000059929,True,17,1,0,1
PB009K20,8,452,AS,exp,27,↑,up,↑,0.5764602000126615,True,16,1,0,1
PB009K20,8,453,AS,exp,28,←,left,←,0.5258096999896225,True,16,1,0,1
PB009K20,8,454,AS,exp,32,→,down,↓,0.724817999987863,False,15,-1,1,2
PB009K20,8,455,AS,exp,42,↓,left,←,0.8855391999823041,False,16,-1,0,2
PB009K20,8,456,AS,exp,27,↑,up,↑,0.5718912000011187,True,17,-1,0,2
PB009K20,8,457,AS,exp,25,↓,down,↓,0.5932539000059478,True,17,1,1,3
PB009K20,8,458,AS,exp,34,←,left,←,0.547104199999012,True,16,1,0,3
PB009K20,8,459,AS,exp,35,→,right,→,0.6831209000083618,True,16,1,0,3
PB009K20,8,460,AS,exp,35,↑,up,↑,0.4736659999762196,True,15,1,0,3
PB009K20,8,461,AS,exp,28,↓,down,↓,0.6426753999840003,True,15,1,0,3
PB009K20,8,462,AS,exp,40,↑,up,↑,0.4985443000041414,True,14,1,0,3
PB009K20,8,463,AS,exp,28,↓,down,↓,0.6544450999936089,True,14,1,0,3
PB009K20,8,464,AS,exp,27,→,right,→,0.5586855000001378,True,13,1,0,3
PB009K20,8,465,AS,exp,26,←,left,←,0.8294951999851037,True,13,1,0,3
PB009K20,8,466,AS,exp,27,→,right,→,0.7958467999997083,True,12,1,0,3
PB009K20,8,467,AS,exp,34,↓,down,↓,0.7105231999885291,True,12,1,0,3
PB009K20,8,468,AS,exp,38,↑,up,↑,0.5470744999765884,True,11,1,0,3
PB009K20,8,469,AS,exp,41,→,down,↓,0.6568436999805272,False,11,-1,1,4
PB009K20,8,470,AS,exp,26,←,left,←,0.5241045999864582,True,12,-1,0,4
PB009K20,8,471,AS,exp,28,↑,up,↑,0.5760451999958605,True,12,1,1,5
PB009K20,8,472,AS,exp,38,←,right,→,0.5956427999772131,False,11,-1,1,6
PB009K20,8,473,AS,exp,27,↑,down,↓,0.8015803000016604,False,12,-1,0,6
PB009K20,8,474,AS,exp,29,→,right,→,0.46150869998382404,True,13,-1,0,6
PB009K20,8,475,AS,exp,27,↓,down,↓,0.8164477999962401,True,13,1,1,7
PB009K20,8,476,AS,exp,38,→,right,→,0.421207899984438,True,12,1,0,7
PB009K20,8,477,AS,exp,46,←,left,←,0.6094727999879979,True,12,1,0,7
PB009K20,8,478,AS,exp,37,↓,down,↓,0.6411057999939658,True,11,1,0,7
PB009K20,8,479,AS,exp,34,↑,up,↑,0.5168809999886435,True,11,1,0,7
PB009K20,8,480,AS,exp,42,←,right,→,0.654652699973667,False,10,-1,1,8
PB009K20,8,481,AS,exp,32,→,right,→,0.6726921999943443,True,11,-1,0,8
PB009K20,8,482,AS,exp,36,↑,up,↑,0.5853268000064418,True,11,1,1,9
PB009K20,8,483,AS,exp,38,↓,down,↓,0.5044008999830112,True,10,1,0,9
PB009K20,8,484,AS,exp,38,←,right,→,0.4300970000040252,False,10,-1,1,10
PB009K20,8,485,AS,exp,31,↑,left,←,0.6174319999990985,False,11,-1,0,10
PB009K20,8,486,AS,exp,49,↓,down,↓,0.7441428000165615,True,12,-1,0,10
PB009K20,8,487,AS,exp,36,↑,up,↑,0.44259320001583546,True,12,1,1,11
PB009K20,8,488,AS,exp,41,↓,up,↑,0.7408285999845248,False,11,-1,1,12
PB009K20,8,489,AS,exp,49,→,left,←,0.5724536999769043,False,12,-1,0,12
PB009K20,8,490,AS,exp,46,↓,down,↓,0.5827963000047021,True,13,-1,0,12
PB009K20,8,491,AS,exp,36,→,right,→,0.4435728999960702,True,13,1,1,13
PB009K20,8,492,AS,exp,35,↑,down,↓,0.6417163000151049,False,12,-1,1,14
