PART_ID,Block_no,Trial_no,Block_type,Trial_type,CSI,Stim_letter,Key_pressed,letter_choose,Rt,Corr,Stimulus Time,Level,Reversal,Revs_count
PB005M20,1,1,PS,train,45,→,right,→,1.9100316999974893,True,30,-,-,-
PB005M20,1,2,PS,train,26,↑,up,↑,1.394486200006213,True,30,-,-,-
PB005M20,1,3,PS,train,28,→,right,→,1.05693639999663,True,30,-,-,-
PB005M20,1,4,PS,train,37,←,left,←,1.5638734999956796,True,30,-,-,-
PB005M20,1,5,PS,train,45,↑,up,↑,1.8122804000013275,True,30,-,-,-
PB005M20,1,6,PS,train,27,↓,down,↓,0.8229012000083458,True,30,-,-,-
PB005M20,1,7,PS,train,39,←,left,←,2.0407463000010466,True,30,-,-,-
PB005M20,1,8,PS,train,27,→,right,→,1.305627200010349,True,30,-,-,-
PB005M20,1,9,PS,train,40,↓,down,↓,1.282769899989944,True,30,-,-,-
PB005M20,1,10,PS,train,27,↑,up,↑,1.2909619999991264,True,30,-,-,-
PB005M20,2,11,AS,train,36,→,right,→,1.8953016000014031,True,45,-,-,-
PB005M20,2,12,AS,train,39,←,left,←,1.7884726000047522,True,45,-,-,-
PB005M20,2,13,AS,train,45,↑,up,↑,1.5864160000055563,True,45,-,-,-
PB005M20,2,14,AS,train,45,←,left,←,2.0387889000121504,True,45,-,-,-
PB005M20,2,15,AS,train,43,→,right,→,1.7188113000011072,True,45,-,-,-
PB005M20,2,16,AS,train,41,←,left,←,1.4547402000025613,True,45,-,-,-
PB005M20,2,17,AS,train,38,↑,up,↑,1.2747596999979578,True,45,-,-,-
PB005M20,2,18,AS,train,29,→,right,→,1.3007134000072256,True,45,-,-,-
PB005M20,2,19,AS,train,37,↑,up,↑,1.7699942000035662,True,45,-,-,-
PB005M20,2,20,AS,train,28,←,left,←,1.598776099999668,True,45,-,-,-
PB005M20,-,21,PS,adaptive,38,↓,no_key,no_letter,-1.0,False,10,-1,0,0
PB005M20,-,22,PS,adaptive,31,↑,up,↑,0.7052821999968728,True,11,-1,0,0
PB005M20,-,23,PS,adaptive,29,←,left,←,0.591075100004673,True,11,1,1,1
PB005M20,-,24,PS,adaptive,49,→,right,→,0.5132734999933746,True,10,1,0,1
PB005M20,-,25,PS,adaptive,36,↓,down,↓,0.7828882000030717,True,10,1,0,1
PB005M20,-,26,PS,adaptive,48,↑,up,↑,0.6702821999933803,True,9,1,0,1
PB005M20,-,27,PS,adaptive,34,←,left,←,0.7098659000039333,True,9,1,0,1
PB005M20,-,28,PS,adaptive,38,→,up,↑,0.7227131999970879,False,8,-1,1,2
PB005M20,-,29,PS,adaptive,27,↑,right,→,0.7352268000104232,False,9,-1,0,2
PB005M20,-,30,PS,adaptive,34,↓,down,↓,0.5924324999941746,True,10,-1,0,2
PB005M20,-,31,PS,adaptive,37,→,right,→,0.612234800006263,True,10,1,1,3
PB005M20,-,32,PS,adaptive,27,↑,up,↑,1.1609295000089332,True,9,1,0,3
PB005M20,-,33,PS,adaptive,31,→,right,→,0.8504451000044355,True,9,1,0,3
PB005M20,-,34,PS,adaptive,46,↓,down,↓,1.0583078999916324,True,8,1,0,3
PB005M20,-,35,PS,adaptive,45,→,right,→,0.5740914000052726,True,8,1,0,3
PB005M20,-,36,PS,adaptive,27,↑,right,→,0.7647443000023486,False,7,-1,1,4
PB005M20,-,37,AS,adaptive,43,←,left,←,1.3631504999939352,True,20,0,0,0
PB005M20,-,38,AS,adaptive,49,→,right,→,0.793032100002165,True,20,1,0,0
PB005M20,-,39,AS,adaptive,38,↑,up,↑,0.7027493000059621,True,19,1,0,0
PB005M20,-,40,AS,adaptive,37,→,right,→,0.6280255000019679,True,19,1,0,0
PB005M20,-,41,AS,adaptive,44,↑,up,↑,0.7202607999934116,True,18,1,0,0
PB005M20,-,42,AS,adaptive,50,↓,down,↓,1.2408715999918059,True,18,1,0,0
PB005M20,-,43,AS,adaptive,42,←,no_key,no_letter,-1.0,False,17,-1,1,1
PB005M20,-,44,AS,adaptive,43,↑,down,↓,0.7734830999979749,False,18,-1,0,1
PB005M20,-,45,AS,adaptive,26,←,right,→,0.6471932999993442,False,19,-1,0,1
PB005M20,-,46,AS,adaptive,41,↓,up,↑,0.7102090999978827,False,20,-1,0,1
PB005M20,-,47,AS,adaptive,37,→,right,→,0.7214247999945655,True,21,-1,0,1
PB005M20,-,48,AS,adaptive,44,↑,up,↑,0.7453791000007186,True,21,1,1,2
PB005M20,-,49,AS,adaptive,45,←,right,→,0.7645241999998689,False,20,-1,1,3
PB005M20,-,50,AS,adaptive,37,→,right,→,0.7068982999917353,True,21,-1,0,3
PB005M20,-,51,AS,adaptive,32,↓,left,←,1.3388159000023734,False,21,-1,0,3
PB005M20,-,52,AS,adaptive,25,↑,up,↑,0.8921798000083072,True,22,-1,0,3
PB005M20,-,53,AS,adaptive,46,↓,down,↓,0.6739460999961011,True,22,1,1,4
PB005M20,1,54,AS,intra_train,41,←,left,←,0.7088456000055885,True,31,-,-,-
PB005M20,1,55,AS,intra_train,32,→,right,→,0.633764300000621,True,31,-,-,-
PB005M20,1,56,AS,intra_train,42,←,left,←,0.9317748999892501,True,31,-,-,-
PB005M20,1,57,AS,intra_train,44,↓,down,↓,0.8651253999996698,True,31,-,-,-
PB005M20,1,58,AS,intra_train,39,←,left,←,0.8005596000002697,True,31,-,-,-
PB005M20,1,59,AS,exp,49,→,right,→,0.7718708999891533,True,21,0,0,0
PB005M20,1,60,AS,exp,28,←,left,←,0.9297084999998333,True,21,1,0,0
PB005M20,1,61,AS,exp,41,↓,down,↓,0.7446906999975909,True,20,1,0,0
PB005M20,1,62,AS,exp,26,→,right,→,0.7557527000026312,True,20,1,0,0
PB005M20,1,63,AS,exp,38,↓,right,→,1.1862409000023035,False,19,-1,1,1
PB005M20,1,64,AS,exp,42,←,left,←,0.7422271000104956,True,20,-1,0,1
PB005M20,1,65,AS,exp,46,↑,down,↓,0.5767407000093954,False,20,-1,0,1
PB005M20,1,66,AS,exp,45,→,right,→,0.7448855999973603,True,21,-1,0,1
PB005M20,1,67,AS,exp,50,←,left,←,0.7704538999969373,True,21,1,1,2
PB005M20,1,68,AS,exp,28,↑,down,↓,0.9405868999892846,False,20,-1,1,3
PB005M20,1,69,AS,exp,36,←,left,←,0.7561523000040324,True,21,-1,0,3
PB005M20,1,70,AS,exp,46,↓,down,↓,0.7586396999977296,True,21,1,1,4
PB005M20,1,71,AS,exp,28,↑,up,↑,0.8495356000057654,True,20,1,0,4
PB005M20,1,72,AS,exp,35,←,left,←,0.7954394999978831,True,20,1,0,4
PB005M20,1,73,AS,exp,45,↑,up,↑,0.9112709000037285,True,19,1,0,4
PB005M20,1,74,AS,exp,39,→,right,→,0.6551862000051187,True,19,1,0,4
PB005M20,1,75,AS,exp,46,←,left,←,0.6415782999974908,True,18,1,0,4
PB005M20,1,76,AS,exp,29,↑,left,←,1.0929241999983788,False,18,-1,1,5
PB005M20,1,77,AS,exp,48,↓,down,↓,0.7308834999857936,True,19,-1,0,5
PB005M20,1,78,AS,exp,48,←,left,←,0.604446099998313,True,19,1,1,6
PB005M20,1,79,AS,exp,30,→,right,→,0.7579284999956144,True,18,1,0,6
PB005M20,1,80,AS,exp,31,←,left,←,0.6110196000081487,True,18,1,0,6
PB005M20,1,81,AS,exp,25,→,right,→,0.6489351000054739,True,17,1,0,6
PB005M20,1,82,AS,exp,41,↓,down,↓,0.7005721000023186,True,17,1,0,6
PB005M20,1,83,AS,exp,35,↑,down,↓,0.7524291000008816,False,16,-1,1,7
PB005M20,1,84,AS,exp,32,←,left,←,0.6184349999966798,True,17,-1,0,7
PB005M20,1,85,AS,exp,25,↓,down,↓,0.6271184999932302,True,17,1,1,8
PB005M20,1,86,AS,exp,44,→,right,→,0.5675760000012815,True,16,1,0,8
PB005M20,1,87,AS,exp,47,↑,up,↑,1.169519400005811,True,16,1,0,8
PB005M20,1,88,AS,exp,44,←,left,←,0.6868041999987327,True,15,1,0,8
PB005M20,1,89,AS,exp,33,↑,up,↑,0.9034679000033066,True,15,1,0,8
PB005M20,1,90,AS,exp,50,→,right,→,0.5620515000045998,True,14,1,0,8
PB005M20,1,91,AS,exp,32,←,left,←,0.9626643999945372,True,14,1,0,8
PB005M20,1,92,AS,exp,27,→,right,→,0.6865525000030175,True,13,1,0,8
PB005M20,1,93,AS,exp,46,←,left,←,0.6192942999914521,True,13,1,0,8
PB005M20,1,94,AS,exp,46,↓,down,↓,0.7058034999936353,True,12,1,0,8
PB005M20,1,95,AS,exp,32,↑,up,↑,0.5738543000043137,True,12,1,0,8
PB005M20,1,96,AS,exp,38,↓,down,↓,0.6005800999992061,True,11,1,0,8
PB005M20,1,97,AS,exp,36,→,down,↓,0.9392320000042673,False,11,-1,1,9
PB005M20,1,98,AS,exp,39,←,left,←,0.473024400009308,True,12,-1,0,9
PB005M20,1,99,AS,exp,47,↓,right,→,0.9443305000022519,False,12,-1,0,9
PB005M20,1,100,AS,exp,36,→,right,→,0.5817702000058489,True,13,-1,0,9
PB005M20,1,101,AS,exp,28,↓,down,↓,1.0865342000033706,True,13,1,1,10
PB005M20,1,102,AS,exp,29,↑,right,→,0.9396102000027895,False,12,-1,1,11
PB005M20,1,103,AS,exp,42,→,right,→,0.5722227000078419,True,13,-1,0,11
PB005M20,1,104,AS,exp,36,↓,right,→,0.9364815000008093,False,13,-1,0,11
PB005M20,1,105,AS,exp,44,←,left,←,0.5091374999901745,True,14,-1,0,11
PB005M20,1,106,AS,exp,38,→,right,→,0.7488042999902973,True,14,1,1,12
PB005M20,1,107,AS,exp,32,↓,up,↑,0.9080549000063911,False,13,-1,1,13
PB005M20,1,108,AS,exp,27,→,right,→,0.45283150000614114,True,14,-1,0,13
PB005M20,1,109,AS,exp,31,↓,down,↓,0.5676049000030616,True,14,1,1,14
PB005M20,2,110,PS,intra_train,36,→,right,→,1.4539033000037307,True,12,-,-,-
PB005M20,2,111,PS,intra_train,36,↑,no_key,no_letter,-1.0,False,12,-,-,-
PB005M20,2,112,PS,intra_train,48,↓,down,↓,0.7532675999973435,True,12,-,-,-
PB005M20,2,113,PS,intra_train,41,↑,up,↑,0.5871488000120735,True,12,-,-,-
PB005M20,2,114,PS,intra_train,44,←,left,←,0.5510447999986354,True,12,-,-,-
PB005M20,2,115,PS,exp,50,↑,up,↑,0.8327934000117239,True,8,0,0,0
PB005M20,2,116,PS,exp,25,→,down,↓,1.2503550999972504,False,8,-1,0,0
PB005M20,2,117,PS,exp,50,←,left,←,1.1490029000124196,True,9,-1,0,0
PB005M20,2,118,PS,exp,32,→,right,→,0.4680905999994138,True,9,1,1,1
PB005M20,2,119,PS,exp,27,↓,down,↓,0.9194885000033537,True,8,1,0,1
PB005M20,2,120,PS,exp,34,↑,up,↑,0.4539828999986639,True,8,1,0,1
PB005M20,2,121,PS,exp,31,←,left,←,0.6415046000038274,True,7,1,0,1
PB005M20,2,122,PS,exp,43,↓,down,↓,0.8916982999944594,True,7,1,0,1
PB005M20,2,123,PS,exp,28,↑,left,←,0.6174459999892861,False,6,-1,1,2
PB005M20,2,124,PS,exp,36,↓,left,←,0.7574841999885393,False,7,-1,0,2
PB005M20,2,125,PS,exp,33,←,right,→,0.6557659000100102,False,8,-1,0,2
PB005M20,2,126,PS,exp,29,→,right,→,0.6120561999996426,True,9,-1,0,2
PB005M20,2,127,PS,exp,26,←,left,←,0.985082400002284,True,9,1,1,3
PB005M20,2,128,PS,exp,44,→,right,→,0.4879908000002615,True,8,1,0,3
PB005M20,2,129,PS,exp,48,↓,down,↓,0.5476021000067703,True,8,1,0,3
PB005M20,2,130,PS,exp,32,↑,down,↓,0.8047299000027124,False,7,-1,1,4
PB005M20,2,131,PS,exp,37,→,right,→,0.5301961999939522,True,8,-1,0,4
PB005M20,2,132,PS,exp,26,↑,up,↑,0.7246835000114515,True,8,1,1,5
PB005M20,2,133,PS,exp,44,→,right,→,0.6078590999968583,True,7,1,0,5
PB005M20,2,134,PS,exp,33,↓,down,↓,0.5138841000007233,True,7,1,0,5
PB005M20,2,135,PS,exp,40,↑,down,↓,0.6909745000011753,False,6,-1,1,6
PB005M20,2,136,PS,exp,38,→,right,→,0.4737775999965379,True,7,-1,0,6
PB005M20,2,137,PS,exp,29,←,up,↑,0.7817134999932023,False,7,-1,0,6
PB005M20,2,138,PS,exp,25,↑,up,↑,1.3189478999993298,True,8,-1,0,6
PB005M20,2,139,PS,exp,36,↓,down,↓,0.8025191000051564,True,8,1,1,7
PB005M20,2,140,PS,exp,50,↑,right,→,0.7363838000019314,False,7,-1,1,8
PB005M20,2,141,PS,exp,41,→,left,←,0.628582200006349,False,8,-1,0,8
PB005M20,2,142,PS,exp,35,↓,down,↓,0.5572345999971731,True,9,-1,0,8
PB005M20,2,143,PS,exp,35,↑,down,↓,0.7290379999903962,False,9,-1,0,8
PB005M20,2,144,PS,exp,36,↓,down,↓,0.5018619000038598,True,10,-1,0,8
PB005M20,2,145,PS,exp,45,↑,up,↑,0.5031210000015562,True,10,1,1,9
PB005M20,2,146,PS,exp,31,↓,left,←,1.0845145999919623,False,9,-1,1,10
PB005M20,2,147,PS,exp,38,↑,up,↑,0.4590269000036642,True,10,-1,0,10
PB005M20,2,148,PS,exp,41,↓,left,←,0.8208051999972668,False,10,-1,0,10
PB005M20,2,149,PS,exp,37,→,right,→,0.5100009000016144,True,11,-1,0,10
PB005M20,2,150,PS,exp,25,↓,down,↓,0.5403243999899132,True,11,1,1,11
PB005M20,2,151,PS,exp,47,↑,down,↓,0.6415615000005346,False,10,-1,1,12
PB005M20,2,152,PS,exp,30,→,right,→,0.7073966999887489,True,11,-1,0,12
PB005M20,2,153,PS,exp,35,↑,up,↑,0.4553193000028841,True,11,1,1,13
PB005M20,2,154,PS,exp,46,→,left,←,1.7804731999931391,False,10,-1,1,14
PB005M20,3,155,PS,intra_train,40,←,left,←,1.2800521000026492,True,12,-,-,-
PB005M20,3,156,PS,intra_train,29,↑,up,↑,0.4876065999997081,True,12,-,-,-
PB005M20,3,157,PS,intra_train,29,←,left,←,0.44637560000410303,True,12,-,-,-
PB005M20,3,158,PS,intra_train,26,↑,up,↑,0.4575123000104213,True,12,-,-,-
PB005M20,3,159,PS,intra_train,31,←,left,←,0.4761572999996133,True,12,-,-,-
PB005M20,3,160,PS,exp,33,↓,left,←,1.0034583999949973,False,8,-1,0,0
PB005M20,3,161,PS,exp,38,←,left,←,0.4540294000034919,True,9,-1,0,0
PB005M20,3,162,PS,exp,43,↑,up,↑,0.4607221999904141,True,9,1,1,1
PB005M20,3,163,PS,exp,36,↓,down,↓,0.7083904999890365,True,8,1,0,1
PB005M20,3,164,PS,exp,27,→,right,→,0.5086414999968838,True,8,1,0,1
PB005M20,3,165,PS,exp,36,↓,up,↑,0.8089700999989873,False,7,-1,1,2
PB005M20,3,166,PS,exp,43,→,left,←,0.9014845000056084,False,8,-1,0,2
PB005M20,3,167,PS,exp,43,↑,left,←,0.6804320999945048,False,9,-1,0,2
PB005M20,3,168,PS,exp,46,↓,down,↓,0.5687822999898344,True,10,-1,0,2
PB005M20,3,169,PS,exp,26,↑,up,↑,0.5549813999969047,True,10,1,1,3
PB005M20,3,170,PS,exp,38,←,left,←,0.42273869999917224,True,9,1,0,3
PB005M20,3,171,PS,exp,37,↓,down,↓,0.5907207999989623,True,9,1,0,3
PB005M20,3,172,PS,exp,45,→,right,→,0.9384231000003638,True,8,1,0,3
PB005M20,3,173,PS,exp,41,←,left,←,0.43538249999983236,True,8,1,0,3
PB005M20,3,174,PS,exp,30,↓,left,←,0.8237404999963474,False,7,-1,1,4
PB005M20,3,175,PS,exp,33,←,left,←,0.43404899998859037,True,8,-1,0,4
PB005M20,3,176,PS,exp,43,→,right,→,0.44004600000334904,True,8,1,1,5
PB005M20,3,177,PS,exp,28,↓,down,↓,0.5607384000031743,True,7,1,0,5
PB005M20,3,178,PS,exp,30,←,left,←,0.3936772999877576,True,7,1,0,5
PB005M20,3,179,PS,exp,49,→,right,→,0.760081899992656,True,6,1,0,5
PB005M20,3,180,PS,exp,29,↑,down,↓,0.7895229999994626,False,6,-1,1,6
PB005M20,3,181,PS,exp,48,→,left,←,0.8370150999980979,False,7,-1,0,6
PB005M20,3,182,PS,exp,42,←,down,↓,0.7296555000066292,False,8,-1,0,6
PB005M20,3,183,PS,exp,49,→,right,→,0.4930019000021275,True,9,-1,0,6
PB005M20,3,184,PS,exp,31,↓,left,←,0.8610839000029955,False,9,-1,0,6
PB005M20,3,185,PS,exp,50,↑,up,↑,0.517965400009416,True,10,-1,0,6
PB005M20,3,186,PS,exp,28,→,right,→,0.6379937000019709,True,10,1,1,7
PB005M20,3,187,PS,exp,35,↓,down,↓,0.5284543000016129,True,9,1,0,7
PB005M20,3,188,PS,exp,28,→,right,→,0.4238484000088647,True,9,1,0,7
PB005M20,3,189,PS,exp,47,↑,up,↑,0.47362479999719653,True,8,1,0,7
PB005M20,3,190,PS,exp,31,←,left,←,0.4844052999978885,True,8,1,0,7
PB005M20,3,191,PS,exp,33,→,right,→,0.46578080000472255,True,7,1,0,7
PB005M20,3,192,PS,exp,50,←,right,→,0.6920147000055294,False,7,-1,1,8
PB005M20,3,193,PS,exp,45,↑,up,↑,0.5490224999957718,True,8,-1,0,8
PB005M20,3,194,PS,exp,31,↓,right,→,0.8745810000109486,False,8,-1,0,8
PB005M20,3,195,PS,exp,44,↑,down,↓,0.7284723999910057,False,9,-1,0,8
PB005M20,3,196,PS,exp,46,↓,down,↓,0.49617939999734517,True,10,-1,0,8
PB005M20,3,197,PS,exp,45,→,right,→,0.519570799995563,True,10,1,1,9
PB005M20,3,198,PS,exp,47,↓,right,→,1.1151604000042425,False,9,-1,1,10
PB005M20,3,199,PS,exp,40,→,right,→,0.5476217999967048,True,10,-1,0,10
PB005M20,3,200,PS,exp,27,↓,down,↓,0.46959249999781605,True,10,1,1,11
PB005M20,3,201,PS,exp,42,↑,down,↓,0.7805720999895129,False,9,-1,1,12
PB005M20,3,202,PS,exp,27,←,left,←,0.47404530001222156,True,10,-1,0,12
PB005M20,3,203,PS,exp,30,→,right,→,0.43914000000222586,True,10,1,1,13
PB005M20,3,204,PS,exp,33,↓,right,→,0.8577832000009948,False,9,-1,1,14
PB005M20,4,205,AS,intra_train,31,→,right,→,1.378286899998784,True,31,-,-,-
PB005M20,4,206,AS,intra_train,45,↓,down,↓,0.795345400008955,True,31,-,-,-
PB005M20,4,207,AS,intra_train,47,←,left,←,0.46781400000327267,True,31,-,-,-
PB005M20,4,208,AS,intra_train,50,↑,up,↑,0.7188707999885082,True,31,-,-,-
PB005M20,4,209,AS,intra_train,36,↓,down,↓,0.5337563000066439,True,31,-,-,-
PB005M20,4,210,AS,exp,38,←,right,→,1.1739621000015177,False,21,-1,0,0
PB005M20,4,211,AS,exp,30,↑,up,↑,1.1129552999918815,True,22,-1,0,0
PB005M20,4,212,AS,exp,36,→,right,→,0.7259640000120271,True,22,1,1,1
PB005M20,4,213,AS,exp,31,↓,up,↑,0.8637919000029797,False,21,-1,1,2
PB005M20,4,214,AS,exp,40,←,left,←,0.7226549000042723,True,22,-1,0,2
PB005M20,4,215,AS,exp,43,↑,up,↑,0.45050480001373217,True,22,1,1,3
PB005M20,4,216,AS,exp,46,←,left,←,0.45043760001135524,True,21,1,0,3
PB005M20,4,217,AS,exp,41,↑,up,↑,0.433768400005647,True,21,1,0,3
PB005M20,4,218,AS,exp,43,↓,down,↓,0.801624300002004,True,20,1,0,3
PB005M20,4,219,AS,exp,36,↑,right,→,0.881888899995829,False,20,-1,1,4
PB005M20,4,220,AS,exp,44,↓,down,↓,0.8372426999994786,True,21,-1,0,4
PB005M20,4,221,AS,exp,25,←,left,←,0.591409400003613,True,21,1,1,5
PB005M20,4,222,AS,exp,30,→,right,→,1.768566800004919,True,20,1,0,5
PB005M20,4,223,AS,exp,46,↓,up,↑,0.874951300007524,False,20,-1,1,6
PB005M20,4,224,AS,exp,42,←,left,←,0.7280853999982355,True,21,-1,0,6
PB005M20,4,225,AS,exp,33,↑,up,↑,0.40045650000683963,True,21,1,1,7
PB005M20,4,226,AS,exp,42,→,right,→,0.46716869999363553,True,20,1,0,7
PB005M20,4,227,AS,exp,35,↑,up,↑,0.36708480000379495,True,20,1,0,7
PB005M20,4,228,AS,exp,25,←,left,←,0.6606452999985777,True,19,1,0,7
PB005M20,4,229,AS,exp,50,↑,up,↑,0.38356060000660364,True,19,1,0,7
PB005M20,4,230,AS,exp,42,←,left,←,0.6478358000022126,True,18,1,0,7
PB005M20,4,231,AS,exp,44,→,right,→,0.485721699995338,True,18,1,0,7
PB005M20,4,232,AS,exp,45,↓,up,↑,0.5925201999925775,False,17,-1,1,8
PB005M20,4,233,AS,exp,28,↑,left,←,0.968091300004744,False,18,-1,0,8
PB005M20,4,234,AS,exp,34,↓,down,↓,0.5380282999976771,True,19,-1,0,8
PB005M20,4,235,AS,exp,31,←,left,←,0.5270006000064313,True,19,1,1,9
PB005M20,4,236,AS,exp,43,↓,down,↓,0.5161438000068301,True,18,1,0,9
PB005M20,4,237,AS,exp,50,→,right,→,0.3840000000054715,True,18,1,0,9
PB005M20,4,238,AS,exp,40,↑,up,↑,0.4003078999958234,True,17,1,0,9
PB005M20,4,239,AS,exp,43,↓,down,↓,0.7965400999964913,True,17,1,0,9
PB005M20,4,240,AS,exp,37,↑,up,↑,0.6401710000063758,True,16,1,0,9
PB005M20,4,241,AS,exp,38,←,left,←,0.38370750000467524,True,16,1,0,9
PB005M20,4,242,AS,exp,49,↓,down,↓,0.5402384000044549,True,15,1,0,9
PB005M20,4,243,AS,exp,37,↑,up,↑,0.44848340000316966,True,15,1,0,9
PB005M20,4,244,AS,exp,48,←,left,←,0.8864194999914616,True,14,1,0,9
PB005M20,4,245,AS,exp,29,→,right,→,0.683643900003517,True,14,1,0,9
PB005M20,4,246,AS,exp,26,↑,up,↑,0.41953849999117665,True,13,1,0,9
PB005M20,4,247,AS,exp,27,→,left,←,0.7438359999941895,False,13,-1,1,10
PB005M20,4,248,AS,exp,32,←,left,←,0.4777944999950705,True,14,-1,0,10
PB005M20,4,249,AS,exp,37,→,right,→,0.5802937999978894,True,14,1,1,11
PB005M20,4,250,AS,exp,35,←,left,←,1.1464497999986634,True,13,1,0,11
PB005M20,4,251,AS,exp,25,↑,up,↑,0.5393464000080712,True,13,1,0,11
PB005M20,4,252,AS,exp,38,←,left,←,0.4211522999976296,True,12,1,0,11
PB005M20,4,253,AS,exp,30,↓,down,↓,0.7296163999999408,True,12,1,0,11
PB005M20,4,254,AS,exp,30,←,left,←,0.3982743000087794,True,11,1,0,11
PB005M20,4,255,AS,exp,44,↑,up,↑,0.4323223999963375,True,11,1,0,11
PB005M20,4,256,AS,exp,30,→,right,→,0.4626523999904748,True,10,1,0,11
PB005M20,4,257,AS,exp,40,↑,up,↑,0.424661199998809,True,10,1,0,11
PB005M20,4,258,AS,exp,42,↓,down,↓,1.0157489000121132,True,9,1,0,11
PB005M20,4,259,AS,exp,39,←,right,→,0.7970592000056058,False,9,-1,1,12
PB005M20,4,260,AS,exp,49,↓,left,←,0.7321628999925451,False,10,-1,0,12
PB005M20,4,261,AS,exp,30,←,right,→,0.8747683999972651,False,11,-1,0,12
PB005M20,4,262,AS,exp,42,→,right,→,0.4510309000033885,True,12,-1,0,12
PB005M20,4,263,AS,exp,50,↓,left,←,0.6373610000009649,False,12,-1,0,12
PB005M20,4,264,AS,exp,33,←,left,←,0.740018800002872,True,13,-1,0,12
PB005M20,4,265,AS,exp,40,↓,up,↑,0.672929699998349,False,13,-1,0,12
PB005M20,4,266,AS,exp,40,←,left,←,0.4585000999941258,True,14,-1,0,12
PB005M20,4,267,AS,exp,45,↑,up,↑,0.41408999999111984,True,14,1,1,13
PB005M20,4,268,AS,exp,49,↓,right,→,0.8609070000093197,False,13,-1,1,14
PB005M20,5,269,AS,intra_train,32,←,left,←,0.6003746999922441,True,31,-,-,-
PB005M20,5,270,AS,intra_train,40,↑,up,↑,1.6924245999980485,True,31,-,-,-
PB005M20,5,271,AS,intra_train,37,←,left,←,0.5684626000002027,True,31,-,-,-
PB005M20,5,272,AS,intra_train,25,↓,down,↓,0.8208016999997199,True,31,-,-,-
PB005M20,5,273,AS,intra_train,34,←,left,←,0.5504106000007596,True,31,-,-,-
PB005M20,5,274,AS,exp,26,↑,up,↑,0.517455199995311,True,21,0,0,0
PB005M20,5,275,AS,exp,50,↓,down,↓,0.6891294999950333,True,21,1,0,0
PB005M20,5,276,AS,exp,37,→,right,→,0.5754497000016272,True,20,1,0,0
PB005M20,5,277,AS,exp,29,↑,up,↑,0.5780216999992263,True,20,1,0,0
PB005M20,5,278,AS,exp,35,→,right,→,0.41711080000095535,True,19,1,0,0
PB005M20,5,279,AS,exp,35,↑,up,↑,0.38386410000384785,True,19,1,0,0
PB005M20,5,280,AS,exp,47,→,right,→,0.6475497000064934,True,18,1,0,0
PB005M20,5,281,AS,exp,45,↑,up,↑,0.3837961999961408,True,18,1,0,0
PB005M20,5,282,AS,exp,48,↓,down,↓,0.5780715000000782,True,17,1,0,0
PB005M20,5,283,AS,exp,28,←,left,←,0.49513859998842236,True,17,1,0,0
PB005M20,5,284,AS,exp,50,→,right,→,0.9374818999931449,True,16,1,0,0
PB005M20,5,285,AS,exp,48,←,right,→,0.969497300000512,False,16,-1,1,1
PB005M20,5,286,AS,exp,29,↑,left,←,0.6978309999976773,False,17,-1,0,1
PB005M20,5,287,AS,exp,43,←,left,←,1.3995256999915,True,18,-1,0,1
PB005M20,5,288,AS,exp,45,↓,down,↓,0.5306803999992553,True,18,1,1,2
PB005M20,5,289,AS,exp,34,←,right,→,0.6227241000015056,False,17,-1,1,3
PB005M20,5,290,AS,exp,48,↑,up,↑,0.4709842000011122,True,18,-1,0,3
PB005M20,5,291,AS,exp,35,→,right,→,0.6423089000018081,True,18,1,1,4
PB005M20,5,292,AS,exp,28,↑,up,↑,0.3837526999996044,True,17,1,0,4
PB005M20,5,293,AS,exp,26,↓,left,←,0.9888218999985838,False,17,-1,1,5
PB005M20,5,294,AS,exp,41,↑,up,↑,0.6419663999986369,True,18,-1,0,5
PB005M20,5,295,AS,exp,33,→,right,→,0.40045800000370946,True,18,1,1,6
PB005M20,5,296,AS,exp,43,↑,up,↑,0.41708999998809304,True,17,1,0,6
PB005M20,5,297,AS,exp,45,↓,left,←,0.8857978000014555,False,17,-1,1,7
PB005M20,5,298,AS,exp,26,↑,left,←,1.2765958999953,False,18,-1,0,7
PB005M20,5,299,AS,exp,36,←,left,←,0.43377759998838883,True,19,-1,0,7
PB005M20,5,300,AS,exp,34,↓,down,↓,0.5675407999951858,True,19,1,1,8
PB005M20,5,301,AS,exp,35,→,right,→,0.6833156000066083,True,18,1,0,8
PB005M20,5,302,AS,exp,28,↓,up,↑,0.6174964999954682,False,18,-1,1,9
PB005M20,5,303,AS,exp,29,→,right,→,1.2010407999914605,True,19,-1,0,9
PB005M20,5,304,AS,exp,40,←,left,←,0.6388564000080805,True,19,1,1,10
PB005M20,5,305,AS,exp,45,→,right,→,0.4170118000038201,True,18,1,0,10
PB005M20,5,306,AS,exp,46,↑,up,↑,0.43371709999337327,True,18,1,0,10
PB005M20,5,307,AS,exp,32,←,right,→,0.677431100004469,False,17,-1,1,11
PB005M20,5,308,AS,exp,43,↓,down,↓,0.5244816000049468,True,18,-1,0,11
PB005M20,5,309,AS,exp,30,→,right,→,0.5998048999899765,True,18,1,1,12
PB005M20,5,310,AS,exp,34,↓,up,↑,0.620448400004534,False,17,-1,1,13
PB005M20,5,311,AS,exp,41,←,right,→,0.7741284999938216,False,18,-1,0,13
PB005M20,5,312,AS,exp,48,↑,up,↑,0.4337560999993002,True,19,-1,0,13
PB005M20,5,313,AS,exp,49,→,right,→,0.3671385000052396,True,19,1,1,14
PB005M20,6,314,PS,intra_train,38,←,left,←,1.3842415999970399,True,12,-,-,-
PB005M20,6,315,PS,intra_train,43,↓,down,↓,0.6336154000018723,True,12,-,-,-
PB005M20,6,316,PS,intra_train,28,←,right,→,0.5895660000096541,False,12,-,-,-
PB005M20,6,317,PS,intra_train,45,→,right,→,0.5687630999891553,True,12,-,-,-
PB005M20,6,318,PS,intra_train,27,↑,up,↑,0.45632820000173524,True,12,-,-,-
PB005M20,6,319,PS,exp,37,↓,left,←,0.7749761000013677,False,8,-1,0,0
PB005M20,6,320,PS,exp,48,↑,down,↓,0.7816986999969231,False,9,-1,0,0
PB005M20,6,321,PS,exp,40,↓,right,→,0.7067324999952689,False,10,-1,0,0
PB005M20,6,322,PS,exp,44,→,right,→,0.5692077999992762,True,11,-1,0,0
PB005M20,6,323,PS,exp,41,↓,left,←,0.8505287000007229,False,11,-1,0,0
PB005M20,6,324,PS,exp,34,→,right,→,0.43880249999347143,True,12,-1,0,0
PB005M20,6,325,PS,exp,36,↑,up,↑,0.5172259999962989,True,12,1,1,1
PB005M20,6,326,PS,exp,36,↓,down,↓,0.5155415999906836,True,11,1,0,1
PB005M20,6,327,PS,exp,49,←,left,←,0.400410300004296,True,11,1,0,1
PB005M20,6,328,PS,exp,36,↓,down,↓,0.5129703999991762,True,10,1,0,1
PB005M20,6,329,PS,exp,35,→,right,→,0.3906600000045728,True,10,1,0,1
PB005M20,6,330,PS,exp,47,←,right,→,0.7428905999986455,False,9,-1,1,2
PB005M20,6,331,PS,exp,47,↑,down,↓,1.0319750000053318,False,10,-1,0,2
PB005M20,6,332,PS,exp,33,→,right,→,0.4232522000093013,True,11,-1,0,2
PB005M20,6,333,PS,exp,46,↓,down,↓,0.48413430000073276,True,11,1,1,3
PB005M20,6,334,PS,exp,35,←,left,←,0.49099700000078883,True,10,1,0,3
PB005M20,6,335,PS,exp,31,↓,down,↓,0.5995243999932427,True,10,1,0,3
PB005M20,6,336,PS,exp,38,←,left,←,0.3929247999913059,True,9,1,0,3
PB005M20,6,337,PS,exp,49,→,right,→,0.41480319999391213,True,9,1,0,3
PB005M20,6,338,PS,exp,41,↓,down,↓,0.9112531999999192,True,8,1,0,3
PB005M20,6,339,PS,exp,31,←,left,←,0.6275278999964939,True,8,1,0,3
PB005M20,6,340,PS,exp,32,↑,down,↓,0.7431604000012157,False,7,-1,1,4
PB005M20,6,341,PS,exp,48,↓,down,↓,0.8467622999887681,True,8,-1,0,4
PB005M20,6,342,PS,exp,41,←,left,←,0.41872200000216253,True,8,1,1,5
PB005M20,6,343,PS,exp,49,→,right,→,0.6095632999931695,True,7,1,0,5
PB005M20,6,344,PS,exp,31,↑,right,→,0.5355076000123518,False,7,-1,1,6
PB005M20,6,345,PS,exp,44,↓,down,↓,0.8363798999926075,True,8,-1,0,6
PB005M20,6,346,PS,exp,37,→,right,→,0.49966040000435896,True,8,1,1,7
PB005M20,6,347,PS,exp,36,←,left,←,0.5330493000074057,True,7,1,0,7
PB005M20,6,348,PS,exp,45,→,down,↓,0.8565944000001764,False,7,-1,1,8
PB005M20,6,349,PS,exp,27,←,left,←,0.4343007999996189,True,8,-1,0,8
PB005M20,6,350,PS,exp,31,↓,down,↓,0.5418765999929747,True,8,1,1,9
PB005M20,6,351,PS,exp,35,→,left,←,0.6858809999976074,False,7,-1,1,10
PB005M20,6,352,PS,exp,34,↑,down,↓,0.6107126999995671,False,8,-1,0,10
PB005M20,6,353,PS,exp,25,↓,down,↓,0.3884784999972908,True,9,-1,0,10
PB005M20,6,354,PS,exp,33,←,left,←,0.6583556999976281,True,9,1,1,11
PB005M20,6,355,PS,exp,46,↓,left,←,0.7772931999934372,False,8,-1,1,12
PB005M20,6,356,PS,exp,41,↑,up,↑,0.4844327000027988,True,9,-1,0,12
PB005M20,6,357,PS,exp,27,←,left,←,0.46327360000577755,True,9,1,1,13
PB005M20,6,358,PS,exp,43,↓,down,↓,0.5945999000105076,True,8,1,0,13
PB005M20,6,359,PS,exp,28,→,down,↓,0.7022201999934623,False,8,-1,1,14
PB005M20,7,360,PS,intra_train,29,↑,left,←,1.109715700004017,False,12,-,-,-
PB005M20,7,361,PS,intra_train,39,←,left,←,0.4617725000134669,True,12,-,-,-
PB005M20,7,362,PS,intra_train,34,→,left,←,0.7499575999972876,False,12,-,-,-
PB005M20,7,363,PS,intra_train,44,↑,down,↓,0.7754280000081053,False,12,-,-,-
PB005M20,7,364,PS,intra_train,41,→,left,←,0.7181012999935774,False,12,-,-,-
PB005M20,7,365,PS,exp,26,↑,up,↑,0.533667499999865,True,8,0,0,0
PB005M20,7,366,PS,exp,35,←,down,↓,0.8040292999939993,False,8,-1,0,0
PB005M20,7,367,PS,exp,34,↓,down,↓,0.49368450000474695,True,9,-1,0,0
PB005M20,7,368,PS,exp,41,↑,left,←,0.6609916000015801,False,9,-1,0,0
PB005M20,7,369,PS,exp,48,←,left,←,0.4006622000015341,True,10,-1,0,0
PB005M20,7,370,PS,exp,27,↓,down,↓,0.4814961999945808,True,10,1,1,1
PB005M20,7,371,PS,exp,28,←,left,←,0.4153355000016745,True,9,1,0,1
PB005M20,7,372,PS,exp,46,→,right,→,0.42537959999754094,True,9,1,0,1
PB005M20,7,373,PS,exp,41,↑,up,↑,0.4268484000058379,True,8,1,0,1
PB005M20,7,374,PS,exp,33,↓,down,↓,0.5317883999960031,True,8,1,0,1
PB005M20,7,375,PS,exp,48,↑,up,↑,0.4548973999917507,True,7,1,0,1
PB005M20,7,376,PS,exp,31,↓,right,→,0.6369234999874607,False,7,-1,1,2
PB005M20,7,377,PS,exp,42,←,left,←,0.38824949999980163,True,8,-1,0,2
PB005M20,7,378,PS,exp,30,↓,down,↓,0.6959077000065008,True,8,1,1,3
PB005M20,7,379,PS,exp,26,←,left,←,0.37155059998622164,True,7,1,0,3
PB005M20,7,380,PS,exp,49,↓,down,↓,0.4579271999973571,True,7,1,0,3
PB005M20,7,381,PS,exp,47,→,right,→,0.564281500002835,True,6,1,0,3
PB005M20,7,382,PS,exp,27,←,left,←,0.39223859999037813,True,6,1,0,3
PB005M20,7,383,PS,exp,35,→,right,→,0.8167238000023644,True,5,1,0,3
PB005M20,7,384,PS,exp,39,←,right,→,0.7720773000037298,False,5,-1,1,4
PB005M20,7,385,PS,exp,37,→,right,→,0.4139400999993086,True,6,-1,0,4
PB005M20,7,386,PS,exp,42,↓,down,↓,0.4688503000070341,True,6,1,1,5
PB005M20,7,387,PS,exp,39,→,right,→,1.191867600005935,True,5,1,0,5
PB005M20,7,388,PS,exp,38,←,right,→,0.9795808000053512,False,5,-1,1,6
PB005M20,7,389,PS,exp,31,→,right,→,0.46400190000713337,True,6,-1,0,6
PB005M20,7,390,PS,exp,29,↓,left,←,0.7008394000004046,False,6,-1,0,6
PB005M20,7,391,PS,exp,44,→,right,→,0.45620070000586566,True,7,-1,0,6
PB005M20,7,392,PS,exp,32,↓,right,→,0.5546456000010949,False,7,-1,0,6
PB005M20,7,393,PS,exp,48,↑,up,↑,0.4605850000079954,True,8,-1,0,6
PB005M20,7,394,PS,exp,41,←,left,←,0.4821851000015158,True,8,1,1,7
PB005M20,7,395,PS,exp,34,→,right,→,0.42857469999580644,True,7,1,0,7
PB005M20,7,396,PS,exp,44,↓,right,→,0.8501544000027934,False,7,-1,1,8
PB005M20,7,397,PS,exp,40,↑,up,↑,0.41357520000019576,True,8,-1,0,8
PB005M20,7,398,PS,exp,33,→,right,→,0.4412865999911446,True,8,1,1,9
PB005M20,7,399,PS,exp,50,↑,up,↑,0.3917122999991989,True,7,1,0,9
PB005M20,7,400,PS,exp,38,↓,down,↓,0.6313018999935593,True,7,1,0,9
PB005M20,7,401,PS,exp,47,←,down,↓,0.9491008000040893,False,6,-1,1,10
PB005M20,7,402,PS,exp,47,↑,up,↑,0.4934541000111494,True,7,-1,0,10
PB005M20,7,403,PS,exp,38,→,right,→,0.417811300008907,True,7,1,1,11
PB005M20,7,404,PS,exp,35,↑,right,→,0.5233224999974482,False,6,-1,1,12
PB005M20,7,405,PS,exp,48,←,left,←,0.43520569999236614,True,7,-1,0,12
PB005M20,7,406,PS,exp,28,↓,right,→,0.4615496000042185,False,7,-1,0,12
PB005M20,7,407,PS,exp,43,→,right,→,0.48381060000974685,True,8,-1,0,12
PB005M20,7,408,PS,exp,45,↓,right,→,1.4879260000016075,False,8,-1,0,12
PB005M20,7,409,PS,exp,41,→,right,→,0.7199378000077559,True,9,-1,0,12
PB005M20,7,410,PS,exp,31,↓,down,↓,0.4885275999986334,True,9,1,1,13
PB005M20,7,411,PS,exp,26,↑,left,←,1.012050300007104,False,8,-1,1,14
PB005M20,8,412,AS,intra_train,29,→,right,→,1.3710183999937726,True,31,-,-,-
PB005M20,8,413,AS,intra_train,39,↑,up,↑,0.6970861000008881,True,31,-,-,-
PB005M20,8,414,AS,intra_train,26,↓,down,↓,0.6170934999972815,True,31,-,-,-
PB005M20,8,415,AS,intra_train,32,→,right,→,0.5505802999978187,True,31,-,-,-
PB005M20,8,416,AS,intra_train,28,↑,up,↑,0.53380790000665,True,31,-,-,-
PB005M20,8,417,AS,exp,43,←,left,←,0.5322491999977501,True,21,0,0,0
PB005M20,8,418,AS,exp,47,↑,right,→,0.40040919999592006,False,21,-1,0,0
PB005M20,8,419,AS,exp,39,↓,down,↓,0.65178190000006,True,22,-1,0,0
PB005M20,8,420,AS,exp,41,←,left,←,0.5737853000027826,True,22,1,1,1
PB005M20,8,421,AS,exp,26,→,right,→,0.6389621999987867,True,21,1,0,1
PB005M20,8,422,AS,exp,43,↓,down,↓,0.8200188000046182,True,21,1,0,1
PB005M20,8,423,AS,exp,50,←,right,→,0.5638275999954203,False,20,-1,1,2
PB005M20,8,424,AS,exp,28,↓,down,↓,0.7549751000042306,True,21,-1,0,2
PB005M20,8,425,AS,exp,38,↑,up,↑,1.4734133000019938,True,21,1,1,3
PB005M20,8,426,AS,exp,29,↓,down,↓,0.6920397000067169,True,20,1,0,3
PB005M20,8,427,AS,exp,40,↑,up,↑,0.6721246999950381,True,20,1,0,3
PB005M20,8,428,AS,exp,31,←,left,←,0.7581613999936963,True,19,1,0,3
PB005M20,8,429,AS,exp,40,↓,down,↓,0.7901601000048686,True,19,1,0,3
PB005M20,8,430,AS,exp,30,→,right,→,0.4693656000017654,True,18,1,0,3
PB005M20,8,431,AS,exp,27,↓,down,↓,0.7586021999886725,True,18,1,0,3
PB005M20,8,432,AS,exp,35,←,left,←,0.4170950999978231,True,17,1,0,3
PB005M20,8,433,AS,exp,27,→,left,←,0.5190222000092035,False,17,-1,1,4
PB005M20,8,434,AS,exp,41,↑,up,↑,0.5757412999955704,True,18,-1,0,4
PB005M20,8,435,AS,exp,31,↓,down,↓,0.6877727999963099,True,18,1,1,5
PB005M20,8,436,AS,exp,48,←,left,←,0.6938572000071872,True,17,1,0,5
PB005M20,8,437,AS,exp,46,→,right,→,0.6424381000106223,True,17,1,0,5
PB005M20,8,438,AS,exp,26,↑,up,↑,0.5485594000056153,True,16,1,0,5
PB005M20,8,439,AS,exp,31,→,right,→,0.5038705000042683,True,16,1,0,5
PB005M20,8,440,AS,exp,31,←,right,→,1.0339428999868687,False,15,-1,1,6
PB005M20,8,441,AS,exp,47,→,right,→,0.6068176999979187,True,16,-1,0,6
PB005M20,8,442,AS,exp,32,↑,up,↑,0.5084163999999873,True,16,1,1,7
PB005M20,8,443,AS,exp,44,→,right,→,0.5497376999992412,True,15,1,0,7
PB005M20,8,444,AS,exp,50,↓,right,→,0.8255822000064654,False,15,-1,1,8
PB005M20,8,445,AS,exp,27,→,right,→,0.5784708999999566,True,16,-1,0,8
PB005M20,8,446,AS,exp,41,←,right,→,0.7533290999999736,False,16,-1,0,8
PB005M20,8,447,AS,exp,29,↓,down,↓,0.6938649000076111,True,17,-1,0,8
PB005M20,8,448,AS,exp,48,←,left,←,1.1575115000014193,True,17,1,1,9
PB005M20,8,449,AS,exp,46,↑,up,↑,0.4381314999918686,True,16,1,0,9
PB005M20,8,450,AS,exp,47,↓,down,↓,0.5655819999956293,True,16,1,0,9
PB005M20,8,451,AS,exp,40,→,right,→,0.680938999998034,True,15,1,0,9
PB005M20,8,452,AS,exp,45,←,left,←,0.5725727999961236,True,15,1,0,9
PB005M20,8,453,AS,exp,37,→,left,←,0.7651337999996031,False,14,-1,1,10
PB005M20,8,454,AS,exp,47,←,right,→,0.7094567000021925,False,15,-1,0,10
PB005M20,8,455,AS,exp,49,↓,down,↓,0.539553300011903,True,16,-1,0,10
PB005M20,8,456,AS,exp,48,↑,up,↑,0.4838617999921553,True,16,1,1,11
PB005M20,8,457,AS,exp,37,←,left,←,0.7965378999942914,True,15,1,0,11
PB005M20,8,458,AS,exp,32,→,left,←,0.6008793000073638,False,15,-1,1,12
PB005M20,8,459,AS,exp,45,↑,left,←,0.6804625000077067,False,16,-1,0,12
PB005M20,8,460,AS,exp,28,↓,up,↑,0.8732942000060575,False,17,-1,0,12
PB005M20,8,461,AS,exp,50,↑,up,↑,0.4819487999920966,True,18,-1,0,12
PB005M20,8,462,AS,exp,29,→,right,→,0.6420553999923868,True,18,1,1,13
PB005M20,8,463,AS,exp,35,↑,down,↓,0.8316144999989774,False,17,-1,1,14
