PART_ID,Block_no,Trial_no,Block_type,Trial_type,CSI,Stim_letter,Key_pressed,letter_choose,Rt,Corr,Stimulus Time,Level,Reversal,Revs_count
PB006K19,1,1,PS,train,49,→,no_key,no_letter,-1.0,False,30,-,-,-
PB006K19,1,2,PS,train,29,↑,up,↑,0.5338304999895627,True,30,-,-,-
PB006K19,1,3,PS,train,27,→,up,↑,1.2760910999932094,False,30,-,-,-
PB006K19,1,4,PS,train,28,←,left,←,0.765538599996944,True,30,-,-,-
PB006K19,1,5,PS,train,39,↑,up,↑,0.8006375999975717,True,30,-,-,-
PB006K19,1,6,PS,train,34,←,left,←,0.7473465000075521,True,30,-,-,-
PB006K19,1,7,PS,train,32,→,right,→,0.9090672000020277,True,30,-,-,-
PB006K19,1,8,PS,train,30,↓,down,↓,0.8185988000041107,True,30,-,-,-
PB006K19,1,9,PS,train,39,→,right,→,0.7337301000079606,True,30,-,-,-
PB006K19,1,10,PS,train,30,↓,down,↓,0.8683011999964947,True,30,-,-,-
PB006K19,2,11,AS,train,39,→,right,→,1.0006210999999894,True,45,-,-,-
PB006K19,2,12,AS,train,32,↓,down,↓,1.0271480999945197,True,45,-,-,-
PB006K19,2,13,AS,train,30,←,left,←,1.01146740000695,True,45,-,-,-
PB006K19,2,14,AS,train,50,↑,up,↑,1.0911845000082394,True,45,-,-,-
PB006K19,2,15,AS,train,46,←,left,←,0.9378127999952994,True,45,-,-,-
PB006K19,2,16,AS,train,48,↑,up,↑,1.9729776999884052,True,45,-,-,-
PB006K19,2,17,AS,train,44,↓,down,↓,1.0326563999988139,True,45,-,-,-
PB006K19,2,18,AS,train,45,↑,up,↑,1.0668701999966288,True,45,-,-,-
PB006K19,2,19,AS,train,25,→,right,→,0.9630557999917073,True,45,-,-,-
PB006K19,2,20,AS,train,44,←,left,←,1.0111464000074193,True,45,-,-,-
PB006K19,-,21,PS,adaptive,28,→,right,→,0.9666388000041479,True,10,0,0,0
PB006K19,-,22,PS,adaptive,47,↓,down,↓,0.6410543999954825,True,10,1,0,0
PB006K19,-,23,PS,adaptive,30,→,down,↓,0.7454598000040278,False,9,-1,1,1
PB006K19,-,24,PS,adaptive,48,↓,down,↓,0.5408367999916663,True,10,-1,0,1
PB006K19,-,25,PS,adaptive,40,←,left,←,0.6326455000089481,True,10,1,1,2
PB006K19,-,26,PS,adaptive,36,↑,up,↑,0.5551654000009876,True,9,1,0,2
PB006K19,-,27,PS,adaptive,43,↓,down,↓,0.6457338999898639,True,9,1,0,2
PB006K19,-,28,PS,adaptive,42,→,down,↓,0.5507693999970797,False,8,-1,1,3
PB006K19,-,29,PS,adaptive,40,←,left,←,0.5820514000079129,True,9,-1,0,3
PB006K19,-,30,PS,adaptive,44,↓,down,↓,0.5261685000004945,True,9,1,1,4
PB006K19,-,31,AS,adaptive,43,←,left,←,0.5500848999945447,True,20,0,0,0
PB006K19,-,32,AS,adaptive,37,↑,down,↓,1.1690314000006765,False,20,-1,0,0
PB006K19,-,33,AS,adaptive,27,→,right,→,0.7942219999968074,True,21,-1,0,0
PB006K19,-,34,AS,adaptive,25,↓,down,↓,0.8938173000060488,True,21,1,1,1
PB006K19,-,35,AS,adaptive,32,↑,up,↑,0.7017753000109224,True,20,1,0,1
PB006K19,-,36,AS,adaptive,41,→,up,↑,0.9684113999974215,False,20,-1,1,2
PB006K19,-,37,AS,adaptive,37,↓,down,↓,0.778660600000876,True,21,-1,0,2
PB006K19,-,38,AS,adaptive,39,←,left,←,0.7293544999993173,True,21,1,1,3
PB006K19,-,39,AS,adaptive,30,↓,down,↓,0.7025636000034865,True,20,1,0,3
PB006K19,-,40,AS,adaptive,49,↑,left,←,1.1568058999982895,False,20,-1,1,4
PB006K19,1,41,AS,intra_train,50,←,left,←,0.6170437000109814,True,31,-,-,-
PB006K19,1,42,AS,intra_train,25,↑,up,↑,0.7784210999961942,True,31,-,-,-
PB006K19,1,43,AS,intra_train,40,↓,down,↓,0.8810253000119701,True,31,-,-,-
PB006K19,1,44,AS,intra_train,40,←,left,←,1.36682500000461,True,31,-,-,-
PB006K19,1,45,AS,intra_train,41,→,right,→,0.7559918000042671,True,31,-,-,-
PB006K19,1,46,AS,exp,48,↑,up,↑,0.7727497000014409,True,21,0,0,0
PB006K19,1,47,AS,exp,43,↓,down,↓,0.7926799999986542,True,21,1,0,0
PB006K19,1,48,AS,exp,50,→,left,←,1.200981199988746,False,20,-1,1,1
PB006K19,1,49,AS,exp,40,←,left,←,1.6063558000023477,True,21,-1,0,1
PB006K19,1,50,AS,exp,44,↑,down,↓,0.7582954000099562,False,21,-1,0,1
PB006K19,1,51,AS,exp,31,→,right,→,0.7427204999985406,True,22,-1,0,1
PB006K19,1,52,AS,exp,34,←,left,←,0.7739510999963386,True,22,1,1,2
PB006K19,1,53,AS,exp,43,→,right,→,0.6567915000050562,True,21,1,0,2
PB006K19,1,54,AS,exp,33,↓,down,↓,0.6501907000056235,True,21,1,0,2
PB006K19,1,55,AS,exp,37,→,right,→,0.5032248000061372,True,20,1,0,2
PB006K19,1,56,AS,exp,35,←,left,←,0.685244899999816,True,20,1,0,2
PB006K19,1,57,AS,exp,26,↑,up,↑,0.8169441000063671,True,19,1,0,2
PB006K19,1,58,AS,exp,49,←,left,←,0.592038999995566,True,19,1,0,2
PB006K19,1,59,AS,exp,26,↑,up,↑,0.8500865000096383,True,18,1,0,2
PB006K19,1,60,AS,exp,43,→,right,→,0.5059595999919111,True,18,1,0,2
PB006K19,1,61,AS,exp,49,↑,up,↑,0.6655729999911273,True,17,1,0,2
PB006K19,1,62,AS,exp,38,←,left,←,0.4776637000031769,True,17,1,0,2
PB006K19,1,63,AS,exp,45,→,right,→,0.7450857999938307,True,16,1,0,2
PB006K19,1,64,AS,exp,43,↓,down,↓,0.670381300005829,True,16,1,0,2
PB006K19,1,65,AS,exp,45,↑,down,↓,0.6961679000087315,False,15,-1,1,3
PB006K19,1,66,AS,exp,25,←,left,←,0.5428951999929268,True,16,-1,0,3
PB006K19,1,67,AS,exp,46,→,down,↓,0.7195473999890964,False,16,-1,0,3
PB006K19,1,68,AS,exp,36,↓,no_key,no_letter,-1.0,False,17,-1,0,3
PB006K19,1,69,AS,exp,33,←,left,←,0.48373890000220854,True,18,-1,0,3
PB006K19,1,70,AS,exp,35,↓,left,←,0.7486017000046559,False,18,-1,0,3
PB006K19,1,71,AS,exp,39,↑,up,↑,0.6285366000083741,True,19,-1,0,3
PB006K19,1,72,AS,exp,35,↓,down,↓,0.6329922000004444,True,19,1,1,4
PB006K19,1,73,AS,exp,45,→,right,→,0.43379740000818856,True,18,1,0,4
PB006K19,1,74,AS,exp,37,↓,down,↓,0.5073548999935156,True,18,1,0,4
PB006K19,1,75,AS,exp,38,↑,down,↓,0.8252951000031317,False,17,-1,1,5
PB006K19,1,76,AS,exp,25,↓,down,↓,1.3029311999998754,True,18,-1,0,5
PB006K19,1,77,AS,exp,29,→,down,↓,0.9183618999959435,False,18,-1,0,5
PB006K19,1,78,AS,exp,28,←,left,←,0.7016023000032874,True,19,-1,0,5
PB006K19,1,79,AS,exp,26,→,left,←,1.1449420999997528,False,19,-1,0,5
PB006K19,1,80,AS,exp,31,↑,down,↓,0.820179599992116,False,20,-1,0,5
PB006K19,1,81,AS,exp,34,↓,down,↓,0.7137632000085432,True,21,-1,0,5
PB006K19,1,82,AS,exp,39,←,left,←,0.46724470000481233,True,21,1,1,6
PB006K19,1,83,AS,exp,46,→,left,←,0.853813399997307,False,20,-1,1,7
PB006K19,1,84,AS,exp,27,↓,down,↓,0.6363870000059251,True,21,-1,0,7
PB006K19,1,85,AS,exp,28,↑,up,↑,0.7722021999943536,True,21,1,1,8
PB006K19,1,86,AS,exp,35,←,left,←,0.6634079999930691,True,20,1,0,8
PB006K19,1,87,AS,exp,37,↑,up,↑,0.7162351000006311,True,20,1,0,8
PB006K19,1,88,AS,exp,40,→,right,→,0.7776378999988083,True,19,1,0,8
PB006K19,1,89,AS,exp,47,←,left,←,1.4097441000049002,True,19,1,0,8
PB006K19,1,90,AS,exp,41,↓,down,↓,0.7098377999936929,True,18,1,0,8
PB006K19,1,91,AS,exp,41,→,left,←,0.9257405000098515,False,18,-1,1,9
PB006K19,1,92,AS,exp,41,↑,left,←,0.9796615000086604,False,19,-1,0,9
PB006K19,1,93,AS,exp,26,←,left,←,0.5976042000111192,True,20,-1,0,9
PB006K19,1,94,AS,exp,32,↓,down,↓,0.6969310000131372,True,20,1,1,10
PB006K19,1,95,AS,exp,44,←,no_key,no_letter,-1.0,False,19,-1,1,11
PB006K19,1,96,AS,exp,39,→,down,↓,0.727934099995764,False,20,-1,0,11
PB006K19,1,97,AS,exp,37,↑,up,↑,0.7759931000036886,True,21,-1,0,11
PB006K19,1,98,AS,exp,42,↓,down,↓,0.7654556999914348,True,21,1,1,12
PB006K19,1,99,AS,exp,30,→,right,→,0.6223743000009563,True,20,1,0,12
PB006K19,1,100,AS,exp,31,↓,down,↓,0.6840956999949412,True,20,1,0,12
PB006K19,1,101,AS,exp,26,→,right,→,0.5424799999891547,True,19,1,0,12
PB006K19,1,102,AS,exp,43,↑,down,↓,0.6793055000016466,False,19,-1,1,13
PB006K19,1,103,AS,exp,28,←,left,←,0.5036624000058509,True,20,-1,0,13
PB006K19,1,104,AS,exp,34,→,left,←,0.7802359999914188,False,20,-1,0,13
PB006K19,1,105,AS,exp,34,↓,down,↓,0.6105660000030184,True,21,-1,0,13
PB006K19,1,106,AS,exp,30,←,left,←,0.6776480999978958,True,21,1,1,14
PB006K19,2,107,PS,intra_train,26,↓,down,↓,0.7234696999948937,True,12,-,-,-
PB006K19,2,108,PS,intra_train,48,←,left,←,0.604380000004312,True,12,-,-,-
PB006K19,2,109,PS,intra_train,48,↑,up,↑,0.5879588999960106,True,12,-,-,-
PB006K19,2,110,PS,intra_train,30,↓,down,↓,0.5184305000002496,True,12,-,-,-
PB006K19,2,111,PS,intra_train,29,←,left,←,0.4292375999939395,True,12,-,-,-
PB006K19,2,112,PS,exp,33,↑,up,↑,0.5883586999989348,True,8,0,0,0
PB006K19,2,113,PS,exp,27,→,left,←,1.0731610999937402,False,8,-1,0,0
PB006K19,2,114,PS,exp,37,↓,down,↓,0.5251514999981737,True,9,-1,0,0
PB006K19,2,115,PS,exp,27,←,down,↓,0.41268870000203606,False,9,-1,0,0
PB006K19,2,116,PS,exp,33,↓,left,←,0.799505400005728,False,10,-1,0,0
PB006K19,2,117,PS,exp,46,→,left,←,1.315728899993701,False,11,-1,0,0
PB006K19,2,118,PS,exp,33,←,left,←,0.4542636999976821,True,12,-1,0,0
PB006K19,2,119,PS,exp,40,↓,down,↓,0.5375754000124289,True,12,1,1,1
PB006K19,2,120,PS,exp,38,←,left,←,0.44804990000557154,True,11,1,0,1
PB006K19,2,121,PS,exp,42,↓,down,↓,1.1258454000053462,True,11,1,0,1
PB006K19,2,122,PS,exp,36,↑,up,↑,0.6122209000022849,True,10,1,0,1
PB006K19,2,123,PS,exp,44,→,up,↑,1.0884117000096012,False,10,-1,1,2
PB006K19,2,124,PS,exp,38,↓,left,←,0.7244859999918845,False,11,-1,0,2
PB006K19,2,125,PS,exp,37,→,right,→,1.09083400000236,True,12,-1,0,2
PB006K19,2,126,PS,exp,29,↓,down,↓,0.785651099999086,True,12,1,1,3
PB006K19,2,127,PS,exp,43,→,right,→,0.6300515000039013,True,11,1,0,3
PB006K19,2,128,PS,exp,28,↑,up,↑,0.5944462000043131,True,11,1,0,3
PB006K19,2,129,PS,exp,47,↓,left,←,1.158584399992833,False,10,-1,1,4
PB006K19,2,130,PS,exp,26,←,up,↑,1.0125659000041196,False,11,-1,0,4
PB006K19,2,131,PS,exp,33,→,right,→,0.5800593000021763,True,12,-1,0,4
PB006K19,2,132,PS,exp,43,←,left,←,0.4574030999938259,True,12,1,1,5
PB006K19,2,133,PS,exp,28,→,right,→,1.01365620001161,True,11,1,0,5
PB006K19,2,134,PS,exp,44,↑,up,↑,0.49403000000165775,True,11,1,0,5
PB006K19,2,135,PS,exp,30,←,left,←,0.44007750001037493,True,10,1,0,5
PB006K19,2,136,PS,exp,41,↑,up,↑,0.5843236000073375,True,10,1,0,5
PB006K19,2,137,PS,exp,50,→,right,→,0.6791882999968948,True,9,1,0,5
PB006K19,2,138,PS,exp,37,↑,up,↑,0.5088876000081655,True,9,1,0,5
PB006K19,2,139,PS,exp,26,←,left,←,0.4308294000074966,True,8,1,0,5
PB006K19,2,140,PS,exp,31,↑,right,→,0.997174600008293,False,8,-1,1,6
PB006K19,2,141,PS,exp,30,→,left,←,0.9869991000014124,False,9,-1,0,6
PB006K19,2,142,PS,exp,31,←,left,←,0.4386814999888884,True,10,-1,0,6
PB006K19,2,143,PS,exp,39,↓,left,←,0.6298723999934737,False,10,-1,0,6
PB006K19,2,144,PS,exp,45,↑,down,↓,0.8018865000049118,False,11,-1,0,6
PB006K19,2,145,PS,exp,45,→,down,↓,0.7131522999989102,False,12,-1,0,6
PB006K19,2,146,PS,exp,34,↑,left,←,0.6924618000048213,False,13,-1,0,6
PB006K19,2,147,PS,exp,27,→,right,→,0.9346284000057494,True,14,-1,0,6
PB006K19,2,148,PS,exp,41,↑,up,↑,0.6982131999975536,True,14,1,1,7
PB006K19,2,149,PS,exp,43,→,up,↑,0.8767493999912404,False,13,-1,1,8
PB006K19,2,150,PS,exp,48,←,up,↑,0.8526251000002958,False,14,-1,0,8
PB006K19,2,151,PS,exp,27,↑,up,↑,0.6952132000005804,True,15,-1,0,8
PB006K19,2,152,PS,exp,35,←,left,←,0.45855340000707656,True,15,1,1,9
PB006K19,2,153,PS,exp,47,→,right,→,0.5346416999964276,True,14,1,0,9
PB006K19,2,154,PS,exp,30,↑,up,↑,0.4569808000087505,True,14,1,0,9
PB006K19,2,155,PS,exp,35,↓,down,↓,0.6723165000003064,True,13,1,0,9
PB006K19,2,156,PS,exp,36,→,right,→,0.4638672000000952,True,13,1,0,9
PB006K19,2,157,PS,exp,49,↓,down,↓,0.4521453999914229,True,12,1,0,9
PB006K19,2,158,PS,exp,44,→,left,←,1.4831053000089014,False,12,-1,1,10
PB006K19,2,159,PS,exp,36,↑,down,↓,0.7707281000039075,False,13,-1,0,10
PB006K19,2,160,PS,exp,25,→,right,→,1.5094854000053601,True,14,-1,0,10
PB006K19,2,161,PS,exp,33,←,left,←,0.4039907999977004,True,14,1,1,11
PB006K19,2,162,PS,exp,29,↓,down,↓,0.6123757000023033,True,13,1,0,11
PB006K19,2,163,PS,exp,26,↑,up,↑,0.6527031000005081,True,13,1,0,11
PB006K19,2,164,PS,exp,36,↓,down,↓,0.4608863999892492,True,12,1,0,11
PB006K19,2,165,PS,exp,29,←,left,←,0.590023900003871,True,12,1,0,11
PB006K19,2,166,PS,exp,42,↓,down,↓,0.6250882000022102,True,11,1,0,11
PB006K19,2,167,PS,exp,27,→,left,←,0.5632118999928934,False,11,-1,1,12
PB006K19,2,168,PS,exp,31,↑,up,↑,1.0465649999969173,True,12,-1,0,12
PB006K19,2,169,PS,exp,38,→,right,→,0.6293174999882467,True,12,1,1,13
PB006K19,2,170,PS,exp,35,↓,left,←,0.7550733999960357,False,11,-1,1,14
PB006K19,3,171,PS,intra_train,41,↑,up,↑,0.8368995000055293,True,12,-,-,-
PB006K19,3,172,PS,intra_train,45,↓,down,↓,0.5435340999974869,True,12,-,-,-
PB006K19,3,173,PS,intra_train,47,→,down,↓,0.7892484999902081,False,12,-,-,-
PB006K19,3,174,PS,intra_train,36,←,left,←,0.43027230000006966,True,12,-,-,-
PB006K19,3,175,PS,intra_train,39,→,left,←,0.8124547000043094,False,12,-,-,-
PB006K19,3,176,PS,exp,43,↓,down,↓,0.513865100001567,True,8,0,0,0
PB006K19,3,177,PS,exp,25,→,right,→,0.5362520999915432,True,8,1,0,0
PB006K19,3,178,PS,exp,36,↑,down,↓,0.7545551000075648,False,7,-1,1,1
PB006K19,3,179,PS,exp,42,↓,down,↓,0.4317406999907689,True,8,-1,0,1
PB006K19,3,180,PS,exp,32,←,left,←,0.7157813999947393,True,8,1,1,2
PB006K19,3,181,PS,exp,42,→,left,←,0.8710620000056224,False,7,-1,1,3
PB006K19,3,182,PS,exp,36,↑,up,↑,0.590993999998318,True,8,-1,0,3
PB006K19,3,183,PS,exp,34,↓,down,↓,0.5984384999901522,True,8,1,1,4
PB006K19,3,184,PS,exp,29,↑,down,↓,0.6115821000130381,False,7,-1,1,5
PB006K19,3,185,PS,exp,30,↓,down,↓,0.4468961000093259,True,8,-1,0,5
PB006K19,3,186,PS,exp,27,→,down,↓,0.9375412999943364,False,8,-1,0,5
PB006K19,3,187,PS,exp,26,↑,right,→,0.9303394000016851,False,9,-1,0,5
PB006K19,3,188,PS,exp,43,→,left,←,1.1352842000051169,False,10,-1,0,5
PB006K19,3,189,PS,exp,29,←,left,←,0.48190459999023005,True,11,-1,0,5
PB006K19,3,190,PS,exp,38,→,left,←,0.7067071000055876,False,11,-1,0,5
PB006K19,3,191,PS,exp,50,↑,up,↑,0.6277406000008341,True,12,-1,0,5
PB006K19,3,192,PS,exp,36,→,right,→,0.5959140999912051,True,12,1,1,6
PB006K19,3,193,PS,exp,40,←,left,←,0.4009366000100272,True,11,1,0,6
PB006K19,3,194,PS,exp,41,↓,down,↓,0.4507978000037838,True,11,1,0,6
PB006K19,3,195,PS,exp,43,←,left,←,0.41701400000602007,True,10,1,0,6
PB006K19,3,196,PS,exp,26,→,right,→,0.4698699000000488,True,10,1,0,6
PB006K19,3,197,PS,exp,47,←,down,↓,0.785389299999224,False,9,-1,1,7
PB006K19,3,198,PS,exp,31,→,right,→,0.5404030000063358,True,10,-1,0,7
PB006K19,3,199,PS,exp,25,↓,down,↓,0.517953700007638,True,10,1,1,8
PB006K19,3,200,PS,exp,33,→,left,←,0.8102884000109043,False,9,-1,1,9
PB006K19,3,201,PS,exp,25,↑,down,↓,0.8118754000024637,False,10,-1,0,9
PB006K19,3,202,PS,exp,37,→,right,→,0.7909695999987889,True,11,-1,0,9
PB006K19,3,203,PS,exp,31,←,left,←,0.5062159999943106,True,11,1,1,10
PB006K19,3,204,PS,exp,47,↑,left,←,0.9934596000093734,False,10,-1,1,11
PB006K19,3,205,PS,exp,46,←,left,←,0.5569359999935841,True,11,-1,0,11
PB006K19,3,206,PS,exp,50,↑,down,↓,0.7682179999974323,False,11,-1,0,11
PB006K19,3,207,PS,exp,50,→,right,→,0.5075125000003027,True,12,-1,0,11
PB006K19,3,208,PS,exp,25,↓,down,↓,0.44540470000356436,True,12,1,1,12
PB006K19,3,209,PS,exp,25,↑,up,↑,0.5581282999919495,True,11,1,0,12
PB006K19,3,210,PS,exp,39,→,right,→,0.42927429999690503,True,11,1,0,12
PB006K19,3,211,PS,exp,41,←,left,←,0.4529517000046326,True,10,1,0,12
PB006K19,3,212,PS,exp,31,↓,down,↓,0.4015891000017291,True,10,1,0,12
PB006K19,3,213,PS,exp,40,←,left,←,0.454734400002053,True,9,1,0,12
PB006K19,3,214,PS,exp,35,→,right,→,0.4615155999927083,True,9,1,0,12
PB006K19,3,215,PS,exp,43,←,left,←,0.44969349999155384,True,8,1,0,12
PB006K19,3,216,PS,exp,43,→,right,→,0.46504700000514276,True,8,1,0,12
PB006K19,3,217,PS,exp,42,←,left,←,0.4895388000004459,True,7,1,0,12
PB006K19,3,218,PS,exp,50,→,left,←,0.736634500004584,False,7,-1,1,13
PB006K19,3,219,PS,exp,45,←,left,←,0.5872769999987213,True,8,-1,0,13
PB006K19,3,220,PS,exp,37,→,right,→,0.49046570000064094,True,8,1,1,14
PB006K19,4,221,AS,intra_train,42,←,left,←,1.3795565000036731,True,31,-,-,-
PB006K19,4,222,AS,intra_train,32,↓,down,↓,0.6001892000058433,True,31,-,-,-
PB006K19,4,223,AS,intra_train,38,←,left,←,0.6503820000070846,True,31,-,-,-
PB006K19,4,224,AS,intra_train,28,↑,up,↑,1.0022391000093194,True,31,-,-,-
PB006K19,4,225,AS,intra_train,26,←,left,←,0.7673981999978423,True,31,-,-,-
PB006K19,4,226,AS,exp,38,↓,down,↓,0.635750100002042,True,21,0,0,0
PB006K19,4,227,AS,exp,31,→,right,→,0.8113293999922462,True,21,1,0,0
PB006K19,4,228,AS,exp,39,←,no_key,no_letter,-1.0,False,20,-1,1,1
PB006K19,4,229,AS,exp,36,↑,left,←,0.43388759999652393,False,21,-1,0,1
PB006K19,4,230,AS,exp,40,→,right,→,0.7292829000070924,True,22,-1,0,1
PB006K19,4,231,AS,exp,42,↑,down,↓,0.8873624000116251,False,22,-1,0,1
PB006K19,4,232,AS,exp,49,→,right,→,0.5170800999912899,True,23,-1,0,1
PB006K19,4,233,AS,exp,35,↓,down,↓,0.6994131999963429,True,23,1,1,2
PB006K19,4,234,AS,exp,26,←,left,←,0.6438330999953905,True,22,1,0,2
PB006K19,4,235,AS,exp,31,→,right,→,0.6556314000044949,True,22,1,0,2
PB006K19,4,236,AS,exp,35,←,left,←,0.621096499991836,True,21,1,0,2
PB006K19,4,237,AS,exp,43,↑,up,↑,0.7626748000038788,True,21,1,0,2
PB006K19,4,238,AS,exp,46,→,right,→,0.6711227999912808,True,20,1,0,2
PB006K19,4,239,AS,exp,44,↑,up,↑,0.5559705999912694,True,20,1,0,2
PB006K19,4,240,AS,exp,42,→,left,←,0.9714720000047237,False,19,-1,1,3
PB006K19,4,241,AS,exp,36,↑,up,↑,0.7136227000009967,True,20,-1,0,3
PB006K19,4,242,AS,exp,41,→,right,→,0.6704443000053288,True,20,1,1,4
PB006K19,4,243,AS,exp,50,←,left,←,0.568375399991055,True,19,1,0,4
PB006K19,4,244,AS,exp,40,→,right,→,0.4504997000040021,True,19,1,0,4
PB006K19,4,245,AS,exp,25,↓,down,↓,1.7035724999877857,True,18,1,0,4
PB006K19,4,246,AS,exp,48,↑,up,↑,0.6823951999976998,True,18,1,0,4
PB006K19,4,247,AS,exp,34,←,left,←,0.6486918000009609,True,17,1,0,4
PB006K19,4,248,AS,exp,32,↓,down,↓,0.8497207000036724,True,17,1,0,4
PB006K19,4,249,AS,exp,39,←,left,←,0.597268500001519,True,16,1,0,4
PB006K19,4,250,AS,exp,41,↑,down,↓,0.9072197999921627,False,16,-1,1,5
PB006K19,4,251,AS,exp,39,←,left,←,0.5973607000050833,True,17,-1,0,5
PB006K19,4,252,AS,exp,40,→,right,→,0.4996081999997841,True,17,1,1,6
PB006K19,4,253,AS,exp,31,↑,down,↓,0.7169792000058806,False,16,-1,1,7
PB006K19,4,254,AS,exp,32,→,right,→,0.5725858000078006,True,17,-1,0,7
PB006K19,4,255,AS,exp,27,↑,up,↑,0.9437404000054812,True,17,1,1,8
PB006K19,4,256,AS,exp,35,→,down,↓,0.9766505000006873,False,16,-1,1,9
PB006K19,4,257,AS,exp,38,←,left,←,0.6065572999941651,True,17,-1,0,9
PB006K19,4,258,AS,exp,48,→,down,↓,0.9028716000029817,False,17,-1,0,9
PB006K19,4,259,AS,exp,44,←,left,←,0.7029688999900827,True,18,-1,0,9
PB006K19,4,260,AS,exp,26,↑,down,↓,0.768438499988406,False,18,-1,0,9
PB006K19,4,261,AS,exp,33,↓,down,↓,0.5814959999988787,True,19,-1,0,9
PB006K19,4,262,AS,exp,36,←,left,←,0.5383358999970369,True,19,1,1,10
PB006K19,4,263,AS,exp,30,↓,down,↓,0.5903547999914736,True,18,1,0,10
PB006K19,4,264,AS,exp,26,↑,down,↓,0.7709196000068914,False,18,-1,1,11
PB006K19,4,265,AS,exp,35,←,left,←,0.6553783000126714,True,19,-1,0,11
PB006K19,4,266,AS,exp,36,↑,up,↑,0.8524660000111908,True,19,1,1,12
PB006K19,4,267,AS,exp,33,↓,down,↓,0.7438268999976572,True,18,1,0,12
PB006K19,4,268,AS,exp,32,↑,down,↓,0.7655010000016773,False,18,-1,1,13
PB006K19,4,269,AS,exp,43,↓,down,↓,0.6676275999925565,True,19,-1,0,13
PB006K19,4,270,AS,exp,50,↑,up,↑,0.6938034000049811,True,19,1,1,14
PB006K19,5,271,AS,intra_train,48,↓,down,↓,0.7209317999950144,True,31,-,-,-
PB006K19,5,272,AS,intra_train,33,←,left,←,0.7169280999951297,True,31,-,-,-
PB006K19,5,273,AS,intra_train,49,↓,down,↓,0.5673238000017591,True,31,-,-,-
PB006K19,5,274,AS,intra_train,34,←,left,←,0.6337391999986721,True,31,-,-,-
PB006K19,5,275,AS,intra_train,38,→,right,→,0.6170660999923712,True,31,-,-,-
PB006K19,5,276,AS,exp,41,↓,down,↓,0.6200799999933224,True,21,0,0,0
PB006K19,5,277,AS,exp,30,→,right,→,0.6440145000087796,True,21,1,0,0
PB006K19,5,278,AS,exp,41,←,left,←,0.6914605999918422,True,20,1,0,0
PB006K19,5,279,AS,exp,42,→,right,→,0.539162100001704,True,20,1,0,0
PB006K19,5,280,AS,exp,30,↓,no_key,no_letter,-1.0,False,19,-1,1,1
PB006K19,5,281,AS,exp,44,←,left,←,0.8552052000013646,True,20,-1,0,1
PB006K19,5,282,AS,exp,30,↓,down,↓,0.5968428000051063,True,20,1,1,2
PB006K19,5,283,AS,exp,29,←,left,←,0.6900145999970846,True,19,1,0,2
PB006K19,5,284,AS,exp,34,↑,left,←,0.9254261000023689,False,19,-1,1,3
PB006K19,5,285,AS,exp,41,↓,down,↓,0.5467531000031158,True,20,-1,0,3
PB006K19,5,286,AS,exp,47,↑,down,↓,0.5101130999973975,False,20,-1,0,3
PB006K19,5,287,AS,exp,39,←,left,←,0.7211671999975806,True,21,-1,0,3
PB006K19,5,288,AS,exp,50,↓,left,←,1.1974954999896,False,21,-1,0,3
PB006K19,5,289,AS,exp,34,→,right,→,0.7105407000053674,True,22,-1,0,3
PB006K19,5,290,AS,exp,48,↑,up,↑,0.5841159999981755,True,22,1,1,4
PB006K19,5,291,AS,exp,26,→,left,←,0.8496425000048475,False,21,-1,1,5
PB006K19,5,292,AS,exp,39,↑,up,↑,0.7209426999907009,True,22,-1,0,5
PB006K19,5,293,AS,exp,28,↓,down,↓,0.8206945999991149,True,22,1,1,6
PB006K19,5,294,AS,exp,32,↑,down,↓,1.0447446999896783,False,21,-1,1,7
PB006K19,5,295,AS,exp,34,←,left,←,0.534180100003141,True,22,-1,0,7
PB006K19,5,296,AS,exp,33,→,right,→,0.7531450000096811,True,22,1,1,8
PB006K19,5,297,AS,exp,26,↑,up,↑,0.7079798000049777,True,21,1,0,8
PB006K19,5,298,AS,exp,30,←,up,↑,0.9637191999936476,False,21,-1,1,9
PB006K19,5,299,AS,exp,36,→,right,→,0.594197999991593,True,22,-1,0,9
PB006K19,5,300,AS,exp,50,↓,down,↓,0.6814070999971591,True,22,1,1,10
PB006K19,5,301,AS,exp,41,↑,down,↓,0.7143887999991421,False,21,-1,1,11
PB006K19,5,302,AS,exp,35,→,right,→,0.8134534999990137,True,22,-1,0,11
PB006K19,5,303,AS,exp,46,↑,up,↑,0.6930087000073399,True,22,1,1,12
PB006K19,5,304,AS,exp,25,↓,up,↑,0.9088765000051353,False,21,-1,1,13
PB006K19,5,305,AS,exp,41,←,left,←,0.6341822999966098,True,22,-1,0,13
PB006K19,5,306,AS,exp,48,→,right,→,0.6329404999996768,True,22,1,1,14
PB006K19,6,307,PS,intra_train,42,↑,up,↑,0.6573118000087561,True,12,-,-,-
PB006K19,6,308,PS,intra_train,34,↓,down,↓,0.6017804000002798,True,12,-,-,-
PB006K19,6,309,PS,intra_train,26,↑,up,↑,0.602651599998353,True,12,-,-,-
PB006K19,6,310,PS,intra_train,30,→,right,→,0.4709028000070248,True,12,-,-,-
PB006K19,6,311,PS,intra_train,41,←,down,↓,1.0002544000017224,False,12,-,-,-
PB006K19,6,312,PS,exp,49,↑,up,↑,0.5857091000070795,True,8,0,0,0
PB006K19,6,313,PS,exp,27,←,left,←,1.0988577999960398,True,8,1,0,0
PB006K19,6,314,PS,exp,37,↓,down,↓,0.8581306999985827,True,7,1,0,0
PB006K19,6,315,PS,exp,38,←,left,←,0.5709640999994008,True,7,1,0,0
PB006K19,6,316,PS,exp,42,↑,up,↑,0.8857806000014534,True,6,1,0,0
PB006K19,6,317,PS,exp,50,→,right,→,0.5118144000007305,True,6,1,0,0
PB006K19,6,318,PS,exp,38,←,left,←,0.658575399997062,True,5,1,0,0
PB006K19,6,319,PS,exp,41,↑,up,↑,0.8066935999959242,True,5,1,0,0
PB006K19,6,320,PS,exp,42,↓,up,↑,0.594535199998063,False,4,-1,1,1
PB006K19,6,321,PS,exp,33,←,left,←,0.5259665000048699,True,5,-1,0,1
PB006K19,6,322,PS,exp,44,→,right,→,0.4677251000102842,True,5,1,1,2
PB006K19,6,323,PS,exp,45,↓,down,↓,0.6107750000082888,True,4,1,0,2
PB006K19,6,324,PS,exp,44,→,down,↓,0.5417225999990478,False,4,-1,1,3
PB006K19,6,325,PS,exp,49,↑,left,←,0.7638061999896308,False,5,-1,0,3
PB006K19,6,326,PS,exp,35,←,left,←,0.41023509998922236,True,6,-1,0,3
PB006K19,6,327,PS,exp,35,→,right,→,0.4925057999935234,True,6,1,1,4
PB006K19,6,328,PS,exp,47,←,left,←,0.5611637999973027,True,5,1,0,4
PB006K19,6,329,PS,exp,38,→,down,↓,0.5690547999984119,False,5,-1,1,5
PB006K19,6,330,PS,exp,33,↓,down,↓,0.5165294000034919,True,6,-1,0,5
PB006K19,6,331,PS,exp,47,↑,down,↓,0.45897430001059547,False,6,-1,0,5
PB006K19,6,332,PS,exp,40,↓,down,↓,0.4903774000122212,True,7,-1,0,5
PB006K19,6,333,PS,exp,37,↑,down,↓,0.5666952000028687,False,7,-1,0,5
PB006K19,6,334,PS,exp,26,↓,left,←,0.7458851000119466,False,8,-1,0,5
PB006K19,6,335,PS,exp,25,→,down,↓,0.5262703000043985,False,9,-1,0,5
PB006K19,6,336,PS,exp,46,↑,down,↓,0.6610167999897385,False,10,-1,0,5
PB006K19,6,337,PS,exp,42,→,down,↓,0.5369516999926418,False,11,-1,0,5
PB006K19,6,338,PS,exp,30,←,left,←,0.5448259999975562,True,12,-1,0,5
PB006K19,6,339,PS,exp,40,↑,up,↑,0.6692784999904688,True,12,1,1,6
PB006K19,6,340,PS,exp,33,→,right,→,0.5296732999995584,True,11,1,0,6
PB006K19,6,341,PS,exp,30,↑,left,←,0.7003297000046587,False,11,-1,1,7
PB006K19,6,342,PS,exp,42,↓,down,↓,0.48509200000262354,True,12,-1,0,7
PB006K19,6,343,PS,exp,25,←,left,←,0.5432384000014281,True,12,1,1,8
PB006K19,6,344,PS,exp,31,↑,up,↑,0.5670078999974066,True,11,1,0,8
PB006K19,6,345,PS,exp,38,↓,down,↓,0.715654599989648,True,11,1,0,8
PB006K19,6,346,PS,exp,43,←,left,←,0.5019042000058107,True,10,1,0,8
PB006K19,6,347,PS,exp,34,↑,up,↑,0.5559150999906706,True,10,1,0,8
PB006K19,6,348,PS,exp,45,↓,down,↓,0.5002878999948734,True,9,1,0,8
PB006K19,6,349,PS,exp,38,↑,up,↑,0.49738700001034886,True,9,1,0,8
PB006K19,6,350,PS,exp,28,↓,up,↑,0.5475013999966905,False,8,-1,1,9
PB006K19,6,351,PS,exp,40,←,left,←,0.5515636999916751,True,9,-1,0,9
PB006K19,6,352,PS,exp,25,↑,left,←,0.7563244000048144,False,9,-1,0,9
PB006K19,6,353,PS,exp,25,↓,down,↓,0.6503536000091117,True,10,-1,0,9
PB006K19,6,354,PS,exp,39,←,left,←,0.5342222999897785,True,10,1,1,10
PB006K19,6,355,PS,exp,27,↑,right,→,0.6472171999921557,False,9,-1,1,11
PB006K19,6,356,PS,exp,25,→,down,↓,0.6030372000095667,False,10,-1,0,11
PB006K19,6,357,PS,exp,44,↑,up,↑,0.6413045999943279,True,11,-1,0,11
PB006K19,6,358,PS,exp,30,→,down,↓,0.554563199999393,False,11,-1,0,11
PB006K19,6,359,PS,exp,45,↓,down,↓,0.4331852000032086,True,12,-1,0,11
PB006K19,6,360,PS,exp,25,→,right,→,0.5849254999920959,True,12,1,1,12
PB006K19,6,361,PS,exp,31,↑,right,→,0.6987136999960057,False,11,-1,1,13
PB006K19,6,362,PS,exp,50,→,right,→,0.47066030000860337,True,12,-1,0,13
PB006K19,6,363,PS,exp,30,↑,down,↓,0.6249347000120906,False,12,-1,0,13
PB006K19,6,364,PS,exp,28,←,left,←,0.5288724999991246,True,13,-1,0,13
PB006K19,6,365,PS,exp,30,↓,down,↓,1.455644100002246,True,13,1,1,14
PB006K19,7,366,PS,intra_train,32,←,left,←,0.5621739000052912,True,12,-,-,-
PB006K19,7,367,PS,intra_train,37,↑,up,↑,0.586198200006038,True,12,-,-,-
PB006K19,7,368,PS,intra_train,27,←,left,←,0.4187818999926094,True,12,-,-,-
PB006K19,7,369,PS,intra_train,28,↑,up,↑,0.5850657000119099,True,12,-,-,-
PB006K19,7,370,PS,intra_train,44,←,left,←,0.43362849998811726,True,12,-,-,-
PB006K19,7,371,PS,exp,44,→,right,→,0.46806099999230355,True,8,0,0,0
PB006K19,7,372,PS,exp,30,↓,down,↓,0.541491700001643,True,8,1,0,0
PB006K19,7,373,PS,exp,49,→,left,←,0.3923058999935165,False,7,-1,1,1
PB006K19,7,374,PS,exp,42,←,left,←,0.42840829999477137,True,8,-1,0,1
PB006K19,7,375,PS,exp,36,→,right,→,0.5034195000043837,True,8,1,1,2
PB006K19,7,376,PS,exp,44,↑,up,↑,0.606321500003105,True,7,1,0,2
PB006K19,7,377,PS,exp,44,↓,down,↓,0.5400033999903826,True,7,1,0,2
PB006K19,7,378,PS,exp,28,←,up,↑,0.6719233999901917,False,6,-1,1,3
PB006K19,7,379,PS,exp,49,↓,left,←,0.9850117000023602,False,7,-1,0,3
PB006K19,7,380,PS,exp,33,→,right,→,0.4407800000044517,True,8,-1,0,3
PB006K19,7,381,PS,exp,48,↓,down,↓,0.5763296000077389,True,8,1,1,4
PB006K19,7,382,PS,exp,38,←,left,←,0.4405976999987615,True,7,1,0,4
PB006K19,7,383,PS,exp,39,↑,up,↑,0.578489300009096,True,7,1,0,4
PB006K19,7,384,PS,exp,39,→,left,←,0.5916417999978876,False,6,-1,1,5
PB006K19,7,385,PS,exp,47,↑,up,↑,0.6029020000132732,True,7,-1,0,5
PB006K19,7,386,PS,exp,47,←,left,←,0.3866704999963986,True,7,1,1,6
PB006K19,7,387,PS,exp,43,↓,down,↓,0.8400495999958366,True,6,1,0,6
PB006K19,7,388,PS,exp,27,→,left,←,0.4916025999991689,False,6,-1,1,7
PB006K19,7,389,PS,exp,27,↑,down,↓,0.5213885999983177,False,7,-1,0,7
PB006K19,7,390,PS,exp,28,→,right,→,0.43393830000422895,True,8,-1,0,7
PB006K19,7,391,PS,exp,40,←,left,←,0.5580490000138525,True,8,1,1,8
PB006K19,7,392,PS,exp,29,↓,left,←,0.4874909999925876,False,7,-1,1,9
PB006K19,7,393,PS,exp,42,→,left,←,0.3355701999971643,False,8,-1,0,9
PB006K19,7,394,PS,exp,36,↑,down,↓,0.9046376000042073,False,9,-1,0,9
PB006K19,7,395,PS,exp,37,→,right,→,0.5475719999958528,True,10,-1,0,9
PB006K19,7,396,PS,exp,29,↑,up,↑,0.509720300004119,True,10,1,1,10
PB006K19,7,397,PS,exp,36,←,left,←,0.40993880000314675,True,9,1,0,10
PB006K19,7,398,PS,exp,35,→,left,←,0.4409487000084482,False,9,-1,1,11
PB006K19,7,399,PS,exp,42,↑,left,←,0.42111940000904724,False,10,-1,0,11
PB006K19,7,400,PS,exp,48,↓,down,↓,0.6152672000025632,True,11,-1,0,11
PB006K19,7,401,PS,exp,39,←,left,←,0.31699929999012966,True,11,1,1,12
PB006K19,7,402,PS,exp,42,↑,left,←,0.44704149999597576,False,10,-1,1,13
PB006K19,7,403,PS,exp,27,→,right,→,0.533878399990499,True,11,-1,0,13
PB006K19,7,404,PS,exp,34,↑,up,↑,0.6434399999998277,True,11,1,1,14
PB006K19,8,405,AS,intra_train,38,→,right,→,0.7605305000033695,True,31,-,-,-
PB006K19,8,406,AS,intra_train,41,↑,up,↑,0.8601726000051713,True,31,-,-,-
PB006K19,8,407,AS,intra_train,49,←,left,←,0.7445097000017995,True,31,-,-,-
PB006K19,8,408,AS,intra_train,36,→,left,←,0.4672558000020217,False,31,-,-,-
PB006K19,8,409,AS,intra_train,25,←,left,←,0.6004057000100147,True,31,-,-,-
PB006K19,8,410,AS,exp,33,↓,down,↓,0.8423934000020381,True,21,0,0,0
PB006K19,8,411,AS,exp,34,←,no_key,no_letter,-1.0,False,21,-1,0,0
PB006K19,8,412,AS,exp,40,↓,down,↓,0.6621626000123797,True,22,-1,0,0
PB006K19,8,413,AS,exp,41,←,left,←,0.5784348000015598,True,22,1,1,1
PB006K19,8,414,AS,exp,45,↓,down,↓,0.6428660999954445,True,21,1,0,1
PB006K19,8,415,AS,exp,48,→,right,→,0.7070918999961577,True,21,1,0,1
PB006K19,8,416,AS,exp,33,←,right,→,0.5700281000026735,False,20,-1,1,2
PB006K19,8,417,AS,exp,49,→,right,→,0.8364386000030208,True,21,-1,0,2
PB006K19,8,418,AS,exp,38,↓,down,↓,1.2639752999966731,True,21,1,1,3
PB006K19,8,419,AS,exp,27,↑,up,↑,0.9374859999952605,True,20,1,0,3
PB006K19,8,420,AS,exp,27,→,right,→,0.8842203000094742,True,20,1,0,3
PB006K19,8,421,AS,exp,34,↓,down,↓,0.45048290000704583,True,19,1,0,3
PB006K19,8,422,AS,exp,39,↑,up,↑,0.5749695999984397,True,19,1,0,3
PB006K19,8,423,AS,exp,35,←,down,↓,1.00115630000073,False,18,-1,1,4
PB006K19,8,424,AS,exp,37,↓,down,↓,0.6412931999948341,True,19,-1,0,4
PB006K19,8,425,AS,exp,48,←,left,←,0.6164424000016879,True,19,1,1,5
PB006K19,8,426,AS,exp,27,↑,down,↓,0.8675468000001274,False,18,-1,1,6
PB006K19,8,427,AS,exp,37,→,right,→,0.4986069000005955,True,19,-1,0,6
PB006K19,8,428,AS,exp,35,←,left,←,0.6682100000034552,True,19,1,1,7
PB006K19,8,429,AS,exp,27,↓,down,↓,1.0310451000113972,True,18,1,0,7
PB006K19,8,430,AS,exp,37,↑,down,↓,0.90797859999293,False,18,-1,1,8
PB006K19,8,431,AS,exp,31,→,left,←,0.8204609999957029,False,19,-1,0,8
PB006K19,8,432,AS,exp,28,↑,up,↑,0.6108069000038086,True,20,-1,0,8
PB006K19,8,433,AS,exp,47,→,right,→,0.6532789999910165,True,20,1,1,9
PB006K19,8,434,AS,exp,26,↑,up,↑,0.7043768000003183,True,19,1,0,9
PB006K19,8,435,AS,exp,30,←,left,←,0.5718171000044094,True,19,1,0,9
PB006K19,8,436,AS,exp,34,↑,up,↑,0.6803746999939904,True,18,1,0,9
PB006K19,8,437,AS,exp,45,↓,down,↓,0.5233367000037106,True,18,1,0,9
PB006K19,8,438,AS,exp,45,→,down,↓,0.8119334999937564,False,17,-1,1,10
PB006K19,8,439,AS,exp,50,↓,down,↓,0.6323044000018854,True,18,-1,0,10
PB006K19,8,440,AS,exp,26,←,right,→,0.9319201000034809,False,18,-1,0,10
PB006K19,8,441,AS,exp,49,↑,up,↑,0.7172824000008404,True,19,-1,0,10
PB006K19,8,442,AS,exp,33,←,left,←,0.6746401999989757,True,19,1,1,11
PB006K19,8,443,AS,exp,36,→,right,→,0.5741194000001997,True,18,1,0,11
PB006K19,8,444,AS,exp,39,↓,down,↓,0.7819291000050725,True,18,1,0,11
PB006K19,8,445,AS,exp,40,→,right,→,0.5073638000030769,True,17,1,0,11
PB006K19,8,446,AS,exp,46,↓,down,↓,0.5694570000050589,True,17,1,0,11
PB006K19,8,447,AS,exp,27,←,down,↓,0.7069932000013068,False,16,-1,1,12
PB006K19,8,448,AS,exp,27,↑,down,↓,0.6787965999974404,False,17,-1,0,12
PB006K19,8,449,AS,exp,32,→,right,→,0.6705422000086401,True,18,-1,0,12
PB006K19,8,450,AS,exp,45,↓,down,↓,0.5639355000021169,True,18,1,1,13
PB006K19,8,451,AS,exp,34,↑,up,↑,0.7123659000062617,True,17,1,0,13
PB006K19,8,452,AS,exp,35,←,down,↓,0.7379592999932356,False,17,-1,1,14
