PART_ID,Block_no,Trial_no,Block_type,Trial_type,CSI,Stim_letter,Key_pressed,letter_choose,Rt,Corr,Stimulus Time,Level,Reversal,Revs_count
PB017K26,1,1,PS,train,41,↑,right,→,1.9292458000127226,False,30,-,-,-
PB017K26,1,2,PS,train,35,↓,no_key,no_letter,-1.0,False,30,-,-,-
PB017K26,1,3,PS,train,44,←,left,←,1.2228921000205446,True,30,-,-,-
PB017K26,1,4,PS,train,47,↓,down,↓,1.1391902000177652,True,30,-,-,-
PB017K26,1,5,PS,train,47,→,right,→,1.0258908000250813,True,30,-,-,-
PB017K26,1,6,PS,train,44,↑,up,↑,1.3311449000029825,True,30,-,-,-
PB017K26,1,7,PS,train,50,→,right,→,0.6340674000093713,True,30,-,-,-
PB017K26,1,8,PS,train,32,↓,down,↓,0.9949008999974467,True,30,-,-,-
PB017K26,1,9,PS,train,43,←,left,←,0.9132379000075161,True,30,-,-,-
PB017K26,1,10,PS,train,42,↑,up,↑,0.7729032000061125,True,30,-,-,-
PB017K26,2,11,AS,train,48,→,right,→,0.8008525000186637,True,45,-,-,-
PB017K26,2,12,AS,train,47,↑,up,↑,0.9223967000143602,True,45,-,-,-
PB017K26,2,13,AS,train,48,↓,down,↓,1.2197235000203364,True,45,-,-,-
PB017K26,2,14,AS,train,28,←,left,←,0.8007415999891236,True,45,-,-,-
PB017K26,2,15,AS,train,35,↑,up,↑,0.551409399980912,True,45,-,-,-
PB017K26,2,16,AS,train,32,→,right,→,0.5848669999977574,True,45,-,-,-
PB017K26,2,17,AS,train,48,←,left,←,0.8507327999977861,True,45,-,-,-
PB017K26,2,18,AS,train,40,↑,up,↑,0.5343974999850616,True,45,-,-,-
PB017K26,2,19,AS,train,41,→,right,→,0.6349235999805387,True,45,-,-,-
PB017K26,2,20,AS,train,36,↓,down,↓,1.712234200007515,True,45,-,-,-
PB017K26,-,21,PS,adaptive,26,←,left,←,0.6174950000131503,True,10,0,0,0
PB017K26,-,22,PS,adaptive,41,↓,no_key,no_letter,-1.0,False,10,-1,0,0
PB017K26,-,23,PS,adaptive,42,←,left,←,0.621804800000973,True,11,-1,0,0
PB017K26,-,24,PS,adaptive,26,↑,up,↑,0.5224844999902416,True,11,1,1,1
PB017K26,-,25,PS,adaptive,50,↓,down,↓,0.7868799999996554,True,10,1,0,1
PB017K26,-,26,PS,adaptive,34,→,right,→,0.5596548999892548,True,10,1,0,1
PB017K26,-,27,PS,adaptive,31,←,right,→,0.9248641999729443,False,9,-1,1,2
PB017K26,-,28,PS,adaptive,34,↑,left,←,1.5298487999825738,False,10,-1,0,2
PB017K26,-,29,PS,adaptive,38,←,left,←,0.605908500001533,True,11,-1,0,2
PB017K26,-,30,PS,adaptive,32,↑,up,↑,0.5950603999954183,True,11,1,1,3
PB017K26,-,31,PS,adaptive,36,←,right,→,1.2155314999981783,False,10,-1,1,4
PB017K26,-,32,AS,adaptive,47,→,right,→,0.5009759000095073,True,20,0,0,0
PB017K26,-,33,AS,adaptive,32,↓,down,↓,0.7578997999953572,True,20,1,0,0
PB017K26,-,34,AS,adaptive,41,→,right,→,0.4993376000202261,True,19,1,0,0
PB017K26,-,35,AS,adaptive,42,↑,up,↑,0.5298496000177693,True,19,1,0,0
PB017K26,-,36,AS,adaptive,40,→,right,→,1.258384600019781,True,18,1,0,0
PB017K26,-,37,AS,adaptive,29,↑,right,→,0.8767786999815144,False,18,-1,1,1
PB017K26,-,38,AS,adaptive,50,→,right,→,0.7529931000026409,True,19,-1,0,1
PB017K26,-,39,AS,adaptive,30,↑,up,↑,0.5603353999904357,True,19,1,1,2
PB017K26,-,40,AS,adaptive,49,→,left,←,0.9085448000114411,False,18,-1,1,3
PB017K26,-,41,AS,adaptive,30,↑,up,↑,0.568598900019424,True,19,-1,0,3
PB017K26,-,42,AS,adaptive,32,↓,left,←,0.916234300006181,False,19,-1,0,3
PB017K26,-,43,AS,adaptive,48,↑,up,↑,0.7478066000039689,True,20,-1,0,3
PB017K26,-,44,AS,adaptive,29,→,right,→,0.5946236999880057,True,20,1,1,4
PB017K26,1,45,AS,intra_train,47,←,left,←,0.6008454000111669,True,28,-,-,-
PB017K26,1,46,AS,intra_train,50,↑,up,↑,0.4505652999796439,True,28,-,-,-
PB017K26,1,47,AS,intra_train,39,←,left,←,0.78754079999635,True,28,-,-,-
PB017K26,1,48,AS,intra_train,50,→,right,→,0.567216900002677,True,28,-,-,-
PB017K26,1,49,AS,intra_train,38,←,left,←,0.7095725000253879,True,28,-,-,-
PB017K26,1,50,AS,exp,30,↑,left,←,0.982922499999404,False,19,-1,0,0
PB017K26,1,51,AS,exp,40,←,left,←,0.9899579999910202,True,20,-1,0,0
PB017K26,1,52,AS,exp,50,↓,down,↓,0.905359900003532,True,20,1,1,1
PB017K26,1,53,AS,exp,25,↑,left,←,1.0088036000088323,False,19,-1,1,2
PB017K26,1,54,AS,exp,29,←,left,←,0.6441918000055011,True,20,-1,0,2
PB017K26,1,55,AS,exp,50,↓,down,↓,0.8292085999855772,True,20,1,1,3
PB017K26,1,56,AS,exp,46,→,right,→,0.5908671999932267,True,19,1,0,3
PB017K26,1,57,AS,exp,44,↓,down,↓,0.896016700018663,True,19,1,0,3
PB017K26,1,58,AS,exp,50,↑,down,↓,0.9045816999860108,False,18,-1,1,4
PB017K26,1,59,AS,exp,26,→,right,→,0.585500699991826,True,19,-1,0,4
PB017K26,1,60,AS,exp,43,↑,up,↑,0.9214887999987695,True,19,1,1,5
PB017K26,1,61,AS,exp,33,←,left,←,0.7540480000025127,True,18,1,0,5
PB017K26,1,62,AS,exp,46,↑,up,↑,0.5751406999770552,True,18,1,0,5
PB017K26,1,63,AS,exp,34,→,left,←,0.8614061000116635,False,17,-1,1,6
PB017K26,1,64,AS,exp,30,↑,up,↑,0.5036917999968864,True,18,-1,0,6
PB017K26,1,65,AS,exp,49,←,left,←,1.2460104000056162,True,18,1,1,7
PB017K26,1,66,AS,exp,39,→,right,→,0.5360278000007384,True,17,1,0,7
PB017K26,1,67,AS,exp,46,↓,up,↑,0.7111289999738801,False,17,-1,1,8
PB017K26,1,68,AS,exp,49,→,right,→,0.5281558999849949,True,18,-1,0,8
PB017K26,1,69,AS,exp,37,↑,down,↓,1.014864700002363,False,18,-1,0,8
PB017K26,1,70,AS,exp,31,←,left,←,0.7690144999942277,True,19,-1,0,8
PB017K26,1,71,AS,exp,45,↓,down,↓,0.7283651999896392,True,19,1,1,9
PB017K26,1,72,AS,exp,47,→,right,→,0.6511240999971051,True,18,1,0,9
PB017K26,1,73,AS,exp,48,↑,down,↓,0.8981349999958184,False,18,-1,1,10
PB017K26,1,74,AS,exp,42,→,right,→,1.8554307000013068,True,19,-1,0,10
PB017K26,1,75,AS,exp,36,←,left,←,0.8359953000035603,True,19,1,1,11
PB017K26,1,76,AS,exp,31,↓,down,↓,0.7101205999788363,True,18,1,0,11
PB017K26,1,77,AS,exp,27,→,right,→,1.4910056000226177,True,18,1,0,11
PB017K26,1,78,AS,exp,40,←,left,←,0.6710963000077754,True,17,1,0,11
PB017K26,1,79,AS,exp,31,↓,down,↓,0.7280345000035595,True,17,1,0,11
PB017K26,1,80,AS,exp,32,←,left,←,0.48714479999034666,True,16,1,0,11
PB017K26,1,81,AS,exp,41,↓,down,↓,0.8822374000155833,True,16,1,0,11
PB017K26,1,82,AS,exp,25,←,left,←,0.5733548999996856,True,15,1,0,11
PB017K26,1,83,AS,exp,47,↑,down,↓,0.9760396000056062,False,15,-1,1,12
PB017K26,1,84,AS,exp,26,↓,down,↓,1.0631515000131913,True,16,-1,0,12
PB017K26,1,85,AS,exp,50,↑,up,↑,0.6035779000085313,True,16,1,1,13
PB017K26,1,86,AS,exp,50,↓,up,↑,1.5034325000015087,False,15,-1,1,14
PB017K26,2,87,PS,intra_train,26,→,right,→,0.6624381000001449,True,16,-,-,-
PB017K26,2,88,PS,intra_train,49,←,left,←,0.4789730000193231,True,16,-,-,-
PB017K26,2,89,PS,intra_train,35,→,right,→,0.4691768000193406,True,16,-,-,-
PB017K26,2,90,PS,intra_train,46,←,left,←,0.7414385000010952,True,16,-,-,-
PB017K26,2,91,PS,intra_train,46,→,right,→,0.5261721999850124,True,16,-,-,-
PB017K26,2,92,PS,exp,42,↓,down,↓,0.7943442999967374,True,11,0,0,0
PB017K26,2,93,PS,exp,43,→,right,→,0.47965839999960735,True,11,1,0,0
PB017K26,2,94,PS,exp,39,↑,up,↑,0.5399622999830171,True,10,1,0,0
PB017K26,2,95,PS,exp,45,→,right,→,0.8438244000135455,True,10,1,0,0
PB017K26,2,96,PS,exp,25,↓,down,↓,0.8141690000193194,True,9,1,0,0
PB017K26,2,97,PS,exp,46,→,right,→,0.8730722999898717,True,9,1,0,0
PB017K26,2,98,PS,exp,46,↑,up,↑,0.632844199979445,True,8,1,0,0
PB017K26,2,99,PS,exp,47,→,up,↑,0.8694146000198089,False,8,-1,1,1
PB017K26,2,100,PS,exp,49,↑,up,↑,0.46934239999973215,True,9,-1,0,1
PB017K26,2,101,PS,exp,41,↓,down,↓,0.7879881999979261,True,9,1,1,2
PB017K26,2,102,PS,exp,38,↑,down,↓,0.8233837999869138,False,8,-1,1,3
PB017K26,2,103,PS,exp,34,←,left,←,0.5592252000060398,True,9,-1,0,3
PB017K26,2,104,PS,exp,33,→,right,→,0.5240508999850135,True,9,1,1,4
PB017K26,2,105,PS,exp,43,←,left,←,0.44973960000788793,True,8,1,0,4
PB017K26,2,106,PS,exp,46,→,right,→,0.46584440002334304,True,8,1,0,4
PB017K26,2,107,PS,exp,48,↓,right,→,0.5538722999917809,False,7,-1,1,5
PB017K26,2,108,PS,exp,34,→,right,→,0.37166869998327456,True,8,-1,0,5
PB017K26,2,109,PS,exp,47,↑,up,↑,0.5023900000087451,True,8,1,1,6
PB017K26,2,110,PS,exp,42,→,left,←,0.6585031999857165,False,7,-1,1,7
PB017K26,2,111,PS,exp,26,←,right,→,0.6867063000099733,False,8,-1,0,7
PB017K26,2,112,PS,exp,44,↓,left,←,0.7527303000097163,False,9,-1,0,7
PB017K26,2,113,PS,exp,48,→,right,→,0.7635183000238612,True,10,-1,0,7
PB017K26,2,114,PS,exp,50,←,right,→,0.6376981999783311,False,10,-1,0,7
PB017K26,2,115,PS,exp,48,→,right,→,0.4808123999973759,True,11,-1,0,7
PB017K26,2,116,PS,exp,38,←,left,←,0.4968675000127405,True,11,1,1,8
PB017K26,2,117,PS,exp,45,↑,up,↑,0.546800300013274,True,10,1,0,8
PB017K26,2,118,PS,exp,49,→,right,→,0.47432199999457225,True,10,1,0,8
PB017K26,2,119,PS,exp,31,↑,up,↑,0.5354858999780845,True,9,1,0,8
PB017K26,2,120,PS,exp,34,→,right,→,0.960530700016534,True,9,1,0,8
PB017K26,2,121,PS,exp,35,↑,up,↑,0.5428078999975696,True,8,1,0,8
PB017K26,2,122,PS,exp,29,↓,down,↓,1.000482799980091,True,8,1,0,8
PB017K26,2,123,PS,exp,26,↑,up,↑,0.6353651999961585,True,7,1,0,8
PB017K26,2,124,PS,exp,34,←,up,↑,0.6335836999933235,False,7,-1,1,9
PB017K26,2,125,PS,exp,40,→,right,→,0.49581140000373125,True,8,-1,0,9
PB017K26,2,126,PS,exp,40,↓,down,↓,0.8339510000078008,True,8,1,1,10
PB017K26,2,127,PS,exp,25,↑,up,↑,0.4456214999954682,True,7,1,0,10
PB017K26,2,128,PS,exp,39,↓,down,↓,0.52696570000262,True,7,1,0,10
PB017K26,2,129,PS,exp,38,→,right,→,0.7031622999929823,True,6,1,0,10
PB017K26,2,130,PS,exp,30,↑,up,↑,0.49992719999863766,True,6,1,0,10
PB017K26,2,131,PS,exp,47,↓,down,↓,0.6258775999885984,True,5,1,0,10
PB017K26,2,132,PS,exp,29,←,left,←,0.5434397999779321,True,5,1,0,10
PB017K26,2,133,PS,exp,28,↓,right,→,0.5477069999906234,False,4,-1,1,11
PB017K26,2,134,PS,exp,50,←,right,→,0.45978120001382194,False,5,-1,0,11
PB017K26,2,135,PS,exp,26,↓,right,→,0.9571070999954827,False,6,-1,0,11
PB017K26,2,136,PS,exp,40,←,left,←,0.5250893000047654,True,7,-1,0,11
PB017K26,2,137,PS,exp,36,→,right,→,0.6389463000232354,True,7,1,1,12
PB017K26,2,138,PS,exp,27,↑,left,←,0.727418199996464,False,6,-1,1,13
PB017K26,2,139,PS,exp,31,↓,left,←,0.625543000001926,False,7,-1,0,13
PB017K26,2,140,PS,exp,26,→,right,→,0.3730067999858875,True,8,-1,0,13
PB017K26,2,141,PS,exp,26,←,left,←,0.3414154000056442,True,8,1,1,14
PB017K26,3,142,PS,intra_train,26,→,right,→,0.48737969997455366,True,16,-,-,-
PB017K26,3,143,PS,intra_train,34,←,left,←,0.4005376000131946,True,16,-,-,-
PB017K26,3,144,PS,intra_train,49,↑,up,↑,0.5619838999991771,True,16,-,-,-
PB017K26,3,145,PS,intra_train,41,←,left,←,0.4651544000080321,True,16,-,-,-
PB017K26,3,146,PS,intra_train,26,↓,down,↓,0.9671841000090353,True,16,-,-,-
PB017K26,3,147,PS,exp,32,←,left,←,0.7342758000013418,True,11,0,0,0
PB017K26,3,148,PS,exp,35,↓,left,←,0.8615515000128653,False,11,-1,0,0
PB017K26,3,149,PS,exp,48,←,left,←,0.48146780001115985,True,12,-1,0,0
PB017K26,3,150,PS,exp,32,↓,right,→,0.6964936000003945,False,12,-1,0,0
PB017K26,3,151,PS,exp,42,→,right,→,0.6898849999997765,True,13,-1,0,0
PB017K26,3,152,PS,exp,39,↑,up,↑,0.6580484000151046,True,13,1,1,1
PB017K26,3,153,PS,exp,34,→,right,→,0.5270972999860533,True,12,1,0,1
PB017K26,3,154,PS,exp,27,↓,down,↓,0.9752654999902006,True,12,1,0,1
PB017K26,3,155,PS,exp,47,←,left,←,0.5579266000131611,True,11,1,0,1
PB017K26,3,156,PS,exp,35,↑,left,←,0.722953000018606,False,11,-1,1,2
PB017K26,3,157,PS,exp,40,←,left,←,0.5628304999845568,True,12,-1,0,2
PB017K26,3,158,PS,exp,35,↑,up,↑,0.4749931000114884,True,12,1,1,3
PB017K26,3,159,PS,exp,38,↓,down,↓,0.7248693000001367,True,11,1,0,3
PB017K26,3,160,PS,exp,43,←,left,←,0.5116779999807477,True,11,1,0,3
PB017K26,3,161,PS,exp,25,↑,left,←,0.7588566000049468,False,10,-1,1,4
PB017K26,3,162,PS,exp,29,←,left,←,0.3906831000058446,True,11,-1,0,4
PB017K26,3,163,PS,exp,41,↓,down,↓,0.6732698999985587,True,11,1,1,5
PB017K26,3,164,PS,exp,28,←,left,←,0.6798701999941841,True,10,1,0,5
PB017K26,3,165,PS,exp,43,↑,up,↑,0.6517391000234056,True,10,1,0,5
PB017K26,3,166,PS,exp,35,←,left,←,0.7517826999828685,True,9,1,0,5
PB017K26,3,167,PS,exp,39,→,down,↓,0.792323400004534,False,9,-1,1,6
PB017K26,3,168,PS,exp,42,↓,left,←,0.6417233000101987,False,10,-1,0,6
PB017K26,3,169,PS,exp,26,↑,up,↑,0.5200345999910496,True,11,-1,0,6
PB017K26,3,170,PS,exp,27,↓,down,↓,0.7382723000191618,True,11,1,1,7
PB017K26,3,171,PS,exp,34,↑,up,↑,0.44070899998769164,True,10,1,0,7
PB017K26,3,172,PS,exp,33,←,left,←,0.6124395999941044,True,10,1,0,7
PB017K26,3,173,PS,exp,31,→,right,→,0.5711896999855526,True,9,1,0,7
PB017K26,3,174,PS,exp,43,↑,up,↑,0.6759645999991335,True,9,1,0,7
PB017K26,3,175,PS,exp,30,←,left,←,0.5076824999996461,True,8,1,0,7
PB017K26,3,176,PS,exp,32,↑,up,↑,0.4530578999838326,True,8,1,0,7
PB017K26,3,177,PS,exp,40,←,right,→,0.5718878000043333,False,7,-1,1,8
PB017K26,3,178,PS,exp,36,→,left,←,0.6541171999997459,False,8,-1,0,8
PB017K26,3,179,PS,exp,35,↑,up,↑,0.5522427999821957,True,9,-1,0,8
PB017K26,3,180,PS,exp,45,→,right,→,0.49912619998212904,True,9,1,1,9
PB017K26,3,181,PS,exp,40,↑,up,↑,0.49956870000460185,True,8,1,0,9
PB017K26,3,182,PS,exp,35,↓,left,←,0.622643299982883,False,8,-1,1,10
PB017K26,3,183,PS,exp,40,←,left,←,0.5977200999914203,True,9,-1,0,10
PB017K26,3,184,PS,exp,33,→,right,→,0.6254972000024281,True,9,1,1,11
PB017K26,3,185,PS,exp,50,↓,down,↓,0.8944215000083204,True,8,1,0,11
PB017K26,3,186,PS,exp,32,↑,up,↑,0.5027546000201255,True,8,1,0,11
PB017K26,3,187,PS,exp,25,←,left,←,0.7101437000092119,True,7,1,0,11
PB017K26,3,188,PS,exp,42,↑,left,←,0.6903701999981422,False,7,-1,1,12
PB017K26,3,189,PS,exp,29,←,left,←,0.646191000007093,True,8,-1,0,12
PB017K26,3,190,PS,exp,36,→,right,→,0.5477868000161834,True,8,1,1,13
PB017K26,3,191,PS,exp,31,←,left,←,0.38844799998332746,True,7,1,0,13
PB017K26,3,192,PS,exp,48,↑,left,←,0.7022496000281535,False,7,-1,1,14
PB017K26,4,193,AS,intra_train,49,→,right,→,0.7204802000196651,True,28,-,-,-
PB017K26,4,194,AS,intra_train,31,←,left,←,0.5506467999948654,True,28,-,-,-
PB017K26,4,195,AS,intra_train,29,↓,down,↓,0.8824209000158589,True,28,-,-,-
PB017K26,4,196,AS,intra_train,48,→,right,→,1.6536531999881845,True,28,-,-,-
PB017K26,4,197,AS,intra_train,30,↑,up,↑,0.8815486999810673,True,28,-,-,-
PB017K26,4,198,AS,exp,27,←,left,←,0.80155730000115,True,19,0,0,0
PB017K26,4,199,AS,exp,29,→,right,→,0.5478781000128947,True,19,1,0,0
PB017K26,4,200,AS,exp,50,←,right,→,0.7369770999939647,False,18,-1,1,1
PB017K26,4,201,AS,exp,47,↑,up,↑,0.4995984999986831,True,19,-1,0,1
PB017K26,4,202,AS,exp,46,→,up,↑,0.9335209999990184,False,19,-1,0,1
PB017K26,4,203,AS,exp,29,↓,down,↓,0.714183400006732,True,20,-1,0,1
PB017K26,4,204,AS,exp,44,↑,up,↑,0.3838578999857418,True,20,1,1,2
PB017K26,4,205,AS,exp,47,↓,down,↓,0.6618037000007462,True,19,1,0,2
PB017K26,4,206,AS,exp,29,←,left,←,0.6397870000218973,True,19,1,0,2
PB017K26,4,207,AS,exp,47,→,right,→,0.43359979998786,True,18,1,0,2
PB017K26,4,208,AS,exp,28,↓,down,↓,0.9017236999934539,True,18,1,0,2
PB017K26,4,209,AS,exp,27,→,left,←,0.9018938999797683,False,17,-1,1,3
PB017K26,4,210,AS,exp,39,↑,up,↑,0.841255600011209,True,18,-1,0,3
PB017K26,4,211,AS,exp,45,↓,down,↓,0.7282578999875113,True,18,1,1,4
PB017K26,4,212,AS,exp,30,→,left,←,1.0159889000060502,False,17,-1,1,5
PB017K26,4,213,AS,exp,42,↓,down,↓,0.7323841000034008,True,18,-1,0,5
PB017K26,4,214,AS,exp,49,→,right,→,0.6827677999972366,True,18,1,1,6
PB017K26,4,215,AS,exp,39,←,left,←,0.6654632000136189,True,17,1,0,6
PB017K26,4,216,AS,exp,26,↓,up,↑,0.8146453000081237,False,17,-1,1,7
PB017K26,4,217,AS,exp,29,←,left,←,0.7390792999940459,True,18,-1,0,7
PB017K26,4,218,AS,exp,49,↓,down,↓,0.8611091999919154,True,18,1,1,8
PB017K26,4,219,AS,exp,28,→,up,↑,0.8488837000040803,False,17,-1,1,9
PB017K26,4,220,AS,exp,43,↑,up,↑,0.6007328999985475,True,18,-1,0,9
PB017K26,4,221,AS,exp,31,←,left,←,0.5981158000067808,True,18,1,1,10
PB017K26,4,222,AS,exp,31,↓,down,↓,0.720101999992039,True,17,1,0,10
PB017K26,4,223,AS,exp,27,→,up,↑,0.73622880000039,False,17,-1,1,11
PB017K26,4,224,AS,exp,37,↓,down,↓,0.8560750000178814,True,18,-1,0,11
PB017K26,4,225,AS,exp,45,→,right,→,0.6752105999912601,True,18,1,1,12
PB017K26,4,226,AS,exp,26,↑,up,↑,1.0512559000053443,True,17,1,0,12
PB017K26,4,227,AS,exp,47,→,right,→,0.6758983000181615,True,17,1,0,12
PB017K26,4,228,AS,exp,28,←,left,←,0.5850589999754447,True,16,1,0,12
PB017K26,4,229,AS,exp,47,↓,down,↓,0.7649907000013627,True,16,1,0,12
PB017K26,4,230,AS,exp,39,→,right,→,0.5590362000220921,True,15,1,0,12
PB017K26,4,231,AS,exp,36,←,left,←,0.8964914999960456,True,15,1,0,12
PB017K26,4,232,AS,exp,28,→,right,→,0.4555623999913223,True,14,1,0,12
PB017K26,4,233,AS,exp,33,←,left,←,0.7462926000007428,True,14,1,0,12
PB017K26,4,234,AS,exp,35,↑,up,↑,0.45970300000044517,True,13,1,0,12
PB017K26,4,235,AS,exp,41,→,right,→,0.4433586999948602,True,13,1,0,12
PB017K26,4,236,AS,exp,43,↑,up,↑,0.46751570000196807,True,12,1,0,12
PB017K26,4,237,AS,exp,39,→,left,←,0.6619706000201404,False,12,-1,1,13
PB017K26,4,238,AS,exp,50,↓,up,↑,0.6535735999932513,False,13,-1,0,13
PB017K26,4,239,AS,exp,29,←,left,←,0.7294875000079628,True,14,-1,0,13
PB017K26,4,240,AS,exp,36,↑,up,↑,0.413511999999173,True,14,1,1,14
PB017K26,5,241,AS,intra_train,30,→,right,→,0.5172671999898739,True,28,-,-,-
PB017K26,5,242,AS,intra_train,36,↑,up,↑,0.5005694999999832,True,28,-,-,-
PB017K26,5,243,AS,intra_train,36,→,right,→,0.5341490000137128,True,28,-,-,-
PB017K26,5,244,AS,intra_train,31,↑,up,↑,0.5005122000002302,True,28,-,-,-
PB017K26,5,245,AS,intra_train,48,↓,down,↓,0.6974196000082884,True,28,-,-,-
PB017K26,5,246,AS,exp,33,→,right,→,0.5448958000051789,True,19,0,0,0
PB017K26,5,247,AS,exp,42,↓,down,↓,0.9136989999969956,True,19,1,0,0
PB017K26,5,248,AS,exp,41,→,right,→,0.7001090999983717,True,18,1,0,0
PB017K26,5,249,AS,exp,37,↓,down,↓,0.6373523999936879,True,18,1,0,0
PB017K26,5,250,AS,exp,38,→,right,→,0.4959021999966353,True,17,1,0,0
PB017K26,5,251,AS,exp,48,↑,up,↑,0.5409991000196896,True,17,1,0,0
PB017K26,5,252,AS,exp,26,↓,down,↓,0.6629249999823514,True,16,1,0,0
PB017K26,5,253,AS,exp,27,→,right,→,0.530014799995115,True,16,1,0,0
PB017K26,5,254,AS,exp,25,↑,up,↑,0.42191730000195093,True,15,1,0,0
PB017K26,5,255,AS,exp,38,→,right,→,0.46774520000326447,True,15,1,0,0
PB017K26,5,256,AS,exp,30,↑,up,↑,1.0740164000017103,True,14,1,0,0
PB017K26,5,257,AS,exp,30,→,right,→,0.506903900008183,True,14,1,0,0
PB017K26,5,258,AS,exp,39,↓,up,↑,0.804854099988006,False,13,-1,1,1
PB017K26,5,259,AS,exp,50,↑,up,↑,0.6516129999945406,True,14,-1,0,1
PB017K26,5,260,AS,exp,40,←,up,↑,0.6204333000059705,False,14,-1,0,1
PB017K26,5,261,AS,exp,27,↓,down,↓,0.8332770000270102,True,15,-1,0,1
PB017K26,5,262,AS,exp,41,→,right,→,0.5282871999952476,True,15,1,1,2
PB017K26,5,263,AS,exp,28,↑,up,↑,0.46023140000761487,True,14,1,0,2
PB017K26,5,264,AS,exp,31,↓,down,↓,0.7104229999822564,True,14,1,0,2
PB017K26,5,265,AS,exp,36,→,right,→,0.4424843000015244,True,13,1,0,2
PB017K26,5,266,AS,exp,32,↑,up,↑,0.451737299998058,True,13,1,0,2
PB017K26,5,267,AS,exp,27,→,right,→,0.5706662000156939,True,12,1,0,2
PB017K26,5,268,AS,exp,25,↑,up,↑,0.4115993999876082,True,12,1,0,2
PB017K26,5,269,AS,exp,50,←,right,→,0.5319392000092193,False,11,-1,1,3
PB017K26,5,270,AS,exp,31,↑,right,→,0.47725230001378804,False,12,-1,0,3
PB017K26,5,271,AS,exp,27,→,right,→,0.42443730001104996,True,13,-1,0,3
PB017K26,5,272,AS,exp,50,←,left,←,0.44913230001111515,True,13,1,1,4
PB017K26,5,273,AS,exp,50,↓,down,↓,0.6880773000011686,True,12,1,0,4
PB017K26,5,274,AS,exp,43,←,right,→,0.7498429999977816,False,12,-1,1,5
PB017K26,5,275,AS,exp,37,↑,right,→,0.6252307000104338,False,13,-1,0,5
PB017K26,5,276,AS,exp,26,→,left,←,0.6596641000069212,False,14,-1,0,5
PB017K26,5,277,AS,exp,41,↑,right,→,0.5665692999900784,False,15,-1,0,5
PB017K26,5,278,AS,exp,50,↓,down,↓,0.936156799987657,True,16,-1,0,5
PB017K26,5,279,AS,exp,35,↑,down,↓,0.8477240000211168,False,16,-1,0,5
PB017K26,5,280,AS,exp,36,→,right,→,0.7263473000202794,True,17,-1,0,5
PB017K26,5,281,AS,exp,50,↓,down,↓,0.7170007000095211,True,17,1,1,6
PB017K26,5,282,AS,exp,35,↑,up,↑,0.6702470000018366,True,16,1,0,6
PB017K26,5,283,AS,exp,44,→,right,→,0.6465563999954611,True,16,1,0,6
PB017K26,5,284,AS,exp,38,↑,down,↓,0.8649761000124272,False,15,-1,1,7
PB017K26,5,285,AS,exp,41,→,right,→,0.5960559999803081,True,16,-1,0,7
PB017K26,5,286,AS,exp,43,↑,up,↑,0.6262923000031151,True,16,1,1,8
PB017K26,5,287,AS,exp,42,←,left,←,0.8250594999990426,True,15,1,0,8
PB017K26,5,288,AS,exp,47,→,right,→,0.5336985999892931,True,15,1,0,8
PB017K26,5,289,AS,exp,50,↑,up,↑,0.47120020000147633,True,14,1,0,8
PB017K26,5,290,AS,exp,48,↓,down,↓,0.7020835999865085,True,14,1,0,8
PB017K26,5,291,AS,exp,35,↑,up,↑,0.4268984000082128,True,13,1,0,8
PB017K26,5,292,AS,exp,45,↓,right,→,0.591170300001977,False,13,-1,1,9
PB017K26,5,293,AS,exp,46,→,right,→,0.6577820999955293,True,14,-1,0,9
PB017K26,5,294,AS,exp,42,↑,up,↑,0.4395127999887336,True,14,1,1,10
PB017K26,5,295,AS,exp,41,↓,down,↓,0.6668530000024475,True,13,1,0,10
PB017K26,5,296,AS,exp,38,←,left,←,0.7021112999937031,True,13,1,0,10
PB017K26,5,297,AS,exp,34,↓,down,↓,0.6724701999919489,True,12,1,0,10
PB017K26,5,298,AS,exp,28,←,left,←,0.45625059999292716,True,12,1,0,10
PB017K26,5,299,AS,exp,39,→,right,→,0.6095186000165995,True,11,1,0,10
PB017K26,5,300,AS,exp,33,←,left,←,0.5147245999833103,True,11,1,0,10
PB017K26,5,301,AS,exp,30,↓,right,→,0.7130597000068519,False,10,-1,1,11
PB017K26,5,302,AS,exp,50,←,left,←,0.46602019999409094,True,11,-1,0,11
PB017K26,5,303,AS,exp,34,↑,up,↑,0.5134763999958523,True,11,1,1,12
PB017K26,5,304,AS,exp,37,←,left,←,0.5335884999949485,True,10,1,0,12
PB017K26,5,305,AS,exp,44,→,left,←,0.8274605000042357,False,10,-1,1,13
PB017K26,5,306,AS,exp,41,↑,left,←,1.0333632999972906,False,11,-1,0,13
PB017K26,5,307,AS,exp,49,↓,right,→,0.6425126999965869,False,12,-1,0,13
PB017K26,5,308,AS,exp,32,←,left,←,0.5143204999912996,True,13,-1,0,13
PB017K26,5,309,AS,exp,37,→,left,←,0.7449855000013486,False,13,-1,0,13
PB017K26,5,310,AS,exp,37,←,left,←,0.5674887000059243,True,14,-1,0,13
PB017K26,5,311,AS,exp,33,↑,up,↑,0.4876896000059787,True,14,1,1,14
PB017K26,6,312,PS,intra_train,37,←,left,←,0.5966715000104159,True,16,-,-,-
PB017K26,6,313,PS,intra_train,48,↑,up,↑,0.5710946999897715,True,16,-,-,-
PB017K26,6,314,PS,intra_train,35,←,left,←,0.510894000006374,True,16,-,-,-
PB017K26,6,315,PS,intra_train,40,↓,left,←,0.6930273000034504,False,16,-,-,-
PB017K26,6,316,PS,intra_train,29,←,left,←,0.4874738000216894,True,16,-,-,-
PB017K26,6,317,PS,exp,46,→,right,→,0.5399963000090793,True,11,0,0,0
PB017K26,6,318,PS,exp,37,↑,up,↑,0.5799660000193398,True,11,1,0,0
PB017K26,6,319,PS,exp,33,←,left,←,0.45896479999646544,True,10,1,0,0
PB017K26,6,320,PS,exp,44,→,right,→,0.5004201999981888,True,10,1,0,0
PB017K26,6,321,PS,exp,48,↓,down,↓,0.8005662999930792,True,9,1,0,0
PB017K26,6,322,PS,exp,28,↑,up,↑,0.4504070999973919,True,9,1,0,0
PB017K26,6,323,PS,exp,28,↓,down,↓,0.824034399993252,True,8,1,0,0
PB017K26,6,324,PS,exp,27,←,down,↓,0.8138890999834985,False,8,-1,1,1
PB017K26,6,325,PS,exp,34,↑,up,↑,0.42500240000663325,True,9,-1,0,1
PB017K26,6,326,PS,exp,32,↓,down,↓,0.7123323999985587,True,9,1,1,2
PB017K26,6,327,PS,exp,37,↑,up,↑,0.5795856000040658,True,8,1,0,2
PB017K26,6,328,PS,exp,49,←,right,→,0.7954199000087101,False,8,-1,1,3
PB017K26,6,329,PS,exp,33,→,right,→,0.4005079000198748,True,9,-1,0,3
PB017K26,6,330,PS,exp,38,↓,down,↓,0.6595166000188328,True,9,1,1,4
PB017K26,6,331,PS,exp,46,↑,up,↑,0.4731372999958694,True,8,1,0,4
PB017K26,6,332,PS,exp,37,↓,right,→,0.49884539999766275,False,8,-1,1,5
PB017K26,6,333,PS,exp,25,←,left,←,0.589731500018388,True,9,-1,0,5
PB017K26,6,334,PS,exp,40,↓,down,↓,0.8880368999962229,True,9,1,1,6
PB017K26,6,335,PS,exp,32,↑,up,↑,0.5310078999900725,True,8,1,0,6
PB017K26,6,336,PS,exp,31,↓,right,→,0.5837449000100605,False,8,-1,1,7
PB017K26,6,337,PS,exp,47,→,right,→,0.47711020000861026,True,9,-1,0,7
PB017K26,6,338,PS,exp,50,←,right,→,0.5666563999839127,False,9,-1,0,7
PB017K26,6,339,PS,exp,49,→,right,→,0.4592634000000544,True,10,-1,0,7
PB017K26,6,340,PS,exp,26,↑,right,→,0.5946886999881826,False,10,-1,0,7
PB017K26,6,341,PS,exp,41,↓,down,↓,0.6636036999989301,True,11,-1,0,7
PB017K26,6,342,PS,exp,36,←,right,→,0.5400026999996044,False,11,-1,0,7
PB017K26,6,343,PS,exp,28,→,right,→,0.4143738000129815,True,12,-1,0,7
PB017K26,6,344,PS,exp,30,↓,down,↓,0.6961687000002712,True,12,1,1,8
PB017K26,6,345,PS,exp,38,↑,right,→,0.6040521000104491,False,11,-1,1,9
PB017K26,6,346,PS,exp,36,↓,down,↓,0.8100532999960706,True,12,-1,0,9
PB017K26,6,347,PS,exp,47,↑,up,↑,0.6544064999907278,True,12,1,1,10
PB017K26,6,348,PS,exp,32,←,left,←,0.5947924999927636,True,11,1,0,10
PB017K26,6,349,PS,exp,27,↑,up,↑,0.5967112999933306,True,11,1,0,10
PB017K26,6,350,PS,exp,45,↓,down,↓,0.7845017999934498,True,10,1,0,10
PB017K26,6,351,PS,exp,38,←,left,←,0.7873550000076648,True,10,1,0,10
PB017K26,6,352,PS,exp,38,↑,up,↑,0.5738474000245333,True,9,1,0,10
PB017K26,6,353,PS,exp,26,→,right,→,0.5475766000163276,True,9,1,0,10
PB017K26,6,354,PS,exp,32,←,left,←,1.0422994999971706,True,8,1,0,10
PB017K26,6,355,PS,exp,37,↑,up,↑,0.5933892999892123,True,8,1,0,10
PB017K26,6,356,PS,exp,37,↓,down,↓,0.8332347999967169,True,7,1,0,10
PB017K26,6,357,PS,exp,49,→,left,←,0.7264391999924555,False,7,-1,1,11
PB017K26,6,358,PS,exp,42,↑,left,←,0.7707503999990877,False,8,-1,0,11
PB017K26,6,359,PS,exp,35,→,left,←,0.6364658999955282,False,9,-1,0,11
PB017K26,6,360,PS,exp,25,←,right,→,0.8985226000077091,False,10,-1,0,11
PB017K26,6,361,PS,exp,43,↑,left,←,0.8380891999986488,False,11,-1,0,11
PB017K26,6,362,PS,exp,29,→,right,→,0.7247632000071462,True,12,-1,0,11
PB017K26,6,363,PS,exp,26,←,left,←,0.4545955999928992,True,12,1,1,12
PB017K26,6,364,PS,exp,50,↑,left,←,0.8005406999727711,False,11,-1,1,13
PB017K26,6,365,PS,exp,37,→,right,→,0.48064049999811687,True,12,-1,0,13
PB017K26,6,366,PS,exp,43,↓,down,↓,0.7213940000219736,True,12,1,1,14
PB017K26,7,367,PS,intra_train,29,→,right,→,0.46673110002302565,True,16,-,-,-
PB017K26,7,368,PS,intra_train,48,↓,down,↓,0.6891160999948625,True,16,-,-,-
PB017K26,7,369,PS,intra_train,34,←,left,←,0.48621070000808686,True,16,-,-,-
PB017K26,7,370,PS,intra_train,27,→,right,→,0.48747419999563135,True,16,-,-,-
PB017K26,7,371,PS,intra_train,30,↑,up,↑,0.5866347000119276,True,16,-,-,-
PB017K26,7,372,PS,exp,28,↓,down,↓,0.7131491999898572,True,11,0,0,0
PB017K26,7,373,PS,exp,47,→,right,→,0.5238331999862567,True,11,1,0,0
PB017K26,7,374,PS,exp,46,↓,left,←,0.6961292000196408,False,10,-1,1,1
PB017K26,7,375,PS,exp,45,←,left,←,1.0180265000090003,True,11,-1,0,1
PB017K26,7,376,PS,exp,25,→,right,→,0.5903987000056077,True,11,1,1,2
PB017K26,7,377,PS,exp,32,←,left,←,0.4790171000058763,True,10,1,0,2
PB017K26,7,378,PS,exp,26,↓,right,→,0.36417259997688234,False,10,-1,1,3
PB017K26,7,379,PS,exp,28,↑,up,↑,0.6224469000007957,True,11,-1,0,3
PB017K26,7,380,PS,exp,28,←,left,←,0.6483083000057377,True,11,1,1,4
PB017K26,7,381,PS,exp,31,↓,down,↓,0.7006689000118058,True,10,1,0,4
PB017K26,7,382,PS,exp,36,←,left,←,0.5752954999916255,True,10,1,0,4
PB017K26,7,383,PS,exp,40,→,left,←,0.6644244000199251,False,9,-1,1,5
PB017K26,7,384,PS,exp,32,←,left,←,0.6283404999994673,True,10,-1,0,5
PB017K26,7,385,PS,exp,43,↑,up,↑,0.5088447000016458,True,10,1,1,6
PB017K26,7,386,PS,exp,35,→,right,→,0.5394578000123147,True,9,1,0,6
PB017K26,7,387,PS,exp,30,↓,down,↓,0.7404962000146043,True,9,1,0,6
PB017K26,7,388,PS,exp,38,↑,down,↓,1.0449914000055287,False,8,-1,1,7
PB017K26,7,389,PS,exp,39,←,left,←,0.4956845999986399,True,9,-1,0,7
PB017K26,7,390,PS,exp,46,→,right,→,0.8603622000082396,True,9,1,1,8
PB017K26,7,391,PS,exp,28,↑,left,←,0.7528082000208087,False,8,-1,1,9
PB017K26,7,392,PS,exp,27,←,left,←,0.6691985000215936,True,9,-1,0,9
PB017K26,7,393,PS,exp,34,↑,up,↑,0.5001821999903768,True,9,1,1,10
PB017K26,7,394,PS,exp,49,→,right,→,0.5344183999986853,True,8,1,0,10
PB017K26,7,395,PS,exp,38,←,left,←,0.5815597999899182,True,8,1,0,10
PB017K26,7,396,PS,exp,48,↑,right,→,0.562179800006561,False,7,-1,1,11
PB017K26,7,397,PS,exp,25,→,down,↓,1.4545132000057492,False,8,-1,0,11
PB017K26,7,398,PS,exp,48,↑,up,↑,0.5873161999916192,True,9,-1,0,11
PB017K26,7,399,PS,exp,45,↓,down,↓,0.7555858999839984,True,9,1,1,12
PB017K26,7,400,PS,exp,30,←,left,←,0.4835068999964278,True,8,1,0,12
PB017K26,7,401,PS,exp,27,↑,up,↑,0.4275107999856118,True,8,1,0,12
PB017K26,7,402,PS,exp,29,↓,left,←,0.9035008999926504,False,7,-1,1,13
PB017K26,7,403,PS,exp,45,←,left,←,0.6842074999876786,True,8,-1,0,13
PB017K26,7,404,PS,exp,29,↑,right,→,0.8027807000034954,False,8,-1,0,13
PB017K26,7,405,PS,exp,30,←,left,←,0.5550045999989379,True,9,-1,0,13
PB017K26,7,406,PS,exp,35,→,left,←,0.6088174000033177,False,9,-1,0,13
PB017K26,7,407,PS,exp,38,↓,left,←,0.5209782999882009,False,10,-1,0,13
PB017K26,7,408,PS,exp,27,←,left,←,0.785612100007711,True,11,-1,0,13
PB017K26,7,409,PS,exp,38,→,right,→,0.8030961999902502,True,11,1,1,14
PB017K26,8,410,AS,intra_train,44,↑,up,↑,0.7289030000101775,True,28,-,-,-
PB017K26,8,411,AS,intra_train,31,↓,down,↓,0.9052832000015769,True,28,-,-,-
PB017K26,8,412,AS,intra_train,45,→,right,→,0.6840140999993309,True,28,-,-,-
PB017K26,8,413,AS,intra_train,46,←,left,←,0.8207481999997981,True,28,-,-,-
PB017K26,8,414,AS,intra_train,39,↑,up,↑,0.7539813999901526,True,28,-,-,-
PB017K26,8,415,AS,exp,44,→,right,→,0.6335329000139609,True,19,0,0,0
PB017K26,8,416,AS,exp,48,←,left,←,0.7399898000003304,True,19,1,0,0
PB017K26,8,417,AS,exp,46,↑,up,↑,0.73482939999667,True,18,1,0,0
PB017K26,8,418,AS,exp,26,↓,up,↑,0.6982476999983191,False,18,-1,1,1
PB017K26,8,419,AS,exp,29,↑,up,↑,0.6465691999765113,True,19,-1,0,1
PB017K26,8,420,AS,exp,38,→,right,→,0.693630599998869,True,19,1,1,2
PB017K26,8,421,AS,exp,45,↓,down,↓,0.9124623000097927,True,18,1,0,2
PB017K26,8,422,AS,exp,29,←,left,←,0.7798374000121839,True,18,1,0,2
PB017K26,8,423,AS,exp,30,↑,up,↑,0.6311092000105418,True,17,1,0,2
PB017K26,8,424,AS,exp,27,←,left,←,0.5792074000055436,True,17,1,0,2
PB017K26,8,425,AS,exp,43,↓,down,↓,0.9235174999921583,True,16,1,0,2
PB017K26,8,426,AS,exp,26,→,right,→,0.4500038000114728,True,16,1,0,2
PB017K26,8,427,AS,exp,32,↓,down,↓,0.8539471999974921,True,15,1,0,2
PB017K26,8,428,AS,exp,44,←,left,←,0.9552132999815512,True,15,1,0,2
PB017K26,8,429,AS,exp,40,↑,up,↑,0.46940850000828505,True,14,1,0,2
PB017K26,8,430,AS,exp,43,←,left,←,0.48735940002370626,True,14,1,0,2
PB017K26,8,431,AS,exp,36,→,right,→,0.5376435000216588,True,13,1,0,2
PB017K26,8,432,AS,exp,36,↓,down,↓,0.9546960000006948,True,13,1,0,2
PB017K26,8,433,AS,exp,33,↑,up,↑,0.40187739999964833,True,12,1,0,2
PB017K26,8,434,AS,exp,34,→,right,→,0.6310091999766883,True,12,1,0,2
PB017K26,8,435,AS,exp,49,←,left,←,0.8761917999945581,True,11,1,0,2
PB017K26,8,436,AS,exp,29,↓,up,↑,0.7436588999989908,False,11,-1,1,3
PB017K26,8,437,AS,exp,31,↑,up,↑,0.6622082999965642,True,12,-1,0,3
PB017K26,8,438,AS,exp,32,→,left,←,0.7952801999927033,False,12,-1,0,3
PB017K26,8,439,AS,exp,33,←,left,←,0.44985239999368787,True,13,-1,0,3
PB017K26,8,440,AS,exp,43,↑,up,↑,0.6525360000086948,True,13,1,1,4
PB017K26,8,441,AS,exp,43,→,left,←,0.8152997999859508,False,12,-1,1,5
PB017K26,8,442,AS,exp,44,←,left,←,0.5124185000022408,True,13,-1,0,5
PB017K26,8,443,AS,exp,33,→,right,→,0.6242479000065941,True,13,1,1,6
PB017K26,8,444,AS,exp,26,←,left,←,0.5904205999977421,True,12,1,0,6
PB017K26,8,445,AS,exp,40,↑,up,↑,0.547992100007832,True,12,1,0,6
PB017K26,8,446,AS,exp,43,→,right,→,0.4742644000216387,True,11,1,0,6
PB017K26,8,447,AS,exp,48,↓,down,↓,0.7134362999931909,True,11,1,0,6
PB017K26,8,448,AS,exp,36,→,left,←,0.5586929999990389,False,10,-1,1,7
PB017K26,8,449,AS,exp,29,←,left,←,0.5741962000029162,True,11,-1,0,7
PB017K26,8,450,AS,exp,50,→,right,→,0.46889739998732693,True,11,1,1,8
PB017K26,8,451,AS,exp,34,↓,down,↓,0.6826078000012785,True,10,1,0,8
PB017K26,8,452,AS,exp,28,→,right,→,0.6612255000218283,True,10,1,0,8
PB017K26,8,453,AS,exp,30,↑,up,↑,0.48099380001076497,True,9,1,0,8
PB017K26,8,454,AS,exp,41,←,left,←,0.6582504999823868,True,9,1,0,8
PB017K26,8,455,AS,exp,49,↑,up,↑,0.527631900011329,True,8,1,0,8
PB017K26,8,456,AS,exp,45,←,left,←,0.6824732999957632,True,8,1,0,8
PB017K26,8,457,AS,exp,48,↑,up,↑,0.44229180002002977,True,7,1,0,8
PB017K26,8,458,AS,exp,50,→,left,←,0.6107113999896683,False,7,-1,1,9
PB017K26,8,459,AS,exp,27,←,left,←,0.5516652000078466,True,8,-1,0,9
PB017K26,8,460,AS,exp,40,→,right,→,0.499155299999984,True,8,1,1,10
PB017K26,8,461,AS,exp,46,↓,up,↑,0.6819213999842759,False,7,-1,1,11
PB017K26,8,462,AS,exp,36,←,up,↑,0.8740695000160486,False,8,-1,0,11
PB017K26,8,463,AS,exp,44,↑,up,↑,0.5400192999804858,True,9,-1,0,11
PB017K26,8,464,AS,exp,37,←,left,←,0.6337593999924138,True,9,1,1,12
PB017K26,8,465,AS,exp,27,↓,up,↑,0.5037729000032414,False,8,-1,1,13
PB017K26,8,466,AS,exp,35,→,right,→,0.5547420000075363,True,9,-1,0,13
PB017K26,8,467,AS,exp,40,←,left,←,0.6396028000162914,True,9,1,1,14
