PART_ID,Block_no,Trial_no,Block_type,Trial_type,CSI,Stim_letter,Key_pressed,letter_choose,Rt,Corr,Stimulus Time,Level,Reversal,Revs_count
PB016K23,1,1,PS,train,50,←,no_key,no_letter,-1.0,False,30,-,-,-
PB016K23,1,2,PS,train,30,↓,down,↓,0.9856322999999065,True,30,-,-,-
PB016K23,1,3,PS,train,28,↑,up,↑,1.0118053000001055,True,30,-,-,-
PB016K23,1,4,PS,train,47,↓,down,↓,0.8697948999997607,True,30,-,-,-
PB016K23,1,5,PS,train,28,↑,up,↑,0.7483047000000624,True,30,-,-,-
PB016K23,1,6,PS,train,32,↓,down,↓,0.6336522999999943,True,30,-,-,-
PB016K23,1,7,PS,train,46,←,left,←,0.6721395999998094,True,30,-,-,-
PB016K23,1,8,PS,train,27,→,right,→,0.6337217999998757,True,30,-,-,-
PB016K23,1,9,PS,train,38,←,up,↑,0.8441424999996343,False,30,-,-,-
PB016K23,1,10,PS,train,45,↑,up,↑,0.6338485999999648,True,30,-,-,-
PB016K23,2,11,AS,train,37,↓,down,↓,1.0545543000002908,True,45,-,-,-
PB016K23,2,12,AS,train,35,←,left,←,0.7506553999996868,True,45,-,-,-
PB016K23,2,13,AS,train,32,↓,down,↓,1.1369309000001522,True,45,-,-,-
PB016K23,2,14,AS,train,37,→,right,→,0.6510585000000901,True,45,-,-,-
PB016K23,2,15,AS,train,48,←,left,←,0.5343901000001097,True,45,-,-,-
PB016K23,2,16,AS,train,48,↓,down,↓,0.8504201999999168,True,45,-,-,-
PB016K23,2,17,AS,train,28,↑,up,↑,0.7178487999999561,True,45,-,-,-
PB016K23,2,18,AS,train,36,↓,down,↓,0.8006710999998177,True,45,-,-,-
PB016K23,2,19,AS,train,36,←,left,←,0.4846509999997579,True,45,-,-,-
PB016K23,2,20,AS,train,31,→,right,→,0.7503664999999273,True,45,-,-,-
PB016K23,-,21,PS,adaptive,27,↑,up,↑,0.9185979999997471,True,10,0,0,0
PB016K23,-,22,PS,adaptive,29,←,left,←,0.5048917999997684,True,10,1,0,0
PB016K23,-,23,PS,adaptive,26,↓,no_key,no_letter,-1.0,False,9,-1,1,1
PB016K23,-,24,PS,adaptive,49,↑,up,↑,0.6003278999996837,True,10,-1,0,1
PB016K23,-,25,PS,adaptive,41,↓,down,↓,0.5775852000001578,True,10,1,1,2
PB016K23,-,26,PS,adaptive,45,←,left,←,0.5590210999998817,True,9,1,0,2
PB016K23,-,27,PS,adaptive,27,→,up,↑,0.9538542000000234,False,9,-1,1,3
PB016K23,-,28,PS,adaptive,40,←,left,←,0.6028326999999081,True,10,-1,0,3
PB016K23,-,29,PS,adaptive,41,↓,down,↓,0.48692510000000766,True,10,1,1,4
PB016K23,-,30,AS,adaptive,37,←,left,←,0.5322856000002503,True,20,0,0,0
PB016K23,-,31,AS,adaptive,48,↑,up,↑,0.8462976999999228,True,20,1,0,0
PB016K23,-,32,AS,adaptive,41,↓,down,↓,0.561938199999986,True,19,1,0,0
PB016K23,-,33,AS,adaptive,46,↑,up,↑,0.5529427000001306,True,19,1,0,0
PB016K23,-,34,AS,adaptive,29,→,left,←,0.552907100000084,False,18,-1,1,1
PB016K23,-,35,AS,adaptive,35,←,right,→,0.6804329999999936,False,19,-1,0,1
PB016K23,-,36,AS,adaptive,25,↑,up,↑,0.6416508000002068,True,20,-1,0,1
PB016K23,-,37,AS,adaptive,45,→,up,↑,1.4280318999999508,False,20,-1,0,1
PB016K23,-,38,AS,adaptive,42,←,left,←,0.4670737999999801,True,21,-1,0,1
PB016K23,-,39,AS,adaptive,42,↓,down,↓,0.6240036999997756,True,21,1,1,2
PB016K23,-,40,AS,adaptive,42,→,right,→,0.7367458000003353,True,20,1,0,2
PB016K23,-,41,AS,adaptive,43,↓,up,↑,0.7261658000002171,False,20,-1,1,3
PB016K23,-,42,AS,adaptive,34,←,right,→,1.7940921000003982,False,21,-1,0,3
PB016K23,-,43,AS,adaptive,43,↓,up,↑,0.7494421000001239,False,22,-1,0,3
PB016K23,-,44,AS,adaptive,26,→,left,←,0.5534337000003688,False,23,-1,0,3
PB016K23,-,45,AS,adaptive,50,↑,up,↑,0.6419479999999567,True,24,-1,0,3
PB016K23,-,46,AS,adaptive,45,←,left,←,0.6168595000003734,True,24,1,1,4
PB016K23,1,47,PS,intra_train,36,↓,down,↓,0.5814356999999291,True,13,-,-,-
PB016K23,1,48,PS,intra_train,29,→,right,→,0.6065364000000955,True,13,-,-,-
PB016K23,1,49,PS,intra_train,25,↓,down,↓,0.8098833999997623,True,13,-,-,-
PB016K23,1,50,PS,intra_train,26,→,right,→,0.6486303000001499,True,13,-,-,-
PB016K23,1,51,PS,intra_train,46,↑,up,↑,0.5412771999999677,True,13,-,-,-
PB016K23,1,52,PS,exp,34,←,left,←,0.5404108000002452,True,9,0,0,0
PB016K23,1,53,PS,exp,27,↑,right,→,0.8799733999999262,False,9,-1,0,0
PB016K23,1,54,PS,exp,48,←,left,←,0.4712570000001506,True,10,-1,0,0
PB016K23,1,55,PS,exp,47,↑,right,→,0.6248190999999679,False,10,-1,0,0
PB016K23,1,56,PS,exp,34,→,left,←,0.5355337000000873,False,11,-1,0,0
PB016K23,1,57,PS,exp,46,↑,left,←,0.6164745999999468,False,12,-1,0,0
PB016K23,1,58,PS,exp,45,↓,down,↓,1.0931272999996509,True,13,-1,0,0
PB016K23,1,59,PS,exp,44,←,left,←,0.5734523000000991,True,13,1,1,1
PB016K23,1,60,PS,exp,49,↓,down,↓,0.6540839999997843,True,12,1,0,1
PB016K23,1,61,PS,exp,34,↑,down,↓,1.4753081000003476,False,12,-1,1,2
PB016K23,1,62,PS,exp,28,→,right,→,0.5413776000000325,True,13,-1,0,2
PB016K23,1,63,PS,exp,33,↑,up,↑,1.0432467000000543,True,13,1,1,3
PB016K23,1,64,PS,exp,28,←,left,←,0.5520584000000781,True,12,1,0,3
PB016K23,1,65,PS,exp,46,→,right,→,0.7728166000001693,True,12,1,0,3
PB016K23,1,66,PS,exp,34,←,left,←,0.48288010000032955,True,11,1,0,3
PB016K23,1,67,PS,exp,29,↑,up,↑,0.6497973000000457,True,11,1,0,3
PB016K23,1,68,PS,exp,49,↓,down,↓,0.752197199999955,True,10,1,0,3
PB016K23,1,69,PS,exp,42,→,left,←,0.8971756000000823,False,10,-1,1,4
PB016K23,1,70,PS,exp,39,↓,left,←,0.6214519999998629,False,11,-1,0,4
PB016K23,1,71,PS,exp,48,↑,up,↑,0.591559099999813,True,12,-1,0,4
PB016K23,1,72,PS,exp,42,←,left,←,0.5162645999998858,True,12,1,1,5
PB016K23,1,73,PS,exp,40,↑,up,↑,0.586602800000037,True,11,1,0,5
PB016K23,1,74,PS,exp,44,←,left,←,0.4382178999999269,True,11,1,0,5
PB016K23,1,75,PS,exp,32,↓,up,↑,0.9629319000000578,False,10,-1,1,6
PB016K23,1,76,PS,exp,28,→,right,→,0.4693984000000455,True,11,-1,0,6
PB016K23,1,77,PS,exp,31,←,right,→,0.5354873999999654,False,11,-1,0,6
PB016K23,1,78,PS,exp,40,↑,up,↑,0.5197110000003704,True,12,-1,0,6
PB016K23,1,79,PS,exp,28,→,right,→,1.0840471000001344,True,12,1,1,7
PB016K23,1,80,PS,exp,49,↓,down,↓,0.7923808999998982,True,11,1,0,7
PB016K23,1,81,PS,exp,30,→,right,→,0.6199270999995861,True,11,1,0,7
PB016K23,1,82,PS,exp,26,↓,left,←,0.5904479999999239,False,10,-1,1,8
PB016K23,1,83,PS,exp,42,↑,left,←,0.680734399999892,False,11,-1,0,8
PB016K23,1,84,PS,exp,43,↓,down,↓,0.6344825999999557,True,12,-1,0,8
PB016K23,1,85,PS,exp,46,←,left,←,0.5268764999996165,True,12,1,1,9
PB016K23,1,86,PS,exp,47,↑,right,→,0.6457020000002558,False,11,-1,1,10
PB016K23,1,87,PS,exp,27,→,right,→,0.5835039999997207,True,12,-1,0,10
PB016K23,1,88,PS,exp,50,↓,down,↓,0.6191709999998238,True,12,1,1,11
PB016K23,1,89,PS,exp,28,←,down,↓,0.6884451999999328,False,11,-1,1,12
PB016K23,1,90,PS,exp,42,↑,up,↑,0.5710300000000643,True,12,-1,0,12
PB016K23,1,91,PS,exp,35,↓,up,↑,0.6490857000003416,False,12,-1,0,12
PB016K23,1,92,PS,exp,47,←,left,←,0.455310400000144,True,13,-1,0,12
PB016K23,1,93,PS,exp,28,↓,down,↓,0.6686009000000013,True,13,1,1,13
PB016K23,1,94,PS,exp,34,↑,left,←,0.5516984000000775,False,12,-1,1,14
PB016K23,2,95,AS,intra_train,41,←,left,←,0.5671787000001132,True,34,-,-,-
PB016K23,2,96,AS,intra_train,47,↓,down,↓,0.923864599999888,True,34,-,-,-
PB016K23,2,97,AS,intra_train,42,↑,up,↑,0.8413841999999931,True,34,-,-,-
PB016K23,2,98,AS,intra_train,26,↓,left,←,1.1987400000002708,False,34,-,-,-
PB016K23,2,99,AS,intra_train,42,→,right,→,0.9509414999997716,True,34,-,-,-
PB016K23,2,100,AS,exp,50,↑,up,↑,0.5877566999997725,True,23,0,0,0
PB016K23,2,101,AS,exp,44,←,left,←,0.6104350999999042,True,23,1,0,0
PB016K23,2,102,AS,exp,50,→,right,→,0.6059123,True,22,1,0,0
PB016K23,2,103,AS,exp,28,←,right,→,0.637223400000039,False,22,-1,1,1
PB016K23,2,104,AS,exp,40,→,left,←,0.6374559000000772,False,23,-1,0,1
PB016K23,2,105,AS,exp,41,↑,up,↑,0.5168908999999076,True,24,-1,0,1
PB016K23,2,106,AS,exp,41,→,right,→,0.6393034000002444,True,24,1,1,2
PB016K23,2,107,AS,exp,38,←,left,←,0.8872004999998353,True,23,1,0,2
PB016K23,2,108,AS,exp,49,↓,down,↓,0.9776999999999134,True,23,1,0,2
PB016K23,2,109,AS,exp,26,←,right,→,0.5392886999998154,False,22,-1,1,3
PB016K23,2,110,AS,exp,50,→,right,→,0.7449181000001772,True,23,-1,0,3
PB016K23,2,111,AS,exp,40,←,left,←,0.6193471000001409,True,23,1,1,4
PB016K23,2,112,AS,exp,36,→,left,←,1.851843899999949,False,22,-1,1,5
PB016K23,2,113,AS,exp,47,↑,up,↑,0.6051060999998299,True,23,-1,0,5
PB016K23,2,114,AS,exp,49,↓,down,↓,0.9240027000000737,True,23,1,1,6
PB016K23,2,115,AS,exp,30,↑,up,↑,1.1130051000000094,True,22,1,0,6
PB016K23,2,116,AS,exp,32,↓,down,↓,0.6892763000000741,True,22,1,0,6
PB016K23,2,117,AS,exp,29,↑,up,↑,0.6479238000001715,True,21,1,0,6
PB016K23,2,118,AS,exp,44,←,left,←,0.8009226999997736,True,21,1,0,6
PB016K23,2,119,AS,exp,30,→,right,→,0.58158450000019,True,20,1,0,6
PB016K23,2,120,AS,exp,44,↑,up,↑,0.6995148999999401,True,20,1,0,6
PB016K23,2,121,AS,exp,37,↓,up,↑,0.8696251999999731,False,19,-1,1,7
PB016K23,2,122,AS,exp,45,→,right,→,0.7754790999997567,True,20,-1,0,7
PB016K23,2,123,AS,exp,33,↓,down,↓,0.8961998999998286,True,20,1,1,8
PB016K23,2,124,AS,exp,30,↑,up,↑,0.6393441000000166,True,19,1,0,8
PB016K23,2,125,AS,exp,47,←,left,←,0.7383707000003596,True,19,1,0,8
PB016K23,2,126,AS,exp,32,→,right,→,0.5149868000003153,True,18,1,0,8
PB016K23,2,127,AS,exp,45,←,left,←,0.6995680999998513,True,18,1,0,8
PB016K23,2,128,AS,exp,32,↑,up,↑,0.585893699999815,True,17,1,0,8
PB016K23,2,129,AS,exp,47,↓,down,↓,0.6987886000001708,True,17,1,0,8
PB016K23,2,130,AS,exp,40,←,left,←,0.7369421000003058,True,16,1,0,8
PB016K23,2,131,AS,exp,49,↓,down,↓,0.7423312000000806,True,16,1,0,8
PB016K23,2,132,AS,exp,41,←,left,←,0.5761124999999083,True,15,1,0,8
PB016K23,2,133,AS,exp,50,↑,down,↓,0.736456999999973,False,15,-1,1,9
PB016K23,2,134,AS,exp,35,←,left,←,0.6068958999999268,True,16,-1,0,9
PB016K23,2,135,AS,exp,39,→,right,→,0.8573349000002963,True,16,1,1,10
PB016K23,2,136,AS,exp,47,←,left,←,0.6319367999999486,True,15,1,0,10
PB016K23,2,137,AS,exp,45,→,left,←,0.8852953999999045,False,15,-1,1,11
PB016K23,2,138,AS,exp,31,↑,up,↑,0.5383603000000221,True,16,-1,0,11
PB016K23,2,139,AS,exp,32,←,right,→,0.859023900000011,False,16,-1,0,11
PB016K23,2,140,AS,exp,29,↓,left,←,0.897641399999884,False,17,-1,0,11
PB016K23,2,141,AS,exp,40,→,right,→,0.7429548999998588,True,18,-1,0,11
PB016K23,2,142,AS,exp,35,↓,down,↓,0.7343636999999035,True,18,1,1,12
PB016K23,2,143,AS,exp,40,←,right,→,0.6261925999997402,False,17,-1,1,13
PB016K23,2,144,AS,exp,32,↑,up,↑,0.7409241000000293,True,18,-1,0,13
PB016K23,2,145,AS,exp,27,←,left,←,0.7836136000000806,True,18,1,1,14
PB016K23,3,146,AS,intra_train,25,→,right,→,0.43449109999983193,True,34,-,-,-
PB016K23,3,147,AS,intra_train,50,←,right,→,0.6503971000001911,False,34,-,-,-
PB016K23,3,148,AS,intra_train,42,↓,down,↓,0.7005907999996452,True,34,-,-,-
PB016K23,3,149,AS,intra_train,33,→,no_key,no_letter,-1.0,False,34,-,-,-
PB016K23,3,150,AS,intra_train,35,←,left,←,0.7636330000000271,True,34,-,-,-
PB016K23,3,151,AS,exp,36,↑,up,↑,0.7111408999999185,True,23,0,0,0
PB016K23,3,152,AS,exp,34,↓,down,↓,0.8184449999998833,True,23,1,0,0
PB016K23,3,153,AS,exp,39,→,right,→,0.7204150999996273,True,22,1,0,0
PB016K23,3,154,AS,exp,32,↓,down,↓,0.6797862999997051,True,22,1,0,0
PB016K23,3,155,AS,exp,43,→,left,←,0.5437605000001895,False,21,-1,1,1
PB016K23,3,156,AS,exp,30,←,left,←,0.7188590000000659,True,22,-1,0,1
PB016K23,3,157,AS,exp,49,↓,down,↓,0.6318709000001945,True,22,1,1,2
PB016K23,3,158,AS,exp,43,←,left,←,0.5854590000003554,True,21,1,0,2
PB016K23,3,159,AS,exp,45,↑,down,↓,0.8671253999996225,False,21,-1,1,3
PB016K23,3,160,AS,exp,42,↓,right,→,1.8694346000002042,False,22,-1,0,3
PB016K23,3,161,AS,exp,42,←,right,→,0.5561023000000205,False,23,-1,0,3
PB016K23,3,162,AS,exp,42,→,right,→,0.6858382999998867,True,24,-1,0,3
PB016K23,3,163,AS,exp,28,↓,down,↓,0.6930112000000008,True,24,1,1,4
PB016K23,3,164,AS,exp,27,→,right,→,0.5767693999996482,True,23,1,0,4
PB016K23,3,165,AS,exp,49,↓,down,↓,0.7704178000003594,True,23,1,0,4
PB016K23,3,166,AS,exp,44,→,right,→,0.5993374999998196,True,22,1,0,4
PB016K23,3,167,AS,exp,39,↓,down,↓,0.6851525000001857,True,22,1,0,4
PB016K23,3,168,AS,exp,45,↑,up,↑,0.8204136000003928,True,21,1,0,4
PB016K23,3,169,AS,exp,42,↓,down,↓,0.6708929000001262,True,21,1,0,4
PB016K23,3,170,AS,exp,27,↑,up,↑,0.9654111999998349,True,20,1,0,4
PB016K23,3,171,AS,exp,49,→,right,→,0.7421180000001186,True,20,1,0,4
PB016K23,3,172,AS,exp,43,←,down,↓,1.0340250999997807,False,19,-1,1,5
PB016K23,3,173,AS,exp,50,→,right,→,0.8833567000001494,True,20,-1,0,5
PB016K23,3,174,AS,exp,43,↓,down,↓,0.5823294000001624,True,20,1,1,6
PB016K23,3,175,AS,exp,50,→,right,→,1.227272599999651,True,19,1,0,6
PB016K23,3,176,AS,exp,26,←,left,←,0.6898818999998184,True,19,1,0,6
PB016K23,3,177,AS,exp,45,→,right,→,0.5814436000000569,True,18,1,0,6
PB016K23,3,178,AS,exp,29,↓,left,←,0.8359934000000067,False,18,-1,1,7
PB016K23,3,179,AS,exp,34,→,right,→,0.5572116999996979,True,19,-1,0,7
PB016K23,3,180,AS,exp,38,↑,up,↑,0.953200200000083,True,19,1,1,8
PB016K23,3,181,AS,exp,35,←,left,←,0.610464100000172,True,18,1,0,8
PB016K23,3,182,AS,exp,27,↓,down,↓,0.6019790000000285,True,18,1,0,8
PB016K23,3,183,AS,exp,39,←,left,←,0.5222383000000264,True,17,1,0,8
PB016K23,3,184,AS,exp,36,→,right,→,0.41718740000032994,True,17,1,0,8
PB016K23,3,185,AS,exp,44,←,left,←,0.5246099000000868,True,16,1,0,8
PB016K23,3,186,AS,exp,48,↓,left,←,0.7209622000000309,False,16,-1,1,9
PB016K23,3,187,AS,exp,36,→,left,←,0.5844059000000925,False,17,-1,0,9
PB016K23,3,188,AS,exp,35,↑,up,↑,0.49930319999975836,True,18,-1,0,9
PB016K23,3,189,AS,exp,47,←,no_key,no_letter,-1.0,False,18,-1,0,9
PB016K23,3,190,AS,exp,48,↓,left,←,0.8158589999998185,False,19,-1,0,9
PB016K23,3,191,AS,exp,30,←,left,←,0.5329008000003341,True,20,-1,0,9
PB016K23,3,192,AS,exp,25,→,left,←,0.544703600000048,False,20,-1,0,9
PB016K23,3,193,AS,exp,44,↓,up,↑,0.7112007000000631,False,21,-1,0,9
PB016K23,3,194,AS,exp,36,↑,up,↑,0.5438217000000805,True,22,-1,0,9
PB016K23,3,195,AS,exp,30,↓,down,↓,0.8973489999998492,True,22,1,1,10
PB016K23,3,196,AS,exp,45,→,right,→,0.9807965999998487,True,21,1,0,10
PB016K23,3,197,AS,exp,30,↑,left,←,0.8640967999999702,False,21,-1,1,11
PB016K23,3,198,AS,exp,44,→,right,→,0.702161900000192,True,22,-1,0,11
PB016K23,3,199,AS,exp,49,↑,up,↑,0.6065724999998565,True,22,1,1,12
PB016K23,3,200,AS,exp,25,↓,down,↓,0.892895899999985,True,21,1,0,12
PB016K23,3,201,AS,exp,42,←,left,←,0.669241200000215,True,21,1,0,12
PB016K23,3,202,AS,exp,48,↑,up,↑,0.738510099999985,True,20,1,0,12
PB016K23,3,203,AS,exp,46,←,left,←,1.3843916999999237,True,20,1,0,12
PB016K23,3,204,AS,exp,26,→,right,→,0.6175359000003482,True,19,1,0,12
PB016K23,3,205,AS,exp,49,↑,up,↑,0.7679590000002463,True,19,1,0,12
PB016K23,3,206,AS,exp,27,←,left,←,0.6709546000001865,True,18,1,0,12
PB016K23,3,207,AS,exp,42,↑,left,←,0.7693905999999515,False,18,-1,1,13
PB016K23,3,208,AS,exp,37,→,left,←,0.7485323999999309,False,19,-1,0,13
PB016K23,3,209,AS,exp,43,↑,up,↑,0.5838703999997961,True,20,-1,0,13
PB016K23,3,210,AS,exp,39,←,left,←,0.6613330000000133,True,20,1,1,14
PB016K23,4,211,PS,intra_train,32,↑,left,←,1.568638700000065,False,13,-,-,-
PB016K23,4,212,PS,intra_train,46,↓,down,↓,0.7388928000000305,True,13,-,-,-
PB016K23,4,213,PS,intra_train,30,→,right,→,0.6049340999998094,True,13,-,-,-
PB016K23,4,214,PS,intra_train,44,←,left,←,0.5914269999998396,True,13,-,-,-
PB016K23,4,215,PS,intra_train,27,→,right,→,0.6540941999996903,True,13,-,-,-
PB016K23,4,216,PS,exp,29,↓,down,↓,0.6782121000001098,True,9,0,0,0
PB016K23,4,217,PS,exp,41,←,right,→,0.7874434000000292,False,9,-1,0,0
PB016K23,4,218,PS,exp,35,→,right,→,0.8291729000002306,True,10,-1,0,0
PB016K23,4,219,PS,exp,28,↑,up,↑,0.5066225000000486,True,10,1,1,1
PB016K23,4,220,PS,exp,36,→,down,↓,0.796924200000376,False,9,-1,1,2
PB016K23,4,221,PS,exp,33,←,left,←,0.469706099999712,True,10,-1,0,2
PB016K23,4,222,PS,exp,35,↓,down,↓,0.651817999999821,True,10,1,1,3
PB016K23,4,223,PS,exp,33,→,right,→,0.5261142999997901,True,9,1,0,3
PB016K23,4,224,PS,exp,47,↑,up,↑,0.8670584999999846,True,9,1,0,3
PB016K23,4,225,PS,exp,42,↓,down,↓,0.3949664000001576,True,8,1,0,3
PB016K23,4,226,PS,exp,28,→,right,→,0.6201654999999846,True,8,1,0,3
PB016K23,4,227,PS,exp,28,←,right,→,0.6681563000001915,False,7,-1,1,4
PB016K23,4,228,PS,exp,36,↑,down,↓,0.6275202000001627,False,8,-1,0,4
PB016K23,4,229,PS,exp,39,→,right,→,0.48601129999997283,True,9,-1,0,4
PB016K23,4,230,PS,exp,49,↑,right,→,0.9097600000000057,False,9,-1,0,4
PB016K23,4,231,PS,exp,36,←,left,←,0.5456357000002754,True,10,-1,0,4
PB016K23,4,232,PS,exp,50,↑,up,↑,0.5394641999996566,True,10,1,1,5
PB016K23,4,233,PS,exp,44,↓,down,↓,0.9728861999997207,True,9,1,0,5
PB016K23,4,234,PS,exp,49,←,left,←,0.5730416000001242,True,9,1,0,5
PB016K23,4,235,PS,exp,25,→,right,→,0.5253305000001092,True,8,1,0,5
PB016K23,4,236,PS,exp,28,↓,down,↓,0.6270103000001654,True,8,1,0,5
PB016K23,4,237,PS,exp,34,→,down,↓,0.5149727000002713,False,7,-1,1,6
PB016K23,4,238,PS,exp,39,↑,up,↑,0.45157819999985804,True,8,-1,0,6
PB016K23,4,239,PS,exp,27,→,right,→,0.5563023999998222,True,8,1,1,7
PB016K23,4,240,PS,exp,30,↓,down,↓,0.5722753000000012,True,7,1,0,7
PB016K23,4,241,PS,exp,29,↑,left,←,0.6014240999998037,False,7,-1,1,8
PB016K23,4,242,PS,exp,42,↓,down,↓,0.5635465999998814,True,8,-1,0,8
PB016K23,4,243,PS,exp,45,→,down,↓,0.6046084999998129,False,8,-1,0,8
PB016K23,4,244,PS,exp,25,↓,down,↓,0.726929200000086,True,9,-1,0,8
PB016K23,4,245,PS,exp,48,↑,up,↑,0.6032357999997657,True,9,1,1,9
PB016K23,4,246,PS,exp,34,←,left,←,0.5665705999999773,True,8,1,0,9
PB016K23,4,247,PS,exp,41,↓,down,↓,0.5689269999998032,True,8,1,0,9
PB016K23,4,248,PS,exp,49,→,right,→,0.5933627999997952,True,7,1,0,9
PB016K23,4,249,PS,exp,47,↑,up,↑,0.5504399000001285,True,7,1,0,9
PB016K23,4,250,PS,exp,36,↓,down,↓,0.7243357000002106,True,6,1,0,9
PB016K23,4,251,PS,exp,32,←,left,←,1.1921735000000808,True,6,1,0,9
PB016K23,4,252,PS,exp,34,↓,down,↓,0.5553343999999925,True,5,1,0,9
PB016K23,4,253,PS,exp,46,←,left,←,0.5146829000000253,True,5,1,0,9
PB016K23,4,254,PS,exp,44,↓,down,↓,0.6949971999997615,True,4,1,0,9
PB016K23,4,255,PS,exp,29,→,right,→,0.6986376999998356,True,4,1,0,9
PB016K23,4,256,PS,exp,46,↑,down,↓,0.5533741999997801,False,3,-1,1,10
PB016K23,4,257,PS,exp,36,→,right,→,0.805920100000094,True,4,-1,0,10
PB016K23,4,258,PS,exp,49,←,down,↓,0.46392340000011245,False,4,-1,0,10
PB016K23,4,259,PS,exp,35,→,left,←,0.4074393000000782,False,5,-1,0,10
PB016K23,4,260,PS,exp,45,↑,down,↓,0.9828074000001834,False,6,-1,0,10
PB016K23,4,261,PS,exp,44,→,right,→,0.6327835000001869,True,7,-1,0,10
PB016K23,4,262,PS,exp,45,←,left,←,0.5753574000000299,True,7,1,1,11
PB016K23,4,263,PS,exp,29,↑,right,→,0.5615889000000607,False,6,-1,1,12
PB016K23,4,264,PS,exp,39,→,left,←,0.5696692999999868,False,7,-1,0,12
PB016K23,4,265,PS,exp,25,←,right,→,0.5808278999998038,False,8,-1,0,12
PB016K23,4,266,PS,exp,27,↑,left,←,0.5837599000001319,False,9,-1,0,12
PB016K23,4,267,PS,exp,50,↓,left,←,0.6700273000001289,False,10,-1,0,12
PB016K23,4,268,PS,exp,47,→,right,→,0.6554135999999744,True,11,-1,0,12
PB016K23,4,269,PS,exp,48,↑,left,←,0.7124191999996583,False,11,-1,0,12
PB016K23,4,270,PS,exp,44,←,left,←,0.5676357000002099,True,12,-1,0,12
PB016K23,4,271,PS,exp,36,↑,up,↑,0.9635668000000805,True,12,1,1,13
PB016K23,4,272,PS,exp,30,→,up,↑,1.83404500000006,False,11,-1,1,14
PB016K23,5,273,PS,intra_train,29,↓,down,↓,1.0718858999998702,True,13,-,-,-
PB016K23,5,274,PS,intra_train,29,→,right,→,0.8713413000000401,True,13,-,-,-
PB016K23,5,275,PS,intra_train,33,←,left,←,0.42737769999985176,True,13,-,-,-
PB016K23,5,276,PS,intra_train,39,→,right,→,0.43620840000039607,True,13,-,-,-
PB016K23,5,277,PS,intra_train,49,↑,up,↑,0.5210058000002391,True,13,-,-,-
PB016K23,5,278,PS,exp,25,←,left,←,0.7017980000000534,True,9,0,0,0
PB016K23,5,279,PS,exp,46,→,right,→,0.5135436999999001,True,9,1,0,0
PB016K23,5,280,PS,exp,34,←,right,→,0.6204894000002241,False,8,-1,1,1
PB016K23,5,281,PS,exp,50,→,right,→,0.5187463000002026,True,9,-1,0,1
PB016K23,5,282,PS,exp,48,←,left,←,0.5547999999998865,True,9,1,1,2
PB016K23,5,283,PS,exp,39,↑,left,←,1.4219324999999117,False,8,-1,1,3
PB016K23,5,284,PS,exp,46,←,left,←,0.5584843000001456,True,9,-1,0,3
PB016K23,5,285,PS,exp,28,→,left,←,0.5987884000001031,False,9,-1,0,3
PB016K23,5,286,PS,exp,46,↑,up,↑,0.5070035000003372,True,10,-1,0,3
PB016K23,5,287,PS,exp,27,→,right,→,0.542057399999976,True,10,1,1,4
PB016K23,5,288,PS,exp,47,↓,down,↓,0.6663143999999193,True,9,1,0,4
PB016K23,5,289,PS,exp,48,←,down,↓,0.847319399999833,False,9,-1,1,5
PB016K23,5,290,PS,exp,40,↓,left,←,0.5048749000002317,False,10,-1,0,5
PB016K23,5,291,PS,exp,43,↑,up,↑,0.6314981000000444,True,11,-1,0,5
PB016K23,5,292,PS,exp,26,→,right,→,0.5692498999997042,True,11,1,1,6
PB016K23,5,293,PS,exp,42,↑,right,→,1.0124370999997154,False,10,-1,1,7
PB016K23,5,294,PS,exp,43,↓,down,↓,0.7213249999999789,True,11,-1,0,7
PB016K23,5,295,PS,exp,39,←,left,←,0.5346601999999621,True,11,1,1,8
PB016K23,5,296,PS,exp,42,↑,up,↑,0.7696498999998767,True,10,1,0,8
PB016K23,5,297,PS,exp,27,→,left,←,0.5562279000000672,False,10,-1,1,9
PB016K23,5,298,PS,exp,48,↑,down,↓,0.8548240999998598,False,11,-1,0,9
PB016K23,5,299,PS,exp,26,←,left,←,0.5601661999999124,True,12,-1,0,9
PB016K23,5,300,PS,exp,50,↑,up,↑,0.615668899999946,True,12,1,1,10
PB016K23,5,301,PS,exp,50,→,left,←,0.5892190999998093,False,11,-1,1,11
PB016K23,5,302,PS,exp,40,↑,right,→,0.6019853000002513,False,12,-1,0,11
PB016K23,5,303,PS,exp,41,↓,down,↓,0.6999158999997235,True,13,-1,0,11
PB016K23,5,304,PS,exp,37,←,down,↓,0.7085895999998684,False,13,-1,0,11
PB016K23,5,305,PS,exp,41,↑,up,↑,0.6911967999999433,True,14,-1,0,11
PB016K23,5,306,PS,exp,38,←,left,←,0.6516994999997223,True,14,1,1,12
PB016K23,5,307,PS,exp,36,↓,down,↓,0.6338227999999617,True,13,1,0,12
PB016K23,5,308,PS,exp,46,←,left,←,0.5989723000002414,True,13,1,0,12
PB016K23,5,309,PS,exp,32,→,right,→,0.5930680999999822,True,12,1,0,12
PB016K23,5,310,PS,exp,49,↓,down,↓,0.640309100000195,True,12,1,0,12
PB016K23,5,311,PS,exp,32,↑,up,↑,0.7010949999998957,True,11,1,0,12
PB016K23,5,312,PS,exp,41,↓,down,↓,0.6035881000002519,True,11,1,0,12
PB016K23,5,313,PS,exp,39,↑,down,↓,0.7254755999997542,False,10,-1,1,13
PB016K23,5,314,PS,exp,48,↓,down,↓,0.5339765000003354,True,11,-1,0,13
PB016K23,5,315,PS,exp,25,←,left,←,0.6257703999999649,True,11,1,1,14
PB016K23,6,316,AS,intra_train,49,↓,down,↓,1.0851294999997663,True,34,-,-,-
PB016K23,6,317,AS,intra_train,30,↑,up,↑,0.8207961000002797,True,34,-,-,-
PB016K23,6,318,AS,intra_train,28,←,no_key,no_letter,-1.0,False,34,-,-,-
PB016K23,6,319,AS,intra_train,36,↑,up,↑,1.5753694999998515,True,34,-,-,-
PB016K23,6,320,AS,intra_train,28,↓,down,↓,0.8153479000002335,True,34,-,-,-
PB016K23,6,321,AS,exp,48,←,left,←,0.5524209000000155,True,23,0,0,0
PB016K23,6,322,AS,exp,49,→,right,→,0.5636841999998978,True,23,1,0,0
PB016K23,6,323,AS,exp,39,←,left,←,0.4838206999997965,True,22,1,0,0
PB016K23,6,324,AS,exp,25,→,right,→,0.5412352999996983,True,22,1,0,0
PB016K23,6,325,AS,exp,32,←,right,→,0.5610919999999169,False,21,-1,1,1
PB016K23,6,326,AS,exp,41,↓,left,←,0.4504063999997925,False,22,-1,0,1
PB016K23,6,327,AS,exp,39,↑,up,↑,0.6844289000000572,True,23,-1,0,1
PB016K23,6,328,AS,exp,42,↓,down,↓,0.5546835000000101,True,23,1,1,2
PB016K23,6,329,AS,exp,41,→,right,→,0.7676203000000896,True,22,1,0,2
PB016K23,6,330,AS,exp,49,↑,up,↑,0.6091292000000976,True,22,1,0,2
PB016K23,6,331,AS,exp,34,→,right,→,0.5672867999996924,True,21,1,0,2
PB016K23,6,332,AS,exp,25,↓,down,↓,0.8048196999998254,True,21,1,0,2
PB016K23,6,333,AS,exp,28,↑,down,↓,0.8969338000001699,False,20,-1,1,3
PB016K23,6,334,AS,exp,36,↓,up,↑,1.0370356999997057,False,21,-1,0,3
PB016K23,6,335,AS,exp,43,←,left,←,0.6749282999999195,True,22,-1,0,3
PB016K23,6,336,AS,exp,33,↑,up,↑,0.584836500000165,True,22,1,1,4
PB016K23,6,337,AS,exp,31,↓,down,↓,0.6885856999997486,True,21,1,0,4
PB016K23,6,338,AS,exp,33,←,left,←,0.5418186000001697,True,21,1,0,4
PB016K23,6,339,AS,exp,42,↓,up,↑,0.9560949000001528,False,20,-1,1,5
PB016K23,6,340,AS,exp,47,→,right,→,0.6880699999996978,True,21,-1,0,5
PB016K23,6,341,AS,exp,42,↓,down,↓,0.6534364999997706,True,21,1,1,6
PB016K23,6,342,AS,exp,27,←,left,←,0.8107865000001766,True,20,1,0,6
PB016K23,6,343,AS,exp,50,→,right,→,0.6433643999998822,True,20,1,0,6
PB016K23,6,344,AS,exp,27,←,right,→,0.7591187000002719,False,19,-1,1,7
PB016K23,6,345,AS,exp,41,↓,down,↓,0.8357089000000997,True,20,-1,0,7
PB016K23,6,346,AS,exp,28,↑,up,↑,0.6171190000000024,True,20,1,1,8
PB016K23,6,347,AS,exp,28,↓,down,↓,0.6401300999996238,True,19,1,0,8
PB016K23,6,348,AS,exp,39,↑,down,↓,0.8813111999998,False,19,-1,1,9
PB016K23,6,349,AS,exp,44,↓,down,↓,0.7306387999997241,True,20,-1,0,9
PB016K23,6,350,AS,exp,45,↑,up,↑,0.7339496999998119,True,20,1,1,10
PB016K23,6,351,AS,exp,46,↓,down,↓,1.9506062999998903,True,19,1,0,10
PB016K23,6,352,AS,exp,42,→,right,→,0.5257712000002357,True,19,1,0,10
PB016K23,6,353,AS,exp,38,↑,up,↑,0.7595013000000108,True,18,1,0,10
PB016K23,6,354,AS,exp,30,↓,up,↑,0.7949812000001657,False,18,-1,1,11
PB016K23,6,355,AS,exp,27,←,down,↓,0.8396425999999337,False,19,-1,0,11
PB016K23,6,356,AS,exp,45,↑,up,↑,0.7973077999999987,True,20,-1,0,11
PB016K23,6,357,AS,exp,42,↓,down,↓,0.552425299999868,True,20,1,1,12
PB016K23,6,358,AS,exp,48,←,left,←,0.7974294999999074,True,19,1,0,12
PB016K23,6,359,AS,exp,34,↓,left,←,0.6242049999996198,False,19,-1,1,13
PB016K23,6,360,AS,exp,49,←,right,→,0.612586199999896,False,20,-1,0,13
PB016K23,6,361,AS,exp,41,↓,down,↓,0.6023772999997163,True,21,-1,0,13
PB016K23,6,362,AS,exp,39,←,left,←,0.5956592000002274,True,21,1,1,14
PB016K23,7,363,AS,intra_train,41,↓,down,↓,1.0595981999999822,True,34,-,-,-
PB016K23,7,364,AS,intra_train,49,→,right,→,0.6170286999999917,True,34,-,-,-
PB016K23,7,365,AS,intra_train,35,↓,down,↓,0.8137132000001657,True,34,-,-,-
PB016K23,7,366,AS,intra_train,43,↑,up,↑,0.7005419999995866,True,34,-,-,-
PB016K23,7,367,AS,intra_train,40,↓,down,↓,0.6671407000003455,True,34,-,-,-
PB016K23,7,368,AS,exp,35,→,right,→,0.5535135999998602,True,23,0,0,0
PB016K23,7,369,AS,exp,28,↓,down,↓,0.6047871000000669,True,23,1,0,0
PB016K23,7,370,AS,exp,36,↑,up,↑,0.4502330000004804,True,22,1,0,0
PB016K23,7,371,AS,exp,39,↓,down,↓,0.5795998000003237,True,22,1,0,0
PB016K23,7,372,AS,exp,34,←,left,←,0.6209219000002122,True,21,1,0,0
PB016K23,7,373,AS,exp,48,↓,down,↓,0.635918799999672,True,21,1,0,0
PB016K23,7,374,AS,exp,28,←,left,←,0.5110417000005327,True,20,1,0,0
PB016K23,7,375,AS,exp,30,→,right,→,0.516668799999934,True,20,1,0,0
PB016K23,7,376,AS,exp,25,↓,down,↓,1.0890163999993092,True,19,1,0,0
PB016K23,7,377,AS,exp,42,←,left,←,1.0160464999999022,True,19,1,0,0
PB016K23,7,378,AS,exp,49,→,right,→,0.6663866999997481,True,18,1,0,0
PB016K23,7,379,AS,exp,44,↑,up,↑,0.6514219999999113,True,18,1,0,0
PB016K23,7,380,AS,exp,29,←,left,←,0.5603991999996651,True,17,1,0,0
PB016K23,7,381,AS,exp,34,↑,up,↑,0.7556758999999147,True,17,1,0,0
PB016K23,7,382,AS,exp,30,↓,down,↓,0.8200210000004517,True,16,1,0,0
PB016K23,7,383,AS,exp,34,↑,up,↑,0.518517200000133,True,16,1,0,0
PB016K23,7,384,AS,exp,49,←,left,←,0.4992587000006097,True,15,1,0,0
PB016K23,7,385,AS,exp,37,↓,down,↓,0.5287714000005508,True,15,1,0,0
PB016K23,7,386,AS,exp,40,←,left,←,0.5142746999999872,True,14,1,0,0
PB016K23,7,387,AS,exp,26,↓,down,↓,0.7152263999996649,True,14,1,0,0
PB016K23,7,388,AS,exp,47,↑,down,↓,0.9522323000001052,False,13,-1,1,1
PB016K23,7,389,AS,exp,25,↓,down,↓,0.9677752999996301,True,14,-1,0,1
PB016K23,7,390,AS,exp,27,↑,up,↑,0.6434053000002677,True,14,1,1,2
PB016K23,7,391,AS,exp,38,←,right,→,0.7242276999995738,False,13,-1,1,3
PB016K23,7,392,AS,exp,46,↓,down,↓,0.6761129999995319,True,14,-1,0,3
PB016K23,7,393,AS,exp,49,→,right,→,0.7489579000002777,True,14,1,1,4
PB016K23,7,394,AS,exp,27,↑,up,↑,0.5697193999994852,True,13,1,0,4
PB016K23,7,395,AS,exp,47,↓,down,↓,0.6840903000002072,True,13,1,0,4
PB016K23,7,396,AS,exp,41,↑,right,→,1.119073899999421,False,12,-1,1,5
PB016K23,7,397,AS,exp,49,→,right,→,0.6514094999993176,True,13,-1,0,5
PB016K23,7,398,AS,exp,35,↓,down,↓,0.7057426000001215,True,13,1,1,6
PB016K23,7,399,AS,exp,50,↑,up,↑,0.5923762000002171,True,12,1,0,6
PB016K23,7,400,AS,exp,32,←,right,→,0.7158940999997867,False,12,-1,1,7
PB016K23,7,401,AS,exp,45,↑,down,↓,0.822446499999387,False,13,-1,0,7
PB016K23,7,402,AS,exp,35,↓,down,↓,0.7011867999999595,True,14,-1,0,7
PB016K23,7,403,AS,exp,39,↑,up,↑,0.5240551000006235,True,14,1,1,8
PB016K23,7,404,AS,exp,35,↓,up,↑,0.795396399999845,False,13,-1,1,9
PB016K23,7,405,AS,exp,39,←,left,←,0.5938753000000361,True,14,-1,0,9
PB016K23,7,406,AS,exp,49,→,left,←,0.6821561999995538,False,14,-1,0,9
PB016K23,7,407,AS,exp,44,↓,up,↑,0.5308758000001035,False,15,-1,0,9
PB016K23,7,408,AS,exp,48,←,left,←,0.4820828000001711,True,16,-1,0,9
PB016K23,7,409,AS,exp,48,↓,up,↑,0.5149148999998943,False,16,-1,0,9
PB016K23,7,410,AS,exp,34,←,left,←,0.5556966999993165,True,17,-1,0,9
PB016K23,7,411,AS,exp,28,↓,up,↑,0.6721151000001555,False,17,-1,0,9
PB016K23,7,412,AS,exp,50,→,right,→,0.5588559000007081,True,18,-1,0,9
PB016K23,7,413,AS,exp,26,↓,down,↓,0.5919247000001633,True,18,1,1,10
PB016K23,7,414,AS,exp,34,↑,down,↓,0.748278100000789,False,17,-1,1,11
PB016K23,7,415,AS,exp,29,←,left,←,0.49358349999965867,True,18,-1,0,11
PB016K23,7,416,AS,exp,30,↑,up,↑,0.5403365000001941,True,18,1,1,12
PB016K23,7,417,AS,exp,37,←,right,→,0.5387074000000212,False,17,-1,1,13
PB016K23,7,418,AS,exp,31,↑,up,↑,0.5882457999996404,True,18,-1,0,13
PB016K23,7,419,AS,exp,46,↓,up,↑,0.8997897999997804,False,18,-1,0,13
PB016K23,7,420,AS,exp,50,↑,up,↑,0.5988588000000163,True,19,-1,0,13
PB016K23,7,421,AS,exp,40,←,right,→,0.9954596999996284,False,19,-1,0,13
PB016K23,7,422,AS,exp,33,↓,down,↓,0.6590923000003386,True,20,-1,0,13
PB016K23,7,423,AS,exp,41,←,left,←,0.5039248000002772,True,20,1,1,14
PB016K23,8,424,PS,intra_train,35,→,left,←,0.7184866000006878,False,13,-,-,-
PB016K23,8,425,PS,intra_train,50,←,left,←,0.6158066999996663,True,13,-,-,-
PB016K23,8,426,PS,intra_train,40,→,right,→,0.5367666000001918,True,13,-,-,-
PB016K23,8,427,PS,intra_train,27,←,right,→,0.5937700000004043,False,13,-,-,-
PB016K23,8,428,PS,intra_train,49,↑,up,↑,0.680247700000109,True,13,-,-,-
PB016K23,8,429,PS,exp,26,↓,down,↓,0.6454450000001088,True,9,0,0,0
PB016K23,8,430,PS,exp,44,→,right,→,0.592561299999943,True,9,1,0,0
PB016K23,8,431,PS,exp,37,←,left,←,0.6328961999997773,True,8,1,0,0
PB016K23,8,432,PS,exp,28,→,right,→,0.5980570000001535,True,8,1,0,0
PB016K23,8,433,PS,exp,40,↓,left,←,0.4252708000003622,False,7,-1,1,1
PB016K23,8,434,PS,exp,47,↑,left,←,0.7957483999998658,False,8,-1,0,1
PB016K23,8,435,PS,exp,48,←,left,←,0.48090249999950174,True,9,-1,0,1
PB016K23,8,436,PS,exp,35,↑,down,↓,0.8410874000001058,False,9,-1,0,1
PB016K23,8,437,PS,exp,32,→,right,→,0.6750001000000339,True,10,-1,0,1
PB016K23,8,438,PS,exp,33,↑,up,↑,0.751038299999891,True,10,1,1,2
PB016K23,8,439,PS,exp,26,←,left,←,0.6063642999997683,True,9,1,0,2
PB016K23,8,440,PS,exp,35,↑,left,←,0.6435721000007106,False,9,-1,1,3
PB016K23,8,441,PS,exp,39,→,right,→,0.5795656000000236,True,10,-1,0,3
PB016K23,8,442,PS,exp,48,←,left,←,0.5987562000000253,True,10,1,1,4
PB016K23,8,443,PS,exp,29,↓,left,←,0.5489199000003282,False,9,-1,1,5
PB016K23,8,444,PS,exp,27,←,left,←,0.43393250000008265,True,10,-1,0,5
PB016K23,8,445,PS,exp,48,↑,left,←,0.8290712999996686,False,10,-1,0,5
PB016K23,8,446,PS,exp,36,↓,down,↓,0.5859209999998711,True,11,-1,0,5
PB016K23,8,447,PS,exp,28,→,right,→,0.5598425999996834,True,11,1,1,6
PB016K23,8,448,PS,exp,49,↑,up,↑,0.9228855000001204,True,10,1,0,6
PB016K23,8,449,PS,exp,25,↓,down,↓,0.6942580000004455,True,10,1,0,6
PB016K23,8,450,PS,exp,27,↑,up,↑,0.5223409000000174,True,9,1,0,6
PB016K23,8,451,PS,exp,48,←,left,←,0.5133304000000862,True,9,1,0,6
PB016K23,8,452,PS,exp,34,→,right,→,0.5716711999994004,True,8,1,0,6
PB016K23,8,453,PS,exp,33,↓,right,→,0.49802720000025147,False,8,-1,1,7
PB016K23,8,454,PS,exp,29,↑,left,←,0.7658203999999387,False,9,-1,0,7
PB016K23,8,455,PS,exp,37,←,left,←,0.4918936999993093,True,10,-1,0,7
PB016K23,8,456,PS,exp,25,↑,left,←,0.4764878999994835,False,10,-1,0,7
PB016K23,8,457,PS,exp,45,↓,left,←,0.6590608999995311,False,11,-1,0,7
PB016K23,8,458,PS,exp,46,→,right,→,0.8489337999999407,True,12,-1,0,7
PB016K23,8,459,PS,exp,38,↑,up,↑,0.7074397999995199,True,12,1,1,8
PB016K23,8,460,PS,exp,27,↓,down,↓,0.6254185000007055,True,11,1,0,8
PB016K23,8,461,PS,exp,33,←,left,←,0.5006794999999329,True,11,1,0,8
PB016K23,8,462,PS,exp,36,↓,left,←,0.39343579999967915,False,10,-1,1,9
PB016K23,8,463,PS,exp,31,←,left,←,0.7716301999998905,True,11,-1,0,9
PB016K23,8,464,PS,exp,27,→,right,→,0.5367103999997198,True,11,1,1,10
PB016K23,8,465,PS,exp,42,←,right,→,0.5680869999996503,False,10,-1,1,11
PB016K23,8,466,PS,exp,31,↑,right,→,0.612353699999403,False,11,-1,0,11
PB016K23,8,467,PS,exp,34,→,right,→,0.5775149000000965,True,12,-1,0,11
PB016K23,8,468,PS,exp,30,↓,left,←,0.5381628000004639,False,12,-1,0,11
PB016K23,8,469,PS,exp,37,→,right,→,0.3001859999994849,True,13,-1,0,11
PB016K23,8,470,PS,exp,46,←,left,←,0.38484579999931157,True,13,1,1,12
PB016K23,8,471,PS,exp,25,↓,left,←,0.5997017999998207,False,12,-1,1,13
PB016K23,8,472,PS,exp,43,→,left,←,0.4363524000000325,False,13,-1,0,13
PB016K23,8,473,PS,exp,29,↓,right,→,0.47582650000003923,False,14,-1,0,13
PB016K23,8,474,PS,exp,46,→,right,→,1.8163807000000816,True,15,-1,0,13
PB016K23,8,475,PS,exp,46,↓,down,↓,0.7830382000001919,True,15,1,1,14
