PART_ID,Block_no,Trial_no,Block_type,Trial_type,CSI,Stim_letter,Key_pressed,letter_choose,Rt,Corr,Stimulus Time,Level,Reversal,Revs_count
PB014M27,1,1,PS,train,42,→,right,→,0.9237132999987807,True,30,-,-,-
PB014M27,1,2,PS,train,32,↓,down,↓,0.8051277000049595,True,30,-,-,-
PB014M27,1,3,PS,train,30,←,left,←,0.6734869999927469,True,30,-,-,-
PB014M27,1,4,PS,train,28,↓,down,↓,0.6974939000210725,True,30,-,-,-
PB014M27,1,5,PS,train,44,↑,up,↑,0.9299907999811694,True,30,-,-,-
PB014M27,1,6,PS,train,46,←,left,←,0.7606130000203848,True,30,-,-,-
PB014M27,1,7,PS,train,28,↓,down,↓,0.5671837000118103,True,30,-,-,-
PB014M27,1,8,PS,train,45,→,right,→,0.5005143000162207,True,30,-,-,-
PB014M27,1,9,PS,train,31,↓,down,↓,0.7694257000111975,True,30,-,-,-
PB014M27,1,10,PS,train,48,→,right,→,0.5505529000074603,True,30,-,-,-
PB014M27,2,11,AS,train,40,↓,down,↓,0.7672705999866594,True,45,-,-,-
PB014M27,2,12,AS,train,27,↑,up,↑,0.9503710999852046,True,45,-,-,-
PB014M27,2,13,AS,train,33,↓,down,↓,0.956941700016614,True,45,-,-,-
PB014M27,2,14,AS,train,31,↑,up,↑,0.7177373000013176,True,45,-,-,-
PB014M27,2,15,AS,train,36,↓,down,↓,0.9457406000001356,True,45,-,-,-
PB014M27,2,16,AS,train,26,←,left,←,1.5301618000085,True,45,-,-,-
PB014M27,2,17,AS,train,26,↓,down,↓,0.9305386999913026,True,45,-,-,-
PB014M27,2,18,AS,train,25,↑,up,↑,0.8672323999926448,True,45,-,-,-
PB014M27,2,19,AS,train,42,→,down,↓,1.0913643999956548,False,45,-,-,-
PB014M27,2,20,AS,train,42,←,left,←,0.8838007000158541,True,45,-,-,-
PB014M27,-,21,PS,adaptive,46,↑,up,↑,0.8504187999933492,True,10,0,0,0
PB014M27,-,22,PS,adaptive,46,←,left,←,0.7711596000008285,True,10,1,0,0
PB014M27,-,23,PS,adaptive,39,↓,down,↓,0.6291711000085343,True,9,1,0,0
PB014M27,-,24,PS,adaptive,36,→,down,↓,0.7204605999868363,False,9,-1,1,1
PB014M27,-,25,PS,adaptive,41,↑,up,↑,0.6196384000068065,True,10,-1,0,1
PB014M27,-,26,PS,adaptive,34,←,left,←,0.6006169999891426,True,10,1,1,2
PB014M27,-,27,PS,adaptive,28,→,right,→,0.6082776999974158,True,9,1,0,2
PB014M27,-,28,PS,adaptive,50,↓,down,↓,0.560826700006146,True,9,1,0,2
PB014M27,-,29,PS,adaptive,33,←,down,↓,0.6835768999881111,False,8,-1,1,3
PB014M27,-,30,PS,adaptive,38,↓,left,←,0.7873393000045326,False,9,-1,0,3
PB014M27,-,31,PS,adaptive,50,←,left,←,0.6535980000044219,True,10,-1,0,3
PB014M27,-,32,PS,adaptive,30,↑,up,↑,0.8758015999919735,True,10,1,1,4
PB014M27,-,33,AS,adaptive,38,↓,left,←,1.0377249000011943,False,20,-1,0,0
PB014M27,-,34,AS,adaptive,29,→,down,↓,1.0903068000043277,False,21,-1,0,0
PB014M27,-,35,AS,adaptive,36,↑,up,↑,0.928075199975865,True,22,-1,0,0
PB014M27,-,36,AS,adaptive,50,←,left,←,1.0791468000097666,True,22,1,1,1
PB014M27,-,37,AS,adaptive,41,→,left,←,0.8671352999808732,False,21,-1,1,2
PB014M27,-,38,AS,adaptive,45,↑,up,↑,0.7108782000141218,True,22,-1,0,2
PB014M27,-,39,AS,adaptive,32,←,left,←,1.1462851999967825,True,22,1,1,3
PB014M27,-,40,AS,adaptive,33,↓,left,←,1.23580920000677,False,21,-1,1,4
PB014M27,1,41,AS,intra_train,32,←,left,←,0.9010013999941293,True,33,-,-,-
PB014M27,1,42,AS,intra_train,34,↑,down,↓,0.8354901999991853,False,33,-,-,-
PB014M27,1,43,AS,intra_train,25,→,down,↓,1.3720322999870405,False,33,-,-,-
PB014M27,1,44,AS,intra_train,31,↓,down,↓,0.8057510000071488,True,33,-,-,-
PB014M27,1,45,AS,intra_train,45,↑,left,←,1.1503859000222292,False,33,-,-,-
PB014M27,1,46,AS,exp,27,→,right,→,1.7329782000160776,True,22,0,0,0
PB014M27,1,47,AS,exp,33,↓,down,↓,0.6975755000021309,True,22,1,0,0
PB014M27,1,48,AS,exp,46,↑,left,←,0.594298499985598,False,21,-1,1,1
PB014M27,1,49,AS,exp,27,←,no_key,no_letter,-1.0,False,22,-1,0,1
PB014M27,1,50,AS,exp,50,↓,right,→,0.3177426000183914,False,23,-1,0,1
PB014M27,1,51,AS,exp,36,↑,down,↓,0.13453219999792054,False,24,-1,0,1
PB014M27,1,52,AS,exp,47,↓,no_key,no_letter,-1.0,False,25,-1,0,1
PB014M27,1,53,AS,exp,47,→,right,→,0.6429847000108566,True,26,-1,0,1
PB014M27,1,54,AS,exp,29,↓,no_key,no_letter,-1.0,False,26,-1,0,1
PB014M27,1,55,AS,exp,31,←,left,←,0.41781390001415275,True,27,-1,0,1
PB014M27,1,56,AS,exp,41,→,left,←,0.5841978999960702,False,27,-1,0,1
PB014M27,1,57,AS,exp,44,↓,no_key,no_letter,-1.0,False,28,-1,0,1
PB014M27,1,58,AS,exp,31,↑,no_key,no_letter,-1.0,False,29,-1,0,1
PB014M27,1,59,AS,exp,43,←,right,→,0.6805230999889318,False,30,-1,0,1
PB014M27,1,60,AS,exp,28,↑,up,↑,0.7374749000009615,True,31,-1,0,1
PB014M27,1,61,AS,exp,26,←,left,←,0.7905166000127792,True,31,1,1,2
PB014M27,1,62,AS,exp,50,→,right,→,0.7562731000070926,True,30,1,0,2
PB014M27,1,63,AS,exp,34,←,no_key,no_letter,-1.0,False,30,-1,1,3
PB014M27,1,64,AS,exp,27,↓,left,←,0.517159700015327,False,31,-1,0,3
PB014M27,1,65,AS,exp,50,←,left,←,0.6171393000113312,True,32,-1,0,3
PB014M27,1,66,AS,exp,39,↓,down,↓,0.6338402999972459,True,32,1,1,4
PB014M27,1,67,AS,exp,42,↑,no_key,no_letter,-1.0,False,31,-1,1,5
PB014M27,1,68,AS,exp,31,←,no_key,no_letter,-1.0,False,32,-1,0,5
PB014M27,1,69,AS,exp,41,↓,left,←,0.8564019000041299,False,33,-1,0,5
PB014M27,1,70,AS,exp,46,←,left,←,0.9316873999778181,True,34,-1,0,5
PB014M27,1,71,AS,exp,36,→,no_key,no_letter,-1.0,False,34,-1,0,5
PB014M27,1,72,AS,exp,30,↓,no_key,no_letter,-1.0,False,35,-1,0,5
PB014M27,1,73,AS,exp,48,→,left,←,0.6504162999917753,False,36,-1,0,5
PB014M27,1,74,AS,exp,47,↓,down,↓,1.1654798999952618,True,37,-1,0,5
PB014M27,1,75,AS,exp,32,→,down,↓,0.8907583999971393,False,37,-1,0,5
PB014M27,1,76,AS,exp,36,↑,no_key,no_letter,-1.0,False,38,-1,0,5
PB014M27,1,77,AS,exp,43,←,left,←,0.8247506000043359,True,39,-1,0,5
PB014M27,1,78,AS,exp,50,↓,down,↓,0.7008051000011619,True,39,1,1,6
PB014M27,1,79,AS,exp,28,←,no_key,no_letter,-1.0,False,38,-1,1,7
PB014M27,1,80,AS,exp,41,→,no_key,no_letter,-1.0,False,39,-1,0,7
PB014M27,1,81,AS,exp,34,↓,down,↓,0.7005912000022363,True,40,-1,0,7
PB014M27,1,82,AS,exp,50,↑,up,↑,0.9036232999933418,True,40,1,1,8
PB014M27,1,83,AS,exp,33,←,left,←,0.7501849999825936,True,39,1,0,8
PB014M27,1,84,AS,exp,30,↑,up,↑,0.6337710000225343,True,39,1,0,8
PB014M27,1,85,AS,exp,27,↓,down,↓,0.8737183999910485,True,38,1,0,8
PB014M27,1,86,AS,exp,37,←,no_key,no_letter,-1.0,False,38,-1,1,9
PB014M27,1,87,AS,exp,48,↑,up,↑,0.7505058000097051,True,39,-1,0,9
PB014M27,1,88,AS,exp,40,→,no_key,no_letter,-1.0,False,39,-1,0,9
PB014M27,1,89,AS,exp,43,←,left,←,0.8760628999734763,True,40,-1,0,9
PB014M27,1,90,AS,exp,31,→,left,←,0.6837738999747671,False,40,-1,0,9
PB014M27,1,91,AS,exp,27,↑,no_key,no_letter,-1.0,False,41,-1,0,9
PB014M27,1,92,AS,exp,27,↓,no_key,no_letter,-1.0,False,42,-1,0,9
PB014M27,1,93,AS,exp,44,←,left,←,0.9017128999985289,True,43,-1,0,9
PB014M27,1,94,AS,exp,43,↓,down,↓,0.8888118000177201,True,43,1,1,10
PB014M27,1,95,AS,exp,35,←,no_key,no_letter,-1.0,False,42,-1,1,11
PB014M27,1,96,AS,exp,47,↑,up,↑,1.0204871000023559,True,43,-1,0,11
PB014M27,1,97,AS,exp,47,→,right,→,1.1787921000213828,True,43,1,1,12
PB014M27,1,98,AS,exp,37,←,left,←,0.7838332999963313,True,42,1,0,12
PB014M27,1,99,AS,exp,50,↑,up,↑,0.9891350000107195,True,42,1,0,12
PB014M27,1,100,AS,exp,50,→,left,←,0.877822800015565,False,41,-1,1,13
PB014M27,1,101,AS,exp,34,←,left,←,0.7342396000167355,True,42,-1,0,13
PB014M27,1,102,AS,exp,34,↓,up,↑,0.8826689000125043,False,42,-1,0,13
PB014M27,1,103,AS,exp,47,→,left,←,0.7003509000060149,False,43,-1,0,13
PB014M27,1,104,AS,exp,47,↓,down,↓,0.7334801999968477,True,44,-1,0,13
PB014M27,1,105,AS,exp,39,→,no_key,no_letter,-1.0,False,44,-1,0,13
PB014M27,1,106,AS,exp,46,←,right,→,0.7508195999835152,False,45,-1,0,13
PB014M27,1,107,AS,exp,30,→,right,→,1.0013320000143722,True,46,-1,0,13
PB014M27,1,108,AS,exp,35,←,left,←,0.6176625000080094,True,46,1,1,14
PB014M27,2,109,PS,intra_train,43,↑,up,↑,1.0673519999836572,True,13,-,-,-
PB014M27,2,110,PS,intra_train,34,→,right,→,0.6773270999838132,True,13,-,-,-
PB014M27,2,111,PS,intra_train,49,↓,down,↓,0.5906067999894731,True,13,-,-,-
PB014M27,2,112,PS,intra_train,46,→,right,→,0.6955322000139859,True,13,-,-,-
PB014M27,2,113,PS,intra_train,27,↑,no_key,no_letter,-1.0,False,13,-,-,-
PB014M27,2,114,PS,exp,37,→,right,→,0.6783816000097431,True,9,0,0,0
PB014M27,2,115,PS,exp,27,←,down,↓,0.8167060000123456,False,9,-1,0,0
PB014M27,2,116,PS,exp,38,↑,up,↑,0.5690860999748111,True,10,-1,0,0
PB014M27,2,117,PS,exp,32,↓,no_key,no_letter,-1.0,False,10,-1,0,0
PB014M27,2,118,PS,exp,42,→,right,→,0.5211801000114065,True,11,-1,0,0
PB014M27,2,119,PS,exp,38,←,no_key,no_letter,-1.0,False,11,-1,0,0
PB014M27,2,120,PS,exp,34,↑,up,↑,0.6510329000011552,True,12,-1,0,0
PB014M27,2,121,PS,exp,30,→,right,→,0.6069074000115506,True,12,1,1,1
PB014M27,2,122,PS,exp,29,↓,down,↓,0.544909500022186,True,11,1,0,1
PB014M27,2,123,PS,exp,38,→,left,←,0.2671725999971386,False,11,-1,1,2
PB014M27,2,124,PS,exp,36,↑,down,↓,0.5625656000047456,False,12,-1,0,2
PB014M27,2,125,PS,exp,27,←,no_key,no_letter,-1.0,False,13,-1,0,2
PB014M27,2,126,PS,exp,43,↑,up,↑,0.477714599983301,True,14,-1,0,2
PB014M27,2,127,PS,exp,43,→,right,→,0.5171114999975543,True,14,1,1,3
PB014M27,2,128,PS,exp,50,↓,down,↓,0.42525910001131706,True,13,1,0,3
PB014M27,2,129,PS,exp,31,↑,no_key,no_letter,-1.0,False,13,-1,1,4
PB014M27,2,130,PS,exp,32,→,right,→,0.5973287999804597,True,14,-1,0,4
PB014M27,2,131,PS,exp,26,↑,up,↑,0.44642799999564886,True,14,1,1,5
PB014M27,2,132,PS,exp,30,←,left,←,0.491213900008006,True,13,1,0,5
PB014M27,2,133,PS,exp,46,→,right,→,0.5067312000028323,True,13,1,0,5
PB014M27,2,134,PS,exp,50,←,left,←,0.4668193999968935,True,12,1,0,5
PB014M27,2,135,PS,exp,38,→,right,→,0.5661693000001833,True,12,1,0,5
PB014M27,2,136,PS,exp,40,↑,no_key,no_letter,-1.0,False,11,-1,1,6
PB014M27,2,137,PS,exp,44,→,no_key,no_letter,-1.0,False,12,-1,0,6
PB014M27,2,138,PS,exp,47,↑,up,↑,0.5262943000125233,True,13,-1,0,6
PB014M27,2,139,PS,exp,38,↓,down,↓,0.5639066000003368,True,13,1,1,7
PB014M27,2,140,PS,exp,32,→,right,→,0.49992800000472926,True,12,1,0,7
PB014M27,2,141,PS,exp,49,↓,down,↓,0.49650790001032874,True,12,1,0,7
PB014M27,2,142,PS,exp,29,←,left,←,0.5657040000078268,True,11,1,0,7
PB014M27,2,143,PS,exp,29,→,right,→,0.5024600999895483,True,11,1,0,7
PB014M27,2,144,PS,exp,28,↑,up,↑,0.4725107999984175,True,10,1,0,7
PB014M27,2,145,PS,exp,49,←,left,←,0.7112060000072233,True,10,1,0,7
PB014M27,2,146,PS,exp,46,↑,up,↑,0.4724477999843657,True,9,1,0,7
PB014M27,2,147,PS,exp,25,→,no_key,no_letter,-1.0,False,9,-1,1,8
PB014M27,2,148,PS,exp,25,↑,up,↑,0.4905581999919377,True,10,-1,0,8
PB014M27,2,149,PS,exp,44,→,no_key,no_letter,-1.0,False,10,-1,0,8
PB014M27,2,150,PS,exp,41,←,no_key,no_letter,-1.0,False,11,-1,0,8
PB014M27,2,151,PS,exp,31,↑,up,↑,0.5175696999940556,True,12,-1,0,8
PB014M27,2,152,PS,exp,33,←,no_key,no_letter,-1.0,False,12,-1,0,8
PB014M27,2,153,PS,exp,28,→,no_key,no_letter,-1.0,False,13,-1,0,8
PB014M27,2,154,PS,exp,45,↑,up,↑,0.47285760001977906,True,14,-1,0,8
PB014M27,2,155,PS,exp,37,↓,down,↓,0.50180180001189,True,14,1,1,9
PB014M27,2,156,PS,exp,38,↑,up,↑,0.4438046999857761,True,13,1,0,9
PB014M27,2,157,PS,exp,45,→,right,→,0.4957227000268176,True,13,1,0,9
PB014M27,2,158,PS,exp,43,↑,up,↑,0.4673861999763176,True,12,1,0,9
PB014M27,2,159,PS,exp,44,←,left,←,0.5848509999923408,True,12,1,0,9
PB014M27,2,160,PS,exp,34,↓,down,↓,0.5490545000066049,True,11,1,0,9
PB014M27,2,161,PS,exp,38,↑,up,↑,0.43277499999385327,True,11,1,0,9
PB014M27,2,162,PS,exp,40,←,left,←,0.4662913999927696,True,10,1,0,9
PB014M27,2,163,PS,exp,29,→,right,→,0.5889440999890212,True,10,1,0,9
PB014M27,2,164,PS,exp,43,←,left,←,0.4307688999979291,True,9,1,0,9
PB014M27,2,165,PS,exp,43,↓,down,↓,0.5648821999784559,True,9,1,0,9
PB014M27,2,166,PS,exp,35,↑,up,↑,0.4750309999799356,True,8,1,0,9
PB014M27,2,167,PS,exp,27,←,left,←,0.37978700001258403,True,8,1,0,9
PB014M27,2,168,PS,exp,37,→,right,→,0.5831277999968734,True,7,1,0,9
PB014M27,2,169,PS,exp,31,↑,up,↑,0.532056800002465,True,7,1,0,9
PB014M27,2,170,PS,exp,44,←,up,↑,0.5932245000149123,False,6,-1,1,10
PB014M27,2,171,PS,exp,26,↓,down,↓,0.44027389999246225,True,7,-1,0,10
PB014M27,2,172,PS,exp,39,←,left,←,0.6187464000249747,True,7,1,1,11
PB014M27,2,173,PS,exp,26,→,right,→,0.7787333999876864,True,6,1,0,11
PB014M27,2,174,PS,exp,35,↑,down,↓,1.3886455000028946,False,6,-1,1,12
PB014M27,2,175,PS,exp,50,→,no_key,no_letter,-1.0,False,7,-1,0,12
PB014M27,2,176,PS,exp,48,↑,up,↑,0.5984951999853365,True,8,-1,0,12
PB014M27,2,177,PS,exp,37,←,left,←,0.5569989000214264,True,8,1,1,13
PB014M27,2,178,PS,exp,30,↑,up,↑,0.5683139000029769,True,7,1,0,13
PB014M27,2,179,PS,exp,36,↓,down,↓,0.5509671999898273,True,7,1,0,13
PB014M27,2,180,PS,exp,32,→,right,→,1.022915399982594,True,6,1,0,13
PB014M27,2,181,PS,exp,26,←,no_key,no_letter,-1.0,False,6,-1,1,14
PB014M27,3,182,PS,intra_train,31,↓,down,↓,0.4543866000021808,True,13,-,-,-
PB014M27,3,183,PS,intra_train,30,←,left,←,0.6984053000051063,True,13,-,-,-
PB014M27,3,184,PS,intra_train,49,↑,up,↑,0.5884693000116386,True,13,-,-,-
PB014M27,3,185,PS,intra_train,49,↓,down,↓,0.4164982000074815,True,13,-,-,-
PB014M27,3,186,PS,intra_train,35,→,right,→,0.6364676000084728,True,13,-,-,-
PB014M27,3,187,PS,exp,37,←,left,←,0.6019391999871004,True,9,0,0,0
PB014M27,3,188,PS,exp,44,→,right,→,0.6175285000063013,True,9,1,0,0
PB014M27,3,189,PS,exp,31,←,left,←,0.4691314999945462,True,8,1,0,0
PB014M27,3,190,PS,exp,46,↓,down,↓,0.5534321999875829,True,8,1,0,0
PB014M27,3,191,PS,exp,28,→,right,→,0.5017242000030819,True,7,1,0,0
PB014M27,3,192,PS,exp,25,↑,up,↑,0.5153834999946412,True,7,1,0,0
PB014M27,3,193,PS,exp,30,→,right,→,0.6171750999928918,True,6,1,0,0
PB014M27,3,194,PS,exp,32,←,left,←,0.5669396000157576,True,6,1,0,0
PB014M27,3,195,PS,exp,34,↑,up,↑,0.4726146000029985,True,5,1,0,0
PB014M27,3,196,PS,exp,50,←,down,↓,0.5759156999993138,False,5,-1,1,1
PB014M27,3,197,PS,exp,49,↑,up,↑,0.7974236000154633,True,6,-1,0,1
PB014M27,3,198,PS,exp,38,←,left,←,0.41207729998859577,True,6,1,1,2
PB014M27,3,199,PS,exp,34,↓,down,↓,0.5297538999875542,True,5,1,0,2
PB014M27,3,200,PS,exp,49,→,right,→,1.115641099982895,True,5,1,0,2
PB014M27,3,201,PS,exp,35,↓,up,↑,0.6244629000138957,False,4,-1,1,3
PB014M27,3,202,PS,exp,34,→,right,→,1.046322699985467,True,5,-1,0,3
PB014M27,3,203,PS,exp,35,↓,left,←,0.3515315999975428,False,5,-1,0,3
PB014M27,3,204,PS,exp,50,→,up,↑,0.6978754999872763,False,6,-1,0,3
PB014M27,3,205,PS,exp,45,↑,up,↑,0.5704179000167642,True,7,-1,0,3
PB014M27,3,206,PS,exp,33,→,right,→,0.6239517999929376,True,7,1,1,4
PB014M27,3,207,PS,exp,41,↓,right,→,0.9033261000004131,False,6,-1,1,5
PB014M27,3,208,PS,exp,37,↑,up,↑,1.087366399995517,True,7,-1,0,5
PB014M27,3,209,PS,exp,48,←,right,→,1.0436050999851432,False,7,-1,0,5
PB014M27,3,210,PS,exp,31,↑,left,←,1.585740699985763,False,8,-1,0,5
PB014M27,3,211,PS,exp,30,←,right,→,1.0830127999943215,False,9,-1,0,5
PB014M27,3,212,PS,exp,25,↓,down,↓,0.5648344999935944,True,10,-1,0,5
PB014M27,3,213,PS,exp,44,←,down,↓,0.8986521000042558,False,10,-1,0,5
PB014M27,3,214,PS,exp,38,↑,up,↑,0.6917182999895886,True,11,-1,0,5
PB014M27,3,215,PS,exp,43,→,right,→,0.6223608999862336,True,11,1,1,6
PB014M27,3,216,PS,exp,47,↓,down,↓,0.6304676000145264,True,10,1,0,6
PB014M27,3,217,PS,exp,50,→,right,→,0.6682831000071019,True,10,1,0,6
PB014M27,3,218,PS,exp,33,←,left,←,0.6856792000180576,True,9,1,0,6
PB014M27,3,219,PS,exp,39,↓,up,↑,1.0812081000185572,False,9,-1,1,7
PB014M27,3,220,PS,exp,29,←,left,←,0.6194931000063661,True,10,-1,0,7
PB014M27,3,221,PS,exp,34,↓,down,↓,0.5786815999890678,True,10,1,1,8
PB014M27,3,222,PS,exp,43,←,left,←,0.48449420000542887,True,9,1,0,8
PB014M27,3,223,PS,exp,42,↑,up,↑,0.4683882999815978,True,9,1,0,8
PB014M27,3,224,PS,exp,45,→,right,→,0.6521243000170216,True,8,1,0,8
PB014M27,3,225,PS,exp,39,↓,down,↓,0.57875879999483,True,8,1,0,8
PB014M27,3,226,PS,exp,45,←,left,←,0.5184332999924663,True,7,1,0,8
PB014M27,3,227,PS,exp,39,↑,up,↑,1.0388723999785725,True,7,1,0,8
PB014M27,3,228,PS,exp,44,↓,down,↓,0.625294199999189,True,6,1,0,8
PB014M27,3,229,PS,exp,36,←,left,←,0.7734388000098988,True,6,1,0,8
PB014M27,3,230,PS,exp,35,↑,down,↓,0.6353582000010647,False,5,-1,1,9
PB014M27,3,231,PS,exp,41,↓,down,↓,0.4797819000086747,True,6,-1,0,9
PB014M27,3,232,PS,exp,40,←,down,↓,0.5204129999910947,False,6,-1,0,9
PB014M27,3,233,PS,exp,32,↑,up,↑,0.583796099992469,True,7,-1,0,9
PB014M27,3,234,PS,exp,41,→,down,↓,0.6259584999934305,False,7,-1,0,9
PB014M27,3,235,PS,exp,44,←,left,←,0.4911936999997124,True,8,-1,0,9
PB014M27,3,236,PS,exp,49,↓,down,↓,0.5042745000100695,True,8,1,1,10
PB014M27,3,237,PS,exp,35,↑,left,←,0.9433524000050966,False,7,-1,1,11
PB014M27,3,238,PS,exp,46,↓,down,↓,0.4622410000010859,True,8,-1,0,11
PB014M27,3,239,PS,exp,50,↑,up,↑,0.7526810999843292,True,8,1,1,12
PB014M27,3,240,PS,exp,32,←,left,←,1.181742699991446,True,7,1,0,12
PB014M27,3,241,PS,exp,32,→,down,↓,0.5393283999874257,False,7,-1,1,13
PB014M27,3,242,PS,exp,35,↓,down,↓,0.43492289999267086,True,8,-1,0,13
PB014M27,3,243,PS,exp,32,↑,up,↑,0.6529845000186469,True,8,1,1,14
PB014M27,4,244,AS,intra_train,47,←,left,←,1.8978743000188842,True,33,-,-,-
PB014M27,4,245,AS,intra_train,35,↓,right,→,0.7351534000190441,False,33,-,-,-
PB014M27,4,246,AS,intra_train,32,↑,down,↓,1.6135520999960136,False,33,-,-,-
PB014M27,4,247,AS,intra_train,25,→,right,→,0.9038647999987006,True,33,-,-,-
PB014M27,4,248,AS,intra_train,47,↓,down,↓,1.1126357000030112,True,33,-,-,-
PB014M27,4,249,AS,exp,37,→,left,←,0.8498512000078335,False,22,-1,0,0
PB014M27,4,250,AS,exp,33,↑,up,↑,1.0851811000029556,True,23,-1,0,0
PB014M27,4,251,AS,exp,39,←,right,→,1.2462342000217177,False,23,-1,0,0
PB014M27,4,252,AS,exp,33,↑,down,↓,0.5921033000049647,False,24,-1,0,0
PB014M27,4,253,AS,exp,30,↓,left,←,0.7116975999961141,False,25,-1,0,0
PB014M27,4,254,AS,exp,49,↑,right,→,0.25100650000968017,False,26,-1,0,0
PB014M27,4,255,AS,exp,40,↓,down,↓,0.30104319998645224,True,27,-1,0,0
PB014M27,4,256,AS,exp,25,→,left,←,0.782086099992739,False,27,-1,0,0
PB014M27,4,257,AS,exp,45,↑,left,←,1.0801132000051439,False,28,-1,0,0
PB014M27,4,258,AS,exp,30,→,left,←,0.9979033999843523,False,29,-1,0,0
PB014M27,4,259,AS,exp,44,←,right,→,0.7767070999834687,False,30,-1,0,0
PB014M27,4,260,AS,exp,44,↓,left,←,0.5504488000005949,False,31,-1,0,0
PB014M27,4,261,AS,exp,42,→,right,→,0.7272824000101537,True,32,-1,0,0
PB014M27,4,262,AS,exp,49,↓,left,←,1.0275315000035334,False,32,-1,0,0
PB014M27,4,263,AS,exp,39,↑,up,↑,0.7837578000035137,True,33,-1,0,0
PB014M27,4,264,AS,exp,37,←,left,←,0.633751100016525,True,33,1,1,1
PB014M27,4,265,AS,exp,37,→,right,→,0.7908617000211962,True,32,1,0,1
PB014M27,4,266,AS,exp,31,↓,up,↑,0.6338816999923438,False,32,-1,1,2
PB014M27,4,267,AS,exp,47,←,left,←,0.5500800000154413,True,33,-1,0,2
PB014M27,4,268,AS,exp,26,↓,right,→,2.0247273000131827,False,33,-1,0,2
PB014M27,4,269,AS,exp,35,→,right,→,1.009664100012742,True,34,-1,0,2
PB014M27,4,270,AS,exp,25,↓,left,←,0.5839952999958768,False,34,-1,0,2
PB014M27,4,271,AS,exp,27,↑,up,↑,0.6172025999985635,True,35,-1,0,2
PB014M27,4,272,AS,exp,41,↓,down,↓,0.7509804999863263,True,35,1,1,3
PB014M27,4,273,AS,exp,41,←,right,→,0.9122796999872662,False,34,-1,1,4
PB014M27,4,274,AS,exp,36,↑,down,↓,1.8351988000213169,False,35,-1,0,4
PB014M27,4,275,AS,exp,35,↓,up,↑,0.5511796000064351,False,36,-1,0,4
PB014M27,4,276,AS,exp,26,→,left,←,0.7005702999886125,False,37,-1,0,4
PB014M27,4,277,AS,exp,48,↑,up,↑,0.6337852999859024,True,38,-1,0,4
PB014M27,4,278,AS,exp,43,→,right,→,0.8175913000013679,True,38,1,1,5
PB014M27,4,279,AS,exp,45,←,left,←,1.0196570999978576,True,37,1,0,5
PB014M27,4,280,AS,exp,30,↓,up,↑,0.6840998000116087,False,37,-1,1,6
PB014M27,4,281,AS,exp,47,→,right,→,0.8366661000181921,True,38,-1,0,6
PB014M27,4,282,AS,exp,35,←,right,→,0.7510413000127301,False,38,-1,0,6
PB014M27,4,283,AS,exp,42,↑,left,←,2.0401522000029217,False,39,-1,0,6
PB014M27,4,284,AS,exp,44,←,left,←,0.9485946999920998,True,40,-1,0,6
PB014M27,4,285,AS,exp,49,→,right,→,0.9716039999912027,True,40,1,1,7
PB014M27,4,286,AS,exp,32,↑,up,↑,0.7837239999789745,True,39,1,0,7
PB014M27,4,287,AS,exp,47,←,left,←,0.7837022000167053,True,39,1,0,7
PB014M27,4,288,AS,exp,46,→,right,→,0.750719499978004,True,38,1,0,7
PB014M27,4,289,AS,exp,40,←,left,←,0.7671593000122812,True,38,1,0,7
PB014M27,4,290,AS,exp,36,↓,up,↑,1.6250533999991603,False,37,-1,1,8
PB014M27,4,291,AS,exp,36,→,right,→,1.5302724000066519,True,38,-1,0,8
PB014M27,4,292,AS,exp,32,↑,up,↑,0.6011009000067133,True,38,1,1,9
PB014M27,4,293,AS,exp,28,←,no_key,no_letter,-1.0,False,37,-1,1,10
PB014M27,4,294,AS,exp,27,↓,right,→,1.934739600023022,False,38,-1,0,10
PB014M27,4,295,AS,exp,41,→,left,←,1.6456364000041503,False,39,-1,0,10
PB014M27,4,296,AS,exp,46,↓,no_key,no_letter,-1.0,False,40,-1,0,10
PB014M27,4,297,AS,exp,38,←,left,←,0.75061220000498,True,41,-1,0,10
PB014M27,4,298,AS,exp,35,↓,right,→,1.602896199998213,False,41,-1,0,10
PB014M27,4,299,AS,exp,43,←,left,←,0.5510160999838263,True,42,-1,0,10
PB014M27,4,300,AS,exp,29,↑,left,←,0.584514800022589,False,42,-1,0,10
PB014M27,4,301,AS,exp,39,↓,left,←,0.5511069000058342,False,43,-1,0,10
PB014M27,4,302,AS,exp,31,→,right,→,0.9274238999933004,True,44,-1,0,10
PB014M27,4,303,AS,exp,49,↑,up,↑,1.7107972000085283,True,44,1,1,11
PB014M27,4,304,AS,exp,32,→,left,←,0.7669169000000693,False,43,-1,1,12
PB014M27,4,305,AS,exp,26,↓,no_key,no_letter,-1.0,False,44,-1,0,12
PB014M27,4,306,AS,exp,26,↑,right,→,1.847677300014766,False,45,-1,0,12
PB014M27,4,307,AS,exp,37,←,no_key,no_letter,-1.0,False,46,-1,0,12
PB014M27,4,308,AS,exp,40,↑,up,↑,0.7511363999801688,True,47,-1,0,12
PB014M27,4,309,AS,exp,27,→,left,←,0.985148300009314,False,47,-1,0,12
PB014M27,4,310,AS,exp,40,↓,no_key,no_letter,-1.0,False,48,-1,0,12
PB014M27,4,311,AS,exp,35,←,left,←,0.8338296999863815,True,49,-1,0,12
PB014M27,4,312,AS,exp,37,↑,up,↑,1.11954329998116,True,49,1,1,13
PB014M27,4,313,AS,exp,27,←,left,←,0.8338808999978937,True,48,1,0,13
PB014M27,4,314,AS,exp,49,↑,up,↑,0.8504859000095166,True,48,1,0,13
PB014M27,4,315,AS,exp,27,→,left,←,0.8836841000011191,False,47,-1,1,14
PB014M27,5,316,AS,intra_train,49,←,left,←,0.9094924000091851,True,33,-,-,-
PB014M27,5,317,AS,intra_train,50,↓,right,→,0.7928277000028174,False,33,-,-,-
PB014M27,5,318,AS,intra_train,26,→,no_key,no_letter,-1.0,False,33,-,-,-
PB014M27,5,319,AS,intra_train,36,↓,up,↑,0.5836315000196919,False,33,-,-,-
PB014M27,5,320,AS,intra_train,42,↑,up,↑,0.8404779999982566,True,33,-,-,-
PB014M27,5,321,AS,exp,50,↓,right,→,1.6168069000123069,False,22,-1,0,0
PB014M27,5,322,AS,exp,49,←,left,←,0.6970829999772832,True,23,-1,0,0
PB014M27,5,323,AS,exp,48,↑,up,↑,0.8657488999888301,True,23,1,1,1
PB014M27,5,324,AS,exp,32,↓,down,↓,1.4705931000062265,True,22,1,0,1
PB014M27,5,325,AS,exp,40,→,left,←,0.693921500002034,False,22,-1,1,2
PB014M27,5,326,AS,exp,41,↑,up,↑,0.7244884000101592,True,23,-1,0,2
PB014M27,5,327,AS,exp,48,↓,down,↓,0.9766301000199746,True,23,1,1,3
PB014M27,5,328,AS,exp,41,→,right,→,0.741674899996724,True,22,1,0,3
PB014M27,5,329,AS,exp,32,↓,up,↑,0.7430381000158377,False,22,-1,1,4
PB014M27,5,330,AS,exp,26,↑,down,↓,0.7268192000046838,False,23,-1,0,4
PB014M27,5,331,AS,exp,48,→,left,←,1.0225467999989633,False,24,-1,0,4
PB014M27,5,332,AS,exp,34,←,right,→,0.7365866999898572,False,25,-1,0,4
PB014M27,5,333,AS,exp,36,↓,down,↓,0.8015051999827847,True,26,-1,0,4
PB014M27,5,334,AS,exp,25,↑,up,↑,0.8211671999888495,True,26,1,1,5
PB014M27,5,335,AS,exp,29,→,left,←,0.7783166000153869,False,25,-1,1,6
PB014M27,5,336,AS,exp,25,↓,down,↓,0.8456177999905776,True,26,-1,0,6
PB014M27,5,337,AS,exp,39,↑,right,→,1.5923623999988195,False,26,-1,0,6
PB014M27,5,338,AS,exp,25,←,left,←,0.899387299985392,True,27,-1,0,6
PB014M27,5,339,AS,exp,34,→,right,→,0.8672268999798689,True,27,1,1,7
PB014M27,5,340,AS,exp,27,←,left,←,0.6984882999968249,True,26,1,0,7
PB014M27,5,341,AS,exp,35,↑,down,↓,0.958506099996157,False,26,-1,1,8
PB014M27,5,342,AS,exp,42,↓,right,→,1.475001999991946,False,27,-1,0,8
PB014M27,5,343,AS,exp,26,←,left,←,0.8782749999954831,True,28,-1,0,8
PB014M27,5,344,AS,exp,49,→,left,←,0.6649918000039179,False,28,-1,0,8
PB014M27,5,345,AS,exp,42,↑,up,↑,0.5837207000004128,True,29,-1,0,8
PB014M27,5,346,AS,exp,41,→,right,→,0.8408158000092953,True,29,1,1,9
PB014M27,5,347,AS,exp,46,↑,down,↓,1.6564194999809843,False,28,-1,1,10
PB014M27,5,348,AS,exp,40,→,right,→,0.7255862999882083,True,29,-1,0,10
PB014M27,5,349,AS,exp,49,↑,left,←,1.2975892999966163,False,29,-1,0,10
PB014M27,5,350,AS,exp,48,←,right,→,0.8118627000076231,False,30,-1,0,10
PB014M27,5,351,AS,exp,28,→,right,→,0.6505018999741878,True,31,-1,0,10
PB014M27,5,352,AS,exp,34,←,left,←,0.6985320000094362,True,31,1,1,11
PB014M27,5,353,AS,exp,39,↑,up,↑,0.5504023999965284,True,30,1,0,11
PB014M27,5,354,AS,exp,28,←,right,→,0.7300739999918733,False,30,-1,1,12
PB014M27,5,355,AS,exp,35,↓,down,↓,1.0127435999747831,True,31,-1,0,12
PB014M27,5,356,AS,exp,47,↑,up,↑,0.7022999000037089,True,31,1,1,13
PB014M27,5,357,AS,exp,28,↓,down,↓,0.7956892999936827,True,30,1,0,13
PB014M27,5,358,AS,exp,35,↑,up,↑,0.5338336999993771,True,30,1,0,13
PB014M27,5,359,AS,exp,30,→,right,→,0.533620800008066,True,29,1,0,13
PB014M27,5,360,AS,exp,37,←,left,←,0.9290702999860514,True,29,1,0,13
PB014M27,5,361,AS,exp,28,↓,down,↓,0.9774295000243001,True,28,1,0,13
PB014M27,5,362,AS,exp,37,←,left,←,0.6697916999983136,True,28,1,0,13
PB014M27,5,363,AS,exp,28,↓,down,↓,0.6439588000066578,True,27,1,0,13
PB014M27,5,364,AS,exp,45,↑,left,←,1.1375942999729887,False,27,-1,1,14
PB014M27,6,365,PS,intra_train,48,↓,down,↓,0.9428257000108715,True,13,-,-,-
PB014M27,6,366,PS,intra_train,39,→,right,→,0.6251879000046756,True,13,-,-,-
PB014M27,6,367,PS,intra_train,37,↓,left,←,1.2443466000258923,False,13,-,-,-
PB014M27,6,368,PS,intra_train,27,↑,up,↑,0.4822987999941688,True,13,-,-,-
PB014M27,6,369,PS,intra_train,30,→,right,→,0.5258134999894537,True,13,-,-,-
PB014M27,6,370,PS,exp,50,↑,left,←,0.751481600018451,False,9,-1,0,0
PB014M27,6,371,PS,exp,26,←,down,↓,0.7145734000077937,False,10,-1,0,0
PB014M27,6,372,PS,exp,32,↑,up,↑,0.494012000010116,True,11,-1,0,0
PB014M27,6,373,PS,exp,25,→,left,←,0.6821048999845516,False,11,-1,0,0
PB014M27,6,374,PS,exp,28,←,left,←,0.569037200009916,True,12,-1,0,0
PB014M27,6,375,PS,exp,43,→,right,→,0.5894410999899264,True,12,1,1,1
PB014M27,6,376,PS,exp,47,↓,left,←,0.9456170999910682,False,11,-1,1,2
PB014M27,6,377,PS,exp,37,→,right,→,0.5072620999999344,True,12,-1,0,2
PB014M27,6,378,PS,exp,42,←,left,←,0.5902766000072006,True,12,1,1,3
PB014M27,6,379,PS,exp,30,↑,right,→,1.0668130999838468,False,11,-1,1,4
PB014M27,6,380,PS,exp,37,→,right,→,0.5630552000075113,True,12,-1,0,4
PB014M27,6,381,PS,exp,45,←,left,←,0.39925260000745766,True,12,1,1,5
PB014M27,6,382,PS,exp,26,↓,down,↓,0.5302452000032645,True,11,1,0,5
PB014M27,6,383,PS,exp,47,←,left,←,0.7003460999985691,True,11,1,0,5
PB014M27,6,384,PS,exp,35,↑,up,↑,0.6222954000113532,True,10,1,0,5
PB014M27,6,385,PS,exp,35,←,left,←,0.6372849000035785,True,10,1,0,5
PB014M27,6,386,PS,exp,26,→,right,→,0.6796462000056636,True,9,1,0,5
PB014M27,6,387,PS,exp,50,↑,up,↑,0.8024275000207126,True,9,1,0,5
PB014M27,6,388,PS,exp,27,←,left,←,0.9413700999866705,True,8,1,0,5
PB014M27,6,389,PS,exp,30,↑,right,→,0.8119208999851253,False,8,-1,1,6
PB014M27,6,390,PS,exp,43,↓,down,↓,0.5401228000118863,True,9,-1,0,6
PB014M27,6,391,PS,exp,35,→,right,→,0.6772664999880362,True,9,1,1,7
PB014M27,6,392,PS,exp,33,↑,up,↑,0.5154325000185054,True,8,1,0,7
PB014M27,6,393,PS,exp,34,←,left,←,0.5527801000280306,True,8,1,0,7
PB014M27,6,394,PS,exp,44,↓,right,→,0.6476235000009183,False,7,-1,1,8
PB014M27,6,395,PS,exp,37,←,left,←,0.5976008999859914,True,8,-1,0,8
PB014M27,6,396,PS,exp,44,↓,down,↓,0.4798024000192527,True,8,1,1,9
PB014M27,6,397,PS,exp,29,↑,up,↑,0.7527201999910176,True,7,1,0,9
PB014M27,6,398,PS,exp,28,←,left,←,0.7858381000114605,True,7,1,0,9
PB014M27,6,399,PS,exp,49,↓,down,↓,0.4716578000225127,True,6,1,0,9
PB014M27,6,400,PS,exp,34,↑,up,↑,0.5591668999986723,True,6,1,0,9
PB014M27,6,401,PS,exp,39,←,right,→,0.9126533000089694,False,5,-1,1,10
PB014M27,6,402,PS,exp,39,→,left,←,0.6490848000103142,False,6,-1,0,10
PB014M27,6,403,PS,exp,46,↑,down,↓,0.571331100014504,False,7,-1,0,10
PB014M27,6,404,PS,exp,34,←,left,←,0.7625566000060644,True,8,-1,0,10
PB014M27,6,405,PS,exp,27,↓,up,↑,0.5851107999915257,False,8,-1,0,10
PB014M27,6,406,PS,exp,30,→,down,↓,0.9089879000093788,False,9,-1,0,10
PB014M27,6,407,PS,exp,28,↓,down,↓,0.5855882999894675,True,10,-1,0,10
PB014M27,6,408,PS,exp,32,↑,up,↑,0.49216059999889694,True,10,1,1,11
PB014M27,6,409,PS,exp,27,↓,down,↓,0.52320170000894,True,9,1,0,11
PB014M27,6,410,PS,exp,48,←,left,←,0.6993713999981992,True,9,1,0,11
PB014M27,6,411,PS,exp,37,↑,up,↑,0.4464272999903187,True,8,1,0,11
PB014M27,6,412,PS,exp,48,↓,down,↓,0.4972849999903701,True,8,1,0,11
PB014M27,6,413,PS,exp,36,→,up,↑,0.6457406000117771,False,7,-1,1,12
PB014M27,6,414,PS,exp,39,↓,down,↓,0.4314672000182327,True,8,-1,0,12
PB014M27,6,415,PS,exp,33,→,up,↑,0.8326838999928441,False,8,-1,0,12
PB014M27,6,416,PS,exp,28,↓,left,←,1.181548799999291,False,9,-1,0,12
PB014M27,6,417,PS,exp,33,←,left,←,0.6240683000069112,True,10,-1,0,12
PB014M27,6,418,PS,exp,29,↓,down,↓,0.7039873999892734,True,10,1,1,13
PB014M27,6,419,PS,exp,41,→,left,←,0.9377387999847997,False,9,-1,1,14
PB014M27,7,420,PS,intra_train,46,←,left,←,0.6401561999809928,True,13,-,-,-
PB014M27,7,421,PS,intra_train,35,↑,up,↑,0.5067300999944564,True,13,-,-,-
PB014M27,7,422,PS,intra_train,39,→,right,→,0.7275931000185665,True,13,-,-,-
PB014M27,7,423,PS,intra_train,28,←,left,←,0.7922396999783814,True,13,-,-,-
PB014M27,7,424,PS,intra_train,38,↓,down,↓,0.5132067000085954,True,13,-,-,-
PB014M27,7,425,PS,exp,50,←,left,←,0.6512492999900132,True,9,0,0,0
PB014M27,7,426,PS,exp,30,↓,down,↓,0.5047206000017468,True,9,1,0,0
PB014M27,7,427,PS,exp,34,→,down,↓,0.6831278000026941,False,8,-1,1,1
PB014M27,7,428,PS,exp,39,←,left,←,0.5569120000000112,True,9,-1,0,1
PB014M27,7,429,PS,exp,42,↑,up,↑,0.5069304000062402,True,9,1,1,2
PB014M27,7,430,PS,exp,45,↓,down,↓,0.6583879999816418,True,8,1,0,2
PB014M27,7,431,PS,exp,38,→,right,→,0.8039175999874715,True,8,1,0,2
PB014M27,7,432,PS,exp,41,↓,down,↓,0.49349290001555346,True,7,1,0,2
PB014M27,7,433,PS,exp,47,↑,up,↑,0.6360591000120621,True,7,1,0,2
PB014M27,7,434,PS,exp,50,→,right,→,0.8855214999930467,True,6,1,0,2
PB014M27,7,435,PS,exp,45,↓,down,↓,0.556304400000954,True,6,1,0,2
PB014M27,7,436,PS,exp,26,→,right,→,0.8135360000014771,True,5,1,0,2
PB014M27,7,437,PS,exp,34,↑,down,↓,0.8364904999907594,False,5,-1,1,3
PB014M27,7,438,PS,exp,31,←,left,←,0.512985099980142,True,6,-1,0,3
PB014M27,7,439,PS,exp,41,→,down,↓,1.0019610000017565,False,6,-1,0,3
PB014M27,7,440,PS,exp,25,←,right,→,0.7943313000141643,False,7,-1,0,3
PB014M27,7,441,PS,exp,47,→,right,→,0.5763080000178888,True,8,-1,0,3
PB014M27,7,442,PS,exp,30,←,left,←,0.7432345999986865,True,8,1,1,4
PB014M27,7,443,PS,exp,31,↑,up,↑,0.5189590999798384,True,7,1,0,4
PB014M27,7,444,PS,exp,34,↓,down,↓,0.6281736000091769,True,7,1,0,4
PB014M27,7,445,PS,exp,46,←,right,→,0.5832500999968033,False,6,-1,1,5
PB014M27,7,446,PS,exp,30,→,right,→,0.5393442999920808,True,7,-1,0,5
PB014M27,7,447,PS,exp,40,↑,up,↑,0.7442878000147175,True,7,1,1,6
PB014M27,7,448,PS,exp,30,←,left,←,0.8071067999990191,True,6,1,0,6
PB014M27,7,449,PS,exp,31,→,right,→,0.5996728999889456,True,6,1,0,6
PB014M27,7,450,PS,exp,34,←,down,↓,0.7533068000047933,False,5,-1,1,7
PB014M27,7,451,PS,exp,47,↓,up,↑,0.6567549000028521,False,6,-1,0,7
PB014M27,7,452,PS,exp,43,→,left,←,0.8190645000140648,False,7,-1,0,7
PB014M27,7,453,PS,exp,41,↑,up,↑,0.524512500007404,True,8,-1,0,7
PB014M27,7,454,PS,exp,47,←,left,←,0.6464217000175267,True,8,1,1,8
PB014M27,7,455,PS,exp,30,↓,up,↑,0.6162795999844093,False,7,-1,1,9
PB014M27,7,456,PS,exp,39,↑,right,→,1.3103037999826483,False,8,-1,0,9
PB014M27,7,457,PS,exp,49,↓,down,↓,0.5991688999929465,True,9,-1,0,9
PB014M27,7,458,PS,exp,32,↑,up,↑,0.4743556000175886,True,9,1,1,10
PB014M27,7,459,PS,exp,40,→,right,→,0.6344247999950312,True,8,1,0,10
PB014M27,7,460,PS,exp,47,←,left,←,0.577776799997082,True,8,1,0,10
PB014M27,7,461,PS,exp,41,→,left,←,1.610334299999522,False,7,-1,1,11
PB014M27,7,462,PS,exp,50,←,right,→,0.9620389000046998,False,8,-1,0,11
PB014M27,7,463,PS,exp,29,↑,up,↑,0.7168053000059444,True,9,-1,0,11
PB014M27,7,464,PS,exp,47,→,right,→,0.6654569999955129,True,9,1,1,12
PB014M27,7,465,PS,exp,35,↑,up,↑,0.5950041000032797,True,8,1,0,12
PB014M27,7,466,PS,exp,35,←,right,→,0.7953776000067592,False,8,-1,1,13
PB014M27,7,467,PS,exp,36,↑,up,↑,0.6873433000000659,True,9,-1,0,13
PB014M27,7,468,PS,exp,31,↓,down,↓,0.6074690999812447,True,9,1,1,14
PB014M27,8,469,AS,intra_train,48,↑,up,↑,0.9205349999829195,True,33,-,-,-
PB014M27,8,470,AS,intra_train,45,↓,up,↑,1.0244220000167843,False,33,-,-,-
PB014M27,8,471,AS,intra_train,29,←,left,←,0.8539254000061192,True,33,-,-,-
PB014M27,8,472,AS,intra_train,31,↑,up,↑,0.8021008999785408,True,33,-,-,-
PB014M27,8,473,AS,intra_train,33,←,left,←,0.8372733000142034,True,33,-,-,-
PB014M27,8,474,AS,exp,35,→,left,←,1.0820232999976724,False,22,-1,0,0
PB014M27,8,475,AS,exp,29,↑,left,←,0.8400315000035334,False,23,-1,0,0
PB014M27,8,476,AS,exp,30,↓,left,←,0.6936479000141844,False,24,-1,0,0
PB014M27,8,477,AS,exp,39,↑,up,↑,0.6039150999858975,True,25,-1,0,0
PB014M27,8,478,AS,exp,28,→,left,←,0.7622996999998577,False,25,-1,0,0
PB014M27,8,479,AS,exp,25,←,left,←,0.7037276000191923,True,26,-1,0,0
PB014M27,8,480,AS,exp,30,↑,up,↑,1.8904263000003994,True,26,1,1,1
PB014M27,8,481,AS,exp,27,↓,up,↑,0.7696964000060689,False,25,-1,1,2
PB014M27,8,482,AS,exp,45,←,left,←,0.6746618000033777,True,26,-1,0,2
PB014M27,8,483,AS,exp,37,↓,down,↓,1.9062673000153154,True,26,1,1,3
PB014M27,8,484,AS,exp,45,→,right,→,1.0430068999994546,True,25,1,0,3
PB014M27,8,485,AS,exp,37,←,left,←,0.6415177999879234,True,25,1,0,3
PB014M27,8,486,AS,exp,48,↓,up,↑,0.8305901999992784,False,24,-1,1,4
PB014M27,8,487,AS,exp,28,←,left,←,0.8945559000130743,True,25,-1,0,4
PB014M27,8,488,AS,exp,29,→,down,↓,1.1486717000079807,False,25,-1,0,4
PB014M27,8,489,AS,exp,41,↓,up,↑,0.5671461999882013,False,26,-1,0,4
PB014M27,8,490,AS,exp,48,→,down,↓,0.959038100001635,False,27,-1,0,4
PB014M27,8,491,AS,exp,42,←,down,↓,0.6005648999998812,False,28,-1,0,4
PB014M27,8,492,AS,exp,45,↑,right,→,0.6602018999983557,False,29,-1,0,4
PB014M27,8,493,AS,exp,45,←,left,←,0.8342153999838047,True,30,-1,0,4
PB014M27,8,494,AS,exp,26,↑,up,↑,0.8436783000070136,True,30,1,1,5
PB014M27,8,495,AS,exp,31,←,up,↑,0.8700351000006776,False,29,-1,1,6
PB014M27,8,496,AS,exp,36,↑,left,←,0.7127338999998756,False,30,-1,0,6
PB014M27,8,497,AS,exp,28,↓,down,↓,1.2619049999921117,True,31,-1,0,6
PB014M27,8,498,AS,exp,36,→,up,↑,0.6171670000185259,False,31,-1,0,6
PB014M27,8,499,AS,exp,31,↓,left,←,0.73904779998702,False,32,-1,0,6
PB014M27,8,500,AS,exp,40,↑,up,↑,0.667173299996648,True,33,-1,0,6
PB014M27,8,501,AS,exp,37,↓,right,→,0.8201388999877963,False,33,-1,0,6
PB014M27,8,502,AS,exp,33,→,left,←,1.2201072000025306,False,34,-1,0,6
PB014M27,8,503,AS,exp,41,←,left,←,0.6337598999962211,True,35,-1,0,6
PB014M27,8,504,AS,exp,40,↑,left,←,1.1862105999898631,False,35,-1,0,6
PB014M27,8,505,AS,exp,47,→,left,←,0.5836719000071753,False,36,-1,0,6
PB014M27,8,506,AS,exp,36,←,left,←,0.567686299997149,True,37,-1,0,6
PB014M27,8,507,AS,exp,29,↑,right,→,1.8278258999926038,False,37,-1,0,6
PB014M27,8,508,AS,exp,39,←,left,←,0.717144800000824,True,38,-1,0,6
PB014M27,8,509,AS,exp,43,↑,up,↑,0.9066679000097793,True,38,1,1,7
PB014M27,8,510,AS,exp,50,→,right,→,1.1054548000101931,True,37,1,0,7
PB014M27,8,511,AS,exp,34,↑,up,↑,0.6838386000017636,True,37,1,0,7
PB014M27,8,512,AS,exp,25,↓,down,↓,0.6503615999827161,True,36,1,0,7
PB014M27,8,513,AS,exp,40,←,right,→,0.7006204999925103,False,36,-1,1,8
PB014M27,8,514,AS,exp,41,→,right,→,0.8383448999957182,True,37,-1,0,8
PB014M27,8,515,AS,exp,38,↑,up,↑,0.7504314000252634,True,37,1,1,9
PB014M27,8,516,AS,exp,48,←,left,←,0.6004794000182301,True,36,1,0,9
PB014M27,8,517,AS,exp,43,↑,up,↑,0.484508099994855,True,36,1,0,9
PB014M27,8,518,AS,exp,41,↓,down,↓,0.5510549999889918,True,35,1,0,9
PB014M27,8,519,AS,exp,36,→,right,→,0.936482299992349,True,35,1,0,9
PB014M27,8,520,AS,exp,36,↓,down,↓,0.7667222000018228,True,34,1,0,9
PB014M27,8,521,AS,exp,44,→,right,→,0.815584800002398,True,34,1,0,9
PB014M27,8,522,AS,exp,47,←,left,←,0.7713400999782607,True,33,1,0,9
PB014M27,8,523,AS,exp,31,→,right,→,0.6671704999753274,True,33,1,0,9
PB014M27,8,524,AS,exp,27,↓,up,↑,0.8036919999867678,False,32,-1,1,10
PB014M27,8,525,AS,exp,39,→,right,→,0.86921559998882,True,33,-1,0,10
PB014M27,8,526,AS,exp,41,↑,up,↑,0.6344704999937676,True,33,1,1,11
PB014M27,8,527,AS,exp,41,←,left,←,0.667286600015359,True,32,1,0,11
PB014M27,8,528,AS,exp,44,↓,down,↓,0.6670423000177834,True,32,1,0,11
PB014M27,8,529,AS,exp,25,→,left,←,0.9058138999971561,False,31,-1,1,12
PB014M27,8,530,AS,exp,42,↑,down,↓,0.8910137999919243,False,32,-1,0,12
PB014M27,8,531,AS,exp,48,←,left,←,0.8984501999802887,True,33,-1,0,12
PB014M27,8,532,AS,exp,36,↑,up,↑,0.5172329000197351,True,33,1,1,13
PB014M27,8,533,AS,exp,31,←,left,←,0.8126994999765884,True,32,1,0,13
PB014M27,8,534,AS,exp,33,→,right,→,0.7377109999943059,True,32,1,0,13
PB014M27,8,535,AS,exp,40,↑,up,↑,0.7388792999845464,True,31,1,0,13
PB014M27,8,536,AS,exp,50,↓,left,←,0.7386657999886665,False,31,-1,1,14
