PART_ID,Block_no,Trial_no,Block_type,Trial_type,CSI,Stim_letter,Key_pressed,letter_choose,Rt,Corr,Stimulus Time,Level,Reversal,Revs_count
PB012K23,1,1,PS,train,25,↓,up,↑,1.8842667000135407,False,30,-,-,-
PB012K23,1,2,PS,train,50,←,left,←,1.1921615999890491,True,30,-,-,-
PB012K23,1,3,PS,train,48,↓,down,↓,1.019511099992087,True,30,-,-,-
PB012K23,1,4,PS,train,36,→,right,→,0.8563264999829698,True,30,-,-,-
PB012K23,1,5,PS,train,25,↓,down,↓,0.8523221999930684,True,30,-,-,-
PB012K23,1,6,PS,train,25,←,left,←,0.7526940999960061,True,30,-,-,-
PB012K23,1,7,PS,train,41,↑,up,↑,0.8264281000010669,True,30,-,-,-
PB012K23,1,8,PS,train,30,↓,down,↓,0.9797523000161164,True,30,-,-,-
PB012K23,1,9,PS,train,31,→,right,→,0.7127613000047859,True,30,-,-,-
PB012K23,1,10,PS,train,46,↓,down,↓,1.0366934000048786,True,30,-,-,-
PB012K23,2,11,AS,train,28,←,left,←,0.651384800003143,True,45,-,-,-
PB012K23,2,12,AS,train,44,↑,up,↑,0.5014215999981388,True,45,-,-,-
PB012K23,2,13,AS,train,43,↓,down,↓,0.6674917000054847,True,45,-,-,-
PB012K23,2,14,AS,train,31,→,right,→,0.5013545999827329,True,45,-,-,-
PB012K23,2,15,AS,train,32,↑,up,↑,0.7673223000019789,True,45,-,-,-
PB012K23,2,16,AS,train,30,↓,down,↓,0.5681281999859493,True,45,-,-,-
PB012K23,2,17,AS,train,29,←,left,←,0.8506550000165589,True,45,-,-,-
PB012K23,2,18,AS,train,30,→,right,→,0.7841269000200555,True,45,-,-,-
PB012K23,2,19,AS,train,49,↑,up,↑,0.4680094000068493,True,45,-,-,-
PB012K23,2,20,AS,train,47,→,right,→,0.36766099999658763,True,45,-,-,-
PB012K23,-,21,PS,adaptive,42,←,left,←,0.6161404999729712,True,10,0,0,0
PB012K23,-,22,PS,adaptive,25,↑,up,↑,0.8215193999931216,True,10,1,0,0
PB012K23,-,23,PS,adaptive,45,←,left,←,0.5377510999969672,True,9,1,0,0
PB012K23,-,24,PS,adaptive,32,→,right,→,0.5596005000115838,True,9,1,0,0
PB012K23,-,25,PS,adaptive,47,←,left,←,0.5953118999896105,True,8,1,0,0
PB012K23,-,26,PS,adaptive,30,↑,up,↑,0.5912053000065498,True,8,1,0,0
PB012K23,-,27,PS,adaptive,28,↓,right,→,0.9591326999943703,False,7,-1,1,1
PB012K23,-,28,PS,adaptive,31,←,right,→,0.7805822999798693,False,8,-1,0,1
PB012K23,-,29,PS,adaptive,38,→,up,↑,1.1571652000129689,False,9,-1,0,1
PB012K23,-,30,PS,adaptive,26,↓,down,↓,0.8051331999886315,True,10,-1,0,1
PB012K23,-,31,PS,adaptive,28,→,right,→,0.613771899981657,True,10,1,1,2
PB012K23,-,32,PS,adaptive,35,↑,up,↑,0.5501169000053778,True,9,1,0,2
PB012K23,-,33,PS,adaptive,46,→,left,←,1.6596271000162233,False,9,-1,1,3
PB012K23,-,34,PS,adaptive,49,↓,down,↓,0.8203096000070218,True,10,-1,0,3
PB012K23,-,35,PS,adaptive,30,→,right,→,0.558118499990087,True,10,1,1,4
PB012K23,-,36,AS,adaptive,37,↑,down,↓,0.8720983999955934,False,20,-1,0,0
PB012K23,-,37,AS,adaptive,28,→,right,→,0.6596781999978703,True,21,-1,0,0
PB012K23,-,38,AS,adaptive,31,←,left,←,0.7330701000173576,True,21,1,1,1
PB012K23,-,39,AS,adaptive,32,→,right,→,0.5240565999993123,True,20,1,0,1
PB012K23,-,40,AS,adaptive,48,↑,up,↑,1.3889576999936253,True,20,1,0,1
PB012K23,-,41,AS,adaptive,48,→,right,→,0.6157564999884926,True,19,1,0,1
PB012K23,-,42,AS,adaptive,35,←,left,←,1.5826176999835297,True,19,1,0,1
PB012K23,-,43,AS,adaptive,31,→,right,→,0.5292939000064507,True,18,1,0,1
PB012K23,-,44,AS,adaptive,38,↑,up,↑,1.0289756999991369,True,18,1,0,1
PB012K23,-,45,AS,adaptive,44,↓,down,↓,0.6143311999912839,True,17,1,0,1
PB012K23,-,46,AS,adaptive,44,↑,up,↑,0.8522722000197973,True,17,1,0,1
PB012K23,-,47,AS,adaptive,31,↓,up,↑,0.9294958999962546,False,16,-1,1,2
PB012K23,-,48,AS,adaptive,44,↑,up,↑,0.9689749000244774,True,17,-1,0,2
PB012K23,-,49,AS,adaptive,31,←,right,→,0.6851484999933746,False,17,-1,0,2
PB012K23,-,50,AS,adaptive,33,↑,up,↑,1.028537200007122,True,18,-1,0,2
PB012K23,-,51,AS,adaptive,30,→,right,→,0.7415269000048283,True,18,1,1,3
PB012K23,-,52,AS,adaptive,41,↑,no_key,no_letter,-1.0,False,17,-1,1,4
PB012K23,1,53,AS,intra_train,48,↓,down,↓,1.062514999997802,True,27,-,-,-
PB012K23,1,54,AS,intra_train,34,→,right,→,0.8605766999826301,True,27,-,-,-
PB012K23,1,55,AS,intra_train,46,↑,up,↑,0.666746000002604,True,27,-,-,-
PB012K23,1,56,AS,intra_train,33,↓,down,↓,0.9840487999899779,True,27,-,-,-
PB012K23,1,57,AS,intra_train,39,←,left,←,0.6828297000029124,True,27,-,-,-
PB012K23,1,58,AS,exp,46,↓,down,↓,0.8830223999975715,True,18,0,0,0
PB012K23,1,59,AS,exp,48,←,left,←,0.8793088000093121,True,18,1,0,0
PB012K23,1,60,AS,exp,25,→,left,←,0.7870374000049196,False,17,-1,1,1
PB012K23,1,61,AS,exp,37,←,left,←,0.7083836999954656,True,18,-1,0,1
PB012K23,1,62,AS,exp,27,↓,down,↓,0.7641817000112496,True,18,1,1,2
PB012K23,1,63,AS,exp,27,←,left,←,0.64920310000889,True,17,1,0,2
PB012K23,1,64,AS,exp,44,→,right,→,0.6076646999863442,True,17,1,0,2
PB012K23,1,65,AS,exp,27,↑,down,↓,1.0916287000000011,False,16,-1,1,3
PB012K23,1,66,AS,exp,42,→,left,←,1.1114727000240237,False,17,-1,0,3
PB012K23,1,67,AS,exp,31,←,left,←,0.7957483999780379,True,18,-1,0,3
PB012K23,1,68,AS,exp,43,↓,down,↓,0.8484332999796607,True,18,1,1,4
PB012K23,1,69,AS,exp,26,←,down,↓,1.835593700001482,False,17,-1,1,5
PB012K23,1,70,AS,exp,46,→,right,→,0.7982365000061691,True,18,-1,0,5
PB012K23,1,71,AS,exp,49,↑,up,↑,0.7334835000219755,True,18,1,1,6
PB012K23,1,72,AS,exp,32,→,right,→,1.1144098000077065,True,17,1,0,6
PB012K23,1,73,AS,exp,37,↑,up,↑,0.4955562000104692,True,17,1,0,6
PB012K23,1,74,AS,exp,49,↓,down,↓,0.6817195999901742,True,16,1,0,6
PB012K23,1,75,AS,exp,28,↑,up,↑,0.6554324000026099,True,16,1,0,6
PB012K23,1,76,AS,exp,27,→,right,→,1.6044987000059336,True,15,1,0,6
PB012K23,1,77,AS,exp,29,↓,down,↓,1.0533217999909539,True,15,1,0,6
PB012K23,1,78,AS,exp,42,→,right,→,0.5634684000106063,True,14,1,0,6
PB012K23,1,79,AS,exp,43,↓,down,↓,0.9196292999840807,True,14,1,0,6
PB012K23,1,80,AS,exp,26,→,right,→,0.5885726000124123,True,13,1,0,6
PB012K23,1,81,AS,exp,25,↑,up,↑,0.4930426999926567,True,13,1,0,6
PB012K23,1,82,AS,exp,49,←,right,→,0.69953529999475,False,12,-1,1,7
PB012K23,1,83,AS,exp,39,↓,down,↓,0.9292994999850634,True,13,-1,0,7
PB012K23,1,84,AS,exp,49,↑,up,↑,0.5421376000158489,True,13,1,1,8
PB012K23,1,85,AS,exp,28,→,right,→,0.7477724000054877,True,12,1,0,8
PB012K23,1,86,AS,exp,49,←,left,←,0.5718133999907877,True,12,1,0,8
PB012K23,1,87,AS,exp,47,↑,up,↑,0.7573702000081539,True,11,1,0,8
PB012K23,1,88,AS,exp,42,←,right,→,0.6965877000184264,False,11,-1,1,9
PB012K23,1,89,AS,exp,42,↑,up,↑,0.6197839999804273,True,12,-1,0,9
PB012K23,1,90,AS,exp,44,↓,down,↓,0.7249564999947324,True,12,1,1,10
PB012K23,1,91,AS,exp,49,←,left,←,0.5451004000206012,True,11,1,0,10
PB012K23,1,92,AS,exp,40,→,right,→,0.5541976000240538,True,11,1,0,10
PB012K23,1,93,AS,exp,49,←,left,←,0.8249779000179842,True,10,1,0,10
PB012K23,1,94,AS,exp,50,↑,down,↓,0.9719136000203434,False,10,-1,1,11
PB012K23,1,95,AS,exp,50,→,right,→,0.6769817000022158,True,11,-1,0,11
PB012K23,1,96,AS,exp,38,↑,down,↓,0.8621943999896757,False,11,-1,0,11
PB012K23,1,97,AS,exp,48,←,right,→,0.6962182999996003,False,12,-1,0,11
PB012K23,1,98,AS,exp,30,→,right,→,0.5972191999899223,True,13,-1,0,11
PB012K23,1,99,AS,exp,36,↑,down,↓,1.3051533999969251,False,13,-1,0,11
PB012K23,1,100,AS,exp,34,→,left,←,0.9265797999978531,False,14,-1,0,11
PB012K23,1,101,AS,exp,26,↓,down,↓,0.7697424999787472,True,15,-1,0,11
PB012K23,1,102,AS,exp,27,↑,up,↑,0.513948400010122,True,15,1,1,12
PB012K23,1,103,AS,exp,32,↓,down,↓,0.860746599995764,True,14,1,0,12
PB012K23,1,104,AS,exp,32,→,right,→,0.5832685999921523,True,14,1,0,12
PB012K23,1,105,AS,exp,31,↓,down,↓,0.9684093999967445,True,13,1,0,12
PB012K23,1,106,AS,exp,34,←,left,←,0.5964378000062425,True,13,1,0,12
PB012K23,1,107,AS,exp,45,↑,up,↑,1.0072051000024658,True,12,1,0,12
PB012K23,1,108,AS,exp,26,←,right,→,0.6728700999810826,False,12,-1,1,13
PB012K23,1,109,AS,exp,34,→,left,←,0.7329481999913696,False,13,-1,0,13
PB012K23,1,110,AS,exp,25,↑,left,←,1.2417754999769386,False,14,-1,0,13
PB012K23,1,111,AS,exp,29,↓,down,↓,0.8120180999976583,True,15,-1,0,13
PB012K23,1,112,AS,exp,45,←,right,→,0.7086186000087764,False,15,-1,0,13
PB012K23,1,113,AS,exp,38,↓,down,↓,0.7528649999876507,True,16,-1,0,13
PB012K23,1,114,AS,exp,43,→,right,→,0.6318584000109695,True,16,1,1,14
PB012K23,2,115,PS,intra_train,45,↑,up,↑,1.234318800008623,True,13,-,-,-
PB012K23,2,116,PS,intra_train,36,←,right,→,1.0957329999946523,False,13,-,-,-
PB012K23,2,117,PS,intra_train,48,↑,up,↑,0.5888027000182774,True,13,-,-,-
PB012K23,2,118,PS,intra_train,42,↓,down,↓,0.6791080000111833,True,13,-,-,-
PB012K23,2,119,PS,intra_train,35,↑,up,↑,0.6045980000053532,True,13,-,-,-
PB012K23,2,120,PS,exp,47,↓,right,→,0.8329873000038788,False,9,-1,0,0
PB012K23,2,121,PS,exp,36,→,right,→,0.7806210000126157,True,10,-1,0,0
PB012K23,2,122,PS,exp,37,↑,up,↑,0.5170334999857005,True,10,1,1,1
PB012K23,2,123,PS,exp,29,→,right,→,0.5721843999926932,True,9,1,0,1
PB012K23,2,124,PS,exp,30,↑,up,↑,0.5704245000088122,True,9,1,0,1
PB012K23,2,125,PS,exp,41,↓,up,↑,1.201047100010328,False,8,-1,1,2
PB012K23,2,126,PS,exp,46,↑,up,↑,0.5900657000020146,True,9,-1,0,2
PB012K23,2,127,PS,exp,41,↓,down,↓,0.6658195999916643,True,9,1,1,3
PB012K23,2,128,PS,exp,38,←,left,←,0.6538691000023391,True,8,1,0,3
PB012K23,2,129,PS,exp,36,↓,down,↓,0.5594614000001457,True,8,1,0,3
PB012K23,2,130,PS,exp,32,→,left,←,1.451468199986266,False,7,-1,1,4
PB012K23,2,131,PS,exp,50,↑,up,↑,0.5563297000189777,True,8,-1,0,4
PB012K23,2,132,PS,exp,29,←,left,←,0.6539964000112377,True,8,1,1,5
PB012K23,2,133,PS,exp,47,↑,up,↑,0.5240081999800168,True,7,1,0,5
PB012K23,2,134,PS,exp,34,←,left,←,0.9039526000269689,True,7,1,0,5
PB012K23,2,135,PS,exp,26,↓,up,↑,0.9421419000136666,False,6,-1,1,6
PB012K23,2,136,PS,exp,43,←,left,←,0.73414870002307,True,7,-1,0,6
PB012K23,2,137,PS,exp,46,→,right,→,0.5696185000124387,True,7,1,1,7
PB012K23,2,138,PS,exp,25,↑,up,↑,0.7128552999929525,True,6,1,0,7
PB012K23,2,139,PS,exp,50,↓,down,↓,0.665341800020542,True,6,1,0,7
PB012K23,2,140,PS,exp,38,↑,no_key,no_letter,-1.0,False,5,-1,1,8
PB012K23,2,141,PS,exp,39,←,left,←,0.6601747999957297,True,6,-1,0,8
PB012K23,2,142,PS,exp,49,↑,up,↑,0.527225300000282,True,6,1,1,9
PB012K23,2,143,PS,exp,44,→,no_key,no_letter,-1.0,False,5,-1,1,10
PB012K23,2,144,PS,exp,39,↑,up,↑,0.4354057000018656,True,6,-1,0,10
PB012K23,2,145,PS,exp,26,↓,right,→,0.8795750999997836,False,6,-1,0,10
PB012K23,2,146,PS,exp,40,←,left,←,0.750453299988294,True,7,-1,0,10
PB012K23,2,147,PS,exp,38,↓,down,↓,0.5930514000065159,True,7,1,1,11
PB012K23,2,148,PS,exp,31,←,left,←,0.5706275000120513,True,6,1,0,11
PB012K23,2,149,PS,exp,33,↑,down,↓,0.9568179000052623,False,6,-1,1,12
PB012K23,2,150,PS,exp,25,→,right,→,0.6861333999841008,True,7,-1,0,12
PB012K23,2,151,PS,exp,44,↓,down,↓,0.6751261000172235,True,7,1,1,13
PB012K23,2,152,PS,exp,25,←,left,←,0.5107932999962941,True,6,1,0,13
PB012K23,2,153,PS,exp,50,↑,up,↑,0.6299287999863736,True,6,1,0,13
PB012K23,2,154,PS,exp,37,←,down,↓,1.066373300011037,False,5,-1,1,14
PB012K23,3,155,PS,intra_train,47,→,right,→,0.5283343000046443,True,13,-,-,-
PB012K23,3,156,PS,intra_train,35,←,left,←,0.6897977000044193,True,13,-,-,-
PB012K23,3,157,PS,intra_train,38,↓,down,↓,0.7076387999986764,True,13,-,-,-
PB012K23,3,158,PS,intra_train,48,↑,up,↑,0.5510812000138685,True,13,-,-,-
PB012K23,3,159,PS,intra_train,47,←,left,←,0.4584020999900531,True,13,-,-,-
PB012K23,3,160,PS,exp,32,↓,down,↓,0.7493145000189543,True,9,0,0,0
PB012K23,3,161,PS,exp,39,↑,up,↑,0.5147225000255276,True,9,1,0,0
PB012K23,3,162,PS,exp,39,→,right,→,0.4842068999714684,True,8,1,0,0
PB012K23,3,163,PS,exp,26,↑,up,↑,0.484759800019674,True,8,1,0,0
PB012K23,3,164,PS,exp,37,→,right,→,0.535387299983995,True,7,1,0,0
PB012K23,3,165,PS,exp,35,↑,up,↑,0.5254653000156395,True,7,1,0,0
PB012K23,3,166,PS,exp,28,→,left,←,0.6581029000226408,False,6,-1,1,1
PB012K23,3,167,PS,exp,50,←,left,←,0.5212411999818869,True,7,-1,0,1
PB012K23,3,168,PS,exp,44,↑,up,↑,0.4959025999996811,True,7,1,1,2
PB012K23,3,169,PS,exp,48,←,left,←,0.49080030000186525,True,6,1,0,2
PB012K23,3,170,PS,exp,42,↓,down,↓,0.5276370999927167,True,6,1,0,2
PB012K23,3,171,PS,exp,34,↑,up,↑,0.5228443000232801,True,5,1,0,2
PB012K23,3,172,PS,exp,37,←,left,←,0.5099874000006821,True,5,1,0,2
PB012K23,3,173,PS,exp,49,→,right,→,0.6689249999762978,True,4,1,0,2
PB012K23,3,174,PS,exp,39,←,right,→,0.7703044000081718,False,4,-1,1,3
PB012K23,3,175,PS,exp,46,↑,no_key,no_letter,-1.0,False,5,-1,0,3
PB012K23,3,176,PS,exp,41,←,left,←,0.5167928000155371,True,6,-1,0,3
PB012K23,3,177,PS,exp,43,→,right,→,0.5657204999879468,True,6,1,1,4
PB012K23,3,178,PS,exp,39,←,left,←,0.6860112000140361,True,5,1,0,4
PB012K23,3,179,PS,exp,27,↓,right,→,0.8182992000074591,False,5,-1,1,5
PB012K23,3,180,PS,exp,35,←,no_key,no_letter,-1.0,False,6,-1,0,5
PB012K23,3,181,PS,exp,38,↑,up,↑,0.5602558999962639,True,7,-1,0,5
PB012K23,3,182,PS,exp,31,↓,right,→,1.073366900003748,False,7,-1,0,5
PB012K23,3,183,PS,exp,30,↑,up,↑,0.5592835000134073,True,8,-1,0,5
PB012K23,3,184,PS,exp,32,←,no_key,no_letter,-1.0,False,8,-1,0,5
PB012K23,3,185,PS,exp,33,↑,up,↑,0.5748850000090897,True,9,-1,0,5
PB012K23,3,186,PS,exp,44,→,right,→,0.5520460999978241,True,9,1,1,6
PB012K23,3,187,PS,exp,40,↑,up,↑,0.5348454999912065,True,8,1,0,6
PB012K23,3,188,PS,exp,38,→,right,→,0.4625796999898739,True,8,1,0,6
PB012K23,3,189,PS,exp,47,←,left,←,1.078624599991599,True,7,1,0,6
PB012K23,3,190,PS,exp,29,↑,right,→,0.9144397999916691,False,7,-1,1,7
PB012K23,3,191,PS,exp,44,→,right,→,1.2294045000162441,True,8,-1,0,7
PB012K23,3,192,PS,exp,29,↓,down,↓,0.7568523000227287,True,8,1,1,8
PB012K23,3,193,PS,exp,34,↑,up,↑,0.4654826000041794,True,7,1,0,8
PB012K23,3,194,PS,exp,37,←,left,←,0.733494599990081,True,7,1,0,8
PB012K23,3,195,PS,exp,33,↑,up,↑,0.6183904999925289,True,6,1,0,8
PB012K23,3,196,PS,exp,49,↓,down,↓,1.0789506000000983,True,6,1,0,8
PB012K23,3,197,PS,exp,31,→,right,→,0.539493800024502,True,5,1,0,8
PB012K23,3,198,PS,exp,43,↓,left,←,0.83086670000921,False,5,-1,1,9
PB012K23,3,199,PS,exp,35,↑,up,↑,0.47814760002074763,True,6,-1,0,9
PB012K23,3,200,PS,exp,42,←,up,↑,0.8178111000161152,False,6,-1,0,9
PB012K23,3,201,PS,exp,38,↓,no_key,no_letter,-1.0,False,7,-1,0,9
PB012K23,3,202,PS,exp,26,→,right,→,0.43749020001268946,True,8,-1,0,9
PB012K23,3,203,PS,exp,43,←,left,←,0.3535169000097085,True,8,1,1,10
PB012K23,3,204,PS,exp,42,↓,down,↓,0.6467227999819443,True,7,1,0,10
PB012K23,3,205,PS,exp,32,→,right,→,0.47167450000415556,True,7,1,0,10
PB012K23,3,206,PS,exp,26,←,left,←,0.642000799998641,True,6,1,0,10
PB012K23,3,207,PS,exp,36,↓,down,↓,0.6355796999996528,True,6,1,0,10
PB012K23,3,208,PS,exp,41,↑,left,←,0.6692131000163499,False,5,-1,1,11
PB012K23,3,209,PS,exp,28,←,left,←,0.7513526999973692,True,6,-1,0,11
PB012K23,3,210,PS,exp,41,→,right,→,0.8219410000019707,True,6,1,1,12
PB012K23,3,211,PS,exp,49,←,right,→,0.8024829000059981,False,5,-1,1,13
PB012K23,3,212,PS,exp,44,↓,down,↓,0.7111211000010371,True,6,-1,0,13
PB012K23,3,213,PS,exp,46,↑,up,↑,0.5463225000130478,True,6,1,1,14
PB012K23,4,214,AS,intra_train,39,←,no_key,no_letter,-1.0,False,27,-,-,-
PB012K23,4,215,AS,intra_train,46,↓,down,↓,0.7076269999961369,True,27,-,-,-
PB012K23,4,216,AS,intra_train,26,↑,up,↑,0.5008709999965504,True,27,-,-,-
PB012K23,4,217,AS,intra_train,35,←,left,←,0.534014400007436,True,27,-,-,-
PB012K23,4,218,AS,intra_train,39,↓,down,↓,0.7979581000108737,True,27,-,-,-
PB012K23,4,219,AS,exp,46,→,right,→,0.5996600000071339,True,18,0,0,0
PB012K23,4,220,AS,exp,41,←,left,←,1.1068505000148434,True,18,1,0,0
PB012K23,4,221,AS,exp,34,→,right,→,0.4521518000110518,True,17,1,0,0
PB012K23,4,222,AS,exp,26,←,right,→,0.7031370000040624,False,17,-1,1,1
PB012K23,4,223,AS,exp,29,↓,down,↓,0.6811767999897711,True,18,-1,0,1
PB012K23,4,224,AS,exp,33,↑,up,↑,0.47602470000856556,True,18,1,1,2
PB012K23,4,225,AS,exp,31,→,right,→,0.5336236000002827,True,17,1,0,2
PB012K23,4,226,AS,exp,25,←,left,←,0.3841457999951672,True,17,1,0,2
PB012K23,4,227,AS,exp,37,↓,up,↑,0.8011329000000842,False,16,-1,1,3
PB012K23,4,228,AS,exp,40,←,left,←,0.47164589999010786,True,17,-1,0,3
PB012K23,4,229,AS,exp,46,↑,up,↑,0.46546000000671484,True,17,1,1,4
PB012K23,4,230,AS,exp,46,←,left,←,1.2936633999925107,True,16,1,0,4
PB012K23,4,231,AS,exp,40,→,right,→,0.66478819999611,True,16,1,0,4
PB012K23,4,232,AS,exp,39,↑,up,↑,1.1782323000079487,True,15,1,0,4
PB012K23,4,233,AS,exp,33,←,right,→,0.6860712000052445,False,15,-1,1,5
PB012K23,4,234,AS,exp,25,→,right,→,0.9420464000140782,True,16,-1,0,5
PB012K23,4,235,AS,exp,36,←,left,←,0.5642872999887913,True,16,1,1,6
PB012K23,4,236,AS,exp,39,↑,left,←,0.9639483999926597,False,15,-1,1,7
PB012K23,4,237,AS,exp,47,←,left,←,0.9801267000148073,True,16,-1,0,7
PB012K23,4,238,AS,exp,40,→,right,→,0.7198223000159487,True,16,1,1,8
PB012K23,4,239,AS,exp,45,↑,up,↑,0.8841545000032056,True,15,1,0,8
PB012K23,4,240,AS,exp,25,←,left,←,0.4930666000000201,True,15,1,0,8
PB012K23,4,241,AS,exp,33,↓,down,↓,0.4860379000019748,True,14,1,0,8
PB012K23,4,242,AS,exp,48,↑,up,↑,0.5970001999812666,True,14,1,0,8
PB012K23,4,243,AS,exp,37,→,right,→,0.3849637000239454,True,13,1,0,8
PB012K23,4,244,AS,exp,28,↓,up,↑,0.5608661000151187,False,13,-1,1,9
PB012K23,4,245,AS,exp,38,→,left,←,0.7406354999984615,False,14,-1,0,9
PB012K23,4,246,AS,exp,47,↓,up,↑,0.869192700018175,False,15,-1,0,9
PB012K23,4,247,AS,exp,33,←,left,←,0.9924735999957193,True,16,-1,0,9
PB012K23,4,248,AS,exp,39,↑,up,↑,0.35062930002459325,True,16,1,1,10
PB012K23,4,249,AS,exp,30,↓,down,↓,0.6542424000217579,True,15,1,0,10
PB012K23,4,250,AS,exp,42,→,left,←,0.7874093000136781,False,15,-1,1,11
PB012K23,4,251,AS,exp,32,←,left,←,0.9760780000069644,True,16,-1,0,11
PB012K23,4,252,AS,exp,47,→,right,→,0.6080375000019558,True,16,1,1,12
PB012K23,4,253,AS,exp,32,↑,up,↑,0.7176003000058699,True,15,1,0,12
PB012K23,4,254,AS,exp,38,→,right,→,0.6732277999981306,True,15,1,0,12
PB012K23,4,255,AS,exp,25,↑,up,↑,0.5140319000056479,True,14,1,0,12
PB012K23,4,256,AS,exp,44,←,right,→,0.7012488000036683,False,14,-1,1,13
PB012K23,4,257,AS,exp,47,↓,down,↓,1.0530306000146084,True,15,-1,0,13
PB012K23,4,258,AS,exp,29,→,left,←,0.7944696999911685,False,15,-1,0,13
PB012K23,4,259,AS,exp,46,←,left,←,0.809298400010448,True,16,-1,0,13
PB012K23,4,260,AS,exp,47,→,right,→,1.3463052999868523,True,16,1,1,14
PB012K23,5,261,AS,intra_train,48,↓,down,↓,0.8173179000150412,True,27,-,-,-
PB012K23,5,262,AS,intra_train,31,→,right,→,0.5505946000048425,True,27,-,-,-
PB012K23,5,263,AS,intra_train,37,↑,up,↑,0.4337246000068262,True,27,-,-,-
PB012K23,5,264,AS,intra_train,37,↓,down,↓,0.5672754000115674,True,27,-,-,-
PB012K23,5,265,AS,intra_train,40,↑,up,↑,0.46714500000234693,True,27,-,-,-
PB012K23,5,266,AS,exp,42,←,left,←,0.6797684999764897,True,18,0,0,0
PB012K23,5,267,AS,exp,48,→,left,←,1.0022164000256453,False,18,-1,0,0
PB012K23,5,268,AS,exp,48,↑,up,↑,0.6661167999845929,True,19,-1,0,0
PB012K23,5,269,AS,exp,46,←,left,←,0.6849267999932636,True,19,1,1,1
PB012K23,5,270,AS,exp,27,↓,up,↑,1.176400399999693,False,18,-1,1,2
PB012K23,5,271,AS,exp,25,↑,up,↑,0.7772435000224505,True,19,-1,0,2
PB012K23,5,272,AS,exp,35,↓,down,↓,0.7099595000036061,True,19,1,1,3
PB012K23,5,273,AS,exp,39,↑,up,↑,0.5361899000126868,True,18,1,0,3
PB012K23,5,274,AS,exp,27,↓,down,↓,0.5830617000174243,True,18,1,0,3
PB012K23,5,275,AS,exp,30,↑,down,↓,0.8918592999980319,False,17,-1,1,4
PB012K23,5,276,AS,exp,35,↓,down,↓,0.43412849999731407,True,18,-1,0,4
PB012K23,5,277,AS,exp,48,→,right,→,0.5672806999937166,True,18,1,1,5
PB012K23,5,278,AS,exp,28,↑,up,↑,0.7169701999810059,True,17,1,0,5
PB012K23,5,279,AS,exp,49,↓,down,↓,0.7299333999981172,True,17,1,0,5
PB012K23,5,280,AS,exp,50,→,right,→,0.4545460999943316,True,16,1,0,5
PB012K23,5,281,AS,exp,29,↑,up,↑,0.7224013000086416,True,16,1,0,5
PB012K23,5,282,AS,exp,40,↓,up,↑,1.039814900024794,False,15,-1,1,6
PB012K23,5,283,AS,exp,43,→,left,←,0.7661324999935459,False,16,-1,0,6
PB012K23,5,284,AS,exp,44,↓,right,→,0.9672273999894969,False,17,-1,0,6
PB012K23,5,285,AS,exp,44,→,right,→,0.6496325000189245,True,18,-1,0,6
PB012K23,5,286,AS,exp,27,↑,up,↑,0.6416789999930188,True,18,1,1,7
PB012K23,5,287,AS,exp,30,↓,up,↑,0.6569044000061695,False,17,-1,1,8
PB012K23,5,288,AS,exp,45,←,left,←,0.6146742000128143,True,18,-1,0,8
PB012K23,5,289,AS,exp,27,↑,up,↑,0.5179222999722697,True,18,1,1,9
PB012K23,5,290,AS,exp,31,→,right,→,0.38370360000408255,True,17,1,0,9
PB012K23,5,291,AS,exp,30,←,right,→,0.6404254999943078,False,17,-1,1,10
PB012K23,5,292,AS,exp,38,↑,up,↑,0.5154981999949086,True,18,-1,0,10
PB012K23,5,293,AS,exp,37,←,left,←,0.9818481999973301,True,18,1,1,11
PB012K23,5,294,AS,exp,25,→,right,→,1.3560576000018045,True,17,1,0,11
PB012K23,5,295,AS,exp,50,←,left,←,0.6947629999776836,True,17,1,0,11
PB012K23,5,296,AS,exp,47,↑,up,↑,0.5971923999895807,True,16,1,0,11
PB012K23,5,297,AS,exp,30,→,right,→,1.0185483999957796,True,16,1,0,11
PB012K23,5,298,AS,exp,46,←,left,←,0.5384163999988232,True,15,1,0,11
PB012K23,5,299,AS,exp,42,↑,up,↑,0.47640789998695254,True,15,1,0,11
PB012K23,5,300,AS,exp,43,←,left,←,1.2722437000193167,True,14,1,0,11
PB012K23,5,301,AS,exp,26,↑,up,↑,1.0848054999951273,True,14,1,0,11
PB012K23,5,302,AS,exp,26,←,left,←,1.2334469000052195,True,13,1,0,11
PB012K23,5,303,AS,exp,37,↑,up,↑,0.5219370000122581,True,13,1,0,11
PB012K23,5,304,AS,exp,47,←,left,←,0.992955499998061,True,12,1,0,11
PB012K23,5,305,AS,exp,50,↓,up,↑,0.6967079000023659,False,12,-1,1,12
PB012K23,5,306,AS,exp,40,←,left,←,0.7305014999874402,True,13,-1,0,12
PB012K23,5,307,AS,exp,46,↑,up,↑,0.7111649000144098,True,13,1,1,13
PB012K23,5,308,AS,exp,41,↓,left,←,1.714599900005851,False,12,-1,1,14
PB012K23,6,309,PS,intra_train,50,→,right,→,0.452706300013233,True,13,-,-,-
PB012K23,6,310,PS,intra_train,47,↑,right,→,1.1883644000045024,False,13,-,-,-
PB012K23,6,311,PS,intra_train,30,←,left,←,0.862845900002867,True,13,-,-,-
PB012K23,6,312,PS,intra_train,47,↓,down,↓,0.6903918999887537,True,13,-,-,-
PB012K23,6,313,PS,intra_train,45,↑,left,←,1.5299996999965515,False,13,-,-,-
PB012K23,6,314,PS,exp,38,→,right,→,0.5753168000082951,True,9,0,0,0
PB012K23,6,315,PS,exp,28,↓,down,↓,0.6362187000049744,True,9,1,0,0
PB012K23,6,316,PS,exp,50,←,left,←,0.4822674000170082,True,8,1,0,0
PB012K23,6,317,PS,exp,47,→,left,←,0.786835599981714,False,8,-1,1,1
PB012K23,6,318,PS,exp,28,↓,down,↓,0.5555717000097502,True,9,-1,0,1
PB012K23,6,319,PS,exp,48,←,left,←,0.5199993000132963,True,9,1,1,2
PB012K23,6,320,PS,exp,35,→,right,→,1.597585599985905,True,8,1,0,2
PB012K23,6,321,PS,exp,36,←,left,←,0.8778573000163306,True,8,1,0,2
PB012K23,6,322,PS,exp,46,↑,up,↑,0.554000600008294,True,7,1,0,2
PB012K23,6,323,PS,exp,41,←,right,→,0.7667356999882031,False,7,-1,1,3
PB012K23,6,324,PS,exp,33,→,right,→,0.8727240999869537,True,8,-1,0,3
PB012K23,6,325,PS,exp,50,↑,left,←,0.9704135000065435,False,8,-1,0,3
PB012K23,6,326,PS,exp,32,←,left,←,0.5084231999935582,True,9,-1,0,3
PB012K23,6,327,PS,exp,31,→,right,→,0.7102621000085492,True,9,1,1,4
PB012K23,6,328,PS,exp,29,↓,down,↓,0.5759778000065126,True,8,1,0,4
PB012K23,6,329,PS,exp,39,←,left,←,0.4950482999847736,True,8,1,0,4
PB012K23,6,330,PS,exp,32,→,right,→,1.5688682000036351,True,7,1,0,4
PB012K23,6,331,PS,exp,27,←,left,←,0.46844029999920167,True,7,1,0,4
PB012K23,6,332,PS,exp,25,↓,left,←,0.7083451999933459,False,6,-1,1,5
PB012K23,6,333,PS,exp,46,↑,left,←,0.6998991000000387,False,7,-1,0,5
PB012K23,6,334,PS,exp,47,←,left,←,0.980665900016902,True,8,-1,0,5
PB012K23,6,335,PS,exp,33,↑,left,←,0.6689976000052411,False,8,-1,0,5
PB012K23,6,336,PS,exp,26,↓,down,↓,0.5645266000065021,True,9,-1,0,5
PB012K23,6,337,PS,exp,43,←,left,←,0.42189199998392724,True,9,1,1,6
PB012K23,6,338,PS,exp,48,↑,down,↓,0.6626584000186995,False,8,-1,1,7
PB012K23,6,339,PS,exp,40,↓,left,←,0.7452904999954626,False,9,-1,0,7
PB012K23,6,340,PS,exp,29,←,left,←,0.5398814000072889,True,10,-1,0,7
PB012K23,6,341,PS,exp,32,→,left,←,0.6031750999973156,False,10,-1,0,7
PB012K23,6,342,PS,exp,36,↑,up,↑,0.41656420001527295,True,11,-1,0,7
PB012K23,6,343,PS,exp,44,←,left,←,0.4102612999849953,True,11,1,1,8
PB012K23,6,344,PS,exp,46,→,left,←,0.4516894999833312,False,10,-1,1,9
PB012K23,6,345,PS,exp,48,←,left,←,0.4900676000106614,True,11,-1,0,9
PB012K23,6,346,PS,exp,44,↑,up,↑,0.7840518000011798,True,11,1,1,10
PB012K23,6,347,PS,exp,45,→,right,→,0.5479862000211142,True,10,1,0,10
PB012K23,6,348,PS,exp,29,↑,left,←,0.7388974000059534,False,10,-1,1,11
PB012K23,6,349,PS,exp,46,→,right,→,0.5016723000153434,True,11,-1,0,11
PB012K23,6,350,PS,exp,46,↓,down,↓,0.6465135000180453,True,11,1,1,12
PB012K23,6,351,PS,exp,34,←,left,←,0.5501017000060529,True,10,1,0,12
PB012K23,6,352,PS,exp,33,→,right,→,0.7616526999918278,True,10,1,0,12
PB012K23,6,353,PS,exp,27,↑,up,↑,0.49343050000607036,True,9,1,0,12
PB012K23,6,354,PS,exp,37,→,right,→,0.4552294000168331,True,9,1,0,12
PB012K23,6,355,PS,exp,45,←,left,←,0.9329931999964174,True,8,1,0,12
PB012K23,6,356,PS,exp,36,↓,down,↓,0.5440528999897651,True,8,1,0,12
PB012K23,6,357,PS,exp,26,↑,up,↑,0.5608566000009887,True,7,1,0,12
PB012K23,6,358,PS,exp,31,↓,down,↓,0.5469688999874052,True,7,1,0,12
PB012K23,6,359,PS,exp,28,↑,up,↑,0.4632569999957923,True,6,1,0,12
PB012K23,6,360,PS,exp,49,→,right,→,1.0992515000107232,True,6,1,0,12
PB012K23,6,361,PS,exp,43,↑,down,↓,0.976792800007388,False,5,-1,1,13
PB012K23,6,362,PS,exp,26,↓,down,↓,0.7926130999985617,True,6,-1,0,13
PB012K23,6,363,PS,exp,48,←,down,↓,0.8990119000081904,False,6,-1,0,13
PB012K23,6,364,PS,exp,41,↑,up,↑,0.5328021999739576,True,7,-1,0,13
PB012K23,6,365,PS,exp,50,→,right,→,0.7711116999853402,True,7,1,1,14
PB012K23,7,366,PS,intra_train,25,↑,up,↑,0.7332974000019021,True,13,-,-,-
PB012K23,7,367,PS,intra_train,27,→,right,→,0.7364995999960229,True,13,-,-,-
PB012K23,7,368,PS,intra_train,46,↑,up,↑,0.7278709000092931,True,13,-,-,-
PB012K23,7,369,PS,intra_train,25,←,left,←,0.6261228999937885,True,13,-,-,-
PB012K23,7,370,PS,intra_train,44,↑,up,↑,0.6033420999883674,True,13,-,-,-
PB012K23,7,371,PS,exp,42,→,right,→,0.6053678999887779,True,9,0,0,0
PB012K23,7,372,PS,exp,34,←,right,→,0.6436822999967262,False,9,-1,0,0
PB012K23,7,373,PS,exp,45,↑,up,↑,0.4572109000000637,True,10,-1,0,0
PB012K23,7,374,PS,exp,38,↓,down,↓,0.5351376000035089,True,10,1,1,1
PB012K23,7,375,PS,exp,43,→,right,→,0.45236140000633895,True,9,1,0,1
PB012K23,7,376,PS,exp,47,←,right,→,0.7050752999784891,False,9,-1,1,2
PB012K23,7,377,PS,exp,43,→,right,→,0.6007523999724071,True,10,-1,0,2
PB012K23,7,378,PS,exp,40,←,left,←,0.49251989999902435,True,10,1,1,3
PB012K23,7,379,PS,exp,36,↓,down,↓,0.562807399983285,True,9,1,0,3
PB012K23,7,380,PS,exp,37,→,right,→,0.5404299999936484,True,9,1,0,3
PB012K23,7,381,PS,exp,43,↓,up,↑,0.7638470999954734,False,8,-1,1,4
PB012K23,7,382,PS,exp,37,↑,up,↑,1.1473754000035115,True,9,-1,0,4
PB012K23,7,383,PS,exp,49,←,left,←,0.6143209000001661,True,9,1,1,5
PB012K23,7,384,PS,exp,34,↓,down,↓,0.7119413999898825,True,8,1,0,5
PB012K23,7,385,PS,exp,37,↑,up,↑,0.4632955999986734,True,8,1,0,5
PB012K23,7,386,PS,exp,25,←,left,←,0.8100782999827061,True,7,1,0,5
PB012K23,7,387,PS,exp,35,→,right,→,0.5305023000109941,True,7,1,0,5
PB012K23,7,388,PS,exp,26,←,left,←,0.5184321999840904,True,6,1,0,5
PB012K23,7,389,PS,exp,34,→,right,→,0.5414311999920756,True,6,1,0,5
PB012K23,7,390,PS,exp,43,↓,down,↓,1.1762648000149056,True,5,1,0,5
PB012K23,7,391,PS,exp,32,→,right,→,0.581303700018907,True,5,1,0,5
PB012K23,7,392,PS,exp,36,↓,up,↑,1.01489930000389,False,4,-1,1,6
PB012K23,7,393,PS,exp,32,→,left,←,0.9099244000099134,False,5,-1,0,6
PB012K23,7,394,PS,exp,38,↓,down,↓,0.554400799999712,True,6,-1,0,6
PB012K23,7,395,PS,exp,43,←,left,←,0.46307879997766577,True,6,1,1,7
PB012K23,7,396,PS,exp,29,↑,up,↑,0.5233753999928012,True,5,1,0,7
PB012K23,7,397,PS,exp,42,↓,down,↓,0.567614900006447,True,5,1,0,7
PB012K23,7,398,PS,exp,50,←,left,←,0.5903360999946017,True,4,1,0,7
PB012K23,7,399,PS,exp,30,↑,left,←,1.0008224000048358,False,4,-1,1,8
PB012K23,7,400,PS,exp,41,↓,left,←,0.5635614999919198,False,5,-1,0,8
PB012K23,7,401,PS,exp,40,←,left,←,0.4572917000041343,True,6,-1,0,8
PB012K23,7,402,PS,exp,25,↓,left,←,0.7341700999822933,False,6,-1,0,8
PB012K23,7,403,PS,exp,39,↑,up,↑,0.5883745000173803,True,7,-1,0,8
PB012K23,7,404,PS,exp,40,↓,down,↓,0.5778733000042848,True,7,1,1,9
PB012K23,7,405,PS,exp,40,←,left,←,0.7540005999908317,True,6,1,0,9
PB012K23,7,406,PS,exp,34,→,left,←,0.4567492000060156,False,6,-1,1,10
PB012K23,7,407,PS,exp,34,↑,left,←,0.554661699978169,False,7,-1,0,10
PB012K23,7,408,PS,exp,28,←,left,←,0.43667090000235476,True,8,-1,0,10
PB012K23,7,409,PS,exp,30,↓,down,↓,0.5219596000097226,True,8,1,1,11
PB012K23,7,410,PS,exp,30,←,left,←,0.47212109999964014,True,7,1,0,11
PB012K23,7,411,PS,exp,48,↑,up,↑,0.45792570000048727,True,7,1,0,11
PB012K23,7,412,PS,exp,44,→,down,↓,1.0450220999773592,False,6,-1,1,12
PB012K23,7,413,PS,exp,30,←,left,←,0.45232330000726506,True,7,-1,0,12
PB012K23,7,414,PS,exp,33,↓,down,↓,0.4951676999917254,True,7,1,1,13
PB012K23,7,415,PS,exp,38,→,right,→,1.574040800012881,True,6,1,0,13
PB012K23,7,416,PS,exp,32,↑,left,←,0.7710354000155348,False,6,-1,1,14
PB012K23,8,417,AS,intra_train,39,←,left,←,1.0535101000277791,True,27,-,-,-
PB012K23,8,418,AS,intra_train,38,↑,up,↑,0.7224560000177007,True,27,-,-,-
PB012K23,8,419,AS,intra_train,27,↓,down,↓,1.2605592999898363,True,27,-,-,-
PB012K23,8,420,AS,intra_train,46,←,left,←,1.386939199990593,True,27,-,-,-
PB012K23,8,421,AS,intra_train,27,↓,down,↓,0.8324614999874029,True,27,-,-,-
PB012K23,8,422,AS,exp,46,→,right,→,0.6159326999913901,True,18,0,0,0
PB012K23,8,423,AS,exp,26,←,right,→,0.7797496999846771,False,18,-1,0,0
PB012K23,8,424,AS,exp,48,↑,down,↓,1.710450699989451,False,19,-1,0,0
PB012K23,8,425,AS,exp,29,↓,down,↓,0.6399564000021201,True,20,-1,0,0
PB012K23,8,426,AS,exp,46,←,left,←,0.5990124999952968,True,20,1,1,1
PB012K23,8,427,AS,exp,50,↓,down,↓,0.716222299990477,True,19,1,0,1
PB012K23,8,428,AS,exp,49,→,right,→,0.9460472999780905,True,19,1,0,1
PB012K23,8,429,AS,exp,49,↓,down,↓,1.2378364000178408,True,18,1,0,1
PB012K23,8,430,AS,exp,43,↑,up,↑,0.6371142999851145,True,18,1,0,1
PB012K23,8,431,AS,exp,49,←,right,→,0.6356382999802008,False,17,-1,1,2
PB012K23,8,432,AS,exp,31,→,right,→,0.6239313999831211,True,18,-1,0,2
PB012K23,8,433,AS,exp,31,↑,up,↑,0.7184075999830384,True,18,1,1,3
PB012K23,8,434,AS,exp,36,→,right,→,0.6436644999776036,True,17,1,0,3
PB012K23,8,435,AS,exp,47,↑,up,↑,1.0762362999957986,True,17,1,0,3
PB012K23,8,436,AS,exp,39,↓,down,↓,0.7507912000000942,True,16,1,0,3
PB012K23,8,437,AS,exp,39,↑,up,↑,0.7001868999795988,True,16,1,0,3
PB012K23,8,438,AS,exp,48,↓,down,↓,0.6035913999949116,True,15,1,0,3
PB012K23,8,439,AS,exp,34,←,left,←,1.114106900000479,True,15,1,0,3
PB012K23,8,440,AS,exp,30,↓,right,→,0.7933914999885019,False,14,-1,1,4
PB012K23,8,441,AS,exp,39,↑,up,↑,0.47632509999675676,True,15,-1,0,4
PB012K23,8,442,AS,exp,27,→,right,→,0.5840138999919873,True,15,1,1,5
PB012K23,8,443,AS,exp,32,←,left,←,0.44792679999955,True,14,1,0,5
PB012K23,8,444,AS,exp,29,↑,up,↑,0.8586365999944974,True,14,1,0,5
PB012K23,8,445,AS,exp,49,←,left,←,0.7481483000156004,True,13,1,0,5
PB012K23,8,446,AS,exp,37,↑,up,↑,0.6901244999899063,True,13,1,0,5
PB012K23,8,447,AS,exp,49,→,right,→,0.4975681999931112,True,12,1,0,5
PB012K23,8,448,AS,exp,41,↑,up,↑,0.4369946999941021,True,12,1,0,5
PB012K23,8,449,AS,exp,25,←,right,→,0.7325348000158556,False,11,-1,1,6
PB012K23,8,450,AS,exp,37,→,left,←,1.1900078000035137,False,12,-1,0,6
PB012K23,8,451,AS,exp,32,←,left,←,0.5005586000042967,True,13,-1,0,6
PB012K23,8,452,AS,exp,28,↑,up,↑,0.691894699994009,True,13,1,1,7
PB012K23,8,453,AS,exp,30,→,left,←,0.6142256000021007,False,12,-1,1,8
PB012K23,8,454,AS,exp,30,↑,left,←,1.1015575999917928,False,13,-1,0,8
PB012K23,8,455,AS,exp,36,↓,down,↓,0.6134928000101354,True,14,-1,0,8
PB012K23,8,456,AS,exp,32,←,left,←,0.40890130001935177,True,14,1,1,9
PB012K23,8,457,AS,exp,34,↓,right,→,0.7498062000086065,False,13,-1,1,10
PB012K23,8,458,AS,exp,42,↑,left,←,0.6151520000130404,False,14,-1,0,10
PB012K23,8,459,AS,exp,46,←,left,←,0.4639418000006117,True,15,-1,0,10
PB012K23,8,460,AS,exp,50,↑,up,↑,0.5985723999910988,True,15,1,1,11
PB012K23,8,461,AS,exp,28,←,left,←,0.40646830000332557,True,14,1,0,11
PB012K23,8,462,AS,exp,27,→,right,→,1.1499082000227645,True,14,1,0,11
PB012K23,8,463,AS,exp,44,←,left,←,1.1513465000025462,True,13,1,0,11
PB012K23,8,464,AS,exp,44,↑,up,↑,0.5034867000067607,True,13,1,0,11
PB012K23,8,465,AS,exp,26,↓,up,↑,1.4788833000056911,False,12,-1,1,12
PB012K23,8,466,AS,exp,50,→,right,→,0.6709338999935426,True,13,-1,0,12
PB012K23,8,467,AS,exp,35,↑,left,←,0.9684960000158753,False,13,-1,0,12
PB012K23,8,468,AS,exp,30,→,left,←,0.9967717000108678,False,14,-1,0,12
PB012K23,8,469,AS,exp,43,↑,left,←,0.9162655999825802,False,15,-1,0,12
PB012K23,8,470,AS,exp,28,←,left,←,0.7049341000092681,True,16,-1,0,12
PB012K23,8,471,AS,exp,44,→,right,→,0.7056036000140011,True,16,1,1,13
PB012K23,8,472,AS,exp,29,←,left,←,0.6187095000059344,True,15,1,0,13
PB012K23,8,473,AS,exp,46,→,right,→,0.49300369998672977,True,15,1,0,13
PB012K23,8,474,AS,exp,44,↑,up,↑,0.6894189000013284,True,14,1,0,13
PB012K23,8,475,AS,exp,26,→,right,→,0.6718984999752138,True,14,1,0,13
PB012K23,8,476,AS,exp,47,↑,up,↑,0.9370181999984197,True,13,1,0,13
PB012K23,8,477,AS,exp,35,→,right,→,0.6601529999752529,True,13,1,0,13
PB012K23,8,478,AS,exp,50,↓,down,↓,1.3130272999987938,True,12,1,0,13
PB012K23,8,479,AS,exp,26,←,right,→,0.7837247000134084,False,12,-1,1,14
