PART_ID,Block_no,Trial_no,Block_type,Trial_type,CSI,Stim_letter,Key_pressed,letter_choose,Rt,Corr,Stimulus Time,Level,Reversal,Revs_count
PB010K22,1,1,PS,train,32,←,left,←,1.2072793999977876,True,30,-,-,-
PB010K22,1,2,PS,train,34,→,right,→,0.6337032000010367,True,30,-,-,-
PB010K22,1,3,PS,train,31,←,left,←,0.6005462000030093,True,30,-,-,-
PB010K22,1,4,PS,train,35,→,right,→,0.5173897999920882,True,30,-,-,-
PB010K22,1,5,PS,train,25,↑,up,↑,0.5346079000155441,True,30,-,-,-
PB010K22,1,6,PS,train,39,↓,down,↓,0.6174981000076514,True,30,-,-,-
PB010K22,1,7,PS,train,34,←,left,←,0.672927300009178,True,30,-,-,-
PB010K22,1,8,PS,train,50,↑,up,↑,0.6169472000037786,True,30,-,-,-
PB010K22,1,9,PS,train,44,↓,down,↓,0.8610170000174548,True,30,-,-,-
PB010K22,1,10,PS,train,44,→,right,→,0.6004728999978397,True,30,-,-,-
PB010K22,2,11,AS,train,46,←,right,→,0.46794169998611324,False,45,-,-,-
PB010K22,2,12,AS,train,28,→,right,→,1.1511211000033654,True,45,-,-,-
PB010K22,2,13,AS,train,44,←,left,←,0.6680060000217054,True,45,-,-,-
PB010K22,2,14,AS,train,45,→,right,→,0.7015980000142008,True,45,-,-,-
PB010K22,2,15,AS,train,48,←,left,←,0.6015998000220861,True,45,-,-,-
PB010K22,2,16,AS,train,49,→,right,→,0.8507528000045568,True,45,-,-,-
PB010K22,2,17,AS,train,36,←,left,←,0.7016104999929667,True,45,-,-,-
PB010K22,2,18,AS,train,37,↑,up,↑,0.8338426999980584,True,45,-,-,-
PB010K22,2,19,AS,train,38,→,right,→,1.0592609000159428,True,45,-,-,-
PB010K22,2,20,AS,train,30,↑,up,↑,0.7178993999841623,True,45,-,-,-
PB010K22,-,21,PS,adaptive,28,→,right,→,0.6626110000070184,True,10,0,0,0
PB010K22,-,22,PS,adaptive,36,↑,up,↑,1.5954905999824405,True,10,1,0,0
PB010K22,-,23,PS,adaptive,36,↓,down,↓,0.8122697999933735,True,9,1,0,0
PB010K22,-,24,PS,adaptive,47,→,right,→,0.6821024999953806,True,9,1,0,0
PB010K22,-,25,PS,adaptive,26,←,no_key,no_letter,-1.0,False,8,-1,1,1
PB010K22,-,26,PS,adaptive,25,↑,up,↑,0.4518928999896161,True,9,-1,0,1
PB010K22,-,27,PS,adaptive,45,→,right,→,0.5682840000081342,True,9,1,1,2
PB010K22,-,28,PS,adaptive,43,←,right,→,0.7935793999931775,False,8,-1,1,3
PB010K22,-,29,PS,adaptive,28,↑,up,↑,0.6045802000153344,True,9,-1,0,3
PB010K22,-,30,PS,adaptive,42,↓,down,↓,0.6830995999916922,True,9,1,1,4
PB010K22,-,31,AS,adaptive,30,←,right,→,1.1015822000044864,False,20,-1,0,0
PB010K22,-,32,AS,adaptive,33,↓,left,←,1.3067892999970354,False,21,-1,0,0
PB010K22,-,33,AS,adaptive,31,←,left,←,0.7753069000027608,True,22,-1,0,0
PB010K22,-,34,AS,adaptive,38,↓,down,↓,0.9776666999969166,True,22,1,1,1
PB010K22,-,35,AS,adaptive,32,←,no_key,no_letter,-1.0,False,21,-1,1,2
PB010K22,-,36,AS,adaptive,29,→,right,→,0.7234846999926958,True,22,-1,0,2
PB010K22,-,37,AS,adaptive,36,↑,up,↑,0.5340772999916226,True,22,1,1,3
PB010K22,-,38,AS,adaptive,28,→,right,→,0.569150900002569,True,21,1,0,3
PB010K22,-,39,AS,adaptive,44,↓,down,↓,0.7966422000026796,True,21,1,0,3
PB010K22,-,40,AS,adaptive,48,→,right,→,0.5727292999799829,True,20,1,0,3
PB010K22,-,41,AS,adaptive,32,←,no_key,no_letter,-1.0,False,20,-1,1,4
PB010K22,1,42,AS,intra_train,48,↓,down,↓,0.8902459999953862,True,31,-,-,-
PB010K22,1,43,AS,intra_train,28,→,right,→,0.7475634000147693,True,31,-,-,-
PB010K22,1,44,AS,intra_train,27,←,left,←,0.7842757999897003,True,31,-,-,-
PB010K22,1,45,AS,intra_train,32,↑,up,↑,0.862692299997434,True,31,-,-,-
PB010K22,1,46,AS,intra_train,25,↓,down,↓,1.2782908999943174,True,31,-,-,-
PB010K22,1,47,AS,exp,46,↑,up,↑,0.7614372000098228,True,21,0,0,0
PB010K22,1,48,AS,exp,46,→,right,→,0.6410547000123188,True,21,1,0,0
PB010K22,1,49,AS,exp,28,↓,down,↓,0.9541229999740608,True,20,1,0,0
PB010K22,1,50,AS,exp,46,→,left,←,0.8724762000201736,False,20,-1,1,1
PB010K22,1,51,AS,exp,45,↓,down,↓,0.8275117999874055,True,21,-1,0,1
PB010K22,1,52,AS,exp,40,→,right,→,0.5817709999973886,True,21,1,1,2
PB010K22,1,53,AS,exp,27,↑,up,↑,0.8067540999909397,True,20,1,0,2
PB010K22,1,54,AS,exp,36,←,left,←,0.6956163000140805,True,20,1,0,2
PB010K22,1,55,AS,exp,45,↓,down,↓,0.7649907000013627,True,19,1,0,2
PB010K22,1,56,AS,exp,42,←,left,←,0.5811005000141449,True,19,1,0,2
PB010K22,1,57,AS,exp,44,↓,down,↓,0.6546033000049647,True,18,1,0,2
PB010K22,1,58,AS,exp,44,→,right,→,1.5861199000210036,True,18,1,0,2
PB010K22,1,59,AS,exp,25,↓,up,↑,0.9526257999823429,False,17,-1,1,3
PB010K22,1,60,AS,exp,44,→,right,→,0.6725330000044778,True,18,-1,0,3
PB010K22,1,61,AS,exp,36,←,left,←,0.8707378999970388,True,18,1,1,4
PB010K22,1,62,AS,exp,40,↓,down,↓,0.6410380000015721,True,17,1,0,4
PB010K22,1,63,AS,exp,28,→,right,→,0.6679364000156056,True,17,1,0,4
PB010K22,1,64,AS,exp,41,↓,down,↓,0.6430894999939483,True,16,1,0,4
PB010K22,1,65,AS,exp,40,←,right,→,0.6885671000054572,False,16,-1,1,5
PB010K22,1,66,AS,exp,48,↑,up,↑,0.6213270000007469,True,17,-1,0,5
PB010K22,1,67,AS,exp,31,→,right,→,0.7099205999984406,True,17,1,1,6
PB010K22,1,68,AS,exp,27,↑,up,↑,0.543627800012473,True,16,1,0,6
PB010K22,1,69,AS,exp,31,→,right,→,0.46303500002250075,True,16,1,0,6
PB010K22,1,70,AS,exp,35,↓,down,↓,0.6297168000019155,True,15,1,0,6
PB010K22,1,71,AS,exp,28,↑,up,↑,0.5681297999981325,True,15,1,0,6
PB010K22,1,72,AS,exp,42,→,right,→,0.5014364000235219,True,14,1,0,6
PB010K22,1,73,AS,exp,42,↓,down,↓,0.5769496000139043,True,14,1,0,6
PB010K22,1,74,AS,exp,47,→,right,→,0.5495951999910176,True,13,1,0,6
PB010K22,1,75,AS,exp,44,↓,down,↓,0.7529180999845266,True,13,1,0,6
PB010K22,1,76,AS,exp,49,→,right,→,0.6462246000010055,True,12,1,0,6
PB010K22,1,77,AS,exp,31,←,left,←,0.5944175999902654,True,12,1,0,6
PB010K22,1,78,AS,exp,27,↑,up,↑,0.4863050999992993,True,11,1,0,6
PB010K22,1,79,AS,exp,46,←,right,→,0.5313817999849562,False,11,-1,1,7
PB010K22,1,80,AS,exp,44,↑,up,↑,0.537065899989102,True,12,-1,0,7
PB010K22,1,81,AS,exp,31,→,right,→,0.50903250000556,True,12,1,1,8
PB010K22,1,82,AS,exp,31,↓,up,↑,0.7787624000047799,False,11,-1,1,9
PB010K22,1,83,AS,exp,43,↑,up,↑,0.7104608000081498,True,12,-1,0,9
PB010K22,1,84,AS,exp,35,→,right,→,0.7059298999956809,True,12,1,1,10
PB010K22,1,85,AS,exp,26,↑,up,↑,0.7598348999745212,True,11,1,0,10
PB010K22,1,86,AS,exp,41,→,right,→,0.48744389999774285,True,11,1,0,10
PB010K22,1,87,AS,exp,31,↓,up,↑,0.6355643999995664,False,10,-1,1,11
PB010K22,1,88,AS,exp,50,↑,right,→,0.5207048000011127,False,11,-1,0,11
PB010K22,1,89,AS,exp,37,↓,up,↑,0.6916190000192728,False,12,-1,0,11
PB010K22,1,90,AS,exp,35,↑,up,↑,0.5925022999872454,True,13,-1,0,11
PB010K22,1,91,AS,exp,40,→,right,→,0.5888998000009451,True,13,1,1,12
PB010K22,1,92,AS,exp,49,←,left,←,0.9253551000147127,True,12,1,0,12
PB010K22,1,93,AS,exp,30,↑,right,→,0.7405169999983627,False,12,-1,1,13
PB010K22,1,94,AS,exp,32,←,left,←,0.9317946000082884,True,13,-1,0,13
PB010K22,1,95,AS,exp,30,↑,up,↑,0.5737042000109795,True,13,1,1,14
PB010K22,2,96,PS,intra_train,38,↓,down,↓,0.7819455999997444,True,12,-,-,-
PB010K22,2,97,PS,intra_train,44,↑,up,↑,0.5557520999864209,True,12,-,-,-
PB010K22,2,98,PS,intra_train,27,→,right,→,0.6285516000061762,True,12,-,-,-
PB010K22,2,99,PS,intra_train,40,↑,up,↑,0.46535319997929037,True,12,-,-,-
PB010K22,2,100,PS,intra_train,40,→,right,→,0.49042560000088997,True,12,-,-,-
PB010K22,2,101,PS,exp,35,↓,down,↓,0.7486127000011038,True,8,0,0,0
PB010K22,2,102,PS,exp,33,↑,up,↑,0.3971004000050016,True,8,1,0,0
PB010K22,2,103,PS,exp,39,←,left,←,0.6571478999976534,True,7,1,0,0
PB010K22,2,104,PS,exp,39,→,right,→,0.5266806999861728,True,7,1,0,0
PB010K22,2,105,PS,exp,35,↑,right,→,0.5461241999873891,False,6,-1,1,1
PB010K22,2,106,PS,exp,34,→,right,→,0.6171006999793462,True,7,-1,0,1
PB010K22,2,107,PS,exp,38,↑,left,←,0.89689490001183,False,7,-1,0,1
PB010K22,2,108,PS,exp,32,←,left,←,0.6791071000043303,True,8,-1,0,1
PB010K22,2,109,PS,exp,38,↑,up,↑,0.5632289000204764,True,8,1,1,2
PB010K22,2,110,PS,exp,34,←,left,←,0.5211826000013389,True,7,1,0,2
PB010K22,2,111,PS,exp,47,↑,left,←,0.6246969999920111,False,7,-1,1,3
PB010K22,2,112,PS,exp,50,→,right,→,0.6889116000093054,True,8,-1,0,3
PB010K22,2,113,PS,exp,47,←,left,←,0.43843890001880936,True,8,1,1,4
PB010K22,2,114,PS,exp,47,→,up,↑,1.4789846999919973,False,7,-1,1,5
PB010K22,2,115,PS,exp,44,←,left,←,0.4903479000204243,True,8,-1,0,5
PB010K22,2,116,PS,exp,27,→,left,←,0.5745450000104029,False,8,-1,0,5
PB010K22,2,117,PS,exp,47,←,left,←,0.5198133999947459,True,9,-1,0,5
PB010K22,2,118,PS,exp,26,↑,up,↑,0.5307634999917354,True,9,1,1,6
PB010K22,2,119,PS,exp,45,←,left,←,0.6224473000038415,True,8,1,0,6
PB010K22,2,120,PS,exp,42,→,right,→,0.5958820999949239,True,8,1,0,6
PB010K22,2,121,PS,exp,33,↓,down,↓,0.7311443000216968,True,7,1,0,6
PB010K22,2,122,PS,exp,31,←,left,←,0.5574299999861978,True,7,1,0,6
PB010K22,2,123,PS,exp,37,→,right,→,0.7020718000130728,True,6,1,0,6
PB010K22,2,124,PS,exp,31,↑,left,←,0.43879050001851283,False,6,-1,1,7
PB010K22,2,125,PS,exp,40,↓,left,←,0.5694912000035401,False,7,-1,0,7
PB010K22,2,126,PS,exp,32,→,right,→,0.6221900999953505,True,8,-1,0,7
PB010K22,2,127,PS,exp,32,↑,right,→,0.8797245000023395,False,8,-1,0,7
PB010K22,2,128,PS,exp,42,↓,up,↑,1.639097400009632,False,9,-1,0,7
PB010K22,2,129,PS,exp,33,→,left,←,0.8484406000061426,False,10,-1,0,7
PB010K22,2,130,PS,exp,33,↑,left,←,0.3004807000106666,False,11,-1,0,7
PB010K22,2,131,PS,exp,46,↓,down,↓,0.6922540999948978,True,12,-1,0,7
PB010K22,2,132,PS,exp,29,→,down,↓,0.5313560000213329,False,12,-1,0,7
PB010K22,2,133,PS,exp,25,↓,right,→,0.8510878999950364,False,13,-1,0,7
PB010K22,2,134,PS,exp,30,→,right,→,0.9507931999978609,True,14,-1,0,7
PB010K22,2,135,PS,exp,47,↑,right,→,0.5582168999826536,False,14,-1,0,7
PB010K22,2,136,PS,exp,37,←,left,←,0.5436826999939512,True,15,-1,0,7
PB010K22,2,137,PS,exp,49,↑,left,←,0.6697215000167489,False,15,-1,0,7
PB010K22,2,138,PS,exp,46,←,right,→,0.6473994000116363,False,16,-1,0,7
PB010K22,2,139,PS,exp,44,↑,up,↑,0.661492699990049,True,17,-1,0,7
PB010K22,2,140,PS,exp,47,←,left,←,0.5645592999935616,True,17,1,1,8
PB010K22,2,141,PS,exp,43,↓,left,←,0.8255140999972355,False,16,-1,1,9
PB010K22,2,142,PS,exp,29,→,right,→,0.757052200002363,True,17,-1,0,9
PB010K22,2,143,PS,exp,50,↓,up,↑,0.7976147000154015,False,17,-1,0,9
PB010K22,2,144,PS,exp,32,↑,up,↑,0.6728672000172082,True,18,-1,0,9
PB010K22,2,145,PS,exp,44,→,no_key,no_letter,-1.0,False,18,-1,0,9
PB010K22,2,146,PS,exp,46,←,left,←,0.5885238000191748,True,19,-1,0,9
PB010K22,2,147,PS,exp,31,↑,up,↑,0.5254719999793451,True,19,1,1,10
PB010K22,2,148,PS,exp,27,↓,down,↓,0.7958855000033509,True,18,1,0,10
PB010K22,2,149,PS,exp,30,→,right,→,0.5257871999929193,True,18,1,0,10
PB010K22,2,150,PS,exp,29,←,no_key,no_letter,-1.0,False,17,-1,1,11
PB010K22,2,151,PS,exp,37,→,right,→,0.6322251000092365,True,18,-1,0,11
PB010K22,2,152,PS,exp,44,←,left,←,0.559278800006723,True,18,1,1,12
PB010K22,2,153,PS,exp,40,↑,up,↑,0.6371914999908768,True,17,1,0,12
PB010K22,2,154,PS,exp,49,↓,down,↓,0.5087571000040043,True,17,1,0,12
PB010K22,2,155,PS,exp,27,↑,up,↑,0.5290916000085417,True,16,1,0,12
PB010K22,2,156,PS,exp,29,←,left,←,0.5179424000089057,True,16,1,0,12
PB010K22,2,157,PS,exp,26,→,right,→,0.5338891999854241,True,15,1,0,12
PB010K22,2,158,PS,exp,35,←,left,←,0.509552999981679,True,15,1,0,12
PB010K22,2,159,PS,exp,40,→,right,→,0.5407210999983363,True,14,1,0,12
PB010K22,2,160,PS,exp,37,←,left,←,0.4283632999868132,True,14,1,0,12
PB010K22,2,161,PS,exp,48,↓,down,↓,0.6718553999962751,True,13,1,0,12
PB010K22,2,162,PS,exp,35,↑,up,↑,0.4409861999738496,True,13,1,0,12
PB010K22,2,163,PS,exp,37,→,right,→,0.6834677000006195,True,12,1,0,12
PB010K22,2,164,PS,exp,29,←,left,←,0.46758430000045337,True,12,1,0,12
PB010K22,2,165,PS,exp,44,↓,down,↓,0.6129732999834232,True,11,1,0,12
PB010K22,2,166,PS,exp,30,←,right,→,0.7280912999995053,False,11,-1,1,13
PB010K22,2,167,PS,exp,34,↑,up,↑,0.4279011000180617,True,12,-1,0,13
PB010K22,2,168,PS,exp,41,↓,down,↓,0.675137399986852,True,12,1,1,14
PB010K22,3,169,PS,intra_train,46,↑,up,↑,0.4964566999988165,True,12,-,-,-
PB010K22,3,170,PS,intra_train,35,↓,down,↓,0.6295678000024054,True,12,-,-,-
PB010K22,3,171,PS,intra_train,43,→,right,→,0.5740723999915645,True,12,-,-,-
PB010K22,3,172,PS,intra_train,47,↑,up,↑,0.4920797999948263,True,12,-,-,-
PB010K22,3,173,PS,intra_train,46,←,left,←,0.6332675000012387,True,12,-,-,-
PB010K22,3,174,PS,exp,48,→,left,←,1.270067499979632,False,8,-1,0,0
PB010K22,3,175,PS,exp,50,←,left,←,0.6850506999762729,True,9,-1,0,0
PB010K22,3,176,PS,exp,45,→,right,→,0.5584082000132184,True,9,1,1,1
PB010K22,3,177,PS,exp,46,↑,up,↑,0.6613251999951899,True,8,1,0,1
PB010K22,3,178,PS,exp,28,←,left,←,0.40871389998937957,True,8,1,0,1
PB010K22,3,179,PS,exp,45,↓,up,↑,0.7084419000020716,False,7,-1,1,2
PB010K22,3,180,PS,exp,33,↑,up,↑,0.6875218999921344,True,8,-1,0,2
PB010K22,3,181,PS,exp,34,↓,left,←,0.5721247000037692,False,8,-1,0,2
PB010K22,3,182,PS,exp,33,↑,up,↑,0.5183781000087038,True,9,-1,0,2
PB010K22,3,183,PS,exp,37,→,right,→,0.46327110001584515,True,9,1,1,3
PB010K22,3,184,PS,exp,38,←,left,←,0.6923739000048954,True,8,1,0,3
PB010K22,3,185,PS,exp,48,↓,down,↓,0.778130400023656,True,8,1,0,3
PB010K22,3,186,PS,exp,30,←,left,←,0.6100926999934018,True,7,1,0,3
PB010K22,3,187,PS,exp,35,→,right,→,0.5536944000050426,True,7,1,0,3
PB010K22,3,188,PS,exp,32,↓,left,←,0.8549017999903299,False,6,-1,1,4
PB010K22,3,189,PS,exp,31,→,right,→,0.6394516000000294,True,7,-1,0,4
PB010K22,3,190,PS,exp,31,↓,up,↑,0.7686847999866586,False,7,-1,0,4
PB010K22,3,191,PS,exp,44,↑,up,↑,0.5039276999887079,True,8,-1,0,4
PB010K22,3,192,PS,exp,42,→,right,→,0.6903384000179358,True,8,1,1,5
PB010K22,3,193,PS,exp,27,↑,up,↑,0.6787860000040382,True,7,1,0,5
PB010K22,3,194,PS,exp,37,→,left,←,0.6803420000069309,False,7,-1,1,6
PB010K22,3,195,PS,exp,44,←,left,←,0.48204050000640564,True,8,-1,0,6
PB010K22,3,196,PS,exp,33,→,right,→,0.590171999996528,True,8,1,1,7
PB010K22,3,197,PS,exp,45,↑,up,↑,0.5598879000172019,True,7,1,0,7
PB010K22,3,198,PS,exp,26,→,right,→,0.4748111999942921,True,7,1,0,7
PB010K22,3,199,PS,exp,40,←,right,→,0.590055200009374,False,6,-1,1,8
PB010K22,3,200,PS,exp,47,↑,up,↑,0.538066599983722,True,7,-1,0,8
PB010K22,3,201,PS,exp,42,←,no_key,no_letter,-1.0,False,7,-1,0,8
PB010K22,3,202,PS,exp,39,→,right,→,0.517683100013528,True,8,-1,0,8
PB010K22,3,203,PS,exp,43,↑,up,↑,0.5391268999956083,True,8,1,1,9
PB010K22,3,204,PS,exp,36,←,left,←,0.5260749000008218,True,7,1,0,9
PB010K22,3,205,PS,exp,43,↑,up,↑,1.1634272999945097,True,7,1,0,9
PB010K22,3,206,PS,exp,25,←,left,←,0.721641100011766,True,6,1,0,9
PB010K22,3,207,PS,exp,47,→,right,→,0.613305400009267,True,6,1,0,9
PB010K22,3,208,PS,exp,38,↑,up,↑,0.5178391000081319,True,5,1,0,9
PB010K22,3,209,PS,exp,33,→,right,→,0.5058044999896083,True,5,1,0,9
PB010K22,3,210,PS,exp,41,↑,up,↑,0.5793138000008184,True,4,1,0,9
PB010K22,3,211,PS,exp,40,←,left,←,0.5332542000105605,True,4,1,0,9
PB010K22,3,212,PS,exp,35,↑,right,→,0.45923670000047423,False,3,-1,1,10
PB010K22,3,213,PS,exp,28,←,right,→,0.3616283999872394,False,4,-1,0,10
PB010K22,3,214,PS,exp,28,↓,down,↓,0.6692808000079822,True,5,-1,0,10
PB010K22,3,215,PS,exp,36,↑,up,↑,0.5142201999842655,True,5,1,1,11
PB010K22,3,216,PS,exp,47,↓,up,↑,0.9941373000037856,False,4,-1,1,12
PB010K22,3,217,PS,exp,35,→,down,↓,1.4468812000122853,False,5,-1,0,12
PB010K22,3,218,PS,exp,38,←,right,→,0.7725238999992143,False,6,-1,0,12
PB010K22,3,219,PS,exp,31,→,right,→,1.3452013000205625,True,7,-1,0,12
PB010K22,3,220,PS,exp,28,↓,up,↑,1.678992199973436,False,7,-1,0,12
PB010K22,3,221,PS,exp,45,→,right,→,1.0444850999920163,True,8,-1,0,12
PB010K22,3,222,PS,exp,46,←,right,→,0.8493912999983877,False,8,-1,0,12
PB010K22,3,223,PS,exp,35,→,right,→,0.7322591999836732,True,9,-1,0,12
PB010K22,3,224,PS,exp,25,↑,up,↑,0.5316037000156939,True,9,1,1,13
PB010K22,3,225,PS,exp,44,←,left,←,0.569706899987068,True,8,1,0,13
PB010K22,3,226,PS,exp,42,→,right,→,0.5785990999720525,True,8,1,0,13
PB010K22,3,227,PS,exp,35,↑,up,↑,0.6208767000061926,True,7,1,0,13
PB010K22,3,228,PS,exp,38,↓,left,←,1.0774896999937482,False,7,-1,1,14
PB010K22,4,229,AS,intra_train,32,←,left,←,1.806787700013956,True,31,-,-,-
PB010K22,4,230,AS,intra_train,30,↓,down,↓,0.9703593000012916,True,31,-,-,-
PB010K22,4,231,AS,intra_train,48,←,left,←,0.5505150000099093,True,31,-,-,-
PB010K22,4,232,AS,intra_train,34,↑,up,↑,0.5506930999981705,True,31,-,-,-
PB010K22,4,233,AS,intra_train,30,↓,down,↓,0.567716699995799,True,31,-,-,-
PB010K22,4,234,AS,exp,38,←,left,←,0.8307152000197675,True,21,0,0,0
PB010K22,4,235,AS,exp,34,↑,up,↑,0.8745464999810793,True,21,1,0,0
PB010K22,4,236,AS,exp,43,↓,down,↓,0.46730630000820383,True,20,1,0,0
PB010K22,4,237,AS,exp,47,←,left,←,1.6006021999928635,True,20,1,0,0
PB010K22,4,238,AS,exp,38,↓,up,↑,1.0677998999890406,False,19,-1,1,1
PB010K22,4,239,AS,exp,47,→,right,→,1.507109300000593,True,20,-1,0,1
PB010K22,4,240,AS,exp,47,↑,up,↑,0.7867343999969307,True,20,1,1,2
PB010K22,4,241,AS,exp,50,←,left,←,1.8304805999796372,True,19,1,0,2
PB010K22,4,242,AS,exp,28,↑,up,↑,0.5434998999990057,True,19,1,0,2
PB010K22,4,243,AS,exp,36,↓,down,↓,0.7373405999969691,True,18,1,0,2
PB010K22,4,244,AS,exp,36,←,left,←,0.5762401999963913,True,18,1,0,2
PB010K22,4,245,AS,exp,35,→,right,→,0.4861267999804113,True,17,1,0,2
PB010K22,4,246,AS,exp,34,↓,down,↓,0.6885239999974146,True,17,1,0,2
PB010K22,4,247,AS,exp,26,←,left,←,0.739016100007575,True,16,1,0,2
PB010K22,4,248,AS,exp,27,↑,up,↑,0.643612599989865,True,16,1,0,2
PB010K22,4,249,AS,exp,45,→,right,→,0.9332906000199728,True,15,1,0,2
PB010K22,4,250,AS,exp,49,↓,down,↓,0.6478249999927357,True,15,1,0,2
PB010K22,4,251,AS,exp,35,←,right,→,0.7653896000119857,False,14,-1,1,3
PB010K22,4,252,AS,exp,31,→,right,→,0.5442449999973178,True,15,-1,0,3
PB010K22,4,253,AS,exp,47,←,right,→,0.7301800000132062,False,15,-1,0,3
PB010K22,4,254,AS,exp,35,→,left,←,0.7745401999854948,False,16,-1,0,3
PB010K22,4,255,AS,exp,50,↓,down,↓,0.6927334000065457,True,17,-1,0,3
PB010K22,4,256,AS,exp,43,←,left,←,0.5668352000066079,True,17,1,1,4
PB010K22,4,257,AS,exp,40,↓,down,↓,0.8935392000130378,True,16,1,0,4
PB010K22,4,258,AS,exp,32,←,left,←,0.8571972000063397,True,16,1,0,4
PB010K22,4,259,AS,exp,41,↑,down,↓,0.5397232999966945,False,15,-1,1,5
PB010K22,4,260,AS,exp,37,→,right,→,0.5315856999950483,True,16,-1,0,5
PB010K22,4,261,AS,exp,41,←,left,←,0.5005888000014238,True,16,1,1,6
PB010K22,4,262,AS,exp,47,→,right,→,0.5498214000253938,True,15,1,0,6
PB010K22,4,263,AS,exp,38,↑,up,↑,0.9359562000026926,True,15,1,0,6
PB010K22,4,264,AS,exp,30,→,left,←,0.6214649000030477,False,14,-1,1,7
PB010K22,4,265,AS,exp,48,↓,down,↓,0.6222244999953546,True,15,-1,0,7
PB010K22,4,266,AS,exp,45,→,right,→,0.7537210999871604,True,15,1,1,8
PB010K22,4,267,AS,exp,36,←,left,←,0.8932712999812793,True,14,1,0,8
PB010K22,4,268,AS,exp,33,↑,up,↑,0.5338570000021718,True,14,1,0,8
PB010K22,4,269,AS,exp,38,↓,up,↑,0.8099548999744002,False,13,-1,1,9
PB010K22,4,270,AS,exp,30,→,right,→,0.5098939999879804,True,14,-1,0,9
PB010K22,4,271,AS,exp,32,↓,down,↓,1.0282813000085298,True,14,1,1,10
PB010K22,4,272,AS,exp,48,↑,up,↑,0.689953199995216,True,13,1,0,10
PB010K22,4,273,AS,exp,49,→,up,↑,0.8038150999927893,False,13,-1,1,11
PB010K22,4,274,AS,exp,39,↓,up,↑,0.7114812000072561,False,14,-1,0,11
PB010K22,4,275,AS,exp,25,↑,up,↑,0.9598913999798242,True,15,-1,0,11
PB010K22,4,276,AS,exp,29,↓,up,↑,1.1179885000165086,False,15,-1,0,11
PB010K22,4,277,AS,exp,44,↑,down,↓,0.8563510000240058,False,16,-1,0,11
PB010K22,4,278,AS,exp,31,→,right,→,0.583835800003726,True,17,-1,0,11
PB010K22,4,279,AS,exp,30,↓,up,↑,0.936588100012159,False,17,-1,0,11
PB010K22,4,280,AS,exp,50,→,right,→,0.6937095999892335,True,18,-1,0,11
PB010K22,4,281,AS,exp,39,↓,up,↑,0.8294654999917839,False,18,-1,0,11
PB010K22,4,282,AS,exp,34,↑,up,↑,0.6225115999986883,True,19,-1,0,11
PB010K22,4,283,AS,exp,32,↓,down,↓,0.9179469000082463,True,19,1,1,12
PB010K22,4,284,AS,exp,45,←,left,←,0.5484016999835148,True,18,1,0,12
PB010K22,4,285,AS,exp,38,↑,up,↑,0.7904543000040576,True,18,1,0,12
PB010K22,4,286,AS,exp,37,↓,down,↓,1.3336225999810267,True,17,1,0,12
PB010K22,4,287,AS,exp,41,←,left,←,0.4004340000101365,True,17,1,0,12
PB010K22,4,288,AS,exp,36,↑,up,↑,0.5346533999836538,True,16,1,0,12
PB010K22,4,289,AS,exp,33,←,left,←,0.4563458999909926,True,16,1,0,12
PB010K22,4,290,AS,exp,27,↓,up,↑,0.6538134999864269,False,15,-1,1,13
PB010K22,4,291,AS,exp,28,↑,up,↑,1.1513001999992412,True,16,-1,0,13
PB010K22,4,292,AS,exp,27,↓,down,↓,0.6520049000100698,True,16,1,1,14
PB010K22,5,293,AS,intra_train,47,←,left,←,1.4808333999826573,True,31,-,-,-
PB010K22,5,294,AS,intra_train,35,→,right,→,0.6174226999864914,True,31,-,-,-
PB010K22,5,295,AS,intra_train,30,←,left,←,0.9313990999944508,True,31,-,-,-
PB010K22,5,296,AS,intra_train,26,↓,down,↓,0.8860291999881156,True,31,-,-,-
PB010K22,5,297,AS,intra_train,25,←,left,←,0.7409183999989182,True,31,-,-,-
PB010K22,5,298,AS,exp,33,↓,down,↓,0.7664197999984026,True,21,0,0,0
PB010K22,5,299,AS,exp,50,→,right,→,0.6405042000114918,True,21,1,0,0
PB010K22,5,300,AS,exp,30,↓,down,↓,0.668296999996528,True,20,1,0,0
PB010K22,5,301,AS,exp,42,→,right,→,0.8440981000021566,True,20,1,0,0
PB010K22,5,302,AS,exp,49,↓,down,↓,0.6564033999748062,True,19,1,0,0
PB010K22,5,303,AS,exp,42,↑,up,↑,0.5168852999922819,True,19,1,0,0
PB010K22,5,304,AS,exp,41,←,left,←,0.7872862000076566,True,18,1,0,0
PB010K22,5,305,AS,exp,34,↓,down,↓,0.6377590000047348,True,18,1,0,0
PB010K22,5,306,AS,exp,31,↑,up,↑,0.5844863999809604,True,17,1,0,0
PB010K22,5,307,AS,exp,41,←,left,←,0.6237942999869119,True,17,1,0,0
PB010K22,5,308,AS,exp,41,→,right,→,0.6526152000005823,True,16,1,0,0
PB010K22,5,309,AS,exp,48,↑,up,↑,0.5500949999841396,True,16,1,0,0
PB010K22,5,310,AS,exp,50,→,right,→,0.5478589000122156,True,15,1,0,0
PB010K22,5,311,AS,exp,32,←,left,←,0.5345325999951456,True,15,1,0,0
PB010K22,5,312,AS,exp,30,↓,up,↑,0.6970369999762625,False,14,-1,1,1
PB010K22,5,313,AS,exp,42,→,right,→,0.7110168999934103,True,15,-1,0,1
PB010K22,5,314,AS,exp,36,↑,up,↑,0.7664666000055149,True,15,1,1,2
PB010K22,5,315,AS,exp,36,↓,down,↓,0.6578947999805678,True,14,1,0,2
PB010K22,5,316,AS,exp,39,←,left,←,0.5195438000082504,True,14,1,0,2
PB010K22,5,317,AS,exp,40,→,left,←,0.7173159000230953,False,13,-1,1,3
PB010K22,5,318,AS,exp,30,↑,up,↑,0.4907991999934893,True,14,-1,0,3
PB010K22,5,319,AS,exp,42,↓,down,↓,0.6533511000161525,True,14,1,1,4
PB010K22,5,320,AS,exp,41,→,left,←,0.7158550000167452,False,13,-1,1,5
PB010K22,5,321,AS,exp,47,↓,left,←,0.6428553000150714,False,14,-1,0,5
PB010K22,5,322,AS,exp,37,→,right,→,0.785256200004369,True,15,-1,0,5
PB010K22,5,323,AS,exp,29,↑,up,↑,0.876109999982873,True,15,1,1,6
PB010K22,5,324,AS,exp,47,↓,up,↑,0.777377799997339,False,14,-1,1,7
PB010K22,5,325,AS,exp,27,→,right,→,0.5721771999960765,True,15,-1,0,7
PB010K22,5,326,AS,exp,49,←,left,←,0.7787165000045206,True,15,1,1,8
PB010K22,5,327,AS,exp,40,↓,down,↓,0.6405074000067543,True,14,1,0,8
PB010K22,5,328,AS,exp,40,→,right,→,0.5923758999851998,True,14,1,0,8
PB010K22,5,329,AS,exp,28,←,left,←,0.5012807000020985,True,13,1,0,8
PB010K22,5,330,AS,exp,43,→,right,→,0.5819424000219442,True,13,1,0,8
PB010K22,5,331,AS,exp,40,←,right,→,0.873149499995634,False,12,-1,1,9
PB010K22,5,332,AS,exp,44,→,left,←,0.7279933000099845,False,13,-1,0,9
PB010K22,5,333,AS,exp,42,←,left,←,0.5041645999881439,True,14,-1,0,9
PB010K22,5,334,AS,exp,31,→,right,→,0.5923976000049151,True,14,1,1,10
PB010K22,5,335,AS,exp,46,↑,up,↑,0.5778606999956537,True,13,1,0,10
PB010K22,5,336,AS,exp,31,→,right,→,0.6393272999848705,True,13,1,0,10
PB010K22,5,337,AS,exp,47,↓,down,↓,0.6559929000213742,True,12,1,0,10
PB010K22,5,338,AS,exp,47,↑,up,↑,0.6709130999806803,True,12,1,0,10
PB010K22,5,339,AS,exp,32,↓,up,↑,0.7087517000036314,False,11,-1,1,11
PB010K22,5,340,AS,exp,44,←,right,→,0.5339654000126757,False,12,-1,0,11
PB010K22,5,341,AS,exp,37,↓,down,↓,0.8689134000160266,True,13,-1,0,11
PB010K22,5,342,AS,exp,44,←,left,←,0.5079479000123683,True,13,1,1,12
PB010K22,5,343,AS,exp,43,↑,up,↑,0.7195390000124462,True,12,1,0,12
PB010K22,5,344,AS,exp,38,←,left,←,0.5821778000099584,True,12,1,0,12
PB010K22,5,345,AS,exp,47,↓,down,↓,0.9101631999947131,True,11,1,0,12
PB010K22,5,346,AS,exp,38,→,right,→,0.6179839000105858,True,11,1,0,12
PB010K22,5,347,AS,exp,42,↑,up,↑,0.48222740000346676,True,10,1,0,12
PB010K22,5,348,AS,exp,28,→,left,←,0.763383600016823,False,10,-1,1,13
PB010K22,5,349,AS,exp,29,↓,down,↓,0.6007194000121672,True,11,-1,0,13
PB010K22,5,350,AS,exp,35,↑,up,↑,0.7036318999889772,True,11,1,1,14
PB010K22,6,351,PS,intra_train,27,↓,right,→,1.6953715999843553,False,12,-,-,-
PB010K22,6,352,PS,intra_train,42,↑,right,→,1.8638595000084024,False,12,-,-,-
PB010K22,6,353,PS,intra_train,26,→,right,→,1.1565356999926735,True,12,-,-,-
PB010K22,6,354,PS,intra_train,45,↑,up,↑,0.879045399982715,True,12,-,-,-
PB010K22,6,355,PS,intra_train,46,→,no_key,no_letter,-1.0,False,12,-,-,-
PB010K22,6,356,PS,exp,29,↑,up,↑,1.212755999993533,True,8,0,0,0
PB010K22,6,357,PS,exp,37,→,right,→,0.7497545999940485,True,8,1,0,0
PB010K22,6,358,PS,exp,34,↓,left,←,0.7067060999979731,False,7,-1,1,1
PB010K22,6,359,PS,exp,40,←,left,←,0.37488289998145774,True,8,-1,0,1
PB010K22,6,360,PS,exp,43,↓,left,←,0.6659255999838933,False,8,-1,0,1
PB010K22,6,361,PS,exp,38,←,left,←,0.6351960000174586,True,9,-1,0,1
PB010K22,6,362,PS,exp,48,↓,right,→,0.7674674000008963,False,9,-1,0,1
PB010K22,6,363,PS,exp,26,↑,up,↑,0.9132211999967694,True,10,-1,0,1
PB010K22,6,364,PS,exp,39,←,left,←,0.4031006000004709,True,10,1,1,2
PB010K22,6,365,PS,exp,26,↓,right,→,0.3951918999955524,False,9,-1,1,3
PB010K22,6,366,PS,exp,29,←,left,←,0.4939717999950517,True,10,-1,0,3
PB010K22,6,367,PS,exp,42,↑,left,←,0.3622938000189606,False,10,-1,0,3
PB010K22,6,368,PS,exp,26,←,no_key,no_letter,-1.0,False,11,-1,0,3
PB010K22,6,369,PS,exp,33,↑,left,←,0.5868632000056095,False,12,-1,0,3
PB010K22,6,370,PS,exp,30,→,right,→,0.8795361000229605,True,13,-1,0,3
PB010K22,6,371,PS,exp,43,↑,up,↑,0.680564600013895,True,13,1,1,4
PB010K22,6,372,PS,exp,43,←,left,←,0.5778424000018276,True,12,1,0,4
PB010K22,6,373,PS,exp,47,↓,down,↓,1.4935121000162326,True,12,1,0,4
PB010K22,6,374,PS,exp,28,→,right,→,0.6744877000164706,True,11,1,0,4
PB010K22,6,375,PS,exp,35,←,left,←,0.5344851000118069,True,11,1,0,4
PB010K22,6,376,PS,exp,25,↓,right,→,0.5335987000144087,False,10,-1,1,5
PB010K22,6,377,PS,exp,39,→,up,↑,1.0325991000281647,False,11,-1,0,5
PB010K22,6,378,PS,exp,33,↑,right,→,0.7910906999895815,False,12,-1,0,5
PB010K22,6,379,PS,exp,27,↓,down,↓,0.9931071000173688,True,13,-1,0,5
PB010K22,6,380,PS,exp,40,↑,up,↑,0.6487690999929328,True,13,1,1,6
PB010K22,6,381,PS,exp,35,→,right,→,0.6650965000153519,True,12,1,0,6
PB010K22,6,382,PS,exp,34,↓,down,↓,0.7347608999989461,True,12,1,0,6
PB010K22,6,383,PS,exp,42,→,right,→,0.6966922999999952,True,11,1,0,6
PB010K22,6,384,PS,exp,37,↓,left,←,0.8718411999871023,False,11,-1,1,7
PB010K22,6,385,PS,exp,27,←,left,←,0.5307494000007864,True,12,-1,0,7
PB010K22,6,386,PS,exp,33,↓,right,→,0.7449822000053246,False,12,-1,0,7
PB010K22,6,387,PS,exp,41,←,left,←,0.48236230001202784,True,13,-1,0,7
PB010K22,6,388,PS,exp,38,↑,left,←,0.6881598000181839,False,13,-1,0,7
PB010K22,6,389,PS,exp,38,→,right,→,0.5727535999903921,True,14,-1,0,7
PB010K22,6,390,PS,exp,39,↓,down,↓,0.7856959999771789,True,14,1,1,8
PB010K22,6,391,PS,exp,44,←,left,←,0.5473681000003126,True,13,1,0,8
PB010K22,6,392,PS,exp,34,→,right,→,0.5551778000080958,True,13,1,0,8
PB010K22,6,393,PS,exp,47,←,left,←,0.4881138000055216,True,12,1,0,8
PB010K22,6,394,PS,exp,40,→,right,→,0.589890800009016,True,12,1,0,8
PB010K22,6,395,PS,exp,36,↓,down,↓,0.7085700000170618,True,11,1,0,8
PB010K22,6,396,PS,exp,39,→,right,→,0.6076311999931931,True,11,1,0,8
PB010K22,6,397,PS,exp,28,←,left,←,0.5315564000047743,True,10,1,0,8
PB010K22,6,398,PS,exp,37,↑,up,↑,0.5203209999890532,True,10,1,0,8
PB010K22,6,399,PS,exp,27,↓,right,→,0.6939686000114307,False,9,-1,1,9
PB010K22,6,400,PS,exp,43,↑,up,↑,0.4886920000135433,True,10,-1,0,9
PB010K22,6,401,PS,exp,30,↓,right,→,0.646398400014732,False,10,-1,0,9
PB010K22,6,402,PS,exp,50,←,left,←,0.5244866000139154,True,11,-1,0,9
PB010K22,6,403,PS,exp,32,→,left,←,0.6863844000035897,False,11,-1,0,9
PB010K22,6,404,PS,exp,42,←,left,←,0.4523126000131015,True,12,-1,0,9
PB010K22,6,405,PS,exp,30,↓,left,←,0.5205992999835871,False,12,-1,0,9
PB010K22,6,406,PS,exp,34,←,left,←,0.4723185999901034,True,13,-1,0,9
PB010K22,6,407,PS,exp,46,↑,up,↑,0.5960323000035714,True,13,1,1,10
PB010K22,6,408,PS,exp,33,→,right,→,0.5491753999958746,True,12,1,0,10
PB010K22,6,409,PS,exp,43,←,left,←,0.5158365999814123,True,12,1,0,10
PB010K22,6,410,PS,exp,36,→,right,→,0.4779058999847621,True,11,1,0,10
PB010K22,6,411,PS,exp,27,←,right,→,0.42508980000275187,False,11,-1,1,11
PB010K22,6,412,PS,exp,28,↓,down,↓,0.768271899985848,True,12,-1,0,11
PB010K22,6,413,PS,exp,48,←,up,↑,0.4601877999957651,False,12,-1,0,11
PB010K22,6,414,PS,exp,28,↑,up,↑,0.49902089999523014,True,13,-1,0,11
PB010K22,6,415,PS,exp,39,←,right,→,0.5545276000048034,False,13,-1,0,11
PB010K22,6,416,PS,exp,30,↑,up,↑,0.5023943999840412,True,14,-1,0,11
PB010K22,6,417,PS,exp,34,→,right,→,0.46284769999329,True,14,1,1,12
PB010K22,6,418,PS,exp,47,↓,right,→,0.5402057000028435,False,13,-1,1,13
PB010K22,6,419,PS,exp,41,↑,right,→,0.5503223999985494,False,14,-1,0,13
PB010K22,6,420,PS,exp,37,→,right,→,0.4776420000125654,True,15,-1,0,13
PB010K22,6,421,PS,exp,25,↑,left,←,1.5513128000020515,False,15,-1,0,13
PB010K22,6,422,PS,exp,36,←,right,→,0.6114394000032917,False,16,-1,0,13
PB010K22,6,423,PS,exp,41,↑,left,←,0.48839589999988675,False,17,-1,0,13
PB010K22,6,424,PS,exp,32,←,left,←,0.5306907999911346,True,18,-1,0,13
PB010K22,6,425,PS,exp,45,↓,down,↓,0.7083797999948729,True,18,1,1,14
PB010K22,7,426,PS,intra_train,48,→,right,→,0.6078167000086978,True,12,-,-,-
PB010K22,7,427,PS,intra_train,35,←,left,←,1.2908269999898039,True,12,-,-,-
PB010K22,7,428,PS,intra_train,39,→,right,→,0.518966299976455,True,12,-,-,-
PB010K22,7,429,PS,intra_train,49,↑,up,↑,0.5820887000008952,True,12,-,-,-
PB010K22,7,430,PS,intra_train,33,←,left,←,0.5674583000072744,True,12,-,-,-
PB010K22,7,431,PS,exp,50,↓,down,↓,0.6497920999827329,True,8,0,0,0
PB010K22,7,432,PS,exp,49,↑,up,↑,1.0359167999995407,True,8,1,0,0
PB010K22,7,433,PS,exp,46,←,left,←,0.6316642999881878,True,7,1,0,0
PB010K22,7,434,PS,exp,32,↓,down,↓,0.6339136000024155,True,7,1,0,0
PB010K22,7,435,PS,exp,43,←,up,↑,0.7851593999948818,False,6,-1,1,1
PB010K22,7,436,PS,exp,26,↑,up,↑,0.5611773999989964,True,7,-1,0,1
PB010K22,7,437,PS,exp,42,→,right,→,0.5697778000030667,True,7,1,1,2
PB010K22,7,438,PS,exp,42,↓,up,↑,0.794385199988028,False,6,-1,1,3
PB010K22,7,439,PS,exp,48,↑,up,↑,0.5983340000093449,True,7,-1,0,3
PB010K22,7,440,PS,exp,40,↓,up,↑,0.5333480999979656,False,7,-1,0,3
PB010K22,7,441,PS,exp,30,←,left,←,0.5583189000026323,True,8,-1,0,3
PB010K22,7,442,PS,exp,47,↓,up,↑,0.46715620000031777,False,8,-1,0,3
PB010K22,7,443,PS,exp,42,→,right,→,0.6987364000233356,True,9,-1,0,3
PB010K22,7,444,PS,exp,32,↓,up,↑,0.6561824000091292,False,9,-1,0,3
PB010K22,7,445,PS,exp,47,↑,right,→,0.4473996000015177,False,10,-1,0,3
PB010K22,7,446,PS,exp,40,←,left,←,0.6264797000039835,True,11,-1,0,3
PB010K22,7,447,PS,exp,31,↓,up,↑,0.7218730000022333,False,11,-1,0,3
PB010K22,7,448,PS,exp,38,↑,up,↑,0.5865439999906812,True,12,-1,0,3
PB010K22,7,449,PS,exp,35,→,right,→,0.6547655000176746,True,12,1,1,4
PB010K22,7,450,PS,exp,28,↓,down,↓,0.710235400008969,True,11,1,0,4
PB010K22,7,451,PS,exp,28,←,left,←,0.47857120001572184,True,11,1,0,4
PB010K22,7,452,PS,exp,38,↓,down,↓,0.723287300002994,True,10,1,0,4
PB010K22,7,453,PS,exp,27,←,left,←,0.5406004000105895,True,10,1,0,4
PB010K22,7,454,PS,exp,47,↑,up,↑,0.47289929998805746,True,9,1,0,4
PB010K22,7,455,PS,exp,27,←,left,←,0.7341894000128377,True,9,1,0,4
PB010K22,7,456,PS,exp,32,↑,up,↑,0.6471636999922339,True,8,1,0,4
PB010K22,7,457,PS,exp,42,←,left,←,0.4275171000044793,True,8,1,0,4
PB010K22,7,458,PS,exp,35,→,left,←,0.6345500000170432,False,7,-1,1,5
PB010K22,7,459,PS,exp,48,←,left,←,0.456641299999319,True,8,-1,0,5
PB010K22,7,460,PS,exp,28,→,right,→,0.6227149000042118,True,8,1,1,6
PB010K22,7,461,PS,exp,50,←,right,→,0.5404166999796871,False,7,-1,1,7
PB010K22,7,462,PS,exp,49,↑,up,↑,0.6884953000117093,True,8,-1,0,7
PB010K22,7,463,PS,exp,50,→,right,→,0.8241273000021465,True,8,1,1,8
PB010K22,7,464,PS,exp,34,↑,up,↑,0.5298518000054173,True,7,1,0,8
PB010K22,7,465,PS,exp,42,↓,down,↓,0.6090017999813426,True,7,1,0,8
PB010K22,7,466,PS,exp,33,←,left,←,0.4925020999799017,True,6,1,0,8
PB010K22,7,467,PS,exp,27,↓,right,→,0.6178348000103142,False,6,-1,1,9
PB010K22,7,468,PS,exp,42,←,right,→,0.4238875999872107,False,7,-1,0,9
PB010K22,7,469,PS,exp,31,↓,down,↓,0.754569899989292,True,8,-1,0,9
PB010K22,7,470,PS,exp,45,←,left,←,0.5427612999919802,True,8,1,1,10
PB010K22,7,471,PS,exp,38,↓,down,↓,0.8191993999935221,True,7,1,0,10
PB010K22,7,472,PS,exp,44,→,right,→,0.5820827999850735,True,7,1,0,10
PB010K22,7,473,PS,exp,48,↓,down,↓,0.5346334000059869,True,6,1,0,10
PB010K22,7,474,PS,exp,39,↑,up,↑,0.49426850001327693,True,6,1,0,10
PB010K22,7,475,PS,exp,27,←,down,↓,0.6515843999804929,False,5,-1,1,11
PB010K22,7,476,PS,exp,25,→,right,→,0.5570426999765914,True,6,-1,0,11
PB010K22,7,477,PS,exp,42,↑,up,↑,0.48566060001030564,True,6,1,1,12
PB010K22,7,478,PS,exp,37,←,left,←,0.8726557999907527,True,5,1,0,12
PB010K22,7,479,PS,exp,32,→,left,←,0.5071836999850348,False,5,-1,1,13
PB010K22,7,480,PS,exp,32,↑,left,←,0.8007237999991048,False,6,-1,0,13
PB010K22,7,481,PS,exp,43,←,left,←,0.5544654999976046,True,7,-1,0,13
PB010K22,7,482,PS,exp,49,↑,up,↑,1.5162662000220735,True,7,1,1,14
PB010K22,8,483,AS,intra_train,28,→,right,→,1.2488052999833599,True,31,-,-,-
PB010K22,8,484,AS,intra_train,28,↓,down,↓,0.6946612999890931,True,31,-,-,-
PB010K22,8,485,AS,intra_train,39,→,right,→,1.9934811999846715,True,31,-,-,-
PB010K22,8,486,AS,intra_train,33,←,left,←,0.8725432000064757,True,31,-,-,-
PB010K22,8,487,AS,intra_train,31,↑,up,↑,0.6004277000029106,True,31,-,-,-
PB010K22,8,488,AS,exp,49,→,right,→,0.5761264000029769,True,21,0,0,0
PB010K22,8,489,AS,exp,50,↓,down,↓,0.9632167000090703,True,21,1,0,0
PB010K22,8,490,AS,exp,46,→,right,→,0.6704021000186913,True,20,1,0,0
PB010K22,8,491,AS,exp,26,↑,no_key,no_letter,-1.0,False,20,-1,1,1
PB010K22,8,492,AS,exp,27,↓,down,↓,0.9199642000021413,True,21,-1,0,1
PB010K22,8,493,AS,exp,29,↑,up,↑,0.43453140000929125,True,21,1,1,2
PB010K22,8,494,AS,exp,46,→,right,→,0.41741920000640675,True,20,1,0,2
PB010K22,8,495,AS,exp,31,←,left,←,0.5502908999915235,True,20,1,0,2
PB010K22,8,496,AS,exp,49,↑,up,↑,0.5810684000025503,True,19,1,0,2
PB010K22,8,497,AS,exp,41,←,left,←,0.8170879000099376,True,19,1,0,2
PB010K22,8,498,AS,exp,38,↓,down,↓,0.660786399996141,True,18,1,0,2
PB010K22,8,499,AS,exp,46,←,left,←,0.7958636999828741,True,18,1,0,2
PB010K22,8,500,AS,exp,29,→,right,→,0.7427659000095446,True,17,1,0,2
PB010K22,8,501,AS,exp,33,↓,down,↓,0.832850699982373,True,17,1,0,2
PB010K22,8,502,AS,exp,41,←,left,←,0.6192010999948252,True,16,1,0,2
PB010K22,8,503,AS,exp,46,→,right,→,0.8076048000075389,True,16,1,0,2
PB010K22,8,504,AS,exp,38,↑,up,↑,0.5071198999939952,True,15,1,0,2
PB010K22,8,505,AS,exp,45,←,left,←,0.8418334000161849,True,15,1,0,2
PB010K22,8,506,AS,exp,25,↑,up,↑,0.5249512000009418,True,14,1,0,2
PB010K22,8,507,AS,exp,27,→,right,→,0.5028634999762289,True,14,1,0,2
PB010K22,8,508,AS,exp,45,↑,up,↑,0.6751043999975082,True,13,1,0,2
PB010K22,8,509,AS,exp,40,←,left,←,0.4699339999933727,True,13,1,0,2
PB010K22,8,510,AS,exp,35,↓,down,↓,0.5964111999783199,True,12,1,0,2
PB010K22,8,511,AS,exp,36,→,up,↑,0.7220535000087693,False,12,-1,1,3
PB010K22,8,512,AS,exp,48,←,left,←,0.6568074999959208,True,13,-1,0,3
PB010K22,8,513,AS,exp,49,→,left,←,0.6198768000176642,False,13,-1,0,3
PB010K22,8,514,AS,exp,38,←,left,←,0.4845547000004444,True,14,-1,0,3
PB010K22,8,515,AS,exp,42,→,left,←,0.6609250999754295,False,14,-1,0,3
PB010K22,8,516,AS,exp,33,↓,down,↓,0.7112835999869276,True,15,-1,0,3
PB010K22,8,517,AS,exp,44,↑,up,↑,0.5826922000269406,True,15,1,1,4
PB010K22,8,518,AS,exp,39,→,right,→,0.49499659999855794,True,14,1,0,4
PB010K22,8,519,AS,exp,34,↓,down,↓,0.6295447000011336,True,14,1,0,4
PB010K22,8,520,AS,exp,36,→,right,→,0.5432986000087112,True,13,1,0,4
PB010K22,8,521,AS,exp,30,↑,up,↑,0.49684849998448044,True,13,1,0,4
PB010K22,8,522,AS,exp,32,←,left,←,0.5491233000066131,True,12,1,0,4
PB010K22,8,523,AS,exp,42,→,right,→,0.6972329999844078,True,12,1,0,4
PB010K22,8,524,AS,exp,34,←,left,←,0.4202802999934647,True,11,1,0,4
PB010K22,8,525,AS,exp,32,↑,up,↑,0.5343729999731295,True,11,1,0,4
PB010K22,8,526,AS,exp,38,←,left,←,0.7103972999902908,True,10,1,0,4
PB010K22,8,527,AS,exp,26,↓,down,↓,0.7370794999878854,True,10,1,0,4
PB010K22,8,528,AS,exp,50,→,right,→,0.5232843000267167,True,9,1,0,4
PB010K22,8,529,AS,exp,45,↓,down,↓,0.7262409999966621,True,9,1,0,4
PB010K22,8,530,AS,exp,43,←,left,←,0.3861396000138484,True,8,1,0,4
PB010K22,8,531,AS,exp,41,→,right,→,0.5322723000135738,True,8,1,0,4
PB010K22,8,532,AS,exp,25,←,left,←,0.9608849000069313,True,7,1,0,4
PB010K22,8,533,AS,exp,46,↓,up,↑,1.363521999999648,False,7,-1,1,5
PB010K22,8,534,AS,exp,35,←,up,↑,0.7720191999978852,False,8,-1,0,5
PB010K22,8,535,AS,exp,27,↑,up,↑,0.7309470000036526,True,9,-1,0,5
PB010K22,8,536,AS,exp,37,→,right,→,0.5576328000170179,True,9,1,1,6
PB010K22,8,537,AS,exp,35,←,left,←,0.7487938000122085,True,8,1,0,6
PB010K22,8,538,AS,exp,50,↑,up,↑,0.5566571000090335,True,8,1,0,6
PB010K22,8,539,AS,exp,27,→,right,→,0.53953849998652,True,7,1,0,6
PB010K22,8,540,AS,exp,47,↑,up,↑,0.509324500017101,True,7,1,0,6
PB010K22,8,541,AS,exp,41,→,right,→,0.5723928000079468,True,6,1,0,6
PB010K22,8,542,AS,exp,28,↓,down,↓,0.7920429999940097,True,6,1,0,6
PB010K22,8,543,AS,exp,48,↑,right,→,0.777825600001961,False,5,-1,1,7
PB010K22,8,544,AS,exp,40,←,left,←,0.6690199000004213,True,6,-1,0,7
PB010K22,8,545,AS,exp,40,→,left,←,0.769842499983497,False,6,-1,0,7
PB010K22,8,546,AS,exp,27,↑,up,↑,0.4826302999863401,True,7,-1,0,7
PB010K22,8,547,AS,exp,46,↓,down,↓,0.9454569999943487,True,7,1,1,8
PB010K22,8,548,AS,exp,26,→,right,→,0.6360608000250068,True,6,1,0,8
PB010K22,8,549,AS,exp,36,↓,up,↑,0.8474150999973062,False,6,-1,1,9
PB010K22,8,550,AS,exp,40,→,left,←,0.7831958000024315,False,7,-1,0,9
PB010K22,8,551,AS,exp,42,←,left,←,0.4819466999906581,True,8,-1,0,9
PB010K22,8,552,AS,exp,44,↓,left,←,0.7898300999950152,False,8,-1,0,9
PB010K22,8,553,AS,exp,45,→,right,→,0.5999604999960866,True,9,-1,0,9
PB010K22,8,554,AS,exp,34,←,left,←,0.5823668999946676,True,9,1,1,10
PB010K22,8,555,AS,exp,48,↓,up,↑,1.2183656999841332,False,8,-1,1,11
PB010K22,8,556,AS,exp,25,←,right,→,0.7139246999868192,False,9,-1,0,11
PB010K22,8,557,AS,exp,39,↓,down,↓,0.8219331000000238,True,10,-1,0,11
PB010K22,8,558,AS,exp,47,↑,up,↑,0.6785697000159416,True,10,1,1,12
PB010K22,8,559,AS,exp,26,→,right,→,0.7093582000234164,True,9,1,0,12
PB010K22,8,560,AS,exp,45,↓,down,↓,0.5789020000083838,True,9,1,0,12
PB010K22,8,561,AS,exp,49,→,right,→,0.5160241999838036,True,8,1,0,12
PB010K22,8,562,AS,exp,48,↑,up,↑,0.48763240000698715,True,8,1,0,12
PB010K22,8,563,AS,exp,31,↓,down,↓,0.49292710001464,True,7,1,0,12
PB010K22,8,564,AS,exp,42,↑,up,↑,0.4209027999895625,True,7,1,0,12
PB010K22,8,565,AS,exp,45,→,right,→,0.6405668999941554,True,6,1,0,12
PB010K22,8,566,AS,exp,44,↓,down,↓,0.7703247000172269,True,6,1,0,12
PB010K22,8,567,AS,exp,48,↑,up,↑,0.4913726999948267,True,5,1,0,12
PB010K22,8,568,AS,exp,38,←,left,←,0.5092243999824859,True,5,1,0,12
PB010K22,8,569,AS,exp,38,→,down,↓,1.4031891000049654,False,4,-1,1,13
PB010K22,8,570,AS,exp,32,←,left,←,0.6545253000222147,True,5,-1,0,13
PB010K22,8,571,AS,exp,26,↑,right,→,0.8872389000025578,False,5,-1,0,13
PB010K22,8,572,AS,exp,30,←,left,←,0.6167069999792147,True,6,-1,0,13
PB010K22,8,573,AS,exp,33,→,right,→,0.587710000021616,True,6,1,1,14
