PART_ID,Block_no,Trial_no,Block_type,Trial_type,CSI,Stim_letter,Key_pressed,letter_choose,Rt,Corr,Stimulus Time,Level,Reversal,Revs_count
PB022M28,1,1,PS,train,43,→,right,→,1.9178090000059456,True,30,-,-,-
PB022M28,1,2,PS,train,26,↓,no_key,no_letter,-1.0,False,30,-,-,-
PB022M28,1,3,PS,train,44,←,left,←,1.4542538999812678,True,30,-,-,-
PB022M28,1,4,PS,train,45,↑,no_key,no_letter,-1.0,False,30,-,-,-
PB022M28,1,5,PS,train,42,↓,down,↓,1.7796187999774702,True,30,-,-,-
PB022M28,1,6,PS,train,49,↑,up,↑,1.577261800004635,True,30,-,-,-
PB022M28,1,7,PS,train,28,→,right,→,1.4478590000071563,True,30,-,-,-
PB022M28,1,8,PS,train,48,←,left,←,1.5174780000234023,True,30,-,-,-
PB022M28,1,9,PS,train,43,↓,down,↓,0.7308653999934904,True,30,-,-,-
PB022M28,1,10,PS,train,43,→,right,→,0.7314015000010841,True,30,-,-,-
PB022M28,2,11,AS,train,45,↑,up,↑,1.6703256000182591,True,45,-,-,-
PB022M28,2,12,AS,train,36,→,right,→,1.260379199986346,True,45,-,-,-
PB022M28,2,13,AS,train,45,↑,up,↑,1.4289303999976255,True,45,-,-,-
PB022M28,2,14,AS,train,42,→,right,→,0.8003660999820568,True,45,-,-,-
PB022M28,2,15,AS,train,50,↑,up,↑,0.9459758999873884,True,45,-,-,-
PB022M28,2,16,AS,train,27,↓,down,↓,0.981239499989897,True,45,-,-,-
PB022M28,2,17,AS,train,40,↑,up,↑,0.783642599999439,True,45,-,-,-
PB022M28,2,18,AS,train,50,→,right,→,1.091192800027784,True,45,-,-,-
PB022M28,2,19,AS,train,45,←,left,←,1.9405342999962159,True,45,-,-,-
PB022M28,2,20,AS,train,40,→,right,→,2.2120781000121497,True,45,-,-,-
PB022M28,-,21,PS,adaptive,32,↑,no_key,no_letter,-1.0,False,10,-1,0,0
PB022M28,-,22,PS,adaptive,29,←,left,←,1.2931970999925397,True,11,-1,0,0
PB022M28,-,23,PS,adaptive,27,↓,up,↑,1.252199400041718,False,11,-1,0,0
PB022M28,-,24,PS,adaptive,30,←,right,→,1.1528695999877527,False,12,-1,0,0
PB022M28,-,25,PS,adaptive,39,↓,down,↓,0.685875799972564,True,13,-1,0,0
PB022M28,-,26,PS,adaptive,48,↑,up,↑,0.6427623999770731,True,13,1,1,1
PB022M28,-,27,PS,adaptive,38,←,right,→,0.8633657000027597,False,12,-1,1,2
PB022M28,-,28,PS,adaptive,32,↑,up,↑,0.8069392000325024,True,13,-1,0,2
PB022M28,-,29,PS,adaptive,37,→,right,→,0.8913969999994151,True,13,1,1,3
PB022M28,-,30,PS,adaptive,40,←,left,←,0.5841182000003755,True,12,1,0,3
PB022M28,-,31,PS,adaptive,50,→,right,→,0.513652199995704,True,12,1,0,3
PB022M28,-,32,PS,adaptive,46,←,left,←,0.6276141999987885,True,11,1,0,3
PB022M28,-,33,PS,adaptive,45,↑,up,↑,0.6475682000163943,True,11,1,0,3
PB022M28,-,34,PS,adaptive,46,↓,down,↓,1.3121469000470825,True,10,1,0,3
PB022M28,-,35,PS,adaptive,33,←,left,←,0.6502146000275388,True,10,1,0,3
PB022M28,-,36,PS,adaptive,47,→,right,→,0.6039243999985047,True,9,1,0,3
PB022M28,-,37,PS,adaptive,46,↓,down,↓,0.7287993999780156,True,9,1,0,3
PB022M28,-,38,PS,adaptive,28,←,up,↑,1.0786004000110552,False,8,-1,1,4
PB022M28,-,39,AS,adaptive,35,→,down,↓,1.3394053999800235,False,20,-1,0,0
PB022M28,-,40,AS,adaptive,40,←,down,↓,1.1370106000103988,False,21,-1,0,0
PB022M28,-,41,AS,adaptive,48,↑,up,↑,1.1803431999869645,True,22,-1,0,0
PB022M28,-,42,AS,adaptive,30,→,right,→,0.8620247999788262,True,22,1,1,1
PB022M28,-,43,AS,adaptive,31,↓,right,→,1.1545104999677278,False,21,-1,1,2
PB022M28,-,44,AS,adaptive,34,→,down,↓,1.0693364000180736,False,22,-1,0,2
PB022M28,-,45,AS,adaptive,31,←,down,↓,0.6583974999957718,False,23,-1,0,2
PB022M28,-,46,AS,adaptive,50,→,left,←,1.3028325000195764,False,24,-1,0,2
PB022M28,-,47,AS,adaptive,47,↓,down,↓,0.9095477000228129,True,25,-1,0,2
PB022M28,-,48,AS,adaptive,43,←,left,←,1.2340369000448845,True,25,1,1,3
PB022M28,-,49,AS,adaptive,26,↑,up,↑,0.9210953000001609,True,24,1,0,3
PB022M28,-,50,AS,adaptive,35,←,left,←,0.900677400000859,True,24,1,0,3
PB022M28,-,51,AS,adaptive,39,↓,up,↑,1.284125700010918,False,23,-1,1,4
PB022M28,1,52,PS,intra_train,43,↑,up,↑,1.1012132000178099,True,13,-,-,-
PB022M28,1,53,PS,intra_train,44,←,left,←,0.5250078000244685,True,13,-,-,-
PB022M28,1,54,PS,intra_train,31,↓,down,↓,0.7482782999868505,True,13,-,-,-
PB022M28,1,55,PS,intra_train,30,←,left,←,0.5469044999917969,True,13,-,-,-
PB022M28,1,56,PS,intra_train,36,→,right,→,0.5723749999888241,True,13,-,-,-
PB022M28,1,57,PS,exp,35,↓,down,↓,0.8178963999962434,True,9,0,0,0
PB022M28,1,58,PS,exp,48,↑,up,↑,0.6272584999678656,True,9,1,0,0
PB022M28,1,59,PS,exp,44,←,right,→,0.618230800027959,False,8,-1,1,1
PB022M28,1,60,PS,exp,29,↓,left,←,1.0795047000283375,False,9,-1,0,1
PB022M28,1,61,PS,exp,48,←,right,→,0.6366681000217795,False,10,-1,0,1
PB022M28,1,62,PS,exp,31,→,left,←,0.6813210000400431,False,11,-1,0,1
PB022M28,1,63,PS,exp,38,←,left,←,0.7008882000227459,True,12,-1,0,1
PB022M28,1,64,PS,exp,34,→,right,→,0.5371336999814957,True,12,1,1,2
PB022M28,1,65,PS,exp,27,↓,up,↑,0.7008096000063233,False,11,-1,1,3
PB022M28,1,66,PS,exp,25,←,right,→,0.890157799993176,False,12,-1,0,3
PB022M28,1,67,PS,exp,29,↑,right,→,1.0326479999930598,False,13,-1,0,3
PB022M28,1,68,PS,exp,35,→,right,→,0.6814906000508927,True,14,-1,0,3
PB022M28,1,69,PS,exp,30,↓,right,→,0.9821463999687694,False,14,-1,0,3
PB022M28,1,70,PS,exp,39,→,right,→,0.5533660000073723,True,15,-1,0,3
PB022M28,1,71,PS,exp,36,←,left,←,0.660863499972038,True,15,1,1,4
PB022M28,1,72,PS,exp,42,↑,right,→,0.5884145000018179,False,14,-1,1,5
PB022M28,1,73,PS,exp,29,←,right,→,0.6715137999854051,False,15,-1,0,5
PB022M28,1,74,PS,exp,36,↓,right,→,0.7752990999724716,False,16,-1,0,5
PB022M28,1,75,PS,exp,44,→,right,→,0.6705287999939173,True,17,-1,0,5
PB022M28,1,76,PS,exp,41,←,right,→,0.7590905000106432,False,17,-1,0,5
PB022M28,1,77,PS,exp,37,↑,right,→,1.0221119999769144,False,18,-1,0,5
PB022M28,1,78,PS,exp,25,←,left,←,0.5776331000379287,True,19,-1,0,5
PB022M28,1,79,PS,exp,27,→,right,→,0.7515036000404507,True,19,1,1,6
PB022M28,1,80,PS,exp,34,←,left,←,0.6659337999881245,True,18,1,0,6
PB022M28,1,81,PS,exp,33,↑,up,↑,0.7210237999679521,True,18,1,0,6
PB022M28,1,82,PS,exp,40,→,right,→,0.7191201000241563,True,17,1,0,6
PB022M28,1,83,PS,exp,25,←,right,→,0.7843743999837898,False,17,-1,1,7
PB022M28,1,84,PS,exp,33,↓,down,↓,0.848931199987419,True,18,-1,0,7
PB022M28,1,85,PS,exp,48,←,left,←,0.7984887999482453,True,18,1,1,8
PB022M28,1,86,PS,exp,30,↑,up,↑,0.7089297999627888,True,17,1,0,8
PB022M28,1,87,PS,exp,38,→,right,→,0.5901070000254549,True,17,1,0,8
PB022M28,1,88,PS,exp,41,↓,down,↓,0.9433636000030674,True,16,1,0,8
PB022M28,1,89,PS,exp,26,→,right,→,0.9000136000104249,True,16,1,0,8
PB022M28,1,90,PS,exp,46,↑,up,↑,0.6696266999933869,True,15,1,0,8
PB022M28,1,91,PS,exp,40,←,left,←,0.5195766999968328,True,15,1,0,8
PB022M28,1,92,PS,exp,34,→,left,←,0.9243586999946274,False,14,-1,1,9
PB022M28,1,93,PS,exp,28,↑,up,↑,0.6238813000381924,True,15,-1,0,9
PB022M28,1,94,PS,exp,45,→,right,→,0.476555900007952,True,15,1,1,10
PB022M28,1,95,PS,exp,39,←,left,←,0.5099097999627702,True,14,1,0,10
PB022M28,1,96,PS,exp,41,↓,down,↓,0.883671100018546,True,14,1,0,10
PB022M28,1,97,PS,exp,45,→,right,→,1.1773349000141025,True,13,1,0,10
PB022M28,1,98,PS,exp,50,↓,up,↑,0.6928117999923415,False,13,-1,1,11
PB022M28,1,99,PS,exp,35,↑,up,↑,1.2426542000030167,True,14,-1,0,11
PB022M28,1,100,PS,exp,41,←,left,←,0.7346195999998599,True,14,1,1,12
PB022M28,1,101,PS,exp,46,→,right,→,1.2526060999953188,True,13,1,0,12
PB022M28,1,102,PS,exp,42,↑,up,↑,0.7400515000335872,True,13,1,0,12
PB022M28,1,103,PS,exp,49,←,left,←,0.8946455999976024,True,12,1,0,12
PB022M28,1,104,PS,exp,35,↑,left,←,1.2943003000109456,False,12,-1,1,13
PB022M28,1,105,PS,exp,44,←,right,→,0.5509184999973513,False,13,-1,0,13
PB022M28,1,106,PS,exp,38,↓,down,↓,0.6928989000152797,True,14,-1,0,13
PB022M28,1,107,PS,exp,29,→,down,↓,1.0325809000059962,False,14,-1,0,13
PB022M28,1,108,PS,exp,50,↑,up,↑,0.7135838000103831,True,15,-1,0,13
PB022M28,1,109,PS,exp,44,→,right,→,0.7720184999634512,True,15,1,1,14
PB022M28,2,110,AS,intra_train,43,↑,left,←,1.9766610999940895,False,36,-,-,-
PB022M28,2,111,AS,intra_train,36,←,left,←,0.6171103999949992,True,36,-,-,-
PB022M28,2,112,AS,intra_train,32,→,right,→,1.9701068000285886,True,36,-,-,-
PB022M28,2,113,AS,intra_train,35,↑,up,↑,0.6500478000380099,True,36,-,-,-
PB022M28,2,114,AS,intra_train,26,←,left,←,1.6735298999701627,True,36,-,-,-
PB022M28,2,115,AS,exp,45,→,right,→,0.8820512999664061,True,24,0,0,0
PB022M28,2,116,AS,exp,34,↑,up,↑,0.6359081999980845,True,24,1,0,0
PB022M28,2,117,AS,exp,34,→,right,→,1.8519261000328697,True,23,1,0,0
PB022M28,2,118,AS,exp,36,↓,down,↓,0.7708465000032447,True,23,1,0,0
PB022M28,2,119,AS,exp,29,→,right,→,0.8545787999755703,True,22,1,0,0
PB022M28,2,120,AS,exp,29,↑,right,→,1.4808869999833405,False,22,-1,1,1
PB022M28,2,121,AS,exp,41,↓,down,↓,0.6807093999814242,True,23,-1,0,1
PB022M28,2,122,AS,exp,43,→,right,→,1.2272529000183567,True,23,1,1,2
PB022M28,2,123,AS,exp,34,←,right,→,0.5878289000247605,False,22,-1,1,3
PB022M28,2,124,AS,exp,26,↑,up,↑,1.6594643999706022,True,23,-1,0,3
PB022M28,2,125,AS,exp,35,↓,down,↓,0.6335636000148952,True,23,1,1,4
PB022M28,2,126,AS,exp,25,→,right,→,1.5079226999660023,True,22,1,0,4
PB022M28,2,127,AS,exp,37,←,down,↓,1.023462999961339,False,22,-1,1,5
PB022M28,2,128,AS,exp,34,↓,down,↓,0.8678623999585398,True,23,-1,0,5
PB022M28,2,129,AS,exp,31,←,left,←,0.9305228000157513,True,23,1,1,6
PB022M28,2,130,AS,exp,27,→,right,→,0.6801201999769546,True,22,1,0,6
PB022M28,2,131,AS,exp,49,↑,left,←,1.4569682000437751,False,22,-1,1,7
PB022M28,2,132,AS,exp,39,↓,right,→,0.8784534999867901,False,23,-1,0,7
PB022M28,2,133,AS,exp,29,↑,up,↑,0.88919519999763,True,24,-1,0,7
PB022M28,2,134,AS,exp,37,→,right,→,0.6699631999945268,True,24,1,1,8
PB022M28,2,135,AS,exp,38,←,up,↑,1.2411185000091791,False,23,-1,1,9
PB022M28,2,136,AS,exp,25,↓,down,↓,0.6843135000090115,True,24,-1,0,9
PB022M28,2,137,AS,exp,31,→,right,→,0.6252534999512136,True,24,1,1,10
PB022M28,2,138,AS,exp,44,↓,down,↓,1.011818900005892,True,23,1,0,10
PB022M28,2,139,AS,exp,34,←,right,→,0.7330758000025526,False,23,-1,1,11
PB022M28,2,140,AS,exp,25,↓,down,↓,0.6981546999886632,True,24,-1,0,11
PB022M28,2,141,AS,exp,32,←,right,→,0.5801894000032917,False,24,-1,0,11
PB022M28,2,142,AS,exp,27,↓,up,↑,1.5024419000255875,False,25,-1,0,11
PB022M28,2,143,AS,exp,47,→,right,→,0.6063537999871187,True,26,-1,0,11
PB022M28,2,144,AS,exp,44,←,left,←,0.7208797999774106,True,26,1,1,12
PB022M28,2,145,AS,exp,30,↓,down,↓,0.7933411999838427,True,25,1,0,12
PB022M28,2,146,AS,exp,48,↑,up,↑,0.654974700009916,True,25,1,0,12
PB022M28,2,147,AS,exp,43,←,right,→,0.9129273999715224,False,24,-1,1,13
PB022M28,2,148,AS,exp,36,↑,up,↑,0.7746099000214599,True,25,-1,0,13
PB022M28,2,149,AS,exp,39,→,right,→,0.6553117000148632,True,25,1,1,14
PB022M28,3,150,AS,intra_train,47,←,left,←,1.3220510000246577,True,36,-,-,-
PB022M28,3,151,AS,intra_train,31,→,right,→,1.5045939999981783,True,36,-,-,-
PB022M28,3,152,AS,intra_train,45,↓,down,↓,1.1176949000218883,True,36,-,-,-
PB022M28,3,153,AS,intra_train,43,↑,up,↑,0.6172024999978021,True,36,-,-,-
PB022M28,3,154,AS,intra_train,49,→,right,→,0.6170964999473654,True,36,-,-,-
PB022M28,3,155,AS,exp,32,↓,down,↓,0.8434530000085942,True,24,0,0,0
PB022M28,3,156,AS,exp,39,→,right,→,0.6211983999819495,True,24,1,0,0
PB022M28,3,157,AS,exp,39,←,left,←,0.701902800006792,True,23,1,0,0
PB022M28,3,158,AS,exp,26,↓,down,↓,0.7742500999593176,True,23,1,0,0
PB022M28,3,159,AS,exp,26,↑,up,↑,0.5994147000019439,True,22,1,0,0
PB022M28,3,160,AS,exp,48,↓,down,↓,0.6395232999930158,True,22,1,0,0
PB022M28,3,161,AS,exp,41,→,left,←,0.902887100004591,False,21,-1,1,1
PB022M28,3,162,AS,exp,25,↓,left,←,1.1062307999818586,False,22,-1,0,1
PB022M28,3,163,AS,exp,39,→,right,→,0.7568636999931186,True,23,-1,0,1
PB022M28,3,164,AS,exp,31,↑,up,↑,0.9316152999526821,True,23,1,1,2
PB022M28,3,165,AS,exp,43,←,no_key,no_letter,-1.0,False,22,-1,1,3
PB022M28,3,166,AS,exp,48,↑,up,↑,0.6260520999785513,True,23,-1,0,3
PB022M28,3,167,AS,exp,42,→,right,→,0.6910552000044845,True,23,1,1,4
PB022M28,3,168,AS,exp,26,↑,left,←,0.7606440999661572,False,22,-1,1,5
PB022M28,3,169,AS,exp,43,↓,right,→,1.1099363999674097,False,23,-1,0,5
PB022M28,3,170,AS,exp,37,↑,up,↑,0.6664273999631405,True,24,-1,0,5
PB022M28,3,171,AS,exp,36,→,right,→,0.433657800022047,True,24,1,1,6
PB022M28,3,172,AS,exp,47,↑,right,→,0.9081106000230648,False,23,-1,1,7
PB022M28,3,173,AS,exp,36,←,left,←,0.7348216000245884,True,24,-1,0,7
PB022M28,3,174,AS,exp,36,↓,down,↓,0.8674504000227898,True,24,1,1,8
PB022M28,3,175,AS,exp,45,↑,up,↑,0.5505966999917291,True,23,1,0,8
PB022M28,3,176,AS,exp,30,←,left,←,1.7686422999831848,True,23,1,0,8
PB022M28,3,177,AS,exp,45,→,left,←,0.7824446000158787,False,22,-1,1,9
PB022M28,3,178,AS,exp,33,↑,up,↑,0.6495149999973364,True,23,-1,0,9
PB022M28,3,179,AS,exp,46,→,right,→,0.6414396000327542,True,23,1,1,10
PB022M28,3,180,AS,exp,44,←,left,←,0.743993199954275,True,22,1,0,10
PB022M28,3,181,AS,exp,29,↑,left,←,0.7564172999700531,False,22,-1,1,11
PB022M28,3,182,AS,exp,31,←,left,←,0.7317289999919012,True,23,-1,0,11
PB022M28,3,183,AS,exp,43,↓,down,↓,0.6637264000019059,True,23,1,1,12
PB022M28,3,184,AS,exp,34,↑,up,↑,0.665750999993179,True,22,1,0,12
PB022M28,3,185,AS,exp,39,←,left,←,0.48381359997438267,True,22,1,0,12
PB022M28,3,186,AS,exp,34,↑,left,←,0.547238000028301,False,21,-1,1,13
PB022M28,3,187,AS,exp,34,→,right,→,0.6856051000067964,True,22,-1,0,13
PB022M28,3,188,AS,exp,43,↓,right,→,0.7181546000065282,False,22,-1,0,13
PB022M28,3,189,AS,exp,41,→,right,→,0.6289740999927744,True,23,-1,0,13
PB022M28,3,190,AS,exp,50,↑,right,→,0.9340668999939226,False,23,-1,0,13
PB022M28,3,191,AS,exp,46,↓,down,↓,0.8791730999946594,True,24,-1,0,13
PB022M28,3,192,AS,exp,42,←,left,←,0.6109122000052594,True,24,1,1,14
PB022M28,4,193,PS,intra_train,31,↓,down,↓,1.5151935999747366,True,13,-,-,-
PB022M28,4,194,PS,intra_train,29,←,down,↓,0.6846732000121847,False,13,-,-,-
PB022M28,4,195,PS,intra_train,40,↓,down,↓,0.5944648000295274,True,13,-,-,-
PB022M28,4,196,PS,intra_train,47,→,down,↓,1.068843699991703,False,13,-,-,-
PB022M28,4,197,PS,intra_train,37,↓,down,↓,0.657018700032495,True,13,-,-,-
PB022M28,4,198,PS,exp,41,←,down,↓,0.6879029999836348,False,9,-1,0,0
PB022M28,4,199,PS,exp,44,→,right,→,0.6084004000294954,True,10,-1,0,0
PB022M28,4,200,PS,exp,50,↑,down,↓,0.8821461999905296,False,10,-1,0,0
PB022M28,4,201,PS,exp,43,→,right,→,0.8366601999732666,True,11,-1,0,0
PB022M28,4,202,PS,exp,26,↑,right,→,0.5325882999459282,False,11,-1,0,0
PB022M28,4,203,PS,exp,37,←,right,→,1.2560030999593437,False,12,-1,0,0
PB022M28,4,204,PS,exp,40,↓,right,→,1.1137653000187129,False,13,-1,0,0
PB022M28,4,205,PS,exp,34,→,right,→,0.6185165999922901,True,14,-1,0,0
PB022M28,4,206,PS,exp,27,↑,right,→,1.0657760999747552,False,14,-1,0,0
PB022M28,4,207,PS,exp,31,→,right,→,0.5139878999907523,True,15,-1,0,0
PB022M28,4,208,PS,exp,43,↓,down,↓,0.744158299989067,True,15,1,1,1
PB022M28,4,209,PS,exp,40,←,left,←,0.6118114999844693,True,14,1,0,1
PB022M28,4,210,PS,exp,50,↑,up,↑,0.6904763000202365,True,14,1,0,1
PB022M28,4,211,PS,exp,36,↓,up,↑,0.9495516999741085,False,13,-1,1,2
PB022M28,4,212,PS,exp,47,↑,up,↑,0.5575578000280075,True,14,-1,0,2
PB022M28,4,213,PS,exp,45,→,right,→,0.6203539000125602,True,14,1,1,3
PB022M28,4,214,PS,exp,45,↓,left,←,0.7015585000044666,False,13,-1,1,4
PB022M28,4,215,PS,exp,32,←,left,←,0.5929063000367023,True,14,-1,0,4
PB022M28,4,216,PS,exp,27,↑,left,←,0.718411699985154,False,14,-1,0,4
PB022M28,4,217,PS,exp,48,→,left,←,0.7071714000194333,False,15,-1,0,4
PB022M28,4,218,PS,exp,45,↑,up,↑,0.4922476999927312,True,16,-1,0,4
PB022M28,4,219,PS,exp,47,→,right,→,0.5520858999807388,True,16,1,1,5
PB022M28,4,220,PS,exp,47,←,left,←,0.5630537000251934,True,15,1,0,5
PB022M28,4,221,PS,exp,25,↓,down,↓,0.858208299963735,True,15,1,0,5
PB022M28,4,222,PS,exp,32,→,right,→,0.7129302999819629,True,14,1,0,5
PB022M28,4,223,PS,exp,41,↓,down,↓,0.6372866000165232,True,14,1,0,5
PB022M28,4,224,PS,exp,35,↑,up,↑,0.5773395999567583,True,13,1,0,5
PB022M28,4,225,PS,exp,47,↓,down,↓,0.7209092999692075,True,13,1,0,5
PB022M28,4,226,PS,exp,32,→,right,→,0.8406542000011541,True,12,1,0,5
PB022M28,4,227,PS,exp,37,←,right,→,0.5713828000007197,False,12,-1,1,6
PB022M28,4,228,PS,exp,36,↓,left,←,0.7181284999824129,False,13,-1,0,6
PB022M28,4,229,PS,exp,34,→,right,→,0.5251285000122152,True,14,-1,0,6
PB022M28,4,230,PS,exp,30,↓,down,↓,0.6163218999863602,True,14,1,1,7
PB022M28,4,231,PS,exp,26,←,down,↓,1.2216090000001714,False,13,-1,1,8
PB022M28,4,232,PS,exp,45,→,right,→,0.5500394000555389,True,14,-1,0,8
PB022M28,4,233,PS,exp,45,←,left,←,0.7388755999854766,True,14,1,1,9
PB022M28,4,234,PS,exp,38,→,right,→,0.6655962999793701,True,13,1,0,9
PB022M28,4,235,PS,exp,40,↓,down,↓,0.739187499973923,True,13,1,0,9
PB022M28,4,236,PS,exp,49,→,left,←,0.6270224000327289,False,12,-1,1,10
PB022M28,4,237,PS,exp,46,↓,down,↓,0.5660967000294477,True,13,-1,0,10
PB022M28,4,238,PS,exp,35,←,left,←,0.6389635000377893,True,13,1,1,11
PB022M28,4,239,PS,exp,39,↓,down,↓,0.6081066000042483,True,12,1,0,11
PB022M28,4,240,PS,exp,36,↑,down,↓,0.5822198999812827,False,12,-1,1,12
PB022M28,4,241,PS,exp,43,←,left,←,0.6208922999794595,True,13,-1,0,12
PB022M28,4,242,PS,exp,44,↑,up,↑,0.5705076000303961,True,13,1,1,13
PB022M28,4,243,PS,exp,25,↓,down,↓,0.6637815000140108,True,12,1,0,13
PB022M28,4,244,PS,exp,29,←,left,←,0.6014523999765515,True,12,1,0,13
PB022M28,4,245,PS,exp,37,→,right,→,0.5263106000493281,True,11,1,0,13
PB022M28,4,246,PS,exp,26,←,right,→,0.9030564000131562,False,11,-1,1,14
PB022M28,5,247,PS,intra_train,43,↓,up,↑,1.14157370000612,False,13,-,-,-
PB022M28,5,248,PS,intra_train,31,←,left,←,0.534972800000105,True,13,-,-,-
PB022M28,5,249,PS,intra_train,45,→,right,→,0.641285500023514,True,13,-,-,-
PB022M28,5,250,PS,intra_train,40,↑,up,↑,0.5714184999815188,True,13,-,-,-
PB022M28,5,251,PS,intra_train,48,→,right,→,0.6642101999605075,True,13,-,-,-
PB022M28,5,252,PS,exp,32,↑,up,↑,0.5454701000126079,True,9,0,0,0
PB022M28,5,253,PS,exp,33,→,right,→,0.809877099993173,True,9,1,0,0
PB022M28,5,254,PS,exp,33,↓,up,↑,0.9293476999737322,False,8,-1,1,1
PB022M28,5,255,PS,exp,40,↑,right,→,0.566794500045944,False,9,-1,0,1
PB022M28,5,256,PS,exp,26,→,right,→,0.9511364999925718,True,10,-1,0,1
PB022M28,5,257,PS,exp,50,↓,up,↑,0.7072278999839909,False,10,-1,0,1
PB022M28,5,258,PS,exp,40,←,right,→,0.7744053000351414,False,11,-1,0,1
PB022M28,5,259,PS,exp,29,↓,up,↑,0.7149701999733225,False,12,-1,0,1
PB022M28,5,260,PS,exp,44,←,left,←,0.6733977000112645,True,13,-1,0,1
PB022M28,5,261,PS,exp,44,→,right,→,0.6826090000104159,True,13,1,1,2
PB022M28,5,262,PS,exp,47,↓,down,↓,0.7586596999899484,True,12,1,0,2
PB022M28,5,263,PS,exp,36,→,left,←,0.8316491000005044,False,12,-1,1,3
PB022M28,5,264,PS,exp,40,↑,up,↑,0.5409468000289053,True,13,-1,0,3
PB022M28,5,265,PS,exp,31,↓,up,↑,0.9611323000281118,False,13,-1,0,3
PB022M28,5,266,PS,exp,31,→,right,→,0.40233439998701215,True,14,-1,0,3
PB022M28,5,267,PS,exp,31,←,up,↑,0.849731599970255,False,14,-1,0,3
PB022M28,5,268,PS,exp,50,↑,up,↑,0.5330420000245795,True,15,-1,0,3
PB022M28,5,269,PS,exp,44,←,left,←,0.7336459999787621,True,15,1,1,4
PB022M28,5,270,PS,exp,32,↑,up,↑,0.5835868999711238,True,14,1,0,4
PB022M28,5,271,PS,exp,49,→,right,→,0.5820075999945402,True,14,1,0,4
PB022M28,5,272,PS,exp,38,↓,right,→,0.660663700022269,False,13,-1,1,5
PB022M28,5,273,PS,exp,50,→,right,→,0.5374129000119865,True,14,-1,0,5
PB022M28,5,274,PS,exp,42,←,left,←,0.6772861999925226,True,14,1,1,6
PB022M28,5,275,PS,exp,35,↑,up,↑,0.6122768999775872,True,13,1,0,6
PB022M28,5,276,PS,exp,39,↓,right,→,0.4471814000280574,False,13,-1,1,7
PB022M28,5,277,PS,exp,41,←,right,→,0.5839624000363983,False,14,-1,0,7
PB022M28,5,278,PS,exp,33,→,right,→,0.5765814999467693,True,15,-1,0,7
PB022M28,5,279,PS,exp,39,↓,up,↑,0.7690458000288345,False,15,-1,0,7
PB022M28,5,280,PS,exp,50,←,left,←,0.7288742000237107,True,16,-1,0,7
PB022M28,5,281,PS,exp,28,↑,up,↑,0.5355884000309743,True,16,1,1,8
PB022M28,5,282,PS,exp,30,←,left,←,0.8172340000164695,True,15,1,0,8
PB022M28,5,283,PS,exp,43,↓,left,←,0.690415800025221,False,15,-1,1,9
PB022M28,5,284,PS,exp,38,←,left,←,0.522899099974893,True,16,-1,0,9
PB022M28,5,285,PS,exp,43,↓,down,↓,0.5614061999949627,True,16,1,1,10
PB022M28,5,286,PS,exp,33,↑,up,↑,0.5971997000160627,True,15,1,0,10
PB022M28,5,287,PS,exp,42,→,right,→,0.4635810000472702,True,15,1,0,10
PB022M28,5,288,PS,exp,49,↑,right,→,0.8661907999776304,False,14,-1,1,11
PB022M28,5,289,PS,exp,25,↓,left,←,0.6720887999981642,False,15,-1,0,11
PB022M28,5,290,PS,exp,25,→,right,→,0.6353840000228956,True,16,-1,0,11
PB022M28,5,291,PS,exp,47,↑,up,↑,0.6599180999910459,True,16,1,1,12
PB022M28,5,292,PS,exp,40,→,right,→,0.43636990000959486,True,15,1,0,12
PB022M28,5,293,PS,exp,36,←,left,←,1.7254205999779515,True,15,1,0,12
PB022M28,5,294,PS,exp,46,→,left,←,0.8337853999692015,False,14,-1,1,13
PB022M28,5,295,PS,exp,27,←,left,←,0.5860416000359692,True,15,-1,0,13
PB022M28,5,296,PS,exp,33,→,left,←,0.7995010000304319,False,15,-1,0,13
PB022M28,5,297,PS,exp,28,←,left,←,0.8151493000332266,True,16,-1,0,13
PB022M28,5,298,PS,exp,39,↑,up,↑,0.6638686999795027,True,16,1,1,14
PB022M28,6,299,AS,intra_train,36,↓,down,↓,1.1866980000049807,True,36,-,-,-
PB022M28,6,300,AS,intra_train,37,←,left,←,1.0358655999880284,True,36,-,-,-
PB022M28,6,301,AS,intra_train,36,↑,left,←,0.351260999974329,False,36,-,-,-
PB022M28,6,302,AS,intra_train,41,←,left,←,0.8717163000255823,True,36,-,-,-
PB022M28,6,303,AS,intra_train,35,↓,down,↓,0.9666343000135385,True,36,-,-,-
PB022M28,6,304,AS,exp,46,↑,up,↑,0.5170409000129439,True,24,0,0,0
PB022M28,6,305,AS,exp,45,→,right,→,0.6038589999661781,True,24,1,0,0
PB022M28,6,306,AS,exp,34,↑,up,↑,0.7439479000167921,True,23,1,0,0
PB022M28,6,307,AS,exp,33,←,right,→,1.0520419999957085,False,23,-1,1,1
PB022M28,6,308,AS,exp,44,→,right,→,0.6893102000467479,True,24,-1,0,1
PB022M28,6,309,AS,exp,38,←,right,→,0.6226520999916829,False,24,-1,0,1
PB022M28,6,310,AS,exp,49,↑,right,→,1.0405562999658287,False,25,-1,0,1
PB022M28,6,311,AS,exp,31,←,left,←,0.8366118000121787,True,26,-1,0,1
PB022M28,6,312,AS,exp,43,↑,up,↑,0.8248889000387862,True,26,1,1,2
PB022M28,6,313,AS,exp,42,↓,down,↓,0.7776808000053279,True,25,1,0,2
PB022M28,6,314,AS,exp,41,→,right,→,0.5502591999829747,True,25,1,0,2
PB022M28,6,315,AS,exp,33,↑,up,↑,0.6442559999995865,True,24,1,0,2
PB022M28,6,316,AS,exp,46,↓,down,↓,0.6906363999587484,True,24,1,0,2
PB022M28,6,317,AS,exp,25,→,right,→,0.4505278999567963,True,23,1,0,2
PB022M28,6,318,AS,exp,39,←,right,→,0.4502277999999933,False,23,-1,1,3
PB022M28,6,319,AS,exp,30,↓,down,↓,0.5830292000318877,True,24,-1,0,3
PB022M28,6,320,AS,exp,49,←,left,←,0.433887799968943,True,24,1,1,4
PB022M28,6,321,AS,exp,34,↑,up,↑,0.6882584000122733,True,23,1,0,4
PB022M28,6,322,AS,exp,25,↓,down,↓,0.6891961000510491,True,23,1,0,4
PB022M28,6,323,AS,exp,44,→,right,→,0.4668989999918267,True,22,1,0,4
PB022M28,6,324,AS,exp,28,↑,right,→,1.0551830000476912,False,22,-1,1,5
PB022M28,6,325,AS,exp,25,→,right,→,0.5721754999831319,True,23,-1,0,5
PB022M28,6,326,AS,exp,45,←,left,←,1.7368528000079095,True,23,1,1,6
PB022M28,6,327,AS,exp,41,↓,up,↑,0.8300029000383802,False,22,-1,1,7
PB022M28,6,328,AS,exp,40,↑,up,↑,1.4079925999976695,True,23,-1,0,7
PB022M28,6,329,AS,exp,36,←,left,←,0.5900667999521829,True,23,1,1,8
PB022M28,6,330,AS,exp,37,↓,up,↑,0.95406489999732,False,22,-1,1,9
PB022M28,6,331,AS,exp,40,↑,right,→,1.4452905000071041,False,23,-1,0,9
PB022M28,6,332,AS,exp,42,←,left,←,0.6886142000439577,True,24,-1,0,9
PB022M28,6,333,AS,exp,46,→,right,→,0.4837538999854587,True,24,1,1,10
PB022M28,6,334,AS,exp,25,↑,up,↑,1.2873636999865994,True,23,1,0,10
PB022M28,6,335,AS,exp,48,↓,up,↑,0.8649744999711402,False,23,-1,1,11
PB022M28,6,336,AS,exp,39,↑,up,↑,0.7988583000260405,True,24,-1,0,11
PB022M28,6,337,AS,exp,26,←,right,→,0.5170800999621861,False,24,-1,0,11
PB022M28,6,338,AS,exp,28,↑,up,↑,1.2720459999982268,True,25,-1,0,11
PB022M28,6,339,AS,exp,30,→,right,→,1.1141195999807678,True,25,1,1,12
PB022M28,6,340,AS,exp,33,←,left,←,0.5004100000369363,True,24,1,0,12
PB022M28,6,341,AS,exp,29,→,right,→,0.6608133999980055,True,24,1,0,12
PB022M28,6,342,AS,exp,43,↓,right,→,0.9162442999659106,False,23,-1,1,13
PB022M28,6,343,AS,exp,28,↑,up,↑,0.4506004000431858,True,24,-1,0,13
PB022M28,6,344,AS,exp,44,→,right,→,0.8883289999794215,True,24,1,1,14
PB022M28,7,345,AS,intra_train,39,←,left,←,1.895846100000199,True,36,-,-,-
PB022M28,7,346,AS,intra_train,44,→,right,→,0.6337009000126272,True,36,-,-,-
PB022M28,7,347,AS,intra_train,29,↑,up,↑,0.5678603000123985,True,36,-,-,-
PB022M28,7,348,AS,intra_train,38,↓,down,↓,0.6503505000146106,True,36,-,-,-
PB022M28,7,349,AS,intra_train,39,→,right,→,0.5345348000410013,True,36,-,-,-
PB022M28,7,350,AS,exp,28,←,left,←,0.5169166999985464,True,24,0,0,0
PB022M28,7,351,AS,exp,25,→,right,→,1.1890329000307247,True,24,1,0,0
PB022M28,7,352,AS,exp,50,←,right,→,0.6564475999912247,False,23,-1,1,1
PB022M28,7,353,AS,exp,41,→,right,→,0.5808161000022665,True,24,-1,0,1
PB022M28,7,354,AS,exp,43,←,left,←,0.5337541999761015,True,24,1,1,2
PB022M28,7,355,AS,exp,48,↓,down,↓,0.7038354000542313,True,23,1,0,2
PB022M28,7,356,AS,exp,34,→,left,←,0.6198680000379682,False,23,-1,1,3
PB022M28,7,357,AS,exp,33,↑,up,↑,1.031086100032553,True,24,-1,0,3
PB022M28,7,358,AS,exp,49,→,right,→,0.691396199981682,True,24,1,1,4
PB022M28,7,359,AS,exp,44,←,right,→,0.7488299999968149,False,23,-1,1,5
PB022M28,7,360,AS,exp,30,↓,down,↓,0.7986657999572344,True,24,-1,0,5
PB022M28,7,361,AS,exp,31,→,up,↑,1.3296964999753982,False,24,-1,0,5
PB022M28,7,362,AS,exp,32,←,right,→,0.3848876999691129,False,25,-1,0,5
PB022M28,7,363,AS,exp,50,↓,down,↓,0.6348151999991387,True,26,-1,0,5
PB022M28,7,364,AS,exp,48,↑,up,↑,0.8669681000174023,True,26,1,1,6
PB022M28,7,365,AS,exp,32,←,left,←,0.5897656999877654,True,25,1,0,6
PB022M28,7,366,AS,exp,37,→,right,→,0.550314599997364,True,25,1,0,6
PB022M28,7,367,AS,exp,31,↓,up,↑,0.7581655000103638,False,24,-1,1,7
PB022M28,7,368,AS,exp,45,↑,up,↑,0.5171692000003532,True,25,-1,0,7
PB022M28,7,369,AS,exp,32,↓,down,↓,0.8038193000247702,True,25,1,1,8
PB022M28,7,370,AS,exp,26,↑,right,→,1.387469900015276,False,24,-1,1,9
PB022M28,7,371,AS,exp,41,→,right,→,0.6393349000136368,True,25,-1,0,9
PB022M28,7,372,AS,exp,41,←,left,←,0.5990163999958895,True,25,1,1,10
PB022M28,7,373,AS,exp,35,↓,right,→,1.1688595000305213,False,24,-1,1,11
PB022M28,7,374,AS,exp,44,↑,up,↑,1.0279571000137366,True,25,-1,0,11
PB022M28,7,375,AS,exp,49,↓,down,↓,0.7640943999867886,True,25,1,1,12
PB022M28,7,376,AS,exp,44,→,right,→,0.5337854999816045,True,24,1,0,12
PB022M28,7,377,AS,exp,46,↑,right,→,0.972029399999883,False,24,-1,1,13
PB022M28,7,378,AS,exp,42,↓,up,↑,0.6703129999805242,False,25,-1,0,13
PB022M28,7,379,AS,exp,32,←,right,→,0.5338051000144333,False,26,-1,0,13
PB022M28,7,380,AS,exp,42,↓,down,↓,0.8512101999949664,True,27,-1,0,13
PB022M28,7,381,AS,exp,48,↑,up,↑,0.6970327000017278,True,27,1,1,14
PB022M28,8,382,PS,intra_train,32,↓,up,↑,1.4580329000018537,False,13,-,-,-
PB022M28,8,383,PS,intra_train,45,←,left,←,0.5958130999933928,True,13,-,-,-
PB022M28,8,384,PS,intra_train,26,→,right,→,0.5530685000121593,True,13,-,-,-
PB022M28,8,385,PS,intra_train,33,↑,up,↑,0.5167051999596879,True,13,-,-,-
PB022M28,8,386,PS,intra_train,38,→,up,↑,0.8152967999922112,False,13,-,-,-
PB022M28,8,387,PS,exp,27,↓,down,↓,0.6174447999801487,True,9,0,0,0
PB022M28,8,388,PS,exp,39,→,right,→,0.7028453999664634,True,9,1,0,0
PB022M28,8,389,PS,exp,49,↑,up,↑,1.393437700055074,True,8,1,0,0
PB022M28,8,390,PS,exp,35,→,right,→,0.6239012000150979,True,8,1,0,0
PB022M28,8,391,PS,exp,47,↑,right,→,0.6954483999870718,False,7,-1,1,1
PB022M28,8,392,PS,exp,36,↓,right,→,0.5972165000275709,False,8,-1,0,1
PB022M28,8,393,PS,exp,43,←,up,↑,0.9891422999789938,False,9,-1,0,1
PB022M28,8,394,PS,exp,41,→,right,→,0.6399120999849401,True,10,-1,0,1
PB022M28,8,395,PS,exp,42,↑,right,→,0.6641956999665126,False,10,-1,0,1
PB022M28,8,396,PS,exp,26,→,right,→,0.5047630000044592,True,11,-1,0,1
PB022M28,8,397,PS,exp,50,↓,right,→,1.0932674000505358,False,11,-1,0,1
PB022M28,8,398,PS,exp,42,←,right,→,0.6639892000239342,False,12,-1,0,1
PB022M28,8,399,PS,exp,46,↑,right,→,0.9585026999702677,False,13,-1,0,1
PB022M28,8,400,PS,exp,45,←,left,←,0.6519700000062585,True,14,-1,0,1
PB022M28,8,401,PS,exp,43,↓,down,↓,0.736592200002633,True,14,1,1,2
PB022M28,8,402,PS,exp,37,←,left,←,0.6033110999851488,True,13,1,0,2
PB022M28,8,403,PS,exp,41,→,right,→,0.7088121000560932,True,13,1,0,2
PB022M28,8,404,PS,exp,31,↑,up,↑,0.6003175000078045,True,12,1,0,2
PB022M28,8,405,PS,exp,25,↓,right,→,0.8697072999784723,False,12,-1,1,3
PB022M28,8,406,PS,exp,32,→,right,→,0.44425920001231134,True,13,-1,0,3
PB022M28,8,407,PS,exp,27,↑,up,↑,0.6511390999658033,True,13,1,1,4
PB022M28,8,408,PS,exp,32,←,right,→,0.4321966999559663,False,12,-1,1,5
PB022M28,8,409,PS,exp,35,→,right,→,0.6018765999469906,True,13,-1,0,5
PB022M28,8,410,PS,exp,33,↑,up,↑,0.5857004999998026,True,13,1,1,6
PB022M28,8,411,PS,exp,28,→,right,→,0.39598829997703433,True,12,1,0,6
PB022M28,8,412,PS,exp,25,←,left,←,0.5231069999863394,True,12,1,0,6
PB022M28,8,413,PS,exp,34,↓,right,→,0.6502680999692529,False,11,-1,1,7
PB022M28,8,414,PS,exp,44,←,right,→,0.5700846000108868,False,12,-1,0,7
PB022M28,8,415,PS,exp,49,↓,left,←,0.6400683000101708,False,13,-1,0,7
PB022M28,8,416,PS,exp,26,←,right,→,0.4469198000151664,False,14,-1,0,7
PB022M28,8,417,PS,exp,44,↓,down,↓,0.6114781000069343,True,15,-1,0,7
PB022M28,8,418,PS,exp,38,←,left,←,0.5238883999991231,True,15,1,1,8
PB022M28,8,419,PS,exp,33,→,right,→,0.48376810003537685,True,14,1,0,8
PB022M28,8,420,PS,exp,37,←,right,→,0.5056055999593809,False,14,-1,1,9
PB022M28,8,421,PS,exp,47,↓,down,↓,0.6241246000281535,True,15,-1,0,9
PB022M28,8,422,PS,exp,41,←,left,←,0.8152462999569252,True,15,1,1,10
PB022M28,8,423,PS,exp,33,→,right,→,0.5518503999919631,True,14,1,0,10
PB022M28,8,424,PS,exp,35,↑,up,↑,0.622673100035172,True,14,1,0,10
PB022M28,8,425,PS,exp,34,↓,down,↓,0.7849554999847896,True,13,1,0,10
PB022M28,8,426,PS,exp,28,←,right,→,1.3537914999760687,False,13,-1,1,11
PB022M28,8,427,PS,exp,36,→,down,↓,0.8276699000271037,False,14,-1,0,11
PB022M28,8,428,PS,exp,28,↓,down,↓,0.6084337999927811,True,15,-1,0,11
PB022M28,8,429,PS,exp,40,→,right,→,0.4873908999725245,True,15,1,1,12
PB022M28,8,430,PS,exp,45,↓,down,↓,0.5962780999834649,True,14,1,0,12
PB022M28,8,431,PS,exp,49,↑,up,↑,0.6445252999546938,True,14,1,0,12
PB022M28,8,432,PS,exp,36,→,right,→,0.6925133999902755,True,13,1,0,12
PB022M28,8,433,PS,exp,32,↑,up,↑,0.604079200013075,True,13,1,0,12
PB022M28,8,434,PS,exp,27,↓,right,→,0.8654274999862537,False,12,-1,1,13
PB022M28,8,435,PS,exp,41,↑,up,↑,0.5147313000052236,True,13,-1,0,13
PB022M28,8,436,PS,exp,28,→,right,→,0.4423065999872051,True,13,1,1,14
