PART_ID,Block_no,Trial_no,Block_type,Trial_type,CSI,Stim_letter,Key_pressed,letter_choose,Rt,Corr,Stimulus Time,Level,Reversal,Revs_count
PB027M22,1,1,PS,train,31,↑,up,↑,1.416223300038837,True,30,-,-,-
PB027M22,1,2,PS,train,47,↓,down,↓,0.9435768999974243,True,30,-,-,-
PB027M22,1,3,PS,train,42,→,right,→,0.9551253999816254,True,30,-,-,-
PB027M22,1,4,PS,train,35,←,left,←,1.2296415999880992,True,30,-,-,-
PB027M22,1,5,PS,train,36,↓,down,↓,0.8242066000238992,True,30,-,-,-
PB027M22,1,6,PS,train,46,←,left,←,0.8505756999948062,True,30,-,-,-
PB027M22,1,7,PS,train,49,→,right,→,0.7708239000057802,True,30,-,-,-
PB027M22,1,8,PS,train,47,↓,down,↓,0.9040157999843359,True,30,-,-,-
PB027M22,1,9,PS,train,34,←,left,←,0.7392784000257961,True,30,-,-,-
PB027M22,1,10,PS,train,38,↓,down,↓,0.9423794000176713,True,30,-,-,-
PB027M22,2,11,AS,train,35,→,right,→,0.9475993000087328,True,45,-,-,-
PB027M22,2,12,AS,train,38,←,left,←,0.8838069000048563,True,45,-,-,-
PB027M22,2,13,AS,train,40,→,right,→,0.7338011999963783,True,45,-,-,-
PB027M22,2,14,AS,train,25,↑,up,↑,0.7504792000399902,True,45,-,-,-
PB027M22,2,15,AS,train,32,↓,down,↓,0.8005661999923177,True,45,-,-,-
PB027M22,2,16,AS,train,41,→,right,→,0.6678626000066288,True,45,-,-,-
PB027M22,2,17,AS,train,41,←,left,←,0.7337246999959461,True,45,-,-,-
PB027M22,2,18,AS,train,28,↓,down,↓,0.8004807999823242,True,45,-,-,-
PB027M22,2,19,AS,train,30,←,left,←,0.733840600005351,True,45,-,-,-
PB027M22,2,20,AS,train,30,→,right,→,0.8171879000146873,True,45,-,-,-
PB027M22,-,21,PS,adaptive,47,↓,up,↑,1.6391714999917895,False,10,-1,0,0
PB027M22,-,22,PS,adaptive,50,↑,up,↑,0.5943822000408545,True,11,-1,0,0
PB027M22,-,23,PS,adaptive,28,←,left,←,0.5794212000328116,True,11,1,1,1
PB027M22,-,24,PS,adaptive,41,↓,down,↓,0.6775801999610849,True,10,1,0,1
PB027M22,-,25,PS,adaptive,39,→,up,↑,1.016422800021246,False,10,-1,1,2
PB027M22,-,26,PS,adaptive,45,←,left,←,0.7772455000085756,True,11,-1,0,2
PB027M22,-,27,PS,adaptive,25,→,right,→,0.626494999974966,True,11,1,1,3
PB027M22,-,28,PS,adaptive,43,↑,left,←,1.038693999988027,False,10,-1,1,4
PB027M22,-,29,AS,adaptive,43,↓,down,↓,0.6016855000052601,True,20,0,0,0
PB027M22,-,30,AS,adaptive,35,←,left,←,0.6354752000188455,True,20,1,0,0
PB027M22,-,31,AS,adaptive,43,↓,down,↓,0.5458236000267789,True,19,1,0,0
PB027M22,-,32,AS,adaptive,39,↑,up,↑,0.6347711999551393,True,19,1,0,0
PB027M22,-,33,AS,adaptive,35,←,left,←,0.6609135000035167,True,18,1,0,0
PB027M22,-,34,AS,adaptive,35,↑,up,↑,0.5526127999764867,True,18,1,0,0
PB027M22,-,35,AS,adaptive,45,←,left,←,0.6456099000060931,True,17,1,0,0
PB027M22,-,36,AS,adaptive,44,↓,down,↓,0.5682002000394277,True,17,1,0,0
PB027M22,-,37,AS,adaptive,38,→,right,→,0.7319766000146046,True,16,1,0,0
PB027M22,-,38,AS,adaptive,41,↑,up,↑,0.6924271000316367,True,16,1,0,0
PB027M22,-,39,AS,adaptive,40,←,left,←,0.6494015000062063,True,15,1,0,0
PB027M22,-,40,AS,adaptive,31,↓,down,↓,0.7197451000101864,True,15,1,0,0
PB027M22,-,41,AS,adaptive,50,←,left,←,0.6710980000207201,True,14,1,0,0
PB027M22,-,42,AS,adaptive,33,↑,up,↑,0.6399221000028774,True,14,1,0,0
PB027M22,-,43,AS,adaptive,47,→,right,→,0.6631997000076808,True,13,1,0,0
PB027M22,-,44,AS,adaptive,46,←,left,←,0.6166714999708347,True,13,1,0,0
PB027M22,-,45,AS,adaptive,31,→,right,→,0.6145951999933459,True,12,1,0,0
PB027M22,-,46,AS,adaptive,41,↓,down,↓,0.6043016000185162,True,12,1,0,0
PB027M22,-,47,AS,adaptive,45,↑,up,↑,1.0076589999953285,True,11,1,0,0
PB027M22,-,48,AS,adaptive,37,←,left,←,0.5555048999958672,True,11,1,0,0
PB027M22,-,49,AS,adaptive,42,→,right,→,0.7247626999742351,True,10,1,0,0
PB027M22,-,50,AS,adaptive,44,↓,up,↑,0.7874582000076771,False,10,-1,1,1
PB027M22,-,51,AS,adaptive,45,↑,down,↓,0.8130038999952376,False,11,-1,0,1
PB027M22,-,52,AS,adaptive,27,↓,down,↓,0.6658592000021599,True,12,-1,0,1
PB027M22,-,53,AS,adaptive,30,→,right,→,0.6661682999692857,True,12,1,1,2
PB027M22,-,54,AS,adaptive,39,←,left,←,0.9118854000116698,True,11,1,0,2
PB027M22,-,55,AS,adaptive,26,↓,down,↓,0.6855521000106819,True,11,1,0,2
PB027M22,-,56,AS,adaptive,40,←,left,←,0.5755919000366703,True,10,1,0,2
PB027M22,-,57,AS,adaptive,48,↑,up,↑,0.6099104000022635,True,10,1,0,2
PB027M22,-,58,AS,adaptive,41,←,left,←,0.5190025999909267,True,9,1,0,2
PB027M22,-,59,AS,adaptive,36,→,left,←,0.590434399957303,False,9,-1,1,3
PB027M22,-,60,AS,adaptive,43,←,right,→,0.6060903000179678,False,10,-1,0,3
PB027M22,-,61,AS,adaptive,45,→,right,→,0.8064267999725416,True,11,-1,0,3
PB027M22,-,62,AS,adaptive,45,↑,up,↑,0.6505704000010155,True,11,1,1,4
PB027M22,1,63,AS,intra_train,28,↓,down,↓,0.662249899993185,True,15,-,-,-
PB027M22,1,64,AS,intra_train,28,→,right,→,0.6828890000469983,True,15,-,-,-
PB027M22,1,65,AS,intra_train,48,↑,up,↑,0.6097646999987774,True,15,-,-,-
PB027M22,1,66,AS,intra_train,47,←,left,←,0.7087607000139542,True,15,-,-,-
PB027M22,1,67,AS,intra_train,44,→,left,←,0.7290418000193313,False,15,-,-,-
PB027M22,1,68,AS,exp,44,↑,left,←,0.7007167999981903,False,10,-1,0,0
PB027M22,1,69,AS,exp,38,↓,up,↑,0.7875726000056602,False,11,-1,0,0
PB027M22,1,70,AS,exp,29,←,left,←,0.38290430000051856,True,12,-1,0,0
PB027M22,1,71,AS,exp,25,→,left,←,0.6965495999902487,False,12,-1,0,0
PB027M22,1,72,AS,exp,25,←,left,←,0.6968860999913886,True,13,-1,0,0
PB027M22,1,73,AS,exp,44,↑,up,↑,0.6051970000262372,True,13,1,1,1
PB027M22,1,74,AS,exp,36,↓,down,↓,0.5675820999895222,True,12,1,0,1
PB027M22,1,75,AS,exp,41,→,right,→,0.5471526999608614,True,12,1,0,1
PB027M22,1,76,AS,exp,48,↑,up,↑,0.5136270999792032,True,11,1,0,1
PB027M22,1,77,AS,exp,48,↓,down,↓,0.6287632999592461,True,11,1,0,1
PB027M22,1,78,AS,exp,28,→,right,→,0.9752490000100806,True,10,1,0,1
PB027M22,1,79,AS,exp,35,←,left,←,0.730353599996306,True,10,1,0,1
PB027M22,1,80,AS,exp,40,→,up,↑,0.8321189000271261,False,9,-1,1,2
PB027M22,1,81,AS,exp,40,↑,up,↑,0.5901315999799408,True,10,-1,0,2
PB027M22,1,82,AS,exp,46,↓,down,↓,0.6084838000242598,True,10,1,1,3
PB027M22,1,83,AS,exp,25,↑,up,↑,0.5676848000148311,True,9,1,0,3
PB027M22,1,84,AS,exp,29,↓,left,←,1.2691718999994919,False,9,-1,1,4
PB027M22,1,85,AS,exp,26,→,left,←,0.5687997000059113,False,10,-1,0,4
PB027M22,1,86,AS,exp,44,←,left,←,0.6395787000074051,True,11,-1,0,4
PB027M22,1,87,AS,exp,48,↑,up,↑,0.6891137000056915,True,11,1,1,5
PB027M22,1,88,AS,exp,42,←,left,←,0.5669904000242241,True,10,1,0,5
PB027M22,1,89,AS,exp,37,↑,up,↑,0.479463699972257,True,10,1,0,5
PB027M22,1,90,AS,exp,43,←,left,←,0.6378902000142261,True,9,1,0,5
PB027M22,1,91,AS,exp,48,↑,up,↑,0.5691322999773547,True,9,1,0,5
PB027M22,1,92,AS,exp,50,↓,down,↓,0.5880440999753773,True,8,1,0,5
PB027M22,1,93,AS,exp,49,←,left,←,0.6807038999977522,True,8,1,0,5
PB027M22,1,94,AS,exp,25,↓,left,←,0.8379914000397548,False,7,-1,1,6
PB027M22,1,95,AS,exp,31,→,left,←,0.974754800030496,False,8,-1,0,6
PB027M22,1,96,AS,exp,41,↑,down,↓,1.2402384000015445,False,9,-1,0,6
PB027M22,1,97,AS,exp,40,←,left,←,0.6422264999710023,True,10,-1,0,6
PB027M22,1,98,AS,exp,33,→,left,←,0.5513734000269324,False,10,-1,0,6
PB027M22,1,99,AS,exp,32,↓,down,↓,0.6219639999908395,True,11,-1,0,6
PB027M22,1,100,AS,exp,25,↑,up,↑,0.4477809999953024,True,11,1,1,7
PB027M22,1,101,AS,exp,45,←,left,←,0.6206439000088722,True,10,1,0,7
PB027M22,1,102,AS,exp,49,↓,up,↑,0.6868042999994941,False,10,-1,1,8
PB027M22,1,103,AS,exp,48,→,right,→,0.725587299966719,True,11,-1,0,8
PB027M22,1,104,AS,exp,37,←,left,←,0.6529049999662675,True,11,1,1,9
PB027M22,1,105,AS,exp,35,→,left,←,0.7794584999792278,False,10,-1,1,10
PB027M22,1,106,AS,exp,46,↑,up,↑,0.6670808999915607,True,11,-1,0,10
PB027M22,1,107,AS,exp,39,↓,down,↓,0.823611699976027,True,11,1,1,11
PB027M22,1,108,AS,exp,39,↑,up,↑,0.467245300009381,True,10,1,0,11
PB027M22,1,109,AS,exp,40,→,up,↑,0.706420700007584,False,10,-1,1,12
PB027M22,1,110,AS,exp,42,↑,up,↑,0.46969140000874177,True,11,-1,0,12
PB027M22,1,111,AS,exp,47,→,right,→,0.7056928999954835,True,11,1,1,13
PB027M22,1,112,AS,exp,37,↑,up,↑,0.5301856000442058,True,10,1,0,13
PB027M22,1,113,AS,exp,33,↓,down,↓,0.4539892000029795,True,10,1,0,13
PB027M22,1,114,AS,exp,47,→,right,→,0.9986926999990828,True,9,1,0,13
PB027M22,1,115,AS,exp,38,↑,up,↑,0.5387322999886237,True,9,1,0,13
PB027M22,1,116,AS,exp,43,↓,up,↑,1.0924416000489146,False,8,-1,1,14
PB027M22,2,117,PS,intra_train,38,↑,up,↑,0.5898050999967381,True,16,-,-,-
PB027M22,2,118,PS,intra_train,25,↓,down,↓,0.7608408000087366,True,16,-,-,-
PB027M22,2,119,PS,intra_train,27,←,left,←,0.6087568000075407,True,16,-,-,-
PB027M22,2,120,PS,intra_train,38,↑,up,↑,0.4004974999697879,True,16,-,-,-
PB027M22,2,121,PS,intra_train,37,→,right,→,0.6097829000209458,True,16,-,-,-
PB027M22,2,122,PS,exp,43,←,right,→,0.663939299993217,False,11,-1,0,0
PB027M22,2,123,PS,exp,42,→,right,→,0.5331484000198543,True,12,-1,0,0
PB027M22,2,124,PS,exp,47,↑,up,↑,0.523837199958507,True,12,1,1,1
PB027M22,2,125,PS,exp,29,←,left,←,0.579270499991253,True,11,1,0,1
PB027M22,2,126,PS,exp,30,↓,down,↓,0.6290582999936305,True,11,1,0,1
PB027M22,2,127,PS,exp,47,→,right,→,0.518121599976439,True,10,1,0,1
PB027M22,2,128,PS,exp,46,↓,right,→,0.6855167999747209,False,10,-1,1,2
PB027M22,2,129,PS,exp,29,↑,right,→,0.9125402000499889,False,11,-1,0,2
PB027M22,2,130,PS,exp,30,↓,down,↓,0.49386009998852387,True,12,-1,0,2
PB027M22,2,131,PS,exp,50,←,left,←,0.5652768000145443,True,12,1,1,3
PB027M22,2,132,PS,exp,30,↓,down,↓,0.609043299977202,True,11,1,0,3
PB027M22,2,133,PS,exp,26,↑,up,↑,0.5928363000275567,True,11,1,0,3
PB027M22,2,134,PS,exp,37,←,left,←,0.5776454999577254,True,10,1,0,3
PB027M22,2,135,PS,exp,38,↓,down,↓,0.5974461000296287,True,10,1,0,3
PB027M22,2,136,PS,exp,36,→,right,→,0.7340617000008933,True,9,1,0,3
PB027M22,2,137,PS,exp,28,↓,down,↓,0.5402874000137672,True,9,1,0,3
PB027M22,2,138,PS,exp,43,↑,up,↑,0.47003890003543347,True,8,1,0,3
PB027M22,2,139,PS,exp,31,←,right,→,0.43249390000710264,False,8,-1,1,4
PB027M22,2,140,PS,exp,46,↑,up,↑,0.4631972000352107,True,9,-1,0,4
PB027M22,2,141,PS,exp,28,→,right,→,0.43720759998541325,True,9,1,1,5
PB027M22,2,142,PS,exp,30,←,right,→,0.5435825000167824,False,8,-1,1,6
PB027M22,2,143,PS,exp,41,↑,up,↑,0.5395329000311904,True,9,-1,0,6
PB027M22,2,144,PS,exp,35,↓,down,↓,0.6326927999616601,True,9,1,1,7
PB027M22,2,145,PS,exp,40,↑,left,←,1.0202636999893002,False,8,-1,1,8
PB027M22,2,146,PS,exp,43,←,left,←,0.5538368999841623,True,9,-1,0,8
PB027M22,2,147,PS,exp,47,→,right,→,0.5577354999841191,True,9,1,1,9
PB027M22,2,148,PS,exp,29,↓,down,↓,0.6184931000461802,True,8,1,0,9
PB027M22,2,149,PS,exp,41,→,right,→,0.5427614999935031,True,8,1,0,9
PB027M22,2,150,PS,exp,43,↓,right,→,0.680781000002753,False,7,-1,1,10
PB027M22,2,151,PS,exp,49,→,right,→,0.5561673999764025,True,8,-1,0,10
PB027M22,2,152,PS,exp,44,↑,right,→,0.7661646000342444,False,8,-1,0,10
PB027M22,2,153,PS,exp,42,→,right,→,0.48116169997956604,True,9,-1,0,10
PB027M22,2,154,PS,exp,30,↓,down,↓,0.5385069000185467,True,9,1,1,11
PB027M22,2,155,PS,exp,41,↑,down,↓,1.3198261999641545,False,8,-1,1,12
PB027M22,2,156,PS,exp,45,←,left,←,0.7883189999847673,True,9,-1,0,12
PB027M22,2,157,PS,exp,36,↑,up,↑,0.5145321000018157,True,9,1,1,13
PB027M22,2,158,PS,exp,33,←,right,→,0.4878982999944128,False,8,-1,1,14
PB027M22,3,159,PS,intra_train,29,↓,down,↓,0.58993219997501,True,16,-,-,-
PB027M22,3,160,PS,intra_train,34,←,left,←,0.5526294999872334,True,16,-,-,-
PB027M22,3,161,PS,intra_train,29,↓,down,↓,0.45781589997932315,True,16,-,-,-
PB027M22,3,162,PS,intra_train,37,←,left,←,0.5528175000217743,True,16,-,-,-
PB027M22,3,163,PS,intra_train,30,→,right,→,0.526966999983415,True,16,-,-,-
PB027M22,3,164,PS,exp,38,↓,down,↓,0.5035750999813899,True,11,0,0,0
PB027M22,3,165,PS,exp,42,↑,up,↑,0.6689662000280805,True,11,1,0,0
PB027M22,3,166,PS,exp,44,→,right,→,0.48458190000383183,True,10,1,0,0
PB027M22,3,167,PS,exp,47,↓,down,↓,0.5347561999806203,True,10,1,0,0
PB027M22,3,168,PS,exp,27,→,right,→,0.5730953000020236,True,9,1,0,0
PB027M22,3,169,PS,exp,42,↓,right,→,0.8549218000262044,False,9,-1,1,1
PB027M22,3,170,PS,exp,37,←,left,←,0.6113170000026003,True,10,-1,0,1
PB027M22,3,171,PS,exp,38,↑,up,↑,0.48386189999291673,True,10,1,1,2
PB027M22,3,172,PS,exp,49,↓,down,↓,0.6507235000026412,True,9,1,0,2
PB027M22,3,173,PS,exp,46,→,right,→,0.43880070000886917,True,9,1,0,2
PB027M22,3,174,PS,exp,36,↓,right,→,0.6573362000053748,False,8,-1,1,3
PB027M22,3,175,PS,exp,29,←,left,←,0.5995289999991655,True,9,-1,0,3
PB027M22,3,176,PS,exp,27,→,right,→,0.43548660003580153,True,9,1,1,4
PB027M22,3,177,PS,exp,31,↓,down,↓,0.5953365999739617,True,8,1,0,4
PB027M22,3,178,PS,exp,42,←,left,←,0.5355106000206433,True,8,1,0,4
PB027M22,3,179,PS,exp,46,↑,up,↑,0.4938261000206694,True,7,1,0,4
PB027M22,3,180,PS,exp,29,→,right,→,0.4168511999887414,True,7,1,0,4
PB027M22,3,181,PS,exp,46,↓,down,↓,0.4588827000115998,True,6,1,0,4
PB027M22,3,182,PS,exp,43,→,right,→,0.3595960999955423,True,6,1,0,4
PB027M22,3,183,PS,exp,30,←,left,←,0.6847459999844432,True,5,1,0,4
PB027M22,3,184,PS,exp,34,↓,left,←,0.7161259000422433,False,5,-1,1,5
PB027M22,3,185,PS,exp,32,↑,left,←,1.1368323999922723,False,6,-1,0,5
PB027M22,3,186,PS,exp,44,←,left,←,0.6899026000173762,True,7,-1,0,5
PB027M22,3,187,PS,exp,27,↑,up,↑,0.528959000017494,True,7,1,1,6
PB027M22,3,188,PS,exp,41,→,right,→,0.6544969000387937,True,6,1,0,6
PB027M22,3,189,PS,exp,49,←,left,←,0.7152942000539042,True,6,1,0,6
PB027M22,3,190,PS,exp,46,↓,left,←,0.898998600023333,False,5,-1,1,7
PB027M22,3,191,PS,exp,31,↑,left,←,1.012312299979385,False,6,-1,0,7
PB027M22,3,192,PS,exp,30,←,down,↓,0.7167914999881759,False,7,-1,0,7
PB027M22,3,193,PS,exp,40,→,right,→,0.47360759996809065,True,8,-1,0,7
PB027M22,3,194,PS,exp,37,↑,up,↑,0.7430537000182085,True,8,1,1,8
PB027M22,3,195,PS,exp,45,→,right,→,0.5237140000099316,True,7,1,0,8
PB027M22,3,196,PS,exp,32,↓,down,↓,0.5576127999811433,True,7,1,0,8
PB027M22,3,197,PS,exp,30,←,left,←,0.4899257000070065,True,6,1,0,8
PB027M22,3,198,PS,exp,43,↓,left,←,0.5580061000073329,False,6,-1,1,9
PB027M22,3,199,PS,exp,40,→,right,→,0.582047000003513,True,7,-1,0,9
PB027M22,3,200,PS,exp,31,←,down,↓,1.2643489000038244,False,7,-1,0,9
PB027M22,3,201,PS,exp,31,↑,left,←,0.541581799974665,False,8,-1,0,9
PB027M22,3,202,PS,exp,33,→,right,→,0.4706925000064075,True,9,-1,0,9
PB027M22,3,203,PS,exp,34,←,left,←,0.5879837999818847,True,9,1,1,10
PB027M22,3,204,PS,exp,33,↓,down,↓,0.5549898999743164,True,8,1,0,10
PB027M22,3,205,PS,exp,29,←,left,←,0.3809165999991819,True,8,1,0,10
PB027M22,3,206,PS,exp,45,↓,down,↓,0.5415436000330374,True,7,1,0,10
PB027M22,3,207,PS,exp,36,←,left,←,0.40875310002593324,True,7,1,0,10
PB027M22,3,208,PS,exp,34,→,left,←,0.3637946000089869,False,6,-1,1,11
PB027M22,3,209,PS,exp,28,↓,down,↓,0.606028400012292,True,7,-1,0,11
PB027M22,3,210,PS,exp,26,←,left,←,0.5826693000271916,True,7,1,1,12
PB027M22,3,211,PS,exp,41,↑,left,←,0.5745244999998249,False,6,-1,1,13
PB027M22,3,212,PS,exp,37,↓,down,↓,0.5196365000447258,True,7,-1,0,13
PB027M22,3,213,PS,exp,31,←,left,←,0.6257124000112526,True,7,1,1,14
PB027M22,4,214,AS,intra_train,38,→,left,←,0.8685264000087045,False,15,-,-,-
PB027M22,4,215,AS,intra_train,43,↓,down,↓,0.5841502000112087,True,15,-,-,-
PB027M22,4,216,AS,intra_train,49,→,right,→,0.5491174999624491,True,15,-,-,-
PB027M22,4,217,AS,intra_train,42,↑,down,↓,1.0617507999995723,False,15,-,-,-
PB027M22,4,218,AS,intra_train,42,→,right,→,0.5470962999970652,True,15,-,-,-
PB027M22,4,219,AS,exp,36,↑,right,→,0.6294378999737091,False,10,-1,0,0
PB027M22,4,220,AS,exp,25,↓,down,↓,0.5827480000443757,True,11,-1,0,0
PB027M22,4,221,AS,exp,45,→,right,→,0.5508831000188366,True,11,1,1,1
PB027M22,4,222,AS,exp,25,←,down,↓,0.7129144000355154,False,10,-1,1,2
PB027M22,4,223,AS,exp,46,↑,down,↓,0.7384024999919347,False,11,-1,0,2
PB027M22,4,224,AS,exp,31,↓,down,↓,0.749514699971769,True,12,-1,0,2
PB027M22,4,225,AS,exp,27,↑,down,↓,0.8062765999929979,False,12,-1,0,2
PB027M22,4,226,AS,exp,31,→,right,→,0.45095069997478276,True,13,-1,0,2
PB027M22,4,227,AS,exp,43,↓,down,↓,0.5684523000381887,True,13,1,1,3
PB027M22,4,228,AS,exp,35,←,right,→,0.7023331000236794,False,12,-1,1,4
PB027M22,4,229,AS,exp,33,→,right,→,0.7078497000038624,True,13,-1,0,4
PB027M22,4,230,AS,exp,41,↓,down,↓,0.5454914000001736,True,13,1,1,5
PB027M22,4,231,AS,exp,38,→,right,→,0.5451129000284709,True,12,1,0,5
PB027M22,4,232,AS,exp,34,↑,down,↓,0.9914467000053264,False,12,-1,1,6
PB027M22,4,233,AS,exp,38,←,right,→,0.7459580999566242,False,13,-1,0,6
PB027M22,4,234,AS,exp,37,↑,down,↓,0.7448107000091113,False,14,-1,0,6
PB027M22,4,235,AS,exp,32,←,right,→,0.5003632999723777,False,15,-1,0,6
PB027M22,4,236,AS,exp,30,↓,down,↓,0.5838488000445068,True,16,-1,0,6
PB027M22,4,237,AS,exp,46,→,right,→,0.5383407000335865,True,16,1,1,7
PB027M22,4,238,AS,exp,28,↑,down,↓,0.5320246999617666,False,15,-1,1,8
PB027M22,4,239,AS,exp,39,↓,down,↓,0.5533035999978893,True,16,-1,0,8
PB027M22,4,240,AS,exp,50,→,right,→,0.5375807999516837,True,16,1,1,9
PB027M22,4,241,AS,exp,35,↓,down,↓,0.5540672999923117,True,15,1,0,9
PB027M22,4,242,AS,exp,42,→,right,→,0.5479845000081696,True,15,1,0,9
PB027M22,4,243,AS,exp,42,↑,up,↑,0.7376315000001341,True,14,1,0,9
PB027M22,4,244,AS,exp,49,←,left,←,0.5971333000343293,True,14,1,0,9
PB027M22,4,245,AS,exp,45,↑,up,↑,0.6324338000267744,True,13,1,0,9
PB027M22,4,246,AS,exp,32,←,left,←,0.641002899967134,True,13,1,0,9
PB027M22,4,247,AS,exp,43,→,right,→,0.6845681000268087,True,12,1,0,9
PB027M22,4,248,AS,exp,25,↑,up,↑,0.5550953999627382,True,12,1,0,9
PB027M22,4,249,AS,exp,30,→,right,→,0.4785338999936357,True,11,1,0,9
PB027M22,4,250,AS,exp,41,↓,right,→,0.8865674000116996,False,11,-1,1,10
PB027M22,4,251,AS,exp,42,→,right,→,0.6028282000334002,True,12,-1,0,10
PB027M22,4,252,AS,exp,26,←,left,←,0.6481661000289023,True,12,1,1,11
PB027M22,4,253,AS,exp,36,↓,down,↓,0.6622514000046067,True,11,1,0,11
PB027M22,4,254,AS,exp,27,↑,up,↑,0.8284795000217855,True,11,1,0,11
PB027M22,4,255,AS,exp,45,→,right,→,0.5175005000201054,True,10,1,0,11
PB027M22,4,256,AS,exp,35,↑,up,↑,0.4904979999992065,True,10,1,0,11
PB027M22,4,257,AS,exp,49,↓,down,↓,0.9243432999937795,True,9,1,0,11
PB027M22,4,258,AS,exp,34,→,right,→,0.6095260999863967,True,9,1,0,11
PB027M22,4,259,AS,exp,45,↓,up,↑,0.7473213000339456,False,8,-1,1,12
PB027M22,4,260,AS,exp,45,→,right,→,0.5216610999777913,True,9,-1,0,12
PB027M22,4,261,AS,exp,32,↑,up,↑,0.5693861999898218,True,9,1,1,13
PB027M22,4,262,AS,exp,31,↓,up,↑,0.8030284999986179,False,8,-1,1,14
PB027M22,5,263,AS,intra_train,44,→,left,←,1.0977554999990389,False,15,-,-,-
PB027M22,5,264,AS,intra_train,46,↑,up,↑,1.3043638999806717,True,15,-,-,-
PB027M22,5,265,AS,intra_train,28,↓,down,↓,0.7011001000064425,True,15,-,-,-
PB027M22,5,266,AS,intra_train,50,←,left,←,0.7096540000056848,True,15,-,-,-
PB027M22,5,267,AS,intra_train,47,↓,down,↓,0.5914333999971859,True,15,-,-,-
PB027M22,5,268,AS,exp,34,←,left,←,0.5682543000439182,True,10,0,0,0
PB027M22,5,269,AS,exp,42,↓,down,↓,0.5765543999732472,True,10,1,0,0
PB027M22,5,270,AS,exp,46,↑,up,↑,0.6749912000377662,True,9,1,0,0
PB027M22,5,271,AS,exp,48,←,left,←,0.5064345999853685,True,9,1,0,0
PB027M22,5,272,AS,exp,34,→,left,←,0.8775906000519171,False,8,-1,1,1
PB027M22,5,273,AS,exp,26,↑,down,↓,0.5549638999509625,False,9,-1,0,1
PB027M22,5,274,AS,exp,33,←,left,←,0.5462848999886774,True,10,-1,0,1
PB027M22,5,275,AS,exp,37,↑,up,↑,0.6633384000160731,True,10,1,1,2
PB027M22,5,276,AS,exp,32,→,right,→,0.6518092000042088,True,9,1,0,2
PB027M22,5,277,AS,exp,46,↑,up,↑,0.6594363999902271,True,9,1,0,2
PB027M22,5,278,AS,exp,42,↓,up,↑,0.6834117000107653,False,8,-1,1,3
PB027M22,5,279,AS,exp,26,↑,up,↑,0.7527594999992289,True,9,-1,0,3
PB027M22,5,280,AS,exp,28,←,left,←,0.7438782000099309,True,9,1,1,4
PB027M22,5,281,AS,exp,50,↓,down,↓,0.8584507000050507,True,8,1,0,4
PB027M22,5,282,AS,exp,47,↑,up,↑,0.6827658000402153,True,8,1,0,4
PB027M22,5,283,AS,exp,29,↓,up,↑,0.7654393999837339,False,7,-1,1,5
PB027M22,5,284,AS,exp,35,↑,up,↑,0.6959826000384055,True,8,-1,0,5
PB027M22,5,285,AS,exp,43,↓,down,↓,0.7501096000196412,True,8,1,1,6
PB027M22,5,286,AS,exp,27,↑,up,↑,0.6375621000188403,True,7,1,0,6
PB027M22,5,287,AS,exp,40,←,left,←,0.6526684000273235,True,7,1,0,6
PB027M22,5,288,AS,exp,30,↑,up,↑,0.5938926000380889,True,6,1,0,6
PB027M22,5,289,AS,exp,33,←,left,←,0.5647695999941789,True,6,1,0,6
PB027M22,5,290,AS,exp,29,↑,left,←,0.6159346000058576,False,5,-1,1,7
PB027M22,5,291,AS,exp,49,↓,up,↑,0.6402192999958061,False,6,-1,0,7
PB027M22,5,292,AS,exp,37,↑,up,↑,0.6429398999898694,True,7,-1,0,7
PB027M22,5,293,AS,exp,27,→,left,←,0.5156714000040665,False,7,-1,0,7
PB027M22,5,294,AS,exp,33,↓,up,↑,0.6171648999443278,False,8,-1,0,7
PB027M22,5,295,AS,exp,34,←,left,←,0.45149160001892596,True,9,-1,0,7
PB027M22,5,296,AS,exp,32,↓,down,↓,0.6421151999966241,True,9,1,1,8
PB027M22,5,297,AS,exp,38,↑,right,→,0.8777789999730885,False,8,-1,1,9
PB027M22,5,298,AS,exp,36,→,right,→,0.48081129998899996,True,9,-1,0,9
PB027M22,5,299,AS,exp,49,↓,up,↑,0.7749047999968752,False,9,-1,0,9
PB027M22,5,300,AS,exp,37,↑,up,↑,0.4371271000127308,True,10,-1,0,9
PB027M22,5,301,AS,exp,49,→,right,→,0.6699968000175431,True,10,1,1,10
PB027M22,5,302,AS,exp,49,↓,down,↓,0.7560184000176378,True,9,1,0,10
PB027M22,5,303,AS,exp,49,→,right,→,0.6794973000069149,True,9,1,0,10
PB027M22,5,304,AS,exp,43,←,left,←,0.6303965999977663,True,8,1,0,10
PB027M22,5,305,AS,exp,30,↓,down,↓,0.695668900036253,True,8,1,0,10
PB027M22,5,306,AS,exp,37,→,right,→,0.7645189000177197,True,7,1,0,10
PB027M22,5,307,AS,exp,37,↑,down,↓,1.062135500018485,False,7,-1,1,11
PB027M22,5,308,AS,exp,36,←,right,→,0.5379098000121303,False,8,-1,0,11
PB027M22,5,309,AS,exp,26,↑,down,↓,0.6820420000003651,False,9,-1,0,11
PB027M22,5,310,AS,exp,37,→,right,→,0.638611399976071,True,10,-1,0,11
PB027M22,5,311,AS,exp,40,↑,down,↓,0.5401605000370182,False,10,-1,0,11
PB027M22,5,312,AS,exp,44,←,left,←,0.6367529999697581,True,11,-1,0,11
PB027M22,5,313,AS,exp,45,→,right,→,0.527868099976331,True,11,1,1,12
PB027M22,5,314,AS,exp,49,↑,up,↑,0.5798224000027403,True,10,1,0,12
PB027M22,5,315,AS,exp,33,←,left,←,0.5120839000446722,True,10,1,0,12
PB027M22,5,316,AS,exp,42,→,left,←,0.5224958999897353,False,9,-1,1,13
PB027M22,5,317,AS,exp,26,←,left,←,0.4781239000149071,True,10,-1,0,13
PB027M22,5,318,AS,exp,37,→,left,←,0.666379300004337,False,10,-1,0,13
PB027M22,5,319,AS,exp,37,←,left,←,0.476524600002449,True,11,-1,0,13
PB027M22,5,320,AS,exp,26,→,left,←,0.6521924000116996,False,11,-1,0,13
PB027M22,5,321,AS,exp,27,↑,right,→,1.147075999993831,False,12,-1,0,13
PB027M22,5,322,AS,exp,37,↓,down,↓,0.635110400035046,True,13,-1,0,13
PB027M22,5,323,AS,exp,41,→,left,←,0.573335200024303,False,13,-1,0,13
PB027M22,5,324,AS,exp,26,↓,down,↓,1.0814837000216357,True,14,-1,0,13
PB027M22,5,325,AS,exp,47,→,right,→,0.7006450999761,True,14,1,1,14
PB027M22,6,326,PS,intra_train,25,↑,up,↑,0.7592883000033908,True,16,-,-,-
PB027M22,6,327,PS,intra_train,37,→,right,→,0.7201410999987274,True,16,-,-,-
PB027M22,6,328,PS,intra_train,40,↑,up,↑,1.1097257999936119,True,16,-,-,-
PB027M22,6,329,PS,intra_train,29,→,left,←,0.8521307000191882,False,16,-,-,-
PB027M22,6,330,PS,intra_train,50,↑,left,←,0.6174151999875903,False,16,-,-,-
PB027M22,6,331,PS,exp,44,↓,down,↓,0.5831270000198856,True,11,0,0,0
PB027M22,6,332,PS,exp,48,↑,up,↑,0.5432198999915272,True,11,1,0,0
PB027M22,6,333,PS,exp,38,↓,down,↓,0.48287160001927987,True,10,1,0,0
PB027M22,6,334,PS,exp,43,→,right,→,0.5505702000227757,True,10,1,0,0
PB027M22,6,335,PS,exp,36,←,left,←,0.46958659996744245,True,9,1,0,0
PB027M22,6,336,PS,exp,42,↑,up,↑,0.462386500032153,True,9,1,0,0
PB027M22,6,337,PS,exp,25,→,left,←,0.5636793000157923,False,8,-1,1,1
PB027M22,6,338,PS,exp,34,↑,up,↑,0.7120011000079103,True,9,-1,0,1
PB027M22,6,339,PS,exp,39,↓,down,↓,0.6978747999528423,True,9,1,1,2
PB027M22,6,340,PS,exp,38,→,right,→,0.5800391999655403,True,8,1,0,2
PB027M22,6,341,PS,exp,47,↑,right,→,0.6323758999933489,False,8,-1,1,3
PB027M22,6,342,PS,exp,49,→,right,→,0.5659995999885723,True,9,-1,0,3
PB027M22,6,343,PS,exp,46,↓,right,→,0.6466355999582447,False,9,-1,0,3
PB027M22,6,344,PS,exp,49,↑,down,↓,0.6870093999896199,False,10,-1,0,3
PB027M22,6,345,PS,exp,32,←,right,→,0.6990058999508619,False,11,-1,0,3
PB027M22,6,346,PS,exp,40,↓,down,↓,0.5909199999878183,True,12,-1,0,3
PB027M22,6,347,PS,exp,25,←,right,→,0.7417145000072196,False,12,-1,0,3
PB027M22,6,348,PS,exp,41,↑,up,↑,0.6180448000086471,True,13,-1,0,3
PB027M22,6,349,PS,exp,37,←,right,→,0.884185399976559,False,13,-1,0,3
PB027M22,6,350,PS,exp,46,→,right,→,0.6734317999798805,True,14,-1,0,3
PB027M22,6,351,PS,exp,25,↓,down,↓,1.5766442999592982,True,14,1,1,4
PB027M22,6,352,PS,exp,30,↑,up,↑,0.579190100019332,True,13,1,0,4
PB027M22,6,353,PS,exp,29,→,right,→,0.5614446999970824,True,13,1,0,4
PB027M22,6,354,PS,exp,27,←,left,←,0.5354223999893293,True,12,1,0,4
PB027M22,6,355,PS,exp,46,↓,down,↓,0.4807282999972813,True,12,1,0,4
PB027M22,6,356,PS,exp,42,←,left,←,0.48707370000192896,True,11,1,0,4
PB027M22,6,357,PS,exp,46,→,right,→,0.5882772999466397,True,11,1,0,4
PB027M22,6,358,PS,exp,39,↑,left,←,0.8533691000193357,False,10,-1,1,5
PB027M22,6,359,PS,exp,44,←,left,←,0.5021728000137955,True,11,-1,0,5
PB027M22,6,360,PS,exp,39,↓,down,↓,0.549914900038857,True,11,1,1,6
PB027M22,6,361,PS,exp,45,→,right,→,0.5966785000055097,True,10,1,0,6
PB027M22,6,362,PS,exp,46,↑,right,→,0.7269604000030085,False,10,-1,1,7
PB027M22,6,363,PS,exp,47,↓,down,↓,0.5908354999846779,True,11,-1,0,7
PB027M22,6,364,PS,exp,48,←,left,←,0.5280704000033438,True,11,1,1,8
PB027M22,6,365,PS,exp,32,→,right,→,1.3541311000008136,True,10,1,0,8
PB027M22,6,366,PS,exp,43,↓,right,→,0.7088504999992438,False,10,-1,1,9
PB027M22,6,367,PS,exp,38,→,right,→,0.4708900999976322,True,11,-1,0,9
PB027M22,6,368,PS,exp,31,←,left,←,0.5743794000009075,True,11,1,1,10
PB027M22,6,369,PS,exp,49,↓,down,↓,0.6286421999684535,True,10,1,0,10
PB027M22,6,370,PS,exp,28,→,right,→,0.56848469999386,True,10,1,0,10
PB027M22,6,371,PS,exp,33,↓,down,↓,0.5713678000029176,True,9,1,0,10
PB027M22,6,372,PS,exp,29,↑,up,↑,0.5629208000027575,True,9,1,0,10
PB027M22,6,373,PS,exp,38,→,right,→,0.5896806999808177,True,8,1,0,10
PB027M22,6,374,PS,exp,41,↑,up,↑,0.577840699988883,True,8,1,0,10
PB027M22,6,375,PS,exp,50,→,left,←,1.053844299982302,False,7,-1,1,11
PB027M22,6,376,PS,exp,46,↑,left,←,0.712552200013306,False,8,-1,0,11
PB027M22,6,377,PS,exp,27,←,left,←,0.5324481999850832,True,9,-1,0,11
PB027M22,6,378,PS,exp,36,→,right,→,0.5016283000004478,True,9,1,1,12
PB027M22,6,379,PS,exp,31,↓,left,←,1.617808300012257,False,8,-1,1,13
PB027M22,6,380,PS,exp,45,→,right,→,0.5407016999670304,True,9,-1,0,13
PB027M22,6,381,PS,exp,44,←,left,←,0.45841289998497814,True,9,1,1,14
PB027M22,7,382,PS,intra_train,43,↓,down,↓,1.4670146999997087,True,16,-,-,-
PB027M22,7,383,PS,intra_train,38,→,right,→,1.0819218999822624,True,16,-,-,-
PB027M22,7,384,PS,intra_train,39,←,left,←,0.483788600016851,True,16,-,-,-
PB027M22,7,385,PS,intra_train,33,↑,up,↑,0.5028280999977142,True,16,-,-,-
PB027M22,7,386,PS,intra_train,39,←,left,←,0.46604209998622537,True,16,-,-,-
PB027M22,7,387,PS,exp,50,↑,left,←,0.9178110000211746,False,11,-1,0,0
PB027M22,7,388,PS,exp,43,→,right,→,0.39394259999971837,True,12,-1,0,0
PB027M22,7,389,PS,exp,37,↑,left,←,0.6569497999735177,False,12,-1,0,0
PB027M22,7,390,PS,exp,39,↓,down,↓,0.5863412999897264,True,13,-1,0,0
PB027M22,7,391,PS,exp,31,↑,up,↑,0.48700610001105815,True,13,1,1,1
PB027M22,7,392,PS,exp,39,↓,down,↓,0.5472527000238188,True,12,1,0,1
PB027M22,7,393,PS,exp,30,←,left,←,0.4297894000192173,True,12,1,0,1
PB027M22,7,394,PS,exp,38,→,down,↓,1.0148757999995723,False,11,-1,1,2
PB027M22,7,395,PS,exp,45,↓,down,↓,0.4399915999965742,True,12,-1,0,2
PB027M22,7,396,PS,exp,42,↑,up,↑,0.6259468999924138,True,12,1,1,3
PB027M22,7,397,PS,exp,31,→,right,→,0.48640439996961504,True,11,1,0,3
PB027M22,7,398,PS,exp,45,←,left,←,0.5881280000321567,True,11,1,0,3
PB027M22,7,399,PS,exp,33,↑,left,←,1.4681925000040792,False,10,-1,1,4
PB027M22,7,400,PS,exp,38,←,left,←,0.573928400001023,True,11,-1,0,4
PB027M22,7,401,PS,exp,44,↑,up,↑,0.49070630001369864,True,11,1,1,5
PB027M22,7,402,PS,exp,44,↓,down,↓,0.6049275000113994,True,10,1,0,5
PB027M22,7,403,PS,exp,41,↑,up,↑,0.49834029999328777,True,10,1,0,5
PB027M22,7,404,PS,exp,45,←,left,←,0.5475617999909446,True,9,1,0,5
PB027M22,7,405,PS,exp,46,↓,left,←,0.8291499000042677,False,9,-1,1,6
PB027M22,7,406,PS,exp,26,↑,up,↑,0.6780942999757826,True,10,-1,0,6
PB027M22,7,407,PS,exp,35,←,left,←,0.48961569997482,True,10,1,1,7
PB027M22,7,408,PS,exp,27,→,right,→,0.569857599970419,True,9,1,0,7
PB027M22,7,409,PS,exp,43,↑,up,↑,0.5475081000477076,True,9,1,0,7
PB027M22,7,410,PS,exp,29,↓,down,↓,0.4995384000358172,True,8,1,0,7
PB027M22,7,411,PS,exp,35,←,left,←,0.5146032000193372,True,8,1,0,7
PB027M22,7,412,PS,exp,34,↑,up,↑,0.47582160000456497,True,7,1,0,7
PB027M22,7,413,PS,exp,32,→,left,←,0.993370899988804,False,7,-1,1,8
PB027M22,7,414,PS,exp,27,↑,down,↓,0.5968980999896303,False,8,-1,0,8
PB027M22,7,415,PS,exp,45,↓,down,↓,0.5348184999893419,True,9,-1,0,8
PB027M22,7,416,PS,exp,49,←,left,←,0.6310263000195846,True,9,1,1,9
PB027M22,7,417,PS,exp,25,→,right,→,0.7373844000394456,True,8,1,0,9
PB027M22,7,418,PS,exp,28,↓,left,←,0.5982965999864973,False,8,-1,1,10
PB027M22,7,419,PS,exp,32,↑,up,↑,0.7108330000191927,True,9,-1,0,10
PB027M22,7,420,PS,exp,25,→,right,→,0.4955856000306085,True,9,1,1,11
PB027M22,7,421,PS,exp,41,↓,down,↓,0.5529682000051253,True,8,1,0,11
PB027M22,7,422,PS,exp,37,←,left,←,0.674083799996879,True,8,1,0,11
PB027M22,7,423,PS,exp,39,↑,left,←,0.73714270000346,False,7,-1,1,12
PB027M22,7,424,PS,exp,37,→,right,→,0.5061302999965847,True,8,-1,0,12
PB027M22,7,425,PS,exp,44,↓,down,↓,0.6043478999636136,True,8,1,1,13
PB027M22,7,426,PS,exp,25,←,left,←,0.5137738999910653,True,7,1,0,13
PB027M22,7,427,PS,exp,44,↑,up,↑,0.5488930999999866,True,7,1,0,13
PB027M22,7,428,PS,exp,29,←,left,←,0.4938082000007853,True,6,1,0,13
PB027M22,7,429,PS,exp,35,↑,up,↑,0.4622319000191055,True,6,1,0,13
PB027M22,7,430,PS,exp,48,↓,down,↓,0.49307030002819374,True,5,1,0,13
PB027M22,7,431,PS,exp,31,←,down,↓,0.6790820999885909,False,5,-1,1,14
PB027M22,8,432,AS,intra_train,33,→,right,→,1.7397296999697573,True,15,-,-,-
PB027M22,8,433,AS,intra_train,44,↓,down,↓,0.5980056999833323,True,15,-,-,-
PB027M22,8,434,AS,intra_train,39,↑,up,↑,0.5996507999952883,True,15,-,-,-
PB027M22,8,435,AS,intra_train,43,←,left,←,0.6411995000089519,True,15,-,-,-
PB027M22,8,436,AS,intra_train,44,↓,up,↑,0.5796799999661744,False,15,-,-,-
PB027M22,8,437,AS,exp,47,→,right,→,0.5866820000228472,True,10,0,0,0
PB027M22,8,438,AS,exp,41,↓,up,↑,0.7743809999665245,False,10,-1,0,0
PB027M22,8,439,AS,exp,39,←,left,←,0.5230932999984361,True,11,-1,0,0
PB027M22,8,440,AS,exp,30,↑,left,←,0.6285922999959439,False,11,-1,0,0
PB027M22,8,441,AS,exp,41,←,left,←,0.5926141000236385,True,12,-1,0,0
PB027M22,8,442,AS,exp,25,↓,up,↑,0.5802509000059217,False,12,-1,0,0
PB027M22,8,443,AS,exp,31,↑,up,↑,0.4554251999943517,True,13,-1,0,0
PB027M22,8,444,AS,exp,39,→,right,→,0.5075311999535188,True,13,1,1,1
PB027M22,8,445,AS,exp,30,↑,up,↑,0.6684142000158317,True,12,1,0,1
PB027M22,8,446,AS,exp,33,↓,left,←,0.6211388999945484,False,12,-1,1,2
PB027M22,8,447,AS,exp,29,→,left,←,0.5102557000354864,False,13,-1,0,2
PB027M22,8,448,AS,exp,29,↓,up,↑,0.666250400012359,False,14,-1,0,2
PB027M22,8,449,AS,exp,29,←,right,→,0.568807800009381,False,15,-1,0,2
PB027M22,8,450,AS,exp,43,↑,up,↑,0.5559348000097089,True,16,-1,0,2
PB027M22,8,451,AS,exp,50,←,left,←,0.509928299987223,True,16,1,1,3
PB027M22,8,452,AS,exp,29,→,left,←,0.6963037999812514,False,15,-1,1,4
PB027M22,8,453,AS,exp,31,↓,down,↓,0.8139169000205584,True,16,-1,0,4
PB027M22,8,454,AS,exp,48,←,left,←,0.7111387000186369,True,16,1,1,5
PB027M22,8,455,AS,exp,50,→,right,→,0.6146944000502117,True,15,1,0,5
PB027M22,8,456,AS,exp,31,↑,up,↑,0.5818582999636419,True,15,1,0,5
PB027M22,8,457,AS,exp,46,→,right,→,0.5952915999805555,True,14,1,0,5
PB027M22,8,458,AS,exp,39,↑,up,↑,0.7643619000446051,True,14,1,0,5
PB027M22,8,459,AS,exp,46,→,right,→,0.6256020000437275,True,13,1,0,5
PB027M22,8,460,AS,exp,38,←,left,←,0.6799934000009671,True,13,1,0,5
PB027M22,8,461,AS,exp,47,→,right,→,0.5924358000047505,True,12,1,0,5
PB027M22,8,462,AS,exp,50,↓,down,↓,0.525286500051152,True,12,1,0,5
PB027M22,8,463,AS,exp,48,→,left,←,0.6251280999858864,False,11,-1,1,6
PB027M22,8,464,AS,exp,27,←,left,←,0.646061200008262,True,12,-1,0,6
PB027M22,8,465,AS,exp,38,↑,down,↓,0.5737869000295177,False,12,-1,0,6
PB027M22,8,466,AS,exp,50,↓,down,↓,0.4658732999814674,True,13,-1,0,6
PB027M22,8,467,AS,exp,50,↑,up,↑,0.5654381000204012,True,13,1,1,7
PB027M22,8,468,AS,exp,41,←,left,←,0.44675109995296225,True,12,1,0,7
PB027M22,8,469,AS,exp,31,↑,up,↑,0.5109415999613702,True,12,1,0,7
PB027M22,8,470,AS,exp,48,→,right,→,0.4876504000276327,True,11,1,0,7
PB027M22,8,471,AS,exp,33,←,left,←,0.4201228999882005,True,11,1,0,7
PB027M22,8,472,AS,exp,30,↓,down,↓,0.6574869999894872,True,10,1,0,7
PB027M22,8,473,AS,exp,48,←,left,←,0.6124049000209197,True,10,1,0,7
PB027M22,8,474,AS,exp,34,→,right,→,0.6247996999882162,True,9,1,0,7
PB027M22,8,475,AS,exp,49,↓,down,↓,0.7111532000126317,True,9,1,0,7
PB027M22,8,476,AS,exp,41,←,left,←,0.7425048999721184,True,8,1,0,7
PB027M22,8,477,AS,exp,29,→,right,→,0.6207938999868929,True,8,1,0,7
PB027M22,8,478,AS,exp,35,←,left,←,0.47463920002337545,True,7,1,0,7
PB027M22,8,479,AS,exp,42,→,right,→,0.5263434000080451,True,7,1,0,7
PB027M22,8,480,AS,exp,28,↓,down,↓,0.5969956999761052,True,6,1,0,7
PB027M22,8,481,AS,exp,33,↑,down,↓,0.5721696999971755,False,6,-1,1,8
PB027M22,8,482,AS,exp,33,→,right,→,0.5472218999639153,True,7,-1,0,8
PB027M22,8,483,AS,exp,50,↑,down,↓,0.6599191999994218,False,7,-1,0,8
PB027M22,8,484,AS,exp,29,↓,down,↓,0.6171321999863721,True,8,-1,0,8
PB027M22,8,485,AS,exp,40,←,left,←,0.5697591000352986,True,8,1,1,9
PB027M22,8,486,AS,exp,27,↑,up,↑,0.7169522000476718,True,7,1,0,9
PB027M22,8,487,AS,exp,27,↓,down,↓,0.5104845000314526,True,7,1,0,9
PB027M22,8,488,AS,exp,49,↑,up,↑,0.7583057000301778,True,6,1,0,9
PB027M22,8,489,AS,exp,50,↓,left,←,0.6105750999995507,False,6,-1,1,10
PB027M22,8,490,AS,exp,35,←,right,→,0.5323315000277944,False,7,-1,0,10
PB027M22,8,491,AS,exp,26,→,right,→,0.3845850999932736,True,8,-1,0,10
PB027M22,8,492,AS,exp,27,↑,left,←,0.4637902999529615,False,8,-1,0,10
PB027M22,8,493,AS,exp,41,↓,right,→,1.017475700005889,False,9,-1,0,10
PB027M22,8,494,AS,exp,29,↑,up,↑,0.5882049000356346,True,10,-1,0,10
PB027M22,8,495,AS,exp,33,↓,down,↓,0.5303084999904968,True,10,1,1,11
PB027M22,8,496,AS,exp,27,→,right,→,0.43838680000044405,True,9,1,0,11
PB027M22,8,497,AS,exp,43,↓,down,↓,0.5297547999653034,True,9,1,0,11
PB027M22,8,498,AS,exp,46,↑,up,↑,0.7243535000015981,True,8,1,0,11
PB027M22,8,499,AS,exp,32,↓,down,↓,0.5363017999916337,True,8,1,0,11
PB027M22,8,500,AS,exp,40,←,left,←,0.45517740002833307,True,7,1,0,11
PB027M22,8,501,AS,exp,48,→,left,←,0.47616899997228757,False,7,-1,1,12
PB027M22,8,502,AS,exp,35,←,right,→,0.5098431000369601,False,8,-1,0,12
PB027M22,8,503,AS,exp,40,→,right,→,0.6225201000343077,True,9,-1,0,12
PB027M22,8,504,AS,exp,50,←,left,←,0.5269329999573529,True,9,1,1,13
PB027M22,8,505,AS,exp,29,↑,up,↑,0.8271679999888875,True,8,1,0,13
PB027M22,8,506,AS,exp,27,↓,up,↑,0.714216899999883,False,8,-1,1,14
