PART_ID,Block_no,Trial_no,Block_type,Trial_type,CSI,Stim_letter,Key_pressed,letter_choose,Rt,Corr,Stimulus Time,Level,Reversal,Revs_count
PB032K19,1,1,PS,train,30,↑,no_key,no_letter,-1.0,False,30,-,-,-
PB032K19,1,2,PS,train,42,→,right,→,0.6892331000417471,True,30,-,-,-
PB032K19,1,3,PS,train,27,↑,up,↑,1.6531912999926135,True,30,-,-,-
PB032K19,1,4,PS,train,30,←,left,←,1.3644621000275947,True,30,-,-,-
PB032K19,1,5,PS,train,42,↓,down,↓,0.9811581000103615,True,30,-,-,-
PB032K19,1,6,PS,train,31,→,right,→,1.132986599986907,True,30,-,-,-
PB032K19,1,7,PS,train,50,↓,down,↓,1.3844840999809094,True,30,-,-,-
PB032K19,1,8,PS,train,37,→,right,→,1.0608675999683328,True,30,-,-,-
PB032K19,1,9,PS,train,27,↓,down,↓,0.8853316999739036,True,30,-,-,-
PB032K19,1,10,PS,train,37,←,left,←,0.9420128000201657,True,30,-,-,-
PB032K19,2,11,AS,train,40,→,right,→,0.5842745999689214,True,45,-,-,-
PB032K19,2,12,AS,train,50,↑,up,↑,0.8837152000050992,True,45,-,-,-
PB032K19,2,13,AS,train,46,↓,down,↓,1.733533599996008,True,45,-,-,-
PB032K19,2,14,AS,train,29,←,left,←,1.173263200034853,True,45,-,-,-
PB032K19,2,15,AS,train,34,↓,down,↓,0.7177458999794908,True,45,-,-,-
PB032K19,2,16,AS,train,49,↑,up,↑,0.9463370000012219,True,45,-,-,-
PB032K19,2,17,AS,train,32,↓,down,↓,0.9351232000044547,True,45,-,-,-
PB032K19,2,18,AS,train,28,→,right,→,0.7505701999762096,True,45,-,-,-
PB032K19,2,19,AS,train,49,↓,down,↓,0.7179188000154682,True,45,-,-,-
PB032K19,2,20,AS,train,50,↑,up,↑,0.6179916000110097,True,45,-,-,-
PB032K19,-,21,PS,adaptive,36,→,right,→,0.6332531000371091,True,10,0,0,0
PB032K19,-,22,PS,adaptive,27,↓,down,↓,0.7517012000316754,True,10,1,0,0
PB032K19,-,23,PS,adaptive,39,↑,up,↑,1.3573371000238694,True,9,1,0,0
PB032K19,-,24,PS,adaptive,32,↓,down,↓,0.5455437999917194,True,9,1,0,0
PB032K19,-,25,PS,adaptive,25,↑,up,↑,0.49316579999867827,True,8,1,0,0
PB032K19,-,26,PS,adaptive,47,→,right,→,0.5497768000350334,True,8,1,0,0
PB032K19,-,27,PS,adaptive,42,↓,down,↓,0.5301298999693245,True,7,1,0,0
PB032K19,-,28,PS,adaptive,25,↑,left,←,0.7511185000184923,False,7,-1,1,1
PB032K19,-,29,PS,adaptive,33,↓,down,↓,0.6667817000416107,True,8,-1,0,1
PB032K19,-,30,PS,adaptive,36,↑,up,↑,0.5796776000061072,True,8,1,1,2
PB032K19,-,31,PS,adaptive,36,→,up,↑,1.3133299000328407,False,7,-1,1,3
PB032K19,-,32,PS,adaptive,44,↓,down,↓,0.6114650999661535,True,8,-1,0,3
PB032K19,-,33,PS,adaptive,36,→,left,←,0.9032279000384733,False,8,-1,0,3
PB032K19,-,34,PS,adaptive,27,↓,down,↓,0.5533504000050016,True,9,-1,0,3
PB032K19,-,35,PS,adaptive,39,→,right,→,0.5065972000011243,True,9,1,1,4
PB032K19,-,36,AS,adaptive,35,←,left,←,0.7622475000098348,True,20,0,0,0
PB032K19,-,37,AS,adaptive,42,→,right,→,0.9519705999991857,True,20,1,0,0
PB032K19,-,38,AS,adaptive,31,↑,up,↑,0.5104726999998093,True,19,1,0,0
PB032K19,-,39,AS,adaptive,42,→,right,→,0.43377320002764463,True,19,1,0,0
PB032K19,-,40,AS,adaptive,48,↓,left,←,1.1603566999547184,False,18,-1,1,1
PB032K19,-,41,AS,adaptive,32,→,right,→,0.5681281000142917,True,19,-1,0,1
PB032K19,-,42,AS,adaptive,37,↑,up,↑,1.1601224999758415,True,19,1,1,2
PB032K19,-,43,AS,adaptive,41,→,left,←,0.9252560999593697,False,18,-1,1,3
PB032K19,-,44,AS,adaptive,31,←,left,←,1.2122144000022672,True,19,-1,0,3
PB032K19,-,45,AS,adaptive,48,→,up,↑,1.1750092000002041,False,19,-1,0,3
PB032K19,-,46,AS,adaptive,25,↓,down,↓,0.8501284000230953,True,20,-1,0,3
PB032K19,-,47,AS,adaptive,46,↑,up,↑,0.7469385000295006,True,20,1,1,4
PB032K19,1,48,AS,intra_train,48,←,left,←,0.6006175000220537,True,28,-,-,-
PB032K19,1,49,AS,intra_train,27,↓,down,↓,0.9892047999892384,True,28,-,-,-
PB032K19,1,50,AS,intra_train,39,←,left,←,0.6699392999871634,True,28,-,-,-
PB032K19,1,51,AS,intra_train,50,→,right,→,0.7955399999627843,True,28,-,-,-
PB032K19,1,52,AS,intra_train,38,↓,down,↓,0.5503942999639548,True,28,-,-,-
PB032K19,1,53,AS,exp,32,↑,down,↓,1.058979699970223,False,19,-1,0,0
PB032K19,1,54,AS,exp,36,↓,up,↑,0.8868913000333123,False,20,-1,0,0
PB032K19,1,55,AS,exp,48,←,left,←,0.6694289000006393,True,21,-1,0,0
PB032K19,1,56,AS,exp,36,↑,up,↑,0.4670437999884598,True,21,1,1,1
PB032K19,1,57,AS,exp,26,→,left,←,0.690664800000377,False,20,-1,1,2
PB032K19,1,58,AS,exp,36,↓,down,↓,0.5907441000454128,True,21,-1,0,2
PB032K19,1,59,AS,exp,30,→,right,→,0.4670545000117272,True,21,1,1,3
PB032K19,1,60,AS,exp,40,←,right,→,1.1155452000093646,False,20,-1,1,4
PB032K19,1,61,AS,exp,43,→,right,→,0.4836768999812193,True,21,-1,0,4
PB032K19,1,62,AS,exp,29,↓,up,↑,1.0242777000530623,False,21,-1,0,4
PB032K19,1,63,AS,exp,29,←,left,←,0.6077818999765441,True,22,-1,0,4
PB032K19,1,64,AS,exp,28,↑,up,↑,0.681584500009194,True,22,1,1,5
PB032K19,1,65,AS,exp,38,→,right,→,0.45056049997219816,True,21,1,0,5
PB032K19,1,66,AS,exp,34,←,left,←,0.523995700001251,True,21,1,0,5
PB032K19,1,67,AS,exp,29,↓,down,↓,0.8683903000201099,True,20,1,0,5
PB032K19,1,68,AS,exp,39,→,right,→,0.7431209000060335,True,20,1,0,5
PB032K19,1,69,AS,exp,38,↑,up,↑,0.6236966000287794,True,19,1,0,5
PB032K19,1,70,AS,exp,25,↓,down,↓,0.5296110999770463,True,19,1,0,5
PB032K19,1,71,AS,exp,32,↑,up,↑,0.7141209000255913,True,18,1,0,5
PB032K19,1,72,AS,exp,50,→,right,→,0.6479189000092447,True,18,1,0,5
PB032K19,1,73,AS,exp,48,↑,up,↑,0.45563020004192367,True,17,1,0,5
PB032K19,1,74,AS,exp,36,↓,down,↓,0.6487222000141628,True,17,1,0,5
PB032K19,1,75,AS,exp,44,→,right,→,0.4379690000205301,True,16,1,0,5
PB032K19,1,76,AS,exp,33,↓,down,↓,0.5223737000487745,True,16,1,0,5
PB032K19,1,77,AS,exp,50,↑,up,↑,1.5422845999710262,True,15,1,0,5
PB032K19,1,78,AS,exp,32,↓,down,↓,0.6466848999843933,True,15,1,0,5
PB032K19,1,79,AS,exp,33,↑,left,←,1.0809211999876425,False,14,-1,1,6
PB032K19,1,80,AS,exp,46,↓,down,↓,0.4714838999789208,True,15,-1,0,6
PB032K19,1,81,AS,exp,46,↑,up,↑,0.6486765000154264,True,15,1,1,7
PB032K19,1,82,AS,exp,38,↓,up,↑,0.991321399982553,False,14,-1,1,8
PB032K19,1,83,AS,exp,41,→,right,→,0.47042640001745895,True,15,-1,0,8
PB032K19,1,84,AS,exp,38,←,left,←,1.320294399978593,True,15,1,1,9
PB032K19,1,85,AS,exp,41,↑,up,↑,0.5248304999549873,True,14,1,0,9
PB032K19,1,86,AS,exp,26,→,up,↑,1.2831460000015795,False,14,-1,1,10
PB032K19,1,87,AS,exp,44,↑,up,↑,0.6758764000260271,True,15,-1,0,10
PB032K19,1,88,AS,exp,47,↓,left,←,1.202528900001198,False,15,-1,0,10
PB032K19,1,89,AS,exp,39,→,up,↑,1.281978800019715,False,16,-1,0,10
PB032K19,1,90,AS,exp,32,↓,down,↓,0.6121991999680176,True,17,-1,0,10
PB032K19,1,91,AS,exp,33,↑,up,↑,1.2567391999764368,True,17,1,1,11
PB032K19,1,92,AS,exp,25,←,left,←,1.1893887000042014,True,16,1,0,11
PB032K19,1,93,AS,exp,38,→,right,→,0.38381610001670197,True,16,1,0,11
PB032K19,1,94,AS,exp,33,←,right,→,0.6829688000143506,False,15,-1,1,12
PB032K19,1,95,AS,exp,50,↓,down,↓,0.4772549999761395,True,16,-1,0,12
PB032K19,1,96,AS,exp,25,↑,up,↑,0.4550298000103794,True,16,1,1,13
PB032K19,1,97,AS,exp,44,←,left,←,0.5819246000028215,True,15,1,0,13
PB032K19,1,98,AS,exp,30,↑,up,↑,0.454057399998419,True,15,1,0,13
PB032K19,1,99,AS,exp,50,↓,down,↓,0.4578602999681607,True,14,1,0,13
PB032K19,1,100,AS,exp,41,←,left,←,0.5568413999862969,True,14,1,0,13
PB032K19,1,101,AS,exp,40,↓,down,↓,0.6394385999883525,True,13,1,0,13
PB032K19,1,102,AS,exp,41,↑,left,←,0.7413029000163078,False,13,-1,1,14
PB032K19,2,103,PS,intra_train,32,↓,up,↑,0.9008034999715164,False,12,-,-,-
PB032K19,2,104,PS,intra_train,31,→,right,→,0.3994825999834575,True,12,-,-,-
PB032K19,2,105,PS,intra_train,41,←,left,←,0.5038713999674655,True,12,-,-,-
PB032K19,2,106,PS,intra_train,49,↑,up,↑,0.46263840002939105,True,12,-,-,-
PB032K19,2,107,PS,intra_train,44,↓,right,→,0.7872069999575615,False,12,-,-,-
PB032K19,2,108,PS,exp,32,←,left,←,0.4124232000322081,True,8,0,0,0
PB032K19,2,109,PS,exp,27,↑,up,↑,0.479628499946557,True,8,1,0,0
PB032K19,2,110,PS,exp,50,→,right,→,0.3956358000286855,True,7,1,0,0
PB032K19,2,111,PS,exp,45,↓,up,↑,0.7978530000546016,False,7,-1,1,1
PB032K19,2,112,PS,exp,34,→,right,→,0.42101749998982996,True,8,-1,0,1
PB032K19,2,113,PS,exp,27,←,right,→,0.7597000999958254,False,8,-1,0,1
PB032K19,2,114,PS,exp,42,↓,down,↓,0.611837700009346,True,9,-1,0,1
PB032K19,2,115,PS,exp,29,→,right,→,0.43403920001583174,True,9,1,1,2
PB032K19,2,116,PS,exp,50,↓,down,↓,0.470398599980399,True,8,1,0,2
PB032K19,2,117,PS,exp,34,→,left,←,0.9773931999807246,False,8,-1,1,3
PB032K19,2,118,PS,exp,28,↑,down,↓,0.8669200000003912,False,9,-1,0,3
PB032K19,2,119,PS,exp,31,←,left,←,0.5719767999835312,True,10,-1,0,3
PB032K19,2,120,PS,exp,28,→,left,←,1.0977690999861807,False,10,-1,0,3
PB032K19,2,121,PS,exp,39,↑,up,↑,0.5050765000050887,True,11,-1,0,3
PB032K19,2,122,PS,exp,49,→,right,→,0.4415782999712974,True,11,1,1,4
PB032K19,2,123,PS,exp,40,↑,up,↑,0.46677729999646544,True,10,1,0,4
PB032K19,2,124,PS,exp,33,→,right,→,0.3551344000152312,True,10,1,0,4
PB032K19,2,125,PS,exp,36,↓,left,←,0.7547016000025906,False,9,-1,1,5
PB032K19,2,126,PS,exp,45,↑,down,↓,0.846455099992454,False,10,-1,0,5
PB032K19,2,127,PS,exp,33,←,left,←,0.5083046999643557,True,11,-1,0,5
PB032K19,2,128,PS,exp,45,↑,up,↑,0.6051535999868065,True,11,1,1,6
PB032K19,2,129,PS,exp,37,←,left,←,0.41000869998242706,True,10,1,0,6
PB032K19,2,130,PS,exp,44,↓,down,↓,0.5284265000373125,True,10,1,0,6
PB032K19,2,131,PS,exp,34,→,left,←,0.7698653000406921,False,9,-1,1,7
PB032K19,2,132,PS,exp,39,←,down,↓,1.0735251999576576,False,10,-1,0,7
PB032K19,2,133,PS,exp,48,↑,up,↑,0.6757657999987714,True,11,-1,0,7
PB032K19,2,134,PS,exp,49,→,left,←,0.7401890000328422,False,11,-1,0,7
PB032K19,2,135,PS,exp,42,←,left,←,0.6485148000065237,True,12,-1,0,7
PB032K19,2,136,PS,exp,50,→,right,→,0.42500079999445006,True,12,1,1,8
PB032K19,2,137,PS,exp,35,←,up,↑,1.056726700044237,False,11,-1,1,9
PB032K19,2,138,PS,exp,38,→,right,→,0.4443994999746792,True,12,-1,0,9
PB032K19,2,139,PS,exp,27,↑,up,↑,0.5589023000211455,True,12,1,1,10
PB032K19,2,140,PS,exp,35,←,left,←,0.7535148999886587,True,11,1,0,10
PB032K19,2,141,PS,exp,33,→,right,→,0.6281522000208497,True,11,1,0,10
PB032K19,2,142,PS,exp,47,←,left,←,0.5596144000301138,True,10,1,0,10
PB032K19,2,143,PS,exp,43,↓,up,↑,0.8369528000475839,False,10,-1,1,11
PB032K19,2,144,PS,exp,34,←,left,←,0.48333889996865764,True,11,-1,0,11
PB032K19,2,145,PS,exp,45,↑,up,↑,0.8571464000269771,True,11,1,1,12
PB032K19,2,146,PS,exp,40,↓,left,←,0.8464230999816209,False,10,-1,1,13
PB032K19,2,147,PS,exp,46,←,left,←,0.5103930999757722,True,11,-1,0,13
PB032K19,2,148,PS,exp,29,→,right,→,0.49647660000482574,True,11,1,1,14
PB032K19,3,149,PS,intra_train,43,←,left,←,0.8983779000118375,True,12,-,-,-
PB032K19,3,150,PS,intra_train,31,→,right,→,0.40287550003267825,True,12,-,-,-
PB032K19,3,151,PS,intra_train,47,↓,right,→,1.0662909999955446,False,12,-,-,-
PB032K19,3,152,PS,intra_train,46,→,left,←,1.0553710000240244,False,12,-,-,-
PB032K19,3,153,PS,intra_train,50,↑,up,↑,0.7827469000476412,True,12,-,-,-
PB032K19,3,154,PS,exp,38,↓,down,↓,0.6834380999789573,True,8,0,0,0
PB032K19,3,155,PS,exp,41,→,right,→,0.579712099977769,True,8,1,0,0
PB032K19,3,156,PS,exp,45,↓,down,↓,0.44956009997986257,True,7,1,0,0
PB032K19,3,157,PS,exp,27,←,left,←,0.5080979999620467,True,7,1,0,0
PB032K19,3,158,PS,exp,49,↓,left,←,0.8254957000026479,False,6,-1,1,1
PB032K19,3,159,PS,exp,28,↑,up,↑,0.7426067999913357,True,7,-1,0,1
PB032K19,3,160,PS,exp,36,←,left,←,0.47402900003362447,True,7,1,1,2
PB032K19,3,161,PS,exp,30,→,left,←,0.6076018000021577,False,6,-1,1,3
PB032K19,3,162,PS,exp,28,←,up,↑,0.8985972999944352,False,7,-1,0,3
PB032K19,3,163,PS,exp,50,↑,up,↑,0.7183081000111997,True,8,-1,0,3
PB032K19,3,164,PS,exp,27,↓,down,↓,0.5298123999964446,True,8,1,1,4
PB032K19,3,165,PS,exp,44,←,left,←,0.5900976999546401,True,7,1,0,4
PB032K19,3,166,PS,exp,45,↓,down,↓,0.4704281999729574,True,7,1,0,4
PB032K19,3,167,PS,exp,47,←,left,←,0.5257553000119515,True,6,1,0,4
PB032K19,3,168,PS,exp,47,↓,right,→,0.7568341000005603,False,6,-1,1,5
PB032K19,3,169,PS,exp,36,→,right,→,0.5701157000148669,True,7,-1,0,5
PB032K19,3,170,PS,exp,43,←,left,←,1.1071785999811254,True,7,1,1,6
PB032K19,3,171,PS,exp,36,→,right,→,0.9351727000321262,True,6,1,0,6
PB032K19,3,172,PS,exp,47,↓,down,↓,0.5344931000145152,True,6,1,0,6
PB032K19,3,173,PS,exp,38,→,down,↓,0.7960891000111587,False,5,-1,1,7
PB032K19,3,174,PS,exp,50,←,up,↑,0.7926826000330038,False,6,-1,0,7
PB032K19,3,175,PS,exp,36,↑,left,←,0.9814083999954164,False,7,-1,0,7
PB032K19,3,176,PS,exp,28,↓,down,↓,0.6051028000074439,True,8,-1,0,7
PB032K19,3,177,PS,exp,48,→,right,→,0.4988901000469923,True,8,1,1,8
PB032K19,3,178,PS,exp,41,↓,down,↓,0.559288699994795,True,7,1,0,8
PB032K19,3,179,PS,exp,44,↑,down,↓,1.14024530001916,False,7,-1,1,9
PB032K19,3,180,PS,exp,40,↓,down,↓,0.5794286000309512,True,8,-1,0,9
PB032K19,3,181,PS,exp,43,←,left,←,0.8154599000117742,True,8,1,1,10
PB032K19,3,182,PS,exp,31,↓,down,↓,0.4868207999970764,True,7,1,0,10
PB032K19,3,183,PS,exp,47,←,left,←,0.5543621000251733,True,7,1,0,10
PB032K19,3,184,PS,exp,29,→,right,→,0.431886599981226,True,6,1,0,10
PB032K19,3,185,PS,exp,40,↓,down,↓,0.6110983000253327,True,6,1,0,10
PB032K19,3,186,PS,exp,44,→,down,↓,1.0534800000023097,False,5,-1,1,11
PB032K19,3,187,PS,exp,30,↓,down,↓,0.5429910999955609,True,6,-1,0,11
PB032K19,3,188,PS,exp,43,←,left,←,0.8722717000055127,True,6,1,1,12
PB032K19,3,189,PS,exp,28,↑,left,←,0.9011569999856874,False,5,-1,1,13
PB032K19,3,190,PS,exp,42,→,right,→,0.4547662000404671,True,6,-1,0,13
PB032K19,3,191,PS,exp,43,↑,left,←,1.4583503000321798,False,6,-1,0,13
PB032K19,3,192,PS,exp,33,←,left,←,0.7954742999863811,True,7,-1,0,13
PB032K19,3,193,PS,exp,43,→,right,→,0.5114422999904491,True,7,1,1,14
PB032K19,4,194,AS,intra_train,30,↑,up,↑,1.4476072000106797,True,28,-,-,-
PB032K19,4,195,AS,intra_train,42,→,right,→,0.5838310999679379,True,28,-,-,-
PB032K19,4,196,AS,intra_train,32,↓,up,↑,1.1821034000022337,False,28,-,-,-
PB032K19,4,197,AS,intra_train,29,→,right,→,0.6922415000153705,True,28,-,-,-
PB032K19,4,198,AS,intra_train,40,←,left,←,0.4838599999784492,True,28,-,-,-
PB032K19,4,199,AS,exp,49,↓,up,↑,0.9657855000114068,False,19,-1,0,0
PB032K19,4,200,AS,exp,45,↑,no_key,no_letter,-1.0,False,20,-1,0,0
PB032K19,4,201,AS,exp,30,←,no_key,no_letter,-1.0,False,21,-1,0,0
PB032K19,4,202,AS,exp,29,↓,down,↓,0.7471368000260554,True,22,-1,0,0
PB032K19,4,203,AS,exp,46,→,right,→,0.7516023999778554,True,22,1,1,1
PB032K19,4,204,AS,exp,43,↓,up,↑,0.8718582000001334,False,21,-1,1,2
PB032K19,4,205,AS,exp,50,←,left,←,0.5678726999904029,True,22,-1,0,2
PB032K19,4,206,AS,exp,31,↓,right,→,0.40035120001994073,False,22,-1,0,2
PB032K19,4,207,AS,exp,37,→,up,↑,1.1272594999754801,False,23,-1,0,2
PB032K19,4,208,AS,exp,32,←,left,←,0.6395640999544412,True,24,-1,0,2
PB032K19,4,209,AS,exp,45,↑,up,↑,0.60783240001183,True,24,1,1,3
PB032K19,4,210,AS,exp,45,←,up,↑,1.2359568999963813,False,23,-1,1,4
PB032K19,4,211,AS,exp,40,→,right,→,0.5855597999761812,True,24,-1,0,4
PB032K19,4,212,AS,exp,34,←,no_key,no_letter,-1.0,False,24,-1,0,4
PB032K19,4,213,AS,exp,47,→,left,←,0.9155511999852024,False,25,-1,0,4
PB032K19,4,214,AS,exp,37,↓,down,↓,0.79413580003893,True,26,-1,0,4
PB032K19,4,215,AS,exp,43,↑,up,↑,0.5004996999632567,True,26,1,1,5
PB032K19,4,216,AS,exp,31,↓,down,↓,0.5935508999973536,True,25,1,0,5
PB032K19,4,217,AS,exp,32,←,left,←,0.5334136000019498,True,25,1,0,5
PB032K19,4,218,AS,exp,26,↑,up,↑,0.6521765000070445,True,24,1,0,5
PB032K19,4,219,AS,exp,42,↓,down,↓,2.0671702999970876,True,24,1,0,5
PB032K19,4,220,AS,exp,26,←,no_key,no_letter,-1.0,False,23,-1,1,6
PB032K19,4,221,AS,exp,49,↑,up,↑,1.2931840000092052,True,24,-1,0,6
PB032K19,4,222,AS,exp,38,→,right,→,1.0813371999538504,True,24,1,1,7
PB032K19,4,223,AS,exp,38,↑,up,↑,0.4672333999769762,True,23,1,0,7
PB032K19,4,224,AS,exp,26,←,left,←,0.43350099999224767,True,23,1,0,7
PB032K19,4,225,AS,exp,37,↑,up,↑,0.8529672000440769,True,22,1,0,7
PB032K19,4,226,AS,exp,40,←,left,←,0.5342057999805547,True,22,1,0,7
PB032K19,4,227,AS,exp,29,↓,left,←,1.1275185000267811,False,21,-1,1,8
PB032K19,4,228,AS,exp,47,→,right,→,0.6635283000068739,True,22,-1,0,8
PB032K19,4,229,AS,exp,29,↓,down,↓,0.8708643999998458,True,22,1,1,9
PB032K19,4,230,AS,exp,31,←,left,←,1.7401385999983177,True,21,1,0,9
PB032K19,4,231,AS,exp,48,→,left,←,0.847628999967128,False,21,-1,1,10
PB032K19,4,232,AS,exp,39,←,no_key,no_letter,-1.0,False,22,-1,0,10
PB032K19,4,233,AS,exp,40,↓,down,↓,0.6738610999891534,True,23,-1,0,10
PB032K19,4,234,AS,exp,37,←,no_key,no_letter,-1.0,False,23,-1,0,10
PB032K19,4,235,AS,exp,49,↓,down,↓,0.5804301000316627,True,24,-1,0,10
PB032K19,4,236,AS,exp,48,←,left,←,0.6527353000128642,True,24,1,1,11
PB032K19,4,237,AS,exp,44,↑,up,↑,0.4170511999982409,True,23,1,0,11
PB032K19,4,238,AS,exp,45,←,left,←,0.6436802999814972,True,23,1,0,11
PB032K19,4,239,AS,exp,35,↑,up,↑,0.4505713999969885,True,22,1,0,11
PB032K19,4,240,AS,exp,26,←,left,←,0.5498631999944337,True,22,1,0,11
PB032K19,4,241,AS,exp,27,→,right,→,0.38370079995365813,True,21,1,0,11
PB032K19,4,242,AS,exp,38,↓,right,→,0.5812589999986812,False,21,-1,1,12
PB032K19,4,243,AS,exp,26,←,left,←,0.616428499983158,True,22,-1,0,12
PB032K19,4,244,AS,exp,48,↓,down,↓,0.807503700023517,True,22,1,1,13
PB032K19,4,245,AS,exp,34,↑,up,↑,0.8680029999813996,True,21,1,0,13
PB032K19,4,246,AS,exp,48,↓,down,↓,0.5476504000253044,True,21,1,0,13
PB032K19,4,247,AS,exp,36,←,left,←,0.4671099999686703,True,20,1,0,13
PB032K19,4,248,AS,exp,25,↓,down,↓,0.45046359999105334,True,20,1,0,13
PB032K19,4,249,AS,exp,43,→,right,→,0.8707180000492372,True,19,1,0,13
PB032K19,4,250,AS,exp,32,←,right,→,1.2099231000174768,False,19,-1,1,14
PB032K19,5,251,AS,intra_train,49,↑,up,↑,0.7287004999816418,True,28,-,-,-
PB032K19,5,252,AS,intra_train,44,←,left,←,0.450465300003998,True,28,-,-,-
PB032K19,5,253,AS,intra_train,27,↑,up,↑,0.6875175000168383,True,28,-,-,-
PB032K19,5,254,AS,intra_train,40,←,left,←,0.35115980001864955,True,28,-,-,-
PB032K19,5,255,AS,intra_train,37,↑,up,↑,0.5836859000264667,True,28,-,-,-
PB032K19,5,256,AS,exp,41,←,up,↑,0.9184760000207461,False,19,-1,0,0
PB032K19,5,257,AS,exp,49,↓,down,↓,0.575186499976553,True,20,-1,0,0
PB032K19,5,258,AS,exp,48,→,right,→,0.4672510999953374,True,20,1,1,1
PB032K19,5,259,AS,exp,36,↓,up,↑,0.8116373000084423,False,19,-1,1,2
PB032K19,5,260,AS,exp,40,→,right,→,0.7192742000333965,True,20,-1,0,2
PB032K19,5,261,AS,exp,41,←,left,←,1.4917975999996997,True,20,1,1,3
PB032K19,5,262,AS,exp,28,→,right,→,0.7439612000016496,True,19,1,0,3
PB032K19,5,263,AS,exp,44,↑,up,↑,0.8105049000005238,True,19,1,0,3
PB032K19,5,264,AS,exp,42,↓,down,↓,0.4988920000032522,True,18,1,0,3
PB032K19,5,265,AS,exp,34,→,right,→,0.3671778999851085,True,18,1,0,3
PB032K19,5,266,AS,exp,28,↑,up,↑,0.9461441999883391,True,17,1,0,3
PB032K19,5,267,AS,exp,47,↓,down,↓,0.4620708000147715,True,17,1,0,3
PB032K19,5,268,AS,exp,29,→,right,→,0.6151671999832615,True,16,1,0,3
PB032K19,5,269,AS,exp,35,←,right,→,0.5731029000016861,False,16,-1,1,4
PB032K19,5,270,AS,exp,33,↑,down,↓,0.773556100029964,False,17,-1,0,4
PB032K19,5,271,AS,exp,27,→,right,→,0.4840385999996215,True,18,-1,0,4
PB032K19,5,272,AS,exp,39,↓,down,↓,0.6467238999903202,True,18,1,1,5
PB032K19,5,273,AS,exp,45,←,right,→,0.4668299999902956,False,17,-1,1,6
PB032K19,5,274,AS,exp,47,→,right,→,0.4805452000000514,True,18,-1,0,6
PB032K19,5,275,AS,exp,49,↑,up,↑,0.520914199994877,True,18,1,1,7
PB032K19,5,276,AS,exp,40,←,up,↑,0.7303270000265911,False,17,-1,1,8
PB032K19,5,277,AS,exp,32,↓,right,→,1.1799887000233866,False,18,-1,0,8
PB032K19,5,278,AS,exp,43,←,left,←,0.7035491000278853,True,19,-1,0,8
PB032K19,5,279,AS,exp,25,↓,down,↓,0.6518310999963433,True,19,1,1,9
PB032K19,5,280,AS,exp,45,←,up,↑,0.8760600999812596,False,18,-1,1,10
PB032K19,5,281,AS,exp,33,→,right,→,0.6487899000057951,True,19,-1,0,10
PB032K19,5,282,AS,exp,44,↑,up,↑,0.9382607000297867,True,19,1,1,11
PB032K19,5,283,AS,exp,38,←,left,←,1.9655090000014752,True,18,1,0,11
PB032K19,5,284,AS,exp,37,↑,up,↑,0.5512894000275992,True,18,1,0,11
PB032K19,5,285,AS,exp,31,↓,down,↓,0.5199143000063486,True,17,1,0,11
PB032K19,5,286,AS,exp,37,→,right,→,0.7432503999443725,True,17,1,0,11
PB032K19,5,287,AS,exp,33,↑,up,↑,0.7792982999817468,True,16,1,0,11
PB032K19,5,288,AS,exp,31,↓,down,↓,0.43536719999974594,True,16,1,0,11
PB032K19,5,289,AS,exp,40,←,down,↓,0.637935699953232,False,15,-1,1,12
PB032K19,5,290,AS,exp,38,↑,up,↑,1.0891154000419192,True,16,-1,0,12
PB032K19,5,291,AS,exp,28,↓,down,↓,0.6177696000086144,True,16,1,1,13
PB032K19,5,292,AS,exp,29,↑,up,↑,0.6373624000116251,True,15,1,0,13
PB032K19,5,293,AS,exp,44,←,left,←,0.5348843999672681,True,15,1,0,13
PB032K19,5,294,AS,exp,27,↑,up,↑,0.4201119000208564,True,14,1,0,13
PB032K19,5,295,AS,exp,37,→,right,→,0.7587443999946117,True,14,1,0,13
PB032K19,5,296,AS,exp,40,↓,right,→,0.8091169000254013,False,13,-1,1,14
PB032K19,6,297,PS,intra_train,26,→,up,↑,0.9040767999831587,False,12,-,-,-
PB032K19,6,298,PS,intra_train,29,←,left,←,0.3747445999761112,True,12,-,-,-
PB032K19,6,299,PS,intra_train,37,↓,down,↓,0.5031394999823533,True,12,-,-,-
PB032K19,6,300,PS,intra_train,38,→,right,→,0.7528660999960266,True,12,-,-,-
PB032K19,6,301,PS,intra_train,34,←,left,←,0.5015805999864824,True,12,-,-,-
PB032K19,6,302,PS,exp,49,↓,down,↓,0.5141400000429712,True,8,0,0,0
PB032K19,6,303,PS,exp,36,←,left,←,0.9234147999668494,True,8,1,0,0
PB032K19,6,304,PS,exp,48,↑,left,←,0.9983367000240833,False,7,-1,1,1
PB032K19,6,305,PS,exp,29,↓,right,→,0.7603296999586746,False,8,-1,0,1
PB032K19,6,306,PS,exp,49,←,left,←,0.5011266000219621,True,9,-1,0,1
PB032K19,6,307,PS,exp,32,↓,down,↓,0.5201911000185646,True,9,1,1,2
PB032K19,6,308,PS,exp,28,←,down,↓,0.5415280999732204,False,8,-1,1,3
PB032K19,6,309,PS,exp,41,→,right,→,0.45426120003685355,True,9,-1,0,3
PB032K19,6,310,PS,exp,39,↑,left,←,1.0723939000163227,False,9,-1,0,3
PB032K19,6,311,PS,exp,29,←,left,←,0.4327099000220187,True,10,-1,0,3
PB032K19,6,312,PS,exp,47,→,right,→,0.46018609998282045,True,10,1,1,4
PB032K19,6,313,PS,exp,30,←,left,←,0.8455711999558844,True,9,1,0,4
PB032K19,6,314,PS,exp,32,→,right,→,0.5005136000108905,True,9,1,0,4
PB032K19,6,315,PS,exp,49,↓,down,↓,0.3623090999899432,True,8,1,0,4
PB032K19,6,316,PS,exp,31,→,right,→,0.4561443999991752,True,8,1,0,4
PB032K19,6,317,PS,exp,34,←,left,←,0.5637050999794155,True,7,1,0,4
PB032K19,6,318,PS,exp,36,↓,left,←,0.8355478000012226,False,7,-1,1,5
PB032K19,6,319,PS,exp,33,←,left,←,0.5821830999921076,True,8,-1,0,5
PB032K19,6,320,PS,exp,37,→,left,←,0.6392269000061788,False,8,-1,0,5
PB032K19,6,321,PS,exp,40,↑,up,↑,0.7762459000223316,True,9,-1,0,5
PB032K19,6,322,PS,exp,50,←,right,→,1.0123326000175439,False,9,-1,0,5
PB032K19,6,323,PS,exp,38,↓,down,↓,0.4680006999988109,True,10,-1,0,5
PB032K19,6,324,PS,exp,45,↑,up,↑,0.6880573999951594,True,10,1,1,6
PB032K19,6,325,PS,exp,40,→,left,←,0.6188550000078976,False,9,-1,1,7
PB032K19,6,326,PS,exp,34,↑,up,↑,0.6973209999850951,True,10,-1,0,7
PB032K19,6,327,PS,exp,39,→,up,↑,0.9751710999989882,False,10,-1,0,7
PB032K19,6,328,PS,exp,41,←,left,←,0.4263181999558583,True,11,-1,0,7
PB032K19,6,329,PS,exp,41,↑,up,↑,0.4788469999912195,True,11,1,1,8
PB032K19,6,330,PS,exp,38,↓,down,↓,0.5120147000416182,True,10,1,0,8
PB032K19,6,331,PS,exp,30,↑,up,↑,0.7319971999968402,True,10,1,0,8
PB032K19,6,332,PS,exp,41,↓,up,↑,0.9269159999676049,False,9,-1,1,9
PB032K19,6,333,PS,exp,42,←,left,←,0.5059595999773592,True,10,-1,0,9
PB032K19,6,334,PS,exp,32,→,right,→,0.4773546999786049,True,10,1,1,10
PB032K19,6,335,PS,exp,42,↑,left,←,0.6889302000054158,False,9,-1,1,11
PB032K19,6,336,PS,exp,48,→,left,←,0.8917634999961592,False,10,-1,0,11
PB032K19,6,337,PS,exp,26,←,right,→,0.865906500024721,False,11,-1,0,11
PB032K19,6,338,PS,exp,35,↓,down,↓,0.5525925999972969,True,12,-1,0,11
PB032K19,6,339,PS,exp,29,→,right,→,0.9339832999976352,True,12,1,1,12
PB032K19,6,340,PS,exp,35,↓,down,↓,0.4127384999883361,True,11,1,0,12
PB032K19,6,341,PS,exp,29,←,left,←,0.7100293000112288,True,11,1,0,12
PB032K19,6,342,PS,exp,30,↓,down,↓,0.3947030999697745,True,10,1,0,12
PB032K19,6,343,PS,exp,42,↑,right,→,0.7582960000145249,False,10,-1,1,13
PB032K19,6,344,PS,exp,32,↓,up,↑,0.9035632999730296,False,11,-1,0,13
PB032K19,6,345,PS,exp,33,←,right,→,0.6453596000210382,False,12,-1,0,13
PB032K19,6,346,PS,exp,41,→,right,→,0.5764576999936253,True,13,-1,0,13
PB032K19,6,347,PS,exp,39,↓,down,↓,0.4230507999891415,True,13,1,1,14
PB032K19,7,348,PS,intra_train,35,←,up,↑,1.0164987000171095,False,12,-,-,-
PB032K19,7,349,PS,intra_train,26,→,right,→,0.39707150001777336,True,12,-,-,-
PB032K19,7,350,PS,intra_train,40,↓,down,↓,0.5011109999613836,True,12,-,-,-
PB032K19,7,351,PS,intra_train,40,↑,up,↑,0.4135392000316642,True,12,-,-,-
PB032K19,7,352,PS,intra_train,34,←,left,←,0.38333979999879375,True,12,-,-,-
PB032K19,7,353,PS,exp,26,↓,down,↓,0.6199651000206359,True,8,0,0,0
PB032K19,7,354,PS,exp,35,↑,right,→,0.9712464999756776,False,8,-1,0,0
PB032K19,7,355,PS,exp,42,→,left,←,0.8609773999778554,False,9,-1,0,0
PB032K19,7,356,PS,exp,49,↑,left,←,0.7834903000039048,False,10,-1,0,0
PB032K19,7,357,PS,exp,32,→,right,→,0.703921900014393,True,11,-1,0,0
PB032K19,7,358,PS,exp,41,↓,down,↓,0.4948263999540359,True,11,1,1,1
PB032K19,7,359,PS,exp,33,↑,up,↑,0.5358429999905638,True,10,1,0,1
PB032K19,7,360,PS,exp,37,←,left,←,1.6152497999719344,True,10,1,0,1
PB032K19,7,361,PS,exp,44,↓,down,↓,0.5964726000092924,True,9,1,0,1
PB032K19,7,362,PS,exp,35,→,left,←,0.9296283000148833,False,9,-1,1,2
PB032K19,7,363,PS,exp,28,↓,down,↓,0.3976046000025235,True,10,-1,0,2
PB032K19,7,364,PS,exp,40,→,right,→,0.4227056000381708,True,10,1,1,3
PB032K19,7,365,PS,exp,40,←,left,←,0.43381669995142147,True,9,1,0,3
PB032K19,7,366,PS,exp,25,→,left,←,0.7888855999917723,False,9,-1,1,4
PB032K19,7,367,PS,exp,27,←,down,↓,0.7683923000004143,False,10,-1,0,4
PB032K19,7,368,PS,exp,50,→,left,←,0.7488936000154354,False,11,-1,0,4
PB032K19,7,369,PS,exp,27,↓,down,↓,0.5048550000065006,True,12,-1,0,4
PB032K19,7,370,PS,exp,43,←,left,←,0.47303259995533153,True,12,1,1,5
PB032K19,7,371,PS,exp,37,→,right,→,0.4823479999904521,True,11,1,0,5
PB032K19,7,372,PS,exp,31,↓,left,←,1.0336388999712653,False,11,-1,1,6
PB032K19,7,373,PS,exp,35,→,right,→,0.43386210000608116,True,12,-1,0,6
PB032K19,7,374,PS,exp,40,↑,up,↑,0.5007607999723405,True,12,1,1,7
PB032K19,7,375,PS,exp,35,→,up,↑,0.9241444999934174,False,11,-1,1,8
PB032K19,7,376,PS,exp,28,↓,down,↓,0.5088084999588318,True,12,-1,0,8
PB032K19,7,377,PS,exp,27,→,right,→,0.6054717000224628,True,12,1,1,9
PB032K19,7,378,PS,exp,42,←,right,→,0.6601113000069745,False,11,-1,1,10
PB032K19,7,379,PS,exp,48,↓,down,↓,0.4890229000011459,True,12,-1,0,10
PB032K19,7,380,PS,exp,40,←,left,←,0.42322820000117645,True,12,1,1,11
PB032K19,7,381,PS,exp,35,↑,down,↓,0.7380745999980718,False,11,-1,1,12
PB032K19,7,382,PS,exp,27,→,left,←,0.9362417999655008,False,12,-1,0,12
PB032K19,7,383,PS,exp,41,←,left,←,0.7599903999944218,True,13,-1,0,12
PB032K19,7,384,PS,exp,46,↓,right,→,1.2017906000255607,False,13,-1,0,12
PB032K19,7,385,PS,exp,33,↑,up,↑,0.5288411000510678,True,14,-1,0,12
PB032K19,7,386,PS,exp,50,→,right,→,0.5517501999856904,True,14,1,1,13
PB032K19,7,387,PS,exp,45,↑,up,↑,1.0080483000492677,True,13,1,0,13
PB032K19,7,388,PS,exp,45,→,up,↑,0.9256228000158444,False,13,-1,1,14
PB032K19,8,389,AS,intra_train,49,←,left,←,0.4837584000197239,True,28,-,-,-
PB032K19,8,390,AS,intra_train,39,↑,up,↑,0.43445399997290224,True,28,-,-,-
PB032K19,8,391,AS,intra_train,38,←,left,←,0.5336932000354864,True,28,-,-,-
PB032K19,8,392,AS,intra_train,35,→,up,↑,0.9759939000359736,False,28,-,-,-
PB032K19,8,393,AS,intra_train,25,←,right,→,0.5504130000481382,False,28,-,-,-
PB032K19,8,394,AS,exp,41,→,right,→,0.45028379996074364,True,19,0,0,0
PB032K19,8,395,AS,exp,44,↑,up,↑,0.40028780000284314,True,19,1,0,0
PB032K19,8,396,AS,exp,37,→,right,→,0.43361750000622123,True,18,1,0,0
PB032K19,8,397,AS,exp,35,←,left,←,0.696636300010141,True,18,1,0,0
PB032K19,8,398,AS,exp,49,↑,up,↑,0.7237509000115097,True,17,1,0,0
PB032K19,8,399,AS,exp,27,↓,down,↓,0.857459100021515,True,17,1,0,0
PB032K19,8,400,AS,exp,26,→,left,←,0.8050765999942087,False,16,-1,1,1
PB032K19,8,401,AS,exp,28,↑,up,↑,0.5202982999617234,True,17,-1,0,1
PB032K19,8,402,AS,exp,45,→,up,↑,0.9961316999979317,False,17,-1,0,1
PB032K19,8,403,AS,exp,48,↑,up,↑,1.0773765000049025,True,18,-1,0,1
PB032K19,8,404,AS,exp,38,→,right,→,0.433851899986621,True,18,1,1,2
PB032K19,8,405,AS,exp,26,↓,up,↑,1.0675606000004336,False,17,-1,1,3
PB032K19,8,406,AS,exp,33,←,left,←,0.8868176999967545,True,18,-1,0,3
PB032K19,8,407,AS,exp,38,↓,down,↓,0.480152900039684,True,18,1,1,4
PB032K19,8,408,AS,exp,26,↑,up,↑,0.5999672000179999,True,17,1,0,4
PB032K19,8,409,AS,exp,44,↓,down,↓,0.4928553000208922,True,17,1,0,4
PB032K19,8,410,AS,exp,31,↑,right,→,0.9001764999702573,False,16,-1,1,5
PB032K19,8,411,AS,exp,48,→,right,→,0.8663579999702051,True,17,-1,0,5
PB032K19,8,412,AS,exp,46,↓,right,→,1.2609811999718659,False,17,-1,0,5
PB032K19,8,413,AS,exp,50,↑,up,↑,0.8322024999652058,True,18,-1,0,5
PB032K19,8,414,AS,exp,25,↓,right,→,1.0131119000143372,False,18,-1,0,5
PB032K19,8,415,AS,exp,30,←,left,←,0.6993578000110574,True,19,-1,0,5
PB032K19,8,416,AS,exp,26,↓,down,↓,0.5958338000345975,True,19,1,1,6
PB032K19,8,417,AS,exp,34,←,left,←,0.5704698000336066,True,18,1,0,6
PB032K19,8,418,AS,exp,39,↑,up,↑,0.5599400000064634,True,18,1,0,6
PB032K19,8,419,AS,exp,34,→,up,↑,0.9326435999828391,False,17,-1,1,7
PB032K19,8,420,AS,exp,34,↓,down,↓,0.7515387000166811,True,18,-1,0,7
PB032K19,8,421,AS,exp,48,→,right,→,0.558184000023175,True,18,1,1,8
PB032K19,8,422,AS,exp,43,←,left,←,0.5676091999630444,True,17,1,0,8
PB032K19,8,423,AS,exp,44,→,left,←,0.7214456999790855,False,17,-1,1,9
PB032K19,8,424,AS,exp,42,←,down,↓,0.9590571000007913,False,18,-1,0,9
PB032K19,8,425,AS,exp,27,↓,up,↑,0.8384497000370175,False,19,-1,0,9
PB032K19,8,426,AS,exp,49,↑,up,↑,1.4413470000145026,True,20,-1,0,9
PB032K19,8,427,AS,exp,41,↓,left,←,0.8638492999598384,False,20,-1,0,9
PB032K19,8,428,AS,exp,49,←,left,←,0.4506167999934405,True,21,-1,0,9
PB032K19,8,429,AS,exp,28,→,up,↑,1.4902035999693908,False,21,-1,0,9
PB032K19,8,430,AS,exp,28,↓,down,↓,1.1378070999635383,True,22,-1,0,9
PB032K19,8,431,AS,exp,46,→,right,→,0.5517256999737583,True,22,1,1,10
PB032K19,8,432,AS,exp,34,↑,up,↑,0.760402099986095,True,21,1,0,10
PB032K19,8,433,AS,exp,34,←,left,←,0.4838547999970615,True,21,1,0,10
PB032K19,8,434,AS,exp,35,↓,left,←,0.6984485000139102,False,20,-1,1,11
PB032K19,8,435,AS,exp,32,↑,up,↑,0.5863485999871045,True,21,-1,0,11
PB032K19,8,436,AS,exp,33,←,no_key,no_letter,-1.0,False,21,-1,0,11
PB032K19,8,437,AS,exp,34,↑,up,↑,0.9009971999912523,True,22,-1,0,11
PB032K19,8,438,AS,exp,49,←,left,←,0.5923463000217453,True,22,1,1,12
PB032K19,8,439,AS,exp,46,↓,down,↓,0.7623821999877691,True,21,1,0,12
PB032K19,8,440,AS,exp,43,←,left,←,0.5378361000330187,True,21,1,0,12
PB032K19,8,441,AS,exp,46,↓,down,↓,0.5088835000060499,True,20,1,0,12
PB032K19,8,442,AS,exp,42,↑,up,↑,0.5036713000154123,True,20,1,0,12
PB032K19,8,443,AS,exp,49,←,left,←,0.485923099971842,True,19,1,0,12
PB032K19,8,444,AS,exp,39,↑,up,↑,0.4337314000003971,True,19,1,0,12
PB032K19,8,445,AS,exp,35,→,left,←,0.7437693999963813,False,18,-1,1,13
PB032K19,8,446,AS,exp,35,←,left,←,0.633781100041233,True,19,-1,0,13
PB032K19,8,447,AS,exp,34,→,right,→,0.7469441000139341,True,19,1,1,14
