PART_ID,Block_no,Trial_no,Block_type,Trial_type,CSI,Stim_letter,Key_pressed,letter_choose,Rt,Corr,Stimulus Time,Level,Reversal,Revs_count
PB030K24,1,1,PS,train,50,↓,down,↓,0.7123066000640392,True,30,-,-,-
PB030K24,1,2,PS,train,41,↑,up,↑,0.7979029000271112,True,30,-,-,-
PB030K24,1,3,PS,train,48,←,left,←,0.6900397000135854,True,30,-,-,-
PB030K24,1,4,PS,train,40,↓,down,↓,0.5337290000170469,True,30,-,-,-
PB030K24,1,5,PS,train,35,←,left,←,0.6172364000231028,True,30,-,-,-
PB030K24,1,6,PS,train,36,→,right,→,0.7030487000010908,True,30,-,-,-
PB030K24,1,7,PS,train,26,←,left,←,0.40119870007038116,True,30,-,-,-
PB030K24,1,8,PS,train,35,↓,down,↓,0.5672689999919385,True,30,-,-,-
PB030K24,1,9,PS,train,46,←,left,←,0.5673119999701157,True,30,-,-,-
PB030K24,1,10,PS,train,42,↑,up,↑,0.8698902999749407,True,30,-,-,-
PB030K24,2,11,AS,train,46,←,left,←,0.8174939000746235,True,45,-,-,-
PB030K24,2,12,AS,train,40,↑,up,↑,0.8172968000872061,True,45,-,-,-
PB030K24,2,13,AS,train,39,→,right,→,0.7013253999175504,True,45,-,-,-
PB030K24,2,14,AS,train,50,↑,up,↑,0.7179060999769717,True,45,-,-,-
PB030K24,2,15,AS,train,34,↓,down,↓,0.9281151999020949,True,45,-,-,-
PB030K24,2,16,AS,train,28,→,right,→,0.7504177000373602,True,45,-,-,-
PB030K24,2,17,AS,train,30,↑,up,↑,0.6345071999821812,True,45,-,-,-
PB030K24,2,18,AS,train,31,→,right,→,0.7511922999983653,True,45,-,-,-
PB030K24,2,19,AS,train,48,↓,down,↓,1.2325322999386117,True,45,-,-,-
PB030K24,2,20,AS,train,42,→,right,→,0.6511698999674991,True,45,-,-,-
PB030K24,-,21,PS,adaptive,34,←,right,→,0.38453439995646477,False,10,-1,0,0
PB030K24,-,22,PS,adaptive,30,→,right,→,0.5626253000227734,True,11,-1,0,0
PB030K24,-,23,PS,adaptive,40,←,left,←,0.5294554999563843,True,11,1,1,1
PB030K24,-,24,PS,adaptive,44,↑,no_key,no_letter,-1.0,False,10,-1,1,2
PB030K24,-,25,PS,adaptive,31,↓,down,↓,0.8051906999899074,True,11,-1,0,2
PB030K24,-,26,PS,adaptive,39,↑,up,↑,0.5952589999651536,True,11,1,1,3
PB030K24,-,27,PS,adaptive,25,←,left,←,0.5581932000350207,True,10,1,0,3
PB030K24,-,28,PS,adaptive,26,→,right,→,0.5444229000713676,True,10,1,0,3
PB030K24,-,29,PS,adaptive,29,↓,down,↓,0.8021696000359952,True,9,1,0,3
PB030K24,-,30,PS,adaptive,36,↑,up,↑,0.6076681000413373,True,9,1,0,3
PB030K24,-,31,PS,adaptive,34,←,left,←,0.6520336999092251,True,8,1,0,3
PB030K24,-,32,PS,adaptive,46,↑,up,↑,0.9005391999380663,True,8,1,0,3
PB030K24,-,33,PS,adaptive,43,←,right,→,0.7058794000186026,False,7,-1,1,4
PB030K24,-,34,AS,adaptive,27,↓,down,↓,0.8260374000528827,True,20,0,0,0
PB030K24,-,35,AS,adaptive,40,→,right,→,0.6782953999936581,True,20,1,0,0
PB030K24,-,36,AS,adaptive,48,↑,no_key,no_letter,-1.0,False,19,-1,1,1
PB030K24,-,37,AS,adaptive,27,→,right,→,0.772673700004816,True,20,-1,0,1
PB030K24,-,38,AS,adaptive,37,←,left,←,0.9172732000006363,True,20,1,1,2
PB030K24,-,39,AS,adaptive,47,↑,up,↑,0.7112009999109432,True,19,1,0,2
PB030K24,-,40,AS,adaptive,46,←,left,←,0.6495909000514075,True,19,1,0,2
PB030K24,-,41,AS,adaptive,28,↓,up,↑,1.0352034999523312,False,18,-1,1,3
PB030K24,-,42,AS,adaptive,49,↑,up,↑,0.8070135000161827,True,19,-1,0,3
PB030K24,-,43,AS,adaptive,31,↓,down,↓,0.6164254000177607,True,19,1,1,4
PB030K24,1,44,AS,intra_train,50,→,right,→,0.758437899989076,True,27,-,-,-
PB030K24,1,45,AS,intra_train,49,↓,down,↓,0.7083709000144154,True,27,-,-,-
PB030K24,1,46,AS,intra_train,41,→,right,→,0.6674057000782341,True,27,-,-,-
PB030K24,1,47,AS,intra_train,28,↓,down,↓,0.8445442999945953,True,27,-,-,-
PB030K24,1,48,AS,intra_train,42,←,left,←,0.695697300019674,True,27,-,-,-
PB030K24,1,49,AS,exp,32,↓,down,↓,0.7352170000085607,True,18,0,0,0
PB030K24,1,50,AS,exp,38,→,right,→,1.325979599962011,True,18,1,0,0
PB030K24,1,51,AS,exp,43,↓,down,↓,0.6003758000442758,True,17,1,0,0
PB030K24,1,52,AS,exp,26,←,left,←,0.8317386999260634,True,17,1,0,0
PB030K24,1,53,AS,exp,39,↑,up,↑,0.7478090999647975,True,16,1,0,0
PB030K24,1,54,AS,exp,42,→,right,→,0.7135516999987885,True,16,1,0,0
PB030K24,1,55,AS,exp,45,↑,right,→,1.0181967999087647,False,15,-1,1,1
PB030K24,1,56,AS,exp,35,→,left,←,0.6514091000426561,False,16,-1,0,1
PB030K24,1,57,AS,exp,27,↑,up,↑,0.8867338999407366,True,17,-1,0,1
PB030K24,1,58,AS,exp,34,→,right,→,0.5830987999215722,True,17,1,1,2
PB030K24,1,59,AS,exp,43,←,left,←,0.6774352999636903,True,16,1,0,2
PB030K24,1,60,AS,exp,38,↑,right,→,0.786412899964489,False,16,-1,1,3
PB030K24,1,61,AS,exp,41,→,right,→,0.6066148999379948,True,17,-1,0,3
PB030K24,1,62,AS,exp,40,↓,down,↓,0.8350971000036225,True,17,1,1,4
PB030K24,1,63,AS,exp,49,←,left,←,0.8252170999767259,True,16,1,0,4
PB030K24,1,64,AS,exp,30,→,left,←,0.7870550999650732,False,16,-1,1,5
PB030K24,1,65,AS,exp,46,↓,down,↓,0.66369489999488,True,17,-1,0,5
PB030K24,1,66,AS,exp,46,↑,down,↓,0.6822662999620661,False,17,-1,0,5
PB030K24,1,67,AS,exp,49,→,right,→,0.5145142000401393,True,18,-1,0,5
PB030K24,1,68,AS,exp,34,↓,down,↓,0.9564949000487104,True,18,1,1,6
PB030K24,1,69,AS,exp,35,←,left,←,0.5852081999182701,True,17,1,0,6
PB030K24,1,70,AS,exp,47,→,right,→,0.5168069000355899,True,17,1,0,6
PB030K24,1,71,AS,exp,46,←,left,←,0.7798597000073642,True,16,1,0,6
PB030K24,1,72,AS,exp,35,↑,up,↑,0.6522568999789655,True,16,1,0,6
PB030K24,1,73,AS,exp,33,↓,down,↓,0.5756419999524951,True,15,1,0,6
PB030K24,1,74,AS,exp,31,←,left,←,0.6129724000347778,True,15,1,0,6
PB030K24,1,75,AS,exp,41,↓,down,↓,0.9831690000137314,True,14,1,0,6
PB030K24,1,76,AS,exp,27,→,right,→,0.5052761000115424,True,14,1,0,6
PB030K24,1,77,AS,exp,50,←,left,←,0.5892604000400752,True,13,1,0,6
PB030K24,1,78,AS,exp,32,→,left,←,0.8934422999154776,False,13,-1,1,7
PB030K24,1,79,AS,exp,41,↑,up,↑,0.6511310999048874,True,14,-1,0,7
PB030K24,1,80,AS,exp,30,→,right,→,0.48662129999138415,True,14,1,1,8
PB030K24,1,81,AS,exp,34,↓,left,←,0.7300417999504134,False,13,-1,1,9
PB030K24,1,82,AS,exp,28,↑,up,↑,0.5390064000384882,True,14,-1,0,9
PB030K24,1,83,AS,exp,48,←,right,→,0.8160059000365436,False,14,-1,0,9
PB030K24,1,84,AS,exp,45,→,right,→,0.5201489999890327,True,15,-1,0,9
PB030K24,1,85,AS,exp,41,↑,up,↑,0.7840493000112474,True,15,1,1,10
PB030K24,1,86,AS,exp,27,→,up,↑,0.6954845000291243,False,14,-1,1,11
PB030K24,1,87,AS,exp,43,↓,down,↓,0.6539361999602988,True,15,-1,0,11
PB030K24,1,88,AS,exp,36,←,left,←,0.6897414000704885,True,15,1,1,12
PB030K24,1,89,AS,exp,43,↑,up,↑,0.5725289999973029,True,14,1,0,12
PB030K24,1,90,AS,exp,45,↓,up,↑,0.7159303999505937,False,14,-1,1,13
PB030K24,1,91,AS,exp,30,→,left,←,0.5778133999556303,False,15,-1,0,13
PB030K24,1,92,AS,exp,32,↓,down,↓,0.7242365999845788,True,16,-1,0,13
PB030K24,1,93,AS,exp,50,→,right,→,0.6679635000182316,True,16,1,1,14
PB030K24,2,94,PS,intra_train,35,↑,up,↑,0.6249700000043958,True,12,-,-,-
PB030K24,2,95,PS,intra_train,37,↓,down,↓,0.7216350000817329,True,12,-,-,-
PB030K24,2,96,PS,intra_train,42,→,right,→,0.46783479989971966,True,12,-,-,-
PB030K24,2,97,PS,intra_train,35,↓,down,↓,0.6776941999560222,True,12,-,-,-
PB030K24,2,98,PS,intra_train,45,↑,up,↑,0.6041076000547037,True,12,-,-,-
PB030K24,2,99,PS,exp,31,→,left,←,0.5118690000381321,False,8,-1,0,0
PB030K24,2,100,PS,exp,30,↓,left,←,0.6281422999454662,False,9,-1,0,0
PB030K24,2,101,PS,exp,34,↑,up,↑,0.5493915000697598,True,10,-1,0,0
PB030K24,2,102,PS,exp,49,←,left,←,0.6078466000035405,True,10,1,1,1
PB030K24,2,103,PS,exp,34,↓,left,←,0.6204618999036029,False,9,-1,1,2
PB030K24,2,104,PS,exp,30,↑,left,←,0.6652187999570742,False,10,-1,0,2
PB030K24,2,105,PS,exp,39,→,right,→,0.4627763000316918,True,11,-1,0,2
PB030K24,2,106,PS,exp,30,↓,down,↓,0.5248384999576956,True,11,1,1,3
PB030K24,2,107,PS,exp,39,↑,up,↑,0.597003500093706,True,10,1,0,3
PB030K24,2,108,PS,exp,47,→,right,→,0.4771239999681711,True,10,1,0,3
PB030K24,2,109,PS,exp,38,←,left,←,0.6059345999965444,True,9,1,0,3
PB030K24,2,110,PS,exp,28,→,left,←,0.764414600096643,False,9,-1,1,4
PB030K24,2,111,PS,exp,31,↓,down,↓,0.5647826000349596,True,10,-1,0,4
PB030K24,2,112,PS,exp,29,←,left,←,0.45977259997744113,True,10,1,1,5
PB030K24,2,113,PS,exp,45,→,left,←,0.7310989999677986,False,9,-1,1,6
PB030K24,2,114,PS,exp,50,↑,up,↑,0.7073081999551505,True,10,-1,0,6
PB030K24,2,115,PS,exp,38,↓,down,↓,0.7260815999470651,True,10,1,1,7
PB030K24,2,116,PS,exp,26,→,right,→,0.5312008999753743,True,9,1,0,7
PB030K24,2,117,PS,exp,48,←,left,←,0.5232528999913484,True,9,1,0,7
PB030K24,2,118,PS,exp,28,↑,up,↑,0.6229845000198111,True,8,1,0,7
PB030K24,2,119,PS,exp,40,←,left,←,0.5971349000465125,True,8,1,0,7
PB030K24,2,120,PS,exp,36,↑,up,↑,0.6138749000383541,True,7,1,0,7
PB030K24,2,121,PS,exp,48,→,right,→,0.5589152999455109,True,7,1,0,7
PB030K24,2,122,PS,exp,37,↑,up,↑,0.6687706999946386,True,6,1,0,7
PB030K24,2,123,PS,exp,27,↓,left,←,0.743866499979049,False,6,-1,1,8
PB030K24,2,124,PS,exp,32,↑,up,↑,0.5903772000456229,True,7,-1,0,8
PB030K24,2,125,PS,exp,50,→,right,→,0.5107940000016242,True,7,1,1,9
PB030K24,2,126,PS,exp,29,←,left,←,0.62177349999547,True,6,1,0,9
PB030K24,2,127,PS,exp,45,↑,up,↑,0.5245871000224724,True,6,1,0,9
PB030K24,2,128,PS,exp,38,←,left,←,0.4313014999497682,True,5,1,0,9
PB030K24,2,129,PS,exp,46,→,right,→,0.5433019999181852,True,5,1,0,9
PB030K24,2,130,PS,exp,32,↓,up,↑,0.6501145999645814,False,4,-1,1,10
PB030K24,2,131,PS,exp,26,→,left,←,0.5586819000309333,False,5,-1,0,10
PB030K24,2,132,PS,exp,29,↑,right,→,0.5866009999299422,False,6,-1,0,10
PB030K24,2,133,PS,exp,35,→,right,→,0.5540918000042439,True,7,-1,0,10
PB030K24,2,134,PS,exp,39,←,right,→,0.834880999987945,False,7,-1,0,10
PB030K24,2,135,PS,exp,39,→,right,→,0.44675440003629774,True,8,-1,0,10
PB030K24,2,136,PS,exp,31,↓,down,↓,1.1644133999943733,True,8,1,1,11
PB030K24,2,137,PS,exp,48,←,left,←,0.5205003001028672,True,7,1,0,11
PB030K24,2,138,PS,exp,43,→,right,→,0.4780589999863878,True,7,1,0,11
PB030K24,2,139,PS,exp,49,←,up,↑,0.7393515000585467,False,6,-1,1,12
PB030K24,2,140,PS,exp,34,↓,down,↓,0.4838152000447735,True,7,-1,0,12
PB030K24,2,141,PS,exp,30,←,right,→,0.6435054000467062,False,7,-1,0,12
PB030K24,2,142,PS,exp,26,↑,right,→,0.5680443999590352,False,8,-1,0,12
PB030K24,2,143,PS,exp,30,↓,down,↓,0.5503295001108199,True,9,-1,0,12
PB030K24,2,144,PS,exp,32,→,right,→,0.3861092000734061,True,9,1,1,13
PB030K24,2,145,PS,exp,28,↑,up,↑,0.5416494000237435,True,8,1,0,13
PB030K24,2,146,PS,exp,31,←,right,→,1.1263457000022754,False,8,-1,1,14
PB030K24,3,147,PS,intra_train,39,→,right,→,0.4828026000177488,True,12,-,-,-
PB030K24,3,148,PS,intra_train,27,↓,no_key,no_letter,-1.0,False,12,-,-,-
PB030K24,3,149,PS,intra_train,45,←,left,←,0.49456859997007996,True,12,-,-,-
PB030K24,3,150,PS,intra_train,33,→,right,→,0.43010130000766367,True,12,-,-,-
PB030K24,3,151,PS,intra_train,30,←,left,←,0.3854991999687627,True,12,-,-,-
PB030K24,3,152,PS,exp,28,↓,left,←,0.6888370000524446,False,8,-1,0,0
PB030K24,3,153,PS,exp,45,←,left,←,0.6222309999866411,True,9,-1,0,0
PB030K24,3,154,PS,exp,47,→,left,←,0.7112707999767736,False,9,-1,0,0
PB030K24,3,155,PS,exp,33,↓,left,←,0.8123203999130055,False,10,-1,0,0
PB030K24,3,156,PS,exp,26,→,right,→,0.49337329994887114,True,11,-1,0,0
PB030K24,3,157,PS,exp,30,←,left,←,0.5829349000705406,True,11,1,1,1
PB030K24,3,158,PS,exp,26,↑,up,↑,0.6426350000547245,True,10,1,0,1
PB030K24,3,159,PS,exp,25,→,left,←,0.5781951999524608,False,10,-1,1,2
PB030K24,3,160,PS,exp,43,←,left,←,0.49508149991743267,True,11,-1,0,2
PB030K24,3,161,PS,exp,32,→,right,→,0.4353298000060022,True,11,1,1,3
PB030K24,3,162,PS,exp,37,←,left,←,0.6657247999683022,True,10,1,0,3
PB030K24,3,163,PS,exp,37,↓,down,↓,0.574013099889271,True,10,1,0,3
PB030K24,3,164,PS,exp,30,↑,up,↑,1.4498092000139877,True,9,1,0,3
PB030K24,3,165,PS,exp,37,←,left,←,0.48507149994838983,True,9,1,0,3
PB030K24,3,166,PS,exp,25,↓,left,←,0.5954645000165328,False,8,-1,1,4
PB030K24,3,167,PS,exp,27,↑,left,←,0.6994916000403464,False,9,-1,0,4
PB030K24,3,168,PS,exp,40,←,left,←,0.3926430999999866,True,10,-1,0,4
PB030K24,3,169,PS,exp,45,↓,left,←,0.3454444999806583,False,10,-1,0,4
PB030K24,3,170,PS,exp,31,↑,left,←,0.6809953000629321,False,11,-1,0,4
PB030K24,3,171,PS,exp,30,←,left,←,0.45728979993145913,True,12,-1,0,4
PB030K24,3,172,PS,exp,25,→,left,←,0.6809223000891507,False,12,-1,0,4
PB030K24,3,173,PS,exp,33,←,left,←,0.45459960005246103,True,13,-1,0,4
PB030K24,3,174,PS,exp,39,↓,left,←,1.0848255000310019,False,13,-1,0,4
PB030K24,3,175,PS,exp,31,←,left,←,0.41576239990536124,True,14,-1,0,4
PB030K24,3,176,PS,exp,42,↓,down,↓,0.657177000073716,True,14,1,1,5
PB030K24,3,177,PS,exp,46,→,right,→,0.6267857999773696,True,13,1,0,5
PB030K24,3,178,PS,exp,49,←,left,←,0.40434070001356304,True,13,1,0,5
PB030K24,3,179,PS,exp,45,→,right,→,0.3779586999444291,True,12,1,0,5
PB030K24,3,180,PS,exp,31,↑,up,↑,0.6988829000620171,True,12,1,0,5
PB030K24,3,181,PS,exp,41,↓,down,↓,0.5958651000401005,True,11,1,0,5
PB030K24,3,182,PS,exp,41,↑,up,↑,0.6227325999643654,True,11,1,0,5
PB030K24,3,183,PS,exp,26,↓,down,↓,0.5535197000717744,True,10,1,0,5
PB030K24,3,184,PS,exp,46,←,left,←,0.5729301000246778,True,10,1,0,5
PB030K24,3,185,PS,exp,25,↑,left,←,0.6607302000047639,False,9,-1,1,6
PB030K24,3,186,PS,exp,29,→,right,→,0.44088340003509074,True,10,-1,0,6
PB030K24,3,187,PS,exp,47,↑,up,↑,0.6089170998893678,True,10,1,1,7
PB030K24,3,188,PS,exp,50,→,right,→,0.5239103999920189,True,9,1,0,7
PB030K24,3,189,PS,exp,33,↑,down,↓,0.6971619999967515,False,9,-1,1,8
PB030K24,3,190,PS,exp,27,↓,left,←,1.0869343999074772,False,10,-1,0,8
PB030K24,3,191,PS,exp,39,←,left,←,0.5457448000088334,True,11,-1,0,8
PB030K24,3,192,PS,exp,27,↓,up,↑,1.1048471999820322,False,11,-1,0,8
PB030K24,3,193,PS,exp,40,→,right,→,0.5755789999384433,True,12,-1,0,8
PB030K24,3,194,PS,exp,49,←,right,→,0.7884603999555111,False,12,-1,0,8
PB030K24,3,195,PS,exp,47,→,right,→,0.5531605000142008,True,13,-1,0,8
PB030K24,3,196,PS,exp,37,↑,up,↑,0.6599163999781013,True,13,1,1,9
PB030K24,3,197,PS,exp,37,↓,up,↑,0.9774569000583142,False,12,-1,1,10
PB030K24,3,198,PS,exp,36,↑,right,→,0.7098890000488609,False,13,-1,0,10
PB030K24,3,199,PS,exp,36,←,left,←,0.6043470000149682,True,14,-1,0,10
PB030K24,3,200,PS,exp,25,↓,right,→,0.828770300024189,False,14,-1,0,10
PB030K24,3,201,PS,exp,47,↑,up,↑,0.5387353000696748,True,15,-1,0,10
PB030K24,3,202,PS,exp,33,←,left,←,0.48297490004915744,True,15,1,1,11
PB030K24,3,203,PS,exp,48,↑,up,↑,0.599182500038296,True,14,1,0,11
PB030K24,3,204,PS,exp,33,←,left,←,0.6606102000223473,True,14,1,0,11
PB030K24,3,205,PS,exp,30,↓,down,↓,0.657766499905847,True,13,1,0,11
PB030K24,3,206,PS,exp,48,→,right,→,0.5102316000266001,True,13,1,0,11
PB030K24,3,207,PS,exp,28,↓,down,↓,0.6170526000205427,True,12,1,0,11
PB030K24,3,208,PS,exp,29,↑,up,↑,0.5118080000393093,True,12,1,0,11
PB030K24,3,209,PS,exp,39,→,right,→,0.4949703000020236,True,11,1,0,11
PB030K24,3,210,PS,exp,26,↑,up,↑,0.586751600028947,True,11,1,0,11
PB030K24,3,211,PS,exp,47,←,left,←,0.6045491000404581,True,10,1,0,11
PB030K24,3,212,PS,exp,35,↓,down,↓,0.5937880999408662,True,10,1,0,11
PB030K24,3,213,PS,exp,48,→,right,→,0.5250883999979123,True,9,1,0,11
PB030K24,3,214,PS,exp,37,←,left,←,0.5211182999191806,True,9,1,0,11
PB030K24,3,215,PS,exp,26,→,right,→,0.4104560000123456,True,8,1,0,11
PB030K24,3,216,PS,exp,44,↓,up,↑,0.8419265999691561,False,8,-1,1,12
PB030K24,3,217,PS,exp,41,↑,up,↑,1.0955502999713644,True,9,-1,0,12
PB030K24,3,218,PS,exp,28,↓,down,↓,0.7991280999267474,True,9,1,1,13
PB030K24,3,219,PS,exp,25,→,right,→,0.5596578000113368,True,8,1,0,13
PB030K24,3,220,PS,exp,39,↑,left,←,0.7650727999862283,False,8,-1,1,14
PB030K24,4,221,AS,intra_train,35,↓,down,↓,0.8322965999832377,True,27,-,-,-
PB030K24,4,222,AS,intra_train,34,→,right,→,0.6529954000143334,True,27,-,-,-
PB030K24,4,223,AS,intra_train,39,←,left,←,0.756646899972111,True,27,-,-,-
PB030K24,4,224,AS,intra_train,43,↑,left,←,0.5006377999670804,False,27,-,-,-
PB030K24,4,225,AS,intra_train,41,↓,down,↓,0.5840185000561178,True,27,-,-,-
PB030K24,4,226,AS,exp,32,→,left,←,1.0831518999766558,False,18,-1,0,0
PB030K24,4,227,AS,exp,38,↑,right,→,1.18118830001913,False,19,-1,0,0
PB030K24,4,228,AS,exp,40,→,right,→,0.7237675000214949,True,20,-1,0,0
PB030K24,4,229,AS,exp,40,↓,right,→,0.9509533999953419,False,20,-1,0,0
PB030K24,4,230,AS,exp,42,←,left,←,0.7031588000245392,True,21,-1,0,0
PB030K24,4,231,AS,exp,35,↑,up,↑,0.88144850009121,True,21,1,1,1
PB030K24,4,232,AS,exp,36,↓,right,→,1.266613500076346,False,20,-1,1,2
PB030K24,4,233,AS,exp,50,←,left,←,0.6301637999713421,True,21,-1,0,2
PB030K24,4,234,AS,exp,41,→,right,→,0.7000002000713721,True,21,1,1,3
PB030K24,4,235,AS,exp,28,↓,right,→,0.7745008999481797,False,20,-1,1,4
PB030K24,4,236,AS,exp,31,↑,down,↓,0.7557713999412954,False,21,-1,0,4
PB030K24,4,237,AS,exp,29,←,left,←,0.7536470000632107,True,22,-1,0,4
PB030K24,4,238,AS,exp,36,→,left,←,0.7756953000789508,False,22,-1,0,4
PB030K24,4,239,AS,exp,36,↓,down,↓,0.9232835998991504,True,23,-1,0,4
PB030K24,4,240,AS,exp,46,←,left,←,0.5850029999855906,True,23,1,1,5
PB030K24,4,241,AS,exp,44,↓,down,↓,0.8091744999401271,True,22,1,0,5
PB030K24,4,242,AS,exp,39,←,left,←,0.7199081000871956,True,22,1,0,5
PB030K24,4,243,AS,exp,39,↑,up,↑,0.8026289999252185,True,21,1,0,5
PB030K24,4,244,AS,exp,32,←,left,←,0.8040069999406114,True,21,1,0,5
PB030K24,4,245,AS,exp,35,↑,up,↑,0.60188760003075,True,20,1,0,5
PB030K24,4,246,AS,exp,28,→,right,→,1.3897871000226587,True,20,1,0,5
PB030K24,4,247,AS,exp,44,←,left,←,0.6704362999880686,True,19,1,0,5
PB030K24,4,248,AS,exp,34,→,right,→,0.6261731999693438,True,19,1,0,5
PB030K24,4,249,AS,exp,29,↑,up,↑,0.7994631000328809,True,18,1,0,5
PB030K24,4,250,AS,exp,29,→,right,→,0.5470839999616146,True,18,1,0,5
PB030K24,4,251,AS,exp,43,←,left,←,0.4582634000107646,True,17,1,0,5
PB030K24,4,252,AS,exp,31,↑,no_key,no_letter,-1.0,False,17,-1,1,6
PB030K24,4,253,AS,exp,45,↓,left,←,0.8614114000229165,False,18,-1,0,6
PB030K24,4,254,AS,exp,36,↑,up,↑,0.5116815000073984,True,19,-1,0,6
PB030K24,4,255,AS,exp,41,→,right,→,0.567542799981311,True,19,1,1,7
PB030K24,4,256,AS,exp,34,↑,left,←,0.9594489000737667,False,18,-1,1,8
PB030K24,4,257,AS,exp,45,→,no_key,no_letter,-1.0,False,19,-1,0,8
PB030K24,4,258,AS,exp,31,↓,down,↓,0.9471911999862641,True,20,-1,0,8
PB030K24,4,259,AS,exp,27,→,right,→,0.6506404998945072,True,20,1,1,9
PB030K24,4,260,AS,exp,35,↑,up,↑,0.41713289998006076,True,19,1,0,9
PB030K24,4,261,AS,exp,45,↓,down,↓,0.7679412999423221,True,19,1,0,9
PB030K24,4,262,AS,exp,40,←,left,←,0.7289434000849724,True,18,1,0,9
PB030K24,4,263,AS,exp,31,↑,up,↑,0.636735999956727,True,18,1,0,9
PB030K24,4,264,AS,exp,30,←,left,←,0.6025334000587463,True,17,1,0,9
PB030K24,4,265,AS,exp,40,↓,down,↓,0.781946099945344,True,17,1,0,9
PB030K24,4,266,AS,exp,34,←,left,←,0.3834454999305308,True,16,1,0,9
PB030K24,4,267,AS,exp,28,↓,up,↑,0.8508974000578746,False,16,-1,1,10
PB030K24,4,268,AS,exp,38,↑,up,↑,0.5117281000129879,True,17,-1,0,10
PB030K24,4,269,AS,exp,36,←,left,←,0.6034745000069961,True,17,1,1,11
PB030K24,4,270,AS,exp,30,→,right,→,0.6943885999498889,True,16,1,0,11
PB030K24,4,271,AS,exp,37,↓,right,→,0.9543535000411794,False,16,-1,1,12
PB030K24,4,272,AS,exp,48,↑,up,↑,0.7339775000000373,True,17,-1,0,12
PB030K24,4,273,AS,exp,37,←,left,←,0.6483379999408498,True,17,1,1,13
PB030K24,4,274,AS,exp,50,↓,up,↑,0.8488733000122011,False,16,-1,1,14
PB030K24,5,275,AS,intra_train,32,→,right,→,0.7789193000644445,True,27,-,-,-
PB030K24,5,276,AS,intra_train,45,↑,up,↑,0.6204272999893874,True,27,-,-,-
PB030K24,5,277,AS,intra_train,42,←,no_key,no_letter,-1.0,False,27,-,-,-
PB030K24,5,278,AS,intra_train,28,↑,up,↑,0.8131683999672532,True,27,-,-,-
PB030K24,5,279,AS,intra_train,49,←,left,←,0.75540720007848,True,27,-,-,-
PB030K24,5,280,AS,exp,32,↑,up,↑,0.5639743000501767,True,18,0,0,0
PB030K24,5,281,AS,exp,40,←,up,↑,0.9909063999075443,False,18,-1,0,0
PB030K24,5,282,AS,exp,42,→,left,←,0.5949204000644386,False,19,-1,0,0
PB030K24,5,283,AS,exp,39,↑,up,↑,0.550830899970606,True,20,-1,0,0
PB030K24,5,284,AS,exp,48,←,left,←,0.6290382000152022,True,20,1,1,1
PB030K24,5,285,AS,exp,46,→,right,→,0.6800217001000419,True,19,1,0,1
PB030K24,5,286,AS,exp,48,←,no_key,no_letter,-1.0,False,19,-1,1,2
PB030K24,5,287,AS,exp,49,→,right,→,0.6542241000570357,True,20,-1,0,2
PB030K24,5,288,AS,exp,44,←,left,←,0.5520928999176249,True,20,1,1,3
PB030K24,5,289,AS,exp,41,↑,up,↑,0.6459527999395505,True,19,1,0,3
PB030K24,5,290,AS,exp,28,→,right,→,0.6809000000357628,True,19,1,0,3
PB030K24,5,291,AS,exp,41,←,left,←,0.5901009000372142,True,18,1,0,3
PB030K24,5,292,AS,exp,42,→,right,→,0.8436548999743536,True,18,1,0,3
PB030K24,5,293,AS,exp,35,↑,up,↑,0.5901241999818012,True,17,1,0,3
PB030K24,5,294,AS,exp,44,←,left,←,0.5868611999321729,True,17,1,0,3
PB030K24,5,295,AS,exp,32,↓,up,↑,0.695199100067839,False,16,-1,1,4
PB030K24,5,296,AS,exp,38,←,left,←,0.5636207000352442,True,17,-1,0,4
PB030K24,5,297,AS,exp,40,↓,down,↓,0.8200221000006422,True,17,1,1,5
PB030K24,5,298,AS,exp,29,↑,down,↓,0.7669828000944108,False,16,-1,1,6
PB030K24,5,299,AS,exp,38,↓,down,↓,0.5533382999710739,True,17,-1,0,6
PB030K24,5,300,AS,exp,44,←,left,←,0.6214800999732688,True,17,1,1,7
PB030K24,5,301,AS,exp,40,↓,down,↓,0.600705899996683,True,16,1,0,7
PB030K24,5,302,AS,exp,37,→,right,→,0.6362239000154659,True,16,1,0,7
PB030K24,5,303,AS,exp,38,↑,down,↓,0.6692639999091625,False,15,-1,1,8
PB030K24,5,304,AS,exp,26,→,right,→,0.5504955999786034,True,16,-1,0,8
PB030K24,5,305,AS,exp,29,←,left,←,0.5962395999813452,True,16,1,1,9
PB030K24,5,306,AS,exp,39,↑,up,↑,0.4994763999711722,True,15,1,0,9
PB030K24,5,307,AS,exp,48,←,left,←,0.8410231000743806,True,15,1,0,9
PB030K24,5,308,AS,exp,34,↓,left,←,0.703366499976255,False,14,-1,1,10
PB030K24,5,309,AS,exp,47,←,right,→,0.8093521000118926,False,15,-1,0,10
PB030K24,5,310,AS,exp,36,↑,up,↑,0.6135403999360278,True,16,-1,0,10
PB030K24,5,311,AS,exp,47,←,left,←,0.589596200035885,True,16,1,1,11
PB030K24,5,312,AS,exp,47,→,left,←,0.6030734999803826,False,15,-1,1,12
PB030K24,5,313,AS,exp,34,←,left,←,0.5903231999836862,True,16,-1,0,12
PB030K24,5,314,AS,exp,35,↓,down,↓,0.8154895999468863,True,16,1,1,13
PB030K24,5,315,AS,exp,48,←,left,←,0.8107984999660403,True,15,1,0,13
PB030K24,5,316,AS,exp,48,↑,up,↑,0.5237997999647632,True,15,1,0,13
PB030K24,5,317,AS,exp,48,↓,down,↓,0.7994319000281394,True,14,1,0,13
PB030K24,5,318,AS,exp,48,↑,down,↓,0.7398963000159711,False,14,-1,1,14
PB030K24,6,319,PS,intra_train,33,←,left,←,0.5585844999877736,True,12,-,-,-
PB030K24,6,320,PS,intra_train,25,↓,left,←,0.8218565999995917,False,12,-,-,-
PB030K24,6,321,PS,intra_train,37,↑,up,↑,0.6180249999742955,True,12,-,-,-
PB030K24,6,322,PS,intra_train,28,↓,down,↓,0.6141800000332296,True,12,-,-,-
PB030K24,6,323,PS,intra_train,41,→,right,→,0.6283045000163838,True,12,-,-,-
PB030K24,6,324,PS,exp,29,←,left,←,0.5050773000111803,True,8,0,0,0
PB030K24,6,325,PS,exp,46,↑,up,↑,0.5586756999837235,True,8,1,0,0
PB030K24,6,326,PS,exp,35,←,left,←,0.40914130001328886,True,7,1,0,0
PB030K24,6,327,PS,exp,39,→,right,→,0.57511960004922,True,7,1,0,0
PB030K24,6,328,PS,exp,30,↓,left,←,0.5874624999705702,False,6,-1,1,1
PB030K24,6,329,PS,exp,41,→,left,←,0.7522756000980735,False,7,-1,0,1
PB030K24,6,330,PS,exp,48,←,left,←,0.409468200057745,True,8,-1,0,1
PB030K24,6,331,PS,exp,49,→,right,→,0.4744876999175176,True,8,1,1,2
PB030K24,6,332,PS,exp,26,↓,left,←,0.7461826999206096,False,7,-1,1,3
PB030K24,6,333,PS,exp,29,←,left,←,0.452225900022313,True,8,-1,0,3
PB030K24,6,334,PS,exp,37,→,right,→,0.41684829990845174,True,8,1,1,4
PB030K24,6,335,PS,exp,30,↓,down,↓,0.8261113999178633,True,7,1,0,4
PB030K24,6,336,PS,exp,33,→,right,→,0.3992778999963775,True,7,1,0,4
PB030K24,6,337,PS,exp,36,←,left,←,0.5137867000885308,True,6,1,0,4
PB030K24,6,338,PS,exp,32,↑,up,↑,0.4668465000577271,True,6,1,0,4
PB030K24,6,339,PS,exp,37,↓,right,→,0.6431326000019908,False,5,-1,1,5
PB030K24,6,340,PS,exp,34,←,right,→,0.49315580003894866,False,6,-1,0,5
PB030K24,6,341,PS,exp,32,↓,up,↑,1.287736100028269,False,7,-1,0,5
PB030K24,6,342,PS,exp,38,↑,up,↑,0.4546511999797076,True,8,-1,0,5
PB030K24,6,343,PS,exp,46,↓,down,↓,0.5335965999402106,True,8,1,1,6
PB030K24,6,344,PS,exp,35,→,right,→,0.4109830000670627,True,7,1,0,6
PB030K24,6,345,PS,exp,40,↑,right,→,0.5971600000048056,False,7,-1,1,7
PB030K24,6,346,PS,exp,39,→,right,→,0.46705880004446954,True,8,-1,0,7
PB030K24,6,347,PS,exp,37,↑,right,→,0.4766592000378296,False,8,-1,0,7
PB030K24,6,348,PS,exp,36,←,left,←,0.4542383999796584,True,9,-1,0,7
PB030K24,6,349,PS,exp,38,↑,left,←,0.5344235000666231,False,9,-1,0,7
PB030K24,6,350,PS,exp,41,←,left,←,0.5323930999729782,True,10,-1,0,7
PB030K24,6,351,PS,exp,26,↑,up,↑,0.6661327000474557,True,10,1,1,8
PB030K24,6,352,PS,exp,27,↓,right,→,0.6006127999862656,False,9,-1,1,9
PB030K24,6,353,PS,exp,39,↑,up,↑,0.8548934999853373,True,10,-1,0,9
PB030K24,6,354,PS,exp,41,→,up,↑,1.3242345999460667,False,10,-1,0,9
PB030K24,6,355,PS,exp,29,↑,up,↑,0.8510269999969751,True,11,-1,0,9
PB030K24,6,356,PS,exp,42,↓,right,→,0.7057856000028551,False,11,-1,0,9
PB030K24,6,357,PS,exp,42,→,right,→,0.5758071999298409,True,12,-1,0,9
PB030K24,6,358,PS,exp,39,↓,down,↓,0.7249708999879658,True,12,1,1,10
PB030K24,6,359,PS,exp,31,→,right,→,0.5003140000626445,True,11,1,0,10
PB030K24,6,360,PS,exp,30,↓,down,↓,0.65019949991256,True,11,1,0,10
PB030K24,6,361,PS,exp,33,→,right,→,0.5257236000616103,True,10,1,0,10
PB030K24,6,362,PS,exp,26,←,right,→,0.4805159999523312,False,10,-1,1,11
PB030K24,6,363,PS,exp,44,↓,right,→,0.40575630008243024,False,11,-1,0,11
PB030K24,6,364,PS,exp,30,←,left,←,1.624624100048095,True,12,-1,0,11
PB030K24,6,365,PS,exp,46,↑,up,↑,0.5560792000032961,True,12,1,1,12
PB030K24,6,366,PS,exp,28,→,right,→,0.5699002000037581,True,11,1,0,12
PB030K24,6,367,PS,exp,42,↑,up,↑,0.592031899956055,True,11,1,0,12
PB030K24,6,368,PS,exp,27,↓,down,↓,0.6666880999691784,True,10,1,0,12
PB030K24,6,369,PS,exp,50,→,right,→,0.6165223000571132,True,10,1,0,12
PB030K24,6,370,PS,exp,27,↑,right,→,0.4890414000255987,False,9,-1,1,13
PB030K24,6,371,PS,exp,36,→,right,→,0.4189900999190286,True,10,-1,0,13
PB030K24,6,372,PS,exp,46,↑,up,↑,0.5766829999629408,True,10,1,1,14
PB030K24,7,373,PS,intra_train,29,←,left,←,0.5264289999613538,True,12,-,-,-
PB030K24,7,374,PS,intra_train,36,→,right,→,0.43164760002400726,True,12,-,-,-
PB030K24,7,375,PS,intra_train,35,↑,up,↑,0.47360839997418225,True,12,-,-,-
PB030K24,7,376,PS,intra_train,38,↓,up,↑,0.7498109999578446,False,12,-,-,-
PB030K24,7,377,PS,intra_train,45,→,left,←,0.4284186000004411,False,12,-,-,-
PB030K24,7,378,PS,exp,35,↑,up,↑,0.7152140999678522,True,8,0,0,0
PB030K24,7,379,PS,exp,27,←,right,→,0.5952201000181958,False,8,-1,0,0
PB030K24,7,380,PS,exp,35,→,right,→,0.41804210003465414,True,9,-1,0,0
PB030K24,7,381,PS,exp,31,←,left,←,0.5828304999740794,True,9,1,1,1
PB030K24,7,382,PS,exp,46,→,up,↑,0.6627397999400273,False,8,-1,1,2
PB030K24,7,383,PS,exp,46,↓,up,↑,1.1518016998888925,False,9,-1,0,2
PB030K24,7,384,PS,exp,39,←,left,←,0.5024066999321803,True,10,-1,0,2
PB030K24,7,385,PS,exp,30,↓,up,↑,0.9953957000980154,False,10,-1,0,2
PB030K24,7,386,PS,exp,39,←,right,→,0.5077837000135332,False,11,-1,0,2
PB030K24,7,387,PS,exp,38,→,right,→,0.3880901000229642,True,12,-1,0,2
PB030K24,7,388,PS,exp,26,↓,left,←,0.7707230999367312,False,12,-1,0,2
PB030K24,7,389,PS,exp,36,↑,up,↑,0.6360370999900624,True,13,-1,0,2
PB030K24,7,390,PS,exp,47,←,left,←,0.45600699994247407,True,13,1,1,3
PB030K24,7,391,PS,exp,46,↓,down,↓,0.7435051000211388,True,12,1,0,3
PB030K24,7,392,PS,exp,25,↑,up,↑,0.4586239999625832,True,12,1,0,3
PB030K24,7,393,PS,exp,45,→,right,→,0.4598198999883607,True,11,1,0,3
PB030K24,7,394,PS,exp,47,←,left,←,0.6257108000572771,True,11,1,0,3
PB030K24,7,395,PS,exp,34,↑,up,↑,0.6971613999921829,True,10,1,0,3
PB030K24,7,396,PS,exp,39,→,right,→,0.573769300011918,True,10,1,0,3
PB030K24,7,397,PS,exp,40,↓,down,↓,0.7464465000666678,True,9,1,0,3
PB030K24,7,398,PS,exp,42,→,right,→,0.5734587999759242,True,9,1,0,3
PB030K24,7,399,PS,exp,47,↑,up,↑,0.533062299946323,True,8,1,0,3
PB030K24,7,400,PS,exp,46,↓,up,↑,0.6889497000956908,False,8,-1,1,4
PB030K24,7,401,PS,exp,34,↑,up,↑,0.5356232000049204,True,9,-1,0,4
PB030K24,7,402,PS,exp,31,→,right,→,0.5763099000323564,True,9,1,1,5
PB030K24,7,403,PS,exp,42,←,left,←,0.4945481000468135,True,8,1,0,5
PB030K24,7,404,PS,exp,43,→,right,→,0.3800937000196427,True,8,1,0,5
PB030K24,7,405,PS,exp,42,←,up,↑,0.5536273999605328,False,7,-1,1,6
PB030K24,7,406,PS,exp,26,↓,left,←,1.2171180999139324,False,8,-1,0,6
PB030K24,7,407,PS,exp,44,←,right,→,0.6339278999948874,False,9,-1,0,6
PB030K24,7,408,PS,exp,32,↑,up,↑,0.4924487000098452,True,10,-1,0,6
PB030K24,7,409,PS,exp,28,↓,left,←,0.6726754000410438,False,10,-1,0,6
PB030K24,7,410,PS,exp,44,←,left,←,0.38744590000715107,True,11,-1,0,6
PB030K24,7,411,PS,exp,27,↑,up,↑,0.6794120999984443,True,11,1,1,7
PB030K24,7,412,PS,exp,44,↓,down,↓,0.7218938999576494,True,10,1,0,7
PB030K24,7,413,PS,exp,34,←,right,→,0.6330214999616146,False,10,-1,1,8
PB030K24,7,414,PS,exp,47,→,left,←,0.604634499992244,False,11,-1,0,8
PB030K24,7,415,PS,exp,42,←,left,←,0.4685982000082731,True,12,-1,0,8
PB030K24,7,416,PS,exp,38,↑,up,↑,0.5932527999393642,True,12,1,1,9
PB030K24,7,417,PS,exp,34,↓,down,↓,0.7272722999332473,True,11,1,0,9
PB030K24,7,418,PS,exp,35,←,right,→,0.7512098998995498,False,11,-1,1,10
PB030K24,7,419,PS,exp,38,↓,down,↓,0.5817616999847814,True,12,-1,0,10
PB030K24,7,420,PS,exp,43,→,right,→,0.5187368000624701,True,12,1,1,11
PB030K24,7,421,PS,exp,38,↓,down,↓,0.605947200092487,True,11,1,0,11
PB030K24,7,422,PS,exp,34,→,right,→,0.5171158999437466,True,11,1,0,11
PB030K24,7,423,PS,exp,28,↓,down,↓,0.7366410000249743,True,10,1,0,11
PB030K24,7,424,PS,exp,43,→,right,→,0.36797169991768897,True,10,1,0,11
PB030K24,7,425,PS,exp,29,↑,up,↑,0.5981653000926599,True,9,1,0,11
PB030K24,7,426,PS,exp,29,↓,down,↓,0.7254383000545204,True,9,1,0,11
PB030K24,7,427,PS,exp,46,↑,up,↑,0.6508763999445364,True,8,1,0,11
PB030K24,7,428,PS,exp,47,↓,down,↓,0.5441474000690505,True,8,1,0,11
PB030K24,7,429,PS,exp,29,→,down,↓,0.8851715999189764,False,7,-1,1,12
PB030K24,7,430,PS,exp,33,↓,right,→,0.5056896000169218,False,8,-1,0,12
PB030K24,7,431,PS,exp,31,↑,right,→,0.9387599999317899,False,9,-1,0,12
PB030K24,7,432,PS,exp,32,↓,down,↓,0.44649260002188385,True,10,-1,0,12
PB030K24,7,433,PS,exp,46,↑,down,↓,0.541752599994652,False,10,-1,0,12
PB030K24,7,434,PS,exp,28,→,down,↓,0.4209039999404922,False,11,-1,0,12
PB030K24,7,435,PS,exp,38,↓,down,↓,0.5458230000222102,True,12,-1,0,12
PB030K24,7,436,PS,exp,30,↑,up,↑,0.6687452000332996,True,12,1,1,13
PB030K24,7,437,PS,exp,47,↓,right,→,0.9540605000220239,False,11,-1,1,14
PB030K24,8,438,AS,intra_train,32,→,right,→,0.4504960000049323,True,27,-,-,-
PB030K24,8,439,AS,intra_train,37,↑,up,↑,0.7446205999003723,True,27,-,-,-
PB030K24,8,440,AS,intra_train,36,→,right,→,0.6348342000273988,True,27,-,-,-
PB030K24,8,441,AS,intra_train,39,↓,down,↓,0.6572699999669567,True,27,-,-,-
PB030K24,8,442,AS,intra_train,28,↑,up,↑,0.6600499999476597,True,27,-,-,-
PB030K24,8,443,AS,exp,42,↓,down,↓,0.7847947999835014,True,18,0,0,0
PB030K24,8,444,AS,exp,48,↑,up,↑,0.8652770000044256,True,18,1,0,0
PB030K24,8,445,AS,exp,50,↓,down,↓,0.6471089000115171,True,17,1,0,0
PB030K24,8,446,AS,exp,39,←,up,↑,1.408477299963124,False,17,-1,1,1
PB030K24,8,447,AS,exp,43,→,right,→,0.49849429994355887,True,18,-1,0,1
PB030K24,8,448,AS,exp,50,↓,down,↓,0.6712190000107512,True,18,1,1,2
PB030K24,8,449,AS,exp,34,→,left,←,0.7481568000512198,False,17,-1,1,3
PB030K24,8,450,AS,exp,31,↓,down,↓,0.5704213000135496,True,18,-1,0,3
PB030K24,8,451,AS,exp,25,→,right,→,0.6646421999903396,True,18,1,1,4
PB030K24,8,452,AS,exp,30,↑,down,↓,0.6149309000466019,False,17,-1,1,5
PB030K24,8,453,AS,exp,43,→,right,→,0.6945424000732601,True,18,-1,0,5
PB030K24,8,454,AS,exp,28,↓,left,←,0.7243671000469476,False,18,-1,0,5
PB030K24,8,455,AS,exp,45,←,left,←,0.6878792999777943,True,19,-1,0,5
PB030K24,8,456,AS,exp,38,↑,right,→,0.613774000084959,False,19,-1,0,5
PB030K24,8,457,AS,exp,34,→,right,→,0.6440372000215575,True,20,-1,0,5
PB030K24,8,458,AS,exp,47,↓,down,↓,0.5133786000078544,True,20,1,1,6
PB030K24,8,459,AS,exp,36,→,right,→,0.5426359999692068,True,19,1,0,6
PB030K24,8,460,AS,exp,44,←,left,←,0.7863883000100031,True,19,1,0,6
PB030K24,8,461,AS,exp,41,↑,up,↑,0.7733814000384882,True,18,1,0,6
PB030K24,8,462,AS,exp,36,←,right,→,0.6356140000279993,False,18,-1,1,7
PB030K24,8,463,AS,exp,43,↓,down,↓,0.4507288000313565,True,19,-1,0,7
PB030K24,8,464,AS,exp,27,→,right,→,0.6142129999352619,True,19,1,1,8
PB030K24,8,465,AS,exp,45,↑,up,↑,0.5646854999940842,True,18,1,0,8
PB030K24,8,466,AS,exp,33,←,right,→,0.5430371999973431,False,18,-1,1,9
PB030K24,8,467,AS,exp,36,→,right,→,0.5173190999776125,True,19,-1,0,9
PB030K24,8,468,AS,exp,32,←,left,←,0.7750810000579804,True,19,1,1,10
PB030K24,8,469,AS,exp,37,↑,up,↑,0.6170918999705464,True,18,1,0,10
PB030K24,8,470,AS,exp,42,↓,down,↓,0.8197472000028938,True,18,1,0,10
PB030K24,8,471,AS,exp,45,←,right,→,0.5509947999380529,False,17,-1,1,11
PB030K24,8,472,AS,exp,27,↓,down,↓,0.6661501000635326,True,18,-1,0,11
PB030K24,8,473,AS,exp,45,→,right,→,0.5223822999978438,True,18,1,1,12
PB030K24,8,474,AS,exp,32,↓,down,↓,0.6432766000507399,True,17,1,0,12
PB030K24,8,475,AS,exp,29,↑,up,↑,0.5036192999687046,True,17,1,0,12
PB030K24,8,476,AS,exp,36,↓,down,↓,0.7382214999524876,True,16,1,0,12
PB030K24,8,477,AS,exp,38,→,left,←,0.7513631000183523,False,16,-1,1,13
PB030K24,8,478,AS,exp,27,↑,up,↑,0.5408934999722987,True,17,-1,0,13
PB030K24,8,479,AS,exp,33,←,left,←,0.6439108999911696,True,17,1,1,14
