PART_ID,Block_no,Trial_no,Block_type,Trial_type,CSI,Stim_letter,Key_pressed,letter_choose,Rt,Corr,Stimulus Time,Level,Reversal,Revs_count

PB034M28,1,1,PS,train,37,↑,no_key,no_letter,-1.0,False,30,-,-,-

PB034M28,1,2,PS,train,28,←,left,←,0.6337515999912284,True,30,-,-,-

PB034M28,1,3,PS,train,36,↑,up,↑,0.5672245000023395,True,30,-,-,-

PB034M28,1,4,PS,train,35,←,left,←,0.5505272999871522,True,30,-,-,-

PB034M28,1,5,PS,train,36,→,right,→,0.4508660000283271,True,30,-,-,-

PB034M28,1,6,PS,train,45,↑,up,↑,0.5171495000249706,True,30,-,-,-

PB034M28,1,7,PS,train,36,→,right,→,0.46784840000327677,True,30,-,-,-

PB034M28,1,8,PS,train,44,↓,down,↓,0.6338631000253372,True,30,-,-,-

PB034M28,1,9,PS,train,41,←,left,←,0.533760899968911,True,30,-,-,-

PB034M28,1,10,PS,train,32,↑,up,↑,0.5505825000000186,True,30,-,-,-

PB034M28,2,11,AS,train,26,→,right,→,0.6846193000092171,True,45,-,-,-

PB034M28,2,12,AS,train,47,↓,down,↓,0.7839422999531962,True,45,-,-,-

PB034M28,2,13,AS,train,28,↑,up,↑,0.7340867000166327,True,45,-,-,-

PB034M28,2,14,AS,train,26,→,right,→,0.7338844000478275,True,45,-,-,-

PB034M28,2,15,AS,train,47,↓,down,↓,0.517683699959889,True,45,-,-,-

PB034M28,2,16,AS,train,29,↑,up,↑,1.042158099997323,True,45,-,-,-

PB034M28,2,17,AS,train,37,←,left,←,0.6012582000112161,True,45,-,-,-

PB034M28,2,18,AS,train,43,↓,down,↓,2.3741233000182547,True,45,-,-,-

PB034M28,2,19,AS,train,43,←,left,←,0.46785880002425984,True,45,-,-,-

PB034M28,2,20,AS,train,41,→,right,→,0.784051000024192,True,45,-,-,-

PB034M28,-,21,PS,adaptive,38,←,left,←,0.6715635999571532,True,10,0,0,0

PB034M28,-,22,PS,adaptive,44,↑,up,↑,0.5757569999550469,True,10,1,0,0

PB034M28,-,23,PS,adaptive,35,←,left,←,0.5793002999853343,True,9,1,0,0

PB034M28,-,24,PS,adaptive,32,↑,up,↑,0.6473658999893814,True,9,1,0,0

PB034M28,-,25,PS,adaptive,48,←,left,←,0.5675124999834225,True,8,1,0,0

PB034M28,-,26,PS,adaptive,39,→,right,→,0.5520977000123821,True,8,1,0,0

PB034M28,-,27,PS,adaptive,36,↑,up,↑,0.4958805000060238,True,7,1,0,0

PB034M28,-,28,PS,adaptive,47,→,right,→,0.5092063999618404,True,7,1,0,0

PB034M28,-,29,PS,adaptive,41,↓,down,↓,0.6743758000084199,True,6,1,0,0

PB034M28,-,30,PS,adaptive,44,→,right,→,0.4880002999561839,True,6,1,0,0

PB034M28,-,31,PS,adaptive,43,↑,up,↑,0.8100876999669708,True,5,1,0,0

PB034M28,-,32,PS,adaptive,39,←,left,←,0.49646489997394383,True,5,1,0,0

PB034M28,-,33,PS,adaptive,40,↓,down,↓,0.6774772999924608,True,4,1,0,0

PB034M28,-,34,PS,adaptive,49,↑,up,↑,0.6438940999796614,True,4,1,0,0

PB034M28,-,35,PS,adaptive,42,→,right,→,0.6177335999673232,True,3,1,0,0

PB034M28,-,36,PS,adaptive,32,←,left,←,0.5539585999795236,True,3,1,0,0

PB034M28,-,37,PS,adaptive,34,→,right,→,0.631778699986171,True,2,1,0,0

PB034M28,-,38,PS,adaptive,50,←,left,←,0.5797712999628857,True,2,1,0,0

PB034M28,-,39,PS,adaptive,40,↑,left,←,0.6336479999590665,False,1,-1,1,1

PB034M28,-,40,PS,adaptive,38,↓,right,→,1.1581583000370301,False,2,-1,0,1

PB034M28,-,41,PS,adaptive,35,←,left,←,0.6310794000164606,True,3,-1,0,1

PB034M28,-,42,PS,adaptive,48,→,left,←,0.5778997000306845,False,3,-1,0,1

PB034M28,-,43,PS,adaptive,28,↑,left,←,1.4308933000429533,False,4,-1,0,1

PB034M28,-,44,PS,adaptive,48,←,left,←,0.6336536000017077,True,5,-1,0,1

PB034M28,-,45,PS,adaptive,28,↑,up,↑,1.2956538000144064,True,5,1,1,2

PB034M28,-,46,PS,adaptive,25,→,right,→,1.5555235999636352,True,4,1,0,2

PB034M28,-,47,PS,adaptive,40,↑,left,←,1.1198267000145279,False,4,-1,1,3

PB034M28,-,48,PS,adaptive,45,→,right,→,0.5453815999790095,True,5,-1,0,3

PB034M28,-,49,PS,adaptive,39,←,up,↑,1.716956600022968,False,5,-1,0,3

PB034M28,-,50,PS,adaptive,38,↑,left,←,0.8747910999809392,False,6,-1,0,3

PB034M28,-,51,PS,adaptive,37,←,left,←,0.6915061000036076,True,7,-1,0,3

PB034M28,-,52,PS,adaptive,46,→,left,←,1.4838128000264987,False,7,-1,0,3

PB034M28,-,53,PS,adaptive,45,←,left,←,0.6125355999683961,True,8,-1,0,3

PB034M28,-,54,PS,adaptive,46,→,right,→,0.6856316999765113,True,8,1,1,4

PB034M28,-,55,AS,adaptive,26,↑,up,↑,0.7422626999905333,True,20,0,0,0

PB034M28,-,56,AS,adaptive,26,↓,down,↓,0.7835435000015423,True,20,1,0,0

PB034M28,-,57,AS,adaptive,30,↑,up,↑,0.6791577999829315,True,19,1,0,0

PB034M28,-,58,AS,adaptive,33,←,left,←,0.5761757000000216,True,19,1,0,0

PB034M28,-,59,AS,adaptive,27,↓,right,→,0.857666399970185,False,18,-1,1,1

PB034M28,-,60,AS,adaptive,42,←,left,←,0.7139731000061147,True,19,-1,0,1

PB034M28,-,61,AS,adaptive,30,↓,down,↓,0.7854441999807023,True,19,1,1,2

PB034M28,-,62,AS,adaptive,45,↑,up,↑,0.6940304999588989,True,18,1,0,2

PB034M28,-,63,AS,adaptive,30,←,left,←,0.7147084000171162,True,18,1,0,2

PB034M28,-,64,AS,adaptive,41,↓,down,↓,0.8997839000076056,True,17,1,0,2

PB034M28,-,65,AS,adaptive,42,↑,up,↑,0.6721261999919079,True,17,1,0,2

PB034M28,-,66,AS,adaptive,39,↓,down,↓,0.7385101999971084,True,16,1,0,2

PB034M28,-,67,AS,adaptive,32,←,left,←,0.5345240999595262,True,16,1,0,2

PB034M28,-,68,AS,adaptive,30,→,right,→,0.6012478999909945,True,15,1,0,2

PB034M28,-,69,AS,adaptive,34,↓,down,↓,0.7903229999938048,True,15,1,0,2

PB034M28,-,70,AS,adaptive,30,→,right,→,0.5412708999938332,True,14,1,0,2

PB034M28,-,71,AS,adaptive,28,↑,up,↑,0.5756433000206016,True,14,1,0,2

PB034M28,-,72,AS,adaptive,27,←,left,←,0.7991441999911331,True,13,1,0,2

PB034M28,-,73,AS,adaptive,36,↓,down,↓,1.3434433999937028,True,13,1,0,2

PB034M28,-,74,AS,adaptive,45,←,right,→,0.67762649996439,False,12,-1,1,3

PB034M28,-,75,AS,adaptive,26,↓,down,↓,0.7497232999885455,True,13,-1,0,3

PB034M28,-,76,AS,adaptive,36,↑,up,↑,0.5808748000417836,True,13,1,1,4

PB034M28,1,77,AS,intra_train,49,→,right,→,0.6380826999666169,True,18,-,-,-

PB034M28,1,78,AS,intra_train,38,↓,left,←,1.4739868000033312,False,18,-,-,-

PB034M28,1,79,AS,intra_train,27,↑,up,↑,0.8033651000005193,True,18,-,-,-

PB034M28,1,80,AS,intra_train,35,←,left,←,0.5609451999771409,True,18,-,-,-

PB034M28,1,81,AS,intra_train,46,→,right,→,0.562206500035245,True,18,-,-,-

PB034M28,1,82,AS,exp,47,←,left,←,0.6956010999856517,True,12,0,0,0

PB034M28,1,83,AS,exp,43,→,left,←,0.8117177999811247,False,12,-1,0,0

PB034M28,1,84,AS,exp,28,↑,left,←,0.7712422999902628,False,13,-1,0,0

PB034M28,1,85,AS,exp,41,↓,right,→,1.2361407999997027,False,14,-1,0,0

PB034M28,1,86,AS,exp,50,←,left,←,0.721778400009498,True,15,-1,0,0

PB034M28,1,87,AS,exp,48,↓,up,↑,1.0466493000276387,False,15,-1,0,0

PB034M28,1,88,AS,exp,47,→,right,→,0.608765900018625,True,16,-1,0,0

PB034M28,1,89,AS,exp,43,↑,up,↑,0.6874250999535434,True,16,1,1,1

PB034M28,1,90,AS,exp,33,←,left,←,0.7685303000034764,True,15,1,0,1

PB034M28,1,91,AS,exp,26,↑,up,↑,0.6614143999759108,True,15,1,0,1

PB034M28,1,92,AS,exp,30,←,left,←,0.6368949000025168,True,14,1,0,1

PB034M28,1,93,AS,exp,47,→,right,→,0.509465100010857,True,14,1,0,1

PB034M28,1,94,AS,exp,34,↓,down,↓,0.7374269000138156,True,13,1,0,1

PB034M28,1,95,AS,exp,42,→,right,→,0.5642494999920018,True,13,1,0,1

PB034M28,1,96,AS,exp,26,↓,up,↑,0.7216864000074565,False,12,-1,1,2

PB034M28,1,97,AS,exp,30,←,left,←,0.7102931000408716,True,13,-1,0,2

PB034M28,1,98,AS,exp,41,→,right,→,0.5308845999534242,True,13,1,1,3

PB034M28,1,99,AS,exp,30,↓,down,↓,0.743007899960503,True,12,1,0,3

PB034M28,1,100,AS,exp,25,→,right,→,0.6712694000452757,True,12,1,0,3

PB034M28,1,101,AS,exp,33,↑,left,←,0.8995872000232339,False,11,-1,1,4

PB034M28,1,102,AS,exp,50,→,right,→,0.5544503999990411,True,12,-1,0,4

PB034M28,1,103,AS,exp,34,←,left,←,0.5264727000030689,True,12,1,1,5

PB034M28,1,104,AS,exp,45,↑,right,→,0.7355758000048809,False,11,-1,1,6

PB034M28,1,105,AS,exp,40,←,left,←,0.8586988999741152,True,12,-1,0,6

PB034M28,1,106,AS,exp,41,→,right,→,0.430098699987866,True,12,1,1,7

PB034M28,1,107,AS,exp,48,↑,up,↑,0.515898699988611,True,11,1,0,7

PB034M28,1,108,AS,exp,46,→,right,→,0.5357499999809079,True,11,1,0,7

PB034M28,1,109,AS,exp,40,↑,up,↑,0.5593160000280477,True,10,1,0,7

PB034M28,1,110,AS,exp,50,←,left,←,0.631795699999202,True,10,1,0,7

PB034M28,1,111,AS,exp,29,↓,down,↓,0.7924776999861933,True,9,1,0,7

PB034M28,1,112,AS,exp,36,→,left,←,0.8829198000021279,False,9,-1,1,8

PB034M28,1,113,AS,exp,47,↑,left,←,0.8111422000220045,False,10,-1,0,8

PB034M28,1,114,AS,exp,48,↓,down,↓,0.6975765000097454,True,11,-1,0,8

PB034M28,1,115,AS,exp,50,→,right,→,0.6582798999734223,True,11,1,1,9

PB034M28,1,116,AS,exp,45,←,right,→,0.6502752000233158,False,10,-1,1,10

PB034M28,1,117,AS,exp,29,↓,right,→,1.2216698999982327,False,11,-1,0,10

PB034M28,1,118,AS,exp,29,↑,up,↑,0.7343210999970324,True,12,-1,0,10

PB034M28,1,119,AS,exp,29,→,right,→,0.6049003000371158,True,12,1,1,11

PB034M28,1,120,AS,exp,33,↑,up,↑,1.1478578000096604,True,11,1,0,11

PB034M28,1,121,AS,exp,26,↓,up,↑,0.7188767000334337,False,11,-1,1,12

PB034M28,1,122,AS,exp,50,↑,right,→,0.7134489999734797,False,12,-1,0,12

PB034M28,1,123,AS,exp,35,↓,up,↑,0.7292895999853499,False,13,-1,0,12

PB034M28,1,124,AS,exp,29,→,no_key,no_letter,-1.0,False,14,-1,0,12

PB034M28,1,125,AS,exp,36,↓,down,↓,0.6244630999863148,True,15,-1,0,12

PB034M28,1,126,AS,exp,36,←,right,→,0.4398464999976568,False,15,-1,0,12

PB034M28,1,127,AS,exp,32,→,no_key,no_letter,-1.0,False,16,-1,0,12

PB034M28,1,128,AS,exp,34,↓,right,→,1.178850100026466,False,17,-1,0,12

PB034M28,1,129,AS,exp,34,←,left,←,0.6718547999626026,True,18,-1,0,12

PB034M28,1,130,AS,exp,47,→,right,→,0.5803399000433274,True,18,1,1,13

PB034M28,1,131,AS,exp,25,↓,down,↓,0.7921944000408985,True,17,1,0,13

PB034M28,1,132,AS,exp,32,←,left,←,0.5986516000120901,True,17,1,0,13

PB034M28,1,133,AS,exp,30,↓,down,↓,0.7957745000021532,True,16,1,0,13

PB034M28,1,134,AS,exp,38,←,left,←,0.6152956000296399,True,16,1,0,13

PB034M28,1,135,AS,exp,39,↓,down,↓,0.7579662000061944,True,15,1,0,13

PB034M28,1,136,AS,exp,46,→,right,→,0.4635767999570817,True,15,1,0,13

PB034M28,1,137,AS,exp,46,←,left,←,0.6803060999955051,True,14,1,0,13

PB034M28,1,138,AS,exp,46,→,right,→,1.1885877000167966,True,14,1,0,13

PB034M28,1,139,AS,exp,43,←,left,←,0.6563143000239506,True,13,1,0,13

PB034M28,1,140,AS,exp,28,→,right,→,0.6852834000019357,True,13,1,0,13

PB034M28,1,141,AS,exp,46,←,right,→,1.3248291999916546,False,12,-1,1,14

PB034M28,2,142,PS,intra_train,31,→,right,→,0.5469137000036426,True,10,-,-,-

PB034M28,2,143,PS,intra_train,26,↑,up,↑,0.6835261999513023,True,10,-,-,-

PB034M28,2,144,PS,intra_train,40,←,right,→,0.8570951000438072,False,10,-,-,-

PB034M28,2,145,PS,intra_train,28,↓,down,↓,0.7156894000363536,True,10,-,-,-

PB034M28,2,146,PS,intra_train,30,↑,up,↑,0.5462065999745391,True,10,-,-,-

PB034M28,2,147,PS,exp,38,→,right,→,0.827963899995666,True,7,0,0,0

PB034M28,2,148,PS,exp,26,←,right,→,0.8730592999490909,False,7,-1,0,0

PB034M28,2,149,PS,exp,27,↑,up,↑,0.6907428999547847,True,8,-1,0,0

PB034M28,2,150,PS,exp,27,↓,right,→,0.7828997999895364,False,8,-1,0,0

PB034M28,2,151,PS,exp,32,→,right,→,0.9217419999768026,True,9,-1,0,0

PB034M28,2,152,PS,exp,47,←,left,←,0.6995416000136174,True,9,1,1,1

PB034M28,2,153,PS,exp,31,↑,right,→,1.3517337000230327,False,8,-1,1,2

PB034M28,2,154,PS,exp,37,←,left,←,0.6970072999829426,True,9,-1,0,2

PB034M28,2,155,PS,exp,30,→,right,→,0.48629809997510165,True,9,1,1,3

PB034M28,2,156,PS,exp,49,↑,right,→,0.513069299980998,False,8,-1,1,4

PB034M28,2,157,PS,exp,26,→,left,←,1.0228428000118583,False,9,-1,0,4

PB034M28,2,158,PS,exp,36,↓,down,↓,0.6856588000082411,True,10,-1,0,4

PB034M28,2,159,PS,exp,25,←,left,←,0.6125148000428453,True,10,1,1,5

PB034M28,2,160,PS,exp,27,↑,up,↑,0.6751626000041142,True,9,1,0,5

PB034M28,2,161,PS,exp,35,→,right,→,0.6108765000244603,True,9,1,0,5

PB034M28,2,162,PS,exp,44,↓,down,↓,1.0163646999862976,True,8,1,0,5

PB034M28,2,163,PS,exp,44,←,left,←,0.6835315999924205,True,8,1,0,5

PB034M28,2,164,PS,exp,50,↓,down,↓,0.6788626000052318,True,7,1,0,5

PB034M28,2,165,PS,exp,48,↑,up,↑,0.517954999988433,True,7,1,0,5

PB034M28,2,166,PS,exp,27,←,left,←,1.3347554000210948,True,6,1,0,5

PB034M28,2,167,PS,exp,39,→,right,→,0.5137140000006184,True,6,1,0,5

PB034M28,2,168,PS,exp,43,←,right,→,0.6676433000247926,False,5,-1,1,6

PB034M28,2,169,PS,exp,36,↓,left,←,0.821691200020723,False,6,-1,0,6

PB034M28,2,170,PS,exp,27,←,left,←,0.48634330002823845,True,7,-1,0,6

PB034M28,2,171,PS,exp,47,↓,left,←,1.0837242000270635,False,7,-1,0,6

PB034M28,2,172,PS,exp,44,→,right,→,0.4936710999463685,True,8,-1,0,6

PB034M28,2,173,PS,exp,36,↑,down,↓,0.8684827999677509,False,8,-1,0,6

PB034M28,2,174,PS,exp,38,←,left,←,0.5256827999837697,True,9,-1,0,6

PB034M28,2,175,PS,exp,43,↓,down,↓,0.5427167000016198,True,9,1,1,7

PB034M28,2,176,PS,exp,28,→,right,→,0.4829522999934852,True,8,1,0,7

PB034M28,2,177,PS,exp,32,←,right,→,0.8323012999608181,False,8,-1,1,8

PB034M28,2,178,PS,exp,31,↑,up,↑,0.552438999991864,True,9,-1,0,8

PB034M28,2,179,PS,exp,46,↓,down,↓,0.5791322999866679,True,9,1,1,9

PB034M28,2,180,PS,exp,48,↑,up,↑,0.5743148000328802,True,8,1,0,9

PB034M28,2,181,PS,exp,25,→,right,→,0.396673200011719,True,8,1,0,9

PB034M28,2,182,PS,exp,25,←,left,←,0.47869190003257245,True,7,1,0,9

PB034M28,2,183,PS,exp,36,→,right,→,0.5709307999932207,True,7,1,0,9

PB034M28,2,184,PS,exp,36,←,left,←,0.5183065999881364,True,6,1,0,9

PB034M28,2,185,PS,exp,29,→,right,→,0.399994500039611,True,6,1,0,9

PB034M28,2,186,PS,exp,50,↓,right,→,1.1647644000477158,False,5,-1,1,10

PB034M28,2,187,PS,exp,50,←,left,←,0.628084099967964,True,6,-1,0,10

PB034M28,2,188,PS,exp,41,→,right,→,0.5358218000037596,True,6,1,1,11

PB034M28,2,189,PS,exp,26,↑,right,→,0.9487164999591187,False,5,-1,1,12

PB034M28,2,190,PS,exp,39,→,right,→,0.4909458000329323,True,6,-1,0,12

PB034M28,2,191,PS,exp,47,↓,no_key,no_letter,-1.0,False,6,-1,0,12

PB034M28,2,192,PS,exp,30,↑,left,←,0.8304459999781102,False,7,-1,0,12

PB034M28,2,193,PS,exp,37,→,right,→,0.42107969999779016,True,8,-1,0,12

PB034M28,2,194,PS,exp,44,↓,down,↓,0.5561082000494935,True,8,1,1,13

PB034M28,2,195,PS,exp,32,→,right,→,0.42618020001100376,True,7,1,0,13

PB034M28,2,196,PS,exp,44,↓,down,↓,0.6341165999765508,True,7,1,0,13

PB034M28,2,197,PS,exp,31,←,left,←,0.7348762999754399,True,6,1,0,13

PB034M28,2,198,PS,exp,27,→,left,←,0.7700348000507802,False,6,-1,1,14

PB034M28,3,199,PS,intra_train,40,↓,down,↓,0.5646993999835104,True,10,-,-,-

PB034M28,3,200,PS,intra_train,25,→,right,→,0.5482278999988921,True,10,-,-,-

PB034M28,3,201,PS,intra_train,35,↑,up,↑,0.629484000033699,True,10,-,-,-

PB034M28,3,202,PS,intra_train,32,←,left,←,0.5464151999913156,True,10,-,-,-

PB034M28,3,203,PS,intra_train,45,→,right,→,0.7190067000337876,True,10,-,-,-

PB034M28,3,204,PS,exp,39,←,left,←,0.5807303999899887,True,7,0,0,0

PB034M28,3,205,PS,exp,36,↑,up,↑,0.5055979000171646,True,7,1,0,0

PB034M28,3,206,PS,exp,42,↓,down,↓,0.5591439999989234,True,6,1,0,0

PB034M28,3,207,PS,exp,36,→,right,→,0.510675200028345,True,6,1,0,0

PB034M28,3,208,PS,exp,25,↓,right,→,0.9300952000194229,False,5,-1,1,1

PB034M28,3,209,PS,exp,48,←,left,←,1.7593478999915533,True,6,-1,0,1

PB034M28,3,210,PS,exp,44,→,right,→,0.5717691999743693,True,6,1,1,2

PB034M28,3,211,PS,exp,38,↑,up,↑,0.5732832999783568,True,5,1,0,2

PB034M28,3,212,PS,exp,49,→,right,→,0.8932713000103831,True,5,1,0,2

PB034M28,3,213,PS,exp,42,↓,down,↓,0.6180203999974765,True,4,1,0,2

PB034M28,3,214,PS,exp,45,↑,up,↑,1.147070100007113,True,4,1,0,2

PB034M28,3,215,PS,exp,49,↓,left,←,1.3322834999999031,False,3,-1,1,3

PB034M28,3,216,PS,exp,30,↑,up,↑,1.0933673999970779,True,4,-1,0,3

PB034M28,3,217,PS,exp,38,←,left,←,0.8820312999887392,True,4,1,1,4

PB034M28,3,218,PS,exp,49,↑,left,←,0.7401134999818169,False,3,-1,1,5

PB034M28,3,219,PS,exp,37,→,right,→,0.49752919998718426,True,4,-1,0,5

PB034M28,3,220,PS,exp,48,↓,left,←,0.9122987000155263,False,4,-1,0,5

PB034M28,3,221,PS,exp,28,→,right,→,1.0953979000332765,True,5,-1,0,5

PB034M28,3,222,PS,exp,37,↓,left,←,0.9285410000011325,False,5,-1,0,5

PB034M28,3,223,PS,exp,40,→,right,→,0.6182124000042677,True,6,-1,0,5

PB034M28,3,224,PS,exp,48,↑,right,→,1.4198417000006884,False,6,-1,0,5

PB034M28,3,225,PS,exp,33,↓,right,→,1.4812735000159591,False,7,-1,0,5

PB034M28,3,226,PS,exp,35,↑,up,↑,0.8044415999902412,True,8,-1,0,5

PB034M28,3,227,PS,exp,27,←,left,←,1.4766685999929905,True,8,1,1,6

PB034M28,3,228,PS,exp,31,→,no_key,no_letter,-1.0,False,7,-1,1,7

PB034M28,3,229,PS,exp,30,↑,up,↑,0.49109470000257716,True,8,-1,0,7

PB034M28,3,230,PS,exp,41,←,left,←,0.5707338000065647,True,8,1,1,8

PB034M28,3,231,PS,exp,33,↑,right,→,0.5058518000296317,False,7,-1,1,9

PB034M28,3,232,PS,exp,36,↓,down,↓,0.5880070000421256,True,8,-1,0,9

PB034M28,3,233,PS,exp,34,←,left,←,0.5444788999739103,True,8,1,1,10

PB034M28,3,234,PS,exp,48,↓,down,↓,0.3980075999861583,True,7,1,0,10

PB034M28,3,235,PS,exp,37,↑,up,↑,0.5539950999664143,True,7,1,0,10

PB034M28,3,236,PS,exp,39,↓,left,←,0.6451310999691486,False,6,-1,1,11

PB034M28,3,237,PS,exp,48,↑,left,←,0.7602594000054523,False,7,-1,0,11

PB034M28,3,238,PS,exp,46,→,right,→,0.6139924000017345,True,8,-1,0,11

PB034M28,3,239,PS,exp,40,←,left,←,0.6071358000044711,True,8,1,1,12

PB034M28,3,240,PS,exp,38,→,right,→,0.971372900006827,True,7,1,0,12

PB034M28,3,241,PS,exp,48,←,left,←,0.5050272999797016,True,7,1,0,12

PB034M28,3,242,PS,exp,27,→,right,→,0.47525699995458126,True,6,1,0,12

PB034M28,3,243,PS,exp,42,←,left,←,0.7911631999886595,True,6,1,0,12

PB034M28,3,244,PS,exp,36,→,left,←,0.8531038999790326,False,5,-1,1,13

PB034M28,3,245,PS,exp,41,←,left,←,0.9174279000144452,True,6,-1,0,13

PB034M28,3,246,PS,exp,47,↓,right,→,0.5215820000157692,False,6,-1,0,13

PB034M28,3,247,PS,exp,48,←,left,←,0.5559765000361949,True,7,-1,0,13

PB034M28,3,248,PS,exp,43,→,right,→,0.49490610003704205,True,7,1,1,14

PB034M28,4,249,AS,intra_train,36,↓,down,↓,0.7542501999996603,True,18,-,-,-

PB034M28,4,250,AS,intra_train,47,←,left,←,0.7184908000053838,True,18,-,-,-

PB034M28,4,251,AS,intra_train,38,→,right,→,0.535947100026533,True,18,-,-,-

PB034M28,4,252,AS,intra_train,46,←,left,←,0.4884781999862753,True,18,-,-,-

PB034M28,4,253,AS,intra_train,43,→,right,→,0.6498936000280082,True,18,-,-,-

PB034M28,4,254,AS,exp,27,←,left,←,0.572163000004366,True,12,0,0,0

PB034M28,4,255,AS,exp,47,→,right,→,0.5248503000475466,True,12,1,0,0

PB034M28,4,256,AS,exp,47,↓,left,←,1.254012799996417,False,11,-1,1,1

PB034M28,4,257,AS,exp,47,↑,up,↑,0.5826570999925025,True,12,-1,0,1

PB034M28,4,258,AS,exp,29,←,left,←,0.6243855999782681,True,12,1,1,2

PB034M28,4,259,AS,exp,26,→,right,→,0.48942260001786053,True,11,1,0,2

PB034M28,4,260,AS,exp,36,←,left,←,0.5286485999822617,True,11,1,0,2

PB034M28,4,261,AS,exp,26,↑,up,↑,0.6375615000142716,True,10,1,0,2

PB034M28,4,262,AS,exp,45,←,left,←,0.5004759000148624,True,10,1,0,2

PB034M28,4,263,AS,exp,44,↑,up,↑,0.4807814999949187,True,9,1,0,2

PB034M28,4,264,AS,exp,30,↓,up,↑,0.6490411999984644,False,9,-1,1,3

PB034M28,4,265,AS,exp,31,↑,up,↑,0.4484991999925114,True,10,-1,0,3

PB034M28,4,266,AS,exp,32,↓,down,↓,0.6409389000036754,True,10,1,1,4

PB034M28,4,267,AS,exp,40,→,right,→,0.512472800037358,True,9,1,0,4

PB034M28,4,268,AS,exp,35,←,right,→,1.082988700014539,False,9,-1,1,5

PB034M28,4,269,AS,exp,33,→,right,→,1.3221249000052921,True,10,-1,0,5

PB034M28,4,270,AS,exp,39,↑,left,←,0.7341416999697685,False,10,-1,0,5

PB034M28,4,271,AS,exp,48,←,right,→,1.0809320000116713,False,11,-1,0,5

PB034M28,4,272,AS,exp,29,↓,down,↓,0.6803104000282474,True,12,-1,0,5

PB034M28,4,273,AS,exp,43,↑,up,↑,0.5006516000139527,True,12,1,1,6

PB034M28,4,274,AS,exp,48,→,left,←,1.3548553999862634,False,11,-1,1,7

PB034M28,4,275,AS,exp,43,←,left,←,0.6832610999699682,True,12,-1,0,7

PB034M28,4,276,AS,exp,45,↓,down,↓,0.7123329999740236,True,12,1,1,8

PB034M28,4,277,AS,exp,29,↑,left,←,0.682806900003925,False,11,-1,1,9

PB034M28,4,278,AS,exp,50,→,left,←,0.7091726000071503,False,12,-1,0,9

PB034M28,4,279,AS,exp,39,←,left,←,0.9556607999838889,True,13,-1,0,9

PB034M28,4,280,AS,exp,41,↑,up,↑,0.47512190003180876,True,13,1,1,10

PB034M28,4,281,AS,exp,37,↓,down,↓,0.7669162999955006,True,12,1,0,10

PB034M28,4,282,AS,exp,29,↑,up,↑,1.1879086999688298,True,12,1,0,10

PB034M28,4,283,AS,exp,30,↓,down,↓,1.2055140000302345,True,11,1,0,10

PB034M28,4,284,AS,exp,38,↑,down,↓,1.0615396999637596,False,11,-1,1,11

PB034M28,4,285,AS,exp,46,←,left,←,0.5048924000002444,True,12,-1,0,11

PB034M28,4,286,AS,exp,35,↑,up,↑,0.4890690000029281,True,12,1,1,12

PB034M28,4,287,AS,exp,42,↓,down,↓,0.5786413000314496,True,11,1,0,12

PB034M28,4,288,AS,exp,39,→,right,→,0.43152980000013486,True,11,1,0,12

PB034M28,4,289,AS,exp,39,←,left,←,0.5665200999937952,True,10,1,0,12

PB034M28,4,290,AS,exp,38,↓,right,→,0.9974858000059612,False,10,-1,1,13

PB034M28,4,291,AS,exp,26,→,right,→,0.5531266999896616,True,11,-1,0,13

PB034M28,4,292,AS,exp,32,↑,up,↑,0.4738999000401236,True,11,1,1,14

PB034M28,5,293,AS,intra_train,37,↓,down,↓,0.5714349999907427,True,18,-,-,-

PB034M28,5,294,AS,intra_train,31,←,left,←,0.6372202999773435,True,18,-,-,-

PB034M28,5,295,AS,intra_train,37,↓,down,↓,0.6127443999866955,True,18,-,-,-

PB034M28,5,296,AS,intra_train,45,↑,up,↑,0.6283668999676593,True,18,-,-,-

PB034M28,5,297,AS,intra_train,46,→,right,→,0.4944357000058517,True,18,-,-,-

PB034M28,5,298,AS,exp,39,←,left,←,0.5634445000323467,True,12,0,0,0

PB034M28,5,299,AS,exp,37,↓,down,↓,0.6179255000315607,True,12,1,0,0

PB034M28,5,300,AS,exp,48,↑,left,←,0.7603387999697588,False,11,-1,1,1

PB034M28,5,301,AS,exp,48,↓,up,↑,0.6185528999776579,False,12,-1,0,1

PB034M28,5,302,AS,exp,46,←,left,←,0.570617499994114,True,13,-1,0,1

PB034M28,5,303,AS,exp,32,↓,down,↓,0.8694760999642313,True,13,1,1,2

PB034M28,5,304,AS,exp,42,→,up,↑,1.2860043999971822,False,12,-1,1,3

PB034M28,5,305,AS,exp,35,←,right,→,0.5622603999800049,False,13,-1,0,3

PB034M28,5,306,AS,exp,33,→,right,→,0.5555218000081368,True,14,-1,0,3

PB034M28,5,307,AS,exp,29,←,left,←,0.8265306000248529,True,14,1,1,4

PB034M28,5,308,AS,exp,46,↓,down,↓,0.9675833999644965,True,13,1,0,4

PB034M28,5,309,AS,exp,34,→,right,→,0.6110640999977477,True,13,1,0,4

PB034M28,5,310,AS,exp,41,↓,down,↓,1.4369599999627098,True,12,1,0,4

PB034M28,5,311,AS,exp,36,→,right,→,0.49533800000790507,True,12,1,0,4

PB034M28,5,312,AS,exp,36,←,right,→,0.5628758000093512,False,11,-1,1,5

PB034M28,5,313,AS,exp,30,→,right,→,0.7039422999951057,True,12,-1,0,5

PB034M28,5,314,AS,exp,34,↓,up,↑,1.0538882999680936,False,12,-1,0,5

PB034M28,5,315,AS,exp,30,↑,up,↑,0.4879549000179395,True,13,-1,0,5

PB034M28,5,316,AS,exp,33,→,right,→,0.4107371999998577,True,13,1,1,6

PB034M28,5,317,AS,exp,29,↑,up,↑,0.48651979997521266,True,12,1,0,6

PB034M28,5,318,AS,exp,35,↓,right,→,0.8230234999791719,False,12,-1,1,7

PB034M28,5,319,AS,exp,37,→,right,→,0.6425537000177428,True,13,-1,0,7

PB034M28,5,320,AS,exp,27,↓,down,↓,0.6866291000042111,True,13,1,1,8

PB034M28,5,321,AS,exp,44,↑,right,→,0.5663676999974996,False,12,-1,1,9

PB034M28,5,322,AS,exp,35,←,left,←,0.5964467000449076,True,13,-1,0,9

PB034M28,5,323,AS,exp,50,↓,up,↑,1.1066548000089824,False,13,-1,0,9

PB034M28,5,324,AS,exp,49,←,right,→,0.48602079995907843,False,14,-1,0,9

PB034M28,5,325,AS,exp,31,↓,down,↓,0.7665609000250697,True,15,-1,0,9

PB034M28,5,326,AS,exp,31,→,right,→,0.9750692999805324,True,15,1,1,10

PB034M28,5,327,AS,exp,26,↑,up,↑,0.7483822000212967,True,14,1,0,10

PB034M28,5,328,AS,exp,44,↓,down,↓,0.7389066999894567,True,14,1,0,10

PB034M28,5,329,AS,exp,28,←,left,←,0.7607915999833494,True,13,1,0,10

PB034M28,5,330,AS,exp,49,→,right,→,0.6557568000280298,True,13,1,0,10

PB034M28,5,331,AS,exp,42,↑,right,→,0.6539638999965973,False,12,-1,1,11

PB034M28,5,332,AS,exp,29,↓,down,↓,0.6994155999855138,True,13,-1,0,11

PB034M28,5,333,AS,exp,31,↑,up,↑,0.615074299974367,True,13,1,1,12

PB034M28,5,334,AS,exp,42,←,left,←,0.6331232000375167,True,12,1,0,12

PB034M28,5,335,AS,exp,28,→,right,→,0.5055618000333197,True,12,1,0,12

PB034M28,5,336,AS,exp,37,←,left,←,0.44599610002478585,True,11,1,0,12

PB034M28,5,337,AS,exp,49,↓,down,↓,0.7431815000018105,True,11,1,0,12

PB034M28,5,338,AS,exp,40,→,right,→,0.7416556000243872,True,10,1,0,12

PB034M28,5,339,AS,exp,29,←,left,←,1.066757399996277,True,10,1,0,12

PB034M28,5,340,AS,exp,50,→,right,→,0.4073540000244975,True,9,1,0,12

PB034M28,5,341,AS,exp,48,↓,down,↓,0.6293623999808915,True,9,1,0,12

PB034M28,5,342,AS,exp,40,→,right,→,0.8289186999900267,True,8,1,0,12

PB034M28,5,343,AS,exp,25,↑,up,↑,0.780195300001651,True,8,1,0,12

PB034M28,5,344,AS,exp,30,↓,down,↓,0.9593048999668099,True,7,1,0,12

PB034M28,5,345,AS,exp,26,→,right,→,0.5953557000029832,True,7,1,0,12

PB034M28,5,346,AS,exp,35,←,down,↓,1.2856556000187993,False,6,-1,1,13

PB034M28,5,347,AS,exp,33,↑,up,↑,0.6992541999788955,True,7,-1,0,13

PB034M28,5,348,AS,exp,40,←,left,←,0.8908679999876767,True,7,1,1,14

PB034M28,6,349,PS,intra_train,43,↑,up,↑,0.5466764000011608,True,10,-,-,-

PB034M28,6,350,PS,intra_train,39,←,left,←,0.515824900008738,True,10,-,-,-

PB034M28,6,351,PS,intra_train,35,↑,up,↑,0.4672846000175923,True,10,-,-,-

PB034M28,6,352,PS,intra_train,27,←,left,←,0.5239458999712951,True,10,-,-,-

PB034M28,6,353,PS,intra_train,33,→,right,→,0.4784122999990359,True,10,-,-,-

PB034M28,6,354,PS,exp,50,↑,up,↑,0.48990909999702126,True,7,0,0,0

PB034M28,6,355,PS,exp,27,→,right,→,0.4374963999725878,True,7,1,0,0

PB034M28,6,356,PS,exp,31,↓,down,↓,0.5491696000099182,True,6,1,0,0

PB034M28,6,357,PS,exp,29,←,left,←,0.5639400000218302,True,6,1,0,0

PB034M28,6,358,PS,exp,45,→,right,→,0.621924199978821,True,5,1,0,0

PB034M28,6,359,PS,exp,48,←,left,←,0.7798098000348546,True,5,1,0,0

PB034M28,6,360,PS,exp,34,→,right,→,0.5487000999855809,True,4,1,0,0

PB034M28,6,361,PS,exp,44,↓,left,←,0.7398196999565698,False,4,-1,1,1

PB034M28,6,362,PS,exp,38,↑,right,→,0.869916399999056,False,5,-1,0,1

PB034M28,6,363,PS,exp,30,↓,right,→,0.9688850999809802,False,6,-1,0,1

PB034M28,6,364,PS,exp,28,↑,up,↑,0.4789102000067942,True,7,-1,0,1

PB034M28,6,365,PS,exp,30,→,right,→,0.4518928999896161,True,7,1,1,2

PB034M28,6,366,PS,exp,47,←,left,←,0.44058850000146776,True,6,1,0,2

PB034M28,6,367,PS,exp,36,↑,up,↑,0.5942292000399902,True,6,1,0,2

PB034M28,6,368,PS,exp,47,→,right,→,0.5865716999978758,True,5,1,0,2

PB034M28,6,369,PS,exp,34,↑,left,←,0.7861822000122629,False,5,-1,1,3

PB034M28,6,370,PS,exp,26,↓,right,→,0.4567450000322424,False,6,-1,0,3

PB034M28,6,371,PS,exp,31,→,right,→,0.47712029999820516,True,7,-1,0,3

PB034M28,6,372,PS,exp,34,↑,up,↑,0.5124137999955565,True,7,1,1,4

PB034M28,6,373,PS,exp,37,→,up,↑,0.5115427999990061,False,6,-1,1,5

PB034M28,6,374,PS,exp,38,←,down,↓,0.7517639000434428,False,7,-1,0,5

PB034M28,6,375,PS,exp,37,→,right,→,0.4432634999975562,True,8,-1,0,5

PB034M28,6,376,PS,exp,44,←,right,→,0.3990512999589555,False,8,-1,0,5

PB034M28,6,377,PS,exp,26,→,right,→,0.6193678000126965,True,9,-1,0,5

PB034M28,6,378,PS,exp,34,←,left,←,0.5386659000068903,True,9,1,1,6

PB034M28,6,379,PS,exp,39,↓,down,↓,0.5275334999896586,True,8,1,0,6

PB034M28,6,380,PS,exp,40,↑,up,↑,0.5661653999704868,True,8,1,0,6

PB034M28,6,381,PS,exp,25,→,right,→,0.44424029998481274,True,7,1,0,6

PB034M28,6,382,PS,exp,32,↓,down,↓,0.6049979000235908,True,7,1,0,6

PB034M28,6,383,PS,exp,37,←,left,←,0.49528040003497154,True,6,1,0,6

PB034M28,6,384,PS,exp,29,→,right,→,0.47925060003763065,True,6,1,0,6

PB034M28,6,385,PS,exp,34,↓,down,↓,0.5472009999793954,True,5,1,0,6

PB034M28,6,386,PS,exp,35,←,left,←,0.5004563999827951,True,5,1,0,6

PB034M28,6,387,PS,exp,47,↑,left,←,0.816293699957896,False,4,-1,1,7

PB034M28,6,388,PS,exp,28,↓,down,↓,0.6901310000102967,True,5,-1,0,7

PB034M28,6,389,PS,exp,40,→,down,↓,0.935744300018996,False,5,-1,0,7

PB034M28,6,390,PS,exp,41,↓,right,→,0.6393539000418968,False,6,-1,0,7

PB034M28,6,391,PS,exp,31,→,left,←,0.6015641000121832,False,7,-1,0,7

PB034M28,6,392,PS,exp,45,↓,up,↑,0.6864349000388756,False,8,-1,0,7

PB034M28,6,393,PS,exp,38,↑,up,↑,0.5558260999969207,True,9,-1,0,7

PB034M28,6,394,PS,exp,47,←,left,←,0.4856347999884747,True,9,1,1,8

PB034M28,6,395,PS,exp,44,↑,left,←,0.48768389999167994,False,8,-1,1,9

PB034M28,6,396,PS,exp,25,→,right,→,0.4379588000010699,True,9,-1,0,9

PB034M28,6,397,PS,exp,29,↑,up,↑,0.5285113999852911,True,9,1,1,10

PB034M28,6,398,PS,exp,39,→,right,→,0.46020299999509007,True,8,1,0,10

PB034M28,6,399,PS,exp,47,↑,up,↑,0.4723777000326663,True,8,1,0,10

PB034M28,6,400,PS,exp,31,→,right,→,0.489093900017906,True,7,1,0,10

PB034M28,6,401,PS,exp,34,↑,left,←,1.1806840999634005,False,7,-1,1,11

PB034M28,6,402,PS,exp,44,→,right,→,0.4189582000253722,True,8,-1,0,11

PB034M28,6,403,PS,exp,45,←,left,←,0.585274200013373,True,8,1,1,12

PB034M28,6,404,PS,exp,25,→,up,↑,1.0989507000194862,False,7,-1,1,13

PB034M28,6,405,PS,exp,25,←,left,←,0.6227701000170782,True,8,-1,0,13

PB034M28,6,406,PS,exp,36,↓,down,↓,0.6507678999914788,True,8,1,1,14

PB034M28,7,407,PS,intra_train,31,←,left,←,0.4313177000149153,True,10,-,-,-

PB034M28,7,408,PS,intra_train,26,↓,left,←,0.5840641999966465,False,10,-,-,-

PB034M28,7,409,PS,intra_train,28,↑,up,↑,0.4575665000011213,True,10,-,-,-

PB034M28,7,410,PS,intra_train,45,←,left,←,0.4059201000491157,True,10,-,-,-

PB034M28,7,411,PS,intra_train,30,↓,down,↓,0.624560600030236,True,10,-,-,-

PB034M28,7,412,PS,exp,33,↑,up,↑,0.47864869999466464,True,7,0,0,0

PB034M28,7,413,PS,exp,36,←,left,←,0.4781688000075519,True,7,1,0,0

PB034M28,7,414,PS,exp,35,↓,down,↓,0.5973036999930628,True,6,1,0,0

PB034M28,7,415,PS,exp,42,↑,left,←,0.3263960999902338,False,6,-1,1,1

PB034M28,7,416,PS,exp,33,↓,down,↓,0.5893064999836497,True,7,-1,0,1

PB034M28,7,417,PS,exp,40,↑,up,↑,0.4499789000255987,True,7,1,1,2

PB034M28,7,418,PS,exp,38,→,up,↑,0.6407171000028029,False,6,-1,1,3

PB034M28,7,419,PS,exp,44,←,down,↓,0.5463862000033259,False,7,-1,0,3

PB034M28,7,420,PS,exp,48,↓,down,↓,0.5768250000546686,True,8,-1,0,3

PB034M28,7,421,PS,exp,34,←,left,←,0.4205105999717489,True,8,1,1,4

PB034M28,7,422,PS,exp,48,↓,down,↓,0.4984511000220664,True,7,1,0,4

PB034M28,7,423,PS,exp,37,→,right,→,0.4168208999908529,True,7,1,0,4

PB034M28,7,424,PS,exp,33,↓,down,↓,0.525461399985943,True,6,1,0,4

PB034M28,7,425,PS,exp,35,←,left,←,0.4092710999539122,True,6,1,0,4

PB034M28,7,426,PS,exp,42,↓,down,↓,0.5883185000275262,True,5,1,0,4

PB034M28,7,427,PS,exp,36,↑,up,↑,0.5112012999597937,True,5,1,0,4

PB034M28,7,428,PS,exp,50,↓,left,←,0.5090010999701917,False,4,-1,1,5

PB034M28,7,429,PS,exp,36,←,left,←,0.5423642999958247,True,5,-1,0,5

PB034M28,7,430,PS,exp,38,→,right,→,0.46568159997696057,True,5,1,1,6

PB034M28,7,431,PS,exp,36,↑,left,←,0.5922203999944031,False,4,-1,1,7

PB034M28,7,432,PS,exp,36,↓,right,→,0.5839609999675304,False,5,-1,0,7

PB034M28,7,433,PS,exp,48,↑,up,↑,0.6621783000300638,True,6,-1,0,7

PB034M28,7,434,PS,exp,29,↓,down,↓,0.7011114000342786,True,6,1,1,8

PB034M28,7,435,PS,exp,34,→,left,←,0.5008979999693111,False,5,-1,1,9

PB034M28,7,436,PS,exp,40,↓,up,↑,0.8591645000269637,False,6,-1,0,9

PB034M28,7,437,PS,exp,31,←,left,←,0.43087139999261126,True,7,-1,0,9

PB034M28,7,438,PS,exp,45,→,right,→,0.4307859999826178,True,7,1,1,10

PB034M28,7,439,PS,exp,45,↑,left,←,0.6370611000456847,False,6,-1,1,11

PB034M28,7,440,PS,exp,39,→,right,→,0.622557999973651,True,7,-1,0,11

PB034M28,7,441,PS,exp,36,↑,up,↑,0.6361490999697708,True,7,1,1,12

PB034M28,7,442,PS,exp,38,←,left,←,0.5532971000066027,True,6,1,0,12

PB034M28,7,443,PS,exp,29,↑,up,↑,0.46278879995225,True,6,1,0,12

PB034M28,7,444,PS,exp,43,←,right,→,0.40808190003735945,False,5,-1,1,13

PB034M28,7,445,PS,exp,32,→,right,→,0.7636925000115298,True,6,-1,0,13

PB034M28,7,446,PS,exp,29,↑,up,↑,0.5328423000173643,True,6,1,1,14

PB034M28,8,447,AS,intra_train,45,→,right,→,0.4927872000262141,True,18,-,-,-

PB034M28,8,448,AS,intra_train,49,←,left,←,0.38393339997855946,True,18,-,-,-

PB034M28,8,449,AS,intra_train,46,→,right,→,0.7324193000094965,True,18,-,-,-

PB034M28,8,450,AS,intra_train,38,↓,up,↑,0.6273120000259951,False,18,-,-,-

PB034M28,8,451,AS,intra_train,35,→,right,→,0.6401440999470651,True,18,-,-,-

PB034M28,8,452,AS,exp,42,↓,down,↓,0.5596558999968693,True,12,0,0,0

PB034M28,8,453,AS,exp,29,←,down,↓,0.7843881999724545,False,12,-1,0,0

PB034M28,8,454,AS,exp,26,↓,down,↓,0.7402780000120401,True,13,-1,0,0

PB034M28,8,455,AS,exp,40,↑,up,↑,0.4696412000339478,True,13,1,1,1

PB034M28,8,456,AS,exp,28,↓,up,↑,0.8287142000044696,False,12,-1,1,2

PB034M28,8,457,AS,exp,33,←,left,←,0.5344864999642596,True,13,-1,0,2

PB034M28,8,458,AS,exp,34,→,right,→,0.3887937000254169,True,13,1,1,3

PB034M28,8,459,AS,exp,27,←,left,←,0.5945614000083879,True,12,1,0,3

PB034M28,8,460,AS,exp,32,→,right,→,0.3776649000355974,True,12,1,0,3

PB034M28,8,461,AS,exp,47,↑,left,←,0.6993111000047065,False,11,-1,1,4

PB034M28,8,462,AS,exp,38,→,right,→,0.3797579000238329,True,12,-1,0,4

PB034M28,8,463,AS,exp,40,↑,up,↑,0.5951601999695413,True,12,1,1,5

PB034M28,8,464,AS,exp,42,→,right,→,0.3793440000154078,True,11,1,0,5

PB034M28,8,465,AS,exp,32,↑,up,↑,0.46397879999130964,True,11,1,0,5

PB034M28,8,466,AS,exp,29,→,right,→,0.3701263000257313,True,10,1,0,5

PB034M28,8,467,AS,exp,42,↓,left,←,0.7392719999770634,False,10,-1,1,6

PB034M28,8,468,AS,exp,29,↑,right,→,0.8766112999874167,False,11,-1,0,6

PB034M28,8,469,AS,exp,48,→,right,→,0.6592739999759942,True,12,-1,0,6

PB034M28,8,470,AS,exp,26,↓,down,↓,0.8854358000098728,True,12,1,1,7

PB034M28,8,471,AS,exp,48,←,right,→,0.6034832999575883,False,11,-1,1,8

PB034M28,8,472,AS,exp,42,↑,up,↑,0.6588516000192612,True,12,-1,0,8

PB034M28,8,473,AS,exp,32,→,right,→,0.593071700015571,True,12,1,1,9

PB034M28,8,474,AS,exp,27,↓,left,←,0.6621243000263348,False,11,-1,1,10

PB034M28,8,475,AS,exp,40,↑,up,↑,0.5535563000012189,True,12,-1,0,10

PB034M28,8,476,AS,exp,32,→,right,→,0.6256684999680147,True,12,1,1,11

PB034M28,8,477,AS,exp,41,↑,up,↑,0.9040556999971159,True,11,1,0,11

PB034M28,8,478,AS,exp,42,←,left,←,0.4633900000480935,True,11,1,0,11

PB034M28,8,479,AS,exp,45,→,left,←,0.6431870000087656,False,10,-1,1,12

PB034M28,8,480,AS,exp,26,↓,down,↓,0.7035409000236541,True,11,-1,0,12

PB034M28,8,481,AS,exp,25,→,left,←,0.5788872999837622,False,11,-1,0,12

PB034M28,8,482,AS,exp,40,←,left,←,0.6543355000321753,True,12,-1,0,12

PB034M28,8,483,AS,exp,33,↓,down,↓,0.5163362000021152,True,12,1,1,13

PB034M28,8,484,AS,exp,41,→,right,→,0.3698782999999821,True,11,1,0,13

PB034M28,8,485,AS,exp,31,↑,up,↑,0.42583690001629293,True,11,1,0,13

PB034M28,8,486,AS,exp,48,↓,down,↓,0.5838434000033885,True,10,1,0,13

PB034M28,8,487,AS,exp,47,→,right,→,0.4933137000189163,True,10,1,0,13

PB034M28,8,488,AS,exp,48,↑,up,↑,0.4114236999885179,True,9,1,0,13

PB034M28,8,489,AS,exp,25,→,right,→,0.3575979999732226,True,9,1,0,13

PB034M28,8,490,AS,exp,25,←,left,←,0.43703770003048703,True,8,1,0,13

PB034M28,8,491,AS,exp,27,↓,up,↑,0.6375038999831304,False,8,-1,1,14
