PART_ID,Block_no,Trial_no,Block_type,Trial_type,CSI,Stim_letter,Key_pressed,letter_choose,Rt,Corr,Stimulus Time,Level,Reversal,Revs_count
PB048K21,1,1,PS,train,44,→,no_key,no_letter,-1.0,False,30,-,-,-
PB048K21,1,2,PS,train,38,↓,down,↓,1.7543137000175193,True,30,-,-,-
PB048K21,1,3,PS,train,33,→,right,→,1.30386109999381,True,30,-,-,-
PB048K21,1,4,PS,train,31,↓,down,↓,0.6010841999668628,True,30,-,-,-
PB048K21,1,5,PS,train,27,→,right,→,0.6337249999633059,True,30,-,-,-
PB048K21,1,6,PS,train,26,↓,down,↓,1.3512196999508888,True,30,-,-,-
PB048K21,1,7,PS,train,26,←,left,←,0.5670373999746516,True,30,-,-,-
PB048K21,1,8,PS,train,40,↑,up,↑,1.985780299990438,True,30,-,-,-
PB048K21,1,9,PS,train,27,←,left,←,0.7105182999512181,True,30,-,-,-
PB048K21,1,10,PS,train,45,↑,up,↑,0.5834664999274537,True,30,-,-,-
PB048K21,2,11,AS,train,26,→,right,→,0.5678643999854103,True,45,-,-,-
PB048K21,2,12,AS,train,31,←,left,←,0.6345047999639064,True,45,-,-,-
PB048K21,2,13,AS,train,32,↓,left,←,0.7673222000012174,False,45,-,-,-
PB048K21,2,14,AS,train,48,→,right,→,0.7338070999830961,True,45,-,-,-
PB048K21,2,15,AS,train,34,↑,up,↑,0.7838223999133334,True,45,-,-,-
PB048K21,2,16,AS,train,43,→,right,→,0.817197100026533,True,45,-,-,-
PB048K21,2,17,AS,train,34,↓,down,↓,0.7338500000769272,True,45,-,-,-
PB048K21,2,18,AS,train,43,←,left,←,0.7502132999943569,True,45,-,-,-
PB048K21,2,19,AS,train,43,→,right,→,0.667535400018096,True,45,-,-,-
PB048K21,2,20,AS,train,32,↑,up,↑,0.883810400031507,True,45,-,-,-
PB048K21,-,21,PS,adaptive,42,←,left,←,0.6434625999536365,True,10,0,0,0
PB048K21,-,22,PS,adaptive,36,↑,up,↑,1.5647057999158278,True,10,1,0,0
PB048K21,-,23,PS,adaptive,26,↓,down,↓,0.5777596000116318,True,9,1,0,0
PB048K21,-,24,PS,adaptive,33,←,left,←,0.5767837000312284,True,9,1,0,0
PB048K21,-,25,PS,adaptive,32,↓,down,↓,0.4974580999696627,True,8,1,0,0
PB048K21,-,26,PS,adaptive,36,↑,right,→,1.241253700107336,False,8,-1,1,1
PB048K21,-,27,PS,adaptive,27,←,left,←,0.6448092999635264,True,9,-1,0,1
PB048K21,-,28,PS,adaptive,35,↓,down,↓,0.44699309999123216,True,9,1,1,2
PB048K21,-,29,PS,adaptive,49,→,down,↓,1.0894491000799462,False,8,-1,1,3
PB048K21,-,30,PS,adaptive,34,↑,right,→,0.8749661999754608,False,9,-1,0,3
PB048K21,-,31,PS,adaptive,29,→,right,→,0.8579108000267297,True,10,-1,0,3
PB048K21,-,32,PS,adaptive,34,↑,up,↑,0.7032392000546679,True,10,1,1,4
PB048K21,-,33,AS,adaptive,40,↓,down,↓,0.6633969000540674,True,20,0,0,0
PB048K21,-,34,AS,adaptive,30,←,left,←,0.4673262999858707,True,20,1,0,0
PB048K21,-,35,AS,adaptive,30,↓,down,↓,0.5512222000397742,True,19,1,0,0
PB048K21,-,36,AS,adaptive,28,←,left,←,0.45035629998892546,True,19,1,0,0
PB048K21,-,37,AS,adaptive,36,↓,down,↓,0.5484254999319091,True,18,1,0,0
PB048K21,-,38,AS,adaptive,26,→,down,↓,0.5266914000967517,False,18,-1,1,1
PB048K21,-,39,AS,adaptive,38,←,no_key,no_letter,-1.0,False,19,-1,0,1
PB048K21,-,40,AS,adaptive,42,↑,up,↑,0.7537570999702439,True,20,-1,0,1
PB048K21,-,41,AS,adaptive,34,↓,down,↓,0.7411566000664607,True,20,1,1,2
PB048K21,-,42,AS,adaptive,43,←,left,←,0.5233255000784993,True,19,1,0,2
PB048K21,-,43,AS,adaptive,47,↓,up,↑,0.75434589991346,False,19,-1,1,3
PB048K21,-,44,AS,adaptive,40,→,left,←,0.5615715999156237,False,20,-1,0,3
PB048K21,-,45,AS,adaptive,33,↓,down,↓,0.7793123999144882,True,21,-1,0,3
PB048K21,-,46,AS,adaptive,27,→,right,→,0.7569158000405878,True,21,1,1,4
PB048K21,1,47,AS,intra_train,36,←,right,→,0.5672108000144362,False,30,-,-,-
PB048K21,1,48,AS,intra_train,47,↑,up,↑,0.5504054999910295,True,30,-,-,-
PB048K21,1,49,AS,intra_train,28,←,left,←,0.9043617999413982,True,30,-,-,-
PB048K21,1,50,AS,intra_train,42,→,right,→,0.8170216999715194,True,30,-,-,-
PB048K21,1,51,AS,intra_train,44,←,left,←,0.6337754999985918,True,30,-,-,-
PB048K21,1,52,AS,exp,25,↓,down,↓,0.8185347999678925,True,20,0,0,0
PB048K21,1,53,AS,exp,42,↑,up,↑,0.8394141999306157,True,20,1,0,0
PB048K21,1,54,AS,exp,34,→,right,→,0.7074878999264911,True,19,1,0,0
PB048K21,1,55,AS,exp,35,←,right,→,1.067918400047347,False,19,-1,1,1
PB048K21,1,56,AS,exp,36,↓,down,↓,0.9931435000617057,True,20,-1,0,1
PB048K21,1,57,AS,exp,33,↑,down,↓,0.8630064999451861,False,20,-1,0,1
PB048K21,1,58,AS,exp,43,↓,down,↓,0.747224299935624,True,21,-1,0,1
PB048K21,1,59,AS,exp,49,↑,up,↑,1.0735985999926925,True,21,1,1,2
PB048K21,1,60,AS,exp,32,←,right,→,0.9945161000359803,False,20,-1,1,3
PB048K21,1,61,AS,exp,34,↓,down,↓,0.8813793000299484,True,21,-1,0,3
PB048K21,1,62,AS,exp,35,→,right,→,0.8184041999047622,True,21,1,1,4
PB048K21,1,63,AS,exp,43,↑,up,↑,0.6774749000323936,True,20,1,0,4
PB048K21,1,64,AS,exp,39,↓,down,↓,0.8896361999213696,True,20,1,0,4
PB048K21,1,65,AS,exp,28,→,right,→,0.8753724999260157,True,19,1,0,4
PB048K21,1,66,AS,exp,38,↓,down,↓,0.8443912999937311,True,19,1,0,4
PB048K21,1,67,AS,exp,36,↑,up,↑,0.9034506999887526,True,18,1,0,4
PB048K21,1,68,AS,exp,46,→,right,→,0.8024874000111595,True,18,1,0,4
PB048K21,1,69,AS,exp,48,↓,down,↓,0.9314797000261024,True,17,1,0,4
PB048K21,1,70,AS,exp,33,↑,up,↑,0.8720796999987215,True,17,1,0,4
PB048K21,1,71,AS,exp,34,↓,down,↓,0.8743875999934971,True,16,1,0,4
PB048K21,1,72,AS,exp,40,←,right,→,0.7536988999927416,False,16,-1,1,5
PB048K21,1,73,AS,exp,45,↑,down,↓,0.6962474000174552,False,17,-1,0,5
PB048K21,1,74,AS,exp,46,→,right,→,0.6853278999915347,True,18,-1,0,5
PB048K21,1,75,AS,exp,45,↓,right,→,0.7926135000307113,False,18,-1,0,5
PB048K21,1,76,AS,exp,26,←,right,→,0.9776949000079185,False,19,-1,0,5
PB048K21,1,77,AS,exp,34,↑,up,↑,0.8305758000351489,True,20,-1,0,5
PB048K21,1,78,AS,exp,29,←,left,←,0.8420380000025034,True,20,1,1,6
PB048K21,1,79,AS,exp,30,↑,up,↑,0.9970571000594646,True,19,1,0,6
PB048K21,1,80,AS,exp,44,↓,down,↓,0.7752225999720395,True,19,1,0,6
PB048K21,1,81,AS,exp,47,←,left,←,0.8564027000684291,True,18,1,0,6
PB048K21,1,82,AS,exp,33,→,right,→,0.7462550998898223,True,18,1,0,6
PB048K21,1,83,AS,exp,46,↑,up,↑,0.7990321000106633,True,17,1,0,6
PB048K21,1,84,AS,exp,36,←,left,←,0.8160307999933138,True,17,1,0,6
PB048K21,1,85,AS,exp,45,↑,up,↑,0.7792531999293715,True,16,1,0,6
PB048K21,1,86,AS,exp,34,→,right,→,0.6737701999954879,True,16,1,0,6
PB048K21,1,87,AS,exp,35,←,left,←,1.10887370002456,True,15,1,0,6
PB048K21,1,88,AS,exp,36,↓,up,↑,0.793989900033921,False,15,-1,1,7
PB048K21,1,89,AS,exp,29,→,right,→,0.6566384000470862,True,16,-1,0,7
PB048K21,1,90,AS,exp,38,↓,up,↑,0.8285777999553829,False,16,-1,0,7
PB048K21,1,91,AS,exp,43,→,right,→,0.8448591999476776,True,17,-1,0,7
PB048K21,1,92,AS,exp,28,←,left,←,0.9047269999282435,True,17,1,1,8
PB048K21,1,93,AS,exp,39,↓,up,↑,0.8532590999966487,False,16,-1,1,9
PB048K21,1,94,AS,exp,30,→,right,→,0.6401846999069676,True,17,-1,0,9
PB048K21,1,95,AS,exp,50,↓,up,↑,0.7808563000289723,False,17,-1,0,9
PB048K21,1,96,AS,exp,39,→,left,←,0.7669195999624208,False,18,-1,0,9
PB048K21,1,97,AS,exp,26,↓,down,↓,0.7080175000010058,True,19,-1,0,9
PB048K21,1,98,AS,exp,38,←,left,←,0.6290425999322906,True,19,1,1,10
PB048K21,1,99,AS,exp,25,↓,up,↑,0.8866354000056162,False,18,-1,1,11
PB048K21,1,100,AS,exp,32,↑,up,↑,1.0773592999903485,True,19,-1,0,11
PB048K21,1,101,AS,exp,29,↓,down,↓,0.8468480999581516,True,19,1,1,12
PB048K21,1,102,AS,exp,38,↑,down,↓,0.995559599949047,False,18,-1,1,13
PB048K21,1,103,AS,exp,36,↓,down,↓,1.103551600011997,True,19,-1,0,13
PB048K21,1,104,AS,exp,42,→,right,→,0.6394679000368342,True,19,1,1,14
PB048K21,2,105,PS,intra_train,43,←,left,←,0.7032575999619439,True,13,-,-,-
PB048K21,2,106,PS,intra_train,35,→,right,→,0.7717663999646902,True,13,-,-,-
PB048K21,2,107,PS,intra_train,43,↑,up,↑,0.7839660999597982,True,13,-,-,-
PB048K21,2,108,PS,intra_train,47,←,right,→,0.9219604999525473,False,13,-,-,-
PB048K21,2,109,PS,intra_train,34,↑,up,↑,0.8194325999356806,True,13,-,-,-
PB048K21,2,110,PS,exp,47,→,left,←,0.7595596000319347,False,9,-1,0,0
PB048K21,2,111,PS,exp,30,↑,right,→,0.9542881000088528,False,10,-1,0,0
PB048K21,2,112,PS,exp,39,↓,down,↓,0.6364369000075385,True,11,-1,0,0
PB048K21,2,113,PS,exp,26,↑,up,↑,0.6843870999291539,True,11,1,1,1
PB048K21,2,114,PS,exp,27,↓,down,↓,0.7114406999899074,True,10,1,0,1
PB048K21,2,115,PS,exp,40,←,right,→,0.7145458000013605,False,10,-1,1,2
PB048K21,2,116,PS,exp,46,→,right,→,0.5651763000059873,True,11,-1,0,2
PB048K21,2,117,PS,exp,44,↑,up,↑,0.5453224000521004,True,11,1,1,3
PB048K21,2,118,PS,exp,42,↓,right,→,0.7878263000166044,False,10,-1,1,4
PB048K21,2,119,PS,exp,45,↑,up,↑,0.6548704999731854,True,11,-1,0,4
PB048K21,2,120,PS,exp,39,→,right,→,0.6196321999887004,True,11,1,1,5
PB048K21,2,121,PS,exp,28,←,up,↑,0.8206793999997899,False,10,-1,1,6
PB048K21,2,122,PS,exp,40,↑,up,↑,0.6138622000580654,True,11,-1,0,6
PB048K21,2,123,PS,exp,27,→,right,→,0.54941640002653,True,11,1,1,7
PB048K21,2,124,PS,exp,33,↓,up,↑,0.8428911999799311,False,10,-1,1,8
PB048K21,2,125,PS,exp,37,→,right,→,0.505939400056377,True,11,-1,0,8
PB048K21,2,126,PS,exp,37,↑,up,↑,0.6948708000127226,True,11,1,1,9
PB048K21,2,127,PS,exp,36,↓,left,←,1.2315732999704778,False,10,-1,1,10
PB048K21,2,128,PS,exp,37,←,left,←,0.8093558999244124,True,11,-1,0,10
PB048K21,2,129,PS,exp,31,→,right,→,0.6858304999768734,True,11,1,1,11
PB048K21,2,130,PS,exp,40,←,left,←,0.630931599996984,True,10,1,0,11
PB048K21,2,131,PS,exp,30,↑,up,↑,0.5659918999299407,True,10,1,0,11
PB048K21,2,132,PS,exp,45,↓,down,↓,0.7064431000035256,True,9,1,0,11
PB048K21,2,133,PS,exp,49,↑,up,↑,0.6484531000023708,True,9,1,0,11
PB048K21,2,134,PS,exp,35,←,right,→,0.7348878999473527,False,8,-1,1,12
PB048K21,2,135,PS,exp,33,→,right,→,0.6729368000524119,True,9,-1,0,12
PB048K21,2,136,PS,exp,43,↓,down,↓,0.7951164001133293,True,9,1,1,13
PB048K21,2,137,PS,exp,49,→,right,→,0.5508439999539405,True,8,1,0,13
PB048K21,2,138,PS,exp,29,↓,right,→,1.2171500000404194,False,8,-1,1,14
PB048K21,3,139,PS,intra_train,41,→,right,→,0.5884947000304237,True,13,-,-,-
PB048K21,3,140,PS,intra_train,42,←,left,←,0.9384022000012919,True,13,-,-,-
PB048K21,3,141,PS,intra_train,25,↑,up,↑,1.1376645000418648,True,13,-,-,-
PB048K21,3,142,PS,intra_train,46,↓,down,↓,0.8153426999924704,True,13,-,-,-
PB048K21,3,143,PS,intra_train,42,→,left,←,0.7494135999586433,False,13,-,-,-
PB048K21,3,144,PS,exp,29,↑,up,↑,0.6146123999496922,True,9,0,0,0
PB048K21,3,145,PS,exp,26,→,left,←,0.7935170000419021,False,9,-1,0,0
PB048K21,3,146,PS,exp,45,↓,down,↓,0.6105933000799268,True,10,-1,0,0
PB048K21,3,147,PS,exp,45,←,left,←,0.6541116000153124,True,10,1,1,1
PB048K21,3,148,PS,exp,35,↑,right,→,0.7956008000764996,False,9,-1,1,2
PB048K21,3,149,PS,exp,48,→,right,→,0.6123500000685453,True,10,-1,0,2
PB048K21,3,150,PS,exp,45,↑,up,↑,0.8876901000039652,True,10,1,1,3
PB048K21,3,151,PS,exp,44,←,left,←,0.8644402000354603,True,9,1,0,3
PB048K21,3,152,PS,exp,37,↑,right,→,0.6628338000737131,False,9,-1,1,4
PB048K21,3,153,PS,exp,46,→,right,→,0.6097148999106139,True,10,-1,0,4
PB048K21,3,154,PS,exp,49,←,left,←,0.7478587999939919,True,10,1,1,5
PB048K21,3,155,PS,exp,27,→,left,←,1.0114667000016198,False,9,-1,1,6
PB048K21,3,156,PS,exp,40,←,left,←,0.5217024999437854,True,10,-1,0,6
PB048K21,3,157,PS,exp,25,↓,down,↓,0.7303660999750718,True,10,1,1,7
PB048K21,3,158,PS,exp,29,←,up,↑,1.7619057999690995,False,9,-1,1,8
PB048K21,3,159,PS,exp,46,↓,right,→,0.8770846999250352,False,10,-1,0,8
PB048K21,3,160,PS,exp,44,←,right,→,0.7723945999750867,False,11,-1,0,8
PB048K21,3,161,PS,exp,31,↓,left,←,0.8114590999903157,False,12,-1,0,8
PB048K21,3,162,PS,exp,30,←,left,←,0.5591119999298826,True,13,-1,0,8
PB048K21,3,163,PS,exp,36,↑,up,↑,0.6553877000696957,True,13,1,1,9
PB048K21,3,164,PS,exp,29,↓,down,↓,0.6701236000517383,True,12,1,0,9
PB048K21,3,165,PS,exp,35,→,right,→,0.6782316999742761,True,12,1,0,9
PB048K21,3,166,PS,exp,27,↓,down,↓,0.5811451999470592,True,11,1,0,9
PB048K21,3,167,PS,exp,31,↑,up,↑,0.5580048999981955,True,11,1,0,9
PB048K21,3,168,PS,exp,38,←,left,←,0.551541900029406,True,10,1,0,9
PB048K21,3,169,PS,exp,31,↓,down,↓,0.6601977000245824,True,10,1,0,9
PB048K21,3,170,PS,exp,28,←,left,←,0.7991345999762416,True,9,1,0,9
PB048K21,3,171,PS,exp,39,→,right,→,0.5749709999654442,True,9,1,0,9
PB048K21,3,172,PS,exp,38,↓,right,→,0.7913017000537366,False,8,-1,1,10
PB048K21,3,173,PS,exp,26,→,left,←,1.6756221000105143,False,9,-1,0,10
PB048K21,3,174,PS,exp,31,←,left,←,0.7406558999791741,True,10,-1,0,10
PB048K21,3,175,PS,exp,44,↓,right,→,0.9756348999217153,False,10,-1,0,10
PB048K21,3,176,PS,exp,47,→,right,→,0.5759736000327393,True,11,-1,0,10
PB048K21,3,177,PS,exp,35,↑,up,↑,0.7064517000690103,True,11,1,1,11
PB048K21,3,178,PS,exp,27,←,left,←,0.7028478999854997,True,10,1,0,11
PB048K21,3,179,PS,exp,35,↓,up,↑,0.6565242999931797,False,10,-1,1,12
PB048K21,3,180,PS,exp,50,←,left,←,0.4127999000484124,True,11,-1,0,12
PB048K21,3,181,PS,exp,31,→,right,→,0.5650064999936149,True,11,1,1,13
PB048K21,3,182,PS,exp,50,↓,right,→,0.8173217000439763,False,10,-1,1,14
PB048K21,4,183,AS,intra_train,43,→,left,←,0.46792580001056194,False,30,-,-,-
PB048K21,4,184,AS,intra_train,35,↓,no_key,no_letter,-1.0,False,30,-,-,-
PB048K21,4,185,AS,intra_train,29,←,left,←,0.7288144000340253,True,30,-,-,-
PB048K21,4,186,AS,intra_train,26,↑,up,↑,1.0117807000642642,True,30,-,-,-
PB048K21,4,187,AS,intra_train,27,←,left,←,0.6807262999936938,True,30,-,-,-
PB048K21,4,188,AS,exp,33,↓,down,↓,0.5759069999912754,True,20,0,0,0
PB048K21,4,189,AS,exp,36,↑,up,↑,0.8098874000133947,True,20,1,0,0
PB048K21,4,190,AS,exp,44,←,left,←,0.6508798999711871,True,19,1,0,0
PB048K21,4,191,AS,exp,41,→,right,→,0.6457419999642298,True,19,1,0,0
PB048K21,4,192,AS,exp,39,↑,up,↑,0.6963544000172988,True,18,1,0,0
PB048K21,4,193,AS,exp,25,↓,down,↓,0.8334965000394732,True,18,1,0,0
PB048K21,4,194,AS,exp,42,→,right,→,0.7795105000259355,True,17,1,0,0
PB048K21,4,195,AS,exp,28,↓,down,↓,0.81853150005918,True,17,1,0,0
PB048K21,4,196,AS,exp,45,←,left,←,0.7422740999609232,True,16,1,0,0
PB048K21,4,197,AS,exp,29,↑,down,↓,0.568202399997972,False,16,-1,1,1
PB048K21,4,198,AS,exp,40,←,left,←,0.6051435000263155,True,17,-1,0,1
PB048K21,4,199,AS,exp,45,↓,down,↓,0.7860440000658855,True,17,1,1,2
PB048K21,4,200,AS,exp,39,→,right,→,0.5980678000487387,True,16,1,0,2
PB048K21,4,201,AS,exp,40,←,left,←,0.6223529999842867,True,16,1,0,2
PB048K21,4,202,AS,exp,26,↓,left,←,0.6911913000512868,False,15,-1,1,3
PB048K21,4,203,AS,exp,31,↑,up,↑,0.6558199999853969,True,16,-1,0,3
PB048K21,4,204,AS,exp,47,→,left,←,0.6903749000048265,False,16,-1,0,3
PB048K21,4,205,AS,exp,41,←,left,←,0.6655991000588983,True,17,-1,0,3
PB048K21,4,206,AS,exp,36,↑,up,↑,0.617331900051795,True,17,1,1,4
PB048K21,4,207,AS,exp,44,←,left,←,0.6263295999960974,True,16,1,0,4
PB048K21,4,208,AS,exp,29,↓,up,↑,0.7219784000189975,False,16,-1,1,5
PB048K21,4,209,AS,exp,47,→,right,→,0.923754999996163,True,17,-1,0,5
PB048K21,4,210,AS,exp,31,↓,down,↓,0.8586118000093848,True,17,1,1,6
PB048K21,4,211,AS,exp,28,↑,up,↑,0.680188300088048,True,16,1,0,6
PB048K21,4,212,AS,exp,35,→,right,→,0.6387144000036642,True,16,1,0,6
PB048K21,4,213,AS,exp,41,↓,up,↑,0.7841586000286043,False,15,-1,1,7
PB048K21,4,214,AS,exp,40,←,left,←,0.7559594000922516,True,16,-1,0,7
PB048K21,4,215,AS,exp,27,↓,down,↓,0.653906499966979,True,16,1,1,8
PB048K21,4,216,AS,exp,31,→,right,→,0.6710612999740988,True,15,1,0,8
PB048K21,4,217,AS,exp,32,←,left,←,0.8158501998987049,True,15,1,0,8
PB048K21,4,218,AS,exp,47,→,right,→,0.8645291000138968,True,14,1,0,8
PB048K21,4,219,AS,exp,30,↑,left,←,0.8110236000502482,False,14,-1,1,9
PB048K21,4,220,AS,exp,44,↓,down,↓,0.6904584000585601,True,15,-1,0,9
PB048K21,4,221,AS,exp,42,←,left,←,0.7365537999430671,True,15,1,1,10
PB048K21,4,222,AS,exp,40,↓,down,↓,0.6532211999874562,True,14,1,0,10
PB048K21,4,223,AS,exp,41,←,right,→,0.7739125000080094,False,14,-1,1,11
PB048K21,4,224,AS,exp,40,↑,up,↑,0.6707495000446215,True,15,-1,0,11
PB048K21,4,225,AS,exp,38,→,right,→,0.7288918000413105,True,15,1,1,12
PB048K21,4,226,AS,exp,28,↓,down,↓,0.7682815999723971,True,14,1,0,12
PB048K21,4,227,AS,exp,36,↑,up,↑,0.7612498999806121,True,14,1,0,12
PB048K21,4,228,AS,exp,37,→,right,→,0.6262736999196932,True,13,1,0,12
PB048K21,4,229,AS,exp,46,↓,up,↑,1.0244630000088364,False,13,-1,1,13
PB048K21,4,230,AS,exp,41,↑,left,←,1.4491046000039205,False,14,-1,0,13
PB048K21,4,231,AS,exp,48,→,right,→,0.5964644000632688,True,15,-1,0,13
PB048K21,4,232,AS,exp,25,↓,up,↑,0.7467459000181407,False,15,-1,0,13
PB048K21,4,233,AS,exp,25,←,left,←,0.8151481000240892,True,16,-1,0,13
PB048K21,4,234,AS,exp,48,↓,down,↓,0.7191023000050336,True,16,1,1,14
PB048K21,5,235,AS,intra_train,35,→,right,→,1.871461799950339,True,30,-,-,-
PB048K21,5,236,AS,intra_train,37,←,left,←,0.6335774000035599,True,30,-,-,-
PB048K21,5,237,AS,intra_train,34,↓,down,↓,0.7890447999816388,True,30,-,-,-
PB048K21,5,238,AS,intra_train,48,↑,up,↑,1.4213713000062853,True,30,-,-,-
PB048K21,5,239,AS,intra_train,33,←,left,←,0.6856843999121338,True,30,-,-,-
PB048K21,5,240,AS,exp,34,→,right,→,1.4611444000620395,True,20,0,0,0
PB048K21,5,241,AS,exp,31,↑,up,↑,0.7838561999378726,True,20,1,0,0
PB048K21,5,242,AS,exp,41,←,left,←,0.7503154999576509,True,19,1,0,0
PB048K21,5,243,AS,exp,35,↑,up,↑,0.7317724000895396,True,19,1,0,0
PB048K21,5,244,AS,exp,49,←,left,←,0.6556846000021324,True,18,1,0,0
PB048K21,5,245,AS,exp,38,↑,up,↑,0.5911641999846324,True,18,1,0,0
PB048K21,5,246,AS,exp,35,↓,down,↓,0.5685645000776276,True,17,1,0,0
PB048K21,5,247,AS,exp,31,→,right,→,0.8297497000312433,True,17,1,0,0
PB048K21,5,248,AS,exp,39,↓,down,↓,0.8150831999955699,True,16,1,0,0
PB048K21,5,249,AS,exp,32,←,left,←,0.6698124000104144,True,16,1,0,0
PB048K21,5,250,AS,exp,36,→,right,→,0.6447013999568298,True,15,1,0,0
PB048K21,5,251,AS,exp,46,↑,left,←,1.0395085000200197,False,15,-1,1,1
PB048K21,5,252,AS,exp,50,↓,up,↑,0.8905070000328124,False,16,-1,0,1
PB048K21,5,253,AS,exp,39,→,right,→,0.7922811999451369,True,17,-1,0,1
PB048K21,5,254,AS,exp,31,↑,up,↑,0.7400884000817314,True,17,1,1,2
PB048K21,5,255,AS,exp,28,→,right,→,0.6461207999382168,True,16,1,0,2
PB048K21,5,256,AS,exp,27,↓,down,↓,0.639623999944888,True,16,1,0,2
PB048K21,5,257,AS,exp,39,↑,up,↑,0.6837001999374479,True,15,1,0,2
PB048K21,5,258,AS,exp,44,←,left,←,0.9101984000299126,True,15,1,0,2
PB048K21,5,259,AS,exp,47,↑,up,↑,0.7443853999720886,True,14,1,0,2
PB048K21,5,260,AS,exp,27,↓,left,←,0.7976063000969589,False,14,-1,1,3
PB048K21,5,261,AS,exp,50,→,left,←,0.770177899976261,False,15,-1,0,3
PB048K21,5,262,AS,exp,28,↑,up,↑,0.6012296000262722,True,16,-1,0,3
PB048K21,5,263,AS,exp,36,←,left,←,0.6406895000254735,True,16,1,1,4
PB048K21,5,264,AS,exp,25,↑,up,↑,0.6728927999502048,True,15,1,0,4
PB048K21,5,265,AS,exp,25,←,left,←,0.7360442999051884,True,15,1,0,4
PB048K21,5,266,AS,exp,44,→,left,←,0.6165970000438392,False,14,-1,1,5
PB048K21,5,267,AS,exp,46,↑,up,↑,0.6338382000103593,True,15,-1,0,5
PB048K21,5,268,AS,exp,25,↓,down,↓,0.6687333000591025,True,15,1,1,6
PB048K21,5,269,AS,exp,26,→,right,→,0.7752636999357492,True,14,1,0,6
PB048K21,5,270,AS,exp,45,↑,down,↓,0.7688118000514805,False,14,-1,1,7
PB048K21,5,271,AS,exp,45,→,left,←,0.679697799962014,False,15,-1,0,7
PB048K21,5,272,AS,exp,41,↑,up,↑,0.6488018999807537,True,16,-1,0,7
PB048K21,5,273,AS,exp,46,↓,down,↓,0.8087562000146136,True,16,1,1,8
PB048K21,5,274,AS,exp,42,→,right,→,0.6326576999854296,True,15,1,0,8
PB048K21,5,275,AS,exp,45,↑,up,↑,0.8333940000738949,True,15,1,0,8
PB048K21,5,276,AS,exp,40,←,left,←,0.7268790000816807,True,14,1,0,8
PB048K21,5,277,AS,exp,25,→,right,→,0.5267680999822915,True,14,1,0,8
PB048K21,5,278,AS,exp,50,←,left,←,0.7542626999784261,True,13,1,0,8
PB048K21,5,279,AS,exp,39,↑,up,↑,0.6459078000625595,True,13,1,0,8
PB048K21,5,280,AS,exp,41,→,right,→,0.6497409000294283,True,12,1,0,8
PB048K21,5,281,AS,exp,26,↑,up,↑,0.7417251999722794,True,12,1,0,8
PB048K21,5,282,AS,exp,49,←,right,→,0.6611779999220744,False,11,-1,1,9
PB048K21,5,283,AS,exp,31,↑,up,↑,0.6574400999816135,True,12,-1,0,9
PB048K21,5,284,AS,exp,31,→,left,←,0.690367600065656,False,12,-1,0,9
PB048K21,5,285,AS,exp,27,↑,up,↑,0.8565094000659883,True,13,-1,0,9
PB048K21,5,286,AS,exp,49,←,left,←,0.7175557999871671,True,13,1,1,10
PB048K21,5,287,AS,exp,50,↑,left,←,1.2070194999687374,False,12,-1,1,11
PB048K21,5,288,AS,exp,44,←,left,←,0.6040642999578267,True,13,-1,0,11
PB048K21,5,289,AS,exp,30,↑,up,↑,0.7489823999349028,True,13,1,1,12
PB048K21,5,290,AS,exp,37,↓,down,↓,0.6718526999466121,True,12,1,0,12
PB048K21,5,291,AS,exp,36,←,left,←,0.552868300001137,True,12,1,0,12
PB048K21,5,292,AS,exp,30,→,right,→,0.6610304999630898,True,11,1,0,12
PB048K21,5,293,AS,exp,29,↑,up,↑,0.6622785000363365,True,11,1,0,12
PB048K21,5,294,AS,exp,36,→,right,→,0.7085321999620646,True,10,1,0,12
PB048K21,5,295,AS,exp,49,↑,up,↑,0.6172359000192955,True,10,1,0,12
PB048K21,5,296,AS,exp,49,←,left,←,0.5869017000077292,True,9,1,0,12
PB048K21,5,297,AS,exp,26,→,up,↑,0.7194291000487283,False,9,-1,1,13
PB048K21,5,298,AS,exp,49,←,left,←,0.4722274999367073,True,10,-1,0,13
PB048K21,5,299,AS,exp,40,→,right,→,0.6022612999659032,True,10,1,1,14
PB048K21,6,300,PS,intra_train,31,←,left,←,0.6928672000067309,True,13,-,-,-
PB048K21,6,301,PS,intra_train,37,↓,down,↓,0.7713776000309736,True,13,-,-,-
PB048K21,6,302,PS,intra_train,35,←,left,←,0.8811501999152824,True,13,-,-,-
PB048K21,6,303,PS,intra_train,37,↑,up,↑,0.8300932999700308,True,13,-,-,-
PB048K21,6,304,PS,intra_train,41,←,left,←,0.8396225000033155,True,13,-,-,-
PB048K21,6,305,PS,exp,45,↓,down,↓,0.7508271000115201,True,9,0,0,0
PB048K21,6,306,PS,exp,49,→,right,→,0.8120761000318453,True,9,1,0,0
PB048K21,6,307,PS,exp,49,←,left,←,0.6910033000167459,True,8,1,0,0
PB048K21,6,308,PS,exp,44,↑,up,↑,0.7269519999390468,True,8,1,0,0
PB048K21,6,309,PS,exp,41,↓,down,↓,0.9096434999955818,True,7,1,0,0
PB048K21,6,310,PS,exp,47,←,left,←,0.7353133999276906,True,7,1,0,0
PB048K21,6,311,PS,exp,40,↑,up,↑,0.7517347000539303,True,6,1,0,0
PB048K21,6,312,PS,exp,28,→,right,→,0.7546044999035075,True,6,1,0,0
PB048K21,6,313,PS,exp,47,↑,down,↓,0.8729306000750512,False,5,-1,1,1
PB048K21,6,314,PS,exp,25,←,left,←,0.6386397000169381,True,6,-1,0,1
PB048K21,6,315,PS,exp,43,↓,down,↓,0.700906699988991,True,6,1,1,2
PB048K21,6,316,PS,exp,40,→,right,→,0.6486903000622988,True,5,1,0,2
PB048K21,6,317,PS,exp,50,←,left,←,0.6401206000009552,True,5,1,0,2
PB048K21,6,318,PS,exp,37,→,right,→,0.7888976000249386,True,4,1,0,2
PB048K21,6,319,PS,exp,44,↑,left,←,0.7026876000454649,False,4,-1,1,3
PB048K21,6,320,PS,exp,48,←,right,→,1.0455469000153244,False,5,-1,0,3
PB048K21,6,321,PS,exp,26,→,right,→,0.7438906999304891,True,6,-1,0,3
PB048K21,6,322,PS,exp,26,↓,right,→,0.7524898999836296,False,6,-1,0,3
PB048K21,6,323,PS,exp,33,←,right,→,0.9608153000008315,False,7,-1,0,3
PB048K21,6,324,PS,exp,40,↓,right,→,0.715146700036712,False,8,-1,0,3
PB048K21,6,325,PS,exp,38,→,left,←,0.9285180999431759,False,9,-1,0,3
PB048K21,6,326,PS,exp,35,↑,right,→,0.8394665999803692,False,10,-1,0,3
PB048K21,6,327,PS,exp,42,←,left,←,0.6024251999333501,True,11,-1,0,3
PB048K21,6,328,PS,exp,46,↓,down,↓,0.5033880000701174,True,11,1,1,4
PB048K21,6,329,PS,exp,45,←,left,←,0.9198819000739604,True,10,1,0,4
PB048K21,6,330,PS,exp,46,↑,up,↑,0.569409399991855,True,10,1,0,4
PB048K21,6,331,PS,exp,26,↓,down,↓,0.7510361999738961,True,9,1,0,4
PB048K21,6,332,PS,exp,34,→,right,→,0.7302834999281913,True,9,1,0,4
PB048K21,6,333,PS,exp,48,←,down,↓,0.8108188000041991,False,8,-1,1,5
PB048K21,6,334,PS,exp,33,→,right,→,0.5826772000873461,True,9,-1,0,5
PB048K21,6,335,PS,exp,47,←,right,→,0.8661246999399737,False,9,-1,0,5
PB048K21,6,336,PS,exp,31,↓,left,←,0.8568767999531701,False,10,-1,0,5
PB048K21,6,337,PS,exp,36,→,left,←,0.6071175000397488,False,11,-1,0,5
PB048K21,6,338,PS,exp,42,←,right,→,0.5000908999936655,False,12,-1,0,5
PB048K21,6,339,PS,exp,46,→,right,→,0.8490097000030801,True,13,-1,0,5
PB048K21,6,340,PS,exp,28,←,left,←,0.7205448000459,True,13,1,1,6
PB048K21,6,341,PS,exp,26,↑,up,↑,0.8115744000533596,True,12,1,0,6
PB048K21,6,342,PS,exp,26,←,right,→,0.5157963000237942,False,12,-1,1,7
PB048K21,6,343,PS,exp,45,→,right,→,0.7513390000676736,True,13,-1,0,7
PB048K21,6,344,PS,exp,28,←,left,←,0.8118220999604091,True,13,1,1,8
PB048K21,6,345,PS,exp,45,→,right,→,0.6922374999849126,True,12,1,0,8
PB048K21,6,346,PS,exp,45,↓,up,↑,0.7473222999833524,False,12,-1,1,9
PB048K21,6,347,PS,exp,39,↑,up,↑,0.7132446999894455,True,13,-1,0,9
PB048K21,6,348,PS,exp,50,↓,down,↓,0.7161434000590816,True,13,1,1,10
PB048K21,6,349,PS,exp,30,↑,up,↑,0.9577724999981001,True,12,1,0,10
PB048K21,6,350,PS,exp,43,←,left,←,0.7637810000451282,True,12,1,0,10
PB048K21,6,351,PS,exp,37,↑,up,↑,0.8484292000066489,True,11,1,0,10
PB048K21,6,352,PS,exp,49,↓,right,→,0.9812447000294924,False,11,-1,1,11
PB048K21,6,353,PS,exp,43,→,right,→,0.7252588000847027,True,12,-1,0,11
PB048K21,6,354,PS,exp,26,←,left,←,0.9863148999866098,True,12,1,1,12
PB048K21,6,355,PS,exp,35,→,right,→,0.6725344000151381,True,11,1,0,12
PB048K21,6,356,PS,exp,29,←,left,←,0.6097961000632495,True,11,1,0,12
PB048K21,6,357,PS,exp,33,↓,up,↑,0.794930100091733,False,10,-1,1,13
PB048K21,6,358,PS,exp,46,↑,up,↑,0.6344663000199944,True,11,-1,0,13
PB048K21,6,359,PS,exp,43,←,right,→,0.6885416000150144,False,11,-1,0,13
PB048K21,6,360,PS,exp,48,→,right,→,0.5435439000139013,True,12,-1,0,13
PB048K21,6,361,PS,exp,49,←,right,→,0.7499802999664098,False,12,-1,0,13
PB048K21,6,362,PS,exp,38,→,right,→,0.6213789999019355,True,13,-1,0,13
PB048K21,6,363,PS,exp,50,←,left,←,0.7350084000499919,True,13,1,1,14
PB048K21,7,364,PS,intra_train,25,→,right,→,0.5717612999724224,True,13,-,-,-
PB048K21,7,365,PS,intra_train,28,↓,down,↓,0.8132151000900194,True,13,-,-,-
PB048K21,7,366,PS,intra_train,33,↑,up,↑,0.5771401999518275,True,13,-,-,-
PB048K21,7,367,PS,intra_train,34,→,right,→,0.6808480001054704,True,13,-,-,-
PB048K21,7,368,PS,intra_train,29,↑,up,↑,0.6847307999851182,True,13,-,-,-
PB048K21,7,369,PS,exp,42,→,right,→,0.7763345000566915,True,9,0,0,0
PB048K21,7,370,PS,exp,27,←,right,→,0.7858740000519902,False,9,-1,0,0
PB048K21,7,371,PS,exp,44,→,right,→,0.8429052999708802,True,10,-1,0,0
PB048K21,7,372,PS,exp,38,↑,up,↑,0.6485036000376567,True,10,1,1,1
PB048K21,7,373,PS,exp,29,↓,down,↓,0.7163775999797508,True,9,1,0,1
PB048K21,7,374,PS,exp,38,←,left,←,0.7969823000021279,True,9,1,0,1
PB048K21,7,375,PS,exp,41,→,right,→,0.6528331000590697,True,8,1,0,1
PB048K21,7,376,PS,exp,46,↓,down,↓,0.6688413999509066,True,8,1,0,1
PB048K21,7,377,PS,exp,46,←,left,←,0.6930751000763848,True,7,1,0,1
PB048K21,7,378,PS,exp,27,↓,down,↓,0.539581699995324,True,7,1,0,1
PB048K21,7,379,PS,exp,49,←,left,←,0.6930391000350937,True,6,1,0,1
PB048K21,7,380,PS,exp,33,→,right,→,0.7349542999872938,True,6,1,0,1
PB048K21,7,381,PS,exp,48,←,left,←,0.6347605999326333,True,5,1,0,1
PB048K21,7,382,PS,exp,49,→,right,→,0.6977293000090867,True,5,1,0,1
PB048K21,7,383,PS,exp,39,←,left,←,0.6232720999978483,True,4,1,0,1
PB048K21,7,384,PS,exp,26,↑,left,←,0.6802507999818772,False,4,-1,1,2
PB048K21,7,385,PS,exp,26,↓,down,↓,0.8431044000899419,True,5,-1,0,2
PB048K21,7,386,PS,exp,35,←,left,←,0.7272413000464439,True,5,1,1,3
PB048K21,7,387,PS,exp,27,↑,up,↑,0.6541327000595629,True,4,1,0,3
PB048K21,7,388,PS,exp,29,←,right,→,0.7785299000097439,False,4,-1,1,4
PB048K21,7,389,PS,exp,34,→,right,→,0.634950999985449,True,5,-1,0,4
PB048K21,7,390,PS,exp,44,↓,down,↓,0.6810807000147179,True,5,1,1,5
PB048K21,7,391,PS,exp,46,→,left,←,0.7095677999313921,False,4,-1,1,6
PB048K21,7,392,PS,exp,30,↑,right,→,0.6730727000394836,False,5,-1,0,6
PB048K21,7,393,PS,exp,33,←,right,→,1.047241499996744,False,6,-1,0,6
PB048K21,7,394,PS,exp,46,→,left,←,0.4924517000326887,False,7,-1,0,6
PB048K21,7,395,PS,exp,25,↓,left,←,0.599969599978067,False,8,-1,0,6
PB048K21,7,396,PS,exp,42,↑,left,←,1.1047363999532536,False,9,-1,0,6
PB048K21,7,397,PS,exp,29,→,right,→,0.7382878999924287,True,10,-1,0,6
PB048K21,7,398,PS,exp,46,↑,up,↑,0.6385574000887573,True,10,1,1,7
PB048K21,7,399,PS,exp,45,→,right,→,0.6912045999197289,True,9,1,0,7
PB048K21,7,400,PS,exp,37,←,left,←,0.7460104000056162,True,9,1,0,7
PB048K21,7,401,PS,exp,40,↑,up,↑,0.7501078000059351,True,8,1,0,7
PB048K21,7,402,PS,exp,48,↓,down,↓,0.6724128000205383,True,8,1,0,7
PB048K21,7,403,PS,exp,38,→,right,→,0.6253730999305844,True,7,1,0,7
PB048K21,7,404,PS,exp,44,←,left,←,0.6246885999571532,True,7,1,0,7
PB048K21,7,405,PS,exp,30,↑,up,↑,0.6415825999574736,True,6,1,0,7
PB048K21,7,406,PS,exp,31,↓,down,↓,0.5773973999312147,True,6,1,0,7
PB048K21,7,407,PS,exp,46,←,up,↑,0.6149926000507548,False,5,-1,1,8
PB048K21,7,408,PS,exp,38,→,right,→,0.5733784000622109,True,6,-1,0,8
PB048K21,7,409,PS,exp,25,↓,right,→,0.7168437999207526,False,6,-1,0,8
PB048K21,7,410,PS,exp,43,←,right,→,0.6078185000224039,False,7,-1,0,8
PB048K21,7,411,PS,exp,29,↓,right,→,0.8424823000095785,False,8,-1,0,8
PB048K21,7,412,PS,exp,36,→,right,→,0.5704659000039101,True,9,-1,0,8
PB048K21,7,413,PS,exp,37,↓,down,↓,0.6919634999940172,True,9,1,1,9
PB048K21,7,414,PS,exp,38,↑,left,←,0.6663155000424013,False,8,-1,1,10
PB048K21,7,415,PS,exp,43,↓,down,↓,0.6305790999904275,True,9,-1,0,10
PB048K21,7,416,PS,exp,30,→,right,→,0.6507607999956235,True,9,1,1,11
PB048K21,7,417,PS,exp,26,↑,up,↑,0.6867310999659821,True,8,1,0,11
PB048K21,7,418,PS,exp,25,←,left,←,0.5413738000206649,True,8,1,0,11
PB048K21,7,419,PS,exp,31,↑,up,↑,0.5633641000604257,True,7,1,0,11
PB048K21,7,420,PS,exp,47,←,left,←,0.7039985000155866,True,7,1,0,11
PB048K21,7,421,PS,exp,35,↑,up,↑,0.598474400001578,True,6,1,0,11
PB048K21,7,422,PS,exp,34,←,left,←,0.6357000999851152,True,6,1,0,11
PB048K21,7,423,PS,exp,34,→,left,←,0.7427557000191882,False,5,-1,1,12
PB048K21,7,424,PS,exp,39,↓,down,↓,0.6642394000664353,True,6,-1,0,12
PB048K21,7,425,PS,exp,35,→,right,→,0.5695421999553218,True,6,1,1,13
PB048K21,7,426,PS,exp,27,↑,up,↑,0.5798294999403879,True,5,1,0,13
PB048K21,7,427,PS,exp,42,←,right,→,0.6009369000094011,False,5,-1,1,14
PB048K21,8,428,AS,intra_train,27,→,right,→,0.5505764000117779,True,30,-,-,-
PB048K21,8,429,AS,intra_train,29,←,left,←,0.7922249999828637,True,30,-,-,-
PB048K21,8,430,AS,intra_train,26,→,right,→,0.7569316999288276,True,30,-,-,-
PB048K21,8,431,AS,intra_train,44,←,left,←,0.8166570999892429,True,30,-,-,-
PB048K21,8,432,AS,intra_train,44,↑,up,↑,0.6169345999369398,True,30,-,-,-
PB048K21,8,433,AS,exp,37,←,left,←,0.8325772000243887,True,20,0,0,0
PB048K21,8,434,AS,exp,38,↓,down,↓,0.7875668999040499,True,20,1,0,0
PB048K21,8,435,AS,exp,41,↑,up,↑,0.8429452000418678,True,19,1,0,0
PB048K21,8,436,AS,exp,26,→,right,→,0.6617170000681654,True,19,1,0,0
PB048K21,8,437,AS,exp,40,↑,up,↑,0.7799460999667645,True,18,1,0,0
PB048K21,8,438,AS,exp,43,→,right,→,0.6371402000077069,True,18,1,0,0
PB048K21,8,439,AS,exp,34,←,right,→,0.7692095999373123,False,17,-1,1,1
PB048K21,8,440,AS,exp,49,↓,down,↓,0.5926872999407351,True,18,-1,0,1
PB048K21,8,441,AS,exp,37,↑,up,↑,0.7910045000026003,True,18,1,1,2
PB048K21,8,442,AS,exp,48,↓,down,↓,0.6778791000833735,True,17,1,0,2
PB048K21,8,443,AS,exp,28,←,left,←,0.7196710000280291,True,17,1,0,2
PB048K21,8,444,AS,exp,27,↓,down,↓,0.691505299997516,True,16,1,0,2
PB048K21,8,445,AS,exp,47,→,right,→,0.688919399981387,True,16,1,0,2
PB048K21,8,446,AS,exp,46,↓,down,↓,0.6790405999636278,True,15,1,0,2
PB048K21,8,447,AS,exp,27,→,right,→,0.5905157999368384,True,15,1,0,2
PB048K21,8,448,AS,exp,46,↑,down,↓,0.807677400065586,False,14,-1,1,3
PB048K21,8,449,AS,exp,50,←,left,←,0.7497093999991193,True,15,-1,0,3
PB048K21,8,450,AS,exp,44,↑,up,↑,0.6546279999893159,True,15,1,1,4
PB048K21,8,451,AS,exp,34,↓,down,↓,0.7228037000168115,True,14,1,0,4
PB048K21,8,452,AS,exp,40,↑,up,↑,0.7820947000291198,True,14,1,0,4
PB048K21,8,453,AS,exp,37,↓,down,↓,0.6972679999889806,True,13,1,0,4
PB048K21,8,454,AS,exp,35,←,down,↓,0.8893818000797182,False,13,-1,1,5
PB048K21,8,455,AS,exp,43,↓,down,↓,0.6961185000836849,True,14,-1,0,5
PB048K21,8,456,AS,exp,34,↑,down,↓,0.8059980000834912,False,14,-1,0,5
PB048K21,8,457,AS,exp,25,→,right,→,0.6141632000217214,True,15,-1,0,5
PB048K21,8,458,AS,exp,28,↓,down,↓,0.6475616000825539,True,15,1,1,6
PB048K21,8,459,AS,exp,42,→,right,→,0.5338494000025094,True,14,1,0,6
PB048K21,8,460,AS,exp,34,←,left,←,0.5195571000222117,True,14,1,0,6
PB048K21,8,461,AS,exp,35,↑,up,↑,0.9085693000815809,True,13,1,0,6
PB048K21,8,462,AS,exp,39,↓,down,↓,0.5595193000044674,True,13,1,0,6
PB048K21,8,463,AS,exp,33,←,left,←,0.567388299969025,True,12,1,0,6
PB048K21,8,464,AS,exp,28,→,right,→,0.6391507999505848,True,12,1,0,6
PB048K21,8,465,AS,exp,39,←,left,←,0.654439999954775,True,11,1,0,6
PB048K21,8,466,AS,exp,34,→,right,→,0.6147902000229806,True,11,1,0,6
PB048K21,8,467,AS,exp,35,←,left,←,0.6157738999463618,True,10,1,0,6
PB048K21,8,468,AS,exp,50,→,right,→,0.459454600000754,True,10,1,0,6
PB048K21,8,469,AS,exp,40,←,right,→,0.5774321000790223,False,9,-1,1,7
PB048K21,8,470,AS,exp,32,→,right,→,0.4959133999655023,True,10,-1,0,7
PB048K21,8,471,AS,exp,49,↓,up,↑,0.9674211000092328,False,10,-1,0,7
PB048K21,8,472,AS,exp,34,→,right,→,1.3126579000381753,True,11,-1,0,7
PB048K21,8,473,AS,exp,48,↓,down,↓,0.8075012000044808,True,11,1,1,8
PB048K21,8,474,AS,exp,34,↑,down,↓,0.6191186999203637,False,10,-1,1,9
PB048K21,8,475,AS,exp,38,→,left,←,0.7876026999438182,False,11,-1,0,9
PB048K21,8,476,AS,exp,31,←,left,←,0.6553070999216288,True,12,-1,0,9
PB048K21,8,477,AS,exp,45,↑,up,↑,0.6865517999976873,True,12,1,1,10
PB048K21,8,478,AS,exp,34,→,right,→,0.6326031000353396,True,11,1,0,10
PB048K21,8,479,AS,exp,37,↑,up,↑,0.7311379000311717,True,11,1,0,10
PB048K21,8,480,AS,exp,48,→,right,→,0.7366236000088975,True,10,1,0,10
PB048K21,8,481,AS,exp,47,↑,up,↑,0.6336531999986619,True,10,1,0,10
PB048K21,8,482,AS,exp,33,→,right,→,0.7937907000305131,True,9,1,0,10
PB048K21,8,483,AS,exp,36,←,left,←,0.7758957999758422,True,9,1,0,10
PB048K21,8,484,AS,exp,37,↑,up,↑,0.6584268000442535,True,8,1,0,10
PB048K21,8,485,AS,exp,40,→,right,→,0.5499668000265956,True,8,1,0,10
PB048K21,8,486,AS,exp,35,←,right,→,0.6185817000223324,False,7,-1,1,11
PB048K21,8,487,AS,exp,26,↑,up,↑,0.6433175000129268,True,8,-1,0,11
PB048K21,8,488,AS,exp,27,←,left,←,0.7011888000415638,True,8,1,1,12
PB048K21,8,489,AS,exp,48,→,right,→,0.6917410000460222,True,7,1,0,12
PB048K21,8,490,AS,exp,42,↓,right,→,0.6773901999695227,False,7,-1,1,13
PB048K21,8,491,AS,exp,28,←,left,←,0.7042938000522554,True,8,-1,0,13
PB048K21,8,492,AS,exp,27,→,right,→,0.7286589000141248,True,8,1,1,14
