PART_ID,Block_no,Trial_no,Block_type,Trial_type,CSI,Stim_letter,Key_pressed,letter_choose,Rt,Corr,Stimulus Time,Level,Reversal,Revs_count
PB045M24,1,1,PS,train,31,←,left,←,1.5154791999957524,True,30,-,-,-
PB045M24,1,2,PS,train,32,↓,down,↓,1.6611839999677613,True,30,-,-,-
PB045M24,1,3,PS,train,48,↑,up,↑,1.0212251000339165,True,30,-,-,-
PB045M24,1,4,PS,train,46,←,left,←,0.9869973000022583,True,30,-,-,-
PB045M24,1,5,PS,train,37,↓,down,↓,1.0657689999789,True,30,-,-,-
PB045M24,1,6,PS,train,37,←,left,←,1.154033900005743,True,30,-,-,-
PB045M24,1,7,PS,train,46,↑,up,↑,0.9699831999605522,True,30,-,-,-
PB045M24,1,8,PS,train,39,←,left,←,0.9665392000460997,True,30,-,-,-
PB045M24,1,9,PS,train,36,→,right,→,0.914239700010512,True,30,-,-,-
PB045M24,1,10,PS,train,26,↑,up,↑,1.0296252999687567,True,30,-,-,-
PB045M24,2,11,AS,train,45,←,left,←,1.2533746000262909,True,45,-,-,-
PB045M24,2,12,AS,train,38,↑,up,↑,1.228885899996385,True,45,-,-,-
PB045M24,2,13,AS,train,25,→,right,→,1.1067714000237174,True,45,-,-,-
PB045M24,2,14,AS,train,45,←,left,←,1.4045756999985315,True,45,-,-,-
PB045M24,2,15,AS,train,32,↑,up,↑,1.2825541000347584,True,45,-,-,-
PB045M24,2,16,AS,train,31,→,right,→,1.572542500041891,True,45,-,-,-
PB045M24,2,17,AS,train,41,←,left,←,1.2631519999704324,True,45,-,-,-
PB045M24,2,18,AS,train,46,↑,up,↑,1.0717987999669276,True,45,-,-,-
PB045M24,2,19,AS,train,42,↓,down,↓,1.2873505000025034,True,45,-,-,-
PB045M24,2,20,AS,train,25,←,left,←,1.2864632999990135,True,45,-,-,-
PB045M24,-,21,PS,adaptive,35,↓,left,←,1.1190110999741592,False,10,-1,0,0
PB045M24,-,22,PS,adaptive,43,→,no_key,no_letter,-1.0,False,11,-1,0,0
PB045M24,-,23,PS,adaptive,28,↑,up,↑,0.8557748000021093,True,12,-1,0,0
PB045M24,-,24,PS,adaptive,40,↓,down,↓,0.8150561000220478,True,12,1,1,1
PB045M24,-,25,PS,adaptive,38,→,right,→,0.6677419999614358,True,11,1,0,1
PB045M24,-,26,PS,adaptive,48,↑,up,↑,0.6597048000548966,True,11,1,0,1
PB045M24,-,27,PS,adaptive,27,↓,down,↓,0.9881425999919884,True,10,1,0,1
PB045M24,-,28,PS,adaptive,40,←,left,←,0.6523171000299044,True,10,1,0,1
PB045M24,-,29,PS,adaptive,35,↑,right,→,0.6753446999937296,False,9,-1,1,2
PB045M24,-,30,PS,adaptive,36,↓,down,↓,0.7893814000417478,True,10,-1,0,2
PB045M24,-,31,PS,adaptive,40,→,left,←,0.7060226999456063,False,10,-1,0,2
PB045M24,-,32,PS,adaptive,41,↓,down,↓,0.6673609999706969,True,11,-1,0,2
PB045M24,-,33,PS,adaptive,33,←,left,←,0.5727968999999575,True,11,1,1,3
PB045M24,-,34,PS,adaptive,48,↓,down,↓,0.602641900011804,True,10,1,0,3
PB045M24,-,35,PS,adaptive,34,→,down,↓,0.6329482000437565,False,10,-1,1,4
PB045M24,-,36,AS,adaptive,45,↑,up,↑,0.7434507999569178,True,20,0,0,0
PB045M24,-,37,AS,adaptive,46,←,left,←,0.6153426999808289,True,20,1,0,0
PB045M24,-,38,AS,adaptive,43,↑,up,↑,0.9175153999822214,True,19,1,0,0
PB045M24,-,39,AS,adaptive,47,↓,down,↓,0.6937439999892376,True,19,1,0,0
PB045M24,-,40,AS,adaptive,43,↑,up,↑,0.7423069000360556,True,18,1,0,0
PB045M24,-,41,AS,adaptive,30,→,right,→,0.7012200999888591,True,18,1,0,0
PB045M24,-,42,AS,adaptive,35,↓,down,↓,0.691841599997133,True,17,1,0,0
PB045M24,-,43,AS,adaptive,27,←,left,←,0.705869099998381,True,17,1,0,0
PB045M24,-,44,AS,adaptive,41,↑,up,↑,0.6733276000013575,True,16,1,0,0
PB045M24,-,45,AS,adaptive,43,→,right,→,0.7160904999473132,True,16,1,0,0
PB045M24,-,46,AS,adaptive,40,←,left,←,0.7820871999720111,True,15,1,0,0
PB045M24,-,47,AS,adaptive,38,→,right,→,0.7164105999981984,True,15,1,0,0
PB045M24,-,48,AS,adaptive,50,↓,down,↓,0.6710413999971934,True,14,1,0,0
PB045M24,-,49,AS,adaptive,44,→,right,→,0.6533271000371315,True,14,1,0,0
PB045M24,-,50,AS,adaptive,33,↑,up,↑,0.9014389999792911,True,13,1,0,0
PB045M24,-,51,AS,adaptive,29,→,right,→,0.6842691000201739,True,13,1,0,0
PB045M24,-,52,AS,adaptive,47,←,left,←,0.5873374000075273,True,12,1,0,0
PB045M24,-,53,AS,adaptive,46,→,left,←,0.5576459000003524,False,12,-1,1,1
PB045M24,-,54,AS,adaptive,38,↑,up,↑,0.7073437999933958,True,13,-1,0,1
PB045M24,-,55,AS,adaptive,31,→,right,→,0.6278490999829955,True,13,1,1,2
PB045M24,-,56,AS,adaptive,35,←,right,→,0.5246188000310212,False,12,-1,1,3
PB045M24,-,57,AS,adaptive,25,→,right,→,0.6694882999872789,True,13,-1,0,3
PB045M24,-,58,AS,adaptive,43,←,left,←,0.5836694999597967,True,13,1,1,4
PB045M24,1,59,PS,intra_train,32,↓,down,↓,0.8066338000353426,True,16,-,-,-
PB045M24,1,60,PS,intra_train,44,→,right,→,0.7767754000378773,True,16,-,-,-
PB045M24,1,61,PS,intra_train,25,↓,down,↓,0.7150722999940626,True,16,-,-,-
PB045M24,1,62,PS,intra_train,29,←,left,←,0.5940831000334583,True,16,-,-,-
PB045M24,1,63,PS,intra_train,31,→,right,→,0.5944145999965258,True,16,-,-,-
PB045M24,1,64,PS,exp,35,↑,right,→,0.6031111999764107,False,11,-1,0,0
PB045M24,1,65,PS,exp,40,←,left,←,0.5749338999739848,True,12,-1,0,0
PB045M24,1,66,PS,exp,30,↓,down,↓,0.7475542000029236,True,12,1,1,1
PB045M24,1,67,PS,exp,39,→,right,→,0.5711444999906234,True,11,1,0,1
PB045M24,1,68,PS,exp,31,↑,right,→,0.7987511999672279,False,11,-1,1,2
PB045M24,1,69,PS,exp,32,←,left,←,0.6342376000247896,True,12,-1,0,2
PB045M24,1,70,PS,exp,44,↓,down,↓,0.6758417999953963,True,12,1,1,3
PB045M24,1,71,PS,exp,48,→,right,→,0.6217092000297271,True,11,1,0,3
PB045M24,1,72,PS,exp,50,↑,up,↑,0.5771366999833845,True,11,1,0,3
PB045M24,1,73,PS,exp,28,←,left,←,0.658297699992545,True,10,1,0,3
PB045M24,1,74,PS,exp,36,→,right,→,0.8997449000016786,True,10,1,0,3
PB045M24,1,75,PS,exp,26,←,left,←,0.7477532000048086,True,9,1,0,3
PB045M24,1,76,PS,exp,48,↑,right,→,0.6638535999809392,False,9,-1,1,4
PB045M24,1,77,PS,exp,28,→,left,←,0.7535473000025377,False,10,-1,0,4
PB045M24,1,78,PS,exp,26,←,left,←,0.6672067000181414,True,11,-1,0,4
PB045M24,1,79,PS,exp,38,↑,up,↑,0.5938024999923073,True,11,1,1,5
PB045M24,1,80,PS,exp,34,↓,left,←,0.8219324999954551,False,10,-1,1,6
PB045M24,1,81,PS,exp,32,←,left,←,0.590695999970194,True,11,-1,0,6
PB045M24,1,82,PS,exp,49,↓,down,↓,0.5858070000540465,True,11,1,1,7
PB045M24,1,83,PS,exp,50,→,right,→,0.5545381000265479,True,10,1,0,7
PB045M24,1,84,PS,exp,35,↑,up,↑,0.6119403000338934,True,10,1,0,7
PB045M24,1,85,PS,exp,44,←,left,←,0.5691720999893732,True,9,1,0,7
PB045M24,1,86,PS,exp,38,↑,up,↑,0.5108154999907129,True,9,1,0,7
PB045M24,1,87,PS,exp,46,↓,down,↓,0.5275643999921158,True,8,1,0,7
PB045M24,1,88,PS,exp,46,←,left,←,0.38685070001520216,True,8,1,0,7
PB045M24,1,89,PS,exp,42,↓,right,→,0.6167503999895416,False,7,-1,1,8
PB045M24,1,90,PS,exp,41,→,left,←,0.5201786999823526,False,8,-1,0,8
PB045M24,1,91,PS,exp,40,↓,down,↓,0.5973843999672681,True,9,-1,0,8
PB045M24,1,92,PS,exp,41,↑,left,←,0.9067974999779835,False,9,-1,0,8
PB045M24,1,93,PS,exp,25,←,right,→,0.657360199955292,False,10,-1,0,8
PB045M24,1,94,PS,exp,33,→,left,←,1.1675078999833204,False,11,-1,0,8
PB045M24,1,95,PS,exp,39,←,left,←,1.0732465000473894,True,12,-1,0,8
PB045M24,1,96,PS,exp,31,↑,right,→,0.6989074999582954,False,12,-1,0,8
PB045M24,1,97,PS,exp,32,↓,down,↓,0.7088875999907032,True,13,-1,0,8
PB045M24,1,98,PS,exp,32,←,left,←,0.6553749000304379,True,13,1,1,9
PB045M24,1,99,PS,exp,33,↓,down,↓,0.5502634000149556,True,12,1,0,9
PB045M24,1,100,PS,exp,26,↑,down,↓,0.6883429999579675,False,12,-1,1,10
PB045M24,1,101,PS,exp,49,→,right,→,0.8725171000114642,True,13,-1,0,10
PB045M24,1,102,PS,exp,45,↑,up,↑,0.7151921999757178,True,13,1,1,11
PB045M24,1,103,PS,exp,50,←,left,←,0.8044131000060588,True,12,1,0,11
PB045M24,1,104,PS,exp,42,↑,left,←,1.0169861000031233,False,12,-1,1,12
PB045M24,1,105,PS,exp,43,→,right,→,0.7822255999781191,True,13,-1,0,12
PB045M24,1,106,PS,exp,28,↑,right,→,1.092684699979145,False,13,-1,0,12
PB045M24,1,107,PS,exp,48,↓,down,↓,0.7889815000235103,True,14,-1,0,12
PB045M24,1,108,PS,exp,30,→,right,→,0.8031781999743544,True,14,1,1,13
PB045M24,1,109,PS,exp,49,←,left,←,0.7524584999773651,True,13,1,0,13
PB045M24,1,110,PS,exp,41,→,right,→,0.7372129000141285,True,13,1,0,13
PB045M24,1,111,PS,exp,37,←,left,←,0.6568413999630138,True,12,1,0,13
PB045M24,1,112,PS,exp,38,↑,up,↑,0.48275259998627007,True,12,1,0,13
PB045M24,1,113,PS,exp,44,→,right,→,0.6319814999587834,True,11,1,0,13
PB045M24,1,114,PS,exp,43,↑,right,→,0.6157810000004247,False,11,-1,1,14
PB045M24,2,115,AS,intra_train,40,←,left,←,0.7785321000264958,True,18,-,-,-
PB045M24,2,116,AS,intra_train,26,↓,down,↓,0.8469666999881156,True,18,-,-,-
PB045M24,2,117,AS,intra_train,48,←,left,←,0.755134699982591,True,18,-,-,-
PB045M24,2,118,AS,intra_train,45,↑,up,↑,0.7411886999616399,True,18,-,-,-
PB045M24,2,119,AS,intra_train,46,←,left,←,0.7402321000117809,True,18,-,-,-
PB045M24,2,120,AS,exp,29,↑,up,↑,0.5993574000312947,True,12,0,0,0
PB045M24,2,121,AS,exp,31,↓,down,↓,0.6872437000274658,True,12,1,0,0
PB045M24,2,122,AS,exp,31,↑,up,↑,0.7876146000344306,True,11,1,0,0
PB045M24,2,123,AS,exp,46,←,left,←,0.7452978000510484,True,11,1,0,0
PB045M24,2,124,AS,exp,50,↓,down,↓,0.6760849999845959,True,10,1,0,0
PB045M24,2,125,AS,exp,49,→,left,←,0.7117251000017859,False,10,-1,1,1
PB045M24,2,126,AS,exp,43,←,right,→,0.7877860000007786,False,11,-1,0,1
PB045M24,2,127,AS,exp,47,↑,up,↑,0.6385337999672629,True,12,-1,0,1
PB045M24,2,128,AS,exp,41,→,right,→,0.7608470999985002,True,12,1,1,2
PB045M24,2,129,AS,exp,28,←,right,→,0.6305595999583602,False,11,-1,1,3
PB045M24,2,130,AS,exp,27,→,right,→,0.5102206000010483,True,12,-1,0,3
PB045M24,2,131,AS,exp,49,↑,up,↑,0.5736589999869466,True,12,1,1,4
PB045M24,2,132,AS,exp,38,→,right,→,0.545346700004302,True,11,1,0,4
PB045M24,2,133,AS,exp,49,↓,up,↑,0.5795171000063419,False,11,-1,1,5
PB045M24,2,134,AS,exp,36,←,left,←,1.0628014999674633,True,12,-1,0,5
PB045M24,2,135,AS,exp,32,↑,up,↑,0.6771253999904729,True,12,1,1,6
PB045M24,2,136,AS,exp,44,↓,up,↑,0.6059070999617688,False,11,-1,1,7
PB045M24,2,137,AS,exp,44,↑,right,→,1.0632001000340097,False,12,-1,0,7
PB045M24,2,138,AS,exp,37,↓,down,↓,0.7573637000168674,True,13,-1,0,7
PB045M24,2,139,AS,exp,30,→,right,→,0.6351278999936767,True,13,1,1,8
PB045M24,2,140,AS,exp,31,↓,up,↑,0.6578430000226945,False,12,-1,1,9
PB045M24,2,141,AS,exp,46,←,left,←,0.8092904000077397,True,13,-1,0,9
PB045M24,2,142,AS,exp,30,↑,up,↑,0.6832275000051595,True,13,1,1,10
PB045M24,2,143,AS,exp,31,←,left,←,0.5431951000355184,True,12,1,0,10
PB045M24,2,144,AS,exp,50,↓,up,↑,0.6406416999525391,False,12,-1,1,11
PB045M24,2,145,AS,exp,42,←,left,←,0.5923605000134557,True,13,-1,0,11
PB045M24,2,146,AS,exp,48,↑,up,↑,0.6414995999657549,True,13,1,1,12
PB045M24,2,147,AS,exp,25,↓,up,↑,0.7638044999912381,False,12,-1,1,13
PB045M24,2,148,AS,exp,42,←,left,←,0.8534213000093587,True,13,-1,0,13
PB045M24,2,149,AS,exp,46,↓,left,←,1.0194258999545127,False,13,-1,0,13
PB045M24,2,150,AS,exp,40,→,left,←,0.7878204999724403,False,14,-1,0,13
PB045M24,2,151,AS,exp,43,←,left,←,0.7748323999694549,True,15,-1,0,13
PB045M24,2,152,AS,exp,48,↓,down,↓,0.6910493999603204,True,15,1,1,14
PB045M24,3,153,AS,intra_train,42,→,right,→,0.9027907000272535,True,18,-,-,-
PB045M24,3,154,AS,intra_train,36,←,left,←,0.5498044000123627,True,18,-,-,-
PB045M24,3,155,AS,intra_train,49,↑,up,↑,0.5905175000079907,True,18,-,-,-
PB045M24,3,156,AS,intra_train,50,→,right,→,0.5337536999722943,True,18,-,-,-
PB045M24,3,157,AS,intra_train,49,←,left,←,0.5893273999681696,True,18,-,-,-
PB045M24,3,158,AS,exp,37,↑,up,↑,0.6103491999674588,True,12,0,0,0
PB045M24,3,159,AS,exp,50,←,left,←,0.5377908999798819,True,12,1,0,0
PB045M24,3,160,AS,exp,44,→,left,←,0.6993846999830566,False,11,-1,1,1
PB045M24,3,161,AS,exp,41,↑,up,↑,0.5917863000067882,True,12,-1,0,1
PB045M24,3,162,AS,exp,36,←,left,←,0.6650028000003658,True,12,1,1,2
PB045M24,3,163,AS,exp,49,→,right,→,0.7992571999784559,True,11,1,0,2
PB045M24,3,164,AS,exp,45,↓,down,↓,0.778588299988769,True,11,1,0,2
PB045M24,3,165,AS,exp,29,↑,up,↑,0.6000102999969386,True,10,1,0,2
PB045M24,3,166,AS,exp,35,→,right,→,0.6843249999801628,True,10,1,0,2
PB045M24,3,167,AS,exp,43,↑,up,↑,0.544283399998676,True,9,1,0,2
PB045M24,3,168,AS,exp,42,←,left,←,0.5578097999677993,True,9,1,0,2
PB045M24,3,169,AS,exp,35,↑,up,↑,0.47365389997139573,True,8,1,0,2
PB045M24,3,170,AS,exp,30,←,left,←,0.48117300000740215,True,8,1,0,2
PB045M24,3,171,AS,exp,42,↓,down,↓,0.6010435000061989,True,7,1,0,2
PB045M24,3,172,AS,exp,39,→,right,→,0.5827603000216186,True,7,1,0,2
PB045M24,3,173,AS,exp,49,←,right,→,0.5526371999876574,False,6,-1,1,3
PB045M24,3,174,AS,exp,27,↑,up,↑,0.8123043999657966,True,7,-1,0,3
PB045M24,3,175,AS,exp,42,↓,down,↓,0.6070179000380449,True,7,1,1,4
PB045M24,3,176,AS,exp,29,↑,down,↓,0.786575999984052,False,6,-1,1,5
PB045M24,3,177,AS,exp,41,→,right,→,0.4705479000112973,True,7,-1,0,5
PB045M24,3,178,AS,exp,38,↑,up,↑,0.5211984000052325,True,7,1,1,6
PB045M24,3,179,AS,exp,50,←,left,←,0.570799499982968,True,6,1,0,6
PB045M24,3,180,AS,exp,38,→,left,←,0.5183834999916144,False,6,-1,1,7
PB045M24,3,181,AS,exp,41,↓,down,↓,0.6427618999732658,True,7,-1,0,7
PB045M24,3,182,AS,exp,49,↑,down,↓,0.8910697000101209,False,7,-1,0,7
PB045M24,3,183,AS,exp,41,→,right,→,0.5889904999639839,True,8,-1,0,7
PB045M24,3,184,AS,exp,34,↑,down,↓,0.9717190000228584,False,8,-1,0,7
PB045M24,3,185,AS,exp,43,←,left,←,0.5217461999855004,True,9,-1,0,7
PB045M24,3,186,AS,exp,42,↓,down,↓,0.5437362999655306,True,9,1,1,8
PB045M24,3,187,AS,exp,27,↑,down,↓,0.5295203999849036,False,8,-1,1,9
PB045M24,3,188,AS,exp,25,←,left,←,0.38114220002898946,True,9,-1,0,9
PB045M24,3,189,AS,exp,28,↑,up,↑,0.46733000001404434,True,9,1,1,10
PB045M24,3,190,AS,exp,37,↓,down,↓,0.6929492999915965,True,8,1,0,10
PB045M24,3,191,AS,exp,36,↑,right,→,0.6609788999776356,False,8,-1,1,11
PB045M24,3,192,AS,exp,42,→,left,←,0.8670524999615736,False,9,-1,0,11
PB045M24,3,193,AS,exp,35,←,left,←,0.5728976000100374,True,10,-1,0,11
PB045M24,3,194,AS,exp,26,→,left,←,0.6110434000147507,False,10,-1,0,11
PB045M24,3,195,AS,exp,40,↑,right,→,0.7135514999972656,False,11,-1,0,11
PB045M24,3,196,AS,exp,25,←,left,←,0.5281597999855876,True,12,-1,0,11
PB045M24,3,197,AS,exp,50,↓,down,↓,0.5476809999672696,True,12,1,1,12
PB045M24,3,198,AS,exp,34,↑,up,↑,0.53391629998805,True,11,1,0,12
PB045M24,3,199,AS,exp,33,←,right,→,0.5678303000167944,False,11,-1,1,13
PB045M24,3,200,AS,exp,39,↓,down,↓,0.5751488000387326,True,12,-1,0,13
PB045M24,3,201,AS,exp,25,→,left,←,0.6714376999880187,False,12,-1,0,13
PB045M24,3,202,AS,exp,46,↓,down,↓,0.5716899000108242,True,13,-1,0,13
PB045M24,3,203,AS,exp,44,←,left,←,0.6728533999994397,True,13,1,1,14
PB045M24,4,204,PS,intra_train,50,→,left,←,0.8164334999746643,False,16,-,-,-
PB045M24,4,205,PS,intra_train,32,↓,down,↓,0.5976591999642551,True,16,-,-,-
PB045M24,4,206,PS,intra_train,36,←,left,←,0.6915283999987878,True,16,-,-,-
PB045M24,4,207,PS,intra_train,47,↓,down,↓,0.6516695000464097,True,16,-,-,-
PB045M24,4,208,PS,intra_train,48,←,left,←,0.5303481000009924,True,16,-,-,-
PB045M24,4,209,PS,exp,43,↓,right,→,0.8104193999897689,False,11,-1,0,0
PB045M24,4,210,PS,exp,33,→,left,←,0.6655074000009336,False,12,-1,0,0
PB045M24,4,211,PS,exp,46,↑,up,↑,0.7372193000046536,True,13,-1,0,0
PB045M24,4,212,PS,exp,44,→,right,→,0.7834127999958582,True,13,1,1,1
PB045M24,4,213,PS,exp,45,←,left,←,0.7190757999778725,True,12,1,0,1
PB045M24,4,214,PS,exp,33,↓,down,↓,0.7928003999986686,True,12,1,0,1
PB045M24,4,215,PS,exp,28,←,left,←,0.8036291999742389,True,11,1,0,1
PB045M24,4,216,PS,exp,25,→,right,→,0.7771210000501014,True,11,1,0,1
PB045M24,4,217,PS,exp,50,↓,right,→,0.7113765000249259,False,10,-1,1,2
PB045M24,4,218,PS,exp,29,↑,up,↑,0.534816499974113,True,11,-1,0,2
PB045M24,4,219,PS,exp,41,→,right,→,0.5015274999896064,True,11,1,1,3
PB045M24,4,220,PS,exp,30,←,right,→,0.6242672000080347,False,10,-1,1,4
PB045M24,4,221,PS,exp,26,↓,down,↓,0.638300699996762,True,11,-1,0,4
PB045M24,4,222,PS,exp,42,→,right,→,0.6796464999788441,True,11,1,1,5
PB045M24,4,223,PS,exp,26,↓,right,→,0.7415805999771692,False,10,-1,1,6
PB045M24,4,224,PS,exp,37,→,right,→,0.5006263999966905,True,11,-1,0,6
PB045M24,4,225,PS,exp,43,←,left,←,0.5332666999893263,True,11,1,1,7
PB045M24,4,226,PS,exp,33,↑,left,←,0.7435771999880672,False,10,-1,1,8
PB045M24,4,227,PS,exp,42,↓,down,↓,0.5526306999963708,True,11,-1,0,8
PB045M24,4,228,PS,exp,39,←,left,←,0.6381911999778822,True,11,1,1,9
PB045M24,4,229,PS,exp,46,↓,down,↓,0.5540856000152417,True,10,1,0,9
PB045M24,4,230,PS,exp,38,→,right,→,0.7093719000113197,True,10,1,0,9
PB045M24,4,231,PS,exp,43,↑,down,↓,0.6376826000050642,False,9,-1,1,10
PB045M24,4,232,PS,exp,42,↓,down,↓,0.5587421000236645,True,10,-1,0,10
PB045M24,4,233,PS,exp,46,←,left,←,0.4760757000185549,True,10,1,1,11
PB045M24,4,234,PS,exp,35,↓,down,↓,0.4802979999803938,True,9,1,0,11
PB045M24,4,235,PS,exp,35,→,right,→,0.6826341999694705,True,9,1,0,11
PB045M24,4,236,PS,exp,50,↓,down,↓,0.6528323000529781,True,8,1,0,11
PB045M24,4,237,PS,exp,37,↑,down,↓,0.5898542000213638,False,8,-1,1,12
PB045M24,4,238,PS,exp,32,→,right,→,0.6510372000047937,True,9,-1,0,12
PB045M24,4,239,PS,exp,30,←,left,←,0.5898739999975078,True,9,1,1,13
PB045M24,4,240,PS,exp,44,↓,down,↓,0.4879027000279166,True,8,1,0,13
PB045M24,4,241,PS,exp,48,→,right,→,0.4583754999912344,True,8,1,0,13
PB045M24,4,242,PS,exp,46,↑,down,↓,0.5640579999890178,False,7,-1,1,14
PB045M24,5,243,PS,intra_train,35,←,right,→,0.6072054999531247,False,16,-,-,-
PB045M24,5,244,PS,intra_train,28,↑,up,↑,0.5161114999791607,True,16,-,-,-
PB045M24,5,245,PS,intra_train,42,↓,down,↓,0.758195300004445,True,16,-,-,-
PB045M24,5,246,PS,intra_train,29,↑,up,↑,0.7022748000454158,True,16,-,-,-
PB045M24,5,247,PS,intra_train,38,↓,down,↓,0.6652628000010736,True,16,-,-,-
PB045M24,5,248,PS,exp,35,←,left,←,0.6454804000095464,True,11,0,0,0
PB045M24,5,249,PS,exp,49,→,right,→,0.8317227000370622,True,11,1,0,0
PB045M24,5,250,PS,exp,42,↑,up,↑,0.6808009999804199,True,10,1,0,0
PB045M24,5,251,PS,exp,41,→,right,→,0.6861179000115953,True,10,1,0,0
PB045M24,5,252,PS,exp,42,↓,right,→,0.5579176999744959,False,9,-1,1,1
PB045M24,5,253,PS,exp,45,→,right,→,0.591547200048808,True,10,-1,0,1
PB045M24,5,254,PS,exp,37,↓,down,↓,0.6652863000053912,True,10,1,1,2
PB045M24,5,255,PS,exp,39,↑,up,↑,0.643984799971804,True,9,1,0,2
PB045M24,5,256,PS,exp,35,↓,down,↓,0.6372057999833487,True,9,1,0,2
PB045M24,5,257,PS,exp,46,→,right,→,0.500999000039883,True,8,1,0,2
PB045M24,5,258,PS,exp,30,↓,down,↓,0.602370900043752,True,8,1,0,2
PB045M24,5,259,PS,exp,49,←,down,↓,0.6429607000318356,False,7,-1,1,3
PB045M24,5,260,PS,exp,44,→,right,→,0.7270072000101209,True,8,-1,0,3
PB045M24,5,261,PS,exp,28,↓,left,←,0.7126513000112027,False,8,-1,0,3
PB045M24,5,262,PS,exp,25,↑,down,↓,0.645932300016284,False,9,-1,0,3
PB045M24,5,263,PS,exp,37,→,right,→,0.5934061000007205,True,10,-1,0,3
PB045M24,5,264,PS,exp,47,↓,down,↓,0.5169376999838278,True,10,1,1,4
PB045M24,5,265,PS,exp,44,←,left,←,0.5771665999782272,True,9,1,0,4
PB045M24,5,266,PS,exp,50,↑,up,↑,0.5040317999664694,True,9,1,0,4
PB045M24,5,267,PS,exp,42,←,down,↓,0.6180126999970526,False,8,-1,1,5
PB045M24,5,268,PS,exp,35,→,right,→,0.5515365999890491,True,9,-1,0,5
PB045M24,5,269,PS,exp,32,↓,down,↓,0.7183201999869198,True,9,1,1,6
PB045M24,5,270,PS,exp,31,↑,up,↑,0.6301221000030637,True,8,1,0,6
PB045M24,5,271,PS,exp,50,↓,down,↓,0.5872569000348449,True,8,1,0,6
PB045M24,5,272,PS,exp,39,←,left,←,0.5085094000096433,True,7,1,0,6
PB045M24,5,273,PS,exp,43,→,right,→,0.5066985000157729,True,7,1,0,6
PB045M24,5,274,PS,exp,35,↓,down,↓,0.5034719000104815,True,6,1,0,6
PB045M24,5,275,PS,exp,31,→,right,→,0.8829817999503575,True,6,1,0,6
PB045M24,5,276,PS,exp,26,←,left,←,0.5474123999592848,True,5,1,0,6
PB045M24,5,277,PS,exp,35,↓,down,↓,0.46945159998722374,True,5,1,0,6
PB045M24,5,278,PS,exp,39,←,down,↓,0.5549036000156775,False,4,-1,1,7
PB045M24,5,279,PS,exp,33,↑,down,↓,0.5362643000553362,False,5,-1,0,7
PB045M24,5,280,PS,exp,49,↓,down,↓,0.60968369996408,True,6,-1,0,7
PB045M24,5,281,PS,exp,42,→,right,→,0.6338627999648452,True,6,1,1,8
PB045M24,5,282,PS,exp,49,↓,down,↓,0.45489339996129274,True,5,1,0,8
PB045M24,5,283,PS,exp,44,↑,down,↓,0.5675043000373989,False,5,-1,1,9
PB045M24,5,284,PS,exp,31,→,right,→,0.5933019000221975,True,6,-1,0,9
PB045M24,5,285,PS,exp,25,↓,down,↓,0.510299000015948,True,6,1,1,10
PB045M24,5,286,PS,exp,31,←,right,→,0.5054593999520876,False,5,-1,1,11
PB045M24,5,287,PS,exp,28,↓,down,↓,0.5853857000474818,True,6,-1,0,11
PB045M24,5,288,PS,exp,47,→,down,↓,0.46604329999536276,False,6,-1,0,11
PB045M24,5,289,PS,exp,30,↑,up,↑,0.708085399994161,True,7,-1,0,11
PB045M24,5,290,PS,exp,48,→,right,→,0.5011069000465795,True,7,1,1,12
PB045M24,5,291,PS,exp,28,←,down,↓,0.6299470000085421,False,6,-1,1,13
PB045M24,5,292,PS,exp,50,→,right,→,0.5652653999859467,True,7,-1,0,13
PB045M24,5,293,PS,exp,32,↑,right,→,0.6398114000330679,False,7,-1,0,13
PB045M24,5,294,PS,exp,28,→,right,→,0.5577431000419892,True,8,-1,0,13
PB045M24,5,295,PS,exp,32,←,left,←,0.7603422999964096,True,8,1,1,14
PB045M24,6,296,AS,intra_train,42,→,right,→,0.8290790999890305,True,18,-,-,-
PB045M24,6,297,AS,intra_train,28,←,left,←,0.6049721000017598,True,18,-,-,-
PB045M24,6,298,AS,intra_train,40,↓,down,↓,0.7032257000100799,True,18,-,-,-
PB045M24,6,299,AS,intra_train,26,→,right,→,0.7095453999936581,True,18,-,-,-
PB045M24,6,300,AS,intra_train,40,←,left,←,0.6303131000022404,True,18,-,-,-
PB045M24,6,301,AS,exp,29,↓,down,↓,0.6135686000343412,True,12,0,0,0
PB045M24,6,302,AS,exp,43,←,right,→,0.6849470000015572,False,12,-1,0,0
PB045M24,6,303,AS,exp,50,→,right,→,0.7474698000005446,True,13,-1,0,0
PB045M24,6,304,AS,exp,44,←,left,←,0.6576365999644622,True,13,1,1,1
PB045M24,6,305,AS,exp,47,→,right,→,0.5656479999888688,True,12,1,0,1
PB045M24,6,306,AS,exp,33,↑,up,↑,0.6709828000166453,True,12,1,0,1
PB045M24,6,307,AS,exp,35,→,left,←,0.8377290000207722,False,11,-1,1,2
PB045M24,6,308,AS,exp,50,←,left,←,0.5006332999910228,True,12,-1,0,2
PB045M24,6,309,AS,exp,46,↓,up,↑,0.7110760000068694,False,12,-1,0,2
PB045M24,6,310,AS,exp,47,→,left,←,0.7166404000017792,False,13,-1,0,2
PB045M24,6,311,AS,exp,48,↓,right,→,0.6329627999803051,False,14,-1,0,2
PB045M24,6,312,AS,exp,45,→,right,→,0.6551182000548579,True,15,-1,0,2
PB045M24,6,313,AS,exp,25,←,left,←,0.7628998999716714,True,15,1,1,3
PB045M24,6,314,AS,exp,26,↓,down,↓,0.733185000019148,True,14,1,0,3
PB045M24,6,315,AS,exp,38,←,left,←,0.4903323999606073,True,14,1,0,3
PB045M24,6,316,AS,exp,40,→,right,→,0.48624300002120435,True,13,1,0,3
PB045M24,6,317,AS,exp,35,↓,down,↓,0.6997223000507802,True,13,1,0,3
PB045M24,6,318,AS,exp,40,→,right,→,0.486220000020694,True,12,1,0,3
PB045M24,6,319,AS,exp,50,↑,up,↑,0.6985302999964915,True,12,1,0,3
PB045M24,6,320,AS,exp,26,→,right,→,0.6565389999886975,True,11,1,0,3
PB045M24,6,321,AS,exp,45,↓,right,→,0.5649277999764308,False,11,-1,1,4
PB045M24,6,322,AS,exp,30,↑,up,↑,0.5966648000176065,True,12,-1,0,4
PB045M24,6,323,AS,exp,27,↓,down,↓,0.9350507999770343,True,12,1,1,5
PB045M24,6,324,AS,exp,35,→,right,→,0.8476818000199273,True,11,1,0,5
PB045M24,6,325,AS,exp,45,↑,up,↑,0.7515079000149854,True,11,1,0,5
PB045M24,6,326,AS,exp,28,↓,down,↓,0.7664227000204846,True,10,1,0,5
PB045M24,6,327,AS,exp,45,←,left,←,0.5554747999995016,True,10,1,0,5
PB045M24,6,328,AS,exp,30,↑,up,↑,0.7480864999815822,True,9,1,0,5
PB045M24,6,329,AS,exp,47,↓,up,↑,0.6299894999829121,False,9,-1,1,6
PB045M24,6,330,AS,exp,38,←,down,↓,0.7034167000092566,False,10,-1,0,6
PB045M24,6,331,AS,exp,46,→,left,←,0.84532110003056,False,11,-1,0,6
PB045M24,6,332,AS,exp,50,↓,down,↓,0.5653946000384167,True,12,-1,0,6
PB045M24,6,333,AS,exp,50,←,down,↓,0.774725400027819,False,12,-1,0,6
PB045M24,6,334,AS,exp,39,↓,down,↓,0.8390172000508755,True,13,-1,0,6
PB045M24,6,335,AS,exp,48,→,right,→,0.5501079999958165,True,13,1,1,7
PB045M24,6,336,AS,exp,29,←,left,←,0.5753821000107564,True,12,1,0,7
PB045M24,6,337,AS,exp,35,↓,right,→,0.9421249000006355,False,12,-1,1,8
PB045M24,6,338,AS,exp,41,←,left,←,0.7901142000337131,True,13,-1,0,8
PB045M24,6,339,AS,exp,35,↑,up,↑,0.6428145000245422,True,13,1,1,9
PB045M24,6,340,AS,exp,49,↓,down,↓,0.4794065999449231,True,12,1,0,9
PB045M24,6,341,AS,exp,38,←,left,←,0.5591416999814101,True,12,1,0,9
PB045M24,6,342,AS,exp,40,→,right,→,0.6793050999986008,True,11,1,0,9
PB045M24,6,343,AS,exp,46,↑,right,→,0.7877855999977328,False,11,-1,1,10
PB045M24,6,344,AS,exp,32,←,left,←,0.6675038000103086,True,12,-1,0,10
PB045M24,6,345,AS,exp,37,→,right,→,0.6108263999922201,True,12,1,1,11
PB045M24,6,346,AS,exp,31,↑,down,↓,0.7551705000223592,False,11,-1,1,12
PB045M24,6,347,AS,exp,46,←,right,→,0.6432475000037812,False,12,-1,0,12
PB045M24,6,348,AS,exp,28,→,right,→,0.5802001000265591,True,13,-1,0,12
PB045M24,6,349,AS,exp,45,↓,up,↑,0.683617000002414,False,13,-1,0,12
PB045M24,6,350,AS,exp,33,→,right,→,0.6585083999671042,True,14,-1,0,12
PB045M24,6,351,AS,exp,35,←,left,←,0.6259811000199988,True,14,1,1,13
PB045M24,6,352,AS,exp,36,↑,right,→,0.8357460999977775,False,13,-1,1,14
PB045M24,7,353,AS,intra_train,46,→,right,→,0.5845867000170983,True,18,-,-,-
PB045M24,7,354,AS,intra_train,37,↑,up,↑,0.76025509997271,True,18,-,-,-
PB045M24,7,355,AS,intra_train,26,→,right,→,0.744794099999126,True,18,-,-,-
PB045M24,7,356,AS,intra_train,42,↑,up,↑,0.595630900003016,True,18,-,-,-
PB045M24,7,357,AS,intra_train,36,→,right,→,0.5657740999595262,True,18,-,-,-
PB045M24,7,358,AS,exp,48,←,right,→,0.6520500999758951,False,12,-1,0,0
PB045M24,7,359,AS,exp,43,→,right,→,0.673192200018093,True,13,-1,0,0
PB045M24,7,360,AS,exp,29,←,left,←,0.6955039000022225,True,13,1,1,1
PB045M24,7,361,AS,exp,46,→,right,→,0.5800899000023492,True,12,1,0,1
PB045M24,7,362,AS,exp,35,↑,up,↑,0.4356450999621302,True,12,1,0,1
PB045M24,7,363,AS,exp,39,←,left,←,0.48085639998316765,True,11,1,0,1
PB045M24,7,364,AS,exp,42,↑,right,→,0.6958169999998063,False,11,-1,1,2
PB045M24,7,365,AS,exp,43,→,right,→,0.6679407000192441,True,12,-1,0,2
PB045M24,7,366,AS,exp,44,↓,down,↓,0.6614919999847189,True,12,1,1,3
PB045M24,7,367,AS,exp,45,→,right,→,0.640238500025589,True,11,1,0,3
PB045M24,7,368,AS,exp,48,↑,up,↑,0.7040009999764152,True,11,1,0,3
PB045M24,7,369,AS,exp,39,←,left,←,0.475088200008031,True,10,1,0,3
PB045M24,7,370,AS,exp,50,↓,down,↓,0.5843662000261247,True,10,1,0,3
PB045M24,7,371,AS,exp,34,↑,up,↑,0.5400966000161134,True,9,1,0,3
PB045M24,7,372,AS,exp,31,→,right,→,0.7218242000089958,True,9,1,0,3
PB045M24,7,373,AS,exp,33,↑,up,↑,0.6944353000144474,True,8,1,0,3
PB045M24,7,374,AS,exp,48,↓,down,↓,0.45581030001631007,True,8,1,0,3
PB045M24,7,375,AS,exp,29,→,left,←,0.5960855999728665,False,7,-1,1,4
PB045M24,7,376,AS,exp,45,↓,down,↓,0.8086884000222199,True,8,-1,0,4
PB045M24,7,377,AS,exp,28,→,left,←,0.5513628000044264,False,8,-1,0,4
PB045M24,7,378,AS,exp,37,↓,down,↓,0.7182228000019677,True,9,-1,0,4
PB045M24,7,379,AS,exp,31,↑,down,↓,0.6916724000475369,False,9,-1,0,4
PB045M24,7,380,AS,exp,30,↓,down,↓,0.5380336999660358,True,10,-1,0,4
PB045M24,7,381,AS,exp,32,↑,up,↑,0.533126300026197,True,10,1,1,5
PB045M24,7,382,AS,exp,32,↓,down,↓,0.5084938000072725,True,9,1,0,5
PB045M24,7,383,AS,exp,39,↑,up,↑,0.6716386000043713,True,9,1,0,5
PB045M24,7,384,AS,exp,31,←,left,←,0.635712799965404,True,8,1,0,5
PB045M24,7,385,AS,exp,34,↓,down,↓,0.6676623999956064,True,8,1,0,5
PB045M24,7,386,AS,exp,28,↑,up,↑,0.5547961999545805,True,7,1,0,5
PB045M24,7,387,AS,exp,48,→,right,→,0.5696883000200614,True,7,1,0,5
PB045M24,7,388,AS,exp,29,↓,down,↓,0.5104529999662191,True,6,1,0,5
PB045M24,7,389,AS,exp,25,↑,left,←,0.6941904999548569,False,6,-1,1,6
PB045M24,7,390,AS,exp,28,→,right,→,0.6347858000081033,True,7,-1,0,6
PB045M24,7,391,AS,exp,43,↓,down,↓,0.6763535999925807,True,7,1,1,7
PB045M24,7,392,AS,exp,42,←,right,→,0.5224309000186622,False,6,-1,1,8
PB045M24,7,393,AS,exp,50,→,right,→,0.4963618000037968,True,7,-1,0,8
PB045M24,7,394,AS,exp,40,↑,up,↑,0.5220105000189506,True,7,1,1,9
PB045M24,7,395,AS,exp,26,←,left,←,0.4576658000005409,True,6,1,0,9
PB045M24,7,396,AS,exp,37,↑,up,↑,0.5033912000362761,True,6,1,0,9
PB045M24,7,397,AS,exp,37,←,left,←,0.48556689999531955,True,5,1,0,9
PB045M24,7,398,AS,exp,46,↓,down,↓,0.552020100003574,True,5,1,0,9
PB045M24,7,399,AS,exp,43,→,right,→,0.4690052000223659,True,4,1,0,9
PB045M24,7,400,AS,exp,42,↑,up,↑,0.4715525000356138,True,4,1,0,9
PB045M24,7,401,AS,exp,45,←,left,←,0.5279222999815829,True,3,1,0,9
PB045M24,7,402,AS,exp,47,→,left,←,0.6348898999858648,False,3,-1,1,10
PB045M24,7,403,AS,exp,38,↑,left,←,0.55554500001017,False,4,-1,0,10
PB045M24,7,404,AS,exp,44,→,right,→,0.6078709000139497,True,5,-1,0,10
PB045M24,7,405,AS,exp,38,↓,down,↓,0.7456713999854401,True,5,1,1,11
PB045M24,7,406,AS,exp,28,→,left,←,0.6470598999876529,False,4,-1,1,12
PB045M24,7,407,AS,exp,31,↓,down,↓,0.5274204000015743,True,5,-1,0,12
PB045M24,7,408,AS,exp,36,←,left,←,0.5780219999724068,True,5,1,1,13
PB045M24,7,409,AS,exp,43,→,left,←,0.5821170000126585,False,4,-1,1,14
PB045M24,8,410,PS,intra_train,42,←,left,←,0.5813965999986976,True,16,-,-,-
PB045M24,8,411,PS,intra_train,29,↓,down,↓,0.5663575000362471,True,16,-,-,-
PB045M24,8,412,PS,intra_train,28,→,right,→,0.6034508000011556,True,16,-,-,-
PB045M24,8,413,PS,intra_train,36,↓,down,↓,0.5304228999884799,True,16,-,-,-
PB045M24,8,414,PS,intra_train,37,→,right,→,1.0616430999943987,True,16,-,-,-
PB045M24,8,415,PS,exp,31,↑,right,→,0.6568557000136934,False,11,-1,0,0
PB045M24,8,416,PS,exp,35,→,right,→,0.7976020999485627,True,12,-1,0,0
PB045M24,8,417,PS,exp,40,↓,down,↓,0.6509709999663755,True,12,1,1,1
PB045M24,8,418,PS,exp,41,→,down,↓,0.7798414999851957,False,11,-1,1,2
PB045M24,8,419,PS,exp,32,↑,up,↑,0.72425689996453,True,12,-1,0,2
PB045M24,8,420,PS,exp,37,↓,right,→,0.6647803999949247,False,12,-1,0,2
PB045M24,8,421,PS,exp,48,←,left,←,0.746225000009872,True,13,-1,0,2
PB045M24,8,422,PS,exp,32,↓,down,↓,0.77029080002103,True,13,1,1,3
PB045M24,8,423,PS,exp,33,↑,up,↑,0.6548708000336774,True,12,1,0,3
PB045M24,8,424,PS,exp,33,→,right,→,0.7077757000224665,True,12,1,0,3
PB045M24,8,425,PS,exp,42,↓,down,↓,0.7138484999886714,True,11,1,0,3
PB045M24,8,426,PS,exp,26,←,down,↓,0.6405647000065073,False,11,-1,1,4
PB045M24,8,427,PS,exp,32,→,right,→,0.7766610999824479,True,12,-1,0,4
PB045M24,8,428,PS,exp,37,↑,up,↑,0.5707092999946326,True,12,1,1,5
PB045M24,8,429,PS,exp,30,←,right,→,0.614623399975244,False,11,-1,1,6
PB045M24,8,430,PS,exp,38,↑,up,↑,0.4753690999932587,True,12,-1,0,6
PB045M24,8,431,PS,exp,45,↓,down,↓,0.5705370999639854,True,12,1,1,7
PB045M24,8,432,PS,exp,45,←,left,←,0.5196079000015743,True,11,1,0,7
PB045M24,8,433,PS,exp,32,↓,right,→,0.7026665000012144,False,11,-1,1,8
PB045M24,8,434,PS,exp,28,←,left,←,0.6567846999969333,True,12,-1,0,8
PB045M24,8,435,PS,exp,26,↑,up,↑,0.62236669997219,True,12,1,1,9
PB045M24,8,436,PS,exp,45,←,left,←,0.46886879997327924,True,11,1,0,9
PB045M24,8,437,PS,exp,42,↓,down,↓,0.70038840000052,True,11,1,0,9
PB045M24,8,438,PS,exp,48,←,left,←,0.6122234999784268,True,10,1,0,9
PB045M24,8,439,PS,exp,42,↓,down,↓,0.5796629000105895,True,10,1,0,9
PB045M24,8,440,PS,exp,47,←,left,←,0.6110894999583252,True,9,1,0,9
PB045M24,8,441,PS,exp,38,↑,down,↓,0.771265699993819,False,9,-1,1,10
PB045M24,8,442,PS,exp,35,→,right,→,0.6316254999837838,True,10,-1,0,10
PB045M24,8,443,PS,exp,43,↑,up,↑,0.6440819999552332,True,10,1,1,11
PB045M24,8,444,PS,exp,41,→,right,→,0.5368110999697819,True,9,1,0,11
PB045M24,8,445,PS,exp,40,←,left,←,0.6013773999875411,True,9,1,0,11
PB045M24,8,446,PS,exp,26,↑,left,←,0.558590600034222,False,8,-1,1,12
PB045M24,8,447,PS,exp,43,↓,right,→,0.5556267999927513,False,9,-1,0,12
PB045M24,8,448,PS,exp,31,←,left,←,0.5396132000023499,True,10,-1,0,12
PB045M24,8,449,PS,exp,30,↑,up,↑,0.6946728000184521,True,10,1,1,13
PB045M24,8,450,PS,exp,31,←,right,→,0.629519900016021,False,9,-1,1,14
