PART_ID,Trial_no,Trial_type,PDI,Stim_letter,Key_pressed,letter_choose,Rt,Corr,Stimulus Time
X009K19,1,training,10,↑,no_key,no_letter,-1.0,False,30
X009K19,2,training,10,←,no_key,no_letter,-1.0,False,30
X009K19,3,training,10,←,no_key,no_letter,-1.0,False,30
X009K19,4,training,10,↑,no_key,no_letter,-1.0,False,30
X009K19,5,training,10,→,no_key,no_letter,-1.0,False,30
X009K19,6,training,10,←,left,←,1.0148128997534513,True,30
X009K19,7,training,10,↑,left,←,1.0780750000849366,False,30
X009K19,8,training,10,↑,up,↑,0.7758051999844611,True,30
X009K19,9,training,10,←,left,←,1.0561068002134562,True,30
X009K19,10,training,10,↑,up,↑,0.6993770003318787,True,30
X009K19,11,training,10,↓,down,↓,0.8544608000665903,True,30
X009K19,12,training,10,↑,up,↑,0.5171444998122752,True,30
X009K19,13,training,10,↓,down,↓,1.2911946000531316,True,30
X009K19,14,training,10,→,right,→,1.492754299659282,True,30
X009K19,15,training,10,→,right,→,0.841196599882096,True,30
X009K19,16,training,10,↓,up,↑,0.6897149998694658,False,30
X009K19,17,training,10,←,left,←,1.5013422998599708,True,30
X009K19,18,training,10,←,left,←,1.3906668997369707,True,30
X009K19,19,training,10,→,left,←,1.3491267999634147,False,30
X009K19,20,training,10,↓,left,←,0.9496211996302009,False,30
X009K19,21,training,10,←,left,←,0.8326369998976588,True,18
X009K19,22,training,10,→,right,→,0.9804572998546064,True,18
X009K19,23,training,10,↓,down,↓,0.7549972999840975,True,18
X009K19,24,training,10,→,right,→,0.7915853001177311,True,18
X009K19,25,training,10,→,right,→,0.825887099839747,True,18
X009K19,26,training,10,↓,left,←,0.9312839997000992,False,18
X009K19,27,training,10,↓,no_key,no_letter,-1.0,False,18
X009K19,28,training,10,←,left,←,0.9082529000006616,True,18
X009K19,29,training,10,↓,up,↑,1.515664900187403,False,18
X009K19,30,training,10,→,right,→,0.8700344003736973,True,18
X009K19,31,training,144,↓,no_key,no_letter,-1.0,False,15
X009K19,32,training,120,↑,up,↑,1.8647403996437788,True,15
X009K19,33,training,156,←,no_key,no_letter,-1.0,False,15
X009K19,34,experiment,108,↑,up,↑,1.293935399968177,True,15
X009K19,35,experiment,36,↑,up,↑,1.3050661999732256,True,15
X009K19,36,experiment,144,←,up,↑,1.2991208001039922,False,15
X009K19,37,experiment,24,↓,right,→,1.0892747002653778,False,15
X009K19,38,experiment,72,←,left,←,0.9536589002236724,True,15
X009K19,39,experiment,168,↑,left,←,1.7452917997725308,False,15
X009K19,40,experiment,24,↑,left,←,1.1712540998123586,False,15
X009K19,41,experiment,36,↑,up,↑,1.6976732998155057,True,15
X009K19,42,experiment,96,←,no_key,no_letter,-1.0,False,15
X009K19,43,experiment,96,→,no_key,no_letter,-1.0,False,15
X009K19,44,experiment,72,↑,up,↑,0.49696810031309724,True,15
X009K19,45,experiment,108,→,right,→,0.5755492998287082,True,15
X009K19,46,experiment,96,→,right,→,0.5517743001691997,True,15
X009K19,47,experiment,120,↑,up,↑,0.7377110999077559,True,15
X009K19,48,experiment,12,↓,no_key,no_letter,-1.0,False,15
X009K19,49,experiment,48,↑,up,↑,0.6798715000040829,True,15
X009K19,50,experiment,48,↑,up,↑,0.5337237999774516,True,15
X009K19,51,experiment,156,↓,up,↑,0.7600540001876652,False,15
X009K19,52,experiment,120,→,left,←,0.9073168998584151,False,15
X009K19,53,experiment,156,↑,right,→,0.5732661001384258,False,15
X009K19,54,experiment,180,↓,up,↑,0.5572283999063075,False,15
X009K19,55,experiment,180,→,right,→,0.5999713996425271,True,15
X009K19,56,experiment,168,←,right,→,1.0074698003008962,False,15
X009K19,57,experiment,84,↑,no_key,no_letter,-1.0,False,15
X009K19,58,experiment,60,←,right,→,0.7370151001960039,False,15
X009K19,59,experiment,84,→,right,→,0.7215231000445783,True,15
X009K19,60,experiment,132,↓,left,←,1.206069900188595,False,15
X009K19,61,experiment,48,→,right,→,0.5264436998404562,True,15
X009K19,62,experiment,144,←,right,→,0.589155400171876,False,15
X009K19,63,experiment,156,→,right,→,0.4860837999731302,True,15
X009K19,64,experiment,72,↑,no_key,no_letter,-1.0,False,15
X009K19,65,experiment,24,↓,no_key,no_letter,-1.0,False,15
X009K19,66,experiment,156,→,left,←,0.9129801001399755,False,15
X009K19,67,experiment,132,→,left,←,0.9150080997496843,False,15
X009K19,68,experiment,12,→,right,→,1.0873433002270758,True,15
X009K19,69,experiment,144,←,left,←,0.6880212002433836,True,15
X009K19,70,experiment,60,→,left,←,0.682067799847573,False,15
X009K19,71,experiment,180,←,left,←,0.5226284000091255,True,15
X009K19,72,experiment,36,→,right,→,0.7531338999979198,True,15
X009K19,73,experiment,36,↑,right,→,0.7464415999129415,False,15
X009K19,74,experiment,120,←,left,←,1.326961999759078,True,15
X009K19,75,experiment,60,←,left,←,0.6627473998814821,True,15
X009K19,76,experiment,144,→,left,←,0.5125779998488724,False,15
X009K19,77,experiment,12,↓,down,↓,1.228089699987322,True,15
X009K19,78,experiment,60,←,left,←,0.9092531003989279,True,15
X009K19,79,experiment,132,←,left,←,0.769412700086832,True,15
X009K19,80,experiment,120,↓,up,↑,0.8260320001281798,False,15
X009K19,81,experiment,72,→,right,→,0.6524148001335561,True,15
X009K19,82,experiment,84,→,left,←,0.574666399974376,False,15
X009K19,83,experiment,168,←,right,→,0.6073007001541555,False,15
X009K19,84,experiment,108,↑,up,↑,0.6542604002170265,True,15
X009K19,85,experiment,12,↓,up,↑,1.3331642001867294,False,15
X009K19,86,experiment,84,←,left,←,0.4991295002400875,True,15
X009K19,87,experiment,108,↓,up,↑,0.8197221998125315,False,15
X009K19,88,experiment,180,←,left,←,0.5540287997573614,True,15
X009K19,89,experiment,96,→,right,→,0.5351933999918401,True,15
X009K19,90,experiment,48,←,left,←,0.7346304999664426,True,15
X009K19,91,experiment,168,↑,right,→,0.8010796001181006,False,15
X009K19,92,experiment,24,↑,up,↑,0.6061468999832869,True,15
X009K19,93,experiment,132,↑,up,↑,0.7125266003422439,True,15
X009K19,94,training,48,→,left,←,1.8267621998675168,False,16
X009K19,95,training,96,↑,right,→,0.9463160000741482,False,16
X009K19,96,training,48,→,left,←,0.5797246000729501,False,16
X009K19,97,experiment,120,←,right,→,0.7834025998599827,False,16
X009K19,98,experiment,156,←,right,→,0.9231636999174953,False,16
X009K19,99,experiment,24,←,left,←,0.5669444003142416,True,16
X009K19,100,experiment,24,←,left,←,0.6814800002612174,True,16
X009K19,101,experiment,120,→,left,←,0.6678619999438524,False,16
X009K19,102,experiment,108,↓,up,↑,1.0417155995965004,False,16
X009K19,103,experiment,12,←,right,→,0.9467679997906089,False,16
X009K19,104,experiment,168,↑,no_key,no_letter,-1.0,False,16
X009K19,105,experiment,12,←,no_key,no_letter,-1.0,False,16
X009K19,106,experiment,96,→,right,→,0.5644604000262916,True,16
X009K19,107,experiment,132,→,left,←,0.4598513003438711,False,16
X009K19,108,experiment,156,→,right,→,0.8554930002428591,True,16
X009K19,109,experiment,156,→,right,→,0.5222951998002827,True,16
X009K19,110,experiment,84,←,left,←,0.5199377997778356,True,16
X009K19,111,experiment,132,↑,up,↑,1.2126095998100936,True,16
X009K19,112,experiment,84,↑,up,↑,0.7484038001857698,True,16
X009K19,113,experiment,168,←,left,←,0.8013849998824298,True,16
X009K19,114,experiment,96,→,right,→,0.5777357998304069,True,16
X009K19,115,experiment,36,↑,left,←,0.9830782003700733,False,16
X009K19,116,experiment,144,→,right,→,0.694206700194627,True,16
X009K19,117,experiment,72,↑,up,↑,1.1663902001455426,True,16
X009K19,118,experiment,108,↓,right,→,1.0698899999260902,False,16
X009K19,119,experiment,96,→,left,←,0.7121727000921965,False,16
X009K19,120,experiment,180,↑,right,→,0.6441794000566006,False,16
X009K19,121,experiment,60,↓,down,↓,0.9969679997302592,True,16
X009K19,122,experiment,12,↓,down,↓,0.5942247998900712,True,16
X009K19,123,experiment,120,↑,up,↑,1.011871499940753,True,16
X009K19,124,experiment,156,↑,left,←,0.9182585999369621,False,16
X009K19,125,experiment,180,↑,up,↑,0.5918847001157701,True,16
X009K19,126,experiment,48,↓,down,↓,0.6099797999486327,True,16
X009K19,127,experiment,12,←,left,←,1.1356569002382457,True,16
X009K19,128,experiment,180,←,right,→,1.1194534003734589,False,16
X009K19,129,experiment,48,←,left,←,1.3938645999878645,True,16
X009K19,130,experiment,72,↓,down,↓,0.9775803000666201,True,16
X009K19,131,experiment,108,↑,up,↑,1.0158791998401284,True,16
X009K19,132,experiment,132,→,right,→,0.7345564002171159,True,16
X009K19,133,experiment,48,→,left,←,0.8683819998987019,False,16
X009K19,134,experiment,24,↑,up,↑,0.796070400159806,True,16
X009K19,135,experiment,24,↓,down,↓,0.566344799939543,True,16
X009K19,136,experiment,48,↑,right,→,0.7237256001681089,False,16
X009K19,137,experiment,144,↓,up,↑,0.9408162999898195,False,16
X009K19,138,experiment,168,→,left,←,1.4372083996422589,False,16
X009K19,139,experiment,72,←,left,←,0.8298553000204265,True,16
X009K19,140,experiment,36,←,left,←,1.1005359999835491,True,16
X009K19,141,experiment,36,↓,down,↓,0.8453426999039948,True,16
X009K19,142,experiment,36,↓,up,↑,1.5889107999391854,False,16
X009K19,143,experiment,144,↑,up,↑,0.6037862999364734,True,16
X009K19,144,experiment,96,↑,up,↑,0.5142815997824073,True,16
X009K19,145,experiment,60,↓,down,↓,0.7001420999877155,True,16
X009K19,146,experiment,60,↓,down,↓,0.9211546997539699,True,16
X009K19,147,experiment,120,↑,up,↑,0.5994747001677752,True,16
X009K19,148,experiment,108,→,down,↓,0.9206823999993503,False,16
X009K19,149,experiment,180,↓,right,→,1.1637740000151098,False,16
X009K19,150,experiment,84,→,right,→,0.642202700022608,True,16
X009K19,151,experiment,84,↓,left,←,1.0687114000320435,False,16
X009K19,152,experiment,144,→,right,→,0.7552724000997841,True,16
X009K19,153,experiment,132,↓,down,↓,0.8434997997246683,True,16
X009K19,154,experiment,168,↓,right,→,0.9472388001158834,False,16
X009K19,155,experiment,72,←,left,←,1.214383200276643,True,16
X009K19,156,experiment,60,←,left,←,0.7817060998640954,True,16
X009K19,157,training,156,→,right,→,0.7860355996526778,True,16
X009K19,158,training,156,↑,up,↑,0.8028195998631418,True,16
X009K19,159,training,156,←,left,←,0.7547311997041106,True,16
X009K19,160,experiment,60,←,right,→,0.7892806003801525,False,16
X009K19,161,experiment,96,→,down,↓,1.0313665000721812,False,16
X009K19,162,experiment,84,↓,up,↑,0.9434563000686467,False,16
X009K19,163,experiment,132,→,right,→,0.47392560029402375,True,16
X009K19,164,experiment,108,→,left,←,1.0196344000287354,False,16
X009K19,165,experiment,12,↓,up,↑,0.9449201999232173,False,16
X009K19,166,experiment,168,↓,up,↑,1.0743677001446486,False,16
X009K19,167,experiment,96,↑,right,→,1.1999611002393067,False,16
X009K19,168,experiment,180,←,left,←,1.2425967999733984,True,16
X009K19,169,experiment,144,↓,left,←,1.8278319002129138,False,16
X009K19,170,experiment,168,↓,up,↑,0.8064477001316845,False,16
X009K19,171,experiment,72,↑,up,↑,0.5673231999389827,True,16
X009K19,172,experiment,180,↓,down,↓,0.8848864999599755,True,16
X009K19,173,experiment,144,↑,up,↑,0.7683383002877235,True,16
X009K19,174,experiment,120,↓,left,←,1.1776399998925626,False,16
X009K19,175,experiment,180,←,down,↓,1.1281577004119754,False,16
X009K19,176,experiment,36,←,left,←,0.6653725998476148,True,16
X009K19,177,experiment,144,←,left,←,0.9027422997169197,True,16
X009K19,178,experiment,12,↑,up,↑,0.8507038997486234,True,16
X009K19,179,experiment,36,→,left,←,0.895331900101155,False,16
X009K19,180,experiment,168,↑,up,↑,0.9114895001985133,True,16
X009K19,181,experiment,168,↓,left,←,0.9372318000532687,False,16
X009K19,182,experiment,48,↓,down,↓,0.8361869002692401,True,16
X009K19,183,experiment,96,↓,up,↑,1.12058570003137,False,16
X009K19,184,experiment,108,←,right,→,1.1434507998637855,False,16
X009K19,185,experiment,180,←,left,←,0.8648093999363482,True,16
X009K19,186,experiment,120,↑,up,↑,0.5952985999174416,True,16
X009K19,187,experiment,144,→,right,→,0.6106195002794266,True,16
X009K19,188,experiment,84,↑,up,↑,0.5790523998439312,True,16
X009K19,189,experiment,60,→,right,→,0.6627144999802113,True,16
X009K19,190,experiment,156,→,right,→,0.6842132997699082,True,16
X009K19,191,experiment,120,←,right,→,1.002668600063771,False,16
X009K19,192,experiment,24,←,right,→,1.2458651000633836,False,16
X009K19,193,experiment,132,→,right,→,0.6415012995712459,True,16
X009K19,194,experiment,60,←,right,→,0.7215636000037193,False,16
X009K19,195,experiment,12,→,right,→,0.6311896000988781,True,16
X009K19,196,experiment,132,↓,right,→,0.8537503997795284,False,16
X009K19,197,experiment,36,↑,up,↑,0.7678348999470472,True,16
X009K19,198,experiment,48,↓,down,↓,0.5360363000072539,True,16
X009K19,199,experiment,24,↓,up,↑,1.0275698001496494,False,16
X009K19,200,experiment,72,↓,down,↓,0.9682721002027392,True,16
X009K19,201,experiment,24,→,right,→,1.022197199985385,True,16
X009K19,202,experiment,60,↓,down,↓,0.8418229999952018,True,16
X009K19,203,experiment,96,↑,up,↑,1.5132257998920977,True,16
X009K19,204,experiment,108,→,right,→,0.9277955000288785,True,16
X009K19,205,experiment,156,↓,down,↓,1.446845700033009,True,16
X009K19,206,experiment,24,←,no_key,no_letter,-1.0,False,16
X009K19,207,experiment,72,←,left,←,1.1301492000930011,True,16
X009K19,208,experiment,84,←,no_key,no_letter,-1.0,False,16
X009K19,209,experiment,108,↑,right,→,1.1030141999945045,False,16
X009K19,210,experiment,84,←,left,←,0.9213552000001073,True,16
X009K19,211,experiment,48,↓,left,←,1.2702549998648465,False,16
X009K19,212,experiment,156,↑,up,↑,0.7948556998744607,True,16
X009K19,213,experiment,36,←,left,←,0.8044933998025954,True,16
X009K19,214,experiment,72,→,right,→,1.2300678002648056,True,16
X009K19,215,experiment,132,↓,down,↓,0.8305431995540857,True,16
X009K19,216,experiment,48,↓,up,↑,0.9721056004054844,False,16
X009K19,217,experiment,12,↓,down,↓,1.8419289002195,True,16
X009K19,218,experiment,120,↑,right,→,1.111869600135833,False,16
X009K19,219,experiment,156,→,right,→,0.9047794002108276,True,16
X009K19,220,training,60,←,left,←,1.0382062001153827,True,17
X009K19,221,training,96,→,right,→,0.890147500205785,True,17
X009K19,222,training,24,↓,up,↑,0.8806035998277366,False,17
X009K19,223,experiment,96,↓,up,↑,1.2313868002966046,False,17
X009K19,224,experiment,132,↑,up,↑,0.757112399674952,True,17
X009K19,225,experiment,168,←,right,→,0.710353100206703,False,17
X009K19,226,experiment,48,←,left,←,0.8850177000276744,True,17
X009K19,227,experiment,96,↓,right,→,0.9358488996513188,False,17
X009K19,228,experiment,180,←,left,←,0.7567981001920998,True,17
X009K19,229,experiment,72,→,left,←,0.7875814000144601,False,17
X009K19,230,experiment,108,→,right,→,0.8482435997575521,True,17
X009K19,231,experiment,72,↓,up,↑,0.9829343003220856,False,17
X009K19,232,experiment,144,→,left,←,0.9066115003079176,False,17
X009K19,233,experiment,84,↓,up,↑,0.9041325999423862,False,17
X009K19,234,experiment,108,←,left,←,0.9071271000429988,True,17
X009K19,235,experiment,60,↑,right,→,1.17817119974643,False,17
X009K19,236,experiment,84,→,right,→,1.0169783001765609,True,17
X009K19,237,experiment,120,↓,no_key,no_letter,-1.0,False,17
X009K19,238,experiment,48,←,no_key,no_letter,-1.0,False,17
X009K19,239,experiment,156,←,left,←,0.9541306998580694,True,17
X009K19,240,experiment,132,↓,down,↓,0.862537999637425,True,17
X009K19,241,experiment,72,↓,right,→,1.0077644996345043,False,17
X009K19,242,experiment,36,↑,down,↓,0.8079711999744177,False,17
X009K19,243,experiment,60,↓,down,↓,0.6315092002041638,True,17
X009K19,244,experiment,12,→,right,→,0.772651500068605,True,17
X009K19,245,experiment,24,→,right,→,0.842495699878782,True,17
X009K19,246,experiment,132,↓,down,↓,0.7382844998501241,True,17
X009K19,247,experiment,12,←,left,←,0.8080465001985431,True,17
X009K19,248,experiment,72,↑,down,↓,0.9359491998329759,False,17
X009K19,249,experiment,96,→,left,←,0.9573717997409403,False,17
X009K19,250,experiment,24,→,left,←,1.1221741000190377,False,17
X009K19,251,experiment,180,←,left,←,0.9954713000915945,True,17
X009K19,252,experiment,24,↓,down,↓,0.6506109000183642,True,17
X009K19,253,experiment,120,←,left,←,0.45815670024603605,True,17
X009K19,254,experiment,144,↓,left,←,0.6686984002590179,False,17
X009K19,255,experiment,48,↓,down,↓,0.6719209998846054,True,17
X009K19,256,experiment,156,←,right,→,1.1591252996586263,False,17
X009K19,257,experiment,12,↑,up,↑,0.7924608001485467,True,17
X009K19,258,experiment,120,↓,right,→,0.9985716002993286,False,17
X009K19,259,experiment,12,→,right,→,0.6549363001249731,True,17
X009K19,260,experiment,120,←,left,←,0.9179325997829437,True,17
X009K19,261,experiment,168,↑,up,↑,1.0138363000005484,True,17
X009K19,262,experiment,96,↑,down,↓,0.9300771998241544,False,17
X009K19,263,experiment,144,↓,up,↑,1.8397872997447848,False,17
X009K19,264,experiment,168,↓,down,↓,0.6392845003865659,True,17
X009K19,265,experiment,156,↓,down,↓,0.5656372997909784,True,17
X009K19,266,experiment,84,←,left,←,0.8320061997510493,True,17
X009K19,267,experiment,180,↑,up,↑,0.9341906001791358,True,17
X009K19,268,experiment,108,↓,up,↑,0.9684490002691746,False,17
X009K19,269,experiment,180,←,left,←,0.6125491000711918,True,17
X009K19,270,experiment,168,←,left,←,0.5956524000503123,True,17
X009K19,271,experiment,132,←,left,←,0.8944500000216067,True,17
X009K19,272,experiment,108,→,right,→,0.6727710999548435,True,17
X009K19,273,experiment,156,↓,left,←,0.8779151998460293,False,17
X009K19,274,experiment,36,→,left,←,1.0421074000187218,False,17
X009K19,275,experiment,60,↓,down,↓,0.6879690000787377,True,17
X009K19,276,experiment,60,←,left,←,1.2482323003932834,True,17
X009K19,277,experiment,84,→,right,→,0.8718897001817822,True,17
X009K19,278,experiment,144,→,left,←,1.0583196999505162,False,17
X009K19,279,experiment,36,←,left,←,1.3117277999408543,True,17
X009K19,280,experiment,48,↓,down,↓,1.0747902998700738,True,17
X009K19,281,experiment,24,↓,down,↓,0.9618748002685606,True,17
X009K19,282,experiment,36,↓,up,↑,1.0190325002186,False,17
X009K19,283,training,24,↑,up,↑,0.8464780002832413,True,18
X009K19,284,training,156,→,left,←,0.9488731003366411,False,18
X009K19,285,training,24,←,left,←,0.6443660999648273,True,18
X009K19,286,experiment,96,↓,down,↓,0.7461009002290666,True,18
X009K19,287,experiment,132,→,right,→,1.0162893999367952,True,18
X009K19,288,experiment,132,↑,up,↑,0.8295645001344383,True,18
X009K19,289,experiment,120,←,right,→,0.8556189001537859,False,18
X009K19,290,experiment,144,↓,up,↑,0.7767249001190066,False,18
X009K19,291,experiment,84,→,right,→,1.0273817996494472,True,18
X009K19,292,experiment,72,↓,up,↑,1.0227320999838412,False,18
X009K19,293,experiment,12,←,right,→,1.110722000245005,False,18
X009K19,294,experiment,180,↑,up,↑,0.7843478000722826,True,18
X009K19,295,experiment,180,↑,up,↑,0.9050135998986661,True,18
X009K19,296,experiment,96,↓,down,↓,1.3706473000347614,True,18
X009K19,297,experiment,60,→,left,←,0.982273600064218,False,18
X009K19,298,experiment,84,→,up,↑,1.0145936999469995,False,18
X009K19,299,experiment,168,↑,up,↑,0.8929526000283659,True,18
X009K19,300,experiment,36,↓,up,↑,1.338749600108713,False,18
X009K19,301,experiment,168,↓,down,↓,1.0482081999070942,True,18
X009K19,302,experiment,12,↓,up,↑,0.9992956998758018,False,18
X009K19,303,experiment,84,↑,down,↓,0.8588223997503519,False,18
X009K19,304,experiment,120,↑,left,←,1.526936599984765,False,18
X009K19,305,experiment,108,←,left,←,0.8436552998609841,True,18
X009K19,306,experiment,12,→,left,←,1.6840829001739621,False,18
X009K19,307,experiment,24,→,left,←,1.2756205000914633,False,18
X009K19,308,experiment,84,↑,up,↑,0.9790873997844756,True,18
X009K19,309,experiment,120,→,left,←,1.1112874001264572,False,18
X009K19,310,experiment,72,↓,down,↓,0.7136019002646208,True,18
X009K19,311,experiment,48,→,left,←,0.7570803998969495,False,18
X009K19,312,experiment,144,←,left,←,0.6837373003363609,True,18
X009K19,313,experiment,144,←,left,←,0.8823012001812458,True,18
X009K19,314,experiment,96,↑,up,↑,0.7420474998652935,True,18
X009K19,315,experiment,168,↓,left,←,1.1835452001541853,False,18
X009K19,316,experiment,156,→,right,→,0.7989969002082944,True,18
X009K19,317,experiment,36,→,left,←,0.8014064999297261,False,18
X009K19,318,experiment,72,←,left,←,0.7233641999773681,True,18
X009K19,319,experiment,108,→,right,→,0.8229612996801734,True,18
X009K19,320,experiment,120,↑,right,→,1.1728207999840379,False,18
X009K19,321,experiment,24,→,right,→,0.8163982997648418,True,18
X009K19,322,experiment,36,→,left,←,0.8995662997476757,False,18
X009K19,323,experiment,168,↑,up,↑,0.7530608996748924,True,18
X009K19,324,experiment,108,←,left,←,0.820085700135678,True,18
X009K19,325,experiment,156,→,right,→,0.7067086999304593,True,18
X009K19,326,experiment,96,↑,up,↑,1.0919368998147547,True,18
X009K19,327,experiment,132,↓,up,↑,0.7842680001631379,False,18
X009K19,328,experiment,48,↓,down,↓,0.9184592999517918,True,18
X009K19,329,experiment,156,→,no_key,no_letter,-1.0,False,18
X009K19,330,experiment,60,↑,up,↑,0.6269937003962696,True,18
X009K19,331,experiment,60,→,right,→,0.6762129003182054,True,18
X009K19,332,experiment,72,↑,up,↑,0.60820799972862,True,18
X009K19,333,experiment,48,←,right,→,0.9236357999034226,False,18
X009K19,334,experiment,180,←,right,→,0.7391562000848353,False,18
X009K19,335,experiment,24,↓,down,↓,0.8268185998313129,True,18
X009K19,336,experiment,180,←,right,→,0.844259399920702,False,18
X009K19,337,experiment,144,↓,down,↓,0.7239955998957157,True,18
X009K19,338,experiment,48,←,left,←,0.805277599953115,True,18
X009K19,339,experiment,132,→,right,→,0.7801802000030875,True,18
X009K19,340,experiment,156,↓,right,→,1.0629234001971781,False,18
X009K19,341,experiment,12,←,right,→,1.3177526998333633,False,18
X009K19,342,experiment,36,↓,down,↓,1.029015100095421,True,18
X009K19,343,experiment,60,←,up,↑,1.2039888999424875,False,18
X009K19,344,experiment,108,→,right,→,0.6580380997620523,True,18
X009K19,345,experiment,24,↑,up,↑,0.8750909003429115,True,18
X009K19,346,training,60,←,right,→,0.9087583003565669,False,18
X009K19,347,training,24,→,right,→,1.0510404999367893,True,18
X009K19,348,training,144,↓,down,↓,0.8708787998184562,True,18
X009K19,349,experiment,48,→,left,←,0.8044084999710321,False,18
X009K19,350,experiment,72,↑,left,←,0.9198503997176886,False,18
X009K19,351,experiment,60,→,right,→,0.5338760996237397,True,18
X009K19,352,experiment,132,←,left,←,1.0167525000870228,True,18
X009K19,353,experiment,156,↓,down,↓,0.6640653000213206,True,18
X009K19,354,experiment,120,↑,up,↑,0.5825563003309071,True,18
X009K19,355,experiment,180,←,right,→,0.8521912000142038,False,18
X009K19,356,experiment,12,↓,down,↓,0.8517693998292089,True,18
X009K19,357,experiment,120,↓,down,↓,0.8044683998450637,True,18
X009K19,358,experiment,96,↓,down,↓,0.695197899825871,True,18
X009K19,359,experiment,96,↓,up,↑,1.0068645002320409,False,18
X009K19,360,experiment,108,→,left,←,0.8792524002492428,False,18
X009K19,361,experiment,72,↑,up,↑,0.8911011000163853,True,18
X009K19,362,experiment,180,←,left,←,0.7458928003907204,True,18
X009K19,363,experiment,72,↓,up,↑,0.8936529997736216,False,18
X009K19,364,experiment,24,↑,left,←,1.0904141999781132,False,18
X009K19,365,experiment,60,←,left,←,0.6626939000561833,True,18
X009K19,366,experiment,144,←,left,←,0.982759099919349,True,18
X009K19,367,experiment,120,→,right,→,0.9373169001191854,True,18
X009K19,368,experiment,48,←,left,←,0.8006114000454545,True,18
X009K19,369,experiment,36,↑,up,↑,0.7666525999084115,True,18
X009K19,370,experiment,72,↓,up,↑,0.8395958999171853,False,18
X009K19,371,experiment,84,→,left,←,0.7820941000245512,False,18
X009K19,372,experiment,12,↑,left,←,0.6934176003560424,False,18
X009K19,373,experiment,132,→,left,←,1.215197800192982,False,18
X009K19,374,experiment,36,←,left,←,0.6433545998297632,True,18
X009K19,375,experiment,12,↓,up,↑,1.0382400997914374,False,18
X009K19,376,experiment,168,↓,down,↓,0.7928380998782814,True,18
X009K19,377,experiment,132,→,left,←,0.7338946000672877,False,18
X009K19,378,experiment,48,↓,down,↓,0.8509852001443505,True,18
X009K19,379,experiment,24,↓,down,↓,0.8270168001763523,True,18
X009K19,380,experiment,84,↓,down,↓,0.7483748001977801,True,18
X009K19,381,experiment,120,↑,up,↑,0.9103936003521085,True,18
X009K19,382,experiment,180,↓,down,↓,0.7290436998009682,True,18
X009K19,383,experiment,96,↑,down,↓,0.6625350001268089,False,18
X009K19,384,experiment,168,→,left,←,0.6365663995966315,False,18
X009K19,385,experiment,144,↑,down,↓,1.1319188000634313,False,18
X009K19,386,experiment,84,→,up,↑,0.8529260000213981,False,18
X009K19,387,experiment,60,↑,left,←,0.9690555999986827,False,18
X009K19,388,experiment,132,→,left,←,0.7640844997949898,False,18
X009K19,389,experiment,144,→,right,→,0.9243844002485275,True,18
X009K19,390,experiment,36,→,left,←,0.9610578999854624,False,18
X009K19,391,experiment,156,↑,left,←,0.788559699896723,False,18
X009K19,392,experiment,108,→,right,→,0.623949300032109,True,18
X009K19,393,experiment,24,←,left,←,0.5750556997954845,True,18
X009K19,394,experiment,84,↑,up,↑,0.7625005999580026,True,18
X009K19,395,experiment,24,←,right,→,0.8275541998445988,False,18
X009K19,396,experiment,96,↓,right,→,0.6707457997836173,False,18
X009K19,397,experiment,108,↑,up,↑,0.577411400154233,True,18
X009K19,398,experiment,144,←,right,→,0.9831659998744726,False,18
X009K19,399,experiment,180,↑,no_key,no_letter,-1.0,False,18
X009K19,400,experiment,168,→,left,←,0.9747064001858234,False,18
X009K19,401,experiment,12,←,left,←,0.8034626999869943,True,18
X009K19,402,experiment,60,↑,up,↑,0.5165031002834439,True,18
X009K19,403,experiment,48,←,left,←,0.6163959996774793,True,18
X009K19,404,experiment,36,←,left,←,0.5962651004083455,True,18
X009K19,405,experiment,168,→,right,→,0.5829046997241676,True,18
X009K19,406,experiment,156,→,right,→,0.7744744997471571,True,18
X009K19,407,experiment,156,←,left,←,0.9025081000290811,True,18
X009K19,408,experiment,108,↓,down,↓,0.8724506003782153,True,18
X009K19,409,training,36,→,left,←,1.1305450997315347,False,18
X009K19,410,training,168,↑,left,←,1.0391755001619458,False,18
X009K19,411,training,36,↑,up,↑,0.7897334001027048,True,18
X009K19,412,experiment,72,→,left,←,0.7028870000503957,False,18
X009K19,413,experiment,180,↓,down,↓,0.9168436001054943,True,18
X009K19,414,experiment,24,←,right,→,0.8315945998765528,False,18
X009K19,415,experiment,108,→,right,→,0.7640944002196193,True,18
X009K19,416,experiment,120,→,right,→,0.66240209992975,True,18
X009K19,417,experiment,48,↓,down,↓,0.864960900042206,True,18
X009K19,418,experiment,144,↑,down,↓,1.044193500187248,False,18
X009K19,419,experiment,156,↑,up,↑,0.978089100215584,True,18
X009K19,420,experiment,168,↓,down,↓,0.6624855003319681,True,18
X009K19,421,experiment,72,↓,down,↓,0.6041216002777219,True,18
X009K19,422,experiment,96,↑,up,↑,0.8448903998360038,True,18
X009K19,423,experiment,180,↑,down,↓,0.7910389001481235,False,18
X009K19,424,experiment,84,↓,down,↓,0.9089466999284923,True,18
X009K19,425,experiment,12,→,right,→,0.8229598999023438,True,18
X009K19,426,experiment,72,↓,down,↓,0.7259905999526381,True,18
X009K19,427,experiment,168,↓,left,←,1.131461599841714,False,18
X009K19,428,experiment,144,←,left,←,0.814556899946183,True,18
X009K19,429,experiment,60,←,left,←,0.573802599683404,True,18
X009K19,430,experiment,12,←,left,←,0.5247968998737633,True,18
X009K19,431,experiment,36,↑,right,→,0.7022659000940621,False,18
X009K19,432,experiment,36,↓,down,↓,0.843298299703747,True,18
X009K19,433,experiment,12,←,right,→,0.941869200207293,False,18
X009K19,434,experiment,36,←,left,←,0.7371834996156394,True,18
X009K19,435,experiment,96,→,left,←,0.6312327003106475,False,18
X009K19,436,experiment,108,↑,up,↑,0.6813175999559462,True,18
X009K19,437,experiment,96,↑,down,↓,0.6846579001285136,False,18
X009K19,438,experiment,24,↓,down,↓,0.7890281998552382,True,18
X009K19,439,experiment,168,→,left,←,0.7289780001156032,False,18
X009K19,440,experiment,108,←,right,→,0.811338400002569,False,18
X009K19,441,experiment,180,↓,down,↓,0.7765970001928508,True,18
X009K19,442,experiment,84,↓,left,←,0.9427749998867512,False,18
X009K19,443,experiment,60,↑,right,→,1.2060773000121117,False,18
X009K19,444,experiment,156,←,left,←,1.0290411999449134,True,18
X009K19,445,experiment,132,→,right,→,0.7190692001022398,True,18
X009K19,446,experiment,96,→,left,←,0.8577339998446405,False,18
X009K19,447,experiment,60,←,right,→,1.317327099852264,False,18
X009K19,448,experiment,120,↑,down,↓,1.246885399799794,False,18
X009K19,449,experiment,48,←,no_key,no_letter,-1.0,False,18
X009K19,450,experiment,48,↑,up,↑,0.9505302999168634,True,18
X009K19,451,experiment,24,←,left,←,0.7620294997468591,True,18
X009K19,452,experiment,24,↑,left,←,0.9219734999351203,False,18
X009K19,453,experiment,108,↑,up,↑,0.8098571002483368,True,18
X009K19,454,experiment,12,↓,down,↓,0.7564920000731945,True,18
X009K19,455,experiment,60,→,right,→,0.7815457996912301,True,18
X009K19,456,experiment,180,↓,down,↓,0.9209459000267088,True,18
X009K19,457,experiment,156,→,right,→,0.555137800052762,True,18
X009K19,458,experiment,84,→,right,→,0.6528468001633883,True,18
X009K19,459,experiment,48,→,right,→,0.5887621999718249,True,18
X009K19,460,experiment,132,↓,up,↑,0.8864461998455226,False,18
X009K19,461,experiment,84,→,down,↓,0.7019720003008842,False,18
X009K19,462,experiment,132,→,right,→,0.5786056001670659,True,18
X009K19,463,experiment,144,↑,up,↑,1.1498038000427186,True,18
X009K19,464,experiment,144,↑,down,↓,0.8267407999373972,False,18
X009K19,465,experiment,120,←,left,←,0.7820572997443378,True,18
X009K19,466,experiment,156,↓,up,↑,0.9692355999723077,False,18
X009K19,467,experiment,72,↓,down,↓,0.9825478000566363,True,18
X009K19,468,experiment,120,→,right,→,0.6796214999631047,True,18
X009K19,469,experiment,132,←,left,←,1.16261629993096,True,18
X009K19,470,experiment,168,→,right,→,0.9213669998571277,True,18
X009K19,471,experiment,36,↓,down,↓,0.9982350999489427,True,18
X009K19,472,training,156,←,left,←,1.1269835997372866,True,18
X009K19,473,training,96,→,right,→,0.6798483999446034,True,18
X009K19,474,training,24,↑,up,↑,0.6205179998651147,True,18
X009K19,475,experiment,144,↑,up,↑,0.5975522003136575,True,18
X009K19,476,experiment,72,↑,up,↑,0.7854234999977052,True,18
X009K19,477,experiment,96,↑,up,↑,0.5245759002864361,True,18
X009K19,478,experiment,12,→,right,→,1.0024990998208523,True,18
X009K19,479,experiment,96,→,right,→,0.5330639001913369,True,18
X009K19,480,experiment,60,←,left,←,1.0720524000935256,True,18
X009K19,481,experiment,132,→,right,→,0.5334421996958554,True,18
X009K19,482,experiment,120,↑,up,↑,1.0991484001278877,True,18
X009K19,483,experiment,72,↓,down,↓,0.7088289000093937,True,18
X009K19,484,experiment,72,↑,up,↑,0.6928811999969184,True,18
X009K19,485,experiment,24,↓,down,↓,0.8998452997766435,True,18
X009K19,486,experiment,132,↓,up,↑,0.9715317003428936,False,18
X009K19,487,experiment,168,↓,no_key,no_letter,-1.0,False,18
X009K19,488,experiment,168,→,up,↑,1.105509600136429,False,18
X009K19,489,experiment,24,↑,down,↓,0.7289291997440159,False,18
X009K19,490,experiment,108,↓,up,↑,0.6294048000127077,False,18
X009K19,491,experiment,84,→,left,←,0.9499919000081718,False,18
X009K19,492,experiment,156,→,left,←,0.8376460000872612,False,18
X009K19,493,experiment,48,↓,up,↑,0.7806170997209847,False,18
X009K19,494,experiment,96,←,left,←,0.8527573002502322,True,18
X009K19,495,experiment,24,↓,down,↓,0.7312860996462405,True,18
X009K19,496,experiment,48,↓,down,↓,0.7442287998273969,True,18
X009K19,497,experiment,120,→,left,←,0.7297542002052069,False,18
X009K19,498,experiment,72,↓,down,↓,1.0216864999383688,True,18
X009K19,499,experiment,60,←,left,←,1.2225657999515533,True,18
X009K19,500,experiment,36,↑,left,←,1.0957758002914488,False,18
X009K19,501,experiment,12,↑,down,↓,0.8576013999991119,False,18
X009K19,502,experiment,12,↓,up,↑,0.8606473999097943,False,18
X009K19,503,experiment,120,←,left,←,0.7168473997153342,True,18
X009K19,504,experiment,36,↑,left,←,0.9409592999145389,False,18
X009K19,505,experiment,96,←,left,←,0.796221200376749,True,18
X009K19,506,experiment,36,↑,no_key,no_letter,-1.0,False,18
X009K19,507,experiment,156,↓,down,↓,0.8961823000572622,True,18
X009K19,508,experiment,60,↑,up,↑,1.0909124999307096,True,18
X009K19,509,experiment,36,←,left,←,1.1138328998349607,True,18
X009K19,510,experiment,144,↑,up,↑,1.3109953999519348,True,18
X009K19,511,experiment,180,↑,up,↑,0.8538359003141522,True,18
X009K19,512,experiment,180,→,right,→,0.7140981000848114,True,18
X009K19,513,experiment,168,→,right,→,0.6235557999461889,True,18
X009K19,514,experiment,180,↓,right,→,0.9856771999038756,False,18
X009K19,515,experiment,108,↑,up,↑,1.21845590043813,True,18
X009K19,516,experiment,84,↓,up,↑,0.9318266999907792,False,18
X009K19,517,experiment,84,↓,up,↑,1.233720500022173,False,18
X009K19,518,experiment,24,←,right,→,0.699358900077641,False,18
X009K19,519,experiment,132,→,right,→,0.7407251996919513,True,18
X009K19,520,experiment,168,↑,up,↑,0.8207032000645995,True,18
X009K19,521,experiment,180,↓,up,↑,0.7179942997172475,False,18
X009K19,522,experiment,60,↓,down,↓,1.028325599618256,True,18
X009K19,523,experiment,108,←,left,←,1.1940037002786994,True,18
X009K19,524,experiment,144,↓,down,↓,0.7895516999997199,True,18
X009K19,525,experiment,156,←,left,←,0.8953518997877836,True,18
X009K19,526,experiment,132,←,left,←,0.6503891996107996,True,18
X009K19,527,experiment,120,↓,down,↓,0.8154611000791192,True,18
X009K19,528,experiment,48,↑,up,↑,1.0642498000524938,True,18
X009K19,529,experiment,12,↓,down,↓,0.8590124999172986,True,18
X009K19,530,experiment,84,→,down,↓,1.2532181995920837,False,18
X009K19,531,experiment,48,↓,down,↓,1.3797145001590252,True,18
X009K19,532,experiment,108,→,down,↓,1.2135768001899123,False,18
X009K19,533,experiment,156,↑,up,↑,0.8016747999936342,True,18
X009K19,534,experiment,144,↑,up,↑,0.6641795998439193,True,18
X009K19,535,training,84,→,right,→,1.0932165998965502,True,18
X009K19,536,training,156,↓,up,↑,0.8687946000136435,False,18
X009K19,537,training,24,↓,down,↓,0.9009302002377808,True,18
X009K19,538,experiment,48,→,left,←,0.898770300205797,False,18
X009K19,539,experiment,108,↓,down,↓,0.8195813000202179,True,18
X009K19,540,experiment,156,↓,down,↓,0.9141853000037372,True,18
X009K19,541,experiment,132,↑,up,↑,0.8691845000721514,True,18
X009K19,542,experiment,96,→,down,↓,0.9600517000071704,False,18
X009K19,543,experiment,144,→,right,→,0.6324935001321137,True,18
X009K19,544,experiment,72,→,right,→,0.5425893999636173,True,18
X009K19,545,experiment,120,←,left,←,0.7629223000258207,True,18
X009K19,546,experiment,12,←,left,←,0.6889301999472082,True,18
X009K19,547,experiment,108,↓,left,←,1.0538424998521805,False,18
X009K19,548,experiment,84,↓,left,←,0.8796113999560475,False,18
X009K19,549,experiment,12,↑,left,←,0.9961862997151911,False,18
X009K19,550,experiment,156,↑,up,↑,1.4340156000107527,True,18
X009K19,551,experiment,48,→,right,→,0.6735559003427625,True,18
X009K19,552,experiment,60,↑,up,↑,0.5554481004364789,True,18
X009K19,553,experiment,144,↓,down,↓,0.8832278000190854,True,18
X009K19,554,experiment,48,↓,up,↑,1.5284628998488188,False,18
X009K19,555,experiment,120,←,right,→,0.9991619996726513,False,18
X009K19,556,experiment,84,→,right,→,0.6705069001764059,True,18
X009K19,557,experiment,36,↑,up,↑,0.831986699718982,True,18
X009K19,558,experiment,96,↑,up,↑,0.7744181999005377,True,18
X009K19,559,experiment,72,←,left,←,0.7902305000461638,True,18
X009K19,560,experiment,168,↓,up,↑,0.9146524998359382,False,18
X009K19,561,experiment,180,↓,down,↓,0.7605448001995683,True,18
X009K19,562,experiment,36,←,left,←,0.9202446001581848,True,18
X009K19,563,experiment,180,↑,left,←,1.062872199807316,False,18
X009K19,564,experiment,168,↑,up,↑,1.1306235999800265,True,18
X009K19,565,experiment,120,↓,up,↑,0.9455035999417305,False,18
X009K19,566,experiment,72,←,left,←,0.7201023995876312,True,18
X009K19,567,experiment,84,←,left,←,0.4933461998589337,True,18
X009K19,568,experiment,156,←,left,←,0.8339635003358126,True,18
X009K19,569,experiment,60,↑,down,↓,1.3283134000375867,False,18
X009K19,570,experiment,72,↑,up,↑,1.1613302999176085,True,18
X009K19,571,experiment,180,→,right,→,0.9146715002134442,True,18
X009K19,572,experiment,168,→,up,↑,1.585660899989307,False,18
X009K19,573,experiment,24,↑,up,↑,0.8094293996691704,True,18
X009K19,574,experiment,96,←,down,↓,0.9772365000098944,False,18
X009K19,575,experiment,24,↑,no_key,no_letter,-1.0,False,18
X009K19,576,experiment,144,→,right,→,0.587024100124836,True,18
X009K19,577,experiment,60,↑,up,↑,0.6397617999464273,True,18
X009K19,578,experiment,84,↑,up,↑,0.537996499799192,True,18
X009K19,579,experiment,156,←,left,←,1.0474566002376378,True,18
X009K19,580,experiment,36,→,left,←,1.1818408998660743,False,18
X009K19,581,experiment,96,↑,up,↑,0.7611067998223007,True,18
X009K19,582,experiment,24,↓,up,↑,1.3331956998445094,False,18
X009K19,583,experiment,12,→,right,→,0.6446342999115586,True,18
X009K19,584,experiment,132,↓,down,↓,0.8538154000416398,True,18
X009K19,585,experiment,132,↑,up,↑,0.8016238999553025,True,18
X009K19,586,experiment,48,→,left,←,1.098388500045985,False,18
X009K19,587,experiment,36,←,left,←,0.7082048999145627,True,18
X009K19,588,experiment,12,→,left,←,0.5733508998528123,False,18
X009K19,589,experiment,108,↓,left,←,0.6507019000127912,False,18
X009K19,590,experiment,132,→,left,←,0.6317711002193391,False,18
X009K19,591,experiment,60,←,no_key,no_letter,-1.0,False,18
X009K19,592,experiment,168,→,right,→,0.6358280000276864,True,18
X009K19,593,experiment,144,↑,right,→,0.8320686002261937,False,18
X009K19,594,experiment,120,←,left,←,0.706833700183779,True,18
X009K19,595,experiment,24,→,right,→,0.5657780999317765,True,18
X009K19,596,experiment,180,→,right,→,0.6141142998822033,True,18
X009K19,597,experiment,108,→,right,→,0.592437700368464,True,18
X009K19,598,training,168,↑,up,↑,0.6030709999613464,True,18
X009K19,599,training,48,→,up,↑,0.7530249999836087,False,18
X009K19,600,training,144,↓,left,←,0.8851614003069699,False,18
X009K19,601,experiment,84,↑,up,↑,0.6893906998448074,True,18
X009K19,602,experiment,144,↓,down,↓,0.7452863003127277,True,18
X009K19,603,experiment,132,↓,down,↓,1.297697499860078,True,18
X009K19,604,experiment,132,↑,up,↑,0.9299749997444451,True,18
X009K19,605,experiment,120,↑,up,↑,0.867864599917084,True,18
X009K19,606,experiment,108,→,left,←,0.8112452998757362,False,18
X009K19,607,experiment,12,↑,up,↑,0.8621529000811279,True,18
X009K19,608,experiment,84,→,right,→,0.6220354000106454,True,18
X009K19,609,experiment,108,↑,right,→,0.9627197002992034,False,18
X009K19,610,experiment,24,→,right,→,0.6898203999735415,True,18
X009K19,611,experiment,96,←,right,→,0.8961525000631809,False,18
X009K19,612,experiment,180,↑,up,↑,0.7060680999420583,True,18
X009K19,613,experiment,168,↑,up,↑,0.6577930999919772,True,18
X009K19,614,experiment,144,↑,left,←,1.4533644998446107,False,18
X009K19,615,experiment,132,→,left,←,0.8072941000573337,False,18
X009K19,616,experiment,156,→,right,→,0.5944173000752926,True,18
X009K19,617,experiment,60,←,left,←,1.038848599884659,True,18
X009K19,618,experiment,84,←,left,←,0.6920791999436915,True,18
X009K19,619,experiment,12,↓,right,→,1.0828928998671472,False,18
X009K19,620,experiment,48,↓,up,↑,0.8253457001410425,False,18
X009K19,621,experiment,168,→,right,→,0.576401500031352,True,18
X009K19,622,experiment,36,↓,up,↑,0.7629189998842776,False,18
X009K19,623,experiment,48,↑,up,↑,0.7001497000455856,True,18
X009K19,624,experiment,120,←,right,→,0.7415487999096513,False,18
X009K19,625,experiment,168,↑,right,→,0.06719009997323155,False,18
X009K19,626,experiment,24,↓,up,↑,0.8142727999947965,False,18
X009K19,627,experiment,24,←,left,←,0.7300113001838326,True,18
X009K19,628,experiment,36,↑,up,↑,0.6121502998284996,True,18
X009K19,629,experiment,108,→,up,↑,0.8703350997529924,False,18
X009K19,630,experiment,72,↓,down,↓,0.7543410998769104,True,18
X009K19,631,experiment,12,↑,down,↓,0.8863840000703931,False,18
X009K19,632,experiment,120,←,left,←,0.8449431001208723,True,18
X009K19,633,experiment,96,→,right,→,0.5454651000909507,True,18
X009K19,634,experiment,96,↑,up,↑,0.4874812001362443,True,18
X009K19,635,experiment,108,↑,up,↑,0.5942486999556422,True,18
X009K19,636,experiment,120,→,left,←,0.9616068000905216,False,18
X009K19,637,experiment,60,←,left,←,0.7992409998551011,True,18
X009K19,638,experiment,12,↑,up,↑,0.5786484996788204,True,18
X009K19,639,experiment,180,↑,up,↑,0.5819844002835453,True,18
X009K19,640,experiment,180,↑,up,↑,0.6051115998998284,True,18
X009K19,641,experiment,24,↑,up,↑,1.2622989998199046,True,18
X009K19,642,experiment,48,←,left,←,0.9709405000321567,True,18
X009K19,643,experiment,72,←,left,←,0.7666573999449611,True,18
X009K19,644,experiment,36,↑,up,↑,0.5733040999621153,True,18
X009K19,645,experiment,180,↓,up,↑,1.0125346002168953,False,18
X009K19,646,experiment,132,←,left,←,0.8037587003782392,True,18
X009K19,647,experiment,96,↑,up,↑,0.6665564998984337,True,18
X009K19,648,experiment,60,→,left,←,0.8792917998507619,False,18
X009K19,649,experiment,156,↑,up,↑,1.7072311001829803,True,18
X009K19,650,experiment,84,↓,down,↓,1.0160791999660432,True,18
X009K19,651,experiment,156,→,left,←,0.7153080999851227,False,18
X009K19,652,experiment,168,↑,up,↑,0.5136110000312328,True,18
X009K19,653,experiment,72,↓,down,↓,0.5852908999659121,True,18
X009K19,654,experiment,60,↓,down,↓,0.6766594997607172,True,18
X009K19,655,experiment,156,↑,up,↑,0.7291963002644479,True,18
X009K19,656,experiment,36,↑,up,↑,0.624497199896723,True,18
X009K19,657,experiment,144,←,left,←,1.3752473001368344,True,18
X009K19,658,experiment,72,↑,up,↑,0.798414200078696,True,18
X009K19,659,experiment,144,→,up,↑,0.7627284997142851,False,18
X009K19,660,experiment,48,→,left,←,0.974191200453788,False,18
X009K19,661,training,144,→,left,←,1.106261400040239,False,18
X009K19,662,training,168,←,left,←,1.077390399761498,True,18
X009K19,663,training,132,←,left,←,0.6335200001485646,True,18
X009K19,664,experiment,120,↑,left,←,1.0048791002482176,False,18
X009K19,665,experiment,72,←,up,↑,1.21641939971596,False,18
X009K19,666,experiment,180,↑,up,↑,0.6653603003360331,True,18
X009K19,667,experiment,84,↓,up,↑,0.6777908001095057,False,18
X009K19,668,experiment,120,→,right,→,0.8297211998142302,True,18
X009K19,669,experiment,120,↑,up,↑,0.8792472998611629,True,18
X009K19,670,experiment,24,→,right,→,0.7192778000608087,True,18
X009K19,671,experiment,144,↑,up,↑,0.580728099681437,True,18
X009K19,672,experiment,144,↑,no_key,no_letter,-1.0,False,18
X009K19,673,experiment,12,←,left,←,0.8530570003204048,True,18
X009K19,674,experiment,180,↑,up,↑,0.46871590008959174,True,18
X009K19,675,experiment,96,←,left,←,1.0092064999043941,True,18
X009K19,676,experiment,48,↑,up,↑,0.4173495997674763,True,18
X009K19,677,experiment,84,→,right,→,0.5479252999648452,True,18
X009K19,678,experiment,108,↓,right,→,0.8452812000177801,False,18
X009K19,679,experiment,36,↓,up,↑,0.6474399999715388,False,18
X009K19,680,experiment,72,→,right,→,0.5344693004153669,True,18
X009K19,681,experiment,180,←,left,←,0.9067950998432934,True,18
X009K19,682,experiment,24,→,left,←,0.788453200366348,False,18
X009K19,683,experiment,96,↓,down,↓,0.6412121001631021,True,18
X009K19,684,experiment,36,←,left,←,0.6795136998407543,True,18
X009K19,685,experiment,132,↑,up,↑,0.8204467999748886,True,18
X009K19,686,experiment,132,←,no_key,no_letter,-1.0,False,18
X009K19,687,experiment,108,→,right,→,0.6789561999030411,True,18
X009K19,688,experiment,12,←,left,←,0.9496327000670135,True,18
X009K19,689,experiment,180,↑,up,↑,0.6383521999232471,True,18
X009K19,690,experiment,132,→,left,←,0.9011987000703812,False,18
X009K19,691,experiment,24,←,left,←,0.675959600135684,True,18
X009K19,692,experiment,168,←,left,←,0.6493032001890242,True,18
X009K19,693,experiment,108,↓,up,↑,0.7491800002753735,False,18
X009K19,694,experiment,48,↓,up,↑,0.6007713996805251,False,18
X009K19,695,experiment,48,↑,up,↑,1.475620100274682,True,18
X009K19,696,experiment,84,←,up,↑,0.4337647999636829,False,18
X009K19,697,experiment,96,↑,up,↑,0.8063037996180356,True,18
X009K19,698,experiment,60,↑,up,↑,0.9669885002076626,True,18
X009K19,699,experiment,36,↑,up,↑,0.6252604001201689,True,18
X009K19,700,experiment,36,←,left,←,0.5761237000115216,True,18
X009K19,701,experiment,156,→,right,→,0.5923621999099851,True,18
X009K19,702,experiment,156,←,left,←,0.7034462001174688,True,18
X009K19,703,experiment,72,↓,up,↑,0.7943536001257598,False,18
X009K19,704,experiment,144,←,left,←,0.6250471998937428,True,18
X009K19,705,experiment,108,↓,down,↓,0.7509095999412239,True,18
X009K19,706,experiment,168,↓,down,↓,1.0027807001024485,True,18
X009K19,707,experiment,24,↑,up,↑,0.6472295997664332,True,18
X009K19,708,experiment,144,→,left,←,0.8261032998561859,False,18
X009K19,709,experiment,156,↓,down,↓,0.7062274999916553,True,18
X009K19,710,experiment,60,→,right,→,1.0873746001161635,True,18
X009K19,711,experiment,60,↓,up,↑,0.8074195999652147,False,18
X009K19,712,experiment,168,↑,up,↑,0.7223249999806285,True,18
X009K19,713,experiment,72,↓,down,↓,1.2184091000817716,True,18
X009K19,714,experiment,168,←,right,→,0.7538833003491163,False,18
X009K19,715,experiment,12,↓,up,↑,0.9900847999379039,False,18
X009K19,716,experiment,132,←,left,←,0.8924637003801763,True,18
X009K19,717,experiment,96,↑,up,↑,0.8845404996536672,True,18
X009K19,718,experiment,84,←,left,←,0.7781067998148501,True,18
X009K19,719,experiment,12,↓,up,↑,1.1242860998027027,False,18
X009K19,720,experiment,60,↑,up,↑,0.6748097999952734,True,18
X009K19,721,experiment,48,→,up,↑,1.7017441000789404,False,18
X009K19,722,experiment,120,↑,up,↑,1.116940200328827,True,18
X009K19,723,experiment,156,↓,up,↑,1.0785689000040293,False,18
X009K19,724,training,168,↑,left,←,0.8698352999053895,False,18
X009K19,725,training,96,→,right,→,1.1311870999634266,True,18
X009K19,726,training,96,←,left,←,0.8670185999944806,True,18
X009K19,727,experiment,132,↑,up,↑,0.48604970006272197,True,18
X009K19,728,experiment,120,→,left,←,0.7873076000250876,False,18
X009K19,729,experiment,132,↓,left,←,0.6344975000247359,False,18
X009K19,730,experiment,72,→,right,→,0.8326542000286281,True,18
X009K19,731,experiment,108,←,left,←,0.7582757999189198,True,18
X009K19,732,experiment,72,↓,up,↑,1.1159707000479102,False,18
X009K19,733,experiment,24,↑,up,↑,0.8530037999153137,True,18
X009K19,734,experiment,168,→,right,→,0.7828949000686407,True,18
X009K19,735,experiment,168,↑,up,↑,1.142706099897623,True,18
X009K19,736,experiment,156,←,up,↑,0.9504390000365674,False,18
X009K19,737,experiment,96,↓,up,↑,0.9585131001658738,False,18
X009K19,738,experiment,84,↑,up,↑,0.5934586999937892,True,18
X009K19,739,experiment,180,↑,up,↑,0.8162418003194034,True,18
X009K19,740,experiment,120,←,right,→,0.9413312999531627,False,18
X009K19,741,experiment,180,↑,up,↑,0.8600494000129402,True,18
X009K19,742,experiment,36,↑,up,↑,0.7210937002673745,True,18
X009K19,743,experiment,84,↓,up,↑,0.7444418999366462,False,18
X009K19,744,experiment,12,↓,up,↑,0.7807717998512089,False,18
X009K19,745,experiment,84,→,left,←,1.4987789001315832,False,18
X009K19,746,experiment,48,↑,up,↑,0.6915697995573282,True,18
X009K19,747,experiment,60,↑,up,↑,0.8535500001162291,True,18
X009K19,748,experiment,24,→,right,→,0.6261859000660479,True,18
X009K19,749,experiment,144,→,right,→,0.6582096996717155,True,18
X009K19,750,experiment,48,←,left,←,0.8027928001247346,True,18
X009K19,751,experiment,12,→,right,→,0.7825229000300169,True,18
X009K19,752,experiment,96,←,left,←,0.6890470995567739,True,18
X009K19,753,experiment,48,↓,down,↓,0.7515011997893453,True,18
X009K19,754,experiment,72,→,right,→,0.5975834000855684,True,18
X009K19,755,experiment,36,→,left,←,0.813623399939388,False,18
X009K19,756,experiment,24,↑,up,↑,0.7512697000056505,True,18
X009K19,757,experiment,180,→,right,→,1.0724847000092268,True,18
X009K19,758,experiment,144,↑,down,↓,0.9434752999804914,False,18
X009K19,759,experiment,120,↑,up,↑,0.8862105999141932,True,18
X009K19,760,experiment,12,↓,down,↓,1.2140148002654314,True,18
X009K19,761,experiment,36,↓,down,↓,0.7473629000596702,True,18
X009K19,762,experiment,156,↑,up,↑,0.760821099858731,True,18
X009K19,763,experiment,96,↓,down,↓,0.9032079000025988,True,18
X009K19,764,experiment,84,↑,up,↑,0.7322490001097322,True,18
X009K19,765,experiment,108,←,left,←,0.7924075000919402,True,18
X009K19,766,experiment,156,←,left,←,0.6404355000704527,True,18
X009K19,767,experiment,180,↑,up,↑,0.7178006004542112,True,18
X009K19,768,experiment,72,↑,up,↑,0.6402917001396418,True,18
X009K19,769,experiment,12,←,left,←,0.7954963999800384,True,18
X009K19,770,experiment,96,↓,up,↑,1.2502933996729553,False,18
X009K19,771,experiment,108,↑,down,↓,1.324039800092578,False,18
X009K19,772,experiment,168,↑,up,↑,0.571004799567163,True,18
X009K19,773,experiment,36,↑,up,↑,0.4912631995975971,True,18
X009K19,774,experiment,60,→,left,←,0.7403763998299837,False,18
X009K19,775,experiment,60,→,right,→,0.6616536998189986,True,18
X009K19,776,experiment,132,↓,down,↓,0.6452421001158655,True,18
X009K19,777,experiment,168,↓,down,↓,0.9163964996114373,True,18
X009K19,778,experiment,120,←,up,↑,0.6810123003087938,False,18
X009K19,779,experiment,24,→,down,↓,1.1661168998107314,False,18
X009K19,780,experiment,144,↓,down,↓,0.8362334002740681,True,18
X009K19,781,experiment,144,→,right,→,0.9929085001349449,True,18
X009K19,782,experiment,156,→,no_key,no_letter,-1.0,False,18
X009K19,783,experiment,48,→,left,←,0.9144982998259366,False,18
X009K19,784,experiment,132,↓,down,↓,0.6585270999930799,True,18
X009K19,785,experiment,108,↑,down,↓,0.927044800017029,False,18
X009K19,786,experiment,60,↓,up,↑,1.030338500160724,False,18
X009K19,787,training,36,←,right,→,0.8445001998916268,False,18
X009K19,788,training,36,←,left,←,0.7775405999273062,True,18
X009K19,789,training,24,↓,down,↓,0.5873349998146296,True,18
X009K19,790,experiment,96,↓,down,↓,0.5512744998559356,True,18
X009K19,791,experiment,72,←,right,→,0.7963860002346337,False,18
X009K19,792,experiment,48,↓,down,↓,0.5868202997371554,True,18
X009K19,793,experiment,144,↑,up,↑,0.6059155999682844,True,18
X009K19,794,experiment,96,↓,down,↓,0.5437705996446311,True,18
X009K19,795,experiment,72,→,right,→,0.5568640003912151,True,18
X009K19,796,experiment,180,←,left,←,0.6673658997751772,True,18
X009K19,797,experiment,48,→,right,→,0.5443123998120427,True,18
X009K19,798,experiment,132,←,left,←,0.7372892000712454,True,18
X009K19,799,experiment,168,↑,up,↑,0.46776710031554103,True,18
X009K19,800,experiment,24,←,up,↑,0.720089899841696,False,18
X009K19,801,experiment,120,↓,left,←,0.8442660002037883,False,18
X009K19,802,experiment,84,↓,up,↑,0.7848568996414542,False,18
X009K19,803,experiment,180,←,left,←,0.46957729989662766,True,18
X009K19,804,experiment,36,↓,up,↑,0.634065099991858,False,18
X009K19,805,experiment,168,→,up,↑,0.853776799980551,False,18
X009K19,806,experiment,24,→,right,→,0.5549090998247266,True,18
X009K19,807,experiment,48,→,right,→,0.5056688999757171,True,18
X009K19,808,experiment,84,→,no_key,no_letter,-1.0,False,18
X009K19,809,experiment,96,↑,up,↑,0.5535130999051034,True,18
X009K19,810,experiment,72,←,right,→,0.5979363000951707,False,18
X009K19,811,experiment,12,→,right,→,0.7274888996034861,True,18
X009K19,812,experiment,120,←,left,←,0.6251253997907043,True,18
X009K19,813,experiment,132,↓,down,↓,0.5285931997932494,True,18
X009K19,814,experiment,144,→,left,←,0.6316275000572205,False,18
X009K19,815,experiment,120,↑,right,→,0.768675799947232,False,18
X009K19,816,experiment,36,↑,up,↑,0.6866021999157965,True,18
X009K19,817,experiment,120,→,right,→,0.8252487001009285,True,18
X009K19,818,experiment,12,↑,up,↑,0.6711373999714851,True,18
X009K19,819,experiment,132,↑,right,→,0.7762743001803756,False,18
X009K19,820,experiment,72,↑,right,→,0.6956683001480997,False,18
X009K19,821,experiment,144,↑,up,↑,1.6033871001563966,True,18
X009K19,822,experiment,60,→,right,→,0.6876042000949383,True,18
X009K19,823,experiment,36,↑,up,↑,0.8193983999080956,True,18
X009K19,824,experiment,156,↑,up,↑,0.5212045996449888,True,18
X009K19,825,experiment,180,←,left,←,0.7848042002879083,True,18
X009K19,826,experiment,12,←,left,←,0.8210820001550019,True,18
X009K19,827,experiment,12,→,left,←,0.488260299898684,False,18
X009K19,828,experiment,108,↑,up,↑,0.6132081998512149,True,18
X009K19,829,experiment,84,→,right,→,0.7400940996594727,True,18
X009K19,830,experiment,108,←,left,←,0.6225489997304976,True,18
X009K19,831,experiment,24,↑,up,↑,0.5877303997986019,True,18
X009K19,832,experiment,96,↓,up,↑,0.6892603999003768,False,18
X009K19,833,experiment,108,↑,up,↑,0.6783072999678552,True,18
X009K19,834,experiment,60,→,up,↑,1.1293168999254704,False,18
X009K19,835,experiment,168,↑,right,→,0.7058480000123382,False,18
X009K19,836,experiment,48,←,left,←,1.0380335999652743,True,18
X009K19,837,experiment,156,←,left,←,0.5760411997325718,True,18
X009K19,838,experiment,156,↓,right,→,0.7663019997999072,False,18
X009K19,839,experiment,36,↓,up,↑,0.6873121000826359,False,18
X009K19,840,experiment,156,→,right,→,0.536892400123179,True,18
X009K19,841,experiment,60,↑,right,→,0.6570431999862194,False,18
X009K19,842,experiment,60,↑,right,→,1.1621818002313375,False,18
X009K19,843,experiment,144,↓,up,↑,0.33382089994847775,False,18
X009K19,844,experiment,108,→,left,←,0.9145936002023518,False,18
X009K19,845,experiment,24,↑,up,↑,0.5158277996815741,True,18
X009K19,846,experiment,132,→,right,→,0.6319468002766371,True,18
X009K19,847,experiment,84,↓,up,↑,0.7590352999977767,False,18
X009K19,848,experiment,180,→,right,→,0.5080897998996079,True,18
X009K19,849,experiment,168,←,right,→,0.6119082998484373,False,18
