PART_ID,Trial_no,Trial_type,PDI,Stim_letter,Key_pressed,letter_choose,Rt,Corr,Stimulus Time
X015M27,1,training,10,←,no_key,no_letter,-1.0,False,30
X015M27,2,training,10,↓,down,↓,1.1210264000037569,True,30
X015M27,3,training,10,↓,down,↓,0.6003023000012035,True,30
X015M27,4,training,10,←,left,←,0.617150699996273,True,30
X015M27,5,training,10,←,left,←,0.7347823000018252,True,30
X015M27,6,training,10,↑,up,↑,0.7472067999988212,True,30
X015M27,7,training,10,↑,up,↑,0.7181758000006084,True,30
X015M27,8,training,10,↓,down,↓,0.8931305999940378,True,30
X015M27,9,training,10,↑,up,↑,0.6928025999950478,True,30
X015M27,10,training,10,↓,down,↓,0.7048002000010456,True,30
X015M27,11,training,10,↑,up,↑,0.7208046000014292,True,30
X015M27,12,training,10,↓,no_key,no_letter,-1.0,False,30
X015M27,13,training,10,←,up,↑,1.6218064999993658,False,30
X015M27,14,training,10,←,left,←,0.8832703999942169,True,30
X015M27,15,training,10,↓,down,↓,0.7162109999990207,True,30
X015M27,16,training,10,↑,up,↑,0.6846910000022035,True,30
X015M27,17,training,10,←,left,←,0.7661206999982824,True,30
X015M27,18,training,10,←,left,←,0.7812123999974574,True,30
X015M27,19,training,10,↑,up,↑,0.7380320000011125,True,30
X015M27,20,training,10,←,no_key,no_letter,-1.0,False,30
X015M27,21,training,10,→,right,→,0.5990364000026602,True,18
X015M27,22,training,10,↓,down,↓,0.6189642999961507,True,18
X015M27,23,training,10,↓,down,↓,0.5355594000066048,True,18
X015M27,24,training,10,↑,up,↑,0.6037425000031362,True,18
X015M27,25,training,10,←,left,←,0.5107053000028827,True,18
X015M27,26,training,10,↑,up,↑,0.6899345999991056,True,18
X015M27,27,training,10,↓,down,↓,0.5828913000004832,True,18
X015M27,28,training,10,→,right,→,0.6107527000058326,True,18
X015M27,29,training,10,←,left,←,1.3389632999969763,True,18
X015M27,30,training,10,↓,down,↓,0.8286536000014166,True,18
X015M27,31,training,72,←,left,←,0.6696054999993066,True,15
X015M27,32,training,72,↓,right,→,1.2079322999998112,False,15
X015M27,33,training,144,↑,up,↑,0.6658518999975058,True,15
X015M27,34,experiment,36,↓,down,↓,0.6235449000014341,True,15
X015M27,35,experiment,168,→,up,↑,1.826589199998125,False,15
X015M27,36,experiment,60,↑,down,↓,1.6004765999969095,False,15
X015M27,37,experiment,108,←,right,→,1.0345395999975153,False,15
X015M27,38,experiment,132,↑,left,←,1.2631930999996257,False,15
X015M27,39,experiment,108,←,left,←,0.6153353000045172,True,15
X015M27,40,experiment,96,↓,down,↓,0.5786240000015823,True,15
X015M27,41,experiment,24,→,right,→,0.6649486000023899,True,15
X015M27,42,experiment,120,↑,right,→,1.1717216999968514,False,15
X015M27,43,experiment,36,→,right,→,1.0416868999964208,True,15
X015M27,44,experiment,168,↑,no_key,no_letter,-1.0,False,15
X015M27,45,experiment,24,↑,up,↑,0.5805375999989337,True,15
X015M27,46,experiment,96,↓,down,↓,0.6118532000036794,True,15
X015M27,47,experiment,72,↑,up,↑,0.5676542999935918,True,15
X015M27,48,experiment,108,→,right,→,0.815785999999207,True,15
X015M27,49,experiment,84,↓,down,↓,0.5694759000034537,True,15
X015M27,50,experiment,84,↑,up,↑,0.5134982000017771,True,15
X015M27,51,experiment,48,←,right,→,1.0963818999953219,False,15
X015M27,52,experiment,120,←,down,↓,1.29176980000193,False,15
X015M27,53,experiment,156,→,right,→,0.6594426000010571,True,15
X015M27,54,experiment,84,←,right,→,0.686522199997853,False,15
X015M27,55,experiment,120,↑,up,↑,0.7406737000055728,True,15
X015M27,56,experiment,60,↓,down,↓,0.6885432999988552,True,15
X015M27,57,experiment,180,←,right,→,0.7222365999987232,False,15
X015M27,58,experiment,132,↑,up,↑,0.7314073000015924,True,15
X015M27,59,experiment,72,←,right,→,1.209464499996102,False,15
X015M27,60,experiment,168,↑,up,↑,0.6607116000013775,True,15
X015M27,61,experiment,12,←,left,←,0.7941528000010294,True,15
X015M27,62,experiment,180,→,right,→,0.6735625000001164,True,15
X015M27,63,experiment,84,→,no_key,no_letter,-1.0,False,15
X015M27,64,experiment,12,→,right,→,0.6113991000020178,True,15
X015M27,65,experiment,12,→,right,→,0.5761464000024716,True,15
X015M27,66,experiment,180,←,left,←,0.5623836000013398,True,15
X015M27,67,experiment,108,→,right,→,0.6144717999995919,True,15
X015M27,68,experiment,72,↑,right,→,0.5265389999985928,False,15
X015M27,69,experiment,156,↓,down,↓,0.7474358000035863,True,15
X015M27,70,experiment,120,→,right,→,0.5210073000052944,True,15
X015M27,71,experiment,144,↑,left,←,1.589339000005566,False,15
X015M27,72,experiment,132,↑,up,↑,0.6848285000014585,True,15
X015M27,73,experiment,24,↓,down,↓,0.5803992000001017,True,15
X015M27,74,experiment,156,↓,down,↓,0.7966872000033618,True,15
X015M27,75,experiment,168,→,left,←,0.6159972999957972,False,15
X015M27,76,experiment,72,↑,up,↑,0.4753583999990951,True,15
X015M27,77,experiment,48,↓,down,↓,0.5322397999989334,True,15
X015M27,78,experiment,96,↑,up,↑,0.5433570000022883,True,15
X015M27,79,experiment,156,→,right,→,0.649598000003607,True,15
X015M27,80,experiment,24,←,left,←,0.5529433999981848,True,15
X015M27,81,experiment,48,→,right,→,0.44429150000360096,True,15
X015M27,82,experiment,60,→,right,→,0.5464689000000362,True,15
X015M27,83,experiment,12,→,left,←,0.46825949999765726,False,15
X015M27,84,experiment,144,→,right,→,0.4654666000060388,True,15
X015M27,85,experiment,96,→,right,→,0.8801870999959647,True,15
X015M27,86,experiment,132,→,right,→,0.7293320999960997,True,15
X015M27,87,experiment,36,→,right,→,0.5831999000001815,True,15
X015M27,88,experiment,180,←,left,←,0.6859030999985407,True,15
X015M27,89,experiment,144,↓,right,→,0.696574600005988,False,15
X015M27,90,experiment,144,→,right,→,0.5274710999947274,True,15
X015M27,91,experiment,60,↓,down,↓,0.7563514999928884,True,15
X015M27,92,experiment,36,←,left,←,0.5783118999970611,True,15
X015M27,93,experiment,48,→,right,→,0.4199445999984164,True,15
X015M27,94,training,60,↑,down,↓,0.7304427999988548,False,15
X015M27,95,training,24,←,right,→,0.48987920000217855,False,15
X015M27,96,training,180,→,right,→,0.43158540000149515,True,15
X015M27,97,experiment,168,←,right,→,1.1344911999985925,False,15
X015M27,98,experiment,156,←,left,←,0.6161894000033499,True,15
X015M27,99,experiment,168,↓,down,↓,0.7571853000044939,True,15
X015M27,100,experiment,144,↓,down,↓,0.6807499999995343,True,15
X015M27,101,experiment,180,→,left,←,0.60813230000349,False,15
X015M27,102,experiment,48,↓,down,↓,0.857976499995857,True,15
X015M27,103,experiment,12,←,right,→,0.568768999997701,False,15
X015M27,104,experiment,96,←,left,←,0.6570363999999245,True,15
X015M27,105,experiment,120,↑,up,↑,0.7128528000030201,True,15
X015M27,106,experiment,132,→,right,→,0.5410524999970221,True,15
X015M27,107,experiment,180,↑,up,↑,0.69218009999895,True,15
X015M27,108,experiment,12,↑,down,↓,0.6433400000023539,False,15
X015M27,109,experiment,132,→,left,←,0.5865677999972831,False,15
X015M27,110,experiment,60,↑,up,↑,1.0331474999984493,True,15
X015M27,111,experiment,48,→,left,←,0.7208641999968677,False,15
X015M27,112,experiment,24,←,left,←,0.7543483999979799,True,15
X015M27,113,experiment,180,↓,down,↓,0.5904248000006191,True,15
X015M27,114,experiment,48,←,left,←,0.7645188000024064,True,15
X015M27,115,experiment,156,↑,down,↓,0.9741852000006475,False,15
X015M27,116,experiment,168,↓,up,↑,0.9453442000012728,False,15
X015M27,117,experiment,96,←,left,←,0.7829609999971581,True,15
X015M27,118,experiment,36,↑,up,↑,0.6582979999948293,True,15
X015M27,119,experiment,24,↑,up,↑,0.8861742000008235,True,15
X015M27,120,experiment,108,↓,down,↓,0.8996648000029381,True,15
X015M27,121,experiment,24,→,left,←,0.6794191000008141,False,15
X015M27,122,experiment,132,→,right,→,0.7225498999978299,True,15
X015M27,123,experiment,36,←,left,←,0.5980081000016071,True,15
X015M27,124,experiment,36,←,left,←,0.5130051000014646,True,15
X015M27,125,experiment,144,↓,down,↓,0.7767065000007278,True,15
X015M27,126,experiment,84,→,right,→,0.9858561000000918,True,15
X015M27,127,experiment,156,↓,no_key,no_letter,-1.0,False,15
X015M27,128,experiment,60,↓,down,↓,0.6232317999965744,True,15
X015M27,129,experiment,120,→,left,←,0.45487729999877047,False,15
X015M27,130,experiment,108,←,left,←,0.5780243999979575,True,15
X015M27,131,experiment,60,↓,down,↓,0.622822699995595,True,15
X015M27,132,experiment,48,→,right,→,0.8581683000011253,True,15
X015M27,133,experiment,144,←,left,←,0.7221939000010025,True,15
X015M27,134,experiment,72,↓,right,→,0.8468534999992698,False,15
X015M27,135,experiment,168,←,left,←,0.49144389999855775,True,15
X015M27,136,experiment,84,→,left,←,0.4295910000000731,False,15
X015M27,137,experiment,180,↑,down,↓,0.9080412999974214,False,15
X015M27,138,experiment,12,→,right,→,0.5794887999945786,True,15
X015M27,139,experiment,120,↑,left,←,1.759988899997552,False,15
X015M27,140,experiment,72,←,right,→,0.6738588000007439,False,15
X015M27,141,experiment,108,→,right,→,0.7559740999931819,True,15
X015M27,142,experiment,84,↓,down,↓,0.779088800001773,True,15
X015M27,143,experiment,120,↑,up,↑,0.7860790000049747,True,15
X015M27,144,experiment,108,↑,up,↑,0.6764607000004617,True,15
X015M27,145,experiment,96,↓,down,↓,0.7093506000019261,True,15
X015M27,146,experiment,72,↑,up,↑,0.5820492999991984,True,15
X015M27,147,experiment,60,↑,up,↑,0.5960512000019662,True,15
X015M27,148,experiment,72,↓,up,↑,0.6724818000002415,False,15
X015M27,149,experiment,36,→,right,→,0.5420501999979024,True,15
X015M27,150,experiment,96,→,right,→,0.5162105999988853,True,15
X015M27,151,experiment,144,←,up,↑,0.7476175999981933,False,15
X015M27,152,experiment,12,←,right,→,0.48790179999923566,False,15
X015M27,153,experiment,132,↓,down,↓,1.6242908999993233,True,15
X015M27,154,experiment,84,→,up,↑,0.7066008000037982,False,15
X015M27,155,experiment,156,↓,down,↓,0.694715500001621,True,15
X015M27,156,experiment,24,↑,up,↑,0.6872256000060588,True,15
X015M27,157,training,60,→,right,→,1.3414491000003181,True,15
X015M27,158,training,108,←,down,↓,1.023937300000398,False,15
X015M27,159,training,180,←,left,←,0.7183825000029174,True,15
X015M27,160,experiment,24,←,left,←,0.7291552999959094,True,15
X015M27,161,experiment,24,↑,down,↓,0.6230788000029861,False,15
X015M27,162,experiment,60,→,right,→,0.4236194000040996,True,15
X015M27,163,experiment,36,→,right,→,0.9786907999950927,True,15
X015M27,164,experiment,120,↑,up,↑,1.357965699993656,True,15
X015M27,165,experiment,144,↑,up,↑,0.7021989999993821,True,15
X015M27,166,experiment,24,↓,down,↓,0.5881463999976404,True,15
X015M27,167,experiment,156,←,right,→,0.5174126999991131,False,15
X015M27,168,experiment,96,→,right,→,0.46621890000096755,True,15
X015M27,169,experiment,120,→,right,→,0.5366474999973434,True,15
X015M27,170,experiment,12,↓,down,↓,0.6271118000004208,True,15
X015M27,171,experiment,96,↑,down,↓,0.6786212000006344,False,15
X015M27,172,experiment,180,↑,up,↑,0.6564365000012913,True,15
X015M27,173,experiment,132,↓,down,↓,0.6759449000019231,True,15
X015M27,174,experiment,72,↓,down,↓,0.5804738000006182,True,15
X015M27,175,experiment,168,←,left,←,0.6730207000000519,True,15
X015M27,176,experiment,180,←,right,→,0.6847444000013638,False,15
X015M27,177,experiment,12,←,right,→,0.6257091000006767,False,15
X015M27,178,experiment,84,↓,down,↓,0.5431011999971815,True,15
X015M27,179,experiment,72,→,right,→,0.6702328000028501,True,15
X015M27,180,experiment,24,←,right,→,0.5488179999956628,False,15
X015M27,181,experiment,36,←,right,→,0.8622623999981442,False,15
X015M27,182,experiment,60,←,right,→,1.2087728999977116,False,15
X015M27,183,experiment,48,↓,down,↓,0.5997520999953849,True,15
X015M27,184,experiment,48,↓,down,↓,0.6656008999998448,True,15
X015M27,185,experiment,72,→,right,→,0.712137000002258,True,15
X015M27,186,experiment,144,↑,up,↑,0.6969859000018914,True,15
X015M27,187,experiment,36,↓,down,↓,0.6670599999997648,True,15
X015M27,188,experiment,108,→,right,→,0.4921805999983917,True,15
X015M27,189,experiment,180,↓,down,↓,0.5674350999979652,True,15
X015M27,190,experiment,180,↓,down,↓,0.5407035000025644,True,15
X015M27,191,experiment,168,←,right,→,0.5323938000001363,False,15
X015M27,192,experiment,108,←,right,→,0.7330319999964559,False,15
X015M27,193,experiment,12,→,right,→,1.314356199996837,True,15
X015M27,194,experiment,120,←,left,←,0.9125064999971073,True,15
X015M27,195,experiment,48,→,right,→,0.6840451000025496,True,15
X015M27,196,experiment,12,↑,left,←,1.0279595000029076,False,15
X015M27,197,experiment,72,↓,down,↓,0.6321117000043159,True,15
X015M27,198,experiment,156,→,left,←,0.7715249000029871,False,15
X015M27,199,experiment,84,←,right,→,0.6199925000037183,False,15
X015M27,200,experiment,144,↑,up,↑,0.49447409999993397,True,15
X015M27,201,experiment,120,↓,up,↑,0.7808509999958915,False,15
X015M27,202,experiment,96,↓,down,↓,0.6983373999973992,True,15
X015M27,203,experiment,36,↓,down,↓,0.5642443999968236,True,15
X015M27,204,experiment,84,↑,up,↑,0.6106824000016786,True,15
X015M27,205,experiment,132,→,right,→,1.097471899993252,True,15
X015M27,206,experiment,156,↓,down,↓,0.7005914000037592,True,15
X015M27,207,experiment,96,→,right,→,0.50188750000234,True,15
X015M27,208,experiment,60,↑,up,↑,0.5256459000011091,True,15
X015M27,209,experiment,108,↓,down,↓,0.806864799997129,True,15
X015M27,210,experiment,156,↓,up,↑,1.1525933000011719,False,15
X015M27,211,experiment,168,↓,down,↓,0.5825151000026381,True,15
X015M27,212,experiment,132,↑,left,←,1.0816751000020304,False,15
X015M27,213,experiment,48,↑,up,↑,0.6145837000003667,True,15
X015M27,214,experiment,60,↓,down,↓,1.17518790000031,True,15
X015M27,215,experiment,168,↓,down,↓,0.7312127999975928,True,15
X015M27,216,experiment,84,↓,down,↓,0.6272317000039038,True,15
X015M27,217,experiment,144,→,left,←,1.3015118000039365,False,15
X015M27,218,experiment,108,→,right,→,0.7343470000050729,True,15
X015M27,219,experiment,132,→,right,→,0.7427576999980374,True,15
X015M27,220,training,120,←,right,→,1.2111900000018068,False,15
X015M27,221,training,144,→,right,→,0.6220111999937217,True,15
X015M27,222,training,96,↓,down,↓,0.6162794999981998,True,15
X015M27,223,experiment,12,↑,down,↓,1.0882166999945184,False,15
X015M27,224,experiment,168,←,left,←,1.7193667000028654,True,15
X015M27,225,experiment,84,↑,up,↑,1.0929361999951652,True,15
X015M27,226,experiment,84,↑,right,→,0.8227011000053608,False,15
X015M27,227,experiment,108,→,right,→,0.5873165000011795,True,15
X015M27,228,experiment,108,→,right,→,0.4736738999999943,True,15
X015M27,229,experiment,12,←,left,←,1.079215400000976,True,15
X015M27,230,experiment,96,←,right,→,0.9771114000031957,False,15
X015M27,231,experiment,24,→,right,→,1.4929721000007703,True,15
X015M27,232,experiment,48,←,left,←,0.953181200005929,True,15
X015M27,233,experiment,168,↑,up,↑,0.9177233000009437,True,15
X015M27,234,experiment,96,↑,left,←,0.9248936999938451,False,15
X015M27,235,experiment,60,↑,down,↓,0.8593011999982991,False,15
X015M27,236,experiment,60,↑,up,↑,0.6514170000009472,True,15
X015M27,237,experiment,144,←,left,←,0.5709004000018467,True,15
X015M27,238,experiment,180,↑,up,↑,0.5396690000052331,True,15
X015M27,239,experiment,144,↑,up,↑,0.6609200000020792,True,15
X015M27,240,experiment,72,↑,up,↑,0.5995167000000947,True,15
X015M27,241,experiment,156,↓,down,↓,0.8367964999997639,True,15
X015M27,242,experiment,72,↓,up,↑,1.0057579999993322,False,15
X015M27,243,experiment,96,↑,left,←,1.3262157999997726,False,15
X015M27,244,experiment,144,↓,down,↓,1.607979599997634,True,15
X015M27,245,experiment,24,↓,up,↑,0.6019063999992795,False,15
X015M27,246,experiment,84,↑,up,↑,0.5138001000013901,True,15
X015M27,247,experiment,72,↑,up,↑,0.5599058000007062,True,15
X015M27,248,experiment,36,←,left,←,0.6881902000022819,True,15
X015M27,249,experiment,36,↑,up,↑,0.5514846000005491,True,15
X015M27,250,experiment,12,→,right,→,0.9865382999996655,True,15
X015M27,251,experiment,132,↑,up,↑,0.6495665999973426,True,15
X015M27,252,experiment,96,→,down,↓,1.0271815000014612,False,15
X015M27,253,experiment,168,↑,up,↑,0.6229544999951031,True,15
X015M27,254,experiment,156,↑,left,←,1.8867459000030067,False,15
X015M27,255,experiment,48,↑,right,→,1.5855454999982612,False,15
X015M27,256,experiment,12,↑,up,↑,0.6135463000027812,True,15
X015M27,257,experiment,48,↑,up,↑,0.6346411999984412,True,15
X015M27,258,experiment,48,↑,up,↑,0.6765289000031771,True,15
X015M27,259,experiment,36,↓,down,↓,0.725687400001334,True,15
X015M27,260,experiment,36,←,left,←,0.6609022999982699,True,15
X015M27,261,experiment,60,↓,down,↓,0.6576087999928859,True,15
X015M27,262,experiment,132,↑,up,↑,0.6168860000034329,True,15
X015M27,263,experiment,120,→,down,↓,0.8441153999956441,False,15
X015M27,264,experiment,132,←,left,←,0.6749341999966418,True,15
X015M27,265,experiment,120,↓,down,↓,0.7511479000022518,True,15
X015M27,266,experiment,180,→,right,→,0.5534066000036546,True,15
X015M27,267,experiment,168,→,right,→,0.6898192000007839,True,15
X015M27,268,experiment,24,↑,down,↓,0.9071824999991804,False,15
X015M27,269,experiment,60,↓,down,↓,0.4283359000037308,True,15
X015M27,270,experiment,120,→,right,→,0.7348184999937075,True,15
X015M27,271,experiment,144,→,left,←,0.9912034000008134,False,15
X015M27,272,experiment,120,↑,right,→,1.460090799999307,False,15
X015M27,273,experiment,132,↑,up,↑,0.5413587000002735,True,15
X015M27,274,experiment,24,↑,up,↑,0.45020239999576006,True,15
X015M27,275,experiment,84,↓,down,↓,0.5429236999989371,True,15
X015M27,276,experiment,72,↑,up,↑,0.5555110000059358,True,15
X015M27,277,experiment,156,→,right,→,0.4497388999952818,True,15
X015M27,278,experiment,180,↓,down,↓,0.5267498000030173,True,15
X015M27,279,experiment,108,←,right,→,0.7066196000014315,False,15
X015M27,280,experiment,156,↑,no_key,no_letter,-1.0,False,15
X015M27,281,experiment,180,←,left,←,0.8105730999959633,True,15
X015M27,282,experiment,108,→,right,→,0.6169878000000608,True,15
X015M27,283,training,144,↑,right,→,1.5459316999986186,False,15
X015M27,284,training,36,↑,up,↑,1.1522106000047643,True,15
X015M27,285,training,108,↑,up,↑,0.5030937999981688,True,15
X015M27,286,experiment,120,↓,down,↓,0.727879899997788,True,15
X015M27,287,experiment,132,↓,down,↓,0.8148304999995162,True,15
X015M27,288,experiment,96,↑,up,↑,0.6277491000000737,True,15
X015M27,289,experiment,60,↓,down,↓,0.7364015000057407,True,15
X015M27,290,experiment,72,←,down,↓,1.1325284999984433,False,15
X015M27,291,experiment,132,→,right,→,0.8678851000004215,True,15
X015M27,292,experiment,24,↓,down,↓,0.7579330000007758,True,15
X015M27,293,experiment,60,→,right,→,0.4965888000006089,True,15
X015M27,294,experiment,36,↑,up,↑,0.5218559999993886,True,15
X015M27,295,experiment,132,→,right,→,0.46692459999758285,True,15
X015M27,296,experiment,156,→,right,→,0.49312449999706587,True,15
X015M27,297,experiment,108,←,left,←,0.6109808999972302,True,15
X015M27,298,experiment,156,→,right,→,0.46289319999777945,True,15
X015M27,299,experiment,48,↓,down,↓,0.6049438000045484,True,15
X015M27,300,experiment,60,←,right,→,0.6449272000027122,False,15
X015M27,301,experiment,36,↓,right,→,1.309657600002538,False,15
X015M27,302,experiment,108,→,right,→,0.5900416000004043,True,15
X015M27,303,experiment,180,↑,up,↑,0.8655503999980283,True,15
X015M27,304,experiment,96,↑,up,↑,1.2639242000004742,True,15
X015M27,305,experiment,108,←,right,→,1.0877225999938673,False,15
X015M27,306,experiment,120,→,right,→,0.7521227000033832,True,15
X015M27,307,experiment,144,→,right,→,0.6768765000015264,True,15
X015M27,308,experiment,180,↑,up,↑,0.6266652000049362,True,15
X015M27,309,experiment,12,↓,down,↓,0.7145033999986481,True,15
X015M27,310,experiment,72,←,left,←,0.4712749000027543,True,15
X015M27,311,experiment,48,↑,right,→,1.1395837000018219,False,15
X015M27,312,experiment,12,←,right,→,0.6492158000037307,False,15
X015M27,313,experiment,36,↑,up,↑,1.4761692999963998,True,15
X015M27,314,experiment,156,↑,up,↑,0.4394012999982806,True,15
X015M27,315,experiment,120,←,right,→,0.6312134000036167,False,15
X015M27,316,experiment,180,←,left,←,0.47805070000322303,True,15
X015M27,317,experiment,24,↓,right,→,0.8681138000029023,False,15
X015M27,318,experiment,168,↓,down,↓,0.5137208000014652,True,15
X015M27,319,experiment,156,↓,down,↓,0.4176170999999158,True,15
X015M27,320,experiment,12,←,right,→,0.6653642000019317,False,15
X015M27,321,experiment,132,←,right,→,0.49519729999883566,False,15
X015M27,322,experiment,72,←,right,→,0.495331799997075,False,15
X015M27,323,experiment,144,←,right,→,0.6187920999946073,False,15
X015M27,324,experiment,36,↑,up,↑,0.5276508999959333,True,15
X015M27,325,experiment,12,↑,right,→,1.398636500001885,False,15
X015M27,326,experiment,108,↓,down,↓,1.3893576999980723,True,15
X015M27,327,experiment,144,↓,right,→,0.907792400001199,False,15
X015M27,328,experiment,180,↓,down,↓,0.8436528000020189,True,15
X015M27,329,experiment,60,↓,left,←,1.2535871000000043,False,15
X015M27,330,experiment,96,→,right,→,0.45748870000534225,True,15
X015M27,331,experiment,168,→,right,→,0.3837117000002763,True,15
X015M27,332,experiment,48,↓,down,↓,0.558063199998287,True,15
X015M27,333,experiment,24,→,right,→,0.7254816999993636,True,15
X015M27,334,experiment,24,↓,down,↓,0.5204835000040475,True,15
X015M27,335,experiment,84,↓,down,↓,0.3672442000024603,True,15
X015M27,336,experiment,84,←,left,←,0.46760590000485536,True,15
X015M27,337,experiment,168,←,right,→,0.6492575000011129,False,15
X015M27,338,experiment,96,→,right,→,0.4797569999936968,True,15
X015M27,339,experiment,144,↓,down,↓,0.528990500002692,True,15
X015M27,340,experiment,48,←,right,→,1.4733404999933555,False,15
X015M27,341,experiment,120,↑,down,↓,1.252184600001783,False,15
X015M27,342,experiment,168,↓,down,↓,0.5558574999959092,True,15
X015M27,343,experiment,84,→,right,→,0.5887836999972933,True,15
X015M27,344,experiment,84,↑,down,↓,0.6851643999980297,False,15
X015M27,345,experiment,72,←,left,←,0.48148020000371616,True,15
X015M27,346,training,84,→,right,→,0.5723768999960157,True,15
X015M27,347,training,72,↑,down,↓,1.09776150000107,False,15
X015M27,348,training,36,←,left,←,0.5064729000005173,True,15
X015M27,349,experiment,108,←,right,→,0.8180610999988858,False,15
X015M27,350,experiment,84,←,left,←,0.44058500000392087,True,15
X015M27,351,experiment,36,↓,down,↓,0.48340730000199983,True,15
X015M27,352,experiment,36,→,right,→,0.4901698999965447,True,15
X015M27,353,experiment,168,←,left,←,0.47985029999836115,True,15
X015M27,354,experiment,36,→,left,←,0.5387922000008984,False,15
X015M27,355,experiment,132,↑,right,→,1.4563374999997905,False,15
X015M27,356,experiment,72,→,right,→,0.5204014999981155,True,15
X015M27,357,experiment,96,↑,down,↓,0.7104997999995248,False,15
X015M27,358,experiment,120,←,left,←,0.6833079999996698,True,15
X015M27,359,experiment,24,↑,up,↑,0.6534502999929828,True,15
X015M27,360,experiment,108,→,right,→,0.5968271999954595,True,15
X015M27,361,experiment,24,↓,down,↓,0.5050290999934077,True,15
X015M27,362,experiment,144,←,left,←,0.5737025999987964,True,15
X015M27,363,experiment,72,↓,down,↓,0.6493786999999429,True,15
X015M27,364,experiment,24,→,right,→,1.165611499993247,True,15
X015M27,365,experiment,180,↓,down,↓,0.5713041999988491,True,15
X015M27,366,experiment,156,↓,down,↓,0.57304799999838,True,15
X015M27,367,experiment,168,←,left,←,0.46417940000537783,True,15
X015M27,368,experiment,60,↑,down,↓,0.6515823000008822,False,15
X015M27,369,experiment,120,↑,up,↑,0.4269659999990836,True,15
X015M27,370,experiment,132,↓,down,↓,0.6712604999993346,True,15
X015M27,371,experiment,84,→,right,→,0.4625495000000228,True,15
X015M27,372,experiment,48,↑,up,↑,0.3672930999964592,True,15
X015M27,373,experiment,48,↓,down,↓,0.5209701000057976,True,15
X015M27,374,experiment,12,↓,down,↓,0.46773489999759477,True,15
X015M27,375,experiment,156,←,left,←,1.2069302999952924,True,15
X015M27,376,experiment,12,→,right,→,0.4691194999977597,True,15
X015M27,377,experiment,180,←,left,←,0.7164983000038774,True,15
X015M27,378,experiment,144,↑,up,↑,0.42968649999966146,True,15
X015M27,379,experiment,156,→,no_key,no_letter,-1.0,False,15
X015M27,380,experiment,72,←,left,←,0.8962507999967784,True,15
X015M27,381,experiment,108,↑,up,↑,1.4780541000000085,True,15
X015M27,382,experiment,96,←,left,←,1.1643992999961483,True,15
X015M27,383,experiment,24,↓,down,↓,0.5005706999945687,True,15
X015M27,384,experiment,12,→,right,→,0.48041669999656733,True,15
X015M27,385,experiment,36,←,left,←,0.9635182000056375,True,15
X015M27,386,experiment,96,←,right,→,0.8195489999998244,False,15
X015M27,387,experiment,132,→,right,→,1.0050263999946765,True,15
X015M27,388,experiment,168,→,right,→,0.5869767999975011,True,15
X015M27,389,experiment,84,→,right,→,0.7853729999987991,True,15
X015M27,390,experiment,180,↓,down,↓,0.7122824000034598,True,15
X015M27,391,experiment,48,↓,right,→,1.3166990999961854,False,15
X015M27,392,experiment,156,↑,up,↑,0.4915897999962908,True,15
X015M27,393,experiment,132,←,right,→,0.6952191999953357,False,15
X015M27,394,experiment,60,↑,up,↑,0.4291140000059386,True,15
X015M27,395,experiment,144,↑,up,↑,0.4610580000007758,True,15
X015M27,396,experiment,84,↓,up,↑,1.1108769000056782,False,15
X015M27,397,experiment,12,↓,down,↓,0.5319070000041393,True,15
X015M27,398,experiment,60,←,left,←,0.9831233000004431,True,15
X015M27,399,experiment,48,←,left,←,0.4915783000033116,True,15
X015M27,400,experiment,60,→,left,←,0.8170235999932629,False,15
X015M27,401,experiment,120,↑,up,↑,0.61639369999466,True,15
X015M27,402,experiment,96,↓,up,↑,0.837530600001628,False,15
X015M27,403,experiment,72,→,right,→,0.486152099998435,True,15
X015M27,404,experiment,120,↓,down,↓,0.6206158999993932,True,15
X015M27,405,experiment,144,↑,up,↑,0.5707056000028388,True,15
X015M27,406,experiment,180,↓,down,↓,0.5376256999952602,True,15
X015M27,407,experiment,168,↓,down,↓,0.5090292999957455,True,15
X015M27,408,experiment,108,↑,up,↑,0.6399836000055075,True,15
X015M27,409,training,120,←,left,←,0.6033290000050329,True,15
X015M27,410,training,96,←,left,←,0.4571968000018387,True,15
X015M27,411,training,36,↑,down,↓,1.0706560999969952,False,15
X015M27,412,experiment,108,↓,down,↓,0.8886765999995987,True,15
X015M27,413,experiment,108,←,left,←,0.8893743000007817,True,15
X015M27,414,experiment,132,→,right,→,0.47594569999637315,True,15
X015M27,415,experiment,36,→,right,→,0.47514719999890076,True,15
X015M27,416,experiment,120,←,left,←,0.42271449999680044,True,15
X015M27,417,experiment,12,←,left,←,0.6942851000057999,True,15
X015M27,418,experiment,132,→,left,←,1.2208966999969562,False,15
X015M27,419,experiment,144,↓,down,↓,0.6559000999986893,True,15
X015M27,420,experiment,24,→,right,→,0.4664063999953214,True,15
X015M27,421,experiment,180,↓,down,↓,0.5102296999975806,True,15
X015M27,422,experiment,132,←,left,←,0.5048410000017611,True,15
X015M27,423,experiment,72,→,left,←,0.7751524000050267,False,15
X015M27,424,experiment,180,↓,down,↓,0.5804419999985839,True,15
X015M27,425,experiment,84,←,left,←,0.6580135999975028,True,15
X015M27,426,experiment,120,↑,up,↑,1.134071499996935,True,15
X015M27,427,experiment,12,←,left,←,0.6032542000029935,True,15
X015M27,428,experiment,72,↓,down,↓,0.6870344000053592,True,15
X015M27,429,experiment,60,↑,up,↑,1.488184599998931,True,15
X015M27,430,experiment,96,←,down,↓,1.3231393000023672,False,15
X015M27,431,experiment,96,→,right,→,0.6514586999983294,True,15
X015M27,432,experiment,144,↑,up,↑,0.36706930000218563,True,15
X015M27,433,experiment,48,←,right,→,0.6369445000018459,False,15
X015M27,434,experiment,132,→,right,→,0.9658369000026141,True,15
X015M27,435,experiment,24,↓,right,→,1.5026202000008198,False,15
X015M27,436,experiment,12,↑,up,↑,0.452020700002322,True,15
X015M27,437,experiment,108,←,left,←,0.5224777000039467,True,15
X015M27,438,experiment,72,→,right,→,0.4484331999992719,True,15
X015M27,439,experiment,60,↓,down,↓,1.046649800002342,True,15
X015M27,440,experiment,12,→,right,→,0.4996794000035152,True,15
X015M27,441,experiment,36,→,right,→,0.35043510000105016,True,15
X015M27,442,experiment,168,←,left,←,1.5812264999985928,True,15
X015M27,443,experiment,156,←,left,←,0.8393330999970203,True,15
X015M27,444,experiment,156,→,right,→,0.6758793999979389,True,15
X015M27,445,experiment,84,←,left,←,0.7039975000006962,True,15
X015M27,446,experiment,180,↓,down,↓,0.6077167000039481,True,15
X015M27,447,experiment,24,→,right,→,0.6259189999982482,True,15
X015M27,448,experiment,144,←,left,←,0.582294699997874,True,15
X015M27,449,experiment,36,↑,up,↑,0.7487805999990087,True,15
X015M27,450,experiment,168,→,right,→,0.4832800000003772,True,15
X015M27,451,experiment,156,↑,up,↑,0.42217620000155875,True,15
X015M27,452,experiment,48,←,right,→,0.7690205999970203,False,15
X015M27,453,experiment,120,→,right,→,0.4599683999986155,True,15
X015M27,454,experiment,108,←,left,←,0.43422690000443254,True,15
X015M27,455,experiment,96,→,right,→,0.9944457999954466,True,15
X015M27,456,experiment,180,↓,down,↓,0.6383180999982869,True,15
X015M27,457,experiment,48,↓,down,↓,0.687069599996903,True,15
X015M27,458,experiment,36,↑,up,↑,0.4490541999984998,True,15
X015M27,459,experiment,48,↑,down,↓,0.6645222999941325,False,15
X015M27,460,experiment,60,→,right,→,0.5442016000015428,True,15
X015M27,461,experiment,168,↑,up,↑,0.7828033999976469,True,15
X015M27,462,experiment,24,→,right,→,0.554074200001196,True,15
X015M27,463,experiment,168,↓,down,↓,1.0390680999989854,True,15
X015M27,464,experiment,120,→,right,→,0.45505189999676077,True,15
X015M27,465,experiment,96,↑,up,↑,0.6043733999977121,True,15
X015M27,466,experiment,156,←,left,←,0.6050414999990608,True,15
X015M27,467,experiment,144,←,right,→,0.33417740000004414,False,15
X015M27,468,experiment,84,←,left,←,0.4573177999991458,True,15
X015M27,469,experiment,60,↓,down,↓,0.9403731000056723,True,15
X015M27,470,experiment,84,→,right,→,0.6044279000052484,True,15
X015M27,471,experiment,72,↓,down,↓,0.4823764000029769,True,15
X015M27,472,training,12,↑,up,↑,0.6460742999988724,True,15
X015M27,473,training,12,↓,down,↓,1.3410834999958752,True,15
X015M27,474,training,168,→,left,←,0.5843558000051416,False,15
X015M27,475,experiment,12,←,left,←,0.6536356000069645,True,15
X015M27,476,experiment,168,↓,down,↓,0.33382520000304794,True,15
X015M27,477,experiment,168,→,right,→,0.8638250000003609,True,15
X015M27,478,experiment,60,←,left,←,1.1171386999994866,True,15
X015M27,479,experiment,120,↓,left,←,1.1184773999993922,False,15
X015M27,480,experiment,48,↓,down,↓,0.45906689999537775,True,15
X015M27,481,experiment,12,↓,right,→,1.2987605000016629,False,15
X015M27,482,experiment,96,←,right,→,1.6536138999945251,False,15
X015M27,483,experiment,72,←,left,←,0.4363216000056127,True,15
X015M27,484,experiment,24,↑,up,↑,0.7485201000017696,True,15
X015M27,485,experiment,36,→,right,→,0.42690569999831496,True,15
X015M27,486,experiment,120,↑,up,↑,0.4469055000008666,True,15
X015M27,487,experiment,36,←,left,←,0.9725571000017226,True,15
X015M27,488,experiment,180,↓,right,→,1.6956007999979192,False,15
X015M27,489,experiment,60,←,right,→,1.4732005000041681,False,15
X015M27,490,experiment,108,→,right,→,1.0445538999993005,True,15
X015M27,491,experiment,24,→,right,→,0.3838365000046906,True,15
X015M27,492,experiment,72,←,left,←,0.6938799999988987,True,15
X015M27,493,experiment,36,→,right,→,1.028896600000735,True,15
X015M27,494,experiment,96,←,left,←,0.6662218999990728,True,15
X015M27,495,experiment,48,→,right,→,1.4175190000023576,True,15
X015M27,496,experiment,24,↑,up,↑,0.44735389999550534,True,15
X015M27,497,experiment,84,→,right,→,0.43527280000125756,True,15
X015M27,498,experiment,108,↓,down,↓,0.6344826000058674,True,15
X015M27,499,experiment,72,↑,up,↑,0.7033490000030724,True,15
X015M27,500,experiment,156,↓,down,↓,0.7672922999990988,True,15
X015M27,501,experiment,144,↑,down,↓,1.107851100001426,False,15
X015M27,502,experiment,84,→,right,→,0.6200761000000057,True,15
X015M27,503,experiment,84,↓,down,↓,0.4894635000018752,True,15
X015M27,504,experiment,132,←,left,←,0.46072930000082124,True,15
X015M27,505,experiment,132,↓,down,↓,0.5574352000039653,True,15
X015M27,506,experiment,156,↑,down,↓,1.1328106000000844,False,15
X015M27,507,experiment,144,←,left,←,0.4671239000017522,True,15
X015M27,508,experiment,180,↑,up,↑,0.438664900000731,True,15
X015M27,509,experiment,132,↓,down,↓,0.7447638000012375,True,15
X015M27,510,experiment,60,→,right,→,0.613940499999444,True,15
X015M27,511,experiment,12,↑,down,↓,1.5928513999970164,False,15
X015M27,512,experiment,180,←,right,→,0.9852393999972264,False,15
X015M27,513,experiment,12,←,right,→,1.2365744000053382,False,15
X015M27,514,experiment,48,↓,right,→,1.4978932999947574,False,15
X015M27,515,experiment,132,←,left,←,0.4775895999991917,True,15
X015M27,516,experiment,144,←,left,←,0.4347683000014513,True,15
X015M27,517,experiment,96,←,left,←,0.3510195999988355,True,15
X015M27,518,experiment,60,↓,right,→,1.3225317999967956,False,15
X015M27,519,experiment,84,→,right,→,1.0919288000004599,True,15
X015M27,520,experiment,108,←,left,←,0.44415730000037,True,15
X015M27,521,experiment,156,↑,up,↑,1.063322900001367,True,15
X015M27,522,experiment,180,↑,down,↓,0.8798432999974466,False,15
X015M27,523,experiment,168,↑,up,↑,0.43314470000041183,True,15
X015M27,524,experiment,168,↑,up,↑,0.3837184000003617,True,15
X015M27,525,experiment,120,↓,down,↓,0.5457934999940335,True,15
X015M27,526,experiment,48,↑,up,↑,0.36726400000043213,True,15
X015M27,527,experiment,144,↑,right,→,1.71813779999502,False,15
X015M27,528,experiment,96,→,right,→,0.44986319999588886,True,15
X015M27,529,experiment,108,↓,down,↓,0.5073186000008718,True,15
X015M27,530,experiment,72,←,right,→,0.6834046000003582,False,15
X015M27,531,experiment,24,↓,down,↓,0.44451649999973597,True,15
X015M27,532,experiment,120,↓,right,→,1.7369239999970887,False,15
X015M27,533,experiment,156,→,right,→,0.7129481000010855,True,15
X015M27,534,experiment,36,←,left,←,0.5309206000019913,True,15
X015M27,535,training,108,→,right,→,0.7874047000004794,True,15
X015M27,536,training,120,←,right,→,0.7535761000035563,False,15
X015M27,537,training,36,→,right,→,0.46290740000404185,True,15
X015M27,538,experiment,120,↑,right,→,1.5422376999995322,False,15
X015M27,539,experiment,120,↓,down,↓,0.652962000000116,True,15
X015M27,540,experiment,144,↑,up,↑,0.5104732000036165,True,15
X015M27,541,experiment,156,←,right,→,1.3653092000022298,False,15
X015M27,542,experiment,48,→,right,→,0.48605650000536116,True,15
X015M27,543,experiment,180,↑,up,↑,1.3484401999958209,True,15
X015M27,544,experiment,24,←,left,←,0.5745252999986405,True,15
X015M27,545,experiment,132,→,right,→,0.6644033999982639,True,15
X015M27,546,experiment,180,←,left,←,0.4202502000043751,True,15
X015M27,547,experiment,156,→,right,→,0.6682686999993166,True,15
X015M27,548,experiment,168,→,right,→,0.6111099000045215,True,15
X015M27,549,experiment,108,←,left,←,0.7894611000010627,True,15
X015M27,550,experiment,168,→,right,→,0.715897699999914,True,15
X015M27,551,experiment,132,←,left,←,1.1213684999966063,True,15
X015M27,552,experiment,72,↓,down,↓,0.5190886999989743,True,15
X015M27,553,experiment,12,←,right,→,0.5784718000068096,False,15
X015M27,554,experiment,72,←,left,←,0.5073620000039227,True,15
X015M27,555,experiment,72,↓,right,→,1.3621185999945737,False,15
X015M27,556,experiment,12,←,left,←,0.5484714999984135,True,15
X015M27,557,experiment,36,←,left,←,0.4490914000052726,True,15
X015M27,558,experiment,144,↑,up,↑,0.6991411000053631,True,15
X015M27,559,experiment,132,←,left,←,0.9774935000023106,True,15
X015M27,560,experiment,36,←,left,←,0.38378169999487,True,15
X015M27,561,experiment,156,↓,down,↓,0.7286725999947521,True,15
X015M27,562,experiment,24,↓,down,↓,0.5887654999969527,True,15
X015M27,563,experiment,168,↑,up,↑,1.2217444000052637,True,15
X015M27,564,experiment,96,↑,up,↑,1.0540961999940919,True,15
X015M27,565,experiment,168,→,right,→,0.46988779999810504,True,15
X015M27,566,experiment,108,↑,up,↑,0.6602891000002273,True,15
X015M27,567,experiment,180,←,left,←,0.5059809000013047,True,15
X015M27,568,experiment,84,↑,up,↑,0.38377529999706894,True,15
X015M27,569,experiment,96,↑,up,↑,0.706965899997158,True,15
X015M27,570,experiment,144,↑,up,↑,0.6326947000052314,True,15
X015M27,571,experiment,96,→,right,→,0.4636185999988811,True,15
X015M27,572,experiment,144,↑,up,↑,0.3672392999942531,True,15
X015M27,573,experiment,60,↓,down,↓,1.1016806999978144,True,15
X015M27,574,experiment,60,→,right,→,0.43944570000167005,True,15
X015M27,575,experiment,108,→,right,→,0.6055802999981097,True,15
X015M27,576,experiment,36,→,right,→,0.4592174999997951,True,15
X015M27,577,experiment,84,→,right,→,0.7111450000011246,True,15
X015M27,578,experiment,12,↑,up,↑,1.8828410999994958,True,15
X015M27,579,experiment,48,↓,down,↓,0.7474767000021529,True,15
X015M27,580,experiment,156,→,right,→,0.5666607999955886,True,15
X015M27,581,experiment,48,↑,up,↑,1.2589166999969166,True,15
X015M27,582,experiment,180,→,left,←,0.8132365999990725,False,15
X015M27,583,experiment,84,→,right,→,0.4536103999998886,True,15
X015M27,584,experiment,132,→,right,→,0.6539897999973618,True,15
X015M27,585,experiment,120,↑,up,↑,0.9614233999964199,True,15
X015M27,586,experiment,120,↑,down,↓,0.6662555000002612,False,15
X015M27,587,experiment,24,←,left,←,0.9275681999934022,True,15
X015M27,588,experiment,36,↓,down,↓,0.6550185999949463,True,15
X015M27,589,experiment,60,←,left,←,0.8021793000007165,True,15
X015M27,590,experiment,24,←,left,←,1.1489829999991343,True,15
X015M27,591,experiment,96,→,right,→,0.6050033999999869,True,15
X015M27,592,experiment,84,↓,down,↓,1.560862400001497,True,15
X015M27,593,experiment,108,↑,right,→,1.4731096000032267,False,15
X015M27,594,experiment,60,←,left,←,0.5454562000013539,True,15
X015M27,595,experiment,12,↑,down,↓,1.1146125000013853,False,15
X015M27,596,experiment,72,↓,down,↓,0.74471210000047,True,15
X015M27,597,experiment,48,↓,down,↓,0.9684782999975141,True,15
X015M27,598,training,96,←,left,←,0.6625205000018468,True,15
X015M27,599,training,72,→,right,→,0.6474710999973468,True,15
X015M27,600,training,36,↑,up,↑,0.4448017999966396,True,15
X015M27,601,experiment,156,←,left,←,0.44042269999772543,True,15
X015M27,602,experiment,120,↑,up,↑,0.9350073000023258,True,15
X015M27,603,experiment,24,↓,up,↑,0.3674253999997745,False,15
X015M27,604,experiment,60,←,left,←,0.4195694000009098,True,15
X015M27,605,experiment,96,↓,down,↓,0.3503318000002764,True,15
X015M27,606,experiment,144,↑,up,↑,0.6013013999981922,True,15
X015M27,607,experiment,168,↑,down,↓,1.0044590000034077,False,15
X015M27,608,experiment,36,→,right,→,0.46785649999947054,True,15
X015M27,609,experiment,24,←,left,←,0.4762059999993653,True,15
X015M27,610,experiment,120,←,right,→,0.629550499994366,False,15
X015M27,611,experiment,12,↑,up,↑,0.49851610000041546,True,15
X015M27,612,experiment,168,←,left,←,0.6014394000012544,True,15
X015M27,613,experiment,48,←,right,→,0.6768996999962837,False,15
X015M27,614,experiment,84,←,right,→,0.6494432999970741,False,15
X015M27,615,experiment,36,←,right,→,0.6313452000031248,False,15
X015M27,616,experiment,156,↓,down,↓,0.5423749999972642,True,15
X015M27,617,experiment,60,←,right,→,0.6175648999997065,False,15
X015M27,618,experiment,108,→,right,→,0.38398120000056224,True,15
X015M27,619,experiment,96,→,right,→,0.35056530000292696,True,15
X015M27,620,experiment,120,↑,up,↑,0.9694256000002497,True,15
X015M27,621,experiment,180,↓,right,→,0.9988594000024023,False,15
X015M27,622,experiment,60,↓,down,↓,0.5343061000021407,True,15
X015M27,623,experiment,156,→,right,→,0.4340784000014537,True,15
X015M27,624,experiment,12,←,left,←,1.6530176999949617,True,15
X015M27,625,experiment,84,↓,down,↓,0.512262299998838,True,15
X015M27,626,experiment,84,←,left,←,0.4410702000022866,True,15
X015M27,627,experiment,72,↓,down,↓,0.4413053999960539,True,15
X015M27,628,experiment,156,↓,down,↓,1.0169003999981214,True,15
X015M27,629,experiment,132,→,left,←,0.8959526000035112,False,15
X015M27,630,experiment,12,←,right,→,0.990833300005761,False,15
X015M27,631,experiment,144,↑,up,↑,0.5523354999968433,True,15
X015M27,632,experiment,96,↑,up,↑,1.2887157999939518,True,15
X015M27,633,experiment,108,↓,down,↓,1.048871599996346,True,15
X015M27,634,experiment,132,←,left,←,0.5332315000050585,True,15
X015M27,635,experiment,36,→,right,→,0.862139599994407,True,15
X015M27,636,experiment,60,↓,down,↓,0.5851016999949934,True,15
X015M27,637,experiment,72,←,right,→,1.5360909000009997,False,15
X015M27,638,experiment,180,↑,up,↑,0.6548426000008476,True,15
X015M27,639,experiment,144,↑,up,↑,1.5546231999978772,True,15
X015M27,640,experiment,168,↓,down,↓,0.5341141000026255,True,15
X015M27,641,experiment,96,↓,down,↓,0.746212199999718,True,15
X015M27,642,experiment,84,←,left,←,0.6464961000019684,True,15
X015M27,643,experiment,24,↓,down,↓,1.5861604000019724,True,15
X015M27,644,experiment,12,←,right,→,0.8261085999984061,False,15
X015M27,645,experiment,108,←,left,←,0.6257556000055047,True,15
X015M27,646,experiment,180,↑,up,↑,0.5766034999978729,True,15
X015M27,647,experiment,48,←,left,←,0.4799812999990536,True,15
X015M27,648,experiment,168,↓,down,↓,0.5127123999991454,True,15
X015M27,649,experiment,132,→,right,→,0.44202019999647746,True,15
X015M27,650,experiment,48,→,left,←,0.7403365000063786,False,15
X015M27,651,experiment,72,↓,down,↓,0.8091168999962974,True,15
X015M27,652,experiment,24,↓,right,→,0.8202896000002511,False,15
X015M27,653,experiment,108,↑,up,↑,0.48038960000121733,True,15
X015M27,654,experiment,144,↓,down,↓,0.7554992000004859,True,15
X015M27,655,experiment,120,→,right,→,0.48194759999751113,True,15
X015M27,656,experiment,72,→,right,→,0.509658800001489,True,15
X015M27,657,experiment,180,↓,down,↓,0.49359249999542953,True,15
X015M27,658,experiment,48,↑,down,↓,0.8907690999985789,False,15
X015M27,659,experiment,132,↑,up,↑,0.7514463000043179,True,15
X015M27,660,experiment,36,←,left,←,0.4421839999995427,True,15
X015M27,661,training,132,←,right,→,0.672855000004347,False,15
X015M27,662,training,12,↓,down,↓,0.46690749999834225,True,15
X015M27,663,training,180,↓,down,↓,0.3673622999995132,True,15
X015M27,664,experiment,48,↓,down,↓,0.7851406000045245,True,15
X015M27,665,experiment,36,↓,down,↓,0.3675388000046951,True,15
X015M27,666,experiment,12,→,right,→,0.6664934000000358,True,15
X015M27,667,experiment,108,↓,down,↓,0.6057444999969448,True,15
X015M27,668,experiment,144,←,left,←,0.6156068999989657,True,15
X015M27,669,experiment,180,↓,down,↓,0.42186380000202917,True,15
X015M27,670,experiment,108,←,left,←,0.7715163000029861,True,15
X015M27,671,experiment,120,←,left,←,0.7216246999960276,True,15
X015M27,672,experiment,60,↓,down,↓,0.6780198999986169,True,15
X015M27,673,experiment,12,→,right,→,0.6042320999986259,True,15
X015M27,674,experiment,120,↑,up,↑,0.5377933999989182,True,15
X015M27,675,experiment,48,↓,down,↓,0.4965442000029725,True,15
X015M27,676,experiment,84,↓,no_key,no_letter,-1.0,False,15
X015M27,677,experiment,24,→,left,←,0.5434358999991673,False,15
X015M27,678,experiment,132,→,down,↓,1.0674541999978828,False,15
X015M27,679,experiment,180,↑,up,↑,0.4957933000041521,True,15
X015M27,680,experiment,144,→,right,→,0.42171260000031907,True,15
X015M27,681,experiment,180,↓,down,↓,0.49103480000485433,True,15
X015M27,682,experiment,120,↓,down,↓,0.9743737000026158,True,15
X015M27,683,experiment,60,↑,up,↑,0.5212403000041377,True,15
X015M27,684,experiment,132,↑,up,↑,1.036192799998389,True,15
X015M27,685,experiment,60,→,right,→,0.6946352999948431,True,15
X015M27,686,experiment,12,↓,down,↓,0.7164530999943963,True,15
X015M27,687,experiment,168,←,left,←,0.623169999998936,True,15
X015M27,688,experiment,84,→,right,→,0.6570198999979766,True,15
X015M27,689,experiment,24,↑,up,↑,0.45901410000078613,True,15
X015M27,690,experiment,156,↑,up,↑,0.6501444000023184,True,15
X015M27,691,experiment,108,←,left,←,0.6466897999998764,True,15
X015M27,692,experiment,96,↓,down,↓,0.9067671000011615,True,15
X015M27,693,experiment,168,↓,down,↓,0.7678060000034748,True,15
X015M27,694,experiment,84,↑,up,↑,0.5323844000013196,True,15
X015M27,695,experiment,60,←,left,←,0.4279734000010649,True,15
X015M27,696,experiment,120,←,left,←,0.5780231999960961,True,15
X015M27,697,experiment,168,←,left,←,0.511922500001674,True,15
X015M27,698,experiment,96,↑,up,↑,0.5159303000036743,True,15
X015M27,699,experiment,156,→,right,→,0.4331138999987161,True,15
X015M27,700,experiment,48,→,right,→,0.36728250000305707,True,15
X015M27,701,experiment,156,→,right,→,1.3008063000015682,True,15
X015M27,702,experiment,36,←,right,→,1.0953842000017175,False,15
X015M27,703,experiment,96,←,left,←,0.44740250000177184,True,15
X015M27,704,experiment,108,↑,up,↑,1.4699008999959915,True,15
X015M27,705,experiment,72,↑,right,→,0.7841169000021182,False,15
X015M27,706,experiment,132,↓,down,↓,0.5682949000038207,True,15
X015M27,707,experiment,144,←,left,←,0.4349045999988448,True,15
X015M27,708,experiment,48,→,right,→,0.452782100001059,True,15
X015M27,709,experiment,72,→,right,→,0.7386501000000862,True,15
X015M27,710,experiment,36,→,right,→,0.754033499993966,True,15
X015M27,711,experiment,132,→,right,→,0.3673278999995091,True,15
X015M27,712,experiment,168,→,right,→,0.6366250999999465,True,15
X015M27,713,experiment,72,→,right,→,1.6729778000008082,True,15
X015M27,714,experiment,144,→,right,→,0.36732040000060806,True,15
X015M27,715,experiment,84,←,right,→,1.1437889000008,False,15
X015M27,716,experiment,24,↑,up,↑,0.43570099999487866,True,15
X015M27,717,experiment,36,←,left,←,0.6239633000004687,True,15
X015M27,718,experiment,72,←,left,←,1.6573677000051248,True,15
X015M27,719,experiment,12,←,no_key,no_letter,-1.0,False,15
X015M27,720,experiment,156,←,left,←,0.9026878000004217,True,15
X015M27,721,experiment,24,↑,up,↑,0.5519659999990836,True,15
X015M27,722,experiment,96,↑,up,↑,0.5917358000006061,True,15
X015M27,723,experiment,180,↓,down,↓,1.3828454999966198,True,15
X015M27,724,training,132,←,right,→,1.9144945000007283,False,15
X015M27,725,training,144,↓,down,↓,0.6649486999958754,True,15
X015M27,726,training,84,↓,down,↓,0.6707702999992762,True,15
X015M27,727,experiment,156,↓,down,↓,0.4200012000001152,True,15
X015M27,728,experiment,180,↑,up,↑,0.4735376000026008,True,15
X015M27,729,experiment,96,↑,up,↑,1.3855084000024362,True,15
X015M27,730,experiment,48,↑,right,→,1.534011300005659,False,15
X015M27,731,experiment,96,→,no_key,no_letter,-1.0,False,15
X015M27,732,experiment,156,↓,down,↓,0.4428107000057935,True,15
X015M27,733,experiment,36,↑,up,↑,1.0513777999949525,True,15
X015M27,734,experiment,168,→,right,→,0.4621068999986164,True,15
X015M27,735,experiment,48,↑,down,↓,0.6892965999941225,False,15
X015M27,736,experiment,36,→,right,→,0.6030946000028052,True,15
X015M27,737,experiment,180,↓,right,→,1.5912862999975914,False,15
X015M27,738,experiment,48,↓,down,↓,0.506794600005378,True,15
X015M27,739,experiment,132,↑,up,↑,0.6864977000004728,True,15
X015M27,740,experiment,12,→,right,→,0.5628884000034304,True,15
X015M27,741,experiment,60,←,left,←,1.0933093999992707,True,15
X015M27,742,experiment,84,↓,down,↓,1.0102401999974973,True,15
X015M27,743,experiment,144,→,right,→,0.9532503000009456,True,15
X015M27,744,experiment,108,↑,up,↑,0.6522957999986829,True,15
X015M27,745,experiment,24,→,right,→,0.36708579999685753,True,15
X015M27,746,experiment,12,↓,down,↓,0.7130465000009281,True,15
X015M27,747,experiment,156,→,right,→,1.0849744999941322,True,15
X015M27,748,experiment,144,↑,up,↑,0.35049769999750424,True,15
X015M27,749,experiment,168,↑,up,↑,0.38392629999725614,True,15
X015M27,750,experiment,156,→,right,→,0.498909799993271,True,15
X015M27,751,experiment,132,→,right,→,0.7266624999974738,True,15
X015M27,752,experiment,84,→,right,→,0.6144978000011179,True,15
X015M27,753,experiment,72,←,left,←,0.5829655000052298,True,15
X015M27,754,experiment,12,←,left,←,0.6003686999974889,True,15
X015M27,755,experiment,72,↑,up,↑,0.5726237999988371,True,15
X015M27,756,experiment,168,→,right,→,0.5796301000009407,True,15
X015M27,757,experiment,12,↓,up,↑,1.3334202999976696,False,15
X015M27,758,experiment,120,→,right,→,0.45742629999585915,True,15
X015M27,759,experiment,60,↓,down,↓,0.5619106000012835,True,15
X015M27,760,experiment,144,↓,down,↓,0.7324955000003683,True,15
X015M27,761,experiment,24,→,right,→,0.5669080000006943,True,15
X015M27,762,experiment,144,↑,right,→,1.538315900004818,False,15
X015M27,763,experiment,48,→,right,→,0.7586489999957848,True,15
X015M27,764,experiment,84,←,left,←,0.6858653000017512,True,15
X015M27,765,experiment,120,→,right,→,0.5927469000016572,True,15
X015M27,766,experiment,180,↓,down,↓,0.533431700001529,True,15
X015M27,767,experiment,72,↓,down,↓,0.5995471999995061,True,15
X015M27,768,experiment,24,←,right,→,0.572965600003954,False,15
X015M27,769,experiment,36,↓,down,↓,1.0490071999956854,True,15
X015M27,770,experiment,132,→,right,→,0.5477699000039138,True,15
X015M27,771,experiment,120,←,left,←,0.41738180000538705,True,15
X015M27,772,experiment,72,↑,up,↑,0.4524967000033939,True,15
X015M27,773,experiment,60,←,left,←,0.58897579999757,True,15
X015M27,774,experiment,168,→,right,→,0.3839016999991145,True,15
X015M27,775,experiment,36,→,right,→,0.6652388000002247,True,15
X015M27,776,experiment,108,←,left,←,1.1873406000013347,True,15
X015M27,777,experiment,60,←,left,←,0.6256972000046517,True,15
X015M27,778,experiment,132,←,left,←,0.9532787999996799,True,15
X015M27,779,experiment,120,→,right,→,0.4606599000035203,True,15
X015M27,780,experiment,84,→,right,→,0.3837835999947856,True,15
X015M27,781,experiment,96,↑,down,↓,0.9102176000014879,False,15
X015M27,782,experiment,108,←,left,←,0.7000546999988728,True,15
X015M27,783,experiment,24,→,right,→,0.6336372000005213,True,15
X015M27,784,experiment,96,↓,right,→,1.403599099998246,False,15
X015M27,785,experiment,180,←,left,←,0.4177724000037415,True,15
X015M27,786,experiment,108,→,right,→,0.7003007999956026,True,15
X015M27,787,training,144,←,right,→,0.625,False,15
X015M27,788,training,48,↓,down,↓,0.48684740000317106,True,15
X015M27,789,training,120,←,left,←,0.6820106000013766,True,15
X015M27,790,experiment,60,→,right,→,0.615998799999943,True,15
X015M27,791,experiment,144,←,left,←,1.1474801000003936,True,15
X015M27,792,experiment,12,↓,down,↓,0.5627766999969026,True,15
X015M27,793,experiment,132,↑,up,↑,0.6622618000037619,True,15
X015M27,794,experiment,12,↓,right,→,1.1139591999963159,False,15
X015M27,795,experiment,36,←,left,←,0.7573459000050207,True,15
X015M27,796,experiment,132,→,right,→,0.5756664000000455,True,15
X015M27,797,experiment,168,↑,up,↑,0.41868009999598144,True,15
X015M27,798,experiment,84,→,right,→,0.6314016999967862,True,15
X015M27,799,experiment,144,→,right,→,0.6744637000010698,True,15
X015M27,800,experiment,24,←,left,←,0.6958595999967656,True,15
X015M27,801,experiment,180,←,left,←,0.425454099997296,True,15
X015M27,802,experiment,48,→,right,→,0.5732581000047503,True,15
X015M27,803,experiment,156,←,left,←,0.38408239999989746,True,15
X015M27,804,experiment,132,↓,down,↓,0.5058578999960446,True,15
X015M27,805,experiment,84,↓,right,→,1.1924184999952558,False,15
X015M27,806,experiment,180,↑,up,↑,0.38412180000159424,True,15
X015M27,807,experiment,48,↑,up,↑,0.3504000000029919,True,15
X015M27,808,experiment,108,→,right,→,0.635707999994338,True,15
X015M27,809,experiment,48,↓,down,↓,0.7138363999983994,True,15
X015M27,810,experiment,168,↑,up,↑,0.6147745999987819,True,15
X015M27,811,experiment,96,→,right,→,0.3671671999982209,True,15
X015M27,812,experiment,12,↑,right,→,0.7229716000001645,False,15
X015M27,813,experiment,120,↑,up,↑,0.38388759999361355,True,15
X015M27,814,experiment,144,→,right,→,0.7954596999989008,True,15
X015M27,815,experiment,156,→,right,→,0.8119249000010313,True,15
X015M27,816,experiment,84,←,left,←,0.6856751000013901,True,15
X015M27,817,experiment,144,←,left,←,0.7104289999988396,True,15
X015M27,818,experiment,96,↓,down,↓,0.6278158000059193,True,15
X015M27,819,experiment,120,←,left,←,0.6027159000004758,True,15
X015M27,820,experiment,72,→,right,→,0.44816269999864744,True,15
X015M27,821,experiment,108,←,left,←,0.8312943999990239,True,15
X015M27,822,experiment,96,↓,down,↓,0.5160246000014013,True,15
X015M27,823,experiment,24,←,left,←,0.43766349999350496,True,15
X015M27,824,experiment,60,↑,up,↑,0.4422377999944729,True,15
X015M27,825,experiment,108,→,right,→,0.7274823999978253,True,15
X015M27,826,experiment,72,←,left,←,0.4692030000005616,True,15
X015M27,827,experiment,60,↓,down,↓,0.7068149999977322,True,15
X015M27,828,experiment,24,↓,down,↓,0.4518030999970506,True,15
X015M27,829,experiment,60,↓,down,↓,0.4384644000019762,True,15
X015M27,830,experiment,96,→,right,→,0.5984631999963312,True,15
X015M27,831,experiment,72,↓,down,↓,0.6902444000006653,True,15
X015M27,832,experiment,36,↓,down,↓,0.4959362000008696,True,15
X015M27,833,experiment,120,↓,down,↓,0.945321100000001,True,15
X015M27,834,experiment,156,←,right,→,0.6194576999987476,False,15
X015M27,835,experiment,132,→,right,→,0.9337321999992128,True,15
X015M27,836,experiment,108,↑,up,↑,0.449511300001177,True,15
X015M27,837,experiment,48,→,right,→,0.3673123000044143,True,15
X015M27,838,experiment,180,←,left,←,0.48189730000012787,True,15
X015M27,839,experiment,36,↓,down,↓,0.7072164000055636,True,15
X015M27,840,experiment,180,↑,down,↓,0.9923706000045058,False,15
X015M27,841,experiment,168,↑,up,↑,0.9394546999974409,True,15
X015M27,842,experiment,168,←,left,←,0.44828940000297735,True,15
X015M27,843,experiment,120,↑,up,↑,0.3505157000035979,True,15
X015M27,844,experiment,72,→,right,→,0.7402822000003653,True,15
X015M27,845,experiment,84,←,left,←,0.7037503000028664,True,15
X015M27,846,experiment,24,←,left,←,0.46537399999942863,True,15
X015M27,847,experiment,36,↑,up,↑,0.8744411000006949,True,15
X015M27,848,experiment,156,←,left,←,0.6341854999991483,True,15
X015M27,849,experiment,12,↓,down,↓,1.1139918999979272,True,15
