PART_ID,Trial_no,Trial_type,CSI,Stim_letter,Key_pressed,letter_choose,Rt,Corr,Stimulus Time
122K19,1,training,60,↓,no_key,no_letter,-1.0,False,30
122K19,2,training,60,↑,left,←,1.8971512001007795,False,30
122K19,3,training,60,↑,right,→,1.6544632001314312,False,30
122K19,4,training,60,←,no_key,no_letter,-1.0,False,30
122K19,5,training,60,←,left,←,1.2887875998858362,True,30
122K19,6,training,60,←,left,←,1.6307671999093145,True,30
122K19,7,training,60,↑,up,↑,0.9827772998251021,True,30
122K19,8,training,60,↓,down,↓,0.9685297000687569,True,30
122K19,9,training,60,↓,down,↓,1.1629730998538435,True,30
122K19,10,training,60,←,left,←,0.813488399842754,True,30
122K19,11,training,60,↑,up,↑,0.8059344999492168,True,30
122K19,12,training,60,↑,up,↑,0.7429508999921381,True,30
122K19,13,training,60,↑,up,↑,1.241662499960512,True,30
122K19,14,training,60,←,left,←,0.7536458000540733,True,30
122K19,15,training,60,→,right,→,1.052530099870637,True,30
122K19,16,training,60,→,right,→,0.8757586001884192,True,30
122K19,17,training,60,→,right,→,0.8494407997932285,True,30
122K19,18,training,60,↓,down,↓,0.7205357002094388,True,30
122K19,19,training,60,→,right,→,0.8686976998578757,True,30
122K19,20,training,60,←,left,←,0.7870871999766678,True,30
122K19,21,training,60,←,left,←,1.045317200012505,True,18
122K19,22,training,60,←,left,←,0.7561933000106364,True,18
122K19,23,training,60,↑,up,↑,1.415090800030157,True,18
122K19,24,training,60,↓,down,↓,0.6638707001693547,True,18
122K19,25,training,60,↑,up,↑,0.5580046998802572,True,18
122K19,26,training,60,↑,up,↑,0.9529554999899119,True,18
122K19,27,training,60,←,left,←,0.7079861999955028,True,18
122K19,28,training,60,↑,up,↑,0.6650636000558734,True,18
122K19,29,training,60,→,right,→,0.8553791998419911,True,18
122K19,30,training,60,↓,up,↑,0.7261465000919998,False,18
122K19,31,training,60,↑,down,↓,0.7857775001320988,False,18
122K19,32,training,60,↓,down,↓,0.5554925999604166,True,18
122K19,33,training,60,←,left,←,0.6304021999239922,True,18
122K19,34,training,60,↑,up,↑,1.0621633999980986,True,18
122K19,35,training,60,↑,up,↑,0.6282397001050413,True,18
122K19,36,training,60,↑,up,↑,0.5720550001133233,True,18
122K19,37,training,60,←,left,←,0.5501455999910831,True,18
122K19,38,training,60,←,left,←,0.8170572998933494,True,18
122K19,39,training,60,→,right,→,0.6974289000499994,True,18
122K19,40,training,60,↑,up,↑,0.7344071001280099,True,18
122K19,41,training,46,←,right,→,1.8468727001454681,False,18
122K19,42,training,27,←,left,←,0.8204009002074599,True,18
122K19,43,experiment,56,↑,up,↑,0.5834410001989454,True,18
122K19,44,experiment,52,↑,up,↑,0.958418200025335,True,18
122K19,45,experiment,49,↓,down,↓,0.616963799810037,True,18
122K19,46,experiment,15,←,left,←,0.7428798999171704,True,18
122K19,47,experiment,29,↑,up,↑,0.687446900177747,True,18
122K19,48,experiment,18,↑,up,↑,0.5285701998509467,True,18
122K19,49,experiment,47,←,left,←,0.4775595001410693,True,18
122K19,50,experiment,36,↑,down,↓,0.8589957000222057,False,18
122K19,51,experiment,26,↑,up,↑,0.5606249999254942,True,18
122K19,52,experiment,20,↓,down,↓,0.9742465999443084,True,18
122K19,53,experiment,31,→,right,→,0.6678571000229567,True,18
122K19,54,experiment,60,←,left,←,0.5300648000556976,True,18
122K19,55,experiment,21,←,right,→,0.8161140999291092,False,18
122K19,56,experiment,39,↑,up,↑,1.1024564998224378,True,18
122K19,57,experiment,45,→,right,→,0.5416747000999749,True,18
122K19,58,experiment,33,↑,up,↑,0.7953085000626743,True,18
122K19,59,experiment,50,→,right,→,0.6835382001008838,True,18
122K19,60,experiment,24,↓,down,↓,0.7690739000681788,True,18
122K19,61,experiment,59,←,left,←,0.5161762000061572,True,18
122K19,62,experiment,44,→,right,→,0.7631371000315994,True,18
122K19,63,experiment,35,↓,down,↓,0.6860989001579583,True,18
122K19,64,experiment,48,↓,down,↓,0.4916445999406278,True,18
122K19,65,experiment,14,→,right,→,0.7760821999981999,True,18
122K19,66,experiment,30,↓,down,↓,0.8622081000357866,True,18
122K19,67,experiment,37,←,left,←,0.5162788999732584,True,18
122K19,68,experiment,43,↑,up,↑,0.7398691999260336,True,18
122K19,69,experiment,27,→,right,→,0.5413343999534845,True,18
122K19,70,experiment,40,↓,down,↓,0.5985367998946458,True,18
122K19,71,experiment,22,←,right,→,0.656328700017184,False,18
122K19,72,experiment,28,←,left,←,0.8688804998528212,True,18
122K19,73,experiment,57,↑,up,↑,0.541036400012672,True,18
122K19,74,experiment,19,↑,left,←,1.8837611998897046,False,18
122K19,75,experiment,16,↑,up,↑,0.5510873000603169,True,18
122K19,76,experiment,25,←,left,←,0.7132292001042515,True,18
122K19,77,experiment,38,↓,down,↓,0.4332783001009375,True,18
122K19,78,experiment,42,↑,no_key,no_letter,-1.0,False,18
122K19,79,experiment,13,↓,down,↓,0.969030600041151,True,18
122K19,80,experiment,34,↑,down,↓,0.9486181999091059,False,18
122K19,81,experiment,54,↑,up,↑,0.5238862000405788,True,18
122K19,82,experiment,32,→,left,←,0.6586813000030816,False,18
122K19,83,experiment,46,↓,down,↓,0.5630218000151217,True,18
122K19,84,experiment,41,↓,down,↓,0.5706342000048608,True,18
122K19,85,experiment,23,↑,up,↑,0.5173360998742282,True,18
122K19,86,experiment,55,→,right,→,0.5969611001200974,True,18
122K19,87,experiment,51,←,left,←,0.4685140000656247,True,18
122K19,88,experiment,17,→,left,←,0.9179056999273598,False,18
122K19,89,experiment,53,↑,up,↑,0.7111279000528157,True,18
122K19,90,experiment,58,↓,down,↓,0.5096191000193357,True,18
122K19,91,training,49,→,right,→,0.6689015999436378,True,18
122K19,92,training,60,←,left,←,0.6433360001537949,True,18
122K19,93,experiment,42,↓,down,↓,0.5270227999426425,True,18
122K19,94,experiment,23,↑,right,→,1.019610800081864,False,18
122K19,95,experiment,29,↑,up,↑,0.5449757999740541,True,18
122K19,96,experiment,43,↓,left,←,0.6876501000951976,False,18
122K19,97,experiment,54,↓,down,↓,0.4819137998856604,True,18
122K19,98,experiment,39,↑,down,↓,0.6047777000349015,False,18
122K19,99,experiment,46,↑,down,↓,0.5350748999044299,False,18
122K19,100,experiment,38,↑,up,↑,1.0012739000376314,True,18
122K19,101,experiment,15,↑,up,↑,0.8322061002254486,True,18
122K19,102,experiment,59,→,right,→,0.5533449000213295,True,18
122K19,103,experiment,44,→,right,→,0.6223037999588996,True,18
122K19,104,experiment,40,↓,down,↓,0.8598756999708712,True,18
122K19,105,experiment,60,→,left,←,0.8433193999808282,False,18
122K19,106,experiment,19,↓,down,↓,0.8138801001477987,True,18
122K19,107,experiment,20,↓,down,↓,1.2728046998381615,True,18
122K19,108,experiment,48,↑,up,↑,0.5593816000036895,True,18
122K19,109,experiment,28,↓,down,↓,0.7516452998388559,True,18
122K19,110,experiment,35,←,left,←,0.49961769999936223,True,18
122K19,111,experiment,49,→,no_key,no_letter,-1.0,False,18
122K19,112,experiment,55,↑,up,↑,0.7339865998364985,True,18
122K19,113,experiment,47,→,right,→,0.5543892001733184,True,18
122K19,114,experiment,21,←,left,←,0.9587989998981357,True,18
122K19,115,experiment,13,↑,up,↑,0.673050600104034,True,18
122K19,116,experiment,32,↓,up,↑,0.6659663999453187,False,18
122K19,117,experiment,24,↑,up,↑,0.9845430999994278,True,18
122K19,118,experiment,45,→,right,→,0.9638334000483155,True,18
122K19,119,experiment,16,↓,down,↓,0.723451100056991,True,18
122K19,120,experiment,37,↓,left,←,1.486997000174597,False,18
122K19,121,experiment,41,↓,down,↓,0.6736947998870164,True,18
122K19,122,experiment,58,↓,down,↓,0.6414332999847829,True,18
122K19,123,experiment,56,→,right,→,0.9398227999918163,True,18
122K19,124,experiment,18,←,left,←,0.5553924001287669,True,18
122K19,125,experiment,52,↓,down,↓,0.5159446001052856,True,18
122K19,126,experiment,31,←,left,←,0.667284999974072,True,18
122K19,127,experiment,33,→,down,↓,0.5075621998403221,False,18
122K19,128,experiment,27,→,left,←,0.5261947999242693,False,18
122K19,129,experiment,57,←,left,←,0.6604569000191987,True,18
122K19,130,experiment,25,←,right,→,0.8667490999214351,False,18
122K19,131,experiment,50,←,left,←,0.6637399001047015,True,18
122K19,132,experiment,22,←,left,←,0.847228400176391,True,18
122K19,133,experiment,36,↑,up,↑,0.8941780000459403,True,18
122K19,134,experiment,34,↓,up,↑,0.7412141999229789,False,18
122K19,135,experiment,17,↑,up,↑,0.7337317001074553,True,18
122K19,136,experiment,53,←,right,→,0.7977261000778526,False,18
122K19,137,experiment,14,←,left,←,0.5251495998818427,True,18
122K19,138,experiment,26,↑,up,↑,0.6641901000402868,True,18
122K19,139,experiment,30,↑,up,↑,0.5220809001475573,True,18
122K19,140,experiment,51,↓,down,↓,0.836695599835366,True,18
122K19,141,training,18,↓,up,↑,0.7111367001198232,False,18
122K19,142,training,46,↑,up,↑,0.5413595999125391,True,18
122K19,143,experiment,43,→,right,→,0.6200713999569416,True,18
122K19,144,experiment,40,←,left,←,0.5697071000467986,True,18
122K19,145,experiment,44,↑,up,↑,0.7509327000007033,True,18
122K19,146,experiment,32,↓,down,↓,0.5722161999437958,True,18
122K19,147,experiment,17,→,right,→,1.07490299991332,True,18
122K19,148,experiment,51,↓,down,↓,0.5435540000908077,True,18
122K19,149,experiment,54,→,right,→,0.8073680000379682,True,18
122K19,150,experiment,38,←,left,←,0.8947994001209736,True,18
122K19,151,experiment,55,↓,down,↓,0.7520403999369591,True,18
122K19,152,experiment,41,→,left,←,0.9437080998905003,False,18
122K19,153,experiment,35,→,down,↓,1.547937799943611,False,18
122K19,154,experiment,22,→,right,→,0.6887453999370337,True,18
122K19,155,experiment,60,↑,right,→,1.3585260999388993,False,18
122K19,156,experiment,26,←,left,←,0.5122492001391947,True,18
122K19,157,experiment,25,↓,left,←,0.5162583000492305,False,18
122K19,158,experiment,56,→,down,↓,0.6593402000144124,False,18
122K19,159,experiment,31,←,left,←,0.6852853000164032,True,18
122K19,160,experiment,23,↑,no_key,no_letter,-1.0,False,18
122K19,161,experiment,36,←,left,←,0.7986634999979287,True,18
122K19,162,experiment,59,↓,down,↓,0.7442306999582797,True,18
122K19,163,experiment,46,→,right,→,0.8614932000637054,True,18
122K19,164,experiment,45,→,right,→,0.8225198001600802,True,18
122K19,165,experiment,24,↑,up,↑,0.654775399947539,True,18
122K19,166,experiment,50,→,right,→,0.620723000029102,True,18
122K19,167,experiment,21,↑,up,↑,0.5743275999557227,True,18
122K19,168,experiment,16,↑,right,→,1.8936392001342028,False,18
122K19,169,experiment,48,↑,up,↑,1.6280147000215948,True,18
122K19,170,experiment,47,←,down,↓,1.1893899999558926,False,18
122K19,171,experiment,49,↑,left,←,1.5989493001252413,False,18
122K19,172,experiment,27,↓,down,↓,0.7740227999165654,True,18
122K19,173,experiment,37,↑,up,↑,1.0475684001576155,True,18
122K19,174,experiment,30,←,left,←,0.5946186000946909,True,18
122K19,175,experiment,13,↑,up,↑,0.611458299914375,True,18
122K19,176,experiment,20,→,right,→,0.5187554000876844,True,18
122K19,177,experiment,29,→,right,→,0.783492400078103,True,18
122K19,178,experiment,39,↑,up,↑,0.7752505999524146,True,18
122K19,179,experiment,42,↑,up,↑,0.7095200999174267,True,18
122K19,180,experiment,28,↑,down,↓,1.1997537999413908,False,18
122K19,181,experiment,15,←,left,←,0.670705699827522,True,18
122K19,182,experiment,19,↓,up,↑,0.7123958999291062,False,18
122K19,183,experiment,58,→,left,←,0.8706508001778275,False,18
122K19,184,experiment,34,↓,down,↓,0.678215199848637,True,18
122K19,185,experiment,57,↑,up,↑,0.7346963998861611,True,18
122K19,186,experiment,53,←,left,←,0.671301499940455,True,18
122K19,187,experiment,33,→,right,→,1.0552396001294255,True,18
122K19,188,experiment,18,↑,up,↑,0.6102305001113564,True,18
122K19,189,experiment,52,→,right,→,1.328529000049457,True,18
122K19,190,experiment,14,→,right,→,0.595618300139904,True,18
122K19,191,training,34,↑,no_key,no_letter,-1.0,False,18
122K19,192,training,39,→,left,←,0.5168863998260349,False,18
122K19,193,experiment,14,←,left,←,0.7032465999945998,True,18
122K19,194,experiment,28,→,right,→,0.5775274999905378,True,18
122K19,195,experiment,33,↑,up,↑,0.5976984999142587,True,18
122K19,196,experiment,44,→,right,→,0.9132563001476228,True,18
122K19,197,experiment,34,→,right,→,0.7434603001456708,True,18
122K19,198,experiment,17,↑,up,↑,0.7676535998471081,True,18
122K19,199,experiment,47,↑,up,↑,0.7547750000376254,True,18
122K19,200,experiment,46,↓,no_key,no_letter,-1.0,False,18
122K19,201,experiment,41,→,left,←,0.8787181999068707,False,18
122K19,202,experiment,51,→,right,→,0.5711115000303835,True,18
122K19,203,experiment,57,←,left,←,0.5197898000478745,True,18
122K19,204,experiment,25,↓,down,↓,0.6589385999832302,True,18
122K19,205,experiment,29,↓,down,↓,0.6863996998872608,True,18
122K19,206,experiment,20,←,left,←,0.542505000019446,True,18
122K19,207,experiment,13,→,right,→,0.5854726999532431,True,18
122K19,208,experiment,37,↓,down,↓,0.6980047998949885,True,18
122K19,209,experiment,35,↓,down,↓,0.615621600067243,True,18
122K19,210,experiment,23,↑,up,↑,0.8726711999624968,True,18
122K19,211,experiment,54,←,left,←,0.5229422999545932,True,18
122K19,212,experiment,50,↓,down,↓,0.5261580999940634,True,18
122K19,213,experiment,53,↑,down,↓,0.79102380014956,False,18
122K19,214,experiment,40,↓,down,↓,0.485898100072518,True,18
122K19,215,experiment,15,↑,up,↑,0.881097299978137,True,18
122K19,216,experiment,55,→,right,→,0.7623816998675466,True,18
122K19,217,experiment,36,↓,down,↓,0.6854377998970449,True,18
122K19,218,experiment,21,↑,down,↓,0.8366857999935746,False,18
122K19,219,experiment,38,↑,up,↑,1.0990524999797344,True,18
122K19,220,experiment,22,↑,up,↑,1.2893962999805808,True,18
122K19,221,experiment,16,↓,down,↓,0.5165107001084834,True,18
122K19,222,experiment,32,↑,up,↑,0.7551524001173675,True,18
122K19,223,experiment,58,↑,down,↓,1.3516907000448555,False,18
122K19,224,experiment,30,→,right,→,0.5589052001014352,True,18
122K19,225,experiment,24,←,no_key,no_letter,-1.0,False,18
122K19,226,experiment,49,←,left,←,0.5560659000184387,True,18
122K19,227,experiment,45,→,right,→,0.6489409001078457,True,18
122K19,228,experiment,26,←,left,←,0.4864107999019325,True,18
122K19,229,experiment,31,↑,left,←,1.3991429000161588,False,18
122K19,230,experiment,52,↓,down,↓,1.6141353000421077,True,18
122K19,231,experiment,43,↓,down,↓,0.6181447999551892,True,18
122K19,232,experiment,42,↓,down,↓,0.6301696998998523,True,18
122K19,233,experiment,27,↓,down,↓,0.5157332997769117,True,18
122K19,234,experiment,19,↓,down,↓,0.7315376999322325,True,18
122K19,235,experiment,60,→,right,→,0.6068939999677241,True,18
122K19,236,experiment,59,→,left,←,1.1128585000988096,False,18
122K19,237,experiment,48,→,right,→,0.7898693000897765,True,18
122K19,238,experiment,18,→,left,←,1.2272868999280035,False,18
122K19,239,experiment,56,↓,down,↓,0.6226290001068264,True,18
122K19,240,experiment,39,↓,down,↓,0.5971341000404209,True,18
122K19,241,training,16,↓,down,↓,0.6816279999911785,True,18
122K19,242,training,39,↑,up,↑,0.8612937000580132,True,18
122K19,243,experiment,44,↑,no_key,no_letter,-1.0,False,18
122K19,244,experiment,42,↓,down,↓,0.5737964999862015,True,18
122K19,245,experiment,54,→,right,→,0.604126000078395,True,18
122K19,246,experiment,24,↑,down,↓,0.6852139001712203,False,18
122K19,247,experiment,55,↓,down,↓,0.5902046000119299,True,18
122K19,248,experiment,57,←,no_key,no_letter,-1.0,False,18
122K19,249,experiment,39,→,right,→,0.8187802999746054,True,18
122K19,250,experiment,34,↑,up,↑,0.6924990001134574,True,18
122K19,251,experiment,48,→,left,←,0.6899465001188219,False,18
122K19,252,experiment,38,→,right,→,0.8701683001127094,True,18
122K19,253,experiment,18,→,right,→,0.7364227999933064,True,18
122K19,254,experiment,28,←,right,→,0.8415525001473725,False,18
122K19,255,experiment,15,←,left,←,0.4947961999569088,True,18
122K19,256,experiment,53,↑,up,↑,0.8969725000206381,True,18
122K19,257,experiment,52,↓,down,↓,0.6037204000167549,True,18
122K19,258,experiment,51,↓,down,↓,0.43370619998313487,True,18
122K19,259,experiment,16,→,left,←,1.1027335000690073,False,18
122K19,260,experiment,31,↑,up,↑,0.5588746001012623,True,18
122K19,261,experiment,59,→,left,←,0.8347628000192344,False,18
122K19,262,experiment,29,↓,down,↓,0.8148480001837015,True,18
122K19,263,experiment,19,←,left,←,0.6503109000623226,True,18
122K19,264,experiment,41,→,right,→,0.5499556001741439,True,18
122K19,265,experiment,43,↓,up,↑,1.4607734000310302,False,18
122K19,266,experiment,56,↓,down,↓,0.5106288997922093,True,18
122K19,267,experiment,33,↑,up,↑,0.8851633998565376,True,18
122K19,268,experiment,21,↓,down,↓,0.5729485000483692,True,18
122K19,269,experiment,46,←,left,←,0.7045919001102448,True,18
122K19,270,experiment,40,↑,up,↑,0.6906578000634909,True,18
122K19,271,experiment,23,↑,up,↑,0.8567319000139832,True,18
122K19,272,experiment,14,↓,left,←,0.8544193000998348,False,18
122K19,273,experiment,45,↑,up,↑,0.807245200034231,True,18
122K19,274,experiment,32,←,left,←,0.4829998000059277,True,18
122K19,275,experiment,49,↑,up,↑,0.5757903000339866,True,18
122K19,276,experiment,13,←,left,←,0.545394399901852,True,18
122K19,277,experiment,17,↑,up,↑,0.6810926999896765,True,18
122K19,278,experiment,50,←,left,←,0.9335107000079006,True,18
122K19,279,experiment,22,↓,up,↑,0.8345781001262367,False,18
122K19,280,experiment,58,→,right,→,0.7235797999892384,True,18
122K19,281,experiment,47,→,right,→,0.7847139001823962,True,18
122K19,282,experiment,37,↓,up,↑,0.7935669999569654,False,18
122K19,283,experiment,26,↓,down,↓,0.8417991998139769,True,18
122K19,284,experiment,30,↓,down,↓,0.5497535998001695,True,18
122K19,285,experiment,36,→,right,→,0.7362642998341471,True,18
122K19,286,experiment,25,←,no_key,no_letter,-1.0,False,18
122K19,287,experiment,27,↓,down,↓,0.6439614000264555,True,18
122K19,288,experiment,35,↑,up,↑,0.7881322000175714,True,18
122K19,289,experiment,60,←,left,←,0.9902434998657554,True,18
122K19,290,experiment,20,↓,down,↓,0.7143075000494719,True,18
122K19,291,training,54,↓,up,↑,0.8331595999188721,False,18
122K19,292,training,35,←,left,←,0.601340000052005,True,18
122K19,293,experiment,43,→,right,→,0.8777763999532908,True,18
122K19,294,experiment,35,↓,down,↓,0.4845583001151681,True,18
122K19,295,experiment,13,↑,left,←,1.2652537000831217,False,18
122K19,296,experiment,33,→,right,→,0.7617649000603706,True,18
122K19,297,experiment,17,↑,up,↑,0.7290567001327872,True,18
122K19,298,experiment,36,↓,down,↓,0.6128225999418646,True,18
122K19,299,experiment,54,→,right,→,0.7212076000869274,True,18
122K19,300,experiment,41,→,right,→,0.6262969998642802,True,18
122K19,301,experiment,30,↑,up,↑,0.6782921999692917,True,18
122K19,302,experiment,40,→,right,→,0.6499469999689609,True,18
122K19,303,experiment,50,↓,down,↓,0.49568379996344447,True,18
122K19,304,experiment,29,↑,up,↑,0.5772828999906778,True,18
122K19,305,experiment,53,↓,down,↓,0.4963471000082791,True,18
122K19,306,experiment,42,←,right,→,0.8889489001594484,False,18
122K19,307,experiment,52,←,right,→,0.556117300176993,False,18
122K19,308,experiment,18,↑,up,↑,0.994842000072822,True,18
122K19,309,experiment,14,↑,up,↑,0.8512552999891341,True,18
122K19,310,experiment,24,→,right,→,0.5859064999967813,True,18
122K19,311,experiment,25,↓,down,↓,0.5706853000447154,True,18
122K19,312,experiment,16,→,right,→,0.6181751999538392,True,18
122K19,313,experiment,47,↓,down,↓,0.5790257998742163,True,18
122K19,314,experiment,28,↓,down,↓,0.5547609999775887,True,18
122K19,315,experiment,34,→,right,→,0.5826495001092553,True,18
122K19,316,experiment,55,←,up,↑,0.5476656998507679,False,18
122K19,317,experiment,21,→,right,→,0.8486029000487179,True,18
122K19,318,experiment,44,↓,down,↓,0.49820580007508397,True,18
122K19,319,experiment,26,↑,up,↑,0.9735193999949843,True,18
122K19,320,experiment,59,←,right,→,0.5610052000265568,False,18
122K19,321,experiment,49,↑,up,↑,0.6431028000079095,True,18
122K19,322,experiment,23,←,left,←,0.5711642000824213,True,18
122K19,323,experiment,20,↓,down,↓,0.4799309999216348,True,18
122K19,324,experiment,57,↓,down,↓,0.767612700117752,True,18
122K19,325,experiment,22,→,right,→,0.5550700998865068,True,18
122K19,326,experiment,39,→,left,←,0.5159265999682248,False,18
122K19,327,experiment,15,←,right,→,0.5340742999687791,False,18
122K19,328,experiment,31,→,left,←,0.829040199983865,False,18
122K19,329,experiment,46,↑,up,↑,0.630677199922502,True,18
122K19,330,experiment,45,↓,up,↑,0.8564357000868767,False,18
122K19,331,experiment,32,↑,up,↑,0.6498169999103993,True,18
122K19,332,experiment,38,→,right,→,0.5752968001179397,True,18
122K19,333,experiment,58,↑,up,↑,0.6511207001749426,True,18
122K19,334,experiment,60,←,left,←,0.5461593000218272,True,18
122K19,335,experiment,27,←,left,←,0.6837011000607163,True,18
122K19,336,experiment,37,←,left,←,0.5047613000497222,True,18
122K19,337,experiment,19,→,right,→,0.7525866001378745,True,18
122K19,338,experiment,51,→,right,→,0.7375780001748353,True,18
122K19,339,experiment,56,↓,down,↓,0.6720106999855489,True,18
122K19,340,experiment,48,←,right,→,0.5745969000272453,False,18
122K19,341,training,31,→,right,→,0.6133222000207752,True,18
122K19,342,training,15,↑,down,↓,0.8516804000828415,False,18
122K19,343,experiment,13,←,right,→,0.5615259001497179,False,18
122K19,344,experiment,53,↑,up,↑,0.6890306000132114,True,18
122K19,345,experiment,24,↓,left,←,1.0465722000226378,False,18
122K19,346,experiment,43,→,left,←,0.8331649999599904,False,18
122K19,347,experiment,60,←,left,←,0.6089323000051081,True,18
122K19,348,experiment,29,↑,up,↑,0.646514100022614,True,18
122K19,349,experiment,54,←,left,←,0.5614533999469131,True,18
122K19,350,experiment,47,↓,down,↓,0.6292258000466973,True,18
122K19,351,experiment,39,↑,up,↑,0.6273436001501977,True,18
122K19,352,experiment,38,↑,up,↑,0.682263599941507,True,18
122K19,353,experiment,30,←,left,←,0.4837295999750495,True,18
122K19,354,experiment,18,←,left,←,0.6451775999739766,True,18
122K19,355,experiment,20,←,right,→,0.9592158999294043,False,18
122K19,356,experiment,59,↓,down,↓,0.7071340000256896,True,18
122K19,357,experiment,25,↑,up,↑,0.775491900043562,True,18
122K19,358,experiment,14,→,left,←,0.592016400070861,False,18
122K19,359,experiment,57,↓,down,↓,0.6838125002104789,True,18
122K19,360,experiment,15,↓,down,↓,0.5996145999524742,True,18
122K19,361,experiment,27,↑,up,↑,0.9099056001286954,True,18
122K19,362,experiment,22,←,right,→,0.8523662998341024,False,18
122K19,363,experiment,51,←,left,←,0.5458636998664588,True,18
122K19,364,experiment,42,↑,up,↑,0.71284250007011,True,18
122K19,365,experiment,41,←,left,←,0.705880899913609,True,18
122K19,366,experiment,56,↓,down,↓,0.6736140998546034,True,18
122K19,367,experiment,34,↑,up,↑,0.7212133000139147,True,18
122K19,368,experiment,48,←,left,←,1.8537955000065267,True,18
122K19,369,experiment,35,←,left,←,0.5018867000471801,True,18
122K19,370,experiment,32,↓,up,↑,1.589148199884221,False,18
122K19,371,experiment,49,↓,up,↑,0.8145201001316309,False,18
122K19,372,experiment,45,↑,up,↑,0.7689575999975204,True,18
122K19,373,experiment,52,↓,down,↓,0.48866669996641576,True,18
122K19,374,experiment,19,↓,up,↑,1.3774085000623018,False,18
122K19,375,experiment,28,←,left,←,0.6577386998105794,True,18
122K19,376,experiment,58,↓,down,↓,0.601911700097844,True,18
122K19,377,experiment,55,→,left,←,0.7980314998421818,False,18
122K19,378,experiment,23,→,left,←,1.0155092000495642,False,18
122K19,379,experiment,50,→,right,→,0.5350742000155151,True,18
122K19,380,experiment,31,→,left,←,0.5415725000202656,False,18
122K19,381,experiment,44,→,right,→,0.6276805999223143,True,18
122K19,382,experiment,16,↑,left,←,1.2411344998981804,False,18
122K19,383,experiment,36,←,right,→,0.561330399941653,False,18
122K19,384,experiment,26,↑,up,↑,0.6584428998176008,True,18
122K19,385,experiment,46,→,right,→,0.8027921998873353,True,18
122K19,386,experiment,21,↓,up,↑,0.6457549999468029,False,18
122K19,387,experiment,17,←,left,←,0.5136941000819206,True,18
122K19,388,experiment,37,←,no_key,no_letter,-1.0,False,18
122K19,389,experiment,33,←,left,←,1.4501557000912726,True,18
122K19,390,experiment,40,←,left,←,0.6468299999833107,True,18
122K19,391,training,48,↓,down,↓,0.5500687998719513,True,18
122K19,392,training,24,↑,up,↑,0.6168542997911572,True,18
122K19,393,experiment,42,↓,down,↓,0.4340008997824043,True,18
122K19,394,experiment,55,↓,down,↓,0.543365600053221,True,18
122K19,395,experiment,35,→,right,→,0.49143159994855523,True,18
122K19,396,experiment,18,→,right,→,0.52501290012151,True,18
122K19,397,experiment,54,←,left,←,0.6130933000240475,True,18
122K19,398,experiment,59,→,left,←,0.9422454999294132,False,18
122K19,399,experiment,60,←,left,←,0.6982439998537302,True,18
122K19,400,experiment,29,→,right,→,0.7236224999651313,True,18
122K19,401,experiment,36,←,left,←,0.623969400068745,True,18
122K19,402,experiment,58,→,right,→,0.7217167001217604,True,18
122K19,403,experiment,56,↓,up,↑,0.6887809000909328,False,18
122K19,404,experiment,39,↓,down,↓,0.49258550000377,True,18
122K19,405,experiment,57,↓,down,↓,0.7240402000024915,True,18
122K19,406,experiment,43,←,right,→,0.6516468999907374,False,18
122K19,407,experiment,14,↑,up,↑,0.6729931998997927,True,18
122K19,408,experiment,40,←,no_key,no_letter,-1.0,False,18
122K19,409,experiment,47,←,no_key,no_letter,-1.0,False,18
122K19,410,experiment,21,↓,down,↓,0.6450472001451999,True,18
122K19,411,experiment,53,↑,up,↑,0.7614115001633763,True,18
122K19,412,experiment,31,↑,up,↑,0.767635100055486,True,18
122K19,413,experiment,28,←,left,←,0.5354818999767303,True,18
122K19,414,experiment,34,↑,up,↑,0.8600486000068486,True,18
122K19,415,experiment,41,↑,up,↑,0.6637061000801623,True,18
122K19,416,experiment,23,↓,down,↓,0.5665287000592798,True,18
122K19,417,experiment,15,↑,up,↑,0.6545485998503864,True,18
122K19,418,experiment,33,→,right,→,0.6395277001429349,True,18
122K19,419,experiment,13,←,left,←,0.5581632000394166,True,18
122K19,420,experiment,20,→,right,→,0.8356097999494523,True,18
122K19,421,experiment,48,↑,up,↑,1.0912805998232216,True,18
122K19,422,experiment,52,↑,up,↑,0.7105485999491066,True,18
122K19,423,experiment,17,↑,up,↑,0.7759453998878598,True,18
122K19,424,experiment,22,←,left,←,0.595467499922961,True,18
122K19,425,experiment,32,→,right,→,0.5836814001668245,True,18
122K19,426,experiment,50,↓,down,↓,0.5120593998581171,True,18
122K19,427,experiment,25,→,right,→,0.5159593999851495,True,18
122K19,428,experiment,26,↑,up,↑,0.5674851001240313,True,18
122K19,429,experiment,45,↓,down,↓,1.6030892000999302,True,18
122K19,430,experiment,27,↑,down,↓,0.7383554999250919,False,18
122K19,431,experiment,38,←,right,→,0.9172904998995364,False,18
122K19,432,experiment,19,↑,up,↑,0.748496999964118,True,18
122K19,433,experiment,16,↑,up,↑,0.6682617999613285,True,18
122K19,434,experiment,49,←,right,→,0.6819982999004424,False,18
122K19,435,experiment,46,→,right,→,0.6248869998380542,True,18
122K19,436,experiment,44,↓,up,↑,0.6678897999227047,False,18
122K19,437,experiment,24,→,right,→,0.6266582999378443,True,18
122K19,438,experiment,37,↓,down,↓,0.6016861000098288,True,18
122K19,439,experiment,51,←,left,←,0.5126517000608146,True,18
122K19,440,experiment,30,←,no_key,no_letter,-1.0,False,18
122K19,441,training,39,↑,left,←,1.7821563999168575,False,18
122K19,442,training,40,←,left,←,0.5015300000086427,True,18
122K19,443,experiment,21,↑,up,↑,0.7402570000849664,True,18
122K19,444,experiment,56,→,right,→,0.5389625998213887,True,18
122K19,445,experiment,18,→,right,→,0.5219550998881459,True,18
122K19,446,experiment,44,←,right,→,0.4889847000595182,False,18
122K19,447,experiment,42,←,right,→,0.7305075000040233,False,18
122K19,448,experiment,17,↑,up,↑,0.9707152000628412,True,18
122K19,449,experiment,34,→,left,←,1.0623057999182492,False,18
122K19,450,experiment,45,↑,up,↑,0.6795467000920326,True,18
122K19,451,experiment,27,→,right,→,0.5149326000828296,True,18
122K19,452,experiment,20,↑,no_key,no_letter,-1.0,False,18
122K19,453,experiment,51,→,right,→,0.5227041998878121,True,18
122K19,454,experiment,54,←,left,←,0.6510395999066532,True,18
122K19,455,experiment,53,←,left,←,0.6147438001353294,True,18
122K19,456,experiment,32,↑,up,↑,0.6814437999855727,True,18
122K19,457,experiment,41,↓,down,↓,0.6758058997802436,True,18
122K19,458,experiment,29,↓,down,↓,0.7187067999038845,True,18
122K19,459,experiment,31,↑,up,↑,0.8223951999098063,True,18
122K19,460,experiment,36,↓,down,↓,0.6145148000214249,True,18
122K19,461,experiment,47,→,right,→,0.5195261999033391,True,18
122K19,462,experiment,48,↑,up,↑,0.6439094999805093,True,18
122K19,463,experiment,57,↑,up,↑,0.5894734000321478,True,18
122K19,464,experiment,59,→,right,→,0.8479833998717368,True,18
122K19,465,experiment,23,→,right,→,0.5355325001291931,True,18
122K19,466,experiment,19,↑,up,↑,0.6941388000268489,True,18
122K19,467,experiment,30,→,left,←,0.599677599966526,False,18
122K19,468,experiment,37,←,left,←,0.552046800032258,True,18
122K19,469,experiment,50,↑,up,↑,0.6175896001514047,True,18
122K19,470,experiment,40,→,right,→,0.5991183998994529,True,18
122K19,471,experiment,38,↓,left,←,0.7508119000121951,False,18
122K19,472,experiment,49,→,right,→,0.5130538998637348,True,18
122K19,473,experiment,25,→,right,→,0.5411688000895083,True,18
122K19,474,experiment,13,↓,down,↓,0.6960385001730174,True,18
122K19,475,experiment,46,←,left,←,0.5348070000763983,True,18
122K19,476,experiment,55,←,left,←,0.5180093999952078,True,18
122K19,477,experiment,22,→,left,←,0.5152447000145912,False,18
122K19,478,experiment,24,→,right,→,0.7352731998544186,True,18
122K19,479,experiment,14,→,left,←,0.5773819999303669,False,18
122K19,480,experiment,60,↓,down,↓,0.4997308000456542,True,18
122K19,481,experiment,35,→,right,→,0.5935913000721484,True,18
122K19,482,experiment,28,↑,up,↑,0.6640777001157403,True,18
122K19,483,experiment,43,↑,right,→,1.0737184998579323,False,18
122K19,484,experiment,58,←,left,←,0.5216866999398917,True,18
122K19,485,experiment,33,↑,up,↑,0.6958488998934627,True,18
122K19,486,experiment,39,↑,left,←,1.0513816999737173,False,18
122K19,487,experiment,26,→,right,→,0.5213448000140488,True,18
122K19,488,experiment,15,→,right,→,0.7230185000225902,True,18
122K19,489,experiment,52,←,right,→,0.6768088999669999,False,18
122K19,490,experiment,16,→,right,→,0.7603841000236571,True,18
122K19,491,training,24,↓,left,←,0.8111944999545813,False,18
122K19,492,training,44,←,left,←,0.5268852999433875,True,18
122K19,493,experiment,20,→,right,→,0.5175294999498874,True,18
122K19,494,experiment,35,→,right,→,0.7864598000887781,True,18
122K19,495,experiment,18,↑,up,↑,0.5838541998527944,True,18
122K19,496,experiment,22,→,right,→,0.49065280007198453,True,18
122K19,497,experiment,32,←,left,←,0.7627067000139505,True,18
122K19,498,experiment,14,←,left,←,0.5561502000782639,True,18
122K19,499,experiment,38,↓,left,←,0.8136827000416815,False,18
122K19,500,experiment,60,←,left,←,0.7182012998964638,True,18
122K19,501,experiment,26,↓,down,↓,0.7770769000053406,True,18
122K19,502,experiment,40,←,left,←,0.48070170008577406,True,18
122K19,503,experiment,36,→,right,→,0.6462153000757098,True,18
122K19,504,experiment,17,→,left,←,0.6662739000748843,False,18
122K19,505,experiment,52,←,left,←,0.8379975999705493,True,18
122K19,506,experiment,56,←,left,←,0.5530292999465019,True,18
122K19,507,experiment,25,↓,down,↓,0.6265687001869082,True,18
122K19,508,experiment,29,↓,down,↓,0.6073882998898625,True,18
122K19,509,experiment,39,↑,up,↑,0.5584549000486732,True,18
122K19,510,experiment,21,↓,down,↓,0.8830270001199096,True,18
122K19,511,experiment,47,↓,down,↓,0.505535300122574,True,18
122K19,512,experiment,19,→,right,→,0.8974055000580847,True,18
122K19,513,experiment,45,←,right,→,0.8565436999779195,False,18
122K19,514,experiment,51,↑,up,↑,0.6936852000653744,True,18
122K19,515,experiment,48,↓,down,↓,0.59543909993954,True,18
122K19,516,experiment,31,←,left,←,1.1361610998865217,True,18
122K19,517,experiment,43,←,left,←,0.5993369000498205,True,18
122K19,518,experiment,27,←,left,←,0.6144910000730306,True,18
122K19,519,experiment,44,→,left,←,0.6251775999553502,False,18
122K19,520,experiment,15,←,left,←,0.5831967999693006,True,18
122K19,521,experiment,30,↑,up,↑,0.6526850000955164,True,18
122K19,522,experiment,23,↑,up,↑,0.7241090000607073,True,18
122K19,523,experiment,49,←,right,→,0.5918743999209255,False,18
122K19,524,experiment,42,↑,left,←,0.5494871998671442,False,18
122K19,525,experiment,24,→,right,→,0.5361973999533802,True,18
122K19,526,experiment,33,↓,down,↓,0.53373680007644,True,18
122K19,527,experiment,59,↑,up,↑,0.6500401999801397,True,18
122K19,528,experiment,50,←,right,→,0.8158131001982838,False,18
122K19,529,experiment,57,←,right,→,0.6661419998854399,False,18
122K19,530,experiment,16,←,left,←,0.765649399952963,True,18
122K19,531,experiment,34,↑,down,↓,0.8812078000046313,False,18
122K19,532,experiment,46,↑,up,↑,0.6482309999410063,True,18
122K19,533,experiment,55,↑,up,↑,0.5947583001106977,True,18
122K19,534,experiment,41,←,left,←,0.5369154000654817,True,18
122K19,535,experiment,54,←,left,←,0.5526580000296235,True,18
122K19,536,experiment,13,←,left,←,1.4906637999229133,True,18
122K19,537,experiment,58,→,left,←,0.6100697999354452,False,18
122K19,538,experiment,37,←,left,←,0.48230129992589355,True,18
122K19,539,experiment,53,→,right,→,0.6366534000262618,True,18
122K19,540,experiment,28,↑,up,↑,0.5856389999389648,True,18
122K19,541,training,47,↓,up,↑,0.7133970998693258,False,18
122K19,542,training,28,←,right,→,0.6908302002120763,False,18
122K19,543,experiment,32,→,left,←,0.5230874998960644,False,18
122K19,544,experiment,44,↓,down,↓,1.2179525999817997,True,18
122K19,545,experiment,51,↓,down,↓,0.6648427001200616,True,18
122K19,546,experiment,19,→,right,→,0.6260442999191582,True,18
122K19,547,experiment,59,←,left,←,0.4831103999167681,True,18
122K19,548,experiment,17,↑,up,↑,1.0051446999423206,True,18
122K19,549,experiment,20,←,right,→,0.6248982001561671,False,18
122K19,550,experiment,43,↑,up,↑,0.6363589998800308,True,18
122K19,551,experiment,27,↑,up,↑,0.7697993000037968,True,18
122K19,552,experiment,34,↓,down,↓,0.7254788000136614,True,18
122K19,553,experiment,54,←,left,←,0.613847800064832,True,18
122K19,554,experiment,22,←,left,←,0.655217899940908,True,18
122K19,555,experiment,49,→,left,←,0.701583799906075,False,18
122K19,556,experiment,35,↑,up,↑,0.5391855998896062,True,18
122K19,557,experiment,15,←,right,→,0.7325919999275357,False,18
122K19,558,experiment,39,→,right,→,0.6861173999495804,True,18
122K19,559,experiment,60,↓,down,↓,0.596058800118044,True,18
122K19,560,experiment,42,↑,up,↑,1.2726821000687778,True,18
122K19,561,experiment,41,↓,down,↓,0.7801773999817669,True,18
122K19,562,experiment,38,↓,right,→,0.7004252998158336,False,18
122K19,563,experiment,40,↑,down,↓,0.622670300072059,False,18
122K19,564,experiment,14,↑,up,↑,0.6453497998882085,True,18
122K19,565,experiment,26,↑,up,↑,0.6435429002158344,True,18
122K19,566,experiment,18,←,left,←,0.6136299998033792,True,18
122K19,567,experiment,24,↑,up,↑,0.7258150998968631,True,18
122K19,568,experiment,55,→,right,→,0.6695055000018328,True,18
122K19,569,experiment,47,↓,up,↑,0.8524791998788714,False,18
122K19,570,experiment,53,↓,down,↓,0.6804804001003504,True,18
122K19,571,experiment,29,↓,down,↓,0.6344997999258339,True,18
122K19,572,experiment,37,↓,down,↓,0.6253978000022471,True,18
122K19,573,experiment,16,←,left,←,0.7187757999636233,True,18
122K19,574,experiment,50,→,right,→,0.5697830999270082,True,18
122K19,575,experiment,31,↓,down,↓,0.5992572999093682,True,18
122K19,576,experiment,33,↓,down,↓,0.7302905002143234,True,18
122K19,577,experiment,25,→,right,→,0.6369803000707179,True,18
122K19,578,experiment,21,→,right,→,0.57437579985708,True,18
122K19,579,experiment,52,←,left,←,0.7980583000462502,True,18
122K19,580,experiment,23,←,right,→,0.6556249000132084,False,18
122K19,581,experiment,30,↓,down,↓,0.5385182001627982,True,18
122K19,582,experiment,28,↑,up,↑,0.731261899927631,True,18
122K19,583,experiment,56,←,up,↑,0.018339599948376417,False,18
122K19,584,experiment,13,←,left,←,0.7976304998155683,True,18
122K19,585,experiment,46,→,right,→,0.5599927001167089,True,18
122K19,586,experiment,48,↑,up,↑,0.6668843999505043,True,18
122K19,587,experiment,45,↑,up,↑,0.6353834001347423,True,18
122K19,588,experiment,57,↓,up,↑,0.677160499850288,False,18
122K19,589,experiment,58,→,right,→,0.5086757999379188,True,18
122K19,590,experiment,36,↑,up,↑,0.5294888000935316,True,18
