PART_ID,Trial_no,Trial_type,CSI,Stim_letter,Key_pressed,letter_choose,Rt,Corr,Stimulus Time
125K20,1,training,60,←,no_key,no_letter,-1.0,False,30
125K20,2,training,60,→,right,→,0.8629693000111729,True,30
125K20,3,training,60,←,left,←,1.0052472001407295,True,30
125K20,4,training,60,↓,down,↓,0.7707865999545902,True,30
125K20,5,training,60,↑,up,↑,0.7392923000734299,True,30
125K20,6,training,60,→,left,←,0.5840670000761747,False,30
125K20,7,training,60,↑,up,↑,0.8525839000940323,True,30
125K20,8,training,60,↓,down,↓,0.7220503001008183,True,30
125K20,9,training,60,→,right,→,0.5339343000669032,True,30
125K20,10,training,60,↑,up,↑,0.8139625999610871,True,30
125K20,11,training,60,→,right,→,0.8766168998554349,True,30
125K20,12,training,60,→,right,→,1.288544800132513,True,30
125K20,13,training,60,←,right,→,0.5838605999015272,False,30
125K20,14,training,60,←,left,←,0.5672995999921113,True,30
125K20,15,training,60,←,right,→,1.3319180000107735,False,30
125K20,16,training,60,←,left,←,0.5833908999338746,True,30
125K20,17,training,60,↑,up,↑,0.6333910000976175,True,30
125K20,18,training,60,→,right,→,0.4996292998548597,True,30
125K20,19,training,60,→,right,→,0.5507100000977516,True,30
125K20,20,training,60,←,left,←,0.5837255998048931,True,30
125K20,21,training,60,←,left,←,0.6552806999534369,True,18
125K20,22,training,60,↑,up,↑,0.644532399950549,True,18
125K20,23,training,60,↓,down,↓,0.697903900174424,True,18
125K20,24,training,60,↓,down,↓,0.669196599861607,True,18
125K20,25,training,60,→,right,→,0.6660569999366999,True,18
125K20,26,training,60,↑,up,↑,0.6549086000304669,True,18
125K20,27,training,60,↓,down,↓,0.5002947000321001,True,18
125K20,28,training,60,←,left,←,0.9912248998880386,True,18
125K20,29,training,60,↓,down,↓,0.6551385000348091,True,18
125K20,30,training,60,↓,down,↓,0.5805752000305802,True,18
125K20,31,training,60,←,left,←,0.6125298999249935,True,18
125K20,32,training,60,→,right,→,0.6272224998101592,True,18
125K20,33,training,60,←,left,←,0.5453013000078499,True,18
125K20,34,training,60,→,right,→,0.4338981001637876,True,18
125K20,35,training,60,←,left,←,0.775934400036931,True,18
125K20,36,training,60,→,right,→,0.6964869999792427,True,18
125K20,37,training,60,→,left,←,0.5400704999919981,False,18
125K20,38,training,60,↓,down,↓,0.7101493000518531,True,18
125K20,39,training,60,←,left,←,0.5050110002048314,True,18
125K20,40,training,60,←,left,←,0.9721693000756204,True,18
125K20,41,training,24,→,right,→,0.4716531001031399,True,18
125K20,42,training,48,↑,up,↑,0.7399504000786692,True,18
125K20,43,experiment,60,↑,up,↑,1.8864104999229312,True,18
125K20,44,experiment,45,→,right,→,1.069177000084892,True,18
125K20,45,experiment,19,→,right,→,0.8059090999886394,True,18
125K20,46,experiment,30,←,left,←,0.6417471000459045,True,18
125K20,47,experiment,29,↑,up,↑,1.0050780000165105,True,18
125K20,48,experiment,47,↓,down,↓,0.7423338999506086,True,18
125K20,49,experiment,13,↑,up,↑,0.79980230005458,True,18
125K20,50,experiment,24,←,left,←,0.5037426999770105,True,18
125K20,51,experiment,44,↓,up,↑,1.0064783000852913,False,18
125K20,52,experiment,48,←,left,←,0.7664095999207348,True,18
125K20,53,experiment,15,↑,up,↑,0.7900143000297248,True,18
125K20,54,experiment,21,→,right,→,0.7044981999788433,True,18
125K20,55,experiment,26,↓,down,↓,0.7790695999283344,True,18
125K20,56,experiment,52,→,left,←,1.2658077001105994,False,18
125K20,57,experiment,53,↑,up,↑,0.7240939000621438,True,18
125K20,58,experiment,54,↓,down,↓,0.7712087000254542,True,18
125K20,59,experiment,39,→,right,→,0.6664123001974076,True,18
125K20,60,experiment,56,→,left,←,0.5385827999562025,False,18
125K20,61,experiment,23,←,left,←,0.7577154999598861,True,18
125K20,62,experiment,55,↑,up,↑,0.7311856001615524,True,18
125K20,63,experiment,16,↑,up,↑,0.9230728000402451,True,18
125K20,64,experiment,57,→,right,→,0.7523809000849724,True,18
125K20,65,experiment,14,↑,up,↑,0.8333269997965544,True,18
125K20,66,experiment,25,←,left,←,0.7910635001026094,True,18
125K20,67,experiment,46,↓,down,↓,0.8011161999311298,True,18
125K20,68,experiment,27,↓,down,↓,0.8791418999899179,True,18
125K20,69,experiment,42,←,left,←,0.8804565998725593,True,18
125K20,70,experiment,41,↑,right,→,0.9377257998567075,False,18
125K20,71,experiment,51,←,left,←,0.7945258000399917,True,18
125K20,72,experiment,20,↑,up,↑,0.8296865997835994,True,18
125K20,73,experiment,38,↓,down,↓,0.8590035999659449,True,18
125K20,74,experiment,18,↓,down,↓,0.845229199854657,True,18
125K20,75,experiment,50,↑,up,↑,0.7544803000055254,True,18
125K20,76,experiment,36,←,left,←,0.6769059000071138,True,18
125K20,77,experiment,22,←,left,←,0.7709982998203486,True,18
125K20,78,experiment,35,↑,no_key,no_letter,-1.0,False,18
125K20,79,experiment,37,→,right,→,0.5976746999658644,True,18
125K20,80,experiment,49,↑,up,↑,0.5331355999223888,True,18
125K20,81,experiment,28,→,up,↑,1.092966399854049,False,18
125K20,82,experiment,58,↑,up,↑,0.9551864000968635,True,18
125K20,83,experiment,43,↓,no_key,no_letter,-1.0,False,18
125K20,84,experiment,32,↓,no_key,no_letter,-1.0,False,18
125K20,85,experiment,33,→,right,→,0.5197306000627577,True,18
125K20,86,experiment,34,←,right,→,1.7163051997777075,False,18
125K20,87,experiment,17,↑,up,↑,1.0283858000766486,True,18
125K20,88,experiment,59,←,left,←,0.812378800008446,True,18
125K20,89,experiment,31,↑,up,↑,0.8237034999765456,True,18
125K20,90,experiment,40,←,left,←,0.6123537998646498,True,18
125K20,91,training,47,↓,down,↓,0.7619354999624193,True,18
125K20,92,training,53,←,left,←,0.6882364999037236,True,18
125K20,93,experiment,52,↑,no_key,no_letter,-1.0,False,18
125K20,94,experiment,33,↓,down,↓,0.7577202001120895,True,18
125K20,95,experiment,60,↓,down,↓,0.7036403999663889,True,18
125K20,96,experiment,30,←,left,←,0.591889499919489,True,18
125K20,97,experiment,43,↑,up,↑,0.8596749999560416,True,18
125K20,98,experiment,54,←,left,←,0.6698551001027226,True,18
125K20,99,experiment,53,←,left,←,0.6238388000056148,True,18
125K20,100,experiment,19,→,right,→,0.674259299878031,True,18
125K20,101,experiment,49,→,right,→,0.6628250998910517,True,18
125K20,102,experiment,31,↑,up,↑,0.7118357999715954,True,18
125K20,103,experiment,26,→,right,→,0.594325500074774,True,18
125K20,104,experiment,51,↑,up,↑,0.7929431998636574,True,18
125K20,105,experiment,57,↑,up,↑,0.795588199980557,True,18
125K20,106,experiment,41,→,right,→,0.6970442000310868,True,18
125K20,107,experiment,24,↑,up,↑,1.0529554998502135,True,18
125K20,108,experiment,59,→,right,→,0.8835799000225961,True,18
125K20,109,experiment,29,←,left,←,0.6449704999104142,True,18
125K20,110,experiment,35,↑,no_key,no_letter,-1.0,False,18
125K20,111,experiment,50,↑,up,↑,0.9163005999289453,True,18
125K20,112,experiment,34,↓,down,↓,0.641031299950555,True,18
125K20,113,experiment,44,←,left,←,0.5703738001175225,True,18
125K20,114,experiment,37,↑,up,↑,0.49898959998972714,True,18
125K20,115,experiment,58,↑,up,↑,0.4724156998563558,True,18
125K20,116,experiment,42,↑,up,↑,0.5288937999866903,True,18
125K20,117,experiment,40,←,left,←,0.7135439000558108,True,18
125K20,118,experiment,38,↑,up,↑,0.5075933998450637,True,18
125K20,119,experiment,23,←,left,←,0.7441339001525193,True,18
125K20,120,experiment,39,→,right,→,0.7528812999371439,True,18
125K20,121,experiment,47,↓,down,↓,0.6596027999185026,True,18
125K20,122,experiment,13,→,right,→,0.7375982999801636,True,18
125K20,123,experiment,25,↑,up,↑,0.6829574999865144,True,18
125K20,124,experiment,16,←,left,←,0.7009405000135303,True,18
125K20,125,experiment,55,↑,up,↑,0.572171299951151,True,18
125K20,126,experiment,56,→,right,→,0.5042469999752939,True,18
125K20,127,experiment,36,↓,left,←,0.6923571000806987,False,18
125K20,128,experiment,20,→,no_key,no_letter,-1.0,False,18
125K20,129,experiment,27,←,left,←,0.6509612000081688,True,18
125K20,130,experiment,45,→,right,→,0.6108828000724316,True,18
125K20,131,experiment,22,↓,down,↓,0.6281479999888688,True,18
125K20,132,experiment,46,↓,down,↓,0.5489608999341726,True,18
125K20,133,experiment,21,←,no_key,no_letter,-1.0,False,18
125K20,134,experiment,48,←,left,←,0.634502099826932,True,18
125K20,135,experiment,17,↑,up,↑,0.6215456000063568,True,18
125K20,136,experiment,32,←,up,↑,1.2237873000558466,False,18
125K20,137,experiment,15,→,right,→,0.7331067000050098,True,18
125K20,138,experiment,28,↓,no_key,no_letter,-1.0,False,18
125K20,139,experiment,14,↓,down,↓,0.7488655000925064,True,18
125K20,140,experiment,18,↓,down,↓,0.5708699999377131,True,18
125K20,141,training,26,↑,up,↑,0.6987934000790119,True,18
125K20,142,training,57,←,left,←,0.576801999937743,True,18
125K20,143,experiment,42,↑,up,↑,0.502174099907279,True,18
125K20,144,experiment,51,↓,down,↓,0.736706499941647,True,18
125K20,145,experiment,17,→,right,→,0.5995841999538243,True,18
125K20,146,experiment,18,←,left,←,1.627646500011906,True,18
125K20,147,experiment,24,↓,down,↓,0.7147782000247389,True,18
125K20,148,experiment,49,←,left,←,1.3253813998308033,True,18
125K20,149,experiment,52,←,left,←,0.4339038000907749,True,18
125K20,150,experiment,56,←,right,→,0.8787115002050996,False,18
125K20,151,experiment,57,↓,down,↓,0.8621550998650491,True,18
125K20,152,experiment,26,←,left,←,0.7547009000554681,True,18
125K20,153,experiment,41,←,left,←,0.5854259999468923,True,18
125K20,154,experiment,50,↓,down,↓,0.7929532001726329,True,18
125K20,155,experiment,37,↑,no_key,no_letter,-1.0,False,18
125K20,156,experiment,55,←,left,←,0.5735296001657844,True,18
125K20,157,experiment,35,→,left,←,0.4340431001037359,False,18
125K20,158,experiment,33,←,left,←,0.47949420008808374,True,18
125K20,159,experiment,48,↓,down,↓,0.4840275999158621,True,18
125K20,160,experiment,46,↓,down,↓,0.5461802000645548,True,18
125K20,161,experiment,25,↓,down,↓,1.3001056998036802,True,18
125K20,162,experiment,13,↓,down,↓,0.5034383998718113,True,18
125K20,163,experiment,21,→,right,→,1.4536664001643658,True,18
125K20,164,experiment,59,↑,up,↑,0.588020599912852,True,18
125K20,165,experiment,60,↑,up,↑,0.6768065998330712,True,18
125K20,166,experiment,45,↑,up,↑,0.7641467999201268,True,18
125K20,167,experiment,54,→,no_key,no_letter,-1.0,False,18
125K20,168,experiment,19,↓,down,↓,0.6781041999347508,True,18
125K20,169,experiment,27,↑,up,↑,0.7695456000510603,True,18
125K20,170,experiment,36,←,left,←,0.7306812999304384,True,18
125K20,171,experiment,29,↓,down,↓,0.6900541000068188,True,18
125K20,172,experiment,16,↓,no_key,no_letter,-1.0,False,18
125K20,173,experiment,22,↓,down,↓,0.7827111000660807,True,18
125K20,174,experiment,30,↑,up,↑,0.6993795000016689,True,18
125K20,175,experiment,40,←,left,←,0.8688290999270976,True,18
125K20,176,experiment,20,→,no_key,no_letter,-1.0,False,18
125K20,177,experiment,31,→,right,→,0.5137449000030756,True,18
125K20,178,experiment,14,↑,down,↓,0.9152782999444753,False,18
125K20,179,experiment,44,→,right,→,0.8893223002087325,True,18
125K20,180,experiment,43,→,right,→,0.7213563001714647,True,18
125K20,181,experiment,58,←,left,←,1.1180902000050992,True,18
125K20,182,experiment,53,↓,no_key,no_letter,-1.0,False,18
125K20,183,experiment,32,→,right,→,1.5382801999803632,True,18
125K20,184,experiment,39,←,left,←,0.5225865000393242,True,18
125K20,185,experiment,23,→,right,→,0.5589229001197964,True,18
125K20,186,experiment,28,←,left,←,0.5101199001073837,True,18
125K20,187,experiment,38,→,right,→,1.3446915000677109,True,18
125K20,188,experiment,34,↓,down,↓,0.924699499970302,True,18
125K20,189,experiment,15,→,right,→,0.5661729001440108,True,18
125K20,190,experiment,47,↑,up,↑,0.5922214998863637,True,18
125K20,191,training,39,→,right,→,0.6100092001724988,True,18
125K20,192,training,50,→,right,→,1.1366528999060392,True,18
125K20,193,experiment,60,↑,up,↑,0.5392949001397938,True,18
125K20,194,experiment,14,←,left,←,0.6128306998871267,True,18
125K20,195,experiment,29,→,right,→,0.5287616001442075,True,18
125K20,196,experiment,47,↑,up,↑,0.5646871000062674,True,18
125K20,197,experiment,35,←,left,←,0.6305054000113159,True,18
125K20,198,experiment,59,←,left,←,0.6459410998504609,True,18
125K20,199,experiment,33,→,right,→,0.6698535000905395,True,18
125K20,200,experiment,41,←,left,←,0.6559172999113798,True,18
125K20,201,experiment,28,↓,down,↓,0.7713224000763148,True,18
125K20,202,experiment,52,←,left,←,0.6422695000655949,True,18
125K20,203,experiment,40,↑,up,↑,0.5819735999684781,True,18
125K20,204,experiment,48,→,right,→,0.48681990010663867,True,18
125K20,205,experiment,22,↓,down,↓,0.6928691000211984,True,18
125K20,206,experiment,51,←,left,←,0.47956179990433156,True,18
125K20,207,experiment,26,←,left,←,0.4905757999513298,True,18
125K20,208,experiment,20,↓,down,↓,0.7299772000405937,True,18
125K20,209,experiment,32,↑,up,↑,0.8633000999689102,True,18
125K20,210,experiment,56,←,left,←,0.5752792998682708,True,18
125K20,211,experiment,34,↓,down,↓,0.6659727999940515,True,18
125K20,212,experiment,30,↓,left,←,1.1232815999537706,False,18
125K20,213,experiment,43,←,right,→,0.7538830998819321,False,18
125K20,214,experiment,15,←,left,←,0.505951400147751,True,18
125K20,215,experiment,44,↑,up,↑,0.7766483998857439,True,18
125K20,216,experiment,38,↓,no_key,no_letter,-1.0,False,18
125K20,217,experiment,27,↑,up,↑,0.6639664999675006,True,18
125K20,218,experiment,36,↑,up,↑,0.5171723000239581,True,18
125K20,219,experiment,58,←,left,←,0.5299440000671893,True,18
125K20,220,experiment,21,→,right,→,0.6065521999262273,True,18
125K20,221,experiment,46,→,right,→,0.5679558999836445,True,18
125K20,222,experiment,18,←,left,←,0.5332643000874668,True,18
125K20,223,experiment,42,↓,down,↓,0.6518703000620008,True,18
125K20,224,experiment,50,↑,up,↑,0.8165440000593662,True,18
125K20,225,experiment,24,←,left,←,0.903801399981603,True,18
125K20,226,experiment,37,↓,no_key,no_letter,-1.0,False,18
125K20,227,experiment,25,←,left,←,0.6921969000250101,True,18
125K20,228,experiment,19,←,left,←,0.7078756000846624,True,18
125K20,229,experiment,57,↑,up,↑,0.8418403000105172,True,18
125K20,230,experiment,45,↓,down,↓,0.7787623000331223,True,18
125K20,231,experiment,49,↑,up,↑,0.6752218999899924,True,18
125K20,232,experiment,23,→,right,→,0.6812887999694794,True,18
125K20,233,experiment,31,→,right,→,0.5615328000858426,True,18
125K20,234,experiment,54,↑,up,↑,0.6872313998173922,True,18
125K20,235,experiment,13,→,up,↑,1.1391378999687731,False,18
125K20,236,experiment,39,↓,no_key,no_letter,-1.0,False,18
125K20,237,experiment,53,↑,up,↑,0.5938866999931633,True,18
125K20,238,experiment,55,↑,left,←,0.7098383998963982,False,18
125K20,239,experiment,16,←,left,←,0.6712233000434935,True,18
125K20,240,experiment,17,→,right,→,0.7292633999604732,True,18
125K20,241,training,55,←,left,←,0.6080380999483168,True,18
125K20,242,training,43,→,left,←,0.4911476999986917,False,18
125K20,243,experiment,40,↓,down,↓,0.7171241000760347,True,18
125K20,244,experiment,23,↑,up,↑,0.609253500122577,True,18
125K20,245,experiment,30,←,left,←,0.5811127000488341,True,18
125K20,246,experiment,52,←,left,←,1.5071068000979722,True,18
125K20,247,experiment,56,↓,down,↓,0.6577699000481516,True,18
125K20,248,experiment,57,→,right,→,0.8978089999873191,True,18
125K20,249,experiment,33,→,right,→,0.5277322998736054,True,18
125K20,250,experiment,29,↑,up,↑,0.6559643999207765,True,18
125K20,251,experiment,28,↑,up,↑,0.5791607999708503,True,18
125K20,252,experiment,16,↓,down,↓,0.8015016000717878,True,18
125K20,253,experiment,26,←,left,←,0.6237922001164407,True,18
125K20,254,experiment,35,→,right,→,0.5116795001085848,True,18
125K20,255,experiment,46,↓,up,↑,0.5651181000284851,False,18
125K20,256,experiment,18,→,right,→,0.6745389997959137,True,18
125K20,257,experiment,55,↓,down,↓,0.691096699796617,True,18
125K20,258,experiment,20,←,left,←,0.70642269984819,True,18
125K20,259,experiment,37,↑,up,↑,0.6540506000164896,True,18
125K20,260,experiment,60,↑,up,↑,0.5957024998497218,True,18
125K20,261,experiment,48,↓,down,↓,0.5638210999313742,True,18
125K20,262,experiment,32,↑,up,↑,0.6639566000085324,True,18
125K20,263,experiment,17,→,right,→,0.4980062001850456,True,18
125K20,264,experiment,45,↑,up,↑,0.5037997998297215,True,18
125K20,265,experiment,25,↓,down,↓,0.5951326000504196,True,18
125K20,266,experiment,36,→,right,→,1.5640478997956961,True,18
125K20,267,experiment,15,→,right,→,0.5076998998411,True,18
125K20,268,experiment,38,←,left,←,0.7184079000726342,True,18
125K20,269,experiment,50,→,right,→,0.40003550006076694,True,18
125K20,270,experiment,39,↑,up,↑,0.725691300118342,True,18
125K20,271,experiment,42,↓,down,↓,0.5651277999859303,True,18
125K20,272,experiment,47,↑,up,↑,0.5270837000571191,True,18
125K20,273,experiment,19,→,right,→,0.749787800014019,True,18
125K20,274,experiment,58,↓,right,→,0.5050258999690413,False,18
125K20,275,experiment,54,↓,down,↓,0.697122500045225,True,18
125K20,276,experiment,49,↑,down,↓,0.7564336999785155,False,18
125K20,277,experiment,13,↓,up,↑,0.9496857000049204,False,18
125K20,278,experiment,51,↑,up,↑,0.797761800000444,True,18
125K20,279,experiment,44,→,right,→,1.3443678000476211,True,18
125K20,280,experiment,22,↓,down,↓,0.7724664001725614,True,18
125K20,281,experiment,59,↑,up,↑,0.5106521998532116,True,18
125K20,282,experiment,43,↓,down,↓,0.6856255000457168,True,18
125K20,283,experiment,24,←,left,←,0.5463600000366569,True,18
125K20,284,experiment,21,↓,left,←,0.5823401000816375,False,18
125K20,285,experiment,27,↓,down,↓,0.6773369000293314,True,18
125K20,286,experiment,14,↑,up,↑,1.6730965999886394,True,18
125K20,287,experiment,31,→,right,→,0.5936660000588745,True,18
125K20,288,experiment,41,↑,up,↑,0.3840728001669049,True,18
125K20,289,experiment,34,↑,up,↑,0.6484713000245392,True,18
125K20,290,experiment,53,←,no_key,no_letter,-1.0,False,18
125K20,291,training,27,↓,down,↓,0.7917559000197798,True,18
125K20,292,training,20,↑,up,↑,0.49909649998880923,True,18
125K20,293,experiment,57,↑,up,↑,0.5609652998391539,True,18
125K20,294,experiment,42,↓,down,↓,0.6389151001349092,True,18
125K20,295,experiment,52,→,right,→,1.107025499921292,True,18
125K20,296,experiment,17,↓,down,↓,0.6676375998649746,True,18
125K20,297,experiment,22,↓,down,↓,1.1621981000062078,True,18
125K20,298,experiment,29,←,left,←,0.657005500048399,True,18
125K20,299,experiment,53,→,right,→,0.5480223998893052,True,18
125K20,300,experiment,33,↓,down,↓,0.6237118998542428,True,18
125K20,301,experiment,14,↑,up,↑,0.7422513999044895,True,18
125K20,302,experiment,16,↓,down,↓,0.8777775000780821,True,18
125K20,303,experiment,46,↑,up,↑,0.5882967999204993,True,18
125K20,304,experiment,45,→,right,→,0.5669800001196563,True,18
125K20,305,experiment,56,←,left,←,0.6269324999302626,True,18
125K20,306,experiment,15,↑,up,↑,0.6642699001822621,True,18
125K20,307,experiment,47,→,right,→,0.662361399969086,True,18
125K20,308,experiment,25,↑,up,↑,0.85963169997558,True,18
125K20,309,experiment,37,↓,down,↓,0.7688201998826116,True,18
125K20,310,experiment,28,↓,down,↓,0.6239610000047833,True,18
125K20,311,experiment,36,→,right,→,0.5829858998768032,True,18
125K20,312,experiment,59,↑,up,↑,0.7362573000136763,True,18
125K20,313,experiment,27,→,up,↑,0.9529337999410927,False,18
125K20,314,experiment,39,→,right,→,0.6489705999847502,True,18
125K20,315,experiment,35,↑,up,↑,0.831630399916321,True,18
125K20,316,experiment,38,←,left,←,1.1729194999206811,True,18
125K20,317,experiment,60,←,right,→,0.4942799999844283,False,18
125K20,318,experiment,24,↓,down,↓,0.8108145000878721,True,18
125K20,319,experiment,21,↑,up,↑,0.7809596001170576,True,18
125K20,320,experiment,34,→,right,→,0.5109805997926742,True,18
125K20,321,experiment,58,→,right,→,0.6522154998965561,True,18
125K20,322,experiment,48,↑,up,↑,0.4902858999557793,True,18
125K20,323,experiment,30,↑,up,↑,0.5788988000713289,True,18
125K20,324,experiment,23,→,right,→,0.7569625000469387,True,18
125K20,325,experiment,44,↑,up,↑,0.5295468999538571,True,18
125K20,326,experiment,40,↑,up,↑,0.5625418000854552,True,18
125K20,327,experiment,32,↓,down,↓,0.6868784998077899,True,18
125K20,328,experiment,31,→,right,→,0.5429159000050277,True,18
125K20,329,experiment,51,↓,up,↑,0.4722120000515133,False,18
125K20,330,experiment,49,←,left,←,0.49161539995111525,True,18
125K20,331,experiment,54,→,right,→,0.5723066998180002,True,18
125K20,332,experiment,50,→,right,→,0.6124689001590014,True,18
125K20,333,experiment,18,→,right,→,0.6882717001717538,True,18
125K20,334,experiment,26,→,right,→,0.8439377001486719,True,18
125K20,335,experiment,19,←,left,←,1.0375472998712212,True,18
125K20,336,experiment,13,↑,left,←,1.1714902999810874,False,18
125K20,337,experiment,43,↓,left,←,0.8322036999743432,False,18
125K20,338,experiment,20,↓,down,↓,0.7296065001282841,True,18
125K20,339,experiment,41,↓,down,↓,0.7855666000396013,True,18
125K20,340,experiment,55,↓,down,↓,0.5574918000493199,True,18
125K20,341,training,55,←,left,←,0.4014834000263363,True,18
125K20,342,training,58,→,right,→,0.36713010002858937,True,18
125K20,343,experiment,21,↑,right,→,0.834860899951309,False,18
125K20,344,experiment,53,↓,up,↑,0.8861465000081807,False,18
125K20,345,experiment,45,←,left,←,0.7087187999859452,True,18
125K20,346,experiment,41,↑,up,↑,0.6935245001222938,True,18
125K20,347,experiment,28,←,left,←,0.49574100016616285,True,18
125K20,348,experiment,30,↓,down,↓,0.5280971999745816,True,18
125K20,349,experiment,35,↑,up,↑,0.6123856999911368,True,18
125K20,350,experiment,60,↑,up,↑,1.9081619000062346,True,18
125K20,351,experiment,43,↑,up,↑,0.5475119000766426,True,18
125K20,352,experiment,17,↑,up,↑,0.6101126000285149,True,18
125K20,353,experiment,37,↑,up,↑,0.8173418999649584,True,18
125K20,354,experiment,58,→,right,→,0.69049570010975,True,18
125K20,355,experiment,19,↓,down,↓,0.7302266000770032,True,18
125K20,356,experiment,13,↑,up,↑,0.6921777999959886,True,18
125K20,357,experiment,14,→,right,→,0.5115264998748899,True,18
125K20,358,experiment,23,↓,down,↓,0.6361471998970956,True,18
125K20,359,experiment,44,→,left,←,0.6614855001680553,False,18
125K20,360,experiment,49,→,right,→,0.49872399982996285,True,18
125K20,361,experiment,59,↑,up,↑,0.5357104002032429,True,18
125K20,362,experiment,27,↓,down,↓,0.8080821000039577,True,18
125K20,363,experiment,33,←,left,←,0.5460953000001609,True,18
125K20,364,experiment,56,↓,down,↓,0.5268596999812871,True,18
125K20,365,experiment,47,↑,up,↑,0.6507886000908911,True,18
125K20,366,experiment,15,←,left,←,0.742757799802348,True,18
125K20,367,experiment,34,→,right,→,0.7627389999106526,True,18
125K20,368,experiment,57,→,right,→,0.7668860999401659,True,18
125K20,369,experiment,32,→,right,→,0.6426727999933064,True,18
125K20,370,experiment,38,→,right,→,0.6640833001583815,True,18
125K20,371,experiment,42,←,left,←,0.6896091001108289,True,18
125K20,372,experiment,36,→,right,→,0.41659660008735955,True,18
125K20,373,experiment,54,→,right,→,0.8887978000566363,True,18
125K20,374,experiment,51,↑,up,↑,0.8514474001713097,True,18
125K20,375,experiment,48,↑,up,↑,0.6660478000994772,True,18
125K20,376,experiment,26,→,right,→,0.5498115001246333,True,18
125K20,377,experiment,24,←,left,←,0.5276331000495702,True,18
125K20,378,experiment,52,↑,up,↑,0.7522781000006944,True,18
125K20,379,experiment,18,↓,down,↓,0.7021263998467475,True,18
125K20,380,experiment,31,↑,up,↑,0.7254073000513017,True,18
125K20,381,experiment,40,←,left,←,0.6543066999875009,True,18
125K20,382,experiment,20,↑,up,↑,0.5907598999328911,True,18
125K20,383,experiment,46,←,left,←,0.5607904000207782,True,18
125K20,384,experiment,29,↑,up,↑,0.7838856000453234,True,18
125K20,385,experiment,25,←,left,←,0.6554231999907643,True,18
125K20,386,experiment,50,↓,down,↓,0.6120740999467671,True,18
125K20,387,experiment,22,↓,down,↓,0.6776659998577088,True,18
125K20,388,experiment,39,↓,down,↓,0.9452796999830753,True,18
125K20,389,experiment,55,↓,down,↓,0.8066960000433028,True,18
125K20,390,experiment,16,←,left,←,0.6760907999705523,True,18
125K20,391,training,46,←,left,←,1.8354275999590755,True,17
125K20,392,training,27,←,right,→,0.4960540998727083,False,17
125K20,393,experiment,17,↓,down,↓,1.6887843001168221,True,17
125K20,394,experiment,46,↓,down,↓,0.6146336998790503,True,17
125K20,395,experiment,51,←,right,→,0.5320818999316543,False,17
125K20,396,experiment,38,→,right,→,0.6614859001711011,True,17
125K20,397,experiment,16,→,right,→,0.776661500101909,True,17
125K20,398,experiment,60,←,left,←,0.7221749997697771,True,17
125K20,399,experiment,53,←,no_key,no_letter,-1.0,False,17
125K20,400,experiment,34,↓,down,↓,0.5734669999219477,True,17
125K20,401,experiment,39,→,right,→,0.6287318000104278,True,17
125K20,402,experiment,48,←,left,←,0.6439898000098765,True,17
125K20,403,experiment,56,→,right,→,0.5813281000591815,True,17
125K20,404,experiment,28,↓,down,↓,0.6913147999439389,True,17
125K20,405,experiment,30,→,right,→,0.6279895999468863,True,17
125K20,406,experiment,43,←,left,←,0.5187562999781221,True,17
125K20,407,experiment,14,↓,down,↓,0.6169322000350803,True,17
125K20,408,experiment,21,←,left,←,1.1059562000446022,True,17
125K20,409,experiment,23,→,right,→,0.49467750010080636,True,17
125K20,410,experiment,45,→,right,→,0.829299199860543,True,17
125K20,411,experiment,59,↑,right,→,0.9246453000232577,False,17
125K20,412,experiment,29,←,left,←,0.8686315000522882,True,17
125K20,413,experiment,41,←,left,←,0.48695400008000433,True,17
125K20,414,experiment,35,↑,left,←,1.0840034999419004,False,17
125K20,415,experiment,22,↓,down,↓,0.6020158000756055,True,17
125K20,416,experiment,13,→,right,→,0.5852985000237823,True,17
125K20,417,experiment,44,↓,down,↓,0.5889355998951942,True,17
125K20,418,experiment,20,↑,up,↑,0.6639986000955105,True,17
125K20,419,experiment,40,←,left,←,0.650750600034371,True,17
125K20,420,experiment,31,↑,down,↓,1.1079349000938237,False,17
125K20,421,experiment,18,↓,up,↑,1.1800357000902295,False,17
125K20,422,experiment,49,→,right,→,0.459895099978894,True,17
125K20,423,experiment,57,←,no_key,no_letter,-1.0,False,17
125K20,424,experiment,47,↑,up,↑,0.7499806000851095,True,17
125K20,425,experiment,26,↑,up,↑,0.45539469993673265,True,17
125K20,426,experiment,32,←,left,←,0.6627167998813093,True,17
125K20,427,experiment,15,↓,down,↓,0.754485399927944,True,17
125K20,428,experiment,42,↑,up,↑,0.8479555998928845,True,17
125K20,429,experiment,33,↑,up,↑,0.5759715000167489,True,17
125K20,430,experiment,25,→,right,→,0.6967102000489831,True,17
125K20,431,experiment,50,↑,up,↑,0.7073349000420421,True,17
125K20,432,experiment,55,→,left,←,0.5466517000459135,False,17
125K20,433,experiment,27,→,right,→,1.3392853999976069,True,17
125K20,434,experiment,52,↑,up,↑,0.5232657000888139,True,17
125K20,435,experiment,19,↑,up,↑,0.537886300124228,True,17
125K20,436,experiment,37,→,right,→,0.555942399892956,True,17
125K20,437,experiment,36,↑,up,↑,0.58989920001477,True,17
125K20,438,experiment,54,↓,up,↑,1.0185656999237835,False,17
125K20,439,experiment,24,←,right,→,0.47391710011288524,False,17
125K20,440,experiment,58,↑,up,↑,0.7688058000057936,True,17
125K20,441,training,37,↓,down,↓,0.7864790998864919,True,17
125K20,442,training,42,←,left,←,0.5031927998643368,True,17
125K20,443,experiment,21,→,right,→,1.597782599972561,True,17
125K20,444,experiment,53,→,right,→,0.7141235000453889,True,17
125K20,445,experiment,55,←,left,←,0.3999905998352915,True,17
125K20,446,experiment,49,←,left,←,0.5272672998253256,True,17
125K20,447,experiment,48,→,right,→,0.682570000179112,True,17
125K20,448,experiment,30,→,right,→,0.49923170008696616,True,17
125K20,449,experiment,42,↑,right,→,0.8351885001175106,False,17
125K20,450,experiment,43,←,left,←,0.6211890999693424,True,17
125K20,451,experiment,32,↑,up,↑,0.4552167998626828,True,17
125K20,452,experiment,39,↑,up,↑,0.5225012998562306,True,17
125K20,453,experiment,41,←,left,←,0.40061999997124076,True,17
125K20,454,experiment,25,←,left,←,0.47322749998420477,True,17
125K20,455,experiment,40,↓,down,↓,1.0918968999758363,True,17
125K20,456,experiment,59,→,right,→,0.5534402001649141,True,17
125K20,457,experiment,35,→,right,→,0.6118152001872659,True,17
125K20,458,experiment,17,→,left,←,0.5367652999702841,False,17
125K20,459,experiment,52,←,left,←,0.8647879001218826,True,17
125K20,460,experiment,16,→,right,→,0.46729380008764565,True,17
125K20,461,experiment,57,↑,up,↑,0.5064842000138015,True,17
125K20,462,experiment,20,↑,up,↑,0.6813169000670314,True,17
125K20,463,experiment,29,→,right,→,0.754755400121212,True,17
125K20,464,experiment,46,↑,up,↑,1.2937765999231488,True,17
125K20,465,experiment,14,→,up,↑,0.7132097999565303,False,17
125K20,466,experiment,60,↑,up,↑,0.556483400054276,True,17
125K20,467,experiment,33,↓,down,↓,0.6255471000913531,True,17
125K20,468,experiment,45,→,right,→,0.5698241000063717,True,17
125K20,469,experiment,56,↓,down,↓,0.6619096000213176,True,17
125K20,470,experiment,51,→,right,→,0.72180309984833,True,17
125K20,471,experiment,44,↓,down,↓,0.583759100176394,True,17
125K20,472,experiment,54,→,right,→,0.7406885998789221,True,17
125K20,473,experiment,36,↑,up,↑,0.6952294001821429,True,17
125K20,474,experiment,13,→,right,→,0.7153302999213338,True,17
125K20,475,experiment,28,↑,down,↓,0.9319879999384284,False,17
125K20,476,experiment,22,←,left,←,0.7357942999806255,True,17
125K20,477,experiment,15,↓,down,↓,0.7684092000126839,True,17
125K20,478,experiment,31,→,right,→,0.6051132001448423,True,17
125K20,479,experiment,18,↑,up,↑,0.7451274001505226,True,17
125K20,480,experiment,50,→,right,→,0.4984228000976145,True,17
125K20,481,experiment,24,←,right,→,0.4868212998844683,False,17
125K20,482,experiment,38,→,right,→,0.45802849996834993,True,17
125K20,483,experiment,26,↓,left,←,0.5740970000624657,False,17
125K20,484,experiment,58,→,right,→,0.5129883999470621,True,17
125K20,485,experiment,34,←,left,←,0.6851632001344115,True,17
125K20,486,experiment,27,→,right,→,0.5918084001168609,True,17
125K20,487,experiment,23,↓,down,↓,0.6571999997831881,True,17
125K20,488,experiment,37,↑,up,↑,0.7424399999435991,True,17
125K20,489,experiment,19,←,down,↓,0.868618099950254,False,17
125K20,490,experiment,47,↑,up,↑,0.6345168999396265,True,17
125K20,491,training,14,→,right,→,0.8698596998583525,True,17
125K20,492,training,22,↑,up,↑,0.3867455997969955,True,17
125K20,493,experiment,24,↓,down,↓,0.6444494999013841,True,17
125K20,494,experiment,52,↓,down,↓,0.6084451000206172,True,17
125K20,495,experiment,13,→,right,→,0.38398859999142587,True,17
125K20,496,experiment,41,←,left,←,0.5246810000389814,True,17
125K20,497,experiment,47,↑,up,↑,0.5925284000113606,True,17
125K20,498,experiment,59,←,down,↓,0.5377619999926537,False,17
125K20,499,experiment,58,←,left,←,0.6057462999597192,True,17
125K20,500,experiment,39,↓,down,↓,0.7317421999759972,True,17
125K20,501,experiment,37,→,right,→,0.45430040010251105,True,17
125K20,502,experiment,21,←,left,←,0.605061799986288,True,17
125K20,503,experiment,43,↑,up,↑,0.504412499954924,True,17
125K20,504,experiment,57,→,up,↑,1.150389799848199,False,17
125K20,505,experiment,19,←,left,←,0.6037872999440879,True,17
125K20,506,experiment,27,→,right,→,0.6418199001345783,True,17
125K20,507,experiment,31,→,right,→,0.4599178000353277,True,17
125K20,508,experiment,16,↓,no_key,no_letter,-1.0,False,17
125K20,509,experiment,25,↑,up,↑,0.6397298001684248,True,17
125K20,510,experiment,38,←,left,←,1.8610845999792218,True,17
125K20,511,experiment,20,↑,up,↑,0.6940562000963837,True,17
125K20,512,experiment,18,↑,up,↑,0.5504441999364644,True,17
125K20,513,experiment,36,↑,up,↑,0.4966482000891119,True,17
125K20,514,experiment,30,↓,right,→,0.8324534001294523,False,17
125K20,515,experiment,56,→,right,→,1.2496791000012308,True,17
125K20,516,experiment,42,↑,up,↑,0.7077349999453872,True,17
125K20,517,experiment,54,↑,up,↑,0.49178650020621717,True,17
125K20,518,experiment,55,↓,up,↑,0.8515934001188725,False,17
125K20,519,experiment,46,↓,down,↓,0.6442304998636246,True,17
125K20,520,experiment,49,↓,down,↓,0.497040499933064,True,17
125K20,521,experiment,28,→,right,→,0.5143502000719309,True,17
125K20,522,experiment,23,→,right,→,0.4622902001719922,True,17
125K20,523,experiment,17,←,left,←,0.6082809001673013,True,17
125K20,524,experiment,33,←,left,←,0.6343706999905407,True,17
125K20,525,experiment,26,←,left,←,0.5357949000317603,True,17
125K20,526,experiment,32,→,right,→,0.6450331998057663,True,17
125K20,527,experiment,22,←,right,→,0.501132900128141,False,17
125K20,528,experiment,40,↑,up,↑,0.6623109001666307,True,17
125K20,529,experiment,60,↑,up,↑,0.548323400085792,True,17
125K20,530,experiment,15,←,left,←,0.7250371999107301,True,17
125K20,531,experiment,34,↑,up,↑,0.7610317000653595,True,17
125K20,532,experiment,29,→,right,→,0.6155982001218945,True,17
125K20,533,experiment,14,↑,left,←,0.7817011999431998,False,17
125K20,534,experiment,50,↑,up,↑,0.5810105998534709,True,17
125K20,535,experiment,48,→,left,←,0.5416573998518288,False,17
125K20,536,experiment,35,→,right,→,0.49710829998366535,True,17
125K20,537,experiment,44,↓,down,↓,0.8157788999378681,True,17
125K20,538,experiment,53,↑,up,↑,0.8997138000559062,True,17
125K20,539,experiment,45,↓,down,↓,0.7375411000102758,True,17
125K20,540,experiment,51,→,right,→,0.7383389000315219,True,17
125K20,541,training,17,↓,down,↓,0.6816172001417726,True,17
125K20,542,training,15,↑,up,↑,0.7163288998417556,True,17
125K20,543,experiment,29,→,right,→,0.996375200105831,True,17
125K20,544,experiment,31,→,right,→,0.5849220000673085,True,17
125K20,545,experiment,26,↓,down,↓,0.6716115002054721,True,17
125K20,546,experiment,20,↑,up,↑,0.5677565999794751,True,17
125K20,547,experiment,35,↑,up,↑,1.1858226999174803,True,17
125K20,548,experiment,18,←,left,←,0.5105670001357794,True,17
125K20,549,experiment,37,↑,up,↑,0.6897192001342773,True,17
125K20,550,experiment,57,↓,down,↓,0.6963155998382717,True,17
125K20,551,experiment,49,↑,up,↑,0.5636844001710415,True,17
125K20,552,experiment,42,↑,up,↑,0.6736582000739872,True,17
125K20,553,experiment,41,↓,down,↓,0.6756460999604315,True,17
125K20,554,experiment,60,→,right,→,0.720907700015232,True,17
125K20,555,experiment,21,→,right,→,1.6706742998212576,True,17
125K20,556,experiment,30,→,right,→,0.8236116000916809,True,17
125K20,557,experiment,56,←,left,←,0.5458867000415921,True,17
125K20,558,experiment,47,↓,down,↓,0.612978900084272,True,17
125K20,559,experiment,54,←,left,←,1.2721739001572132,True,17
125K20,560,experiment,27,→,right,→,0.6276231000665575,True,17
125K20,561,experiment,24,→,right,→,0.6909163999371231,True,17
125K20,562,experiment,22,→,right,→,0.5692290998995304,True,17
125K20,563,experiment,43,←,right,→,0.7896263001020998,False,17
125K20,564,experiment,16,→,right,→,0.643623000010848,True,17
125K20,565,experiment,44,↓,down,↓,0.8290325000416487,True,17
125K20,566,experiment,32,↑,up,↑,0.6712313999887556,True,17
125K20,567,experiment,53,←,left,←,0.6812105998396873,True,17
125K20,568,experiment,19,↑,up,↑,0.9849303001537919,True,17
125K20,569,experiment,40,→,right,→,0.6069406000897288,True,17
125K20,570,experiment,13,↑,up,↑,0.686553199775517,True,17
125K20,571,experiment,58,↓,down,↓,0.7483496000058949,True,17
125K20,572,experiment,34,↓,down,↓,0.48759929998777807,True,17
125K20,573,experiment,45,←,left,←,0.5263109998777509,True,17
125K20,574,experiment,39,→,right,→,0.5038028000853956,True,17
125K20,575,experiment,28,↑,up,↑,0.6649505000095814,True,17
125K20,576,experiment,50,←,up,↑,0.6130016001407057,False,17
125K20,577,experiment,55,↓,down,↓,0.7598840999417007,True,17
125K20,578,experiment,17,→,right,→,0.7427227001171559,True,17
125K20,579,experiment,48,↓,down,↓,0.7128230999223888,True,17
125K20,580,experiment,25,↓,down,↓,0.4681879999116063,True,17
125K20,581,experiment,23,↓,down,↓,0.5942096998915076,True,17
125K20,582,experiment,52,↓,down,↓,0.5921972999349236,True,17
125K20,583,experiment,33,↓,down,↓,0.9868544999044389,True,17
125K20,584,experiment,38,→,right,→,0.5385007001459599,True,17
125K20,585,experiment,59,→,right,→,0.5817962000146508,True,17
125K20,586,experiment,51,→,right,→,0.41728710010647774,True,17
125K20,587,experiment,14,→,up,↑,0.8655093000270426,False,17
125K20,588,experiment,46,←,no_key,no_letter,-1.0,False,17
125K20,589,experiment,36,↑,left,←,1.0422239999752492,False,17
125K20,590,experiment,15,←,left,←,0.5751302000135183,True,17
