PART_ID,Trial_no,Trial_type,CSI,Stim_letter,Key_pressed,letter_choose,Rt,Corr,Stimulus Time
135K27,1,training,60,→,no_key,no_letter,-1.0,False,30
135K27,2,training,60,↑,up,↑,2.0710607999935746,True,30
135K27,3,training,60,↑,up,↑,2.1023939000442624,True,30
135K27,4,training,60,↓,down,↓,1.5237195000518113,True,30
135K27,5,training,60,→,right,→,1.4495177001226693,True,30
135K27,6,training,60,↓,down,↓,1.0795259999576956,True,30
135K27,7,training,60,↑,up,↑,1.077541199978441,True,30
135K27,8,training,60,→,right,→,1.00317190005444,True,30
135K27,9,training,60,←,left,←,1.036545000039041,True,30
135K27,10,training,60,↑,up,↑,1.132604000158608,True,30
135K27,11,training,60,↑,up,↑,0.9201370000373572,True,30
135K27,12,training,60,→,right,→,1.068328500026837,True,30
135K27,13,training,60,↓,down,↓,1.5787827000021935,True,30
135K27,14,training,60,↓,no_key,no_letter,-1.0,False,30
135K27,15,training,60,→,right,→,1.0640732001047581,True,30
135K27,16,training,60,↑,up,↑,1.262378100072965,True,30
135K27,17,training,60,→,right,→,1.293060400057584,True,30
135K27,18,training,60,→,right,→,1.1862530000507832,True,30
135K27,19,training,60,←,left,←,1.380016899900511,True,30
135K27,20,training,60,→,right,→,1.045947799924761,True,30
135K27,21,training,60,↑,up,↑,1.0808990998193622,True,18
135K27,22,training,60,←,left,←,1.0942477001808584,True,18
135K27,23,training,60,↓,down,↓,0.8674731000792235,True,18
135K27,24,training,60,→,right,→,0.993627900024876,True,18
135K27,25,training,60,←,left,←,1.0029380999039859,True,18
135K27,26,training,60,↓,down,↓,0.9398821999784559,True,18
135K27,27,training,60,←,left,←,1.1196800000034273,True,18
135K27,28,training,60,→,right,→,0.7481770999729633,True,18
135K27,29,training,60,←,left,←,0.8151821000501513,True,18
135K27,30,training,60,↑,up,↑,0.7196184999775141,True,18
135K27,31,training,60,↓,down,↓,0.7635898001026362,True,18
135K27,32,training,60,→,left,←,0.8300958999898285,False,18
135K27,33,training,60,↑,up,↑,0.7099130998831242,True,18
135K27,34,training,60,←,left,←,0.6341901998966932,True,18
135K27,35,training,60,→,right,→,0.7773760999552906,True,18
135K27,36,training,60,←,left,←,0.979183099931106,True,18
135K27,37,training,60,↑,up,↑,0.6454698999878019,True,18
135K27,38,training,60,→,left,←,0.8999159000813961,False,18
135K27,39,training,60,↑,up,↑,1.1449253999162465,True,18
135K27,40,training,60,←,left,←,1.1962906001135707,True,18
135K27,41,training,59,←,left,←,0.7916236999444664,True,18
135K27,42,training,49,←,left,←,0.848923500161618,True,18
135K27,43,experiment,60,→,right,→,0.8718439999502152,True,18
135K27,44,experiment,51,←,left,←,0.6612458999734372,True,18
135K27,45,experiment,24,←,left,←,0.7151349999476224,True,18
135K27,46,experiment,19,↓,down,↓,0.8988367000129074,True,18
135K27,47,experiment,32,→,right,→,0.682429000036791,True,18
135K27,48,experiment,18,↓,down,↓,0.7399098000023514,True,18
135K27,49,experiment,42,↑,up,↑,0.5795611999928951,True,18
135K27,50,experiment,36,↑,up,↑,0.7176919998601079,True,18
135K27,51,experiment,17,↓,down,↓,0.7982640000991523,True,18
135K27,52,experiment,23,→,right,→,0.7917789001949131,True,18
135K27,53,experiment,16,→,left,←,0.9585629000794142,False,18
135K27,54,experiment,40,→,right,→,0.7032196000218391,True,18
135K27,55,experiment,57,→,right,→,0.7341090999543667,True,18
135K27,56,experiment,39,↓,down,↓,0.6319945000577718,True,18
135K27,57,experiment,56,←,left,←,0.7783240999560803,True,18
135K27,58,experiment,15,↓,down,↓,0.8585012999828905,True,18
135K27,59,experiment,41,←,left,←,0.7659973001573235,True,18
135K27,60,experiment,52,→,right,→,0.605946599971503,True,18
135K27,61,experiment,44,←,left,←,0.5454174000769854,True,18
135K27,62,experiment,29,↓,down,↓,0.8254064000211656,True,18
135K27,63,experiment,46,→,right,→,0.7791291999164969,True,18
135K27,64,experiment,45,↓,down,↓,0.6711359000764787,True,18
135K27,65,experiment,48,↓,down,↓,0.5493813999928534,True,18
135K27,66,experiment,50,↑,up,↑,0.5990438999142498,True,18
135K27,67,experiment,26,→,right,→,0.8066255000885576,True,18
135K27,68,experiment,54,→,right,→,1.5157465999945998,True,18
135K27,69,experiment,34,↓,down,↓,0.6335911999922246,True,18
135K27,70,experiment,13,→,right,→,0.688376700039953,True,18
135K27,71,experiment,27,←,left,←,0.755798599915579,True,18
135K27,72,experiment,28,→,right,→,0.7397933998145163,True,18
135K27,73,experiment,53,↓,down,↓,0.6604684998746961,True,18
135K27,74,experiment,58,↑,down,↓,0.6608694000169635,False,18
135K27,75,experiment,20,↑,down,↓,0.9341214001178741,False,18
135K27,76,experiment,33,→,right,→,0.6278671999461949,True,18
135K27,77,experiment,59,↓,down,↓,0.6608221000060439,True,18
135K27,78,experiment,38,↑,up,↑,0.7784108000341803,True,18
135K27,79,experiment,22,←,left,←,0.6780574000440538,True,18
135K27,80,experiment,21,→,left,←,0.742040199926123,False,18
135K27,81,experiment,25,↑,up,↑,0.6010677001904696,True,18
135K27,82,experiment,43,→,left,←,0.845159700140357,False,18
135K27,83,experiment,37,↑,up,↑,0.5404420997947454,True,18
135K27,84,experiment,49,→,right,→,0.8631421001628041,True,18
135K27,85,experiment,30,←,left,←,0.6736101000569761,True,18
135K27,86,experiment,55,→,right,→,0.8271311998832971,True,18
135K27,87,experiment,14,→,left,←,0.7781092000659555,False,18
135K27,88,experiment,35,↓,down,↓,0.748868599999696,True,18
135K27,89,experiment,47,←,right,→,0.793309000087902,False,18
135K27,90,experiment,31,↑,up,↑,0.5817694999277592,True,18
135K27,91,training,25,→,right,→,0.671993600204587,True,18
135K27,92,training,35,↑,up,↑,0.7908046999946237,True,18
135K27,93,experiment,37,→,right,→,0.6557632000185549,True,18
135K27,94,experiment,47,↑,up,↑,0.655649600084871,True,18
135K27,95,experiment,43,←,right,→,0.6897805000189692,False,18
135K27,96,experiment,35,↑,up,↑,0.6482394998893142,True,18
135K27,97,experiment,46,→,right,→,0.6243877001106739,True,18
135K27,98,experiment,53,↑,up,↑,0.6212977000977844,True,18
135K27,99,experiment,16,←,right,→,0.8508862000890076,False,18
135K27,100,experiment,59,↑,up,↑,0.650597000028938,True,18
135K27,101,experiment,24,↓,down,↓,0.585636300034821,True,18
135K27,102,experiment,44,↑,up,↑,0.68592180009,True,18
135K27,103,experiment,17,←,left,←,0.6636924999766052,True,18
135K27,104,experiment,51,←,left,←,0.5164982001297176,True,18
135K27,105,experiment,21,↑,left,←,1.8742144999559969,False,18
135K27,106,experiment,54,←,left,←,0.6051046000793576,True,18
135K27,107,experiment,58,↓,down,↓,0.9754371999297291,True,18
135K27,108,experiment,60,↓,down,↓,0.7303108000196517,True,18
135K27,109,experiment,57,↓,up,↑,0.952787899877876,False,18
135K27,110,experiment,55,←,left,←,0.8152748001739383,True,18
135K27,111,experiment,13,↑,up,↑,0.6952607999555767,True,18
135K27,112,experiment,14,↓,down,↓,0.6907992998603731,True,18
135K27,113,experiment,19,→,right,→,0.7635059000458568,True,18
135K27,114,experiment,56,↓,down,↓,0.8250355999916792,True,18
135K27,115,experiment,39,→,left,←,0.7188544000964612,False,18
135K27,116,experiment,28,←,left,←,0.7929128999821842,True,18
135K27,117,experiment,25,↓,down,↓,0.793299000011757,True,18
135K27,118,experiment,33,→,right,→,0.8608396002091467,True,18
135K27,119,experiment,22,↓,down,↓,0.8129773000255227,True,18
135K27,120,experiment,27,↑,down,↓,1.059520199894905,False,18
135K27,121,experiment,41,←,left,←,0.7510073999874294,True,18
135K27,122,experiment,26,←,left,←,0.6087450000923127,True,18
135K27,123,experiment,36,←,left,←,0.6414771000854671,True,18
135K27,124,experiment,49,←,left,←,0.520775199867785,True,18
135K27,125,experiment,18,→,left,←,0.6567725001368672,False,18
135K27,126,experiment,31,→,left,←,0.8266946000512689,False,18
135K27,127,experiment,52,→,left,←,0.8244539999868721,False,18
135K27,128,experiment,42,↑,down,↓,0.8449025000445545,False,18
135K27,129,experiment,38,→,right,→,0.6994102001190186,True,18
135K27,130,experiment,50,→,left,←,0.8071649000048637,False,18
135K27,131,experiment,45,↓,down,↓,0.7861413999926299,True,18
135K27,132,experiment,23,←,left,←,0.7081445001531392,True,18
135K27,133,experiment,29,→,right,→,0.7417069000657648,True,18
135K27,134,experiment,15,←,right,→,0.8471357000526041,False,18
135K27,135,experiment,40,←,left,←,0.6597398000303656,True,18
135K27,136,experiment,20,→,right,→,0.6768761998973787,True,18
135K27,137,experiment,48,↓,down,↓,0.6674828000832349,True,18
135K27,138,experiment,34,↑,down,↓,0.8510688999667764,False,18
135K27,139,experiment,30,↑,up,↑,0.5498442000243813,True,18
135K27,140,experiment,32,←,left,←,0.6434421001467854,True,18
135K27,141,training,51,↓,left,←,0.9128028000704944,False,18
135K27,142,training,17,↓,down,↓,0.7145285001024604,True,18
135K27,143,experiment,17,↑,up,↑,0.795361700002104,True,18
135K27,144,experiment,35,↓,down,↓,0.6216084000188857,True,18
135K27,145,experiment,31,↑,up,↑,0.488944600103423,True,18
135K27,146,experiment,21,→,right,→,0.8167135000694543,True,18
135K27,147,experiment,19,↓,down,↓,0.8279343000613153,True,18
135K27,148,experiment,18,←,down,↓,1.0079046001192182,False,18
135K27,149,experiment,52,→,right,→,1.0226682000793517,True,18
135K27,150,experiment,50,→,left,←,0.8216014998033643,False,18
135K27,151,experiment,56,↓,left,←,0.9847360998392105,False,18
135K27,152,experiment,46,↓,down,↓,0.7400448999833316,True,18
135K27,153,experiment,13,↓,down,↓,0.5589203000999987,True,18
135K27,154,experiment,40,↓,down,↓,0.719534199917689,True,18
135K27,155,experiment,49,←,left,←,0.5949562999885529,True,18
135K27,156,experiment,36,→,left,←,0.4684969000518322,False,18
135K27,157,experiment,27,→,left,←,0.6559629000257701,False,18
135K27,158,experiment,47,←,left,←,0.5593214998953044,True,18
135K27,159,experiment,37,↑,down,↓,0.8974360001739115,False,18
135K27,160,experiment,55,→,left,←,0.6580552998930216,False,18
135K27,161,experiment,53,↓,down,↓,1.1018793999683112,True,18
135K27,162,experiment,26,←,right,→,0.6335487999022007,False,18
135K27,163,experiment,44,↑,up,↑,1.2278026998974383,True,18
135K27,164,experiment,58,←,right,→,0.7258635999169201,False,18
135K27,165,experiment,30,←,left,←,0.7659084999468178,True,18
135K27,166,experiment,20,←,left,←,0.898682399885729,True,18
135K27,167,experiment,60,↓,down,↓,0.7038011997938156,True,18
135K27,168,experiment,34,→,left,←,0.734366400167346,False,18
135K27,169,experiment,16,↓,down,↓,0.9588552000932395,True,18
135K27,170,experiment,43,↓,down,↓,0.6453598001971841,True,18
135K27,171,experiment,15,←,left,←,0.6749358999077231,True,18
135K27,172,experiment,45,↓,down,↓,0.9072044000495225,True,18
135K27,173,experiment,29,↑,up,↑,0.6126572000794113,True,18
135K27,174,experiment,25,↑,down,↓,0.7329812999814749,False,18
135K27,175,experiment,22,↓,down,↓,0.6737911000382155,True,18
135K27,176,experiment,48,→,right,→,0.6480344999581575,True,18
135K27,177,experiment,59,↓,down,↓,0.8878190000541508,True,18
135K27,178,experiment,14,←,left,←,0.8041427000425756,True,18
135K27,179,experiment,38,↑,down,↓,0.9721184999216348,False,18
135K27,180,experiment,33,↓,down,↓,0.8078679000027478,True,18
135K27,181,experiment,23,↑,down,↓,0.7294389000162482,False,18
135K27,182,experiment,28,←,left,←,0.7544693001545966,True,18
135K27,183,experiment,42,↓,down,↓,0.8893206999637187,True,18
135K27,184,experiment,51,→,left,←,0.6850391000043601,False,18
135K27,185,experiment,24,↑,up,↑,0.6989603000693023,True,18
135K27,186,experiment,54,←,left,←,0.7396341999992728,True,18
135K27,187,experiment,39,↓,down,↓,0.9333530000876635,True,18
135K27,188,experiment,41,←,left,←,0.7177623000461608,True,18
135K27,189,experiment,57,←,left,←,1.020406600087881,True,18
135K27,190,experiment,32,↓,down,↓,0.5911524000111967,True,18
135K27,191,training,55,←,left,←,0.6880153000820428,True,18
135K27,192,training,48,→,right,→,0.8298868001438677,True,18
135K27,193,experiment,36,↑,up,↑,0.7013832998927683,True,18
135K27,194,experiment,47,←,left,←,0.6829955999273807,True,18
135K27,195,experiment,17,→,right,→,0.789019700139761,True,18
135K27,196,experiment,43,→,left,←,0.9139239001087844,False,18
135K27,197,experiment,20,→,left,←,0.8410701998509467,False,18
135K27,198,experiment,40,←,left,←,0.6540670997928828,True,18
135K27,199,experiment,13,←,right,→,0.8521336000412703,False,18
135K27,200,experiment,46,→,right,→,0.6445320998318493,True,18
135K27,201,experiment,49,→,right,→,0.6035962000023574,True,18
135K27,202,experiment,28,←,right,→,0.7697523001115769,False,18
135K27,203,experiment,58,↑,up,↑,0.6052452002186328,True,18
135K27,204,experiment,15,↑,up,↑,0.5879485998302698,True,18
135K27,205,experiment,57,↑,up,↑,0.5197503000963479,True,18
135K27,206,experiment,18,↓,down,↓,0.7599078000057489,True,18
135K27,207,experiment,23,←,right,→,0.8271820999216288,False,18
135K27,208,experiment,42,↑,up,↑,0.8156152998562902,True,18
135K27,209,experiment,32,↓,down,↓,0.7306133999954909,True,18
135K27,210,experiment,25,→,left,←,0.8056696001440287,False,18
135K27,211,experiment,22,←,left,←,0.7118410000111908,True,18
135K27,212,experiment,33,↑,up,↑,0.7186798001639545,True,18
135K27,213,experiment,19,←,left,←,0.6299753000494093,True,18
135K27,214,experiment,54,↑,up,↑,0.5457029999233782,True,18
135K27,215,experiment,44,→,right,→,0.6321409000083804,True,18
135K27,216,experiment,29,↓,down,↓,0.7560155000537634,True,18
135K27,217,experiment,45,↑,up,↑,0.6333386001642793,True,18
135K27,218,experiment,24,↑,up,↑,0.6726883000228554,True,18
135K27,219,experiment,59,↓,down,↓,0.919838200090453,True,18
135K27,220,experiment,41,↓,down,↓,0.9286301999818534,True,18
135K27,221,experiment,48,↓,down,↓,0.6852951000910252,True,18
135K27,222,experiment,31,↓,no_key,no_letter,-1.0,False,18
135K27,223,experiment,16,←,left,←,1.4700344000011683,True,18
135K27,224,experiment,34,↑,up,↑,0.5662300998810679,True,18
135K27,225,experiment,60,←,left,←,0.7764096001628786,True,18
135K27,226,experiment,53,↓,down,↓,1.0157181001268327,True,18
135K27,227,experiment,50,→,right,→,0.7589397998526692,True,18
135K27,228,experiment,56,→,right,→,0.6684077000245452,True,18
135K27,229,experiment,37,→,right,→,0.7060623997822404,True,18
135K27,230,experiment,21,←,left,←,0.7207144999410957,True,18
135K27,231,experiment,30,↓,down,↓,0.8012141999788582,True,18
135K27,232,experiment,35,←,left,←,0.6510642000939697,True,18
135K27,233,experiment,27,↓,down,↓,1.05579200014472,True,18
135K27,234,experiment,14,↓,down,↓,1.7092222000937909,True,18
135K27,235,experiment,38,→,no_key,no_letter,-1.0,False,18
135K27,236,experiment,51,↓,right,→,1.2424531001597643,False,18
135K27,237,experiment,26,←,right,→,0.9288166998885572,False,18
135K27,238,experiment,39,→,right,→,0.9311494999565184,True,18
135K27,239,experiment,55,↑,right,→,1.0662171998992562,False,18
135K27,240,experiment,52,←,left,←,1.1503761999774724,True,18
135K27,241,training,50,↓,down,↓,0.6366234999150038,True,18
135K27,242,training,55,↑,up,↑,1.0234446001704782,True,18
135K27,243,experiment,13,↑,up,↑,0.711004100041464,True,18
135K27,244,experiment,50,↑,up,↑,0.5306921999435872,True,18
135K27,245,experiment,25,→,right,→,0.7494839001446962,True,18
135K27,246,experiment,43,→,right,→,0.787777999881655,True,18
135K27,247,experiment,29,↓,down,↓,1.0821665001567453,True,18
135K27,248,experiment,53,↓,down,↓,0.8846275000832975,True,18
135K27,249,experiment,40,↑,up,↑,0.6559431001078337,True,18
135K27,250,experiment,48,→,right,→,0.7026575000490993,True,18
135K27,251,experiment,22,↑,up,↑,0.7246844999026507,True,18
135K27,252,experiment,46,↓,down,↓,1.0427449000999331,True,18
135K27,253,experiment,23,→,right,→,0.8513571000657976,True,18
135K27,254,experiment,17,←,no_key,no_letter,-1.0,False,18
135K27,255,experiment,26,↓,down,↓,0.7197458001319319,True,18
135K27,256,experiment,27,↑,up,↑,0.6425880000460893,True,18
135K27,257,experiment,15,↑,up,↑,0.5275451999623328,True,18
135K27,258,experiment,14,→,up,↑,0.317128999857232,False,18
135K27,259,experiment,41,→,right,→,0.6423782999627292,True,18
135K27,260,experiment,56,↑,up,↑,0.7087882999330759,True,18
135K27,261,experiment,18,↓,right,→,1.1175075999926776,False,18
135K27,262,experiment,44,←,left,←,1.2924633000511676,True,18
135K27,263,experiment,24,←,right,→,0.8422968999948353,False,18
135K27,264,experiment,33,↓,right,→,1.180170200066641,False,18
135K27,265,experiment,32,←,left,←,0.976344499969855,True,18
135K27,266,experiment,21,↑,up,↑,0.6925604999996722,True,18
135K27,267,experiment,54,←,right,→,0.726507700048387,False,18
135K27,268,experiment,49,←,left,←,0.7299943000543863,True,18
135K27,269,experiment,20,←,right,→,1.313073799945414,False,18
135K27,270,experiment,36,←,left,←,0.8220677999779582,True,18
135K27,271,experiment,42,↑,right,→,1.642378699965775,False,18
135K27,272,experiment,60,→,right,→,1.0506806999910623,True,18
135K27,273,experiment,34,←,left,←,0.9873025000561029,True,18
135K27,274,experiment,57,↓,left,←,0.9991983999498188,False,18
135K27,275,experiment,55,←,left,←,0.77972919982858,True,18
135K27,276,experiment,51,→,right,→,0.7552030000369996,True,18
135K27,277,experiment,59,←,right,→,0.6790883000940084,False,18
135K27,278,experiment,31,→,up,↑,1.0328065000940114,False,18
135K27,279,experiment,28,↓,down,↓,0.7898860999848694,True,18
135K27,280,experiment,37,↓,down,↓,0.8708130999002606,True,18
135K27,281,experiment,58,↓,right,→,1.2464350999798626,False,18
135K27,282,experiment,16,↑,left,←,0.8750873999670148,False,18
135K27,283,experiment,35,←,left,←,0.873882899992168,True,18
135K27,284,experiment,19,↓,down,↓,0.9160490001086146,True,18
135K27,285,experiment,39,↑,up,↑,0.510113500058651,True,18
135K27,286,experiment,45,↓,down,↓,0.900904200039804,True,18
135K27,287,experiment,52,↑,up,↑,0.607375199906528,True,18
135K27,288,experiment,38,→,right,→,0.8786918998230249,True,18
135K27,289,experiment,30,↑,up,↑,0.8090575998649001,True,18
135K27,290,experiment,47,←,no_key,no_letter,-1.0,False,18
135K27,291,training,13,←,right,→,1.2376798000186682,False,18
135K27,292,training,24,↓,down,↓,1.0531140000093728,True,18
135K27,293,experiment,24,↓,down,↓,0.988118400098756,True,18
135K27,294,experiment,51,↓,down,↓,0.6761555001139641,True,18
135K27,295,experiment,28,↓,right,→,0.9034955999813974,False,18
135K27,296,experiment,56,→,right,→,0.4712830998469144,True,18
135K27,297,experiment,18,↑,right,→,1.0009002999868244,False,18
135K27,298,experiment,55,↓,down,↓,0.7254208000376821,True,18
135K27,299,experiment,48,←,left,←,0.8016118998639286,True,18
135K27,300,experiment,23,←,left,←,0.6670327000319958,True,18
135K27,301,experiment,47,→,right,→,0.65029659983702,True,18
135K27,302,experiment,44,↑,up,↑,0.7639292001258582,True,18
135K27,303,experiment,26,→,right,→,0.6928447000682354,True,18
135K27,304,experiment,42,↓,down,↓,0.7901955000124872,True,18
135K27,305,experiment,16,←,up,↑,0.9173387000337243,False,18
135K27,306,experiment,27,↑,up,↑,0.7595651000738144,True,18
135K27,307,experiment,17,→,no_key,no_letter,-1.0,False,18
135K27,308,experiment,35,→,right,→,0.8263970999978483,True,18
135K27,309,experiment,33,→,right,→,0.5646460000425577,True,18
135K27,310,experiment,19,→,right,→,0.8899596999399364,True,18
135K27,311,experiment,36,↓,right,→,1.487942999927327,False,18
135K27,312,experiment,46,→,no_key,no_letter,-1.0,False,18
135K27,313,experiment,53,↑,right,→,0.5748152998276055,False,18
135K27,314,experiment,22,→,right,→,0.7944451000075787,True,18
135K27,315,experiment,52,↓,down,↓,1.009267200017348,True,18
135K27,316,experiment,14,↑,up,↑,0.9850081999320537,True,18
135K27,317,experiment,40,↑,up,↑,0.6560929000843316,True,18
135K27,318,experiment,15,↓,down,↓,0.8208794000092894,True,18
135K27,319,experiment,58,←,left,←,0.5346795001532882,True,18
135K27,320,experiment,32,→,right,→,0.7727900999598205,True,18
135K27,321,experiment,54,→,right,→,0.5311721998732537,True,18
135K27,322,experiment,37,↑,right,→,0.8218723000027239,False,18
135K27,323,experiment,30,↓,down,↓,0.7143101000692695,True,18
135K27,324,experiment,50,↓,down,↓,0.6373650999739766,True,18
135K27,325,experiment,34,→,right,→,1.8781004999764264,True,18
135K27,326,experiment,59,↑,down,↓,1.0056973998434842,False,18
135K27,327,experiment,21,↑,up,↑,0.984637200133875,True,18
135K27,328,experiment,20,↓,up,↑,1.1653923001140356,False,18
135K27,329,experiment,31,←,left,←,0.7788748999591917,True,18
135K27,330,experiment,45,→,left,←,0.9111128998920321,False,18
135K27,331,experiment,39,→,left,←,0.9383523999713361,False,18
135K27,332,experiment,57,↑,right,→,1.4322075999807566,False,18
135K27,333,experiment,38,→,right,→,0.8469698000699282,True,18
135K27,334,experiment,49,↓,left,←,0.7730660000815988,False,18
135K27,335,experiment,41,↓,down,↓,0.9960766001604497,True,18
135K27,336,experiment,13,←,left,←,1.7962372999172658,True,18
135K27,337,experiment,60,↓,down,↓,0.8061138999182731,True,18
135K27,338,experiment,29,↑,down,↓,0.7715444997884333,False,18
135K27,339,experiment,25,↓,down,↓,0.7332852000836283,True,18
135K27,340,experiment,43,←,right,→,0.9160522001329809,False,18
135K27,341,training,13,←,left,←,0.6667140000499785,True,18
135K27,342,training,49,←,left,←,0.5925243000965565,True,18
135K27,343,experiment,53,←,left,←,0.5186306999530643,True,18
135K27,344,experiment,60,↓,down,↓,0.819219599943608,True,18
135K27,345,experiment,42,→,right,→,0.5276350998319685,True,18
135K27,346,experiment,23,←,left,←,0.6040356999728829,True,18
135K27,347,experiment,47,↓,down,↓,0.7657667000312358,True,18
135K27,348,experiment,44,↓,down,↓,0.6107590000610799,True,18
135K27,349,experiment,16,→,right,→,0.761058900039643,True,18
135K27,350,experiment,22,→,right,→,0.5729111998807639,True,18
135K27,351,experiment,31,←,left,←,0.5626101000234485,True,18
135K27,352,experiment,28,↓,down,↓,0.6665403998922557,True,18
135K27,353,experiment,55,→,right,→,0.620567699894309,True,18
135K27,354,experiment,20,↓,down,↓,0.5996762998402119,True,18
135K27,355,experiment,58,↓,down,↓,0.6095822001807392,True,18
135K27,356,experiment,51,←,right,→,0.7129373999778181,False,18
135K27,357,experiment,26,←,right,→,0.779892300022766,False,18
135K27,358,experiment,17,←,left,←,0.5947304998990148,True,18
135K27,359,experiment,18,↑,up,↑,0.6883278000168502,True,18
135K27,360,experiment,49,↓,down,↓,0.8452840000391006,True,18
135K27,361,experiment,27,↑,down,↓,0.7386956999544054,False,18
135K27,362,experiment,57,→,right,→,0.5847885999828577,True,18
135K27,363,experiment,46,↓,down,↓,0.5794087001122534,True,18
135K27,364,experiment,43,→,right,→,0.6643261001445353,True,18
135K27,365,experiment,41,→,right,→,0.771487700054422,True,18
135K27,366,experiment,14,←,right,→,0.7560793999582529,False,18
135K27,367,experiment,35,↓,down,↓,0.6640707000624388,True,18
135K27,368,experiment,38,↓,down,↓,0.620864599943161,True,18
135K27,369,experiment,24,↓,down,↓,0.684833399951458,True,18
135K27,370,experiment,32,↑,down,↓,1.285080499947071,False,18
135K27,371,experiment,36,←,left,←,1.0749810999259353,True,18
135K27,372,experiment,15,→,no_key,no_letter,-1.0,False,18
135K27,373,experiment,21,←,left,←,0.8205017999280244,True,18
135K27,374,experiment,39,→,right,→,0.9543379000388086,True,18
135K27,375,experiment,56,↑,up,↑,1.200403899885714,True,18
135K27,376,experiment,54,←,right,→,0.7816085000522435,False,18
135K27,377,experiment,50,↓,down,↓,0.814003299921751,True,18
135K27,378,experiment,25,←,no_key,no_letter,-1.0,False,18
135K27,379,experiment,52,→,left,←,1.1179448999464512,False,18
135K27,380,experiment,40,↓,no_key,no_letter,-1.0,False,18
135K27,381,experiment,33,↑,right,→,0.8524553999304771,False,18
135K27,382,experiment,19,↓,down,↓,0.6707254000939429,True,18
135K27,383,experiment,30,↓,no_key,no_letter,-1.0,False,18
135K27,384,experiment,45,→,left,←,1.9178310001734644,False,18
135K27,385,experiment,13,→,left,←,1.385776299983263,False,18
135K27,386,experiment,37,↑,up,↑,0.5950760999694467,True,18
135K27,387,experiment,29,↓,up,↑,0.6094660998787731,False,18
135K27,388,experiment,48,←,left,←,0.6340988001320511,True,18
135K27,389,experiment,59,↑,down,↓,0.6824652999639511,False,18
135K27,390,experiment,34,↑,down,↓,0.6656047999858856,False,18
135K27,391,training,15,→,right,→,0.806568699888885,True,18
135K27,392,training,58,↓,down,↓,0.7606848999857903,True,18
135K27,393,experiment,60,→,left,←,0.7319644000381231,False,18
135K27,394,experiment,29,↑,left,←,1.5404014000669122,False,18
135K27,395,experiment,44,→,no_key,no_letter,-1.0,False,18
135K27,396,experiment,19,↑,left,←,1.4412819999270141,False,18
135K27,397,experiment,49,←,right,→,0.8086276000831276,False,18
135K27,398,experiment,32,→,left,←,0.8040716999676079,False,18
135K27,399,experiment,38,↓,down,↓,0.6919796001166105,True,18
135K27,400,experiment,59,↓,down,↓,0.7701803999952972,True,18
135K27,401,experiment,54,→,right,→,0.768741900101304,True,18
135K27,402,experiment,25,←,left,←,0.9062232999131083,True,18
135K27,403,experiment,58,←,right,→,0.7124660999979824,False,18
135K27,404,experiment,13,↑,down,↓,0.9729116000235081,False,18
135K27,405,experiment,48,→,right,→,0.7194087998941541,True,18
135K27,406,experiment,22,→,right,→,0.5645320999901742,True,18
135K27,407,experiment,55,→,right,→,0.8027343000285327,True,18
135K27,408,experiment,57,←,left,←,0.7254620001185685,True,18
135K27,409,experiment,18,↓,left,←,1.029775899834931,False,18
135K27,410,experiment,40,→,right,→,0.7306774000171572,True,18
135K27,411,experiment,26,←,left,←,0.7171285999938846,True,18
135K27,412,experiment,21,←,left,←,1.7149616999085993,True,18
135K27,413,experiment,28,←,right,→,0.9410143999848515,False,18
135K27,414,experiment,34,↑,up,↑,0.5701210999395698,True,18
135K27,415,experiment,20,←,right,→,1.1028175000101328,False,18
135K27,416,experiment,42,←,left,←,1.3683239000383765,True,18
135K27,417,experiment,14,←,left,←,0.7452584998682141,True,18
135K27,418,experiment,30,←,left,←,1.096828900044784,True,18
135K27,419,experiment,36,↑,up,↑,0.6062285997904837,True,18
135K27,420,experiment,52,↓,up,↑,0.5564633999019861,False,18
135K27,421,experiment,31,↑,down,↓,0.5713286001700908,False,18
135K27,422,experiment,17,↑,up,↑,0.5528574001509696,True,18
135K27,423,experiment,39,→,right,→,0.7858023999724537,True,18
135K27,424,experiment,16,←,right,→,1.024555099895224,False,18
135K27,425,experiment,33,→,up,↑,1.0029689001385123,False,18
135K27,426,experiment,45,→,right,→,0.7579800998792052,True,18
135K27,427,experiment,47,↑,up,↑,0.8658780001569539,True,18
135K27,428,experiment,27,↓,left,←,1.598577099852264,False,18
135K27,429,experiment,56,→,right,→,0.786454200046137,True,18
135K27,430,experiment,24,↓,left,←,1.172002299921587,False,18
135K27,431,experiment,37,←,left,←,0.9577419999986887,True,18
135K27,432,experiment,53,↓,down,↓,0.6213511999230832,True,18
135K27,433,experiment,15,↑,down,↓,0.8755270999390632,False,18
135K27,434,experiment,50,↓,down,↓,0.7128539998084307,True,18
135K27,435,experiment,41,→,right,→,0.7456114999949932,True,18
135K27,436,experiment,43,←,left,←,0.6725826000329107,True,18
135K27,437,experiment,51,→,down,↓,1.0448968999553472,False,18
135K27,438,experiment,46,→,right,→,0.70202980004251,True,18
135K27,439,experiment,35,↓,down,↓,0.65984410000965,True,18
135K27,440,experiment,23,↓,down,↓,0.6192015998531133,True,18
135K27,441,training,56,→,right,→,0.6085983000230044,True,18
135K27,442,training,26,↑,left,←,1.7761157997883856,False,18
135K27,443,experiment,32,↑,up,↑,0.7572296999860555,True,18
135K27,444,experiment,55,↑,up,↑,0.851869799895212,True,18
135K27,445,experiment,30,←,left,←,0.807184400036931,True,18
135K27,446,experiment,31,↓,down,↓,0.7713629000354558,True,18
135K27,447,experiment,50,←,right,→,0.8201553001999855,False,18
135K27,448,experiment,36,↓,down,↓,0.7005208001937717,True,18
135K27,449,experiment,27,↑,up,↑,0.5112031998578459,True,18
135K27,450,experiment,13,→,right,→,1.0273621999658644,True,18
135K27,451,experiment,53,↓,down,↓,0.8403787999413908,True,18
135K27,452,experiment,48,→,right,→,0.6162908000405878,True,18
135K27,453,experiment,46,↓,right,→,1.3856911000330001,False,18
135K27,454,experiment,20,→,right,→,0.8222023001872003,True,18
135K27,455,experiment,25,→,left,←,0.9016647001262754,False,18
135K27,456,experiment,45,↓,left,←,0.8850956000387669,False,18
135K27,457,experiment,51,→,no_key,no_letter,-1.0,False,18
135K27,458,experiment,60,→,right,→,0.8201097000855953,True,18
135K27,459,experiment,24,↓,left,←,1.355956400046125,False,18
135K27,460,experiment,14,↓,left,←,0.6778144999407232,False,18
135K27,461,experiment,49,↑,left,←,0.0504599001724273,False,18
135K27,462,experiment,28,→,right,→,0.6859397999942303,True,18
135K27,463,experiment,18,←,left,←,1.0548435000237077,True,18
135K27,464,experiment,38,←,left,←,0.6690809999126941,True,18
135K27,465,experiment,22,←,left,←,0.8119877001736313,True,18
135K27,466,experiment,35,↑,up,↑,0.7497454998083413,True,18
135K27,467,experiment,56,↓,down,↓,1.1075840999837965,True,18
135K27,468,experiment,26,↑,down,↓,1.1110702001024038,False,18
135K27,469,experiment,16,↑,down,↓,0.9774216001387686,False,18
135K27,470,experiment,57,→,right,→,0.7899394000414759,True,18
135K27,471,experiment,15,↓,down,↓,1.1574783001560718,True,18
135K27,472,experiment,39,↓,down,↓,0.8145270000677556,True,18
135K27,473,experiment,17,→,right,→,1.723479500040412,True,18
135K27,474,experiment,54,↑,right,→,0.732568500097841,False,18
135K27,475,experiment,42,←,left,←,0.7322480999864638,True,18
135K27,476,experiment,29,↑,up,↑,0.8847425000276417,True,18
135K27,477,experiment,41,→,right,→,0.6148113000672311,True,18
135K27,478,experiment,23,↓,up,↑,0.9194959001615644,False,18
135K27,479,experiment,59,↓,down,↓,0.6287748001050204,True,18
135K27,480,experiment,37,←,left,←,0.7962558001745492,True,18
135K27,481,experiment,47,↓,down,↓,0.702110500074923,True,18
135K27,482,experiment,52,↓,down,↓,0.760552000021562,True,18
135K27,483,experiment,34,↓,down,↓,0.6445428000297397,True,18
135K27,484,experiment,40,↑,up,↑,0.7773932002019137,True,18
135K27,485,experiment,33,↓,down,↓,0.7337216001469642,True,18
135K27,486,experiment,43,↑,up,↑,0.6526494999416173,True,18
135K27,487,experiment,19,↓,down,↓,0.6389673999510705,True,18
135K27,488,experiment,44,→,left,←,0.6651736998464912,False,18
135K27,489,experiment,58,←,right,→,0.7448503999039531,False,18
135K27,490,experiment,21,↓,down,↓,0.8382872000802308,True,18
135K27,491,training,60,↓,down,↓,1.095626400085166,True,18
135K27,492,training,24,↓,down,↓,0.5654585999436677,True,18
135K27,493,experiment,24,←,right,→,0.6953461999073625,False,18
135K27,494,experiment,28,→,right,→,0.5544290000107139,True,18
135K27,495,experiment,57,→,right,→,0.7191837998107076,True,18
135K27,496,experiment,31,↓,down,↓,0.5747887000907212,True,18
135K27,497,experiment,60,→,down,↓,0.7133065999951214,False,18
135K27,498,experiment,16,↓,down,↓,0.6587527999654412,True,18
135K27,499,experiment,36,←,left,←,0.67377829994075,True,18
135K27,500,experiment,39,→,left,←,0.605656900210306,False,18
135K27,501,experiment,50,↑,up,↑,0.7733948999084532,True,18
135K27,502,experiment,18,↓,down,↓,0.7875575998332351,True,18
135K27,503,experiment,30,↓,down,↓,0.5771073999349028,True,18
135K27,504,experiment,26,←,left,←,0.6258513000793755,True,18
135K27,505,experiment,41,↑,up,↑,0.6470525001641363,True,18
135K27,506,experiment,42,→,right,→,0.6099727000109851,True,18
135K27,507,experiment,46,↑,up,↑,0.9242639997974038,True,18
135K27,508,experiment,23,←,right,→,0.6729949999134988,False,18
135K27,509,experiment,34,←,right,→,0.6565115000121295,False,18
135K27,510,experiment,17,→,right,→,0.5719558999408036,True,18
135K27,511,experiment,19,→,right,→,1.0413294001482427,True,18
135K27,512,experiment,15,↓,down,↓,0.8311459999531507,True,18
135K27,513,experiment,49,←,right,→,0.670238200109452,False,18
135K27,514,experiment,27,↑,up,↑,0.5941536999307573,True,18
135K27,515,experiment,35,↓,up,↑,0.7964986001607031,False,18
135K27,516,experiment,58,↑,up,↑,0.7908715000376105,True,18
135K27,517,experiment,54,↓,down,↓,0.9808704999741167,True,18
135K27,518,experiment,43,↓,down,↓,0.6737974998541176,True,18
135K27,519,experiment,51,↑,up,↑,0.7186157999094576,True,18
135K27,520,experiment,20,↑,up,↑,0.941175099927932,True,18
135K27,521,experiment,21,↑,up,↑,0.7145713001955301,True,18
135K27,522,experiment,13,←,right,→,0.8380134999752045,False,18
135K27,523,experiment,53,↑,down,↓,0.8424434999469668,False,18
135K27,524,experiment,32,←,left,←,0.6446482001338154,True,18
135K27,525,experiment,40,↑,up,↑,0.6016122000291944,True,18
135K27,526,experiment,33,↓,up,↑,0.6924317998345941,False,18
135K27,527,experiment,52,↑,up,↑,0.6634431998245418,True,18
135K27,528,experiment,22,↓,up,↑,0.7276043000165373,False,18
135K27,529,experiment,55,↓,down,↓,0.6386964002158493,True,18
135K27,530,experiment,25,←,left,←,0.6216710999142379,True,18
135K27,531,experiment,56,↓,down,↓,0.6006463998928666,True,18
135K27,532,experiment,38,→,right,→,0.6961475999560207,True,18
135K27,533,experiment,44,←,left,←,0.6237376001663506,True,18
135K27,534,experiment,29,↓,down,↓,0.7248484001029283,True,18
135K27,535,experiment,14,←,left,←,0.6794378000777215,True,18
135K27,536,experiment,47,←,right,→,0.6144658999983221,False,18
135K27,537,experiment,45,←,left,←,0.9604863000568002,True,18
135K27,538,experiment,59,←,right,→,0.6287846001796424,False,18
135K27,539,experiment,37,↓,down,↓,0.6847327998839319,True,18
135K27,540,experiment,48,←,left,←,0.6340204000007361,True,18
135K27,541,training,49,←,left,←,0.9240171001292765,True,18
135K27,542,training,18,↑,left,←,0.9081465001218021,False,18
135K27,543,experiment,20,↓,down,↓,0.5634347999002784,True,18
135K27,544,experiment,34,←,right,→,0.5912919000256807,False,18
135K27,545,experiment,48,↓,left,←,0.5206073999870569,False,18
135K27,546,experiment,15,↑,up,↑,0.7065274000633508,True,18
135K27,547,experiment,56,→,right,→,0.5866574000101537,True,18
135K27,548,experiment,31,↑,up,↑,0.5515328999608755,True,18
135K27,549,experiment,51,↑,up,↑,0.6641222001053393,True,18
135K27,550,experiment,33,←,left,←,0.5992321998346597,True,18
135K27,551,experiment,17,↓,down,↓,0.6207183001097292,True,18
135K27,552,experiment,38,→,right,→,0.5635810999665409,True,18
135K27,553,experiment,18,←,left,←,0.5296005001291633,True,18
135K27,554,experiment,52,→,right,→,0.6426399999763817,True,18
135K27,555,experiment,36,↓,down,↓,0.7941802002023906,True,18
135K27,556,experiment,21,←,right,→,0.6534776000771672,False,18
135K27,557,experiment,19,→,right,→,0.6477258000522852,True,18
135K27,558,experiment,26,→,right,→,0.8370533999986947,True,18
135K27,559,experiment,57,→,right,→,0.9190842998214066,True,18
135K27,560,experiment,50,↑,up,↑,0.8420287999324501,True,18
135K27,561,experiment,46,←,left,←,1.0672061999794096,True,18
135K27,562,experiment,13,↓,down,↓,0.7288510999642313,True,18
135K27,563,experiment,49,↓,down,↓,0.6603302999865264,True,18
135K27,564,experiment,44,→,right,→,0.8222078001126647,True,18
135K27,565,experiment,35,↑,up,↑,0.6550104001071304,True,18
135K27,566,experiment,47,←,left,←,1.0866354000754654,True,18
135K27,567,experiment,43,←,left,←,0.8078241001348943,True,18
135K27,568,experiment,25,↓,down,↓,0.7920403000898659,True,18
135K27,569,experiment,16,↑,up,↑,0.6069532998371869,True,18
135K27,570,experiment,30,←,left,←,1.115969399921596,True,18
135K27,571,experiment,29,→,right,→,0.6366459000855684,True,18
135K27,572,experiment,23,←,no_key,no_letter,-1.0,False,18
135K27,573,experiment,22,←,left,←,0.8488967998418957,True,18
135K27,574,experiment,45,←,left,←,0.9305959998164326,True,18
135K27,575,experiment,59,↑,up,↑,0.7344110999256372,True,18
135K27,576,experiment,60,→,right,→,0.8985970001667738,True,18
135K27,577,experiment,41,→,right,→,0.8040438999887556,True,18
135K27,578,experiment,39,←,left,←,0.7633146001026034,True,18
135K27,579,experiment,27,←,left,←,0.7479403999168426,True,18
135K27,580,experiment,53,↑,no_key,no_letter,-1.0,False,18
135K27,581,experiment,37,↓,right,→,1.189954600064084,False,18
135K27,582,experiment,28,↑,up,↑,0.6852015999611467,True,18
135K27,583,experiment,55,→,up,↑,0.710357200121507,False,18
135K27,584,experiment,58,↑,left,←,1.8125620998907834,False,18
135K27,585,experiment,14,←,right,→,0.4759396999143064,False,18
135K27,586,experiment,40,↓,left,←,0.49467329983599484,False,18
135K27,587,experiment,24,←,right,→,0.7720348001457751,False,18
135K27,588,experiment,32,↑,down,↓,0.5693333998788148,False,18
135K27,589,experiment,54,↑,down,↓,0.9035232998430729,False,18
135K27,590,experiment,42,←,left,←,1.0965470999944955,True,18
