PART_ID,Trial_no,Trial_type,CSI,Stim_letter,Key_pressed,letter_choose,Rt,Corr,Stimulus Time
14K19,1,training,60,↓,no_key,no_letter,-1.0,False,30
14K19,2,training,60,↓,no_key,no_letter,-1.0,False,30
14K19,3,training,60,↑,no_key,no_letter,-1.0,False,30
14K19,4,training,60,→,no_key,no_letter,-1.0,False,30
14K19,5,training,60,↑,no_key,no_letter,-1.0,False,30
14K19,6,training,60,←,no_key,no_letter,-1.0,False,30
14K19,7,training,60,→,up,↑,1.2629826999618672,False,30
14K19,8,training,60,↓,down,↓,1.1396639000158757,True,30
14K19,9,training,60,←,left,←,0.829457099956926,True,30
14K19,10,training,60,↓,down,↓,0.7558865000028163,True,30
14K19,11,training,60,←,left,←,0.7409618999809027,True,30
14K19,12,training,60,→,left,←,0.6006055999896489,False,30
14K19,13,training,60,→,right,→,1.149610800028313,True,30
14K19,14,training,60,→,right,→,1.822879399987869,True,30
14K19,15,training,60,↓,down,↓,1.1814535000012256,True,30
14K19,16,training,60,→,right,→,0.74933580000652,True,30
14K19,17,training,60,←,right,→,0.5669003999792039,False,30
14K19,18,training,60,→,left,←,0.7426997000002302,False,30
14K19,19,training,60,←,left,←,0.7449294000398368,True,30
14K19,20,training,60,↑,right,→,0.753983500006143,False,30
14K19,21,training,60,↑,up,↑,0.8023010999895632,True,18
14K19,22,training,60,↑,up,↑,0.841347899986431,True,18
14K19,23,training,60,↑,up,↑,0.8066708000260405,True,18
14K19,24,training,60,→,right,→,0.8219871000037529,True,18
14K19,25,training,60,→,left,←,0.9807052999967709,False,18
14K19,26,training,60,↓,down,↓,0.9725032999995165,True,18
14K19,27,training,60,↑,up,↑,1.125300999963656,True,18
14K19,28,training,60,↑,down,↓,0.9120398000231944,False,18
14K19,29,training,60,↑,up,↑,0.8826022000284865,True,18
14K19,30,training,60,↓,down,↓,0.7507744000176899,True,18
14K19,31,training,60,→,right,→,0.6961599999922328,True,18
14K19,32,training,60,←,left,←,0.8031871000421233,True,18
14K19,33,training,60,↓,down,↓,1.3786028000176884,True,18
14K19,34,training,60,←,left,←,0.7706327000050806,True,18
14K19,35,training,60,→,right,→,0.6114920999971218,True,18
14K19,36,training,60,↑,up,↑,0.6340015000314452,True,18
14K19,37,training,60,↑,up,↑,0.7040797999943607,True,18
14K19,38,training,60,→,right,→,0.691195199964568,True,18
14K19,39,training,60,↑,up,↑,0.7275097999954596,True,18
14K19,40,training,60,←,up,↑,0.5535766999819316,False,18
14K19,41,training,34,↓,down,↓,0.9393148000235669,True,18
14K19,42,training,16,→,right,→,0.7711761000100523,True,18
14K19,43,experiment,46,↑,down,↓,0.8700790999573655,False,18
14K19,44,experiment,60,↑,up,↑,0.6994009999907576,True,18
14K19,45,experiment,14,↓,down,↓,1.2221333000343293,True,18
14K19,46,experiment,53,←,left,←,0.625885899993591,True,18
14K19,47,experiment,55,→,right,→,0.6529009999940172,True,18
14K19,48,experiment,54,↓,down,↓,0.7506476999842562,True,18
14K19,49,experiment,48,↑,up,↑,0.8565732999704778,True,18
14K19,50,experiment,20,←,left,←,0.6731571999844164,True,18
14K19,51,experiment,26,→,right,→,0.6930942999897525,True,18
14K19,52,experiment,33,→,left,←,0.5399780999869108,False,18
14K19,53,experiment,19,↑,down,↓,1.3780571999959648,False,18
14K19,54,experiment,44,↑,up,↑,0.9098601000150666,True,18
14K19,55,experiment,27,←,left,←,0.5837988000130281,True,18
14K19,56,experiment,21,↓,down,↓,1.1544717000215314,True,18
14K19,57,experiment,58,↑,up,↑,0.6218275999999605,True,18
14K19,58,experiment,37,↓,down,↓,0.9005559999495745,True,18
14K19,59,experiment,45,↓,down,↓,0.7065388999762945,True,18
14K19,60,experiment,31,←,left,←,0.6500562999863178,True,18
14K19,61,experiment,23,↓,down,↓,0.6965485999826342,True,18
14K19,62,experiment,43,←,left,←,0.6560163000249304,True,18
14K19,63,experiment,39,→,right,→,0.835820899985265,True,18
14K19,64,experiment,13,→,right,→,0.9217833000002429,True,18
14K19,65,experiment,52,→,right,→,0.578447200008668,True,18
14K19,66,experiment,41,←,left,←,0.5044557999935932,True,18
14K19,67,experiment,17,←,left,←,0.953143699967768,True,18
14K19,68,experiment,30,↑,up,↑,0.58313939999789,True,18
14K19,69,experiment,25,↑,up,↑,0.8954320999910124,True,18
14K19,70,experiment,29,→,right,→,0.6886966000311077,True,18
14K19,71,experiment,57,←,left,←,0.6717357999878004,True,18
14K19,72,experiment,42,←,no_key,no_letter,-1.0,False,18
14K19,73,experiment,16,↓,down,↓,0.9433434000238776,True,18
14K19,74,experiment,50,←,left,←,0.6084579000016674,True,18
14K19,75,experiment,49,←,left,←,0.743266900011804,True,18
14K19,76,experiment,15,↓,down,↓,0.6484657999826595,True,18
14K19,77,experiment,51,←,left,←,0.7246385000180453,True,18
14K19,78,experiment,59,→,right,→,0.6883310999837704,True,18
14K19,79,experiment,34,←,left,←,0.6784463999792933,True,18
14K19,80,experiment,47,←,left,←,0.76465470000403,True,18
14K19,81,experiment,28,↑,up,↑,0.6672805999987759,True,18
14K19,82,experiment,22,↓,down,↓,1.009844799991697,True,18
14K19,83,experiment,32,↑,down,↓,1.5406587999896146,False,18
14K19,84,experiment,24,→,left,←,0.7352713999571279,False,18
14K19,85,experiment,36,→,right,→,0.7458116000052541,True,18
14K19,86,experiment,56,←,left,←,0.8073715000064112,True,18
14K19,87,experiment,35,↑,up,↑,1.0638871000264771,True,18
14K19,88,experiment,18,↓,down,↓,0.8582337000407279,True,18
14K19,89,experiment,38,↓,down,↓,0.8297371999942698,True,18
14K19,90,experiment,40,→,right,→,0.6496677999966778,True,18
14K19,91,training,57,←,right,→,0.9590680000255816,False,18
14K19,92,training,13,→,right,→,0.6564463999820873,True,18
14K19,93,experiment,51,→,right,→,0.6444207999738865,True,18
14K19,94,experiment,26,↓,up,↑,1.017919100006111,False,18
14K19,95,experiment,17,↑,up,↑,0.6297850999981165,True,18
14K19,96,experiment,23,↓,down,↓,0.7010729999747127,True,18
14K19,97,experiment,38,↑,up,↑,0.5516757000004873,True,18
14K19,98,experiment,13,↓,down,↓,0.6730782000231557,True,18
14K19,99,experiment,43,→,right,→,0.5858209000434726,True,18
14K19,100,experiment,44,↑,up,↑,0.5970175999682397,True,18
14K19,101,experiment,59,↓,up,↑,0.43341349996626377,False,18
14K19,102,experiment,42,↑,down,↓,1.2398457000381313,False,18
14K19,103,experiment,41,→,right,→,0.7631120999576524,True,18
14K19,104,experiment,57,→,right,→,0.6630647999700159,True,18
14K19,105,experiment,52,→,up,↑,1.0825830000103451,False,18
14K19,106,experiment,18,↓,down,↓,0.7870194000424817,True,18
14K19,107,experiment,19,↑,up,↑,0.8552921999944374,True,18
14K19,108,experiment,39,↓,down,↓,0.7952808000263758,True,18
14K19,109,experiment,36,←,left,←,0.7076583000016399,True,18
14K19,110,experiment,40,↑,up,↑,0.6932150000357069,True,18
14K19,111,experiment,24,←,left,←,0.6259507999639027,True,18
14K19,112,experiment,27,→,right,→,0.711288999998942,True,18
14K19,113,experiment,22,↓,down,↓,0.7403584999847226,True,18
14K19,114,experiment,60,↓,down,↓,0.6950013000168838,True,18
14K19,115,experiment,35,↓,down,↓,0.8283574000233784,True,18
14K19,116,experiment,50,→,right,→,1.0103610000223853,True,18
14K19,117,experiment,15,↑,up,↑,0.6565921000437811,True,18
14K19,118,experiment,16,↓,down,↓,0.7158721000305377,True,18
14K19,119,experiment,53,↓,down,↓,0.58762140001636,True,18
14K19,120,experiment,31,→,right,→,0.7038666000007652,True,18
14K19,121,experiment,32,↑,up,↑,0.7026196000515483,True,18
14K19,122,experiment,54,↓,down,↓,0.6863308000029065,True,18
14K19,123,experiment,33,←,left,←,0.5570447000209242,True,18
14K19,124,experiment,46,↓,down,↓,0.6163347999681719,True,18
14K19,125,experiment,45,↑,up,↑,0.6978959999978542,True,18
14K19,126,experiment,34,←,left,←,0.5431009999592789,True,18
14K19,127,experiment,14,←,left,←,0.8884925000020303,True,18
14K19,128,experiment,55,↓,down,↓,0.6882327999919653,True,18
14K19,129,experiment,37,↓,no_key,no_letter,-1.0,False,18
14K19,130,experiment,30,←,left,←,0.7057166999438778,True,18
14K19,131,experiment,56,←,left,←,0.5283928999560885,True,18
14K19,132,experiment,25,↑,right,→,0.5549060000339523,False,18
14K19,133,experiment,29,→,right,→,0.6976846000179648,True,18
14K19,134,experiment,21,↓,down,↓,0.7359352999483235,True,18
14K19,135,experiment,28,→,left,←,0.6239066999987699,False,18
14K19,136,experiment,48,↓,down,↓,0.7029774999828078,True,18
14K19,137,experiment,47,↑,up,↑,0.9156626999611035,True,18
14K19,138,experiment,20,→,left,←,0.6256225999677554,False,18
14K19,139,experiment,49,←,left,←,0.6405217000283301,True,18
14K19,140,experiment,58,→,right,→,0.7204595999792218,True,18
14K19,141,training,15,→,right,→,0.5429970999830402,True,18
14K19,142,training,19,←,left,←,0.565188999986276,True,18
14K19,143,experiment,52,←,left,←,0.49963360000401735,True,18
14K19,144,experiment,54,→,right,→,0.5556148999603465,True,18
14K19,145,experiment,49,←,left,←,0.5490151999983937,True,18
14K19,146,experiment,45,↓,down,↓,0.8009006000356749,True,18
14K19,147,experiment,20,↑,up,↑,0.8277718999888748,True,18
14K19,148,experiment,31,←,left,←,0.5424071999732405,True,18
14K19,149,experiment,43,↓,up,↑,1.3883509000297636,False,18
14K19,150,experiment,15,←,left,←,0.9551542999688536,True,18
14K19,151,experiment,26,→,right,→,0.6836314999964088,True,18
14K19,152,experiment,30,→,right,→,0.5724477999610826,True,18
14K19,153,experiment,47,↑,up,↑,0.5584469999885187,True,18
14K19,154,experiment,55,←,left,←,0.5955526999896392,True,18
14K19,155,experiment,13,→,right,→,0.7638256000354886,True,18
14K19,156,experiment,41,←,left,←,0.681553200003691,True,18
14K19,157,experiment,23,↑,up,↑,0.7110261000343598,True,18
14K19,158,experiment,19,↓,right,→,0.5662410999648273,False,18
14K19,159,experiment,18,←,left,←,0.5315968999639153,True,18
14K19,160,experiment,21,↑,no_key,no_letter,-1.0,False,18
14K19,161,experiment,60,↓,down,↓,0.7856056000455283,True,18
14K19,162,experiment,22,→,no_key,no_letter,-1.0,False,18
14K19,163,experiment,51,→,up,↑,0.8750902999890968,False,18
14K19,164,experiment,16,←,up,↑,0.8455622000037692,False,18
14K19,165,experiment,59,←,left,←,0.5101855999673717,True,18
14K19,166,experiment,46,←,no_key,no_letter,-1.0,False,18
14K19,167,experiment,38,↑,up,↑,0.5065015000291169,True,18
14K19,168,experiment,25,↓,no_key,no_letter,-1.0,False,18
14K19,169,experiment,53,↓,down,↓,0.7637554000248201,True,18
14K19,170,experiment,32,↑,up,↑,0.6635940999840386,True,18
14K19,171,experiment,57,→,down,↓,1.206925600010436,False,18
14K19,172,experiment,35,↑,up,↑,0.6798472000518814,True,18
14K19,173,experiment,42,↑,up,↑,0.6011136000161059,True,18
14K19,174,experiment,56,↓,up,↑,0.5558318000403233,False,18
14K19,175,experiment,58,↓,down,↓,0.7508647000067867,True,18
14K19,176,experiment,28,→,left,←,0.9501841999590397,False,18
14K19,177,experiment,39,↓,down,↓,0.8302601000177674,True,18
14K19,178,experiment,29,↓,up,↑,1.338404799986165,False,18
14K19,179,experiment,24,←,left,←,0.7013561999774538,True,18
14K19,180,experiment,27,←,left,←,0.7428334000287578,True,18
14K19,181,experiment,14,→,right,→,0.9923952999524772,True,18
14K19,182,experiment,36,↑,up,↑,0.8809082999941893,True,18
14K19,183,experiment,34,←,left,←,0.8710378000396304,True,18
14K19,184,experiment,50,→,right,→,0.6191116999834776,True,18
14K19,185,experiment,44,→,right,→,0.7568627000437118,True,18
14K19,186,experiment,17,←,left,←,0.6994623999926262,True,18
14K19,187,experiment,33,↓,left,←,1.833456800028216,False,18
14K19,188,experiment,40,↑,up,↑,0.7577302999561653,True,18
14K19,189,experiment,48,→,right,→,0.679546500032302,True,18
14K19,190,experiment,37,↓,down,↓,0.8594859999720939,True,18
14K19,191,training,47,→,right,→,0.9102268000133336,True,18
14K19,192,training,51,←,left,←,0.5443816999904811,True,18
14K19,193,experiment,34,↓,down,↓,0.7242027000174858,True,18
14K19,194,experiment,19,↓,down,↓,0.7947580000036396,True,18
14K19,195,experiment,39,→,right,→,0.6417578999535181,True,18
14K19,196,experiment,37,↑,down,↓,0.8955717000062577,False,18
14K19,197,experiment,43,→,right,→,0.5359590000007302,True,18
14K19,198,experiment,14,→,left,←,0.7371254999889061,False,18
14K19,199,experiment,38,↓,left,←,0.7063362999469973,False,18
14K19,200,experiment,51,←,left,←,0.6842212000046857,True,18
14K19,201,experiment,48,↑,down,↓,0.672790199983865,False,18
14K19,202,experiment,13,←,left,←,0.5417404000181705,True,18
14K19,203,experiment,33,↓,down,↓,0.8260771000059322,True,18
14K19,204,experiment,16,←,left,←,0.8467366000404581,True,18
14K19,205,experiment,23,↑,left,←,0.43365059996722266,False,18
14K19,206,experiment,35,←,left,←,1.1000956999487244,True,18
14K19,207,experiment,15,←,left,←,0.7580509000108577,True,18
14K19,208,experiment,49,→,down,↓,0.5674697000067681,False,18
14K19,209,experiment,22,←,right,→,1.2102654000045732,False,18
14K19,210,experiment,29,→,right,→,0.7828169999993406,True,18
14K19,211,experiment,45,↑,up,↑,0.6415627999813296,True,18
14K19,212,experiment,46,↑,up,↑,0.5696198999648914,True,18
14K19,213,experiment,27,←,left,←,0.6967806000029668,True,18
14K19,214,experiment,18,↑,up,↑,0.592926700017415,True,18
14K19,215,experiment,47,→,right,→,0.5302131999633275,True,18
14K19,216,experiment,59,↑,up,↑,0.7335964000085369,True,18
14K19,217,experiment,26,↑,right,→,0.3499910999671556,False,18
14K19,218,experiment,54,→,right,→,0.6120530999614857,True,18
14K19,219,experiment,52,←,right,→,1.2095049999770708,False,18
14K19,220,experiment,21,←,left,←,0.691304299980402,True,18
14K19,221,experiment,53,↑,up,↑,0.5489373000455089,True,18
14K19,222,experiment,30,↑,up,↑,0.4335311999893747,True,18
14K19,223,experiment,55,↓,up,↑,0.6202941999654286,False,18
14K19,224,experiment,57,←,left,←,0.5740350999985822,True,18
14K19,225,experiment,58,→,right,→,0.6562718999921344,True,18
14K19,226,experiment,44,←,left,←,0.6167620999622159,True,18
14K19,227,experiment,31,↓,up,↑,0.6834830000298098,False,18
14K19,228,experiment,28,↓,down,↓,0.7413649999652989,True,18
14K19,229,experiment,56,↑,up,↑,0.5707958999555558,True,18
14K19,230,experiment,32,↑,up,↑,0.6066546999500133,True,18
14K19,231,experiment,17,→,right,→,0.6193485000403598,True,18
14K19,232,experiment,42,↓,down,↓,0.7826737000141293,True,18
14K19,233,experiment,20,→,right,→,0.7379513999912888,True,18
14K19,234,experiment,40,↓,down,↓,0.7300943000009283,True,18
14K19,235,experiment,24,←,left,←,0.9166527999914251,True,18
14K19,236,experiment,50,←,left,←,1.678733199951239,True,18
14K19,237,experiment,36,↓,down,↓,0.732040999981109,True,18
14K19,238,experiment,41,←,left,←,0.755384799966123,True,18
14K19,239,experiment,60,↑,up,↑,0.6695598000078462,True,18
14K19,240,experiment,25,↓,down,↓,0.7461906999815255,True,18
14K19,241,training,15,→,right,→,0.9936675000353716,True,18
14K19,242,training,40,↓,down,↓,0.679284900019411,True,18
14K19,243,experiment,58,→,right,→,0.653962499985937,True,18
14K19,244,experiment,44,↓,down,↓,0.7028334999922663,True,18
14K19,245,experiment,19,→,right,→,0.6541906999773346,True,18
14K19,246,experiment,52,←,left,←,0.5693986999685876,True,18
14K19,247,experiment,35,↓,down,↓,0.9394182999967597,True,18
14K19,248,experiment,59,←,left,←,0.6149224000400864,True,18
14K19,249,experiment,45,←,left,←,1.2721180999651551,True,18
14K19,250,experiment,42,↓,down,↓,0.6972966000321321,True,18
14K19,251,experiment,22,←,left,←,0.8225954999797978,True,18
14K19,252,experiment,30,↑,right,→,0.40000120003242046,False,18
14K19,253,experiment,41,↑,up,↑,1.1582129999878816,True,18
14K19,254,experiment,25,←,down,↓,1.9518534999806434,False,18
14K19,255,experiment,16,↑,up,↑,1.7588935000239871,True,18
14K19,256,experiment,33,↑,up,↑,1.0186351999873295,True,18
14K19,257,experiment,53,←,left,←,0.6309470999985933,True,18
14K19,258,experiment,27,←,left,←,1.139264400000684,True,18
14K19,259,experiment,38,↑,up,↑,0.700623299984727,True,18
14K19,260,experiment,50,→,right,→,1.359284900012426,True,18
14K19,261,experiment,40,↑,up,↑,0.7347608000272885,True,18
14K19,262,experiment,34,→,right,→,0.5945478999637999,True,18
14K19,263,experiment,47,←,left,←,0.7159712000284344,True,18
14K19,264,experiment,23,→,right,→,0.5202183999936096,True,18
14K19,265,experiment,13,→,right,→,0.5544916000217199,True,18
14K19,266,experiment,24,→,left,←,0.5566203000489622,False,18
14K19,267,experiment,20,↑,right,→,1.305301500018686,False,18
14K19,268,experiment,46,↑,up,↑,0.7186257999856025,True,18
14K19,269,experiment,51,→,right,→,0.9441482999827713,True,18
14K19,270,experiment,31,→,right,→,0.7182230000034906,True,18
14K19,271,experiment,29,↓,up,↑,0.9498968000407331,False,18
14K19,272,experiment,49,←,left,←,0.7193007999449037,True,18
14K19,273,experiment,26,←,left,←,1.441364100028295,True,18
14K19,274,experiment,60,↑,up,↑,0.9040169999934733,True,18
14K19,275,experiment,32,↓,down,↓,0.9345308999763802,True,18
14K19,276,experiment,54,→,right,→,0.8212307000067085,True,18
14K19,277,experiment,15,→,right,→,1.1468289999756962,True,18
14K19,278,experiment,56,←,left,←,1.3992423000163399,True,18
14K19,279,experiment,18,↑,up,↑,1.3558689000201412,True,18
14K19,280,experiment,43,↑,up,↑,0.5847721999743953,True,18
14K19,281,experiment,48,↑,up,↑,0.6894050999544561,True,18
14K19,282,experiment,39,→,right,→,0.5801964999991469,True,18
14K19,283,experiment,14,←,left,←,0.6434137999895029,True,18
14K19,284,experiment,28,←,up,↑,0.7513582999818027,False,18
14K19,285,experiment,17,←,up,↑,0.9098699000314809,False,18
14K19,286,experiment,55,←,left,←,0.8051598999882117,True,18
14K19,287,experiment,36,←,no_key,no_letter,-1.0,False,18
14K19,288,experiment,57,↑,up,↑,1.3526321000535972,True,18
14K19,289,experiment,37,↓,no_key,no_letter,-1.0,False,18
14K19,290,experiment,21,→,up,↑,1.75745440000901,False,18
14K19,291,training,18,→,right,→,1.1785301000345498,True,18
14K19,292,training,38,↑,up,↑,0.5705095999874175,True,18
14K19,293,experiment,19,↑,up,↑,0.623269599978812,True,18
14K19,294,experiment,23,↑,up,↑,0.5671048000222072,True,18
14K19,295,experiment,22,↓,down,↓,0.9219727999879979,True,18
14K19,296,experiment,34,←,left,←,0.6386528000002727,True,18
14K19,297,experiment,31,→,right,→,0.6805330000352114,True,18
14K19,298,experiment,54,→,right,→,0.6892942000413314,True,18
14K19,299,experiment,42,←,right,→,1.5297988000093028,False,18
14K19,300,experiment,41,↑,up,↑,0.9773608999676071,True,18
14K19,301,experiment,37,→,right,→,0.6899925000034273,True,18
14K19,302,experiment,51,↑,up,↑,0.6445321000064723,True,18
14K19,303,experiment,20,→,right,→,0.8379921999876387,True,18
14K19,304,experiment,33,↓,down,↓,1.5106447000289336,True,18
14K19,305,experiment,57,↓,down,↓,0.7484752999735065,True,18
14K19,306,experiment,24,↓,down,↓,0.8627356000361033,True,18
14K19,307,experiment,58,→,right,→,0.8140000000130385,True,18
14K19,308,experiment,59,↓,down,↓,0.6300537000061013,True,18
14K19,309,experiment,18,←,no_key,no_letter,-1.0,False,18
14K19,310,experiment,48,↓,down,↓,1.3700034000212327,True,18
14K19,311,experiment,27,↑,up,↑,0.7290713000111282,True,18
14K19,312,experiment,49,↑,up,↑,0.6197603999753483,True,18
14K19,313,experiment,14,→,right,→,1.0418610999477096,True,18
14K19,314,experiment,55,↓,down,↓,0.668086499965284,True,18
14K19,315,experiment,53,←,left,←,0.7340105000184849,True,18
14K19,316,experiment,36,→,right,→,0.800446999957785,True,18
14K19,317,experiment,13,↓,down,↓,1.167740100005176,True,18
14K19,318,experiment,56,↓,down,↓,1.0358224000083283,True,18
14K19,319,experiment,15,→,right,→,0.7125956999952905,True,18
14K19,320,experiment,32,←,left,←,0.6951092999661341,True,18
14K19,321,experiment,28,↓,down,↓,0.7610660000354983,True,18
14K19,322,experiment,45,↑,up,↑,0.621322599996347,True,18
14K19,323,experiment,35,↓,left,←,0.6773290999699384,False,18
14K19,324,experiment,16,↑,up,↑,0.7437363000353798,True,18
14K19,325,experiment,60,↑,down,↓,1.314460700028576,False,18
14K19,326,experiment,50,↓,down,↓,0.756403700041119,True,18
14K19,327,experiment,26,↓,up,↑,0.757264000014402,False,18
14K19,328,experiment,38,↑,up,↑,1.3257231000461616,True,18
14K19,329,experiment,21,↓,no_key,no_letter,-1.0,False,18
14K19,330,experiment,47,→,no_key,no_letter,-1.0,False,18
14K19,331,experiment,25,→,right,→,0.6857596000190824,True,18
14K19,332,experiment,40,→,right,→,0.6397937000147067,True,18
14K19,333,experiment,30,↓,down,↓,0.6665234999964014,True,18
14K19,334,experiment,46,↓,down,↓,0.6092446999973617,True,18
14K19,335,experiment,44,↑,up,↑,0.7878283999743871,True,18
14K19,336,experiment,17,↑,up,↑,0.6252866000286303,True,18
14K19,337,experiment,52,↓,down,↓,0.6057103999773972,True,18
14K19,338,experiment,29,↑,up,↑,1.2665972999529913,True,18
14K19,339,experiment,43,→,right,→,0.7230803000275046,True,18
14K19,340,experiment,39,←,right,→,0.90062339999713,False,18
14K19,341,training,14,→,right,→,0.5752287000068463,True,18
14K19,342,training,22,↑,up,↑,0.7455845000222325,True,18
14K19,343,experiment,24,→,right,→,0.5565570000326261,True,18
14K19,344,experiment,48,→,right,→,0.5419973999960348,True,18
14K19,345,experiment,40,↓,down,↓,0.6785901999683119,True,18
14K19,346,experiment,33,↑,down,↓,0.7098937000264414,False,18
14K19,347,experiment,52,↓,down,↓,0.5993354999809526,True,18
14K19,348,experiment,41,↓,down,↓,0.563831300009042,True,18
14K19,349,experiment,22,→,right,→,0.5823340999777429,True,18
14K19,350,experiment,49,←,left,←,0.5664141000015661,True,18
14K19,351,experiment,14,↓,down,↓,0.6543574000243098,True,18
14K19,352,experiment,50,↓,down,↓,0.5789258000440896,True,18
14K19,353,experiment,28,→,right,→,0.6657458999543451,True,18
14K19,354,experiment,57,↑,up,↑,0.8568889000453055,True,18
14K19,355,experiment,31,→,right,→,0.6022681000176817,True,18
14K19,356,experiment,25,↓,down,↓,0.6258520999690518,True,18
14K19,357,experiment,37,↓,down,↓,0.704350899963174,True,18
14K19,358,experiment,47,←,right,→,0.6368855000473559,False,18
14K19,359,experiment,54,←,right,→,0.727661499986425,False,18
14K19,360,experiment,27,↑,up,↑,0.6652257000096142,True,18
14K19,361,experiment,35,←,left,←,0.638924999977462,True,18
14K19,362,experiment,43,↓,down,↓,0.681237599987071,True,18
14K19,363,experiment,26,↑,up,↑,0.628244299965445,True,18
14K19,364,experiment,58,→,right,→,0.5729071000241674,True,18
14K19,365,experiment,23,→,right,→,0.7512880000285804,True,18
14K19,366,experiment,39,↑,up,↑,0.5109870999585837,True,18
14K19,367,experiment,19,↑,up,↑,0.5264384999754839,True,18
14K19,368,experiment,53,↓,up,↑,0.558516499993857,False,18
14K19,369,experiment,55,→,right,→,0.6758086999761872,True,18
14K19,370,experiment,21,←,left,←,0.6828933000215329,True,18
14K19,371,experiment,36,↓,down,↓,0.5916144999791868,True,18
14K19,372,experiment,15,→,right,→,0.8942229999811389,True,18
14K19,373,experiment,42,↓,up,↑,1.0389619000488892,False,18
14K19,374,experiment,13,↑,up,↑,0.7170113000320271,True,18
14K19,375,experiment,29,↓,down,↓,0.6372601999901235,True,18
14K19,376,experiment,18,↓,down,↓,0.8875618000165559,True,18
14K19,377,experiment,56,↑,up,↑,0.6151610999950208,True,18
14K19,378,experiment,16,↑,up,↑,0.6755500999861397,True,18
14K19,379,experiment,32,↑,up,↑,0.6038374000345357,True,18
14K19,380,experiment,30,↑,up,↑,0.5277497000060976,True,18
14K19,381,experiment,46,↑,up,↑,0.6601751000271179,True,18
14K19,382,experiment,17,→,right,→,0.5989566000062041,True,18
14K19,383,experiment,51,←,left,←,0.6370926999952644,True,18
14K19,384,experiment,59,→,right,→,0.6764046999742277,True,18
14K19,385,experiment,20,↓,down,↓,0.7962023000000045,True,18
14K19,386,experiment,38,←,left,←,0.5949776000343263,True,18
14K19,387,experiment,44,↓,down,↓,1.5261736999964342,True,18
14K19,388,experiment,45,↑,up,↑,0.6996377999894321,True,18
14K19,389,experiment,34,↓,down,↓,0.7451413999660872,True,18
14K19,390,experiment,60,↓,down,↓,0.6035780999809504,True,18
14K19,391,training,58,→,right,→,0.6315034000435844,True,18
14K19,392,training,25,↓,down,↓,0.7015074000228196,True,18
14K19,393,experiment,58,↓,down,↓,0.5875395000330172,True,18
14K19,394,experiment,48,→,right,→,0.6595862999674864,True,18
14K19,395,experiment,56,↓,down,↓,0.5960696000256576,True,18
14K19,396,experiment,31,←,right,→,0.7435324999969453,False,18
14K19,397,experiment,50,↓,down,↓,0.577015399991069,True,18
14K19,398,experiment,17,→,right,→,0.7508201000164263,True,18
14K19,399,experiment,15,↓,down,↓,0.6310646000201814,True,18
14K19,400,experiment,20,↑,up,↑,0.712145600002259,True,18
14K19,401,experiment,27,↑,up,↑,1.0502881999709643,True,18
14K19,402,experiment,46,↓,down,↓,0.7057016000035219,True,18
14K19,403,experiment,59,↑,up,↑,0.5420923000201583,True,18
14K19,404,experiment,13,←,left,←,0.7280888000386767,True,18
14K19,405,experiment,25,→,right,→,0.6028735999716446,True,18
14K19,406,experiment,23,↓,down,↓,0.7396457999711856,True,18
14K19,407,experiment,36,←,left,←,0.8142218999564648,True,18
14K19,408,experiment,37,←,left,←,0.7010025000199676,True,18
14K19,409,experiment,57,→,right,→,0.6109319999814034,True,18
14K19,410,experiment,45,↓,down,↓,0.8290294000180438,True,18
14K19,411,experiment,47,↓,no_key,no_letter,-1.0,False,18
14K19,412,experiment,55,→,right,→,0.7536615999997593,True,18
14K19,413,experiment,40,↓,down,↓,0.7448064000345767,True,18
14K19,414,experiment,16,←,left,←,0.6967368999612518,True,18
14K19,415,experiment,52,→,right,→,0.8343596000340767,True,18
14K19,416,experiment,21,→,right,→,0.8427775999880396,True,18
14K19,417,experiment,14,↓,up,↑,1.7281149999471381,False,18
14K19,418,experiment,26,←,left,←,0.7700985000119545,True,18
14K19,419,experiment,51,→,right,→,0.6342318000388332,True,18
14K19,420,experiment,22,←,left,←,0.665664599975571,True,18
14K19,421,experiment,38,→,right,→,0.6454364999663085,True,18
14K19,422,experiment,28,→,right,→,0.5533938999869861,True,18
14K19,423,experiment,41,↑,up,↑,0.648250799975358,True,18
14K19,424,experiment,30,←,left,←,0.6181379999616183,True,18
14K19,425,experiment,44,←,left,←,0.6280961000011303,True,18
14K19,426,experiment,34,→,right,→,0.6607828999985941,True,18
14K19,427,experiment,29,→,right,→,0.6153759000007994,True,18
14K19,428,experiment,33,←,left,←,0.6729190000332892,True,18
14K19,429,experiment,60,→,right,→,0.6300582999829203,True,18
14K19,430,experiment,19,←,left,←,0.6004077999969013,True,18
14K19,431,experiment,54,↓,down,↓,0.7090044000069611,True,18
14K19,432,experiment,42,←,left,←,0.7881643999717198,True,18
14K19,433,experiment,18,→,right,→,0.5608134999638423,True,18
14K19,434,experiment,39,↓,down,↓,0.6165983999962918,True,18
14K19,435,experiment,35,↓,down,↓,1.1850285999826156,True,18
14K19,436,experiment,32,↑,up,↑,0.6200529999914579,True,18
14K19,437,experiment,53,←,left,←,0.5522898000199348,True,18
14K19,438,experiment,43,←,left,←,0.597486300044693,True,18
14K19,439,experiment,49,↑,up,↑,0.5648936000070535,True,18
14K19,440,experiment,24,↓,down,↓,0.8379575000144541,True,18
14K19,441,training,26,↓,down,↓,0.7229240000015125,True,17
14K19,442,training,59,←,left,←,0.6228365999995731,True,17
14K19,443,experiment,37,←,left,←,0.5332690000068396,True,17
14K19,444,experiment,47,↓,down,↓,0.6007245000218973,True,17
14K19,445,experiment,46,→,right,→,0.6179873999790289,True,17
14K19,446,experiment,51,→,right,→,0.575576999981422,True,17
14K19,447,experiment,31,↑,up,↑,0.6439762999652885,True,17
14K19,448,experiment,53,↑,up,↑,0.7193317000055686,True,17
14K19,449,experiment,39,↓,down,↓,0.5365999999921769,True,17
14K19,450,experiment,15,←,up,↑,0.6973884999752045,False,17
14K19,451,experiment,60,↓,down,↓,0.5655208000098355,True,17
14K19,452,experiment,33,↓,down,↓,0.6327235999633558,True,17
14K19,453,experiment,29,↑,left,←,0.36719990003621206,False,17
14K19,454,experiment,32,↑,up,↑,0.6475672000087798,True,17
14K19,455,experiment,24,↑,up,↑,1.253326699952595,True,17
14K19,456,experiment,16,↓,down,↓,0.5688211999949999,True,17
14K19,457,experiment,30,↑,up,↑,0.6942430000053719,True,17
14K19,458,experiment,40,←,left,←,0.6799822999746539,True,17
14K19,459,experiment,19,↓,up,↑,0.761593300034292,False,17
14K19,460,experiment,45,→,right,→,0.6122094999882393,True,17
14K19,461,experiment,20,↑,up,↑,0.6386511000455357,True,17
14K19,462,experiment,49,→,right,→,0.6129312999546528,True,17
14K19,463,experiment,36,↓,up,↑,0.6848853999981657,False,17
14K19,464,experiment,26,↓,down,↓,0.8165180999785662,True,17
14K19,465,experiment,14,←,up,↑,0.9261725000105798,False,17
14K19,466,experiment,59,↑,up,↑,1.9462237999541685,True,17
14K19,467,experiment,17,↑,no_key,no_letter,-1.0,False,17
14K19,468,experiment,44,←,right,→,1.7422797000035644,False,17
14K19,469,experiment,27,↓,down,↓,0.6547088000224903,True,17
14K19,470,experiment,25,↑,up,↑,0.644072099996265,True,17
14K19,471,experiment,48,↑,up,↑,0.6988814999931492,True,17
14K19,472,experiment,56,→,right,→,0.7372680000262335,True,17
14K19,473,experiment,55,↓,down,↓,0.9514655999955721,True,17
14K19,474,experiment,28,↓,down,↓,0.7027884999988601,True,17
14K19,475,experiment,13,↑,down,↓,0.7858855000231415,False,17
14K19,476,experiment,57,→,right,→,1.6125049999682233,True,17
14K19,477,experiment,54,←,no_key,no_letter,-1.0,False,17
14K19,478,experiment,18,←,right,→,1.2628261999925599,False,17
14K19,479,experiment,34,↓,down,↓,0.7342207999899983,True,17
14K19,480,experiment,23,↑,up,↑,0.74548500002129,True,17
14K19,481,experiment,58,↑,up,↑,0.7094580000266433,True,17
14K19,482,experiment,22,←,left,←,0.6985781000112183,True,17
14K19,483,experiment,43,→,right,→,0.561895499995444,True,17
14K19,484,experiment,21,←,right,→,0.606005700014066,False,17
14K19,485,experiment,52,←,left,←,0.523496099980548,True,17
14K19,486,experiment,35,←,left,←,0.7755158999934793,True,17
14K19,487,experiment,38,↓,left,←,1.215291199972853,False,17
14K19,488,experiment,41,→,right,→,0.6432902000378817,True,17
14K19,489,experiment,42,←,right,→,0.7178928999928758,False,17
14K19,490,experiment,50,←,left,←,0.5761155999498442,True,17
14K19,491,training,29,↓,left,←,1.3973806999856606,False,17
14K19,492,training,53,←,left,←,0.5541406000265852,True,17
14K19,493,experiment,50,←,left,←,0.6185032000066712,True,17
14K19,494,experiment,42,←,up,↑,0.5740585000021383,False,17
14K19,495,experiment,21,↓,down,↓,0.7053233999758959,True,17
14K19,496,experiment,45,↑,up,↑,1.1434095000149682,True,17
14K19,497,experiment,13,→,right,→,0.6573996999650262,True,17
14K19,498,experiment,53,↑,up,↑,0.7080505000194535,True,17
14K19,499,experiment,16,↓,down,↓,0.6851757999975234,True,17
14K19,500,experiment,34,←,left,←,0.5631287000142038,True,17
14K19,501,experiment,59,↓,down,↓,0.6134387000347488,True,17
14K19,502,experiment,15,→,right,→,0.610473999986425,True,17
14K19,503,experiment,41,↓,down,↓,0.5752273999969475,True,17
14K19,504,experiment,46,↓,down,↓,0.602030600013677,True,17
14K19,505,experiment,58,↓,down,↓,0.6911950000212528,True,17
14K19,506,experiment,20,↑,up,↑,0.7144688999978825,True,17
14K19,507,experiment,56,←,left,←,0.7286610000301152,True,17
14K19,508,experiment,38,↑,down,↓,0.7864765000413172,False,17
14K19,509,experiment,43,→,right,→,0.8306577000184916,True,17
14K19,510,experiment,27,↑,up,↑,0.907039400015492,True,17
14K19,511,experiment,18,→,right,→,0.6352037999895401,True,17
14K19,512,experiment,57,↓,up,↑,0.7882600999437273,False,17
14K19,513,experiment,36,←,right,→,0.949722399993334,False,17
14K19,514,experiment,40,↓,down,↓,0.715759499988053,True,17
14K19,515,experiment,55,←,right,→,0.6744461000198498,False,17
14K19,516,experiment,35,↑,up,↑,0.6166624000179581,True,17
14K19,517,experiment,51,↑,up,↑,0.5819729000213556,True,17
14K19,518,experiment,52,→,right,→,0.6922246999456547,True,17
14K19,519,experiment,31,↑,up,↑,0.5800354999955744,True,17
14K19,520,experiment,28,↑,up,↑,0.522437900013756,True,17
14K19,521,experiment,49,↓,down,↓,0.7172664999961853,True,17
14K19,522,experiment,54,↓,down,↓,0.5485524000250734,True,17
14K19,523,experiment,32,↓,down,↓,0.7130764999892563,True,17
14K19,524,experiment,17,→,right,→,0.5852730999467894,True,17
14K19,525,experiment,37,→,up,↑,0.46501720004016533,False,17
14K19,526,experiment,25,←,left,←,0.7898389999754727,True,17
14K19,527,experiment,26,↑,up,↑,0.5334654999896884,True,17
14K19,528,experiment,29,↑,up,↑,0.5726514999987558,True,17
14K19,529,experiment,22,↑,up,↑,0.5831118000205606,True,17
14K19,530,experiment,30,↓,down,↓,0.7399526999797672,True,17
14K19,531,experiment,44,↑,up,↑,0.6651715000043623,True,17
14K19,532,experiment,23,↓,up,↑,1.055087300017476,False,17
14K19,533,experiment,39,←,left,←,0.7230951999663375,True,17
14K19,534,experiment,60,↑,up,↑,0.5345268999808468,True,17
14K19,535,experiment,14,←,left,←,0.8078313000150956,True,17
14K19,536,experiment,33,↓,down,↓,0.7139047000091523,True,17
14K19,537,experiment,47,←,left,←,0.6377248000353575,True,17
14K19,538,experiment,24,←,left,←,0.6924231000011787,True,17
14K19,539,experiment,19,↑,up,↑,1.1403943999903277,True,17
14K19,540,experiment,48,←,left,←,0.5271578999818303,True,17
14K19,541,training,39,↓,down,↓,0.6151744000380859,True,17
14K19,542,training,45,↓,down,↓,0.5286057000048459,True,17
14K19,543,experiment,59,→,right,→,0.6363932999665849,True,17
14K19,544,experiment,29,↑,up,↑,0.9597665999899618,True,17
14K19,545,experiment,30,←,left,←,0.6138353000278585,True,17
14K19,546,experiment,38,→,right,→,0.5479833999997936,True,17
14K19,547,experiment,33,↑,up,↑,0.7596411000122316,True,17
14K19,548,experiment,43,→,right,→,0.5410078999702819,True,17
14K19,549,experiment,56,→,right,→,0.6023742000106722,True,17
14K19,550,experiment,35,←,left,←,0.7390813999809325,True,17
14K19,551,experiment,58,→,right,→,0.6392299000290222,True,17
14K19,552,experiment,13,↓,up,↑,0.9010316000203602,False,17
14K19,553,experiment,26,←,left,←,0.5917123000253923,True,17
14K19,554,experiment,54,↑,up,↑,0.7324435000191443,True,17
14K19,555,experiment,17,↑,up,↑,0.5719108000048436,True,17
14K19,556,experiment,41,→,right,→,0.5296383000095375,True,17
14K19,557,experiment,31,↓,up,↑,0.5596591000212356,False,17
14K19,558,experiment,23,→,down,↓,0.9625989999622107,False,17
14K19,559,experiment,27,↑,down,↓,0.8022646999452263,False,17
14K19,560,experiment,44,←,left,←,0.5730480999918655,True,17
14K19,561,experiment,28,→,left,←,0.7319057999993674,False,17
14K19,562,experiment,14,←,left,←,0.9090328000020236,True,17
14K19,563,experiment,20,→,right,→,0.6424212999991141,True,17
14K19,564,experiment,48,←,left,←,0.8011926999897696,True,17
14K19,565,experiment,39,↑,up,↑,0.6629803000250831,True,17
14K19,566,experiment,51,→,right,→,0.6667461000033654,True,17
14K19,567,experiment,46,←,left,←,0.7529588000033982,True,17
14K19,568,experiment,60,←,left,←,0.6349600999965332,True,17
14K19,569,experiment,47,↑,up,↑,0.7465661000460386,True,17
14K19,570,experiment,53,→,right,→,0.5849491999833845,True,17
14K19,571,experiment,40,←,left,←,0.6628787000081502,True,17
14K19,572,experiment,15,↑,up,↑,0.5942936000064947,True,17
14K19,573,experiment,19,←,left,←,1.198435399972368,True,17
14K19,574,experiment,49,↓,left,←,1.2136939000338316,False,17
14K19,575,experiment,45,→,right,→,0.7909305000212044,True,17
14K19,576,experiment,32,↓,up,↑,1.0024545999476686,False,17
14K19,577,experiment,42,→,right,→,0.6464660000056028,True,17
14K19,578,experiment,34,→,right,→,0.5823659000452608,True,17
14K19,579,experiment,52,←,left,←,0.6602713000029325,True,17
14K19,580,experiment,25,←,left,←,0.49787979997927323,True,17
14K19,581,experiment,50,↑,up,↑,0.5723752999911085,True,17
14K19,582,experiment,16,↑,up,↑,0.5549186999560334,True,17
14K19,583,experiment,57,↓,down,↓,0.9271374000236392,True,17
14K19,584,experiment,55,→,right,→,0.4857913000159897,True,17
14K19,585,experiment,18,↑,up,↑,1.1502948999986984,True,17
14K19,586,experiment,24,←,left,←,0.6085012000403367,True,17
14K19,587,experiment,36,↓,down,↓,0.8644593000062741,True,17
14K19,588,experiment,37,↑,up,↑,0.6210953000118025,True,17
14K19,589,experiment,21,↓,down,↓,0.7584785000071861,True,17
14K19,590,experiment,22,→,right,→,0.8498753999592736,True,17
