PART_ID,Trial_no,Trial_type,CSI,Stim_letter,Key_pressed,letter_choose,Rt,Corr,Stimulus Time
22M27,1,training,60,↓,no_key,no_letter,-1.0,False,30
22M27,2,training,60,↑,no_key,no_letter,-1.0,False,30
22M27,3,training,60,↓,no_key,no_letter,-1.0,False,30
22M27,4,training,60,↓,left,←,1.722501399985049,False,30
22M27,5,training,60,↑,right,→,1.0529614000115544,False,30
22M27,6,training,60,↓,no_key,no_letter,-1.0,False,30
22M27,7,training,60,←,no_key,no_letter,-1.0,False,30
22M27,8,training,60,→,right,→,1.8676219999906607,True,30
22M27,9,training,60,→,right,→,0.7921791999833658,True,30
22M27,10,training,60,↑,up,↑,0.7682901999796741,True,30
22M27,11,training,60,↑,up,↑,0.777018400025554,True,30
22M27,12,training,60,↓,down,↓,0.7048957000370137,True,30
22M27,13,training,60,→,right,→,0.7804496000171639,True,30
22M27,14,training,60,→,right,→,0.500811799953226,True,30
22M27,15,training,60,↑,up,↑,0.8708534999750555,True,30
22M27,16,training,60,→,right,→,0.7078523000236601,True,30
22M27,17,training,60,←,left,←,0.7908088000258431,True,30
22M27,18,training,60,→,right,→,0.8467933999490924,True,30
22M27,19,training,60,→,right,→,0.6761032000067644,True,30
22M27,20,training,60,↑,up,↑,0.9122112999903038,True,30
22M27,21,training,60,←,left,←,1.653003700019326,True,18
22M27,22,training,60,←,left,←,1.2741062000277452,True,18
22M27,23,training,60,←,left,←,0.6468353000236675,True,18
22M27,24,training,60,→,right,→,0.8043709000339732,True,18
22M27,25,training,60,↓,down,↓,0.6437664999975823,True,18
22M27,26,training,60,↑,no_key,no_letter,-1.0,False,18
22M27,27,training,60,←,left,←,0.9057573999743909,True,18
22M27,28,training,60,↓,down,↓,0.8607292000087909,True,18
22M27,29,training,60,↓,down,↓,0.6337307000067085,True,18
22M27,30,training,60,↓,down,↓,0.783632899983786,True,18
22M27,31,training,60,←,left,←,0.6314702999661677,True,18
22M27,32,training,60,↑,up,↑,0.7255566999665461,True,18
22M27,33,training,60,↓,down,↓,0.8402153000351973,True,18
22M27,34,training,60,→,right,→,0.9340460000094026,True,18
22M27,35,training,60,←,left,←,0.5602021999657154,True,18
22M27,36,training,60,←,left,←,0.6087221999769099,True,18
22M27,37,training,60,→,right,→,0.6800127999740653,True,18
22M27,38,training,60,←,left,←,0.8121236999868415,True,18
22M27,39,training,60,↓,down,↓,0.7307301000109874,True,18
22M27,40,training,60,↑,up,↑,0.7406729999929667,True,18
22M27,41,training,19,↑,up,↑,0.8389129000133835,True,18
22M27,42,training,56,↓,down,↓,0.7361138999694958,True,18
22M27,43,experiment,47,→,left,←,0.739412099996116,False,18
22M27,44,experiment,32,←,left,←,0.5129343000007793,True,18
22M27,45,experiment,15,↓,down,↓,0.6427297000191174,True,18
22M27,46,experiment,25,←,left,←,0.6726825999794528,True,18
22M27,47,experiment,56,↑,down,↓,0.7766334000043571,False,18
22M27,48,experiment,34,←,left,←,0.6033254999783821,True,18
22M27,49,experiment,40,←,left,←,0.5207340000197291,True,18
22M27,50,experiment,19,↓,down,↓,0.6474065000074916,True,18
22M27,51,experiment,46,↓,down,↓,0.5348048000014387,True,18
22M27,52,experiment,54,→,right,→,0.9893158000195399,True,18
22M27,53,experiment,49,→,right,→,0.47760859999107197,True,18
22M27,54,experiment,14,←,left,←,0.8086205999716185,True,18
22M27,55,experiment,35,←,left,←,0.43401849997462705,True,18
22M27,56,experiment,22,↑,up,↑,0.5608090999885462,True,18
22M27,57,experiment,20,↓,down,↓,0.477348200045526,True,18
22M27,58,experiment,58,→,right,→,0.4678808999597095,True,18
22M27,59,experiment,24,←,left,←,0.5841315999859944,True,18
22M27,60,experiment,48,↓,down,↓,0.4016593000269495,True,18
22M27,61,experiment,28,↓,down,↓,0.4173107999959029,True,18
22M27,62,experiment,16,←,left,←,0.41722200001822785,True,18
22M27,63,experiment,27,→,left,←,1.1974099000217393,False,18
22M27,64,experiment,26,←,left,←,0.828132499998901,True,18
22M27,65,experiment,60,→,right,→,0.963280699972529,True,18
22M27,66,experiment,18,←,left,←,0.8245970999705605,True,18
22M27,67,experiment,45,↑,up,↑,0.8419770000036806,True,18
22M27,68,experiment,33,↓,left,←,0.48258969996823,False,18
22M27,69,experiment,31,↑,up,↑,0.594959799956996,True,18
22M27,70,experiment,57,↑,up,↑,0.5094736999599263,True,18
22M27,71,experiment,59,↑,up,↑,0.7701968000037596,True,18
22M27,72,experiment,39,→,right,→,0.8972686000051908,True,18
22M27,73,experiment,43,→,left,←,0.6087993999826722,False,18
22M27,74,experiment,44,↑,up,↑,0.5153223000233993,True,18
22M27,75,experiment,36,→,right,→,0.4865972000407055,True,18
22M27,76,experiment,17,↓,down,↓,0.6799001999897882,True,18
22M27,77,experiment,51,↓,down,↓,1.6112351000192575,True,18
22M27,78,experiment,52,↑,up,↑,0.4966215000022203,True,18
22M27,79,experiment,42,→,right,→,0.7205868000164628,True,18
22M27,80,experiment,29,↑,up,↑,0.6645939000300132,True,18
22M27,81,experiment,50,↑,up,↑,0.4765660000266507,True,18
22M27,82,experiment,53,↓,down,↓,0.6139847000013106,True,18
22M27,83,experiment,23,↑,no_key,no_letter,-1.0,False,18
22M27,84,experiment,41,→,left,←,0.8998456999543123,False,18
22M27,85,experiment,13,←,left,←,0.4952942000236362,True,18
22M27,86,experiment,30,↓,up,↑,0.783923999988474,False,18
22M27,87,experiment,38,→,left,←,0.783270200015977,False,18
22M27,88,experiment,21,↓,down,↓,0.6180222999537364,True,18
22M27,89,experiment,55,↓,down,↓,0.4005819000303745,True,18
22M27,90,experiment,37,→,right,→,0.7471519999671727,True,18
22M27,91,training,26,↑,up,↑,0.6818287000060081,True,18
22M27,92,training,17,→,no_key,no_letter,-1.0,False,18
22M27,93,experiment,42,↓,up,↑,0.8725825999863446,False,18
22M27,94,experiment,56,↓,down,↓,0.8165934999706224,True,18
22M27,95,experiment,16,↓,down,↓,0.5812344999867491,True,18
22M27,96,experiment,34,↑,down,↓,0.7355974999954924,False,18
22M27,97,experiment,59,↓,down,↓,0.658618799992837,True,18
22M27,98,experiment,33,→,right,→,0.6907943999976851,True,18
22M27,99,experiment,51,→,no_key,no_letter,-1.0,False,18
22M27,100,experiment,58,←,left,←,1.791862400015816,True,18
22M27,101,experiment,30,→,right,→,0.7007890000240877,True,18
22M27,102,experiment,41,↓,down,↓,1.0054175999830477,True,18
22M27,103,experiment,25,↓,down,↓,0.8604749999940395,True,18
22M27,104,experiment,39,↑,up,↑,0.5925792999914847,True,18
22M27,105,experiment,54,←,left,←,0.4342365000047721,True,18
22M27,106,experiment,36,→,right,→,0.5152948999893852,True,18
22M27,107,experiment,37,→,right,→,0.6538670999580063,True,18
22M27,108,experiment,32,→,right,→,0.7105907999793999,True,18
22M27,109,experiment,52,↓,left,←,0.3999257999821566,False,18
22M27,110,experiment,26,←,no_key,no_letter,-1.0,False,18
22M27,111,experiment,18,←,right,→,0.9312433999730274,False,18
22M27,112,experiment,55,←,right,→,0.8656529999570921,False,18
22M27,113,experiment,24,↑,up,↑,0.7905044000362977,True,18
22M27,114,experiment,57,←,left,←,0.6973932999535464,True,18
22M27,115,experiment,53,↓,down,↓,0.5380465000052936,True,18
22M27,116,experiment,27,↓,down,↓,0.9945319999824278,True,18
22M27,117,experiment,31,↑,up,↑,0.6865080999559723,True,18
22M27,118,experiment,60,→,right,→,0.7552204999956302,True,18
22M27,119,experiment,45,→,right,→,0.6232363999588415,True,18
22M27,120,experiment,38,←,left,←,0.7491976000019349,True,18
22M27,121,experiment,44,→,right,→,0.6097887000069022,True,18
22M27,122,experiment,28,↑,up,↑,0.6711214000242762,True,18
22M27,123,experiment,20,→,right,→,0.559180699987337,True,18
22M27,124,experiment,50,↑,up,↑,0.7119432999752462,True,18
22M27,125,experiment,49,↑,up,↑,0.6671810999978334,True,18
22M27,126,experiment,35,→,right,→,0.5054735000012442,True,18
22M27,127,experiment,13,←,left,←,1.4044341999688186,True,18
22M27,128,experiment,14,↑,up,↑,0.5233025000197813,True,18
22M27,129,experiment,48,↑,up,↑,0.6225067999912426,True,18
22M27,130,experiment,29,↑,down,↓,1.0183933000080287,False,18
22M27,131,experiment,22,↓,down,↓,0.4758027999778278,True,18
22M27,132,experiment,43,↓,down,↓,0.43406430003233254,True,18
22M27,133,experiment,40,←,left,←,0.6943823000183329,True,18
22M27,134,experiment,21,↑,up,↑,0.4931391999707557,True,18
22M27,135,experiment,23,←,left,←,0.6346875000162981,True,18
22M27,136,experiment,19,↑,up,↑,0.417350199946668,True,18
22M27,137,experiment,47,↑,up,↑,0.6598121999995783,True,18
22M27,138,experiment,46,↑,up,↑,0.6274052999797277,True,18
22M27,139,experiment,15,←,no_key,no_letter,-1.0,False,18
22M27,140,experiment,17,↓,up,↑,0.8786110999644734,False,18
22M27,141,training,33,↑,up,↑,0.6639272000174969,True,18
22M27,142,training,26,↓,down,↓,0.6677698999992572,True,18
22M27,143,experiment,39,←,left,←,0.43425350001780316,True,18
22M27,144,experiment,31,↓,down,↓,0.6727663999772631,True,18
22M27,145,experiment,15,←,left,←,0.6197634999989532,True,18
22M27,146,experiment,46,↑,up,↑,0.6844350999454036,True,18
22M27,147,experiment,48,←,left,←,0.7130760999862105,True,18
22M27,148,experiment,27,←,left,←,0.5712080000084825,True,18
22M27,149,experiment,55,↓,down,↓,0.6477509000105783,True,18
22M27,150,experiment,54,←,left,←,0.649980999995023,True,18
22M27,151,experiment,19,↓,down,↓,0.5950750999618322,True,18
22M27,152,experiment,42,→,right,→,0.4337274999707006,True,18
22M27,153,experiment,35,→,right,→,0.6624441999592818,True,18
22M27,154,experiment,24,←,left,←,0.8445114000351168,True,18
22M27,155,experiment,49,←,left,←,0.5704049000050873,True,18
22M27,156,experiment,33,↓,down,↓,0.7657550000003539,True,18
22M27,157,experiment,51,←,left,←,0.6930491999955848,True,18
22M27,158,experiment,38,↑,up,↑,0.5124113999772817,True,18
22M27,159,experiment,44,↓,down,↓,0.7431715999846347,True,18
22M27,160,experiment,20,↓,down,↓,0.5803909000242129,True,18
22M27,161,experiment,40,↑,up,↑,0.5786271000397392,True,18
22M27,162,experiment,50,→,right,→,0.5946675000013784,True,18
22M27,163,experiment,30,←,left,←,0.543040500022471,True,18
22M27,164,experiment,16,←,left,←,0.47164030000567436,True,18
22M27,165,experiment,22,↑,up,↑,0.7735735000460409,True,18
22M27,166,experiment,37,→,right,→,0.6056999000138603,True,18
22M27,167,experiment,36,↑,no_key,no_letter,-1.0,False,18
22M27,168,experiment,18,↓,down,↓,0.8270915999892168,True,18
22M27,169,experiment,58,←,left,←,0.6919109000009485,True,18
22M27,170,experiment,43,↓,down,↓,0.6117311000125483,True,18
22M27,171,experiment,17,←,left,←,0.7766531999805011,True,18
22M27,172,experiment,28,←,left,←,0.5350361000164412,True,18
22M27,173,experiment,45,←,left,←,0.36663360003149137,True,18
22M27,174,experiment,23,↑,up,↑,0.5810476000187919,True,18
22M27,175,experiment,21,←,left,←,0.38290790002793074,True,18
22M27,176,experiment,53,↑,up,↑,0.5806340000126511,True,18
22M27,177,experiment,41,→,right,→,0.665934799995739,True,18
22M27,178,experiment,25,↓,down,↓,0.5104476999840699,True,18
22M27,179,experiment,47,←,left,←,0.7150010999757797,True,18
22M27,180,experiment,34,↓,down,↓,0.4341724999831058,True,18
22M27,181,experiment,26,→,right,→,0.5803463999764062,True,18
22M27,182,experiment,60,↓,down,↓,0.6451826000120491,True,18
22M27,183,experiment,52,←,left,←,0.5689717999775894,True,18
22M27,184,experiment,56,←,left,←,0.4853245000122115,True,18
22M27,185,experiment,57,←,left,←,0.5565941999666393,True,18
22M27,186,experiment,32,↓,down,↓,0.6003256000112742,True,18
22M27,187,experiment,59,→,right,→,0.5369927000137977,True,18
22M27,188,experiment,14,↓,down,↓,0.7383097999845631,True,18
22M27,189,experiment,13,↓,down,↓,0.6043002000078559,True,18
22M27,190,experiment,29,←,left,←,1.5129425000050105,True,18
22M27,191,training,15,↓,down,↓,0.5757025000057183,True,17
22M27,192,training,41,→,right,→,0.5098159000044689,True,17
22M27,193,experiment,46,→,right,→,0.7552209999994375,True,17
22M27,194,experiment,31,↓,down,↓,0.5923825000063516,True,17
22M27,195,experiment,56,→,right,→,1.5476611999911256,True,17
22M27,196,experiment,35,←,left,←,0.7505308000254445,True,17
22M27,197,experiment,42,↑,up,↑,0.7322650999994949,True,17
22M27,198,experiment,41,←,left,←,0.5796209999825805,True,17
22M27,199,experiment,60,↓,down,↓,0.5163353999960236,True,17
22M27,200,experiment,43,↓,down,↓,0.7232141999993473,True,17
22M27,201,experiment,17,→,right,→,0.538944200030528,True,17
22M27,202,experiment,45,→,right,→,0.799690899963025,True,17
22M27,203,experiment,26,←,left,←,0.6543436000356451,True,17
22M27,204,experiment,20,→,right,→,0.7909795999876224,True,17
22M27,205,experiment,51,→,right,→,0.7096198000363074,True,17
22M27,206,experiment,15,→,right,→,0.7596027999534272,True,17
22M27,207,experiment,32,←,left,←,0.7403265999746509,True,17
22M27,208,experiment,48,→,right,→,0.6631847000098787,True,17
22M27,209,experiment,33,↓,down,↓,0.6864704999607056,True,17
22M27,210,experiment,54,→,right,→,0.6709311000304297,True,17
22M27,211,experiment,25,↓,down,↓,0.9316721999784932,True,17
22M27,212,experiment,57,←,left,←,0.6483592999866232,True,17
22M27,213,experiment,22,↑,up,↑,0.6798049000208266,True,17
22M27,214,experiment,50,↑,up,↑,0.47564720001537353,True,17
22M27,215,experiment,55,←,left,←,0.41761800000676885,True,17
22M27,216,experiment,59,→,right,→,0.6516787000000477,True,17
22M27,217,experiment,53,↓,down,↓,0.6945331000024453,True,17
22M27,218,experiment,37,←,left,←,0.5542358999955468,True,17
22M27,219,experiment,40,→,right,→,0.521590499964077,True,17
22M27,220,experiment,18,↑,up,↑,0.6656006000121124,True,17
22M27,221,experiment,38,←,left,←,0.48489550000522286,True,17
22M27,222,experiment,14,←,left,←,0.49623290001181886,True,17
22M27,223,experiment,16,←,left,←,0.41732010000851005,True,17
22M27,224,experiment,52,↑,up,↑,0.5984880999894813,True,17
22M27,225,experiment,29,↓,down,↓,0.634930300002452,True,17
22M27,226,experiment,21,↑,up,↑,1.659829699958209,True,17
22M27,227,experiment,23,↑,up,↑,0.5946191999828443,True,17
22M27,228,experiment,34,→,right,→,0.6842239999677986,True,17
22M27,229,experiment,19,→,right,→,0.6842262999853119,True,17
22M27,230,experiment,13,↓,down,↓,0.8723172000027262,True,17
22M27,231,experiment,47,↓,down,↓,0.6462839000159875,True,17
22M27,232,experiment,39,→,right,→,0.5464490000158548,True,17
22M27,233,experiment,36,↓,down,↓,0.5569345999974757,True,17
22M27,234,experiment,49,↓,down,↓,0.5902321999892592,True,17
22M27,235,experiment,27,↓,down,↓,0.636843099957332,True,17
22M27,236,experiment,24,→,left,←,0.6595640999730676,False,17
22M27,237,experiment,30,↑,up,↑,0.533534399990458,True,17
22M27,238,experiment,58,→,right,→,1.049599100020714,True,17
22M27,239,experiment,44,←,left,←,0.5543375000124797,True,17
22M27,240,experiment,28,→,right,→,0.5059294999809936,True,17
22M27,241,training,26,←,left,←,0.8182600999716669,True,16
22M27,242,training,16,↓,down,↓,0.8308471000054851,True,16
22M27,243,experiment,57,↓,down,↓,0.5515595999895595,True,16
22M27,244,experiment,47,↓,no_key,no_letter,-1.0,False,16
22M27,245,experiment,16,←,left,←,0.5382758000050671,True,16
22M27,246,experiment,41,↑,up,↑,0.6497368999989703,True,16
22M27,247,experiment,18,←,left,←,0.5156254000030458,True,16
22M27,248,experiment,46,←,left,←,0.5366742000333034,True,16
22M27,249,experiment,21,↑,up,↑,1.0128306000260636,True,16
22M27,250,experiment,53,←,left,←,0.47357129998272285,True,16
22M27,251,experiment,35,→,left,←,0.6314358999952674,False,16
22M27,252,experiment,45,↑,up,↑,0.6081627999665216,True,16
22M27,253,experiment,39,↑,up,↑,0.5585171999991871,True,16
22M27,254,experiment,15,→,right,→,0.7341312000062317,True,16
22M27,255,experiment,48,←,right,→,0.8648373000323772,False,16
22M27,256,experiment,19,↑,up,↑,0.5297796000377275,True,16
22M27,257,experiment,28,←,left,←,0.5616638999781571,True,16
22M27,258,experiment,22,↓,down,↓,0.6290990000125021,True,16
22M27,259,experiment,58,→,right,→,0.6778147000004537,True,16
22M27,260,experiment,20,→,right,→,0.6455194000154734,True,16
22M27,261,experiment,26,↑,left,←,0.7068229000433348,False,16
22M27,262,experiment,42,→,right,→,0.6028638000134379,True,16
22M27,263,experiment,37,←,left,←,0.5221667000441812,True,16
22M27,264,experiment,54,→,right,→,0.5935090000275522,True,16
22M27,265,experiment,40,↓,down,↓,0.5597288000280969,True,16
22M27,266,experiment,55,↑,down,↓,0.6687577999546193,False,16
22M27,267,experiment,30,←,left,←,1.4543355000205338,True,16
22M27,268,experiment,36,→,right,→,0.5484294000198133,True,16
22M27,269,experiment,27,←,left,←,0.45238179998705164,True,16
22M27,270,experiment,59,←,right,→,0.5070456000394188,False,16
22M27,271,experiment,31,↓,right,→,1.5941323999431916,False,16
22M27,272,experiment,17,↓,down,↓,0.7915024999529123,True,16
22M27,273,experiment,13,↓,down,↓,0.7193071999936365,True,16
22M27,274,experiment,23,↓,down,↓,0.8837772000115365,True,16
22M27,275,experiment,29,←,left,←,0.4688307999749668,True,16
22M27,276,experiment,24,→,right,→,0.5860764000099152,True,16
22M27,277,experiment,43,→,right,→,0.542344699962996,True,16
22M27,278,experiment,60,→,right,→,0.6970068999798968,True,16
22M27,279,experiment,14,↓,down,↓,0.6034174999804236,True,16
22M27,280,experiment,38,↑,up,↑,0.5301238000392914,True,16
22M27,281,experiment,32,←,left,←,0.5514833000488579,True,16
22M27,282,experiment,34,→,right,→,0.4828131999820471,True,16
22M27,283,experiment,56,→,right,→,0.5381817999877967,True,16
22M27,284,experiment,50,←,left,←,0.6115303999977186,True,16
22M27,285,experiment,25,←,left,←,0.9307963000028394,True,16
22M27,286,experiment,52,←,left,←,0.4989914000034332,True,16
22M27,287,experiment,51,↓,down,↓,0.77279230003478,True,16
22M27,288,experiment,44,←,left,←,0.5847656999831088,True,16
22M27,289,experiment,49,→,right,→,0.5927583000157028,True,16
22M27,290,experiment,33,↓,down,↓,0.6834291000268422,True,16
22M27,291,training,19,↑,down,↓,0.6922799000167288,False,16
22M27,292,training,17,←,left,←,0.5974002999719232,True,16
22M27,293,experiment,33,↓,down,↓,0.5915936999954283,True,16
22M27,294,experiment,14,↓,down,↓,0.7267260999651626,True,16
22M27,295,experiment,38,↑,up,↑,0.6887805999722332,True,16
22M27,296,experiment,34,←,left,←,0.5347786000347696,True,16
22M27,297,experiment,54,←,left,←,0.4536190000362694,True,16
22M27,298,experiment,18,←,left,←,0.8474732000031509,True,16
22M27,299,experiment,47,←,left,←,0.7180578999686986,True,16
22M27,300,experiment,52,←,left,←,0.5107902000308968,True,16
22M27,301,experiment,25,←,left,←,0.4501620000228286,True,16
22M27,302,experiment,37,↑,up,↑,1.0633792000007816,True,16
22M27,303,experiment,29,→,right,→,0.5133981999824755,True,16
22M27,304,experiment,15,↑,down,↓,0.7868405999615788,False,16
22M27,305,experiment,59,→,right,→,0.6120005000266246,True,16
22M27,306,experiment,36,←,left,←,0.43661199999041855,True,16
22M27,307,experiment,17,←,left,←,0.6067023000214249,True,16
22M27,308,experiment,31,↑,up,↑,0.7541095999768004,True,16
22M27,309,experiment,28,→,right,→,0.5773610000032932,True,16
22M27,310,experiment,23,→,right,→,0.7153967000194825,True,16
22M27,311,experiment,41,←,left,←,0.5953890000237152,True,16
22M27,312,experiment,26,↑,up,↑,0.7787681000190787,True,16
22M27,313,experiment,39,↓,down,↓,0.626128499978222,True,16
22M27,314,experiment,48,↑,down,↓,0.6497610000078566,False,16
22M27,315,experiment,16,↓,down,↓,0.6846934999921359,True,16
22M27,316,experiment,44,←,left,←,0.38409259996842593,True,16
22M27,317,experiment,21,↑,down,↓,0.774145099974703,False,16
22M27,318,experiment,49,↓,down,↓,0.5906873000203632,True,16
22M27,319,experiment,30,↓,down,↓,1.3473920000251383,True,16
22M27,320,experiment,50,→,right,→,0.7080234999884851,True,16
22M27,321,experiment,45,→,left,←,0.8102515999926254,False,16
22M27,322,experiment,53,↑,down,↓,0.6788093000068329,False,16
22M27,323,experiment,51,→,down,↓,1.1540188000071794,False,16
22M27,324,experiment,20,←,left,←,0.6069397000246681,True,16
22M27,325,experiment,19,←,left,←,0.9939979000482708,True,16
22M27,326,experiment,43,→,right,→,0.6621345999883488,True,16
22M27,327,experiment,42,↑,up,↑,0.5279615999897942,True,16
22M27,328,experiment,22,↑,down,↓,0.8929936000495218,False,16
22M27,329,experiment,56,↑,down,↓,0.8199760999996215,False,16
22M27,330,experiment,13,↓,down,↓,0.6506557000102475,True,16
22M27,331,experiment,32,←,down,↓,0.7073231000103988,False,16
22M27,332,experiment,40,←,left,←,0.5406527000013739,True,16
22M27,333,experiment,27,→,right,→,0.6453762999735773,True,16
22M27,334,experiment,35,→,down,↓,0.7166418000124395,False,16
22M27,335,experiment,46,↓,down,↓,0.46523639996303245,True,16
22M27,336,experiment,55,↑,up,↑,0.6339747000019997,True,16
22M27,337,experiment,60,←,left,←,0.45669900003122166,True,16
22M27,338,experiment,58,←,no_key,no_letter,-1.0,False,16
22M27,339,experiment,57,↓,left,←,0.7406534000183456,False,16
22M27,340,experiment,24,↓,down,↓,0.5673646000213921,True,16
22M27,341,training,24,↑,down,↓,0.732087499985937,False,16
22M27,342,training,13,←,left,←,0.5260516999987885,True,16
22M27,343,experiment,51,↑,up,↑,0.6232744999579154,True,16
22M27,344,experiment,39,←,no_key,no_letter,-1.0,False,16
22M27,345,experiment,36,↓,left,←,0.5598212000331841,False,16
22M27,346,experiment,27,↑,up,↑,0.4793845000094734,True,16
22M27,347,experiment,31,←,left,←,0.43985630001407117,True,16
22M27,348,experiment,43,←,left,←,0.3837478999630548,True,16
22M27,349,experiment,40,↑,no_key,no_letter,-1.0,False,16
22M27,350,experiment,23,←,left,←,1.7701830999576487,True,16
22M27,351,experiment,28,←,left,←,0.5368157000048086,True,16
22M27,352,experiment,37,↑,up,↑,0.7867116000270471,True,16
22M27,353,experiment,54,↑,up,↑,0.5032530999742448,True,16
22M27,354,experiment,49,↑,up,↑,0.7945908000110649,True,16
22M27,355,experiment,21,←,left,←,0.6776072999928147,True,16
22M27,356,experiment,32,→,right,→,1.0453508999780752,True,16
22M27,357,experiment,16,↑,up,↑,0.6732917000190355,True,16
22M27,358,experiment,53,→,left,←,0.9395331999985501,False,16
22M27,359,experiment,14,←,left,←,0.6285802999627776,True,16
22M27,360,experiment,38,↑,up,↑,0.7306088000186719,True,16
22M27,361,experiment,13,←,left,←,0.5167349000112154,True,16
22M27,362,experiment,45,↓,left,←,0.3672590000205673,False,16
22M27,363,experiment,48,←,up,↑,0.4746294000069611,False,16
22M27,364,experiment,56,←,left,←,0.9226304999901913,True,16
22M27,365,experiment,35,←,left,←,0.5826038999948651,True,16
22M27,366,experiment,18,←,left,←,0.6915941999759525,True,16
22M27,367,experiment,55,↓,down,↓,0.6272499999613501,True,16
22M27,368,experiment,57,↓,down,↓,0.6205823000054806,True,16
22M27,369,experiment,19,←,left,←,0.6152452999958768,True,16
22M27,370,experiment,58,↓,down,↓,0.4960154000436887,True,16
22M27,371,experiment,52,→,down,↓,0.7219347000354901,False,16
22M27,372,experiment,20,→,right,→,0.7519971000147052,True,16
22M27,373,experiment,29,→,right,→,0.5745833000401035,True,16
22M27,374,experiment,44,→,down,↓,0.7547374000423588,False,16
22M27,375,experiment,42,↓,down,↓,0.6245981000247411,True,16
22M27,376,experiment,26,↑,down,↓,0.5025536000030115,False,16
22M27,377,experiment,41,↑,left,←,0.9672825000016019,False,16
22M27,378,experiment,25,↑,up,↑,0.8718552999780513,True,16
22M27,379,experiment,24,←,right,→,0.661271899996791,False,16
22M27,380,experiment,22,↑,up,↑,0.4848407000536099,True,16
22M27,381,experiment,30,→,right,→,0.5012079000007361,True,16
22M27,382,experiment,34,↓,down,↓,0.48258510004961863,True,16
22M27,383,experiment,17,→,right,→,0.4363945000222884,True,16
22M27,384,experiment,47,→,right,→,0.3840815000003204,True,16
22M27,385,experiment,59,→,down,↓,0.4674053000053391,False,16
22M27,386,experiment,46,↑,down,↓,0.4343444000114687,False,16
22M27,387,experiment,33,←,no_key,no_letter,-1.0,False,16
22M27,388,experiment,50,←,left,←,0.5073342999676242,True,16
22M27,389,experiment,60,↓,down,↓,0.7434855999890715,True,16
22M27,390,experiment,15,↑,up,↑,0.7280771000077948,True,16
22M27,391,training,48,↑,left,←,0.7179249000037089,False,16
22M27,392,training,14,→,right,→,0.6158469000365585,True,16
22M27,393,experiment,33,←,no_key,no_letter,-1.0,False,16
22M27,394,experiment,14,←,right,→,0.7305197999812663,False,16
22M27,395,experiment,56,↑,up,↑,0.5758749999804422,True,16
22M27,396,experiment,41,→,left,←,0.5738271999871358,False,16
22M27,397,experiment,51,↓,left,←,0.4451340999803506,False,16
22M27,398,experiment,21,↓,down,↓,0.7893051999853924,True,16
22M27,399,experiment,34,↓,right,→,0.6472378000034951,False,16
22M27,400,experiment,23,→,right,→,0.49410179996630177,True,16
22M27,401,experiment,27,↑,left,←,0.7445677999639884,False,16
22M27,402,experiment,17,←,up,↑,0.4008862999617122,False,16
22M27,403,experiment,42,→,down,↓,0.6271478000562638,False,16
22M27,404,experiment,22,↑,up,↑,0.4438417999772355,True,16
22M27,405,experiment,37,↓,left,←,0.6011772999772802,False,16
22M27,406,experiment,47,↑,up,↑,0.25069720001192763,True,16
22M27,407,experiment,48,↑,up,↑,0.4871576000005007,True,16
22M27,408,experiment,54,↓,down,↓,0.5441352999769151,True,16
22M27,409,experiment,50,→,left,←,0.6172730000107549,False,16
22M27,410,experiment,15,↑,up,↑,0.4464087000233121,True,16
22M27,411,experiment,19,→,left,←,0.5759356999769807,False,16
22M27,412,experiment,39,↓,down,↓,0.7112064000102691,True,16
22M27,413,experiment,25,↓,down,↓,0.5308106999727897,True,16
22M27,414,experiment,40,→,right,→,0.5866923999856226,True,16
22M27,415,experiment,52,←,left,←,0.7685288999928162,True,16
22M27,416,experiment,20,→,left,←,0.6925227000028826,False,16
22M27,417,experiment,60,←,left,←,0.4572116000344977,True,16
22M27,418,experiment,28,↑,left,←,0.9484960000263527,False,16
22M27,419,experiment,13,←,left,←,0.773722900019493,True,16
22M27,420,experiment,46,↓,left,←,0.5684555000043474,False,16
22M27,421,experiment,49,←,left,←,0.6172258000005968,True,16
22M27,422,experiment,55,→,left,←,0.6598685000208206,False,16
22M27,423,experiment,32,↓,down,↓,0.7084838000009768,True,16
22M27,424,experiment,45,↑,up,↑,0.8746998999849893,True,16
22M27,425,experiment,53,→,left,←,0.8364137000171468,False,16
22M27,426,experiment,24,↑,down,↓,0.8272395999520086,False,16
22M27,427,experiment,30,→,right,→,0.6624166000401601,True,16
22M27,428,experiment,29,↑,up,↑,0.49798099999316037,True,16
22M27,429,experiment,36,←,left,←,0.4533885999699123,True,16
22M27,430,experiment,38,↑,no_key,no_letter,-1.0,False,16
22M27,431,experiment,26,→,right,→,0.9391411999822594,True,16
22M27,432,experiment,57,←,left,←,1.0077629000297748,True,16
22M27,433,experiment,31,←,left,←,0.8031208999454975,True,16
22M27,434,experiment,16,↑,left,←,1.0484156999737024,False,16
22M27,435,experiment,35,→,right,→,0.6870761999743991,True,16
22M27,436,experiment,18,↓,down,↓,0.7839864999987185,True,16
22M27,437,experiment,44,↑,down,↓,0.6111757999751717,False,16
22M27,438,experiment,43,↓,right,→,0.9984993999823928,False,16
22M27,439,experiment,58,→,right,→,0.5917469999985769,True,16
22M27,440,experiment,59,←,left,←,0.4650930000352673,True,16
22M27,441,training,25,↓,down,↓,0.6191914999508299,True,17
22M27,442,training,58,→,right,→,0.683737299987115,True,17
22M27,443,experiment,46,↓,down,↓,0.5698155999998562,True,17
22M27,444,experiment,51,↓,down,↓,0.5052677000057884,True,17
22M27,445,experiment,39,→,right,→,0.6991558999870904,True,17
22M27,446,experiment,23,→,right,→,0.5520422999979928,True,17
22M27,447,experiment,50,←,left,←,0.6003671999787912,True,17
22M27,448,experiment,58,←,left,←,0.6337123000412248,True,17
22M27,449,experiment,49,↑,up,↑,0.7837319999816827,True,17
22M27,450,experiment,44,←,left,←,0.6110351999523118,True,17
22M27,451,experiment,29,↑,up,↑,0.6717050000443123,True,17
22M27,452,experiment,55,↑,no_key,no_letter,-1.0,False,17
22M27,453,experiment,22,←,left,←,0.4597941999672912,True,17
22M27,454,experiment,16,←,no_key,no_letter,-1.0,False,17
22M27,455,experiment,56,↓,down,↓,1.5552528999978676,True,17
22M27,456,experiment,41,←,left,←,0.5777872999897227,True,17
22M27,457,experiment,40,↓,down,↓,0.800406499998644,True,17
22M27,458,experiment,35,↓,down,↓,0.5051222000038251,True,17
22M27,459,experiment,17,↓,down,↓,0.674004899978172,True,17
22M27,460,experiment,38,↑,down,↓,0.9816887999768369,False,17
22M27,461,experiment,34,→,down,↓,1.6077362999785691,False,17
22M27,462,experiment,31,→,right,→,0.6596273999894038,True,17
22M27,463,experiment,14,←,left,←,0.5916826999746263,True,17
22M27,464,experiment,54,←,left,←,0.5883427000371739,True,17
22M27,465,experiment,36,←,left,←,0.6933006000472233,True,17
22M27,466,experiment,45,↑,up,↑,0.7160155000165105,True,17
22M27,467,experiment,21,↓,down,↓,0.656990899995435,True,17
22M27,468,experiment,57,←,right,→,0.5131197000155225,False,17
22M27,469,experiment,24,↑,up,↑,0.6525196000002325,True,17
22M27,470,experiment,30,↓,down,↓,0.7983484999858774,True,17
22M27,471,experiment,47,↑,up,↑,0.5189883999992162,True,17
22M27,472,experiment,32,←,left,←,0.5811305000097491,True,17
22M27,473,experiment,15,↑,down,↓,1.284929200017359,False,17
22M27,474,experiment,53,←,left,←,0.6050491000059992,True,17
22M27,475,experiment,37,↑,up,↑,0.7007005999912508,True,17
22M27,476,experiment,19,←,down,↓,1.491652900003828,False,17
22M27,477,experiment,13,↑,down,↓,0.6716813999810256,False,17
22M27,478,experiment,18,↓,down,↓,0.6570464000105858,True,17
22M27,479,experiment,42,↓,down,↓,0.7553025999804959,True,17
22M27,480,experiment,25,↓,down,↓,0.4603443999658339,True,17
22M27,481,experiment,27,↓,down,↓,0.3339509999495931,True,17
22M27,482,experiment,52,→,right,→,0.5909713999717496,True,17
22M27,483,experiment,43,↑,up,↑,0.5469392000231892,True,17
22M27,484,experiment,33,←,up,↑,0.4006356000318192,False,17
22M27,485,experiment,26,→,right,→,0.6450061000068672,True,17
22M27,486,experiment,28,↑,up,↑,0.6970197000191547,True,17
22M27,487,experiment,48,←,left,←,1.060912200016901,True,17
22M27,488,experiment,60,↑,up,↑,0.667101500032004,True,17
22M27,489,experiment,59,←,no_key,no_letter,-1.0,False,17
22M27,490,experiment,20,←,left,←,0.6776828999863937,True,17
22M27,491,training,50,↓,down,↓,0.47650490002706647,True,17
22M27,492,training,30,→,right,→,0.5817637000000104,True,17
22M27,493,experiment,16,↑,up,↑,0.5556602000142448,True,17
22M27,494,experiment,27,↓,down,↓,0.603589300008025,True,17
22M27,495,experiment,44,→,right,→,0.5102987000136636,True,17
22M27,496,experiment,41,→,left,←,0.3672906000283547,False,17
22M27,497,experiment,22,↑,up,↑,0.6249643000192009,True,17
22M27,498,experiment,45,↑,up,↑,0.7062931999680586,True,17
22M27,499,experiment,55,→,right,→,0.6736502000130713,True,17
22M27,500,experiment,47,↓,down,↓,0.7919013999635354,True,17
22M27,501,experiment,58,←,left,←,0.384033799986355,True,17
22M27,502,experiment,52,→,right,→,0.5032009000424296,True,17
22M27,503,experiment,26,↑,down,↓,0.7216483000083826,False,17
22M27,504,experiment,14,↓,down,↓,1.003816000011284,True,17
22M27,505,experiment,34,↑,up,↑,0.6692410000250675,True,17
22M27,506,experiment,18,←,left,←,0.5581463999697007,True,17
22M27,507,experiment,31,↓,down,↓,0.5158575000241399,True,17
22M27,508,experiment,46,↑,up,↑,1.3843253999948502,True,17
22M27,509,experiment,57,↓,down,↓,0.5789418999920599,True,17
22M27,510,experiment,35,←,left,←,0.49294409999856725,True,17
22M27,511,experiment,30,↑,left,←,0.3671785000478849,False,17
22M27,512,experiment,15,↓,down,↓,0.628473499964457,True,17
22M27,513,experiment,37,←,no_key,no_letter,-1.0,False,17
22M27,514,experiment,49,↓,left,←,1.2362391999922693,False,17
22M27,515,experiment,32,→,right,→,0.8376633999869227,True,17
22M27,516,experiment,43,←,left,←,0.575911600026302,True,17
22M27,517,experiment,40,←,right,→,0.8542572000296786,False,17
22M27,518,experiment,28,↓,right,→,0.5375470999861136,False,17
22M27,519,experiment,19,↓,down,↓,0.5919974999851547,True,17
22M27,520,experiment,50,←,left,←,0.7030710000544786,True,17
22M27,521,experiment,56,→,right,→,0.6941088000312448,True,17
22M27,522,experiment,36,↓,down,↓,0.6342514000134543,True,17
22M27,523,experiment,24,→,right,→,0.6249486000160687,True,17
22M27,524,experiment,51,↓,down,↓,0.5742898000171408,True,17
22M27,525,experiment,59,↑,up,↑,0.8242223999695852,True,17
22M27,526,experiment,54,→,right,→,0.579527199966833,True,17
22M27,527,experiment,38,↓,down,↓,0.5875380000215955,True,17
22M27,528,experiment,48,↓,down,↓,0.7004213000182062,True,17
22M27,529,experiment,33,←,left,←,0.6982928999932483,True,17
22M27,530,experiment,25,←,left,←,0.5174181999755092,True,17
22M27,531,experiment,53,↓,down,↓,0.4614631000440568,True,17
22M27,532,experiment,20,↓,down,↓,0.7736401000292972,True,17
22M27,533,experiment,23,↑,up,↑,0.4795093999709934,True,17
22M27,534,experiment,39,→,right,→,1.0193376000388525,True,17
22M27,535,experiment,60,↓,no_key,no_letter,-1.0,False,17
22M27,536,experiment,42,↑,up,↑,0.6642168000107631,True,17
22M27,537,experiment,13,↑,up,↑,0.5331176000181586,True,17
22M27,538,experiment,21,→,up,↑,1.0254854999948293,False,17
22M27,539,experiment,29,↓,down,↓,0.6614708000561222,True,17
22M27,540,experiment,17,↓,down,↓,0.8722241999930702,True,17
22M27,541,training,29,↑,up,↑,0.6509153000079095,True,17
22M27,542,training,20,↓,down,↓,1.4675184999941848,True,17
22M27,543,experiment,53,↑,up,↑,0.7177217000280507,True,17
22M27,544,experiment,20,↓,down,↓,0.6994943000026979,True,17
22M27,545,experiment,15,↓,down,↓,0.5737960999831557,True,17
22M27,546,experiment,51,←,left,←,0.508828199992422,True,17
22M27,547,experiment,18,→,right,→,0.7168052000342868,True,17
22M27,548,experiment,34,↓,down,↓,0.46562619996257126,True,17
22M27,549,experiment,59,↑,up,↑,0.6797796000028029,True,17
22M27,550,experiment,39,→,right,→,0.7627966000000015,True,17
22M27,551,experiment,45,↓,down,↓,0.6229105000384152,True,17
22M27,552,experiment,30,←,left,←,0.5381109000300057,True,17
22M27,553,experiment,37,→,right,→,1.0924116999958642,True,17
22M27,554,experiment,22,→,right,→,0.6584826000034809,True,17
22M27,555,experiment,13,↓,down,↓,0.5034918999881484,True,17
22M27,556,experiment,54,→,right,→,0.4713690999778919,True,17
22M27,557,experiment,38,↓,down,↓,0.6274651999701746,True,17
22M27,558,experiment,52,↑,no_key,no_letter,-1.0,False,17
22M27,559,experiment,42,↑,up,↑,0.51006870000856,True,17
22M27,560,experiment,25,→,right,→,0.5535018999944441,True,17
22M27,561,experiment,40,↓,up,↑,0.8329914000350982,False,17
22M27,562,experiment,60,↓,down,↓,0.5754604999674484,True,17
22M27,563,experiment,48,↓,down,↓,0.5207765999948606,True,17
22M27,564,experiment,17,↑,no_key,no_letter,-1.0,False,17
22M27,565,experiment,49,←,left,←,0.5061232000007294,True,17
22M27,566,experiment,58,↑,up,↑,0.70345010003075,True,17
22M27,567,experiment,47,↑,up,↑,0.5240870999987237,True,17
22M27,568,experiment,24,↓,down,↓,0.6717403000220656,True,17
22M27,569,experiment,41,↓,up,↑,0.7534558999468572,False,17
22M27,570,experiment,35,←,left,←,0.5387530999723822,True,17
22M27,571,experiment,33,→,right,→,0.5433924000244588,True,17
22M27,572,experiment,26,←,left,←,0.4967962000519037,True,17
22M27,573,experiment,27,↓,down,↓,0.6586626999778673,True,17
22M27,574,experiment,21,→,right,→,0.5308267999789678,True,17
22M27,575,experiment,32,←,left,←,0.3842509999522008,True,17
22M27,576,experiment,50,←,no_key,no_letter,-1.0,False,17
22M27,577,experiment,31,→,left,←,0.6683380999602377,False,17
22M27,578,experiment,43,→,right,→,0.46870740002486855,True,17
22M27,579,experiment,36,→,right,→,0.6342141999630257,True,17
22M27,580,experiment,14,↑,up,↑,0.5754816000116989,True,17
22M27,581,experiment,44,↓,down,↓,0.6192886999924667,True,17
22M27,582,experiment,55,↓,down,↓,0.6140614000032656,True,17
22M27,583,experiment,16,↑,down,↓,1.1867522000102326,False,17
22M27,584,experiment,46,←,left,←,0.6367378999711946,True,17
22M27,585,experiment,23,←,left,←,1.0443876999779604,True,17
22M27,586,experiment,29,↑,up,↑,0.46336329996120185,True,17
22M27,587,experiment,56,↓,left,←,0.527617999992799,False,17
22M27,588,experiment,19,←,left,←,0.5021151999826543,True,17
22M27,589,experiment,28,←,left,←,0.9034168000216596,True,17
22M27,590,experiment,57,↓,down,↓,0.7735328999697231,True,17
