PART_ID,Trial_no,Trial_type,CSI,Stim_letter,Key_pressed,letter_choose,Rt,Corr,Stimulus Time
37K24,1,training,60,↓,down,↓,0.8376140999607742,True,30
37K24,2,training,60,↓,down,↓,0.4502269000513479,True,30
37K24,3,training,60,→,no_key,no_letter,-1.0,False,30
37K24,4,training,60,→,right,→,0.8071006999816746,True,30
37K24,5,training,60,↓,down,↓,0.6339791000355035,True,30
37K24,6,training,60,↑,up,↑,1.5314652000088245,True,30
37K24,7,training,60,←,left,←,0.5173164999578148,True,30
37K24,8,training,60,→,right,→,0.4846358000067994,True,30
37K24,9,training,60,↓,down,↓,0.7228017000015825,True,30
37K24,10,training,60,↓,down,↓,0.500740599934943,True,30
37K24,11,training,60,↓,down,↓,0.41685699997469783,True,30
37K24,12,training,60,↓,down,↓,0.48508939996827394,True,30
37K24,13,training,60,↑,up,↑,0.7102100000483915,True,30
37K24,14,training,60,←,left,←,0.6332190000684932,True,30
37K24,15,training,60,→,right,→,0.49982280004769564,True,30
37K24,16,training,60,→,right,→,0.4503470999188721,True,30
37K24,17,training,60,←,right,→,0.45077909994870424,False,30
37K24,18,training,60,↓,down,↓,0.6794935000361875,True,30
37K24,19,training,60,→,right,→,0.5170612999936566,True,30
37K24,20,training,60,↓,down,↓,0.5337389000924304,True,30
37K24,21,training,60,↑,up,↑,0.5151649999897927,True,18
37K24,22,training,60,↑,up,↑,0.434436299954541,True,18
37K24,23,training,60,↓,down,↓,0.6189204999245703,True,18
37K24,24,training,60,↓,down,↓,0.5054352999432012,True,18
37K24,25,training,60,↑,up,↑,0.6449814999941736,True,18
37K24,26,training,60,↓,down,↓,0.5061881999718025,True,18
37K24,27,training,60,↑,up,↑,0.6373909999383613,True,18
37K24,28,training,60,←,down,↓,1.771400299970992,False,18
37K24,29,training,60,↓,down,↓,0.6924351999768987,True,18
37K24,30,training,60,→,right,→,0.496142000076361,True,18
37K24,31,training,60,↓,up,↑,0.4994277999503538,False,18
37K24,32,training,60,→,right,→,0.8707852000370622,True,18
37K24,33,training,60,←,left,←,0.5395602999487892,True,18
37K24,34,training,60,←,left,←,0.6296442000893876,True,18
37K24,35,training,60,↑,up,↑,0.6273936000652611,True,18
37K24,36,training,60,←,left,←,0.6574021000415087,True,18
37K24,37,training,60,←,left,←,0.5507844999665394,True,18
37K24,38,training,60,↑,up,↑,0.7040699999779463,True,18
37K24,39,training,60,→,right,→,0.7633477000053972,True,18
37K24,40,training,60,→,right,→,0.5081516000209376,True,18
37K24,41,training,26,↓,down,↓,0.6663521999726072,True,18
37K24,42,training,60,←,left,←,0.5596176999388263,True,18
37K24,43,experiment,29,↑,up,↑,0.6620615000138059,True,18
37K24,44,experiment,20,↑,up,↑,0.5347113000461832,True,18
37K24,45,experiment,18,←,right,→,0.525260700029321,False,18
37K24,46,experiment,19,→,right,→,0.5000069999368861,True,18
37K24,47,experiment,42,↑,up,↑,0.5959995000157505,True,18
37K24,48,experiment,27,↑,down,↓,0.7546442999737337,False,18
37K24,49,experiment,43,↑,up,↑,1.7683417999651283,True,18
37K24,50,experiment,39,←,left,←,0.55145580007229,True,18
37K24,51,experiment,45,↑,up,↑,0.49938239995390177,True,18
37K24,52,experiment,14,↓,up,↑,1.1342901000753045,False,18
37K24,53,experiment,59,↓,down,↓,0.49733959999866784,True,18
37K24,54,experiment,53,→,right,→,0.522105099982582,True,18
37K24,55,experiment,56,←,left,←,0.5039819000521675,True,18
37K24,56,experiment,34,↓,down,↓,0.5173821999924257,True,18
37K24,57,experiment,58,→,right,→,0.4819044000469148,True,18
37K24,58,experiment,23,←,left,←,0.5834732999792323,True,18
37K24,59,experiment,54,↑,up,↑,0.4685144000686705,True,18
37K24,60,experiment,49,←,right,→,1.8800102000823244,False,18
37K24,61,experiment,55,↑,up,↑,0.5360911999596283,True,18
37K24,62,experiment,60,↓,down,↓,0.5947189999278635,True,18
37K24,63,experiment,38,←,left,←,0.6500512999482453,True,18
37K24,64,experiment,21,←,left,←,1.2738723000511527,True,18
37K24,65,experiment,57,↓,down,↓,0.8812075000023469,True,18
37K24,66,experiment,16,→,right,→,0.5073643999639899,True,18
37K24,67,experiment,15,↑,up,↑,0.6932805000105873,True,18
37K24,68,experiment,28,↓,down,↓,0.6553798000095412,True,18
37K24,69,experiment,48,↑,up,↑,0.7253771000541747,True,18
37K24,70,experiment,30,↓,down,↓,0.7406071000732481,True,18
37K24,71,experiment,26,↓,down,↓,0.6061736999545246,True,18
37K24,72,experiment,33,↓,down,↓,0.5438740999670699,True,18
37K24,73,experiment,24,↑,up,↑,1.1627537000458688,True,18
37K24,74,experiment,50,↓,up,↑,1.186620800057426,False,18
37K24,75,experiment,44,→,right,→,0.5741599999601021,True,18
37K24,76,experiment,47,→,right,→,1.2478426999878138,True,18
37K24,77,experiment,35,←,right,→,0.6386354999849573,False,18
37K24,78,experiment,52,→,right,→,0.5546019000466913,True,18
37K24,79,experiment,36,↓,down,↓,0.6205607999581844,True,18
37K24,80,experiment,51,↓,down,↓,0.5619265000568703,True,18
37K24,81,experiment,32,↑,down,↓,0.7906133999349549,False,18
37K24,82,experiment,41,→,right,→,1.1159092000452802,True,18
37K24,83,experiment,22,→,right,→,0.4805676001124084,True,18
37K24,84,experiment,17,←,right,→,0.6659205000614747,False,18
37K24,85,experiment,31,↑,up,↑,0.5945879999781027,True,18
37K24,86,experiment,25,→,right,→,0.6185424000723287,True,18
37K24,87,experiment,46,↑,down,↓,0.8912388000171632,False,18
37K24,88,experiment,40,↓,down,↓,0.8695078000891954,True,18
37K24,89,experiment,13,↓,down,↓,0.6741493999725208,True,18
37K24,90,experiment,37,→,right,→,0.5029982998967171,True,18
37K24,91,training,28,↓,down,↓,0.6886109999613836,True,18
37K24,92,training,43,↑,up,↑,0.47279389994218946,True,18
37K24,93,experiment,19,←,left,←,0.7845785999670625,True,18
37K24,94,experiment,34,↓,down,↓,0.5308461000677198,True,18
37K24,95,experiment,57,→,right,→,1.1031604000600055,True,18
37K24,96,experiment,47,→,right,→,0.9961042000213638,True,18
37K24,97,experiment,49,←,right,→,0.7399255000054836,False,18
37K24,98,experiment,22,↑,up,↑,0.5198765000095591,True,18
37K24,99,experiment,37,↑,up,↑,0.5704007999738678,True,18
37K24,100,experiment,36,←,right,→,0.4917819000547752,False,18
37K24,101,experiment,42,→,right,→,0.5725841000676155,True,18
37K24,102,experiment,28,←,left,←,1.1471811999799684,True,18
37K24,103,experiment,60,↓,down,↓,0.573426799965091,True,18
37K24,104,experiment,58,↓,down,↓,0.7999560999451205,True,18
37K24,105,experiment,21,←,left,←,1.0099900000495836,True,18
37K24,106,experiment,45,↑,up,↑,0.5398724999977276,True,18
37K24,107,experiment,44,←,left,←,0.3840018999762833,True,18
37K24,108,experiment,14,↓,down,↓,0.607810299959965,True,18
37K24,109,experiment,38,↑,up,↑,0.6225410000188276,True,18
37K24,110,experiment,17,→,right,→,0.5627128999913111,True,18
37K24,111,experiment,51,→,right,→,1.15499000006821,True,18
37K24,112,experiment,35,→,right,→,0.7894313998986036,True,18
37K24,113,experiment,48,→,left,←,0.7817931999452412,False,18
37K24,114,experiment,40,→,right,→,0.4688740000128746,True,18
37K24,115,experiment,26,↑,up,↑,0.6871451999759302,True,18
37K24,116,experiment,18,→,right,→,0.43380070000421256,True,18
37K24,117,experiment,50,→,right,→,0.4689011999871582,True,18
37K24,118,experiment,32,→,right,→,0.5878659000154585,True,18
37K24,119,experiment,55,↑,up,↑,1.1040447000414133,True,18
37K24,120,experiment,43,↑,up,↑,0.77518290001899,True,18
37K24,121,experiment,29,←,left,←,0.38398409995716065,True,18
37K24,122,experiment,53,↑,up,↑,0.9859257000498474,True,18
37K24,123,experiment,30,→,right,→,0.5427394000580534,True,18
37K24,124,experiment,27,↑,up,↑,0.41667549998965114,True,18
37K24,125,experiment,16,↓,down,↓,0.5472026999341324,True,18
37K24,126,experiment,33,→,right,→,0.4790997001109645,True,18
37K24,127,experiment,23,↓,down,↓,0.7324843999231234,True,18
37K24,128,experiment,31,↑,up,↑,0.482386099989526,True,18
37K24,129,experiment,52,←,left,←,1.0763948000967503,True,18
37K24,130,experiment,13,←,right,→,0.4891119999811053,False,18
37K24,131,experiment,24,→,right,→,0.5098092000698671,True,18
37K24,132,experiment,41,←,left,←,0.5265148000326008,True,18
37K24,133,experiment,46,←,left,←,0.4008497999748215,True,18
37K24,134,experiment,15,↑,up,↑,0.5124505999265239,True,18
37K24,135,experiment,59,→,right,→,0.4004998999880627,True,18
37K24,136,experiment,56,↑,up,↑,0.4008441000478342,True,18
37K24,137,experiment,25,↓,down,↓,0.81384220009204,True,18
37K24,138,experiment,54,←,left,←,0.3836664999835193,True,18
37K24,139,experiment,20,←,right,→,1.155725699965842,False,18
37K24,140,experiment,39,→,right,→,0.5318477000109851,True,18
37K24,141,training,33,→,left,←,0.5464948000153527,False,18
37K24,142,training,19,→,right,→,0.4964678999967873,True,18
37K24,143,experiment,46,↑,up,↑,1.1337601999985054,True,18
37K24,144,experiment,31,↑,up,↑,0.38390800007618964,True,18
37K24,145,experiment,28,↑,up,↑,0.8252628000918776,True,18
37K24,146,experiment,27,↑,up,↑,0.7989692999981344,True,18
37K24,147,experiment,40,→,left,←,0.5318279999773949,False,18
37K24,148,experiment,50,↓,down,↓,0.5170854000607505,True,18
37K24,149,experiment,20,↑,up,↑,0.5470449000131339,True,18
37K24,150,experiment,57,←,right,→,0.4790664000902325,False,18
37K24,151,experiment,37,↓,left,←,0.40063769998960197,False,18
37K24,152,experiment,39,↓,down,↓,0.6004519000416622,True,18
37K24,153,experiment,24,→,right,→,0.5124947999138385,True,18
37K24,154,experiment,25,←,right,→,0.5076919000130147,False,18
37K24,155,experiment,16,→,right,→,1.1332783999387175,True,18
37K24,156,experiment,21,←,right,→,0.6502229999750853,False,18
37K24,157,experiment,56,↓,left,←,1.250415000016801,False,18
37K24,158,experiment,43,←,right,→,0.5077629999723285,False,18
37K24,159,experiment,54,↓,down,↓,0.5796380999963731,True,18
37K24,160,experiment,45,↑,up,↑,1.1183970000129193,True,18
37K24,161,experiment,51,←,left,←,1.023648300091736,True,18
37K24,162,experiment,52,↓,down,↓,0.5490783000132069,True,18
37K24,163,experiment,17,→,right,→,0.49106999998912215,True,18
37K24,164,experiment,58,↓,down,↓,0.537216900032945,True,18
37K24,165,experiment,33,↑,up,↑,0.5900114999385551,True,18
37K24,166,experiment,53,↑,up,↑,0.5232167999492958,True,18
37K24,167,experiment,30,↑,up,↑,0.5304913999279961,True,18
37K24,168,experiment,19,←,left,←,0.4802622999995947,True,18
37K24,169,experiment,15,↓,down,↓,0.8433103000279516,True,18
37K24,170,experiment,23,←,right,→,0.5223317999625579,False,18
37K24,171,experiment,34,↑,up,↑,0.4173646999988705,True,18
37K24,172,experiment,55,→,right,→,1.1290152000728995,True,18
37K24,173,experiment,18,↓,down,↓,0.49649499997030944,True,18
37K24,174,experiment,13,←,left,←,0.9716705000028014,True,18
37K24,175,experiment,49,→,right,→,0.5803529999684542,True,18
37K24,176,experiment,38,←,left,←,1.0439974000910297,True,18
37K24,177,experiment,41,←,left,←,0.47932859999127686,True,18
37K24,178,experiment,42,→,right,→,1.0159166000084952,True,18
37K24,179,experiment,44,↑,up,↑,0.4978176000295207,True,18
37K24,180,experiment,47,←,right,→,0.5105839000316337,False,18
37K24,181,experiment,48,←,left,←,0.38387369993142784,True,18
37K24,182,experiment,36,→,right,→,0.5063397000776604,True,18
37K24,183,experiment,26,↓,down,↓,0.6692446999950334,True,18
37K24,184,experiment,35,→,right,→,0.5390186000149697,True,18
37K24,185,experiment,32,←,left,←,0.36743900005239993,True,18
37K24,186,experiment,14,←,right,→,0.4876471000025049,False,18
37K24,187,experiment,22,←,right,→,0.5898676998913288,False,18
37K24,188,experiment,29,→,right,→,0.4679092000005767,True,18
37K24,189,experiment,59,↑,up,↑,1.080214299960062,True,18
37K24,190,experiment,60,←,right,→,0.5172679000534117,False,18
37K24,191,training,14,→,right,→,0.49913920008111745,True,18
37K24,192,training,14,↓,down,↓,0.6457862000679597,True,18
37K24,193,experiment,29,→,left,←,0.41725529998075217,False,18
37K24,194,experiment,44,↑,up,↑,0.41755160002503544,True,18
37K24,195,experiment,23,→,right,→,0.47297150001395494,True,18
37K24,196,experiment,57,→,right,→,0.5276491999393329,True,18
37K24,197,experiment,27,→,right,→,0.5209631000179797,True,18
37K24,198,experiment,16,→,right,→,0.434202800039202,True,18
37K24,199,experiment,51,↑,up,↑,0.6376292000059038,True,18
37K24,200,experiment,24,↓,down,↓,0.6603777999989688,True,18
37K24,201,experiment,58,↓,up,↑,0.5316705999430269,False,18
37K24,202,experiment,18,↓,down,↓,0.866363100009039,True,18
37K24,203,experiment,37,↓,down,↓,0.6150026000104845,True,18
37K24,204,experiment,55,↑,up,↑,0.9376905000535771,True,18
37K24,205,experiment,39,→,right,→,0.47418340004514903,True,18
37K24,206,experiment,34,↑,up,↑,0.832353200064972,True,18
37K24,207,experiment,25,←,left,←,0.5022794000105932,True,18
37K24,208,experiment,31,↑,up,↑,0.7815901000285521,True,18
37K24,209,experiment,41,→,right,→,0.48350930004380643,True,18
37K24,210,experiment,46,←,right,→,0.5848150999518111,False,18
37K24,211,experiment,56,←,left,←,0.6682619999628514,True,18
37K24,212,experiment,28,↑,up,↑,0.6229917999589816,True,18
37K24,213,experiment,47,↓,down,↓,0.7351936999475583,True,18
37K24,214,experiment,45,↑,up,↑,0.7558186000678688,True,18
37K24,215,experiment,13,↓,down,↓,0.5887929000891745,True,18
37K24,216,experiment,30,→,right,→,0.521555699990131,True,18
37K24,217,experiment,20,←,left,←,0.7275219999719411,True,18
37K24,218,experiment,32,←,left,←,0.6539802000625059,True,18
37K24,219,experiment,19,↓,down,↓,0.8468627999536693,True,18
37K24,220,experiment,43,→,right,→,0.5443354999879375,True,18
37K24,221,experiment,50,←,left,←,0.6416350000072271,True,18
37K24,222,experiment,49,←,right,→,0.9996607000939548,False,18
37K24,223,experiment,38,←,left,←,0.5742356999544427,True,18
37K24,224,experiment,54,↓,down,↓,0.6275839000009,True,18
37K24,225,experiment,53,↑,up,↑,0.5995703000808135,True,18
37K24,226,experiment,17,↑,up,↑,0.6204525000648573,True,18
37K24,227,experiment,60,↓,down,↓,0.5797757999971509,True,18
37K24,228,experiment,26,→,right,→,0.6348709999583662,True,18
37K24,229,experiment,52,←,left,←,0.5028332000365481,True,18
37K24,230,experiment,33,↑,up,↑,0.7809648000402376,True,18
37K24,231,experiment,59,↑,up,↑,0.4338857000693679,True,18
37K24,232,experiment,15,→,right,→,0.5141811000648886,True,18
37K24,233,experiment,42,↓,down,↓,0.5137907000025734,True,18
37K24,234,experiment,14,↑,up,↑,0.8521200000541285,True,18
37K24,235,experiment,35,←,left,←,0.7541338000446558,True,18
37K24,236,experiment,40,→,right,→,0.6175140000414103,True,18
37K24,237,experiment,22,←,left,←,0.7704282999038696,True,18
37K24,238,experiment,21,←,left,←,0.7335728999460116,True,18
37K24,239,experiment,48,←,left,←,0.552125500049442,True,18
37K24,240,experiment,36,↑,up,↑,0.43381570000201464,True,18
37K24,241,training,54,↑,up,↑,0.6089606999885291,True,17
37K24,242,training,55,↑,up,↑,0.49213859997689724,True,17
37K24,243,experiment,57,↑,up,↑,1.2588628000812605,True,17
37K24,244,experiment,37,←,left,←,1.4082536000059918,True,17
37K24,245,experiment,43,↑,up,↑,0.5717144999653101,True,17
37K24,246,experiment,45,↑,up,↑,0.503134400001727,True,17
37K24,247,experiment,32,←,right,→,0.5735038999700919,False,17
37K24,248,experiment,39,↑,up,↑,0.5168926999904215,True,17
37K24,249,experiment,44,→,right,→,0.47518419998232275,True,17
37K24,250,experiment,53,←,right,→,0.5014745999360457,False,17
37K24,251,experiment,58,←,left,←,0.4581248000031337,True,17
37K24,252,experiment,42,↓,down,↓,0.6354882000014186,True,17
37K24,253,experiment,29,←,right,→,0.542800800059922,False,17
37K24,254,experiment,52,→,right,→,1.1191434999927878,True,17
37K24,255,experiment,24,↑,up,↑,0.48243989993352443,True,17
37K24,256,experiment,27,←,left,←,0.9968055000063032,True,17
37K24,257,experiment,56,↓,down,↓,0.7194888000376523,True,17
37K24,258,experiment,50,↓,down,↓,0.6096018000971526,True,17
37K24,259,experiment,59,←,left,←,0.47430700005497783,True,17
37K24,260,experiment,23,↑,up,↑,0.464070999994874,True,17
37K24,261,experiment,33,→,right,→,0.5114473999710754,True,17
37K24,262,experiment,25,↑,up,↑,0.5229267000686377,True,17
37K24,263,experiment,36,←,right,→,0.5744080999866128,False,17
37K24,264,experiment,30,→,right,→,0.5153411000501364,True,17
37K24,265,experiment,46,↓,down,↓,0.7521699999924749,True,17
37K24,266,experiment,14,←,left,←,0.6328750000102445,True,17
37K24,267,experiment,16,↑,up,↑,0.4175624999916181,True,17
37K24,268,experiment,15,←,left,←,0.40054599998984486,True,17
37K24,269,experiment,22,↓,down,↓,0.7221392999636009,True,17
37K24,270,experiment,17,←,left,←,0.5381508999271318,True,17
37K24,271,experiment,49,←,right,→,0.7323012999258935,False,17
37K24,272,experiment,48,↑,up,↑,0.7187402999261394,True,17
37K24,273,experiment,41,←,left,←,0.583071899949573,True,17
37K24,274,experiment,31,→,right,→,0.49084820004645735,True,17
37K24,275,experiment,21,↓,down,↓,0.7537168000126258,True,17
37K24,276,experiment,26,↑,up,↑,0.8021909999661148,True,17
37K24,277,experiment,54,↓,down,↓,0.6460760000627488,True,17
37K24,278,experiment,20,→,right,→,0.6071018999209628,True,17
37K24,279,experiment,28,→,right,→,1.3800490000285208,True,17
37K24,280,experiment,55,→,right,→,0.5208841999992728,True,17
37K24,281,experiment,35,↑,left,←,0.7487880999688059,False,17
37K24,282,experiment,40,→,right,→,0.572361099999398,True,17
37K24,283,experiment,60,↑,up,↑,0.4693846000591293,True,17
37K24,284,experiment,47,↓,down,↓,0.7316344999708235,True,17
37K24,285,experiment,34,↓,down,↓,0.5994915999472141,True,17
37K24,286,experiment,19,→,right,→,0.5307940000202507,True,17
37K24,287,experiment,38,↓,down,↓,0.6601160001009703,True,17
37K24,288,experiment,51,↓,down,↓,0.5921278999885544,True,17
37K24,289,experiment,13,↑,up,↑,0.7041448000818491,True,17
37K24,290,experiment,18,↓,down,↓,0.46419610001612455,True,17
37K24,291,training,58,↓,down,↓,1.0087405000813305,True,17
37K24,292,training,58,↓,down,↓,0.6663972000824288,True,17
37K24,293,experiment,48,←,left,←,0.5192702000495046,True,17
37K24,294,experiment,54,↑,up,↑,0.5185723000904545,True,17
37K24,295,experiment,28,↓,down,↓,1.0716626000357792,True,17
37K24,296,experiment,33,←,left,←,0.5430025999667123,True,17
37K24,297,experiment,55,←,left,←,1.0611972999759018,True,17
37K24,298,experiment,31,←,right,→,0.6382502999622375,False,17
37K24,299,experiment,25,↓,down,↓,0.716125400038436,True,17
37K24,300,experiment,44,←,left,←,0.474147200002335,True,17
37K24,301,experiment,59,↓,down,↓,0.5599256000714377,True,17
37K24,302,experiment,34,←,left,←,1.2273021000437438,True,17
37K24,303,experiment,22,↑,up,↑,1.044018300017342,True,17
37K24,304,experiment,47,←,left,←,0.9313385999994352,True,17
37K24,305,experiment,60,→,right,→,0.9740498999599367,True,17
37K24,306,experiment,17,↓,down,↓,0.732032599975355,True,17
37K24,307,experiment,50,→,right,→,0.55740060005337,True,17
37K24,308,experiment,36,←,left,←,0.9754128999775276,True,17
37K24,309,experiment,51,→,right,→,0.5587558000115678,True,17
37K24,310,experiment,53,←,right,→,0.5813973000040278,False,17
37K24,311,experiment,38,→,right,→,0.5006970000686124,True,17
37K24,312,experiment,13,↓,down,↓,0.7680898000253364,True,17
37K24,313,experiment,20,←,left,←,0.38396319991443306,True,17
37K24,314,experiment,46,↓,down,↓,0.5814224000787362,True,17
37K24,315,experiment,24,↑,down,↓,0.8379072999814525,False,17
37K24,316,experiment,49,↓,down,↓,0.7080198000185192,True,17
37K24,317,experiment,58,↓,down,↓,0.5213297998998314,True,17
37K24,318,experiment,57,↑,down,↓,0.7106916001066566,False,17
37K24,319,experiment,43,↓,down,↓,1.086048899916932,True,17
37K24,320,experiment,35,↑,up,↑,0.5712947999127209,True,17
37K24,321,experiment,56,←,left,←,0.41661209997255355,True,17
37K24,322,experiment,37,←,right,→,0.613405300071463,False,17
37K24,323,experiment,16,→,right,→,0.4739734000759199,True,17
37K24,324,experiment,29,←,right,→,0.4760069000767544,False,17
37K24,325,experiment,32,↓,down,↓,0.6359903999837115,True,17
37K24,326,experiment,40,→,right,→,0.4880025000311434,True,17
37K24,327,experiment,45,↓,down,↓,0.5909023999702185,True,17
37K24,328,experiment,30,↑,up,↑,1.0592461000196636,True,17
37K24,329,experiment,19,←,left,←,1.0685691999970004,True,17
37K24,330,experiment,14,→,right,→,0.464647899963893,True,17
37K24,331,experiment,42,↓,down,↓,1.1302218999480829,True,17
37K24,332,experiment,27,←,right,→,0.4987870000768453,False,17
37K24,333,experiment,52,↑,up,↑,0.7721745000453666,True,17
37K24,334,experiment,41,↓,down,↓,0.4007099000737071,True,17
37K24,335,experiment,39,↓,down,↓,0.5433476000325754,True,17
37K24,336,experiment,15,↓,down,↓,0.6799569999566302,True,17
37K24,337,experiment,23,↓,down,↓,0.4862699001096189,True,17
37K24,338,experiment,18,↓,down,↓,0.7026627000886947,True,17
37K24,339,experiment,26,→,right,→,0.5453785000136122,True,17
37K24,340,experiment,21,↑,up,↑,0.7819733999203891,True,17
37K24,341,training,44,→,right,→,0.5472832000814378,True,17
37K24,342,training,26,↓,down,↓,0.6360284999245778,True,17
37K24,343,experiment,22,→,right,→,0.48425520001910627,True,17
37K24,344,experiment,17,↑,down,↓,0.7895292000612244,False,17
37K24,345,experiment,41,←,right,→,0.6112342999549583,False,17
37K24,346,experiment,49,↓,down,↓,0.6659237999701872,True,17
37K24,347,experiment,57,→,right,→,0.4734226999571547,True,17
37K24,348,experiment,43,↓,down,↓,0.5780496998922899,True,17
37K24,349,experiment,51,↓,down,↓,0.5292343000182882,True,17
37K24,350,experiment,55,←,right,→,0.47130630002357066,False,17
37K24,351,experiment,37,↓,down,↓,0.6289983000606298,True,17
37K24,352,experiment,30,↓,down,↓,0.47933650005143136,True,17
37K24,353,experiment,35,↓,down,↓,0.48552220000419766,True,17
37K24,354,experiment,19,→,right,→,0.5331828000489622,True,17
37K24,355,experiment,32,←,left,←,0.45107589999679476,True,17
37K24,356,experiment,48,→,right,→,0.6881463000318035,True,17
37K24,357,experiment,18,↑,up,↑,0.7527883000439033,True,17
37K24,358,experiment,13,↓,down,↓,0.4821660000598058,True,17
37K24,359,experiment,16,↑,up,↑,0.7238732000114396,True,17
37K24,360,experiment,53,→,right,→,0.7160966999363154,True,17
37K24,361,experiment,59,↑,up,↑,0.5360692999092862,True,17
37K24,362,experiment,25,→,right,→,1.1063761999830604,True,17
37K24,363,experiment,34,↓,down,↓,0.46341900003608316,True,17
37K24,364,experiment,29,→,right,→,0.5291465000482276,True,17
37K24,365,experiment,36,→,right,→,1.0526497999671847,True,17
37K24,366,experiment,56,↓,down,↓,1.1170876999385655,True,17
37K24,367,experiment,31,→,right,→,0.5406018999638036,True,17
37K24,368,experiment,39,←,left,←,0.7325725000118837,True,17
37K24,369,experiment,15,←,left,←,0.41728639998473227,True,17
37K24,370,experiment,14,↓,up,↑,0.7705886999610811,False,17
37K24,371,experiment,60,←,left,←,0.5638897999888286,True,17
37K24,372,experiment,42,→,right,→,0.5453033000230789,True,17
37K24,373,experiment,50,→,right,→,0.41747620003297925,True,17
37K24,374,experiment,46,↓,down,↓,0.6265520000597462,True,17
37K24,375,experiment,20,→,right,→,0.7085125000448897,True,17
37K24,376,experiment,27,→,right,→,1.038461499963887,True,17
37K24,377,experiment,45,←,left,←,0.5912525999592617,True,17
37K24,378,experiment,26,→,right,→,0.8305325999390334,True,17
37K24,379,experiment,54,↓,left,←,0.9531874000094831,False,17
37K24,380,experiment,23,→,right,→,0.4526865999214351,True,17
37K24,381,experiment,47,↑,up,↑,0.538008000003174,True,17
37K24,382,experiment,33,↓,down,↓,0.6706865999149159,True,17
37K24,383,experiment,52,↑,down,↓,0.5857300000498071,False,17
37K24,384,experiment,24,→,right,→,0.4578357998980209,True,17
37K24,385,experiment,21,↑,up,↑,0.705425399937667,True,17
37K24,386,experiment,40,↓,down,↓,0.5545626000966877,True,17
37K24,387,experiment,28,↑,up,↑,0.7059277000371367,True,17
37K24,388,experiment,44,→,left,←,0.8165482999756932,False,17
37K24,389,experiment,38,→,right,→,0.6788452999899164,True,17
37K24,390,experiment,58,↓,down,↓,0.5571651000063866,True,17
37K24,391,training,49,↓,down,↓,0.6819032999919727,True,17
37K24,392,training,56,↑,up,↑,0.4006302000489086,True,17
37K24,393,experiment,36,→,right,→,0.45654139993712306,True,17
37K24,394,experiment,28,→,right,→,0.40021810005418956,True,17
37K24,395,experiment,15,→,right,→,1.0967948000179604,True,17
37K24,396,experiment,13,↓,down,↓,0.5798351999837905,True,17
37K24,397,experiment,32,↓,down,↓,0.7037995998980477,True,17
37K24,398,experiment,57,←,right,→,0.5097980999853462,False,17
37K24,399,experiment,51,↓,down,↓,0.6557177000213414,True,17
37K24,400,experiment,39,←,left,←,0.7080889999633655,True,17
37K24,401,experiment,40,↓,down,↓,0.5491048999829218,True,17
37K24,402,experiment,47,←,right,→,0.5521153999725357,False,17
37K24,403,experiment,59,↓,down,↓,0.5464370000408962,True,17
37K24,404,experiment,29,↓,down,↓,0.5377530000405386,True,17
37K24,405,experiment,41,→,right,→,0.5293688999954611,True,17
37K24,406,experiment,52,→,right,→,0.5299468000885099,True,17
37K24,407,experiment,26,←,left,←,0.4831754999468103,True,17
37K24,408,experiment,21,←,left,←,1.0020212999079376,True,17
37K24,409,experiment,54,←,left,←,0.965726500027813,True,17
37K24,410,experiment,22,↑,up,↑,0.8244157999288291,True,17
37K24,411,experiment,43,↓,down,↓,0.6593402000144124,True,17
37K24,412,experiment,27,↓,down,↓,0.4791155999992043,True,17
37K24,413,experiment,58,→,right,→,1.0056448000250384,True,17
37K24,414,experiment,19,↑,up,↑,0.4731686000013724,True,17
37K24,415,experiment,46,↓,down,↓,0.5280038999626413,True,17
37K24,416,experiment,49,←,right,→,0.51448730006814,False,17
37K24,417,experiment,48,→,right,→,0.4620493999682367,True,17
37K24,418,experiment,16,↑,up,↑,0.4964106000261381,True,17
37K24,419,experiment,14,↓,down,↓,0.6430865000002086,True,17
37K24,420,experiment,50,↓,up,↑,0.7286983999656513,False,17
37K24,421,experiment,55,→,right,→,0.4870939999818802,True,17
37K24,422,experiment,38,↓,up,↑,0.674566000001505,False,17
37K24,423,experiment,56,←,left,←,0.49843839998357,True,17
37K24,424,experiment,18,↓,down,↓,1.0824106999207288,True,17
37K24,425,experiment,42,→,right,→,0.46700459998100996,True,17
37K24,426,experiment,45,↓,down,↓,0.474336399929598,True,17
37K24,427,experiment,17,↓,down,↓,0.7884278999408707,True,17
37K24,428,experiment,20,→,right,→,0.49581200000829995,True,17
37K24,429,experiment,23,→,right,→,1.0050648000324145,True,17
37K24,430,experiment,25,←,right,→,0.5084243000019342,False,17
37K24,431,experiment,30,→,left,←,0.5083978999173269,False,17
37K24,432,experiment,35,→,right,→,0.4649855999741703,True,17
37K24,433,experiment,33,↓,down,↓,0.6644285999936983,True,17
37K24,434,experiment,31,→,right,→,0.6332427999004722,True,17
37K24,435,experiment,37,↑,down,↓,0.5750932999653742,False,17
37K24,436,experiment,24,↓,up,↑,0.9044199000345543,False,17
37K24,437,experiment,34,→,right,→,0.4617528999224305,True,17
37K24,438,experiment,60,↑,up,↑,0.9869739999994636,True,17
37K24,439,experiment,53,→,right,→,0.6404011000413448,True,17
37K24,440,experiment,44,↓,up,↑,0.873770699952729,False,17
37K24,441,training,57,↑,up,↑,0.41718330001458526,True,17
37K24,442,training,25,←,right,→,0.49164039990864694,False,17
37K24,443,experiment,52,↓,down,↓,0.47780010011047125,True,17
37K24,444,experiment,60,↑,up,↑,0.9629776000510901,True,17
37K24,445,experiment,28,↓,down,↓,0.5936731999972835,True,17
37K24,446,experiment,42,↓,down,↓,0.5423610999714583,True,17
37K24,447,experiment,14,←,right,→,0.5436839999165386,False,17
37K24,448,experiment,22,↑,up,↑,0.539780699997209,True,17
37K24,449,experiment,47,→,right,→,0.4709800999844447,True,17
37K24,450,experiment,31,↑,up,↑,0.615681599942036,True,17
37K24,451,experiment,30,↓,down,↓,0.6670425999909639,True,17
37K24,452,experiment,43,↓,down,↓,0.6515999999828637,True,17
37K24,453,experiment,19,←,left,←,0.6849666000343859,True,17
37K24,454,experiment,27,↓,down,↓,0.6877149000065401,True,17
37K24,455,experiment,56,←,left,←,0.5750815999926999,True,17
37K24,456,experiment,55,↑,up,↑,0.48374129994772375,True,17
37K24,457,experiment,48,↓,down,↓,0.6004419999662787,True,17
37K24,458,experiment,25,→,right,→,0.6239880999783054,True,17
37K24,459,experiment,39,←,left,←,0.4773788000456989,True,17
37K24,460,experiment,20,↑,up,↑,0.4852159000001848,True,17
37K24,461,experiment,23,←,left,←,0.7302994000492617,True,17
37K24,462,experiment,40,←,left,←,0.49898479995317757,True,17
37K24,463,experiment,21,←,right,→,0.5289874000009149,False,17
37K24,464,experiment,50,↓,down,↓,0.6749674999155104,True,17
37K24,465,experiment,29,→,right,→,0.49321560002863407,True,17
37K24,466,experiment,15,↑,down,↓,0.7596581000834703,False,17
37K24,467,experiment,58,←,left,←,0.38394649990368634,True,17
37K24,468,experiment,36,↓,down,↓,0.5390737999696285,True,17
37K24,469,experiment,57,←,left,←,0.63159259990789,True,17
37K24,470,experiment,49,↑,up,↑,0.5176972000626847,True,17
37K24,471,experiment,38,↓,down,↓,0.47193669993430376,True,17
37K24,472,experiment,54,↑,up,↑,0.4007558000739664,True,17
37K24,473,experiment,53,↑,up,↑,0.6452864999882877,True,17
37K24,474,experiment,51,→,down,↓,0.3333101000171155,False,17
37K24,475,experiment,45,↑,up,↑,0.33466229995246977,True,17
37K24,476,experiment,59,↑,up,↑,0.4172631000401452,True,17
37K24,477,experiment,34,→,right,→,0.41661430010572076,True,17
37K24,478,experiment,13,←,right,→,0.5736285999882966,False,17
37K24,479,experiment,33,↓,down,↓,0.5849009000230581,True,17
37K24,480,experiment,32,↓,down,↓,0.6524772000266239,True,17
37K24,481,experiment,46,↑,up,↑,0.36746610002592206,True,17
37K24,482,experiment,18,↑,down,↓,0.6323930999496952,False,17
37K24,483,experiment,24,→,right,→,0.4713114000624046,True,17
37K24,484,experiment,35,→,right,→,1.404993100091815,True,17
37K24,485,experiment,17,←,left,←,1.3217127999523655,True,17
37K24,486,experiment,37,→,right,→,0.5082970999646932,True,17
37K24,487,experiment,41,↑,up,↑,0.417225299985148,True,17
37K24,488,experiment,44,↑,up,↑,0.5023203999735415,True,17
37K24,489,experiment,26,↓,down,↓,0.5450172000564635,True,17
37K24,490,experiment,16,↓,down,↓,0.6572218000655994,True,17
37K24,491,training,40,↑,up,↑,0.6751223999308422,True,17
37K24,492,training,43,↑,up,↑,0.41724059998523444,True,17
37K24,493,experiment,58,←,left,←,0.6185062000295147,True,17
37K24,494,experiment,50,↑,up,↑,0.5524305000435561,True,17
37K24,495,experiment,19,↓,down,↓,0.7335037000011653,True,17
37K24,496,experiment,54,↑,up,↑,0.5402900000335649,True,17
37K24,497,experiment,56,→,right,→,0.5699709000764415,True,17
37K24,498,experiment,15,→,right,→,0.5129648000001907,True,17
37K24,499,experiment,17,↑,up,↑,0.5208623999496922,True,17
37K24,500,experiment,35,→,right,→,0.5488343000179157,True,17
37K24,501,experiment,40,↑,up,↑,0.4681776000652462,True,17
37K24,502,experiment,34,↓,down,↓,0.579132099985145,True,17
37K24,503,experiment,23,←,left,←,0.7009714000159875,True,17
37K24,504,experiment,41,→,left,←,0.9658099999651313,False,17
37K24,505,experiment,42,←,left,←,0.6349087000126019,True,17
37K24,506,experiment,22,→,right,→,0.48315320000983775,True,17
37K24,507,experiment,52,←,left,←,0.6929592000087723,True,17
37K24,508,experiment,38,↓,up,↑,0.8161694000009447,False,17
37K24,509,experiment,48,←,left,←,0.6155620999634266,True,17
37K24,510,experiment,45,↑,up,↑,0.5929331000661477,True,17
37K24,511,experiment,47,↓,down,↓,0.9062493999954313,True,17
37K24,512,experiment,18,↑,up,↑,0.5222700000740588,True,17
37K24,513,experiment,49,↑,up,↑,0.589235300081782,True,17
37K24,514,experiment,32,↑,up,↑,0.592449999996461,True,17
37K24,515,experiment,59,↑,up,↑,0.5775341999251395,True,17
37K24,516,experiment,13,→,right,→,0.5144323999993503,True,17
37K24,517,experiment,46,→,right,→,0.4553448000224307,True,17
37K24,518,experiment,28,←,left,←,0.4895552999805659,True,17
37K24,519,experiment,24,←,left,←,0.7181762999389321,True,17
37K24,520,experiment,20,←,left,←,1.0602230000076815,True,17
37K24,521,experiment,26,↓,down,↓,0.8091093000257388,True,17
37K24,522,experiment,25,→,right,→,0.7687120999908075,True,17
37K24,523,experiment,36,←,left,←,0.6495739000383765,True,17
37K24,524,experiment,39,←,left,←,0.9096952000400051,True,17
37K24,525,experiment,33,←,right,→,0.6275440000463277,False,17
37K24,526,experiment,51,↓,down,↓,0.752831699908711,True,17
37K24,527,experiment,43,←,left,←,0.6541908000363037,True,17
37K24,528,experiment,55,↓,down,↓,0.5836227000690997,True,17
37K24,529,experiment,14,→,right,→,0.47086070000659674,True,17
37K24,530,experiment,16,↓,down,↓,0.6980116999475285,True,17
37K24,531,experiment,30,↓,down,↓,0.46614089992363006,True,17
37K24,532,experiment,44,↑,up,↑,0.5134590999223292,True,17
37K24,533,experiment,53,→,right,→,0.48157030006404966,True,17
37K24,534,experiment,37,↑,up,↑,0.8458726999815553,True,17
37K24,535,experiment,31,→,right,→,0.47141870006453246,True,17
37K24,536,experiment,21,←,left,←,0.47884179989341646,True,17
37K24,537,experiment,57,←,left,←,0.41732290002983063,True,17
37K24,538,experiment,29,↓,down,↓,0.5695091999368742,True,17
37K24,539,experiment,27,↓,down,↓,0.6571198999881744,True,17
37K24,540,experiment,60,→,right,→,0.5668269000016153,True,17
37K24,541,training,46,↓,down,↓,0.6416805000044405,True,16
37K24,542,training,16,↓,down,↓,0.4695653999224305,True,16
37K24,543,experiment,46,↓,down,↓,1.1082164000254124,True,16
37K24,544,experiment,60,↓,down,↓,0.5122090999502689,True,16
37K24,545,experiment,19,←,left,←,0.6234221000922844,True,16
37K24,546,experiment,37,←,left,←,0.726019800058566,True,16
37K24,547,experiment,30,↓,down,↓,0.4695310000097379,True,16
37K24,548,experiment,25,→,right,→,0.47414179996121675,True,16
37K24,549,experiment,38,←,left,←,0.9021271000383422,True,16
37K24,550,experiment,50,←,left,←,0.5767911000875756,True,16
37K24,551,experiment,40,↓,down,↓,0.8077487000264227,True,16
37K24,552,experiment,28,↑,up,↑,0.7409428999526426,True,16
37K24,553,experiment,23,↑,up,↑,0.5440552000654861,True,16
37K24,554,experiment,44,↓,down,↓,0.4934332000557333,True,16
37K24,555,experiment,57,→,right,→,0.4680726999649778,True,16
37K24,556,experiment,59,↑,up,↑,0.5141181000508368,True,16
37K24,557,experiment,18,→,right,→,0.5214956999989226,True,16
37K24,558,experiment,35,↓,down,↓,0.5577094000764191,True,16
37K24,559,experiment,29,←,left,←,0.9241031999699771,True,16
37K24,560,experiment,48,↓,down,↓,0.6395250000059605,True,16
37K24,561,experiment,26,↓,down,↓,0.6447830999968573,True,16
37K24,562,experiment,24,↑,up,↑,0.4914537000004202,True,16
37K24,563,experiment,52,←,left,←,0.6135796000016853,True,16
37K24,564,experiment,21,←,left,←,0.47938709997106344,True,16
37K24,565,experiment,22,↑,up,↑,0.4614236999768764,True,16
37K24,566,experiment,14,↓,down,↓,0.722169499960728,True,16
37K24,567,experiment,16,↓,down,↓,0.5547991000348702,True,16
37K24,568,experiment,49,↑,up,↑,1.131987200002186,True,16
37K24,569,experiment,31,↓,down,↓,0.594165200018324,True,16
37K24,570,experiment,17,←,right,→,0.8394431000342593,False,16
37K24,571,experiment,56,→,right,→,0.5207815999165177,True,16
37K24,572,experiment,33,→,right,→,0.6220452999696136,True,16
37K24,573,experiment,55,↑,up,↑,0.6567831999855116,True,16
37K24,574,experiment,39,→,right,→,0.5167795999441296,True,16
37K24,575,experiment,51,↑,up,↑,1.014042399940081,True,16
37K24,576,experiment,13,←,left,←,1.10097379994113,True,16
37K24,577,experiment,53,↓,down,↓,0.7254330000141636,True,16
37K24,578,experiment,27,→,left,←,0.5667644999921322,False,16
37K24,579,experiment,47,↓,down,↓,0.80872209998779,True,16
37K24,580,experiment,15,→,right,→,0.702719199936837,True,16
37K24,581,experiment,20,↓,down,↓,0.5336560000432655,True,16
37K24,582,experiment,45,←,right,→,0.4661678000120446,False,16
37K24,583,experiment,42,→,right,→,0.5473640999989584,True,16
37K24,584,experiment,36,↓,up,↑,0.8214078000746667,False,16
37K24,585,experiment,34,←,left,←,0.5744159000460058,True,16
37K24,586,experiment,43,↑,down,↓,1.0106919000390917,False,16
37K24,587,experiment,54,↓,down,↓,0.5749394000740722,True,16
37K24,588,experiment,58,→,right,→,0.5453458001138642,True,16
37K24,589,experiment,32,←,left,←,0.48696280003059655,True,16
37K24,590,experiment,41,↑,up,↑,0.48010489996522665,True,16
