PART_ID,Trial_no,Trial_type,CSI,Stim_letter,Key_pressed,letter_choose,Rt,Corr,Stimulus Time
41K19,1,training,60,↓,no_key,no_letter,-1.0,False,30
41K19,2,training,60,←,no_key,no_letter,-1.0,False,30
41K19,3,training,60,↑,no_key,no_letter,-1.0,False,30
41K19,4,training,60,→,right,→,1.8527355999685824,True,30
41K19,5,training,60,↓,right,→,1.4659446000587195,False,30
41K19,6,training,60,→,left,←,1.6305918999714777,False,30
41K19,7,training,60,→,right,→,0.9726748000830412,True,30
41K19,8,training,60,→,right,→,0.5007218000246212,True,30
41K19,9,training,60,↑,up,↑,0.8637560999486595,True,30
41K19,10,training,60,↑,up,↑,0.6008609000127763,True,30
41K19,11,training,60,↑,up,↑,0.584172600065358,True,30
41K19,12,training,60,↑,up,↑,0.5511942999437451,True,30
41K19,13,training,60,↓,down,↓,0.7312508999602869,True,30
41K19,14,training,60,↑,up,↑,0.5181866000639275,True,30
41K19,15,training,60,↑,up,↑,0.7023675000527874,True,30
41K19,16,training,60,↓,down,↓,0.7380725999828428,True,30
41K19,17,training,60,→,right,→,0.7237240999238566,True,30
41K19,18,training,60,↓,down,↓,0.6172234000405297,True,30
41K19,19,training,60,→,right,→,0.502046599984169,True,30
41K19,20,training,60,←,right,→,0.6336068999953568,False,30
41K19,21,training,60,→,left,←,0.5561116000171751,False,18
41K19,22,training,60,→,right,→,0.23512680002022535,True,18
41K19,23,training,60,↑,up,↑,0.552550399908796,True,18
41K19,24,training,60,↑,up,↑,0.4822172001004219,True,18
41K19,25,training,60,→,right,→,0.4332570000551641,True,18
41K19,26,training,60,←,right,→,0.4167880000313744,False,18
41K19,27,training,60,↑,up,↑,0.5451980999205261,True,18
41K19,28,training,60,←,right,→,0.6105908999452367,False,18
41K19,29,training,60,↓,down,↓,0.6817419999279082,True,18
41K19,30,training,60,←,left,←,0.7338014000561088,True,18
41K19,31,training,60,↓,down,↓,0.5597913000965491,True,18
41K19,32,training,60,↓,down,↓,0.5763637999771163,True,18
41K19,33,training,60,↑,up,↑,1.3612457999261096,True,18
41K19,34,training,60,→,right,→,0.7776939999312162,True,18
41K19,35,training,60,←,right,→,0.513654200010933,False,18
41K19,36,training,60,↑,up,↑,0.7166148000396788,True,18
41K19,37,training,60,→,right,→,0.583236200036481,True,18
41K19,38,training,60,↓,down,↓,0.6629321000073105,True,18
41K19,39,training,60,↓,down,↓,0.5558324999874458,True,18
41K19,40,training,60,↑,up,↑,0.43396329996176064,True,18
41K19,41,training,51,↓,down,↓,0.9143789999652654,True,18
41K19,42,training,43,↑,up,↑,0.649034500005655,True,18
41K19,43,experiment,37,↑,up,↑,0.5665332999778911,True,18
41K19,44,experiment,25,←,left,←,0.63094479998108,True,18
41K19,45,experiment,29,→,no_key,no_letter,-1.0,False,18
41K19,46,experiment,20,↓,down,↓,0.5183661999180913,True,18
41K19,47,experiment,55,→,right,→,0.6211982999229804,True,18
41K19,48,experiment,34,←,down,↓,0.877910399925895,False,18
41K19,49,experiment,57,←,left,←,0.5809385000029579,True,18
41K19,50,experiment,36,→,right,→,0.6537656999425963,True,18
41K19,51,experiment,27,→,right,→,0.7698305000085384,True,18
41K19,52,experiment,48,→,right,→,0.48292840004432946,True,18
41K19,53,experiment,19,↓,down,↓,1.0989820000249892,True,18
41K19,54,experiment,31,↑,up,↑,0.8824552000733092,True,18
41K19,55,experiment,32,↑,up,↑,0.5855609000427648,True,18
41K19,56,experiment,24,→,right,→,0.586676900042221,True,18
41K19,57,experiment,39,←,up,↑,0.9211407999973744,False,18
41K19,58,experiment,33,→,right,→,0.7743937999475747,True,18
41K19,59,experiment,52,→,right,→,0.5970889000454918,True,18
41K19,60,experiment,35,↑,up,↑,0.8695576000027359,True,18
41K19,61,experiment,50,↑,up,↑,0.5295928999548778,True,18
41K19,62,experiment,13,↓,down,↓,0.7797421999275684,True,18
41K19,63,experiment,41,↓,left,←,0.761831899988465,False,18
41K19,64,experiment,22,↓,up,↑,0.7089338999940082,False,18
41K19,65,experiment,44,←,left,←,0.6835541999898851,True,18
41K19,66,experiment,53,→,right,→,0.7012502999277785,True,18
41K19,67,experiment,40,↓,up,↑,0.6785827999701723,False,18
41K19,68,experiment,49,←,up,↑,0.6911215999862179,False,18
41K19,69,experiment,43,↑,up,↑,0.6432107000146061,True,18
41K19,70,experiment,28,↓,up,↑,0.6792381999548525,False,18
41K19,71,experiment,14,←,right,→,0.5954181000124663,False,18
41K19,72,experiment,16,↑,up,↑,0.6809625000460073,True,18
41K19,73,experiment,26,→,right,→,0.5803002999164164,True,18
41K19,74,experiment,46,↑,up,↑,0.6144602000713348,True,18
41K19,75,experiment,30,↓,up,↑,0.6815255000256002,False,18
41K19,76,experiment,18,→,right,→,0.7543656999478117,True,18
41K19,77,experiment,38,→,right,→,0.47508589993231,True,18
41K19,78,experiment,51,↑,up,↑,0.5495342999929562,True,18
41K19,79,experiment,15,→,left,←,0.6775559999514371,False,18
41K19,80,experiment,17,↓,down,↓,0.839803499984555,True,18
41K19,81,experiment,60,←,right,→,0.6864636999089271,False,18
41K19,82,experiment,21,↓,down,↓,0.7891458000522107,True,18
41K19,83,experiment,56,↑,up,↑,0.736418699962087,True,18
41K19,84,experiment,42,↓,down,↓,0.7188936000457034,True,18
41K19,85,experiment,58,↓,down,↓,0.5954943000106141,True,18
41K19,86,experiment,47,→,right,→,0.7330792000284418,True,18
41K19,87,experiment,59,↓,down,↓,0.704192400095053,True,18
41K19,88,experiment,45,↑,up,↑,0.6622720999876037,True,18
41K19,89,experiment,23,→,right,→,0.6449173999717459,True,18
41K19,90,experiment,54,↓,down,↓,0.783511699992232,True,18
41K19,91,training,55,↓,down,↓,0.6922741000307724,True,18
41K19,92,training,59,→,right,→,0.4975950999651104,True,18
41K19,93,experiment,13,↑,up,↑,0.6613140000263229,True,18
41K19,94,experiment,23,↓,down,↓,0.6675367000279948,True,18
41K19,95,experiment,48,↓,down,↓,0.7368150999536738,True,18
41K19,96,experiment,32,→,right,→,0.534240199951455,True,18
41K19,97,experiment,20,↓,right,→,0.5233888000948355,False,18
41K19,98,experiment,42,↓,down,↓,0.6830649999901652,True,18
41K19,99,experiment,21,←,no_key,no_letter,-1.0,False,18
41K19,100,experiment,27,↓,down,↓,0.721029199892655,True,18
41K19,101,experiment,17,→,right,→,0.6167755000060424,True,18
41K19,102,experiment,56,↑,up,↑,0.7308410999830812,True,18
41K19,103,experiment,25,→,right,→,0.637396699981764,True,18
41K19,104,experiment,24,↓,down,↓,0.7316347999731079,True,18
41K19,105,experiment,15,↑,up,↑,0.7084514000453055,True,18
41K19,106,experiment,44,←,right,→,0.6430969000793993,False,18
41K19,107,experiment,19,←,left,←,0.6451286000665277,True,18
41K19,108,experiment,50,←,right,→,0.5144030000083148,False,18
41K19,109,experiment,14,↑,up,↑,0.6841488999780267,True,18
41K19,110,experiment,43,→,right,→,0.6762027000077069,True,18
41K19,111,experiment,36,↑,up,↑,0.5935385000193492,True,18
41K19,112,experiment,41,→,right,→,0.4716177999507636,True,18
41K19,113,experiment,28,↓,down,↓,0.9048847000813112,True,18
41K19,114,experiment,59,↓,up,↑,0.6454586000181735,False,18
41K19,115,experiment,16,↑,up,↑,0.9376019999617711,True,18
41K19,116,experiment,55,↑,up,↑,0.6234708999982104,True,18
41K19,117,experiment,49,↑,up,↑,0.5903794000623748,True,18
41K19,118,experiment,58,←,up,↑,0.6962314000120386,False,18
41K19,119,experiment,34,↓,down,↓,0.6934335000114515,True,18
41K19,120,experiment,29,↑,up,↑,0.6069881999865174,True,18
41K19,121,experiment,39,↑,up,↑,0.5808075999375433,True,18
41K19,122,experiment,33,→,left,←,0.4165973999770358,False,18
41K19,123,experiment,47,←,right,→,0.5349547000369057,False,18
41K19,124,experiment,18,↑,up,↑,0.5656892999541014,True,18
41K19,125,experiment,37,←,left,←,0.4337119000265375,True,18
41K19,126,experiment,51,←,right,→,0.5464039000216872,False,18
41K19,127,experiment,26,↓,down,↓,0.8355423000175506,True,18
41K19,128,experiment,45,→,right,→,0.6201978999888524,True,18
41K19,129,experiment,57,↑,up,↑,1.7577261000405997,True,18
41K19,130,experiment,30,↓,down,↓,0.7714248000411317,True,18
41K19,131,experiment,40,→,right,→,0.8181487999390811,True,18
41K19,132,experiment,53,↑,up,↑,0.6942141999024898,True,18
41K19,133,experiment,31,→,right,→,0.6623032999923453,True,18
41K19,134,experiment,22,↓,down,↓,1.2134173999074847,True,18
41K19,135,experiment,52,↓,down,↓,0.891093899961561,True,18
41K19,136,experiment,46,→,right,→,0.9049132000654936,True,18
41K19,137,experiment,38,↓,right,→,0.9153779000043869,False,18
41K19,138,experiment,35,→,right,→,0.639606700045988,True,18
41K19,139,experiment,54,↓,down,↓,0.6020611000712961,True,18
41K19,140,experiment,60,→,right,→,0.7061578000430018,True,18
41K19,141,training,13,→,right,→,0.805028099915944,True,18
41K19,142,training,57,↑,up,↑,0.63896459992975,True,18
41K19,143,experiment,33,↓,down,↓,0.6234416000079364,True,18
41K19,144,experiment,59,↓,down,↓,0.7116424000123516,True,18
41K19,145,experiment,57,↑,up,↑,0.5896303000627086,True,18
41K19,146,experiment,48,↓,down,↓,0.5742771999211982,True,18
41K19,147,experiment,54,↓,up,↑,0.33363669994287193,False,18
41K19,148,experiment,25,→,down,↓,0.5487876000115648,False,18
41K19,149,experiment,45,→,right,→,1.128708199947141,True,18
41K19,150,experiment,43,↓,down,↓,1.0714476000284776,True,18
41K19,151,experiment,39,←,left,←,0.7309310999698937,True,18
41K19,152,experiment,41,→,right,→,0.8021760999690741,True,18
41K19,153,experiment,53,↓,down,↓,0.5907971999840811,True,18
41K19,154,experiment,30,↑,up,↑,1.1236428000265732,True,18
41K19,155,experiment,32,↑,down,↓,0.9856132999993861,False,18
41K19,156,experiment,16,↑,up,↑,0.9433773000491783,True,18
41K19,157,experiment,34,↑,up,↑,0.5793632999993861,True,18
41K19,158,experiment,37,↓,down,↓,0.7323093001032248,True,18
41K19,159,experiment,18,↑,up,↑,0.8349777000257745,True,18
41K19,160,experiment,19,↑,up,↑,1.0127342001069337,True,18
41K19,161,experiment,52,↑,up,↑,0.5459393999772146,True,18
41K19,162,experiment,28,←,left,←,0.6343269000062719,True,18
41K19,163,experiment,58,↑,up,↑,0.5302709999959916,True,18
41K19,164,experiment,44,↑,up,↑,0.4960890000220388,True,18
41K19,165,experiment,27,→,up,↑,0.3839532999554649,False,18
41K19,166,experiment,46,→,right,→,0.47559889999683946,True,18
41K19,167,experiment,21,↑,left,←,0.5540357999270782,False,18
41K19,168,experiment,47,↓,up,↑,0.9488021000288427,False,18
41K19,169,experiment,23,↓,down,↓,0.8633514000102878,True,18
41K19,170,experiment,55,↓,down,↓,0.6167879999848083,True,18
41K19,171,experiment,42,→,right,→,0.5802333999890834,True,18
41K19,172,experiment,24,↑,up,↑,0.6525566000491381,True,18
41K19,173,experiment,36,→,right,→,0.7226439999649301,True,18
41K19,174,experiment,14,↑,up,↑,0.7249750999035314,True,18
41K19,175,experiment,20,←,left,←,0.7545870000030845,True,18
41K19,176,experiment,51,↑,up,↑,0.7069647000171244,True,18
41K19,177,experiment,29,→,right,→,0.5796722000231966,True,18
41K19,178,experiment,22,←,left,←,0.41690990002825856,True,18
41K19,179,experiment,50,↑,right,→,0.2173468000255525,False,18
41K19,180,experiment,17,←,right,→,0.4854637000244111,False,18
41K19,181,experiment,38,↓,up,↑,0.607410499942489,False,18
41K19,182,experiment,60,→,right,→,0.5835140000563115,True,18
41K19,183,experiment,40,→,right,→,0.4700400000438094,True,18
41K19,184,experiment,15,←,right,→,0.5199185999808833,False,18
41K19,185,experiment,31,←,left,←,0.7349390999879688,True,18
41K19,186,experiment,13,↑,up,↑,0.8249258999712765,True,18
41K19,187,experiment,26,↑,up,↑,0.598909099935554,True,18
41K19,188,experiment,35,↑,up,↑,0.34996000002138317,True,18
41K19,189,experiment,49,→,up,↑,0.3506036999169737,False,18
41K19,190,experiment,56,←,left,←,0.5160722999135032,True,18
41K19,191,training,58,←,right,→,0.5728963000001386,False,18
41K19,192,training,21,↑,up,↑,0.8479640999576077,True,18
41K19,193,experiment,48,←,left,←,0.6142758999485523,True,18
41K19,194,experiment,52,↓,down,↓,0.5707303999224678,True,18
41K19,195,experiment,20,↓,down,↓,0.5106222999747843,True,18
41K19,196,experiment,31,↑,up,↑,1.789895600057207,True,18
41K19,197,experiment,50,↑,up,↑,0.541237699915655,True,18
41K19,198,experiment,27,↓,down,↓,0.7338100000051782,True,18
41K19,199,experiment,35,←,down,↓,1.8012166999978945,False,18
41K19,200,experiment,40,→,left,←,0.9265762000577524,False,18
41K19,201,experiment,55,↑,up,↑,0.9092131999786943,True,18
41K19,202,experiment,43,↓,down,↓,0.7487309999996796,True,18
41K19,203,experiment,41,↑,up,↑,0.5395076000131667,True,18
41K19,204,experiment,49,↑,up,↑,0.9014385000336915,True,18
41K19,205,experiment,18,↓,up,↑,0.853199900011532,False,18
41K19,206,experiment,28,↓,up,↑,0.9527499000541866,False,18
41K19,207,experiment,14,↓,down,↓,0.6972043999703601,True,18
41K19,208,experiment,30,↑,up,↑,0.8335605999454856,True,18
41K19,209,experiment,57,←,left,←,0.5791619999799877,True,18
41K19,210,experiment,45,↑,up,↑,0.5174276999896392,True,18
41K19,211,experiment,29,→,right,→,0.6294390999246389,True,18
41K19,212,experiment,59,↑,up,↑,0.46994759992230684,True,18
41K19,213,experiment,16,↓,down,↓,0.5113549999659881,True,18
41K19,214,experiment,58,↓,down,↓,0.6766422000946477,True,18
41K19,215,experiment,26,↑,up,↑,0.7366875000298023,True,18
41K19,216,experiment,21,→,right,→,0.7011809999821708,True,18
41K19,217,experiment,17,↓,up,↑,0.941906499909237,False,18
41K19,218,experiment,46,→,right,→,0.945993399946019,True,18
41K19,219,experiment,32,↑,up,↑,0.7993051999947056,True,18
41K19,220,experiment,60,←,left,←,0.8715449000010267,True,18
41K19,221,experiment,33,↑,up,↑,0.8628952000290155,True,18
41K19,222,experiment,24,←,left,←,0.7564987000077963,True,18
41K19,223,experiment,25,←,right,→,0.8699861000059173,False,18
41K19,224,experiment,34,→,right,→,0.6525082999141887,True,18
41K19,225,experiment,42,↓,down,↓,0.8310405000811443,True,18
41K19,226,experiment,37,→,right,→,1.3088331000180915,True,18
41K19,227,experiment,54,→,left,←,0.34977560001425445,False,18
41K19,228,experiment,44,↑,up,↑,0.48045619996264577,True,18
41K19,229,experiment,53,↑,up,↑,0.7058597001014277,True,18
41K19,230,experiment,13,→,right,→,0.5732046999037266,True,18
41K19,231,experiment,19,→,right,→,0.625923200044781,True,18
41K19,232,experiment,36,↓,up,↑,0.8412540999706835,False,18
41K19,233,experiment,47,↓,down,↓,1.1205224000150338,True,18
41K19,234,experiment,15,←,left,←,0.6498157000169158,True,18
41K19,235,experiment,39,↓,down,↓,0.6298905999865383,True,18
41K19,236,experiment,23,→,right,→,0.8933418999658898,True,18
41K19,237,experiment,22,→,right,→,0.6671935999765992,True,18
41K19,238,experiment,56,→,right,→,0.675146900000982,True,18
41K19,239,experiment,38,↑,up,↑,0.5832144001033157,True,18
41K19,240,experiment,51,←,right,→,0.5979488999582827,False,18
41K19,241,training,57,↑,up,↑,0.4341758000664413,True,18
41K19,242,training,23,↓,down,↓,0.4891905999975279,True,18
41K19,243,experiment,59,→,right,→,0.670700499904342,True,18
41K19,244,experiment,22,↓,down,↓,0.46974740002769977,True,18
41K19,245,experiment,43,↑,down,↓,0.6450614000204951,False,18
41K19,246,experiment,53,←,left,←,0.5846018999582157,True,18
41K19,247,experiment,52,←,left,←,0.5267291999189183,True,18
41K19,248,experiment,56,→,left,←,0.4175523000303656,False,18
41K19,249,experiment,32,↓,down,↓,1.014022900024429,True,18
41K19,250,experiment,15,↓,down,↓,0.7474057000363246,True,18
41K19,251,experiment,14,↑,up,↑,0.8920587999746203,True,18
41K19,252,experiment,31,←,left,←,0.4685452999547124,True,18
41K19,253,experiment,17,→,right,→,1.3973356999922544,True,18
41K19,254,experiment,23,←,right,→,0.685708700097166,False,18
41K19,255,experiment,48,←,up,↑,1.0664856999646872,False,18
41K19,256,experiment,57,←,left,←,0.7698630000231788,True,18
41K19,257,experiment,42,←,left,←,0.5513469000579789,True,18
41K19,258,experiment,49,↑,up,↑,0.632458999985829,True,18
41K19,259,experiment,58,↑,no_key,no_letter,-1.0,False,18
41K19,260,experiment,21,↑,up,↑,0.540000700042583,True,18
41K19,261,experiment,19,←,left,←,0.6657377999508753,True,18
41K19,262,experiment,33,↑,up,↑,0.5132295000366867,True,18
41K19,263,experiment,26,↓,up,↑,0.33363650005776435,False,18
41K19,264,experiment,45,↓,down,↓,0.4002218999667093,True,18
41K19,265,experiment,51,→,right,→,0.6683199999388307,True,18
41K19,266,experiment,54,←,left,←,0.909855299978517,True,18
41K19,267,experiment,18,↓,down,↓,0.7419774000300094,True,18
41K19,268,experiment,13,←,no_key,no_letter,-1.0,False,18
41K19,269,experiment,60,←,left,←,0.5132716000080109,True,18
41K19,270,experiment,37,←,left,←,0.4331400999799371,True,18
41K19,271,experiment,25,↑,up,↑,0.6819954999955371,True,18
41K19,272,experiment,46,←,left,←,1.3199714999645948,True,18
41K19,273,experiment,30,↑,left,←,1.4551626000320539,False,18
41K19,274,experiment,50,←,left,←,0.5399608999723569,True,18
41K19,275,experiment,20,↑,up,↑,0.617322500096634,True,18
41K19,276,experiment,36,←,right,→,0.9775437000207603,False,18
41K19,277,experiment,38,←,left,←,0.4016354000195861,True,18
41K19,278,experiment,27,←,left,←,0.4168794999131933,True,18
41K19,279,experiment,16,↓,left,←,1.4095875000348315,False,18
41K19,280,experiment,55,←,left,←,0.5563917000545189,True,18
41K19,281,experiment,24,→,right,→,1.0145925999386236,True,18
41K19,282,experiment,40,↓,right,→,0.8433582000434399,False,18
41K19,283,experiment,47,←,right,→,0.6667053999844939,False,18
41K19,284,experiment,29,↓,left,←,0.5644290000200272,False,18
41K19,285,experiment,44,→,right,→,0.5924518000101671,True,18
41K19,286,experiment,41,↑,up,↑,0.7657550000585616,True,18
41K19,287,experiment,35,↓,down,↓,0.6397236000047997,True,18
41K19,288,experiment,39,↑,up,↑,0.5885442999424413,True,18
41K19,289,experiment,34,↓,right,→,0.9505924000404775,False,18
41K19,290,experiment,28,↑,right,→,0.5896801999770105,False,18
41K19,291,training,47,←,right,→,0.62276469997596,False,18
41K19,292,training,14,↑,up,↑,0.5645739999599755,True,18
41K19,293,experiment,19,↓,right,→,0.76100169995334,False,18
41K19,294,experiment,17,↑,up,↑,0.671743500046432,True,18
41K19,295,experiment,58,↓,up,↑,0.8783396000508219,False,18
41K19,296,experiment,54,↓,down,↓,0.5997864999808371,True,18
41K19,297,experiment,20,→,right,→,0.6022640999872237,True,18
41K19,298,experiment,42,→,right,→,0.9903383000055328,True,18
41K19,299,experiment,25,↑,right,→,0.7186023999238387,False,18
41K19,300,experiment,52,↓,up,↑,1.0709985999856144,False,18
41K19,301,experiment,56,←,left,←,0.711019300040789,True,18
41K19,302,experiment,39,←,left,←,0.48918150004465133,True,18
41K19,303,experiment,21,↑,up,↑,0.6479577999562025,True,18
41K19,304,experiment,27,→,right,→,0.6519566000206396,True,18
41K19,305,experiment,48,→,right,→,0.553669200045988,True,18
41K19,306,experiment,35,↓,left,←,0.40055810008198023,False,18
41K19,307,experiment,45,↑,up,↑,0.5979510999750346,True,18
41K19,308,experiment,57,↓,down,↓,0.8636463999282569,True,18
41K19,309,experiment,18,→,right,→,0.881280199973844,True,18
41K19,310,experiment,28,→,right,→,0.6112499000737444,True,18
41K19,311,experiment,46,↓,down,↓,0.6763880999060348,True,18
41K19,312,experiment,40,→,right,→,0.5429865999612957,True,18
41K19,313,experiment,13,↓,right,→,0.9133375000674278,False,18
41K19,314,experiment,44,↓,down,↓,0.8238485000329092,True,18
41K19,315,experiment,15,↓,down,↓,0.6850379999959841,True,18
41K19,316,experiment,24,→,right,→,0.5936821000650525,True,18
41K19,317,experiment,33,←,left,←,1.8283176999539137,True,18
41K19,318,experiment,30,←,left,←,0.6078622000059113,True,18
41K19,319,experiment,14,↑,right,→,0.8789121999870986,False,18
41K19,320,experiment,32,←,left,←,0.5423078000312671,True,18
41K19,321,experiment,38,←,left,←,0.6958591000875458,True,18
41K19,322,experiment,50,←,left,←,0.46761250006966293,True,18
41K19,323,experiment,37,↓,left,←,0.9510432999813929,False,18
41K19,324,experiment,29,→,right,→,0.4702130000805482,True,18
41K19,325,experiment,55,→,right,→,0.5255733000813052,True,18
41K19,326,experiment,31,←,right,→,0.9641980000305921,False,18
41K19,327,experiment,47,→,right,→,0.7663161000236869,True,18
41K19,328,experiment,53,↓,down,↓,0.6123079000972211,True,18
41K19,329,experiment,34,↑,up,↑,1.4295147999655455,True,18
41K19,330,experiment,41,↓,left,←,1.4329104999778792,False,18
41K19,331,experiment,60,↑,up,↑,0.6556135000428185,True,18
41K19,332,experiment,43,→,right,→,0.8169856000458822,True,18
41K19,333,experiment,23,→,right,→,0.48895389994140714,True,18
41K19,334,experiment,16,→,right,→,0.8589838999323547,True,18
41K19,335,experiment,59,←,right,→,0.5618460999103263,False,18
41K19,336,experiment,36,↓,up,↑,0.7875595999648795,False,18
41K19,337,experiment,26,↓,down,↓,0.7152546999277547,True,18
41K19,338,experiment,22,→,right,→,0.7595660000806674,True,18
41K19,339,experiment,51,↓,down,↓,0.5358843998983502,True,18
41K19,340,experiment,49,↓,down,↓,0.7616149000823498,True,18
41K19,341,training,21,↓,down,↓,0.7172012000810355,True,18
41K19,342,training,45,↑,down,↓,0.7302702999440953,False,18
41K19,343,experiment,58,↑,up,↑,0.7990168000105768,True,18
41K19,344,experiment,20,↓,down,↓,0.6257720999419689,True,18
41K19,345,experiment,56,↓,down,↓,0.8436777000315487,True,18
41K19,346,experiment,38,→,right,→,0.5051936999661848,True,18
41K19,347,experiment,41,↓,down,↓,1.3377808999503031,True,18
41K19,348,experiment,17,→,right,→,0.7131542999995872,True,18
41K19,349,experiment,43,↓,down,↓,0.6319195999531075,True,18
41K19,350,experiment,25,↓,down,↓,1.0855330000631511,True,18
41K19,351,experiment,18,↑,up,↑,0.5904423999600112,True,18
41K19,352,experiment,29,→,right,→,0.7716014999896288,True,18
41K19,353,experiment,51,→,right,→,0.5231417000759393,True,18
41K19,354,experiment,16,→,right,→,0.6115338000236079,True,18
41K19,355,experiment,53,↓,down,↓,1.8322303999448195,True,18
41K19,356,experiment,35,↑,right,→,0.783519099932164,False,18
41K19,357,experiment,14,→,right,→,0.5749463000101969,True,18
41K19,358,experiment,39,→,right,→,1.406425799941644,True,18
41K19,359,experiment,37,↓,right,→,0.6937908000545576,False,18
41K19,360,experiment,21,←,left,←,0.8684517999645323,True,18
41K19,361,experiment,23,←,left,←,0.58650029997807,True,18
41K19,362,experiment,34,↑,up,↑,0.7484009000472724,True,18
41K19,363,experiment,60,→,right,→,0.6064249000046402,True,18
41K19,364,experiment,40,↓,down,↓,0.57991289999336,True,18
41K19,365,experiment,19,←,right,→,0.9435715000145137,False,18
41K19,366,experiment,26,→,right,→,0.6328504999401048,True,18
41K19,367,experiment,42,→,right,→,0.5638008000096306,True,18
41K19,368,experiment,13,↑,right,→,1.3242857999866828,False,18
41K19,369,experiment,48,←,no_key,no_letter,-1.0,False,18
41K19,370,experiment,15,←,right,→,0.6870585000142455,False,18
41K19,371,experiment,36,↓,right,→,0.5637837999965996,False,18
41K19,372,experiment,46,←,up,↑,0.5104910000227392,False,18
41K19,373,experiment,45,←,up,↑,1.236434999969788,False,18
41K19,374,experiment,27,↑,right,→,1.0568134000059217,False,18
41K19,375,experiment,50,↓,up,↑,1.285703600035049,False,18
41K19,376,experiment,24,→,left,←,1.226208799984306,False,18
41K19,377,experiment,44,←,left,←,0.6921500000171363,True,18
41K19,378,experiment,52,↑,up,↑,0.48622739990241826,True,18
41K19,379,experiment,31,←,left,←,1.2061225000070408,True,18
41K19,380,experiment,22,↑,up,↑,0.6476535999681801,True,18
41K19,381,experiment,33,←,left,←,0.8314556000987068,True,18
41K19,382,experiment,54,→,left,←,0.6261180000146851,False,18
41K19,383,experiment,30,↓,down,↓,0.6456741999136284,True,18
41K19,384,experiment,28,↑,up,↑,0.4334454999770969,True,18
41K19,385,experiment,47,↑,up,↑,0.48025509994477034,True,18
41K19,386,experiment,32,→,right,→,0.6477141000796109,True,18
41K19,387,experiment,59,←,left,←,0.8141307000769302,True,18
41K19,388,experiment,57,←,right,→,0.7437472000019625,False,18
41K19,389,experiment,49,↓,down,↓,0.5056694999802858,True,18
41K19,390,experiment,55,↑,up,↑,1.2491541999625042,True,18
41K19,391,training,35,←,left,←,0.6751180000137538,True,18
41K19,392,training,27,↓,down,↓,0.5344230000628158,True,18
41K19,393,experiment,29,→,right,→,0.6376762998988852,True,18
41K19,394,experiment,16,→,right,→,0.8657429999439046,True,18
41K19,395,experiment,43,↓,down,↓,0.5221815999830142,True,18
41K19,396,experiment,45,→,right,→,0.7276030000066385,True,18
41K19,397,experiment,46,↑,up,↑,0.46812540001701564,True,18
41K19,398,experiment,20,↓,left,←,1.2675267999293283,False,18
41K19,399,experiment,54,→,right,→,0.9010358999948949,True,18
41K19,400,experiment,55,←,left,←,0.41730910004116595,True,18
41K19,401,experiment,56,→,right,→,0.5896569000324234,True,18
41K19,402,experiment,17,→,up,↑,1.6909968999680132,False,18
41K19,403,experiment,18,↓,down,↓,0.5074246999574825,True,18
41K19,404,experiment,26,↓,no_key,no_letter,-1.0,False,18
41K19,405,experiment,30,←,left,←,0.9554266999475658,True,18
41K19,406,experiment,34,←,left,←,1.0867590000852942,True,18
41K19,407,experiment,53,→,right,→,0.7763532999670133,True,18
41K19,408,experiment,21,↓,up,↑,0.9393856999231502,False,18
41K19,409,experiment,23,←,left,←,0.38391330000013113,True,18
41K19,410,experiment,15,↓,left,←,1.2047376000555232,False,18
41K19,411,experiment,40,↑,up,↑,0.706237499951385,True,18
41K19,412,experiment,47,→,right,→,0.8868132000789046,True,18
41K19,413,experiment,49,↓,left,←,0.9068961000302806,False,18
41K19,414,experiment,59,→,right,→,0.6234430000185966,True,18
41K19,415,experiment,42,←,left,←,0.7548784000100568,True,18
41K19,416,experiment,13,→,left,←,1.124308600090444,False,18
41K19,417,experiment,35,→,right,→,0.5925706999842077,True,18
41K19,418,experiment,37,→,left,←,0.6962035000324249,False,18
41K19,419,experiment,41,←,left,←,0.6174065999221057,True,18
41K19,420,experiment,52,↑,left,←,0.7180502000264823,False,18
41K19,421,experiment,36,→,right,→,0.9695572999771684,True,18
41K19,422,experiment,50,↓,down,↓,0.7296992000192404,True,18
41K19,423,experiment,60,↑,up,↑,0.7568115999456495,True,18
41K19,424,experiment,24,←,left,←,0.6389233999652788,True,18
41K19,425,experiment,48,→,right,→,0.6293422000017017,True,18
41K19,426,experiment,19,↑,up,↑,0.6962572000920773,True,18
41K19,427,experiment,27,→,left,←,0.9468831999693066,False,18
41K19,428,experiment,25,←,left,←,0.41712290002033114,True,18
41K19,429,experiment,14,↑,left,←,0.41664480010513216,False,18
41K19,430,experiment,51,→,left,←,0.6779853999614716,False,18
41K19,431,experiment,44,→,right,→,0.6623012999771163,True,18
41K19,432,experiment,33,↓,up,↑,0.9821754000149667,False,18
41K19,433,experiment,32,↑,down,↓,0.809591899975203,False,18
41K19,434,experiment,38,↓,down,↓,0.6480618000496179,True,18
41K19,435,experiment,28,↑,up,↑,0.7076449000742286,True,18
41K19,436,experiment,22,←,left,←,0.7370359000051394,True,18
41K19,437,experiment,57,→,right,→,0.7894858000800014,True,18
41K19,438,experiment,31,←,left,←,0.5936320000328124,True,18
41K19,439,experiment,39,↓,down,↓,0.6640075000468642,True,18
41K19,440,experiment,58,↓,down,↓,0.6389464000239968,True,18
41K19,441,training,27,↑,up,↑,0.6427464000880718,True,18
41K19,442,training,33,←,left,←,0.9953837000066414,True,18
41K19,443,experiment,58,↑,up,↑,1.2934113999363035,True,18
41K19,444,experiment,59,→,right,→,0.826887600007467,True,18
41K19,445,experiment,24,↑,up,↑,0.5942053999751806,True,18
41K19,446,experiment,50,←,left,←,0.8813062999397516,True,18
41K19,447,experiment,31,↓,down,↓,0.8815696999663487,True,18
41K19,448,experiment,35,↑,up,↑,0.6786443999735638,True,18
41K19,449,experiment,37,←,left,←,0.723234900040552,True,18
41K19,450,experiment,60,→,right,→,0.6708181999856606,True,18
41K19,451,experiment,30,←,left,←,0.7679653998930007,True,18
41K19,452,experiment,40,→,right,→,0.7509055000264198,True,18
41K19,453,experiment,54,↑,up,↑,1.0606755999615416,True,18
41K19,454,experiment,49,↑,up,↑,0.6579869999550283,True,18
41K19,455,experiment,38,←,left,←,0.6866686000721529,True,18
41K19,456,experiment,15,→,left,←,0.553491200087592,False,18
41K19,457,experiment,14,↑,up,↑,1.074204899952747,True,18
41K19,458,experiment,19,←,up,↑,0.9068775000050664,False,18
41K19,459,experiment,13,←,left,←,0.47802819998469204,True,18
41K19,460,experiment,53,↑,up,↑,0.6154891999904066,True,18
41K19,461,experiment,39,↑,up,↑,0.6687951000640169,True,18
41K19,462,experiment,43,↑,up,↑,0.43417859997134656,True,18
41K19,463,experiment,29,↑,up,↑,1.3361570000415668,True,18
41K19,464,experiment,27,↑,up,↑,1.0249187001027167,True,18
41K19,465,experiment,32,→,left,←,1.3145258000586182,False,18
41K19,466,experiment,33,↑,up,↑,0.5842603999190032,True,18
41K19,467,experiment,34,↑,up,↑,1.049949900014326,True,18
41K19,468,experiment,28,↓,up,↑,0.7332642000401393,False,18
41K19,469,experiment,36,←,left,←,0.7759977999376133,True,18
41K19,470,experiment,20,↓,up,↑,1.3001696000574157,False,18
41K19,471,experiment,22,↑,up,↑,0.5534900000784546,True,18
41K19,472,experiment,41,→,right,→,0.6721233000280336,True,18
41K19,473,experiment,18,→,left,←,1.0812112999847159,False,18
41K19,474,experiment,56,→,right,→,0.8008726000552997,True,18
41K19,475,experiment,46,←,left,←,0.6741269000340253,True,18
41K19,476,experiment,51,↓,down,↓,1.0611551000038162,True,18
41K19,477,experiment,45,→,right,→,0.7814133999636397,True,18
41K19,478,experiment,47,→,right,→,0.6385294999927282,True,18
41K19,479,experiment,26,↓,down,↓,0.6918945000506938,True,18
41K19,480,experiment,52,→,right,→,0.5020033000037074,True,18
41K19,481,experiment,48,←,left,←,1.2661505000432953,True,18
41K19,482,experiment,55,→,no_key,no_letter,-1.0,False,18
41K19,483,experiment,23,→,right,→,0.5085885000880808,True,18
41K19,484,experiment,42,→,right,→,0.6206023000413552,True,18
41K19,485,experiment,25,↓,right,→,1.235339600010775,False,18
41K19,486,experiment,44,→,right,→,0.7808653999818489,True,18
41K19,487,experiment,21,↓,down,↓,1.2075789000373334,True,18
41K19,488,experiment,17,↑,up,↑,0.48417119996156543,True,18
41K19,489,experiment,57,←,left,←,0.4338521999306977,True,18
41K19,490,experiment,16,←,right,→,1.006121200043708,False,18
41K19,491,training,28,↓,down,↓,0.7945944000966847,True,18
41K19,492,training,14,←,left,←,1.1621025999775156,True,18
41K19,493,experiment,13,→,right,→,0.5952535999240354,True,18
41K19,494,experiment,26,↓,down,↓,0.8105349999386817,True,18
41K19,495,experiment,27,↓,down,↓,0.6087718999478966,True,18
41K19,496,experiment,20,←,down,↓,0.6914841000689194,False,18
41K19,497,experiment,51,←,right,→,0.7338467999361455,False,18
41K19,498,experiment,38,→,right,→,0.5993297999957576,True,18
41K19,499,experiment,52,↓,down,↓,0.5485582000110298,True,18
41K19,500,experiment,19,←,down,↓,1.1378574999980628,False,18
41K19,501,experiment,35,→,right,→,0.6451829998986796,True,18
41K19,502,experiment,25,↓,down,↓,0.7634628999512643,True,18
41K19,503,experiment,28,↑,down,↓,0.6262075999984518,False,18
41K19,504,experiment,14,→,right,→,0.7777223000302911,True,18
41K19,505,experiment,32,↑,up,↑,0.5398601000197232,True,18
41K19,506,experiment,22,↓,down,↓,0.6078135999850929,True,18
41K19,507,experiment,59,→,right,→,0.7045704000629485,True,18
41K19,508,experiment,56,→,right,→,0.487152999965474,True,18
41K19,509,experiment,34,↓,down,↓,0.5172196000348777,True,18
41K19,510,experiment,15,←,right,→,0.9026846999768168,False,18
41K19,511,experiment,36,→,right,→,0.6746600000187755,True,18
41K19,512,experiment,29,←,left,←,1.020426100003533,True,18
41K19,513,experiment,43,→,right,→,1.0311576999956742,True,18
41K19,514,experiment,50,↑,up,↑,0.6447154999477789,True,18
41K19,515,experiment,40,↑,up,↑,0.40036339999642223,True,18
41K19,516,experiment,49,←,left,←,0.3673048000782728,True,18
41K19,517,experiment,42,→,right,→,0.5477851999457926,True,18
41K19,518,experiment,55,↓,right,→,0.5934954000404105,False,18
41K19,519,experiment,37,←,left,←,0.43416840001009405,True,18
41K19,520,experiment,45,↓,down,↓,0.8496874000411481,True,18
41K19,521,experiment,54,→,right,→,0.4914225999964401,True,18
41K19,522,experiment,53,↓,down,↓,0.7725824000081047,True,18
41K19,523,experiment,16,↓,right,→,1.067383100045845,False,18
41K19,524,experiment,31,↓,down,↓,0.8838061999995261,True,18
41K19,525,experiment,23,→,right,→,0.7054085000418127,True,18
41K19,526,experiment,47,↑,up,↑,0.7739914000267163,True,18
41K19,527,experiment,18,↑,up,↑,0.6510898999404162,True,18
41K19,528,experiment,60,→,right,→,0.4894146000733599,True,18
41K19,529,experiment,21,←,left,←,1.2158909999998286,True,18
41K19,530,experiment,33,→,right,→,0.5611331999534741,True,18
41K19,531,experiment,57,↑,up,↑,0.8931475999997929,True,18
41K19,532,experiment,30,→,right,→,0.7740894000744447,True,18
41K19,533,experiment,41,↓,down,↓,0.8040198000380769,True,18
41K19,534,experiment,48,↓,down,↓,0.5480096000246704,True,18
41K19,535,experiment,44,↓,down,↓,0.48073339997790754,True,18
41K19,536,experiment,39,↓,down,↓,0.723093600012362,True,18
41K19,537,experiment,17,←,left,←,0.8031004999065772,True,18
41K19,538,experiment,24,→,right,→,0.714995399932377,True,18
41K19,539,experiment,46,→,up,↑,0.40019489999394864,False,18
41K19,540,experiment,58,→,left,←,0.3837573000928387,False,18
41K19,541,training,51,←,right,→,0.8806483000516891,False,18
41K19,542,training,31,↓,down,↓,0.6326384999556467,True,18
41K19,543,experiment,55,↑,up,↑,1.0745927999960259,True,18
41K19,544,experiment,44,↓,down,↓,1.1148129999637604,True,18
41K19,545,experiment,47,↓,down,↓,0.6706041999859735,True,18
41K19,546,experiment,25,↓,down,↓,0.715138699975796,True,18
41K19,547,experiment,60,→,right,→,0.6785732000134885,True,18
41K19,548,experiment,36,↓,down,↓,0.6997228999389336,True,18
41K19,549,experiment,38,↓,down,↓,0.5986521999584511,True,18
41K19,550,experiment,16,↑,up,↑,0.7957621000241488,True,18
41K19,551,experiment,13,→,down,↓,0.7398892999626696,False,18
41K19,552,experiment,42,←,right,→,0.8023452000925317,False,18
41K19,553,experiment,51,←,left,←,0.8324176999740303,True,18
41K19,554,experiment,57,→,right,→,0.8092720999848098,True,18
41K19,555,experiment,34,↑,up,↑,1.0110062999883667,True,18
41K19,556,experiment,53,←,right,→,0.9431367999641225,False,18
41K19,557,experiment,20,↑,up,↑,0.6763551000040025,True,18
41K19,558,experiment,56,↑,up,↑,1.1405475999927148,True,18
41K19,559,experiment,43,→,right,→,0.6666170000098646,True,18
41K19,560,experiment,22,←,left,←,1.3373670000582933,True,18
41K19,561,experiment,49,←,left,←,0.7796095999656245,True,18
41K19,562,experiment,29,↓,down,↓,0.7372686000308022,True,18
41K19,563,experiment,59,↓,down,↓,0.8926537999650463,True,18
41K19,564,experiment,14,←,left,←,0.7600073999492452,True,18
41K19,565,experiment,24,→,right,→,0.801923600025475,True,18
41K19,566,experiment,58,↓,down,↓,0.9549990000668913,True,18
41K19,567,experiment,32,→,right,→,0.8479544000001624,True,18
41K19,568,experiment,26,←,left,←,0.6834799000062048,True,18
41K19,569,experiment,50,→,right,→,0.7502389999572188,True,18
41K19,570,experiment,45,↓,down,↓,0.8665374000556767,True,18
41K19,571,experiment,46,↓,left,←,0.7773007999639958,False,18
41K19,572,experiment,19,↓,left,←,0.5660250999499112,False,18
41K19,573,experiment,31,←,left,←,1.058524899999611,True,18
41K19,574,experiment,40,↑,down,↓,0.9177029000129551,False,18
41K19,575,experiment,27,↓,right,→,0.7909857999766245,False,18
41K19,576,experiment,30,←,left,←,0.4339730000356212,True,18
41K19,577,experiment,17,↑,right,→,0.8224324000766501,False,18
41K19,578,experiment,15,↓,down,↓,0.9799267000053078,True,18
41K19,579,experiment,33,←,right,→,0.8862968999892473,False,18
41K19,580,experiment,37,↑,up,↑,0.9225612999871373,True,18
41K19,581,experiment,54,←,left,←,0.5857084000017494,True,18
41K19,582,experiment,41,↓,down,↓,0.743196600000374,True,18
41K19,583,experiment,28,→,left,←,0.5190025999909267,False,18
41K19,584,experiment,21,↓,down,↓,0.684330000076443,True,18
41K19,585,experiment,35,↑,right,→,0.8419519000453874,False,18
41K19,586,experiment,18,↓,down,↓,0.7723166999639943,True,18
41K19,587,experiment,48,↓,up,↑,1.013754399958998,False,18
41K19,588,experiment,39,↓,no_key,no_letter,-1.0,False,18
41K19,589,experiment,23,→,right,→,0.6538937999866903,True,18
41K19,590,experiment,52,↑,up,↑,0.5771309999981895,True,18
