PART_ID,Trial_no,Trial_type,CSI,Stim_letter,Key_pressed,letter_choose,Rt,Corr,Stimulus Time
50M22,1,training,60,↓,no_key,no_letter,-1.0,False,30
50M22,2,training,60,→,right,→,0.6761339000659063,True,30
50M22,3,training,60,→,right,→,1.665597700048238,True,30
50M22,4,training,60,←,no_key,no_letter,-1.0,False,30
50M22,5,training,60,→,right,→,1.123451599967666,True,30
50M22,6,training,60,↓,left,←,1.9678881000727415,False,30
50M22,7,training,60,↑,up,↑,0.6667505000950769,True,30
50M22,8,training,60,←,left,←,0.8163637999678031,True,30
50M22,9,training,60,←,left,←,0.6338672999991104,True,30
50M22,10,training,60,→,right,→,0.617273399955593,True,30
50M22,11,training,60,←,left,←,0.5000609999988228,True,30
50M22,12,training,60,→,right,→,0.5835693000117317,True,30
50M22,13,training,60,←,left,←,0.617056299932301,True,30
50M22,14,training,60,↑,up,↑,0.6840247999643907,True,30
50M22,15,training,60,→,right,→,0.8014909999910742,True,30
50M22,16,training,60,→,right,→,0.6164073999971151,True,30
50M22,17,training,60,→,right,→,0.5837264000438154,True,30
50M22,18,training,60,↓,left,←,0.583083700039424,False,30
50M22,19,training,60,↑,up,↑,1.9718243000097573,True,30
50M22,20,training,60,↓,down,↓,1.038888099952601,True,30
50M22,21,training,60,→,right,→,0.7490371000021696,True,18
50M22,22,training,60,→,right,→,0.5925111999968067,True,18
50M22,23,training,60,←,up,↑,1.184975799988024,False,18
50M22,24,training,60,↓,down,↓,0.8831293999683112,True,18
50M22,25,training,60,←,left,←,0.8168699000962079,True,18
50M22,26,training,60,→,left,←,0.9367233999073505,False,18
50M22,27,training,60,←,right,→,1.588647700031288,False,18
50M22,28,training,60,↑,up,↑,0.5505352999316528,True,18
50M22,29,training,60,→,right,→,0.6894157000351697,True,18
50M22,30,training,60,↓,down,↓,0.8391265999525785,True,18
50M22,31,training,60,→,right,→,1.2385722999460995,True,18
50M22,32,training,60,←,left,←,0.7904826999874786,True,18
50M22,33,training,60,←,left,←,0.9601988999638706,True,18
50M22,34,training,60,↓,down,↓,0.70658989995718,True,18
50M22,35,training,60,→,left,←,0.7355124000459909,False,18
50M22,36,training,60,→,right,→,0.8831185000017285,True,18
50M22,37,training,60,↑,up,↑,0.5451285999733955,True,18
50M22,38,training,60,↓,down,↓,0.6439347000559792,True,18
50M22,39,training,60,↓,down,↓,0.9626675999024883,True,18
50M22,40,training,60,↓,down,↓,0.6612426000647247,True,18
50M22,41,training,58,↓,down,↓,0.7252709999447688,True,18
50M22,42,training,49,↑,left,←,1.0566687999526039,False,18
50M22,43,experiment,51,→,left,←,1.0216914999764413,False,18
50M22,44,experiment,19,↑,up,↑,0.7453559000277892,True,18
50M22,45,experiment,34,→,left,←,0.9103646000148728,False,18
50M22,46,experiment,43,↑,up,↑,0.6708022999810055,True,18
50M22,47,experiment,13,↓,up,↑,1.3802522999467328,False,18
50M22,48,experiment,35,←,right,→,1.5585711000021547,False,18
50M22,49,experiment,49,↑,up,↑,0.5935219000093639,True,18
50M22,50,experiment,50,→,right,→,0.5697684000479057,True,18
50M22,51,experiment,57,→,right,→,0.4779120000312105,True,18
50M22,52,experiment,20,→,left,←,1.0382106000324711,False,18
50M22,53,experiment,60,←,left,←,0.5262017999775708,True,18
50M22,54,experiment,18,↑,left,←,1.46998649998568,False,18
50M22,55,experiment,54,↑,up,↑,0.7127553001046181,True,18
50M22,56,experiment,38,←,down,↓,1.195668200030923,False,18
50M22,57,experiment,39,↑,up,↑,0.5388782999943942,True,18
50M22,58,experiment,52,←,down,↓,1.4439422000432387,False,18
50M22,59,experiment,37,→,right,→,0.9394649000605568,True,18
50M22,60,experiment,16,↓,down,↓,0.7562497000908479,True,18
50M22,61,experiment,14,←,left,←,0.6936601001070812,True,18
50M22,62,experiment,15,←,no_key,no_letter,-1.0,False,18
50M22,63,experiment,27,←,left,←,1.0499494000105187,True,18
50M22,64,experiment,59,↓,up,↑,0.7378641000250354,False,18
50M22,65,experiment,55,←,left,←,0.6969723999500275,True,18
50M22,66,experiment,41,←,left,←,0.6272524000378326,True,18
50M22,67,experiment,53,↑,left,←,1.768193700001575,False,18
50M22,68,experiment,17,←,no_key,no_letter,-1.0,False,18
50M22,69,experiment,46,↓,down,↓,0.6755855999654159,True,18
50M22,70,experiment,32,↑,no_key,no_letter,-1.0,False,18
50M22,71,experiment,29,↓,down,↓,0.6442619999870658,True,18
50M22,72,experiment,48,←,left,←,0.8518942999653518,True,18
50M22,73,experiment,45,↑,up,↑,0.6926821999950334,True,18
50M22,74,experiment,31,↓,down,↓,0.718012599973008,True,18
50M22,75,experiment,33,→,right,→,0.7080890000797808,True,18
50M22,76,experiment,58,→,right,→,0.61029330000747,True,18
50M22,77,experiment,36,←,left,←,0.755397200002335,True,18
50M22,78,experiment,47,←,right,→,0.6390735999448225,False,18
50M22,79,experiment,44,→,right,→,0.5051564000314102,True,18
50M22,80,experiment,40,←,left,←,0.6755731999874115,True,18
50M22,81,experiment,24,↓,up,↑,0.7696990999393165,False,18
50M22,82,experiment,26,↓,down,↓,0.674339700024575,True,18
50M22,83,experiment,21,↓,up,↑,0.714363900013268,False,18
50M22,84,experiment,42,←,left,←,0.5467006999533623,True,18
50M22,85,experiment,23,↓,down,↓,0.6702937000663951,True,18
50M22,86,experiment,28,↓,down,↓,0.6499674000078812,True,18
50M22,87,experiment,56,→,right,→,0.6832965000066906,True,18
50M22,88,experiment,30,↑,down,↓,1.9171256000408903,False,18
50M22,89,experiment,25,←,no_key,no_letter,-1.0,False,18
50M22,90,experiment,22,↓,down,↓,0.8611317999893799,True,18
50M22,91,training,54,↑,up,↑,0.5922042999882251,True,18
50M22,92,training,39,↓,down,↓,0.7518896000692621,True,18
50M22,93,experiment,58,→,right,→,0.5803130000131205,True,18
50M22,94,experiment,19,↑,up,↑,0.616805600002408,True,18
50M22,95,experiment,32,←,right,→,1.2356757000088692,False,18
50M22,96,experiment,52,↓,down,↓,0.7210575999924913,True,18
50M22,97,experiment,50,↑,down,↓,0.5721833000425249,False,18
50M22,98,experiment,45,↓,down,↓,0.6243059999542311,True,18
50M22,99,experiment,34,←,no_key,no_letter,-1.0,False,18
50M22,100,experiment,37,→,left,←,0.6603838000446558,False,18
50M22,101,experiment,40,←,no_key,no_letter,-1.0,False,18
50M22,102,experiment,21,↑,no_key,no_letter,-1.0,False,18
50M22,103,experiment,53,↓,down,↓,0.5088202999904752,True,18
50M22,104,experiment,41,→,down,↓,1.686579899978824,False,18
50M22,105,experiment,43,↑,down,↓,0.7438535999972373,False,18
50M22,106,experiment,15,↓,down,↓,0.6815853000152856,True,18
50M22,107,experiment,24,↓,down,↓,0.6787386999931186,True,18
50M22,108,experiment,14,→,down,↓,1.043489999952726,False,18
50M22,109,experiment,36,↑,down,↓,1.0831832999829203,False,18
50M22,110,experiment,17,↑,up,↑,1.3657465999713168,True,18
50M22,111,experiment,35,↓,down,↓,0.744677499984391,True,18
50M22,112,experiment,13,↓,down,↓,0.6994647000683472,True,18
50M22,113,experiment,16,←,up,↑,1.6456880000187084,False,18
50M22,114,experiment,47,←,left,←,0.8062082999385893,True,18
50M22,115,experiment,42,↓,left,←,1.5714306000154465,False,18
50M22,116,experiment,20,↑,up,↑,0.7128561000572518,True,18
50M22,117,experiment,23,←,left,←,0.7178275999613106,True,18
50M22,118,experiment,27,→,up,↑,1.6795851000351831,False,18
50M22,119,experiment,25,→,left,←,0.9249942000024021,False,18
50M22,120,experiment,30,↑,up,↑,0.6694399999687448,True,18
50M22,121,experiment,57,←,up,↑,1.2538703000172973,False,18
50M22,122,experiment,54,↑,left,←,1.6012764999177307,False,18
50M22,123,experiment,26,↓,down,↓,0.417008199961856,True,18
50M22,124,experiment,55,↑,up,↑,0.9321728999493644,True,18
50M22,125,experiment,44,←,right,→,1.8263760999543592,False,18
50M22,126,experiment,39,←,right,→,1.3851519000018016,False,18
50M22,127,experiment,18,→,no_key,no_letter,-1.0,False,18
50M22,128,experiment,60,→,no_key,no_letter,-1.0,False,18
50M22,129,experiment,59,↑,up,↑,1.6137787000043318,True,18
50M22,130,experiment,28,↑,up,↑,0.4680184000171721,True,18
50M22,131,experiment,33,→,no_key,no_letter,-1.0,False,18
50M22,132,experiment,31,↓,no_key,no_letter,-1.0,False,18
50M22,133,experiment,22,↓,down,↓,0.5257422999711707,True,18
50M22,134,experiment,29,→,right,→,0.8861405000789091,True,18
50M22,135,experiment,51,←,right,→,1.0260706000262871,False,18
50M22,136,experiment,38,←,right,→,0.9050800999393687,False,18
50M22,137,experiment,48,←,left,←,0.5181101999478415,True,18
50M22,138,experiment,56,→,right,→,0.6212727000238374,True,18
50M22,139,experiment,49,↑,right,→,1.91689619992394,False,18
50M22,140,experiment,46,→,no_key,no_letter,-1.0,False,18
50M22,141,training,32,←,up,↑,1.0421007999684662,False,19
50M22,142,training,44,→,left,←,0.9481403999961913,False,19
50M22,143,experiment,20,↓,down,↓,0.434267699951306,True,19
50M22,144,experiment,14,↑,down,↓,0.743173300055787,False,19
50M22,145,experiment,27,↓,down,↓,0.48855429992545396,True,19
50M22,146,experiment,21,→,right,→,0.5672189000761136,True,19
50M22,147,experiment,40,↓,down,↓,0.5027848000172526,True,19
50M22,148,experiment,53,↓,down,↓,0.41670390008948743,True,19
50M22,149,experiment,29,↓,down,↓,0.5243882000213489,True,19
50M22,150,experiment,15,→,down,↓,0.4173361000139266,False,19
50M22,151,experiment,57,↑,down,↓,1.2882449000608176,False,19
50M22,152,experiment,25,→,right,→,0.5731323999352753,True,19
50M22,153,experiment,35,→,right,→,0.5362672000192106,True,19
50M22,154,experiment,50,↓,down,↓,0.6585325999185443,True,19
50M22,155,experiment,45,←,down,↓,1.1952635000925511,False,19
50M22,156,experiment,44,↑,up,↑,0.7841799000743777,True,19
50M22,157,experiment,42,↑,up,↑,0.557810099911876,True,19
50M22,158,experiment,17,↑,up,↑,0.5731734000146389,True,19
50M22,159,experiment,48,→,right,→,0.6155048999935389,True,19
50M22,160,experiment,43,←,left,←,1.2830251000123098,True,19
50M22,161,experiment,36,→,right,→,0.5526045999722555,True,19
50M22,162,experiment,47,↓,down,↓,0.948254800052382,True,19
50M22,163,experiment,54,↑,right,→,0.5234191999770701,False,19
50M22,164,experiment,16,↓,up,↑,0.5408866999205202,False,19
50M22,165,experiment,31,↓,no_key,no_letter,-1.0,False,19
50M22,166,experiment,30,←,down,↓,1.209951200056821,False,19
50M22,167,experiment,39,←,left,←,0.6332395999925211,True,19
50M22,168,experiment,52,←,right,→,0.3998026999179274,False,19
50M22,169,experiment,26,↑,down,↓,0.5008994999807328,False,19
50M22,170,experiment,41,→,right,→,0.5822474000742659,True,19
50M22,171,experiment,34,↑,up,↑,0.6492320999968797,True,19
50M22,172,experiment,28,←,left,←,0.6054565000813454,True,19
50M22,173,experiment,32,↑,up,↑,0.7527974999975413,True,19
50M22,174,experiment,55,←,right,→,1.1592302999924868,False,19
50M22,175,experiment,58,←,left,←,0.6118808999890462,True,19
50M22,176,experiment,56,←,left,←,0.6555913999909535,True,19
50M22,177,experiment,24,→,left,←,0.5584388999268413,False,19
50M22,178,experiment,18,↑,up,↑,0.5732886000769213,True,19
50M22,179,experiment,13,↓,up,↑,0.6544251000741497,False,19
50M22,180,experiment,23,←,no_key,no_letter,-1.0,False,19
50M22,181,experiment,38,↑,up,↑,0.45072050008457154,True,19
50M22,182,experiment,37,←,left,←,0.5084390999982134,True,19
50M22,183,experiment,59,→,up,↑,1.6181446000700817,False,19
50M22,184,experiment,49,↓,down,↓,0.6900876000290737,True,19
50M22,185,experiment,19,↓,down,↓,0.5870167000684887,True,19
50M22,186,experiment,60,←,right,→,0.5245947999646887,False,19
50M22,187,experiment,46,↑,down,↓,0.49010729999281466,False,19
50M22,188,experiment,33,↓,up,↑,0.41786749998573214,False,19
50M22,189,experiment,51,↓,down,↓,0.31696870003361255,True,19
50M22,190,experiment,22,↓,down,↓,0.6345580000197515,True,19
50M22,191,training,43,↓,down,↓,0.5618064000736922,True,19
50M22,192,training,60,←,left,←,0.6126343000214547,True,19
50M22,193,experiment,38,↓,no_key,no_letter,-1.0,False,19
50M22,194,experiment,23,↓,down,↓,0.48682339990045875,True,19
50M22,195,experiment,60,↑,down,↓,0.5074489000253379,False,19
50M22,196,experiment,36,→,right,→,0.5363052999600768,True,19
50M22,197,experiment,18,→,right,→,0.5113554999697953,True,19
50M22,198,experiment,40,→,left,←,0.521906099980697,False,19
50M22,199,experiment,57,→,right,→,0.5122287999838591,True,19
50M22,200,experiment,49,←,left,←,0.651519599952735,True,19
50M22,201,experiment,16,←,left,←,0.9676026999950409,True,19
50M22,202,experiment,55,↓,down,↓,0.5735739000374451,True,19
50M22,203,experiment,46,↑,down,↓,0.7370894000632688,False,19
50M22,204,experiment,19,↑,no_key,no_letter,-1.0,False,19
50M22,205,experiment,34,→,right,→,0.5718491000588983,True,19
50M22,206,experiment,32,→,right,→,1.64836460002698,True,19
50M22,207,experiment,50,→,right,→,0.5106894000200555,True,19
50M22,208,experiment,42,←,left,←,0.671563099953346,True,19
50M22,209,experiment,14,→,right,→,0.6119864999782294,True,19
50M22,210,experiment,17,↑,up,↑,0.801718799979426,True,19
50M22,211,experiment,33,←,no_key,no_letter,-1.0,False,19
50M22,212,experiment,43,←,left,←,0.4163076000986621,True,19
50M22,213,experiment,51,→,right,→,0.7837707999860868,True,19
50M22,214,experiment,54,↓,down,↓,0.7255967000965029,True,19
50M22,215,experiment,53,↓,down,↓,0.5265929999295622,True,19
50M22,216,experiment,41,→,right,→,0.49523739994037896,True,19
50M22,217,experiment,29,←,left,←,0.7449536999920383,True,19
50M22,218,experiment,35,←,left,←,0.8292328000534326,True,19
50M22,219,experiment,27,→,right,→,1.4674550000345334,True,19
50M22,220,experiment,52,↑,up,↑,0.7193275999743491,True,19
50M22,221,experiment,20,↓,down,↓,1.3423312000231817,True,19
50M22,222,experiment,48,↓,down,↓,0.6823098000604659,True,19
50M22,223,experiment,56,↓,down,↓,1.4185670000733808,True,19
50M22,224,experiment,28,↑,down,↓,0.616405799984932,False,19
50M22,225,experiment,45,↑,down,↓,1.338955899933353,False,19
50M22,226,experiment,24,↑,up,↑,0.5427351000253111,True,19
50M22,227,experiment,59,→,up,↑,0.7710361999925226,False,19
50M22,228,experiment,25,↑,up,↑,0.5884008000139147,True,19
50M22,229,experiment,37,→,up,↑,0.597388599999249,False,19
50M22,230,experiment,15,↓,no_key,no_letter,-1.0,False,19
50M22,231,experiment,39,↓,no_key,no_letter,-1.0,False,19
50M22,232,experiment,13,↓,up,↑,1.1497976999962702,False,19
50M22,233,experiment,47,↓,left,←,0.434021900058724,False,19
50M22,234,experiment,44,↑,up,↑,0.9312045000260696,True,19
50M22,235,experiment,31,→,no_key,no_letter,-1.0,False,19
50M22,236,experiment,22,←,no_key,no_letter,-1.0,False,19
50M22,237,experiment,30,↑,up,↑,0.5236247000284493,True,19
50M22,238,experiment,21,→,right,→,0.6019462000112981,True,19
50M22,239,experiment,26,←,left,←,0.7133306000614539,True,19
50M22,240,experiment,58,↓,no_key,no_letter,-1.0,False,19
50M22,241,training,48,↑,up,↑,1.7383254000451416,True,19
50M22,242,training,46,→,right,→,0.5198663999326527,True,19
50M22,243,experiment,17,→,right,→,1.2564625999657437,True,19
50M22,244,experiment,52,↓,down,↓,0.669337600003928,True,19
50M22,245,experiment,24,↓,down,↓,0.611306400038302,True,19
50M22,246,experiment,51,↓,down,↓,0.586267500068061,True,19
50M22,247,experiment,21,↓,no_key,no_letter,-1.0,False,19
50M22,248,experiment,43,↓,down,↓,0.4165985999861732,True,19
50M22,249,experiment,50,←,left,←,0.6257935999892652,True,19
50M22,250,experiment,32,↓,down,↓,0.4330173999769613,True,19
50M22,251,experiment,15,↓,down,↓,0.5210724000353366,True,19
50M22,252,experiment,35,←,left,←,0.5819785000057891,True,19
50M22,253,experiment,30,↑,up,↑,0.5236647999845445,True,19
50M22,254,experiment,26,↑,down,↓,0.5500242999987677,False,19
50M22,255,experiment,40,↓,down,↓,0.6623366998974234,True,19
50M22,256,experiment,55,↑,down,↓,0.4180741000454873,False,19
50M22,257,experiment,54,↑,up,↑,0.49966859992127866,True,19
50M22,258,experiment,29,↓,up,↑,0.4858157999115065,False,19
50M22,259,experiment,25,←,left,←,0.8494663999881595,True,19
50M22,260,experiment,53,→,right,→,0.4932008000323549,True,19
50M22,261,experiment,42,↑,up,↑,0.5657820999622345,True,19
50M22,262,experiment,37,↓,down,↓,0.6476008000317961,True,19
50M22,263,experiment,56,←,left,←,0.5770427000243217,True,19
50M22,264,experiment,60,→,right,→,0.571756900055334,True,19
50M22,265,experiment,58,→,right,→,0.4501408999785781,True,19
50M22,266,experiment,39,↑,up,↑,0.5156481999438256,True,19
50M22,267,experiment,41,↓,down,↓,0.4851157999364659,True,19
50M22,268,experiment,49,↑,up,↑,0.6487072999589145,True,19
50M22,269,experiment,19,↑,up,↑,0.5305521000409499,True,19
50M22,270,experiment,28,↓,down,↓,0.4504321999847889,True,19
50M22,271,experiment,47,←,left,←,0.5303827000316232,True,19
50M22,272,experiment,14,←,left,←,1.1493126000277698,True,19
50M22,273,experiment,36,→,right,→,0.5283240999560803,True,19
50M22,274,experiment,48,→,left,←,0.49225630005821586,False,19
50M22,275,experiment,44,←,left,←,0.915882800007239,True,19
50M22,276,experiment,23,↓,down,↓,0.5290771999862045,True,19
50M22,277,experiment,33,←,right,→,0.5029129999456927,False,19
50M22,278,experiment,38,→,left,←,0.38325680000707507,False,19
50M22,279,experiment,27,→,left,←,0.5211441999999806,False,19
50M22,280,experiment,34,↓,up,↑,0.6627129999687895,False,19
50M22,281,experiment,59,←,right,→,0.40050170000176877,False,19
50M22,282,experiment,22,→,no_key,no_letter,-1.0,False,19
50M22,283,experiment,46,→,left,←,0.8908111000200734,False,19
50M22,284,experiment,57,↓,right,→,0.4337402998935431,False,19
50M22,285,experiment,31,↓,down,↓,0.9808975999476388,True,19
50M22,286,experiment,20,→,right,→,0.450007600011304,True,19
50M22,287,experiment,45,←,left,←,0.6651500000152737,True,19
50M22,288,experiment,13,↑,up,↑,0.5184776999522,True,19
50M22,289,experiment,18,→,right,→,0.6065534999361262,True,19
50M22,290,experiment,16,→,right,→,0.604892099974677,True,19
50M22,291,training,50,↑,left,←,0.6698352999519557,False,19
50M22,292,training,23,↑,up,↑,0.5491348000941798,True,19
50M22,293,experiment,43,↑,up,↑,0.4170561999781057,True,19
50M22,294,experiment,34,←,right,→,0.6117242999607697,False,19
50M22,295,experiment,41,→,right,→,0.6418052000226453,True,19
50M22,296,experiment,18,→,no_key,no_letter,-1.0,False,19
50M22,297,experiment,29,→,right,→,0.6759566999971867,True,19
50M22,298,experiment,55,↓,down,↓,0.6452566999942064,True,19
50M22,299,experiment,28,→,right,→,0.5541483000852168,True,19
50M22,300,experiment,23,↑,up,↑,0.7497687001014128,True,19
50M22,301,experiment,14,→,left,←,0.7669120000209659,False,19
50M22,302,experiment,38,→,right,→,0.9921532000880688,True,19
50M22,303,experiment,31,↓,down,↓,0.6210492999525741,True,19
50M22,304,experiment,53,↓,down,↓,0.5062163999537006,True,19
50M22,305,experiment,57,↓,no_key,no_letter,-1.0,False,19
50M22,306,experiment,22,→,left,←,1.0606619999743998,False,19
50M22,307,experiment,46,↓,down,↓,0.5489141000434756,True,19
50M22,308,experiment,30,→,right,→,0.571583200013265,True,19
50M22,309,experiment,54,↓,down,↓,0.5861954999854788,True,19
50M22,310,experiment,27,↓,down,↓,0.5619386999169365,True,19
50M22,311,experiment,16,→,down,↓,0.993529999977909,False,19
50M22,312,experiment,25,←,left,←,0.6505132999736816,True,19
50M22,313,experiment,42,←,left,←,1.3815911000128835,True,19
50M22,314,experiment,21,↓,no_key,no_letter,-1.0,False,19
50M22,315,experiment,49,↑,down,↓,0.4504976000171155,False,19
50M22,316,experiment,58,↓,down,↓,0.40048780001234263,True,19
50M22,317,experiment,48,↑,down,↓,0.4503410999896005,False,19
50M22,318,experiment,56,→,right,→,1.4680761999916285,True,19
50M22,319,experiment,59,←,left,←,0.6912475000135601,True,19
50M22,320,experiment,19,↓,down,↓,0.5001450999407098,True,19
50M22,321,experiment,15,↑,no_key,no_letter,-1.0,False,19
50M22,322,experiment,26,→,down,↓,0.7595205999678001,False,19
50M22,323,experiment,45,↓,down,↓,1.2686715999152511,True,19
50M22,324,experiment,20,↓,down,↓,1.0936535999644548,True,19
50M22,325,experiment,52,↑,up,↑,0.5928207000251859,True,19
50M22,326,experiment,51,↑,up,↑,0.5764119001105428,True,19
50M22,327,experiment,35,↑,up,↑,0.4516060999594629,True,19
50M22,328,experiment,24,→,right,→,0.5135575999738649,True,19
50M22,329,experiment,37,↑,left,←,0.6447997000068426,False,19
50M22,330,experiment,44,→,right,→,0.3671326000476256,True,19
50M22,331,experiment,50,←,left,←,0.6474838999565691,True,19
50M22,332,experiment,40,→,down,↓,1.6760581000708044,False,19
50M22,333,experiment,39,→,right,→,0.5045320999342948,True,19
50M22,334,experiment,47,↓,left,←,0.6141875000903383,False,19
50M22,335,experiment,36,↓,down,↓,0.6544339000247419,True,19
50M22,336,experiment,33,←,left,←,0.4876397999469191,True,19
50M22,337,experiment,13,↓,right,→,0.667212100001052,False,19
50M22,338,experiment,17,←,left,←,0.39973449998069555,True,19
50M22,339,experiment,60,↑,left,←,0.41724099998828024,False,19
50M22,340,experiment,32,←,left,←,0.5281219999305904,True,19
50M22,341,training,18,←,left,←,1.3201018999097869,True,19
50M22,342,training,53,→,right,→,0.3670680000213906,True,19
50M22,343,experiment,57,→,left,←,0.5569778999779373,False,19
50M22,344,experiment,23,↓,down,↓,0.5768327000550926,True,19
50M22,345,experiment,58,←,left,←,0.500224900082685,True,19
50M22,346,experiment,60,↓,down,↓,0.36644780007191,True,19
50M22,347,experiment,49,↑,down,↓,0.49792400002479553,False,19
50M22,348,experiment,14,→,right,→,0.661435000016354,True,19
50M22,349,experiment,17,↑,up,↑,0.5128659999463707,True,19
50M22,350,experiment,41,→,right,→,0.4171614999650046,True,19
50M22,351,experiment,21,→,right,→,1.1708753000712022,True,19
50M22,352,experiment,43,↑,up,↑,0.5290556000545621,True,19
50M22,353,experiment,54,↑,up,↑,0.6410689000040293,True,19
50M22,354,experiment,19,↑,up,↑,0.619816999998875,True,19
50M22,355,experiment,24,←,left,←,1.324265900067985,True,19
50M22,356,experiment,15,←,left,←,1.0945349999237806,True,19
50M22,357,experiment,47,→,no_key,no_letter,-1.0,False,19
50M22,358,experiment,30,→,right,→,0.5153356000082567,True,19
50M22,359,experiment,59,→,left,←,0.4500878999242559,False,19
50M22,360,experiment,26,→,up,↑,1.2530354999471456,False,19
50M22,361,experiment,53,←,right,→,0.6488447999581695,False,19
50M22,362,experiment,25,←,left,←,0.5352147999219596,True,19
50M22,363,experiment,37,←,left,←,0.39967049995902926,True,19
50M22,364,experiment,51,←,left,←,0.7043063999153674,True,19
50M22,365,experiment,13,←,left,←,0.6284280999097973,True,19
50M22,366,experiment,34,←,left,←,1.077946100034751,True,19
50M22,367,experiment,36,→,left,←,0.5641332999803126,False,19
50M22,368,experiment,22,←,right,→,0.4506332000019029,False,19
50M22,369,experiment,46,←,left,←,1.3190911000128835,True,19
50M22,370,experiment,28,→,right,→,0.5051120999269187,True,19
50M22,371,experiment,38,←,left,←,0.433745100046508,True,19
50M22,372,experiment,45,↑,down,↓,0.6693499999819323,False,19
50M22,373,experiment,27,↑,up,↑,1.3857031000079587,True,19
50M22,374,experiment,52,←,left,←,1.9368051999481395,True,19
50M22,375,experiment,44,→,left,←,0.520010199979879,False,19
50M22,376,experiment,20,↑,left,←,0.4871948999352753,False,19
50M22,377,experiment,31,↑,up,↑,0.45013310003560036,True,19
50M22,378,experiment,39,↓,up,↑,0.3664593999274075,False,19
50M22,379,experiment,50,↓,down,↓,0.5791762999724597,True,19
50M22,380,experiment,56,↓,down,↓,0.5599446999840438,True,19
50M22,381,experiment,48,↓,down,↓,0.5152957000536844,True,19
50M22,382,experiment,29,↑,up,↑,0.6437405000906438,True,19
50M22,383,experiment,32,↑,up,↑,0.5421397000318393,True,19
50M22,384,experiment,33,↑,up,↑,0.539354300010018,True,19
50M22,385,experiment,42,←,left,←,0.5150109999813139,True,19
50M22,386,experiment,16,→,up,↑,0.6605239000637084,False,19
50M22,387,experiment,55,↑,down,↓,0.4334590000798926,False,19
50M22,388,experiment,35,↑,up,↑,0.11855700006708503,True,19
50M22,389,experiment,18,↑,up,↑,1.662297600065358,True,19
50M22,390,experiment,40,←,down,↓,0.4901618000585586,False,19
50M22,391,training,23,←,left,←,0.6026493000099435,True,19
50M22,392,training,30,→,right,→,0.6152332999045029,True,19
50M22,393,experiment,45,↓,down,↓,0.6097221000818536,True,19
50M22,394,experiment,23,←,left,←,0.5873007000191137,True,19
50M22,395,experiment,54,↓,down,↓,0.640919299912639,True,19
50M22,396,experiment,33,↓,down,↓,0.5303483000025153,True,19
50M22,397,experiment,43,↓,down,↓,0.5057451999746263,True,19
50M22,398,experiment,20,→,left,←,0.5450903999153525,False,19
50M22,399,experiment,60,←,right,→,0.5408285000594333,False,19
50M22,400,experiment,29,↑,down,↓,0.6448922000126913,False,19
50M22,401,experiment,59,↓,down,↓,0.58120570005849,True,19
50M22,402,experiment,58,↑,up,↑,0.8723442000336945,True,19
50M22,403,experiment,39,←,left,←,0.5809062999906018,True,19
50M22,404,experiment,14,↓,down,↓,0.5247504999861121,True,19
50M22,405,experiment,31,↑,down,↓,0.4164994000457227,False,19
50M22,406,experiment,49,→,right,→,0.5231269999640062,True,19
50M22,407,experiment,26,→,left,←,0.8381573000224307,False,19
50M22,408,experiment,56,↓,down,↓,0.600599900004454,True,19
50M22,409,experiment,35,↑,up,↑,0.5778916999697685,True,19
50M22,410,experiment,16,↑,down,↓,1.2731784000061452,False,19
50M22,411,experiment,27,→,right,→,0.5658992000389844,True,19
50M22,412,experiment,53,←,left,←,0.5089033999247476,True,19
50M22,413,experiment,37,↓,down,↓,1.9208789999829605,True,19
50M22,414,experiment,47,→,left,←,0.598520900006406,False,19
50M22,415,experiment,24,↓,left,←,0.6792494999244809,False,19
50M22,416,experiment,44,←,left,←,0.5597764000995085,True,19
50M22,417,experiment,40,↓,down,↓,0.38352060003671795,True,19
50M22,418,experiment,55,←,left,←,0.48426289996132255,True,19
50M22,419,experiment,30,↓,down,↓,0.3835611999966204,True,19
50M22,420,experiment,48,→,right,→,0.7339665000326931,True,19
50M22,421,experiment,22,↑,right,→,0.6425950000993907,False,19
50M22,422,experiment,32,←,right,→,0.5166979999048635,False,19
50M22,423,experiment,28,→,right,→,0.7664320999756455,True,19
50M22,424,experiment,17,←,right,→,0.5171778000658378,False,19
50M22,425,experiment,38,←,right,→,0.38403329998254776,False,19
50M22,426,experiment,34,→,right,→,1.5459317000349984,True,19
50M22,427,experiment,41,↓,no_key,no_letter,-1.0,False,19
50M22,428,experiment,57,→,left,←,0.7664941999828443,False,19
50M22,429,experiment,42,→,up,↑,1.124756500008516,False,19
50M22,430,experiment,18,→,left,←,1.0535202999599278,False,19
50M22,431,experiment,50,→,no_key,no_letter,-1.0,False,19
50M22,432,experiment,52,↓,down,↓,0.5865627999883145,True,19
50M22,433,experiment,46,↑,up,↑,0.5576211999868974,True,19
50M22,434,experiment,25,←,left,←,0.4880845999578014,True,19
50M22,435,experiment,51,→,left,←,0.6106949000386521,False,19
50M22,436,experiment,13,↑,left,←,0.7786319999722764,False,19
50M22,437,experiment,36,←,left,←,0.6770615999121219,True,19
50M22,438,experiment,19,↑,left,←,0.5183288999833167,False,19
50M22,439,experiment,21,↑,left,←,1.0923484000377357,False,19
50M22,440,experiment,15,↓,left,←,0.8959614000050351,False,19
50M22,441,training,54,→,right,→,0.4499255999689922,True,20
50M22,442,training,18,↓,down,↓,0.5218208999140188,True,20
50M22,443,experiment,28,↓,down,↓,0.34984309994615614,True,20
50M22,444,experiment,53,↑,up,↑,0.46606729994527996,True,20
50M22,445,experiment,37,→,right,→,1.2550774000119418,True,20
50M22,446,experiment,25,↑,up,↑,0.4340476000215858,True,20
50M22,447,experiment,31,→,right,→,0.466482299962081,True,20
50M22,448,experiment,26,↑,up,↑,0.41711459995713085,True,20
50M22,449,experiment,15,→,left,←,1.4406696999212727,False,20
50M22,450,experiment,43,↑,left,←,0.43412730004638433,False,20
50M22,451,experiment,49,↓,down,↓,1.4826390000525862,True,20
50M22,452,experiment,57,←,left,←,0.5225067000137642,True,20
50M22,453,experiment,32,←,left,←,0.4336857000598684,True,20
50M22,454,experiment,41,↓,down,↓,0.36653550004120916,True,20
50M22,455,experiment,52,↑,down,↓,0.6998438999289647,False,20
50M22,456,experiment,60,↓,down,↓,0.601136100012809,True,20
50M22,457,experiment,45,↓,down,↓,0.5562688000500202,True,20
50M22,458,experiment,24,→,right,→,0.502972999936901,True,20
50M22,459,experiment,59,↑,down,↓,0.35018889990169555,False,20
50M22,460,experiment,48,←,left,←,0.51766959996894,True,20
50M22,461,experiment,44,→,right,→,0.5407142000040039,True,20
50M22,462,experiment,21,↑,left,←,0.8741249000886455,False,20
50M22,463,experiment,56,←,left,←,0.6271135999122635,True,20
50M22,464,experiment,17,→,left,←,0.9358277000719681,False,20
50M22,465,experiment,55,↑,left,←,0.6632626000791788,False,20
50M22,466,experiment,38,↑,left,←,1.068832500022836,False,20
50M22,467,experiment,40,↓,down,↓,0.7844396999571472,True,20
50M22,468,experiment,47,→,down,↓,0.859234599978663,False,20
50M22,469,experiment,27,↓,down,↓,0.5199764999561012,True,20
50M22,470,experiment,14,↑,down,↓,0.9462626000167802,False,20
50M22,471,experiment,33,→,down,↓,0.6475934999762103,False,20
50M22,472,experiment,39,↑,left,←,1.1885445999214426,False,20
50M22,473,experiment,16,→,no_key,no_letter,-1.0,False,20
50M22,474,experiment,51,↑,up,↑,0.5871992000611499,True,20
50M22,475,experiment,29,→,right,→,0.4498939999612048,True,20
50M22,476,experiment,19,←,left,←,1.7787008000304922,True,20
50M22,477,experiment,50,↓,down,↓,0.43394669995177537,True,20
50M22,478,experiment,35,↓,down,↓,0.3673356999643147,True,20
50M22,479,experiment,34,↓,down,↓,0.3673471000511199,True,20
50M22,480,experiment,54,↓,down,↓,0.7558132000267506,True,20
50M22,481,experiment,18,←,left,←,1.618644200032577,True,20
50M22,482,experiment,22,←,left,←,0.5487012000521645,True,20
50M22,483,experiment,30,↓,down,↓,1.6435976000502706,True,20
50M22,484,experiment,23,→,down,↓,1.5160796000855044,False,20
50M22,485,experiment,13,↓,down,↓,0.5759201999753714,True,20
50M22,486,experiment,20,↑,down,↓,0.7324061000254005,False,20
50M22,487,experiment,58,→,down,↓,0.5082673000870273,False,20
50M22,488,experiment,46,←,right,→,0.5357002000091597,False,20
50M22,489,experiment,42,→,right,→,0.694939799956046,True,20
50M22,490,experiment,36,↓,down,↓,0.43341749999672174,True,20
50M22,491,training,45,→,right,→,0.4005644000135362,True,20
50M22,492,training,42,↓,right,→,0.3502343000145629,False,20
50M22,493,experiment,22,←,left,←,0.5255230000475422,True,20
50M22,494,experiment,18,→,right,→,1.1415426000021398,True,20
50M22,495,experiment,34,←,right,→,0.530493300058879,False,20
50M22,496,experiment,54,↓,down,↓,0.38314289995469153,True,20
50M22,497,experiment,21,←,left,←,0.5409616000251845,True,20
50M22,498,experiment,19,↓,down,↓,0.5393465999513865,True,20
50M22,499,experiment,59,→,right,→,0.9361091000027955,True,20
50M22,500,experiment,50,↓,down,↓,0.4678563999477774,True,20
50M22,501,experiment,53,↑,up,↑,0.5086558000184596,True,20
50M22,502,experiment,37,→,right,→,0.45037789992056787,True,20
50M22,503,experiment,36,↑,up,↑,0.6221051000757143,True,20
50M22,504,experiment,40,←,left,←,0.5318451999919489,True,20
50M22,505,experiment,47,←,left,←,0.4501573999878019,True,20
50M22,506,experiment,23,↑,up,↑,0.5508579999441281,True,20
50M22,507,experiment,38,→,right,→,0.4665544999297708,True,20
50M22,508,experiment,24,→,left,←,0.5738705000840127,False,20
50M22,509,experiment,13,↑,up,↑,1.40746129991021,True,20
50M22,510,experiment,49,→,right,→,0.4503057000692934,True,20
50M22,511,experiment,15,→,left,←,0.5957097999053076,False,20
50M22,512,experiment,20,↑,up,↑,0.46704240003600717,True,20
50M22,513,experiment,28,↓,down,↓,0.6904432999435812,True,20
50M22,514,experiment,39,↓,down,↓,0.710283900029026,True,20
50M22,515,experiment,48,→,right,→,0.4502281000604853,True,20
50M22,516,experiment,27,←,left,←,0.879036600003019,True,20
50M22,517,experiment,44,↓,down,↓,0.46752049995120615,True,20
50M22,518,experiment,45,↓,down,↓,0.3845787999453023,True,20
50M22,519,experiment,46,←,left,←,0.4346612000372261,True,20
50M22,520,experiment,29,↑,down,↓,0.7802512000780553,False,20
50M22,521,experiment,16,←,left,←,0.41638359997887164,True,20
50M22,522,experiment,52,↑,up,↑,0.8799640000797808,True,20
50M22,523,experiment,33,↑,up,↑,0.5281653999118134,True,20
50M22,524,experiment,32,→,right,→,0.43415949994232506,True,20
50M22,525,experiment,26,↓,down,↓,1.01234909996856,True,20
50M22,526,experiment,30,→,left,←,0.6898262000177056,False,20
50M22,527,experiment,55,↑,down,↓,0.6663887000177056,False,20
50M22,528,experiment,51,↑,up,↑,0.5429871999658644,True,20
50M22,529,experiment,43,→,right,→,0.8699449000414461,True,20
50M22,530,experiment,58,←,left,←,0.7658021999523044,True,20
50M22,531,experiment,14,↓,down,↓,0.5265146000310779,True,20
50M22,532,experiment,17,→,right,→,0.575727800023742,True,20
50M22,533,experiment,41,↓,down,↓,0.40036379999946803,True,20
50M22,534,experiment,56,←,left,←,1.2250071000307798,True,20
50M22,535,experiment,60,↑,up,↑,0.577846199972555,True,20
50M22,536,experiment,31,←,left,←,1.247265600017272,True,20
50M22,537,experiment,35,←,left,←,0.450047800084576,True,20
50M22,538,experiment,25,↑,down,↓,0.5244459999958053,False,20
50M22,539,experiment,42,↓,down,↓,0.5168663999065757,True,20
50M22,540,experiment,57,↓,down,↓,0.3329615000402555,True,20
50M22,541,training,18,←,left,←,0.5943653000285849,True,20
50M22,542,training,26,←,left,←,0.5542465000180528,True,20
50M22,543,experiment,56,↓,down,↓,0.6402152000227943,True,20
50M22,544,experiment,28,→,right,→,0.7807665999280289,True,20
50M22,545,experiment,46,↓,down,↓,0.5117585000116378,True,20
50M22,546,experiment,55,↑,up,↑,0.5195924000581726,True,20
50M22,547,experiment,20,←,left,←,0.5259946000296623,True,20
50M22,548,experiment,50,↓,down,↓,0.4166807000292465,True,20
50M22,549,experiment,57,←,left,←,0.6341786000411958,True,20
50M22,550,experiment,35,←,left,←,0.45085679995827377,True,20
50M22,551,experiment,15,↑,up,↑,1.3826289999997243,True,20
50M22,552,experiment,30,↑,up,↑,0.7563212999375537,True,20
50M22,553,experiment,16,↑,up,↑,0.4504291000775993,True,20
50M22,554,experiment,59,↓,down,↓,0.5155790999997407,True,20
50M22,555,experiment,43,←,left,←,0.5469690000172704,True,20
50M22,556,experiment,24,↓,down,↓,0.6619802999775857,True,20
50M22,557,experiment,41,→,right,→,0.41703999997116625,True,20
50M22,558,experiment,36,↑,up,↑,1.2808767000678927,True,20
50M22,559,experiment,27,↑,down,↓,0.73256360006053,False,20
50M22,560,experiment,14,↑,up,↑,0.4664111000020057,True,20
50M22,561,experiment,21,→,right,→,1.1823211999144405,True,20
50M22,562,experiment,58,↑,up,↑,0.4349013000028208,True,20
50M22,563,experiment,29,↑,up,↑,0.5961241000331938,True,20
50M22,564,experiment,33,←,left,←,0.7590547000290826,True,20
50M22,565,experiment,44,↑,up,↑,0.7406455000163987,True,20
50M22,566,experiment,23,→,right,→,0.8330957998987287,True,20
50M22,567,experiment,26,→,right,→,0.5910818999400362,True,20
50M22,568,experiment,53,→,down,↓,0.38308840000536293,False,20
50M22,569,experiment,49,↓,left,←,0.3663880000822246,False,20
50M22,570,experiment,18,↑,up,↑,1.1390460000839084,True,20
50M22,571,experiment,31,↑,up,↑,0.505979000008665,True,20
50M22,572,experiment,60,↓,down,↓,0.46663889999035746,True,20
50M22,573,experiment,47,→,down,↓,0.4345039000036195,False,20
50M22,574,experiment,48,↑,right,→,0.5150303000118583,False,20
50M22,575,experiment,54,↓,down,↓,0.45049940003082156,True,20
50M22,576,experiment,19,←,left,←,0.41680720006115735,True,20
50M22,577,experiment,17,→,right,→,1.1924390000058338,True,20
50M22,578,experiment,37,↑,up,↑,0.7460112000117078,True,20
50M22,579,experiment,38,↑,up,↑,0.5160194000927731,True,20
50M22,580,experiment,13,↓,up,↑,1.063440699945204,False,20
50M22,581,experiment,39,↑,up,↑,0.4331398999784142,True,20
50M22,582,experiment,51,↑,up,↑,0.6570718999719247,True,20
50M22,583,experiment,45,→,right,→,0.4338802999118343,True,20
50M22,584,experiment,40,↑,up,↑,1.141755499993451,True,20
50M22,585,experiment,25,↑,up,↑,0.3671683999709785,True,20
50M22,586,experiment,22,↓,up,↑,0.7876818999648094,False,20
50M22,587,experiment,34,↓,up,↑,0.45073949999641627,False,20
50M22,588,experiment,52,→,right,→,0.5223135999403894,True,20
50M22,589,experiment,32,↑,up,↑,1.696956399944611,True,20
50M22,590,experiment,42,↑,up,↑,0.64236349996645,True,20
