PART_ID,Trial_no,Trial_type,CSI,Stim_letter,Key_pressed,letter_choose,Rt,Corr,Stimulus Time
51K26,1,training,60,↓,no_key,no_letter,-1.0,False,30
51K26,2,training,60,→,left,←,0.6180810999358073,False,30
51K26,3,training,60,→,left,←,0.6167390999617055,False,30
51K26,4,training,60,→,up,↑,0.3183482999447733,False,30
51K26,5,training,60,↑,up,↑,0.48414459999185055,True,30
51K26,6,training,60,↑,no_key,no_letter,-1.0,False,30
51K26,7,training,60,↑,up,↑,0.5669461999787018,True,30
51K26,8,training,60,↑,up,↑,0.5839567000512034,True,30
51K26,9,training,60,←,left,←,0.723064300022088,True,30
51K26,10,training,60,←,left,←,0.5506787999765947,True,30
51K26,11,training,60,←,left,←,0.5006718999939039,True,30
51K26,12,training,60,↓,left,←,0.43533949996344745,False,30
51K26,13,training,60,←,no_key,no_letter,-1.0,False,30
51K26,14,training,60,↑,no_key,no_letter,-1.0,False,30
51K26,15,training,60,↓,up,↑,0.717756099998951,False,30
51K26,16,training,60,→,right,→,0.6336549000116065,True,30
51K26,17,training,60,→,right,→,0.48408039996866137,True,30
51K26,18,training,60,↓,right,→,0.6174836000427604,False,30
51K26,19,training,60,→,right,→,0.8387232000241056,True,30
51K26,20,training,60,→,right,→,0.43392179999500513,True,30
51K26,21,training,60,↓,down,↓,0.5714281999971718,True,18
51K26,22,training,60,←,down,↓,0.4006667999783531,False,18
51K26,23,training,60,→,left,←,0.28429290000349283,False,18
51K26,24,training,60,↑,up,↑,0.4006487000733614,True,18
51K26,25,training,60,←,right,→,0.6046618000837043,False,18
51K26,26,training,60,→,right,→,0.4920728000579402,True,18
51K26,27,training,60,↑,left,←,0.40040610008873045,False,18
51K26,28,training,60,←,right,→,0.5586283000884578,False,18
51K26,29,training,60,→,left,←,0.3667031000368297,False,18
51K26,30,training,60,↑,up,↑,0.47229099995456636,True,18
51K26,31,training,60,←,up,↑,1.603924199938774,False,18
51K26,32,training,60,↑,right,→,0.4339355999836698,False,18
51K26,33,training,60,→,right,→,0.48063540004659444,True,18
51K26,34,training,60,↓,right,→,0.5566455000080168,False,18
51K26,35,training,60,→,left,←,0.6619862000225112,False,18
51K26,36,training,60,←,right,→,0.4005742999725044,False,18
51K26,37,training,60,←,right,→,0.4341182999778539,False,18
51K26,38,training,60,↑,up,↑,0.317361900000833,True,18
51K26,39,training,60,↓,down,↓,0.5767338000005111,True,18
51K26,40,training,60,→,right,→,0.40099240001291037,True,18
51K26,41,training,20,↑,up,↑,0.6394071999238804,True,18
51K26,42,training,58,→,right,→,0.43393950001336634,True,18
51K26,43,experiment,26,↑,right,→,0.6600252999924123,False,18
51K26,44,experiment,49,↑,left,←,0.11819039995316416,False,18
51K26,45,experiment,32,↓,right,→,0.25163710000924766,False,18
51K26,46,experiment,16,→,no_key,no_letter,-1.0,False,18
51K26,47,experiment,20,→,left,←,0.43410459998995066,False,18
51K26,48,experiment,15,↑,no_key,no_letter,-1.0,False,18
51K26,49,experiment,24,←,right,→,0.5227281999541447,False,18
51K26,50,experiment,55,↓,down,↓,0.49734619993250817,True,18
51K26,51,experiment,30,←,right,→,0.7213594999630004,False,18
51K26,52,experiment,52,←,right,→,0.5300560999894515,False,18
51K26,53,experiment,60,↑,down,↓,0.6369392999913543,False,18
51K26,54,experiment,53,↑,right,→,0.1505550000583753,False,18
51K26,55,experiment,13,↓,up,↑,0.5877429000101984,False,18
51K26,56,experiment,22,→,up,↑,0.31728709989693016,False,18
51K26,57,experiment,14,↓,up,↑,0.5507768000243232,False,18
51K26,58,experiment,50,←,right,→,0.36736020003445446,False,18
51K26,59,experiment,38,↓,left,←,0.31679779989644885,False,18
51K26,60,experiment,28,→,down,↓,0.4946769999805838,False,18
51K26,61,experiment,34,→,right,→,0.48461700009647757,True,18
51K26,62,experiment,40,↓,no_key,no_letter,-1.0,False,18
51K26,63,experiment,29,↓,down,↓,0.4925922000547871,True,18
51K26,64,experiment,31,↑,no_key,no_letter,-1.0,False,18
51K26,65,experiment,41,↓,right,→,0.4905176000902429,False,18
51K26,66,experiment,59,→,no_key,no_letter,-1.0,False,18
51K26,67,experiment,39,↓,down,↓,0.2002447999548167,True,18
51K26,68,experiment,57,→,down,↓,0.40097790001891553,False,18
51K26,69,experiment,25,→,right,→,0.5081629999913275,True,18
51K26,70,experiment,36,↑,left,←,0.3339539999142289,False,18
51K26,71,experiment,58,↑,no_key,no_letter,-1.0,False,18
51K26,72,experiment,33,→,up,↑,0.3840018000919372,False,18
51K26,73,experiment,27,→,right,→,0.3170553999952972,True,18
51K26,74,experiment,47,↑,left,←,0.2682881000218913,False,18
51K26,75,experiment,42,↓,up,↑,0.28390769998077303,False,18
51K26,76,experiment,23,↓,down,↓,0.2841779999434948,True,18
51K26,77,experiment,35,↓,right,→,0.497295800014399,False,18
51K26,78,experiment,48,→,no_key,no_letter,-1.0,False,18
51K26,79,experiment,54,→,no_key,no_letter,-1.0,False,18
51K26,80,experiment,19,↓,down,↓,0.41701659990940243,True,18
51K26,81,experiment,44,↓,no_key,no_letter,-1.0,False,18
51K26,82,experiment,17,↓,right,→,0.3005232000723481,False,18
51K26,83,experiment,51,→,left,←,0.417422000085935,False,18
51K26,84,experiment,45,↑,down,↓,0.33417219994589686,False,18
51K26,85,experiment,21,→,right,→,0.6365909000160173,True,18
51K26,86,experiment,56,↑,down,↓,0.5339896000223234,False,18
51K26,87,experiment,18,→,right,→,0.6524624000303447,True,18
51K26,88,experiment,46,→,left,←,0.31725109997205436,False,18
51K26,89,experiment,37,←,right,→,0.334885900025256,False,18
51K26,90,experiment,43,↑,left,←,0.06828239990863949,False,18
51K26,91,training,31,↓,down,↓,0.5210769000696018,True,19
51K26,92,training,38,←,no_key,no_letter,-1.0,False,19
51K26,93,experiment,41,←,left,←,0.38703409989830106,True,19
51K26,94,experiment,15,↑,no_key,no_letter,-1.0,False,19
51K26,95,experiment,49,→,right,→,0.43382100004237145,True,19
51K26,96,experiment,42,→,no_key,no_letter,-1.0,False,19
51K26,97,experiment,21,→,left,←,0.4172748998971656,False,19
51K26,98,experiment,58,←,right,→,0.41726480005308986,False,19
51K26,99,experiment,38,→,left,←,0.3506514000473544,False,19
51K26,100,experiment,27,←,right,→,0.3839829000644386,False,19
51K26,101,experiment,44,↑,up,↑,0.49712069996166974,True,19
51K26,102,experiment,56,↓,down,↓,0.7358752000145614,True,19
51K26,103,experiment,22,↑,up,↑,0.6917056000092998,True,19
51K26,104,experiment,54,↑,up,↑,0.4505909000290558,True,19
51K26,105,experiment,57,↑,up,↑,0.3673378999810666,True,19
51K26,106,experiment,34,↑,up,↑,0.35093449999112636,True,19
51K26,107,experiment,43,←,up,↑,0.7705158999888226,False,19
51K26,108,experiment,60,←,left,←,0.6517166999401525,True,19
51K26,109,experiment,29,→,left,←,0.3840768999652937,False,19
51K26,110,experiment,45,↓,no_key,no_letter,-1.0,False,19
51K26,111,experiment,48,←,left,←,0.6253248000284657,True,19
51K26,112,experiment,16,→,left,←,0.6298152999952435,False,19
51K26,113,experiment,20,↑,down,↓,0.41726299992296845,False,19
51K26,114,experiment,35,→,up,↑,0.43614569993223995,False,19
51K26,115,experiment,14,→,right,→,0.5791100000496954,True,19
51K26,116,experiment,51,←,left,←,0.38400090008508414,True,19
51K26,117,experiment,18,↓,no_key,no_letter,-1.0,False,19
51K26,118,experiment,19,↓,right,→,0.506578000029549,False,19
51K26,119,experiment,46,↓,down,↓,0.33394260006025434,True,19
51K26,120,experiment,52,→,down,↓,0.3674830000381917,False,19
51K26,121,experiment,37,←,right,→,0.5031242000404745,False,19
51K26,122,experiment,40,→,no_key,no_letter,-1.0,False,19
51K26,123,experiment,25,↓,right,→,0.5044000999769196,False,19
51K26,124,experiment,28,↑,left,←,0.4165853000013158,False,19
51K26,125,experiment,50,→,down,↓,0.38390070002060384,False,19
51K26,126,experiment,31,↑,no_key,no_letter,-1.0,False,19
51K26,127,experiment,17,→,right,→,0.40080860001035035,True,19
51K26,128,experiment,30,→,right,→,0.36722130002453923,True,19
51K26,129,experiment,59,←,left,←,0.45055649999994785,True,19
51K26,130,experiment,55,↑,right,→,0.5171289999270812,False,19
51K26,131,experiment,47,←,left,←,0.4339258000254631,True,19
51K26,132,experiment,33,→,right,→,0.50524069997482,True,19
51K26,133,experiment,24,←,left,←,0.41644239996094257,True,19
51K26,134,experiment,53,←,left,←,0.3175170000176877,True,19
51K26,135,experiment,13,→,right,→,0.6023826999589801,True,19
51K26,136,experiment,39,←,right,→,0.5685568999033421,False,19
51K26,137,experiment,36,→,left,←,0.4339521999936551,False,19
51K26,138,experiment,23,↑,right,→,0.43411999999079853,False,19
51K26,139,experiment,26,←,right,→,0.6289776000194252,False,19
51K26,140,experiment,32,→,no_key,no_letter,-1.0,False,19
51K26,141,training,21,←,right,→,0.6071908000158146,False,20
51K26,142,training,22,↓,left,←,0.43395440001040697,False,20
51K26,143,experiment,57,↓,down,↓,0.5206082999939099,True,20
51K26,144,experiment,24,↑,up,↑,0.6756987000117078,True,20
51K26,145,experiment,36,↑,down,↓,1.5852544999215752,False,20
51K26,146,experiment,15,↑,down,↓,0.655683399992995,False,20
51K26,147,experiment,32,←,left,←,0.3507091000210494,True,20
51K26,148,experiment,33,→,right,→,0.46722210000734776,True,20
51K26,149,experiment,22,→,right,→,0.513631800073199,True,20
51K26,150,experiment,30,←,right,→,0.2681435999693349,False,20
51K26,151,experiment,19,↓,left,←,0.35050880000926554,False,20
51K26,152,experiment,44,↓,no_key,no_letter,-1.0,False,20
51K26,153,experiment,48,↓,down,↓,0.3670365000143647,True,20
51K26,154,experiment,53,→,right,→,0.5846147000556812,True,20
51K26,155,experiment,35,→,right,→,0.5376535000978038,True,20
51K26,156,experiment,52,→,left,←,0.5298353999387473,False,20
51K26,157,experiment,18,↓,up,↑,0.6326430999906734,False,20
51K26,158,experiment,20,→,left,←,0.45011340000201017,False,20
51K26,159,experiment,41,→,right,→,0.31729900010395795,True,20
51K26,160,experiment,43,↓,right,→,0.3016632000217214,False,20
51K26,161,experiment,16,→,down,↓,0.3172970999730751,False,20
51K26,162,experiment,55,↓,down,↓,0.4500638999743387,True,20
51K26,163,experiment,58,→,right,→,0.5663470000727102,True,20
51K26,164,experiment,56,↑,left,←,0.31770619994495064,False,20
51K26,165,experiment,23,→,right,→,0.5657034000614658,True,20
51K26,166,experiment,21,↓,right,→,0.5770037999609485,False,20
51K26,167,experiment,45,←,down,↓,1.4044637000188231,False,20
51K26,168,experiment,46,↑,right,→,0.28389860002789646,False,20
51K26,169,experiment,17,→,no_key,no_letter,-1.0,False,20
51K26,170,experiment,51,←,left,←,0.46713589993305504,True,20
51K26,171,experiment,28,↑,left,←,0.5490816000383347,False,20
51K26,172,experiment,42,↓,up,↑,0.64293839992024,False,20
51K26,173,experiment,27,←,right,→,0.5115667999489233,False,20
51K26,174,experiment,47,↓,right,→,0.36715899989940226,False,20
51K26,175,experiment,59,↓,down,↓,0.556857299990952,True,20
51K26,176,experiment,38,↓,down,↓,0.4174133000196889,True,20
51K26,177,experiment,40,↑,down,↓,0.5215881000040099,False,20
51K26,178,experiment,25,→,right,→,0.5326559999957681,True,20
51K26,179,experiment,39,↓,up,↑,0.6850723000243306,False,20
51K26,180,experiment,13,→,down,↓,0.34971660003066063,False,20
51K26,181,experiment,31,←,left,←,0.5576201999792829,True,20
51K26,182,experiment,54,↑,no_key,no_letter,-1.0,False,20
51K26,183,experiment,29,↓,down,↓,0.544280199916102,True,20
51K26,184,experiment,34,→,right,→,0.2016606000252068,True,20
51K26,185,experiment,37,←,left,←,0.16823640000075102,True,20
51K26,186,experiment,50,↓,up,↑,0.21816129994112998,False,20
51K26,187,experiment,26,←,left,←,0.3673047999618575,True,20
51K26,188,experiment,49,↑,no_key,no_letter,-1.0,False,20
51K26,189,experiment,60,↑,up,↑,0.46733759995549917,True,20
51K26,190,experiment,14,↑,left,←,0.4006318000610918,False,20
51K26,191,training,30,↓,down,↓,0.4672470000805333,True,21
51K26,192,training,27,↓,down,↓,0.713742799940519,True,21
51K26,193,experiment,53,←,up,↑,0.43460649996995926,False,21
51K26,194,experiment,41,←,right,→,0.5715747999493033,False,21
51K26,195,experiment,33,↑,down,↓,0.6870229999767616,False,21
51K26,196,experiment,59,←,right,→,0.4840392000041902,False,21
51K26,197,experiment,16,→,left,←,0.45053479995112866,False,21
51K26,198,experiment,30,←,up,↑,0.3840613999636844,False,21
51K26,199,experiment,45,↓,left,←,0.26805930002592504,False,21
51K26,200,experiment,19,←,no_key,no_letter,-1.0,False,21
51K26,201,experiment,34,↑,left,←,0.4006352999713272,False,21
51K26,202,experiment,55,↓,up,↑,0.21840130002237856,False,21
51K26,203,experiment,37,↓,down,↓,0.11827570002060384,True,21
51K26,204,experiment,25,↑,down,↓,0.7322315000928938,False,21
51K26,205,experiment,40,→,right,→,0.6524578999960795,True,21
51K26,206,experiment,32,↓,right,→,0.10187729995232075,False,21
51K26,207,experiment,27,←,left,←,0.4006164000602439,True,21
51K26,208,experiment,42,→,right,→,0.4839044000254944,True,21
51K26,209,experiment,20,↑,down,↓,0.7269006000133231,False,21
51K26,210,experiment,51,→,right,→,0.7841252000071108,True,21
51K26,211,experiment,56,↑,right,→,0.16861330007668585,False,21
51K26,212,experiment,57,↓,right,→,0.5595119000645354,False,21
51K26,213,experiment,21,↓,no_key,no_letter,-1.0,False,21
51K26,214,experiment,50,→,right,→,0.33394629997201264,True,21
51K26,215,experiment,35,↑,right,→,0.31853899999987334,False,21
51K26,216,experiment,17,←,right,→,0.26804270001593977,False,21
51K26,217,experiment,14,←,left,←,0.40048800001386553,True,21
51K26,218,experiment,31,↑,left,←,0.4842103000264615,False,21
51K26,219,experiment,28,→,down,↓,0.36730189993977547,False,21
51K26,220,experiment,49,↑,up,↑,0.2516663999995217,True,21
51K26,221,experiment,44,↑,right,→,0.16809310007374734,False,21
51K26,222,experiment,58,←,right,→,0.23502769996412098,False,21
51K26,223,experiment,23,→,right,→,0.7141290000872687,True,21
51K26,224,experiment,47,←,left,←,0.33406660007312894,True,21
51K26,225,experiment,26,↓,right,→,0.41719469998497516,False,21
51K26,226,experiment,36,→,left,←,0.7014666999457404,False,21
51K26,227,experiment,29,↑,up,↑,0.5341333000687882,True,21
51K26,228,experiment,18,←,left,←,0.48331849998794496,True,21
51K26,229,experiment,52,↑,left,←,0.5501235000556335,False,21
51K26,230,experiment,13,↑,up,↑,0.4005038000177592,True,21
51K26,231,experiment,24,←,no_key,no_letter,-1.0,False,21
51K26,232,experiment,48,→,right,→,0.526192200020887,True,21
51K26,233,experiment,54,↑,no_key,no_letter,-1.0,False,21
51K26,234,experiment,22,→,right,→,0.46754179999697953,True,21
51K26,235,experiment,43,←,left,←,0.6775651999050751,True,21
51K26,236,experiment,38,↑,up,↑,0.4508663999149576,True,21
51K26,237,experiment,39,↑,up,↑,0.43426830007229,True,21
51K26,238,experiment,60,↑,up,↑,0.5953786999452859,True,21
51K26,239,experiment,15,←,up,↑,0.7454429999925196,False,21
51K26,240,experiment,46,↑,no_key,no_letter,-1.0,False,21
51K26,241,training,26,←,left,←,0.582183999940753,True,21
51K26,242,training,36,↑,up,↑,0.5670306000392884,True,21
51K26,243,experiment,46,←,right,→,0.5215151999145746,False,21
51K26,244,experiment,30,←,left,←,0.4506487000035122,True,21
51K26,245,experiment,18,↑,no_key,no_letter,-1.0,False,21
51K26,246,experiment,54,→,right,→,0.7647445000475273,True,21
51K26,247,experiment,59,↓,left,←,0.4671685000648722,False,21
51K26,248,experiment,42,↓,down,↓,0.43374119990039617,True,21
51K26,249,experiment,20,→,right,→,0.560359499999322,True,21
51K26,250,experiment,53,↑,right,→,0.5270682000555098,False,21
51K26,251,experiment,15,↓,down,↓,0.6637800000607967,True,21
51K26,252,experiment,37,↓,right,→,0.4839339000172913,False,21
51K26,253,experiment,58,←,left,←,0.35075849993154407,True,21
51K26,254,experiment,52,→,up,↑,1.7929948000237346,False,21
51K26,255,experiment,31,↑,left,←,0.46661939995829016,False,21
51K26,256,experiment,48,↑,up,↑,0.4172923000296578,True,21
51K26,257,experiment,34,↑,right,→,0.6014677999773994,False,21
51K26,258,experiment,56,↓,down,↓,0.45062840008176863,True,21
51K26,259,experiment,13,→,down,↓,0.43398259999230504,False,21
51K26,260,experiment,55,→,right,→,0.530237799976021,True,21
51K26,261,experiment,51,↓,left,←,0.38330430001951754,False,21
51K26,262,experiment,45,→,down,↓,0.36674990004394203,False,21
51K26,263,experiment,38,↑,down,↓,0.7241565000731498,False,21
51K26,264,experiment,24,→,no_key,no_letter,-1.0,False,21
51K26,265,experiment,23,↑,left,←,0.41701249999459833,False,21
51K26,266,experiment,21,↓,down,↓,0.72812410001643,True,21
51K26,267,experiment,29,↑,up,↑,0.43389379989821464,True,21
51K26,268,experiment,49,←,left,←,0.417278700042516,True,21
51K26,269,experiment,41,←,left,←,0.43424139998387545,True,21
51K26,270,experiment,44,→,no_key,no_letter,-1.0,False,21
51K26,271,experiment,27,↓,no_key,no_letter,-1.0,False,21
51K26,272,experiment,43,↓,down,↓,0.36723699991125613,True,21
51K26,273,experiment,50,←,down,↓,0.3672482999972999,False,21
51K26,274,experiment,36,↑,up,↑,0.43409989995416254,True,21
51K26,275,experiment,35,→,right,→,0.4007036000257358,True,21
51K26,276,experiment,60,↑,down,↓,0.7513649000320584,False,21
51K26,277,experiment,47,→,right,→,0.4346472999313846,True,21
51K26,278,experiment,17,←,left,←,0.5318986000493169,True,21
51K26,279,experiment,57,→,right,→,0.5292977000353858,True,21
51K26,280,experiment,14,↓,down,↓,0.7379936000797898,True,21
51K26,281,experiment,22,↓,no_key,no_letter,-1.0,False,21
51K26,282,experiment,33,↓,down,↓,0.4676935001043603,True,21
51K26,283,experiment,28,←,down,↓,0.40055029990617186,False,21
51K26,284,experiment,16,←,left,←,0.4008009999524802,True,21
51K26,285,experiment,19,↓,down,↓,0.4666978999739513,True,21
51K26,286,experiment,40,↑,no_key,no_letter,-1.0,False,21
51K26,287,experiment,25,→,right,→,0.4173160999780521,True,21
51K26,288,experiment,32,←,right,→,0.7307186999823898,False,21
51K26,289,experiment,26,→,left,←,0.367735099978745,False,21
51K26,290,experiment,39,→,right,→,0.5626740000443533,True,21
51K26,291,training,57,↑,up,↑,0.4839228999335319,True,21
51K26,292,training,38,←,left,←,0.4336891999701038,True,21
51K26,293,experiment,19,←,left,←,0.4006544000003487,True,21
51K26,294,experiment,60,↓,up,↑,1.5966079999925569,False,21
51K26,295,experiment,28,↓,down,↓,0.5387987999711186,True,21
51K26,296,experiment,15,→,right,→,0.59561079996638,True,21
51K26,297,experiment,53,↑,right,→,0.6488239999162033,False,21
51K26,298,experiment,34,↑,up,↑,0.46729339996818453,True,21
51K26,299,experiment,46,↑,up,↑,0.417221000068821,True,21
51K26,300,experiment,43,↓,down,↓,0.45067279995419085,True,21
51K26,301,experiment,58,↓,down,↓,0.5588448999915272,True,21
51K26,302,experiment,48,↑,up,↑,0.46755079994909465,True,21
51K26,303,experiment,35,→,right,→,0.6939945999765769,True,21
51K26,304,experiment,44,→,right,→,0.36716039991006255,True,21
51K26,305,experiment,42,↓,up,↑,0.7219993000617251,False,21
51K26,306,experiment,25,↓,no_key,no_letter,-1.0,False,21
51K26,307,experiment,26,←,left,←,0.4834075999679044,True,21
51K26,308,experiment,37,↓,down,↓,0.7579425999429077,True,21
51K26,309,experiment,50,→,right,→,0.4339619999518618,True,21
51K26,310,experiment,38,→,right,→,0.4679527999833226,True,21
51K26,311,experiment,36,←,right,→,0.3505571000277996,False,21
51K26,312,experiment,55,→,right,→,1.4439523000037298,True,21
51K26,313,experiment,30,→,left,←,0.39998109999578446,False,21
51K26,314,experiment,57,←,right,→,0.40032760007306933,False,21
51K26,315,experiment,29,↑,right,→,0.5639741000486538,False,21
51K26,316,experiment,54,→,right,→,0.5533122000051662,True,21
51K26,317,experiment,41,→,right,→,0.6558786999667063,True,21
51K26,318,experiment,13,←,right,→,0.5735334999626502,False,21
51K26,319,experiment,23,↓,left,←,0.5993458000011742,False,21
51K26,320,experiment,45,↑,right,→,0.5373351000016555,False,21
51K26,321,experiment,21,↑,left,←,0.4672220000065863,False,21
51K26,322,experiment,32,↑,left,←,0.3839079999597743,False,21
51K26,323,experiment,27,↑,down,↓,0.4341489999787882,False,21
51K26,324,experiment,24,↑,up,↑,0.4342461000196636,True,21
51K26,325,experiment,52,←,left,←,0.5245385998860002,True,21
51K26,326,experiment,56,↓,up,↑,0.7621957999654114,False,21
51K26,327,experiment,47,←,left,←,0.5324598000152037,True,21
51K26,328,experiment,40,↑,up,↑,0.46676550002302974,True,21
51K26,329,experiment,18,↑,up,↑,1.149290900095366,True,21
51K26,330,experiment,31,↓,up,↑,0.301604799926281,False,21
51K26,331,experiment,17,←,up,↑,0.9533741000341251,False,21
51K26,332,experiment,49,↓,up,↑,0.21827059995848686,False,21
51K26,333,experiment,16,↓,right,→,0.2518543000333011,False,21
51K26,334,experiment,33,←,down,↓,1.3021361000137404,False,21
51K26,335,experiment,39,←,left,←,0.4840426000300795,True,21
51K26,336,experiment,22,↑,left,←,0.30137620004825294,False,21
51K26,337,experiment,51,←,up,↑,0.05155950004700571,False,21
51K26,338,experiment,59,←,left,←,0.2516418000450358,True,21
51K26,339,experiment,14,→,right,→,0.4013664999511093,True,21
51K26,340,experiment,20,↑,down,↓,0.31740840000566095,False,21
51K26,341,training,16,↑,up,↑,0.6505681000417098,True,21
51K26,342,training,29,↓,up,↑,0.20165049994830042,False,21
51K26,343,experiment,14,↑,down,↓,0.23493750009220093,False,21
51K26,344,experiment,48,←,right,→,0.15504589991178364,False,21
51K26,345,experiment,21,↑,left,←,0.43420010001864284,False,21
51K26,346,experiment,13,↑,up,↑,0.8093981998972595,True,21
51K26,347,experiment,44,←,right,→,0.135100599960424,False,21
51K26,348,experiment,36,↑,right,→,1.661882400047034,False,21
51K26,349,experiment,24,↓,right,→,0.2684993998846039,False,21
51K26,350,experiment,50,←,left,←,0.051904099993407726,True,21
51K26,351,experiment,38,↑,down,↓,0.316695399931632,False,21
51K26,352,experiment,59,→,up,↑,0.3341295000864193,False,21
51K26,353,experiment,31,↑,up,↑,1.245278999907896,True,21
51K26,354,experiment,27,←,left,←,0.6098238000413403,True,21
51K26,355,experiment,51,↑,up,↑,1.4640078000957146,True,21
51K26,356,experiment,25,↓,right,→,0.6925191000336781,False,21
51K26,357,experiment,34,←,right,→,0.4838614999316633,False,21
51K26,358,experiment,30,↓,left,←,0.546484199934639,False,21
51K26,359,experiment,33,←,no_key,no_letter,-1.0,False,21
51K26,360,experiment,35,↓,down,↓,0.4836753000272438,True,21
51K26,361,experiment,19,↑,no_key,no_letter,-1.0,False,21
51K26,362,experiment,60,←,no_key,no_letter,-1.0,False,21
51K26,363,experiment,45,←,down,↓,0.5425169999944046,False,21
51K26,364,experiment,42,↑,up,↑,0.7651771000819281,True,21
51K26,365,experiment,43,↓,down,↓,0.43330839998088777,True,21
51K26,366,experiment,47,↑,no_key,no_letter,-1.0,False,21
51K26,367,experiment,22,→,right,→,0.4508121000835672,True,21
51K26,368,experiment,28,↓,down,↓,0.46669949998613447,True,21
51K26,369,experiment,37,↓,up,↑,0.6238131000427529,False,21
51K26,370,experiment,40,→,right,→,0.4343262000475079,True,21
51K26,371,experiment,54,↓,down,↓,0.48403729998972267,True,21
51K26,372,experiment,26,→,right,→,0.41800529998727143,True,21
51K26,373,experiment,56,→,right,→,0.561788099934347,True,21
51K26,374,experiment,39,↑,left,←,0.3672983000287786,False,21
51K26,375,experiment,16,↑,up,↑,0.41763539996463805,True,21
51K26,376,experiment,58,↑,up,↑,0.4008544000098482,True,21
51K26,377,experiment,15,↓,down,↓,0.4838604999240488,True,21
51K26,378,experiment,23,→,right,→,0.4500679000047967,True,21
51K26,379,experiment,29,↓,down,↓,0.46747269993647933,True,21
51K26,380,experiment,17,↑,up,↑,0.4007160000037402,True,21
51K26,381,experiment,49,↑,up,↑,0.4174563999986276,True,21
51K26,382,experiment,55,↓,down,↓,0.5259970999322832,True,21
51K26,383,experiment,46,→,right,→,1.6656993000069633,True,21
51K26,384,experiment,53,↑,up,↑,0.4002454999135807,True,21
51K26,385,experiment,32,↑,no_key,no_letter,-1.0,False,21
51K26,386,experiment,52,↑,up,↑,0.46740439999848604,True,21
51K26,387,experiment,18,←,left,←,0.5231852000579238,True,21
51K26,388,experiment,20,↓,right,→,1.008399400045164,False,21
51K26,389,experiment,41,↑,up,↑,0.4173472000984475,True,21
51K26,390,experiment,57,←,up,↑,1.0297083999030292,False,21
51K26,391,training,51,→,no_key,no_letter,-1.0,False,21
51K26,392,training,54,←,right,→,0.35063420003280044,False,21
51K26,393,experiment,34,←,left,←,0.6556926000630483,True,21
51K26,394,experiment,25,→,right,→,0.46744610008317977,True,21
51K26,395,experiment,20,↑,left,←,0.3339224000228569,False,21
51K26,396,experiment,50,↓,no_key,no_letter,-1.0,False,21
51K26,397,experiment,44,↑,down,↓,0.5430223000003025,False,21
51K26,398,experiment,27,↓,down,↓,0.31717480008956045,True,21
51K26,399,experiment,36,↓,down,↓,0.6418037000112236,True,21
51K26,400,experiment,23,↓,down,↓,0.5692748000146821,True,21
51K26,401,experiment,55,→,right,→,0.43301070004235953,True,21
51K26,402,experiment,41,↓,no_key,no_letter,-1.0,False,21
51K26,403,experiment,48,←,left,←,0.4340733999852091,True,21
51K26,404,experiment,33,→,left,←,0.4840699000051245,False,21
51K26,405,experiment,16,↑,no_key,no_letter,-1.0,False,21
51K26,406,experiment,15,←,right,→,0.4006060999818146,False,21
51K26,407,experiment,46,↓,down,↓,0.815015000058338,True,21
51K26,408,experiment,31,↓,down,↓,0.5297191999852657,True,21
51K26,409,experiment,57,→,right,→,0.4674108000472188,True,21
51K26,410,experiment,47,↓,down,↓,0.7476956999162212,True,21
51K26,411,experiment,56,↑,down,↓,1.4085059999488294,False,21
51K26,412,experiment,24,→,right,→,0.46671610011253506,True,21
51K26,413,experiment,35,↑,no_key,no_letter,-1.0,False,21
51K26,414,experiment,29,←,no_key,no_letter,-1.0,False,21
51K26,415,experiment,52,↓,no_key,no_letter,-1.0,False,21
51K26,416,experiment,45,←,no_key,no_letter,-1.0,False,21
51K26,417,experiment,43,↓,down,↓,0.36668379988987,True,21
51K26,418,experiment,17,→,right,→,0.5436915999744087,True,21
51K26,419,experiment,38,←,right,→,0.38391460001002997,False,21
51K26,420,experiment,37,→,left,←,0.4011630000313744,False,21
51K26,421,experiment,60,↑,right,→,0.3509343999903649,False,21
51K26,422,experiment,13,→,no_key,no_letter,-1.0,False,21
51K26,423,experiment,53,↓,left,←,0.3840455999597907,False,21
51K26,424,experiment,28,←,down,↓,0.6336779999546707,False,21
51K26,425,experiment,59,↓,down,↓,0.561036100029014,True,21
51K26,426,experiment,19,↓,no_key,no_letter,-1.0,False,21
51K26,427,experiment,21,→,down,↓,0.45073330006562173,False,21
51K26,428,experiment,14,→,no_key,no_letter,-1.0,False,21
51K26,429,experiment,58,↓,no_key,no_letter,-1.0,False,21
51K26,430,experiment,54,→,no_key,no_letter,-1.0,False,21
51K26,431,experiment,18,→,no_key,no_letter,-1.0,False,21
51K26,432,experiment,49,↓,no_key,no_letter,-1.0,False,21
51K26,433,experiment,32,←,down,↓,0.3028301999438554,False,21
51K26,434,experiment,39,↑,left,←,1.2835980999516323,False,21
51K26,435,experiment,26,↑,left,←,0.4342337000416592,False,21
51K26,436,experiment,51,↑,down,↓,0.38399770006071776,False,21
51K26,437,experiment,40,↓,up,↑,0.367273100069724,False,21
51K26,438,experiment,22,↑,down,↓,0.4006422000238672,False,21
51K26,439,experiment,42,↓,no_key,no_letter,-1.0,False,21
51K26,440,experiment,30,←,left,←,0.6249517999822274,True,21
51K26,441,training,48,→,no_key,no_letter,-1.0,False,21
51K26,442,training,48,↓,no_key,no_letter,-1.0,False,21
51K26,443,experiment,60,↑,left,←,0.5798441999359056,False,21
51K26,444,experiment,43,→,right,→,0.4507328000618145,True,21
51K26,445,experiment,15,→,right,→,0.7303171999519691,True,21
51K26,446,experiment,39,→,right,→,0.48301359999459237,True,21
51K26,447,experiment,42,↑,right,→,0.4834635000443086,False,21
51K26,448,experiment,48,→,up,↑,0.36710100003983825,False,21
51K26,449,experiment,46,↓,right,→,0.4672220000065863,False,21
51K26,450,experiment,22,↓,down,↓,0.5275879999389872,True,21
51K26,451,experiment,37,↓,down,↓,0.2839281000196934,True,21
51K26,452,experiment,51,←,down,↓,0.4332891000667587,False,21
51K26,453,experiment,33,↑,no_key,no_letter,-1.0,False,21
51K26,454,experiment,53,↑,no_key,no_letter,-1.0,False,21
51K26,455,experiment,19,↓,down,↓,0.6164786000736058,True,21
51K26,456,experiment,21,↓,down,↓,0.6095548999728635,True,21
51K26,457,experiment,56,←,left,←,0.45008650003001094,True,21
51K26,458,experiment,59,↓,down,↓,0.48326709994580597,True,21
51K26,459,experiment,25,←,left,←,0.6457532000495121,True,21
51K26,460,experiment,16,←,left,←,0.41729609994217753,True,21
51K26,461,experiment,24,→,left,←,0.5681256999960169,False,21
51K26,462,experiment,17,↓,left,←,0.5502617000602186,False,21
51K26,463,experiment,41,↓,down,↓,0.4673523000674322,True,21
51K26,464,experiment,35,←,left,←,0.4676266999449581,True,21
51K26,465,experiment,23,→,right,→,0.4335966999642551,True,21
51K26,466,experiment,44,↑,left,←,0.6641217999858782,False,21
51K26,467,experiment,58,↓,no_key,no_letter,-1.0,False,21
51K26,468,experiment,29,↓,down,↓,0.4499561000848189,True,21
51K26,469,experiment,52,↓,down,↓,0.5498173999367282,True,21
51K26,470,experiment,54,↑,up,↑,0.6354513999540359,True,21
51K26,471,experiment,20,↑,down,↓,0.41720809997059405,False,21
51K26,472,experiment,40,↑,right,→,0.5214909999631345,False,21
51K26,473,experiment,32,→,right,→,0.434003800037317,True,21
51K26,474,experiment,45,↑,left,←,0.4004222999792546,False,21
51K26,475,experiment,31,↓,down,↓,0.4520730000222102,True,21
51K26,476,experiment,13,↑,down,↓,0.43395089998375624,False,21
51K26,477,experiment,50,↓,down,↓,0.40065379999578,True,21
51K26,478,experiment,38,→,right,→,0.5442406000802293,True,21
51K26,479,experiment,27,↑,up,↑,0.38399690005462617,True,21
51K26,480,experiment,49,↑,down,↓,0.3342468000482768,False,21
51K26,481,experiment,34,↑,up,↑,0.7153731000144035,True,21
51K26,482,experiment,36,←,up,↑,0.4170113999862224,False,21
51K26,483,experiment,30,→,no_key,no_letter,-1.0,False,21
51K26,484,experiment,14,→,no_key,no_letter,-1.0,False,21
51K26,485,experiment,28,↓,right,→,0.5642426999984309,False,21
51K26,486,experiment,57,→,right,→,0.4170852000825107,True,21
51K26,487,experiment,47,←,left,←,0.38408979994710535,True,21
51K26,488,experiment,18,→,left,←,0.6910625000018626,False,21
51K26,489,experiment,55,↓,down,↓,0.6907675999682397,True,21
51K26,490,experiment,26,←,down,↓,0.4861839999211952,False,21
51K26,491,training,53,↓,right,→,0.5376212999690324,False,21
51K26,492,training,17,←,right,→,0.6168516000034288,False,21
51K26,493,experiment,28,↑,left,←,0.3016084999544546,False,21
51K26,494,experiment,50,↑,up,↑,0.3837299000006169,True,21
51K26,495,experiment,40,↓,down,↓,0.5397800999926403,True,21
51K26,496,experiment,60,→,right,→,0.5981683999998495,True,21
51K26,497,experiment,49,↑,up,↑,0.46720660000573844,True,21
51K26,498,experiment,38,→,right,→,0.5367540000006557,True,21
51K26,499,experiment,33,←,right,→,0.5496067999629304,False,21
51K26,500,experiment,46,→,right,→,0.537001800024882,True,21
51K26,501,experiment,42,↑,no_key,no_letter,-1.0,False,21
51K26,502,experiment,16,↓,down,↓,0.43421780003700405,True,21
51K26,503,experiment,24,←,right,→,0.5461350000696257,False,21
51K26,504,experiment,51,↑,right,→,1.874196199933067,False,21
51K26,505,experiment,19,↓,down,↓,0.538827000069432,True,21
51K26,506,experiment,44,↑,right,→,0.5441701000090688,False,21
51K26,507,experiment,34,→,no_key,no_letter,-1.0,False,21
51K26,508,experiment,45,↓,down,↓,0.46706739999353886,True,21
51K26,509,experiment,17,←,down,↓,1.3820504000177607,False,21
51K26,510,experiment,52,↑,right,→,0.4006948999594897,False,21
51K26,511,experiment,21,↑,down,↓,1.2294560000300407,False,21
51K26,512,experiment,55,←,left,←,0.4673370999516919,True,21
51K26,513,experiment,58,↓,down,↓,0.7493861000984907,True,21
51K26,514,experiment,41,↑,down,↓,0.38399380003102124,False,21
51K26,515,experiment,36,↓,right,→,0.4836342999478802,False,21
51K26,516,experiment,53,↓,no_key,no_letter,-1.0,False,21
51K26,517,experiment,25,→,right,→,0.5314112999476492,True,21
51K26,518,experiment,56,↑,right,→,0.383906599949114,False,21
51K26,519,experiment,57,↑,right,→,0.46764309995342046,False,21
51K26,520,experiment,23,→,left,←,1.7447459999239072,False,21
51K26,521,experiment,43,↑,down,↓,0.41747499990742654,False,21
51K26,522,experiment,31,←,down,↓,0.5285875999834388,False,21
51K26,523,experiment,37,↑,left,←,0.01825179997831583,False,21
51K26,524,experiment,22,↑,right,→,0.3506669000489637,False,21
51K26,525,experiment,14,→,left,←,0.11794969998300076,False,21
51K26,526,experiment,39,←,left,←,0.5503818000433967,True,21
51K26,527,experiment,32,↑,right,→,1.5780227000359446,False,21
51K26,528,experiment,18,→,no_key,no_letter,-1.0,False,21
51K26,529,experiment,47,↓,down,↓,0.6313647999195382,True,21
51K26,530,experiment,59,→,right,→,0.5587520999833941,True,21
51K26,531,experiment,13,↓,down,↓,0.4842134000500664,True,21
51K26,532,experiment,48,↓,no_key,no_letter,-1.0,False,21
51K26,533,experiment,26,←,down,↓,0.46668010007124394,False,21
51K26,534,experiment,54,↑,down,↓,0.5866799999494106,False,21
51K26,535,experiment,35,↓,right,→,0.33368959999643266,False,21
51K26,536,experiment,20,→,down,↓,0.33384670002851635,False,21
51K26,537,experiment,29,↑,right,→,0.23405149998143315,False,21
51K26,538,experiment,27,↓,down,↓,0.43422940000891685,True,21
51K26,539,experiment,30,→,right,→,0.4335690999869257,True,21
51K26,540,experiment,15,↑,no_key,no_letter,-1.0,False,21
51K26,541,training,36,←,right,→,0.6840064000571147,False,21
51K26,542,training,16,↓,down,↓,0.4833022999810055,True,21
51K26,543,experiment,60,↓,no_key,no_letter,-1.0,False,21
51K26,544,experiment,37,→,no_key,no_letter,-1.0,False,21
51K26,545,experiment,32,→,no_key,no_letter,-1.0,False,21
51K26,546,experiment,47,↓,right,→,0.30002530000638217,False,21
51K26,547,experiment,36,→,right,→,0.6288449000567198,True,21
51K26,548,experiment,29,→,no_key,no_letter,-1.0,False,21
51K26,549,experiment,51,↑,right,→,0.5500366999767721,False,21
51K26,550,experiment,49,↓,no_key,no_letter,-1.0,False,21
51K26,551,experiment,15,←,down,↓,0.4499975999351591,False,21
51K26,552,experiment,17,→,right,→,0.483905200031586,True,21
51K26,553,experiment,45,→,no_key,no_letter,-1.0,False,21
51K26,554,experiment,41,↑,no_key,no_letter,-1.0,False,21
51K26,555,experiment,43,→,down,↓,0.2849302999675274,False,21
51K26,556,experiment,21,↓,no_key,no_letter,-1.0,False,21
51K26,557,experiment,39,←,left,←,0.4508004999952391,True,21
51K26,558,experiment,33,↑,right,→,0.5239487999351695,False,21
51K26,559,experiment,48,←,left,←,0.4505212999647483,True,21
51K26,560,experiment,28,↑,no_key,no_letter,-1.0,False,21
51K26,561,experiment,22,←,no_key,no_letter,-1.0,False,21
51K26,562,experiment,50,↓,down,↓,0.48400190006941557,True,21
51K26,563,experiment,24,←,right,→,0.5238992000231519,False,21
51K26,564,experiment,54,←,right,→,0.5947037999285385,False,21
51K26,565,experiment,20,↓,down,↓,0.46727069991175085,True,21
51K26,566,experiment,13,↑,down,↓,0.46762889996171,False,21
51K26,567,experiment,58,←,left,←,0.417355400044471,True,21
51K26,568,experiment,26,←,no_key,no_letter,-1.0,False,21
51K26,569,experiment,16,↑,right,→,0.46747030003461987,False,21
51K26,570,experiment,35,→,no_key,no_letter,-1.0,False,21
51K26,571,experiment,42,→,right,→,0.3840168999740854,True,21
51K26,572,experiment,53,↓,down,↓,0.4670896999305114,True,21
51K26,573,experiment,25,↑,up,↑,0.43423790007364005,True,21
51K26,574,experiment,31,↓,down,↓,0.3840443000663072,True,21
51K26,575,experiment,57,←,left,←,0.4338774000061676,True,21
51K26,576,experiment,18,→,right,→,0.6004618000006303,True,21
51K26,577,experiment,52,→,right,→,0.9022066999459639,True,21
51K26,578,experiment,27,←,right,→,0.4839977000374347,False,21
51K26,579,experiment,40,↑,right,→,0.4509360999800265,False,21
51K26,580,experiment,23,↑,up,↑,0.38403019995894283,True,21
51K26,581,experiment,46,←,down,↓,0.3181998999789357,False,21
51K26,582,experiment,34,→,right,→,0.3339289000723511,True,21
51K26,583,experiment,59,↑,right,→,0.6465669999597594,False,21
51K26,584,experiment,44,↑,up,↑,0.38396400003694,True,21
51K26,585,experiment,14,↑,up,↑,0.4338699000654742,True,21
51K26,586,experiment,55,←,left,←,0.43390880001243204,True,21
51K26,587,experiment,19,→,up,↑,0.5531888999976218,False,21
51K26,588,experiment,30,←,up,↑,0.5677368999458849,False,21
51K26,589,experiment,38,↓,down,↓,0.6471887000370771,True,21
51K26,590,experiment,56,↓,no_key,no_letter,-1.0,False,21
