PART_ID,Trial_no,Trial_type,CSI,Stim_letter,Key_pressed,letter_choose,Rt,Corr,Stimulus Time
59K22,1,training,60,←,left,←,0.7360544999828562,True,30
59K22,2,training,60,↑,up,↑,0.7552969999378547,True,30
59K22,3,training,60,←,left,←,0.48342259996570647,True,30
59K22,4,training,60,←,no_key,no_letter,-1.0,False,30
59K22,5,training,60,←,left,←,0.6342961000045761,True,30
59K22,6,training,60,↓,down,↓,0.7251793999457732,True,30
59K22,7,training,60,←,left,←,0.6734865000471473,True,30
59K22,8,training,60,↑,up,↑,0.7189383000368252,True,30
59K22,9,training,60,↓,no_key,no_letter,-1.0,False,30
59K22,10,training,60,→,left,←,0.566729599959217,False,30
59K22,11,training,60,←,left,←,0.5673143999883905,True,30
59K22,12,training,60,→,no_key,no_letter,-1.0,False,30
59K22,13,training,60,↓,down,↓,0.7005732000106946,True,30
59K22,14,training,60,↑,up,↑,0.7135712000308558,True,30
59K22,15,training,60,↑,no_key,no_letter,-1.0,False,30
59K22,16,training,60,↓,down,↓,0.7286290000192821,True,30
59K22,17,training,60,←,left,←,0.549648999935016,True,30
59K22,18,training,60,↓,no_key,no_letter,-1.0,False,30
59K22,19,training,60,↓,down,↓,0.5663948999717832,True,30
59K22,20,training,60,←,left,←,0.74712209997233,True,30
59K22,21,training,60,→,right,→,0.520040399977006,True,18
59K22,22,training,60,←,left,←,0.5721580000827089,True,18
59K22,23,training,60,←,left,←,0.43395149998832494,True,18
59K22,24,training,60,↓,down,↓,0.581422199960798,True,18
59K22,25,training,60,→,right,→,0.654959800071083,True,18
59K22,26,training,60,↓,left,←,0.47771010000724345,False,18
59K22,27,training,60,→,right,→,0.7233568000374362,True,18
59K22,28,training,60,↓,down,↓,0.4955236000241712,True,18
59K22,29,training,60,↓,down,↓,0.6441930999280885,True,18
59K22,30,training,60,↑,up,↑,0.7554623000323772,True,18
59K22,31,training,60,←,left,←,0.5503317000111565,True,18
59K22,32,training,60,←,left,←,0.5132994999876246,True,18
59K22,33,training,60,←,left,←,0.5012609999394044,True,18
59K22,34,training,60,←,right,→,0.6020367000019178,False,18
59K22,35,training,60,↓,down,↓,0.6911772999446839,True,18
59K22,36,training,60,→,right,→,0.5445482999784872,True,18
59K22,37,training,60,↓,down,↓,0.5954704000614583,True,18
59K22,38,training,60,↑,up,↑,0.6526268000015989,True,18
59K22,39,training,60,→,right,→,0.5314819000195712,True,18
59K22,40,training,60,↑,up,↑,0.8231006000423804,True,18
59K22,41,training,24,↓,up,↑,0.8512167000444606,False,18
59K22,42,training,19,↑,up,↑,0.7492732000537217,True,18
59K22,43,experiment,45,↓,down,↓,0.6665233999956399,True,18
59K22,44,experiment,18,↓,up,↑,0.5406725999200717,False,18
59K22,45,experiment,15,←,right,→,0.6217601000098512,False,18
59K22,46,experiment,42,←,left,←,0.5619630999863148,True,18
59K22,47,experiment,50,↓,down,↓,0.5396841000765562,True,18
59K22,48,experiment,24,↓,down,↓,0.6072649999987334,True,18
59K22,49,experiment,19,→,up,↑,0.4675552999833599,False,18
59K22,50,experiment,59,↓,down,↓,0.5694200000725687,True,18
59K22,51,experiment,38,↓,down,↓,0.5465798999648541,True,18
59K22,52,experiment,25,↓,down,↓,0.5177599999587983,True,18
59K22,53,experiment,39,↓,down,↓,0.479224200011231,True,18
59K22,54,experiment,53,↓,down,↓,1.921880100038834,True,18
59K22,55,experiment,23,→,up,↑,0.48703049996402115,False,18
59K22,56,experiment,14,↑,up,↑,0.9790806999662891,True,18
59K22,57,experiment,52,↓,down,↓,0.5387726000044495,True,18
59K22,58,experiment,26,←,right,→,0.5491761999437585,False,18
59K22,59,experiment,27,←,left,←,0.8136613999959081,True,18
59K22,60,experiment,44,↑,up,↑,0.7450495000230148,True,18
59K22,61,experiment,41,↑,up,↑,0.633647600072436,True,18
59K22,62,experiment,35,←,left,←,0.8652635000180453,True,18
59K22,63,experiment,54,←,left,←,0.6276949000312015,True,18
59K22,64,experiment,51,→,right,→,0.5219876000192016,True,18
59K22,65,experiment,33,←,left,←,0.5122270999709144,True,18
59K22,66,experiment,36,↑,up,↑,0.8690416000317782,True,18
59K22,67,experiment,29,↓,down,↓,0.6163030000170693,True,18
59K22,68,experiment,30,→,right,→,0.7081872000126168,True,18
59K22,69,experiment,17,↓,down,↓,0.5496410999912769,True,18
59K22,70,experiment,20,↓,down,↓,0.49901829997543246,True,18
59K22,71,experiment,31,←,left,←,1.53902000002563,True,18
59K22,72,experiment,21,↓,down,↓,0.5451956000179052,True,18
59K22,73,experiment,34,←,down,↓,0.4780159000074491,False,18
59K22,74,experiment,58,←,left,←,0.6290661999955773,True,18
59K22,75,experiment,57,←,left,←,0.5673102999571711,True,18
59K22,76,experiment,28,↑,up,↑,0.7666088999249041,True,18
59K22,77,experiment,13,↓,down,↓,1.6402534999651834,True,18
59K22,78,experiment,56,←,left,←,0.5069419998908415,True,18
59K22,79,experiment,46,↓,down,↓,0.5454337999690324,True,18
59K22,80,experiment,32,←,right,→,0.5518997999606654,False,18
59K22,81,experiment,40,←,up,↑,1.023621500004083,False,18
59K22,82,experiment,47,↑,up,↑,0.6570811000419781,True,18
59K22,83,experiment,55,→,right,→,0.5073259000200778,True,18
59K22,84,experiment,60,↑,up,↑,0.5684986000414938,True,18
59K22,85,experiment,37,←,left,←,0.433800800004974,True,18
59K22,86,experiment,48,↑,up,↑,0.6164921999443322,True,18
59K22,87,experiment,49,→,right,→,0.4962214999832213,True,18
59K22,88,experiment,43,↑,up,↑,1.6724874000065029,True,18
59K22,89,experiment,16,↑,up,↑,0.6845578000647947,True,18
59K22,90,experiment,22,→,right,→,0.6833696999819949,True,18
59K22,91,training,51,→,right,→,0.5759116999106482,True,18
59K22,92,training,43,↑,up,↑,0.6056440999964252,True,18
59K22,93,experiment,31,←,right,→,0.47355110000353307,False,18
59K22,94,experiment,28,↑,up,↑,0.49282589997164905,True,18
59K22,95,experiment,42,→,left,←,0.3837877999758348,False,18
59K22,96,experiment,46,↑,up,↑,0.5520361999515444,True,18
59K22,97,experiment,27,↓,down,↓,0.7048105000285432,True,18
59K22,98,experiment,17,←,left,←,1.730487700086087,True,18
59K22,99,experiment,57,↓,down,↓,1.0247976999962702,True,18
59K22,100,experiment,55,←,left,←,0.6683784999186173,True,18
59K22,101,experiment,50,←,left,←,0.6814251999603584,True,18
59K22,102,experiment,18,↓,down,↓,0.7070769000565633,True,18
59K22,103,experiment,43,→,down,↓,0.5395086000207812,False,18
59K22,104,experiment,48,↑,up,↑,0.6070172999752685,True,18
59K22,105,experiment,44,↓,down,↓,0.7067236000439152,True,18
59K22,106,experiment,51,→,right,→,0.41664909990504384,True,18
59K22,107,experiment,60,↓,down,↓,0.565256500034593,True,18
59K22,108,experiment,19,→,right,→,0.7547342000762001,True,18
59K22,109,experiment,25,↓,down,↓,0.8447681999532506,True,18
59K22,110,experiment,34,←,left,←,0.6858177999965847,True,18
59K22,111,experiment,24,↑,left,←,0.8511953999986872,False,18
59K22,112,experiment,47,←,left,←,0.7150775999762118,True,18
59K22,113,experiment,29,→,right,→,0.6921627999981865,True,18
59K22,114,experiment,36,←,left,←,0.6413989999564365,True,18
59K22,115,experiment,30,→,right,→,0.5169787000631914,True,18
59K22,116,experiment,53,↓,down,↓,0.7338086999952793,True,18
59K22,117,experiment,38,↓,down,↓,0.5520902000134811,True,18
59K22,118,experiment,45,→,right,→,0.6692648000316694,True,18
59K22,119,experiment,16,↑,down,↓,1.0726402000291273,False,18
59K22,120,experiment,49,→,right,→,0.6703962000319734,True,18
59K22,121,experiment,37,→,right,→,0.5321280000498518,True,18
59K22,122,experiment,20,↑,up,↑,0.8022783000487834,True,18
59K22,123,experiment,56,←,left,←,0.7339836999308318,True,18
59K22,124,experiment,32,←,left,←,0.7161968000000343,True,18
59K22,125,experiment,39,↑,up,↑,0.6302598000038415,True,18
59K22,126,experiment,54,←,left,←,0.5140282000647858,True,18
59K22,127,experiment,41,←,left,←,0.8988307999679819,True,18
59K22,128,experiment,23,→,right,→,0.4804321000119671,True,18
59K22,129,experiment,26,←,left,←,0.46878160000778735,True,18
59K22,130,experiment,15,→,right,→,1.1201150000561029,True,18
59K22,131,experiment,13,→,right,→,0.49141570006031543,True,18
59K22,132,experiment,40,←,left,←,0.5345691998954862,True,18
59K22,133,experiment,35,→,right,→,0.5147100000176579,True,18
59K22,134,experiment,52,→,right,→,0.4685514000011608,True,18
59K22,135,experiment,59,↓,down,↓,0.6266734999371693,True,18
59K22,136,experiment,33,→,right,→,0.7809193000430241,True,18
59K22,137,experiment,58,↓,down,↓,0.6798457999248058,True,18
59K22,138,experiment,14,↑,up,↑,0.5638385999482125,True,18
59K22,139,experiment,22,↑,up,↑,0.7114952999399975,True,18
59K22,140,experiment,21,↑,right,→,1.5182734999107197,False,18
59K22,141,training,37,→,left,←,0.5274854999734089,False,18
59K22,142,training,55,↑,up,↑,0.8230605000862852,True,18
59K22,143,experiment,23,↓,down,↓,0.5761485999682918,True,18
59K22,144,experiment,19,↓,down,↓,0.5415387999964878,True,18
59K22,145,experiment,53,↓,down,↓,1.2858609999530017,True,18
59K22,146,experiment,57,↓,down,↓,0.5817333000013605,True,18
59K22,147,experiment,60,→,right,→,0.5515811999794096,True,18
59K22,148,experiment,30,→,right,→,0.6144565999275073,True,18
59K22,149,experiment,49,→,right,→,0.5900469999760389,True,18
59K22,150,experiment,27,↑,up,↑,0.6375850000185892,True,18
59K22,151,experiment,32,↑,up,↑,0.4715726999565959,True,18
59K22,152,experiment,39,←,left,←,0.5232021999545395,True,18
59K22,153,experiment,14,↓,up,↑,0.557713899994269,False,18
59K22,154,experiment,31,↑,up,↑,1.0278886000160128,True,18
59K22,155,experiment,55,↓,up,↑,0.4718212001025677,False,18
59K22,156,experiment,17,←,left,←,0.5698111999081448,True,18
59K22,157,experiment,54,↑,down,↓,0.4333234999794513,False,18
59K22,158,experiment,44,→,right,→,0.6499801999889314,True,18
59K22,159,experiment,37,→,right,→,0.5919371999334544,True,18
59K22,160,experiment,16,↓,down,↓,0.6948821999831125,True,18
59K22,161,experiment,58,↑,up,↑,0.6617249998962507,True,18
59K22,162,experiment,34,↑,up,↑,0.9180132000474259,True,18
59K22,163,experiment,22,↑,up,↑,0.5160222999984398,True,18
59K22,164,experiment,13,←,left,←,0.6627032000105828,True,18
59K22,165,experiment,15,→,right,→,0.6351618999615312,True,18
59K22,166,experiment,36,↑,up,↑,0.7387265999568626,True,18
59K22,167,experiment,38,→,right,→,0.7089693000307307,True,18
59K22,168,experiment,51,←,left,←,0.6237660000333562,True,18
59K22,169,experiment,41,↓,down,↓,0.5487099000019953,True,18
59K22,170,experiment,43,→,right,→,0.579499400104396,True,18
59K22,171,experiment,42,↓,up,↑,0.5614225999452174,False,18
59K22,172,experiment,20,↓,down,↓,0.5664917000103742,True,18
59K22,173,experiment,25,←,right,→,0.5600177000742406,False,18
59K22,174,experiment,40,←,left,←,0.48018499999307096,True,18
59K22,175,experiment,50,→,left,←,0.4845459000207484,False,18
59K22,176,experiment,33,→,right,→,0.5319807999767363,True,18
59K22,177,experiment,35,→,right,→,0.5280473000602797,True,18
59K22,178,experiment,52,←,left,←,0.6579395999433473,True,18
59K22,179,experiment,59,↑,up,↑,0.6255501999985427,True,18
59K22,180,experiment,29,↓,down,↓,0.6463177000405267,True,18
59K22,181,experiment,28,←,left,←,0.6424811000470072,True,18
59K22,182,experiment,26,←,left,←,0.48072890006005764,True,18
59K22,183,experiment,24,←,left,←,0.5024814999196678,True,18
59K22,184,experiment,46,→,right,→,0.5962642999365926,True,18
59K22,185,experiment,45,↓,down,↓,0.7672117999754846,True,18
59K22,186,experiment,48,↑,up,↑,0.6017681000521407,True,18
59K22,187,experiment,56,↑,up,↑,1.5414660000242293,True,18
59K22,188,experiment,47,→,right,→,1.5300860001007095,True,18
59K22,189,experiment,18,→,right,→,0.6019544000737369,True,18
59K22,190,experiment,21,←,right,→,0.4850675000343472,False,18
59K22,191,training,50,↑,up,↑,0.5967967000324279,True,18
59K22,192,training,20,↑,up,↑,0.4892159999581054,True,18
59K22,193,experiment,33,↑,up,↑,0.536627099965699,True,18
59K22,194,experiment,50,↓,left,←,1.5386326999869198,False,18
59K22,195,experiment,28,←,left,←,0.5719336000038311,True,18
59K22,196,experiment,32,→,right,→,0.6087118999566883,True,18
59K22,197,experiment,27,←,right,→,0.5354960999684408,False,18
59K22,198,experiment,58,→,left,←,0.4927171999588609,False,18
59K22,199,experiment,35,←,right,→,0.8589234999381006,False,18
59K22,200,experiment,54,↑,up,↑,0.6303693000227213,True,18
59K22,201,experiment,49,→,right,→,0.5811855000210926,True,18
59K22,202,experiment,36,→,left,←,0.5343911000527442,False,18
59K22,203,experiment,14,↓,down,↓,0.6326416999800131,True,18
59K22,204,experiment,13,→,right,→,0.9993395999772474,True,18
59K22,205,experiment,29,→,right,→,0.5490778000093997,True,18
59K22,206,experiment,37,↑,up,↑,0.599246000056155,True,18
59K22,207,experiment,26,←,right,→,0.5585494000697508,False,18
59K22,208,experiment,55,←,left,←,0.9007383000571281,True,18
59K22,209,experiment,17,↓,down,↓,0.7985301000298932,True,18
59K22,210,experiment,41,↓,down,↓,0.4003792000003159,True,18
59K22,211,experiment,30,↓,down,↓,0.6562591000692919,True,18
59K22,212,experiment,18,→,right,→,0.7150822000112385,True,18
59K22,213,experiment,15,←,left,←,0.6288541000103578,True,18
59K22,214,experiment,53,←,left,←,0.8338325000368059,True,18
59K22,215,experiment,34,↓,down,↓,0.6508106000255793,True,18
59K22,216,experiment,59,←,left,←,0.7386983999749646,True,18
59K22,217,experiment,42,↑,up,↑,0.6022847999120131,True,18
59K22,218,experiment,23,→,right,→,0.7240841999882832,True,18
59K22,219,experiment,52,↑,up,↑,0.4855484999716282,True,18
59K22,220,experiment,24,↓,up,↑,0.5708584000822157,False,18
59K22,221,experiment,56,←,left,←,0.6318382000317797,True,18
59K22,222,experiment,48,←,left,←,0.5834670999320224,True,18
59K22,223,experiment,60,↓,down,↓,0.5376223999774083,True,18
59K22,224,experiment,16,→,right,→,0.6503706000512466,True,18
59K22,225,experiment,45,↓,down,↓,0.5389040999580175,True,18
59K22,226,experiment,40,←,left,←,0.5159444999881089,True,18
59K22,227,experiment,19,←,left,←,0.4170563999796286,True,18
59K22,228,experiment,57,←,left,←,0.6128487000241876,True,18
59K22,229,experiment,31,→,right,→,0.4803015000652522,True,18
59K22,230,experiment,51,←,left,←,0.5161896999925375,True,18
59K22,231,experiment,21,↑,up,↑,0.5699689000612125,True,18
59K22,232,experiment,44,↓,up,↑,0.5107880000723526,False,18
59K22,233,experiment,22,←,left,←,0.6050995000405237,True,18
59K22,234,experiment,43,↓,down,↓,1.673055800027214,True,18
59K22,235,experiment,39,←,left,←,1.19790849997662,True,18
59K22,236,experiment,46,←,left,←,0.5765980000142008,True,18
59K22,237,experiment,47,↓,down,↓,1.0836481000296772,True,18
59K22,238,experiment,38,←,left,←,0.6322201000293717,True,18
59K22,239,experiment,20,←,left,←,1.3779600999550894,True,18
59K22,240,experiment,25,←,left,←,0.5797226999420673,True,18
59K22,241,training,51,→,left,←,0.47955970000475645,False,18
59K22,242,training,55,→,left,←,0.7203044999623671,False,18
59K22,243,experiment,26,→,right,→,1.1711888000136241,True,18
59K22,244,experiment,56,↑,down,↓,0.6488160999724641,False,18
59K22,245,experiment,42,↑,up,↑,0.6033669000025839,True,18
59K22,246,experiment,20,→,right,→,0.5269357999786735,True,18
59K22,247,experiment,55,←,left,←,0.7424492000136524,True,18
59K22,248,experiment,18,↑,up,↑,0.5823730999836698,True,18
59K22,249,experiment,52,↑,up,↑,0.6372036000248045,True,18
59K22,250,experiment,23,↓,left,←,0.5174578999867663,False,18
59K22,251,experiment,19,→,right,→,0.4170047000516206,True,18
59K22,252,experiment,40,↑,up,↑,0.529483100050129,True,18
59K22,253,experiment,45,→,right,→,0.5838185000466183,True,18
59K22,254,experiment,35,←,left,←,0.40048900002148,True,18
59K22,255,experiment,49,↑,up,↑,0.6255586999468505,True,18
59K22,256,experiment,25,→,right,→,0.7449338000733405,True,18
59K22,257,experiment,28,←,left,←,0.553841199958697,True,18
59K22,258,experiment,41,→,right,→,0.4001118999440223,True,18
59K22,259,experiment,32,↑,up,↑,0.4683526000007987,True,18
59K22,260,experiment,16,←,down,↓,0.5509011000394821,False,18
59K22,261,experiment,27,↓,left,←,0.5115502999396995,False,18
59K22,262,experiment,17,←,left,←,0.4728866000659764,True,18
59K22,263,experiment,60,↓,down,↓,0.5503180000232533,True,18
59K22,264,experiment,46,→,right,→,0.690613399958238,True,18
59K22,265,experiment,22,↑,up,↑,0.6656395000172779,True,18
59K22,266,experiment,54,←,left,←,0.5401116000721231,True,18
59K22,267,experiment,48,↓,down,↓,0.5673935000086203,True,18
59K22,268,experiment,15,←,left,←,0.6717201001010835,True,18
59K22,269,experiment,51,→,right,→,0.6924031999660656,True,18
59K22,270,experiment,36,←,up,↑,0.5696598999202251,False,18
59K22,271,experiment,53,←,left,←,0.5523645000066608,True,18
59K22,272,experiment,29,←,left,←,0.5198628000216559,True,18
59K22,273,experiment,30,→,left,←,0.9119437999324873,False,18
59K22,274,experiment,50,↓,down,↓,0.875675700022839,True,18
59K22,275,experiment,33,↑,up,↑,0.7240484000649303,True,18
59K22,276,experiment,24,↓,down,↓,0.6325004999525845,True,18
59K22,277,experiment,14,←,left,←,0.6385579000925645,True,18
59K22,278,experiment,57,↓,down,↓,0.6243465000297874,True,18
59K22,279,experiment,58,↑,up,↑,0.6180586999980733,True,18
59K22,280,experiment,44,↑,up,↑,0.5890045999549329,True,18
59K22,281,experiment,39,↑,down,↓,0.5084718998987228,False,18
59K22,282,experiment,37,←,left,←,0.4726520999101922,True,18
59K22,283,experiment,31,→,right,→,0.6015929999994114,True,18
59K22,284,experiment,47,→,left,←,0.5071208999725059,False,18
59K22,285,experiment,38,↑,up,↑,0.646246499964036,True,18
59K22,286,experiment,21,←,right,→,0.8872605999931693,False,18
59K22,287,experiment,13,←,left,←,0.6922601000405848,True,18
59K22,288,experiment,59,↑,up,↑,0.546645800000988,True,18
59K22,289,experiment,34,←,left,←,0.750542699941434,True,18
59K22,290,experiment,43,→,left,←,0.5248780000256374,False,18
59K22,291,training,40,←,left,←,0.4907670000102371,True,18
59K22,292,training,42,↓,right,→,0.41718799993395805,False,18
59K22,293,experiment,58,←,up,↑,0.46950260002631694,False,18
59K22,294,experiment,44,↑,up,↑,0.7172571000410244,True,18
59K22,295,experiment,53,↓,down,↓,0.6303667000029236,True,18
59K22,296,experiment,31,↓,down,↓,0.5295893000438809,True,18
59K22,297,experiment,14,↑,up,↑,0.7075552999740466,True,18
59K22,298,experiment,40,↑,up,↑,0.7259236000245437,True,18
59K22,299,experiment,25,↓,down,↓,0.6017840999411419,True,18
59K22,300,experiment,41,→,down,↓,0.5750386000145227,False,18
59K22,301,experiment,24,→,right,→,0.43407550000119954,True,18
59K22,302,experiment,18,→,right,→,0.8677319000707939,True,18
59K22,303,experiment,56,←,left,←,0.5171878999099135,True,18
59K22,304,experiment,27,↓,down,↓,0.6310276000294834,True,18
59K22,305,experiment,48,←,left,←,0.4946741999592632,True,18
59K22,306,experiment,45,↓,down,↓,0.5103849000297487,True,18
59K22,307,experiment,23,↑,up,↑,0.6676654999610037,True,18
59K22,308,experiment,13,↓,left,←,0.5612596999853849,False,18
59K22,309,experiment,59,↓,down,↓,0.5327312999870628,True,18
59K22,310,experiment,35,↑,up,↑,0.5049820999847725,True,18
59K22,311,experiment,36,←,up,↑,0.4861906999722123,False,18
59K22,312,experiment,30,→,right,→,1.3992260000668466,True,18
59K22,313,experiment,54,←,left,←,0.6125101000070572,True,18
59K22,314,experiment,60,↑,up,↑,0.6297524000983685,True,18
59K22,315,experiment,57,→,left,←,0.5915545000461861,False,18
59K22,316,experiment,49,↓,up,↑,0.5683912000386044,False,18
59K22,317,experiment,15,←,left,←,0.40062650002073497,True,18
59K22,318,experiment,47,←,left,←,0.8013918000506237,True,18
59K22,319,experiment,26,↓,down,↓,0.7453454000642523,True,18
59K22,320,experiment,29,↑,up,↑,0.6251593999331817,True,18
59K22,321,experiment,20,↑,up,↑,1.2996971999527887,True,18
59K22,322,experiment,19,→,right,→,0.6604221999878064,True,18
59K22,323,experiment,46,←,left,←,0.6606140999356285,True,18
59K22,324,experiment,52,←,left,←,0.5213929999154061,True,18
59K22,325,experiment,39,→,right,→,0.4992177999811247,True,18
59K22,326,experiment,28,↓,down,↓,1.09311360004358,True,18
59K22,327,experiment,50,←,left,←,0.6900356999831274,True,18
59K22,328,experiment,51,→,right,→,0.821597500005737,True,18
59K22,329,experiment,42,↑,up,↑,0.7616767000872642,True,18
59K22,330,experiment,34,↑,up,↑,0.6779835999477655,True,18
59K22,331,experiment,22,↓,down,↓,0.6377185999881476,True,18
59K22,332,experiment,55,←,left,←,0.7047770000062883,True,18
59K22,333,experiment,38,→,right,→,0.5083404000615701,True,18
59K22,334,experiment,37,←,left,←,0.5363778000464663,True,18
59K22,335,experiment,43,↑,up,↑,0.6870955000631511,True,18
59K22,336,experiment,17,↑,up,↑,0.6735670999623835,True,18
59K22,337,experiment,33,←,left,←,0.5537568000145257,True,18
59K22,338,experiment,32,↓,right,→,0.36789160000626,False,18
59K22,339,experiment,21,→,right,→,0.6258555999957025,True,18
59K22,340,experiment,16,→,down,↓,0.5032556999940425,False,18
59K22,341,training,57,←,left,←,0.49946550000458956,True,18
59K22,342,training,56,↑,up,↑,0.4828150999965146,True,18
59K22,343,experiment,56,↓,down,↓,0.4165886000264436,True,18
59K22,344,experiment,45,↓,down,↓,1.060707899974659,True,18
59K22,345,experiment,32,←,left,←,0.7025891999946907,True,18
59K22,346,experiment,51,↓,up,↑,0.5695602999767289,False,18
59K22,347,experiment,20,→,right,→,0.5505007000174373,True,18
59K22,348,experiment,33,↓,down,↓,0.5231075000483543,True,18
59K22,349,experiment,17,→,right,→,0.5957291000522673,True,18
59K22,350,experiment,31,↑,up,↑,0.7285476999823004,True,18
59K22,351,experiment,38,↓,down,↓,0.5635670999763533,True,18
59K22,352,experiment,57,↓,down,↓,0.6159232000354677,True,18
59K22,353,experiment,55,↑,up,↑,0.5794917000457644,True,18
59K22,354,experiment,59,→,down,↓,0.5181828000349924,False,18
59K22,355,experiment,54,←,left,←,0.6224202000303194,True,18
59K22,356,experiment,58,↑,up,↑,0.6719839000143111,True,18
59K22,357,experiment,44,→,right,→,1.2332475999137387,True,18
59K22,358,experiment,14,↓,down,↓,0.6793058000039309,True,18
59K22,359,experiment,18,↑,up,↑,0.5290078000398353,True,18
59K22,360,experiment,29,→,right,→,0.5614898001076654,True,18
59K22,361,experiment,30,←,left,←,0.7523350999690592,True,18
59K22,362,experiment,53,↑,up,↑,0.5922894000541419,True,18
59K22,363,experiment,49,↑,up,↑,0.5771512999199331,True,18
59K22,364,experiment,13,↑,up,↑,0.6267041000537574,True,18
59K22,365,experiment,46,↓,down,↓,0.5562355999136344,True,18
59K22,366,experiment,40,↓,down,↓,0.4168560999678448,True,18
59K22,367,experiment,15,←,left,←,0.665493099950254,True,18
59K22,368,experiment,23,→,right,→,0.5608935999916866,True,18
59K22,369,experiment,22,←,left,←,1.340307299979031,True,18
59K22,370,experiment,26,←,left,←,1.5511194000719115,True,18
59K22,371,experiment,50,→,left,←,0.9452251999173313,False,18
59K22,372,experiment,39,→,right,→,0.5630058000097051,True,18
59K22,373,experiment,24,↓,down,↓,0.5969827999360859,True,18
59K22,374,experiment,35,↑,up,↑,0.6223165999399498,True,18
59K22,375,experiment,47,↓,down,↓,0.4955933999735862,True,18
59K22,376,experiment,60,↑,up,↑,0.5415059999795631,True,18
59K22,377,experiment,37,→,right,→,0.6640697000548244,True,18
59K22,378,experiment,16,←,left,←,0.5313508999533951,True,18
59K22,379,experiment,36,→,right,→,0.6710725999437273,True,18
59K22,380,experiment,42,←,right,→,0.8573513000737876,False,18
59K22,381,experiment,21,←,left,←,0.48325849999673665,True,18
59K22,382,experiment,52,←,left,←,0.5809529999969527,True,18
59K22,383,experiment,27,↓,left,←,0.41696780000347644,False,18
59K22,384,experiment,28,←,left,←,0.6091333000222221,True,18
59K22,385,experiment,41,↓,down,↓,0.5669263999443501,True,18
59K22,386,experiment,25,↓,down,↓,0.5042471000924706,True,18
59K22,387,experiment,34,↓,down,↓,0.6545202999841422,True,18
59K22,388,experiment,43,→,right,→,0.5927494999486953,True,18
59K22,389,experiment,19,↓,down,↓,0.5411630999296904,True,18
59K22,390,experiment,48,←,left,←,0.5928477999987081,True,18
59K22,391,training,42,↑,up,↑,0.4987659000325948,True,18
59K22,392,training,48,→,left,←,0.43334250000771135,False,18
59K22,393,experiment,27,↑,down,↓,0.5803212999599054,False,18
59K22,394,experiment,28,↓,down,↓,0.4750741000752896,True,18
59K22,395,experiment,24,↓,up,↑,0.5444503000471741,False,18
59K22,396,experiment,40,↑,up,↑,0.5296847999561578,True,18
59K22,397,experiment,38,→,right,→,0.5798530000029132,True,18
59K22,398,experiment,20,↓,up,↑,0.5276239999802783,False,18
59K22,399,experiment,43,↓,down,↓,0.6552270000101998,True,18
59K22,400,experiment,30,↑,up,↑,0.47401170001830906,True,18
59K22,401,experiment,29,↑,down,↓,0.4165441000368446,False,18
59K22,402,experiment,25,↑,up,↑,0.5070892999647185,True,18
59K22,403,experiment,58,↓,down,↓,0.6092167000751942,True,18
59K22,404,experiment,15,↓,down,↓,0.839886499918066,True,18
59K22,405,experiment,54,↓,down,↓,0.5398895000107586,True,18
59K22,406,experiment,57,↓,down,↓,0.9705869000172243,True,18
59K22,407,experiment,44,↑,up,↑,0.6947294001001865,True,18
59K22,408,experiment,55,↑,up,↑,0.5115449000149965,True,18
59K22,409,experiment,32,↑,down,↓,0.5272082999581471,False,18
59K22,410,experiment,49,↓,down,↓,0.6506020999513566,True,18
59K22,411,experiment,37,←,left,←,0.6489109999965876,True,18
59K22,412,experiment,60,←,right,→,0.6081837000092492,False,18
59K22,413,experiment,19,←,left,←,0.620165599975735,True,18
59K22,414,experiment,59,←,left,←,0.40061169990804046,True,18
59K22,415,experiment,35,←,left,←,0.6702211999800056,True,18
59K22,416,experiment,13,→,left,←,0.5153837000252679,False,18
59K22,417,experiment,48,↓,down,↓,0.6716308000031859,True,18
59K22,418,experiment,22,→,left,←,0.6070067000109702,False,18
59K22,419,experiment,47,→,right,→,0.624889999977313,True,18
59K22,420,experiment,21,↓,down,↓,0.5950719000538811,True,18
59K22,421,experiment,39,→,right,→,0.8184997000498697,True,18
59K22,422,experiment,23,↑,down,↓,0.5875112999929115,False,18
59K22,423,experiment,18,→,right,→,0.5288901999592781,True,18
59K22,424,experiment,53,↑,up,↑,1.1616611999925226,True,18
59K22,425,experiment,51,→,no_key,no_letter,-1.0,False,18
59K22,426,experiment,46,↓,up,↑,0.6234207999659702,False,18
59K22,427,experiment,36,↓,down,↓,0.839560899999924,True,18
59K22,428,experiment,26,↑,up,↑,0.5418216000543907,True,18
59K22,429,experiment,34,↑,up,↑,0.4904108999762684,True,18
59K22,430,experiment,33,↑,up,↑,0.474012800026685,True,18
59K22,431,experiment,41,←,left,←,0.548112399992533,True,18
59K22,432,experiment,56,←,left,←,0.5540736999828368,True,18
59K22,433,experiment,17,→,right,→,0.4810815000673756,True,18
59K22,434,experiment,16,←,right,→,0.5398153000278398,False,18
59K22,435,experiment,52,←,left,←,1.2368771000765264,True,18
59K22,436,experiment,14,↑,up,↑,0.6591051000868902,True,18
59K22,437,experiment,50,←,left,←,0.4812427998986095,True,18
59K22,438,experiment,45,↓,down,↓,0.6565683000953868,True,18
59K22,439,experiment,31,↑,up,↑,0.6512802999932319,True,18
59K22,440,experiment,42,↑,up,↑,0.5174384000711143,True,18
59K22,441,training,22,↑,up,↑,0.5427176000084728,True,18
59K22,442,training,54,←,left,←,0.5583968999562785,True,18
59K22,443,experiment,13,←,left,←,0.3834579000249505,True,18
59K22,444,experiment,14,←,left,←,0.5358082000166178,True,18
59K22,445,experiment,52,↓,down,↓,0.90457300003618,True,18
59K22,446,experiment,48,↓,down,↓,0.5739866000367329,True,18
59K22,447,experiment,57,↓,down,↓,0.49019169993698597,True,18
59K22,448,experiment,31,↓,down,↓,0.49907639995217323,True,18
59K22,449,experiment,30,←,left,←,0.5879493999527767,True,18
59K22,450,experiment,24,→,right,→,1.2772875999798998,True,18
59K22,451,experiment,34,→,right,→,0.5649206999223679,True,18
59K22,452,experiment,53,←,left,←,0.43316540005616844,True,18
59K22,453,experiment,22,↓,down,↓,0.3670348000014201,True,18
59K22,454,experiment,29,←,left,←,0.6100302999839187,True,18
59K22,455,experiment,16,→,left,←,0.5202149000251666,False,18
59K22,456,experiment,38,→,left,←,0.5548485999461263,False,18
59K22,457,experiment,37,↑,up,↑,0.8132795999990776,True,18
59K22,458,experiment,25,→,left,←,0.5006263999966905,False,18
59K22,459,experiment,32,→,right,→,0.508111200062558,True,18
59K22,460,experiment,49,→,right,→,0.5685911000473425,True,18
59K22,461,experiment,39,↓,down,↓,0.5767651000060141,True,18
59K22,462,experiment,26,↓,down,↓,0.9133820999413729,True,18
59K22,463,experiment,28,→,right,→,0.6830459999619052,True,18
59K22,464,experiment,15,→,left,←,0.6624182999366894,False,18
59K22,465,experiment,43,↑,up,↑,0.6889679000014439,True,18
59K22,466,experiment,51,←,left,←,0.5483951000496745,True,18
59K22,467,experiment,36,→,right,→,0.6712444999720901,True,18
59K22,468,experiment,33,↑,up,↑,0.8074534999905154,True,18
59K22,469,experiment,23,←,left,←,0.6972166000632569,True,18
59K22,470,experiment,17,←,left,←,0.5548863000003621,True,18
59K22,471,experiment,60,←,left,←,0.6614704000530764,True,18
59K22,472,experiment,45,↓,down,↓,0.49445350002497435,True,18
59K22,473,experiment,44,↑,up,↑,0.5349072999088094,True,18
59K22,474,experiment,35,↓,up,↑,0.5388165999902412,False,18
59K22,475,experiment,56,→,right,→,1.2014988000737503,True,18
59K22,476,experiment,40,←,left,←,0.8239416999276727,True,18
59K22,477,experiment,50,↓,right,→,0.6070306999608874,False,18
59K22,478,experiment,42,←,left,←,1.4115891000255942,True,18
59K22,479,experiment,47,←,left,←,0.7017159999813884,True,18
59K22,480,experiment,41,→,right,→,0.5116647999966517,True,18
59K22,481,experiment,20,↑,up,↑,0.6067789000226185,True,18
59K22,482,experiment,58,↓,down,↓,1.353251500055194,True,18
59K22,483,experiment,27,↓,down,↓,0.47467580006923527,True,18
59K22,484,experiment,46,←,up,↑,0.8732317999238148,False,18
59K22,485,experiment,21,→,right,→,0.6094086999073625,True,18
59K22,486,experiment,54,↓,down,↓,0.6626274000154808,True,18
59K22,487,experiment,55,→,right,→,0.5208033999660984,True,18
59K22,488,experiment,18,↓,down,↓,0.6087944000028074,True,18
59K22,489,experiment,19,←,left,←,0.5489531001076102,True,18
59K22,490,experiment,59,←,left,←,1.696821599965915,True,18
59K22,491,training,42,←,left,←,0.5375142999691889,True,18
59K22,492,training,53,←,left,←,0.5217890000203624,True,18
59K22,493,experiment,24,→,right,→,1.2217143999878317,True,18
59K22,494,experiment,30,↑,up,↑,0.8102475999621674,True,18
59K22,495,experiment,41,←,left,←,0.6001742000225931,True,18
59K22,496,experiment,53,←,left,←,0.41672370000742376,True,18
59K22,497,experiment,46,↓,down,↓,0.5667106000473723,True,18
59K22,498,experiment,43,↓,up,↑,0.5800001000752673,False,18
59K22,499,experiment,27,↑,up,↑,0.52349900000263,True,18
59K22,500,experiment,20,↑,up,↑,0.5143309999257326,True,18
59K22,501,experiment,37,←,left,←,0.6940914000151679,True,18
59K22,502,experiment,19,←,left,←,0.6307986000319943,True,18
59K22,503,experiment,39,↓,down,↓,0.7160430999938399,True,18
59K22,504,experiment,54,←,left,←,0.5807380999904126,True,18
59K22,505,experiment,50,↑,up,↑,0.557100799982436,True,18
59K22,506,experiment,57,←,left,←,0.47415259992703795,True,18
59K22,507,experiment,47,←,left,←,1.0722688999958336,True,18
59K22,508,experiment,56,↑,up,↑,0.5856942000100389,True,18
59K22,509,experiment,40,←,left,←,0.6485257999738678,True,18
59K22,510,experiment,17,↓,down,↓,0.9717527999309823,True,18
59K22,511,experiment,34,→,left,←,0.6313567999750376,False,18
59K22,512,experiment,33,→,right,→,0.7932117999298498,True,18
59K22,513,experiment,38,←,left,←,0.6572249999735504,True,18
59K22,514,experiment,48,↓,left,←,1.2247356999432668,False,18
59K22,515,experiment,31,↑,up,↑,0.6520314000081271,True,18
59K22,516,experiment,36,←,left,←,1.1389105999842286,True,18
59K22,517,experiment,44,↑,up,↑,0.6416097999317572,True,18
59K22,518,experiment,26,←,left,←,0.9757064000004902,True,18
59K22,519,experiment,23,↑,up,↑,0.5308455999474972,True,18
59K22,520,experiment,18,↑,up,↑,1.0179819000186399,True,18
59K22,521,experiment,16,↑,up,↑,0.5281426999717951,True,18
59K22,522,experiment,45,↑,up,↑,0.6059981000144035,True,18
59K22,523,experiment,25,←,left,←,0.4779516999842599,True,18
59K22,524,experiment,22,↑,up,↑,0.5006096999859437,True,18
59K22,525,experiment,58,→,right,→,0.5229881999548525,True,18
59K22,526,experiment,60,←,left,←,0.631299200002104,True,18
59K22,527,experiment,14,↑,up,↑,0.597553399973549,True,18
59K22,528,experiment,52,↓,down,↓,0.7317472000140697,True,18
59K22,529,experiment,13,↑,up,↑,1.534285100060515,True,18
59K22,530,experiment,15,↓,down,↓,0.5525949000148103,True,18
59K22,531,experiment,42,↓,up,↑,0.511106799938716,False,18
59K22,532,experiment,21,↓,up,↑,0.7260840999661013,False,18
59K22,533,experiment,29,→,right,→,0.5828661000123248,True,18
59K22,534,experiment,32,←,left,←,0.5551974999252707,True,18
59K22,535,experiment,28,↓,down,↓,0.5310858000302687,True,18
59K22,536,experiment,59,↓,down,↓,0.5674139000475407,True,18
59K22,537,experiment,51,←,left,←,0.5196878999704495,True,18
59K22,538,experiment,35,→,right,→,0.5565910000586882,True,18
59K22,539,experiment,49,↑,up,↑,0.7028486999915913,True,18
59K22,540,experiment,55,←,left,←,0.5594184000510722,True,18
59K22,541,training,31,↓,up,↑,0.6813655000878498,False,18
59K22,542,training,37,→,right,→,0.6466179999988526,True,18
59K22,543,experiment,50,↑,up,↑,0.5721149999881163,True,18
59K22,544,experiment,38,↓,down,↓,0.8769979999633506,True,18
59K22,545,experiment,57,↓,up,↑,0.597574400017038,False,18
59K22,546,experiment,24,↓,down,↓,0.5581869999878109,True,18
59K22,547,experiment,25,←,up,↑,0.5847326000221074,False,18
59K22,548,experiment,54,↓,down,↓,0.6062159999273717,True,18
59K22,549,experiment,16,↓,down,↓,1.0841460999799892,True,18
59K22,550,experiment,56,←,right,→,0.5968313000630587,False,18
59K22,551,experiment,49,↓,no_key,no_letter,-1.0,False,18
59K22,552,experiment,58,←,left,←,0.529355000006035,True,18
59K22,553,experiment,53,↑,up,↑,0.6818831999553367,True,18
59K22,554,experiment,48,←,down,↓,1.3115670001134276,False,18
59K22,555,experiment,29,↑,up,↑,0.7054053000174463,True,18
59K22,556,experiment,33,→,down,↓,1.0881120000267401,False,18
59K22,557,experiment,15,→,left,←,0.5476247000042349,False,18
59K22,558,experiment,30,→,right,→,0.7063432999420911,True,18
59K22,559,experiment,22,←,left,←,0.47278330009430647,True,18
59K22,560,experiment,40,↓,down,↓,0.603499099961482,True,18
59K22,561,experiment,41,→,right,→,0.7530222000787035,True,18
59K22,562,experiment,55,↓,left,←,1.7674590999959037,False,18
59K22,563,experiment,42,←,left,←,0.5583103999961168,True,18
59K22,564,experiment,26,←,left,←,0.49594679998699576,True,18
59K22,565,experiment,44,→,right,→,0.38311669998802245,True,18
59K22,566,experiment,23,→,right,→,1.3295283000916243,True,18
59K22,567,experiment,46,↑,up,↑,0.6145681999623775,True,18
59K22,568,experiment,32,↑,up,↑,0.5616892999969423,True,18
59K22,569,experiment,14,↓,down,↓,0.6269986999686807,True,18
59K22,570,experiment,18,↑,up,↑,0.639177400036715,True,18
59K22,571,experiment,20,↓,down,↓,0.6809085999848321,True,18
59K22,572,experiment,60,←,left,←,0.5988708999939263,True,18
59K22,573,experiment,47,←,left,←,0.608537400024943,True,18
59K22,574,experiment,37,←,right,→,0.4966042999876663,False,18
59K22,575,experiment,39,→,right,→,0.5063687999499962,True,18
59K22,576,experiment,19,←,right,→,1.666441100067459,False,18
59K22,577,experiment,36,↓,down,↓,0.4891837000614032,True,18
59K22,578,experiment,52,↓,up,↑,0.4840715000173077,False,18
59K22,579,experiment,34,←,left,←,0.5145549000008032,True,18
59K22,580,experiment,28,←,left,←,0.524265700019896,True,18
59K22,581,experiment,45,←,left,←,0.36672559997532517,True,18
59K22,582,experiment,51,↑,up,↑,0.5218334000092,True,18
59K22,583,experiment,43,→,right,→,0.5294195000315085,True,18
59K22,584,experiment,13,→,right,→,1.1089712999528274,True,18
59K22,585,experiment,31,←,left,←,0.661034999997355,True,18
59K22,586,experiment,35,→,right,→,0.5969260000856593,True,18
59K22,587,experiment,21,←,left,←,1.295680500101298,True,18
59K22,588,experiment,59,←,left,←,0.4701865999959409,True,18
59K22,589,experiment,27,←,left,←,0.5536027000052854,True,18
59K22,590,experiment,17,↑,up,↑,0.8730129000032321,True,18
