PART_ID,Trial_no,Trial_type,CSI,Stim_letter,Key_pressed,letter_choose,Rt,Corr,Stimulus Time
67K32,1,training,60,←,no_key,no_letter,-1.0,False,30
67K32,2,training,60,↑,right,→,0.6931265001185238,False,30
67K32,3,training,60,↑,up,↑,0.7457620999775827,True,30
67K32,4,training,60,→,no_key,no_letter,-1.0,False,30
67K32,5,training,60,→,no_key,no_letter,-1.0,False,30
67K32,6,training,60,↑,up,↑,0.6006487000267953,True,30
67K32,7,training,60,↓,up,↑,0.7950650001876056,False,30
67K32,8,training,60,←,left,←,0.6167379999533296,True,30
67K32,9,training,60,↑,up,↑,0.5669847999233752,True,30
67K32,10,training,60,←,left,←,0.8051175000146031,True,30
67K32,11,training,60,↑,up,↑,0.5670404001139104,True,30
67K32,12,training,60,↓,down,↓,0.8716597000602633,True,30
67K32,13,training,60,↑,up,↑,0.5836147000081837,True,30
67K32,14,training,60,←,left,←,0.7750491998158395,True,30
67K32,15,training,60,←,left,←,0.6002895999699831,True,30
67K32,16,training,60,↑,no_key,no_letter,-1.0,False,30
67K32,17,training,60,↓,down,↓,0.8358454001136124,True,30
67K32,18,training,60,↑,up,↑,0.7394916999619454,True,30
67K32,19,training,60,←,left,←,0.7914243000559509,True,30
67K32,20,training,60,→,right,→,0.8007636999245733,True,30
67K32,21,training,60,↑,up,↑,0.6884377999231219,True,18
67K32,22,training,60,→,right,→,0.7982529001310468,True,18
67K32,23,training,60,←,left,←,0.5430695000104606,True,18
67K32,24,training,60,↓,down,↓,0.7220642999745905,True,18
67K32,25,training,60,→,right,→,0.7180927998851985,True,18
67K32,26,training,60,↓,up,↑,0.7704903001431376,False,18
67K32,27,training,60,→,right,→,0.6527317999862134,True,18
67K32,28,training,60,←,down,↓,0.9156938001979142,False,18
67K32,29,training,60,→,left,←,0.9840017999522388,False,18
67K32,30,training,60,→,right,→,0.6900951999705285,True,18
67K32,31,training,60,←,left,←,0.7673454000614583,True,18
67K32,32,training,60,↑,up,↑,0.6657722000963986,True,18
67K32,33,training,60,↓,up,↑,0.8079918001312762,False,18
67K32,34,training,60,←,left,←,0.5526546998880804,True,18
67K32,35,training,60,↓,up,↑,0.9154328000731766,False,18
67K32,36,training,60,←,left,←,0.583624399965629,True,18
67K32,37,training,60,→,right,→,0.7771193000953645,True,18
67K32,38,training,60,↑,up,↑,0.6667397997807711,True,18
67K32,39,training,60,→,right,→,0.6731094000861049,True,18
67K32,40,training,60,↑,up,↑,0.6873455999884754,True,18
67K32,41,training,26,↑,up,↑,0.8121241999324411,True,18
67K32,42,training,16,→,right,→,0.9221163000911474,True,18
67K32,43,experiment,13,←,left,←,0.6295867001172155,True,18
67K32,44,experiment,29,↑,up,↑,0.7457930999808013,True,18
67K32,45,experiment,45,←,left,←,0.7668085000477731,True,18
67K32,46,experiment,55,→,right,→,0.67681650002487,True,18
67K32,47,experiment,24,↓,down,↓,1.1627090000547469,True,18
67K32,48,experiment,30,→,right,→,0.769224600167945,True,18
67K32,49,experiment,58,←,left,←,0.7809589998796582,True,18
67K32,50,experiment,20,↑,up,↑,1.5777131000068039,True,18
67K32,51,experiment,19,↑,up,↑,0.7270875999238342,True,18
67K32,52,experiment,51,←,left,←,0.681424800073728,True,18
67K32,53,experiment,48,←,left,←,0.7750533998478204,True,18
67K32,54,experiment,57,↑,up,↑,0.7396245999261737,True,18
67K32,55,experiment,32,→,right,→,0.8097077000420541,True,18
67K32,56,experiment,46,→,right,→,0.8922326001338661,True,18
67K32,57,experiment,21,←,left,←,0.8278793999925256,True,18
67K32,58,experiment,37,→,right,→,0.6434021000750363,True,18
67K32,59,experiment,25,↑,up,↑,0.7064228998497128,True,18
67K32,60,experiment,36,→,right,→,0.599083699984476,True,18
67K32,61,experiment,43,↓,down,↓,0.6992834999691695,True,18
67K32,62,experiment,40,→,right,→,0.6056395000778139,True,18
67K32,63,experiment,41,→,right,→,0.6272615001071244,True,18
67K32,64,experiment,16,↓,down,↓,1.2896795000415295,True,18
67K32,65,experiment,22,↑,up,↑,0.7839315999299288,True,18
67K32,66,experiment,56,↑,up,↑,0.8842865999322385,True,18
67K32,67,experiment,15,→,right,→,0.7436044001951814,True,18
67K32,68,experiment,28,←,left,←,0.7284562999848276,True,18
67K32,69,experiment,39,←,left,←,0.866761599900201,True,18
67K32,70,experiment,59,↓,down,↓,0.873997800052166,True,18
67K32,71,experiment,31,↑,down,↓,0.8355882000178099,False,18
67K32,72,experiment,33,→,right,→,0.6851961999200284,True,18
67K32,73,experiment,18,↑,up,↑,0.9507385999895632,True,18
67K32,74,experiment,53,↓,down,↓,0.6308377999812365,True,18
67K32,75,experiment,49,↓,down,↓,0.5737865001428872,True,18
67K32,76,experiment,14,←,left,←,0.9421977999154478,True,18
67K32,77,experiment,38,↑,up,↑,0.680552399950102,True,18
67K32,78,experiment,52,→,right,→,0.8516844999976456,True,18
67K32,79,experiment,27,↓,down,↓,0.8646267999429256,True,18
67K32,80,experiment,60,←,left,←,0.7431822000071406,True,18
67K32,81,experiment,47,←,left,←,0.819413699908182,True,18
67K32,82,experiment,44,←,left,←,0.6225358000956476,True,18
67K32,83,experiment,54,↑,up,↑,0.7308280998840928,True,18
67K32,84,experiment,17,→,right,→,0.6672821000684053,True,18
67K32,85,experiment,26,↓,down,↓,0.647808900102973,True,18
67K32,86,experiment,35,→,right,→,1.0393389000091702,True,18
67K32,87,experiment,50,←,left,←,0.7898975000716746,True,18
67K32,88,experiment,23,→,right,→,0.656051900004968,True,18
67K32,89,experiment,42,↑,up,↑,0.6431009999942034,True,18
67K32,90,experiment,34,↑,up,↑,0.8204406998120248,True,18
67K32,91,training,46,↑,no_key,no_letter,-1.0,False,17
67K32,92,training,20,↓,down,↓,0.6372137998696417,True,17
67K32,93,experiment,17,→,right,→,0.7934016000945121,True,17
67K32,94,experiment,32,→,right,→,0.6773810999002308,True,17
67K32,95,experiment,55,↑,up,↑,0.5592716000974178,True,17
67K32,96,experiment,16,→,left,←,0.751155500067398,False,17
67K32,97,experiment,41,↑,up,↑,0.6631225000601262,True,17
67K32,98,experiment,20,↑,up,↑,0.5763801999855787,True,17
67K32,99,experiment,21,→,right,→,0.5405317000113428,True,17
67K32,100,experiment,24,→,right,→,0.5117309999186546,True,17
67K32,101,experiment,35,↓,down,↓,0.7572321000043303,True,17
67K32,102,experiment,38,↑,up,↑,0.47093469998799264,True,17
67K32,103,experiment,52,←,left,←,0.6424978999421,True,17
67K32,104,experiment,40,↑,up,↑,0.5595346998888999,True,17
67K32,105,experiment,15,→,right,→,0.6243972000665963,True,17
67K32,106,experiment,57,←,left,←,0.8188153998926282,True,17
67K32,107,experiment,56,←,left,←,0.6536282000597566,True,17
67K32,108,experiment,54,→,right,→,0.6007014999631792,True,17
67K32,109,experiment,45,↑,down,↓,0.9649861000943929,False,17
67K32,110,experiment,18,→,right,→,0.8338703999761492,True,17
67K32,111,experiment,42,↓,down,↓,0.805647199973464,True,17
67K32,112,experiment,30,←,left,←,0.7865319000557065,True,17
67K32,113,experiment,14,↓,down,↓,0.7865780999418348,True,17
67K32,114,experiment,34,↓,down,↓,0.7898627000395209,True,17
67K32,115,experiment,48,→,right,→,0.8232992000412196,True,17
67K32,116,experiment,60,↓,down,↓,0.6076877999585122,True,17
67K32,117,experiment,59,↓,down,↓,0.7134355001617223,True,17
67K32,118,experiment,47,↑,up,↑,0.6464568998198956,True,17
67K32,119,experiment,51,↑,up,↑,1.260227199876681,True,17
67K32,120,experiment,31,←,left,←,0.9189407001249492,True,17
67K32,121,experiment,37,→,right,→,0.6024359001312405,True,17
67K32,122,experiment,46,↓,no_key,no_letter,-1.0,False,17
67K32,123,experiment,53,←,left,←,0.9090487000066787,True,17
67K32,124,experiment,28,↓,up,↑,1.3994652999099344,False,17
67K32,125,experiment,19,→,right,→,0.7158244999591261,True,17
67K32,126,experiment,29,←,left,←,0.7006710001733154,True,17
67K32,127,experiment,27,↑,up,↑,0.8477617998141795,True,17
67K32,128,experiment,25,↑,no_key,no_letter,-1.0,False,17
67K32,129,experiment,39,↑,no_key,no_letter,-1.0,False,17
67K32,130,experiment,13,↓,down,↓,0.7060092000756413,True,17
67K32,131,experiment,44,←,right,→,0.7379365998785943,False,17
67K32,132,experiment,43,→,left,←,0.6246148999780416,False,17
67K32,133,experiment,50,→,right,→,0.6559576001018286,True,17
67K32,134,experiment,23,←,right,→,0.8071334001142532,False,17
67K32,135,experiment,33,↓,down,↓,0.8260821001604199,True,17
67K32,136,experiment,58,↑,up,↑,0.7239689999260008,True,17
67K32,137,experiment,26,↓,down,↓,0.6066964000929147,True,17
67K32,138,experiment,49,←,right,→,0.7430169999133795,False,17
67K32,139,experiment,36,←,left,←,1.0267394999973476,True,17
67K32,140,experiment,22,→,right,→,0.8124975000973791,True,17
67K32,141,training,17,→,no_key,no_letter,-1.0,False,17
67K32,142,training,20,→,right,→,0.5950291000772268,True,17
67K32,143,experiment,58,↑,up,↑,0.549962499877438,True,17
67K32,144,experiment,38,←,left,←,1.0395436000544578,True,17
67K32,145,experiment,42,↑,up,↑,0.6596005000174046,True,17
67K32,146,experiment,60,←,left,←,0.8104488998651505,True,17
67K32,147,experiment,27,↓,down,↓,0.649330599932,True,17
67K32,148,experiment,25,→,right,→,0.607421400025487,True,17
67K32,149,experiment,52,↓,down,↓,0.7018637999426574,True,17
67K32,150,experiment,24,←,right,→,0.762584799900651,False,17
67K32,151,experiment,20,↓,down,↓,0.687382800038904,True,17
67K32,152,experiment,29,↑,down,↓,0.7779411000665277,False,17
67K32,153,experiment,30,→,right,→,0.6480164001695812,True,17
67K32,154,experiment,59,↑,up,↑,0.8156173001043499,True,17
67K32,155,experiment,31,↑,up,↑,0.6592995000537485,True,17
67K32,156,experiment,18,↑,up,↑,0.6060866001062095,True,17
67K32,157,experiment,32,↑,up,↑,0.7455293999519199,True,17
67K32,158,experiment,49,←,left,←,0.7638745999429375,True,17
67K32,159,experiment,57,←,right,→,0.7205350999720395,False,17
67K32,160,experiment,34,↑,up,↑,0.7498810000251979,True,17
67K32,161,experiment,16,↑,up,↑,0.5821582998614758,True,17
67K32,162,experiment,21,→,right,→,0.8174656999763101,True,17
67K32,163,experiment,15,→,left,←,1.032244100002572,False,17
67K32,164,experiment,51,→,no_key,no_letter,-1.0,False,17
67K32,165,experiment,46,←,left,←,0.6184266000054777,True,17
67K32,166,experiment,55,←,no_key,no_letter,-1.0,False,17
67K32,167,experiment,44,→,right,→,0.6766460000071675,True,17
67K32,168,experiment,47,←,left,←,0.8593815001659095,True,17
67K32,169,experiment,56,↓,down,↓,0.8456188999116421,True,17
67K32,170,experiment,43,→,up,↑,1.176463200012222,False,17
67K32,171,experiment,14,←,left,←,0.6732190998736769,True,17
67K32,172,experiment,22,↑,up,↑,1.0169820999726653,True,17
67K32,173,experiment,53,↓,down,↓,0.7259489002171904,True,17
67K32,174,experiment,13,→,right,→,0.9613451999612153,True,17
67K32,175,experiment,17,↓,down,↓,0.6491742997895926,True,17
67K32,176,experiment,35,→,right,→,0.7603923999704421,True,17
67K32,177,experiment,48,↓,down,↓,0.8757805998902768,True,17
67K32,178,experiment,19,←,left,←,0.7010039000306278,True,17
67K32,179,experiment,50,↓,down,↓,0.7767155999317765,True,17
67K32,180,experiment,54,←,left,←,0.871145699871704,True,17
67K32,181,experiment,45,→,right,→,0.6241667999420315,True,17
67K32,182,experiment,37,↓,down,↓,0.6790692999493331,True,17
67K32,183,experiment,23,→,right,→,0.6775454999879003,True,17
67K32,184,experiment,41,↓,up,↑,1.8082570999395102,False,17
67K32,185,experiment,36,↑,up,↑,0.5858072999399155,True,17
67K32,186,experiment,26,→,right,→,0.6980728001799434,True,17
67K32,187,experiment,28,←,left,←,0.9479598999023438,True,17
67K32,188,experiment,40,↑,up,↑,0.6204055000562221,True,17
67K32,189,experiment,33,→,right,→,1.358593399869278,True,17
67K32,190,experiment,39,↓,down,↓,0.728091400116682,True,17
67K32,191,training,26,↓,no_key,no_letter,-1.0,False,17
67K32,192,training,35,←,left,←,0.6414747000671923,True,17
67K32,193,experiment,20,→,right,→,0.6435494998004287,True,17
67K32,194,experiment,22,↓,down,↓,0.5723777001257986,True,17
67K32,195,experiment,37,←,left,←,0.7819826998747885,True,17
67K32,196,experiment,43,←,left,←,0.7389448001049459,True,17
67K32,197,experiment,41,←,right,→,0.7472012999933213,False,17
67K32,198,experiment,56,↑,up,↑,0.5610201999079436,True,17
67K32,199,experiment,33,↓,down,↓,0.9018850999418646,True,17
67K32,200,experiment,16,→,right,→,0.6800241000019014,True,17
67K32,201,experiment,28,↑,up,↑,0.9868835001252592,True,17
67K32,202,experiment,26,↑,no_key,no_letter,-1.0,False,17
67K32,203,experiment,24,←,left,←,0.7588382000103593,True,17
67K32,204,experiment,46,↑,up,↑,0.6268976000137627,True,17
67K32,205,experiment,60,→,right,→,0.6514280000701547,True,17
67K32,206,experiment,15,↑,no_key,no_letter,-1.0,False,17
67K32,207,experiment,32,↑,left,←,0.614327099872753,False,17
67K32,208,experiment,31,→,right,→,0.7458386002108455,True,17
67K32,209,experiment,47,←,left,←,0.7895992998965085,True,17
67K32,210,experiment,14,↓,no_key,no_letter,-1.0,False,17
67K32,211,experiment,59,↓,no_key,no_letter,-1.0,False,17
67K32,212,experiment,25,←,left,←,0.7650798000395298,True,17
67K32,213,experiment,38,←,left,←,0.6459943999070674,True,17
67K32,214,experiment,18,↓,up,↑,0.8804256001021713,False,17
67K32,215,experiment,29,←,left,←,0.7070091001223773,True,17
67K32,216,experiment,34,↑,right,→,0.7130734000820667,False,17
67K32,217,experiment,57,↓,down,↓,1.0400688999798149,True,17
67K32,218,experiment,19,←,no_key,no_letter,-1.0,False,17
67K32,219,experiment,13,↑,up,↑,0.5891587000805885,True,17
67K32,220,experiment,44,←,left,←,0.7293470001313835,True,17
67K32,221,experiment,58,↑,up,↑,0.6384538998827338,True,17
67K32,222,experiment,30,↑,up,↑,0.4986270999070257,True,17
67K32,223,experiment,40,↓,down,↓,0.5962832998484373,True,17
67K32,224,experiment,53,→,left,←,0.8578699000645429,False,17
67K32,225,experiment,49,↓,right,→,1.6084443000145257,False,17
67K32,226,experiment,54,→,right,→,0.805856800172478,True,17
67K32,227,experiment,48,→,up,↑,1.3188507999293506,False,17
67K32,228,experiment,52,→,right,→,0.792848699958995,True,17
67K32,229,experiment,17,←,left,←,0.7112848998513073,True,17
67K32,230,experiment,42,←,left,←,0.49600249994546175,True,17
67K32,231,experiment,23,→,right,→,0.557380799902603,True,17
67K32,232,experiment,27,→,right,→,0.7181023999582976,True,17
67K32,233,experiment,55,←,left,←,0.6059256999287754,True,17
67K32,234,experiment,36,→,right,→,0.9907782999798656,True,17
67K32,235,experiment,21,←,left,←,0.6823954000137746,True,17
67K32,236,experiment,39,↑,no_key,no_letter,-1.0,False,17
67K32,237,experiment,50,←,right,→,0.6083618998527527,False,17
67K32,238,experiment,35,↓,no_key,no_letter,-1.0,False,17
67K32,239,experiment,45,↓,down,↓,0.7195272999815643,True,17
67K32,240,experiment,51,←,left,←,0.801893400028348,True,17
67K32,241,training,29,←,no_key,no_letter,-1.0,False,17
67K32,242,training,33,↑,down,↓,0.8611045000143349,False,17
67K32,243,experiment,52,↑,no_key,no_letter,-1.0,False,17
67K32,244,experiment,54,↓,left,←,0.5613675999920815,False,17
67K32,245,experiment,32,↓,down,↓,0.6947317000012845,True,17
67K32,246,experiment,17,↓,down,↓,0.5536556001752615,True,17
67K32,247,experiment,45,→,right,→,0.7897399000357836,True,17
67K32,248,experiment,56,←,right,→,0.7061294999439269,False,17
67K32,249,experiment,19,↑,left,←,0.8423660001717508,False,17
67K32,250,experiment,46,↓,down,↓,0.7877088999375701,True,17
67K32,251,experiment,28,→,right,→,0.8344151000492275,True,17
67K32,252,experiment,55,↓,down,↓,0.653528899885714,True,17
67K32,253,experiment,26,↑,up,↑,1.5709172000642866,True,17
67K32,254,experiment,48,↓,down,↓,0.6218987999018282,True,17
67K32,255,experiment,53,↑,up,↑,0.946750600123778,True,17
67K32,256,experiment,41,↓,no_key,no_letter,-1.0,False,17
67K32,257,experiment,27,←,no_key,no_letter,-1.0,False,17
67K32,258,experiment,40,→,right,→,1.0128556999843568,True,17
67K32,259,experiment,38,↓,down,↓,0.9800307999830693,True,17
67K32,260,experiment,42,→,right,→,0.6897623999975622,True,17
67K32,261,experiment,15,↑,up,↑,0.701116899959743,True,17
67K32,262,experiment,33,↓,down,↓,0.7000641999766231,True,17
67K32,263,experiment,34,↑,up,↑,0.5702523000072688,True,17
67K32,264,experiment,59,↑,up,↑,0.6132101998664439,True,17
67K32,265,experiment,21,↓,up,↑,1.06553820008412,False,17
67K32,266,experiment,29,←,left,←,0.7786812998820096,True,17
67K32,267,experiment,13,→,no_key,no_letter,-1.0,False,17
67K32,268,experiment,58,↓,down,↓,0.753034699941054,True,17
67K32,269,experiment,35,↓,down,↓,0.8605512001086026,True,17
67K32,270,experiment,30,→,right,→,1.0954597000963986,True,17
67K32,271,experiment,25,↑,up,↑,0.8278699000366032,True,17
67K32,272,experiment,16,←,left,←,0.6415842999704182,True,17
67K32,273,experiment,18,←,left,←,0.6929155001416802,True,17
67K32,274,experiment,24,→,left,←,0.5388482001144439,False,17
67K32,275,experiment,50,←,left,←,0.8285027998499572,True,17
67K32,276,experiment,43,→,right,→,0.6243449999019504,True,17
67K32,277,experiment,14,↓,down,↓,0.7509246999397874,True,17
67K32,278,experiment,47,↓,down,↓,0.8986180999781936,True,17
67K32,279,experiment,20,→,no_key,no_letter,-1.0,False,17
67K32,280,experiment,37,↓,down,↓,0.5976563999429345,True,17
67K32,281,experiment,51,→,left,←,0.8360679999459535,False,17
67K32,282,experiment,57,↓,no_key,no_letter,-1.0,False,17
67K32,283,experiment,31,↑,up,↑,0.8290888001210988,True,17
67K32,284,experiment,44,↑,up,↑,0.6719460999593139,True,17
67K32,285,experiment,39,↑,up,↑,0.5640167000237852,True,17
67K32,286,experiment,60,↓,down,↓,0.8303793999366462,True,17
67K32,287,experiment,49,→,right,→,0.6697339999955148,True,17
67K32,288,experiment,36,→,right,→,0.571806900203228,True,17
67K32,289,experiment,22,←,left,←,0.8153497001621872,True,17
67K32,290,experiment,23,↑,no_key,no_letter,-1.0,False,17
67K32,291,training,28,↑,no_key,no_letter,-1.0,False,17
67K32,292,training,20,→,right,→,0.6972216998692602,True,17
67K32,293,experiment,23,↓,down,↓,0.6464434999506921,True,17
67K32,294,experiment,58,↑,up,↑,0.8548507001250982,True,17
67K32,295,experiment,42,←,left,←,0.7700640999246389,True,17
67K32,296,experiment,18,↑,down,↓,0.8243503000121564,False,17
67K32,297,experiment,56,↓,down,↓,0.7552187000401318,True,17
67K32,298,experiment,50,→,right,→,0.5249435999430716,True,17
67K32,299,experiment,54,↓,no_key,no_letter,-1.0,False,17
67K32,300,experiment,37,←,no_key,no_letter,-1.0,False,17
67K32,301,experiment,31,↑,no_key,no_letter,-1.0,False,17
67K32,302,experiment,20,←,up,↑,0.23465380002744496,False,17
67K32,303,experiment,14,↓,right,→,0.7048690998926759,False,17
67K32,304,experiment,38,→,left,←,0.3337661998812109,False,17
67K32,305,experiment,55,↓,down,↓,0.9789222001563758,True,17
67K32,306,experiment,48,↑,up,↑,0.5005564000457525,True,17
67K32,307,experiment,33,→,right,→,0.5874314999673516,True,17
67K32,308,experiment,41,↓,down,↓,0.905720999930054,True,17
67K32,309,experiment,28,↓,up,↑,0.69992719986476,False,17
67K32,310,experiment,27,↓,down,↓,0.8068654998205602,True,17
67K32,311,experiment,40,→,right,→,0.6611752000171691,True,17
67K32,312,experiment,13,↓,no_key,no_letter,-1.0,False,17
67K32,313,experiment,15,↓,no_key,no_letter,-1.0,False,17
67K32,314,experiment,45,↑,up,↑,0.618171300040558,True,17
67K32,315,experiment,51,→,right,→,0.6324808998033404,True,17
67K32,316,experiment,17,←,no_key,no_letter,-1.0,False,17
67K32,317,experiment,57,←,left,←,0.6902511999942362,True,17
67K32,318,experiment,25,→,right,→,0.783074599923566,True,17
67K32,319,experiment,59,↑,up,↑,0.7778186001814902,True,17
67K32,320,experiment,44,↑,up,↑,0.5510057001374662,True,17
67K32,321,experiment,21,→,right,→,0.7072562999092042,True,17
67K32,322,experiment,30,→,down,↓,0.8440825999714434,False,17
67K32,323,experiment,29,↑,up,↑,0.5607584998942912,True,17
67K32,324,experiment,22,←,right,→,0.6524704999756068,False,17
67K32,325,experiment,19,→,right,→,0.7907602000050247,True,17
67K32,326,experiment,46,→,right,→,0.5856234999373555,True,17
67K32,327,experiment,49,↓,up,↑,0.5865569000598043,False,17
67K32,328,experiment,39,→,right,→,0.8105323000345379,True,17
67K32,329,experiment,36,↑,left,←,0.7471038999501616,False,17
67K32,330,experiment,26,←,left,←,0.6367300001438707,True,17
67K32,331,experiment,32,→,right,→,1.102966499980539,True,17
67K32,332,experiment,43,↑,up,↑,0.6556141001638025,True,17
67K32,333,experiment,60,→,no_key,no_letter,-1.0,False,17
67K32,334,experiment,53,←,left,←,0.6468623999971896,True,17
67K32,335,experiment,47,↑,up,↑,0.6305831000208855,True,17
67K32,336,experiment,52,↑,up,↑,0.5715226999018341,True,17
67K32,337,experiment,16,←,left,←,0.7469405999872833,True,17
67K32,338,experiment,35,→,right,→,0.606387099949643,True,17
67K32,339,experiment,34,↑,up,↑,0.7607554001733661,True,17
67K32,340,experiment,24,→,left,←,0.8435842001345009,False,17
67K32,341,training,58,↓,down,↓,0.605278099887073,True,17
67K32,342,training,15,←,left,←,0.852015599841252,True,17
67K32,343,experiment,48,←,left,←,0.9470909999217838,True,17
67K32,344,experiment,42,←,right,→,0.6422141001094133,False,17
67K32,345,experiment,41,←,no_key,no_letter,-1.0,False,17
67K32,346,experiment,44,↓,up,↑,0.5968678998760879,False,17
67K32,347,experiment,34,↓,down,↓,0.46365780010819435,True,17
67K32,348,experiment,17,→,up,↑,0.6181964999996126,False,17
67K32,349,experiment,35,↑,no_key,no_letter,-1.0,False,17
67K32,350,experiment,49,→,left,←,0.2670971001498401,False,17
67K32,351,experiment,21,↓,right,→,0.5812953999266028,False,17
67K32,352,experiment,40,→,right,→,0.7484579998999834,True,17
67K32,353,experiment,27,→,right,→,0.5251249999273568,True,17
67K32,354,experiment,51,←,up,↑,0.7194626999553293,False,17
67K32,355,experiment,47,←,left,←,0.7163889000657946,True,17
67K32,356,experiment,30,→,up,↑,0.6926060998812318,False,17
67K32,357,experiment,15,←,left,←,0.6483189000282437,True,17
67K32,358,experiment,43,↑,up,↑,0.7142579001374543,True,17
67K32,359,experiment,19,→,right,→,0.7618070000316948,True,17
67K32,360,experiment,55,→,right,→,0.8881991000380367,True,17
67K32,361,experiment,46,←,left,←,0.5353631998877972,True,17
67K32,362,experiment,23,↓,down,↓,0.8434264999814332,True,17
67K32,363,experiment,29,←,left,←,0.847921899985522,True,17
67K32,364,experiment,28,→,right,→,0.5239512999542058,True,17
67K32,365,experiment,32,←,left,←,0.8270055002067238,True,17
67K32,366,experiment,18,↓,left,←,0.8631287000607699,False,17
67K32,367,experiment,39,↑,down,↓,1.0197653998620808,False,17
67K32,368,experiment,45,→,right,→,0.9338637997861952,True,17
67K32,369,experiment,24,→,right,→,0.6415908001363277,True,17
67K32,370,experiment,57,→,right,→,0.5951336000580341,True,17
67K32,371,experiment,37,↑,up,↑,0.6439662000630051,True,17
67K32,372,experiment,20,→,left,←,0.95802679983899,False,17
67K32,373,experiment,22,↑,up,↑,0.6665806998498738,True,17
67K32,374,experiment,31,↑,up,↑,0.7718042000196874,True,17
67K32,375,experiment,36,↓,down,↓,0.8941061999648809,True,17
67K32,376,experiment,52,↓,down,↓,0.7932457998394966,True,17
67K32,377,experiment,26,←,left,←,0.6815454000607133,True,17
67K32,378,experiment,13,↓,down,↓,0.7182611001189798,True,17
67K32,379,experiment,50,↓,down,↓,0.6335293999873102,True,17
67K32,380,experiment,38,←,left,←,0.6875618000049144,True,17
67K32,381,experiment,60,↓,down,↓,0.6055589998140931,True,17
67K32,382,experiment,56,→,right,→,0.8730579998809844,True,17
67K32,383,experiment,54,→,left,←,0.7956425999291241,False,17
67K32,384,experiment,59,←,left,←,0.5732841999270022,True,17
67K32,385,experiment,33,←,no_key,no_letter,-1.0,False,17
67K32,386,experiment,16,↓,left,←,0.9621573998592794,False,17
67K32,387,experiment,14,↑,up,↑,0.6271742000244558,True,17
67K32,388,experiment,53,←,left,←,0.5840810998342931,True,17
67K32,389,experiment,58,↑,up,↑,1.7551341999787837,True,17
67K32,390,experiment,25,↓,no_key,no_letter,-1.0,False,17
67K32,391,training,30,←,no_key,no_letter,-1.0,False,17
67K32,392,training,19,←,left,←,0.5174481000285596,True,17
67K32,393,experiment,25,→,right,→,0.6088622999377549,True,17
67K32,394,experiment,50,←,left,←,0.7444333001039922,True,17
67K32,395,experiment,39,←,left,←,0.7063263000454754,True,17
67K32,396,experiment,59,↓,up,↑,0.5920367001090199,False,17
67K32,397,experiment,23,↑,down,↓,0.6821122001856565,False,17
67K32,398,experiment,18,→,right,→,0.31751089985482395,True,17
67K32,399,experiment,17,←,left,←,0.7632791001815349,True,17
67K32,400,experiment,58,→,right,→,0.6392585998401046,True,17
67K32,401,experiment,20,↓,right,→,0.6734926998615265,False,17
67K32,402,experiment,42,←,left,←,0.715505399974063,True,17
67K32,403,experiment,49,↓,down,↓,0.647269899956882,True,17
67K32,404,experiment,33,↑,right,→,0.6241051000542939,False,17
67K32,405,experiment,51,↑,no_key,no_letter,-1.0,False,17
67K32,406,experiment,15,↑,up,↑,0.6717749000526965,True,17
67K32,407,experiment,37,→,right,→,0.6373662000987679,True,17
67K32,408,experiment,22,↓,no_key,no_letter,-1.0,False,17
67K32,409,experiment,24,←,left,←,0.6096491999924183,True,17
67K32,410,experiment,28,←,left,←,0.6796766000334173,True,17
67K32,411,experiment,19,←,left,←,0.6251662001013756,True,17
67K32,412,experiment,41,←,left,←,0.7663555000908673,True,17
67K32,413,experiment,14,←,left,←,0.5988827999681234,True,17
67K32,414,experiment,53,←,left,←,0.6124907999765128,True,17
67K32,415,experiment,45,←,left,←,0.5594199998304248,True,17
67K32,416,experiment,26,↑,up,↑,0.5848640999756753,True,17
67K32,417,experiment,40,←,left,←,0.6557570998556912,True,17
67K32,418,experiment,43,↓,down,↓,0.850061499979347,True,17
67K32,419,experiment,21,↓,down,↓,0.770898399874568,True,17
67K32,420,experiment,36,←,left,←,0.8052159999497235,True,17
67K32,421,experiment,55,↑,up,↑,0.5857772000599653,True,17
67K32,422,experiment,44,↓,down,↓,0.878143300069496,True,17
67K32,423,experiment,34,↑,down,↓,0.8299853000789881,False,17
67K32,424,experiment,57,↓,down,↓,0.9114876999519765,True,17
67K32,425,experiment,13,↓,down,↓,0.739676799857989,True,17
67K32,426,experiment,38,↑,up,↑,0.6139492001384497,True,17
67K32,427,experiment,30,→,right,→,0.8581203001085669,True,17
67K32,428,experiment,46,↓,no_key,no_letter,-1.0,False,17
67K32,429,experiment,54,↑,no_key,no_letter,-1.0,False,17
67K32,430,experiment,16,←,left,←,0.6030359000433236,True,17
67K32,431,experiment,52,→,left,←,1.0734848999418318,False,17
67K32,432,experiment,47,↓,right,→,0.7445463000331074,False,17
67K32,433,experiment,60,↑,up,↑,0.6762345000170171,True,17
67K32,434,experiment,31,↓,down,↓,0.7737152001354843,True,17
67K32,435,experiment,27,↓,down,↓,0.6941998000256717,True,17
67K32,436,experiment,29,←,left,←,0.8482301000040025,True,17
67K32,437,experiment,35,↓,down,↓,0.6797974999062717,True,17
67K32,438,experiment,56,→,right,→,0.6323003000579774,True,17
67K32,439,experiment,48,↑,up,↑,0.6158955001737922,True,17
67K32,440,experiment,32,↑,no_key,no_letter,-1.0,False,17
67K32,441,training,16,→,right,→,0.7407780000939965,True,17
67K32,442,training,57,→,down,↓,0.3336950000375509,False,17
67K32,443,experiment,29,↑,up,↑,0.2664177999831736,True,17
67K32,444,experiment,20,←,up,↑,0.03494179993867874,False,17
67K32,445,experiment,41,↓,left,←,0.018353200051933527,False,17
67K32,446,experiment,47,↑,up,↑,0.7062600001227111,True,17
67K32,447,experiment,58,↑,up,↑,0.5927468000445515,True,17
67K32,448,experiment,25,↓,down,↓,0.7452338000293821,True,17
67K32,449,experiment,60,→,right,→,0.5971164000220597,True,17
67K32,450,experiment,46,↓,no_key,no_letter,-1.0,False,17
67K32,451,experiment,56,↓,down,↓,0.6458829999901354,True,17
67K32,452,experiment,26,↑,down,↓,0.7231872000265867,False,17
67K32,453,experiment,30,↑,up,↑,0.6354139999020845,True,17
67K32,454,experiment,31,→,no_key,no_letter,-1.0,False,17
67K32,455,experiment,15,←,no_key,no_letter,-1.0,False,17
67K32,456,experiment,19,↑,no_key,no_letter,-1.0,False,17
67K32,457,experiment,23,→,right,→,0.47455709986388683,True,17
67K32,458,experiment,43,→,right,→,0.532134999986738,True,17
67K32,459,experiment,22,→,left,←,0.6969574000686407,False,17
67K32,460,experiment,44,←,left,←,0.8007139000110328,True,17
67K32,461,experiment,52,→,right,→,0.7267854998353869,True,17
67K32,462,experiment,40,←,left,←,0.7925605000928044,True,17
67K32,463,experiment,57,↑,up,↑,0.6445061999838799,True,17
67K32,464,experiment,53,←,left,←,0.4808805000502616,True,17
67K32,465,experiment,14,→,right,→,0.7084740998689085,True,17
67K32,466,experiment,18,↑,up,↑,0.6374662001617253,True,17
67K32,467,experiment,55,←,left,←,0.6243824998382479,True,17
67K32,468,experiment,27,↓,down,↓,0.6147844998631626,True,17
67K32,469,experiment,32,↑,up,↑,0.5856719000730664,True,17
67K32,470,experiment,37,←,right,→,0.938261000206694,False,17
67K32,471,experiment,54,↓,down,↓,0.7782396001275629,True,17
67K32,472,experiment,35,→,right,→,0.6933639999479055,True,17
67K32,473,experiment,50,→,right,→,0.5618232002016157,True,17
67K32,474,experiment,39,→,left,←,0.9463523000013083,False,17
67K32,475,experiment,24,→,right,→,0.6619130000472069,True,17
67K32,476,experiment,28,↓,down,↓,0.6901306000072509,True,17
67K32,477,experiment,21,↓,down,↓,0.6815828999970108,True,17
67K32,478,experiment,59,→,right,→,0.7520158998668194,True,17
67K32,479,experiment,45,←,left,←,0.5249806998763233,True,17
67K32,480,experiment,51,↓,down,↓,0.6713451999239624,True,17
67K32,481,experiment,38,↓,down,↓,0.5801991999614984,True,17
67K32,482,experiment,36,↑,up,↑,0.6458356999792159,True,17
67K32,483,experiment,13,↑,up,↑,1.1804198001045734,True,17
67K32,484,experiment,17,←,left,←,0.7947912998497486,True,17
67K32,485,experiment,16,←,left,←,0.7058401999529451,True,17
67K32,486,experiment,33,→,right,→,0.528623899910599,True,17
67K32,487,experiment,34,↓,down,↓,0.5579582001082599,True,17
67K32,488,experiment,48,↑,no_key,no_letter,-1.0,False,17
67K32,489,experiment,42,↑,up,↑,0.6325112001504749,True,17
67K32,490,experiment,49,←,left,←,0.5995465000160038,True,17
67K32,491,training,58,↓,no_key,no_letter,-1.0,False,17
67K32,492,training,14,→,right,→,0.5433976999484003,True,17
67K32,493,experiment,41,↑,up,↑,1.519476299872622,True,17
67K32,494,experiment,49,←,left,←,0.7235191999934614,True,17
67K32,495,experiment,19,→,right,→,0.643211199901998,True,17
67K32,496,experiment,47,↑,up,↑,1.4035032000392675,True,17
67K32,497,experiment,53,←,left,←,0.6814739999826998,True,17
67K32,498,experiment,39,→,left,←,0.7409920999780297,False,17
67K32,499,experiment,48,→,right,→,0.6567017000634223,True,17
67K32,500,experiment,59,→,right,→,0.6164911000523716,True,17
67K32,501,experiment,26,→,right,→,0.543258200166747,True,17
67K32,502,experiment,38,←,left,←,0.6254161999095231,True,17
67K32,503,experiment,55,↑,up,↑,0.7411408999469131,True,17
67K32,504,experiment,43,↑,up,↑,0.6362242999020964,True,17
67K32,505,experiment,18,↑,up,↑,0.7834820998832583,True,17
67K32,506,experiment,58,→,right,→,0.6428952999413013,True,17
67K32,507,experiment,27,↓,down,↓,0.7045643001329154,True,17
67K32,508,experiment,17,↑,up,↑,0.5856574000790715,True,17
67K32,509,experiment,25,→,right,→,0.5784509000368416,True,17
67K32,510,experiment,16,←,left,←,0.56974279996939,True,17
67K32,511,experiment,56,↑,up,↑,0.49477630015462637,True,17
67K32,512,experiment,40,←,down,↓,0.6256118000019342,False,17
67K32,513,experiment,52,→,right,→,0.6395529999863356,True,17
67K32,514,experiment,21,←,left,←,0.6247266998980194,True,17
67K32,515,experiment,33,↑,up,↑,0.5789894999470562,True,17
67K32,516,experiment,20,↓,down,↓,0.6150406000670046,True,17
67K32,517,experiment,32,→,right,→,0.4978436001110822,True,17
67K32,518,experiment,46,←,left,←,0.6800947999581695,True,17
67K32,519,experiment,14,↓,up,↑,0.828226099954918,False,17
67K32,520,experiment,37,↓,down,↓,0.6758535001426935,True,17
67K32,521,experiment,31,←,left,←,0.6213863999582827,True,17
67K32,522,experiment,57,→,up,↑,1.5117087999824435,False,17
67K32,523,experiment,60,←,left,←,0.8369036000221968,True,17
67K32,524,experiment,45,↓,up,↑,0.5983054998796433,False,17
67K32,525,experiment,42,→,down,↓,0.034408400068059564,False,17
67K32,526,experiment,28,←,right,→,0.3171824000310153,False,17
67K32,527,experiment,34,→,right,→,0.7307267000433058,True,17
67K32,528,experiment,29,↑,no_key,no_letter,-1.0,False,17
67K32,529,experiment,36,←,left,←,0.5983831000048667,True,17
67K32,530,experiment,30,→,right,→,0.6674824000801891,True,17
67K32,531,experiment,54,↑,no_key,no_letter,-1.0,False,17
67K32,532,experiment,51,←,left,←,0.8233045998495072,True,17
67K32,533,experiment,24,↑,up,↑,0.647548699984327,True,17
67K32,534,experiment,50,↑,no_key,no_letter,-1.0,False,17
67K32,535,experiment,22,→,right,→,0.5458841999061406,True,17
67K32,536,experiment,15,←,left,←,1.0265393999870867,True,17
67K32,537,experiment,13,↑,up,↑,1.154197100084275,True,17
67K32,538,experiment,44,↑,up,↑,0.6480745000299066,True,17
67K32,539,experiment,23,↓,down,↓,0.6233726998325437,True,17
67K32,540,experiment,35,↑,up,↑,0.5923306997865438,True,17
67K32,541,training,53,↓,no_key,no_letter,-1.0,False,17
67K32,542,training,52,←,left,←,0.6295904000289738,True,17
67K32,543,experiment,59,↑,up,↑,0.6780039998702705,True,17
67K32,544,experiment,17,→,down,↓,0.7050689000170678,False,17
67K32,545,experiment,58,↓,down,↓,0.7672444998752326,True,17
67K32,546,experiment,37,→,up,↑,0.6970909000374377,False,17
67K32,547,experiment,20,→,left,←,0.6804265000391752,False,17
67K32,548,experiment,56,←,right,→,0.47317709983326495,False,17
67K32,549,experiment,57,←,left,←,0.5610744999721646,True,17
67K32,550,experiment,55,←,left,←,0.6473888999316841,True,17
67K32,551,experiment,13,→,right,→,0.5657522999681532,True,17
67K32,552,experiment,14,↓,left,←,0.6860696000512689,False,17
67K32,553,experiment,23,→,down,↓,0.5242836999241263,False,17
67K32,554,experiment,52,↓,left,←,1.238021400058642,False,17
67K32,555,experiment,35,↓,down,↓,0.6066266999114305,True,17
67K32,556,experiment,50,↓,down,↓,0.6383372000418603,True,17
67K32,557,experiment,25,←,left,←,0.6610801999922842,True,17
67K32,558,experiment,43,↓,down,↓,0.5913070000242442,True,17
67K32,559,experiment,48,↓,up,↑,0.792796399910003,False,17
67K32,560,experiment,34,→,right,→,0.7239465001039207,True,17
67K32,561,experiment,30,→,right,→,0.668005800107494,True,17
67K32,562,experiment,24,↑,up,↑,0.8500953998882324,True,17
67K32,563,experiment,27,→,right,→,0.6790627001319081,True,17
67K32,564,experiment,40,←,left,←,0.6181515001226217,True,17
67K32,565,experiment,21,↓,down,↓,0.7560471000615507,True,17
67K32,566,experiment,18,←,left,←,0.7148857000283897,True,17
67K32,567,experiment,39,↑,down,↓,0.8374299998395145,False,17
67K32,568,experiment,38,↑,up,↑,0.4995314998086542,True,17
67K32,569,experiment,19,↓,down,↓,0.6035376000218093,True,17
67K32,570,experiment,41,←,left,←,0.6252985000610352,True,17
67K32,571,experiment,36,←,left,←,0.48138739983551204,True,17
67K32,572,experiment,33,↑,left,←,0.48882780014537275,False,17
67K32,573,experiment,45,↑,up,↑,0.46453290013596416,True,17
67K32,574,experiment,16,→,left,←,0.6756849000230432,False,17
67K32,575,experiment,42,→,left,←,0.5019447000231594,False,17
67K32,576,experiment,29,←,left,←,0.45607950002886355,True,17
67K32,577,experiment,15,→,down,↓,0.383709599962458,False,17
67K32,578,experiment,46,↑,right,→,0.3337642999831587,False,17
67K32,579,experiment,54,↓,left,←,0.46840170002542436,False,17
67K32,580,experiment,26,↑,right,→,0.3337380001321435,False,17
67K32,581,experiment,53,↑,right,→,0.8568256001453847,False,17
67K32,582,experiment,22,→,right,→,0.5129446000792086,True,17
67K32,583,experiment,51,↑,left,←,0.5713488000910729,False,17
67K32,584,experiment,47,→,right,→,0.7742363000288606,True,17
67K32,585,experiment,60,↑,up,↑,0.5766573001164943,True,17
67K32,586,experiment,31,↓,down,↓,0.63015570002608,True,17
67K32,587,experiment,44,←,left,←,0.6166729000397027,True,17
67K32,588,experiment,32,→,right,→,0.6352746000047773,True,17
67K32,589,experiment,28,↑,up,↑,0.6881248999852687,True,17
67K32,590,experiment,49,↑,up,↑,0.57311060000211,True,17
