PART_ID,Trial_no,Trial_type,CSI,Stim_letter,Key_pressed,letter_choose,Rt,Corr,Stimulus Time
68M27,1,training,60,↓,no_key,no_letter,-1.0,False,30
68M27,2,training,60,→,right,→,1.0106192999519408,True,30
68M27,3,training,60,↓,down,↓,0.7293620998971164,True,30
68M27,4,training,60,←,left,←,2.0829883001279086,True,30
68M27,5,training,60,←,left,←,1.159094699891284,True,30
68M27,6,training,60,↓,down,↓,0.9365941002033651,True,30
68M27,7,training,60,↓,down,↓,1.0343238997738808,True,30
68M27,8,training,60,←,left,←,0.9283102001063526,True,30
68M27,9,training,60,↓,down,↓,0.9942556999158114,True,30
68M27,10,training,60,↑,up,↑,0.7855413001962006,True,30
68M27,11,training,60,←,left,←,0.721891799941659,True,30
68M27,12,training,60,↑,up,↑,0.7326306998729706,True,30
68M27,13,training,60,↓,down,↓,0.9743205001577735,True,30
68M27,14,training,60,↓,down,↓,0.9589329001028091,True,30
68M27,15,training,60,→,right,→,0.7842729000840336,True,30
68M27,16,training,60,↓,down,↓,1.0722590000368655,True,30
68M27,17,training,60,↑,up,↑,0.7889660999644548,True,30
68M27,18,training,60,←,left,←,0.852948300074786,True,30
68M27,19,training,60,↑,up,↑,0.8262791999150068,True,30
68M27,20,training,60,→,right,→,0.9530700999312103,True,30
68M27,21,training,60,←,left,←,0.6450084000825882,True,18
68M27,22,training,60,↓,down,↓,0.9303936001379043,True,18
68M27,23,training,60,↓,down,↓,0.7242941001895815,True,18
68M27,24,training,60,↑,up,↑,0.5111227000597864,True,18
68M27,25,training,60,→,right,→,0.7775328999850899,True,18
68M27,26,training,60,↑,up,↑,0.47365379985421896,True,18
68M27,27,training,60,←,left,←,0.5418066000565886,True,18
68M27,28,training,60,←,left,←,0.7037981001194566,True,18
68M27,29,training,60,↑,up,↑,0.9468151999171823,True,18
68M27,30,training,60,←,right,→,0.8124475998338312,False,18
68M27,31,training,60,←,left,←,0.6673344001173973,True,18
68M27,32,training,60,↓,down,↓,0.9038424999453127,True,18
68M27,33,training,60,→,right,→,0.8270592999178916,True,18
68M27,34,training,60,→,right,→,0.7608020000625402,True,18
68M27,35,training,60,↓,up,↑,0.9214314999990165,False,18
68M27,36,training,60,→,right,→,0.7243619998916984,True,18
68M27,37,training,60,→,right,→,0.5431343000382185,True,18
68M27,38,training,60,←,left,←,0.6970311000477523,True,18
68M27,39,training,60,←,left,←,0.6200949000194669,True,18
68M27,40,training,60,↓,down,↓,0.8268405999988317,True,18
68M27,41,training,29,→,right,→,0.6304552999790758,True,18
68M27,42,training,48,→,right,→,0.7337386000435799,True,18
68M27,43,experiment,47,↑,up,↑,0.6488389999140054,True,18
68M27,44,experiment,39,→,right,→,0.8450637001078576,True,18
68M27,45,experiment,46,↑,up,↑,0.5727860000915825,True,18
68M27,46,experiment,55,↑,up,↑,0.7059178000781685,True,18
68M27,47,experiment,37,←,left,←,0.7086744999978691,True,18
68M27,48,experiment,18,↑,up,↑,0.7329384000040591,True,18
68M27,49,experiment,30,↑,up,↑,0.5956864000763744,True,18
68M27,50,experiment,13,→,right,→,0.6117684999480844,True,18
68M27,51,experiment,16,↑,up,↑,0.5367417999077588,True,18
68M27,52,experiment,21,↑,up,↑,0.7977291999850422,True,18
68M27,53,experiment,35,↑,up,↑,0.6301620001904666,True,18
68M27,54,experiment,31,↑,up,↑,0.5767545001581311,True,18
68M27,55,experiment,22,→,right,→,0.6513819999527186,True,18
68M27,56,experiment,14,→,right,→,0.7121472998987883,True,18
68M27,57,experiment,42,←,left,←,0.5123640999663621,True,18
68M27,58,experiment,38,↑,up,↑,0.6350098999682814,True,18
68M27,59,experiment,50,←,left,←,0.4806286001112312,True,18
68M27,60,experiment,59,↓,down,↓,0.7897320000920445,True,18
68M27,61,experiment,28,←,left,←,0.7633330000098795,True,18
68M27,62,experiment,54,↓,down,↓,0.8487563000526279,True,18
68M27,63,experiment,45,↓,down,↓,0.7367132999934256,True,18
68M27,64,experiment,33,→,right,→,0.8134227998089045,True,18
68M27,65,experiment,52,↑,up,↑,0.5382999000139534,True,18
68M27,66,experiment,23,←,left,←,0.7815958000719547,True,18
68M27,67,experiment,25,→,right,→,0.7253871001303196,True,18
68M27,68,experiment,20,←,left,←,0.7316310999449342,True,18
68M27,69,experiment,17,→,right,→,0.8027839998248965,True,18
68M27,70,experiment,32,←,left,←,0.5013750998768955,True,18
68M27,71,experiment,43,→,right,→,0.7565810000523925,True,18
68M27,72,experiment,24,←,left,←,0.4947800000663847,True,18
68M27,73,experiment,19,↑,up,↑,0.8626859001815319,True,18
68M27,74,experiment,40,↑,up,↑,0.6021051001735032,True,18
68M27,75,experiment,48,→,right,→,0.47425150009803474,True,18
68M27,76,experiment,58,↓,down,↓,0.6402239999733865,True,18
68M27,77,experiment,41,↑,up,↑,0.6996365999802947,True,18
68M27,78,experiment,34,←,left,←,0.6646838998422027,True,18
68M27,79,experiment,57,←,left,←,0.520370899932459,True,18
68M27,80,experiment,60,←,left,←,0.6273335998412222,True,18
68M27,81,experiment,51,↓,down,↓,0.6169704999774694,True,18
68M27,82,experiment,56,↓,down,↓,0.6187545000575483,True,18
68M27,83,experiment,49,←,right,→,0.809574100188911,False,18
68M27,84,experiment,27,↓,down,↓,0.591440899996087,True,18
68M27,85,experiment,36,↑,up,↑,0.7122495998628438,True,18
68M27,86,experiment,44,↓,down,↓,0.7027318000327796,True,18
68M27,87,experiment,15,↓,down,↓,1.0086767000611871,True,18
68M27,88,experiment,26,←,left,←,0.863334400113672,True,18
68M27,89,experiment,29,↓,down,↓,0.6020514001138508,True,18
68M27,90,experiment,53,↓,down,↓,0.654011300066486,True,18
68M27,91,training,25,←,left,←,0.6630101001355797,True,17
68M27,92,training,36,←,left,←,0.4005555999465287,True,17
68M27,93,experiment,18,↓,down,↓,0.7602658998221159,True,17
68M27,94,experiment,52,→,right,→,0.719626700039953,True,17
68M27,95,experiment,32,←,left,←,0.4540789001621306,True,17
68M27,96,experiment,47,←,left,←,0.8275202999357134,True,17
68M27,97,experiment,51,↓,down,↓,1.1929424998816103,True,17
68M27,98,experiment,44,→,right,→,0.7722397998441011,True,17
68M27,99,experiment,42,↓,up,↑,0.8575007999315858,False,17
68M27,100,experiment,24,→,right,→,0.5354564001318067,True,17
68M27,101,experiment,49,↓,down,↓,0.5693352001253515,True,17
68M27,102,experiment,30,↓,down,↓,0.6947800000198185,True,17
68M27,103,experiment,29,↓,left,←,0.4171168999746442,False,17
68M27,104,experiment,56,↑,no_key,no_letter,-1.0,False,17
68M27,105,experiment,60,↓,down,↓,0.5796172001864761,True,17
68M27,106,experiment,36,→,no_key,no_letter,-1.0,False,17
68M27,107,experiment,20,↓,down,↓,0.6008683999534696,True,17
68M27,108,experiment,58,↓,down,↓,0.5779697999823838,True,17
68M27,109,experiment,19,→,right,→,0.7988592002075166,True,17
68M27,110,experiment,33,→,right,→,0.5046598000917584,True,17
68M27,111,experiment,25,→,right,→,0.6840877002105117,True,17
68M27,112,experiment,40,↓,down,↓,0.606233699945733,True,17
68M27,113,experiment,23,↑,up,↑,0.7348716000560671,True,17
68M27,114,experiment,38,↓,down,↓,0.9361485000699759,True,17
68M27,115,experiment,22,→,right,→,0.4527926000300795,True,17
68M27,116,experiment,39,←,no_key,no_letter,-1.0,False,17
68M27,117,experiment,21,→,no_key,no_letter,-1.0,False,17
68M27,118,experiment,46,←,left,←,0.35058420011773705,True,17
68M27,119,experiment,45,↓,up,↑,0.6101494000758976,False,17
68M27,120,experiment,27,→,right,→,0.5039683000650257,True,17
68M27,121,experiment,55,↑,up,↑,0.6875010000076145,True,17
68M27,122,experiment,59,↑,up,↑,0.6769850000273436,True,17
68M27,123,experiment,54,↑,up,↑,0.685974600026384,True,17
68M27,124,experiment,35,→,left,←,0.7155602001585066,False,17
68M27,125,experiment,48,↑,up,↑,0.47061980003491044,True,17
68M27,126,experiment,34,→,left,←,0.5492293999996036,False,17
68M27,127,experiment,28,→,no_key,no_letter,-1.0,False,17
68M27,128,experiment,31,←,no_key,no_letter,-1.0,False,17
68M27,129,experiment,15,↑,up,↑,0.5300116001162678,True,17
68M27,130,experiment,26,↑,up,↑,0.499913000036031,True,17
68M27,131,experiment,57,→,right,→,0.7220995000097901,True,17
68M27,132,experiment,41,→,right,→,0.7141700000502169,True,17
68M27,133,experiment,37,→,right,→,0.9245329999830574,True,17
68M27,134,experiment,17,←,no_key,no_letter,-1.0,False,17
68M27,135,experiment,43,↑,up,↑,0.46584529988467693,True,17
68M27,136,experiment,14,←,left,←,0.7258303998969495,True,17
68M27,137,experiment,50,←,right,→,0.8719548999797553,False,17
68M27,138,experiment,16,→,right,→,0.8107374000828713,True,17
68M27,139,experiment,53,←,left,←,0.6872203999664634,True,17
68M27,140,experiment,13,→,right,→,1.1471910001710057,True,17
68M27,141,training,56,↓,down,↓,0.7153155999258161,True,17
68M27,142,training,13,↑,up,↑,0.8697597999125719,True,17
68M27,143,experiment,29,←,left,←,0.46443639998324215,True,17
68M27,144,experiment,33,→,left,←,0.5751812001690269,False,17
68M27,145,experiment,57,→,right,→,0.7224703999236226,True,17
68M27,146,experiment,51,→,right,→,0.691883800085634,True,17
68M27,147,experiment,55,→,right,→,0.6759208999574184,True,17
68M27,148,experiment,18,→,right,→,0.8691447000019252,True,17
68M27,149,experiment,58,↑,up,↑,0.7561334001366049,True,17
68M27,150,experiment,59,↑,up,↑,0.7505640999879688,True,17
68M27,151,experiment,22,→,left,←,1.1218109999317676,False,17
68M27,152,experiment,25,→,right,→,0.7485199000220746,True,17
68M27,153,experiment,26,↑,up,↑,0.9173579001799226,True,17
68M27,154,experiment,41,→,right,→,0.7654654998332262,True,17
68M27,155,experiment,48,→,right,→,0.8144439999014139,True,17
68M27,156,experiment,38,←,right,→,0.828466400038451,False,17
68M27,157,experiment,43,↑,up,↑,0.9913023000117391,True,17
68M27,158,experiment,37,←,down,↓,1.0711709999013692,False,17
68M27,159,experiment,35,↑,up,↑,0.4776831001508981,True,17
68M27,160,experiment,28,↓,down,↓,1.0077066000085324,True,17
68M27,161,experiment,52,←,no_key,no_letter,-1.0,False,17
68M27,162,experiment,50,↑,up,↑,0.7020976999774575,True,17
68M27,163,experiment,21,→,left,←,1.0998041001148522,False,17
68M27,164,experiment,54,→,right,→,0.7398311998695135,True,17
68M27,165,experiment,24,→,right,→,0.7667054999619722,True,17
68M27,166,experiment,46,←,left,←,1.0013623000122607,True,17
68M27,167,experiment,36,←,no_key,no_letter,-1.0,False,17
68M27,168,experiment,45,↑,up,↑,0.5816915000323206,True,17
68M27,169,experiment,19,↑,up,↑,0.705399600090459,True,17
68M27,170,experiment,14,→,right,→,0.5477656999137253,True,17
68M27,171,experiment,56,→,right,→,0.7446324999909848,True,17
68M27,172,experiment,23,↑,up,↑,0.73174860002473,True,17
68M27,173,experiment,17,→,up,↑,0.947728400118649,False,17
68M27,174,experiment,32,←,left,←,0.7280430002138019,True,17
68M27,175,experiment,15,→,left,←,1.4812344999518245,False,17
68M27,176,experiment,13,→,right,→,0.7891860001254827,True,17
68M27,177,experiment,40,→,right,→,0.6911229998804629,True,17
68M27,178,experiment,16,→,right,→,0.7330989001784474,True,17
68M27,179,experiment,20,↑,up,↑,0.8187460000626743,True,17
68M27,180,experiment,39,↓,down,↓,0.5280432999134064,True,17
68M27,181,experiment,47,↓,down,↓,0.7157966000959277,True,17
68M27,182,experiment,44,↓,down,↓,0.8098061999771744,True,17
68M27,183,experiment,53,↓,down,↓,0.7585879000835121,True,17
68M27,184,experiment,34,→,right,→,0.7939832999836653,True,17
68M27,185,experiment,42,↑,up,↑,0.8145272999536246,True,17
68M27,186,experiment,49,↓,down,↓,0.7332768999040127,True,17
68M27,187,experiment,30,→,right,→,0.6437373000662774,True,17
68M27,188,experiment,27,↓,right,→,1.0326708001084626,False,17
68M27,189,experiment,31,↓,down,↓,0.8105775001458824,True,17
68M27,190,experiment,60,→,right,→,0.706706500146538,True,17
68M27,191,training,45,↑,up,↑,0.49674970004707575,True,17
68M27,192,training,28,→,right,→,0.465921200113371,True,17
68M27,193,experiment,34,↓,down,↓,0.7686429000459611,True,17
68M27,194,experiment,46,→,up,↑,0.9472686001099646,False,17
68M27,195,experiment,50,→,left,←,0.8045006000902504,False,17
68M27,196,experiment,38,←,left,←,0.6671651999931782,True,17
68M27,197,experiment,45,↓,down,↓,0.6183333999942988,True,17
68M27,198,experiment,15,←,left,←,0.47197409998625517,True,17
68M27,199,experiment,18,→,right,→,0.697017400059849,True,17
68M27,200,experiment,23,↑,up,↑,0.5817156999837607,True,17
68M27,201,experiment,26,←,left,←,0.6454781000502408,True,17
68M27,202,experiment,53,←,left,←,0.7366795998532325,True,17
68M27,203,experiment,51,←,left,←,0.8491972999181598,True,17
68M27,204,experiment,55,←,left,←,0.6826528999954462,True,17
68M27,205,experiment,24,↑,up,↑,0.7831943999044597,True,17
68M27,206,experiment,49,↑,up,↑,0.7430682999547571,True,17
68M27,207,experiment,40,→,right,→,0.9109984999522567,True,17
68M27,208,experiment,32,↑,up,↑,0.9176549999974668,True,17
68M27,209,experiment,27,↓,down,↓,0.6470306999981403,True,17
68M27,210,experiment,56,↑,up,↑,0.8637876999564469,True,17
68M27,211,experiment,20,→,right,→,0.8319654001388699,True,17
68M27,212,experiment,52,↓,down,↓,0.6836962001398206,True,17
68M27,213,experiment,41,→,right,→,0.7169953999109566,True,17
68M27,214,experiment,13,↑,up,↑,0.7116197000723332,True,17
68M27,215,experiment,42,←,left,←,0.7117665000259876,True,17
68M27,216,experiment,33,←,left,←,0.7739587998948991,True,17
68M27,217,experiment,54,→,left,←,0.9869839998427778,False,17
68M27,218,experiment,19,→,right,→,0.7510251000057906,True,17
68M27,219,experiment,36,↓,down,↓,0.8649719001259655,True,17
68M27,220,experiment,25,→,right,→,0.8541743999812752,True,17
68M27,221,experiment,30,↓,down,↓,0.63164889998734,True,17
68M27,222,experiment,59,↓,down,↓,0.7190352999605238,True,17
68M27,223,experiment,29,←,left,←,0.8149570000823587,True,17
68M27,224,experiment,22,↓,down,↓,0.8318517000880092,True,17
68M27,225,experiment,58,↓,down,↓,0.9918454999569803,True,17
68M27,226,experiment,47,←,left,←,0.6332076000981033,True,17
68M27,227,experiment,35,↑,up,↑,0.5123385998886079,True,17
68M27,228,experiment,16,→,right,→,1.1622872999869287,True,17
68M27,229,experiment,39,↓,down,↓,0.9701844998635352,True,17
68M27,230,experiment,21,↓,up,↑,1.0129992999136448,False,17
68M27,231,experiment,28,←,left,←,0.8657509998884052,True,17
68M27,232,experiment,14,↓,left,←,1.5739713001530617,False,17
68M27,233,experiment,43,↑,up,↑,0.5305417999625206,True,17
68M27,234,experiment,44,↑,up,↑,0.688788800034672,True,17
68M27,235,experiment,48,→,right,→,0.725032800110057,True,17
68M27,236,experiment,17,←,right,→,1.3089479999616742,False,17
68M27,237,experiment,57,↓,down,↓,0.7472347000148147,True,17
68M27,238,experiment,37,↑,up,↑,0.644606800051406,True,17
68M27,239,experiment,31,↑,down,↓,0.8782941000536084,False,17
68M27,240,experiment,60,←,left,←,0.7878992001060396,True,17
68M27,241,training,37,←,left,←,0.416699499823153,True,17
68M27,242,training,51,↓,left,←,0.9502533001359552,False,17
68M27,243,experiment,51,↑,up,↑,0.686273799976334,True,17
68M27,244,experiment,60,↑,up,↑,0.6111928999889642,True,17
68M27,245,experiment,59,↓,down,↓,0.6682093001436442,True,17
68M27,246,experiment,17,←,right,→,0.9416369998361915,False,17
68M27,247,experiment,33,↑,up,↑,1.1462350999936461,True,17
68M27,248,experiment,41,↑,up,↑,0.5296404999680817,True,17
68M27,249,experiment,31,↑,up,↑,0.5203921999782324,True,17
68M27,250,experiment,42,←,left,←,0.7436005999334157,True,17
68M27,251,experiment,28,↑,up,↑,0.7917921000625938,True,17
68M27,252,experiment,47,←,left,←,0.9929638002067804,True,17
68M27,253,experiment,50,→,right,→,0.8484163999091834,True,17
68M27,254,experiment,16,↑,up,↑,0.71559810009785,True,17
68M27,255,experiment,24,↑,up,↑,0.9749627001583576,True,17
68M27,256,experiment,48,→,right,→,0.6642096000723541,True,17
68M27,257,experiment,27,↓,down,↓,0.7796174997929484,True,17
68M27,258,experiment,56,→,right,→,0.6391535999719054,True,17
68M27,259,experiment,35,←,left,←,0.7184439999982715,True,17
68M27,260,experiment,57,←,left,←,0.7798703000880778,True,17
68M27,261,experiment,38,→,no_key,no_letter,-1.0,False,17
68M27,262,experiment,55,←,left,←,0.8402180999983102,True,17
68M27,263,experiment,30,↑,up,↑,0.45883630006574094,True,17
68M27,264,experiment,43,→,right,→,0.755893399938941,True,17
68M27,265,experiment,19,↑,up,↑,1.1929856000933796,True,17
68M27,266,experiment,54,→,right,→,0.7580971999559551,True,17
68M27,267,experiment,14,→,right,→,0.8141306999605149,True,17
68M27,268,experiment,44,↑,up,↑,0.7124908999539912,True,17
68M27,269,experiment,15,←,left,←,0.5305077000521123,True,17
68M27,270,experiment,18,↑,up,↑,0.8488626000471413,True,17
68M27,271,experiment,45,→,right,→,0.9530444999691099,True,17
68M27,272,experiment,23,←,left,←,0.8276996000204235,True,17
68M27,273,experiment,29,↑,up,↑,0.8395040999166667,True,17
68M27,274,experiment,39,↓,down,↓,0.7482306000310928,True,17
68M27,275,experiment,36,→,right,→,0.5104187000542879,True,17
68M27,276,experiment,58,↓,down,↓,0.915532800136134,True,17
68M27,277,experiment,46,↓,down,↓,1.0963614000938833,True,17
68M27,278,experiment,25,↓,down,↓,0.8041840000078082,True,17
68M27,279,experiment,21,↑,up,↑,0.7745139000471681,True,17
68M27,280,experiment,32,↑,up,↑,0.7701922999694943,True,17
68M27,281,experiment,53,↑,up,↑,1.0881847999989986,True,17
68M27,282,experiment,52,←,left,←,0.834266799967736,True,17
68M27,283,experiment,37,→,left,←,0.7767515999730676,False,17
68M27,284,experiment,26,↓,down,↓,1.0804365000221878,True,17
68M27,285,experiment,13,↑,up,↑,0.708405900048092,True,17
68M27,286,experiment,49,←,left,←,0.7675087000243366,True,17
68M27,287,experiment,40,←,left,←,0.7341602998785675,True,17
68M27,288,experiment,34,↑,up,↑,0.6423977999947965,True,17
68M27,289,experiment,22,→,right,→,0.8982412000186741,True,17
68M27,290,experiment,20,↓,down,↓,1.3368270001374185,True,17
68M27,291,training,30,←,left,←,0.6244755999650806,True,16
68M27,292,training,49,↓,left,←,0.7907924999017268,False,16
68M27,293,experiment,48,→,up,↑,0.47974490001797676,False,16
68M27,294,experiment,40,↑,up,↑,0.594382300041616,True,16
68M27,295,experiment,58,↓,down,↓,0.620200099889189,True,16
68M27,296,experiment,29,↑,up,↑,0.6563762000296265,True,16
68M27,297,experiment,53,←,left,←,0.8670006999745965,True,16
68M27,298,experiment,38,↓,right,→,0.8306790001224726,False,16
68M27,299,experiment,18,↑,up,↑,0.5456950000952929,True,16
68M27,300,experiment,32,→,right,→,0.8307731999084353,True,16
68M27,301,experiment,14,→,right,→,0.7563752999994904,True,16
68M27,302,experiment,43,↑,up,↑,0.8579278001561761,True,16
68M27,303,experiment,20,←,left,←,0.8101003998890519,True,16
68M27,304,experiment,27,→,right,→,0.6083256998099387,True,16
68M27,305,experiment,16,←,left,←,0.8617996000684798,True,16
68M27,306,experiment,44,←,left,←,1.3581584999337792,True,16
68M27,307,experiment,56,←,left,←,1.0029835000168532,True,16
68M27,308,experiment,57,←,down,↓,0.7249213000759482,False,16
68M27,309,experiment,60,→,right,→,0.7283737999387085,True,16
68M27,310,experiment,37,↑,up,↑,0.8348632000852376,True,16
68M27,311,experiment,34,←,left,←,0.47532179998233914,True,16
68M27,312,experiment,33,→,right,→,0.8903482998721302,True,16
68M27,313,experiment,55,↑,up,↑,1.0102202000562102,True,16
68M27,314,experiment,46,↑,up,↑,0.6916589001193643,True,16
68M27,315,experiment,13,↑,up,↑,0.5994725001510233,True,16
68M27,316,experiment,39,→,right,→,0.77372289984487,True,16
68M27,317,experiment,17,→,right,→,0.731635499978438,True,16
68M27,318,experiment,35,↑,up,↑,0.8550708000548184,True,16
68M27,319,experiment,22,↓,up,↑,0.886055100010708,False,16
68M27,320,experiment,21,→,left,←,0.804787099827081,False,16
68M27,321,experiment,26,→,left,←,0.9393974000122398,False,16
68M27,322,experiment,15,↑,up,↑,1.1240536000113934,True,16
68M27,323,experiment,28,←,left,←,0.7409030999988317,True,16
68M27,324,experiment,42,↑,up,↑,1.2753532999195158,True,16
68M27,325,experiment,24,←,left,←,0.8807250999379903,True,16
68M27,326,experiment,30,←,left,←,0.6173820998519659,True,16
68M27,327,experiment,49,↓,down,↓,1.7123690000735223,True,16
68M27,328,experiment,25,↓,down,↓,1.0834689000621438,True,16
68M27,329,experiment,41,↓,down,↓,0.7088083000853658,True,16
68M27,330,experiment,36,↓,up,↑,0.8329645001795143,False,16
68M27,331,experiment,50,←,up,↑,0.9743347000330687,False,16
68M27,332,experiment,19,←,left,←,0.8029363001696765,True,16
68M27,333,experiment,47,←,left,←,1.2436830000951886,True,16
68M27,334,experiment,59,←,left,←,0.6828502998687327,True,16
68M27,335,experiment,23,↑,up,↑,0.480221499921754,True,16
68M27,336,experiment,45,↑,up,↑,0.8233006000518799,True,16
68M27,337,experiment,31,←,left,←,0.8583726999349892,True,16
68M27,338,experiment,52,←,right,→,1.1334283999167383,False,16
68M27,339,experiment,51,↑,up,↑,0.5982512999325991,True,16
68M27,340,experiment,54,↓,down,↓,0.7140579000115395,True,16
68M27,341,training,36,↓,down,↓,0.7088822999503464,True,16
68M27,342,training,26,↓,down,↓,0.495329599827528,True,16
68M27,343,experiment,54,→,right,→,0.5760242000687867,True,16
68M27,344,experiment,43,→,left,←,0.6288054999895394,False,16
68M27,345,experiment,60,←,left,←,0.6361736999824643,True,16
68M27,346,experiment,14,←,left,←,0.4814985999837518,True,16
68M27,347,experiment,26,→,right,→,0.8368453998118639,True,16
68M27,348,experiment,30,↑,up,↑,0.895522499922663,True,16
68M27,349,experiment,35,→,up,↑,0.8528954000212252,False,16
68M27,350,experiment,55,→,right,→,0.7100416000466794,True,16
68M27,351,experiment,59,↑,right,→,1.0586202000267804,False,16
68M27,352,experiment,29,↓,down,↓,0.5574880999047309,True,16
68M27,353,experiment,39,←,up,↑,1.0532901999540627,False,16
68M27,354,experiment,28,→,right,→,1.0409301999025047,True,16
68M27,355,experiment,22,→,up,↑,0.8646921999752522,False,16
68M27,356,experiment,44,↑,up,↑,0.6488534000236541,True,16
68M27,357,experiment,13,↓,no_key,no_letter,-1.0,False,16
68M27,358,experiment,51,↑,up,↑,0.662931099999696,True,16
68M27,359,experiment,48,↑,up,↑,0.5406287999358028,True,16
68M27,360,experiment,53,←,left,←,0.6282689999789,True,16
68M27,361,experiment,46,↓,down,↓,0.8849237998947501,True,16
68M27,362,experiment,31,←,up,↑,1.0206608001608402,False,16
68M27,363,experiment,34,↑,up,↑,0.74958990002051,True,16
68M27,364,experiment,23,←,left,←,0.703969300026074,True,16
68M27,365,experiment,56,↑,up,↑,1.006875699851662,True,16
68M27,366,experiment,18,↑,up,↑,0.9866710999049246,True,16
68M27,367,experiment,38,→,right,→,0.8101864999625832,True,16
68M27,368,experiment,52,→,right,→,0.7035599001683295,True,16
68M27,369,experiment,42,←,left,←,0.6955319000408053,True,16
68M27,370,experiment,37,↓,down,↓,0.6832088001538068,True,16
68M27,371,experiment,47,→,right,→,0.5126066000666469,True,16
68M27,372,experiment,40,↑,right,→,0.7298657998908311,False,16
68M27,373,experiment,15,↓,down,↓,0.7467579999938607,True,16
68M27,374,experiment,25,→,right,→,0.5558183998800814,True,16
68M27,375,experiment,21,→,left,←,0.7759495999198407,False,16
68M27,376,experiment,57,←,left,←,0.6596180000342429,True,16
68M27,377,experiment,33,↓,down,↓,0.723230900010094,True,16
68M27,378,experiment,49,↑,up,↑,0.5101282999385148,True,16
68M27,379,experiment,36,←,left,←,0.5223842998966575,True,16
68M27,380,experiment,50,↑,up,↑,0.6198790001217276,True,16
68M27,381,experiment,45,←,right,→,0.48528359993360937,False,16
68M27,382,experiment,32,↑,up,↑,0.557055699871853,True,16
68M27,383,experiment,16,←,left,←,0.6278777001425624,True,16
68M27,384,experiment,20,←,left,←,0.7181150000542402,True,16
68M27,385,experiment,17,↑,up,↑,0.7580464999191463,True,16
68M27,386,experiment,41,↑,up,↑,0.49279540008865297,True,16
68M27,387,experiment,58,↓,down,↓,0.7390544000081718,True,16
68M27,388,experiment,19,↑,right,→,1.0327828000299633,False,16
68M27,389,experiment,24,↓,no_key,no_letter,-1.0,False,16
68M27,390,experiment,27,↓,down,↓,0.8080908998381346,True,16
68M27,391,training,60,→,right,→,0.7989213999826461,True,16
68M27,392,training,30,←,left,←,0.7707444000989199,True,16
68M27,393,experiment,46,↑,left,←,1.141490199835971,False,16
68M27,394,experiment,45,←,left,←,0.5301047000102699,True,16
68M27,395,experiment,37,↓,up,↑,0.7798841001931578,False,16
68M27,396,experiment,47,←,left,←,0.7652729998808354,True,16
68M27,397,experiment,48,↑,up,↑,1.2467603001277894,True,16
68M27,398,experiment,22,↓,down,↓,0.7338366000913084,True,16
68M27,399,experiment,44,↓,no_key,no_letter,-1.0,False,16
68M27,400,experiment,51,↑,up,↑,0.7081893999129534,True,16
68M27,401,experiment,31,↓,up,↑,0.6112724998965859,False,16
68M27,402,experiment,39,←,left,←,0.6411697000730783,True,16
68M27,403,experiment,17,←,left,←,0.7566013000905514,True,16
68M27,404,experiment,14,→,right,→,0.4453338000457734,True,16
68M27,405,experiment,26,↑,up,↑,0.5462493000086397,True,16
68M27,406,experiment,15,↓,down,↓,0.6657827999442816,True,16
68M27,407,experiment,30,←,left,←,0.8432395001873374,True,16
68M27,408,experiment,18,↓,up,↑,0.9339524998795241,False,16
68M27,409,experiment,49,↑,left,←,1.4800694999285042,False,16
68M27,410,experiment,57,↓,down,↓,0.7107647000811994,True,16
68M27,411,experiment,20,↑,up,↑,0.6452401999849826,True,16
68M27,412,experiment,34,←,left,←,0.5011289999820292,True,16
68M27,413,experiment,38,↑,up,↑,0.9679690999910235,True,16
68M27,414,experiment,53,←,right,→,0.9258218000177294,False,16
68M27,415,experiment,25,→,right,→,0.5127329002134502,True,16
68M27,416,experiment,21,↑,up,↑,1.2308273001108319,True,16
68M27,417,experiment,42,↓,down,↓,0.7213391000404954,True,16
68M27,418,experiment,29,↓,down,↓,0.6893589000683278,True,16
68M27,419,experiment,24,↓,down,↓,0.7180419000796974,True,16
68M27,420,experiment,55,→,right,→,0.8043511998839676,True,16
68M27,421,experiment,40,↓,up,↑,1.2337917999830097,False,16
68M27,422,experiment,54,→,left,←,1.068821799941361,False,16
68M27,423,experiment,36,↓,down,↓,0.7379712001420557,True,16
68M27,424,experiment,58,↓,right,→,0.9099765000864863,False,16
68M27,425,experiment,59,↓,down,↓,0.49851209996268153,True,16
68M27,426,experiment,32,←,left,←,0.7130873999558389,True,16
68M27,427,experiment,19,↑,down,↓,0.9678207000251859,False,16
68M27,428,experiment,41,↓,up,↑,0.8058199000079185,False,16
68M27,429,experiment,60,↑,up,↑,0.973618800053373,True,16
68M27,430,experiment,50,↓,up,↑,0.9821705999784172,False,16
68M27,431,experiment,43,←,no_key,no_letter,-1.0,False,16
68M27,432,experiment,23,←,left,←,0.5252008999232203,True,16
68M27,433,experiment,16,↓,up,↑,1.197803300106898,False,16
68M27,434,experiment,28,←,left,←,0.4351397999562323,True,16
68M27,435,experiment,56,↑,up,↑,0.6118593998253345,True,16
68M27,436,experiment,35,←,left,←,0.4374947000760585,True,16
68M27,437,experiment,13,→,up,↑,0.874098900007084,False,16
68M27,438,experiment,52,←,left,←,0.6845215000212193,True,16
68M27,439,experiment,27,↑,up,↑,0.7049601001199335,True,16
68M27,440,experiment,33,←,left,←,0.9575579999946058,True,16
68M27,441,training,39,→,right,→,0.6652112000156194,True,16
68M27,442,training,16,↓,down,↓,0.7878280999138951,True,16
68M27,443,experiment,42,→,right,→,0.5125865999143571,True,16
68M27,444,experiment,34,↑,up,↑,0.709826200036332,True,16
68M27,445,experiment,29,→,up,↑,1.8865663001779467,False,16
68M27,446,experiment,53,←,left,←,0.7599923999514431,True,16
68M27,447,experiment,17,←,left,←,0.6144423000514507,True,16
68M27,448,experiment,21,↓,down,↓,0.7117571998387575,True,16
68M27,449,experiment,35,↓,up,↑,0.7803877999540418,False,16
68M27,450,experiment,19,←,left,←,0.6324543000664562,True,16
68M27,451,experiment,39,↓,down,↓,0.5890315000433475,True,16
68M27,452,experiment,22,↑,up,↑,0.6552168000489473,True,16
68M27,453,experiment,26,↓,up,↑,0.451830199919641,False,16
68M27,454,experiment,18,←,left,←,0.7979204000439495,True,16
68M27,455,experiment,38,↑,up,↑,0.6445720999035984,True,16
68M27,456,experiment,58,→,right,→,0.5724477001931518,True,16
68M27,457,experiment,14,↑,up,↑,0.8365496001206338,True,16
68M27,458,experiment,24,←,down,↓,1.6913424001540989,False,16
68M27,459,experiment,54,↑,left,←,1.3798052000347525,False,16
68M27,460,experiment,30,→,right,→,0.8165330998599529,True,16
68M27,461,experiment,44,↓,left,←,0.9624111999291927,False,16
68M27,462,experiment,37,→,up,↑,0.8359117999207228,False,16
68M27,463,experiment,43,←,left,←,0.7579125999473035,True,16
68M27,464,experiment,45,↓,down,↓,0.8576663001440465,True,16
68M27,465,experiment,31,↑,up,↑,0.9392385999672115,True,16
68M27,466,experiment,59,↓,up,↑,1.5506367001216859,False,16
68M27,467,experiment,36,↓,down,↓,0.616565200034529,True,16
68M27,468,experiment,13,↓,down,↓,1.4631580000277609,True,16
68M27,469,experiment,20,↓,down,↓,0.7037390000186861,True,16
68M27,470,experiment,56,↑,up,↑,0.7745889998041093,True,16
68M27,471,experiment,27,←,left,←,1.3015582000371069,True,16
68M27,472,experiment,51,↑,up,↑,0.5679250000976026,True,16
68M27,473,experiment,47,→,right,→,0.6656725001521409,True,16
68M27,474,experiment,41,→,left,←,0.843578599859029,False,16
68M27,475,experiment,48,↑,up,↑,0.5784601999912411,True,16
68M27,476,experiment,16,→,right,→,0.49703209986910224,True,16
68M27,477,experiment,23,→,left,←,0.7105739999096841,False,16
68M27,478,experiment,15,←,left,←,0.6965222998987883,True,16
68M27,479,experiment,57,←,left,←,0.6232229999732226,True,16
68M27,480,experiment,25,↑,up,↑,0.733950899913907,True,16
68M27,481,experiment,28,→,left,←,0.8937345000449568,False,16
68M27,482,experiment,49,←,left,←,0.6899437999818474,True,16
68M27,483,experiment,60,→,right,→,0.47855079988949,True,16
68M27,484,experiment,33,↓,up,↑,0.7338471999391913,False,16
68M27,485,experiment,50,↓,down,↓,0.6312321999575943,True,16
68M27,486,experiment,32,↑,up,↑,0.9685418999288231,True,16
68M27,487,experiment,46,↑,left,←,1.1315716002136469,False,16
68M27,488,experiment,55,↑,up,↑,0.8651907001622021,True,16
68M27,489,experiment,52,↓,down,↓,1.0277023001108319,True,16
68M27,490,experiment,40,←,up,↑,1.2003395999781787,False,16
68M27,491,training,48,←,left,←,0.40007540001533926,True,16
68M27,492,training,29,↓,down,↓,0.633039299864322,True,16
68M27,493,experiment,35,↓,down,↓,0.4484264000784606,True,16
68M27,494,experiment,23,←,left,←,0.5671498998999596,True,16
68M27,495,experiment,43,←,left,←,0.4517314999829978,True,16
68M27,496,experiment,27,↓,down,↓,0.5676804000977427,True,16
68M27,497,experiment,21,←,left,←,0.6351903998292983,True,16
68M27,498,experiment,44,→,right,→,0.708517299965024,True,16
68M27,499,experiment,31,→,left,←,0.7475766998250037,False,16
68M27,500,experiment,37,→,left,←,0.7411750999744982,False,16
68M27,501,experiment,13,↑,up,↑,0.7189155998639762,True,16
68M27,502,experiment,48,←,left,←,0.858543099835515,True,16
68M27,503,experiment,22,↑,left,←,1.049584399908781,False,16
68M27,504,experiment,53,↓,down,↓,0.6605263000819832,True,16
68M27,505,experiment,18,↓,down,↓,0.4788230999838561,True,16
68M27,506,experiment,29,→,up,↑,0.8324171998538077,False,16
68M27,507,experiment,54,↓,down,↓,0.6429353998973966,True,16
68M27,508,experiment,55,←,left,←,0.6131219000089914,True,16
68M27,509,experiment,51,↓,down,↓,0.6422394998371601,True,16
68M27,510,experiment,20,←,left,←,0.5715290999505669,True,16
68M27,511,experiment,17,←,left,←,0.7296623000875115,True,16
68M27,512,experiment,15,↑,left,←,1.330226699821651,False,16
68M27,513,experiment,58,↑,down,↓,1.8151184001471847,False,16
68M27,514,experiment,49,↑,no_key,no_letter,-1.0,False,16
68M27,515,experiment,14,→,right,→,0.5348771999124438,True,16
68M27,516,experiment,16,↑,up,↑,0.911084100138396,True,16
68M27,517,experiment,32,→,right,→,0.5896350999828428,True,16
68M27,518,experiment,56,→,right,→,0.7290986999869347,True,16
68M27,519,experiment,39,↓,down,↓,0.7142290000338107,True,16
68M27,520,experiment,26,↑,up,↑,0.7725088000297546,True,16
68M27,521,experiment,45,→,right,→,1.143536200048402,True,16
68M27,522,experiment,33,↑,up,↑,0.5815308999735862,True,16
68M27,523,experiment,40,↑,down,↓,1.3144243999850005,False,16
68M27,524,experiment,57,←,left,←,0.7917194999754429,True,16
68M27,525,experiment,46,←,left,←,0.6097661000676453,True,16
68M27,526,experiment,47,↑,up,↑,0.538385699968785,True,16
68M27,527,experiment,50,←,left,←,0.6595147999469191,True,16
68M27,528,experiment,52,↑,up,↑,0.5668949999380857,True,16
68M27,529,experiment,19,↓,up,↑,0.7557612999808043,False,16
68M27,530,experiment,60,←,left,←,0.6295123000163585,True,16
68M27,531,experiment,28,→,left,←,1.1777512000408024,False,16
68M27,532,experiment,25,←,left,←,1.2901939998846501,True,16
68M27,533,experiment,41,↓,down,↓,0.9637832001317292,True,16
68M27,534,experiment,36,←,left,←,0.44506500009447336,True,16
68M27,535,experiment,59,→,right,→,0.5077682000119239,True,16
68M27,536,experiment,38,→,right,→,0.5824647999834269,True,16
68M27,537,experiment,30,↓,down,↓,0.70683449995704,True,16
68M27,538,experiment,24,↑,down,↓,0.926798100117594,False,16
68M27,539,experiment,34,→,right,→,0.6035848997998983,True,16
68M27,540,experiment,42,←,left,←,0.45589080010540783,True,16
68M27,541,training,39,→,left,←,0.7137385001406074,False,16
68M27,542,training,43,↑,up,↑,0.6561857000924647,True,16
68M27,543,experiment,15,→,left,←,0.716278700158,False,16
68M27,544,experiment,31,→,left,←,0.723235199926421,False,16
68M27,545,experiment,14,→,right,→,0.5891352000180632,True,16
68M27,546,experiment,58,↓,down,↓,0.7667801999486983,True,16
68M27,547,experiment,23,↑,up,↑,0.46506140008568764,True,16
68M27,548,experiment,30,←,left,←,0.7224425999447703,True,16
68M27,549,experiment,60,←,left,←,0.44616169994696975,True,16
68M27,550,experiment,44,↓,down,↓,0.4621514000464231,True,16
68M27,551,experiment,45,←,left,←,0.6380765000358224,True,16
68M27,552,experiment,35,↑,down,↓,0.5654168000910431,False,16
68M27,553,experiment,36,←,left,←,0.774823599960655,True,16
68M27,554,experiment,39,→,left,←,0.686343900160864,False,16
68M27,555,experiment,29,→,right,→,0.4875661002006382,True,16
68M27,556,experiment,16,↓,down,↓,0.8176208999939263,True,16
68M27,557,experiment,49,↓,down,↓,0.6643145999405533,True,16
68M27,558,experiment,28,←,left,←,0.7470211000181735,True,16
68M27,559,experiment,51,↓,down,↓,0.6108361999504268,True,16
68M27,560,experiment,27,→,right,→,0.5847606000024825,True,16
68M27,561,experiment,22,←,down,↓,0.8667576999869198,False,16
68M27,562,experiment,56,→,right,→,0.7309593998361379,True,16
68M27,563,experiment,24,→,up,↑,0.9737237000372261,False,16
68M27,564,experiment,18,↑,up,↑,0.8429982999805361,True,16
68M27,565,experiment,13,←,left,←,0.6730378998909146,True,16
68M27,566,experiment,19,↓,down,↓,0.6657692999579012,True,16
68M27,567,experiment,43,←,left,←,0.7380768000148237,True,16
68M27,568,experiment,25,←,left,←,0.8842829000204802,True,16
68M27,569,experiment,42,←,left,←,0.7487141999881715,True,16
68M27,570,experiment,48,→,right,→,0.5588086999487132,True,16
68M27,571,experiment,53,↓,down,↓,0.5334397000260651,True,16
68M27,572,experiment,38,↓,down,↓,0.5669495000038296,True,16
68M27,573,experiment,40,→,right,→,0.7576238999608904,True,16
68M27,574,experiment,21,↓,down,↓,0.6243445000145584,True,16
68M27,575,experiment,34,→,right,→,0.7207970998715609,True,16
68M27,576,experiment,52,↑,up,↑,0.7055408000014722,True,16
68M27,577,experiment,46,←,left,←,0.6630598001647741,True,16
68M27,578,experiment,41,→,right,→,0.537707099923864,True,16
68M27,579,experiment,33,←,left,←,0.7426869000773877,True,16
68M27,580,experiment,17,←,left,←,0.7013741999398917,True,16
68M27,581,experiment,59,←,left,←,0.49009819980710745,True,16
68M27,582,experiment,55,↑,up,↑,0.7543075999710709,True,16
68M27,583,experiment,47,←,left,←,0.6288451000582427,True,16
68M27,584,experiment,57,↑,up,↑,0.6380201999563724,True,16
68M27,585,experiment,54,↓,down,↓,0.568676499882713,True,16
68M27,586,experiment,37,←,left,←,0.7376605998724699,True,16
68M27,587,experiment,20,←,left,←,0.6708945999853313,True,16
68M27,588,experiment,32,↑,up,↑,0.5509323000442237,True,16
68M27,589,experiment,26,↓,down,↓,0.695607400033623,True,16
68M27,590,experiment,50,←,left,←,0.4748758999630809,True,16
