PART_ID,Trial_no,Trial_type,CSI,Stim_letter,Key_pressed,letter_choose,Rt,Corr,Stimulus Time
86K20,1,training,60,←,no_key,no_letter,-1.0,False,30
86K20,2,training,60,→,right,→,1.6259731999598444,True,30
86K20,3,training,60,→,right,→,2.058061599964276,True,30
86K20,4,training,60,→,right,→,1.4176761000417173,True,30
86K20,5,training,60,→,right,→,1.4020815000403672,True,30
86K20,6,training,60,↓,down,↓,2.10762959998101,True,30
86K20,7,training,60,→,right,→,1.3450294001959264,True,30
86K20,8,training,60,↓,up,↑,2.156526600010693,False,30
86K20,9,training,60,→,right,→,1.1199403000064194,True,30
86K20,10,training,60,→,right,→,0.9323165998794138,True,30
86K20,11,training,60,↓,down,↓,1.3681036999914795,True,30
86K20,12,training,60,↓,down,↓,1.1229228000156581,True,30
86K20,13,training,60,↓,down,↓,2.0314504001289606,True,30
86K20,14,training,60,→,right,→,1.015687800012529,True,30
86K20,15,training,60,→,right,→,0.767918499885127,True,30
86K20,16,training,60,→,right,→,0.7062792999204248,True,30
86K20,17,training,60,↓,down,↓,1.4071838001254946,True,30
86K20,18,training,60,→,right,→,0.6723961001262069,True,30
86K20,19,training,60,→,right,→,0.798343300120905,True,30
86K20,20,training,60,→,right,→,0.7431090001482517,True,30
86K20,21,training,60,←,left,←,0.9004530999809504,True,18
86K20,22,training,60,↓,down,↓,0.7770187000278383,True,18
86K20,23,training,60,↓,down,↓,0.8827821998856962,True,18
86K20,24,training,60,↓,down,↓,0.8323458000086248,True,18
86K20,25,training,60,→,right,→,0.6960663001518697,True,18
86K20,26,training,60,↑,down,↓,0.845210799947381,False,18
86K20,27,training,60,←,left,←,0.684221199946478,True,18
86K20,28,training,60,→,right,→,0.7537004000041634,True,18
86K20,29,training,60,←,left,←,0.6445749001577497,True,18
86K20,30,training,60,→,right,→,1.1155149000696838,True,18
86K20,31,training,60,→,right,→,0.551984699908644,True,18
86K20,32,training,60,←,left,←,0.5308517999947071,True,18
86K20,33,training,60,→,right,→,0.5904019000008702,True,18
86K20,34,training,60,←,left,←,0.5125969001092017,True,18
86K20,35,training,60,↑,right,→,1.236429300159216,False,18
86K20,36,training,60,←,left,←,0.8681338001042604,True,18
86K20,37,training,60,↑,up,↑,0.6504002998117357,True,18
86K20,38,training,60,→,left,←,1.0416339000221342,False,18
86K20,39,training,60,→,right,→,0.689334399998188,True,18
86K20,40,training,60,↑,left,←,1.3270017001777887,False,18
86K20,41,training,52,←,right,→,0.7760894999373704,False,18
86K20,42,training,18,→,left,←,1.070237800013274,False,18
86K20,43,experiment,45,↑,up,↑,0.5988171000499278,True,18
86K20,44,experiment,15,↑,up,↑,0.7815495000686496,True,18
86K20,45,experiment,59,↓,up,↑,0.8797750000376254,False,18
86K20,46,experiment,46,↓,down,↓,0.7517110002227128,True,18
86K20,47,experiment,20,↓,down,↓,0.9569554999470711,True,18
86K20,48,experiment,50,↓,up,↑,0.8787491000257432,False,18
86K20,49,experiment,42,→,down,↓,1.3854778001550585,False,18
86K20,50,experiment,14,→,up,↑,1.0177921999711543,False,18
86K20,51,experiment,48,→,right,→,1.3064312001224607,True,18
86K20,52,experiment,51,→,right,→,0.6457062000408769,True,18
86K20,53,experiment,54,↑,up,↑,1.2334171999245882,True,18
86K20,54,experiment,55,↑,up,↑,1.0045380999799818,True,18
86K20,55,experiment,29,↓,down,↓,0.9224499000702053,True,18
86K20,56,experiment,35,→,right,→,0.7911917001474649,True,18
86K20,57,experiment,58,↓,up,↑,1.3383435001596808,False,18
86K20,58,experiment,53,→,right,→,1.1474075000733137,True,18
86K20,59,experiment,13,←,left,←,0.8532424001023173,True,18
86K20,60,experiment,26,←,right,→,1.123090900015086,False,18
86K20,61,experiment,17,↓,up,↑,1.1561782001517713,False,18
86K20,62,experiment,37,↑,up,↑,0.7106180000118911,True,18
86K20,63,experiment,43,←,left,←,1.0629475000314415,True,18
86K20,64,experiment,24,←,right,→,1.093875000020489,False,18
86K20,65,experiment,30,↓,down,↓,0.8877034999895841,True,18
86K20,66,experiment,39,↑,up,↑,0.5873110999818891,True,18
86K20,67,experiment,33,→,right,→,0.4789200001396239,True,18
86K20,68,experiment,22,→,right,→,0.9016343001276255,True,18
86K20,69,experiment,36,←,up,↑,1.4665425000712276,False,18
86K20,70,experiment,56,↑,down,↓,1.411915099946782,False,18
86K20,71,experiment,44,↓,down,↓,0.9118684998247772,True,18
86K20,72,experiment,18,↓,no_key,no_letter,-1.0,False,18
86K20,73,experiment,38,↑,down,↓,1.3943433999083936,False,18
86K20,74,experiment,27,→,left,←,1.4101344998925924,False,18
86K20,75,experiment,49,←,left,←,0.9550877001602203,True,18
86K20,76,experiment,21,↑,left,←,1.6318091000430286,False,18
86K20,77,experiment,60,↓,down,↓,1.00835180003196,True,18
86K20,78,experiment,16,←,left,←,0.9504378000274301,True,18
86K20,79,experiment,52,↓,left,←,1.1431977001484483,False,18
86K20,80,experiment,40,→,right,→,0.664187700022012,True,18
86K20,81,experiment,25,←,left,←,0.669404000043869,True,18
86K20,82,experiment,57,←,left,←,1.3977801001165062,True,18
86K20,83,experiment,41,→,left,←,1.1477134998422116,False,18
86K20,84,experiment,19,→,down,↓,1.1380499000661075,False,18
86K20,85,experiment,47,↓,down,↓,1.4225512000266463,True,18
86K20,86,experiment,32,↑,down,↓,1.154423899948597,False,18
86K20,87,experiment,31,↓,down,↓,0.8566338999662548,True,18
86K20,88,experiment,28,→,right,→,0.6208530999720097,True,18
86K20,89,experiment,23,→,right,→,0.5732529999222606,True,18
86K20,90,experiment,34,↑,up,↑,0.7131394001189619,True,18
86K20,91,training,37,→,right,→,0.630756399827078,True,18
86K20,92,training,23,→,right,→,0.6868069001939148,True,18
86K20,93,experiment,52,←,left,←,0.6020577000454068,True,18
86K20,94,experiment,14,↑,up,↑,0.6573831001296639,True,18
86K20,95,experiment,13,↓,down,↓,1.2955561999697238,True,18
86K20,96,experiment,44,→,right,→,0.8239460999611765,True,18
86K20,97,experiment,37,←,left,←,0.743840100010857,True,18
86K20,98,experiment,17,←,right,→,1.1036356000695378,False,18
86K20,99,experiment,28,→,left,←,1.1622221998404711,False,18
86K20,100,experiment,41,↓,up,↑,0.9059089999645948,False,18
86K20,101,experiment,20,←,left,←,0.961533899884671,True,18
86K20,102,experiment,15,↑,up,↑,0.7945733000524342,True,18
86K20,103,experiment,35,↓,up,↑,0.9806226000655442,False,18
86K20,104,experiment,54,→,right,→,0.8106885000597686,True,18
86K20,105,experiment,25,↑,left,←,1.5147196999751031,False,18
86K20,106,experiment,43,→,right,→,0.7550839001778513,True,18
86K20,107,experiment,50,←,right,→,0.8925379000138491,False,18
86K20,108,experiment,16,↑,up,↑,0.8073670000303537,True,18
86K20,109,experiment,58,↑,down,↓,0.9540186000522226,False,18
86K20,110,experiment,55,↓,down,↓,0.7526552998460829,True,18
86K20,111,experiment,56,→,right,→,0.8223655999172479,True,18
86K20,112,experiment,18,←,left,←,0.8582909000106156,True,18
86K20,113,experiment,24,↓,down,↓,0.9214719000738114,True,18
86K20,114,experiment,30,→,right,→,0.593733899993822,True,18
86K20,115,experiment,19,↓,left,←,0.7742994998116046,False,18
86K20,116,experiment,42,↓,left,←,1.1008627000264823,False,18
86K20,117,experiment,46,←,left,←,1.1233659000135958,True,18
86K20,118,experiment,23,↓,down,↓,0.7840867999475449,True,18
86K20,119,experiment,45,↑,up,↑,0.5959250999148935,True,18
86K20,120,experiment,59,↓,down,↓,0.7262976998463273,True,18
86K20,121,experiment,57,↓,up,↑,0.8210271000862122,False,18
86K20,122,experiment,36,→,right,→,0.6132805999368429,True,18
86K20,123,experiment,38,↓,down,↓,1.011867200024426,True,18
86K20,124,experiment,26,↑,up,↑,0.755566000007093,True,18
86K20,125,experiment,34,↓,down,↓,0.9760711002163589,True,18
86K20,126,experiment,49,↑,up,↑,0.7139020999893546,True,18
86K20,127,experiment,33,←,left,←,0.5198407999705523,True,18
86K20,128,experiment,53,←,left,←,0.48074600007385015,True,18
86K20,129,experiment,40,↑,up,↑,1.0759482998400927,True,18
86K20,130,experiment,47,↓,down,↓,0.8109955999534577,True,18
86K20,131,experiment,22,←,up,↑,0.7731151001062244,False,18
86K20,132,experiment,21,←,left,←,0.8252534000203013,True,18
86K20,133,experiment,48,↑,up,↑,1.0097187000792474,True,18
86K20,134,experiment,51,←,up,↑,0.7930886999238282,False,18
86K20,135,experiment,39,↓,down,↓,0.8885980998165905,True,18
86K20,136,experiment,29,←,left,←,0.6427547999192029,True,18
86K20,137,experiment,60,→,up,↑,0.8347574998624623,False,18
86K20,138,experiment,32,←,up,↑,1.0293153999373317,False,18
86K20,139,experiment,27,↓,left,←,0.4676547001581639,False,18
86K20,140,experiment,31,↓,down,↓,0.6279761998448521,True,18
86K20,141,training,29,↓,down,↓,0.8052480998449028,True,18
86K20,142,training,19,←,left,←,0.5216729000676423,True,18
86K20,143,experiment,29,↓,down,↓,0.8902939001563936,True,18
86K20,144,experiment,46,←,right,→,0.9533337000757456,False,18
86K20,145,experiment,38,→,right,→,0.6272028000093997,True,18
86K20,146,experiment,59,←,left,←,0.6683231999631971,True,18
86K20,147,experiment,52,↓,right,→,1.0397671000100672,False,18
86K20,148,experiment,21,←,left,←,0.6417328000534326,True,18
86K20,149,experiment,45,←,right,→,0.9632964998017997,False,18
86K20,150,experiment,32,→,right,→,0.9603623000439256,True,18
86K20,151,experiment,49,→,left,←,1.3708290001377463,False,18
86K20,152,experiment,54,↓,down,↓,1.0816208000760525,True,18
86K20,153,experiment,18,→,down,↓,1.458931199973449,False,18
86K20,154,experiment,30,→,left,←,0.9822336998768151,False,18
86K20,155,experiment,26,←,left,←,0.6464916998520494,True,18
86K20,156,experiment,22,↑,left,←,0.7187181001063436,False,18
86K20,157,experiment,41,↓,left,←,0.8078729000408202,False,18
86K20,158,experiment,56,←,left,←,0.7715219999663532,True,18
86K20,159,experiment,60,↑,left,←,0.8698611999861896,False,18
86K20,160,experiment,14,↑,right,→,0.8826703999657184,False,18
86K20,161,experiment,35,↑,up,↑,0.6812972000334412,True,18
86K20,162,experiment,17,→,left,←,0.9391077999025583,False,18
86K20,163,experiment,15,→,right,→,0.548992200056091,True,18
86K20,164,experiment,39,→,left,←,0.9175714000593871,False,18
86K20,165,experiment,47,→,right,→,0.6106535999570042,True,18
86K20,166,experiment,51,←,left,←,0.8336977001745254,True,18
86K20,167,experiment,58,↑,up,↑,0.8908949999604374,True,18
86K20,168,experiment,48,→,right,→,0.5688250998500735,True,18
86K20,169,experiment,34,↓,down,↓,0.7883840000722557,True,18
86K20,170,experiment,50,↑,up,↑,0.7087913998402655,True,18
86K20,171,experiment,33,↑,down,↓,1.1720045998226851,False,18
86K20,172,experiment,53,↑,up,↑,1.6586411001626402,True,18
86K20,173,experiment,13,→,down,↓,1.1215174000244588,False,18
86K20,174,experiment,43,↑,up,↑,0.5535036001820117,True,18
86K20,175,experiment,36,→,left,←,0.9559210001025349,False,18
86K20,176,experiment,20,↓,up,↑,1.1458000000566244,False,18
86K20,177,experiment,42,↓,down,↓,0.7133866001386195,True,18
86K20,178,experiment,25,←,right,→,1.4690644000656903,False,18
86K20,179,experiment,37,↑,up,↑,1.242874399991706,True,18
86K20,180,experiment,28,←,left,←,0.5842089001089334,True,18
86K20,181,experiment,40,←,right,→,0.9348743001464754,False,18
86K20,182,experiment,16,→,right,→,0.7197247999720275,True,18
86K20,183,experiment,55,←,left,←,0.6474850000813603,True,18
86K20,184,experiment,27,↓,right,→,0.9885176001116633,False,18
86K20,185,experiment,19,↓,left,←,0.5852409000508487,False,18
86K20,186,experiment,24,↑,left,←,0.6186440999154001,False,18
86K20,187,experiment,23,→,right,→,1.0274437998887151,True,18
86K20,188,experiment,44,↓,left,←,0.8947914999444038,False,18
86K20,189,experiment,57,←,left,←,0.6625137000810355,True,18
86K20,190,experiment,31,→,left,←,1.5685739000327885,False,18
86K20,191,training,42,←,left,←,0.9082389001268893,True,19
86K20,192,training,44,↓,up,↑,1.0678577998187393,False,19
86K20,193,experiment,51,←,right,→,0.7923445999622345,False,19
86K20,194,experiment,15,↑,left,←,0.9201140999794006,False,19
86K20,195,experiment,18,←,right,→,0.7120658000931144,False,19
86K20,196,experiment,13,←,left,←,0.5565130000468343,True,19
86K20,197,experiment,33,→,right,→,0.8252554999198765,True,19
86K20,198,experiment,60,→,right,→,1.145512699848041,True,19
86K20,199,experiment,58,↓,down,↓,1.1669592999387532,True,19
86K20,200,experiment,30,↓,down,↓,0.6452351999469101,True,19
86K20,201,experiment,55,↑,up,↑,0.48851300007663667,True,19
86K20,202,experiment,56,↓,down,↓,0.7200055001303554,True,19
86K20,203,experiment,16,↓,down,↓,1.2497311001643538,True,19
86K20,204,experiment,37,←,down,↓,1.0561875998973846,False,19
86K20,205,experiment,22,↑,up,↑,0.592548199929297,True,19
86K20,206,experiment,40,←,left,←,0.4005501000210643,True,19
86K20,207,experiment,23,↑,left,←,0.8318650999572128,False,19
86K20,208,experiment,39,↑,up,↑,0.6615367000922561,True,19
86K20,209,experiment,41,←,left,←,0.6173107998911291,True,19
86K20,210,experiment,21,↓,left,←,1.2752172001637518,False,19
86K20,211,experiment,24,↑,up,↑,0.7536933999508619,True,19
86K20,212,experiment,44,↑,up,↑,0.9515029001049697,True,19
86K20,213,experiment,59,↑,up,↑,0.5634749999735504,True,19
86K20,214,experiment,25,←,left,←,1.2447180999442935,True,19
86K20,215,experiment,52,↓,right,→,1.6900279000401497,False,19
86K20,216,experiment,35,↓,down,↓,0.9210389000363648,True,19
86K20,217,experiment,50,→,right,→,0.5560703999362886,True,19
86K20,218,experiment,34,↑,up,↑,0.5680307999718934,True,19
86K20,219,experiment,53,→,right,→,0.623288800008595,True,19
86K20,220,experiment,27,→,right,→,0.5253596999682486,True,19
86K20,221,experiment,20,→,right,→,0.9400651999749243,True,19
86K20,222,experiment,36,↑,left,←,1.311910100048408,False,19
86K20,223,experiment,43,↑,up,↑,0.6965085999108851,True,19
86K20,224,experiment,31,←,down,↓,1.456303499871865,False,19
86K20,225,experiment,57,↑,up,↑,0.577882899902761,True,19
86K20,226,experiment,42,↑,up,↑,0.5284707001410425,True,19
86K20,227,experiment,38,↓,up,↑,0.3340732001233846,False,19
86K20,228,experiment,48,↑,right,→,1.7101664999499917,False,19
86K20,229,experiment,32,↓,down,↓,0.6378975999541581,True,19
86K20,230,experiment,49,↑,up,↑,0.5971006001345813,True,19
86K20,231,experiment,54,↑,up,↑,0.954589799977839,True,19
86K20,232,experiment,45,←,down,↓,0.44968770002014935,False,19
86K20,233,experiment,17,↑,right,→,0.9384946001227945,False,19
86K20,234,experiment,29,→,left,←,0.26678259996697307,False,19
86K20,235,experiment,14,↓,down,↓,0.6852537000086159,True,19
86K20,236,experiment,47,→,up,↑,0.5636798001360148,False,19
86K20,237,experiment,19,↓,down,↓,0.8010975001379848,True,19
86K20,238,experiment,28,↓,down,↓,0.567096299957484,True,19
86K20,239,experiment,46,←,left,←,1.1307304999791086,True,19
86K20,240,experiment,26,↓,down,↓,0.7492523998953402,True,19
86K20,241,training,44,↓,left,←,1.234494199976325,False,19
86K20,242,training,47,←,left,←,0.490605799946934,True,19
86K20,243,experiment,57,←,left,←,0.8417410999536514,True,19
86K20,244,experiment,38,↓,down,↓,0.6962506999261677,True,19
86K20,245,experiment,14,↑,down,↓,0.9393490999937057,False,19
86K20,246,experiment,50,↑,up,↑,0.5341787999495864,True,19
86K20,247,experiment,59,←,left,←,0.8185129000339657,True,19
86K20,248,experiment,17,↑,up,↑,0.8871202999725938,True,19
86K20,249,experiment,28,→,right,→,0.5702500999905169,True,19
86K20,250,experiment,39,→,right,→,0.5304187000729144,True,19
86K20,251,experiment,43,←,left,←,0.6813769000582397,True,19
86K20,252,experiment,56,←,left,←,0.5376446999143809,True,19
86K20,253,experiment,45,←,right,→,0.7354188000317663,False,19
86K20,254,experiment,21,↓,right,→,0.6206075998488814,False,19
86K20,255,experiment,16,↑,up,↑,0.7141988999210298,True,19
86K20,256,experiment,46,→,right,→,0.935954799875617,True,19
86K20,257,experiment,51,↓,up,↑,1.0655735000036657,False,19
86K20,258,experiment,25,↑,up,↑,0.6792126998770982,True,19
86K20,259,experiment,35,←,left,←,0.6053044002037495,True,19
86K20,260,experiment,24,↑,right,→,1.0942615999374539,False,19
86K20,261,experiment,52,↑,up,↑,0.5934774000197649,True,19
86K20,262,experiment,53,←,down,↓,0.8638793001882732,False,19
86K20,263,experiment,48,↑,up,↑,0.5022097998298705,True,19
86K20,264,experiment,22,↑,up,↑,0.7002322000917047,True,19
86K20,265,experiment,41,↓,down,↓,0.9501342000439763,True,19
86K20,266,experiment,18,↓,left,←,1.0287536000832915,False,19
86K20,267,experiment,20,→,right,→,0.7517095000948757,True,19
86K20,268,experiment,37,←,left,←,0.7460512998513877,True,19
86K20,269,experiment,23,↓,right,→,1.8136326000094414,False,19
86K20,270,experiment,36,↓,down,↓,0.8146065000910312,True,19
86K20,271,experiment,60,↑,right,→,0.943027599947527,False,19
86K20,272,experiment,55,→,right,→,0.6459861998446286,True,19
86K20,273,experiment,30,↓,down,↓,0.8330586000811309,True,19
86K20,274,experiment,40,↓,up,↑,1.7018842999823391,False,19
86K20,275,experiment,58,↓,no_key,no_letter,-1.0,False,19
86K20,276,experiment,49,↓,down,↓,0.5986603999044746,True,19
86K20,277,experiment,33,↑,down,↓,0.8656490000430495,False,19
86K20,278,experiment,44,→,right,→,0.2517806999385357,True,19
86K20,279,experiment,19,←,left,←,0.8896480998955667,True,19
86K20,280,experiment,32,↑,right,→,0.41712450003251433,False,19
86K20,281,experiment,42,↑,up,↑,0.677754599833861,True,19
86K20,282,experiment,27,←,left,←,0.6737526000943035,True,19
86K20,283,experiment,29,↓,down,↓,0.7564837001264095,True,19
86K20,284,experiment,26,→,right,→,0.6222210000269115,True,19
86K20,285,experiment,34,↑,left,←,1.1275902998168021,False,19
86K20,286,experiment,31,←,right,→,0.3164909998886287,False,19
86K20,287,experiment,47,←,left,←,1.1554715000092983,True,19
86K20,288,experiment,15,↑,up,↑,0.5644963001832366,True,19
86K20,289,experiment,54,→,right,→,0.6110572000034153,True,19
86K20,290,experiment,13,←,left,←,0.49909020005725324,True,19
86K20,291,training,16,↑,right,→,0.9125590000767261,False,19
86K20,292,training,18,→,right,→,0.8489262000657618,True,19
86K20,293,experiment,15,→,right,→,0.6775050999131054,True,19
86K20,294,experiment,57,↓,up,↑,1.093857100000605,False,19
86K20,295,experiment,38,↓,down,↓,0.8663706998340786,True,19
86K20,296,experiment,46,↑,down,↓,1.2422730000689626,False,19
86K20,297,experiment,59,←,down,↓,1.0509911000262946,False,19
86K20,298,experiment,16,↓,up,↑,1.0310571000445634,False,19
86K20,299,experiment,33,→,right,→,0.6887632000725716,True,19
86K20,300,experiment,13,↓,down,↓,0.7896529000718147,True,19
86K20,301,experiment,31,←,right,→,1.0904759999830276,False,19
86K20,302,experiment,14,↑,down,↓,1.0386548000387847,False,19
86K20,303,experiment,22,→,right,→,0.61580969998613,True,19
86K20,304,experiment,52,←,left,←,0.8298760000616312,True,19
86K20,305,experiment,44,↓,down,↓,0.7999948998913169,True,19
86K20,306,experiment,27,↑,down,↓,0.9906798000447452,False,19
86K20,307,experiment,20,→,right,→,0.6990618000272661,True,19
86K20,308,experiment,34,↓,up,↑,1.025348300114274,False,19
86K20,309,experiment,26,←,left,←,0.6240686001256108,True,19
86K20,310,experiment,19,↓,down,↓,0.7158303000032902,True,19
86K20,311,experiment,28,←,left,←,0.7891669000964612,True,19
86K20,312,experiment,32,↓,no_key,no_letter,-1.0,False,19
86K20,313,experiment,60,↓,right,→,1.5157173001207411,False,19
86K20,314,experiment,56,←,left,←,1.1392403999343514,True,19
86K20,315,experiment,30,→,left,←,0.7469828000757843,False,19
86K20,316,experiment,43,↑,up,↑,0.7134255999699235,True,19
86K20,317,experiment,48,↓,down,↓,0.7099186000414193,True,19
86K20,318,experiment,37,↓,up,↑,1.1299155000597239,False,19
86K20,319,experiment,58,↓,right,→,0.5278815000783652,False,19
86K20,320,experiment,25,←,left,←,0.9627017001621425,True,19
86K20,321,experiment,49,↑,left,←,0.9567426999565214,False,19
86K20,322,experiment,36,→,left,←,0.8555498002097011,False,19
86K20,323,experiment,51,↓,up,↑,1.0848010999616235,False,19
86K20,324,experiment,35,→,up,↑,1.1871476999949664,False,19
86K20,325,experiment,40,←,up,↑,1.5223678001202643,False,19
86K20,326,experiment,21,←,down,↓,1.1291181000415236,False,19
86K20,327,experiment,54,↓,down,↓,0.6735869999974966,True,19
86K20,328,experiment,47,↓,down,↓,0.5524901000317186,True,19
86K20,329,experiment,50,←,left,←,0.6183899999596179,True,19
86K20,330,experiment,39,↑,up,↑,0.5523981000296772,True,19
86K20,331,experiment,23,↓,up,↑,1.4203057999256998,False,19
86K20,332,experiment,45,↓,down,↓,0.7505972001235932,True,19
86K20,333,experiment,42,→,right,→,0.6934918998740613,True,19
86K20,334,experiment,55,←,up,↑,1.5267652999609709,False,19
86K20,335,experiment,18,→,up,↑,0.9830559000838548,False,19
86K20,336,experiment,53,↑,left,←,1.1897513999138027,False,19
86K20,337,experiment,41,→,right,→,0.5959656001068652,True,19
86K20,338,experiment,17,↓,left,←,1.3214571999851614,False,19
86K20,339,experiment,24,↓,left,←,0.87822650000453,False,19
86K20,340,experiment,29,↓,down,↓,1.024909800151363,True,19
86K20,341,training,58,↓,down,↓,0.9836645999457687,True,20
86K20,342,training,28,↑,up,↑,0.8946038000285625,True,20
86K20,343,experiment,54,↑,up,↑,0.8010186001192778,True,20
86K20,344,experiment,49,←,right,→,0.7286443999037147,False,20
86K20,345,experiment,59,→,right,→,0.6620635001454502,True,20
86K20,346,experiment,35,←,left,←,0.8694945999886841,True,20
86K20,347,experiment,55,↓,left,←,0.663185500074178,False,20
86K20,348,experiment,17,←,right,→,0.4503785001579672,False,20
86K20,349,experiment,37,→,right,→,0.567476499825716,True,20
86K20,350,experiment,21,↑,no_key,no_letter,-1.0,False,20
86K20,351,experiment,46,→,right,→,0.6705102000851184,True,20
86K20,352,experiment,33,↓,up,↑,0.966701100114733,False,20
86K20,353,experiment,40,←,right,→,0.6148876000661403,False,20
86K20,354,experiment,51,↓,down,↓,0.6610813001170754,True,20
86K20,355,experiment,53,→,no_key,no_letter,-1.0,False,20
86K20,356,experiment,22,↑,left,←,0.10036159981973469,False,20
86K20,357,experiment,32,↓,up,↑,0.8733380001503974,False,20
86K20,358,experiment,15,←,left,←,0.6057279000524431,True,20
86K20,359,experiment,25,→,up,↑,0.7419495999347419,False,20
86K20,360,experiment,44,↓,left,←,0.3838951999787241,False,20
86K20,361,experiment,45,↓,down,↓,1.0390646001324058,True,20
86K20,362,experiment,43,↓,down,↓,0.4671453000046313,True,20
86K20,363,experiment,56,←,up,↑,0.8744183999951929,False,20
86K20,364,experiment,19,↓,left,←,0.9880425999872386,False,20
86K20,365,experiment,28,←,left,←,0.6507492000237107,True,20
86K20,366,experiment,29,←,left,←,0.3838236001320183,True,20
86K20,367,experiment,16,←,right,→,0.7163952998816967,False,20
86K20,368,experiment,50,→,left,←,0.25053249998018146,False,20
86K20,369,experiment,42,→,left,←,0.18471010006032884,False,20
86K20,370,experiment,20,↑,right,→,0.383141600061208,False,20
86K20,371,experiment,36,↓,up,↑,0.38419910008087754,False,20
86K20,372,experiment,41,←,left,←,0.7468797999899834,True,20
86K20,373,experiment,34,←,left,←,0.4497442999854684,True,20
86K20,374,experiment,57,←,left,←,0.400642299791798,True,20
86K20,375,experiment,52,↑,right,→,0.46706110006198287,False,20
86K20,376,experiment,26,↓,left,←,0.06830250006169081,False,20
86K20,377,experiment,48,→,right,→,1.0690015000291169,True,20
86K20,378,experiment,38,←,left,←,0.8097971000242978,True,20
86K20,379,experiment,60,↑,no_key,no_letter,-1.0,False,20
86K20,380,experiment,39,↓,up,↑,1.2345980999525636,False,20
86K20,381,experiment,24,↑,down,↓,0.367078100098297,False,20
86K20,382,experiment,58,↓,up,↑,1.0372929000295699,False,20
86K20,383,experiment,31,←,right,→,1.1124701001681387,False,20
86K20,384,experiment,18,←,left,←,1.1292563998140395,True,20
86K20,385,experiment,30,←,left,←,0.609793100040406,True,20
86K20,386,experiment,23,↓,down,↓,0.7554096998646855,True,20
86K20,387,experiment,47,→,right,→,0.5911342001054436,True,20
86K20,388,experiment,14,↓,down,↓,0.5670692999847233,True,20
86K20,389,experiment,27,→,down,↓,0.8072298001497984,False,20
86K20,390,experiment,13,↑,up,↑,0.6711128000169992,True,20
86K20,391,training,33,→,right,→,0.5621515999082476,True,21
86K20,392,training,55,↑,up,↑,0.5203899999614805,True,21
86K20,393,experiment,43,→,right,→,0.4672851001378149,True,21
86K20,394,experiment,18,→,right,→,0.912640199996531,True,21
86K20,395,experiment,20,→,right,→,0.5682730998378247,True,21
86K20,396,experiment,49,↑,up,↑,0.9059180999174714,True,21
86K20,397,experiment,13,←,left,←,0.5980861999560148,True,21
86K20,398,experiment,34,↑,up,↑,0.5839738000649959,True,21
86K20,399,experiment,33,↑,up,↑,0.6595420998055488,True,21
86K20,400,experiment,14,↓,down,↓,0.6972018999513239,True,21
86K20,401,experiment,40,←,left,←,0.5553149997722358,True,21
86K20,402,experiment,21,→,right,→,0.5839297000784427,True,21
86K20,403,experiment,38,↓,up,↑,1.0163728999905288,False,21
86K20,404,experiment,58,←,right,→,0.5779615000355989,False,21
86K20,405,experiment,47,↓,left,←,0.8932701000012457,False,21
86K20,406,experiment,50,→,right,→,0.41651170002296567,True,21
86K20,407,experiment,26,→,left,←,0.8554953001439571,False,21
86K20,408,experiment,54,↓,right,→,0.43389929994009435,False,21
86K20,409,experiment,37,←,left,←,0.7607633001171052,True,21
86K20,410,experiment,25,↓,right,→,0.563566799974069,False,21
86K20,411,experiment,15,→,up,↑,0.9709925998467952,False,21
86K20,412,experiment,29,→,down,↓,1.002135599963367,False,21
86K20,413,experiment,31,↓,right,→,1.014331900049001,False,21
86K20,414,experiment,56,↓,down,↓,0.6897944000083953,True,21
86K20,415,experiment,52,→,up,↑,1.1806973998900503,False,21
86K20,416,experiment,22,←,left,←,0.5440014000050724,True,21
86K20,417,experiment,36,←,right,→,0.9152283000294119,False,21
86K20,418,experiment,23,→,right,→,1.0481853000819683,True,21
86K20,419,experiment,48,←,left,←,0.41667369985952973,True,21
86K20,420,experiment,51,←,right,→,0.6291529999580234,False,21
86K20,421,experiment,17,↑,right,→,0.6018741999287158,False,21
86K20,422,experiment,19,↓,up,↑,0.5818711000028998,False,21
86K20,423,experiment,27,↓,left,←,0.2506370998453349,False,21
86K20,424,experiment,46,↓,left,←,0.3664628998376429,False,21
86K20,425,experiment,24,←,left,←,0.2672741001006216,True,21
86K20,426,experiment,35,↓,down,↓,0.21820309991016984,True,21
86K20,427,experiment,60,→,down,↓,0.23342849989421666,False,21
86K20,428,experiment,16,↑,up,↑,1.0408842000178993,True,21
86K20,429,experiment,53,←,left,←,0.7334834998473525,True,21
86K20,430,experiment,30,→,right,→,0.5733179999515414,True,21
86K20,431,experiment,32,→,right,→,0.5699993001762778,True,21
86K20,432,experiment,59,↑,up,↑,0.6691600999329239,True,21
86K20,433,experiment,28,↓,down,↓,0.6886770001146942,True,21
86K20,434,experiment,44,↓,down,↓,0.6888162998948246,True,21
86K20,435,experiment,42,↓,down,↓,0.8504598999861628,True,21
86K20,436,experiment,55,↑,down,↓,0.6207842000294477,False,21
86K20,437,experiment,57,→,right,→,0.7035294999368489,True,21
86K20,438,experiment,41,→,right,→,0.8489134998526424,True,21
86K20,439,experiment,45,←,left,←,0.7780480999499559,True,21
86K20,440,experiment,39,↑,left,←,0.8983652999158949,False,21
86K20,441,training,31,↓,down,↓,1.147017000010237,True,21
86K20,442,training,20,↑,right,→,0.45023129996843636,False,21
86K20,443,experiment,16,→,left,←,0.350037399912253,False,21
86K20,444,experiment,40,←,right,→,0.2349368000868708,False,21
86K20,445,experiment,14,↑,no_key,no_letter,-1.0,False,21
86K20,446,experiment,46,↑,right,→,0.6069497999269515,False,21
86K20,447,experiment,35,←,left,←,0.5528122000396252,True,21
86K20,448,experiment,20,→,right,→,0.7098079998977482,True,21
86K20,449,experiment,57,→,right,→,1.2691695000976324,True,21
86K20,450,experiment,33,↑,up,↑,0.9338390999473631,True,21
86K20,451,experiment,27,←,left,←,0.5591001999564469,True,21
86K20,452,experiment,52,↓,down,↓,0.5673515000380576,True,21
86K20,453,experiment,48,↓,down,↓,0.6098545999266207,True,21
86K20,454,experiment,42,→,right,→,0.48384829983115196,True,21
86K20,455,experiment,58,→,left,←,0.828932800097391,False,21
86K20,456,experiment,49,←,right,→,0.9247413999401033,False,21
86K20,457,experiment,41,←,left,←,0.38331039994955063,True,21
86K20,458,experiment,25,←,no_key,no_letter,-1.0,False,21
86K20,459,experiment,34,←,right,→,0.536397899966687,False,21
86K20,460,experiment,47,←,left,←,0.6684806998819113,True,21
86K20,461,experiment,15,↑,right,→,1.1366743999533355,False,21
86K20,462,experiment,29,↓,right,→,0.760759900091216,False,21
86K20,463,experiment,18,←,left,←,0.33350720000453293,True,21
86K20,464,experiment,51,↑,up,↑,0.6324216998182237,True,21
86K20,465,experiment,24,→,right,→,0.4667735998518765,True,21
86K20,466,experiment,39,↓,down,↓,0.6753428999800235,True,21
86K20,467,experiment,44,↓,down,↓,0.612894200021401,True,21
86K20,468,experiment,55,←,right,→,0.3015096001327038,False,21
86K20,469,experiment,37,→,no_key,no_letter,-1.0,False,21
86K20,470,experiment,38,←,left,←,0.5466219000518322,True,21
86K20,471,experiment,54,←,no_key,no_letter,-1.0,False,21
86K20,472,experiment,59,↑,up,↑,0.6519980002194643,True,21
86K20,473,experiment,17,↑,up,↑,0.7274619000963867,True,21
86K20,474,experiment,19,→,up,↑,0.3832237001042813,False,21
86K20,475,experiment,30,←,right,→,0.33344159997068346,False,21
86K20,476,experiment,60,↓,left,←,0.36671880003996193,False,21
86K20,477,experiment,21,↓,right,→,0.6100854000542313,False,21
86K20,478,experiment,45,→,down,↓,0.23359639989212155,False,21
86K20,479,experiment,36,↓,left,←,1.199545199982822,False,21
86K20,480,experiment,50,←,right,→,0.33341780002228916,False,21
86K20,481,experiment,56,↓,up,↑,0.4834096999838948,False,21
86K20,482,experiment,26,↓,down,↓,0.6166389998979867,True,21
86K20,483,experiment,43,→,up,↑,1.15612079994753,False,21
86K20,484,experiment,31,↑,right,→,1.3307127999141812,False,21
86K20,485,experiment,22,←,right,→,0.9353831000626087,False,21
86K20,486,experiment,53,→,right,→,0.45068720006383955,True,21
86K20,487,experiment,32,↓,right,→,0.4498888000380248,False,21
86K20,488,experiment,28,↑,up,↑,0.7565911998972297,True,21
86K20,489,experiment,23,→,right,→,0.6637496000621468,True,21
86K20,490,experiment,13,↓,down,↓,0.9172994000837207,True,21
86K20,491,training,59,←,left,←,0.5450237998738885,True,21
86K20,492,training,20,←,left,←,0.4339316999539733,True,21
86K20,493,experiment,42,←,left,←,0.46682179998606443,True,21
86K20,494,experiment,30,→,left,←,0.28359670005738735,False,21
86K20,495,experiment,14,↓,right,→,0.8849034998565912,False,21
86K20,496,experiment,13,→,left,←,0.3672915999777615,False,21
86K20,497,experiment,34,↑,up,↑,0.5480641999747604,True,21
86K20,498,experiment,51,←,left,←,0.6773393999319524,True,21
86K20,499,experiment,22,→,left,←,1.3165897999424487,False,21
86K20,500,experiment,29,↓,right,→,1.0379083000589162,False,21
86K20,501,experiment,56,↓,left,←,0.28380120010115206,False,21
86K20,502,experiment,44,←,left,←,0.285130999982357,True,21
86K20,503,experiment,58,↓,left,←,0.3664766999427229,False,21
86K20,504,experiment,18,←,right,→,0.8075212999247015,False,21
86K20,505,experiment,47,↑,left,←,0.033929800149053335,False,21
86K20,506,experiment,39,↑,up,↑,1.0419989000074565,True,21
86K20,507,experiment,23,→,right,→,0.8421658999286592,True,21
86K20,508,experiment,60,←,left,←,0.9459282997995615,True,21
86K20,509,experiment,33,←,left,←,0.5596417000051588,True,21
86K20,510,experiment,55,→,right,→,0.6381878999527544,True,21
86K20,511,experiment,35,↑,right,→,0.9822123998310417,False,21
86K20,512,experiment,26,↑,left,←,1.1108383999671787,False,21
86K20,513,experiment,43,↑,left,←,0.9673633000347763,False,21
86K20,514,experiment,40,↑,right,→,0.11833149986341596,False,21
86K20,515,experiment,45,↓,left,←,0.06833369983360171,False,21
86K20,516,experiment,31,→,right,→,1.0417941000778228,True,21
86K20,517,experiment,49,→,no_key,no_letter,-1.0,False,21
86K20,518,experiment,21,↓,up,↑,0.46664590016007423,False,21
86K20,519,experiment,28,←,down,↓,0.5904379000421613,False,21
86K20,520,experiment,41,→,right,→,0.30001870007254183,True,21
86K20,521,experiment,54,↓,left,←,1.443686099955812,False,21
86K20,522,experiment,15,↑,up,↑,0.7693676000926644,True,21
86K20,523,experiment,19,↑,up,↑,0.694778700126335,True,21
86K20,524,experiment,48,→,right,→,0.6366030999924988,True,21
86K20,525,experiment,37,↑,left,←,1.8273543000686914,False,21
86K20,526,experiment,17,→,right,→,0.744753000093624,True,21
86K20,527,experiment,32,→,right,→,0.5355583999771625,True,21
86K20,528,experiment,16,↑,right,→,0.4664559999946505,False,21
86K20,529,experiment,25,←,left,←,0.6123803998343647,True,21
86K20,530,experiment,20,→,right,→,0.6159537001512945,True,21
86K20,531,experiment,57,↓,right,→,0.400621100096032,False,21
86K20,532,experiment,27,←,left,←,0.592444600071758,True,21
86K20,533,experiment,50,↓,down,↓,0.8724984999280423,True,21
86K20,534,experiment,59,↓,right,→,1.1519358998630196,False,21
86K20,535,experiment,24,↓,up,↑,0.9870879999361932,False,21
86K20,536,experiment,46,←,left,←,0.38377930014394224,True,21
86K20,537,experiment,36,←,left,←,0.35046360013075173,True,21
86K20,538,experiment,53,→,right,→,0.31718909996561706,True,21
86K20,539,experiment,38,↓,down,↓,1.5594036998227239,True,21
86K20,540,experiment,52,↑,up,↑,0.7040792000479996,True,21
86K20,541,training,34,↑,up,↑,0.5692265001125634,True,21
86K20,542,training,49,↓,up,↑,0.8829177001025528,False,21
86K20,543,experiment,40,↓,no_key,no_letter,-1.0,False,21
86K20,544,experiment,42,↑,up,↑,0.46670700004324317,True,21
86K20,545,experiment,24,←,left,←,0.4332161000929773,True,21
86K20,546,experiment,20,↓,up,↑,0.4174216999672353,False,21
86K20,547,experiment,41,→,right,→,0.45010829996317625,True,21
86K20,548,experiment,33,↑,up,↑,0.5259834001772106,True,21
86K20,549,experiment,15,→,right,→,0.7591260001063347,True,21
86K20,550,experiment,23,→,right,→,0.6109277999494225,True,21
86K20,551,experiment,19,←,left,←,0.8309196999762207,True,21
86K20,552,experiment,48,↑,no_key,no_letter,-1.0,False,21
86K20,553,experiment,55,←,left,←,0.4176980999764055,True,21
86K20,554,experiment,17,→,right,→,1.406979399966076,True,21
86K20,555,experiment,43,↑,right,→,0.6274012001231313,False,21
86K20,556,experiment,18,←,right,→,0.6397474999539554,False,21
86K20,557,experiment,13,↓,left,←,0.8708559998776764,False,21
86K20,558,experiment,36,↓,up,↑,0.5250313000287861,False,21
86K20,559,experiment,26,↓,down,↓,0.43390029994770885,True,21
86K20,560,experiment,44,→,down,↓,1.1204951999243349,False,21
86K20,561,experiment,38,←,right,→,0.2518292998429388,False,21
86K20,562,experiment,51,↓,left,←,0.16827939986251295,False,21
86K20,563,experiment,56,→,down,↓,0.284949499880895,False,21
86K20,564,experiment,16,←,right,→,0.6579542001709342,False,21
86K20,565,experiment,21,↓,down,↓,0.6348120998591185,True,21
86K20,566,experiment,46,←,left,←,0.5876850001513958,True,21
86K20,567,experiment,50,←,right,→,0.6677997999358922,False,21
86K20,568,experiment,29,↓,down,↓,0.598776200087741,True,21
86K20,569,experiment,59,←,left,←,0.5846007000654936,True,21
86K20,570,experiment,37,→,down,↓,0.6492298999801278,False,21
86K20,571,experiment,14,↓,no_key,no_letter,-1.0,False,21
86K20,572,experiment,45,→,right,→,0.8656981999520212,True,21
86K20,573,experiment,53,↓,down,↓,0.5889955000020564,True,21
86K20,574,experiment,27,→,left,←,1.3642223998904228,False,21
86K20,575,experiment,35,↓,down,↓,0.5744764001574367,True,21
86K20,576,experiment,25,→,right,→,0.5756204000208527,True,21
86K20,577,experiment,28,→,right,→,0.5831312998197973,True,21
86K20,578,experiment,47,↓,up,↑,1.6735471000429243,False,21
86K20,579,experiment,34,→,right,→,0.7374183998908848,True,21
86K20,580,experiment,52,→,right,→,0.6105337999761105,True,21
86K20,581,experiment,32,←,right,→,0.8859039000235498,False,21
86K20,582,experiment,58,↓,right,→,0.6294674999080598,False,21
86K20,583,experiment,39,←,left,←,0.9307188999373466,True,21
86K20,584,experiment,31,↓,left,←,1.1137850999366492,False,21
86K20,585,experiment,60,↓,down,↓,0.7344450000673532,True,21
86K20,586,experiment,30,↑,up,↑,0.8858910000417382,True,21
86K20,587,experiment,54,↑,up,↑,0.5840018999297172,True,21
86K20,588,experiment,57,↓,down,↓,0.6914607000071555,True,21
86K20,589,experiment,22,↑,down,↓,0.9145193002186716,False,21
86K20,590,experiment,49,↓,right,→,0.2672892000991851,False,21
