PART_ID,Trial_no,Trial_type,CSI,Stim_letter,Key_pressed,letter_choose,Rt,Corr,Stimulus Time
96K22,1,training,60,↑,up,↑,1.848012899979949,True,30
96K22,2,training,60,←,left,←,0.8456294999923557,True,30
96K22,3,training,60,→,right,→,0.674624300096184,True,30
96K22,4,training,60,→,right,→,0.7426654000300914,True,30
96K22,5,training,60,→,right,→,0.5849814999382943,True,30
96K22,6,training,60,→,right,→,0.5841065000277013,True,30
96K22,7,training,60,↑,up,↑,0.451700699981302,True,30
96K22,8,training,60,→,right,→,0.7372678001411259,True,30
96K22,9,training,60,↓,down,↓,0.7872895000036806,True,30
96K22,10,training,60,↑,up,↑,0.7073942997958511,True,30
96K22,11,training,60,→,right,→,0.5507267999928445,True,30
96K22,12,training,60,↓,down,↓,0.8231997999828309,True,30
96K22,13,training,60,←,left,←,0.6168685997836292,True,30
96K22,14,training,60,↓,down,↓,0.6918248001020402,True,30
96K22,15,training,60,→,right,→,0.5506766999606043,True,30
96K22,16,training,60,←,left,←,0.7765329999383539,True,30
96K22,17,training,60,→,right,→,0.6175720000173897,True,30
96K22,18,training,60,←,left,←,1.8146809998434037,True,30
96K22,19,training,60,→,right,→,0.6167156000155956,True,30
96K22,20,training,60,↑,up,↑,0.5506461001932621,True,30
96K22,21,training,60,↓,down,↓,0.6385647000279278,True,18
96K22,22,training,60,←,left,←,0.6125523999799043,True,18
96K22,23,training,60,↑,up,↑,0.4912042000796646,True,18
96K22,24,training,60,←,left,←,0.6472729002125561,True,18
96K22,25,training,60,↓,down,↓,0.5487283999100327,True,18
96K22,26,training,60,↑,up,↑,0.5177899999544024,True,18
96K22,27,training,60,↑,up,↑,0.5365000001620501,True,18
96K22,28,training,60,↓,down,↓,1.7705827001482248,True,18
96K22,29,training,60,↓,up,↑,1.2032377000432462,False,18
96K22,30,training,60,→,right,→,0.7066315000411123,True,18
96K22,31,training,60,→,right,→,0.5420713999774307,True,18
96K22,32,training,60,↑,up,↑,0.5918419000227004,True,18
96K22,33,training,60,→,right,→,0.6319435001350939,True,18
96K22,34,training,60,↓,down,↓,0.6777988998219371,True,18
96K22,35,training,60,←,left,←,0.5857931999489665,True,18
96K22,36,training,60,→,right,→,0.5298369000665843,True,18
96K22,37,training,60,↑,up,↑,0.5877451000269502,True,18
96K22,38,training,60,←,left,←,0.5236608998384327,True,18
96K22,39,training,60,↑,up,↑,0.7344432999379933,True,18
96K22,40,training,60,→,right,→,0.5370465000160038,True,18
96K22,41,training,30,←,left,←,0.6171417001169175,True,18
96K22,42,training,50,↓,down,↓,0.6151864998973906,True,18
96K22,43,experiment,27,↓,down,↓,0.9405030999332666,True,18
96K22,44,experiment,39,↑,up,↑,0.8772456001024693,True,18
96K22,45,experiment,42,←,left,←,0.6463977000676095,True,18
96K22,46,experiment,43,↓,right,→,1.231942699989304,False,18
96K22,47,experiment,56,↑,up,↑,0.5690130000002682,True,18
96K22,48,experiment,15,←,left,←,0.8964373997878283,True,18
96K22,49,experiment,48,→,right,→,0.5644125998951495,True,18
96K22,50,experiment,17,←,left,←,0.9063761001452804,True,18
96K22,51,experiment,31,←,left,←,0.5697407000698149,True,18
96K22,52,experiment,33,↑,up,↑,0.47720519988797605,True,18
96K22,53,experiment,46,→,right,→,0.5473882998339832,True,18
96K22,54,experiment,47,↑,up,↑,0.6461487000342458,True,18
96K22,55,experiment,25,←,left,←,0.47513399994932115,True,18
96K22,56,experiment,18,→,left,←,0.8598570001777261,False,18
96K22,57,experiment,35,↓,up,↑,0.7544392999261618,False,18
96K22,58,experiment,20,↑,up,↑,0.6791342999786139,True,18
96K22,59,experiment,30,→,right,→,0.5924038998782635,True,18
96K22,60,experiment,51,→,right,→,0.6391455000266433,True,18
96K22,61,experiment,52,↓,down,↓,0.827019999967888,True,18
96K22,62,experiment,57,↑,up,↑,0.4925156000535935,True,18
96K22,63,experiment,29,↓,down,↓,0.6620196001604199,True,18
96K22,64,experiment,50,→,right,→,0.8743735000025481,True,18
96K22,65,experiment,44,→,right,→,0.5783315000589937,True,18
96K22,66,experiment,40,↑,up,↑,0.5693468998651952,True,18
96K22,67,experiment,55,↓,down,↓,0.5897223001811653,True,18
96K22,68,experiment,24,→,right,→,0.5026495999190956,True,18
96K22,69,experiment,59,←,left,←,0.6590165998786688,True,18
96K22,70,experiment,49,←,right,→,0.5043990998528898,False,18
96K22,71,experiment,53,→,right,→,0.656965299975127,True,18
96K22,72,experiment,28,→,right,→,0.5004334999248385,True,18
96K22,73,experiment,41,↓,down,↓,0.7730431000236422,True,18
96K22,74,experiment,38,↓,down,↓,0.4695454000029713,True,18
96K22,75,experiment,16,→,right,→,0.4872433999553323,True,18
96K22,76,experiment,13,↑,up,↑,0.8589923998806626,True,18
96K22,77,experiment,58,↓,down,↓,0.6746799000538886,True,18
96K22,78,experiment,21,→,right,→,0.5056308000348508,True,18
96K22,79,experiment,34,↓,down,↓,0.5350770000368357,True,18
96K22,80,experiment,36,↓,down,↓,0.7697958000935614,True,18
96K22,81,experiment,45,↓,down,↓,0.6609542998485267,True,18
96K22,82,experiment,19,←,left,←,0.6623201000038534,True,18
96K22,83,experiment,22,↓,right,→,1.0453244000673294,False,18
96K22,84,experiment,26,↓,down,↓,0.5863644999917597,True,18
96K22,85,experiment,60,→,right,→,0.5633312999270856,True,18
96K22,86,experiment,14,→,right,→,0.5398729001171887,True,18
96K22,87,experiment,32,↓,down,↓,0.6569535001181066,True,18
96K22,88,experiment,37,↓,down,↓,0.5827955000568181,True,18
96K22,89,experiment,54,→,right,→,0.595001800218597,True,18
96K22,90,experiment,23,→,no_key,no_letter,-1.0,False,18
96K22,91,training,24,↑,up,↑,0.5651091001927853,True,18
96K22,92,training,20,↓,down,↓,0.5532799002248794,True,18
96K22,93,experiment,34,↓,down,↓,0.5962338000535965,True,18
96K22,94,experiment,48,←,left,←,0.660312999971211,True,18
96K22,95,experiment,59,↑,up,↑,0.6829373999498785,True,18
96K22,96,experiment,58,↓,down,↓,0.5770070999860764,True,18
96K22,97,experiment,38,←,right,→,0.400924599962309,False,18
96K22,98,experiment,15,→,right,→,0.5502981001045555,True,18
96K22,99,experiment,19,↓,down,↓,0.6681989000644535,True,18
96K22,100,experiment,17,↓,down,↓,0.5748922000639141,True,18
96K22,101,experiment,16,←,left,←,0.7003034001681954,True,18
96K22,102,experiment,30,↓,down,↓,0.6282681000884622,True,18
96K22,103,experiment,55,←,right,→,0.9109064999502152,False,18
96K22,104,experiment,60,→,right,→,0.6669421999249607,True,18
96K22,105,experiment,51,→,right,→,0.5662648000288755,True,18
96K22,106,experiment,43,↓,down,↓,0.866963499924168,True,18
96K22,107,experiment,35,←,left,←,0.6729774000123143,True,18
96K22,108,experiment,29,↑,up,↑,0.6988614001311362,True,18
96K22,109,experiment,18,←,left,←,0.5708071000408381,True,18
96K22,110,experiment,52,↓,down,↓,0.7059509002137929,True,18
96K22,111,experiment,33,←,left,←,0.655666199978441,True,18
96K22,112,experiment,50,↑,up,↑,0.6283303999807686,True,18
96K22,113,experiment,26,↓,down,↓,0.5063255000859499,True,18
96K22,114,experiment,23,←,left,←,0.5109168998897076,True,18
96K22,115,experiment,53,→,right,→,0.55950150010176,True,18
96K22,116,experiment,49,→,right,→,0.6089246000628918,True,18
96K22,117,experiment,40,→,right,→,0.5186258999165148,True,18
96K22,118,experiment,37,←,left,←,0.7049261000938714,True,18
96K22,119,experiment,57,↓,down,↓,0.6070016000885516,True,18
96K22,120,experiment,44,↑,up,↑,0.5135389000643045,True,18
96K22,121,experiment,42,↑,up,↑,0.6495615998283029,True,18
96K22,122,experiment,24,↑,up,↑,0.5355873999651521,True,18
96K22,123,experiment,13,↑,up,↑,0.681641299976036,True,18
96K22,124,experiment,54,→,right,→,0.6263653000351042,True,18
96K22,125,experiment,27,→,right,→,0.5996109000407159,True,18
96K22,126,experiment,31,←,left,←,0.6347805000841618,True,18
96K22,127,experiment,56,←,right,→,1.628224599873647,False,18
96K22,128,experiment,36,→,right,→,0.675909899873659,True,18
96K22,129,experiment,21,↓,down,↓,0.6749309001024812,True,18
96K22,130,experiment,39,→,right,→,0.6061537000350654,True,18
96K22,131,experiment,28,→,right,→,0.6915541999042034,True,18
96K22,132,experiment,45,←,right,→,0.7385203999001533,False,18
96K22,133,experiment,20,←,left,←,0.6556013999506831,True,18
96K22,134,experiment,22,↑,up,↑,0.5669066000264138,True,18
96K22,135,experiment,32,→,right,→,0.8909423998557031,True,18
96K22,136,experiment,46,↑,up,↑,0.5048722000792623,True,18
96K22,137,experiment,14,↓,down,↓,0.6994239999912679,True,18
96K22,138,experiment,25,→,left,←,0.6389385999646038,False,18
96K22,139,experiment,41,↓,down,↓,0.6184030999429524,True,18
96K22,140,experiment,47,←,left,←,0.6983403000049293,True,18
96K22,141,training,49,↓,down,↓,0.8476640998851508,True,18
96K22,142,training,30,↑,up,↑,0.6174933000002056,True,18
96K22,143,experiment,52,←,left,←,0.5184446999337524,True,18
96K22,144,experiment,60,→,right,→,0.5135296999942511,True,18
96K22,145,experiment,21,↑,up,↑,0.5749181001447141,True,18
96K22,146,experiment,40,→,right,→,0.68554210010916,True,18
96K22,147,experiment,50,→,right,→,0.6087809999007732,True,18
96K22,148,experiment,48,↓,down,↓,0.9528338999953121,True,18
96K22,149,experiment,59,↑,up,↑,0.5558871000539511,True,18
96K22,150,experiment,19,↑,up,↑,0.6327678998932242,True,18
96K22,151,experiment,15,↑,up,↑,0.5015275999903679,True,18
96K22,152,experiment,44,↓,down,↓,0.6441107999999076,True,18
96K22,153,experiment,18,↑,up,↑,0.6789591000415385,True,18
96K22,154,experiment,42,↑,up,↑,0.5682686001528054,True,18
96K22,155,experiment,34,↑,up,↑,0.6828274999279529,True,18
96K22,156,experiment,23,↑,up,↑,0.6564384000375867,True,18
96K22,157,experiment,29,↓,down,↓,0.6111487001180649,True,18
96K22,158,experiment,36,↓,down,↓,0.5387767001520842,True,18
96K22,159,experiment,28,↑,up,↑,0.6590597999747843,True,18
96K22,160,experiment,22,→,right,→,0.5301544000394642,True,18
96K22,161,experiment,45,→,right,→,0.6954777999781072,True,18
96K22,162,experiment,56,←,left,←,0.6308395001105964,True,18
96K22,163,experiment,26,←,left,←,0.5564255001954734,True,18
96K22,164,experiment,46,↑,up,↑,0.623499299865216,True,18
96K22,165,experiment,43,←,left,←,0.6661142997909337,True,18
96K22,166,experiment,37,↑,up,↑,0.5991447998676449,True,18
96K22,167,experiment,31,↓,up,↑,0.7223333998117596,False,18
96K22,168,experiment,30,→,right,→,0.6094631999731064,True,18
96K22,169,experiment,16,↑,up,↑,0.5908701000735164,True,18
96K22,170,experiment,53,←,left,←,0.6362038000952452,True,18
96K22,171,experiment,51,→,right,→,0.5610918998718262,True,18
96K22,172,experiment,55,↓,down,↓,0.7422598998527974,True,18
96K22,173,experiment,47,↓,down,↓,0.705630199983716,True,18
96K22,174,experiment,13,↑,up,↑,0.6927465000189841,True,18
96K22,175,experiment,17,→,right,→,0.6623881000559777,True,18
96K22,176,experiment,41,↓,down,↓,0.6008335000369698,True,18
96K22,177,experiment,32,↑,up,↑,0.5874660001136363,True,18
96K22,178,experiment,24,↓,down,↓,0.7003645000513643,True,18
96K22,179,experiment,25,←,left,←,0.5274227000772953,True,18
96K22,180,experiment,33,↓,down,↓,0.5489325001835823,True,18
96K22,181,experiment,27,←,left,←,0.6688188998959959,True,18
96K22,182,experiment,14,←,left,←,0.7210095000918955,True,18
96K22,183,experiment,20,→,right,→,0.6467484999448061,True,18
96K22,184,experiment,35,↓,down,↓,0.7574010000098497,True,18
96K22,185,experiment,54,↑,up,↑,0.6034483001567423,True,18
96K22,186,experiment,57,←,left,←,0.6533864999655634,True,18
96K22,187,experiment,58,→,right,→,0.5647875000722706,True,18
96K22,188,experiment,49,↑,up,↑,0.7734453999437392,True,18
96K22,189,experiment,39,↓,down,↓,0.7246590999420732,True,18
96K22,190,experiment,38,←,left,←,0.7667374000884593,True,18
96K22,191,training,54,↓,down,↓,0.6895171999931335,True,17
96K22,192,training,20,←,left,←,0.5529814001638442,True,17
96K22,193,experiment,44,→,right,→,0.573302699951455,True,17
96K22,194,experiment,31,→,right,→,0.5380742000415921,True,17
96K22,195,experiment,19,←,left,←,0.5680766999721527,True,17
96K22,196,experiment,50,↓,down,↓,0.6801371998153627,True,17
96K22,197,experiment,45,→,right,→,0.5830210999120027,True,17
96K22,198,experiment,52,↑,up,↑,0.6608498999848962,True,17
96K22,199,experiment,14,↑,up,↑,0.6973248000722378,True,17
96K22,200,experiment,54,↑,up,↑,0.6173388999886811,True,17
96K22,201,experiment,36,←,left,←,0.6326977999415249,True,17
96K22,202,experiment,43,↑,up,↑,0.5946835998911411,True,17
96K22,203,experiment,53,←,left,←,0.5840180998202413,True,17
96K22,204,experiment,58,↑,up,↑,0.5782437999732792,True,17
96K22,205,experiment,38,↑,up,↑,0.5540493000298738,True,17
96K22,206,experiment,39,↑,up,↑,0.9380610000807792,True,17
96K22,207,experiment,57,←,left,←,0.6629119000863284,True,17
96K22,208,experiment,24,→,right,→,0.7160682999528944,True,17
96K22,209,experiment,15,↑,up,↑,0.6136000999249518,True,17
96K22,210,experiment,30,↓,down,↓,0.7766515999101102,True,17
96K22,211,experiment,17,→,right,→,1.422628200147301,True,17
96K22,212,experiment,26,→,right,→,0.7006534999236465,True,17
96K22,213,experiment,46,↑,up,↑,0.6738696000538766,True,17
96K22,214,experiment,60,←,left,←,0.7433227999135852,True,17
96K22,215,experiment,37,←,left,←,0.5293221999891102,True,17
96K22,216,experiment,27,←,left,←,0.7147858999669552,True,17
96K22,217,experiment,51,←,left,←,0.876250599976629,True,17
96K22,218,experiment,13,↑,up,↑,0.6566775001119822,True,17
96K22,219,experiment,33,↑,up,↑,0.5366848998237401,True,17
96K22,220,experiment,56,↓,down,↓,0.5260670999996364,True,17
96K22,221,experiment,42,↓,down,↓,0.5413041999563575,True,17
96K22,222,experiment,49,←,left,←,0.5353367999196053,True,17
96K22,223,experiment,18,↑,up,↑,0.5981771999504417,True,17
96K22,224,experiment,25,→,right,→,0.6853026000317186,True,17
96K22,225,experiment,21,←,left,←,0.7720185001380742,True,17
96K22,226,experiment,32,←,left,←,0.6643809999804944,True,17
96K22,227,experiment,41,→,right,→,0.5864250001031905,True,17
96K22,228,experiment,48,→,right,→,0.5946919999551028,True,17
96K22,229,experiment,59,↑,up,↑,0.66816999996081,True,17
96K22,230,experiment,35,↑,up,↑,0.6819933000952005,True,17
96K22,231,experiment,47,→,right,→,0.4555074998643249,True,17
96K22,232,experiment,20,→,right,→,0.5513077999930829,True,17
96K22,233,experiment,22,→,right,→,0.6266149000730366,True,17
96K22,234,experiment,34,↓,down,↓,0.7876383999828249,True,17
96K22,235,experiment,23,↓,down,↓,0.5886245002038777,True,17
96K22,236,experiment,55,→,down,↓,0.7366078000050038,False,17
96K22,237,experiment,28,→,right,→,0.6725753000937402,True,17
96K22,238,experiment,16,←,left,←,0.75528490007855,True,17
96K22,239,experiment,40,→,right,→,0.9626810001209378,True,17
96K22,240,experiment,29,←,left,←,0.7126519000157714,True,17
96K22,241,training,31,←,left,←,0.6746765999123454,True,16
96K22,242,training,30,↑,up,↑,0.7878631001804024,True,16
96K22,243,experiment,58,→,right,→,0.5818906000349671,True,16
96K22,244,experiment,60,←,left,←,1.2705594000872225,True,16
96K22,245,experiment,44,→,right,→,0.7107424000278115,True,16
96K22,246,experiment,17,↓,down,↓,0.7993582000490278,True,16
96K22,247,experiment,51,↑,up,↑,1.749416199978441,True,16
96K22,248,experiment,35,→,no_key,no_letter,-1.0,False,16
96K22,249,experiment,59,←,left,←,0.6992467001546174,True,16
96K22,250,experiment,30,↓,up,↑,0.8272429001517594,False,16
96K22,251,experiment,25,↓,down,↓,0.5622529999818653,True,16
96K22,252,experiment,38,↑,down,↓,1.4186275999527425,False,16
96K22,253,experiment,39,←,left,←,0.6081339998636395,True,16
96K22,254,experiment,40,→,right,→,0.589618899859488,True,16
96K22,255,experiment,33,→,right,→,0.5525034999009222,True,16
96K22,256,experiment,22,←,left,←,0.5312667000107467,True,16
96K22,257,experiment,56,↓,down,↓,0.6809004999231547,True,16
96K22,258,experiment,50,↑,up,↑,0.516196999931708,True,16
96K22,259,experiment,21,←,left,←,0.5930694001726806,True,16
96K22,260,experiment,18,←,left,←,0.8060915998648852,True,16
96K22,261,experiment,55,↑,up,↑,0.5934572999831289,True,16
96K22,262,experiment,53,←,down,↓,0.4707345999777317,False,16
96K22,263,experiment,15,←,left,←,0.6098440000787377,True,16
96K22,264,experiment,52,→,right,→,0.7271745000034571,True,16
96K22,265,experiment,13,↓,down,↓,0.6258996999822557,True,16
96K22,266,experiment,48,←,left,←,0.5451726000756025,True,16
96K22,267,experiment,34,↑,up,↑,0.5572122000157833,True,16
96K22,268,experiment,24,↓,down,↓,0.7032098998315632,True,16
96K22,269,experiment,57,←,left,←,0.6612032998818904,True,16
96K22,270,experiment,23,↓,up,↑,0.7078383001498878,False,16
96K22,271,experiment,14,↑,left,←,0.7584979999810457,False,16
96K22,272,experiment,37,↓,down,↓,0.6558815999887884,True,16
96K22,273,experiment,43,←,right,→,0.9857401000335813,False,16
96K22,274,experiment,32,→,right,→,0.46054120012558997,True,16
96K22,275,experiment,36,→,right,→,0.5065613000188023,True,16
96K22,276,experiment,54,←,left,←,0.5707483000587672,True,16
96K22,277,experiment,41,↓,down,↓,0.7525082000065595,True,16
96K22,278,experiment,46,↑,up,↑,0.44396959990262985,True,16
96K22,279,experiment,45,←,left,←,0.7158219001721591,True,16
96K22,280,experiment,31,↓,down,↓,0.6664923001080751,True,16
96K22,281,experiment,47,↑,up,↑,0.46479170001111925,True,16
96K22,282,experiment,20,→,right,→,0.5128275000024587,True,16
96K22,283,experiment,27,←,left,←,0.577935199951753,True,16
96K22,284,experiment,29,↓,up,↑,0.863765399903059,False,16
96K22,285,experiment,19,→,right,→,0.6405454999767244,True,16
96K22,286,experiment,28,↓,down,↓,0.6525517001282424,True,16
96K22,287,experiment,49,→,right,→,0.48188289999961853,True,16
96K22,288,experiment,42,←,left,←,0.5145049002021551,True,16
96K22,289,experiment,26,→,right,→,0.5245179999619722,True,16
96K22,290,experiment,16,←,left,←,0.5092065001372248,True,16
96K22,291,training,15,←,left,←,0.579846799839288,True,16
96K22,292,training,16,←,left,←,0.5464705999474972,True,16
96K22,293,experiment,60,↑,up,↑,0.5484637001063675,True,16
96K22,294,experiment,18,↑,up,↑,0.5144485000055283,True,16
96K22,295,experiment,15,←,right,→,0.4837867000605911,False,16
96K22,296,experiment,39,→,right,→,0.8144638000521809,True,16
96K22,297,experiment,38,↑,up,↑,0.4766765001695603,True,16
96K22,298,experiment,33,→,right,→,0.49297140003181994,True,16
96K22,299,experiment,47,↓,down,↓,0.5611171999480575,True,16
96K22,300,experiment,30,→,right,→,0.5911960999947041,True,16
96K22,301,experiment,40,←,left,←,0.589268899988383,True,16
96K22,302,experiment,50,↑,up,↑,0.5724652002099901,True,16
96K22,303,experiment,21,↑,up,↑,0.6560764000751078,True,16
96K22,304,experiment,59,↑,up,↑,0.574405400082469,True,16
96K22,305,experiment,20,←,left,←,0.6584006999619305,True,16
96K22,306,experiment,37,↓,down,↓,0.6878321000840515,True,16
96K22,307,experiment,42,↓,down,↓,0.5924203998874873,True,16
96K22,308,experiment,29,↑,up,↑,0.5657338998280466,True,16
96K22,309,experiment,32,↑,up,↑,0.5856906000990421,True,16
96K22,310,experiment,27,→,right,→,0.832466899883002,True,16
96K22,311,experiment,19,↑,up,↑,0.5863281998317689,True,16
96K22,312,experiment,24,←,left,←,0.6031233000103384,True,16
96K22,313,experiment,58,↓,left,←,0.7166015000548214,False,16
96K22,314,experiment,56,→,right,→,0.6345399001147598,True,16
96K22,315,experiment,54,↑,up,↑,0.5971234999597073,True,16
96K22,316,experiment,57,←,left,←,0.9350495999678969,True,16
96K22,317,experiment,34,↑,up,↑,0.587036200100556,True,16
96K22,318,experiment,13,↓,down,↓,0.7070164000615478,True,16
96K22,319,experiment,16,↑,up,↑,0.5247893000487238,True,16
96K22,320,experiment,36,→,right,→,0.6157960998825729,True,16
96K22,321,experiment,48,←,right,→,0.5753136998973787,False,16
96K22,322,experiment,51,←,left,←,0.7183205999899656,True,16
96K22,323,experiment,28,↑,up,↑,0.5590880999807268,True,16
96K22,324,experiment,25,←,left,←,0.488308799918741,True,16
96K22,325,experiment,55,↑,up,↑,0.5843605000991374,True,16
96K22,326,experiment,45,←,left,←,1.4110228999052197,True,16
96K22,327,experiment,52,→,right,→,0.6406682999804616,True,16
96K22,328,experiment,41,←,left,←,0.48375770007260144,True,16
96K22,329,experiment,26,→,right,→,0.5350407999940217,True,16
96K22,330,experiment,35,←,right,→,0.6427305999677628,False,16
96K22,331,experiment,43,←,left,←,0.5884365001693368,True,16
96K22,332,experiment,22,←,left,←,1.0785197999794036,True,16
96K22,333,experiment,17,→,right,→,0.640616999939084,True,16
96K22,334,experiment,14,↑,up,↑,0.5657453997991979,True,16
96K22,335,experiment,44,↓,down,↓,1.5457366001792252,True,16
96K22,336,experiment,23,←,left,←,0.5250532999634743,True,16
96K22,337,experiment,53,↓,down,↓,0.7650212999433279,True,16
96K22,338,experiment,31,→,right,→,0.6736948001198471,True,16
96K22,339,experiment,46,↑,up,↑,0.9364537999499589,True,16
96K22,340,experiment,49,↑,up,↑,0.5782818000297993,True,16
96K22,341,training,44,↓,up,↑,1.0903032999485731,False,15
96K22,342,training,19,←,left,←,0.6182933000382036,True,15
96K22,343,experiment,60,→,left,←,0.7376528000459075,False,15
96K22,344,experiment,51,↑,up,↑,0.602335800183937,True,15
96K22,345,experiment,50,↓,down,↓,0.6970198000781238,True,15
96K22,346,experiment,54,←,left,←,0.561269799945876,True,15
96K22,347,experiment,18,↓,down,↓,0.6709199999459088,True,15
96K22,348,experiment,38,←,left,←,0.5391422000247985,True,15
96K22,349,experiment,15,→,right,→,0.6517008000519127,True,15
96K22,350,experiment,57,→,right,→,0.6757346000522375,True,15
96K22,351,experiment,42,→,right,→,0.5728900998365134,True,15
96K22,352,experiment,14,←,left,←,0.5569637001026422,True,15
96K22,353,experiment,46,←,right,→,0.6482824999839067,False,15
96K22,354,experiment,41,↑,up,↑,0.5714048999361694,True,15
96K22,355,experiment,45,←,left,←,0.6781856000889093,True,15
96K22,356,experiment,21,→,left,←,0.67771130008623,False,15
96K22,357,experiment,13,↑,down,↓,0.6745459001976997,False,15
96K22,358,experiment,48,↑,up,↑,0.5196180001366884,True,15
96K22,359,experiment,29,↑,up,↑,0.7115971001330763,True,15
96K22,360,experiment,20,↑,up,↑,0.9187151999212801,True,15
96K22,361,experiment,24,↑,up,↑,0.6175981999840587,True,15
96K22,362,experiment,16,↓,down,↓,0.5903158001601696,True,15
96K22,363,experiment,49,→,right,→,0.7022746000438929,True,15
96K22,364,experiment,17,↓,down,↓,0.6709625998046249,True,15
96K22,365,experiment,40,←,left,←,0.4335346999578178,True,15
96K22,366,experiment,34,↑,up,↑,0.7215557000599802,True,15
96K22,367,experiment,30,↑,up,↑,0.48092999984510243,True,15
96K22,368,experiment,35,↑,up,↑,0.6142970998771489,True,15
96K22,369,experiment,33,↓,down,↓,0.6636671999003738,True,15
96K22,370,experiment,31,→,right,→,0.5042941998690367,True,15
96K22,371,experiment,32,→,right,→,0.5908810999244452,True,15
96K22,372,experiment,59,→,right,→,0.6883594000246376,True,15
96K22,373,experiment,22,↑,up,↑,0.7902649000752717,True,15
96K22,374,experiment,43,↓,down,↓,0.642206999938935,True,15
96K22,375,experiment,37,→,right,→,0.584183500148356,True,15
96K22,376,experiment,53,→,right,→,0.6455152998678386,True,15
96K22,377,experiment,58,↓,down,↓,0.6294917999766767,True,15
96K22,378,experiment,27,→,right,→,0.5624602001626045,True,15
96K22,379,experiment,44,→,right,→,0.5348995998501778,True,15
96K22,380,experiment,47,↓,down,↓,0.650219300063327,True,15
96K22,381,experiment,28,↓,down,↓,0.6455226999241859,True,15
96K22,382,experiment,36,↑,up,↑,0.9249039001297206,True,15
96K22,383,experiment,19,↑,left,←,0.9868932999670506,False,15
96K22,384,experiment,23,←,left,←,0.7484786999411881,True,15
96K22,385,experiment,26,←,left,←,0.524809299968183,True,15
96K22,386,experiment,56,→,left,←,0.6751544000580907,False,15
96K22,387,experiment,52,←,right,→,0.701606199843809,False,15
96K22,388,experiment,25,↓,down,↓,0.7048559000249952,True,15
96K22,389,experiment,39,↑,up,↑,0.6989158000797033,True,15
96K22,390,experiment,55,↓,down,↓,0.5302126999013126,True,15
96K22,391,training,28,↓,down,↓,0.5476351000834256,True,15
96K22,392,training,40,←,left,←,0.7148125001695007,True,15
96K22,393,experiment,35,↑,up,↑,0.534840099979192,True,15
96K22,394,experiment,46,←,left,←,0.5471048001199961,True,15
96K22,395,experiment,43,→,right,→,0.752155400114134,True,15
96K22,396,experiment,30,←,left,←,0.5263082000892609,True,15
96K22,397,experiment,57,←,left,←,0.6034889998845756,True,15
96K22,398,experiment,32,↓,down,↓,0.6703241998329759,True,15
96K22,399,experiment,40,←,left,←,0.5451726000756025,True,15
96K22,400,experiment,25,→,right,→,0.5467470998410136,True,15
96K22,401,experiment,20,↑,up,↑,0.5596320999320596,True,15
96K22,402,experiment,38,→,right,→,1.0082039998378605,True,15
96K22,403,experiment,50,↑,up,↑,0.5989588999655098,True,15
96K22,404,experiment,59,→,right,→,1.1836550999432802,True,15
96K22,405,experiment,53,→,left,←,0.6929319000337273,False,15
96K22,406,experiment,28,→,left,←,0.8468524999916553,False,15
96K22,407,experiment,31,←,left,←,0.7284184999298304,True,15
96K22,408,experiment,47,↑,up,↑,0.5644155000336468,True,15
96K22,409,experiment,27,←,left,←,0.595416999887675,True,15
96K22,410,experiment,54,←,left,←,0.6481124002020806,True,15
96K22,411,experiment,49,→,down,↓,1.7015458000823855,False,15
96K22,412,experiment,15,←,left,←,0.8237179000861943,True,15
96K22,413,experiment,36,←,left,←,0.5187572001013905,True,15
96K22,414,experiment,16,↑,up,↑,0.647708699805662,True,15
96K22,415,experiment,24,↓,down,↓,0.6133882999420166,True,15
96K22,416,experiment,26,←,right,→,1.0434117000550032,False,15
96K22,417,experiment,34,←,left,←,0.5635021000634879,True,15
96K22,418,experiment,29,↑,down,↓,0.8015322999563068,False,15
96K22,419,experiment,33,↓,down,↓,0.7394054001197219,True,15
96K22,420,experiment,48,↑,up,↑,0.6541192000731826,True,15
96K22,421,experiment,13,↑,up,↑,0.7717165001668036,True,15
96K22,422,experiment,39,↓,down,↓,0.5790818999521434,True,15
96K22,423,experiment,52,→,right,→,0.8414207000751048,True,15
96K22,424,experiment,51,→,right,→,0.8704313000198454,True,15
96K22,425,experiment,17,↓,down,↓,0.848129800055176,True,15
96K22,426,experiment,41,→,right,→,0.6351028000935912,True,15
96K22,427,experiment,22,↑,up,↑,0.642820900073275,True,15
96K22,428,experiment,37,↑,up,↑,0.8887322000227869,True,15
96K22,429,experiment,42,↑,up,↑,0.6975312998984009,True,15
96K22,430,experiment,14,→,right,→,0.6040603001601994,True,15
96K22,431,experiment,21,↓,down,↓,0.6543551001232117,True,15
96K22,432,experiment,19,←,left,←,0.6557402999605983,True,15
96K22,433,experiment,56,↓,down,↓,0.5841655000112951,True,15
96K22,434,experiment,58,←,left,←,0.5941589998546988,True,15
96K22,435,experiment,23,←,left,←,0.4834350000601262,True,15
96K22,436,experiment,18,↓,down,↓,0.7400491000153124,True,15
96K22,437,experiment,45,↑,up,↑,0.5049278999213129,True,15
96K22,438,experiment,60,←,left,←,0.6767402000259608,True,15
96K22,439,experiment,44,↓,down,↓,0.7649138998240232,True,15
96K22,440,experiment,55,←,up,↑,1.16938990005292,False,15
96K22,441,training,57,↑,up,↑,0.6148326001130044,True,15
96K22,442,training,43,→,right,→,0.5853337999433279,True,15
96K22,443,experiment,35,←,left,←,0.7226030000019819,True,15
96K22,444,experiment,38,↓,down,↓,0.5648690999951214,True,15
96K22,445,experiment,14,↑,up,↑,0.7246601001825184,True,15
96K22,446,experiment,46,↓,down,↓,0.6094591999426484,True,15
96K22,447,experiment,59,↓,down,↓,0.5460298000834882,True,15
96K22,448,experiment,26,←,left,←,0.6428316999226809,True,15
96K22,449,experiment,33,↑,up,↑,0.619323099963367,True,15
96K22,450,experiment,57,↑,up,↑,0.756824400043115,True,15
96K22,451,experiment,32,←,left,←,0.43398910015821457,True,15
96K22,452,experiment,17,↑,up,↑,0.7646497001405805,True,15
96K22,453,experiment,23,↑,up,↑,0.4547115000896156,True,15
96K22,454,experiment,39,↓,down,↓,0.6109294998459518,True,15
96K22,455,experiment,56,↑,up,↑,0.6216890001669526,True,15
96K22,456,experiment,13,↓,up,↑,0.7399903000332415,False,15
96K22,457,experiment,31,↓,down,↓,0.6019769001286477,True,15
96K22,458,experiment,52,→,right,→,0.5273279000539333,True,15
96K22,459,experiment,36,↓,down,↓,0.5227107000537217,True,15
96K22,460,experiment,47,↓,up,↑,0.7107588001526892,False,15
96K22,461,experiment,45,←,left,←,0.48466499987989664,True,15
96K22,462,experiment,60,↓,down,↓,0.5533211000729352,True,15
96K22,463,experiment,51,↓,down,↓,0.5293174998369068,True,15
96K22,464,experiment,16,→,right,→,1.0573293000925332,True,15
96K22,465,experiment,44,→,right,→,0.593928299844265,True,15
96K22,466,experiment,55,↑,up,↑,0.6059467999730259,True,15
96K22,467,experiment,25,↑,up,↑,0.5893216000404209,True,15
96K22,468,experiment,42,↓,down,↓,0.7699917999561876,True,15
96K22,469,experiment,49,↑,up,↑,0.5066293000709265,True,15
96K22,470,experiment,21,↑,up,↑,0.5687048998661339,True,15
96K22,471,experiment,18,↓,down,↓,0.6222126001957804,True,15
96K22,472,experiment,41,←,right,→,1.0179261998273432,False,15
96K22,473,experiment,43,→,right,→,0.6293657999485731,True,15
96K22,474,experiment,40,↓,left,←,1.0573127998504788,False,15
96K22,475,experiment,28,←,left,←,0.7006898999679834,True,15
96K22,476,experiment,34,↑,up,↑,0.7939693999942392,True,15
96K22,477,experiment,48,↓,down,↓,0.6586504001170397,True,15
96K22,478,experiment,29,→,right,→,0.549277100013569,True,15
96K22,479,experiment,24,↓,down,↓,0.5513253000099212,True,15
96K22,480,experiment,37,↑,up,↑,0.5766439998988062,True,15
96K22,481,experiment,54,→,right,→,0.629969900008291,True,15
96K22,482,experiment,19,←,left,←,0.8559147000778466,True,15
96K22,483,experiment,50,←,left,←,0.5330350000876933,True,15
96K22,484,experiment,58,→,left,←,0.9529788000509143,False,15
96K22,485,experiment,15,→,right,→,0.6166381000075489,True,15
96K22,486,experiment,30,↓,down,↓,0.6038979000877589,True,15
96K22,487,experiment,27,→,right,→,0.5699720999691635,True,15
96K22,488,experiment,53,↑,up,↑,0.7918867999687791,True,15
96K22,489,experiment,22,↓,down,↓,0.49000070011243224,True,15
96K22,490,experiment,20,↑,up,↑,0.729269600007683,True,15
96K22,491,training,25,↑,up,↑,0.5279498999007046,True,15
96K22,492,training,34,↑,up,↑,0.5886619000229985,True,15
96K22,493,experiment,31,↑,up,↑,0.560588899999857,True,15
96K22,494,experiment,39,↑,up,↑,0.4567262998316437,True,15
96K22,495,experiment,53,←,left,←,0.5072164998855442,True,15
96K22,496,experiment,50,↑,up,↑,0.5338726998306811,True,15
96K22,497,experiment,28,→,right,→,0.7819038999732584,True,15
96K22,498,experiment,32,↓,down,↓,0.6094168999698013,True,15
96K22,499,experiment,27,←,right,→,0.6312339000869542,False,15
96K22,500,experiment,54,→,right,→,0.7459116999525577,True,15
96K22,501,experiment,46,→,right,→,0.5818396999966353,True,15
96K22,502,experiment,21,↓,down,↓,0.65653430018574,True,15
96K22,503,experiment,45,←,right,→,0.5605550999753177,False,15
96K22,504,experiment,51,↑,up,↑,0.7685117998626083,True,15
96K22,505,experiment,56,←,left,←,0.6291763000190258,True,15
96K22,506,experiment,42,→,right,→,0.5840823000762612,True,15
96K22,507,experiment,40,→,right,→,0.5498999000992626,True,15
96K22,508,experiment,18,↑,up,↑,0.659858499886468,True,15
96K22,509,experiment,19,↑,up,↑,0.7811533999629319,True,15
96K22,510,experiment,24,→,right,→,0.48590880003757775,True,15
96K22,511,experiment,57,↓,down,↓,0.6205062000080943,True,15
96K22,512,experiment,35,↓,down,↓,0.6528534998651594,True,15
96K22,513,experiment,16,↓,down,↓,0.5517921999562532,True,15
96K22,514,experiment,20,→,no_key,no_letter,-1.0,False,15
96K22,515,experiment,55,→,left,←,0.7553331998642534,False,15
96K22,516,experiment,17,→,right,→,1.0978282999712974,True,15
96K22,517,experiment,26,↓,up,↑,1.0125847000163049,False,15
96K22,518,experiment,34,↓,down,↓,0.5179207001347095,True,15
96K22,519,experiment,13,→,right,→,0.5447732000611722,True,15
96K22,520,experiment,44,→,right,→,0.5899573999922723,True,15
96K22,521,experiment,38,→,right,→,0.5652508002240211,True,15
96K22,522,experiment,41,↓,down,↓,0.6193556999787688,True,15
96K22,523,experiment,15,↑,up,↑,0.6004852000623941,True,15
96K22,524,experiment,22,↑,up,↑,0.6661016000434756,True,15
96K22,525,experiment,36,↑,up,↑,0.5192472999915481,True,15
96K22,526,experiment,58,→,right,→,0.6358084999956191,True,15
96K22,527,experiment,43,↓,down,↓,0.5660814000293612,True,15
96K22,528,experiment,30,↓,down,↓,0.6111414998304099,True,15
96K22,529,experiment,29,↑,up,↑,0.519956500036642,True,15
96K22,530,experiment,60,←,left,←,0.5231441999785602,True,15
96K22,531,experiment,33,→,right,→,0.5364509001374245,True,15
96K22,532,experiment,37,↑,up,↑,0.5626690001226962,True,15
96K22,533,experiment,14,→,right,→,1.8424670998938382,True,15
96K22,534,experiment,23,↑,up,↑,1.3222775000613183,True,15
96K22,535,experiment,52,↑,up,↑,0.5064481000881642,True,15
96K22,536,experiment,25,↑,up,↑,0.542050999822095,True,15
96K22,537,experiment,49,↓,up,↑,0.8157333000563085,False,15
96K22,538,experiment,59,←,left,←,0.8237385998945683,True,15
96K22,539,experiment,47,←,left,←,0.5118662000168115,True,15
96K22,540,experiment,48,↓,up,↑,0.5639960998669267,False,15
96K22,541,training,29,→,right,→,0.42892330000177026,True,15
96K22,542,training,35,←,right,→,0.6357372999191284,False,15
96K22,543,experiment,28,→,right,→,0.527748900000006,True,15
96K22,544,experiment,51,←,left,←,0.5769952998962253,True,15
96K22,545,experiment,40,→,right,→,0.5836732999887317,True,15
96K22,546,experiment,45,↑,up,↑,0.5066279999446124,True,15
96K22,547,experiment,44,←,left,←,0.808998400112614,True,15
96K22,548,experiment,39,↑,up,↑,0.5032711001113057,True,15
96K22,549,experiment,55,↓,down,↓,0.5023936000652611,True,15
96K22,550,experiment,37,↑,up,↑,0.681723800022155,True,15
96K22,551,experiment,56,→,left,←,0.6570214000530541,False,15
96K22,552,experiment,58,←,left,←,0.4329543001949787,True,15
96K22,553,experiment,13,←,left,←,0.5746128000319004,True,15
96K22,554,experiment,48,→,right,→,0.5677523000631481,True,15
96K22,555,experiment,60,←,left,←,0.48104340001009405,True,15
96K22,556,experiment,14,←,left,←,0.5165886001195759,True,15
96K22,557,experiment,30,↓,up,↑,0.49164970009587705,False,15
96K22,558,experiment,38,←,left,←,0.5752989000175148,True,15
96K22,559,experiment,22,↑,up,↑,0.4496845998801291,True,15
96K22,560,experiment,15,→,right,→,0.5737843001261353,True,15
96K22,561,experiment,42,→,left,←,0.7469486000481993,False,15
96K22,562,experiment,49,←,left,←,0.5242809001356363,True,15
96K22,563,experiment,20,↑,up,↑,0.5703862998634577,True,15
96K22,564,experiment,35,←,left,←,0.5963669999036938,True,15
96K22,565,experiment,57,←,left,←,0.5830306001007557,True,15
96K22,566,experiment,23,←,left,←,0.6004157999996096,True,15
96K22,567,experiment,17,↑,up,↑,0.5332701997831464,True,15
96K22,568,experiment,18,→,right,→,0.6759359000716358,True,15
96K22,569,experiment,43,←,no_key,no_letter,-1.0,False,15
96K22,570,experiment,16,↓,down,↓,0.6849836001638323,True,15
96K22,571,experiment,33,←,right,→,0.6038991999812424,False,15
96K22,572,experiment,50,↓,down,↓,0.634363500168547,True,15
96K22,573,experiment,36,↓,down,↓,0.5850068000145257,True,15
96K22,574,experiment,32,←,right,→,0.612296300008893,False,15
96K22,575,experiment,26,→,right,→,0.6510286000557244,True,15
96K22,576,experiment,41,↑,up,↑,0.5496691998559982,True,15
96K22,577,experiment,21,→,right,→,0.577624199911952,True,15
96K22,578,experiment,31,→,left,←,0.8225440999958664,False,15
96K22,579,experiment,47,↓,down,↓,0.5824149001855403,True,15
96K22,580,experiment,29,↓,down,↓,0.6036402999889106,True,15
96K22,581,experiment,24,↑,up,↑,0.6758623998612165,True,15
96K22,582,experiment,27,↑,up,↑,0.5509441001340747,True,15
96K22,583,experiment,52,←,left,←,0.6303489001002163,True,15
96K22,584,experiment,46,↑,up,↑,0.5343052998650819,True,15
96K22,585,experiment,25,→,right,→,0.656247999984771,True,15
96K22,586,experiment,19,←,left,←,0.5135999999474734,True,15
96K22,587,experiment,54,→,right,→,0.6009441998321563,True,15
96K22,588,experiment,53,↑,up,↑,0.5095732999034226,True,15
96K22,589,experiment,34,←,right,→,0.49899019999429584,False,15
96K22,590,experiment,59,↑,up,↑,0.49559129984118044,True,15
