PART_ID,Trial_no,Trial_type,CSI,Stim_letter,Key_pressed,letter_choose,Rt,Corr,Stimulus Time
98K28,1,training,60,↑,left,←,1.9419819000177085,False,30
98K28,2,training,60,→,right,→,1.5273134999442846,True,30
98K28,3,training,60,↓,left,←,2.1133415000513196,False,30
98K28,4,training,60,↑,up,↑,1.2602079999633133,True,30
98K28,5,training,60,↑,no_key,no_letter,-1.0,False,30
98K28,6,training,60,↑,up,↑,1.1213237000629306,True,30
98K28,7,training,60,↑,up,↑,0.747921000001952,True,30
98K28,8,training,60,→,right,→,1.62913340004161,True,30
98K28,9,training,60,←,left,←,1.2353093998972327,True,30
98K28,10,training,60,↑,left,←,1.769473300082609,False,30
98K28,11,training,60,←,left,←,1.2178619999904186,True,30
98K28,12,training,60,↓,no_key,no_letter,-1.0,False,30
98K28,13,training,60,↓,down,↓,1.1452667999546975,True,30
98K28,14,training,60,↑,up,↑,1.5146389999426901,True,30
98K28,15,training,60,→,right,→,1.213513399939984,True,30
98K28,16,training,60,↑,up,↑,1.3398032002151012,True,30
98K28,17,training,60,←,left,←,1.2458135997876525,True,30
98K28,18,training,60,↑,left,←,1.2990969000384212,False,30
98K28,19,training,60,←,left,←,1.4545056000351906,True,30
98K28,20,training,60,↓,down,↓,1.0678266999311745,True,30
98K28,21,training,60,↓,left,←,1.0854862001724541,False,18
98K28,22,training,60,↑,right,→,1.49717149999924,False,18
98K28,23,training,60,↑,up,↑,1.2604888000059873,True,18
98K28,24,training,60,→,right,→,1.497179500060156,True,18
98K28,25,training,60,↓,left,←,1.5325089001562446,False,18
98K28,26,training,60,←,left,←,0.7585093001835048,True,18
98K28,27,training,60,↓,right,→,1.7357946000993252,False,18
98K28,28,training,60,↑,left,←,1.3058581999503076,False,18
98K28,29,training,60,↑,right,→,1.1731914998963475,False,18
98K28,30,training,60,↑,down,↓,1.093853099970147,False,18
98K28,31,training,60,←,left,←,0.8731235999148339,True,18
98K28,32,training,60,↓,down,↓,0.9578154999762774,True,18
98K28,33,training,60,↓,down,↓,0.9350476998370141,True,18
98K28,34,training,60,↑,up,↑,1.6250765998847783,True,18
98K28,35,training,60,↓,down,↓,0.8158797000069171,True,18
98K28,36,training,60,↓,right,→,1.9264076000545174,False,18
98K28,37,training,60,↑,left,←,1.0243621999397874,False,18
98K28,38,training,60,↓,up,↑,1.2073260999750346,False,18
98K28,39,training,60,↓,down,↓,1.070799000095576,True,18
98K28,40,training,60,←,up,↑,1.2351309000514448,False,18
98K28,41,training,50,↑,up,↑,0.9705968999769539,True,18
98K28,42,training,36,←,right,→,1.5157570000737906,False,18
98K28,43,experiment,58,↑,left,←,1.0565190999768674,False,18
98K28,44,experiment,17,↑,up,↑,0.8591509000398219,True,18
98K28,45,experiment,22,←,left,←,0.6824084999971092,True,18
98K28,46,experiment,45,→,right,→,0.9930680000688881,True,18
98K28,47,experiment,23,↓,left,←,1.754309399984777,False,18
98K28,48,experiment,59,↓,up,↑,1.1410219001118094,False,18
98K28,49,experiment,55,→,up,↑,0.9709838000126183,False,18
98K28,50,experiment,42,←,left,←,0.9452778999693692,True,18
98K28,51,experiment,34,→,right,→,1.3564122999086976,True,18
98K28,52,experiment,54,→,down,↓,0.8503749000374228,False,18
98K28,53,experiment,20,←,left,←,1.8910960999783128,True,18
98K28,54,experiment,37,←,right,→,1.5753057999536395,False,18
98K28,55,experiment,27,←,down,↓,1.614428399829194,False,18
98K28,56,experiment,52,←,left,←,0.6590112999547273,True,18
98K28,57,experiment,13,↑,up,↑,0.9285121001303196,True,18
98K28,58,experiment,35,→,right,→,0.8605758000630885,True,18
98K28,59,experiment,44,←,left,←,0.6691504998598248,True,18
98K28,60,experiment,38,←,left,←,1.2009928999468684,True,18
98K28,61,experiment,33,↑,right,→,1.0348772997967899,False,18
98K28,62,experiment,25,↓,right,→,1.201263900147751,False,18
98K28,63,experiment,57,↓,right,→,1.1310843999963254,False,18
98K28,64,experiment,39,↓,left,←,1.1087850001640618,False,18
98K28,65,experiment,15,↓,down,↓,0.9496102000121027,True,18
98K28,66,experiment,30,↑,right,→,0.7956288000568748,False,18
98K28,67,experiment,49,↓,left,←,0.7955711998511106,False,18
98K28,68,experiment,26,↑,up,↑,0.8749746000394225,True,18
98K28,69,experiment,50,↑,up,↑,0.9990155000705272,True,18
98K28,70,experiment,28,→,up,↑,1.292297099949792,False,18
98K28,71,experiment,41,↓,down,↓,0.7096410999074578,True,18
98K28,72,experiment,31,←,right,→,1.2929503999184817,False,18
98K28,73,experiment,36,→,right,→,1.0739256001543254,True,18
98K28,74,experiment,46,→,no_key,no_letter,-1.0,False,18
98K28,75,experiment,29,↓,down,↓,0.5903101998846978,True,18
98K28,76,experiment,14,↑,up,↑,0.6218073999043554,True,18
98K28,77,experiment,32,←,left,←,0.831769899930805,True,18
98K28,78,experiment,56,←,left,←,0.7288279000204057,True,18
98K28,79,experiment,24,←,right,→,1.0844495999626815,False,18
98K28,80,experiment,18,←,right,→,1.188918299973011,False,18
98K28,81,experiment,43,→,right,→,0.9608332000207156,True,18
98K28,82,experiment,47,→,down,↓,1.4355827001854777,False,18
98K28,83,experiment,21,↑,right,→,0.7241609999909997,False,18
98K28,84,experiment,48,→,right,→,0.9036147999577224,True,18
98K28,85,experiment,40,→,right,→,0.8089256000239402,True,18
98K28,86,experiment,16,→,right,→,0.8861895001027733,True,18
98K28,87,experiment,19,→,right,→,0.47074340004473925,True,18
98K28,88,experiment,60,←,left,←,0.9468865001108497,True,18
98K28,89,experiment,51,↑,up,↑,0.690995000069961,True,18
98K28,90,experiment,53,→,right,→,0.8362773000262678,True,18
98K28,91,training,39,↑,up,↑,0.6609602998942137,True,19
98K28,92,training,18,→,down,↓,0.20155469980090857,False,19
98K28,93,experiment,52,←,left,←,0.6077884999103844,True,19
98K28,94,experiment,18,↓,down,↓,0.755582100013271,True,19
98K28,95,experiment,19,↓,down,↓,0.5369335000868887,True,19
98K28,96,experiment,49,←,right,→,1.0511970999650657,False,19
98K28,97,experiment,27,↑,down,↓,0.9347487001214176,False,19
98K28,98,experiment,28,→,right,→,0.7271044000517577,True,19
98K28,99,experiment,24,↑,right,→,0.9382383001502603,False,19
98K28,100,experiment,15,↓,down,↓,0.6428255999926478,True,19
98K28,101,experiment,29,→,up,↑,1.2142855001147836,False,19
98K28,102,experiment,41,→,up,↑,1.0902968000154942,False,19
98K28,103,experiment,59,↑,right,→,1.023453500121832,False,19
98K28,104,experiment,50,→,left,←,0.6938122001010925,False,19
98K28,105,experiment,33,←,left,←,0.9562087999656796,True,19
98K28,106,experiment,43,↑,up,↑,0.6976890999358147,True,19
98K28,107,experiment,44,→,right,→,0.8641687000636011,True,19
98K28,108,experiment,14,←,left,←,0.9241397001314908,True,19
98K28,109,experiment,35,←,left,←,1.0161127999890596,True,19
98K28,110,experiment,60,←,right,→,1.5914839000906795,False,19
98K28,111,experiment,48,→,up,↑,0.8722014001104981,False,19
98K28,112,experiment,37,↓,up,↑,1.0127896999474615,False,19
98K28,113,experiment,56,↑,up,↑,0.9751822999678552,True,19
98K28,114,experiment,36,→,left,←,1.0960798999294639,False,19
98K28,115,experiment,30,↓,up,↑,1.0081394000444561,False,19
98K28,116,experiment,45,↑,down,↓,0.6823673001490533,False,19
98K28,117,experiment,51,←,left,←,1.6367047000676394,True,19
98K28,118,experiment,34,↑,up,↑,0.620884699979797,True,19
98K28,119,experiment,42,↑,up,↑,0.656395300058648,True,19
98K28,120,experiment,23,→,right,→,0.9353392999619246,True,19
98K28,121,experiment,58,↑,up,↑,1.0108156001660973,True,19
98K28,122,experiment,13,→,right,→,0.8820958000142127,True,19
98K28,123,experiment,17,→,down,↓,1.3474985000211746,False,19
98K28,124,experiment,57,→,up,↑,0.7994690001942217,False,19
98K28,125,experiment,46,←,left,←,1.0489030999597162,True,19
98K28,126,experiment,40,↓,right,→,0.9560495000332594,False,19
98K28,127,experiment,16,←,left,←,0.5954498997889459,True,19
98K28,128,experiment,31,↑,up,↑,0.5113849001936615,True,19
98K28,129,experiment,39,↑,down,↓,1.3057309000287205,False,19
98K28,130,experiment,38,↑,up,↑,0.628145799972117,True,19
98K28,131,experiment,32,→,left,←,1.0220352001488209,False,19
98K28,132,experiment,21,↓,down,↓,0.6476213000714779,True,19
98K28,133,experiment,53,↑,left,←,0.8903918000869453,False,19
98K28,134,experiment,47,→,right,→,0.7195953000336885,True,19
98K28,135,experiment,54,↓,right,→,1.1989880001638085,False,19
98K28,136,experiment,22,←,left,←,0.7921315999701619,True,19
98K28,137,experiment,20,→,right,→,0.7875663000158966,True,19
98K28,138,experiment,55,←,up,↑,0.8000503999646753,False,19
98K28,139,experiment,25,↓,down,↓,0.45080469991080463,True,19
98K28,140,experiment,26,↑,up,↑,1.1227972998749465,True,19
98K28,141,training,29,↑,left,←,0.7647843998856843,False,20
98K28,142,training,18,↓,right,→,0.8580487000290304,False,20
98K28,143,experiment,57,↓,down,↓,0.3340476001612842,True,20
98K28,144,experiment,13,↓,up,↑,0.5394830999430269,False,20
98K28,145,experiment,23,↓,down,↓,0.8546563000418246,True,20
98K28,146,experiment,42,↑,left,←,1.1127075999975204,False,20
98K28,147,experiment,32,→,right,→,0.5906553000677377,True,20
98K28,148,experiment,54,↑,up,↑,0.2016809000633657,True,20
98K28,149,experiment,39,↓,down,↓,0.10036229994148016,True,20
98K28,150,experiment,44,→,left,←,0.8813551999628544,False,20
98K28,151,experiment,20,↓,up,↑,0.3505998000036925,False,20
98K28,152,experiment,47,→,right,→,1.1306600999087095,True,20
98K28,153,experiment,14,←,left,←,0.21821930003352463,True,20
98K28,154,experiment,49,↑,left,←,0.4674804999958724,False,20
98K28,155,experiment,25,↓,up,↑,0.41757199983112514,False,20
98K28,156,experiment,56,↑,down,↓,0.4001053001265973,False,20
98K28,157,experiment,31,↑,down,↓,0.982069700025022,False,20
98K28,158,experiment,35,←,left,←,0.847368200076744,True,20
98K28,159,experiment,22,↑,left,←,0.46724470006302,False,20
98K28,160,experiment,50,↑,left,←,0.11826290003955364,False,20
98K28,161,experiment,37,←,right,→,1.5079669000115246,False,20
98K28,162,experiment,46,→,left,←,0.9855774999596179,False,20
98K28,163,experiment,45,←,left,←,0.05098250019364059,True,20
98K28,164,experiment,36,↑,left,←,0.4505736001301557,False,20
98K28,165,experiment,29,↑,up,↑,0.2501417000312358,True,20
98K28,166,experiment,15,←,down,↓,0.6573969000019133,False,20
98K28,167,experiment,16,→,up,↑,0.5806497000157833,False,20
98K28,168,experiment,33,→,right,→,1.1273163000587374,True,20
98K28,169,experiment,41,↓,down,↓,0.6632271001581103,True,20
98K28,170,experiment,43,↓,left,←,1.1766735999844968,False,20
98K28,171,experiment,60,←,left,←,0.6342845999170095,True,20
98K28,172,experiment,19,↑,left,←,0.9723033998161554,False,20
98K28,173,experiment,26,→,right,→,0.7400049001444131,True,20
98K28,174,experiment,53,→,right,→,0.6674210999626666,True,20
98K28,175,experiment,38,←,left,←,0.71931970003061,True,20
98K28,176,experiment,34,↓,down,↓,0.9563948998693377,True,20
98K28,177,experiment,18,↓,down,↓,1.1223251998890191,True,20
98K28,178,experiment,52,→,right,→,0.7386918000411242,True,20
98K28,179,experiment,17,↑,right,→,0.9779538000002503,False,20
98K28,180,experiment,59,↑,up,↑,0.924992399988696,True,20
98K28,181,experiment,30,↓,down,↓,0.7395275998860598,True,20
98K28,182,experiment,24,→,right,→,0.742035600123927,True,20
98K28,183,experiment,51,↑,right,→,0.8067052999977022,False,20
98K28,184,experiment,48,→,left,←,1.6626679999753833,False,20
98K28,185,experiment,55,↓,down,↓,0.7033886997960508,True,20
98K28,186,experiment,28,←,down,↓,1.424587900051847,False,20
98K28,187,experiment,40,↑,down,↓,0.8294181001838297,False,20
98K28,188,experiment,58,→,right,→,0.7094278000295162,True,20
98K28,189,experiment,27,↑,left,←,1.263285499997437,False,20
98K28,190,experiment,21,→,left,←,1.222598300082609,False,20
98K28,191,training,39,←,right,→,0.558097300119698,False,21
98K28,192,training,52,←,left,←,1.4132821999955922,True,21
98K28,193,experiment,45,↓,down,↓,0.8146283000241965,True,21
98K28,194,experiment,33,→,left,←,1.2800954999402165,False,21
98K28,195,experiment,19,↑,left,←,0.6482071001082659,False,21
98K28,196,experiment,37,↑,up,↑,0.7733431002125144,True,21
98K28,197,experiment,48,←,down,↓,1.2145304000005126,False,21
98K28,198,experiment,34,←,left,←,0.7032157999929041,True,21
98K28,199,experiment,60,→,right,→,0.9873315999284387,True,21
98K28,200,experiment,42,←,left,←,0.48457189998589456,True,21
98K28,201,experiment,27,←,left,←,1.0822599998209625,True,21
98K28,202,experiment,16,→,right,→,0.7718859000597149,True,21
98K28,203,experiment,51,←,left,←,1.2272846000269055,True,21
98K28,204,experiment,22,→,right,→,0.7159763001836836,True,21
98K28,205,experiment,14,↑,left,←,1.3259219999890774,False,21
98K28,206,experiment,32,↓,up,↑,1.3719222000800073,False,21
98K28,207,experiment,58,←,left,←,0.6785280001349747,True,21
98K28,208,experiment,46,→,left,←,1.22125169984065,False,21
98K28,209,experiment,52,↑,left,←,0.48371689999476075,False,21
98K28,210,experiment,13,→,left,←,1.3411651998758316,False,21
98K28,211,experiment,21,→,left,←,0.8258829999249429,False,21
98K28,212,experiment,26,↓,right,→,1.472236800007522,False,21
98K28,213,experiment,20,↑,up,↑,1.2242040999699384,True,21
98K28,214,experiment,49,↑,down,↓,1.1185274000745267,False,21
98K28,215,experiment,17,←,up,↑,0.974562699906528,False,21
98K28,216,experiment,39,←,up,↑,0.8298684998881072,False,21
98K28,217,experiment,28,↑,up,↑,0.7699259000364691,True,21
98K28,218,experiment,18,↓,up,↑,0.9994485001079738,False,21
98K28,219,experiment,47,↓,up,↑,0.7678761000279337,False,21
98K28,220,experiment,53,↓,down,↓,0.7098582999315113,True,21
98K28,221,experiment,59,←,left,←,1.146516100037843,True,21
98K28,222,experiment,38,←,down,↓,0.8599330999422818,False,21
98K28,223,experiment,15,↓,down,↓,0.7439243998378515,True,21
98K28,224,experiment,35,↓,down,↓,0.739251899998635,True,21
98K28,225,experiment,36,↓,down,↓,0.6778613000642508,True,21
98K28,226,experiment,40,←,left,←,1.168416100088507,True,21
98K28,227,experiment,50,↑,up,↑,0.9446226998697966,True,21
98K28,228,experiment,24,←,left,←,0.6432663998566568,True,21
98K28,229,experiment,31,↑,down,↓,0.7011754000559449,False,21
98K28,230,experiment,43,↑,right,→,0.06858359999023378,False,21
98K28,231,experiment,44,↑,down,↓,0.10181580018252134,False,21
98K28,232,experiment,55,→,up,↑,0.08498169993981719,False,21
98K28,233,experiment,30,→,up,↑,0.051584500120952725,False,21
98K28,234,experiment,56,←,left,←,0.38395099993795156,True,21
98K28,235,experiment,23,→,down,↓,0.08493580017238855,False,21
98K28,236,experiment,29,↓,left,←,0.3184871000703424,False,21
98K28,237,experiment,25,↓,left,←,0.018309500068426132,False,21
98K28,238,experiment,41,←,right,→,0.05149720003828406,False,21
98K28,239,experiment,54,↓,left,←,0.1684725999366492,False,21
98K28,240,experiment,57,↑,left,←,0.7384512999560684,False,21
98K28,241,training,13,↑,left,←,0.2680960001889616,False,21
98K28,242,training,43,←,up,↑,0.033639099914580584,False,21
98K28,243,experiment,54,←,left,←,0.3675377001054585,True,21
98K28,244,experiment,48,↓,down,↓,1.5537841999903321,True,21
98K28,245,experiment,27,↓,down,↓,0.7060984000563622,True,21
98K28,246,experiment,57,↓,up,↑,1.183762300061062,False,21
98K28,247,experiment,40,→,right,→,1.8297603998798877,True,21
98K28,248,experiment,59,↓,down,↓,0.9091504001989961,True,21
98K28,249,experiment,22,↓,left,←,0.6264997001271695,False,21
98K28,250,experiment,21,→,down,↓,0.5318609001114964,False,21
98K28,251,experiment,15,↑,up,↑,1.6767268001567572,True,21
98K28,252,experiment,20,↑,up,↑,0.7325145001523197,True,21
98K28,253,experiment,34,←,up,↑,0.3182848000433296,False,21
98K28,254,experiment,28,↓,up,↑,0.8397962998133153,False,21
98K28,255,experiment,49,↑,left,←,0.749896900029853,False,21
98K28,256,experiment,19,↓,down,↓,1.0033076999243349,True,21
98K28,257,experiment,31,↑,down,↓,0.16834059986285865,False,21
98K28,258,experiment,16,↓,left,←,0.8138101000804454,False,21
98K28,259,experiment,55,↑,right,→,1.0251496999990195,False,21
98K28,260,experiment,44,↓,right,→,0.5625756001099944,False,21
98K28,261,experiment,52,↓,up,↑,0.6978387001436204,False,21
98K28,262,experiment,41,→,up,↑,0.5465887000318617,False,21
98K28,263,experiment,43,↑,up,↑,0.4334076999220997,True,21
98K28,264,experiment,32,←,left,←,0.968630300136283,True,21
98K28,265,experiment,35,→,left,←,0.7705934999976307,False,21
98K28,266,experiment,50,↑,up,↑,0.7786971000023186,True,21
98K28,267,experiment,37,→,right,→,1.0673595999833196,True,21
98K28,268,experiment,42,←,right,→,1.1330176999326795,False,21
98K28,269,experiment,58,→,right,→,0.9844035999849439,True,21
98K28,270,experiment,23,←,down,↓,0.7137854001484811,False,21
98K28,271,experiment,38,↓,up,↑,1.0997919999063015,False,21
98K28,272,experiment,56,↓,right,→,0.23507270007394254,False,21
98K28,273,experiment,25,↓,right,→,1.0918278999160975,False,21
98K28,274,experiment,26,←,right,→,0.46665509999729693,False,21
98K28,275,experiment,45,→,right,→,0.15185249992646277,True,21
98K28,276,experiment,33,→,right,→,0.8737117000855505,True,21
98K28,277,experiment,18,←,right,→,0.6831088999751955,False,21
98K28,278,experiment,47,↓,right,→,0.2021340001374483,False,21
98K28,279,experiment,30,←,down,↓,0.7903857999481261,False,21
98K28,280,experiment,36,←,left,←,0.7511787000112236,True,21
98K28,281,experiment,39,→,right,→,0.6311439999844879,True,21
98K28,282,experiment,46,↓,down,↓,0.871573599986732,True,21
98K28,283,experiment,29,←,left,←,0.6730998000130057,True,21
98K28,284,experiment,13,→,right,→,1.1337220000568777,True,21
98K28,285,experiment,53,←,left,←,0.5651235000696033,True,21
98K28,286,experiment,60,↓,down,↓,0.7023647997993976,True,21
98K28,287,experiment,14,←,left,←,0.6650608999188989,True,21
98K28,288,experiment,24,←,left,←,0.8623633000534028,True,21
98K28,289,experiment,17,↓,down,↓,0.7131163999438286,True,21
98K28,290,experiment,51,↑,right,→,0.9864012999460101,False,21
98K28,291,training,56,↑,down,↓,1.14047159999609,False,21
98K28,292,training,45,↑,left,←,0.7931910001207143,False,21
98K28,293,experiment,25,↓,left,←,0.6334762000478804,False,21
98K28,294,experiment,44,↑,up,↑,0.33389770006760955,True,21
98K28,295,experiment,53,←,down,↓,1.0010749001521617,False,21
98K28,296,experiment,34,→,left,←,0.3003156001213938,False,21
98K28,297,experiment,58,←,left,←,1.205628499854356,True,21
98K28,298,experiment,16,↑,left,←,0.6109770000912249,False,21
98K28,299,experiment,51,↑,up,↑,0.9530692000407726,True,21
98K28,300,experiment,41,↓,up,↑,0.06734119984321296,False,21
98K28,301,experiment,19,↓,down,↓,0.9409425999037921,True,21
98K28,302,experiment,42,→,up,↑,1.0516359999310225,False,21
98K28,303,experiment,33,↑,left,←,0.9317391999065876,False,21
98K28,304,experiment,43,↓,left,←,0.08415520004928112,False,21
98K28,305,experiment,32,→,down,↓,1.0624075999949127,False,21
98K28,306,experiment,29,↓,down,↓,0.2182432000990957,True,21
98K28,307,experiment,59,↓,right,→,0.05156460008583963,False,21
98K28,308,experiment,52,↓,right,→,0.786959599936381,False,21
98K28,309,experiment,54,↓,up,↑,0.5277639999985695,False,21
98K28,310,experiment,20,↑,up,↑,0.5649518000427634,True,21
98K28,311,experiment,46,↓,up,↑,0.10178160015493631,False,21
98K28,312,experiment,37,↓,right,→,0.33393129985779524,False,21
98K28,313,experiment,15,→,up,↑,0.11875749984756112,False,21
98K28,314,experiment,24,→,up,↑,0.38419460016302764,False,21
98K28,315,experiment,50,↑,right,→,0.05038370005786419,False,21
98K28,316,experiment,60,↓,right,→,0.31854470004327595,False,21
98K28,317,experiment,55,↓,down,↓,0.3333034999668598,True,21
98K28,318,experiment,28,→,up,↑,0.0671981000341475,False,21
98K28,319,experiment,14,↓,left,←,0.3016244999598712,False,21
98K28,320,experiment,38,→,left,←,0.4171834997832775,False,21
98K28,321,experiment,45,←,left,←,0.4504780999850482,True,21
98K28,322,experiment,36,→,right,→,0.679651299957186,True,21
98K28,323,experiment,26,←,up,↑,0.0016111000441014767,False,21
98K28,324,experiment,47,←,right,→,0.15153410006314516,False,21
98K28,325,experiment,30,←,right,→,0.8596274999435991,False,21
98K28,326,experiment,27,←,right,→,0.5995634000282735,False,21
98K28,327,experiment,56,↑,up,↑,0.0016799999866634607,True,21
98K28,328,experiment,57,→,up,↑,0.5663264999166131,False,21
98K28,329,experiment,49,←,left,←,0.6470343000255525,True,21
98K28,330,experiment,22,←,left,←,0.7990218000486493,True,21
98K28,331,experiment,31,↑,left,←,0.6502509999554604,False,21
98K28,332,experiment,48,→,right,→,1.768277799943462,True,21
98K28,333,experiment,39,↑,up,↑,0.8316192999482155,True,21
98K28,334,experiment,18,↑,up,↑,0.7863497999496758,True,21
98K28,335,experiment,21,→,up,↑,1.0449789999984205,False,21
98K28,336,experiment,17,↑,up,↑,0.4337210999801755,True,21
98K28,337,experiment,13,↑,up,↑,0.41707800002768636,True,21
98K28,338,experiment,40,↓,up,↑,0.7778564000036567,False,21
98K28,339,experiment,35,→,up,↑,0.6195340999402106,False,21
98K28,340,experiment,23,↓,right,→,1.1635863000992686,False,21
98K28,341,training,59,→,right,→,0.8129998999647796,True,21
98K28,342,training,16,↓,right,→,0.7775737000629306,False,21
98K28,343,experiment,34,→,left,←,0.28504269989207387,False,21
98K28,344,experiment,41,↓,up,↑,0.15086329984478652,False,21
98K28,345,experiment,47,←,up,↑,0.30162749998271465,False,21
98K28,346,experiment,25,↓,down,↓,0.0016342999879270792,True,21
98K28,347,experiment,36,↑,up,↑,0.8728691998403519,True,21
98K28,348,experiment,28,↓,down,↓,0.10177159984596074,True,21
98K28,349,experiment,30,→,left,←,0.7135522000025958,False,21
98K28,350,experiment,45,↑,up,↑,0.4673291000071913,True,21
98K28,351,experiment,19,↓,up,↑,0.7030838001519442,False,21
98K28,352,experiment,20,←,down,↓,0.3671342001762241,False,21
98K28,353,experiment,23,↑,right,→,0.017998100025579333,False,21
98K28,354,experiment,60,←,left,←,1.0809166000690311,True,21
98K28,355,experiment,16,→,up,↑,1.146869899937883,False,21
98K28,356,experiment,22,←,up,↑,0.3672114999499172,False,21
98K28,357,experiment,26,↓,up,↑,0.3835648000240326,False,21
98K28,358,experiment,35,→,up,↑,1.11022559995763,False,21
98K28,359,experiment,49,←,up,↑,0.7296705001499504,False,21
98K28,360,experiment,42,↓,down,↓,0.4167614998295903,True,21
98K28,361,experiment,48,→,right,→,0.3505855998955667,True,21
98K28,362,experiment,38,↓,right,→,0.8229980000760406,False,21
98K28,363,experiment,55,←,left,←,0.11858299979940057,True,21
98K28,364,experiment,18,→,left,←,0.9037376001942903,False,21
98K28,365,experiment,29,←,up,↑,0.4509026000741869,False,21
98K28,366,experiment,56,→,up,↑,0.4506061999127269,False,21
98K28,367,experiment,51,←,up,↑,1.587569799972698,False,21
98K28,368,experiment,54,↓,up,↑,0.28411710006184876,False,21
98K28,369,experiment,57,→,down,↓,1.0202136000152677,False,21
98K28,370,experiment,37,↑,right,→,0.08499619993381202,False,21
98K28,371,experiment,40,→,up,↑,0.2847995001357049,False,21
98K28,372,experiment,50,←,up,↑,0.5389517000876367,False,21
98K28,373,experiment,43,↑,left,←,0.2680504999589175,False,21
98K28,374,experiment,27,←,down,↓,0.25160699989646673,False,21
98K28,375,experiment,52,→,left,←,0.2682344000786543,False,21
98K28,376,experiment,46,↑,right,→,0.3333014000672847,False,21
98K28,377,experiment,31,↑,right,→,0.0016783000901341438,False,21
98K28,378,experiment,58,↑,left,←,0.6442476999945939,False,21
98K28,379,experiment,14,←,right,→,0.11766240000724792,False,21
98K28,380,experiment,39,←,down,↓,0.13554559997282922,False,21
98K28,381,experiment,59,→,right,→,0.7722107998561114,True,21
98K28,382,experiment,32,↑,up,↑,0.6325174998492002,True,21
98K28,383,experiment,33,←,left,←,0.45087569998577237,True,21
98K28,384,experiment,13,↓,left,←,1.1414530999027193,False,21
98K28,385,experiment,17,←,left,←,0.5648146001622081,True,21
98K28,386,experiment,15,→,left,←,0.9242942000273615,False,21
98K28,387,experiment,21,←,left,←,0.5775979000609368,True,21
98K28,388,experiment,24,↓,left,←,0.6509042999241501,False,21
98K28,389,experiment,53,↑,up,↑,0.4673125999979675,True,21
98K28,390,experiment,44,←,up,↑,0.4339572999160737,False,21
98K28,391,training,60,↓,down,↓,0.6848227998707443,True,21
98K28,392,training,27,↑,up,↑,0.46718039992265403,True,21
98K28,393,experiment,16,→,right,→,0.6737997999880463,True,21
98K28,394,experiment,38,→,left,←,0.18355389987118542,False,21
98K28,395,experiment,57,↓,right,→,0.5615031998604536,False,21
98K28,396,experiment,20,→,right,→,0.742490699980408,True,21
98K28,397,experiment,29,→,right,→,1.8774288999848068,True,21
98K28,398,experiment,35,↑,up,↑,0.5795076000504196,True,21
98K28,399,experiment,39,→,right,→,0.6583697001915425,True,21
98K28,400,experiment,45,↑,up,↑,0.8421342999208719,True,21
98K28,401,experiment,27,←,up,↑,1.9750063000246882,False,21
98K28,402,experiment,36,→,right,→,0.5520798999350518,True,21
98K28,403,experiment,23,→,right,→,0.43397490005008876,True,21
98K28,404,experiment,26,→,right,→,0.16696110018528998,True,21
98K28,405,experiment,58,↓,right,→,0.9468211999628693,False,21
98K28,406,experiment,22,↓,right,→,0.4170330998022109,False,21
98K28,407,experiment,30,→,left,←,0.48375690006650984,False,21
98K28,408,experiment,46,↓,down,↓,0.5907741999253631,True,21
98K28,409,experiment,41,←,down,↓,1.164088600082323,False,21
98K28,410,experiment,21,↑,up,↑,0.6799935000017285,True,21
98K28,411,experiment,48,↓,up,↑,1.0922087000217289,False,21
98K28,412,experiment,18,←,right,→,0.9967327998019755,False,21
98K28,413,experiment,24,↓,down,↓,0.6288692001253366,True,21
98K28,414,experiment,31,→,left,←,0.39993699989281595,False,21
98K28,415,experiment,34,→,right,→,0.4338720999658108,True,21
98K28,416,experiment,44,→,right,→,0.8170207000803202,True,21
98K28,417,experiment,49,→,left,←,1.5997347999364138,False,21
98K28,418,experiment,15,↓,down,↓,0.21819339995272458,True,21
98K28,419,experiment,17,←,right,→,0.20161180011928082,False,21
98K28,420,experiment,56,↓,right,→,0.3506636000238359,False,21
98K28,421,experiment,33,→,up,↑,0.1348999000620097,False,21
98K28,422,experiment,60,→,down,↓,0.20156929991208017,False,21
98K28,423,experiment,59,↑,up,↑,0.7288727001287043,True,21
98K28,424,experiment,42,→,left,←,1.7601400997955352,False,21
98K28,425,experiment,47,→,left,←,0.45129220001399517,False,21
98K28,426,experiment,37,→,right,→,0.4170073999557644,True,21
98K28,427,experiment,43,←,right,→,1.4647321999073029,False,21
98K28,428,experiment,28,←,up,↑,1.0754211000166833,False,21
98K28,429,experiment,51,→,right,→,0.3019115999341011,True,21
98K28,430,experiment,54,↓,right,→,0.3832944999448955,False,21
98K28,431,experiment,19,↑,down,↓,1.2241370999254286,False,21
98K28,432,experiment,55,←,down,↓,0.38397859991528094,False,21
98K28,433,experiment,13,↓,right,→,1.2025352001655847,False,21
98K28,434,experiment,14,↑,right,→,0.6649918998591602,False,21
98K28,435,experiment,25,↑,up,↑,0.7333388000261039,True,21
98K28,436,experiment,32,←,left,←,1.642738299909979,True,21
98K28,437,experiment,52,←,up,↑,0.9669766998849809,False,21
98K28,438,experiment,53,←,up,↑,0.6128434999845922,False,21
98K28,439,experiment,50,↓,down,↓,0.6026763999834657,True,21
98K28,440,experiment,40,←,left,←,0.4174810000695288,True,21
98K28,441,training,13,↑,up,↑,0.4837918998673558,True,21
98K28,442,training,43,↓,right,→,0.5959954001009464,False,21
98K28,443,experiment,58,↑,down,↓,0.853356699924916,False,21
98K28,444,experiment,24,←,left,←,0.6754123000428081,True,21
98K28,445,experiment,44,↓,up,↑,0.4005507999099791,False,21
98K28,446,experiment,28,→,left,←,0.7520637998823076,False,21
98K28,447,experiment,39,↓,left,←,0.10188620002008975,False,21
98K28,448,experiment,60,→,left,←,1.7380001998972148,False,21
98K28,449,experiment,43,↑,up,↑,0.4505906000267714,True,21
98K28,450,experiment,45,↓,down,↓,0.9513846999034286,True,21
98K28,451,experiment,29,→,left,←,1.230018800124526,False,21
98K28,452,experiment,20,←,left,←,0.6074273998383433,True,21
98K28,453,experiment,27,←,left,←,0.5493473000824451,True,21
98K28,454,experiment,25,↑,right,→,1.039947499986738,False,21
98K28,455,experiment,37,→,right,→,0.5969579999800771,True,21
98K28,456,experiment,15,←,up,↑,1.050606100121513,False,21
98K28,457,experiment,33,→,up,↑,0.7386606999207288,False,21
98K28,458,experiment,47,↑,down,↓,0.9339399000164121,False,21
98K28,459,experiment,51,↑,left,←,0.5266442000865936,False,21
98K28,460,experiment,41,←,left,←,0.6299886999186128,True,21
98K28,461,experiment,34,↑,left,←,0.31853069993667305,False,21
98K28,462,experiment,54,↓,left,←,0.4520616999361664,False,21
98K28,463,experiment,21,↓,left,←,0.8672939999960363,False,21
98K28,464,experiment,48,←,down,↓,0.2350846000481397,False,21
98K28,465,experiment,55,↑,left,←,1.3259705998934805,False,21
98K28,466,experiment,57,←,up,↑,0.11807420011609793,False,21
98K28,467,experiment,49,↑,down,↓,0.7806210999842733,False,21
98K28,468,experiment,31,↑,left,←,0.4172909997869283,False,21
98K28,469,experiment,40,↑,up,↑,0.4505472001619637,True,21
98K28,470,experiment,17,←,up,↑,0.6305625000968575,False,21
98K28,471,experiment,30,→,up,↑,0.5453941999003291,False,21
98K28,472,experiment,14,→,up,↑,0.7867161999456584,False,21
98K28,473,experiment,52,↓,down,↓,0.5212789000943303,True,21
98K28,474,experiment,38,↓,down,↓,0.4175704000517726,True,21
98K28,475,experiment,32,→,right,→,0.8834106000140309,True,21
98K28,476,experiment,18,↓,down,↓,0.7079685998614877,True,21
98K28,477,experiment,16,→,down,↓,0.5972569999285042,False,21
98K28,478,experiment,26,↑,up,↑,0.6999933999031782,True,21
98K28,479,experiment,13,↑,down,↓,1.0793141000904143,False,21
98K28,480,experiment,35,↑,up,↑,0.5653534000739455,True,21
98K28,481,experiment,53,→,up,↑,0.7712721999268979,False,21
98K28,482,experiment,23,↓,right,→,0.909240499837324,False,21
98K28,483,experiment,22,←,left,←,0.8828034000471234,True,21
98K28,484,experiment,42,←,left,←,0.5797045000363141,True,21
98K28,485,experiment,59,↓,down,↓,0.6205416000448167,True,21
98K28,486,experiment,50,↓,down,↓,0.9387127999216318,True,21
98K28,487,experiment,46,↓,left,←,0.6785925000440329,False,21
98K28,488,experiment,19,↓,down,↓,0.5993429000955075,True,21
98K28,489,experiment,56,←,up,↑,0.7221917998977005,False,21
98K28,490,experiment,36,←,up,↑,0.4338672000449151,False,21
98K28,491,training,50,↓,down,↓,0.7939083999954164,True,21
98K28,492,training,53,←,left,←,0.40122839994728565,True,21
98K28,493,experiment,55,←,down,↓,1.9541468999814242,False,21
98K28,494,experiment,34,↓,up,↑,0.30161069985479116,False,21
98K28,495,experiment,56,↑,down,↓,0.9378392000216991,False,21
98K28,496,experiment,26,←,down,↓,0.843345700064674,False,21
98K28,497,experiment,29,↑,right,→,0.6225328999571502,False,21
98K28,498,experiment,15,↓,right,→,0.8597828999627382,False,21
98K28,499,experiment,52,↓,left,←,0.30162260006181896,False,21
98K28,500,experiment,21,←,left,←,0.1849756999872625,True,21
98K28,501,experiment,44,↓,up,↑,0.9118516999296844,False,21
98K28,502,experiment,42,↓,up,↑,0.36733840010128915,False,21
98K28,503,experiment,22,↑,up,↑,0.625886500114575,True,21
98K28,504,experiment,47,←,left,←,0.7220966999884695,True,21
98K28,505,experiment,41,↓,right,→,1.217947900062427,False,21
98K28,506,experiment,53,↓,down,↓,0.8781743999570608,True,21
98K28,507,experiment,30,↓,left,←,1.167210099985823,False,21
98K28,508,experiment,19,→,right,→,0.6840214000549167,True,21
98K28,509,experiment,54,→,right,→,0.6764291001018137,True,21
98K28,510,experiment,20,↑,up,↑,0.948642099974677,True,21
98K28,511,experiment,50,↑,up,↑,0.8771540001034737,True,21
98K28,512,experiment,16,↑,up,↑,0.8158777998760343,True,21
98K28,513,experiment,45,↑,up,↑,0.673201700206846,True,21
98K28,514,experiment,36,→,right,→,0.6468597000930458,True,21
98K28,515,experiment,18,↓,down,↓,0.8724708999507129,True,21
98K28,516,experiment,40,↑,up,↑,0.6431609001010656,True,21
98K28,517,experiment,24,↓,up,↑,0.8820571999531239,False,21
98K28,518,experiment,37,↑,up,↑,0.5337958999443799,True,21
98K28,519,experiment,49,←,left,←,0.6558385000098497,True,21
98K28,520,experiment,33,↓,down,↓,0.6797849999275059,True,21
98K28,521,experiment,28,↓,down,↓,0.5304956999607384,True,21
98K28,522,experiment,43,↓,down,↓,0.8167804998811334,True,21
98K28,523,experiment,38,↓,up,↑,0.6868094000965357,False,21
98K28,524,experiment,13,→,right,→,0.850522099994123,True,21
98K28,525,experiment,39,←,left,←,0.5984666000586003,True,21
98K28,526,experiment,35,↓,down,↓,0.6551639998797327,True,21
98K28,527,experiment,60,↓,down,↓,0.9812490998301655,True,21
98K28,528,experiment,23,→,down,↓,0.9747309000231326,False,21
98K28,529,experiment,46,↓,down,↓,0.46756969997659326,True,21
98K28,530,experiment,25,↓,down,↓,1.109162800014019,True,21
98K28,531,experiment,14,←,up,↑,1.0477947001345456,False,21
98K28,532,experiment,58,↓,up,↑,0.0017121999990195036,False,21
98K28,533,experiment,51,→,up,↑,1.0151454000733793,False,21
98K28,534,experiment,31,↑,up,↑,0.5618724999949336,True,21
98K28,535,experiment,57,→,left,←,0.5818668000865728,False,21
98K28,536,experiment,17,↑,right,→,1.5073887000326067,False,21
98K28,537,experiment,27,→,down,↓,1.2612002999521792,False,21
98K28,538,experiment,48,↓,up,↑,1.1233366997912526,False,21
98K28,539,experiment,32,←,right,→,0.705375500023365,False,21
98K28,540,experiment,59,↓,down,↓,0.9017964999657124,True,21
98K28,541,training,52,→,right,→,0.5738343000411987,True,21
98K28,542,training,47,→,right,→,0.7676761001348495,True,21
98K28,543,experiment,28,↑,right,→,0.9026861998718232,False,21
98K28,544,experiment,50,↓,down,↓,1.9531461000442505,True,21
98K28,545,experiment,49,↓,no_key,no_letter,-1.0,False,21
98K28,546,experiment,33,←,left,←,0.8277136001270264,True,21
98K28,547,experiment,15,←,left,←,1.177109899930656,True,21
98K28,548,experiment,56,←,left,←,0.6532665998674929,True,21
98K28,549,experiment,45,→,left,←,0.557119800010696,False,21
98K28,550,experiment,31,↓,left,←,0.7543936998117715,False,21
98K28,551,experiment,58,↑,up,↑,0.8140079001896083,True,21
98K28,552,experiment,59,←,no_key,no_letter,-1.0,False,21
98K28,553,experiment,16,↓,right,→,1.322682400001213,False,21
98K28,554,experiment,55,↑,down,↓,0.5693608999717981,False,21
98K28,555,experiment,17,↑,down,↓,1.0310925000812858,False,21
98K28,556,experiment,21,↑,down,↓,0.9760052000638098,False,21
98K28,557,experiment,46,←,no_key,no_letter,-1.0,False,21
98K28,558,experiment,14,←,left,←,0.2503803998697549,True,21
98K28,559,experiment,52,←,right,→,0.7999819000251591,False,21
98K28,560,experiment,13,↑,right,→,0.6791889001615345,False,21
98K28,561,experiment,34,↓,right,→,0.9097754000686109,False,21
98K28,562,experiment,44,↑,up,↑,0.48422810016199946,True,21
98K28,563,experiment,23,↓,down,↓,1.2410768000409007,True,21
98K28,564,experiment,43,←,left,←,0.8190706998575479,True,21
98K28,565,experiment,19,↓,left,←,1.309768300037831,False,21
98K28,566,experiment,27,↓,up,↑,0.21835690014995635,False,21
98K28,567,experiment,53,↓,up,↑,0.3839179999195039,False,21
98K28,568,experiment,24,←,right,→,1.0543467001989484,False,21
98K28,569,experiment,38,→,right,→,0.6190855999011546,True,21
98K28,570,experiment,29,↓,right,→,0.7990011000074446,False,21
98K28,571,experiment,37,←,left,←,0.6946541999932379,True,21
98K28,572,experiment,40,→,right,→,0.26835859986022115,True,21
98K28,573,experiment,25,↑,up,↑,0.3504945000167936,True,21
98K28,574,experiment,26,→,down,↓,0.25078929984010756,False,21
98K28,575,experiment,57,↑,right,→,0.0683081999886781,False,21
98K28,576,experiment,39,↓,right,→,1.5580611999612302,False,21
98K28,577,experiment,30,↑,right,→,0.33356519998051226,False,21
98K28,578,experiment,41,↓,right,→,0.9944936998654157,False,21
98K28,579,experiment,35,↑,right,→,0.7956658999901265,False,21
98K28,580,experiment,36,↓,up,↑,1.5487218999769539,False,21
98K28,581,experiment,22,→,left,←,1.0717688000295311,False,21
98K28,582,experiment,60,↓,down,↓,0.7170842001214623,True,21
98K28,583,experiment,20,←,left,←,0.4831626999657601,True,21
98K28,584,experiment,48,←,left,←,0.6472914000041783,True,21
98K28,585,experiment,18,↑,left,←,0.25110089988447726,False,21
98K28,586,experiment,51,→,left,←,-0.01379240001551807,False,21
98K28,587,experiment,47,↓,down,↓,0.2683596999850124,True,21
98K28,588,experiment,54,↑,down,↓,0.25171980005688965,False,21
98K28,589,experiment,32,↓,up,↑,1.2623121000360698,False,21
98K28,590,experiment,42,←,right,→,0.8002539000008255,False,21
