PART_ID,Trial,Stimuli,Training,FIXTIME,MTIME,Correct,SOA,Level,Reversal,Reversal_count,Latency,Rating
Y2-S2-017K23,1,SQUARES,training,45,17,True,12,-,-,-,0.0675753999967128,-
Y2-S2-017K23,2,SQUARES,training,45,17,False,12,-,-,-,-1.0,-
Y2-S2-017K23,3,SQUARES,training,45,17,True,12,-,-,-,0.21729629999026656,-
Y2-S2-017K23,4,SQUARES,training,45,17,True,12,-,-,-,0.0011899999808520079,-
Y2-S2-017K23,5,SQUARES,training,45,17,True,12,-,-,-,2.668457399995532,-
Y2-S2-017K23,6,SQUARES,training,45,17,True,12,-,-,-,0.9505989999743178,-
Y2-S2-017K23,7,SQUARES,training,45,17,True,12,-,-,-,0.4000468000303954,-
Y2-S2-017K23,8,SQUARES,training,45,17,True,12,-,-,-,0.450930499995593,-
Y2-S2-017K23,9,SQUARES,training,45,17,True,12,-,-,-,0.2343327000271529,-
Y2-S2-017K23,10,SQUARES,training,45,17,True,12,-,-,-,0.700531399983447,-
Y2-S2-017K23,11,SQUARES,training,45,17,True,6,-,-,-,2.6344053999637254,-
Y2-S2-017K23,12,SQUARES,training,45,17,True,6,-,-,-,0.4670316000119783,-
Y2-S2-017K23,13,SQUARES,training,45,17,True,6,-,-,-,0.3673589000245556,-
Y2-S2-017K23,14,SQUARES,training,45,17,True,6,-,-,-,0.36683650000486523,-
Y2-S2-017K23,15,SQUARES,training,45,17,True,6,-,-,-,0.3505732999765314,-
Y2-S2-017K23,16,SQUARES,training,45,17,True,6,-,-,-,0.2514675999991596,-
Y2-S2-017K23,17,SQUARES,training,45,17,True,6,-,-,-,0.1340162000269629,-
Y2-S2-017K23,18,SQUARES,training,45,17,True,6,-,-,-,0.03419099998427555,-
Y2-S2-017K23,19,SQUARES,training,45,17,True,6,-,-,-,0.6174228999880143,-
Y2-S2-017K23,20,SQUARES,training,45,17,True,6,-,-,-,0.050718999991659075,-
Y2-S2-017K23,1,SQUARES,exp,45,17,True,6,0,0,0,0.9009522999986075,-
Y2-S2-017K23,2,SQUARES,exp,45,17,True,6,0,0,-,0.1174732000217773,-
Y2-S2-017K23,3,SQUARES,exp,45,17,True,6,1,0,-,0.20085799996741116,-
Y2-S2-017K23,4,SQUARES,exp,45,17,True,5,1,0,-,0.13407430000370368,-
Y2-S2-017K23,5,SQUARES,exp,45,17,True,5,1,0,-,0.11740950000239536,-
Y2-S2-017K23,6,SQUARES,exp,45,17,True,5,1,0,-,0.051047999993897974,-
Y2-S2-017K23,7,SQUARES,exp,45,17,True,4,1,0,-,1.2675969999982044,-
Y2-S2-017K23,8,SQUARES,exp,45,17,True,4,1,0,-,0.3506953000323847,-
Y2-S2-017K23,9,SQUARES,exp,45,17,True,4,1,0,-,0.21776390000013635,-
Y2-S2-017K23,10,SQUARES,exp,45,17,True,3,1,0,-,0.23415870004100725,-
Y2-S2-017K23,11,SQUARES,exp,45,17,True,3,1,0,-,0.100822199950926,-
Y2-S2-017K23,12,SQUARES,exp,45,17,True,3,1,0,-,0.251172200019937,-
Y2-S2-017K23,13,SQUARES,exp,45,17,True,2,1,0,-,0.3841736000031233,-
Y2-S2-017K23,14,SQUARES,exp,45,17,True,2,1,0,-,0.23423859995091334,-
Y2-S2-017K23,15,SQUARES,exp,45,17,True,2,1,0,-,0.4002877000020817,-
Y2-S2-017K23,16,SQUARES,exp,45,17,False,1,-1,1,1,0.5508564000483602,-
Y2-S2-017K23,17,SQUARES,exp,45,17,True,2,-1,0,-,0.2672518999897875,-
Y2-S2-017K23,18,SQUARES,exp,45,17,True,2,-1,0,-,0.6508676999947056,-
Y2-S2-017K23,19,SQUARES,exp,45,17,True,2,1,1,2,0.284372300026007,-
Y2-S2-017K23,20,SQUARES,exp,45,17,False,1,-1,1,3,0.8508867000346072,-
Y2-S2-017K23,21,SQUARES,exp,45,17,True,2,-1,0,-,0.317751299997326,-
Y2-S2-017K23,22,SQUARES,exp,45,17,False,2,-1,0,-,0.3008828000165522,-
Y2-S2-017K23,23,SQUARES,exp,45,17,True,3,-1,0,-,0.2175037999986671,-
Y2-S2-017K23,24,SQUARES,exp,45,17,True,3,-1,0,-,0.3011477999971248,-
Y2-S2-017K23,25,SQUARES,exp,45,17,True,3,1,1,4,0.18432310002390295,-
Y2-S2-017K23,26,SQUARES,exp,45,17,True,2,1,0,-,0.3673358999658376,-
Y2-S2-017K23,27,SQUARES,exp,45,17,False,2,-1,1,5,0.31743709999136627,-
Y2-S2-017K23,28,SQUARES,exp,45,17,True,3,-1,0,-,0.18430079997051507,-
Y2-S2-017K23,29,SQUARES,exp,45,17,True,3,-1,0,-,0.3672903999686241,-
Y2-S2-017K23,30,SQUARES,exp,45,17,True,3,1,1,6,0.8170588000211865,-
Y2-S2-017K23,31,SQUARES,exp,45,17,False,2,-1,1,7,0.25093129999004304,-
Y2-S2-017K23,32,SQUARES,exp,45,17,False,3,-1,0,-,0.4013171999831684,-
Y2-S2-017K23,33,SQUARES,exp,45,17,True,4,-1,0,-,0.21778209996409714,-
Y2-S2-017K23,34,SQUARES,exp,45,17,True,4,-1,0,-,0.6838249000138603,-
Y2-S2-017K23,35,SQUARES,exp,45,17,True,4,1,1,8,0.2677127000060864,-
Y2-S2-017K23,36,SQUARES,exp,45,17,True,3,1,0,-,0.4841774000087753,-
Y2-S2-017K23,37,SQUARES,exp,45,17,True,3,1,0,-,0.4840414999634959,-
Y2-S2-017K23,38,SQUARES,exp,45,17,True,3,1,0,-,0.35092459997395054,-
Y2-S2-017K23,39,SQUARES,exp,45,17,True,2,1,0,-,0.1841300000087358,-
Y2-S2-017K23,40,SQUARES,exp,45,17,True,2,1,0,-,0.2510830999817699,-
Y2-S2-017K23,41,SQUARES,exp,45,17,True,2,1,0,-,0.9174339000019245,-
Y2-S2-017K23,42,SQUARES,exp,45,17,False,1,-1,1,9,0.45100499998079613,-
Y2-S2-017K23,43,SQUARES,exp,45,17,False,2,-1,0,-,0.23418329999549314,-
Y2-S2-017K23,44,SQUARES,exp,45,17,True,3,-1,0,-,0.21750590001465753,-
Y2-S2-017K23,45,SQUARES,exp,45,17,True,3,-1,0,-,0.21715199999744073,-
Y2-S2-017K23,46,SQUARES,exp,45,17,True,3,1,1,10,0.3676135999849066,-
Y2-S2-017K23,47,SQUARES,exp,45,17,False,2,-1,1,11,0.16751689999364316,-
Y2-S2-017K23,48,SQUARES,exp,45,17,True,3,-1,0,-,0.3839721000404097,-
Y2-S2-017K23,49,SQUARES,exp,45,17,True,3,-1,0,-,0.28363510000053793,-
Y2-S2-017K23,50,SQUARES,exp,45,17,True,3,1,1,12,0.5008660999592394,-
Y2-S2-017K23,51,SQUARES,exp,45,17,True,2,1,0,-,0.6180759000126272,-
Y2-S2-017K23,52,SQUARES,exp,45,17,False,2,-1,1,13,0.250695499998983,-
Y2-S2-017K23,53,SQUARES,exp,45,17,True,3,-1,0,-,0.5507688000216149,-
Y2-S2-017K23,54,SQUARES,exp,45,17,True,3,-1,0,-,0.33441160002257675,-
Y2-S2-017K23,55,SQUARES,exp,45,17,True,3,1,1,14,0.2677432000054978,-
Y2-S2-017K23,56,SQUARES,exp,45,17,True,2,1,0,-,0.18459790002088994,-
Y2-S2-017K23,57,SQUARES,exp,45,17,True,2,1,0,-,0.31808830000227317,-
Y2-S2-017K23,58,SQUARES,exp,45,17,True,2,1,0,-,0.18420460005290806,-
Y2-S2-017K23,59,SQUARES,exp,45,17,False,1,-1,1,15,0.15004530001897365,-
Y2-S2-017K23,60,SQUARES,exp,45,17,False,2,-1,0,-,1.0176989999599755,-
Y2-S2-017K23,61,SQUARES,exp,45,17,False,3,-1,0,-,0.20096460002241656,-
Y2-S2-017K23,62,SQUARES,exp,45,17,True,4,-1,0,-,0.0832941000116989,-
Y2-S2-017K23,63,SQUARES,exp,45,17,True,4,-1,0,-,0.06817270000465214,-
Y2-S2-017K23,64,SQUARES,exp,45,17,True,4,1,1,16,0.10204190004151314,-
Y2-S2-017K23,1,CIRCLES,training,45,17,True,20,-,-,-,0.6009192999918014,-
Y2-S2-017K23,2,CIRCLES,training,45,17,True,20,-,-,-,0.1343223000294529,-
Y2-S2-017K23,3,CIRCLES,training,45,17,True,20,-,-,-,0.4675420999992639,-
Y2-S2-017K23,4,CIRCLES,training,45,17,True,20,-,-,-,0.5173911000019871,-
Y2-S2-017K23,5,CIRCLES,training,45,17,True,20,-,-,-,0.2677134000114165,-
Y2-S2-017K23,6,CIRCLES,training,45,17,True,20,-,-,-,0.23422939999727532,-
Y2-S2-017K23,7,CIRCLES,training,45,17,True,20,-,-,-,0.3340163000393659,-
Y2-S2-017K23,8,CIRCLES,training,45,17,True,20,-,-,-,0.28428709995932877,-
Y2-S2-017K23,9,CIRCLES,training,45,17,True,20,-,-,-,0.03399700002046302,-
Y2-S2-017K23,10,CIRCLES,training,45,17,True,20,-,-,-,0.30081399995833635,-
Y2-S2-017K23,11,CIRCLES,training,45,17,True,10,-,-,-,0.06730819999938831,-
Y2-S2-017K23,12,CIRCLES,training,45,17,True,10,-,-,-,0.8007594000082463,-
Y2-S2-017K23,13,CIRCLES,training,45,17,True,10,-,-,-,0.6009283000021242,-
Y2-S2-017K23,14,CIRCLES,training,45,17,True,10,-,-,-,0.5675781000172719,-
Y2-S2-017K23,15,CIRCLES,training,45,17,True,10,-,-,-,0.35080369998468086,-
Y2-S2-017K23,16,CIRCLES,training,45,17,True,10,-,-,-,0.016967700037639588,-
Y2-S2-017K23,17,CIRCLES,training,45,17,True,10,-,-,-,0.0009365000296384096,-
Y2-S2-017K23,18,CIRCLES,training,45,17,True,10,-,-,-,0.13422629999695346,-
Y2-S2-017K23,19,CIRCLES,training,45,17,True,10,-,-,-,0.06782589998329058,-
Y2-S2-017K23,20,CIRCLES,training,45,17,True,10,-,-,-,0.28423009999096394,-
Y2-S2-017K23,1,CIRCLES,exp,45,17,True,10,0,0,0,0.4008727999753319,-
Y2-S2-017K23,2,CIRCLES,exp,45,17,True,10,0,0,-,0.4506647000089288,-
Y2-S2-017K23,3,CIRCLES,exp,45,17,True,10,1,0,-,0.33423380000749603,-
Y2-S2-017K23,4,CIRCLES,exp,45,17,True,9,1,0,-,0.30071360000874847,-
Y2-S2-017K23,5,CIRCLES,exp,45,17,True,9,1,0,-,0.267378100019414,-
Y2-S2-017K23,6,CIRCLES,exp,45,17,True,9,1,0,-,0.10099960002116859,-
Y2-S2-017K23,7,CIRCLES,exp,45,17,True,8,1,0,-,0.051015000033658,-
Y2-S2-017K23,8,CIRCLES,exp,45,17,True,8,1,0,-,0.13479779998306185,-
Y2-S2-017K23,9,CIRCLES,exp,45,17,True,8,1,0,-,0.10075040004448965,-
Y2-S2-017K23,10,CIRCLES,exp,45,17,True,7,1,0,-,0.36761529999785125,-
Y2-S2-017K23,11,CIRCLES,exp,45,17,True,7,1,0,-,0.26755960000446066,-
Y2-S2-017K23,12,CIRCLES,exp,45,17,True,7,1,0,-,0.18445160001283512,-
Y2-S2-017K23,13,CIRCLES,exp,45,17,True,6,1,0,-,0.23423609999008477,-
Y2-S2-017K23,14,CIRCLES,exp,45,17,True,6,1,0,-,0.2840816000243649,-
Y2-S2-017K23,15,CIRCLES,exp,45,17,True,6,1,0,-,0.13430920004611835,-
Y2-S2-017K23,16,CIRCLES,exp,45,17,True,5,1,0,-,0.3512938999920152,-
Y2-S2-017K23,17,CIRCLES,exp,45,17,False,5,-1,1,1,0.36770109995268285,-
Y2-S2-017K23,18,CIRCLES,exp,45,17,True,6,-1,0,-,0.10085230000549927,-
Y2-S2-017K23,19,CIRCLES,exp,45,17,True,6,-1,0,-,0.06757170002674684,-
Y2-S2-017K23,20,CIRCLES,exp,45,17,True,6,1,1,2,0.6678377999924123,-
Y2-S2-017K23,21,CIRCLES,exp,45,17,True,5,1,0,-,0.3011161999893375,-
Y2-S2-017K23,22,CIRCLES,exp,45,17,True,5,1,0,-,0.1842062000068836,-
Y2-S2-017K23,23,CIRCLES,exp,45,17,False,5,-1,1,3,0.4009152999497019,-
Y2-S2-017K23,24,CIRCLES,exp,45,17,True,6,-1,0,-,0.45097760000498965,-
Y2-S2-017K23,25,CIRCLES,exp,45,17,True,6,-1,0,-,0.15053129999432713,-
Y2-S2-017K23,26,CIRCLES,exp,45,17,True,6,1,1,4,0.08350990002509207,-
Y2-S2-017K23,27,CIRCLES,exp,45,17,True,5,1,0,-,0.2674632999696769,-
Y2-S2-017K23,28,CIRCLES,exp,45,17,True,5,1,0,-,0.15071409998927265,-
Y2-S2-017K23,29,CIRCLES,exp,45,17,True,5,1,0,-,1.0342496000230312,-
Y2-S2-017K23,30,CIRCLES,exp,45,17,True,4,1,0,-,0.43423539999639615,-
Y2-S2-017K23,31,CIRCLES,exp,45,17,True,4,1,0,-,0.28389049996621907,-
Y2-S2-017K23,32,CIRCLES,exp,45,17,True,4,1,0,-,0.3675370999844745,-
Y2-S2-017K23,33,CIRCLES,exp,45,17,True,3,1,0,-,0.434125000028871,-
Y2-S2-017K23,34,CIRCLES,exp,45,17,True,3,1,0,-,0.06761680002091452,-
Y2-S2-017K23,35,CIRCLES,exp,45,17,False,3,-1,1,5,0.06693580001592636,-
Y2-S2-017K23,36,CIRCLES,exp,45,17,True,4,-1,0,-,0.08427250001113862,-
Y2-S2-017K23,37,CIRCLES,exp,45,17,False,4,-1,0,-,0.16770260001067072,-
Y2-S2-017K23,38,CIRCLES,exp,45,17,True,5,-1,0,-,0.01790069998241961,-
Y2-S2-017K23,39,CIRCLES,exp,45,17,True,5,-1,0,-,0.3342947000055574,-
Y2-S2-017K23,40,CIRCLES,exp,45,17,True,5,1,1,6,0.6009192999918014,-
Y2-S2-017K23,41,CIRCLES,exp,45,17,True,4,1,0,-,0.2510257000103593,-
Y2-S2-017K23,42,CIRCLES,exp,45,17,True,4,1,0,-,0.6004680000478402,-
Y2-S2-017K23,43,CIRCLES,exp,45,17,True,4,1,0,-,0.5343119000317529,-
Y2-S2-017K23,44,CIRCLES,exp,45,17,False,3,-1,1,7,0.26736140000866726,-
Y2-S2-017K23,45,CIRCLES,exp,45,17,True,4,-1,0,-,0.10096239997074008,-
Y2-S2-017K23,46,CIRCLES,exp,45,17,False,4,-1,0,-,0.5675145999994129,-
Y2-S2-017K23,47,CIRCLES,exp,45,17,False,5,-1,0,-,0.31765069998800755,-
Y2-S2-017K23,48,CIRCLES,exp,45,17,True,6,-1,0,-,0.3176864999695681,-
Y2-S2-017K23,49,CIRCLES,exp,45,17,True,6,-1,0,-,0.20103320002090186,-
Y2-S2-017K23,50,CIRCLES,exp,45,17,True,6,1,1,8,0.21758140000747517,-
Y2-S2-017K23,51,CIRCLES,exp,45,17,True,5,1,0,-,0.25063770002452657,-
Y2-S2-017K23,52,CIRCLES,exp,45,17,True,5,1,0,-,0.1009790999814868,-
Y2-S2-017K23,53,CIRCLES,exp,45,17,True,5,1,0,-,0.5509992999723181,-
Y2-S2-017K23,54,CIRCLES,exp,45,17,False,4,-1,1,9,0.3339850000338629,-
Y2-S2-017K23,55,CIRCLES,exp,45,17,False,5,-1,0,-,0.2836257999879308,-
Y2-S2-017K23,56,CIRCLES,exp,45,17,True,6,-1,0,-,0.06812589999753982,-
Y2-S2-017K23,57,CIRCLES,exp,45,17,True,6,-1,0,-,0.10063330002594739,-
Y2-S2-017K23,58,CIRCLES,exp,45,17,True,6,1,1,10,0.05069409997668117,-
Y2-S2-017K23,59,CIRCLES,exp,45,17,True,5,1,0,-,0.06747900001937523,-
Y2-S2-017K23,60,CIRCLES,exp,45,17,True,5,1,0,-,0.3007787000387907,-
Y2-S2-017K23,61,CIRCLES,exp,45,17,True,5,1,0,-,0.10110040003200993,-
Y2-S2-017K23,62,CIRCLES,exp,45,17,True,4,1,0,-,0.11747739999555051,-
Y2-S2-017K23,63,CIRCLES,exp,45,17,True,4,1,0,-,0.06726470001740381,-
Y2-S2-017K23,64,CIRCLES,exp,45,17,True,4,1,0,-,0.03426159999798983,-
Y2-S2-017K23,65,CIRCLES,exp,45,17,False,3,-1,1,11,0.1843022999819368,-
Y2-S2-017K23,66,CIRCLES,exp,45,17,True,4,-1,0,-,0.08392409997759387,-
Y2-S2-017K23,67,CIRCLES,exp,45,17,True,4,-1,0,-,0.1174919999903068,-
Y2-S2-017K23,68,CIRCLES,exp,45,17,True,4,1,1,12,0.01737019995925948,-
Y2-S2-017K23,69,CIRCLES,exp,45,17,True,3,1,0,-,0.1339225000119768,-
Y2-S2-017K23,70,CIRCLES,exp,45,17,False,3,-1,1,13,1.0174437999958172,-
Y2-S2-017K23,71,CIRCLES,exp,45,17,True,4,-1,0,-,0.08406480000121519,-
Y2-S2-017K23,72,CIRCLES,exp,45,17,True,4,-1,0,-,0.8508542000199668,-
Y2-S2-017K23,73,CIRCLES,exp,45,17,False,4,-1,0,-,0.8506459000054747,-
Y2-S2-017K23,74,CIRCLES,exp,45,17,True,5,-1,0,-,0.5176012999727391,-
Y2-S2-017K23,75,CIRCLES,exp,45,17,True,5,-1,0,-,0.10070870001800358,-
Y2-S2-017K23,76,CIRCLES,exp,45,17,True,5,1,1,14,0.06762739998521283,-
Y2-S2-017K23,77,CIRCLES,exp,45,17,True,4,1,0,-,0.06776339997304603,-
Y2-S2-017K23,78,CIRCLES,exp,45,17,True,4,1,0,-,0.13446840003598481,-
Y2-S2-017K23,79,CIRCLES,exp,45,17,True,4,1,0,-,0.06758040003478527,-
Y2-S2-017K23,80,CIRCLES,exp,45,17,False,3,-1,1,15,0.5676630000234582,-
Y2-S2-017K23,81,CIRCLES,exp,45,17,True,4,-1,0,-,0.46763300005113706,-
Y2-S2-017K23,82,CIRCLES,exp,45,17,True,4,-1,0,-,0.01754210004583001,-
Y2-S2-017K23,83,CIRCLES,exp,45,17,False,4,-1,0,-,0.451020399981644,-
Y2-S2-017K23,84,CIRCLES,exp,45,17,True,5,-1,0,-,0.6176957999705337,-
Y2-S2-017K23,85,CIRCLES,exp,45,17,True,5,-1,0,-,0.5176933000329882,-
Y2-S2-017K23,86,CIRCLES,exp,45,17,True,5,1,1,16,1.0673438999801874,-
