PART_ID,Trial,Stimuli,Training,FIXTIME,MTIME,Correct,SOA,Level,Reversal,Reversal_count,Latency,Rating
Y2-S2-232K20,1,SQUARES,training,45,17,True,12,-,-,-,0.651033200090751,-
Y2-S2-232K20,2,SQUARES,training,45,17,True,12,-,-,-,0.1679237000644207,-
Y2-S2-232K20,3,SQUARES,training,45,17,True,12,-,-,-,0.11755690001882613,-
Y2-S2-232K20,4,SQUARES,training,45,17,True,12,-,-,-,0.3338788999244571,-
Y2-S2-232K20,5,SQUARES,training,45,17,True,12,-,-,-,0.16679230006411672,-
Y2-S2-232K20,6,SQUARES,training,45,17,True,12,-,-,-,0.23418399994261563,-
Y2-S2-232K20,7,SQUARES,training,45,17,True,12,-,-,-,0.1343037998303771,-
Y2-S2-232K20,8,SQUARES,training,45,17,True,12,-,-,-,1.7345879001077265,-
Y2-S2-232K20,9,SQUARES,training,45,17,True,12,-,-,-,0.35075869993306696,-
Y2-S2-232K20,10,SQUARES,training,45,17,True,12,-,-,-,0.5340457998681813,-
Y2-S2-232K20,11,SQUARES,training,45,17,True,6,-,-,-,0.3176136000547558,-
Y2-S2-232K20,12,SQUARES,training,45,17,True,6,-,-,-,0.3336348000448197,-
Y2-S2-232K20,13,SQUARES,training,45,17,True,6,-,-,-,0.3175015999004245,-
Y2-S2-232K20,14,SQUARES,training,45,17,True,6,-,-,-,0.2678037998266518,-
Y2-S2-232K20,15,SQUARES,training,45,17,True,6,-,-,-,0.3176908001769334,-
Y2-S2-232K20,16,SQUARES,training,45,17,True,6,-,-,-,0.30100259999744594,-
Y2-S2-232K20,17,SQUARES,training,45,17,True,6,-,-,-,0.26758019998669624,-
Y2-S2-232K20,18,SQUARES,training,45,17,True,6,-,-,-,0.25085409986786544,-
Y2-S2-232K20,19,SQUARES,training,45,17,True,6,-,-,-,0.3011632999405265,-
Y2-S2-232K20,20,SQUARES,training,45,17,True,6,-,-,-,0.28478979994542897,-
Y2-S2-232K20,1,SQUARES,exp,45,17,True,6,0,0,0,0.2176055999007076,-
Y2-S2-232K20,2,SQUARES,exp,45,17,True,6,0,0,-,0.2839869000017643,-
Y2-S2-232K20,3,SQUARES,exp,45,17,True,6,1,0,-,0.3509792999830097,-
Y2-S2-232K20,4,SQUARES,exp,45,17,True,5,1,0,-,0.21743039996363223,-
Y2-S2-232K20,5,SQUARES,exp,45,17,True,5,1,0,-,0.23444939986802638,-
Y2-S2-232K20,6,SQUARES,exp,45,17,True,5,1,0,-,0.2675014000851661,-
Y2-S2-232K20,7,SQUARES,exp,45,17,True,4,1,0,-,0.31760820001363754,-
Y2-S2-232K20,8,SQUARES,exp,45,17,True,4,1,0,-,0.23428070009686053,-
Y2-S2-232K20,9,SQUARES,exp,45,17,True,4,1,0,-,0.2509677999187261,-
Y2-S2-232K20,10,SQUARES,exp,45,17,False,3,-1,1,1,0.5171533999964595,-
Y2-S2-232K20,11,SQUARES,exp,45,17,True,4,-1,0,-,0.28366030007600784,-
Y2-S2-232K20,12,SQUARES,exp,45,17,True,4,-1,0,-,0.284294500015676,-
Y2-S2-232K20,13,SQUARES,exp,45,17,True,4,1,1,2,0.2347386998590082,-
Y2-S2-232K20,14,SQUARES,exp,45,17,False,3,-1,1,3,0.38418009993620217,-
Y2-S2-232K20,15,SQUARES,exp,45,17,True,4,-1,0,-,0.35086359991692007,-
Y2-S2-232K20,16,SQUARES,exp,45,17,True,4,-1,0,-,0.2671394001226872,-
Y2-S2-232K20,17,SQUARES,exp,45,17,True,4,1,1,4,0.21761819999665022,-
Y2-S2-232K20,18,SQUARES,exp,45,17,True,3,1,0,-,0.3008051000069827,-
Y2-S2-232K20,19,SQUARES,exp,45,17,True,3,1,0,-,0.3174294999334961,-
Y2-S2-232K20,20,SQUARES,exp,45,17,True,3,1,0,-,0.6508656998630613,-
Y2-S2-232K20,21,SQUARES,exp,45,17,True,2,1,0,-,0.30054419999942183,-
Y2-S2-232K20,22,SQUARES,exp,45,17,True,2,1,0,-,0.417276700027287,-
Y2-S2-232K20,23,SQUARES,exp,45,17,True,2,1,0,-,0.28479039994999766,-
Y2-S2-232K20,24,SQUARES,exp,45,17,False,1,-1,1,5,1.4849302999209613,-
Y2-S2-232K20,25,SQUARES,exp,45,17,False,2,-1,0,-,0.3676265999674797,-
Y2-S2-232K20,26,SQUARES,exp,45,17,True,3,-1,0,-,0.4009195000398904,-
Y2-S2-232K20,27,SQUARES,exp,45,17,True,3,-1,0,-,0.3508546999655664,-
Y2-S2-232K20,28,SQUARES,exp,45,17,True,3,1,1,6,0.3504304999951273,-
Y2-S2-232K20,29,SQUARES,exp,45,17,True,2,1,0,-,0.3008332001045346,-
Y2-S2-232K20,30,SQUARES,exp,45,17,True,2,1,0,-,0.550993800163269,-
Y2-S2-232K20,31,SQUARES,exp,45,17,True,2,1,0,-,1.2007981999777257,-
Y2-S2-232K20,32,SQUARES,exp,45,17,True,1,1,0,-,0.5842085001058877,-
Y2-S2-232K20,33,SQUARES,exp,45,17,True,1,1,0,-,0.6841536001302302,-
Y2-S2-232K20,34,SQUARES,exp,45,17,False,1,-1,1,7,0.36747909989207983,-
Y2-S2-232K20,35,SQUARES,exp,45,17,True,2,-1,0,-,0.26749749993905425,-
Y2-S2-232K20,36,SQUARES,exp,45,17,False,2,-1,0,-,0.4175226001534611,-
Y2-S2-232K20,37,SQUARES,exp,45,17,True,3,-1,0,-,0.26732870005071163,-
Y2-S2-232K20,38,SQUARES,exp,45,17,True,3,-1,0,-,0.2840340998955071,-
Y2-S2-232K20,39,SQUARES,exp,45,17,True,3,1,1,8,0.3509160000830889,-
Y2-S2-232K20,40,SQUARES,exp,45,17,True,2,1,0,-,0.26757220015861094,-
Y2-S2-232K20,41,SQUARES,exp,45,17,False,2,-1,1,9,0.40094720013439655,-
Y2-S2-232K20,42,SQUARES,exp,45,17,True,3,-1,0,-,2.367573699913919,-
Y2-S2-232K20,43,SQUARES,exp,45,17,False,3,-1,0,-,0.567198800155893,-
Y2-S2-232K20,44,SQUARES,exp,45,17,False,4,-1,0,-,0.4009351001586765,-
Y2-S2-232K20,45,SQUARES,exp,45,17,True,5,-1,0,-,0.2510318998247385,-
Y2-S2-232K20,46,SQUARES,exp,45,17,True,5,-1,0,-,0.30081609985791147,-
Y2-S2-232K20,47,SQUARES,exp,45,17,True,5,1,1,10,0.5337904000189155,-
Y2-S2-232K20,48,SQUARES,exp,45,17,True,4,1,0,-,0.3174751999322325,-
Y2-S2-232K20,49,SQUARES,exp,45,17,True,4,1,0,-,0.350679500028491,-
Y2-S2-232K20,50,SQUARES,exp,45,17,True,4,1,0,-,0.43413690011948347,-
Y2-S2-232K20,51,SQUARES,exp,45,17,False,3,-1,1,11,0.43433020007796586,-
Y2-S2-232K20,52,SQUARES,exp,45,17,True,4,-1,0,-,0.3343533999286592,-
Y2-S2-232K20,53,SQUARES,exp,45,17,True,4,-1,0,-,0.3507530000060797,-
Y2-S2-232K20,54,SQUARES,exp,45,17,False,4,-1,0,-,0.46768029988743365,-
Y2-S2-232K20,55,SQUARES,exp,45,17,True,5,-1,0,-,0.2341875999700278,-
Y2-S2-232K20,56,SQUARES,exp,45,17,True,5,-1,0,-,0.30059710005298257,-
Y2-S2-232K20,57,SQUARES,exp,45,17,True,5,1,1,12,0.36800600006245077,-
Y2-S2-232K20,58,SQUARES,exp,45,17,True,4,1,0,-,0.2841424001380801,-
Y2-S2-232K20,59,SQUARES,exp,45,17,True,4,1,0,-,0.3674133000895381,-
Y2-S2-232K20,60,SQUARES,exp,45,17,True,4,1,0,-,0.5508453000802547,-
Y2-S2-232K20,61,SQUARES,exp,45,17,True,3,1,0,-,0.5009075000416487,-
Y2-S2-232K20,62,SQUARES,exp,45,17,True,3,1,0,-,0.40106579987332225,-
Y2-S2-232K20,63,SQUARES,exp,45,17,True,3,1,0,-,0.3008201001212001,-
Y2-S2-232K20,64,SQUARES,exp,45,17,True,2,1,0,-,1.0519389999099076,-
Y2-S2-232K20,65,SQUARES,exp,45,17,True,2,1,0,-,0.26743849995546043,-
Y2-S2-232K20,66,SQUARES,exp,45,17,False,2,-1,1,13,0.35122209996916354,-
Y2-S2-232K20,67,SQUARES,exp,45,17,True,3,-1,0,-,0.45085670007392764,-
Y2-S2-232K20,68,SQUARES,exp,45,17,True,3,-1,0,-,0.6511552000883967,-
Y2-S2-232K20,69,SQUARES,exp,45,17,True,3,1,1,14,0.30088860006071627,-
Y2-S2-232K20,70,SQUARES,exp,45,17,False,2,-1,1,15,0.4843426998704672,-
Y2-S2-232K20,71,SQUARES,exp,45,17,True,3,-1,0,-,0.3341348001267761,-
Y2-S2-232K20,72,SQUARES,exp,45,17,True,3,-1,0,-,0.31693310011178255,-
Y2-S2-232K20,73,SQUARES,exp,45,17,True,3,1,1,16,0.36765490006655455,-
Y2-S2-232K20,1,CIRCLES,training,45,17,True,20,-,-,-,0.46742899995297194,-
Y2-S2-232K20,2,CIRCLES,training,45,17,True,20,-,-,-,0.000941599952057004,-
Y2-S2-232K20,3,CIRCLES,training,45,17,True,20,-,-,-,1.5342027998995036,-
Y2-S2-232K20,4,CIRCLES,training,45,17,True,20,-,-,-,0.5504297001753002,-
Y2-S2-232K20,5,CIRCLES,training,45,17,True,20,-,-,-,0.4336989000439644,-
Y2-S2-232K20,6,CIRCLES,training,45,17,True,20,-,-,-,0.4337800999637693,-
Y2-S2-232K20,7,CIRCLES,training,45,17,True,20,-,-,-,0.3838557000271976,-
Y2-S2-232K20,8,CIRCLES,training,45,17,True,20,-,-,-,0.23382480000145733,-
Y2-S2-232K20,9,CIRCLES,training,45,17,True,20,-,-,-,0.28376079979352653,-
Y2-S2-232K20,10,CIRCLES,training,45,17,True,20,-,-,-,0.31696239998564124,-
Y2-S2-232K20,11,CIRCLES,training,45,17,True,10,-,-,-,0.4008182000834495,-
Y2-S2-232K20,12,CIRCLES,training,45,17,True,10,-,-,-,0.3340401998721063,-
Y2-S2-232K20,13,CIRCLES,training,45,17,True,10,-,-,-,0.23401400004513562,-
Y2-S2-232K20,14,CIRCLES,training,45,17,False,10,-,-,-,0.5005294000729918,-
Y2-S2-232K20,15,CIRCLES,training,45,17,True,10,-,-,-,0.7005570000037551,-
Y2-S2-232K20,16,CIRCLES,training,45,17,True,10,-,-,-,0.4669786000158638,-
Y2-S2-232K20,17,CIRCLES,training,45,17,True,10,-,-,-,0.28378699999302626,-
Y2-S2-232K20,18,CIRCLES,training,45,17,True,10,-,-,-,0.3848239001818001,-
Y2-S2-232K20,19,CIRCLES,training,45,17,True,10,-,-,-,0.7341763998847455,-
Y2-S2-232K20,20,CIRCLES,training,45,17,True,10,-,-,-,0.45039819995872676,-
Y2-S2-232K20,1,CIRCLES,exp,45,17,False,10,-1,0,0,0.6339192998129874,-
Y2-S2-232K20,2,CIRCLES,exp,45,17,True,11,-1,0,-,0.2841428997926414,-
Y2-S2-232K20,3,CIRCLES,exp,45,17,True,11,-1,0,-,0.2176775000989437,-
Y2-S2-232K20,4,CIRCLES,exp,45,17,True,11,1,1,1,0.28422480006702244,-
Y2-S2-232K20,5,CIRCLES,exp,45,17,True,10,1,0,-,0.21763590001501143,-
Y2-S2-232K20,6,CIRCLES,exp,45,17,True,10,1,0,-,0.21779090003110468,-
Y2-S2-232K20,7,CIRCLES,exp,45,17,True,10,1,0,-,0.26718500000424683,-
Y2-S2-232K20,8,CIRCLES,exp,45,17,True,9,1,0,-,0.2845284000504762,-
Y2-S2-232K20,9,CIRCLES,exp,45,17,True,9,1,0,-,0.28416699985973537,-
Y2-S2-232K20,10,CIRCLES,exp,45,17,True,9,1,0,-,0.2840974999126047,-
Y2-S2-232K20,11,CIRCLES,exp,45,17,True,8,1,0,-,0.3174964999780059,-
Y2-S2-232K20,12,CIRCLES,exp,45,17,True,8,1,0,-,0.31733260001055896,-
Y2-S2-232K20,13,CIRCLES,exp,45,17,True,8,1,0,-,0.23418240016326308,-
Y2-S2-232K20,14,CIRCLES,exp,45,17,True,7,1,0,-,0.3676078000571579,-
Y2-S2-232K20,15,CIRCLES,exp,45,17,True,7,1,0,-,0.23409559996798635,-
Y2-S2-232K20,16,CIRCLES,exp,45,17,True,7,1,0,-,0.3005063000600785,-
Y2-S2-232K20,17,CIRCLES,exp,45,17,True,6,1,0,-,0.5673269999679178,-
Y2-S2-232K20,18,CIRCLES,exp,45,17,True,6,1,0,-,0.4672262000385672,-
Y2-S2-232K20,19,CIRCLES,exp,45,17,True,6,1,0,-,0.4674638998694718,-
Y2-S2-232K20,20,CIRCLES,exp,45,17,True,5,1,0,-,0.3340328000485897,-
Y2-S2-232K20,21,CIRCLES,exp,45,17,True,5,1,0,-,0.4839699000585824,-
Y2-S2-232K20,22,CIRCLES,exp,45,17,True,5,1,0,-,0.26760389981791377,-
Y2-S2-232K20,23,CIRCLES,exp,45,17,True,4,1,0,-,0.3672189998906106,-
Y2-S2-232K20,24,CIRCLES,exp,45,17,True,4,1,0,-,0.35108490008860826,-
Y2-S2-232K20,25,CIRCLES,exp,45,17,True,4,1,0,-,0.31757019995711744,-
Y2-S2-232K20,26,CIRCLES,exp,45,17,True,3,1,0,-,0.30072009982541203,-
Y2-S2-232K20,27,CIRCLES,exp,45,17,True,3,1,0,-,0.28427389985881746,-
Y2-S2-232K20,28,CIRCLES,exp,45,17,True,3,1,0,-,0.28434070013463497,-
Y2-S2-232K20,29,CIRCLES,exp,45,17,False,2,-1,1,2,0.4677769001573324,-
Y2-S2-232K20,30,CIRCLES,exp,45,17,True,3,-1,0,-,0.3009009000379592,-
Y2-S2-232K20,31,CIRCLES,exp,45,17,True,3,-1,0,-,0.2842566999606788,-
Y2-S2-232K20,32,CIRCLES,exp,45,17,False,3,-1,0,-,0.8176269000396132,-
Y2-S2-232K20,33,CIRCLES,exp,45,17,True,4,-1,0,-,0.3505981999915093,-
Y2-S2-232K20,34,CIRCLES,exp,45,17,True,4,-1,0,-,0.2339550000615418,-
Y2-S2-232K20,35,CIRCLES,exp,45,17,True,4,1,1,3,0.2840030000079423,-
Y2-S2-232K20,36,CIRCLES,exp,45,17,True,3,1,0,-,0.7841737999115139,-
Y2-S2-232K20,37,CIRCLES,exp,45,17,True,3,1,0,-,0.28456449997611344,-
Y2-S2-232K20,38,CIRCLES,exp,45,17,False,3,-1,1,4,0.5508154998533428,-
Y2-S2-232K20,39,CIRCLES,exp,45,17,True,4,-1,0,-,0.26737080002203584,-
Y2-S2-232K20,40,CIRCLES,exp,45,17,True,4,-1,0,-,0.23449559998698533,-
Y2-S2-232K20,41,CIRCLES,exp,45,17,True,4,1,1,5,0.251052999868989,-
Y2-S2-232K20,42,CIRCLES,exp,45,17,False,3,-1,1,6,0.48422229988500476,-
Y2-S2-232K20,43,CIRCLES,exp,45,17,False,4,-1,0,-,0.7341704999562353,-
Y2-S2-232K20,44,CIRCLES,exp,45,17,True,5,-1,0,-,0.23395920009352267,-
Y2-S2-232K20,45,CIRCLES,exp,45,17,True,5,-1,0,-,0.2678809999488294,-
Y2-S2-232K20,46,CIRCLES,exp,45,17,True,5,1,1,7,0.2840694000478834,-
Y2-S2-232K20,47,CIRCLES,exp,45,17,True,4,1,0,-,0.2840972999110818,-
Y2-S2-232K20,48,CIRCLES,exp,45,17,True,4,1,0,-,0.2673990000039339,-
Y2-S2-232K20,49,CIRCLES,exp,45,17,False,4,-1,1,8,0.35080499993637204,-
Y2-S2-232K20,50,CIRCLES,exp,45,17,True,5,-1,0,-,0.2509509997908026,-
Y2-S2-232K20,51,CIRCLES,exp,45,17,True,5,-1,0,-,0.31702139996923506,-
Y2-S2-232K20,52,CIRCLES,exp,45,17,True,5,1,1,9,0.45089560002088547,-
Y2-S2-232K20,53,CIRCLES,exp,45,17,True,4,1,0,-,0.284116999944672,-
Y2-S2-232K20,54,CIRCLES,exp,45,17,True,4,1,0,-,0.23435169993899763,-
Y2-S2-232K20,55,CIRCLES,exp,45,17,True,4,1,0,-,0.18403999996371567,-
Y2-S2-232K20,56,CIRCLES,exp,45,17,True,3,1,0,-,0.3841467001475394,-
Y2-S2-232K20,57,CIRCLES,exp,45,17,True,3,1,0,-,0.38386310008354485,-
Y2-S2-232K20,58,CIRCLES,exp,45,17,True,3,1,0,-,0.351012600120157,-
Y2-S2-232K20,59,CIRCLES,exp,45,17,True,2,1,0,-,0.2838590999599546,-
Y2-S2-232K20,60,CIRCLES,exp,45,17,False,2,-1,1,10,0.3008839001413435,-
Y2-S2-232K20,61,CIRCLES,exp,45,17,True,3,-1,0,-,0.350616900017485,-
Y2-S2-232K20,62,CIRCLES,exp,45,17,True,3,-1,0,-,0.4005938998889178,-
Y2-S2-232K20,63,CIRCLES,exp,45,17,True,3,1,1,11,0.501030300045386,-
Y2-S2-232K20,64,CIRCLES,exp,45,17,True,2,1,0,-,0.2675789000932127,-
Y2-S2-232K20,65,CIRCLES,exp,45,17,True,2,1,0,-,0.3008720998186618,-
Y2-S2-232K20,66,CIRCLES,exp,45,17,False,2,-1,1,12,0.33414140017703176,-
Y2-S2-232K20,67,CIRCLES,exp,45,17,True,3,-1,0,-,0.30087779997847974,-
Y2-S2-232K20,68,CIRCLES,exp,45,17,True,3,-1,0,-,0.23417910002171993,-
Y2-S2-232K20,69,CIRCLES,exp,45,17,False,3,-1,0,-,0.3343082000501454,-
Y2-S2-232K20,70,CIRCLES,exp,45,17,True,4,-1,0,-,0.16740649985149503,-
Y2-S2-232K20,71,CIRCLES,exp,45,17,False,4,-1,0,-,0.2675014000851661,-
Y2-S2-232K20,72,CIRCLES,exp,45,17,True,5,-1,0,-,0.31748039997182786,-
Y2-S2-232K20,73,CIRCLES,exp,45,17,True,5,-1,0,-,0.35081800003536046,-
Y2-S2-232K20,74,CIRCLES,exp,45,17,True,5,1,1,13,0.3175453001167625,-
Y2-S2-232K20,75,CIRCLES,exp,45,17,True,4,1,0,-,0.3173491000197828,-
Y2-S2-232K20,76,CIRCLES,exp,45,17,True,4,1,0,-,0.3007655998226255,-
Y2-S2-232K20,77,CIRCLES,exp,45,17,True,4,1,0,-,0.284027999965474,-
Y2-S2-232K20,78,CIRCLES,exp,45,17,True,3,1,0,-,0.31770170014351606,-
Y2-S2-232K20,79,CIRCLES,exp,45,17,True,3,1,0,-,0.28441149997524917,-
Y2-S2-232K20,80,CIRCLES,exp,45,17,True,3,1,0,-,0.2174364000093192,-
Y2-S2-232K20,81,CIRCLES,exp,45,17,False,2,-1,1,14,0.21756880008615553,-
Y2-S2-232K20,82,CIRCLES,exp,45,17,False,3,-1,0,-,0.2178785998839885,-
Y2-S2-232K20,83,CIRCLES,exp,45,17,False,4,-1,0,-,0.2675471999682486,-
Y2-S2-232K20,84,CIRCLES,exp,45,17,True,5,-1,0,-,0.26760059990920126,-
Y2-S2-232K20,85,CIRCLES,exp,45,17,True,5,-1,0,-,0.1680481000803411,-
Y2-S2-232K20,86,CIRCLES,exp,45,17,True,5,1,1,15,0.28410249995067716,-
Y2-S2-232K20,87,CIRCLES,exp,45,17,True,4,1,0,-,0.5676911999471486,-
Y2-S2-232K20,88,CIRCLES,exp,45,17,True,4,1,0,-,0.3341812000144273,-
Y2-S2-232K20,89,CIRCLES,exp,45,17,True,4,1,0,-,0.4341351999901235,-
Y2-S2-232K20,90,CIRCLES,exp,45,17,True,3,1,0,-,0.33416580012999475,-
Y2-S2-232K20,91,CIRCLES,exp,45,17,True,3,1,0,-,0.2674801000393927,-
Y2-S2-232K20,92,CIRCLES,exp,45,17,True,3,1,0,-,0.3343086000531912,-
Y2-S2-232K20,93,CIRCLES,exp,45,17,True,2,1,0,-,0.2841886000242084,-
Y2-S2-232K20,94,CIRCLES,exp,45,17,False,2,-1,1,16,0.4340282001066953,-
