PART_ID,Trial,Stimuli,Training,FIXTIME,MTIME,Correct,SOA,Level,Reversal,Reversal_count,Latency,Rating
Y2-S2-126K25,1,SQUARES,training,45,17,False,12,-,-,-,1.7508776998147368,-
Y2-S2-126K25,2,SQUARES,training,45,17,True,12,-,-,-,0.7511048996821046,-
Y2-S2-126K25,3,SQUARES,training,45,17,True,12,-,-,-,0.13432900002226233,-
Y2-S2-126K25,4,SQUARES,training,45,17,True,12,-,-,-,1.900994600262493,-
Y2-S2-126K25,5,SQUARES,training,45,17,True,12,-,-,-,0.5672361999750137,-
Y2-S2-126K25,6,SQUARES,training,45,17,True,12,-,-,-,0.20082029979676008,-
Y2-S2-126K25,7,SQUARES,training,45,17,True,12,-,-,-,0.15087939985096455,-
Y2-S2-126K25,8,SQUARES,training,45,17,True,12,-,-,-,0.16745660034939647,-
Y2-S2-126K25,9,SQUARES,training,45,17,True,12,-,-,-,0.9346560002304614,-
Y2-S2-126K25,10,SQUARES,training,45,17,True,12,-,-,-,0.5342461997643113,-
Y2-S2-126K25,11,SQUARES,training,45,17,True,6,-,-,-,0.2174236997961998,-
Y2-S2-126K25,12,SQUARES,training,45,17,True,6,-,-,-,0.4173663002438843,-
Y2-S2-126K25,13,SQUARES,training,45,17,True,6,-,-,-,0.15096910018473864,-
Y2-S2-126K25,14,SQUARES,training,45,17,True,6,-,-,-,0.18407199997454882,-
Y2-S2-126K25,15,SQUARES,training,45,17,True,6,-,-,-,0.06759190000593662,-
Y2-S2-126K25,16,SQUARES,training,45,17,True,6,-,-,-,0.08413259964436293,-
Y2-S2-126K25,17,SQUARES,training,45,17,True,6,-,-,-,0.15076830005273223,-
Y2-S2-126K25,18,SQUARES,training,45,17,True,6,-,-,-,0.13394760014489293,-
Y2-S2-126K25,19,SQUARES,training,45,17,True,6,-,-,-,0.21709250006824732,-
Y2-S2-126K25,20,SQUARES,training,45,17,True,6,-,-,-,0.6343522001989186,-
Y2-S2-126K25,1,SQUARES,exp,45,17,True,6,0,0,0,0.4507519002072513,-
Y2-S2-126K25,2,SQUARES,exp,45,17,True,6,0,0,-,0.16783609986305237,-
Y2-S2-126K25,3,SQUARES,exp,45,17,True,6,1,0,-,0.3842059001326561,-
Y2-S2-126K25,4,SQUARES,exp,45,17,True,5,1,0,-,0.3673817003145814,-
Y2-S2-126K25,5,SQUARES,exp,45,17,True,5,1,0,-,0.3008158002048731,-
Y2-S2-126K25,6,SQUARES,exp,45,17,True,5,1,0,-,0.40116410003975034,-
Y2-S2-126K25,7,SQUARES,exp,45,17,True,4,1,0,-,0.3674288000911474,-
Y2-S2-126K25,8,SQUARES,exp,45,17,True,4,1,0,-,1.5009874999523163,-
Y2-S2-126K25,9,SQUARES,exp,45,17,False,4,-1,1,1,0.4840478003025055,-
Y2-S2-126K25,10,SQUARES,exp,45,17,False,5,-1,0,-,0.45087149972096086,-
Y2-S2-126K25,11,SQUARES,exp,45,17,True,6,-1,0,-,0.28449450014159083,-
Y2-S2-126K25,12,SQUARES,exp,45,17,True,6,-1,0,-,0.2508192998357117,-
Y2-S2-126K25,13,SQUARES,exp,45,17,True,6,1,1,2,0.3341065999120474,-
Y2-S2-126K25,14,SQUARES,exp,45,17,True,5,1,0,-,0.3675015000626445,-
Y2-S2-126K25,15,SQUARES,exp,45,17,True,5,1,0,-,0.35051279980689287,-
Y2-S2-126K25,16,SQUARES,exp,45,17,True,5,1,0,-,0.3507759002968669,-
Y2-S2-126K25,17,SQUARES,exp,45,17,True,4,1,0,-,0.33410280011594296,-
Y2-S2-126K25,18,SQUARES,exp,45,17,False,4,-1,1,3,0.3510024002753198,-
Y2-S2-126K25,19,SQUARES,exp,45,17,True,5,-1,0,-,0.2507088999263942,-
Y2-S2-126K25,20,SQUARES,exp,45,17,True,5,-1,0,-,0.33431460009887815,-
Y2-S2-126K25,21,SQUARES,exp,45,17,True,5,1,1,4,0.3341369000263512,-
Y2-S2-126K25,22,SQUARES,exp,45,17,True,4,1,0,-,0.4012676998972893,-
Y2-S2-126K25,23,SQUARES,exp,45,17,True,4,1,0,-,0.33423809986561537,-
Y2-S2-126K25,24,SQUARES,exp,45,17,True,4,1,0,-,0.20075219962745905,-
Y2-S2-126K25,25,SQUARES,exp,45,17,True,3,1,0,-,0.15011300006881356,-
Y2-S2-126K25,26,SQUARES,exp,45,17,False,3,-1,1,5,0.21767720021307468,-
Y2-S2-126K25,27,SQUARES,exp,45,17,True,4,-1,0,-,0.050645200069993734,-
Y2-S2-126K25,28,SQUARES,exp,45,17,True,4,-1,0,-,0.1175891999155283,-
Y2-S2-126K25,29,SQUARES,exp,45,17,False,4,-1,0,-,0.2331832000054419,-
Y2-S2-126K25,30,SQUARES,exp,45,17,True,5,-1,0,-,0.2175582000054419,-
Y2-S2-126K25,31,SQUARES,exp,45,17,True,5,-1,0,-,0.08384560002014041,-
Y2-S2-126K25,32,SQUARES,exp,45,17,True,5,1,1,6,0.1675006002187729,-
Y2-S2-126K25,33,SQUARES,exp,45,17,True,4,1,0,-,0.06793380016461015,-
Y2-S2-126K25,34,SQUARES,exp,45,17,True,4,1,0,-,0.06763010006397963,-
Y2-S2-126K25,35,SQUARES,exp,45,17,True,4,1,0,-,2.0679135997779667,-
Y2-S2-126K25,36,SQUARES,exp,45,17,True,3,1,0,-,0.3510622000321746,-
Y2-S2-126K25,37,SQUARES,exp,45,17,True,3,1,0,-,0.16755159990862012,-
Y2-S2-126K25,38,SQUARES,exp,45,17,True,3,1,0,-,0.16745900036767125,-
Y2-S2-126K25,39,SQUARES,exp,45,17,False,2,-1,1,7,0.4840178000740707,-
Y2-S2-126K25,40,SQUARES,exp,45,17,True,3,-1,0,-,0.30081870034337044,-
Y2-S2-126K25,41,SQUARES,exp,45,17,True,3,-1,0,-,0.4009731998667121,-
Y2-S2-126K25,42,SQUARES,exp,45,17,True,3,1,1,8,0.5008602999150753,-
Y2-S2-126K25,43,SQUARES,exp,45,17,True,2,1,0,-,0.3173707998357713,-
Y2-S2-126K25,44,SQUARES,exp,45,17,True,2,1,0,-,0.23396959993988276,-
Y2-S2-126K25,45,SQUARES,exp,45,17,True,2,1,0,-,0.31768420012667775,-
Y2-S2-126K25,46,SQUARES,exp,45,17,False,1,-1,1,9,0.3173436997458339,-
Y2-S2-126K25,47,SQUARES,exp,45,17,True,2,-1,0,-,0.41797569999471307,-
Y2-S2-126K25,48,SQUARES,exp,45,17,True,2,-1,0,-,0.28422889998182654,-
Y2-S2-126K25,49,SQUARES,exp,45,17,True,2,1,1,10,0.15065209986642003,-
Y2-S2-126K25,50,SQUARES,exp,45,17,False,1,-1,1,11,1.733551099896431,-
Y2-S2-126K25,51,SQUARES,exp,45,17,False,2,-1,0,-,0.6681483001448214,-
Y2-S2-126K25,52,SQUARES,exp,45,17,True,3,-1,0,-,0.25093960016965866,-
Y2-S2-126K25,53,SQUARES,exp,45,17,True,3,-1,0,-,0.7008859002962708,-
Y2-S2-126K25,54,SQUARES,exp,45,17,False,3,-1,0,-,0.7674503000453115,-
Y2-S2-126K25,55,SQUARES,exp,45,17,False,4,-1,0,-,0.5679481001570821,-
Y2-S2-126K25,56,SQUARES,exp,45,17,True,5,-1,0,-,0.2509952997788787,-
Y2-S2-126K25,57,SQUARES,exp,45,17,False,5,-1,0,-,1.3505199998617172,-
Y2-S2-126K25,58,SQUARES,exp,45,17,True,6,-1,0,-,0.3007203000597656,-
Y2-S2-126K25,59,SQUARES,exp,45,17,True,6,-1,0,-,0.20068510016426444,-
Y2-S2-126K25,60,SQUARES,exp,45,17,True,6,1,1,12,0.2338964999653399,-
Y2-S2-126K25,61,SQUARES,exp,45,17,True,5,1,0,-,0.18483299994841218,-
Y2-S2-126K25,62,SQUARES,exp,45,17,True,5,1,0,-,0.150819499976933,-
Y2-S2-126K25,63,SQUARES,exp,45,17,True,5,1,0,-,0.15078569995239377,-
Y2-S2-126K25,64,SQUARES,exp,45,17,True,4,1,0,-,0.6845657997764647,-
Y2-S2-126K25,65,SQUARES,exp,45,17,True,4,1,0,-,0.634240800049156,-
Y2-S2-126K25,66,SQUARES,exp,45,17,True,4,1,0,-,0.2841019998304546,-
Y2-S2-126K25,67,SQUARES,exp,45,17,True,3,1,0,-,0.5842542997561395,-
Y2-S2-126K25,68,SQUARES,exp,45,17,True,3,1,0,-,0.11731330025941133,-
Y2-S2-126K25,69,SQUARES,exp,45,17,True,3,1,0,-,0.2175122001208365,-
Y2-S2-126K25,70,SQUARES,exp,45,17,False,2,-1,1,13,0.600543100386858,-
Y2-S2-126K25,71,SQUARES,exp,45,17,True,3,-1,0,-,0.23408660013228655,-
Y2-S2-126K25,72,SQUARES,exp,45,17,True,3,-1,0,-,0.4340868000872433,-
Y2-S2-126K25,73,SQUARES,exp,45,17,True,3,1,1,14,0.25085309986025095,-
Y2-S2-126K25,74,SQUARES,exp,45,17,True,2,1,0,-,0.5677400003187358,-
Y2-S2-126K25,75,SQUARES,exp,45,17,False,2,-1,1,15,0.8507383996620774,-
Y2-S2-126K25,76,SQUARES,exp,45,17,False,3,-1,0,-,0.30123520037159324,-
Y2-S2-126K25,77,SQUARES,exp,45,17,True,4,-1,0,-,0.4672699999064207,-
Y2-S2-126K25,78,SQUARES,exp,45,17,False,4,-1,0,-,0.6843032999895513,-
Y2-S2-126K25,79,SQUARES,exp,45,17,True,5,-1,0,-,0.18398679979145527,-
Y2-S2-126K25,80,SQUARES,exp,45,17,True,5,-1,0,-,0.200794099830091,-
Y2-S2-126K25,81,SQUARES,exp,45,17,True,5,1,1,16,0.2014449997805059,-
Y2-S2-126K25,1,CIRCLES,training,45,17,True,20,-,-,-,1.2510277000255883,-
Y2-S2-126K25,2,CIRCLES,training,45,17,True,20,-,-,-,0.5342214996926486,-
Y2-S2-126K25,3,CIRCLES,training,45,17,True,20,-,-,-,0.484555599745363,-
Y2-S2-126K25,4,CIRCLES,training,45,17,True,20,-,-,-,0.4675130997784436,-
Y2-S2-126K25,5,CIRCLES,training,45,17,True,20,-,-,-,0.41743639996275306,-
Y2-S2-126K25,6,CIRCLES,training,45,17,True,20,-,-,-,0.3004924999549985,-
Y2-S2-126K25,7,CIRCLES,training,45,17,True,20,-,-,-,0.8340149000287056,-
Y2-S2-126K25,8,CIRCLES,training,45,17,True,20,-,-,-,0.3674288000911474,-
Y2-S2-126K25,9,CIRCLES,training,45,17,True,20,-,-,-,0.4173205001279712,-
Y2-S2-126K25,10,CIRCLES,training,45,17,True,20,-,-,-,0.6176264998503029,-
Y2-S2-126K25,11,CIRCLES,training,45,17,True,10,-,-,-,0.31737220007926226,-
Y2-S2-126K25,12,CIRCLES,training,45,17,True,10,-,-,-,0.2176187001168728,-
Y2-S2-126K25,13,CIRCLES,training,45,17,True,10,-,-,-,0.2846222002990544,-
Y2-S2-126K25,14,CIRCLES,training,45,17,True,10,-,-,-,0.23423219984397292,-
Y2-S2-126K25,15,CIRCLES,training,45,17,True,10,-,-,-,0.2174949999898672,-
Y2-S2-126K25,16,CIRCLES,training,45,17,True,10,-,-,-,0.10086850030347705,-
Y2-S2-126K25,17,CIRCLES,training,45,17,True,10,-,-,-,0.28430180018767715,-
Y2-S2-126K25,18,CIRCLES,training,45,17,True,10,-,-,-,0.30107560008764267,-
Y2-S2-126K25,19,CIRCLES,training,45,17,True,10,-,-,-,0.21756939962506294,-
Y2-S2-126K25,20,CIRCLES,training,45,17,True,10,-,-,-,0.08427530014887452,-
Y2-S2-126K25,1,CIRCLES,exp,45,17,True,10,0,0,0,0.300959600135684,-
Y2-S2-126K25,2,CIRCLES,exp,45,17,True,10,0,0,-,0.1843411000445485,-
Y2-S2-126K25,3,CIRCLES,exp,45,17,True,10,1,0,-,0.21764890011399984,-
Y2-S2-126K25,4,CIRCLES,exp,45,17,True,9,1,0,-,0.26758320024237037,-
Y2-S2-126K25,5,CIRCLES,exp,45,17,True,9,1,0,-,0.23501390032470226,-
Y2-S2-126K25,6,CIRCLES,exp,45,17,True,9,1,0,-,0.28406780026853085,-
Y2-S2-126K25,7,CIRCLES,exp,45,17,True,8,1,0,-,0.25130899995565414,-
Y2-S2-126K25,8,CIRCLES,exp,45,17,True,8,1,0,-,0.40097459964454174,-
Y2-S2-126K25,9,CIRCLES,exp,45,17,True,8,1,0,-,0.3844270999543369,-
Y2-S2-126K25,10,CIRCLES,exp,45,17,True,7,1,0,-,0.2174766999669373,-
Y2-S2-126K25,11,CIRCLES,exp,45,17,True,7,1,0,-,0.2677468997426331,-
Y2-S2-126K25,12,CIRCLES,exp,45,17,True,7,1,0,-,0.2507358002476394,-
Y2-S2-126K25,13,CIRCLES,exp,45,17,True,6,1,0,-,0.2176915998570621,-
Y2-S2-126K25,14,CIRCLES,exp,45,17,True,6,1,0,-,0.2507617003284395,-
Y2-S2-126K25,15,CIRCLES,exp,45,17,True,6,1,0,-,0.1844410002231598,-
Y2-S2-126K25,16,CIRCLES,exp,45,17,True,5,1,0,-,0.3008817001245916,-
Y2-S2-126K25,17,CIRCLES,exp,45,17,True,5,1,0,-,0.25090070022270083,-
Y2-S2-126K25,18,CIRCLES,exp,45,17,True,5,1,0,-,0.2844660999253392,-
Y2-S2-126K25,19,CIRCLES,exp,45,17,True,4,1,0,-,0.1841048002243042,-
Y2-S2-126K25,20,CIRCLES,exp,45,17,True,4,1,0,-,0.35085020028054714,-
Y2-S2-126K25,21,CIRCLES,exp,45,17,True,4,1,0,-,0.18426890019327402,-
Y2-S2-126K25,22,CIRCLES,exp,45,17,True,3,1,0,-,0.23412919975817204,-
Y2-S2-126K25,23,CIRCLES,exp,45,17,False,3,-1,1,1,0.36710610007867217,-
Y2-S2-126K25,24,CIRCLES,exp,45,17,True,4,-1,0,-,0.28404369996860623,-
Y2-S2-126K25,25,CIRCLES,exp,45,17,True,4,-1,0,-,0.2007503998465836,-
Y2-S2-126K25,26,CIRCLES,exp,45,17,False,4,-1,0,-,0.6674668998457491,-
Y2-S2-126K25,27,CIRCLES,exp,45,17,True,5,-1,0,-,0.31766790011897683,-
Y2-S2-126K25,28,CIRCLES,exp,45,17,True,5,-1,0,-,0.2677464997395873,-
Y2-S2-126K25,29,CIRCLES,exp,45,17,True,5,1,1,2,0.5013408996164799,-
Y2-S2-126K25,30,CIRCLES,exp,45,17,True,4,1,0,-,0.30081359995529056,-
Y2-S2-126K25,31,CIRCLES,exp,45,17,True,4,1,0,-,0.4176350003108382,-
Y2-S2-126K25,32,CIRCLES,exp,45,17,True,4,1,0,-,0.267384999897331,-
Y2-S2-126K25,33,CIRCLES,exp,45,17,True,3,1,0,-,0.6842437000013888,-
Y2-S2-126K25,34,CIRCLES,exp,45,17,True,3,1,0,-,0.9839985999278724,-
Y2-S2-126K25,35,CIRCLES,exp,45,17,True,3,1,0,-,0.3507415000349283,-
Y2-S2-126K25,36,CIRCLES,exp,45,17,True,2,1,0,-,0.4342858004383743,-
Y2-S2-126K25,37,CIRCLES,exp,45,17,False,2,-1,1,3,0.38429899979382753,-
Y2-S2-126K25,38,CIRCLES,exp,45,17,False,3,-1,0,-,0.3350023999810219,-
Y2-S2-126K25,39,CIRCLES,exp,45,17,True,4,-1,0,-,0.11726379999890924,-
Y2-S2-126K25,40,CIRCLES,exp,45,17,True,4,-1,0,-,0.2840819996781647,-
Y2-S2-126K25,41,CIRCLES,exp,45,17,True,4,1,1,4,0.20070380019024014,-
Y2-S2-126K25,42,CIRCLES,exp,45,17,True,3,1,0,-,0.2182324999012053,-
Y2-S2-126K25,43,CIRCLES,exp,45,17,True,3,1,0,-,0.2843312998302281,-
Y2-S2-126K25,44,CIRCLES,exp,45,17,True,3,1,0,-,0.2507394999265671,-
Y2-S2-126K25,45,CIRCLES,exp,45,17,True,2,1,0,-,0.20067230006679893,-
Y2-S2-126K25,46,CIRCLES,exp,45,17,True,2,1,0,-,0.2506250999867916,-
Y2-S2-126K25,47,CIRCLES,exp,45,17,True,2,1,0,-,0.3178832000121474,-
Y2-S2-126K25,48,CIRCLES,exp,45,17,False,1,-1,1,5,0.1675680000334978,-
Y2-S2-126K25,49,CIRCLES,exp,45,17,True,2,-1,0,-,0.2508947001770139,-
Y2-S2-126K25,50,CIRCLES,exp,45,17,False,2,-1,0,-,0.05089630000293255,-
Y2-S2-126K25,51,CIRCLES,exp,45,17,True,3,-1,0,-,0.35095629980787635,-
Y2-S2-126K25,52,CIRCLES,exp,45,17,True,3,-1,0,-,0.4008480003103614,-
Y2-S2-126K25,53,CIRCLES,exp,45,17,True,3,1,1,6,0.36753019969910383,-
Y2-S2-126K25,54,CIRCLES,exp,45,17,True,2,1,0,-,0.43436430022120476,-
Y2-S2-126K25,55,CIRCLES,exp,45,17,True,2,1,0,-,0.2509789001196623,-
Y2-S2-126K25,56,CIRCLES,exp,45,17,False,2,-1,1,7,0.0009466996416449547,-
Y2-S2-126K25,57,CIRCLES,exp,45,17,True,3,-1,0,-,0.9172437000088394,-
Y2-S2-126K25,58,CIRCLES,exp,45,17,False,3,-1,0,-,0.3173898998647928,-
Y2-S2-126K25,59,CIRCLES,exp,45,17,True,4,-1,0,-,0.18437719997018576,-
Y2-S2-126K25,60,CIRCLES,exp,45,17,False,4,-1,0,-,0.3504709000699222,-
Y2-S2-126K25,61,CIRCLES,exp,45,17,False,5,-1,0,-,0.48424619995057583,-
Y2-S2-126K25,62,CIRCLES,exp,45,17,True,6,-1,0,-,0.2509729000739753,-
Y2-S2-126K25,63,CIRCLES,exp,45,17,True,6,-1,0,-,0.38438080018386245,-
Y2-S2-126K25,64,CIRCLES,exp,45,17,True,6,1,1,8,0.4509949004277587,-
Y2-S2-126K25,65,CIRCLES,exp,45,17,True,5,1,0,-,0.3341048997826874,-
Y2-S2-126K25,66,CIRCLES,exp,45,17,True,5,1,0,-,0.2677246001549065,-
Y2-S2-126K25,67,CIRCLES,exp,45,17,True,5,1,0,-,0.3003992000594735,-
Y2-S2-126K25,68,CIRCLES,exp,45,17,True,4,1,0,-,0.3511857003904879,-
Y2-S2-126K25,69,CIRCLES,exp,45,17,True,4,1,0,-,0.35136139998212457,-
Y2-S2-126K25,70,CIRCLES,exp,45,17,True,4,1,0,-,0.3510018000379205,-
Y2-S2-126K25,71,CIRCLES,exp,45,17,True,3,1,0,-,0.3008715999312699,-
Y2-S2-126K25,72,CIRCLES,exp,45,17,True,3,1,0,-,0.21734499977901578,-
Y2-S2-126K25,73,CIRCLES,exp,45,17,False,3,-1,1,9,0.3172632995992899,-
Y2-S2-126K25,74,CIRCLES,exp,45,17,True,4,-1,0,-,0.45139599964022636,-
Y2-S2-126K25,75,CIRCLES,exp,45,17,True,4,-1,0,-,0.3175538000650704,-
Y2-S2-126K25,76,CIRCLES,exp,45,17,True,4,1,1,10,0.35052879992872477,-
Y2-S2-126K25,77,CIRCLES,exp,45,17,True,3,1,0,-,0.2170859999023378,-
Y2-S2-126K25,78,CIRCLES,exp,45,17,True,3,1,0,-,1.517497000284493,-
Y2-S2-126K25,79,CIRCLES,exp,45,17,False,3,-1,1,11,0.38356800004839897,-
Y2-S2-126K25,80,CIRCLES,exp,45,17,True,4,-1,0,-,0.05092349974438548,-
Y2-S2-126K25,81,CIRCLES,exp,45,17,False,4,-1,0,-,0.40086189983412623,-
Y2-S2-126K25,82,CIRCLES,exp,45,17,True,5,-1,0,-,0.43414780031889677,-
Y2-S2-126K25,83,CIRCLES,exp,45,17,True,5,-1,0,-,0.4674560995772481,-
Y2-S2-126K25,84,CIRCLES,exp,45,17,False,5,-1,0,-,0.5007175002247095,-
Y2-S2-126K25,85,CIRCLES,exp,45,17,True,6,-1,0,-,0.13402060000225902,-
Y2-S2-126K25,86,CIRCLES,exp,45,17,True,6,-1,0,-,0.3175643999129534,-
Y2-S2-126K25,87,CIRCLES,exp,45,17,True,6,1,1,12,0.3509813998825848,-
Y2-S2-126K25,88,CIRCLES,exp,45,17,True,5,1,0,-,0.4842654000967741,-
Y2-S2-126K25,89,CIRCLES,exp,45,17,True,5,1,0,-,0.3839527000673115,-
Y2-S2-126K25,90,CIRCLES,exp,45,17,True,5,1,0,-,0.3509315000846982,-
Y2-S2-126K25,91,CIRCLES,exp,45,17,False,4,-1,1,13,0.45082540018483996,-
Y2-S2-126K25,92,CIRCLES,exp,45,17,True,5,-1,0,-,0.3346591000445187,-
Y2-S2-126K25,93,CIRCLES,exp,45,17,False,5,-1,0,-,0.5174548998475075,-
Y2-S2-126K25,94,CIRCLES,exp,45,17,True,6,-1,0,-,0.30072439974173903,-
Y2-S2-126K25,95,CIRCLES,exp,45,17,True,6,-1,0,-,0.3341116001829505,-
Y2-S2-126K25,96,CIRCLES,exp,45,17,True,6,1,1,14,0.3509487002156675,-
Y2-S2-126K25,97,CIRCLES,exp,45,17,True,5,1,0,-,0.3846040000207722,-
Y2-S2-126K25,98,CIRCLES,exp,45,17,True,5,1,0,-,0.3508484996855259,-
Y2-S2-126K25,99,CIRCLES,exp,45,17,True,5,1,0,-,0.3511657998897135,-
Y2-S2-126K25,100,CIRCLES,exp,45,17,True,4,1,0,-,0.31751809967681766,-
Y2-S2-126K25,101,CIRCLES,exp,45,17,True,4,1,0,-,0.13398850010707974,-
Y2-S2-126K25,102,CIRCLES,exp,45,17,True,4,1,0,-,0.23413780005648732,-
Y2-S2-126K25,103,CIRCLES,exp,45,17,True,3,1,0,-,0.23493959987536073,-
Y2-S2-126K25,104,CIRCLES,exp,45,17,True,3,1,0,-,0.2675935002043843,-
Y2-S2-126K25,105,CIRCLES,exp,45,17,True,3,1,0,-,0.450745299924165,-
Y2-S2-126K25,106,CIRCLES,exp,45,17,False,2,-1,1,15,0.46771090012043715,-
Y2-S2-126K25,107,CIRCLES,exp,45,17,True,3,-1,0,-,0.050990600138902664,-
Y2-S2-126K25,108,CIRCLES,exp,45,17,True,3,-1,0,-,0.11783250002190471,-
Y2-S2-126K25,109,CIRCLES,exp,45,17,True,3,1,1,16,0.30108419992029667,-
