PART_ID,Trial,Stimuli,Training,FIXTIME,MTIME,Correct,SOA,Level,Reversal,Reversal_count,Latency,Rating
Y2-S2-143K18,1,SQUARES,training,45,17,True,12,-,-,-,1.5009289998561144,-
Y2-S2-143K18,2,SQUARES,training,45,17,True,12,-,-,-,0.66735569993034,-
Y2-S2-143K18,3,SQUARES,training,45,17,True,12,-,-,-,0.1505605997517705,-
Y2-S2-143K18,4,SQUARES,training,45,17,True,12,-,-,-,0.21682550013065338,-
Y2-S2-143K18,5,SQUARES,training,45,17,True,12,-,-,-,0.18326309975236654,-
Y2-S2-143K18,6,SQUARES,training,45,17,True,12,-,-,-,0.0839809998869896,-
Y2-S2-143K18,7,SQUARES,training,45,17,True,12,-,-,-,0.10144580015912652,-
Y2-S2-143K18,8,SQUARES,training,45,17,True,12,-,-,-,0.05102619994431734,-
Y2-S2-143K18,9,SQUARES,training,45,17,True,12,-,-,-,0.2841854998841882,-
Y2-S2-143K18,10,SQUARES,training,45,17,True,12,-,-,-,0.2843959000892937,-
Y2-S2-143K18,11,SQUARES,training,45,17,True,6,-,-,-,0.18428209982812405,-
Y2-S2-143K18,12,SQUARES,training,45,17,True,6,-,-,-,0.3004987998865545,-
Y2-S2-143K18,13,SQUARES,training,45,17,True,6,-,-,-,0.20103210024535656,-
Y2-S2-143K18,14,SQUARES,training,45,17,True,6,-,-,-,0.2508933003991842,-
Y2-S2-143K18,15,SQUARES,training,45,17,True,6,-,-,-,0.151170099619776,-
Y2-S2-143K18,16,SQUARES,training,45,17,True,6,-,-,-,0.15078129991889,-
Y2-S2-143K18,17,SQUARES,training,45,17,True,6,-,-,-,0.06783899990841746,-
Y2-S2-143K18,18,SQUARES,training,45,17,True,6,-,-,-,0.10108589986339211,-
Y2-S2-143K18,19,SQUARES,training,45,17,True,6,-,-,-,0.15098090004175901,-
Y2-S2-143K18,20,SQUARES,training,45,17,True,6,-,-,-,0.01776900002732873,-
Y2-S2-143K18,1,SQUARES,exp,45,17,True,6,0,0,0,0.13414219999685884,-
Y2-S2-143K18,2,SQUARES,exp,45,17,True,6,0,0,-,0.13434599991887808,-
Y2-S2-143K18,3,SQUARES,exp,45,17,True,6,1,0,-,0.1680820002220571,-
Y2-S2-143K18,4,SQUARES,exp,45,17,True,5,1,0,-,0.10063929995521903,-
Y2-S2-143K18,5,SQUARES,exp,45,17,True,5,1,0,-,0.1855801995843649,-
Y2-S2-143K18,6,SQUARES,exp,45,17,True,5,1,0,-,2.1676066000945866,-
Y2-S2-143K18,7,SQUARES,exp,45,17,True,4,1,0,-,2.1675041001290083,-
Y2-S2-143K18,8,SQUARES,exp,45,17,True,4,1,0,-,0.6174518000334501,-
Y2-S2-143K18,9,SQUARES,exp,45,17,True,4,1,0,-,0.23438679985702038,-
Y2-S2-143K18,10,SQUARES,exp,45,17,True,3,1,0,-,0.11757409991696477,-
Y2-S2-143K18,11,SQUARES,exp,45,17,False,3,-1,1,1,0.48416389990597963,-
Y2-S2-143K18,12,SQUARES,exp,45,17,False,4,-1,0,-,0.3340409002266824,-
Y2-S2-143K18,13,SQUARES,exp,45,17,True,5,-1,0,-,0.16741030011326075,-
Y2-S2-143K18,14,SQUARES,exp,45,17,True,5,-1,0,-,0.317323399707675,-
Y2-S2-143K18,15,SQUARES,exp,45,17,True,5,1,1,2,0.28434399981051683,-
Y2-S2-143K18,16,SQUARES,exp,45,17,True,4,1,0,-,0.5512478998862207,-
Y2-S2-143K18,17,SQUARES,exp,45,17,True,4,1,0,-,0.20091699995100498,-
Y2-S2-143K18,18,SQUARES,exp,45,17,False,4,-1,1,3,0.43416699999943376,-
Y2-S2-143K18,19,SQUARES,exp,45,17,True,5,-1,0,-,0.06667990004643798,-
Y2-S2-143K18,20,SQUARES,exp,45,17,True,5,-1,0,-,0.23393409978598356,-
Y2-S2-143K18,21,SQUARES,exp,45,17,False,5,-1,0,-,0.6508373003453016,-
Y2-S2-143K18,22,SQUARES,exp,45,17,False,6,-1,0,-,-1.0,-
Y2-S2-143K18,23,SQUARES,exp,45,17,False,7,-1,0,-,-1.0,-
Y2-S2-143K18,24,SQUARES,exp,45,17,False,8,-1,0,-,-1.0,-
Y2-S2-143K18,25,SQUARES,exp,45,17,False,9,-1,0,-,0.8339472999796271,-
Y2-S2-143K18,26,SQUARES,exp,45,17,True,10,-1,0,-,0.2673523002304137,-
Y2-S2-143K18,27,SQUARES,exp,45,17,True,10,-1,0,-,0.03422420006245375,-
Y2-S2-143K18,28,SQUARES,exp,45,17,True,10,1,1,4,3.16793409967795,-
Y2-S2-143K18,29,SQUARES,exp,45,17,True,9,1,0,-,0.11757839983329177,-
Y2-S2-143K18,30,SQUARES,exp,45,17,True,9,1,0,-,0.08406260004267097,-
Y2-S2-143K18,31,SQUARES,exp,45,17,True,9,1,0,-,0.01731280004605651,-
Y2-S2-143K18,32,SQUARES,exp,45,17,True,8,1,0,-,1.9178355000913143,-
Y2-S2-143K18,33,SQUARES,exp,45,17,True,8,1,0,-,0.5504617998376489,-
Y2-S2-143K18,34,SQUARES,exp,45,17,True,8,1,0,-,0.0675877002067864,-
Y2-S2-143K18,35,SQUARES,exp,45,17,True,7,1,0,-,0.25062300032004714,-
Y2-S2-143K18,36,SQUARES,exp,45,17,True,7,1,0,-,0.1510589001700282,-
Y2-S2-143K18,37,SQUARES,exp,45,17,True,7,1,0,-,0.300791900139302,-
Y2-S2-143K18,38,SQUARES,exp,45,17,True,6,1,0,-,0.10076630022376776,-
Y2-S2-143K18,39,SQUARES,exp,45,17,True,6,1,0,-,0.25084839994087815,-
Y2-S2-143K18,40,SQUARES,exp,45,17,True,6,1,0,-,0.21736600017175078,-
Y2-S2-143K18,41,SQUARES,exp,45,17,True,5,1,0,-,0.08446360006928444,-
Y2-S2-143K18,42,SQUARES,exp,45,17,True,5,1,0,-,0.40081549994647503,-
Y2-S2-143K18,43,SQUARES,exp,45,17,True,5,1,0,-,0.06753790006041527,-
Y2-S2-143K18,44,SQUARES,exp,45,17,False,4,-1,1,5,0.33442179998382926,-
Y2-S2-143K18,45,SQUARES,exp,45,17,True,5,-1,0,-,0.11766880005598068,-
Y2-S2-143K18,46,SQUARES,exp,45,17,False,5,-1,0,-,0.16779690003022552,-
Y2-S2-143K18,47,SQUARES,exp,45,17,False,6,-1,0,-,0.9841443002223969,-
Y2-S2-143K18,48,SQUARES,exp,45,17,True,7,-1,0,-,0.23412710009142756,-
Y2-S2-143K18,49,SQUARES,exp,45,17,True,7,-1,0,-,0.18490249989554286,-
Y2-S2-143K18,50,SQUARES,exp,45,17,True,7,1,1,6,0.06789779989048839,-
Y2-S2-143K18,51,SQUARES,exp,45,17,True,6,1,0,-,0.26767139974981546,-
Y2-S2-143K18,52,SQUARES,exp,45,17,True,6,1,0,-,0.2348164999857545,-
Y2-S2-143K18,53,SQUARES,exp,45,17,True,6,1,0,-,0.08419830026105046,-
Y2-S2-143K18,54,SQUARES,exp,45,17,True,5,1,0,-,0.2677664998918772,-
Y2-S2-143K18,55,SQUARES,exp,45,17,True,5,1,0,-,0.26764290034770966,-
Y2-S2-143K18,56,SQUARES,exp,45,17,True,5,1,0,-,0.5010581999085844,-
Y2-S2-143K18,57,SQUARES,exp,45,17,True,4,1,0,-,0.7513586999848485,-
Y2-S2-143K18,58,SQUARES,exp,45,17,False,4,-1,1,7,0.26727480022236705,-
Y2-S2-143K18,59,SQUARES,exp,45,17,True,5,-1,0,-,0.21746519999578595,-
Y2-S2-143K18,60,SQUARES,exp,45,17,True,5,-1,0,-,0.2848982000723481,-
Y2-S2-143K18,61,SQUARES,exp,45,17,False,5,-1,0,-,0.7838726998306811,-
Y2-S2-143K18,62,SQUARES,exp,45,17,True,6,-1,0,-,0.15094919968396425,-
Y2-S2-143K18,63,SQUARES,exp,45,17,True,6,-1,0,-,0.08432439994066954,-
Y2-S2-143K18,64,SQUARES,exp,45,17,False,6,-1,0,-,0.0841849003918469,-
Y2-S2-143K18,65,SQUARES,exp,45,17,False,7,-1,0,-,1.484856499824673,-
Y2-S2-143K18,66,SQUARES,exp,45,17,True,8,-1,0,-,0.26779819978401065,-
Y2-S2-143K18,67,SQUARES,exp,45,17,True,8,-1,0,-,0.3342645997181535,-
Y2-S2-143K18,68,SQUARES,exp,45,17,True,8,1,1,8,0.1838778001256287,-
Y2-S2-143K18,69,SQUARES,exp,45,17,True,7,1,0,-,0.13407430006191134,-
Y2-S2-143K18,70,SQUARES,exp,45,17,True,7,1,0,-,0.18408619984984398,-
Y2-S2-143K18,71,SQUARES,exp,45,17,True,7,1,0,-,0.1342523000203073,-
Y2-S2-143K18,72,SQUARES,exp,45,17,True,6,1,0,-,0.16768760001286864,-
Y2-S2-143K18,73,SQUARES,exp,45,17,True,6,1,0,-,0.0011634998954832554,-
Y2-S2-143K18,74,SQUARES,exp,45,17,True,6,1,0,-,1.2511074002832174,-
Y2-S2-143K18,75,SQUARES,exp,45,17,True,5,1,0,-,2.7672784999012947,-
Y2-S2-143K18,76,SQUARES,exp,45,17,False,5,-1,1,9,0.5507668000645936,-
Y2-S2-143K18,77,SQUARES,exp,45,17,True,6,-1,0,-,0.0009612999856472015,-
Y2-S2-143K18,78,SQUARES,exp,45,17,True,6,-1,0,-,0.23406129982322454,-
Y2-S2-143K18,79,SQUARES,exp,45,17,True,6,1,1,10,0.03430990036576986,-
Y2-S2-143K18,80,SQUARES,exp,45,17,True,5,1,0,-,0.050875399727374315,-
Y2-S2-143K18,81,SQUARES,exp,45,17,True,5,1,0,-,0.11758800037205219,-
Y2-S2-143K18,82,SQUARES,exp,45,17,True,5,1,0,-,0.20101770013570786,-
Y2-S2-143K18,83,SQUARES,exp,45,17,True,4,1,0,-,0.8509380002506077,-
Y2-S2-143K18,84,SQUARES,exp,45,17,True,4,1,0,-,0.21746439998969436,-
Y2-S2-143K18,85,SQUARES,exp,45,17,True,4,1,0,-,0.017711100168526173,-
Y2-S2-143K18,86,SQUARES,exp,45,17,True,3,1,0,-,0.18469589995220304,-
Y2-S2-143K18,87,SQUARES,exp,45,17,False,3,-1,1,11,0.21744810044765472,-
Y2-S2-143K18,88,SQUARES,exp,45,17,True,4,-1,0,-,0.2505238000303507,-
Y2-S2-143K18,89,SQUARES,exp,45,17,False,4,-1,0,-,0.250744900200516,-
Y2-S2-143K18,90,SQUARES,exp,45,17,True,5,-1,0,-,0.2514187004417181,-
Y2-S2-143K18,91,SQUARES,exp,45,17,True,5,-1,0,-,0.08418530039489269,-
Y2-S2-143K18,92,SQUARES,exp,45,17,True,5,1,1,12,0.06688269972801208,-
Y2-S2-143K18,93,SQUARES,exp,45,17,False,4,-1,1,13,0.3675977000966668,-
Y2-S2-143K18,94,SQUARES,exp,45,17,True,5,-1,0,-,0.051163299940526485,-
Y2-S2-143K18,95,SQUARES,exp,45,17,False,5,-1,0,-,0.11803810019046068,-
Y2-S2-143K18,96,SQUARES,exp,45,17,True,6,-1,0,-,0.9177946001291275,-
Y2-S2-143K18,97,SQUARES,exp,45,17,False,6,-1,0,-,-1.0,-
Y2-S2-143K18,98,SQUARES,exp,45,17,True,7,-1,0,-,0.7173856003209949,-
Y2-S2-143K18,99,SQUARES,exp,45,17,True,7,-1,0,-,0.45093820011243224,-
Y2-S2-143K18,100,SQUARES,exp,45,17,False,7,-1,0,-,0.48417249973863363,-
Y2-S2-143K18,101,SQUARES,exp,45,17,True,8,-1,0,-,0.0012660999782383442,-
Y2-S2-143K18,102,SQUARES,exp,45,17,True,8,-1,0,-,0.08437439985573292,-
Y2-S2-143K18,103,SQUARES,exp,45,17,True,8,1,1,14,0.30089050019159913,-
Y2-S2-143K18,104,SQUARES,exp,45,17,True,7,1,0,-,0.001003200188279152,-
Y2-S2-143K18,105,SQUARES,exp,45,17,True,7,1,0,-,0.5506903999485075,-
Y2-S2-143K18,106,SQUARES,exp,45,17,True,7,1,0,-,0.05076829995959997,-
Y2-S2-143K18,107,SQUARES,exp,45,17,True,6,1,0,-,0.13427780009806156,-
Y2-S2-143K18,108,SQUARES,exp,45,17,True,6,1,0,-,0.200575300026685,-
Y2-S2-143K18,109,SQUARES,exp,45,17,False,6,-1,1,15,0.31755310017615557,-
Y2-S2-143K18,110,SQUARES,exp,45,17,False,7,-1,0,-,0.3842843999154866,-
Y2-S2-143K18,111,SQUARES,exp,45,17,True,8,-1,0,-,0.5344793000258505,-
Y2-S2-143K18,112,SQUARES,exp,45,17,True,8,-1,0,-,0.5006069000810385,-
Y2-S2-143K18,113,SQUARES,exp,45,17,True,8,1,1,16,0.5174746001139283,-
Y2-S2-143K18,1,CIRCLES,training,45,17,True,20,-,-,-,1.1176537000574172,-
Y2-S2-143K18,2,CIRCLES,training,45,17,True,20,-,-,-,1.0341913998126984,-
Y2-S2-143K18,3,CIRCLES,training,45,17,True,20,-,-,-,0.5344100999645889,-
Y2-S2-143K18,4,CIRCLES,training,45,17,True,20,-,-,-,0.38420299999415874,-
Y2-S2-143K18,5,CIRCLES,training,45,17,True,20,-,-,-,0.48470909986644983,-
Y2-S2-143K18,6,CIRCLES,training,45,17,True,20,-,-,-,0.38433940010145307,-
Y2-S2-143K18,7,CIRCLES,training,45,17,True,20,-,-,-,0.5509688998572528,-
Y2-S2-143K18,8,CIRCLES,training,45,17,True,20,-,-,-,0.6010052002966404,-
Y2-S2-143K18,9,CIRCLES,training,45,17,True,20,-,-,-,0.40095659997314215,-
Y2-S2-143K18,10,CIRCLES,training,45,17,True,20,-,-,-,0.5678380997851491,-
Y2-S2-143K18,11,CIRCLES,training,45,17,True,10,-,-,-,0.33410209976136684,-
Y2-S2-143K18,12,CIRCLES,training,45,17,True,10,-,-,-,0.4510631999000907,-
Y2-S2-143K18,13,CIRCLES,training,45,17,True,10,-,-,-,0.4184154998511076,-
Y2-S2-143K18,14,CIRCLES,training,45,17,True,10,-,-,-,0.5509469001553953,-
Y2-S2-143K18,15,CIRCLES,training,45,17,True,10,-,-,-,0.8175729997456074,-
Y2-S2-143K18,16,CIRCLES,training,45,17,True,10,-,-,-,0.48444660007953644,-
Y2-S2-143K18,17,CIRCLES,training,45,17,True,10,-,-,-,0.7343723000958562,-
Y2-S2-143K18,18,CIRCLES,training,45,17,True,10,-,-,-,0.1839729999192059,-
Y2-S2-143K18,19,CIRCLES,training,45,17,True,10,-,-,-,0.4508829996921122,-
Y2-S2-143K18,20,CIRCLES,training,45,17,True,10,-,-,-,0.3181523997336626,-
Y2-S2-143K18,1,CIRCLES,exp,45,17,True,10,0,0,0,0.4174540997482836,-
Y2-S2-143K18,2,CIRCLES,exp,45,17,True,10,0,0,-,0.41780300019308925,-
Y2-S2-143K18,3,CIRCLES,exp,45,17,True,10,1,0,-,0.33399710012599826,-
Y2-S2-143K18,4,CIRCLES,exp,45,17,True,9,1,0,-,0.31757939979434013,-
Y2-S2-143K18,5,CIRCLES,exp,45,17,True,9,1,0,-,0.11759660020470619,-
Y2-S2-143K18,6,CIRCLES,exp,45,17,True,9,1,0,-,0.2340681003406644,-
Y2-S2-143K18,7,CIRCLES,exp,45,17,True,8,1,0,-,0.20089699979871511,-
Y2-S2-143K18,8,CIRCLES,exp,45,17,True,8,1,0,-,0.283793400041759,-
Y2-S2-143K18,9,CIRCLES,exp,45,17,False,8,-1,1,1,0.4171644002199173,-
Y2-S2-143K18,10,CIRCLES,exp,45,17,True,9,-1,0,-,0.23426609998568892,-
Y2-S2-143K18,11,CIRCLES,exp,45,17,True,9,-1,0,-,0.26707950001582503,-
Y2-S2-143K18,12,CIRCLES,exp,45,17,True,9,1,1,2,0.1844355002976954,-
Y2-S2-143K18,13,CIRCLES,exp,45,17,True,8,1,0,-,0.21735060028731823,-
Y2-S2-143K18,14,CIRCLES,exp,45,17,True,8,1,0,-,0.28504470037296414,-
Y2-S2-143K18,15,CIRCLES,exp,45,17,True,8,1,0,-,0.10105129983276129,-
Y2-S2-143K18,16,CIRCLES,exp,45,17,True,7,1,0,-,0.0507022999227047,-
Y2-S2-143K18,17,CIRCLES,exp,45,17,True,7,1,0,-,0.11753890011459589,-
Y2-S2-143K18,18,CIRCLES,exp,45,17,True,7,1,0,-,0.06752669997513294,-
Y2-S2-143K18,19,CIRCLES,exp,45,17,True,6,1,0,-,0.03437480004504323,-
Y2-S2-143K18,20,CIRCLES,exp,45,17,True,6,1,0,-,0.20111940009519458,-
Y2-S2-143K18,21,CIRCLES,exp,45,17,True,6,1,0,-,0.2510498999617994,-
Y2-S2-143K18,22,CIRCLES,exp,45,17,True,5,1,0,-,0.25080749997869134,-
Y2-S2-143K18,23,CIRCLES,exp,45,17,True,5,1,0,-,0.051120399963110685,-
Y2-S2-143K18,24,CIRCLES,exp,45,17,False,5,-1,1,3,0.6510248999111354,-
Y2-S2-143K18,25,CIRCLES,exp,45,17,True,6,-1,0,-,0.20099549973383546,-
Y2-S2-143K18,26,CIRCLES,exp,45,17,False,6,-1,0,-,0.06743909977376461,-
Y2-S2-143K18,27,CIRCLES,exp,45,17,False,7,-1,0,-,0.317384600173682,-
Y2-S2-143K18,28,CIRCLES,exp,45,17,False,8,-1,0,-,0.1338615999557078,-
Y2-S2-143K18,29,CIRCLES,exp,45,17,False,9,-1,0,-,0.46749449986964464,-
Y2-S2-143K18,30,CIRCLES,exp,45,17,True,10,-1,0,-,0.11760760005563498,-
Y2-S2-143K18,31,CIRCLES,exp,45,17,False,10,-1,0,-,0.6509204995818436,-
Y2-S2-143K18,32,CIRCLES,exp,45,17,True,11,-1,0,-,0.08327309973537922,-
Y2-S2-143K18,33,CIRCLES,exp,45,17,False,11,-1,0,-,1.4004954998381436,-
Y2-S2-143K18,34,CIRCLES,exp,45,17,False,12,-1,0,-,0.6509556998498738,-
Y2-S2-143K18,35,CIRCLES,exp,45,17,False,13,-1,0,-,2.0680351997725666,-
Y2-S2-143K18,36,CIRCLES,exp,45,17,False,14,-1,0,-,-1.0,-
Y2-S2-143K18,37,CIRCLES,exp,45,17,False,15,-1,0,-,0.5008296999149024,-
Y2-S2-143K18,38,CIRCLES,exp,45,17,False,16,-1,0,-,-1.0,-
Y2-S2-143K18,39,CIRCLES,exp,45,17,False,17,-1,0,-,1.3840260999277234,-
Y2-S2-143K18,40,CIRCLES,exp,45,17,False,18,-1,0,-,0.2010928001254797,-
Y2-S2-143K18,41,CIRCLES,exp,45,17,True,19,-1,0,-,0.11734549980610609,-
Y2-S2-143K18,42,CIRCLES,exp,45,17,False,19,-1,0,-,0.9678516001440585,-
Y2-S2-143K18,43,CIRCLES,exp,45,17,False,20,-1,0,-,1.5842908998019993,-
Y2-S2-143K18,44,CIRCLES,exp,45,17,True,21,-1,0,-,0.45093110017478466,-
Y2-S2-143K18,45,CIRCLES,exp,45,17,True,21,-1,0,-,3.384202899876982,-
Y2-S2-143K18,46,CIRCLES,exp,45,17,True,21,1,1,4,0.6176450001075864,-
Y2-S2-143K18,47,CIRCLES,exp,45,17,False,20,-1,1,5,1.2343374998308718,-
Y2-S2-143K18,48,CIRCLES,exp,45,17,True,21,-1,0,-,0.383317899890244,-
Y2-S2-143K18,49,CIRCLES,exp,45,17,False,21,-1,0,-,0.9177557998336852,-
Y2-S2-143K18,50,CIRCLES,exp,45,17,False,22,-1,0,-,-1.0,-
Y2-S2-143K18,51,CIRCLES,exp,45,17,False,23,-1,0,-,-1.0,-
Y2-S2-143K18,52,CIRCLES,exp,45,17,False,24,-1,0,-,-1.0,-
Y2-S2-143K18,53,CIRCLES,exp,45,17,True,25,-1,0,-,3.551077999640256,-
Y2-S2-143K18,54,CIRCLES,exp,45,17,True,25,-1,0,-,1.2509852000512183,-
Y2-S2-143K18,55,CIRCLES,exp,45,17,True,25,1,1,6,0.4178702998906374,-
Y2-S2-143K18,56,CIRCLES,exp,45,17,True,24,1,0,-,0.15087110036984086,-
Y2-S2-143K18,57,CIRCLES,exp,45,17,True,24,1,0,-,1.0341766001656651,-
Y2-S2-143K18,58,CIRCLES,exp,45,17,True,24,1,0,-,0.3012469997629523,-
Y2-S2-143K18,59,CIRCLES,exp,45,17,True,23,1,0,-,0.4845043998211622,-
Y2-S2-143K18,60,CIRCLES,exp,45,17,True,23,1,0,-,0.05052620032802224,-
Y2-S2-143K18,61,CIRCLES,exp,45,17,True,23,1,0,-,0.3673887001350522,-
Y2-S2-143K18,62,CIRCLES,exp,45,17,True,22,1,0,-,0.25077079981565475,-
Y2-S2-143K18,63,CIRCLES,exp,45,17,True,22,1,0,-,0.35096130007877946,-
Y2-S2-143K18,64,CIRCLES,exp,45,17,True,22,1,0,-,0.3840276002883911,-
Y2-S2-143K18,65,CIRCLES,exp,45,17,True,21,1,0,-,0.3350666998885572,-
Y2-S2-143K18,66,CIRCLES,exp,45,17,True,21,1,0,-,0.3008928997442126,-
Y2-S2-143K18,67,CIRCLES,exp,45,17,True,21,1,0,-,0.3175280001014471,-
Y2-S2-143K18,68,CIRCLES,exp,45,17,True,20,1,0,-,0.35056390007957816,-
Y2-S2-143K18,69,CIRCLES,exp,45,17,True,20,1,0,-,0.3341386001557112,-
Y2-S2-143K18,70,CIRCLES,exp,45,17,True,20,1,0,-,0.5676056002266705,-
Y2-S2-143K18,71,CIRCLES,exp,45,17,True,19,1,0,-,0.350976400077343,-
Y2-S2-143K18,72,CIRCLES,exp,45,17,True,19,1,0,-,0.16753860004246235,-
Y2-S2-143K18,73,CIRCLES,exp,45,17,False,19,-1,1,7,0.08408330008387566,-
Y2-S2-143K18,74,CIRCLES,exp,45,17,True,20,-1,0,-,0.5175401996821165,-
Y2-S2-143K18,75,CIRCLES,exp,45,17,True,20,-1,0,-,0.15049929963424802,-
Y2-S2-143K18,76,CIRCLES,exp,45,17,True,20,1,1,8,0.36785650020465255,-
Y2-S2-143K18,77,CIRCLES,exp,45,17,True,19,1,0,-,0.6008373000659049,-
Y2-S2-143K18,78,CIRCLES,exp,45,17,True,19,1,0,-,0.2176767997443676,-
Y2-S2-143K18,79,CIRCLES,exp,45,17,False,19,-1,1,9,0.5177826997824013,-
Y2-S2-143K18,80,CIRCLES,exp,45,17,True,20,-1,0,-,2.400684299878776,-
Y2-S2-143K18,81,CIRCLES,exp,45,17,False,20,-1,0,-,0.1342480001039803,-
Y2-S2-143K18,82,CIRCLES,exp,45,17,True,21,-1,0,-,0.0512833003886044,-
Y2-S2-143K18,83,CIRCLES,exp,45,17,True,21,-1,0,-,0.11708969995379448,-
Y2-S2-143K18,84,CIRCLES,exp,45,17,True,21,1,1,10,1.6846185000613332,-
Y2-S2-143K18,85,CIRCLES,exp,45,17,False,20,-1,1,11,1.8349515995942056,-
Y2-S2-143K18,86,CIRCLES,exp,45,17,False,21,-1,0,-,0.36759980022907257,-
Y2-S2-143K18,87,CIRCLES,exp,45,17,True,22,-1,0,-,0.48402730002999306,-
Y2-S2-143K18,88,CIRCLES,exp,45,17,False,22,-1,0,-,0.167520800139755,-
Y2-S2-143K18,89,CIRCLES,exp,45,17,False,23,-1,0,-,0.817538000177592,-
Y2-S2-143K18,90,CIRCLES,exp,45,17,True,24,-1,0,-,0.2007808000780642,-
Y2-S2-143K18,91,CIRCLES,exp,45,17,True,24,-1,0,-,0.1508522997610271,-
Y2-S2-143K18,92,CIRCLES,exp,45,17,True,24,1,1,12,0.318662800360471,-
Y2-S2-143K18,93,CIRCLES,exp,45,17,True,23,1,0,-,0.2679413999430835,-
Y2-S2-143K18,94,CIRCLES,exp,45,17,False,23,-1,1,13,0.6346713001839817,-
Y2-S2-143K18,95,CIRCLES,exp,45,17,True,24,-1,0,-,0.5676420000381768,-
Y2-S2-143K18,96,CIRCLES,exp,45,17,True,24,-1,0,-,0.46758579974994063,-
Y2-S2-143K18,97,CIRCLES,exp,45,17,True,24,1,1,14,3.984378600027412,-
Y2-S2-143K18,98,CIRCLES,exp,45,17,False,23,-1,1,15,0.11727440031245351,-
Y2-S2-143K18,99,CIRCLES,exp,45,17,False,24,-1,0,-,0.5343637997284532,-
Y2-S2-143K18,100,CIRCLES,exp,45,17,True,25,-1,0,-,0.6844101999886334,-
Y2-S2-143K18,101,CIRCLES,exp,45,17,True,25,-1,0,-,0.684360499959439,-
Y2-S2-143K18,102,CIRCLES,exp,45,17,True,25,1,1,16,0.16773560037836432,-
