PART_ID,Trial,Stimuli,Training,FIXTIME,MTIME,Correct,SOA,Level,Reversal,Reversal_count,Latency,Rating
Y2-S2-092M28,1,SQUARES,training,45,17,True,12,-,-,-,0.38443540036678314,-
Y2-S2-092M28,2,SQUARES,training,45,17,True,12,-,-,-,0.20069359987974167,-
Y2-S2-092M28,3,SQUARES,training,45,17,True,12,-,-,-,2.8341371999122202,-
Y2-S2-092M28,4,SQUARES,training,45,17,True,12,-,-,-,0.0340913999825716,-
Y2-S2-092M28,5,SQUARES,training,45,17,True,12,-,-,-,1.2675149999558926,-
Y2-S2-092M28,6,SQUARES,training,45,17,True,12,-,-,-,0.2504441002383828,-
Y2-S2-092M28,7,SQUARES,training,45,17,True,12,-,-,-,0.1507664998061955,-
Y2-S2-092M28,8,SQUARES,training,45,17,True,12,-,-,-,1.1008843001909554,-
Y2-S2-092M28,9,SQUARES,training,45,17,True,12,-,-,-,0.13392679998651147,-
Y2-S2-092M28,10,SQUARES,training,45,17,True,12,-,-,-,0.03410589974373579,-
Y2-S2-092M28,11,SQUARES,training,45,17,True,6,-,-,-,0.3841467001475394,-
Y2-S2-092M28,12,SQUARES,training,45,17,True,6,-,-,-,0.08501779986545444,-
Y2-S2-092M28,13,SQUARES,training,45,17,True,6,-,-,-,2.3345425999723375,-
Y2-S2-092M28,14,SQUARES,training,45,17,True,6,-,-,-,0.33407989982515574,-
Y2-S2-092M28,15,SQUARES,training,45,17,True,6,-,-,-,0.08439800003543496,-
Y2-S2-092M28,16,SQUARES,training,45,17,True,6,-,-,-,0.06735899997875094,-
Y2-S2-092M28,17,SQUARES,training,45,17,True,6,-,-,-,1.6509468001313508,-
Y2-S2-092M28,18,SQUARES,training,45,17,True,6,-,-,-,0.4177720998413861,-
Y2-S2-092M28,19,SQUARES,training,45,17,True,6,-,-,-,0.050891300197690725,-
Y2-S2-092M28,20,SQUARES,training,45,17,True,6,-,-,-,0.8508216999471188,-
Y2-S2-092M28,1,SQUARES,exp,45,17,True,6,0,0,0,0.05069510033354163,-
Y2-S2-092M28,2,SQUARES,exp,45,17,True,6,0,0,-,0.20086849993094802,-
Y2-S2-092M28,3,SQUARES,exp,45,17,True,6,1,0,-,0.05055630020797253,-
Y2-S2-092M28,4,SQUARES,exp,45,17,True,5,1,0,-,0.20050449995324016,-
Y2-S2-092M28,5,SQUARES,exp,45,17,True,5,1,0,-,0.13371550012379885,-
Y2-S2-092M28,6,SQUARES,exp,45,17,True,5,1,0,-,0.03387649962678552,-
Y2-S2-092M28,7,SQUARES,exp,45,17,True,4,1,0,-,0.16748060006648302,-
Y2-S2-092M28,8,SQUARES,exp,45,17,True,4,1,0,-,0.13410170003771782,-
Y2-S2-092M28,9,SQUARES,exp,45,17,True,4,1,0,-,0.28418410010635853,-
Y2-S2-092M28,10,SQUARES,exp,45,17,True,3,1,0,-,0.4842245001345873,-
Y2-S2-092M28,11,SQUARES,exp,45,17,False,3,-1,1,1,0.45119090005755424,-
Y2-S2-092M28,12,SQUARES,exp,45,17,True,4,-1,0,-,0.23378759995102882,-
Y2-S2-092M28,13,SQUARES,exp,45,17,True,4,-1,0,-,0.18415959971025586,-
Y2-S2-092M28,14,SQUARES,exp,45,17,True,4,1,1,2,0.48438889998942614,-
Y2-S2-092M28,15,SQUARES,exp,45,17,True,3,1,0,-,0.3677050000987947,-
Y2-S2-092M28,16,SQUARES,exp,45,17,False,3,-1,1,3,0.633739999961108,-
Y2-S2-092M28,17,SQUARES,exp,45,17,True,4,-1,0,-,1.3345221001654863,-
Y2-S2-092M28,18,SQUARES,exp,45,17,True,4,-1,0,-,0.3005635002627969,-
Y2-S2-092M28,19,SQUARES,exp,45,17,False,4,-1,0,-,0.8501548999920487,-
Y2-S2-092M28,20,SQUARES,exp,45,17,True,5,-1,0,-,0.3341572000645101,-
Y2-S2-092M28,21,SQUARES,exp,45,17,True,5,-1,0,-,0.1344773001037538,-
Y2-S2-092M28,22,SQUARES,exp,45,17,True,5,1,1,4,0.15045939991250634,-
Y2-S2-092M28,23,SQUARES,exp,45,17,True,4,1,0,-,0.26786360004916787,-
Y2-S2-092M28,24,SQUARES,exp,45,17,True,4,1,0,-,0.11782420007511973,-
Y2-S2-092M28,25,SQUARES,exp,45,17,True,4,1,0,-,0.11760970018804073,-
Y2-S2-092M28,26,SQUARES,exp,45,17,True,3,1,0,-,0.15030049998313189,-
Y2-S2-092M28,27,SQUARES,exp,45,17,True,3,1,0,-,0.650282199960202,-
Y2-S2-092M28,28,SQUARES,exp,45,17,True,3,1,0,-,0.3174956999719143,-
Y2-S2-092M28,29,SQUARES,exp,45,17,False,2,-1,1,5,0.517864799592644,-
Y2-S2-092M28,30,SQUARES,exp,45,17,False,3,-1,0,-,0.2171935997903347,-
Y2-S2-092M28,31,SQUARES,exp,45,17,True,4,-1,0,-,0.3006523000076413,-
Y2-S2-092M28,32,SQUARES,exp,45,17,False,4,-1,0,-,0.7009313004091382,-
Y2-S2-092M28,33,SQUARES,exp,45,17,True,5,-1,0,-,0.11734999995678663,-
Y2-S2-092M28,34,SQUARES,exp,45,17,True,5,-1,0,-,0.06746610021218657,-
Y2-S2-092M28,35,SQUARES,exp,45,17,True,5,1,1,6,0.3006382002495229,-
Y2-S2-092M28,36,SQUARES,exp,45,17,True,4,1,0,-,0.11745959986001253,-
Y2-S2-092M28,37,SQUARES,exp,45,17,True,4,1,0,-,0.5165402004495263,-
Y2-S2-092M28,38,SQUARES,exp,45,17,True,4,1,0,-,0.36725369980558753,-
Y2-S2-092M28,39,SQUARES,exp,45,17,True,3,1,0,-,0.2012304998934269,-
Y2-S2-092M28,40,SQUARES,exp,45,17,True,3,1,0,-,0.16754340007901192,-
Y2-S2-092M28,41,SQUARES,exp,45,17,True,3,1,0,-,0.8841631999239326,-
Y2-S2-092M28,42,SQUARES,exp,45,17,False,2,-1,1,7,0.4675787999294698,-
Y2-S2-092M28,43,SQUARES,exp,45,17,False,3,-1,0,-,0.4674253002740443,-
Y2-S2-092M28,44,SQUARES,exp,45,17,True,4,-1,0,-,0.450709099881351,-
Y2-S2-092M28,45,SQUARES,exp,45,17,True,4,-1,0,-,0.28439530031755567,-
Y2-S2-092M28,46,SQUARES,exp,45,17,True,4,1,1,8,0.2171550001949072,-
Y2-S2-092M28,47,SQUARES,exp,45,17,False,3,-1,1,9,0.6672391998581588,-
Y2-S2-092M28,48,SQUARES,exp,45,17,True,4,-1,0,-,0.2509163999930024,-
Y2-S2-092M28,49,SQUARES,exp,45,17,True,4,-1,0,-,0.23387720016762614,-
Y2-S2-092M28,50,SQUARES,exp,45,17,True,4,1,1,10,0.1840935000218451,-
Y2-S2-092M28,51,SQUARES,exp,45,17,True,3,1,0,-,0.4177945996634662,-
Y2-S2-092M28,52,SQUARES,exp,45,17,True,3,1,0,-,0.38436320004984736,-
Y2-S2-092M28,53,SQUARES,exp,45,17,True,3,1,0,-,1.3342186002992094,-
Y2-S2-092M28,54,SQUARES,exp,45,17,True,2,1,0,-,0.4011265002191067,-
Y2-S2-092M28,55,SQUARES,exp,45,17,True,2,1,0,-,0.36724459985271096,-
Y2-S2-092M28,56,SQUARES,exp,45,17,True,2,1,0,-,1.234177800361067,-
Y2-S2-092M28,57,SQUARES,exp,45,17,True,1,1,0,-,0.30087450006976724,-
Y2-S2-092M28,58,SQUARES,exp,45,17,False,1,-1,1,11,0.4675830998457968,-
Y2-S2-092M28,59,SQUARES,exp,45,17,False,2,-1,0,-,0.450677499640733,-
Y2-S2-092M28,60,SQUARES,exp,45,17,True,3,-1,0,-,0.33375429967418313,-
Y2-S2-092M28,61,SQUARES,exp,45,17,True,3,-1,0,-,0.3343670996837318,-
Y2-S2-092M28,62,SQUARES,exp,45,17,True,3,1,1,12,0.30095360008999705,-
Y2-S2-092M28,63,SQUARES,exp,45,17,True,2,1,0,-,0.6009335000999272,-
Y2-S2-092M28,64,SQUARES,exp,45,17,True,2,1,0,-,0.6168592995963991,-
Y2-S2-092M28,65,SQUARES,exp,45,17,True,2,1,0,-,0.7673960998654366,-
Y2-S2-092M28,66,SQUARES,exp,45,17,True,1,1,0,-,1.0177432000637054,-
Y2-S2-092M28,67,SQUARES,exp,45,17,True,1,1,0,-,0.4341921000741422,-
Y2-S2-092M28,68,SQUARES,exp,45,17,False,1,-1,1,13,0.5012663998641074,-
Y2-S2-092M28,69,SQUARES,exp,45,17,False,2,-1,0,-,0.23386869998648763,-
Y2-S2-092M28,70,SQUARES,exp,45,17,False,3,-1,0,-,2.7011224003508687,-
Y2-S2-092M28,71,SQUARES,exp,45,17,True,4,-1,0,-,0.30085499957203865,-
Y2-S2-092M28,72,SQUARES,exp,45,17,True,4,-1,0,-,0.23420759988948703,-
Y2-S2-092M28,73,SQUARES,exp,45,17,True,4,1,1,14,0.23417120007798076,-
Y2-S2-092M28,74,SQUARES,exp,45,17,True,3,1,0,-,0.5677690003067255,-
Y2-S2-092M28,75,SQUARES,exp,45,17,False,3,-1,1,15,0.1508249999023974,-
Y2-S2-092M28,76,SQUARES,exp,45,17,True,4,-1,0,-,0.4007680001668632,-
Y2-S2-092M28,77,SQUARES,exp,45,17,True,4,-1,0,-,0.28385879984125495,-
Y2-S2-092M28,78,SQUARES,exp,45,17,True,4,1,1,16,2.517566400114447,-
Y2-S2-092M28,1,CIRCLES,training,45,17,True,20,-,-,-,1.20096220029518,-
Y2-S2-092M28,2,CIRCLES,training,45,17,True,20,-,-,-,0.3673669002018869,-
Y2-S2-092M28,3,CIRCLES,training,45,17,True,20,-,-,-,0.3174220002256334,-
Y2-S2-092M28,4,CIRCLES,training,45,17,True,20,-,-,-,0.4674419998191297,-
Y2-S2-092M28,5,CIRCLES,training,45,17,True,20,-,-,-,0.16750740027055144,-
Y2-S2-092M28,6,CIRCLES,training,45,17,True,20,-,-,-,0.051130699925124645,-
Y2-S2-092M28,7,CIRCLES,training,45,17,True,20,-,-,-,0.48401830019429326,-
Y2-S2-092M28,8,CIRCLES,training,45,17,True,20,-,-,-,0.5343728000298142,-
Y2-S2-092M28,9,CIRCLES,training,45,17,True,20,-,-,-,0.1843185001052916,-
Y2-S2-092M28,10,CIRCLES,training,45,17,True,20,-,-,-,0.2008271999657154,-
Y2-S2-092M28,11,CIRCLES,training,45,17,True,10,-,-,-,0.45081840036436915,-
Y2-S2-092M28,12,CIRCLES,training,45,17,True,10,-,-,-,0.15121359983459115,-
Y2-S2-092M28,13,CIRCLES,training,45,17,True,10,-,-,-,0.2846046998165548,-
Y2-S2-092M28,14,CIRCLES,training,45,17,True,10,-,-,-,0.10092300036922097,-
Y2-S2-092M28,15,CIRCLES,training,45,17,True,10,-,-,-,0.317750200163573,-
Y2-S2-092M28,16,CIRCLES,training,45,17,True,10,-,-,-,0.2178706000559032,-
Y2-S2-092M28,17,CIRCLES,training,45,17,True,10,-,-,-,0.1674663000740111,-
Y2-S2-092M28,18,CIRCLES,training,45,17,True,10,-,-,-,0.08405689988285303,-
Y2-S2-092M28,19,CIRCLES,training,45,17,True,10,-,-,-,0.0008481997065246105,-
Y2-S2-092M28,20,CIRCLES,training,45,17,True,10,-,-,-,0.08446480007842183,-
Y2-S2-092M28,1,CIRCLES,exp,45,17,True,10,0,0,0,0.11743210023269057,-
Y2-S2-092M28,2,CIRCLES,exp,45,17,True,10,0,0,-,0.2676606997847557,-
Y2-S2-092M28,3,CIRCLES,exp,45,17,True,10,1,0,-,0.05054919980466366,-
Y2-S2-092M28,4,CIRCLES,exp,45,17,True,9,1,0,-,0.11783170001581311,-
Y2-S2-092M28,5,CIRCLES,exp,45,17,True,9,1,0,-,0.13448529969900846,-
Y2-S2-092M28,6,CIRCLES,exp,45,17,True,9,1,0,-,0.41775430040434003,-
Y2-S2-092M28,7,CIRCLES,exp,45,17,True,8,1,0,-,0.20099089993163943,-
Y2-S2-092M28,8,CIRCLES,exp,45,17,True,8,1,0,-,0.18487780028954148,-
Y2-S2-092M28,9,CIRCLES,exp,45,17,True,8,1,0,-,0.21752669988200068,-
Y2-S2-092M28,10,CIRCLES,exp,45,17,True,7,1,0,-,0.20075179962441325,-
Y2-S2-092M28,11,CIRCLES,exp,45,17,True,7,1,0,-,0.20152669958770275,-
Y2-S2-092M28,12,CIRCLES,exp,45,17,True,7,1,0,-,0.01780709996819496,-
Y2-S2-092M28,13,CIRCLES,exp,45,17,True,6,1,0,-,0.0007977001368999481,-
Y2-S2-092M28,14,CIRCLES,exp,45,17,True,6,1,0,-,0.13427399983629584,-
Y2-S2-092M28,15,CIRCLES,exp,45,17,True,6,1,0,-,0.5182249001227319,-
Y2-S2-092M28,16,CIRCLES,exp,45,17,True,5,1,0,-,1.1841982998885214,-
Y2-S2-092M28,17,CIRCLES,exp,45,17,True,5,1,0,-,0.01731939986348152,-
Y2-S2-092M28,18,CIRCLES,exp,45,17,True,5,1,0,-,0.0518652000464499,-
Y2-S2-092M28,19,CIRCLES,exp,45,17,True,4,1,0,-,1.6505944998934865,-
Y2-S2-092M28,20,CIRCLES,exp,45,17,True,4,1,0,-,0.18403979996219277,-
Y2-S2-092M28,21,CIRCLES,exp,45,17,True,4,1,0,-,0.23388780001550913,-
Y2-S2-092M28,22,CIRCLES,exp,45,17,True,3,1,0,-,0.25091549986973405,-
Y2-S2-092M28,23,CIRCLES,exp,45,17,True,3,1,0,-,0.3005929999053478,-
Y2-S2-092M28,24,CIRCLES,exp,45,17,True,3,1,0,-,0.3011789000593126,-
Y2-S2-092M28,25,CIRCLES,exp,45,17,True,2,1,0,-,0.5675560999661684,-
Y2-S2-092M28,26,CIRCLES,exp,45,17,False,2,-1,1,1,0.4173465999774635,-
Y2-S2-092M28,27,CIRCLES,exp,45,17,False,3,-1,0,-,0.3343226998113096,-
Y2-S2-092M28,28,CIRCLES,exp,45,17,True,4,-1,0,-,1.7675603996030986,-
Y2-S2-092M28,29,CIRCLES,exp,45,17,True,4,-1,0,-,0.18426340026780963,-
Y2-S2-092M28,30,CIRCLES,exp,45,17,True,4,1,1,2,0.03418870037421584,-
Y2-S2-092M28,31,CIRCLES,exp,45,17,True,3,1,0,-,0.13416370004415512,-
Y2-S2-092M28,32,CIRCLES,exp,45,17,False,3,-1,1,3,0.30046569975093007,-
Y2-S2-092M28,33,CIRCLES,exp,45,17,True,4,-1,0,-,0.0008175000548362732,-
Y2-S2-092M28,34,CIRCLES,exp,45,17,False,4,-1,0,-,2.450952799990773,-
Y2-S2-092M28,35,CIRCLES,exp,45,17,True,5,-1,0,-,0.18416089983657002,-
Y2-S2-092M28,36,CIRCLES,exp,45,17,True,5,-1,0,-,0.21748230000957847,-
Y2-S2-092M28,37,CIRCLES,exp,45,17,True,5,1,1,4,0.16735020000487566,-
Y2-S2-092M28,38,CIRCLES,exp,45,17,True,4,1,0,-,0.3173728999681771,-
Y2-S2-092M28,39,CIRCLES,exp,45,17,True,4,1,0,-,0.4343403996899724,-
Y2-S2-092M28,40,CIRCLES,exp,45,17,False,4,-1,1,5,2.7837040997110307,-
Y2-S2-092M28,41,CIRCLES,exp,45,17,True,5,-1,0,-,0.16774960001930594,-
Y2-S2-092M28,42,CIRCLES,exp,45,17,True,5,-1,0,-,0.11733329994603992,-
Y2-S2-092M28,43,CIRCLES,exp,45,17,True,5,1,1,6,1.883891399949789,-
Y2-S2-092M28,44,CIRCLES,exp,45,17,True,4,1,0,-,0.900917099788785,-
Y2-S2-092M28,45,CIRCLES,exp,45,17,False,4,-1,1,7,2.233961599878967,-
Y2-S2-092M28,46,CIRCLES,exp,45,17,True,5,-1,0,-,2.1842982000671327,-
Y2-S2-092M28,47,CIRCLES,exp,45,17,True,5,-1,0,-,0.10086139990016818,-
Y2-S2-092M28,48,CIRCLES,exp,45,17,True,5,1,1,8,0.20077999960631132,-
Y2-S2-092M28,49,CIRCLES,exp,45,17,True,4,1,0,-,0.6009529000148177,-
Y2-S2-092M28,50,CIRCLES,exp,45,17,True,4,1,0,-,0.517499899957329,-
Y2-S2-092M28,51,CIRCLES,exp,45,17,True,4,1,0,-,0.25087300036102533,-
Y2-S2-092M28,52,CIRCLES,exp,45,17,False,3,-1,1,9,0.4672165997326374,-
Y2-S2-092M28,53,CIRCLES,exp,45,17,True,4,-1,0,-,0.23425750015303493,-
Y2-S2-092M28,54,CIRCLES,exp,45,17,True,4,-1,0,-,0.11743310000747442,-
Y2-S2-092M28,55,CIRCLES,exp,45,17,True,4,1,1,10,0.2505673998966813,-
Y2-S2-092M28,56,CIRCLES,exp,45,17,True,3,1,0,-,0.15113670006394386,-
Y2-S2-092M28,57,CIRCLES,exp,45,17,True,3,1,0,-,0.0007684999145567417,-
Y2-S2-092M28,58,CIRCLES,exp,45,17,True,3,1,0,-,0.06723980000242591,-
Y2-S2-092M28,59,CIRCLES,exp,45,17,False,2,-1,1,11,0.0672359000891447,-
Y2-S2-092M28,60,CIRCLES,exp,45,17,False,3,-1,0,-,2.683748799841851,-
Y2-S2-092M28,61,CIRCLES,exp,45,17,True,4,-1,0,-,0.23417870001867414,-
Y2-S2-092M28,62,CIRCLES,exp,45,17,True,4,-1,0,-,0.13427170040085912,-
Y2-S2-092M28,63,CIRCLES,exp,45,17,True,4,1,1,12,0.13409150019288063,-
Y2-S2-092M28,64,CIRCLES,exp,45,17,True,3,1,0,-,0.08415809972211719,-
Y2-S2-092M28,65,CIRCLES,exp,45,17,False,3,-1,1,13,0.15103820012882352,-
Y2-S2-092M28,66,CIRCLES,exp,45,17,True,4,-1,0,-,1.3175519001670182,-
Y2-S2-092M28,67,CIRCLES,exp,45,17,False,4,-1,0,-,0.2674394999630749,-
Y2-S2-092M28,68,CIRCLES,exp,45,17,True,5,-1,0,-,0.10078749991953373,-
Y2-S2-092M28,69,CIRCLES,exp,45,17,True,5,-1,0,-,0.05130770010873675,-
Y2-S2-092M28,70,CIRCLES,exp,45,17,True,5,1,1,14,0.9008642002008855,-
Y2-S2-092M28,71,CIRCLES,exp,45,17,False,4,-1,1,15,0.017094500362873077,-
Y2-S2-092M28,72,CIRCLES,exp,45,17,False,5,-1,0,-,0.16726080002263188,-
Y2-S2-092M28,73,CIRCLES,exp,45,17,True,6,-1,0,-,1.7170856003649533,-
Y2-S2-092M28,74,CIRCLES,exp,45,17,True,6,-1,0,-,0.15064929984509945,-
Y2-S2-092M28,75,CIRCLES,exp,45,17,True,6,1,1,16,0.18381760036572814,-
