PART_ID,Trial,Stimuli,Training,FIXTIME,MTIME,Correct,SOA,Level,Reversal,Reversal_count,Latency,Rating
Y2-S2-006K27,1,SQUARES,training,45,17,False,12,-,-,-,1.9348174000624567,-
Y2-S2-006K27,2,SQUARES,training,45,17,True,12,-,-,-,0.20121810003183782,-
Y2-S2-006K27,3,SQUARES,training,45,17,True,12,-,-,-,1.0847353998105973,-
Y2-S2-006K27,4,SQUARES,training,45,17,True,12,-,-,-,0.05095509998500347,-
Y2-S2-006K27,5,SQUARES,training,45,17,True,12,-,-,-,0.7007486000657082,-
Y2-S2-006K27,6,SQUARES,training,45,17,True,12,-,-,-,0.6171756000258029,-
Y2-S2-006K27,7,SQUARES,training,45,17,True,12,-,-,-,0.5006979999598116,-
Y2-S2-006K27,8,SQUARES,training,45,17,True,12,-,-,-,0.4676059999037534,-
Y2-S2-006K27,9,SQUARES,training,45,17,True,12,-,-,-,0.41741190012544394,-
Y2-S2-006K27,10,SQUARES,training,45,17,True,12,-,-,-,0.10043049999512732,-
Y2-S2-006K27,11,SQUARES,training,45,17,True,6,-,-,-,0.11731799994595349,-
Y2-S2-006K27,12,SQUARES,training,45,17,False,6,-,-,-,0.1672207999508828,-
Y2-S2-006K27,13,SQUARES,training,45,17,True,6,-,-,-,0.15021119988523424,-
Y2-S2-006K27,14,SQUARES,training,45,17,True,6,-,-,-,0.26736490009352565,-
Y2-S2-006K27,15,SQUARES,training,45,17,True,6,-,-,-,0.0511608999222517,-
Y2-S2-006K27,16,SQUARES,training,45,17,False,6,-,-,-,0.0010999999940395355,-
Y2-S2-006K27,17,SQUARES,training,45,17,False,6,-,-,-,0.2008861000649631,-
Y2-S2-006K27,18,SQUARES,training,45,17,False,6,-,-,-,0.1506995998788625,-
Y2-S2-006K27,19,SQUARES,training,45,17,True,6,-,-,-,0.25023790006525815,-
Y2-S2-006K27,20,SQUARES,training,45,17,False,6,-,-,-,0.13447339995764196,-
Y2-S2-006K27,1,SQUARES,exp,45,17,True,6,0,0,0,0.33415180002339184,-
Y2-S2-006K27,2,SQUARES,exp,45,17,True,6,0,0,-,0.03441670001484454,-
Y2-S2-006K27,3,SQUARES,exp,45,17,True,6,1,0,-,0.6510243001393974,-
Y2-S2-006K27,4,SQUARES,exp,45,17,True,5,1,0,-,0.017366699874401093,-
Y2-S2-006K27,5,SQUARES,exp,45,17,True,5,1,0,-,0.4672339002136141,-
Y2-S2-006K27,6,SQUARES,exp,45,17,False,5,-1,1,1,0.11747289984486997,-
Y2-S2-006K27,7,SQUARES,exp,45,17,True,6,-1,0,-,0.5678477000910789,-
Y2-S2-006K27,8,SQUARES,exp,45,17,False,6,-1,0,-,0.08390580001287162,-
Y2-S2-006K27,9,SQUARES,exp,45,17,True,7,-1,0,-,0.500577799975872,-
Y2-S2-006K27,10,SQUARES,exp,45,17,True,7,-1,0,-,0.03446380002424121,-
Y2-S2-006K27,11,SQUARES,exp,45,17,True,7,1,1,2,0.1175952001940459,-
Y2-S2-006K27,12,SQUARES,exp,45,17,False,6,-1,1,3,0.08482279977761209,-
Y2-S2-006K27,13,SQUARES,exp,45,17,False,7,-1,0,-,0.08419690001755953,-
Y2-S2-006K27,14,SQUARES,exp,45,17,True,8,-1,0,-,0.06756790005601943,-
Y2-S2-006K27,15,SQUARES,exp,45,17,True,8,-1,0,-,0.2674534001853317,-
Y2-S2-006K27,16,SQUARES,exp,45,17,True,8,1,1,4,0.06760089984163642,-
Y2-S2-006K27,17,SQUARES,exp,45,17,True,7,1,0,-,0.3010657001286745,-
Y2-S2-006K27,18,SQUARES,exp,45,17,True,7,1,0,-,0.5341309001669288,-
Y2-S2-006K27,19,SQUARES,exp,45,17,True,7,1,0,-,0.4842046000994742,-
Y2-S2-006K27,20,SQUARES,exp,45,17,True,6,1,0,-,0.2181001000571996,-
Y2-S2-006K27,21,SQUARES,exp,45,17,True,6,1,0,-,0.4007929000072181,-
Y2-S2-006K27,22,SQUARES,exp,45,17,True,6,1,0,-,0.11748300003819168,-
Y2-S2-006K27,23,SQUARES,exp,45,17,True,5,1,0,-,0.03438930003903806,-
Y2-S2-006K27,24,SQUARES,exp,45,17,True,5,1,0,-,0.08426830009557307,-
Y2-S2-006K27,25,SQUARES,exp,45,17,True,5,1,0,-,0.06792850000783801,-
Y2-S2-006K27,26,SQUARES,exp,45,17,False,4,-1,1,5,0.08397909998893738,-
Y2-S2-006K27,27,SQUARES,exp,45,17,True,5,-1,0,-,0.08394480007700622,-
Y2-S2-006K27,28,SQUARES,exp,45,17,True,5,-1,0,-,0.10140349995344877,-
Y2-S2-006K27,29,SQUARES,exp,45,17,True,5,1,1,6,0.10090930014848709,-
Y2-S2-006K27,30,SQUARES,exp,45,17,False,4,-1,1,7,0.23408870003186166,-
Y2-S2-006K27,31,SQUARES,exp,45,17,True,5,-1,0,-,0.5503984000533819,-
Y2-S2-006K27,32,SQUARES,exp,45,17,False,5,-1,0,-,0.40121299983002245,-
Y2-S2-006K27,33,SQUARES,exp,45,17,True,6,-1,0,-,0.06764350016601384,-
Y2-S2-006K27,34,SQUARES,exp,45,17,True,6,-1,0,-,0.08425049996003509,-
Y2-S2-006K27,35,SQUARES,exp,45,17,True,6,1,1,8,0.0010206999722868204,-
Y2-S2-006K27,36,SQUARES,exp,45,17,False,5,-1,1,9,0.5013735999818891,-
Y2-S2-006K27,37,SQUARES,exp,45,17,False,6,-1,0,-,0.23414339986629784,-
Y2-S2-006K27,38,SQUARES,exp,45,17,True,7,-1,0,-,0.11764429998584092,-
Y2-S2-006K27,39,SQUARES,exp,45,17,False,7,-1,0,-,0.43387930002063513,-
Y2-S2-006K27,40,SQUARES,exp,45,17,False,8,-1,0,-,0.30048750014975667,-
Y2-S2-006K27,41,SQUARES,exp,45,17,True,9,-1,0,-,0.31765169999562204,-
Y2-S2-006K27,42,SQUARES,exp,45,17,False,9,-1,0,-,0.25094410008750856,-
Y2-S2-006K27,43,SQUARES,exp,45,17,True,10,-1,0,-,0.08434249996207654,-
Y2-S2-006K27,44,SQUARES,exp,45,17,True,10,-1,0,-,0.30125649995170534,-
Y2-S2-006K27,45,SQUARES,exp,45,17,True,10,1,1,10,0.11750920000486076,-
Y2-S2-006K27,46,SQUARES,exp,45,17,True,9,1,0,-,0.06767979986034334,-
Y2-S2-006K27,47,SQUARES,exp,45,17,True,9,1,0,-,0.08424870017915964,-
Y2-S2-006K27,48,SQUARES,exp,45,17,True,9,1,0,-,0.05115850013680756,-
Y2-S2-006K27,49,SQUARES,exp,45,17,True,8,1,0,-,0.2671046999748796,-
Y2-S2-006K27,50,SQUARES,exp,45,17,True,8,1,0,-,0.33227230003103614,-
Y2-S2-006K27,51,SQUARES,exp,45,17,True,8,1,0,-,0.40119870007038116,-
Y2-S2-006K27,52,SQUARES,exp,45,17,True,7,1,0,-,0.3343527000397444,-
Y2-S2-006K27,53,SQUARES,exp,45,17,True,7,1,0,-,0.18297179997898638,-
Y2-S2-006K27,54,SQUARES,exp,45,17,True,7,1,0,-,0.18419690011069179,-
Y2-S2-006K27,55,SQUARES,exp,45,17,False,6,-1,1,11,0.3672935999929905,-
Y2-S2-006K27,56,SQUARES,exp,45,17,True,7,-1,0,-,0.217602499993518,-
Y2-S2-006K27,57,SQUARES,exp,45,17,True,7,-1,0,-,0.3845838999841362,-
Y2-S2-006K27,58,SQUARES,exp,45,17,False,7,-1,0,-,0.3674631000030786,-
Y2-S2-006K27,59,SQUARES,exp,45,17,True,8,-1,0,-,0.1345426000189036,-
Y2-S2-006K27,60,SQUARES,exp,45,17,True,8,-1,0,-,0.3345122002065182,-
Y2-S2-006K27,61,SQUARES,exp,45,17,True,8,1,1,12,0.2842160000000149,-
Y2-S2-006K27,62,SQUARES,exp,45,17,True,7,1,0,-,0.3673779999371618,-
Y2-S2-006K27,63,SQUARES,exp,45,17,False,7,-1,1,13,0.0008801000658422709,-
Y2-S2-006K27,64,SQUARES,exp,45,17,True,8,-1,0,-,0.284256299957633,-
Y2-S2-006K27,65,SQUARES,exp,45,17,False,8,-1,0,-,0.18382570007815957,-
Y2-S2-006K27,66,SQUARES,exp,45,17,True,9,-1,0,-,0.3508622001390904,-
Y2-S2-006K27,67,SQUARES,exp,45,17,True,9,-1,0,-,0.2845455000642687,-
Y2-S2-006K27,68,SQUARES,exp,45,17,True,9,1,1,14,0.30096039990894496,-
Y2-S2-006K27,69,SQUARES,exp,45,17,False,8,-1,1,15,0.367234299890697,-
Y2-S2-006K27,70,SQUARES,exp,45,17,True,9,-1,0,-,0.017863899935036898,-
Y2-S2-006K27,71,SQUARES,exp,45,17,True,9,-1,0,-,0.03402679995633662,-
Y2-S2-006K27,72,SQUARES,exp,45,17,True,9,1,1,16,0.08441439992748201,-
Y2-S2-006K27,1,CIRCLES,training,45,17,True,20,-,-,-,0.18417649995535612,-
Y2-S2-006K27,2,CIRCLES,training,45,17,True,20,-,-,-,0.4997737999074161,-
Y2-S2-006K27,3,CIRCLES,training,45,17,True,20,-,-,-,0.15077010006643832,-
Y2-S2-006K27,4,CIRCLES,training,45,17,True,20,-,-,-,0.21776169980876148,-
Y2-S2-006K27,5,CIRCLES,training,45,17,True,20,-,-,-,0.5338317998684943,-
Y2-S2-006K27,6,CIRCLES,training,45,17,True,20,-,-,-,0.3510339998174459,-
Y2-S2-006K27,7,CIRCLES,training,45,17,True,20,-,-,-,0.15107450005598366,-
Y2-S2-006K27,8,CIRCLES,training,45,17,True,20,-,-,-,0.317610900150612,-
Y2-S2-006K27,9,CIRCLES,training,45,17,True,20,-,-,-,0.15018550003878772,-
Y2-S2-006K27,10,CIRCLES,training,45,17,True,20,-,-,-,0.1843278999440372,-
Y2-S2-006K27,11,CIRCLES,training,45,17,True,10,-,-,-,0.30075159994885325,-
Y2-S2-006K27,12,CIRCLES,training,45,17,True,10,-,-,-,0.13450980000197887,-
Y2-S2-006K27,13,CIRCLES,training,45,17,True,10,-,-,-,0.10060370014980435,-
Y2-S2-006K27,14,CIRCLES,training,45,17,True,10,-,-,-,0.06792639987543225,-
Y2-S2-006K27,15,CIRCLES,training,45,17,True,10,-,-,-,0.30116240005008876,-
Y2-S2-006K27,16,CIRCLES,training,45,17,True,10,-,-,-,0.0009460998699069023,-
Y2-S2-006K27,17,CIRCLES,training,45,17,True,10,-,-,-,0.033858299953863025,-
Y2-S2-006K27,18,CIRCLES,training,45,17,True,10,-,-,-,0.1674250999931246,-
Y2-S2-006K27,19,CIRCLES,training,45,17,True,10,-,-,-,0.2510125001426786,-
Y2-S2-006K27,20,CIRCLES,training,45,17,True,10,-,-,-,0.034188699908554554,-
Y2-S2-006K27,1,CIRCLES,exp,45,17,True,10,0,0,0,0.10098740016110241,-
Y2-S2-006K27,2,CIRCLES,exp,45,17,True,10,0,0,-,0.3011201999615878,-
Y2-S2-006K27,3,CIRCLES,exp,45,17,True,10,1,0,-,0.5349661000072956,-
Y2-S2-006K27,4,CIRCLES,exp,45,17,True,9,1,0,-,0.5342192000243813,-
Y2-S2-006K27,5,CIRCLES,exp,45,17,True,9,1,0,-,0.4843923000153154,-
Y2-S2-006K27,6,CIRCLES,exp,45,17,True,9,1,0,-,0.31758060003630817,-
Y2-S2-006K27,7,CIRCLES,exp,45,17,True,8,1,0,-,0.03445210005156696,-
Y2-S2-006K27,8,CIRCLES,exp,45,17,True,8,1,0,-,0.30051860003732145,-
Y2-S2-006K27,9,CIRCLES,exp,45,17,True,8,1,0,-,0.05135209998115897,-
Y2-S2-006K27,10,CIRCLES,exp,45,17,True,7,1,0,-,0.3011107000056654,-
Y2-S2-006K27,11,CIRCLES,exp,45,17,True,7,1,0,-,0.11762560019269586,-
Y2-S2-006K27,12,CIRCLES,exp,45,17,True,7,1,0,-,0.3340751000214368,-
Y2-S2-006K27,13,CIRCLES,exp,45,17,True,6,1,0,-,0.31751940003596246,-
Y2-S2-006K27,14,CIRCLES,exp,45,17,True,6,1,0,-,0.08420819998718798,-
Y2-S2-006K27,15,CIRCLES,exp,45,17,True,6,1,0,-,0.050895499996840954,-
Y2-S2-006K27,16,CIRCLES,exp,45,17,True,5,1,0,-,0.08394539984874427,-
Y2-S2-006K27,17,CIRCLES,exp,45,17,True,5,1,0,-,0.3507459999527782,-
Y2-S2-006K27,18,CIRCLES,exp,45,17,True,5,1,0,-,0.20112780015915632,-
Y2-S2-006K27,19,CIRCLES,exp,45,17,True,4,1,0,-,0.06749399984255433,-
Y2-S2-006K27,20,CIRCLES,exp,45,17,True,4,1,0,-,0.1177046000957489,-
Y2-S2-006K27,21,CIRCLES,exp,45,17,True,4,1,0,-,0.2841928000561893,-
Y2-S2-006K27,22,CIRCLES,exp,45,17,False,3,-1,1,1,0.05084990011528134,-
Y2-S2-006K27,23,CIRCLES,exp,45,17,False,4,-1,0,-,0.10074770008213818,-
Y2-S2-006K27,24,CIRCLES,exp,45,17,False,5,-1,0,-,0.6175085001159459,-
Y2-S2-006K27,25,CIRCLES,exp,45,17,True,6,-1,0,-,0.31762790004722774,-
Y2-S2-006K27,26,CIRCLES,exp,45,17,True,6,-1,0,-,0.13460280001163483,-
Y2-S2-006K27,27,CIRCLES,exp,45,17,True,6,1,1,2,0.11763580003753304,-
Y2-S2-006K27,28,CIRCLES,exp,45,17,True,5,1,0,-,0.15136680006980896,-
Y2-S2-006K27,29,CIRCLES,exp,45,17,True,5,1,0,-,0.10094989999197423,-
Y2-S2-006K27,30,CIRCLES,exp,45,17,True,5,1,0,-,0.0009715999476611614,-
Y2-S2-006K27,31,CIRCLES,exp,45,17,False,4,-1,1,3,0.16772330016829073,-
Y2-S2-006K27,32,CIRCLES,exp,45,17,True,5,-1,0,-,0.4340207001660019,-
Y2-S2-006K27,33,CIRCLES,exp,45,17,True,5,-1,0,-,0.450964700197801,-
Y2-S2-006K27,34,CIRCLES,exp,45,17,False,5,-1,0,-,0.11707649985328317,-
Y2-S2-006K27,35,CIRCLES,exp,45,17,True,6,-1,0,-,0.3176890001632273,-
Y2-S2-006K27,36,CIRCLES,exp,45,17,True,6,-1,0,-,0.3343539999332279,-
Y2-S2-006K27,37,CIRCLES,exp,45,17,True,6,1,1,4,0.05079420004040003,-
Y2-S2-006K27,38,CIRCLES,exp,45,17,True,5,1,0,-,0.3840006000827998,-
Y2-S2-006K27,39,CIRCLES,exp,45,17,False,5,-1,1,5,0.06747670006006956,-
Y2-S2-006K27,40,CIRCLES,exp,45,17,True,6,-1,0,-,0.6173254998866469,-
Y2-S2-006K27,41,CIRCLES,exp,45,17,True,6,-1,0,-,0.06754399999044836,-
Y2-S2-006K27,42,CIRCLES,exp,45,17,True,6,1,1,6,0.01738919992931187,-
Y2-S2-006K27,43,CIRCLES,exp,45,17,True,5,1,0,-,0.384101300034672,-
Y2-S2-006K27,44,CIRCLES,exp,45,17,True,5,1,0,-,0.03453910001553595,-
Y2-S2-006K27,45,CIRCLES,exp,45,17,True,5,1,0,-,0.0342503001447767,-
Y2-S2-006K27,46,CIRCLES,exp,45,17,True,4,1,0,-,0.40126989991404116,-
Y2-S2-006K27,47,CIRCLES,exp,45,17,True,4,1,0,-,0.36761750001460314,-
Y2-S2-006K27,48,CIRCLES,exp,45,17,True,4,1,0,-,0.050996100064367056,-
Y2-S2-006K27,49,CIRCLES,exp,45,17,True,3,1,0,-,0.017843900015577674,-
Y2-S2-006K27,50,CIRCLES,exp,45,17,False,3,-1,1,7,0.06717639998532832,-
Y2-S2-006K27,51,CIRCLES,exp,45,17,False,4,-1,0,-,0.08416860015131533,-
Y2-S2-006K27,52,CIRCLES,exp,45,17,True,5,-1,0,-,0.43404259998351336,-
Y2-S2-006K27,53,CIRCLES,exp,45,17,True,5,-1,0,-,0.4344029000494629,-
Y2-S2-006K27,54,CIRCLES,exp,45,17,True,5,1,1,8,0.38465089979581535,-
Y2-S2-006K27,55,CIRCLES,exp,45,17,True,4,1,0,-,0.11762730008922517,-
Y2-S2-006K27,56,CIRCLES,exp,45,17,False,4,-1,1,9,0.15103460010141134,-
Y2-S2-006K27,57,CIRCLES,exp,45,17,False,5,-1,0,-,0.31769179995171726,-
Y2-S2-006K27,58,CIRCLES,exp,45,17,True,6,-1,0,-,0.10083799995481968,-
Y2-S2-006K27,59,CIRCLES,exp,45,17,True,6,-1,0,-,0.3008835001382977,-
Y2-S2-006K27,60,CIRCLES,exp,45,17,False,6,-1,0,-,0.2175687998533249,-
Y2-S2-006K27,61,CIRCLES,exp,45,17,False,7,-1,0,-,0.1508026998490095,-
Y2-S2-006K27,62,CIRCLES,exp,45,17,True,8,-1,0,-,0.35088639985769987,-
Y2-S2-006K27,63,CIRCLES,exp,45,17,True,8,-1,0,-,0.2340961000882089,-
Y2-S2-006K27,64,CIRCLES,exp,45,17,True,8,1,1,10,0.05082729994319379,-
Y2-S2-006K27,65,CIRCLES,exp,45,17,False,7,-1,1,11,0.31693800003267825,-
Y2-S2-006K27,66,CIRCLES,exp,45,17,False,8,-1,0,-,0.38459659996442497,-
Y2-S2-006K27,67,CIRCLES,exp,45,17,False,9,-1,0,-,0.2007759001571685,-
Y2-S2-006K27,68,CIRCLES,exp,45,17,True,10,-1,0,-,0.3011368999723345,-
Y2-S2-006K27,69,CIRCLES,exp,45,17,True,10,-1,0,-,0.28424270008690655,-
Y2-S2-006K27,70,CIRCLES,exp,45,17,True,10,1,1,12,0.0010176000650972128,-
Y2-S2-006K27,71,CIRCLES,exp,45,17,True,9,1,0,-,0.30078470008447766,-
Y2-S2-006K27,72,CIRCLES,exp,45,17,True,9,1,0,-,0.3344656000845134,-
Y2-S2-006K27,73,CIRCLES,exp,45,17,True,9,1,0,-,0.30069449986331165,-
Y2-S2-006K27,74,CIRCLES,exp,45,17,True,8,1,0,-,0.28425469994544983,-
Y2-S2-006K27,75,CIRCLES,exp,45,17,True,8,1,0,-,0.0511606999207288,-
Y2-S2-006K27,76,CIRCLES,exp,45,17,True,8,1,0,-,0.05151590006425977,-
Y2-S2-006K27,77,CIRCLES,exp,45,17,True,7,1,0,-,0.3007715998683125,-
Y2-S2-006K27,78,CIRCLES,exp,45,17,True,7,1,0,-,0.3329551999922842,-
Y2-S2-006K27,79,CIRCLES,exp,45,17,True,7,1,0,-,0.23397889989428222,-
Y2-S2-006K27,80,CIRCLES,exp,45,17,False,6,-1,1,13,0.31772950012236834,-
Y2-S2-006K27,81,CIRCLES,exp,45,17,True,7,-1,0,-,0.33425280009396374,-
Y2-S2-006K27,82,CIRCLES,exp,45,17,True,7,-1,0,-,0.10089909983798862,-
Y2-S2-006K27,83,CIRCLES,exp,45,17,True,7,1,1,14,0.6676828998606652,-
Y2-S2-006K27,84,CIRCLES,exp,45,17,False,6,-1,1,15,0.4008613000623882,-
Y2-S2-006K27,85,CIRCLES,exp,45,17,True,7,-1,0,-,0.3011789999436587,-
Y2-S2-006K27,86,CIRCLES,exp,45,17,False,7,-1,0,-,0.26792089990340173,-
Y2-S2-006K27,87,CIRCLES,exp,45,17,True,8,-1,0,-,0.3177760001271963,-
Y2-S2-006K27,88,CIRCLES,exp,45,17,False,8,-1,0,-,0.3844011998735368,-
Y2-S2-006K27,89,CIRCLES,exp,45,17,True,9,-1,0,-,0.15092700021341443,-
Y2-S2-006K27,90,CIRCLES,exp,45,17,True,9,-1,0,-,0.21743660001084208,-
Y2-S2-006K27,91,CIRCLES,exp,45,17,True,9,1,1,16,0.4012045001145452,-
