PART_ID,Trial,Stimuli,Training,FIXTIME,MTIME,Correct,SOA,Level,Reversal,Reversal_count,Latency,Rating
Y2-S2-053K19,1,SQUARES,training,45,17,True,12,-,-,-,0.10075929993763566,-
Y2-S2-053K19,2,SQUARES,training,45,17,True,12,-,-,-,1.6344015998765826,-
Y2-S2-053K19,3,SQUARES,training,45,17,True,12,-,-,-,0.6841800999827683,-
Y2-S2-053K19,4,SQUARES,training,45,17,True,12,-,-,-,0.35176729992963374,-
Y2-S2-053K19,5,SQUARES,training,45,17,True,12,-,-,-,0.6678579999133945,-
Y2-S2-053K19,6,SQUARES,training,45,17,True,12,-,-,-,0.7508212998509407,-
Y2-S2-053K19,7,SQUARES,training,45,17,True,12,-,-,-,0.31735510006546974,-
Y2-S2-053K19,8,SQUARES,training,45,17,True,12,-,-,-,0.5676086000166833,-
Y2-S2-053K19,9,SQUARES,training,45,17,True,12,-,-,-,0.3342468000482768,-
Y2-S2-053K19,10,SQUARES,training,45,17,True,12,-,-,-,0.23428540001623333,-
Y2-S2-053K19,11,SQUARES,training,45,17,True,6,-,-,-,0.5674401000142097,-
Y2-S2-053K19,12,SQUARES,training,45,17,True,6,-,-,-,1.4677563000004739,-
Y2-S2-053K19,13,SQUARES,training,45,17,True,6,-,-,-,0.36773870000615716,-
Y2-S2-053K19,14,SQUARES,training,45,17,True,6,-,-,-,0.26771339983679354,-
Y2-S2-053K19,15,SQUARES,training,45,17,True,6,-,-,-,0.300541500095278,-
Y2-S2-053K19,16,SQUARES,training,45,17,True,6,-,-,-,0.3011404999997467,-
Y2-S2-053K19,17,SQUARES,training,45,17,True,6,-,-,-,0.31613009981811047,-
Y2-S2-053K19,18,SQUARES,training,45,17,True,6,-,-,-,0.28385260002687573,-
Y2-S2-053K19,19,SQUARES,training,45,17,True,6,-,-,-,0.3680612000171095,-
Y2-S2-053K19,20,SQUARES,training,45,17,True,6,-,-,-,0.3845933999400586,-
Y2-S2-053K19,1,SQUARES,exp,45,17,True,6,0,0,0,0.300840400159359,-
Y2-S2-053K19,2,SQUARES,exp,45,17,True,6,0,0,-,0.3177129998803139,-
Y2-S2-053K19,3,SQUARES,exp,45,17,True,6,1,0,-,0.30070420005358756,-
Y2-S2-053K19,4,SQUARES,exp,45,17,True,5,1,0,-,0.20081569999456406,-
Y2-S2-053K19,5,SQUARES,exp,45,17,True,5,1,0,-,0.3507764998357743,-
Y2-S2-053K19,6,SQUARES,exp,45,17,True,5,1,0,-,0.7676723999902606,-
Y2-S2-053K19,7,SQUARES,exp,45,17,True,4,1,0,-,0.3178201001137495,-
Y2-S2-053K19,8,SQUARES,exp,45,17,True,4,1,0,-,0.834529000101611,-
Y2-S2-053K19,9,SQUARES,exp,45,17,False,4,-1,1,1,0.4507861000020057,-
Y2-S2-053K19,10,SQUARES,exp,45,17,True,5,-1,0,-,0.36756149982102215,-
Y2-S2-053K19,11,SQUARES,exp,45,17,True,5,-1,0,-,0.3009854999836534,-
Y2-S2-053K19,12,SQUARES,exp,45,17,True,5,1,1,2,0.26849659997969866,-
Y2-S2-053K19,13,SQUARES,exp,45,17,True,4,1,0,-,0.20095600001513958,-
Y2-S2-053K19,14,SQUARES,exp,45,17,True,4,1,0,-,0.36738030007109046,-
Y2-S2-053K19,15,SQUARES,exp,45,17,True,4,1,0,-,0.4007975999265909,-
Y2-S2-053K19,16,SQUARES,exp,45,17,True,3,1,0,-,0.8675516999792308,-
Y2-S2-053K19,17,SQUARES,exp,45,17,True,3,1,0,-,0.33404250000603497,-
Y2-S2-053K19,18,SQUARES,exp,45,17,True,3,1,0,-,0.21774220000952482,-
Y2-S2-053K19,19,SQUARES,exp,45,17,True,2,1,0,-,0.4509379998780787,-
Y2-S2-053K19,20,SQUARES,exp,45,17,True,2,1,0,-,0.7844689998310059,-
Y2-S2-053K19,21,SQUARES,exp,45,17,True,2,1,0,-,0.2174164999742061,-
Y2-S2-053K19,22,SQUARES,exp,45,17,False,1,-1,1,3,0.48439299990423024,-
Y2-S2-053K19,23,SQUARES,exp,45,17,True,2,-1,0,-,0.3509014002047479,-
Y2-S2-053K19,24,SQUARES,exp,45,17,True,2,-1,0,-,0.30093250004574656,-
Y2-S2-053K19,25,SQUARES,exp,45,17,False,2,-1,0,-,0.31755310017615557,-
Y2-S2-053K19,26,SQUARES,exp,45,17,True,3,-1,0,-,0.4177645999006927,-
Y2-S2-053K19,27,SQUARES,exp,45,17,True,3,-1,0,-,0.4005458999890834,-
Y2-S2-053K19,28,SQUARES,exp,45,17,True,3,1,1,4,0.28454559994861484,-
Y2-S2-053K19,29,SQUARES,exp,45,17,True,2,1,0,-,0.5675724998582155,-
Y2-S2-053K19,30,SQUARES,exp,45,17,False,2,-1,1,5,0.3005794999189675,-
Y2-S2-053K19,31,SQUARES,exp,45,17,True,3,-1,0,-,0.3172955000773072,-
Y2-S2-053K19,32,SQUARES,exp,45,17,True,3,-1,0,-,0.5010922001674771,-
Y2-S2-053K19,33,SQUARES,exp,45,17,True,3,1,1,6,0.5011528001632541,-
Y2-S2-053K19,34,SQUARES,exp,45,17,False,2,-1,1,7,0.7678429998923093,-
Y2-S2-053K19,35,SQUARES,exp,45,17,True,3,-1,0,-,0.3008826000150293,-
Y2-S2-053K19,36,SQUARES,exp,45,17,True,3,-1,0,-,0.4675051998347044,-
Y2-S2-053K19,37,SQUARES,exp,45,17,False,3,-1,0,-,0.667935400037095,-
Y2-S2-053K19,38,SQUARES,exp,45,17,True,4,-1,0,-,0.3176975001115352,-
Y2-S2-053K19,39,SQUARES,exp,45,17,True,4,-1,0,-,1.85068599996157,-
Y2-S2-053K19,40,SQUARES,exp,45,17,True,4,1,1,8,0.18431869987398386,-
Y2-S2-053K19,41,SQUARES,exp,45,17,False,3,-1,1,9,0.3510143000166863,-
Y2-S2-053K19,42,SQUARES,exp,45,17,True,4,-1,0,-,0.2841221000999212,-
Y2-S2-053K19,43,SQUARES,exp,45,17,True,4,-1,0,-,0.31766510009765625,-
Y2-S2-053K19,44,SQUARES,exp,45,17,True,4,1,1,10,0.2342024000827223,-
Y2-S2-053K19,45,SQUARES,exp,45,17,True,3,1,0,-,0.2847422999329865,-
Y2-S2-053K19,46,SQUARES,exp,45,17,True,3,1,0,-,0.25078080012463033,-
Y2-S2-053K19,47,SQUARES,exp,45,17,False,3,-1,1,11,0.351238900097087,-
Y2-S2-053K19,48,SQUARES,exp,45,17,True,4,-1,0,-,0.21769830002449453,-
Y2-S2-053K19,49,SQUARES,exp,45,17,True,4,-1,0,-,0.4174254001118243,-
Y2-S2-053K19,50,SQUARES,exp,45,17,True,4,1,1,12,0.23409579996950924,-
Y2-S2-053K19,51,SQUARES,exp,45,17,True,3,1,0,-,0.26812559994868934,-
Y2-S2-053K19,52,SQUARES,exp,45,17,False,3,-1,1,13,0.2508429998997599,-
Y2-S2-053K19,53,SQUARES,exp,45,17,True,4,-1,0,-,0.1677448998671025,-
Y2-S2-053K19,54,SQUARES,exp,45,17,True,4,-1,0,-,0.18412639992311597,-
Y2-S2-053K19,55,SQUARES,exp,45,17,True,4,1,1,14,0.18433000007644296,-
Y2-S2-053K19,56,SQUARES,exp,45,17,True,3,1,0,-,0.2843476999551058,-
Y2-S2-053K19,57,SQUARES,exp,45,17,True,3,1,0,-,0.2344555000308901,-
Y2-S2-053K19,58,SQUARES,exp,45,17,True,3,1,0,-,0.13361490005627275,-
Y2-S2-053K19,59,SQUARES,exp,45,17,True,2,1,0,-,0.21689399983733892,-
Y2-S2-053K19,60,SQUARES,exp,45,17,True,2,1,0,-,0.5177229999098927,-
Y2-S2-053K19,61,SQUARES,exp,45,17,True,2,1,0,-,0.21777590014971793,-
Y2-S2-053K19,62,SQUARES,exp,45,17,True,1,1,0,-,0.26765239983797073,-
Y2-S2-053K19,63,SQUARES,exp,45,17,True,1,1,0,-,0.6007099999114871,-
Y2-S2-053K19,64,SQUARES,exp,45,17,True,1,1,0,-,0.5841791999991983,-
Y2-S2-053K19,65,SQUARES,exp,45,17,False,0,-1,1,15,2.0007959997747093,-
Y2-S2-053K19,66,SQUARES,exp,45,17,True,1,-1,0,-,0.48413969995453954,-
Y2-S2-053K19,67,SQUARES,exp,45,17,True,1,-1,0,-,0.6342679997906089,-
Y2-S2-053K19,68,SQUARES,exp,45,17,True,1,1,1,16,1.067815399961546,-
Y2-S2-053K19,1,CIRCLES,training,45,17,True,20,-,-,-,1.2013558999169618,-
Y2-S2-053K19,2,CIRCLES,training,45,17,False,20,-,-,-,-1.0,-
Y2-S2-053K19,3,CIRCLES,training,45,17,True,20,-,-,-,0.701296899933368,-
Y2-S2-053K19,4,CIRCLES,training,45,17,True,20,-,-,-,0.3173906998708844,-
Y2-S2-053K19,5,CIRCLES,training,45,17,True,20,-,-,-,0.4677446000277996,-
Y2-S2-053K19,6,CIRCLES,training,45,17,True,20,-,-,-,0.4165268000215292,-
Y2-S2-053K19,7,CIRCLES,training,45,17,True,20,-,-,-,0.35062930011190474,-
Y2-S2-053K19,8,CIRCLES,training,45,17,True,20,-,-,-,0.41749630006961524,-
Y2-S2-053K19,9,CIRCLES,training,45,17,True,20,-,-,-,0.38413440017029643,-
Y2-S2-053K19,10,CIRCLES,training,45,17,True,20,-,-,-,0.4172889001201838,-
Y2-S2-053K19,11,CIRCLES,training,45,17,True,10,-,-,-,0.4176198998466134,-
Y2-S2-053K19,12,CIRCLES,training,45,17,True,10,-,-,-,0.40088710002601147,-
Y2-S2-053K19,13,CIRCLES,training,45,17,True,10,-,-,-,0.3839573999866843,-
Y2-S2-053K19,14,CIRCLES,training,45,17,True,10,-,-,-,0.38443370000459254,-
Y2-S2-053K19,15,CIRCLES,training,45,17,True,10,-,-,-,0.26773830014280975,-
Y2-S2-053K19,16,CIRCLES,training,45,17,True,10,-,-,-,0.28394930018112063,-
Y2-S2-053K19,17,CIRCLES,training,45,17,True,10,-,-,-,0.2507468000985682,-
Y2-S2-053K19,18,CIRCLES,training,45,17,True,10,-,-,-,0.23379009985364974,-
Y2-S2-053K19,19,CIRCLES,training,45,17,True,10,-,-,-,0.23442390002310276,-
Y2-S2-053K19,20,CIRCLES,training,45,17,True,10,-,-,-,0.3342722998932004,-
Y2-S2-053K19,1,CIRCLES,exp,45,17,True,10,0,0,0,0.41729629994370043,-
Y2-S2-053K19,2,CIRCLES,exp,45,17,True,10,0,0,-,0.5342788000125438,-
Y2-S2-053K19,3,CIRCLES,exp,45,17,True,10,1,0,-,0.3668848001398146,-
Y2-S2-053K19,4,CIRCLES,exp,45,17,True,9,1,0,-,0.3341122998390347,-
Y2-S2-053K19,5,CIRCLES,exp,45,17,True,9,1,0,-,0.38372109993360937,-
Y2-S2-053K19,6,CIRCLES,exp,45,17,True,9,1,0,-,0.333801900036633,-
Y2-S2-053K19,7,CIRCLES,exp,45,17,True,8,1,0,-,0.5505217998288572,-
Y2-S2-053K19,8,CIRCLES,exp,45,17,True,8,1,0,-,0.6172695001587272,-
Y2-S2-053K19,9,CIRCLES,exp,45,17,True,8,1,0,-,0.2839748999103904,-
Y2-S2-053K19,10,CIRCLES,exp,45,17,True,7,1,0,-,0.3342321999371052,-
Y2-S2-053K19,11,CIRCLES,exp,45,17,True,7,1,0,-,0.21727320016361773,-
Y2-S2-053K19,12,CIRCLES,exp,45,17,True,7,1,0,-,0.3005550999660045,-
Y2-S2-053K19,13,CIRCLES,exp,45,17,True,6,1,0,-,0.2672949999105185,-
Y2-S2-053K19,14,CIRCLES,exp,45,17,True,6,1,0,-,0.1841327000875026,-
Y2-S2-053K19,15,CIRCLES,exp,45,17,True,6,1,0,-,0.21722079999744892,-
Y2-S2-053K19,16,CIRCLES,exp,45,17,True,5,1,0,-,0.683859899872914,-
Y2-S2-053K19,17,CIRCLES,exp,45,17,True,5,1,0,-,0.6172686000354588,-
Y2-S2-053K19,18,CIRCLES,exp,45,17,True,5,1,0,-,0.3339794999919832,-
Y2-S2-053K19,19,CIRCLES,exp,45,17,True,4,1,0,-,0.4509721000213176,-
Y2-S2-053K19,20,CIRCLES,exp,45,17,True,4,1,0,-,0.6504911999218166,-
Y2-S2-053K19,21,CIRCLES,exp,45,17,True,4,1,0,-,0.384168199962005,-
Y2-S2-053K19,22,CIRCLES,exp,45,17,True,3,1,0,-,0.5675166000146419,-
Y2-S2-053K19,23,CIRCLES,exp,45,17,True,3,1,0,-,0.5510742999613285,-
Y2-S2-053K19,24,CIRCLES,exp,45,17,False,3,-1,1,1,0.5508734001778066,-
Y2-S2-053K19,25,CIRCLES,exp,45,17,False,4,-1,0,-,0.6180145000107586,-
Y2-S2-053K19,26,CIRCLES,exp,45,17,True,5,-1,0,-,0.5340096999425441,-
Y2-S2-053K19,27,CIRCLES,exp,45,17,False,5,-1,0,-,1.4177387999370694,-
Y2-S2-053K19,28,CIRCLES,exp,45,17,True,6,-1,0,-,0.13436749996617436,-
Y2-S2-053K19,29,CIRCLES,exp,45,17,False,6,-1,0,-,0.7009326999541372,-
Y2-S2-053K19,30,CIRCLES,exp,45,17,True,7,-1,0,-,0.3508244000840932,-
Y2-S2-053K19,31,CIRCLES,exp,45,17,True,7,-1,0,-,0.1009591999463737,-
Y2-S2-053K19,32,CIRCLES,exp,45,17,True,7,1,1,2,0.40139669994823635,-
Y2-S2-053K19,33,CIRCLES,exp,45,17,True,6,1,0,-,0.7673822001088411,-
Y2-S2-053K19,34,CIRCLES,exp,45,17,True,6,1,0,-,0.4842345002107322,-
Y2-S2-053K19,35,CIRCLES,exp,45,17,True,6,1,0,-,0.28420130000449717,-
Y2-S2-053K19,36,CIRCLES,exp,45,17,True,5,1,0,-,0.3179492000490427,-
Y2-S2-053K19,37,CIRCLES,exp,45,17,True,5,1,0,-,0.4174917999189347,-
Y2-S2-053K19,38,CIRCLES,exp,45,17,True,5,1,0,-,0.46748390002176166,-
Y2-S2-053K19,39,CIRCLES,exp,45,17,True,4,1,0,-,0.3506892998702824,-
Y2-S2-053K19,40,CIRCLES,exp,45,17,True,4,1,0,-,0.305190599989146,-
Y2-S2-053K19,41,CIRCLES,exp,45,17,True,4,1,0,-,0.20112939993850887,-
Y2-S2-053K19,42,CIRCLES,exp,45,17,False,3,-1,1,3,0.3514197999611497,-
Y2-S2-053K19,43,CIRCLES,exp,45,17,False,4,-1,0,-,0.3673974999692291,-
Y2-S2-053K19,44,CIRCLES,exp,45,17,True,5,-1,0,-,0.7511388999409974,-
Y2-S2-053K19,45,CIRCLES,exp,45,17,True,5,-1,0,-,0.2684404000174254,-
Y2-S2-053K19,46,CIRCLES,exp,45,17,True,5,1,1,4,0.90129190008156,-
Y2-S2-053K19,47,CIRCLES,exp,45,17,False,4,-1,1,5,0.35069400002248585,-
Y2-S2-053K19,48,CIRCLES,exp,45,17,True,5,-1,0,-,0.251272700028494,-
Y2-S2-053K19,49,CIRCLES,exp,45,17,False,5,-1,0,-,0.35095700016245246,-
Y2-S2-053K19,50,CIRCLES,exp,45,17,True,6,-1,0,-,0.46729509998112917,-
Y2-S2-053K19,51,CIRCLES,exp,45,17,True,6,-1,0,-,0.651118400041014,-
Y2-S2-053K19,52,CIRCLES,exp,45,17,True,6,1,1,6,0.20083030010573566,-
Y2-S2-053K19,53,CIRCLES,exp,45,17,True,5,1,0,-,0.20082650007680058,-
Y2-S2-053K19,54,CIRCLES,exp,45,17,True,5,1,0,-,0.6839970001019537,-
Y2-S2-053K19,55,CIRCLES,exp,45,17,False,5,-1,1,7,0.6512207998894155,-
Y2-S2-053K19,56,CIRCLES,exp,45,17,False,6,-1,0,-,0.8843955998308957,-
Y2-S2-053K19,57,CIRCLES,exp,45,17,True,7,-1,0,-,0.2174807998817414,-
Y2-S2-053K19,58,CIRCLES,exp,45,17,False,7,-1,0,-,0.9344325999263674,-
Y2-S2-053K19,59,CIRCLES,exp,45,17,True,8,-1,0,-,0.2677725001703948,-
Y2-S2-053K19,60,CIRCLES,exp,45,17,False,8,-1,0,-,0.4009247999638319,-
Y2-S2-053K19,61,CIRCLES,exp,45,17,True,9,-1,0,-,0.3510165000334382,-
Y2-S2-053K19,62,CIRCLES,exp,45,17,True,9,-1,0,-,0.23436979996040463,-
Y2-S2-053K19,63,CIRCLES,exp,45,17,True,9,1,1,8,0.2008609001059085,-
Y2-S2-053K19,64,CIRCLES,exp,45,17,True,8,1,0,-,0.3004896000493318,-
Y2-S2-053K19,65,CIRCLES,exp,45,17,True,8,1,0,-,0.23416370013728738,-
Y2-S2-053K19,66,CIRCLES,exp,45,17,False,8,-1,1,9,-1.0,-
Y2-S2-053K19,67,CIRCLES,exp,45,17,True,9,-1,0,-,0.41813319991342723,-
Y2-S2-053K19,68,CIRCLES,exp,45,17,False,9,-1,0,-,0.8177462997846305,-
Y2-S2-053K19,69,CIRCLES,exp,45,17,True,10,-1,0,-,3.284171200124547,-
Y2-S2-053K19,70,CIRCLES,exp,45,17,True,10,-1,0,-,0.15075219981372356,-
Y2-S2-053K19,71,CIRCLES,exp,45,17,True,10,1,1,10,0.11758660012856126,-
Y2-S2-053K19,72,CIRCLES,exp,45,17,True,9,1,0,-,0.28409810015000403,-
Y2-S2-053K19,73,CIRCLES,exp,45,17,True,9,1,0,-,0.31738359993323684,-
Y2-S2-053K19,74,CIRCLES,exp,45,17,True,9,1,0,-,0.21741400007158518,-
Y2-S2-053K19,75,CIRCLES,exp,45,17,True,8,1,0,-,0.2843101997859776,-
Y2-S2-053K19,76,CIRCLES,exp,45,17,True,8,1,0,-,0.3173726999666542,-
Y2-S2-053K19,77,CIRCLES,exp,45,17,True,8,1,0,-,0.3012391000520438,-
Y2-S2-053K19,78,CIRCLES,exp,45,17,True,7,1,0,-,0.18413080018945038,-
Y2-S2-053K19,79,CIRCLES,exp,45,17,True,7,1,0,-,0.23432109993882477,-
Y2-S2-053K19,80,CIRCLES,exp,45,17,True,7,1,0,-,0.13368529989384115,-
Y2-S2-053K19,81,CIRCLES,exp,45,17,True,6,1,0,-,0.4672475999686867,-
Y2-S2-053K19,82,CIRCLES,exp,45,17,True,6,1,0,-,0.2341103998478502,-
Y2-S2-053K19,83,CIRCLES,exp,45,17,False,6,-1,1,11,0.6007942000869662,-
Y2-S2-053K19,84,CIRCLES,exp,45,17,True,7,-1,0,-,0.2339586999733001,-
Y2-S2-053K19,85,CIRCLES,exp,45,17,True,7,-1,0,-,0.6175955000799149,-
Y2-S2-053K19,86,CIRCLES,exp,45,17,True,7,1,1,12,0.21758260019123554,-
Y2-S2-053K19,87,CIRCLES,exp,45,17,True,6,1,0,-,0.550369500182569,-
Y2-S2-053K19,88,CIRCLES,exp,45,17,True,6,1,0,-,0.43448479985818267,-
Y2-S2-053K19,89,CIRCLES,exp,45,17,True,6,1,0,-,0.26733870012685657,-
Y2-S2-053K19,90,CIRCLES,exp,45,17,True,5,1,0,-,0.40055510005913675,-
Y2-S2-053K19,91,CIRCLES,exp,45,17,True,5,1,0,-,0.3842778999824077,-
Y2-S2-053K19,92,CIRCLES,exp,45,17,True,5,1,0,-,0.21774450014345348,-
Y2-S2-053K19,93,CIRCLES,exp,45,17,True,4,1,0,-,0.3011759000364691,-
Y2-S2-053K19,94,CIRCLES,exp,45,17,True,4,1,0,-,0.266929600154981,-
Y2-S2-053K19,95,CIRCLES,exp,45,17,False,4,-1,1,13,0.43437100015580654,-
Y2-S2-053K19,96,CIRCLES,exp,45,17,True,5,-1,0,-,0.13413999998010695,-
Y2-S2-053K19,97,CIRCLES,exp,45,17,False,5,-1,0,-,0.317261700052768,-
Y2-S2-053K19,98,CIRCLES,exp,45,17,True,6,-1,0,-,0.16620109998621047,-
Y2-S2-053K19,99,CIRCLES,exp,45,17,True,6,-1,0,-,0.3182908999733627,-
Y2-S2-053K19,100,CIRCLES,exp,45,17,True,6,1,1,14,0.6174525001551956,-
Y2-S2-053K19,101,CIRCLES,exp,45,17,True,5,1,0,-,0.2677824997808784,-
Y2-S2-053K19,102,CIRCLES,exp,45,17,True,5,1,0,-,0.26781680015847087,-
Y2-S2-053K19,103,CIRCLES,exp,45,17,True,5,1,0,-,0.30106629990041256,-
Y2-S2-053K19,104,CIRCLES,exp,45,17,False,4,-1,1,15,0.2679181999992579,-
Y2-S2-053K19,105,CIRCLES,exp,45,17,False,5,-1,0,-,0.2675063998904079,-
Y2-S2-053K19,106,CIRCLES,exp,45,17,True,6,-1,0,-,0.2677915000822395,-
Y2-S2-053K19,107,CIRCLES,exp,45,17,False,6,-1,0,-,0.3676305999979377,-
Y2-S2-053K19,108,CIRCLES,exp,45,17,False,7,-1,0,-,0.33433720003813505,-
Y2-S2-053K19,109,CIRCLES,exp,45,17,True,8,-1,0,-,0.2844273999799043,-
Y2-S2-053K19,110,CIRCLES,exp,45,17,True,8,-1,0,-,0.834145599976182,-
Y2-S2-053K19,111,CIRCLES,exp,45,17,True,8,1,1,16,0.26785010006278753,-
