PART_ID,Trial,Stimuli,Training,FIXTIME,MTIME,Correct,SOA,Level,Reversal,Reversal_count,Latency,Rating
Y2-S2-193K20,1,SQUARES,training,45,17,True,12,-,-,-,1.2341816000116523,-
Y2-S2-193K20,2,SQUARES,training,45,17,True,12,-,-,-,0.1841324999986682,-
Y2-S2-193K20,3,SQUARES,training,45,17,True,12,-,-,-,0.3336776999931317,-
Y2-S2-193K20,4,SQUARES,training,45,17,True,12,-,-,-,0.06741000001784414,-
Y2-S2-193K20,5,SQUARES,training,45,17,True,12,-,-,-,0.08425799998803996,-
Y2-S2-193K20,6,SQUARES,training,45,17,True,12,-,-,-,0.08397419998073019,-
Y2-S2-193K20,7,SQUARES,training,45,17,True,12,-,-,-,0.0009922999888658524,-
Y2-S2-193K20,8,SQUARES,training,45,17,True,12,-,-,-,0.1673282000119798,-
Y2-S2-193K20,9,SQUARES,training,45,17,True,12,-,-,-,0.1341011000040453,-
Y2-S2-193K20,10,SQUARES,training,45,17,True,12,-,-,-,0.03416850001667626,-
Y2-S2-193K20,11,SQUARES,training,45,17,True,6,-,-,-,0.06764200000907294,-
Y2-S2-193K20,12,SQUARES,training,45,17,True,6,-,-,-,0.16743780000251718,-
Y2-S2-193K20,13,SQUARES,training,45,17,True,6,-,-,-,0.10082280001370236,-
Y2-S2-193K20,14,SQUARES,training,45,17,True,6,-,-,-,0.4009107000019867,-
Y2-S2-193K20,15,SQUARES,training,45,17,True,6,-,-,-,0.18462119999458082,-
Y2-S2-193K20,16,SQUARES,training,45,17,True,6,-,-,-,0.08406210000975989,-
Y2-S2-193K20,17,SQUARES,training,45,17,True,6,-,-,-,0.1840980999986641,-
Y2-S2-193K20,18,SQUARES,training,45,17,True,6,-,-,-,0.0009142999770119786,-
Y2-S2-193K20,19,SQUARES,training,45,17,True,6,-,-,-,0.06764079999993555,-
Y2-S2-193K20,20,SQUARES,training,45,17,True,6,-,-,-,0.10084880000795238,-
Y2-S2-193K20,1,SQUARES,exp,45,17,True,6,0,0,0,0.08377200001268648,-
Y2-S2-193K20,2,SQUARES,exp,45,17,True,6,0,0,-,0.10092530000838451,-
Y2-S2-193K20,3,SQUARES,exp,45,17,True,6,1,0,-,0.11715109998476692,-
Y2-S2-193K20,4,SQUARES,exp,45,17,True,5,1,0,-,0.11730780001380481,-
Y2-S2-193K20,5,SQUARES,exp,45,17,True,5,1,0,-,0.034110300010070205,-
Y2-S2-193K20,6,SQUARES,exp,45,17,True,5,1,0,-,0.11755120000452735,-
Y2-S2-193K20,7,SQUARES,exp,45,17,True,4,1,0,-,0.017209500016178936,-
Y2-S2-193K20,8,SQUARES,exp,45,17,True,4,1,0,-,0.16723000002093613,-
Y2-S2-193K20,9,SQUARES,exp,45,17,True,4,1,0,-,0.11751119999098592,-
Y2-S2-193K20,10,SQUARES,exp,45,17,True,3,1,0,-,0.10062710000784136,-
Y2-S2-193K20,11,SQUARES,exp,45,17,True,3,1,0,-,0.3177719000086654,-
Y2-S2-193K20,12,SQUARES,exp,45,17,True,3,1,0,-,0.20062950000283308,-
Y2-S2-193K20,13,SQUARES,exp,45,17,True,2,1,0,-,0.08390150000923313,-
Y2-S2-193K20,14,SQUARES,exp,45,17,True,2,1,0,-,0.3675144000153523,-
Y2-S2-193K20,15,SQUARES,exp,45,17,False,2,-1,1,1,0.8007010000001173,-
Y2-S2-193K20,16,SQUARES,exp,45,17,True,3,-1,0,-,0.2676696999988053,-
Y2-S2-193K20,17,SQUARES,exp,45,17,True,3,-1,0,-,0.3176814999897033,-
Y2-S2-193K20,18,SQUARES,exp,45,17,True,3,1,1,2,0.1340630000049714,-
Y2-S2-193K20,19,SQUARES,exp,45,17,True,2,1,0,-,0.4008513000153471,-
Y2-S2-193K20,20,SQUARES,exp,45,17,True,2,1,0,-,0.3174455999978818,-
Y2-S2-193K20,21,SQUARES,exp,45,17,True,2,1,0,-,1.9009398999914993,-
Y2-S2-193K20,22,SQUARES,exp,45,17,True,1,1,0,-,1.8671802000026219,-
Y2-S2-193K20,23,SQUARES,exp,45,17,True,1,1,0,-,0.7344199999934062,-
Y2-S2-193K20,24,SQUARES,exp,45,17,False,1,-1,1,3,1.6343052000156604,-
Y2-S2-193K20,25,SQUARES,exp,45,17,True,2,-1,0,-,0.8507601000019349,-
Y2-S2-193K20,26,SQUARES,exp,45,17,True,2,-1,0,-,0.6175859000068158,-
Y2-S2-193K20,27,SQUARES,exp,45,17,True,2,1,1,4,0.8005753000034019,-
Y2-S2-193K20,28,SQUARES,exp,45,17,True,1,1,0,-,0.6673042000038549,-
Y2-S2-193K20,29,SQUARES,exp,45,17,False,1,-1,1,5,0.5338050999853294,-
Y2-S2-193K20,30,SQUARES,exp,45,17,True,2,-1,0,-,0.6343457000039052,-
Y2-S2-193K20,31,SQUARES,exp,45,17,True,2,-1,0,-,1.4007462000008672,-
Y2-S2-193K20,32,SQUARES,exp,45,17,False,2,-1,0,-,0.9674753999861423,-
Y2-S2-193K20,33,SQUARES,exp,45,17,True,3,-1,0,-,0.28408449998823926,-
Y2-S2-193K20,34,SQUARES,exp,45,17,True,3,-1,0,-,0.8337395999988075,-
Y2-S2-193K20,35,SQUARES,exp,45,17,True,3,1,1,6,0.6673131000134163,-
Y2-S2-193K20,36,SQUARES,exp,45,17,True,2,1,0,-,0.9171415999880992,-
Y2-S2-193K20,37,SQUARES,exp,45,17,False,2,-1,1,7,1.1341913999931421,-
Y2-S2-193K20,38,SQUARES,exp,45,17,True,3,-1,0,-,0.5840405000199098,-
Y2-S2-193K20,39,SQUARES,exp,45,17,True,3,-1,0,-,0.40063620000728406,-
Y2-S2-193K20,40,SQUARES,exp,45,17,True,3,1,1,8,0.3842208000132814,-
Y2-S2-193K20,41,SQUARES,exp,45,17,False,2,-1,1,9,1.2175825999875087,-
Y2-S2-193K20,42,SQUARES,exp,45,17,True,3,-1,0,-,0.3674722000141628,-
Y2-S2-193K20,43,SQUARES,exp,45,17,True,3,-1,0,-,0.5337322999839671,-
Y2-S2-193K20,44,SQUARES,exp,45,17,True,3,1,1,10,0.35103849999723025,-
Y2-S2-193K20,45,SQUARES,exp,45,17,True,2,1,0,-,0.5676103000005241,-
Y2-S2-193K20,46,SQUARES,exp,45,17,True,2,1,0,-,0.6168371999810915,-
Y2-S2-193K20,47,SQUARES,exp,45,17,True,2,1,0,-,0.26753859999007545,-
Y2-S2-193K20,48,SQUARES,exp,45,17,False,1,-1,1,11,0.8509421000198927,-
Y2-S2-193K20,49,SQUARES,exp,45,17,False,2,-1,0,-,0.884051900007762,-
Y2-S2-193K20,50,SQUARES,exp,45,17,True,3,-1,0,-,0.4509111999941524,-
Y2-S2-193K20,51,SQUARES,exp,45,17,True,3,-1,0,-,0.8009021999896504,-
Y2-S2-193K20,52,SQUARES,exp,45,17,True,3,1,1,12,0.3676722999953199,-
Y2-S2-193K20,53,SQUARES,exp,45,17,True,2,1,0,-,1.367464300012216,-
Y2-S2-193K20,54,SQUARES,exp,45,17,True,2,1,0,-,0.7841460999916308,-
Y2-S2-193K20,55,SQUARES,exp,45,17,True,2,1,0,-,0.7343453000066802,-
Y2-S2-193K20,56,SQUARES,exp,45,17,True,1,1,0,-,1.2512864999880549,-
Y2-S2-193K20,57,SQUARES,exp,45,17,True,1,1,0,-,2.1346517000056338,-
Y2-S2-193K20,58,SQUARES,exp,45,17,False,1,-1,1,13,-1.0,-
Y2-S2-193K20,59,SQUARES,exp,45,17,False,2,-1,0,-,1.0006551999831572,-
Y2-S2-193K20,60,SQUARES,exp,45,17,False,3,-1,0,-,0.7011193999787793,-
Y2-S2-193K20,61,SQUARES,exp,45,17,True,4,-1,0,-,0.30065719998674467,-
Y2-S2-193K20,62,SQUARES,exp,45,17,True,4,-1,0,-,0.40112279998720624,-
Y2-S2-193K20,63,SQUARES,exp,45,17,True,4,1,1,14,0.4177105999842752,-
Y2-S2-193K20,64,SQUARES,exp,45,17,True,3,1,0,-,0.2676017000048887,-
Y2-S2-193K20,65,SQUARES,exp,45,17,True,3,1,0,-,0.6004984999890439,-
Y2-S2-193K20,66,SQUARES,exp,45,17,True,3,1,0,-,0.41744660001131706,-
Y2-S2-193K20,67,SQUARES,exp,45,17,True,2,1,0,-,0.5169662000262178,-
Y2-S2-193K20,68,SQUARES,exp,45,17,True,2,1,0,-,0.734242800011998,-
Y2-S2-193K20,69,SQUARES,exp,45,17,True,2,1,0,-,0.4341292000026442,-
Y2-S2-193K20,70,SQUARES,exp,45,17,True,1,1,0,-,1.13483549997909,-
Y2-S2-193K20,71,SQUARES,exp,45,17,True,1,1,0,-,0.517538499989314,-
Y2-S2-193K20,72,SQUARES,exp,45,17,True,1,1,0,-,0.5338988000003155,-
Y2-S2-193K20,73,SQUARES,exp,45,17,False,0,-1,1,15,0.9008352999808267,-
Y2-S2-193K20,74,SQUARES,exp,45,17,False,1,-1,0,-,0.534209599980386,-
Y2-S2-193K20,75,SQUARES,exp,45,17,True,2,-1,0,-,0.31721100001595914,-
Y2-S2-193K20,76,SQUARES,exp,45,17,False,2,-1,0,-,0.767497299995739,-
Y2-S2-193K20,77,SQUARES,exp,45,17,True,3,-1,0,-,0.6177473999850918,-
Y2-S2-193K20,78,SQUARES,exp,45,17,True,3,-1,0,-,0.3341114000068046,-
Y2-S2-193K20,79,SQUARES,exp,45,17,True,3,1,1,16,0.7507872999995016,-
Y2-S2-193K20,1,CIRCLES,training,45,17,True,20,-,-,-,2.4510409999929834,-
Y2-S2-193K20,2,CIRCLES,training,45,17,True,20,-,-,-,0.0008796000038273633,-
Y2-S2-193K20,3,CIRCLES,training,45,17,True,20,-,-,-,0.06713809998473153,-
Y2-S2-193K20,4,CIRCLES,training,45,17,True,20,-,-,-,0.0007421000045724213,-
Y2-S2-193K20,5,CIRCLES,training,45,17,True,20,-,-,-,3.034264100017026,-
Y2-S2-193K20,6,CIRCLES,training,45,17,True,20,-,-,-,0.08420979999937117,-
Y2-S2-193K20,7,CIRCLES,training,45,17,True,20,-,-,-,0.15076459999545477,-
Y2-S2-193K20,8,CIRCLES,training,45,17,True,20,-,-,-,0.717572099994868,-
Y2-S2-193K20,9,CIRCLES,training,45,17,True,20,-,-,-,1.117568299989216,-
Y2-S2-193K20,10,CIRCLES,training,45,17,True,20,-,-,-,0.6342375999956857,-
Y2-S2-193K20,11,CIRCLES,training,45,17,True,10,-,-,-,0.21760490001179278,-
Y2-S2-193K20,12,CIRCLES,training,45,17,True,10,-,-,-,0.3009629000152927,-
Y2-S2-193K20,13,CIRCLES,training,45,17,True,10,-,-,-,0.10075899999355897,-
Y2-S2-193K20,14,CIRCLES,training,45,17,True,10,-,-,-,0.10052120001637377,-
Y2-S2-193K20,15,CIRCLES,training,45,17,True,10,-,-,-,0.18363369998405688,-
Y2-S2-193K20,16,CIRCLES,training,45,17,True,10,-,-,-,0.16766370000550523,-
Y2-S2-193K20,17,CIRCLES,training,45,17,True,10,-,-,-,0.1007038000097964,-
Y2-S2-193K20,18,CIRCLES,training,45,17,True,10,-,-,-,0.13404279999667779,-
Y2-S2-193K20,19,CIRCLES,training,45,17,True,10,-,-,-,0.03419090001261793,-
Y2-S2-193K20,20,CIRCLES,training,45,17,True,10,-,-,-,0.30072020000079647,-
Y2-S2-193K20,1,CIRCLES,exp,45,17,True,10,0,0,0,0.0680348000023514,-
Y2-S2-193K20,2,CIRCLES,exp,45,17,True,10,0,0,-,0.0010875000152736902,-
Y2-S2-193K20,3,CIRCLES,exp,45,17,True,10,1,0,-,0.18406090000644326,-
Y2-S2-193K20,4,CIRCLES,exp,45,17,True,9,1,0,-,0.23405660002026707,-
Y2-S2-193K20,5,CIRCLES,exp,45,17,True,9,1,0,-,0.30093339999439195,-
Y2-S2-193K20,6,CIRCLES,exp,45,17,True,9,1,0,-,0.23389939998742193,-
Y2-S2-193K20,7,CIRCLES,exp,45,17,True,8,1,0,-,0.4008404000196606,-
Y2-S2-193K20,8,CIRCLES,exp,45,17,True,8,1,0,-,0.25093169999308884,-
Y2-S2-193K20,9,CIRCLES,exp,45,17,True,8,1,0,-,0.31743190000997856,-
Y2-S2-193K20,10,CIRCLES,exp,45,17,True,7,1,0,-,0.15080299999681301,-
Y2-S2-193K20,11,CIRCLES,exp,45,17,True,7,1,0,-,0.2010193000023719,-
Y2-S2-193K20,12,CIRCLES,exp,45,17,True,7,1,0,-,0.1671675999823492,-
Y2-S2-193K20,13,CIRCLES,exp,45,17,True,6,1,0,-,0.3176369000284467,-
Y2-S2-193K20,14,CIRCLES,exp,45,17,True,6,1,0,-,0.03404589998535812,-
Y2-S2-193K20,15,CIRCLES,exp,45,17,True,6,1,0,-,0.38427470001624897,-
Y2-S2-193K20,16,CIRCLES,exp,45,17,True,5,1,0,-,0.15087680000578985,-
Y2-S2-193K20,17,CIRCLES,exp,45,17,True,5,1,0,-,0.25071390002267435,-
Y2-S2-193K20,18,CIRCLES,exp,45,17,True,5,1,0,-,0.10071710002375767,-
Y2-S2-193K20,19,CIRCLES,exp,45,17,True,4,1,0,-,0.15067550001549534,-
Y2-S2-193K20,20,CIRCLES,exp,45,17,True,4,1,0,-,0.10068500001216307,-
Y2-S2-193K20,21,CIRCLES,exp,45,17,True,4,1,0,-,0.1344282999925781,-
Y2-S2-193K20,22,CIRCLES,exp,45,17,True,3,1,0,-,0.1673841000010725,-
Y2-S2-193K20,23,CIRCLES,exp,45,17,True,3,1,0,-,0.2005607999744825,-
Y2-S2-193K20,24,CIRCLES,exp,45,17,True,3,1,0,-,0.20083199997316115,-
Y2-S2-193K20,25,CIRCLES,exp,45,17,True,2,1,0,-,0.4508936000056565,-
Y2-S2-193K20,26,CIRCLES,exp,45,17,True,2,1,0,-,0.6009060999786016,-
Y2-S2-193K20,27,CIRCLES,exp,45,17,True,2,1,0,-,0.25078890001168475,-
Y2-S2-193K20,28,CIRCLES,exp,45,17,True,1,1,0,-,0.6171071999997366,-
Y2-S2-193K20,29,CIRCLES,exp,45,17,True,1,1,0,-,0.33425610000267625,-
Y2-S2-193K20,30,CIRCLES,exp,45,17,True,1,1,0,-,0.9011917000170797,-
Y2-S2-193K20,31,CIRCLES,exp,45,17,False,0,-1,1,1,0.5676988999766763,-
Y2-S2-193K20,32,CIRCLES,exp,45,17,False,1,-1,0,-,0.8506125000130851,-
Y2-S2-193K20,33,CIRCLES,exp,45,17,False,2,-1,0,-,0.4173327999887988,-
Y2-S2-193K20,34,CIRCLES,exp,45,17,True,3,-1,0,-,0.3502378000121098,-
Y2-S2-193K20,35,CIRCLES,exp,45,17,True,3,-1,0,-,0.40105210000183433,-
Y2-S2-193K20,36,CIRCLES,exp,45,17,True,3,1,1,2,0.4008953000011388,-
Y2-S2-193K20,37,CIRCLES,exp,45,17,True,2,1,0,-,0.4175338000059128,-
Y2-S2-193K20,38,CIRCLES,exp,45,17,True,2,1,0,-,0.4179692000034265,-
Y2-S2-193K20,39,CIRCLES,exp,45,17,True,2,1,0,-,0.4505414000013843,-
Y2-S2-193K20,40,CIRCLES,exp,45,17,True,1,1,0,-,1.3343524000083562,-
Y2-S2-193K20,41,CIRCLES,exp,45,17,False,1,-1,1,3,1.5175422999891452,-
Y2-S2-193K20,42,CIRCLES,exp,45,17,False,2,-1,0,-,0.5841061999963131,-
Y2-S2-193K20,43,CIRCLES,exp,45,17,True,3,-1,0,-,0.2509339000098407,-
Y2-S2-193K20,44,CIRCLES,exp,45,17,True,3,-1,0,-,0.25099499998032115,-
Y2-S2-193K20,45,CIRCLES,exp,45,17,True,3,1,1,4,0.31783139999606647,-
Y2-S2-193K20,46,CIRCLES,exp,45,17,True,2,1,0,-,0.3509617999952752,-
Y2-S2-193K20,47,CIRCLES,exp,45,17,True,2,1,0,-,0.43417359999148175,-
Y2-S2-193K20,48,CIRCLES,exp,45,17,False,2,-1,1,5,1.017492900020443,-
Y2-S2-193K20,49,CIRCLES,exp,45,17,True,3,-1,0,-,0.3345522000163328,-
Y2-S2-193K20,50,CIRCLES,exp,45,17,True,3,-1,0,-,0.7839901000261307,-
Y2-S2-193K20,51,CIRCLES,exp,45,17,True,3,1,1,6,0.35082839999813586,-
Y2-S2-193K20,52,CIRCLES,exp,45,17,True,2,1,0,-,0.5840901999908965,-
Y2-S2-193K20,53,CIRCLES,exp,45,17,True,2,1,0,-,0.33377759999712,-
Y2-S2-193K20,54,CIRCLES,exp,45,17,True,2,1,0,-,0.48420630002510734,-
Y2-S2-193K20,55,CIRCLES,exp,45,17,True,1,1,0,-,0.6175021000090055,-
Y2-S2-193K20,56,CIRCLES,exp,45,17,True,1,1,0,-,0.6676794000086375,-
Y2-S2-193K20,57,CIRCLES,exp,45,17,False,1,-1,1,7,0.301415599999018,-
Y2-S2-193K20,58,CIRCLES,exp,45,17,False,2,-1,0,-,0.4011637000076007,-
Y2-S2-193K20,59,CIRCLES,exp,45,17,True,3,-1,0,-,0.16762029999517836,-
Y2-S2-193K20,60,CIRCLES,exp,45,17,False,3,-1,0,-,0.23453849999350496,-
Y2-S2-193K20,61,CIRCLES,exp,45,17,True,4,-1,0,-,0.2508766000100877,-
Y2-S2-193K20,62,CIRCLES,exp,45,17,True,4,-1,0,-,0.20088550000218675,-
Y2-S2-193K20,63,CIRCLES,exp,45,17,True,4,1,1,8,0.4842304000048898,-
Y2-S2-193K20,64,CIRCLES,exp,45,17,True,3,1,0,-,0.15024829999310896,-
Y2-S2-193K20,65,CIRCLES,exp,45,17,True,3,1,0,-,0.25072859998908825,-
Y2-S2-193K20,66,CIRCLES,exp,45,17,True,3,1,0,-,0.21742249999078922,-
Y2-S2-193K20,67,CIRCLES,exp,45,17,True,2,1,0,-,0.2842002999968827,-
Y2-S2-193K20,68,CIRCLES,exp,45,17,True,2,1,0,-,0.33486179998726584,-
Y2-S2-193K20,69,CIRCLES,exp,45,17,True,2,1,0,-,0.2512370999902487,-
Y2-S2-193K20,70,CIRCLES,exp,45,17,True,1,1,0,-,0.3340971999859903,-
Y2-S2-193K20,71,CIRCLES,exp,45,17,True,1,1,0,-,0.5173170999914873,-
Y2-S2-193K20,72,CIRCLES,exp,45,17,True,1,1,0,-,0.25069589997292496,-
Y2-S2-193K20,73,CIRCLES,exp,45,17,False,0,-1,1,9,1.0337577000027522,-
Y2-S2-193K20,74,CIRCLES,exp,45,17,False,1,-1,0,-,0.6676918999874033,-
Y2-S2-193K20,75,CIRCLES,exp,45,17,True,2,-1,0,-,0.7508960000122897,-
Y2-S2-193K20,76,CIRCLES,exp,45,17,True,2,-1,0,-,0.23416339998948388,-
Y2-S2-193K20,77,CIRCLES,exp,45,17,True,2,1,1,10,0.2841437000024598,-
Y2-S2-193K20,78,CIRCLES,exp,45,17,False,1,-1,1,11,0.2674445000011474,-
Y2-S2-193K20,79,CIRCLES,exp,45,17,False,2,-1,0,-,0.3840826000086963,-
Y2-S2-193K20,80,CIRCLES,exp,45,17,False,3,-1,0,-,0.5509109999984503,-
Y2-S2-193K20,81,CIRCLES,exp,45,17,True,4,-1,0,-,0.5006219999922905,-
Y2-S2-193K20,82,CIRCLES,exp,45,17,True,4,-1,0,-,0.41711119998944923,-
Y2-S2-193K20,83,CIRCLES,exp,45,17,True,4,1,1,12,0.23403009999310598,-
Y2-S2-193K20,84,CIRCLES,exp,45,17,True,3,1,0,-,0.30115939999814145,-
Y2-S2-193K20,85,CIRCLES,exp,45,17,True,3,1,0,-,0.23418060000403784,-
Y2-S2-193K20,86,CIRCLES,exp,45,17,True,3,1,0,-,0.4175043999857735,-
Y2-S2-193K20,87,CIRCLES,exp,45,17,True,2,1,0,-,0.5842682000075001,-
Y2-S2-193K20,88,CIRCLES,exp,45,17,True,2,1,0,-,0.41749239998171106,-
Y2-S2-193K20,89,CIRCLES,exp,45,17,True,2,1,0,-,0.35072040001978166,-
Y2-S2-193K20,90,CIRCLES,exp,45,17,False,1,-1,1,13,0.30058519999147393,-
Y2-S2-193K20,91,CIRCLES,exp,45,17,False,2,-1,0,-,0.6672534999961499,-
Y2-S2-193K20,92,CIRCLES,exp,45,17,True,3,-1,0,-,0.36764069998753257,-
Y2-S2-193K20,93,CIRCLES,exp,45,17,True,3,-1,0,-,0.4340733999852091,-
Y2-S2-193K20,94,CIRCLES,exp,45,17,True,3,1,1,14,0.43424319999758154,-
Y2-S2-193K20,95,CIRCLES,exp,45,17,True,2,1,0,-,0.36758629998075776,-
Y2-S2-193K20,96,CIRCLES,exp,45,17,True,2,1,0,-,1.3173993999953382,-
Y2-S2-193K20,97,CIRCLES,exp,45,17,False,2,-1,1,15,0.8010613000078592,-
Y2-S2-193K20,98,CIRCLES,exp,45,17,True,3,-1,0,-,0.35100260001490824,-
Y2-S2-193K20,99,CIRCLES,exp,45,17,True,3,-1,0,-,0.5342235999996774,-
Y2-S2-193K20,100,CIRCLES,exp,45,17,True,3,1,1,16,0.533955099992454,-
