PART_ID,Trial,Stimuli,Training,FIXTIME,MTIME,Correct,SOA,Level,Reversal,Reversal_count,Latency,Rating
Y2-S2-260K19,1,SQUARES,training,45,17,True,12,-,-,-,0.368463100399822,-
Y2-S2-260K19,2,SQUARES,training,45,17,True,12,-,-,-,0.41801040014252067,-
Y2-S2-260K19,3,SQUARES,training,45,17,True,12,-,-,-,0.2841431996785104,-
Y2-S2-260K19,4,SQUARES,training,45,17,True,12,-,-,-,0.23421450005844235,-
Y2-S2-260K19,5,SQUARES,training,45,17,True,12,-,-,-,0.1675539999268949,-
Y2-S2-260K19,6,SQUARES,training,45,17,True,12,-,-,-,0.20107930013909936,-
Y2-S2-260K19,7,SQUARES,training,45,17,True,12,-,-,-,0.18439990002661943,-
Y2-S2-260K19,8,SQUARES,training,45,17,True,12,-,-,-,0.2673709997907281,-
Y2-S2-260K19,9,SQUARES,training,45,17,True,12,-,-,-,0.21741299983114004,-
Y2-S2-260K19,10,SQUARES,training,45,17,True,12,-,-,-,0.18441009987145662,-
Y2-S2-260K19,11,SQUARES,training,45,17,True,6,-,-,-,0.20071440003812313,-
Y2-S2-260K19,12,SQUARES,training,45,17,True,6,-,-,-,0.3345046998001635,-
Y2-S2-260K19,13,SQUARES,training,45,17,True,6,-,-,-,0.31784059992060065,-
Y2-S2-260K19,14,SQUARES,training,45,17,True,6,-,-,-,0.2673081001266837,-
Y2-S2-260K19,15,SQUARES,training,45,17,True,6,-,-,-,0.30084019992500544,-
Y2-S2-260K19,16,SQUARES,training,45,17,True,6,-,-,-,0.31751300022006035,-
Y2-S2-260K19,17,SQUARES,training,45,17,True,6,-,-,-,0.18462279997766018,-
Y2-S2-260K19,18,SQUARES,training,45,17,True,6,-,-,-,0.23459640005603433,-
Y2-S2-260K19,19,SQUARES,training,45,17,True,6,-,-,-,0.18494859989732504,-
Y2-S2-260K19,20,SQUARES,training,45,17,True,6,-,-,-,0.21758479997515678,-
Y2-S2-260K19,1,SQUARES,exp,45,17,True,6,0,0,0,0.3673519999720156,-
Y2-S2-260K19,2,SQUARES,exp,45,17,True,6,0,0,-,0.2174778003245592,-
Y2-S2-260K19,3,SQUARES,exp,45,17,True,6,1,0,-,0.23408310022205114,-
Y2-S2-260K19,4,SQUARES,exp,45,17,True,5,1,0,-,0.43371499981731176,-
Y2-S2-260K19,5,SQUARES,exp,45,17,True,5,1,0,-,0.4008849998936057,-
Y2-S2-260K19,6,SQUARES,exp,45,17,True,5,1,0,-,0.5175724998116493,-
Y2-S2-260K19,7,SQUARES,exp,45,17,True,4,1,0,-,0.45055129984393716,-
Y2-S2-260K19,8,SQUARES,exp,45,17,True,4,1,0,-,0.3344450001604855,-
Y2-S2-260K19,9,SQUARES,exp,45,17,True,4,1,0,-,0.4339858000166714,-
Y2-S2-260K19,10,SQUARES,exp,45,17,True,3,1,0,-,0.4175984999164939,-
Y2-S2-260K19,11,SQUARES,exp,45,17,True,3,1,0,-,0.4172920002602041,-
Y2-S2-260K19,12,SQUARES,exp,45,17,True,3,1,0,-,0.5008063996210694,-
Y2-S2-260K19,13,SQUARES,exp,45,17,True,2,1,0,-,0.4338883999735117,-
Y2-S2-260K19,14,SQUARES,exp,45,17,True,2,1,0,-,0.5006397999823093,-
Y2-S2-260K19,15,SQUARES,exp,45,17,True,2,1,0,-,0.4843063000589609,-
Y2-S2-260K19,16,SQUARES,exp,45,17,True,1,1,0,-,0.4008213998749852,-
Y2-S2-260K19,17,SQUARES,exp,45,17,False,1,-1,1,1,0.40091530000790954,-
Y2-S2-260K19,18,SQUARES,exp,45,17,True,2,-1,0,-,0.4346555001102388,-
Y2-S2-260K19,19,SQUARES,exp,45,17,False,2,-1,0,-,0.5842470000497997,-
Y2-S2-260K19,20,SQUARES,exp,45,17,True,3,-1,0,-,0.4516722997650504,-
Y2-S2-260K19,21,SQUARES,exp,45,17,True,3,-1,0,-,0.4509016000665724,-
Y2-S2-260K19,22,SQUARES,exp,45,17,False,3,-1,0,-,0.5009934999980032,-
Y2-S2-260K19,23,SQUARES,exp,45,17,True,4,-1,0,-,0.30094970017671585,-
Y2-S2-260K19,24,SQUARES,exp,45,17,True,4,-1,0,-,0.350933900102973,-
Y2-S2-260K19,25,SQUARES,exp,45,17,True,4,1,1,2,0.4509991998784244,-
Y2-S2-260K19,26,SQUARES,exp,45,17,True,3,1,0,-,0.5841109002940357,-
Y2-S2-260K19,27,SQUARES,exp,45,17,True,3,1,0,-,0.3514759000390768,-
Y2-S2-260K19,28,SQUARES,exp,45,17,False,3,-1,1,3,0.4845470003783703,-
Y2-S2-260K19,29,SQUARES,exp,45,17,True,4,-1,0,-,0.4174767001532018,-
Y2-S2-260K19,30,SQUARES,exp,45,17,False,4,-1,0,-,0.4177255001850426,-
Y2-S2-260K19,31,SQUARES,exp,45,17,True,5,-1,0,-,0.35120660020038486,-
Y2-S2-260K19,32,SQUARES,exp,45,17,True,5,-1,0,-,0.4169304999522865,-
Y2-S2-260K19,33,SQUARES,exp,45,17,True,5,1,1,4,0.3338047000579536,-
Y2-S2-260K19,34,SQUARES,exp,45,17,True,4,1,0,-,0.35117279971018434,-
Y2-S2-260K19,35,SQUARES,exp,45,17,True,4,1,0,-,0.31698379991576076,-
Y2-S2-260K19,36,SQUARES,exp,45,17,True,4,1,0,-,0.5508818998932838,-
Y2-S2-260K19,37,SQUARES,exp,45,17,True,3,1,0,-,0.4513111002743244,-
Y2-S2-260K19,38,SQUARES,exp,45,17,True,3,1,0,-,0.30078950012102723,-
Y2-S2-260K19,39,SQUARES,exp,45,17,False,3,-1,1,5,0.38416210003197193,-
Y2-S2-260K19,40,SQUARES,exp,45,17,True,4,-1,0,-,0.6177444001659751,-
Y2-S2-260K19,41,SQUARES,exp,45,17,True,4,-1,0,-,0.40054789977148175,-
Y2-S2-260K19,42,SQUARES,exp,45,17,False,4,-1,0,-,0.38460429990664124,-
Y2-S2-260K19,43,SQUARES,exp,45,17,True,5,-1,0,-,0.2842716001905501,-
Y2-S2-260K19,44,SQUARES,exp,45,17,True,5,-1,0,-,0.4009197000414133,-
Y2-S2-260K19,45,SQUARES,exp,45,17,True,5,1,1,6,0.4008180000819266,-
Y2-S2-260K19,46,SQUARES,exp,45,17,True,4,1,0,-,0.7175190998241305,-
Y2-S2-260K19,47,SQUARES,exp,45,17,True,4,1,0,-,0.4843349000439048,-
Y2-S2-260K19,48,SQUARES,exp,45,17,True,4,1,0,-,0.400348000228405,-
Y2-S2-260K19,49,SQUARES,exp,45,17,True,3,1,0,-,0.46729979990050197,-
Y2-S2-260K19,50,SQUARES,exp,45,17,True,3,1,0,-,0.4177755997516215,-
Y2-S2-260K19,51,SQUARES,exp,45,17,True,3,1,0,-,0.584226599894464,-
Y2-S2-260K19,52,SQUARES,exp,45,17,False,2,-1,1,7,0.46757639991119504,-
Y2-S2-260K19,53,SQUARES,exp,45,17,False,3,-1,0,-,0.43348840018734336,-
Y2-S2-260K19,54,SQUARES,exp,45,17,True,4,-1,0,-,0.4674494997598231,-
Y2-S2-260K19,55,SQUARES,exp,45,17,True,4,-1,0,-,0.46733959997072816,-
Y2-S2-260K19,56,SQUARES,exp,45,17,True,4,1,1,8,0.4175184001214802,-
Y2-S2-260K19,57,SQUARES,exp,45,17,True,3,1,0,-,0.45166669972240925,-
Y2-S2-260K19,58,SQUARES,exp,45,17,True,3,1,0,-,0.43439750000834465,-
Y2-S2-260K19,59,SQUARES,exp,45,17,True,3,1,0,-,0.5674908999353647,-
Y2-S2-260K19,60,SQUARES,exp,45,17,False,2,-1,1,9,0.534470799844712,-
Y2-S2-260K19,61,SQUARES,exp,45,17,True,3,-1,0,-,0.6009685001336038,-
Y2-S2-260K19,62,SQUARES,exp,45,17,True,3,-1,0,-,0.41735800029709935,-
Y2-S2-260K19,63,SQUARES,exp,45,17,True,3,1,1,10,0.5510619999840856,-
Y2-S2-260K19,64,SQUARES,exp,45,17,True,2,1,0,-,0.5674521001055837,-
Y2-S2-260K19,65,SQUARES,exp,45,17,False,2,-1,1,11,0.534179300069809,-
Y2-S2-260K19,66,SQUARES,exp,45,17,False,3,-1,0,-,0.450668899808079,-
Y2-S2-260K19,67,SQUARES,exp,45,17,True,4,-1,0,-,0.267692799679935,-
Y2-S2-260K19,68,SQUARES,exp,45,17,True,4,-1,0,-,0.40121519984677434,-
Y2-S2-260K19,69,SQUARES,exp,45,17,False,4,-1,0,-,0.367357200011611,-
Y2-S2-260K19,70,SQUARES,exp,45,17,True,5,-1,0,-,0.31748650036752224,-
Y2-S2-260K19,71,SQUARES,exp,45,17,True,5,-1,0,-,0.26756459986791015,-
Y2-S2-260K19,72,SQUARES,exp,45,17,True,5,1,1,12,0.31747080013155937,-
Y2-S2-260K19,73,SQUARES,exp,45,17,True,4,1,0,-,0.31737540010362864,-
Y2-S2-260K19,74,SQUARES,exp,45,17,False,4,-1,1,13,0.8346334001980722,-
Y2-S2-260K19,75,SQUARES,exp,45,17,True,5,-1,0,-,0.43387799989432096,-
Y2-S2-260K19,76,SQUARES,exp,45,17,True,5,-1,0,-,0.21768040023744106,-
Y2-S2-260K19,77,SQUARES,exp,45,17,True,5,1,1,14,0.18420889973640442,-
Y2-S2-260K19,78,SQUARES,exp,45,17,True,4,1,0,-,0.3010605997405946,-
Y2-S2-260K19,79,SQUARES,exp,45,17,True,4,1,0,-,0.38496180018410087,-
Y2-S2-260K19,80,SQUARES,exp,45,17,True,4,1,0,-,0.367364099714905,-
Y2-S2-260K19,81,SQUARES,exp,45,17,True,3,1,0,-,0.3341744998469949,-
Y2-S2-260K19,82,SQUARES,exp,45,17,True,3,1,0,-,0.43345069978386164,-
Y2-S2-260K19,83,SQUARES,exp,45,17,False,3,-1,1,15,0.550762000028044,-
Y2-S2-260K19,84,SQUARES,exp,45,17,True,4,-1,0,-,0.3174540000036359,-
Y2-S2-260K19,85,SQUARES,exp,45,17,True,4,-1,0,-,0.3174001001752913,-
Y2-S2-260K19,86,SQUARES,exp,45,17,True,4,1,1,16,0.35076430020853877,-
Y2-S2-260K19,1,CIRCLES,training,45,17,True,20,-,-,-,1.4012877997010946,-
Y2-S2-260K19,2,CIRCLES,training,45,17,True,20,-,-,-,0.2175730001181364,-
Y2-S2-260K19,3,CIRCLES,training,45,17,True,20,-,-,-,0.4174565002322197,-
Y2-S2-260K19,4,CIRCLES,training,45,17,True,20,-,-,-,0.3011292000301182,-
Y2-S2-260K19,5,CIRCLES,training,45,17,True,20,-,-,-,0.2840637001208961,-
Y2-S2-260K19,6,CIRCLES,training,45,17,True,20,-,-,-,0.3673243001103401,-
Y2-S2-260K19,7,CIRCLES,training,45,17,True,20,-,-,-,0.26743240002542734,-
Y2-S2-260K19,8,CIRCLES,training,45,17,True,20,-,-,-,0.18433930026367307,-
Y2-S2-260K19,9,CIRCLES,training,45,17,True,20,-,-,-,0.13414089987054467,-
Y2-S2-260K19,10,CIRCLES,training,45,17,True,20,-,-,-,0.050941800232976675,-
Y2-S2-260K19,11,CIRCLES,training,45,17,True,10,-,-,-,0.2010174999013543,-
Y2-S2-260K19,12,CIRCLES,training,45,17,True,10,-,-,-,0.36763859959319234,-
Y2-S2-260K19,13,CIRCLES,training,45,17,True,10,-,-,-,0.3841232000850141,-
Y2-S2-260K19,14,CIRCLES,training,45,17,True,10,-,-,-,0.3676048000343144,-
Y2-S2-260K19,15,CIRCLES,training,45,17,True,10,-,-,-,0.4676064997911453,-
Y2-S2-260K19,16,CIRCLES,training,45,17,True,10,-,-,-,0.23461190005764365,-
Y2-S2-260K19,17,CIRCLES,training,45,17,True,10,-,-,-,0.40083179995417595,-
Y2-S2-260K19,18,CIRCLES,training,45,17,True,10,-,-,-,0.5338837001472712,-
Y2-S2-260K19,19,CIRCLES,training,45,17,True,10,-,-,-,0.2508391998708248,-
Y2-S2-260K19,20,CIRCLES,training,45,17,True,10,-,-,-,0.31780039984732866,-
Y2-S2-260K19,1,CIRCLES,exp,45,17,True,10,0,0,0,0.10061109997332096,-
Y2-S2-260K19,2,CIRCLES,exp,45,17,True,10,0,0,-,0.3169495998881757,-
Y2-S2-260K19,3,CIRCLES,exp,45,17,True,10,1,0,-,0.08426230028271675,-
Y2-S2-260K19,4,CIRCLES,exp,45,17,True,9,1,0,-,0.20104430010542274,-
Y2-S2-260K19,5,CIRCLES,exp,45,17,True,9,1,0,-,0.26779929967597127,-
Y2-S2-260K19,6,CIRCLES,exp,45,17,True,9,1,0,-,0.15080439997836947,-
Y2-S2-260K19,7,CIRCLES,exp,45,17,True,8,1,0,-,0.21755059994757175,-
Y2-S2-260K19,8,CIRCLES,exp,45,17,True,8,1,0,-,0.15073420014232397,-
Y2-S2-260K19,9,CIRCLES,exp,45,17,True,8,1,0,-,0.13410430029034615,-
Y2-S2-260K19,10,CIRCLES,exp,45,17,True,7,1,0,-,0.3008556002750993,-
Y2-S2-260K19,11,CIRCLES,exp,45,17,True,7,1,0,-,0.3671936998143792,-
Y2-S2-260K19,12,CIRCLES,exp,45,17,True,7,1,0,-,0.2344623003154993,-
Y2-S2-260K19,13,CIRCLES,exp,45,17,True,6,1,0,-,0.2006247998215258,-
Y2-S2-260K19,14,CIRCLES,exp,45,17,True,6,1,0,-,0.21742920018732548,-
Y2-S2-260K19,15,CIRCLES,exp,45,17,True,6,1,0,-,0.18429449992254376,-
Y2-S2-260K19,16,CIRCLES,exp,45,17,True,5,1,0,-,0.26740309968590736,-
Y2-S2-260K19,17,CIRCLES,exp,45,17,True,5,1,0,-,0.26752019999548793,-
Y2-S2-260K19,18,CIRCLES,exp,45,17,True,5,1,0,-,0.2341227000579238,-
Y2-S2-260K19,19,CIRCLES,exp,45,17,False,4,-1,1,1,0.4176318999379873,-
Y2-S2-260K19,20,CIRCLES,exp,45,17,True,5,-1,0,-,0.38437689980491996,-
Y2-S2-260K19,21,CIRCLES,exp,45,17,True,5,-1,0,-,0.9505619001574814,-
Y2-S2-260K19,22,CIRCLES,exp,45,17,True,5,1,1,2,0.3843147000297904,-
Y2-S2-260K19,23,CIRCLES,exp,45,17,True,4,1,0,-,0.26782660000026226,-
Y2-S2-260K19,24,CIRCLES,exp,45,17,True,4,1,0,-,0.5009318999946117,-
Y2-S2-260K19,25,CIRCLES,exp,45,17,True,4,1,0,-,0.3343183998949826,-
Y2-S2-260K19,26,CIRCLES,exp,45,17,True,3,1,0,-,0.3507193000987172,-
Y2-S2-260K19,27,CIRCLES,exp,45,17,False,3,-1,1,3,0.40083769988268614,-
Y2-S2-260K19,28,CIRCLES,exp,45,17,False,4,-1,0,-,0.40090660005807877,-
Y2-S2-260K19,29,CIRCLES,exp,45,17,False,5,-1,0,-,0.33401310024783015,-
Y2-S2-260K19,30,CIRCLES,exp,45,17,True,6,-1,0,-,0.3015009998343885,-
Y2-S2-260K19,31,CIRCLES,exp,45,17,True,6,-1,0,-,0.3675450999289751,-
Y2-S2-260K19,32,CIRCLES,exp,45,17,True,6,1,1,4,0.31755129992961884,-
Y2-S2-260K19,33,CIRCLES,exp,45,17,True,5,1,0,-,0.4509224998764694,-
Y2-S2-260K19,34,CIRCLES,exp,45,17,True,5,1,0,-,0.2843849998898804,-
Y2-S2-260K19,35,CIRCLES,exp,45,17,False,5,-1,1,5,0.30087519995868206,-
Y2-S2-260K19,36,CIRCLES,exp,45,17,False,6,-1,0,-,0.36766380025073886,-
Y2-S2-260K19,37,CIRCLES,exp,45,17,True,7,-1,0,-,0.25054730009287596,-
Y2-S2-260K19,38,CIRCLES,exp,45,17,True,7,-1,0,-,0.1174004003405571,-
Y2-S2-260K19,39,CIRCLES,exp,45,17,True,7,1,1,6,0.20096589997410774,-
Y2-S2-260K19,40,CIRCLES,exp,45,17,True,6,1,0,-,0.2673380998894572,-
Y2-S2-260K19,41,CIRCLES,exp,45,17,True,6,1,0,-,0.21760680014267564,-
Y2-S2-260K19,42,CIRCLES,exp,45,17,False,6,-1,1,7,0.18383080000057817,-
Y2-S2-260K19,43,CIRCLES,exp,45,17,True,7,-1,0,-,0.2507748999632895,-
Y2-S2-260K19,44,CIRCLES,exp,45,17,True,7,-1,0,-,0.11802079994231462,-
Y2-S2-260K19,45,CIRCLES,exp,45,17,True,7,1,1,8,0.23407230013981462,-
Y2-S2-260K19,46,CIRCLES,exp,45,17,False,6,-1,1,9,0.3502321997657418,-
Y2-S2-260K19,47,CIRCLES,exp,45,17,True,7,-1,0,-,0.15109700011089444,-
Y2-S2-260K19,48,CIRCLES,exp,45,17,True,7,-1,0,-,0.06731799989938736,-
Y2-S2-260K19,49,CIRCLES,exp,45,17,False,7,-1,0,-,0.25110740028321743,-
Y2-S2-260K19,50,CIRCLES,exp,45,17,True,8,-1,0,-,0.034285999834537506,-
Y2-S2-260K19,51,CIRCLES,exp,45,17,False,8,-1,0,-,0.15075330017134547,-
Y2-S2-260K19,52,CIRCLES,exp,45,17,True,9,-1,0,-,0.1846690997481346,-
Y2-S2-260K19,53,CIRCLES,exp,45,17,True,9,-1,0,-,0.15062669990584254,-
Y2-S2-260K19,54,CIRCLES,exp,45,17,True,9,1,1,10,0.2509105997160077,-
Y2-S2-260K19,55,CIRCLES,exp,45,17,True,8,1,0,-,0.25052829971536994,-
Y2-S2-260K19,56,CIRCLES,exp,45,17,True,8,1,0,-,0.1505933003500104,-
Y2-S2-260K19,57,CIRCLES,exp,45,17,True,8,1,0,-,0.11813350021839142,-
Y2-S2-260K19,58,CIRCLES,exp,45,17,True,7,1,0,-,0.21773359971120954,-
Y2-S2-260K19,59,CIRCLES,exp,45,17,True,7,1,0,-,0.11687480006366968,-
Y2-S2-260K19,60,CIRCLES,exp,45,17,True,7,1,0,-,0.20098460000008345,-
Y2-S2-260K19,61,CIRCLES,exp,45,17,False,6,-1,1,11,0.28403849992901087,-
Y2-S2-260K19,62,CIRCLES,exp,45,17,True,7,-1,0,-,0.23421890009194613,-
Y2-S2-260K19,63,CIRCLES,exp,45,17,True,7,-1,0,-,0.1344134001992643,-
Y2-S2-260K19,64,CIRCLES,exp,45,17,True,7,1,1,12,0.28408379992470145,-
Y2-S2-260K19,65,CIRCLES,exp,45,17,True,6,1,0,-,0.33442620001733303,-
Y2-S2-260K19,66,CIRCLES,exp,45,17,True,6,1,0,-,0.2839529002085328,-
Y2-S2-260K19,67,CIRCLES,exp,45,17,False,6,-1,1,13,0.25116549991071224,-
Y2-S2-260K19,68,CIRCLES,exp,45,17,False,7,-1,0,-,0.2840468999929726,-
Y2-S2-260K19,69,CIRCLES,exp,45,17,True,8,-1,0,-,0.284037500154227,-
Y2-S2-260K19,70,CIRCLES,exp,45,17,True,8,-1,0,-,0.08389719994738698,-
Y2-S2-260K19,71,CIRCLES,exp,45,17,False,8,-1,0,-,0.18425269983708858,-
Y2-S2-260K19,72,CIRCLES,exp,45,17,True,9,-1,0,-,0.5006045997142792,-
Y2-S2-260K19,73,CIRCLES,exp,45,17,True,9,-1,0,-,0.36796180019155145,-
Y2-S2-260K19,74,CIRCLES,exp,45,17,True,9,1,1,14,0.21767919976264238,-
Y2-S2-260K19,75,CIRCLES,exp,45,17,True,8,1,0,-,0.20098669966682792,-
Y2-S2-260K19,76,CIRCLES,exp,45,17,True,8,1,0,-,0.20066139986738563,-
Y2-S2-260K19,77,CIRCLES,exp,45,17,False,8,-1,1,15,0.45032549975439906,-
Y2-S2-260K19,78,CIRCLES,exp,45,17,True,9,-1,0,-,0.41739979991689324,-
Y2-S2-260K19,79,CIRCLES,exp,45,17,True,9,-1,0,-,0.2167837000451982,-
Y2-S2-260K19,80,CIRCLES,exp,45,17,True,9,1,1,16,0.18388500018045306,-
