PART_ID,Trial,Stimuli,Training,FIXTIME,MTIME,Correct,SOA,Level,Reversal,Reversal_count,Latency,Rating
Y2-S2-190K21,1,SQUARES,training,45,17,False,12,-,-,-,0.3843551999889314,-
Y2-S2-190K21,2,SQUARES,training,45,17,True,12,-,-,-,1.618208299856633,-
Y2-S2-190K21,3,SQUARES,training,45,17,True,12,-,-,-,1.334279699716717,-
Y2-S2-190K21,4,SQUARES,training,45,17,True,12,-,-,-,0.10081380000337958,-
Y2-S2-190K21,5,SQUARES,training,45,17,True,12,-,-,-,0.28409790014848113,-
Y2-S2-190K21,6,SQUARES,training,45,17,True,12,-,-,-,0.26754359994083643,-
Y2-S2-190K21,7,SQUARES,training,45,17,True,12,-,-,-,0.15062740026041865,-
Y2-S2-190K21,8,SQUARES,training,45,17,True,12,-,-,-,0.1843162002041936,-
Y2-S2-190K21,9,SQUARES,training,45,17,True,12,-,-,-,0.1011811001226306,-
Y2-S2-190K21,10,SQUARES,training,45,17,True,12,-,-,-,1.0175191997550428,-
Y2-S2-190K21,11,SQUARES,training,45,17,True,6,-,-,-,0.25077199982479215,-
Y2-S2-190K21,12,SQUARES,training,45,17,True,6,-,-,-,0.3676522998139262,-
Y2-S2-190K21,13,SQUARES,training,45,17,True,6,-,-,-,0.23444550018757582,-
Y2-S2-190K21,14,SQUARES,training,45,17,True,6,-,-,-,0.3507241001352668,-
Y2-S2-190K21,15,SQUARES,training,45,17,True,6,-,-,-,0.4674832997843623,-
Y2-S2-190K21,16,SQUARES,training,45,17,True,6,-,-,-,0.3341018999926746,-
Y2-S2-190K21,17,SQUARES,training,45,17,True,6,-,-,-,0.10128980036824942,-
Y2-S2-190K21,18,SQUARES,training,45,17,True,6,-,-,-,0.10100489994511008,-
Y2-S2-190K21,19,SQUARES,training,45,17,True,6,-,-,-,0.30035110004246235,-
Y2-S2-190K21,20,SQUARES,training,45,17,True,6,-,-,-,0.20059339981526136,-
Y2-S2-190K21,1,SQUARES,exp,45,17,True,6,0,0,0,0.0006838999688625336,-
Y2-S2-190K21,2,SQUARES,exp,45,17,True,6,0,0,-,0.050685400143265724,-
Y2-S2-190K21,3,SQUARES,exp,45,17,True,6,1,0,-,0.16717540007084608,-
Y2-S2-190K21,4,SQUARES,exp,45,17,True,5,1,0,-,0.08384619979187846,-
Y2-S2-190K21,5,SQUARES,exp,45,17,True,5,1,0,-,0.06741139991208911,-
Y2-S2-190K21,6,SQUARES,exp,45,17,True,5,1,0,-,0.2004395998083055,-
Y2-S2-190K21,7,SQUARES,exp,45,17,True,4,1,0,-,0.21764650009572506,-
Y2-S2-190K21,8,SQUARES,exp,45,17,True,4,1,0,-,0.21727850008755922,-
Y2-S2-190K21,9,SQUARES,exp,45,17,True,4,1,0,-,0.2005366999655962,-
Y2-S2-190K21,10,SQUARES,exp,45,17,False,3,-1,1,1,0.4335084003396332,-
Y2-S2-190K21,11,SQUARES,exp,45,17,False,4,-1,0,-,0.4008359001018107,-
Y2-S2-190K21,12,SQUARES,exp,45,17,True,5,-1,0,-,0.2506005000323057,-
Y2-S2-190K21,13,SQUARES,exp,45,17,False,5,-1,0,-,3.3842120999470353,-
Y2-S2-190K21,14,SQUARES,exp,45,17,True,6,-1,0,-,0.30058709997683764,-
Y2-S2-190K21,15,SQUARES,exp,45,17,True,6,-1,0,-,0.05033800005912781,-
Y2-S2-190K21,16,SQUARES,exp,45,17,False,6,-1,0,-,0.2507577002979815,-
Y2-S2-190K21,17,SQUARES,exp,45,17,True,7,-1,0,-,0.16723820008337498,-
Y2-S2-190K21,18,SQUARES,exp,45,17,True,7,-1,0,-,0.3172434000298381,-
Y2-S2-190K21,19,SQUARES,exp,45,17,True,7,1,1,2,0.2339635998941958,-
Y2-S2-190K21,20,SQUARES,exp,45,17,True,6,1,0,-,0.13355879997834563,-
Y2-S2-190K21,21,SQUARES,exp,45,17,True,6,1,0,-,0.31719709979370236,-
Y2-S2-190K21,22,SQUARES,exp,45,17,False,6,-1,1,3,0.23372479993849993,-
Y2-S2-190K21,23,SQUARES,exp,45,17,False,7,-1,0,-,0.5170766999945045,-
Y2-S2-190K21,24,SQUARES,exp,45,17,False,8,-1,0,-,0.30071800015866756,-
Y2-S2-190K21,25,SQUARES,exp,45,17,True,9,-1,0,-,0.16715459991246462,-
Y2-S2-190K21,26,SQUARES,exp,45,17,True,9,-1,0,-,0.9513345002196729,-
Y2-S2-190K21,27,SQUARES,exp,45,17,True,9,1,1,4,0.45110829966142774,-
Y2-S2-190K21,28,SQUARES,exp,45,17,True,8,1,0,-,0.13431850029155612,-
Y2-S2-190K21,29,SQUARES,exp,45,17,True,8,1,0,-,0.23412709962576628,-
Y2-S2-190K21,30,SQUARES,exp,45,17,True,8,1,0,-,0.18404569989070296,-
Y2-S2-190K21,31,SQUARES,exp,45,17,False,7,-1,1,5,0.3009287999011576,-
Y2-S2-190K21,32,SQUARES,exp,45,17,True,8,-1,0,-,0.3179831001907587,-
Y2-S2-190K21,33,SQUARES,exp,45,17,True,8,-1,0,-,0.06755129992961884,-
Y2-S2-190K21,34,SQUARES,exp,45,17,True,8,1,1,6,0.4342213002964854,-
Y2-S2-190K21,35,SQUARES,exp,45,17,True,7,1,0,-,0.16766010038554668,-
Y2-S2-190K21,36,SQUARES,exp,45,17,True,7,1,0,-,0.46740049961954355,-
Y2-S2-190K21,37,SQUARES,exp,45,17,True,7,1,0,-,0.23460710002109408,-
Y2-S2-190K21,38,SQUARES,exp,45,17,False,6,-1,1,7,0.5015121004544199,-
Y2-S2-190K21,39,SQUARES,exp,45,17,True,7,-1,0,-,0.4843394001945853,-
Y2-S2-190K21,40,SQUARES,exp,45,17,True,7,-1,0,-,0.21766790002584457,-
Y2-S2-190K21,41,SQUARES,exp,45,17,False,7,-1,0,-,0.3178747999481857,-
Y2-S2-190K21,42,SQUARES,exp,45,17,True,8,-1,0,-,0.06756239989772439,-
Y2-S2-190K21,43,SQUARES,exp,45,17,True,8,-1,0,-,0.2008763998746872,-
Y2-S2-190K21,44,SQUARES,exp,45,17,True,8,1,1,8,0.2175496998243034,-
Y2-S2-190K21,45,SQUARES,exp,45,17,True,7,1,0,-,0.4675406999886036,-
Y2-S2-190K21,46,SQUARES,exp,45,17,True,7,1,0,-,0.21698370017111301,-
Y2-S2-190K21,47,SQUARES,exp,45,17,False,7,-1,1,9,0.4342525997199118,-
Y2-S2-190K21,48,SQUARES,exp,45,17,True,8,-1,0,-,0.3172987001016736,-
Y2-S2-190K21,49,SQUARES,exp,45,17,True,8,-1,0,-,0.20104649988934398,-
Y2-S2-190K21,50,SQUARES,exp,45,17,True,8,1,1,10,0.21761999977752566,-
Y2-S2-190K21,51,SQUARES,exp,45,17,True,7,1,0,-,0.3672467996366322,-
Y2-S2-190K21,52,SQUARES,exp,45,17,True,7,1,0,-,0.3345081997103989,-
Y2-S2-190K21,53,SQUARES,exp,45,17,True,7,1,0,-,0.06752590043470263,-
Y2-S2-190K21,54,SQUARES,exp,45,17,True,6,1,0,-,0.1169378999620676,-
Y2-S2-190K21,55,SQUARES,exp,45,17,True,6,1,0,-,0.31767060002312064,-
Y2-S2-190K21,56,SQUARES,exp,45,17,False,6,-1,1,11,0.13435380021110177,-
Y2-S2-190K21,57,SQUARES,exp,45,17,False,7,-1,0,-,0.33427360001951456,-
Y2-S2-190K21,58,SQUARES,exp,45,17,True,8,-1,0,-,1.2673637000843883,-
Y2-S2-190K21,59,SQUARES,exp,45,17,True,8,-1,0,-,0.30074650002643466,-
Y2-S2-190K21,60,SQUARES,exp,45,17,False,8,-1,0,-,0.41765399975702167,-
Y2-S2-190K21,61,SQUARES,exp,45,17,True,9,-1,0,-,0.334124400280416,-
Y2-S2-190K21,62,SQUARES,exp,45,17,True,9,-1,0,-,0.6506968000903726,-
Y2-S2-190K21,63,SQUARES,exp,45,17,True,9,1,1,12,0.3842134000733495,-
Y2-S2-190K21,64,SQUARES,exp,45,17,False,8,-1,1,13,0.33494059974327683,-
Y2-S2-190K21,65,SQUARES,exp,45,17,True,9,-1,0,-,0.3175884000957012,-
Y2-S2-190K21,66,SQUARES,exp,45,17,True,9,-1,0,-,0.05086220009252429,-
Y2-S2-190K21,67,SQUARES,exp,45,17,True,9,1,1,14,0.5507263001054525,-
Y2-S2-190K21,68,SQUARES,exp,45,17,True,8,1,0,-,0.15092850010842085,-
Y2-S2-190K21,69,SQUARES,exp,45,17,False,8,-1,1,15,0.6007687002420425,-
Y2-S2-190K21,70,SQUARES,exp,45,17,True,9,-1,0,-,0.06800609966740012,-
Y2-S2-190K21,71,SQUARES,exp,45,17,True,9,-1,0,-,0.21839229995384812,-
Y2-S2-190K21,72,SQUARES,exp,45,17,True,9,1,1,16,0.5842013000510633,-
Y2-S2-190K21,1,CIRCLES,training,45,17,True,20,-,-,-,0.733742100186646,-
Y2-S2-190K21,2,CIRCLES,training,45,17,True,20,-,-,-,0.3008028999902308,-
Y2-S2-190K21,3,CIRCLES,training,45,17,True,20,-,-,-,0.28429989982396364,-
Y2-S2-190K21,4,CIRCLES,training,45,17,True,20,-,-,-,0.25090349977836013,-
Y2-S2-190K21,5,CIRCLES,training,45,17,True,20,-,-,-,0.36755470000207424,-
Y2-S2-190K21,6,CIRCLES,training,45,17,True,20,-,-,-,0.3517630002461374,-
Y2-S2-190K21,7,CIRCLES,training,45,17,True,20,-,-,-,0.28375629987567663,-
Y2-S2-190K21,8,CIRCLES,training,45,17,True,20,-,-,-,0.31754419999197125,-
Y2-S2-190K21,9,CIRCLES,training,45,17,True,20,-,-,-,0.3500822000205517,-
Y2-S2-190K21,10,CIRCLES,training,45,17,True,20,-,-,-,0.3175337999127805,-
Y2-S2-190K21,11,CIRCLES,training,45,17,True,10,-,-,-,0.35068909963592887,-
Y2-S2-190K21,12,CIRCLES,training,45,17,True,10,-,-,-,0.3004811997525394,-
Y2-S2-190K21,13,CIRCLES,training,45,17,True,10,-,-,-,0.3345147999934852,-
Y2-S2-190K21,14,CIRCLES,training,45,17,True,10,-,-,-,0.45111369993537664,-
Y2-S2-190K21,15,CIRCLES,training,45,17,True,10,-,-,-,0.36785810021683574,-
Y2-S2-190K21,16,CIRCLES,training,45,17,True,10,-,-,-,0.3172988002188504,-
Y2-S2-190K21,17,CIRCLES,training,45,17,False,10,-,-,-,0.40091559989377856,-
Y2-S2-190K21,18,CIRCLES,training,45,17,True,10,-,-,-,0.4511997001245618,-
Y2-S2-190K21,19,CIRCLES,training,45,17,False,10,-,-,-,0.35087719978764653,-
Y2-S2-190K21,20,CIRCLES,training,45,17,True,10,-,-,-,0.10101739969104528,-
Y2-S2-190K21,1,CIRCLES,exp,45,17,True,10,0,0,0,0.16746129980310798,-
Y2-S2-190K21,2,CIRCLES,exp,45,17,True,10,0,0,-,0.45083869993686676,-
Y2-S2-190K21,3,CIRCLES,exp,45,17,True,10,1,0,-,0.21744769997894764,-
Y2-S2-190K21,4,CIRCLES,exp,45,17,True,9,1,0,-,0.2845145999453962,-
Y2-S2-190K21,5,CIRCLES,exp,45,17,True,9,1,0,-,0.4345845999196172,-
Y2-S2-190K21,6,CIRCLES,exp,45,17,True,9,1,0,-,0.18356830021366477,-
Y2-S2-190K21,7,CIRCLES,exp,45,17,True,8,1,0,-,0.20162210008129478,-
Y2-S2-190K21,8,CIRCLES,exp,45,17,False,8,-1,1,1,0.30064049968495965,-
Y2-S2-190K21,9,CIRCLES,exp,45,17,True,9,-1,0,-,0.33420859975740314,-
Y2-S2-190K21,10,CIRCLES,exp,45,17,True,9,-1,0,-,0.20125929964706302,-
Y2-S2-190K21,11,CIRCLES,exp,45,17,True,9,1,1,2,0.20081349974498153,-
Y2-S2-190K21,12,CIRCLES,exp,45,17,False,8,-1,1,3,0.6008551004342735,-
Y2-S2-190K21,13,CIRCLES,exp,45,17,True,9,-1,0,-,0.25086640007793903,-
Y2-S2-190K21,14,CIRCLES,exp,45,17,True,9,-1,0,-,0.30070829996839166,-
Y2-S2-190K21,15,CIRCLES,exp,45,17,False,9,-1,0,-,0.7333737998269498,-
Y2-S2-190K21,16,CIRCLES,exp,45,17,False,10,-1,0,-,0.6842911001294851,-
Y2-S2-190K21,17,CIRCLES,exp,45,17,True,11,-1,0,-,0.3004557997919619,-
Y2-S2-190K21,18,CIRCLES,exp,45,17,True,11,-1,0,-,0.6681540999561548,-
Y2-S2-190K21,19,CIRCLES,exp,45,17,True,11,1,1,4,0.4175509000197053,-
Y2-S2-190K21,20,CIRCLES,exp,45,17,True,10,1,0,-,0.4010394001379609,-
Y2-S2-190K21,21,CIRCLES,exp,45,17,True,10,1,0,-,0.16747909970581532,-
Y2-S2-190K21,22,CIRCLES,exp,45,17,False,10,-1,1,5,0.5341405998915434,-
Y2-S2-190K21,23,CIRCLES,exp,45,17,True,11,-1,0,-,0.7008178001269698,-
Y2-S2-190K21,24,CIRCLES,exp,45,17,True,11,-1,0,-,0.36757609993219376,-
Y2-S2-190K21,25,CIRCLES,exp,45,17,True,11,1,1,6,0.25085429986938834,-
Y2-S2-190K21,26,CIRCLES,exp,45,17,True,10,1,0,-,0.15083560021594167,-
Y2-S2-190K21,27,CIRCLES,exp,45,17,False,10,-1,1,7,0.43435150012373924,-
Y2-S2-190K21,28,CIRCLES,exp,45,17,True,11,-1,0,-,0.05024690041318536,-
Y2-S2-190K21,29,CIRCLES,exp,45,17,True,11,-1,0,-,0.36800049990415573,-
Y2-S2-190K21,30,CIRCLES,exp,45,17,True,11,1,1,8,0.3009886001236737,-
Y2-S2-190K21,31,CIRCLES,exp,45,17,True,10,1,0,-,0.38392059970647097,-
Y2-S2-190K21,32,CIRCLES,exp,45,17,True,10,1,0,-,0.25088230008259416,-
Y2-S2-190K21,33,CIRCLES,exp,45,17,False,10,-1,1,9,0.7507584998384118,-
Y2-S2-190K21,34,CIRCLES,exp,45,17,True,11,-1,0,-,0.23441419983282685,-
Y2-S2-190K21,35,CIRCLES,exp,45,17,True,11,-1,0,-,0.5682390998117626,-
Y2-S2-190K21,36,CIRCLES,exp,45,17,True,11,1,1,10,0.317605699878186,-
Y2-S2-190K21,37,CIRCLES,exp,45,17,False,10,-1,1,11,1.117690000217408,-
Y2-S2-190K21,38,CIRCLES,exp,45,17,True,11,-1,0,-,0.06734230043366551,-
Y2-S2-190K21,39,CIRCLES,exp,45,17,False,11,-1,0,-,0.6343529000878334,-
Y2-S2-190K21,40,CIRCLES,exp,45,17,True,12,-1,0,-,0.5009184000082314,-
Y2-S2-190K21,41,CIRCLES,exp,45,17,True,12,-1,0,-,0.0013672001659870148,-
Y2-S2-190K21,42,CIRCLES,exp,45,17,True,12,1,1,12,1.6668317997828126,-
Y2-S2-190K21,43,CIRCLES,exp,45,17,True,11,1,0,-,0.1346505000256002,-
Y2-S2-190K21,44,CIRCLES,exp,45,17,True,11,1,0,-,0.1174737997353077,-
Y2-S2-190K21,45,CIRCLES,exp,45,17,True,11,1,0,-,0.06766980001702905,-
Y2-S2-190K21,46,CIRCLES,exp,45,17,False,10,-1,1,13,0.35072189988568425,-
Y2-S2-190K21,47,CIRCLES,exp,45,17,True,11,-1,0,-,0.9004978998564184,-
Y2-S2-190K21,48,CIRCLES,exp,45,17,True,11,-1,0,-,0.33457930013537407,-
Y2-S2-190K21,49,CIRCLES,exp,45,17,True,11,1,1,14,0.4166462002322078,-
Y2-S2-190K21,50,CIRCLES,exp,45,17,True,10,1,0,-,0.4009743998758495,-
Y2-S2-190K21,51,CIRCLES,exp,45,17,True,10,1,0,-,0.6013150997459888,-
Y2-S2-190K21,52,CIRCLES,exp,45,17,True,10,1,0,-,0.634578799828887,-
Y2-S2-190K21,53,CIRCLES,exp,45,17,True,9,1,0,-,0.5341721000149846,-
Y2-S2-190K21,54,CIRCLES,exp,45,17,True,9,1,0,-,0.4508269000798464,-
Y2-S2-190K21,55,CIRCLES,exp,45,17,True,9,1,0,-,0.4502495997585356,-
Y2-S2-190K21,56,CIRCLES,exp,45,17,True,8,1,0,-,0.5842102998867631,-
Y2-S2-190K21,57,CIRCLES,exp,45,17,True,8,1,0,-,0.5342493997886777,-
Y2-S2-190K21,58,CIRCLES,exp,45,17,False,8,-1,1,15,0.6674919999204576,-
Y2-S2-190K21,59,CIRCLES,exp,45,17,True,9,-1,0,-,0.23462429968640208,-
Y2-S2-190K21,60,CIRCLES,exp,45,17,True,9,-1,0,-,0.38421849999576807,-
Y2-S2-190K21,61,CIRCLES,exp,45,17,True,9,1,1,16,0.31760350009426475,-
