PART_ID,Trial,Stimuli,Training,FIXTIME,MTIME,Correct,SOA,Level,Reversal,Reversal_count,Latency,Rating
Y2-S2-179K21,1,SQUARES,training,45,17,True,12,-,-,-,1.2343672001734376,-
Y2-S2-179K21,2,SQUARES,training,45,17,True,12,-,-,-,0.4838709000032395,-
Y2-S2-179K21,3,SQUARES,training,45,17,True,12,-,-,-,0.43412040011025965,-
Y2-S2-179K21,4,SQUARES,training,45,17,True,12,-,-,-,0.41725729987956583,-
Y2-S2-179K21,5,SQUARES,training,45,17,True,12,-,-,-,0.4005040000192821,-
Y2-S2-179K21,6,SQUARES,training,45,17,True,12,-,-,-,0.5340915000997484,-
Y2-S2-179K21,7,SQUARES,training,45,17,True,12,-,-,-,0.3842398999258876,-
Y2-S2-179K21,8,SQUARES,training,45,17,True,12,-,-,-,0.3010545000433922,-
Y2-S2-179K21,9,SQUARES,training,45,17,False,12,-,-,-,1.1840764000080526,-
Y2-S2-179K21,10,SQUARES,training,45,17,True,12,-,-,-,0.450700500048697,-
Y2-S2-179K21,11,SQUARES,training,45,17,True,6,-,-,-,1.500645900145173,-
Y2-S2-179K21,12,SQUARES,training,45,17,True,6,-,-,-,1.034294500015676,-
Y2-S2-179K21,13,SQUARES,training,45,17,True,6,-,-,-,1.5344396000728011,-
Y2-S2-179K21,14,SQUARES,training,45,17,True,6,-,-,-,0.5675411000847816,-
Y2-S2-179K21,15,SQUARES,training,45,17,True,6,-,-,-,1.033716700039804,-
Y2-S2-179K21,16,SQUARES,training,45,17,True,6,-,-,-,0.417331799864769,-
Y2-S2-179K21,17,SQUARES,training,45,17,True,6,-,-,-,0.4841251000761986,-
Y2-S2-179K21,18,SQUARES,training,45,17,True,6,-,-,-,0.48415559995919466,-
Y2-S2-179K21,19,SQUARES,training,45,17,True,6,-,-,-,0.5007766000926495,-
Y2-S2-179K21,20,SQUARES,training,45,17,False,6,-,-,-,0.6675827000290155,-
Y2-S2-179K21,1,SQUARES,exp,45,17,True,6,0,0,0,0.8510575001128018,-
Y2-S2-179K21,2,SQUARES,exp,45,17,False,6,-1,0,-,1.0176673999521881,-
Y2-S2-179K21,3,SQUARES,exp,45,17,True,7,-1,0,-,0.3840614000800997,-
Y2-S2-179K21,4,SQUARES,exp,45,17,True,7,-1,0,-,0.33415040001273155,-
Y2-S2-179K21,5,SQUARES,exp,45,17,True,7,1,1,1,1.3006792000960559,-
Y2-S2-179K21,6,SQUARES,exp,45,17,True,6,1,0,-,1.3340088000986725,-
Y2-S2-179K21,7,SQUARES,exp,45,17,True,6,1,0,-,0.30098129995167255,-
Y2-S2-179K21,8,SQUARES,exp,45,17,True,6,1,0,-,0.4840629999525845,-
Y2-S2-179K21,9,SQUARES,exp,45,17,True,5,1,0,-,0.4674184999894351,-
Y2-S2-179K21,10,SQUARES,exp,45,17,True,5,1,0,-,0.30071940016932786,-
Y2-S2-179K21,11,SQUARES,exp,45,17,True,5,1,0,-,1.8674171001184732,-
Y2-S2-179K21,12,SQUARES,exp,45,17,True,4,1,0,-,0.3339020998682827,-
Y2-S2-179K21,13,SQUARES,exp,45,17,True,4,1,0,-,0.35083939996547997,-
Y2-S2-179K21,14,SQUARES,exp,45,17,True,4,1,0,-,0.5175552999135107,-
Y2-S2-179K21,15,SQUARES,exp,45,17,True,3,1,0,-,0.33417210006155074,-
Y2-S2-179K21,16,SQUARES,exp,45,17,False,3,-1,1,2,1.0841706998180598,-
Y2-S2-179K21,17,SQUARES,exp,45,17,False,4,-1,0,-,2.2342035002075136,-
Y2-S2-179K21,18,SQUARES,exp,45,17,True,5,-1,0,-,0.3510990999639034,-
Y2-S2-179K21,19,SQUARES,exp,45,17,True,5,-1,0,-,0.4343216000124812,-
Y2-S2-179K21,20,SQUARES,exp,45,17,True,5,1,1,3,0.40064330003224313,-
Y2-S2-179K21,21,SQUARES,exp,45,17,True,4,1,0,-,0.6342311999760568,-
Y2-S2-179K21,22,SQUARES,exp,45,17,False,4,-1,1,4,2.051004200009629,-
Y2-S2-179K21,23,SQUARES,exp,45,17,True,5,-1,0,-,2.5010148000437766,-
Y2-S2-179K21,24,SQUARES,exp,45,17,True,5,-1,0,-,0.5013383000623435,-
Y2-S2-179K21,25,SQUARES,exp,45,17,True,5,1,1,5,0.31727140001021326,-
Y2-S2-179K21,26,SQUARES,exp,45,17,True,4,1,0,-,0.5342360001523048,-
Y2-S2-179K21,27,SQUARES,exp,45,17,False,4,-1,1,6,1.1673767999745905,-
Y2-S2-179K21,28,SQUARES,exp,45,17,True,5,-1,0,-,0.41755790007300675,-
Y2-S2-179K21,29,SQUARES,exp,45,17,True,5,-1,0,-,0.35087800002656877,-
Y2-S2-179K21,30,SQUARES,exp,45,17,False,5,-1,0,-,2.034134899964556,-
Y2-S2-179K21,31,SQUARES,exp,45,17,True,6,-1,0,-,0.41741529991850257,-
Y2-S2-179K21,32,SQUARES,exp,45,17,True,6,-1,0,-,0.4176127999089658,-
Y2-S2-179K21,33,SQUARES,exp,45,17,True,6,1,1,7,0.3674621998798102,-
Y2-S2-179K21,34,SQUARES,exp,45,17,True,5,1,0,-,1.350823099957779,-
Y2-S2-179K21,35,SQUARES,exp,45,17,True,5,1,0,-,1.0838069000747055,-
Y2-S2-179K21,36,SQUARES,exp,45,17,True,5,1,0,-,0.38408039999194443,-
Y2-S2-179K21,37,SQUARES,exp,45,17,True,4,1,0,-,1.2341000000014901,-
Y2-S2-179K21,38,SQUARES,exp,45,17,True,4,1,0,-,0.6342248998116702,-
Y2-S2-179K21,39,SQUARES,exp,45,17,True,4,1,0,-,0.600825099973008,-
Y2-S2-179K21,40,SQUARES,exp,45,17,True,3,1,0,-,0.4173649000003934,-
Y2-S2-179K21,41,SQUARES,exp,45,17,False,3,-1,1,8,0.6675053001381457,-
Y2-S2-179K21,42,SQUARES,exp,45,17,True,4,-1,0,-,1.8170163999311626,-
Y2-S2-179K21,43,SQUARES,exp,45,17,True,4,-1,0,-,0.38403220009058714,-
Y2-S2-179K21,44,SQUARES,exp,45,17,False,4,-1,0,-,1.2843719001393765,-
Y2-S2-179K21,45,SQUARES,exp,45,17,True,5,-1,0,-,0.26752739981748164,-
Y2-S2-179K21,46,SQUARES,exp,45,17,True,5,-1,0,-,0.1837204999756068,-
Y2-S2-179K21,47,SQUARES,exp,45,17,True,5,1,1,9,0.11768769985064864,-
Y2-S2-179K21,48,SQUARES,exp,45,17,False,4,-1,1,10,0.4013176001608372,-
Y2-S2-179K21,49,SQUARES,exp,45,17,True,5,-1,0,-,0.2005893001332879,-
Y2-S2-179K21,50,SQUARES,exp,45,17,True,5,-1,0,-,0.20088050002232194,-
Y2-S2-179K21,51,SQUARES,exp,45,17,True,5,1,1,11,0.36776669998653233,-
Y2-S2-179K21,52,SQUARES,exp,45,17,True,4,1,0,-,1.251036899862811,-
Y2-S2-179K21,53,SQUARES,exp,45,17,True,4,1,0,-,0.3676533999387175,-
Y2-S2-179K21,54,SQUARES,exp,45,17,False,4,-1,1,12,0.13390390016138554,-
Y2-S2-179K21,55,SQUARES,exp,45,17,False,5,-1,0,-,0.4837646000087261,-
Y2-S2-179K21,56,SQUARES,exp,45,17,True,6,-1,0,-,0.4672864000312984,-
Y2-S2-179K21,57,SQUARES,exp,45,17,True,6,-1,0,-,0.4006443000398576,-
Y2-S2-179K21,58,SQUARES,exp,45,17,True,6,1,1,13,0.3508493001572788,-
Y2-S2-179K21,59,SQUARES,exp,45,17,True,5,1,0,-,0.4176590999122709,-
Y2-S2-179K21,60,SQUARES,exp,45,17,True,5,1,0,-,0.23448430001735687,-
Y2-S2-179K21,61,SQUARES,exp,45,17,True,5,1,0,-,0.350744100054726,-
Y2-S2-179K21,62,SQUARES,exp,45,17,True,4,1,0,-,0.3842156999744475,-
Y2-S2-179K21,63,SQUARES,exp,45,17,True,4,1,0,-,0.21757080010138452,-
Y2-S2-179K21,64,SQUARES,exp,45,17,False,4,-1,1,14,1.3337183999828994,-
Y2-S2-179K21,65,SQUARES,exp,45,17,True,5,-1,0,-,0.21713629993610084,-
Y2-S2-179K21,66,SQUARES,exp,45,17,True,5,-1,0,-,0.2175561001058668,-
Y2-S2-179K21,67,SQUARES,exp,45,17,True,5,1,1,15,0.10047530010342598,-
Y2-S2-179K21,68,SQUARES,exp,45,17,True,4,1,0,-,0.31727040000259876,-
Y2-S2-179K21,69,SQUARES,exp,45,17,True,4,1,0,-,0.2673635999672115,-
Y2-S2-179K21,70,SQUARES,exp,45,17,True,4,1,0,-,0.10083379992283881,-
Y2-S2-179K21,71,SQUARES,exp,45,17,True,3,1,0,-,0.30073349992744625,-
Y2-S2-179K21,72,SQUARES,exp,45,17,False,3,-1,1,16,0.7010069999378175,-
Y2-S2-179K21,1,CIRCLES,training,45,17,True,20,-,-,-,1.1175001999363303,-
Y2-S2-179K21,2,CIRCLES,training,45,17,True,20,-,-,-,0.4169758998323232,-
Y2-S2-179K21,3,CIRCLES,training,45,17,True,20,-,-,-,2.084155200049281,-
Y2-S2-179K21,4,CIRCLES,training,45,17,True,20,-,-,-,0.25075990008190274,-
Y2-S2-179K21,5,CIRCLES,training,45,17,True,20,-,-,-,0.2841540998779237,-
Y2-S2-179K21,6,CIRCLES,training,45,17,False,20,-,-,-,-1.0,-
Y2-S2-179K21,7,CIRCLES,training,45,17,True,20,-,-,-,0.483766500139609,-
Y2-S2-179K21,8,CIRCLES,training,45,17,True,20,-,-,-,0.4174945999402553,-
Y2-S2-179K21,9,CIRCLES,training,45,17,True,20,-,-,-,0.8010184001177549,-
Y2-S2-179K21,10,CIRCLES,training,45,17,True,20,-,-,-,2.7010531998239458,-
Y2-S2-179K21,11,CIRCLES,training,45,17,True,10,-,-,-,0.10037569981068373,-
Y2-S2-179K21,12,CIRCLES,training,45,17,True,10,-,-,-,0.05031199986115098,-
Y2-S2-179K21,13,CIRCLES,training,45,17,True,10,-,-,-,0.8676064999308437,-
Y2-S2-179K21,14,CIRCLES,training,45,17,True,10,-,-,-,0.21745560015551746,-
Y2-S2-179K21,15,CIRCLES,training,45,17,True,10,-,-,-,3.550745700020343,-
Y2-S2-179K21,16,CIRCLES,training,45,17,True,10,-,-,-,0.10084989992901683,-
Y2-S2-179K21,17,CIRCLES,training,45,17,True,10,-,-,-,0.08421380002982914,-
Y2-S2-179K21,18,CIRCLES,training,45,17,True,10,-,-,-,0.01733210007660091,-
Y2-S2-179K21,19,CIRCLES,training,45,17,True,10,-,-,-,0.01757470006123185,-
Y2-S2-179K21,20,CIRCLES,training,45,17,True,10,-,-,-,0.9341822999995202,-
Y2-S2-179K21,1,CIRCLES,exp,45,17,True,10,0,0,0,0.2838352001272142,-
Y2-S2-179K21,2,CIRCLES,exp,45,17,False,10,-1,0,-,-1.0,-
Y2-S2-179K21,3,CIRCLES,exp,45,17,True,11,-1,0,-,0.48396959993988276,-
Y2-S2-179K21,4,CIRCLES,exp,45,17,True,11,-1,0,-,0.0008423000108450651,-
Y2-S2-179K21,5,CIRCLES,exp,45,17,True,11,1,1,1,0.9506874999497086,-
Y2-S2-179K21,6,CIRCLES,exp,45,17,True,10,1,0,-,0.2842035999055952,-
Y2-S2-179K21,7,CIRCLES,exp,45,17,True,10,1,0,-,0.2172807001043111,-
Y2-S2-179K21,8,CIRCLES,exp,45,17,True,10,1,0,-,0.7343011000193655,-
Y2-S2-179K21,9,CIRCLES,exp,45,17,True,9,1,0,-,0.1505470999982208,-
Y2-S2-179K21,10,CIRCLES,exp,45,17,True,9,1,0,-,0.06728590000420809,-
Y2-S2-179K21,11,CIRCLES,exp,45,17,True,9,1,0,-,0.2176258999388665,-
Y2-S2-179K21,12,CIRCLES,exp,45,17,True,8,1,0,-,0.2675229001324624,-
Y2-S2-179K21,13,CIRCLES,exp,45,17,True,8,1,0,-,0.1842245999723673,-
Y2-S2-179K21,14,CIRCLES,exp,45,17,True,8,1,0,-,0.2510015999432653,-
Y2-S2-179K21,15,CIRCLES,exp,45,17,True,7,1,0,-,0.18392709991894662,-
Y2-S2-179K21,16,CIRCLES,exp,45,17,True,7,1,0,-,0.15081449993886054,-
Y2-S2-179K21,17,CIRCLES,exp,45,17,True,7,1,0,-,0.16748409997671843,-
Y2-S2-179K21,18,CIRCLES,exp,45,17,True,6,1,0,-,0.217381700174883,-
Y2-S2-179K21,19,CIRCLES,exp,45,17,True,6,1,0,-,0.9505121000111103,-
Y2-S2-179K21,20,CIRCLES,exp,45,17,True,6,1,0,-,0.15065210009925067,-
Y2-S2-179K21,21,CIRCLES,exp,45,17,True,5,1,0,-,0.36756049981340766,-
Y2-S2-179K21,22,CIRCLES,exp,45,17,True,5,1,0,-,0.1005591000430286,-
Y2-S2-179K21,23,CIRCLES,exp,45,17,True,5,1,0,-,0.4007536999415606,-
Y2-S2-179K21,24,CIRCLES,exp,45,17,False,4,-1,1,2,0.767099300166592,-
Y2-S2-179K21,25,CIRCLES,exp,45,17,True,5,-1,0,-,0.46758410008624196,-
Y2-S2-179K21,26,CIRCLES,exp,45,17,True,5,-1,0,-,1.4342580998782068,-
Y2-S2-179K21,27,CIRCLES,exp,45,17,True,5,1,1,3,0.4506765999831259,-
Y2-S2-179K21,28,CIRCLES,exp,45,17,True,4,1,0,-,0.23440789990127087,-
Y2-S2-179K21,29,CIRCLES,exp,45,17,True,4,1,0,-,0.43408260005526245,-
Y2-S2-179K21,30,CIRCLES,exp,45,17,True,4,1,0,-,0.31781969987787306,-
Y2-S2-179K21,31,CIRCLES,exp,45,17,True,3,1,0,-,0.4509401998948306,-
Y2-S2-179K21,32,CIRCLES,exp,45,17,True,3,1,0,-,0.6673980001360178,-
Y2-S2-179K21,33,CIRCLES,exp,45,17,False,3,-1,1,4,0.7010887998621911,-
Y2-S2-179K21,34,CIRCLES,exp,45,17,True,4,-1,0,-,0.817479700082913,-
Y2-S2-179K21,35,CIRCLES,exp,45,17,True,4,-1,0,-,0.6840584999881685,-
Y2-S2-179K21,36,CIRCLES,exp,45,17,False,4,-1,0,-,0.35102490009739995,-
Y2-S2-179K21,37,CIRCLES,exp,45,17,True,5,-1,0,-,0.2004275000654161,-
Y2-S2-179K21,38,CIRCLES,exp,45,17,True,5,-1,0,-,0.18426370015367866,-
Y2-S2-179K21,39,CIRCLES,exp,45,17,True,5,1,1,5,0.23411089996807277,-
Y2-S2-179K21,40,CIRCLES,exp,45,17,True,4,1,0,-,0.2507584998384118,-
Y2-S2-179K21,41,CIRCLES,exp,45,17,True,4,1,0,-,0.2339957000222057,-
Y2-S2-179K21,42,CIRCLES,exp,45,17,True,4,1,0,-,0.3842875000555068,-
Y2-S2-179K21,43,CIRCLES,exp,45,17,True,3,1,0,-,0.7006113000679761,-
Y2-S2-179K21,44,CIRCLES,exp,45,17,True,3,1,0,-,0.31740309996530414,-
Y2-S2-179K21,45,CIRCLES,exp,45,17,True,3,1,0,-,0.5343927000649273,-
Y2-S2-179K21,46,CIRCLES,exp,45,17,True,2,1,0,-,0.5844696001149714,-
Y2-S2-179K21,47,CIRCLES,exp,45,17,True,2,1,0,-,0.46759180002845824,-
Y2-S2-179K21,48,CIRCLES,exp,45,17,True,2,1,0,-,0.4675685002002865,-
Y2-S2-179K21,49,CIRCLES,exp,45,17,False,1,-1,1,6,0.4173437999561429,-
Y2-S2-179K21,50,CIRCLES,exp,45,17,False,2,-1,0,-,0.28412399999797344,-
Y2-S2-179K21,51,CIRCLES,exp,45,17,False,3,-1,0,-,0.5174201999325305,-
Y2-S2-179K21,52,CIRCLES,exp,45,17,True,4,-1,0,-,0.45055730012245476,-
Y2-S2-179K21,53,CIRCLES,exp,45,17,True,4,-1,0,-,1.250347499968484,-
Y2-S2-179K21,54,CIRCLES,exp,45,17,False,4,-1,0,-,0.5507918999064714,-
Y2-S2-179K21,55,CIRCLES,exp,45,17,False,5,-1,0,-,1.0843789000064135,-
Y2-S2-179K21,56,CIRCLES,exp,45,17,False,6,-1,0,-,2.7175384999718517,-
Y2-S2-179K21,57,CIRCLES,exp,45,17,True,7,-1,0,-,0.43427329999394715,-
Y2-S2-179K21,58,CIRCLES,exp,45,17,True,7,-1,0,-,0.267241699853912,-
Y2-S2-179K21,59,CIRCLES,exp,45,17,True,7,1,1,7,0.500614499906078,-
Y2-S2-179K21,60,CIRCLES,exp,45,17,True,6,1,0,-,0.7670968999154866,-
Y2-S2-179K21,61,CIRCLES,exp,45,17,True,6,1,0,-,0.36682049999944866,-
Y2-S2-179K21,62,CIRCLES,exp,45,17,True,6,1,0,-,0.2342888000421226,-
Y2-S2-179K21,63,CIRCLES,exp,45,17,True,5,1,0,-,0.3341367000248283,-
Y2-S2-179K21,64,CIRCLES,exp,45,17,True,5,1,0,-,0.3508115999866277,-
Y2-S2-179K21,65,CIRCLES,exp,45,17,True,5,1,0,-,0.18407099996693432,-
Y2-S2-179K21,66,CIRCLES,exp,45,17,False,4,-1,1,8,0.317189599853009,-
Y2-S2-179K21,67,CIRCLES,exp,45,17,True,5,-1,0,-,1.3840529001317918,-
Y2-S2-179K21,68,CIRCLES,exp,45,17,True,5,-1,0,-,0.2508916000369936,-
Y2-S2-179K21,69,CIRCLES,exp,45,17,True,5,1,1,9,0.3675062002148479,-
Y2-S2-179K21,70,CIRCLES,exp,45,17,True,4,1,0,-,0.7008817999158055,-
Y2-S2-179K21,71,CIRCLES,exp,45,17,True,4,1,0,-,0.43418939993716776,-
Y2-S2-179K21,72,CIRCLES,exp,45,17,False,4,-1,1,10,0.38390880008228123,-
Y2-S2-179K21,73,CIRCLES,exp,45,17,True,5,-1,0,-,0.46763779991306365,-
Y2-S2-179K21,74,CIRCLES,exp,45,17,True,5,-1,0,-,0.41737419995479286,-
Y2-S2-179K21,75,CIRCLES,exp,45,17,True,5,1,1,11,0.18380030011758208,-
Y2-S2-179K21,76,CIRCLES,exp,45,17,True,4,1,0,-,0.23427529982291162,-
Y2-S2-179K21,77,CIRCLES,exp,45,17,True,4,1,0,-,0.2173723999876529,-
Y2-S2-179K21,78,CIRCLES,exp,45,17,False,4,-1,1,12,0.5841614999808371,-
Y2-S2-179K21,79,CIRCLES,exp,45,17,True,5,-1,0,-,0.2506691999733448,-
Y2-S2-179K21,80,CIRCLES,exp,45,17,True,5,-1,0,-,0.2841973998583853,-
Y2-S2-179K21,81,CIRCLES,exp,45,17,False,5,-1,0,-,0.6006823999341577,-
Y2-S2-179K21,82,CIRCLES,exp,45,17,True,6,-1,0,-,0.1842209999449551,-
Y2-S2-179K21,83,CIRCLES,exp,45,17,True,6,-1,0,-,0.16712230001576245,-
Y2-S2-179K21,84,CIRCLES,exp,45,17,False,6,-1,0,-,0.40093409991823137,-
Y2-S2-179K21,85,CIRCLES,exp,45,17,True,7,-1,0,-,0.11787089984863997,-
Y2-S2-179K21,86,CIRCLES,exp,45,17,True,7,-1,0,-,0.21715689986012876,-
Y2-S2-179K21,87,CIRCLES,exp,45,17,True,7,1,1,13,0.20071420003660023,-
Y2-S2-179K21,88,CIRCLES,exp,45,17,True,6,1,0,-,0.13422110001556575,-
Y2-S2-179K21,89,CIRCLES,exp,45,17,True,6,1,0,-,0.1508402000181377,-
Y2-S2-179K21,90,CIRCLES,exp,45,17,True,6,1,0,-,0.15066180005669594,-
Y2-S2-179K21,91,CIRCLES,exp,45,17,True,5,1,0,-,0.21762340003624558,-
Y2-S2-179K21,92,CIRCLES,exp,45,17,True,5,1,0,-,0.21717850002460182,-
Y2-S2-179K21,93,CIRCLES,exp,45,17,True,5,1,0,-,0.06740120006725192,-
Y2-S2-179K21,94,CIRCLES,exp,45,17,True,4,1,0,-,1.25086889998056,-
Y2-S2-179K21,95,CIRCLES,exp,45,17,False,4,-1,1,14,0.6343004000373185,-
Y2-S2-179K21,96,CIRCLES,exp,45,17,True,5,-1,0,-,0.2006860999390483,-
Y2-S2-179K21,97,CIRCLES,exp,45,17,True,5,-1,0,-,0.4672565998043865,-
Y2-S2-179K21,98,CIRCLES,exp,45,17,True,5,1,1,15,0.41745930002070963,-
Y2-S2-179K21,99,CIRCLES,exp,45,17,True,4,1,0,-,0.3841488000471145,-
Y2-S2-179K21,100,CIRCLES,exp,45,17,True,4,1,0,-,1.1007677000015974,-
Y2-S2-179K21,101,CIRCLES,exp,45,17,True,4,1,0,-,0.2840321999974549,-
Y2-S2-179K21,102,CIRCLES,exp,45,17,True,3,1,0,-,0.28391889994964004,-
Y2-S2-179K21,103,CIRCLES,exp,45,17,False,3,-1,1,16,1.1343818998429924,-
