PART_ID,Trial_no,Trial_type,CSI,Stim_letter,Key_pressed,letter_choose,Rt,Corr,Stimulus Time,nDropped
AC-K-24K24S1,1,training,120,↓,no_key,no_letter,-1.0,False,60,0
AC-K-24K24S1,2,training,120,→,right,→,1.1911967999767512,True,60,0
AC-K-24K24S1,3,training,120,↑,up,↑,1.264293699990958,True,60,0
AC-K-24K24S1,4,training,120,→,right,→,1.0943231000564992,True,60,0
AC-K-24K24S1,5,training,120,→,right,→,1.0352212999714538,True,60,0
AC-K-24K24S1,6,training,120,→,right,→,1.1945184000069275,True,60,0
AC-K-24K24S1,7,training,120,↓,down,↓,1.147520500002429,True,60,0
AC-K-24K24S1,8,training,120,↓,down,↓,1.0623942000092939,True,60,0
AC-K-24K24S1,9,training,120,←,left,←,1.0365513999713585,True,60,0
AC-K-24K24S1,10,training,120,↓,down,↓,1.2039262000471354,True,60,0
AC-K-24K24S1,11,training,120,↑,up,↑,0.8687697999412194,True,60,0
AC-K-24K24S1,12,training,120,↑,up,↑,1.4582929000025615,True,60,0
AC-K-24K24S1,13,training,120,→,right,→,1.0804084999253973,True,60,0
AC-K-24K24S1,14,training,120,↓,down,↓,0.8383631999604404,True,60,0
AC-K-24K24S1,15,training,120,←,left,←,0.9573783000232652,True,60,0
AC-K-24K24S1,16,training,120,←,left,←,0.9759074999019504,True,60,0
AC-K-24K24S1,17,training,120,↓,down,↓,0.9455733000067994,True,60,0
AC-K-24K24S1,18,training,120,↑,up,↑,0.7562516999896616,True,60,0
AC-K-24K24S1,19,training,120,↓,down,↓,0.6419929000549018,True,60,0
AC-K-24K24S1,20,training,120,↓,down,↓,0.6701641000108793,True,60,0
AC-K-24K24S1,21,no_adaptation,120,←,left,←,0.6195951999397948,True,36,0
AC-K-24K24S1,22,no_adaptation,120,↓,down,↓,0.7154664000263438,True,36,0
AC-K-24K24S1,23,no_adaptation,120,↑,up,↑,0.7272519000107422,True,36,0
AC-K-24K24S1,24,no_adaptation,120,→,up,↑,1.2188600999070331,False,36,0
AC-K-24K24S1,25,no_adaptation,120,↓,down,↓,0.7709785000188276,True,36,0
AC-K-24K24S1,26,no_adaptation,120,↓,down,↓,0.7565832999534905,True,36,0
AC-K-24K24S1,27,no_adaptation,120,←,left,←,0.6071132000070065,True,36,0
AC-K-24K24S1,28,no_adaptation,120,→,down,↓,0.47916590003296733,False,36,0
AC-K-24K24S1,29,no_adaptation,120,↑,up,↑,0.7644542000489309,True,36,0
AC-K-24K24S1,30,no_adaptation,120,↓,down,↓,0.6704973999876529,True,36,0
AC-K-24K24S1,31,no_adaptation,120,↑,up,↑,0.7965330000733957,True,36,0
AC-K-24K24S1,32,no_adaptation,120,↓,up,↑,0.7971485999878496,False,36,0
AC-K-24K24S1,33,no_adaptation,120,↓,down,↓,0.6300035000313073,True,36,0
AC-K-24K24S1,34,no_adaptation,120,↑,up,↑,0.7656222999794409,True,36,0
AC-K-24K24S1,35,no_adaptation,120,←,left,←,0.8075740999775007,True,36,0
AC-K-24K24S1,36,no_adaptation,120,↑,up,↑,0.8401226999703795,True,36,0
AC-K-24K24S1,37,no_adaptation,120,→,right,→,0.7911134000169113,True,36,0
AC-K-24K24S1,38,no_adaptation,120,→,right,→,0.6483799999114126,True,36,0
AC-K-24K24S1,39,no_adaptation,120,←,right,→,0.9591198000125587,False,36,0
AC-K-24K24S1,40,no_adaptation,120,←,left,←,0.5854263000655919,True,36,0
AC-K-24K24S1,41,training,95,←,left,←,0.7140483999392018,True,36,0
AC-K-24K24S1,42,training,51,↑,up,↑,0.5889257999369875,True,36,1
AC-K-24K24S1,43,experiment,72,←,left,←,0.9815833999309689,True,36,1
AC-K-24K24S1,44,experiment,71,←,right,→,0.6317138000158593,False,36,1
AC-K-24K24S1,45,experiment,92,↑,up,↑,0.6482873000204563,True,36,1
AC-K-24K24S1,46,experiment,60,↓,down,↓,0.6428248999873176,True,36,1
AC-K-24K24S1,47,experiment,69,←,left,←,0.5708397999405861,True,36,1
AC-K-24K24S1,48,experiment,94,↑,down,↓,0.9652149999747053,False,36,1
AC-K-24K24S1,49,experiment,50,←,left,←,0.5105317999841645,True,36,1
AC-K-24K24S1,50,experiment,70,→,right,→,0.6590466999914497,True,36,1
AC-K-24K24S1,51,experiment,106,↓,down,↓,0.7101502999430522,True,36,1
AC-K-24K24S1,52,experiment,57,→,down,↓,1.0312960000010207,False,36,1
AC-K-24K24S1,53,experiment,80,→,right,→,0.6442123999586329,True,36,1
AC-K-24K24S1,54,experiment,101,↑,down,↓,0.7538272999227047,False,36,1
AC-K-24K24S1,55,experiment,78,←,left,←,0.681888599996455,True,36,1
AC-K-24K24S1,56,experiment,95,←,left,←,0.7115203000139445,True,36,1
AC-K-24K24S1,57,experiment,91,→,right,→,0.8610543000977486,True,36,1
AC-K-24K24S1,58,experiment,107,→,right,→,0.8239789999788627,True,36,1
AC-K-24K24S1,59,experiment,55,→,right,→,0.7173544999677688,True,36,1
AC-K-24K24S1,60,experiment,104,←,left,←,0.9826117999618873,True,36,1
AC-K-24K24S1,61,experiment,64,↑,up,↑,0.8346748000476509,True,36,1
AC-K-24K24S1,62,experiment,53,→,right,→,0.7443998999660835,True,36,1
AC-K-24K24S1,63,experiment,54,→,right,→,0.6973506000358611,True,36,1
AC-K-24K24S1,64,experiment,83,↓,down,↓,0.7783922998933122,True,36,1
AC-K-24K24S1,65,experiment,49,↑,up,↑,0.8512912000296637,True,36,1
AC-K-24K24S1,66,experiment,86,↑,up,↑,0.8294199999654666,True,36,1
AC-K-24K24S1,67,experiment,105,→,right,→,0.9216864999616519,True,36,1
AC-K-24K24S1,68,experiment,79,←,left,←,0.6992702999850735,True,36,1
AC-K-24K24S1,69,experiment,84,→,right,→,0.7238819999620318,True,36,1
AC-K-24K24S1,70,experiment,52,↑,up,↑,0.7664326999802142,True,36,1
AC-K-24K24S1,71,experiment,73,→,right,→,0.8558793000411242,True,36,1
AC-K-24K24S1,72,experiment,108,←,left,←,0.8662733000237495,True,36,1
AC-K-24K24S1,73,experiment,51,←,left,←,0.735297100036405,True,36,1
AC-K-24K24S1,74,experiment,75,←,left,←,1.345482400036417,True,36,1
AC-K-24K24S1,75,experiment,63,→,right,→,0.8315421000588685,True,36,1
AC-K-24K24S1,76,experiment,62,↓,up,↑,1.010079599916935,False,36,1
AC-K-24K24S1,77,experiment,88,↑,up,↑,0.9010429000481963,True,36,1
AC-K-24K24S1,78,experiment,85,↓,down,↓,0.8054158999584615,True,36,1
AC-K-24K24S1,79,experiment,67,→,right,→,0.9272148000309244,True,36,1
AC-K-24K24S1,80,experiment,99,↓,down,↓,0.8896039999090135,True,36,1
AC-K-24K24S1,81,experiment,58,←,left,←,0.8034144999692217,True,36,1
AC-K-24K24S1,82,experiment,93,↑,up,↑,0.7806395000079647,True,36,1
AC-K-24K24S1,83,experiment,87,→,right,→,0.9611165999667719,True,36,1
AC-K-24K24S1,84,experiment,48,↑,up,↑,1.1394557999446988,True,36,1
AC-K-24K24S1,85,experiment,82,→,right,→,0.7873473000945523,True,36,1
AC-K-24K24S1,86,experiment,89,↑,up,↑,0.7665789000457153,True,36,1
AC-K-24K24S1,87,experiment,68,↑,up,↑,0.7620171000016853,True,36,1
AC-K-24K24S1,88,experiment,59,↑,up,↑,0.9127045999048278,True,36,1
AC-K-24K24S1,89,experiment,76,←,left,←,0.7633002999937162,True,36,1
AC-K-24K24S1,90,experiment,81,←,left,←,0.7145110999699682,True,36,1
AC-K-24K24S1,91,experiment,61,↑,up,↑,0.8499135999009013,True,36,1
AC-K-24K24S1,92,experiment,102,→,right,→,0.9827649000799283,True,36,1
AC-K-24K24S1,93,experiment,103,↑,up,↑,0.8220087999943644,True,36,1
AC-K-24K24S1,94,experiment,65,→,right,→,0.8160936000058427,True,36,1
AC-K-24K24S1,95,experiment,100,↓,down,↓,0.8066546999616548,True,36,1
AC-K-24K24S1,96,experiment,97,↑,up,↑,0.7347386999754235,True,36,1
AC-K-24K24S1,97,experiment,74,↑,up,↑,0.7215021000010893,True,36,1
AC-K-24K24S1,98,experiment,77,→,right,→,0.6435237000696361,True,36,1
AC-K-24K24S1,99,experiment,98,←,left,←,0.6659757000161335,True,36,1
AC-K-24K24S1,100,experiment,66,←,left,←,0.7937410000013188,True,36,1
AC-K-24K24S1,101,experiment,96,←,left,←,0.7308729999931529,True,36,1
AC-K-24K24S1,102,experiment,56,↓,down,↓,0.8034404999343678,True,36,1
AC-K-24K24S1,103,experiment,90,→,right,→,0.797613300033845,True,36,1
AC-K-24K24S1,104,training,81,→,right,→,0.6032309000147507,True,35,0
AC-K-24K24S1,105,training,106,↑,up,↑,0.6323245000094175,True,35,1
AC-K-24K24S1,106,experiment,55,←,left,←,0.709162799990736,True,35,1
AC-K-24K24S1,107,experiment,107,←,left,←,0.8778296000091359,True,35,1
AC-K-24K24S1,108,experiment,102,→,right,→,0.5616178000345826,True,35,1
AC-K-24K24S1,109,experiment,96,←,left,←,0.6441271000076085,True,35,1
AC-K-24K24S1,110,experiment,94,↓,down,↓,0.6913046000991017,True,35,1
AC-K-24K24S1,111,experiment,78,←,left,←,0.6941332999849692,True,35,1
AC-K-24K24S1,112,experiment,69,→,right,→,0.8282161999959499,True,35,1
AC-K-24K24S1,113,experiment,60,↑,up,↑,0.703668599948287,True,35,1
AC-K-24K24S1,114,experiment,99,→,right,→,0.5870903000468388,True,35,1
AC-K-24K24S1,115,experiment,87,↑,up,↑,0.7349640000611544,True,35,1
AC-K-24K24S1,116,experiment,51,↓,down,↓,0.697127899969928,True,35,1
AC-K-24K24S1,117,experiment,85,↑,up,↑,0.7616998000303283,True,35,1
AC-K-24K24S1,118,experiment,95,→,left,←,0.7718823999166489,False,35,1
AC-K-24K24S1,119,experiment,100,↓,down,↓,0.8923350999830291,True,35,1
AC-K-24K24S1,120,experiment,62,→,right,→,0.7007492000702769,True,35,1
AC-K-24K24S1,121,experiment,49,↓,down,↓,0.6570095999632031,True,35,1
AC-K-24K24S1,122,experiment,66,↓,down,↓,0.7132669999264181,True,35,1
AC-K-24K24S1,123,experiment,72,←,left,←,0.9890541000058874,True,35,1
AC-K-24K24S1,124,experiment,48,↑,up,↑,0.8222956999670714,True,35,1
AC-K-24K24S1,125,experiment,68,↓,down,↓,0.7110287999967113,True,35,1
AC-K-24K24S1,126,experiment,56,↓,down,↓,0.79234359995462,True,35,1
AC-K-24K24S1,127,experiment,58,←,left,←,0.9420270000118762,True,35,1
AC-K-24K24S1,128,experiment,73,←,left,←,0.8647452000295743,True,35,1
AC-K-24K24S1,129,experiment,104,→,right,→,0.8040838999440894,True,35,1
AC-K-24K24S1,130,experiment,53,→,right,→,0.7471950999461114,True,35,1
AC-K-24K24S1,131,experiment,71,→,right,→,0.7421862001065165,True,35,1
AC-K-24K24S1,132,experiment,106,↑,up,↑,0.8778304998995736,True,35,1
AC-K-24K24S1,133,experiment,83,↓,up,↑,0.9519559999462217,False,35,1
AC-K-24K24S1,134,experiment,65,←,left,←,1.0290773999877274,True,35,1
AC-K-24K24S1,135,experiment,88,←,left,←,1.0231976999202743,True,35,1
AC-K-24K24S1,136,experiment,105,←,left,←,0.8039059001021087,True,35,1
AC-K-24K24S1,137,experiment,93,→,right,→,0.7014131000032648,True,35,1
AC-K-24K24S1,138,experiment,92,→,right,→,0.8594334999797866,True,35,1
AC-K-24K24S1,139,experiment,54,↓,down,↓,0.6157425000565127,True,35,1
AC-K-24K24S1,140,experiment,67,↓,down,↓,0.7295298000099137,True,35,1
AC-K-24K24S1,141,experiment,50,↓,down,↓,0.6358995999908075,True,35,1
AC-K-24K24S1,142,experiment,82,↓,down,↓,0.7599014999577776,True,35,1
AC-K-24K24S1,143,experiment,97,←,left,←,0.9460822999244556,True,35,1
AC-K-24K24S1,144,experiment,76,→,right,→,0.7874797000549734,True,35,1
AC-K-24K24S1,145,experiment,90,↑,up,↑,0.7265599999809638,True,35,1
AC-K-24K24S1,146,experiment,80,→,right,→,0.6474425999913365,True,35,1
AC-K-24K24S1,147,experiment,75,↑,up,↑,0.7095911999931559,True,35,1
AC-K-24K24S1,148,experiment,81,↓,down,↓,0.4707048999844119,True,35,1
AC-K-24K24S1,149,experiment,108,↓,down,↓,0.7599419000325724,True,35,1
AC-K-24K24S1,150,experiment,89,←,left,←,0.5648138000397012,True,35,1
AC-K-24K24S1,151,experiment,64,↓,left,←,0.9854405000805855,False,35,1
AC-K-24K24S1,152,experiment,101,→,right,→,0.7933274999959394,True,35,1
AC-K-24K24S1,153,experiment,86,↓,down,↓,0.9013049999484792,True,35,1
AC-K-24K24S1,154,experiment,84,↑,up,↑,0.8059417000040412,True,35,1
AC-K-24K24S1,155,experiment,61,↑,up,↑,0.7220974999945611,True,35,1
AC-K-24K24S1,156,experiment,98,←,left,←,0.6610806001117453,True,35,1
AC-K-24K24S1,157,experiment,59,↓,down,↓,0.5196675000479445,True,35,1
AC-K-24K24S1,158,experiment,103,←,left,←,0.665189899969846,True,35,1
AC-K-24K24S1,159,experiment,63,→,right,→,0.7302276999689639,True,35,1
AC-K-24K24S1,160,experiment,79,↓,down,↓,0.4260850000428036,True,35,1
AC-K-24K24S1,161,experiment,74,←,left,←,0.5937867999309674,True,35,1
AC-K-24K24S1,162,experiment,70,←,left,←,0.659423700068146,True,35,1
AC-K-24K24S1,163,experiment,57,↑,up,↑,0.7826312999241054,True,35,1
AC-K-24K24S1,164,experiment,77,↑,no_key,no_letter,-1.0,False,35,1
AC-K-24K24S1,165,experiment,52,←,left,←,0.6953684999607503,True,35,1
AC-K-24K24S1,166,experiment,91,↑,up,↑,0.6698492000577971,True,35,1
AC-K-24K24S1,167,training,50,←,left,←,0.6992617000360042,True,34,0
AC-K-24K24S1,168,training,57,↑,up,↑,0.580651200027205,True,34,1
AC-K-24K24S1,169,experiment,89,↑,up,↑,0.5044865000527352,True,34,1
AC-K-24K24S1,170,experiment,52,↑,up,↑,0.5476717000128701,True,34,1
AC-K-24K24S1,171,experiment,78,←,left,←,0.5641507999971509,True,34,1
AC-K-24K24S1,172,experiment,95,↑,up,↑,0.6544636000180617,True,34,1
AC-K-24K24S1,173,experiment,93,↑,up,↑,0.8537497000070289,True,34,1
AC-K-24K24S1,174,experiment,60,→,right,→,0.6881674999604002,True,34,1
AC-K-24K24S1,175,experiment,74,↓,down,↓,0.7804127999115735,True,34,1
AC-K-24K24S1,176,experiment,50,↓,down,↓,0.7250676000257954,True,34,1
AC-K-24K24S1,177,experiment,62,↓,down,↓,0.7160929999081418,True,34,1
AC-K-24K24S1,178,experiment,102,→,left,←,0.758024699985981,False,34,1
AC-K-24K24S1,179,experiment,64,↑,up,↑,0.6833727000048384,True,34,1
AC-K-24K24S1,180,experiment,98,↑,up,↑,0.7838073999155313,True,34,1
AC-K-24K24S1,181,experiment,107,↓,down,↓,0.7735406999709085,True,34,1
AC-K-24K24S1,182,experiment,48,↑,up,↑,0.5352509999647737,True,34,1
AC-K-24K24S1,183,experiment,79,↓,down,↓,0.4719656999222934,True,34,1
AC-K-24K24S1,184,experiment,100,↑,up,↑,0.8520435999380425,True,34,1
AC-K-24K24S1,185,experiment,76,→,right,→,0.7453924999572337,True,34,1
AC-K-24K24S1,186,experiment,56,↓,down,↓,0.681360499933362,True,34,1
AC-K-24K24S1,187,experiment,67,←,left,←,1.120429900009185,True,34,1
AC-K-24K24S1,188,experiment,84,↑,up,↑,1.0079449999611825,True,34,1
AC-K-24K24S1,189,experiment,70,↓,up,↑,0.9611583000514656,False,34,1
AC-K-24K24S1,190,experiment,91,↑,up,↑,0.7493333000456914,True,34,1
AC-K-24K24S1,191,experiment,94,→,right,→,0.9847401001024991,True,34,1
AC-K-24K24S1,192,experiment,96,↓,down,↓,0.8657256999285892,True,34,1
AC-K-24K24S1,193,experiment,105,→,right,→,0.8931666000280529,True,34,1
AC-K-24K24S1,194,experiment,88,↑,up,↑,0.8048375999787822,True,34,1
AC-K-24K24S1,195,experiment,57,↑,up,↑,0.9220926000270993,True,34,1
AC-K-24K24S1,196,experiment,104,←,left,←,0.8672245000489056,True,34,1
AC-K-24K24S1,197,experiment,92,↓,up,↑,0.9706484999042004,False,34,1
AC-K-24K24S1,198,experiment,83,↓,down,↓,0.9526886000530794,True,34,1
AC-K-24K24S1,199,experiment,58,↓,down,↓,0.9280577000463381,True,34,1
AC-K-24K24S1,200,experiment,63,↑,up,↑,0.774821599945426,True,34,1
AC-K-24K24S1,201,experiment,90,↑,up,↑,0.8263657999923453,True,34,1
AC-K-24K24S1,202,experiment,72,→,up,↑,1.2422498000087216,False,34,1
AC-K-24K24S1,203,experiment,71,→,down,↓,1.2494312000926584,False,34,1
AC-K-24K24S1,204,experiment,82,↑,up,↑,0.8610818999586627,True,34,1
AC-K-24K24S1,205,experiment,85,↓,down,↓,0.815351500059478,True,34,1
AC-K-24K24S1,206,experiment,51,↓,down,↓,1.157974599977024,True,34,1
AC-K-24K24S1,207,experiment,86,→,right,→,1.0119286000262946,True,34,1
AC-K-24K24S1,208,experiment,81,←,left,←,0.8650815000291914,True,34,1
AC-K-24K24S1,209,experiment,68,←,left,←,1.1608430000487715,True,34,1
AC-K-24K24S1,210,experiment,69,←,left,←,1.227986600017175,True,34,1
AC-K-24K24S1,211,experiment,106,↑,up,↑,1.0164774000877514,True,34,1
AC-K-24K24S1,212,experiment,54,→,right,→,0.918518399936147,True,34,1
AC-K-24K24S1,213,experiment,80,→,right,→,1.2879758999915794,True,34,1
AC-K-24K24S1,214,experiment,66,↓,down,↓,1.0311259999871254,True,34,1
AC-K-24K24S1,215,experiment,108,↓,down,↓,1.1466504000127316,True,34,1
AC-K-24K24S1,216,experiment,53,↓,no_key,no_letter,-1.0,False,34,1
AC-K-24K24S1,217,experiment,61,↓,down,↓,0.970569199998863,True,34,1
AC-K-24K24S1,218,experiment,55,↑,up,↑,0.9938114000251517,True,34,1
AC-K-24K24S1,219,experiment,75,↑,up,↑,0.9618758999276906,True,34,1
AC-K-24K24S1,220,experiment,101,↑,up,↑,0.8347322000190616,True,34,1
AC-K-24K24S1,221,experiment,65,↓,down,↓,0.9883226999081671,True,34,1
AC-K-24K24S1,222,experiment,87,←,left,←,0.6323646999662742,True,34,1
AC-K-24K24S1,223,experiment,49,↑,up,↑,0.8393420999636874,True,34,1
AC-K-24K24S1,224,experiment,103,→,right,→,0.7401020999532193,True,34,1
AC-K-24K24S1,225,experiment,99,→,right,→,0.7742763999849558,True,34,1
AC-K-24K24S1,226,experiment,77,↓,down,↓,0.8542734999209642,True,34,1
AC-K-24K24S1,227,experiment,59,←,up,↑,0.8167134000686929,False,34,1
AC-K-24K24S1,228,experiment,97,→,right,→,0.632596299983561,True,34,1
AC-K-24K24S1,229,experiment,73,→,right,→,0.7595375999808311,True,34,1
AC-K-24K24S1,230,training,77,←,left,←,0.9541225000284612,True,34,0
AC-K-24K24S1,231,training,69,←,left,←,0.6935374001041055,True,34,1
AC-K-24K24S1,232,experiment,108,↓,down,↓,0.6945461999857798,True,34,1
AC-K-24K24S1,233,experiment,86,←,left,←,0.5509144000243396,True,34,1
AC-K-24K24S1,234,experiment,92,←,left,←,0.7627719000447541,True,34,1
AC-K-24K24S1,235,experiment,83,←,left,←,0.9294198000570759,True,34,1
AC-K-24K24S1,236,experiment,48,↓,left,←,0.9807571000419557,False,34,1
AC-K-24K24S1,237,experiment,103,→,right,→,0.8041702000191435,True,34,1
AC-K-24K24S1,238,experiment,68,↓,down,↓,0.9417592000681907,True,34,1
AC-K-24K24S1,239,experiment,65,↑,up,↑,0.7311585999559611,True,34,1
AC-K-24K24S1,240,experiment,63,↓,down,↓,1.0491459000622854,True,34,1
AC-K-24K24S1,241,experiment,64,↑,up,↑,0.722743000020273,True,34,1
AC-K-24K24S1,242,experiment,82,↑,up,↑,1.0430336999706924,True,34,1
AC-K-24K24S1,243,experiment,55,↑,up,↑,0.9521309999981895,True,34,1
AC-K-24K24S1,244,experiment,93,↓,down,↓,0.8196014000568539,True,34,1
AC-K-24K24S1,245,experiment,105,↑,no_key,no_letter,-1.0,False,34,1
AC-K-24K24S1,246,experiment,67,→,right,→,0.8134854000527412,True,34,1
AC-K-24K24S1,247,experiment,90,→,right,→,0.7752519999630749,True,34,1
AC-K-24K24S1,248,experiment,49,↓,down,↓,0.8326167000923306,True,34,1
AC-K-24K24S1,249,experiment,94,↑,up,↑,0.6970124999061227,True,34,1
AC-K-24K24S1,250,experiment,76,↑,up,↑,0.7481611000839621,True,34,1
AC-K-24K24S1,251,experiment,106,↑,left,←,1.0274549000896513,False,34,1
AC-K-24K24S1,252,experiment,69,↓,left,←,1.0999214999610558,False,34,1
AC-K-24K24S1,253,experiment,78,↑,up,↑,0.8466861000051722,True,34,1
AC-K-24K24S1,254,experiment,97,↑,up,↑,0.7250915000913665,True,34,1
AC-K-24K24S1,255,experiment,104,→,right,→,0.7343810999300331,True,34,1
AC-K-24K24S1,256,experiment,58,↑,up,↑,0.6943225000286475,True,34,1
AC-K-24K24S1,257,experiment,62,→,right,→,0.6704432000406086,True,34,1
AC-K-24K24S1,258,experiment,98,↑,left,←,1.0435995999723673,False,34,1
AC-K-24K24S1,259,experiment,79,↑,up,↑,0.8003251999616623,True,34,1
AC-K-24K24S1,260,experiment,52,↑,up,↑,0.7518121999455616,True,34,1
AC-K-24K24S1,261,experiment,74,←,left,←,0.6731050000526011,True,34,1
AC-K-24K24S1,262,experiment,91,→,right,→,0.8645516000688076,True,34,1
AC-K-24K24S1,263,experiment,51,↑,up,↑,0.853815000038594,True,34,1
AC-K-24K24S1,264,experiment,80,→,right,→,0.729270700016059,True,34,1
AC-K-24K24S1,265,experiment,66,←,left,←,0.8544198999879882,True,34,1
AC-K-24K24S1,266,experiment,101,↑,up,↑,0.9312913999892771,True,34,1
AC-K-24K24S1,267,experiment,81,→,right,→,0.8596999000292271,True,34,1
AC-K-24K24S1,268,experiment,99,↑,up,↑,1.1292804999975488,True,34,1
AC-K-24K24S1,269,experiment,72,→,right,→,0.6606445000506938,True,34,1
AC-K-24K24S1,270,experiment,54,↑,up,↑,0.6485353999305516,True,34,1
AC-K-24K24S1,271,experiment,57,←,left,←,0.6681951000355184,True,34,1
AC-K-24K24S1,272,experiment,77,←,left,←,0.6645649999845773,True,34,1
AC-K-24K24S1,273,experiment,56,←,left,←,0.6037321999901906,True,34,1
AC-K-24K24S1,274,experiment,102,→,right,→,0.5060999999986961,True,34,1
AC-K-24K24S1,275,experiment,88,↓,down,↓,0.8571041999384761,True,34,1
AC-K-24K24S1,276,experiment,85,↑,no_key,no_letter,-1.0,False,34,1
AC-K-24K24S1,277,experiment,89,↓,down,↓,0.7205306999385357,True,34,1
AC-K-24K24S1,278,experiment,70,→,right,→,0.7008457999909297,True,34,1
AC-K-24K24S1,279,experiment,61,→,right,→,0.6851879999740049,True,34,1
AC-K-24K24S1,280,experiment,71,↑,up,↑,0.7147292000008747,True,34,1
AC-K-24K24S1,281,experiment,96,↓,down,↓,0.7028746999567375,True,34,1
AC-K-24K24S1,282,experiment,60,→,right,→,0.7673397000180557,True,34,1
AC-K-24K24S1,283,experiment,50,→,right,→,1.2403469999553636,True,34,1
AC-K-24K24S1,284,experiment,100,↑,up,↑,0.8383305999450386,True,34,1
AC-K-24K24S1,285,experiment,84,←,left,←,0.4341814999934286,True,34,1
AC-K-24K24S1,286,experiment,59,→,down,↓,1.1005671001039445,False,34,0
AC-K-24K24S1,287,experiment,87,↑,up,↑,0.7001821999438107,True,34,1
AC-K-24K24S1,288,experiment,107,↑,up,↑,1.2534110000124201,True,34,1
AC-K-24K24S1,289,experiment,53,↑,up,↑,0.8826718999771401,True,34,1
AC-K-24K24S1,290,experiment,73,↓,down,↓,0.7515896999975666,True,34,1
AC-K-24K24S1,291,experiment,75,→,right,→,0.5208239000057802,True,34,1
AC-K-24K24S1,292,experiment,95,↓,down,↓,0.9968232000246644,True,34,1
AC-K-24K24S1,293,training,63,←,left,←,0.6332965999608859,True,34,0
AC-K-24K24S1,294,training,79,→,no_key,no_letter,-1.0,False,34,1
AC-K-24K24S1,295,experiment,84,←,left,←,0.42620240000542253,True,34,1
AC-K-24K24S1,296,experiment,74,→,right,→,0.5321279000490904,True,34,0
AC-K-24K24S1,297,experiment,55,↓,down,↓,0.5170588999753818,True,34,1
AC-K-24K24S1,298,experiment,103,←,left,←,0.7425574999069795,True,34,1
AC-K-24K24S1,299,experiment,51,↑,up,↑,0.3938111999304965,True,34,1
AC-K-24K24S1,300,experiment,71,↑,up,↑,0.5529650999233127,True,34,0
AC-K-24K24S1,301,experiment,85,←,left,←,0.35245730006136,True,34,1
AC-K-24K24S1,302,experiment,76,→,right,→,0.3678538999520242,True,34,0
AC-K-24K24S1,303,experiment,82,↑,up,↑,0.5416988999349996,True,34,0
AC-K-24K24S1,304,experiment,93,↑,up,↑,0.5377071000402793,True,34,1
AC-K-24K24S1,305,experiment,69,↓,down,↓,0.6376101999776438,True,34,1
AC-K-24K24S1,306,experiment,53,↑,up,↑,0.39212219999171793,True,34,1
AC-K-24K24S1,307,experiment,99,↑,up,↑,0.5224471000256017,True,34,0
AC-K-24K24S1,308,experiment,60,→,right,→,0.5459480000426993,True,34,1
AC-K-24K24S1,309,experiment,61,↑,up,↑,0.39285419997759163,True,34,1
AC-K-24K24S1,310,experiment,96,←,left,←,0.616916700033471,True,34,0
AC-K-24K24S1,311,experiment,57,↓,down,↓,0.7096684999996796,True,34,1
AC-K-24K24S1,312,experiment,106,↓,down,↓,0.6067187000298873,True,34,1
AC-K-24K24S1,313,experiment,80,←,left,←,0.5084364999784157,True,34,1
AC-K-24K24S1,314,experiment,90,←,left,←,0.5067794999340549,True,34,1
AC-K-24K24S1,315,experiment,52,→,right,→,0.493497799965553,True,34,1
AC-K-24K24S1,316,experiment,89,←,left,←,0.5086512999841943,True,34,1
AC-K-24K24S1,317,experiment,91,↑,up,↑,0.8667698999634013,True,34,1
AC-K-24K24S1,318,experiment,56,←,left,←,0.6221820999635383,True,34,1
AC-K-24K24S1,319,experiment,58,→,right,→,0.7305247000185773,True,34,1
AC-K-24K24S1,320,experiment,88,→,left,←,0.784339000005275,False,34,1
AC-K-24K24S1,321,experiment,63,↓,down,↓,0.7326681000413373,True,34,1
AC-K-24K24S1,322,experiment,92,←,left,←,0.6973613000009209,True,34,1
AC-K-24K24S1,323,experiment,66,↓,down,↓,0.912034900044091,True,34,1
AC-K-24K24S1,324,experiment,78,←,left,←,0.681948299985379,True,34,1
AC-K-24K24S1,325,experiment,59,←,left,←,1.2836204000050202,True,34,1
AC-K-24K24S1,326,experiment,65,↑,up,↑,0.75553470000159,True,34,1
AC-K-24K24S1,327,experiment,77,↑,up,↑,0.9321333999978378,True,34,1
AC-K-24K24S1,328,experiment,70,↑,up,↑,1.088253799942322,True,34,1
AC-K-24K24S1,329,experiment,67,↑,up,↑,0.8393655999097973,True,34,1
AC-K-24K24S1,330,experiment,75,↓,down,↓,0.7168556998949498,True,34,1
AC-K-24K24S1,331,experiment,81,↑,up,↑,1.054033000022173,True,34,1
AC-K-24K24S1,332,experiment,95,←,left,←,1.0207283000927418,True,34,1
AC-K-24K24S1,333,experiment,108,→,right,→,0.8406869999598712,True,34,1
AC-K-24K24S1,334,experiment,107,↓,down,↓,0.9800629001110792,True,34,1
AC-K-24K24S1,335,experiment,102,↑,up,↑,1.6676012999378145,True,34,1
AC-K-24K24S1,336,experiment,101,←,left,←,0.5923557999776676,True,34,1
AC-K-24K24S1,337,experiment,72,→,right,→,0.6413644999265671,True,34,1
AC-K-24K24S1,338,experiment,64,←,no_key,no_letter,-1.0,False,34,1
AC-K-24K24S1,339,experiment,94,←,left,←,0.6467062999727204,True,34,1
AC-K-24K24S1,340,experiment,105,↑,up,↑,0.6743311999598518,True,34,1
AC-K-24K24S1,341,experiment,104,←,left,←,0.7333694000262767,True,34,1
AC-K-24K24S1,342,experiment,83,→,right,→,0.5892995999893174,True,34,1
AC-K-24K24S1,343,experiment,48,←,right,→,0.8781234999187291,False,34,1
AC-K-24K24S1,344,experiment,86,→,right,→,0.5751588999992236,True,34,1
AC-K-24K24S1,345,experiment,54,↑,up,↑,0.782690400024876,True,34,1
AC-K-24K24S1,346,experiment,98,↓,down,↓,0.5671864000614733,True,34,1
AC-K-24K24S1,347,experiment,100,←,left,←,0.7599836000008509,True,34,1
AC-K-24K24S1,348,experiment,97,↓,down,↓,0.6177931999554858,True,34,1
AC-K-24K24S1,349,experiment,62,↓,down,↓,0.845028700074181,True,34,1
AC-K-24K24S1,350,experiment,50,↓,down,↓,0.7155471000587568,True,34,1
AC-K-24K24S1,351,experiment,68,←,left,←,0.6244403999298811,True,34,1
AC-K-24K24S1,352,experiment,79,↓,up,↑,1.0778952999971807,False,34,1
AC-K-24K24S1,353,experiment,73,←,left,←,0.6353233999107033,True,34,1
AC-K-24K24S1,354,experiment,87,←,left,←,0.8136317998869345,True,34,1
AC-K-24K24S1,355,experiment,49,→,right,→,0.6374342000344768,True,34,1
AC-K-24K24S1,356,training,98,←,left,←,0.6545872999122366,True,33,0
AC-K-24K24S1,357,training,97,↓,down,↓,0.6127786999568343,True,33,1
AC-K-24K24S1,358,experiment,65,←,left,←,0.47072880004998296,True,33,1
AC-K-24K24S1,359,experiment,56,↓,left,←,0.9934966000728309,False,33,1
AC-K-24K24S1,360,experiment,99,←,left,←,0.657495400053449,True,33,1
AC-K-24K24S1,361,experiment,80,→,right,→,0.5890955999493599,True,33,1
AC-K-24K24S1,362,experiment,66,↓,down,↓,0.6800145000452176,True,33,1
AC-K-24K24S1,363,experiment,92,→,left,←,0.7668002999853343,False,33,1
AC-K-24K24S1,364,experiment,78,→,right,→,0.6947289000963792,True,33,1
AC-K-24K24S1,365,experiment,88,↑,up,↑,0.7264756000367925,True,33,1
AC-K-24K24S1,366,experiment,48,←,left,←,0.7694376000436023,True,33,1
AC-K-24K24S1,367,experiment,79,↑,down,↓,1.0733001999324188,False,33,1
AC-K-24K24S1,368,experiment,60,↓,down,↓,0.7708590000402182,True,33,1
AC-K-24K24S1,369,experiment,50,↑,up,↑,0.7478823999408633,True,33,1
AC-K-24K24S1,370,experiment,89,→,right,→,0.8569178000325337,True,33,1
AC-K-24K24S1,371,experiment,74,↑,down,↓,0.951444200007245,False,33,1
AC-K-24K24S1,372,experiment,62,↑,up,↑,0.9247536999173462,True,33,1
AC-K-24K24S1,373,experiment,51,↓,down,↓,0.7753062000265345,True,33,1
AC-K-24K24S1,374,experiment,104,↑,up,↑,0.6226112999720499,True,33,1
AC-K-24K24S1,375,experiment,59,↑,up,↑,0.7863541999831796,True,33,1
AC-K-24K24S1,376,experiment,68,↓,down,↓,0.8049901999766007,True,33,1
AC-K-24K24S1,377,experiment,98,←,left,←,0.8128059000009671,True,33,1
AC-K-24K24S1,378,experiment,85,←,left,←,0.7925500000128523,True,33,1
AC-K-24K24S1,379,experiment,105,→,right,→,0.8944667000323534,True,33,1
AC-K-24K24S1,380,experiment,55,←,right,→,0.9928811000427231,False,33,1
AC-K-24K24S1,381,experiment,81,→,right,→,1.4389669999945909,True,33,1
AC-K-24K24S1,382,experiment,69,↓,down,↓,0.7913136999122798,True,33,1
AC-K-24K24S1,383,experiment,63,→,right,→,0.6193242999725044,True,33,1
AC-K-24K24S1,384,experiment,90,→,right,→,0.821262100012973,True,33,1
AC-K-24K24S1,385,experiment,94,↓,left,←,0.7176083000376821,False,33,1
AC-K-24K24S1,386,experiment,83,↑,up,↑,0.5259825000539422,True,33,1
AC-K-24K24S1,387,experiment,57,→,right,→,1.2706091000000015,True,33,1
AC-K-24K24S1,388,experiment,76,↑,up,↑,0.7950127000221983,True,33,1
AC-K-24K24S1,389,experiment,54,↓,down,↓,0.7375955999596044,True,33,1
AC-K-24K24S1,390,experiment,93,↓,down,↓,0.725876500015147,True,33,1
AC-K-24K24S1,391,experiment,77,↑,up,↑,0.8716141999466345,True,33,1
AC-K-24K24S1,392,experiment,91,↑,up,↑,0.7752041999483481,True,33,1
AC-K-24K24S1,393,experiment,107,↓,down,↓,0.7491926000220701,True,33,1
AC-K-24K24S1,394,experiment,97,↓,down,↓,0.8155051999492571,True,33,1
AC-K-24K24S1,395,experiment,61,↑,up,↑,0.5632282999577001,True,33,1
AC-K-24K24S1,396,experiment,86,↓,up,↑,0.9046059000538662,False,33,1
AC-K-24K24S1,397,experiment,71,←,left,←,0.9571675000479445,True,33,1
AC-K-24K24S1,398,experiment,49,↓,down,↓,0.7591940000420436,True,33,1
AC-K-24K24S1,399,experiment,52,→,right,→,0.6402488999301568,True,33,1
AC-K-24K24S1,400,experiment,58,→,right,→,0.5476863000076264,True,33,1
AC-K-24K24S1,401,experiment,96,↓,down,↓,0.9264886999735609,True,33,1
AC-K-24K24S1,402,experiment,100,→,right,→,0.9127764999866486,True,33,1
AC-K-24K24S1,403,experiment,53,→,right,→,0.6991904000751674,True,33,1
AC-K-24K24S1,404,experiment,70,→,right,→,1.6083980000112206,True,33,1
AC-K-24K24S1,405,experiment,75,←,left,←,0.8322731000371277,True,33,1
AC-K-24K24S1,406,experiment,108,←,left,←,0.6917010999750346,True,33,1
AC-K-24K24S1,407,experiment,106,↓,down,↓,0.7813039999455214,True,33,1
AC-K-24K24S1,408,experiment,64,↑,up,↑,0.897289999993518,True,33,1
AC-K-24K24S1,409,experiment,72,↓,down,↓,0.7021153999958187,True,33,1
AC-K-24K24S1,410,experiment,87,↓,down,↓,0.6136896999087185,True,33,1
AC-K-24K24S1,411,experiment,67,↑,up,↑,0.6713612999301404,True,33,1
AC-K-24K24S1,412,experiment,84,↓,down,↓,0.48072300001513213,True,33,1
AC-K-24K24S1,413,experiment,82,←,no_key,no_letter,-1.0,False,33,1
AC-K-24K24S1,414,experiment,95,→,right,→,0.614705300075002,True,33,1
AC-K-24K24S1,415,experiment,103,→,right,→,0.5002664999337867,True,33,1
AC-K-24K24S1,416,experiment,73,→,right,→,0.7447925999294966,True,33,1
AC-K-24K24S1,417,experiment,102,←,left,←,0.45798970002215356,True,33,1
AC-K-24K24S1,418,experiment,101,↑,up,↑,0.7263172999955714,True,33,1
AC-K-24K24S1,419,training,62,→,right,→,0.6437377000693232,True,33,0
AC-K-24K24S1,420,training,70,↓,down,↓,0.5796298000495881,True,33,1
AC-K-24K24S1,421,experiment,107,←,left,←,0.6253331999760121,True,33,1
AC-K-24K24S1,422,experiment,53,←,left,←,0.5032301000319421,True,33,1
AC-K-24K24S1,423,experiment,88,↑,up,↑,0.4864590000361204,True,33,1
AC-K-24K24S1,424,experiment,89,→,right,→,0.5581598000135273,True,33,1
AC-K-24K24S1,425,experiment,90,↓,down,↓,0.6023545999778435,True,33,1
AC-K-24K24S1,426,experiment,80,↑,up,↑,0.3939274000003934,True,33,1
AC-K-24K24S1,427,experiment,82,→,right,→,0.5731612000381574,True,33,1
AC-K-24K24S1,428,experiment,55,←,left,←,0.8203600000124425,True,33,1
AC-K-24K24S1,429,experiment,70,←,left,←,0.5409975999500602,True,33,1
AC-K-24K24S1,430,experiment,83,←,left,←,0.684374500066042,True,33,1
AC-K-24K24S1,431,experiment,59,→,right,→,0.6058536999626085,True,33,1
AC-K-24K24S1,432,experiment,67,→,right,→,0.624004999990575,True,33,1
AC-K-24K24S1,433,experiment,100,←,left,←,0.5182819999754429,True,33,1
AC-K-24K24S1,434,experiment,51,←,left,←,0.6330842000897974,True,33,1
AC-K-24K24S1,435,experiment,77,→,right,→,0.5987644999986514,True,33,1
AC-K-24K24S1,436,experiment,49,→,right,→,0.6070220000110567,True,33,1
AC-K-24K24S1,437,experiment,99,↓,down,↓,0.7823781999759376,True,33,1
AC-K-24K24S1,438,experiment,72,←,left,←,0.3926144998986274,True,33,1
AC-K-24K24S1,439,experiment,92,↑,up,↑,0.7457928999792784,True,33,0
AC-K-24K24S1,440,experiment,87,→,right,→,0.5432322999695316,True,33,1
AC-K-24K24S1,441,experiment,96,→,right,→,0.4001565999351442,True,33,1
AC-K-24K24S1,442,experiment,93,↑,up,↑,0.5956471000099555,True,33,0
AC-K-24K24S1,443,experiment,75,→,right,→,0.3426524999085814,True,33,1
AC-K-24K24S1,444,experiment,101,→,right,→,0.4451416999800131,True,33,0
AC-K-24K24S1,445,experiment,105,↓,down,↓,0.7117205000249669,True,33,0
AC-K-24K24S1,446,experiment,61,↑,up,↑,0.7433388000354171,True,33,1
AC-K-24K24S1,447,experiment,79,↑,up,↑,0.8481348999775946,True,33,1
AC-K-24K24S1,448,experiment,65,↑,up,↑,0.5131627999944612,True,33,1
AC-K-24K24S1,449,experiment,74,←,left,←,0.6683876999886706,True,33,1
AC-K-24K24S1,450,experiment,66,↑,up,↑,1.1802182000828907,True,33,1
AC-K-24K24S1,451,experiment,48,↑,up,↑,0.9575519000645727,True,33,1
AC-K-24K24S1,452,experiment,73,↑,up,↑,0.7837605000240728,True,33,1
AC-K-24K24S1,453,experiment,60,←,left,←,0.9089291000273079,True,33,1
AC-K-24K24S1,454,experiment,78,↑,up,↑,1.1034226999618113,True,33,1
AC-K-24K24S1,455,experiment,50,←,right,→,0.8750802000286058,False,33,1
AC-K-24K24S1,456,experiment,98,←,left,←,0.6402325000381097,True,33,1
AC-K-24K24S1,457,experiment,103,↓,down,↓,0.8050329000689089,True,33,1
AC-K-24K24S1,458,experiment,68,→,left,←,1.1105929999612272,False,33,1
AC-K-24K24S1,459,experiment,95,↑,up,↑,0.7874206000706181,True,33,1
AC-K-24K24S1,460,experiment,85,↑,down,↓,0.992433900013566,False,33,1
AC-K-24K24S1,461,experiment,76,↓,down,↓,0.6720568999880925,True,33,1
AC-K-24K24S1,462,experiment,86,→,left,←,0.8331721000140533,False,33,1
AC-K-24K24S1,463,experiment,57,↑,up,↑,0.7975548000540584,True,33,1
AC-K-24K24S1,464,experiment,58,←,left,←,0.795079099945724,True,33,1
AC-K-24K24S1,465,experiment,64,←,left,←,1.526355699985288,True,33,1
AC-K-24K24S1,466,experiment,84,↓,down,↓,0.8226153999567032,True,33,1
AC-K-24K24S1,467,experiment,81,←,left,←,0.7073040999239311,True,33,1
AC-K-24K24S1,468,experiment,54,↑,up,↑,0.7253004000522196,True,33,1
AC-K-24K24S1,469,experiment,94,↑,up,↑,1.4258977000135928,True,33,1
AC-K-24K24S1,470,experiment,97,→,right,→,0.7053440000163391,True,33,1
AC-K-24K24S1,471,experiment,104,↑,up,↑,0.715423500048928,True,33,1
AC-K-24K24S1,472,experiment,106,↓,down,↓,0.995895600062795,True,33,1
AC-K-24K24S1,473,experiment,71,→,right,→,0.6129602999426425,True,33,1
AC-K-24K24S1,474,experiment,63,→,right,→,0.40104179992340505,True,33,1
AC-K-24K24S1,475,experiment,62,→,right,→,0.4258898999541998,True,33,0
AC-K-24K24S1,476,experiment,91,↑,up,↑,0.9083815000485629,True,33,1
AC-K-24K24S1,477,experiment,52,→,left,←,0.9433949999511242,False,33,1
AC-K-24K24S1,478,experiment,56,←,left,←,0.8076552000129595,True,33,1
AC-K-24K24S1,479,experiment,102,←,left,←,0.694128500064835,True,33,1
AC-K-24K24S1,480,experiment,108,←,right,→,0.8712877000216395,False,33,1
AC-K-24K24S1,481,experiment,69,→,left,←,0.8780357999494299,False,33,1
AC-K-24K24S1,482,training,58,↑,up,↑,0.5298213000642136,True,33,0
AC-K-24K24S1,483,training,53,←,left,←,0.5075277000432834,True,33,1
AC-K-24K24S1,484,experiment,62,←,left,←,0.35938929999247193,True,33,1
AC-K-24K24S1,485,experiment,90,↑,up,↑,0.4088706000475213,True,33,1
AC-K-24K24S1,486,experiment,74,←,left,←,0.5817857999354601,True,33,0
AC-K-24K24S1,487,experiment,94,←,left,←,0.3761652000248432,True,33,1
AC-K-24K24S1,488,experiment,98,←,left,←,0.34223220008425415,True,33,0
AC-K-24K24S1,489,experiment,88,←,left,←,0.342765299952589,True,33,0
AC-K-24K24S1,490,experiment,67,→,right,→,0.5535586000187322,True,33,0
AC-K-24K24S1,491,experiment,91,←,left,←,0.3344855000032112,True,33,1
AC-K-24K24S1,492,experiment,101,↑,up,↑,0.5348566999891773,True,33,1
AC-K-24K24S1,493,experiment,50,↑,up,↑,0.4024933000328019,True,33,1
AC-K-24K24S1,494,experiment,79,↑,up,↑,0.4630547999404371,True,33,0
AC-K-24K24S1,495,experiment,105,↓,up,↑,0.9538397999713197,False,33,1
AC-K-24K24S1,496,experiment,51,↓,down,↓,0.691845600027591,True,33,1
AC-K-24K24S1,497,experiment,102,↑,up,↑,0.4007851999485865,True,33,1
AC-K-24K24S1,498,experiment,68,↓,down,↓,0.6800674999831244,True,33,0
AC-K-24K24S1,499,experiment,84,→,right,→,0.3941122000105679,True,33,1
AC-K-24K24S1,500,experiment,85,↑,up,↑,0.3676091000670567,True,33,0
AC-K-24K24S1,501,experiment,95,↓,down,↓,0.6152943999040872,True,33,1
AC-K-24K24S1,502,experiment,60,↓,down,↓,0.37621240003500134,True,33,1
AC-K-24K24S1,503,experiment,82,↑,down,↓,0.49698430008720607,False,33,1
AC-K-24K24S1,504,experiment,73,↓,down,↓,0.4774547000415623,True,33,1
AC-K-24K24S1,505,experiment,58,↑,up,↑,0.6240350999869406,True,33,1
AC-K-24K24S1,506,experiment,93,→,right,→,0.5843179000075907,True,33,1
AC-K-24K24S1,507,experiment,48,↓,down,↓,0.8573964999523014,True,33,1
AC-K-24K24S1,508,experiment,107,→,right,→,0.6202885000966489,True,33,1
AC-K-24K24S1,509,experiment,52,↓,down,↓,0.4509210999822244,True,33,1
AC-K-24K24S1,510,experiment,106,←,right,→,0.7413103000726551,False,33,1
AC-K-24K24S1,511,experiment,87,↓,down,↓,0.8273549999576062,True,33,1
AC-K-24K24S1,512,experiment,56,→,right,→,0.5928238000487909,True,33,1
AC-K-24K24S1,513,experiment,81,→,left,←,0.7824146000202745,False,33,1
AC-K-24K24S1,514,experiment,66,↓,down,↓,0.6896400999976322,True,33,1
AC-K-24K24S1,515,experiment,104,↑,up,↑,0.724076300044544,True,33,1
AC-K-24K24S1,516,experiment,63,↓,down,↓,0.9067383999936283,True,33,1
AC-K-24K24S1,517,experiment,59,→,up,↑,1.043409000034444,False,33,1
AC-K-24K24S1,518,experiment,54,↓,down,↓,0.8086083000525832,True,33,1
AC-K-24K24S1,519,experiment,69,→,right,→,0.7216615999350324,True,33,1
AC-K-24K24S1,520,experiment,57,→,right,→,0.786338199977763,True,33,1
AC-K-24K24S1,521,experiment,64,→,right,→,0.7661138999974355,True,33,1
AC-K-24K24S1,522,experiment,86,→,right,→,0.7959337000502273,True,33,1
AC-K-24K24S1,523,experiment,108,↑,up,↑,0.7927118000807241,True,33,1
AC-K-24K24S1,524,experiment,99,↑,up,↑,0.8325949999270961,True,33,1
AC-K-24K24S1,525,experiment,71,↓,down,↓,0.6404347999487072,True,33,1
AC-K-24K24S1,526,experiment,96,↓,down,↓,0.7512575999135152,True,33,1
AC-K-24K24S1,527,experiment,83,→,down,↓,1.0228052999591455,False,33,1
AC-K-24K24S1,528,experiment,49,←,left,←,1.1816071999492124,True,33,1
AC-K-24K24S1,529,experiment,78,←,left,←,0.637089499970898,True,33,1
AC-K-24K24S1,530,experiment,61,↓,down,↓,0.7756025999551639,True,33,1
AC-K-24K24S1,531,experiment,89,←,down,↓,1.7077138000167906,False,33,1
AC-K-24K24S1,532,experiment,97,→,right,→,0.6402273999992758,True,33,1
AC-K-24K24S1,533,experiment,76,←,left,←,0.6139723000815138,True,33,1
AC-K-24K24S1,534,experiment,80,→,right,→,0.6750251000048593,True,33,1
AC-K-24K24S1,535,experiment,100,←,left,←,0.6235146000981331,True,33,1
AC-K-24K24S1,536,experiment,55,↑,up,↑,0.620730199967511,True,33,1
AC-K-24K24S1,537,experiment,65,←,left,←,0.5664641999173909,True,33,1
AC-K-24K24S1,538,experiment,77,→,right,→,0.6549578999402002,True,33,1
AC-K-24K24S1,539,experiment,53,←,left,←,1.2754492000676692,True,33,1
AC-K-24K24S1,540,experiment,75,→,right,→,0.7044597000349313,True,33,1
AC-K-24K24S1,541,experiment,72,←,left,←,0.6285528000444174,True,33,1
AC-K-24K24S1,542,experiment,70,↑,right,→,1.0445604999549687,False,33,1
AC-K-24K24S1,543,experiment,92,↑,up,↑,1.1489936000434682,True,33,1
AC-K-24K24S1,544,experiment,103,↑,up,↑,0.6615278999088332,True,33,1
AC-K-24K24S1,545,training,73,↑,up,↑,0.6004720999626443,True,33,0
AC-K-24K24S1,546,training,73,↓,down,↓,0.7126854999223724,True,33,1
AC-K-24K24S1,547,experiment,66,↓,down,↓,0.7108980000484735,True,33,1
AC-K-24K24S1,548,experiment,108,↓,down,↓,0.670925399987027,True,33,1
AC-K-24K24S1,549,experiment,68,↓,down,↓,0.7259787999792024,True,33,1
AC-K-24K24S1,550,experiment,82,↑,up,↑,0.59843929996714,True,33,1
AC-K-24K24S1,551,experiment,69,←,left,←,0.5998767999699339,True,33,1
AC-K-24K24S1,552,experiment,64,↑,up,↑,0.6833083999808878,True,33,1
AC-K-24K24S1,553,experiment,52,→,right,→,0.5831129000289366,True,33,1
AC-K-24K24S1,554,experiment,63,↑,up,↑,0.6353710000403225,True,33,1
AC-K-24K24S1,555,experiment,55,→,right,→,0.6002919999882579,True,33,1
AC-K-24K24S1,556,experiment,79,←,left,←,0.5985608000773937,True,33,1
AC-K-24K24S1,557,experiment,96,→,right,→,0.6231315999757499,True,33,1
AC-K-24K24S1,558,experiment,70,↑,up,↑,0.6235553999431431,True,33,1
AC-K-24K24S1,559,experiment,84,↑,up,↑,0.563227399950847,True,33,1
AC-K-24K24S1,560,experiment,102,→,left,←,0.8751289000501856,False,33,1
AC-K-24K24S1,561,experiment,60,↓,down,↓,0.700805899919942,True,33,1
AC-K-24K24S1,562,experiment,106,→,right,→,0.5662863000761718,True,33,1
AC-K-24K24S1,563,experiment,72,↑,up,↑,0.4641372999176383,True,33,1
AC-K-24K24S1,564,experiment,93,↓,down,↓,0.6870288000209257,True,33,1
AC-K-24K24S1,565,experiment,54,←,left,←,0.49027519999071956,True,33,1
AC-K-24K24S1,566,experiment,78,↑,up,↑,0.59700069995597,True,33,1
AC-K-24K24S1,567,experiment,58,→,right,→,0.6422335000243038,True,33,1
AC-K-24K24S1,568,experiment,88,↑,up,↑,0.5477516000391915,True,33,1
AC-K-24K24S1,569,experiment,57,←,left,←,0.7794945000205189,True,33,1
AC-K-24K24S1,570,experiment,83,↓,down,↓,0.6650412000017241,True,33,1
AC-K-24K24S1,571,experiment,94,↓,down,↓,0.6077579000266269,True,33,1
AC-K-24K24S1,572,experiment,67,↓,down,↓,0.9216279999818653,True,33,1
AC-K-24K24S1,573,experiment,77,↓,up,↑,1.5798331999685615,False,33,1
AC-K-24K24S1,574,experiment,73,↓,down,↓,0.7330568000907078,True,33,1
AC-K-24K24S1,575,experiment,80,↑,no_key,no_letter,-1.0,False,33,1
AC-K-24K24S1,576,experiment,49,↑,up,↑,0.8566937999567017,True,33,1
AC-K-24K24S1,577,experiment,75,←,left,←,0.598127800039947,True,33,1
AC-K-24K24S1,578,experiment,81,←,left,←,1.1956961000105366,True,33,1
AC-K-24K24S1,579,experiment,59,→,right,→,0.6008704999694601,True,33,1
AC-K-24K24S1,580,experiment,62,←,left,←,0.42566660000011325,True,33,1
AC-K-24K24S1,581,experiment,97,↓,down,↓,0.7237434999551624,True,33,0
AC-K-24K24S1,582,experiment,87,↓,down,↓,0.642295999918133,True,33,1
AC-K-24K24S1,583,experiment,103,←,left,←,0.6792052000528201,True,33,1
AC-K-24K24S1,584,experiment,91,↓,down,↓,0.7499502000864595,True,33,1
AC-K-24K24S1,585,experiment,92,↑,left,←,0.746238199993968,False,33,1
AC-K-24K24S1,586,experiment,90,↓,left,←,0.6788952000206336,False,33,1
AC-K-24K24S1,587,experiment,65,↑,up,↑,0.7346215998986736,True,33,1
AC-K-24K24S1,588,experiment,98,↑,left,←,1.4811780999880284,False,33,1
AC-K-24K24S1,589,experiment,48,↓,down,↓,0.6867161999689415,True,33,1
AC-K-24K24S1,590,experiment,56,↑,up,↑,0.537073599989526,True,33,1
AC-K-24K24S1,591,experiment,101,↓,down,↓,0.5302410000003874,True,33,1
AC-K-24K24S1,592,experiment,61,↑,up,↑,0.5612732999725267,True,33,1
AC-K-24K24S1,593,experiment,76,→,right,→,0.5382224000059068,True,33,1
AC-K-24K24S1,594,experiment,89,↓,down,↓,0.7275019999360666,True,33,1
AC-K-24K24S1,595,experiment,100,↓,down,↓,0.8339507000055164,True,33,1
AC-K-24K24S1,596,experiment,99,↓,down,↓,0.5920499000931159,True,33,1
AC-K-24K24S1,597,experiment,107,↑,up,↑,0.5735777000663802,True,33,1
AC-K-24K24S1,598,experiment,50,↓,left,←,1.2305610999464989,False,33,1
AC-K-24K24S1,599,experiment,104,→,right,→,0.5634439000859857,True,33,1
AC-K-24K24S1,600,experiment,85,↑,up,↑,0.5211183000355959,True,33,1
AC-K-24K24S1,601,experiment,53,↓,down,↓,0.6189284999854863,True,33,1
AC-K-24K24S1,602,experiment,71,↓,down,↓,0.6592585999751464,True,33,1
AC-K-24K24S1,603,experiment,95,←,left,←,0.8577343999641016,True,33,1
AC-K-24K24S1,604,experiment,86,↓,down,↓,0.6675230999244377,True,33,1
AC-K-24K24S1,605,experiment,105,↑,up,↑,0.6707389999646693,True,33,1
AC-K-24K24S1,606,experiment,51,↑,up,↑,0.4675122000044212,True,33,1
AC-K-24K24S1,607,experiment,74,→,right,→,0.6405865999404341,True,33,1
AC-K-24K24S1,608,training,98,↑,up,↑,0.5200287000043318,True,33,0
AC-K-24K24S1,609,training,89,↓,down,↓,0.6063074000412598,True,33,1
AC-K-24K24S1,610,experiment,83,→,right,→,0.5551710999570787,True,33,1
AC-K-24K24S1,611,experiment,94,←,left,←,0.37558960006572306,True,33,1
AC-K-24K24S1,612,experiment,85,↓,down,↓,0.6189575999742374,True,33,1
AC-K-24K24S1,613,experiment,84,←,left,←,0.5424851999850944,True,33,1
AC-K-24K24S1,614,experiment,61,↑,up,↑,0.5970062999986112,True,33,1
AC-K-24K24S1,615,experiment,55,→,right,→,0.49109050002880394,True,33,1
AC-K-24K24S1,616,experiment,73,→,right,→,0.4166668000398204,True,33,1
AC-K-24K24S1,617,experiment,62,→,right,→,0.5947603000095114,True,33,0
AC-K-24K24S1,618,experiment,70,↓,down,↓,0.692474800045602,True,33,1
AC-K-24K24S1,619,experiment,59,↑,up,↑,0.48539619997609407,True,33,1
AC-K-24K24S1,620,experiment,56,→,right,→,0.4638786999275908,True,33,1
AC-K-24K24S1,621,experiment,51,→,right,→,0.5490452999947593,True,33,1
AC-K-24K24S1,622,experiment,82,→,right,→,0.5002183999167755,True,33,1
AC-K-24K24S1,623,experiment,108,↑,no_key,no_letter,-1.0,False,33,1
AC-K-24K24S1,624,experiment,107,→,right,→,0.6127823999850079,True,33,1
AC-K-24K24S1,625,experiment,78,↑,up,↑,0.5388117999536917,True,33,1
AC-K-24K24S1,626,experiment,75,↑,up,↑,0.41665719996672124,True,33,1
AC-K-24K24S1,627,experiment,93,↑,up,↑,0.4691882999613881,True,33,0
AC-K-24K24S1,628,experiment,77,↓,up,↑,0.5451584999682382,False,33,1
AC-K-24K24S1,629,experiment,106,↑,up,↑,0.6168270000489429,True,33,1
AC-K-24K24S1,630,experiment,52,→,right,→,0.4093373999930918,True,33,1
AC-K-24K24S1,631,experiment,63,←,left,←,0.3345295999897644,True,33,1
AC-K-24K24S1,632,experiment,87,↓,down,↓,0.6961436000419781,True,33,1
AC-K-24K24S1,633,experiment,104,→,right,→,0.6422159998910502,True,33,1
AC-K-24K24S1,634,experiment,99,↓,no_key,no_letter,-1.0,False,33,1
AC-K-24K24S1,635,experiment,69,←,left,←,0.33362129994202405,True,33,1
AC-K-24K24S1,636,experiment,95,↓,down,↓,0.5280515999766067,True,33,0
AC-K-24K24S1,637,experiment,88,↑,up,↑,0.7419034000486135,True,33,1
AC-K-24K24S1,638,experiment,74,↑,up,↑,0.4483494000742212,True,33,1
AC-K-24K24S1,639,experiment,92,←,left,←,0.3693316999124363,True,33,1
AC-K-24K24S1,640,experiment,66,↓,down,↓,0.6112351999618113,True,33,0
AC-K-24K24S1,641,experiment,65,←,left,←,0.3674656000221148,True,33,1
AC-K-24K24S1,642,experiment,68,↑,up,↑,0.5607371999649331,True,33,1
AC-K-24K24S1,643,experiment,97,→,right,→,0.5222259999718517,True,33,1
AC-K-24K24S1,644,experiment,86,→,right,→,0.6494517000392079,True,33,1
AC-K-24K24S1,645,experiment,54,↑,up,↑,0.5578132999362424,True,33,1
AC-K-24K24S1,646,experiment,76,↑,up,↑,0.4257713999832049,True,33,1
AC-K-24K24S1,647,experiment,71,→,right,→,0.5264154000906274,True,33,0
AC-K-24K24S1,648,experiment,64,→,right,→,0.4175859000533819,True,33,1
AC-K-24K24S1,649,experiment,90,←,left,←,0.392268699943088,True,33,0
AC-K-24K24S1,650,experiment,89,↑,up,↑,0.4651532999705523,True,33,0
AC-K-24K24S1,651,experiment,91,←,left,←,0.5284598999423906,True,33,1
AC-K-24K24S1,652,experiment,57,→,right,→,0.4808353999396786,True,33,1
AC-K-24K24S1,653,experiment,105,←,left,←,0.5714158000191674,True,33,1
AC-K-24K24S1,654,experiment,72,←,left,←,0.46091500006150454,True,33,1
AC-K-24K24S1,655,experiment,60,↑,up,↑,0.510673200013116,True,33,1
AC-K-24K24S1,656,experiment,96,↑,up,↑,0.570956900017336,True,33,1
AC-K-24K24S1,657,experiment,48,↑,up,↑,0.7888266000663862,True,33,1
AC-K-24K24S1,658,experiment,53,←,left,←,0.5882137999869883,True,33,1
AC-K-24K24S1,659,experiment,81,→,right,→,0.5221789000788704,True,33,1
AC-K-24K24S1,660,experiment,103,↑,up,↑,0.4444389999844134,True,33,1
AC-K-24K24S1,661,experiment,50,→,right,→,0.42601990001276135,True,33,0
AC-K-24K24S1,662,experiment,100,↓,down,↓,0.4480922999791801,True,33,1
AC-K-24K24S1,663,experiment,101,↑,up,↑,0.5964260000037029,True,33,1
AC-K-24K24S1,664,experiment,102,→,right,→,0.4907392000313848,True,33,1
AC-K-24K24S1,665,experiment,67,↓,down,↓,0.5215669999597594,True,33,1
AC-K-24K24S1,666,experiment,80,←,left,←,0.5624965999741107,True,33,1
AC-K-24K24S1,667,experiment,79,↑,up,↑,0.505971800070256,True,33,1
AC-K-24K24S1,668,experiment,58,↑,up,↑,0.5148221000563353,True,33,1
AC-K-24K24S1,669,experiment,98,←,left,←,0.5421971000032499,True,33,1
AC-K-24K24S1,670,experiment,49,←,no_key,no_letter,-1.0,False,33,1
AC-K-24K24S1,671,training,59,←,left,←,0.48796330008190125,True,32,0
AC-K-24K24S1,672,training,60,→,right,→,0.33455839997623116,True,32,1
AC-K-24K24S1,673,experiment,69,↓,no_key,no_letter,-1.0,False,32,0
AC-K-24K24S1,674,experiment,90,↓,down,↓,0.5303745999699458,True,32,1
AC-K-24K24S1,675,experiment,86,←,left,←,0.5210017000790685,True,32,1
AC-K-24K24S1,676,experiment,53,→,right,→,0.5950027999933809,True,32,1
AC-K-24K24S1,677,experiment,95,←,left,←,0.4923818000825122,True,32,1
AC-K-24K24S1,678,experiment,60,↓,down,↓,0.6210924000479281,True,32,1
AC-K-24K24S1,679,experiment,97,↓,down,↓,0.5164206000044942,True,32,1
AC-K-24K24S1,680,experiment,51,←,left,←,0.4793460000073537,True,32,1
AC-K-24K24S1,681,experiment,81,←,left,←,0.6256517999572679,True,32,1
AC-K-24K24S1,682,experiment,56,↓,down,↓,0.6225701000075787,True,32,1
AC-K-24K24S1,683,experiment,72,↑,up,↑,0.6701321000000462,True,32,1
AC-K-24K24S1,684,experiment,61,↑,up,↑,0.46329789992887527,True,32,1
AC-K-24K24S1,685,experiment,105,→,no_key,no_letter,-1.0,False,32,1
AC-K-24K24S1,686,experiment,62,↑,up,↑,0.5776428000535816,True,32,1
AC-K-24K24S1,687,experiment,70,←,left,←,0.5875030000461265,True,32,1
AC-K-24K24S1,688,experiment,71,←,left,←,0.5730241000419483,True,32,1
AC-K-24K24S1,689,experiment,87,↑,up,↑,0.6174739999696612,True,32,1
AC-K-24K24S1,690,experiment,98,↓,down,↓,0.664837299962528,True,32,1
AC-K-24K24S1,691,experiment,89,↑,up,↑,0.6013339000055566,True,32,1
AC-K-24K24S1,692,experiment,52,←,left,←,0.5763910000678152,True,32,1
AC-K-24K24S1,693,experiment,96,↓,down,↓,0.6337705999612808,True,32,1
AC-K-24K24S1,694,experiment,64,↑,up,↑,0.8676203000359237,True,32,1
AC-K-24K24S1,695,experiment,101,↑,up,↑,0.5601242000702769,True,32,1
AC-K-24K24S1,696,experiment,100,→,left,←,0.7449112000176683,False,32,1
AC-K-24K24S1,697,experiment,75,→,right,→,0.6747932999860495,True,32,1
AC-K-24K24S1,698,experiment,91,←,left,←,0.36778540001250803,True,32,1
AC-K-24K24S1,699,experiment,83,→,no_key,no_letter,-1.0,False,32,1
AC-K-24K24S1,700,experiment,84,←,left,←,0.3686386999906972,True,32,1
AC-K-24K24S1,701,experiment,74,→,right,→,0.3774913999950513,True,32,0
AC-K-24K24S1,702,experiment,108,↑,up,↑,0.45341410010587424,True,32,0
AC-K-24K24S1,703,experiment,54,←,right,→,0.5774163000751287,False,32,1
AC-K-24K24S1,704,experiment,93,↓,down,↓,0.667925100075081,True,32,1
AC-K-24K24S1,705,experiment,76,→,right,→,0.44077649991959333,True,32,1
AC-K-24K24S1,706,experiment,55,↓,down,↓,0.6614447000902146,True,32,1
AC-K-24K24S1,707,experiment,80,↓,down,↓,0.560904800076969,True,32,1
AC-K-24K24S1,708,experiment,92,→,right,→,0.4174860999919474,True,32,1
AC-K-24K24S1,709,experiment,66,→,right,→,0.4451468999031931,True,32,0
AC-K-24K24S1,710,experiment,63,→,right,→,0.687467799987644,True,32,1
AC-K-24K24S1,711,experiment,57,↓,down,↓,0.6093714999733493,True,32,1
AC-K-24K24S1,712,experiment,106,↑,up,↑,0.5986731000011787,True,32,1
AC-K-24K24S1,713,experiment,79,←,left,←,0.6526846000924706,True,32,1
AC-K-24K24S1,714,experiment,88,↑,up,↑,0.7899938999908045,True,32,1
AC-K-24K24S1,715,experiment,58,←,left,←,0.7155668999766931,True,32,1
AC-K-24K24S1,716,experiment,104,↓,down,↓,0.5650162999518216,True,32,1
AC-K-24K24S1,717,experiment,99,↓,down,↓,0.8379158000461757,True,32,1
AC-K-24K24S1,718,experiment,94,↑,up,↑,0.7338295000372455,True,32,1
AC-K-24K24S1,719,experiment,85,↑,up,↑,1.2526497000362724,True,32,1
AC-K-24K24S1,720,experiment,82,→,right,→,0.6638689999235794,True,32,1
AC-K-24K24S1,721,experiment,68,←,left,←,0.7111110000405461,True,32,1
AC-K-24K24S1,722,experiment,102,→,right,→,0.7776300999103114,True,32,1
AC-K-24K24S1,723,experiment,48,←,up,↑,0.9308396000415087,False,32,1
AC-K-24K24S1,724,experiment,73,↑,up,↑,1.4459339999593794,True,32,1
AC-K-24K24S1,725,experiment,50,→,right,→,0.7880349999759346,True,32,1
AC-K-24K24S1,726,experiment,59,↑,up,↑,0.8094938999274746,True,32,1
AC-K-24K24S1,727,experiment,107,↓,down,↓,0.7422560000559315,True,32,1
AC-K-24K24S1,728,experiment,65,→,right,→,0.7165828000288457,True,32,1
AC-K-24K24S1,729,experiment,78,→,right,→,0.7334872999927029,True,32,1
AC-K-24K24S1,730,experiment,103,↑,up,↑,0.5027480999706313,True,32,1
AC-K-24K24S1,731,experiment,49,→,right,→,0.8989065999630839,True,32,1
AC-K-24K24S1,732,experiment,67,→,right,→,0.8967868000036106,True,32,1
AC-K-24K24S1,733,experiment,77,→,right,→,0.8922143999952823,True,32,1
AC-K-24K24S1,734,training,55,→,right,→,0.47606009989976883,True,31,0
AC-K-24K24S1,735,training,56,↓,down,↓,0.6393626000499353,True,31,1
AC-K-24K24S1,736,experiment,60,→,right,→,0.3926093999762088,True,31,1
AC-K-24K24S1,737,experiment,64,↓,down,↓,0.5252875000005588,True,31,0
AC-K-24K24S1,738,experiment,93,↓,down,↓,0.5537983999820426,True,31,1
AC-K-24K24S1,739,experiment,100,↑,up,↑,0.3834070999873802,True,31,1
AC-K-24K24S1,740,experiment,72,↓,down,↓,0.5557141000172123,True,31,0
AC-K-24K24S1,741,experiment,70,←,no_key,no_letter,-1.0,False,31,1
AC-K-24K24S1,742,experiment,102,←,left,←,0.6727873000781983,True,31,1
AC-K-24K24S1,743,experiment,97,↓,down,↓,0.558163599926047,True,31,1
AC-K-24K24S1,744,experiment,105,←,left,←,0.4932899000123143,True,31,1
AC-K-24K24S1,745,experiment,89,↓,down,↓,0.5325003999751061,True,31,1
AC-K-24K24S1,746,experiment,101,→,right,→,0.3586278000148013,True,31,1
AC-K-24K24S1,747,experiment,81,↓,down,↓,0.5651674999389797,True,31,0
AC-K-24K24S1,748,experiment,54,←,left,←,0.37530239997431636,True,31,1
AC-K-24K24S1,749,experiment,83,→,right,→,0.6028055000351742,True,31,0
AC-K-24K24S1,750,experiment,62,↓,down,↓,0.5023004000540823,True,31,1
AC-K-24K24S1,751,experiment,51,→,right,→,0.5860792000312358,True,31,1
AC-K-24K24S1,752,experiment,95,←,left,←,0.5633502999553457,True,31,1
AC-K-24K24S1,753,experiment,90,←,left,←,0.5033410000614822,True,31,1
AC-K-24K24S1,754,experiment,98,←,left,←,0.40099420002661645,True,31,1
AC-K-24K24S1,755,experiment,58,←,left,←,0.5202896000118926,True,31,0
AC-K-24K24S1,756,experiment,73,←,left,←,0.3675822999794036,True,31,1
AC-K-24K24S1,757,experiment,88,↑,up,↑,0.5836159000173211,True,31,1
AC-K-24K24S1,758,experiment,61,→,right,→,0.4927270000334829,True,31,1
AC-K-24K24S1,759,experiment,96,→,right,→,0.3919113000156358,True,31,1
AC-K-24K24S1,760,experiment,82,↓,down,↓,0.49520580004900694,True,31,0
AC-K-24K24S1,761,experiment,77,↑,up,↑,0.6102251000702381,True,31,1
AC-K-24K24S1,762,experiment,79,↓,down,↓,0.9675991999683902,True,31,1
AC-K-24K24S1,763,experiment,56,↑,up,↑,0.7031188999535516,True,31,1
AC-K-24K24S1,764,experiment,80,←,left,←,0.43326220009475946,True,31,1
AC-K-24K24S1,765,experiment,106,↓,down,↓,0.6767446000594646,True,31,1
AC-K-24K24S1,766,experiment,76,↓,down,↓,0.977106099948287,True,31,1
AC-K-24K24S1,767,experiment,65,↑,up,↑,0.653020599973388,True,31,1
AC-K-24K24S1,768,experiment,57,→,right,→,0.736465199966915,True,31,1
AC-K-24K24S1,769,experiment,55,→,right,→,0.7133086000103503,True,31,1
AC-K-24K24S1,770,experiment,103,←,left,←,0.7309892000630498,True,31,1
AC-K-24K24S1,771,experiment,48,→,right,→,0.6382741000270471,True,31,1
AC-K-24K24S1,772,experiment,86,↑,up,↑,0.6006865000817925,True,31,1
AC-K-24K24S1,773,experiment,59,↓,down,↓,0.64536369999405,True,31,1
AC-K-24K24S1,774,experiment,104,→,right,→,0.593726999941282,True,31,1
AC-K-24K24S1,775,experiment,66,↑,up,↑,0.5407065000617877,True,31,1
AC-K-24K24S1,776,experiment,87,→,right,→,0.4664043999509886,True,31,1
AC-K-24K24S1,777,experiment,99,→,right,→,0.39262730011250824,True,31,1
AC-K-24K24S1,778,experiment,52,↓,down,↓,0.4946237999247387,True,31,0
AC-K-24K24S1,779,experiment,94,↓,down,↓,0.5562648000195622,True,31,1
AC-K-24K24S1,780,experiment,50,↑,up,↑,0.621693899971433,True,31,1
AC-K-24K24S1,781,experiment,69,←,left,←,0.4945056999567896,True,31,1
AC-K-24K24S1,782,experiment,53,←,no_key,no_letter,-1.0,False,31,1
AC-K-24K24S1,783,experiment,63,←,no_key,no_letter,-1.0,False,31,1
AC-K-24K24S1,784,experiment,68,→,right,→,0.7819312000647187,True,31,1
AC-K-24K24S1,785,experiment,71,→,right,→,0.6876700000138953,True,31,1
AC-K-24K24S1,786,experiment,78,←,left,←,0.6186100000049919,True,31,1
AC-K-24K24S1,787,experiment,75,→,right,→,0.6335211000405252,True,31,1
AC-K-24K24S1,788,experiment,108,→,right,→,0.5739112000446767,True,31,1
AC-K-24K24S1,789,experiment,84,←,left,←,0.6665541999973357,True,31,1
AC-K-24K24S1,790,experiment,74,↑,up,↑,0.6237926000030711,True,31,1
AC-K-24K24S1,791,experiment,49,→,right,→,0.4950242000631988,True,31,1
AC-K-24K24S1,792,experiment,92,→,left,←,0.6452891000080854,False,31,1
AC-K-24K24S1,793,experiment,91,↓,down,↓,0.6216556000290439,True,31,1
AC-K-24K24S1,794,experiment,107,↑,up,↑,0.6097379999700934,True,31,1
AC-K-24K24S1,795,experiment,67,←,left,←,0.33415549993515015,True,31,1
AC-K-24K24S1,796,experiment,85,→,right,→,0.562199299922213,True,31,1
AC-K-24K24S1,797,training,102,↑,up,↑,0.36891219997778535,True,30,0
AC-K-24K24S1,798,training,57,↓,down,↓,0.5580413999268785,True,30,0
AC-K-24K24S1,799,experiment,88,←,left,←,0.4832797000417486,True,30,1
AC-K-24K24S1,800,experiment,61,→,right,→,0.51590070000384,True,30,1
AC-K-24K24S1,801,experiment,97,←,left,←,0.36030629999004304,True,30,1
AC-K-24K24S1,802,experiment,70,→,left,←,0.31662399997003376,False,30,0
AC-K-24K24S1,803,experiment,91,↓,down,↓,0.5907540000043809,True,30,0
AC-K-24K24S1,804,experiment,81,↓,down,↓,0.4607438000384718,True,30,1
AC-K-24K24S1,805,experiment,66,↑,up,↑,0.43725740001536906,True,30,1
AC-K-24K24S1,806,experiment,63,→,right,→,0.5110011000651866,True,30,1
AC-K-24K24S1,807,experiment,98,→,no_key,no_letter,-1.0,False,30,1
AC-K-24K24S1,808,experiment,100,↑,up,↑,0.46978339995257556,True,30,1
AC-K-24K24S1,809,experiment,54,↑,up,↑,0.433361699921079,True,30,1
AC-K-24K24S1,810,experiment,51,←,left,←,0.35235820000525564,True,30,1
AC-K-24K24S1,811,experiment,53,↑,up,↑,0.5755763999186456,True,30,0
AC-K-24K24S1,812,experiment,52,↑,up,↑,0.5678615999640897,True,30,1
AC-K-24K24S1,813,experiment,80,→,right,→,0.4710343999322504,True,30,1
AC-K-24K24S1,814,experiment,50,↓,down,↓,0.5078162999125198,True,30,1
AC-K-24K24S1,815,experiment,101,↓,down,↓,0.5666549999732524,True,30,1
AC-K-24K24S1,816,experiment,99,→,right,→,0.5915243000490591,True,30,1
AC-K-24K24S1,817,experiment,74,←,left,←,0.527891599922441,True,30,1
AC-K-24K24S1,818,experiment,106,↓,down,↓,0.6082568999845535,True,30,1
AC-K-24K24S1,819,experiment,77,↓,down,↓,0.6463712000986561,True,30,1
AC-K-24K24S1,820,experiment,83,→,right,→,0.3842997000319883,True,30,1
AC-K-24K24S1,821,experiment,86,↑,up,↑,0.5336807999992743,True,30,0
AC-K-24K24S1,822,experiment,58,←,right,→,1.1094794999808073,False,30,1
AC-K-24K24S1,823,experiment,59,↑,up,↑,0.6462986000115052,True,30,1
AC-K-24K24S1,824,experiment,73,→,right,→,0.5886295000091195,True,30,1
AC-K-24K24S1,825,experiment,76,↑,up,↑,0.483953999937512,True,30,1
AC-K-24K24S1,826,experiment,79,↓,down,↓,0.5031552999280393,True,30,1
AC-K-24K24S1,827,experiment,107,→,right,→,0.839959800010547,True,30,1
AC-K-24K24S1,828,experiment,48,→,right,→,0.446677100029774,True,30,1
AC-K-24K24S1,829,experiment,71,↑,up,↑,0.6456146000418812,True,30,1
AC-K-24K24S1,830,experiment,78,←,left,←,0.5543466999661177,True,30,1
AC-K-24K24S1,831,experiment,103,→,right,→,0.6263360000448301,True,30,1
AC-K-24K24S1,832,experiment,56,→,right,→,0.6472832000581548,True,30,1
AC-K-24K24S1,833,experiment,68,↑,up,↑,0.6549945999868214,True,30,1
AC-K-24K24S1,834,experiment,104,→,right,→,0.6271016999380663,True,30,1
AC-K-24K24S1,835,experiment,90,→,right,→,0.580407900037244,True,30,1
AC-K-24K24S1,836,experiment,95,↑,up,↑,0.5342720000771806,True,30,1
AC-K-24K24S1,837,experiment,92,→,right,→,0.38451560004614294,True,30,1
AC-K-24K24S1,838,experiment,64,↓,down,↓,0.3923435000469908,True,30,0
AC-K-24K24S1,839,experiment,87,←,left,←,0.6338888999307528,True,30,0
AC-K-24K24S1,840,experiment,60,←,left,←,0.37528950010892004,True,30,1
AC-K-24K24S1,841,experiment,105,↑,left,←,0.7874880000017583,False,30,0
AC-K-24K24S1,842,experiment,93,→,left,←,0.9895733000012115,False,30,1
AC-K-24K24S1,843,experiment,72,↓,down,↓,0.5666164000285789,True,30,1
AC-K-24K24S1,844,experiment,108,→,right,→,0.48464160005096346,True,30,1
AC-K-24K24S1,845,experiment,96,→,right,→,0.44982000009622425,True,30,1
AC-K-24K24S1,846,experiment,55,←,left,←,0.5581598000135273,True,30,1
AC-K-24K24S1,847,experiment,89,→,right,→,0.5787313999608159,True,30,1
AC-K-24K24S1,848,experiment,85,←,left,←,0.4557836999883875,True,30,1
AC-K-24K24S1,849,experiment,69,←,left,←,0.5750363999977708,True,30,1
AC-K-24K24S1,850,experiment,82,↓,down,↓,0.5412043000105768,True,30,1
AC-K-24K24S1,851,experiment,75,←,left,←,0.36069760005921125,True,30,1
AC-K-24K24S1,852,experiment,49,↓,down,↓,0.44016889994964004,True,30,0
AC-K-24K24S1,853,experiment,94,→,right,→,0.4638498000567779,True,30,1
AC-K-24K24S1,854,experiment,62,↑,up,↑,0.5051102000288665,True,30,1
AC-K-24K24S1,855,experiment,67,→,right,→,0.5831481000641361,True,30,1
AC-K-24K24S1,856,experiment,57,←,left,←,0.5251917000859976,True,30,1
AC-K-24K24S1,857,experiment,84,↑,up,↑,0.6129384000087157,True,30,1
AC-K-24K24S1,858,experiment,65,↓,down,↓,0.5034518999746069,True,30,1
AC-K-24K24S1,859,experiment,102,←,left,←,0.577694799983874,True,30,1
AC-K-24K24S1,860,training,58,←,left,←,0.4894239000277594,True,29,0
AC-K-24K24S1,861,training,57,←,left,←,0.31737409997731447,True,29,1
AC-K-24K24S1,862,experiment,64,↓,down,↓,0.4411196999717504,True,29,1
AC-K-24K24S1,863,experiment,99,→,right,→,0.3680636000353843,True,29,1
AC-K-24K24S1,864,experiment,61,←,left,←,0.4682713000802323,True,29,1
AC-K-24K24S1,865,experiment,87,→,right,→,0.384167900076136,True,29,1
AC-K-24K24S1,866,experiment,100,←,left,←,0.33410490001551807,True,29,0
AC-K-24K24S1,867,experiment,56,←,left,←,0.5091305000241846,True,29,0
AC-K-24K24S1,868,experiment,108,↑,up,↑,0.3924799000378698,True,29,1
AC-K-24K24S1,869,experiment,65,↓,down,↓,0.6161552000558004,True,29,1
AC-K-24K24S1,870,experiment,76,←,left,←,0.4787536000367254,True,29,1
AC-K-24K24S1,871,experiment,88,↓,right,→,1.0785183999687433,False,29,1
AC-K-24K24S1,872,experiment,81,←,left,←,0.4732361000496894,True,29,1
AC-K-24K24S1,873,experiment,90,→,no_key,no_letter,-1.0,False,29,1
AC-K-24K24S1,874,experiment,71,→,right,→,0.4939703999552876,True,29,1
AC-K-24K24S1,875,experiment,48,→,right,→,0.5468054000521079,True,29,1
AC-K-24K24S1,876,experiment,77,↑,up,↑,0.62775389989838,True,29,1
AC-K-24K24S1,877,experiment,96,↓,down,↓,0.5794071999844164,True,29,1
AC-K-24K24S1,878,experiment,93,←,left,←,0.5178793000523001,True,29,1
AC-K-24K24S1,879,experiment,68,↑,up,↑,0.6429560000542551,True,29,1
AC-K-24K24S1,880,experiment,80,↓,down,↓,0.6231371000176296,True,29,1
AC-K-24K24S1,881,experiment,86,←,left,←,0.5302466000430286,True,29,1
AC-K-24K24S1,882,experiment,57,↓,down,↓,0.4744168999604881,True,29,1
AC-K-24K24S1,883,experiment,62,↓,down,↓,0.5471849000314251,True,29,1
AC-K-24K24S1,884,experiment,59,↑,up,↑,0.6422629000153393,True,29,1
AC-K-24K24S1,885,experiment,74,→,right,→,0.568446799996309,True,29,1
AC-K-24K24S1,886,experiment,55,↑,up,↑,0.4879992000060156,True,29,1
AC-K-24K24S1,887,experiment,102,→,right,→,0.5231288999784738,True,29,1
AC-K-24K24S1,888,experiment,104,↓,down,↓,0.5803176999324933,True,29,1
AC-K-24K24S1,889,experiment,60,↓,down,↓,0.47344640002120286,True,29,1
AC-K-24K24S1,890,experiment,75,↓,down,↓,0.6217859000898898,True,29,1
AC-K-24K24S1,891,experiment,50,↓,down,↓,0.468855099985376,True,29,1
AC-K-24K24S1,892,experiment,49,→,right,→,0.3925967999966815,True,29,1
AC-K-24K24S1,893,experiment,98,←,left,←,0.3594335000962019,True,29,1
AC-K-24K24S1,894,experiment,82,←,left,←,0.5446188000496477,True,29,0
AC-K-24K24S1,895,experiment,51,→,right,→,0.5304715000092983,True,29,1
AC-K-24K24S1,896,experiment,85,←,left,←,0.5215191999450326,True,29,1
AC-K-24K24S1,897,experiment,69,↑,up,↑,0.6861427999101579,True,29,1
AC-K-24K24S1,898,experiment,63,↓,down,↓,0.6144435999449342,True,29,1
AC-K-24K24S1,899,experiment,52,↓,down,↓,0.5168984000338241,True,29,1
AC-K-24K24S1,900,experiment,103,→,right,→,0.6305466999765486,True,29,1
AC-K-24K24S1,901,experiment,92,→,no_key,no_letter,-1.0,False,29,1
AC-K-24K24S1,902,experiment,54,↑,left,←,0.7616448999615386,False,29,1
AC-K-24K24S1,903,experiment,106,←,left,←,0.4642891000257805,True,29,1
AC-K-24K24S1,904,experiment,89,↑,up,↑,0.6006109000882134,True,29,1
AC-K-24K24S1,905,experiment,79,→,right,→,0.5590516999363899,True,29,1
AC-K-24K24S1,906,experiment,73,↓,down,↓,0.4488926000194624,True,29,1
AC-K-24K24S1,907,experiment,72,↓,down,↓,0.6072582000633702,True,29,1
AC-K-24K24S1,908,experiment,91,↑,up,↑,0.7933243999723345,True,29,1
AC-K-24K24S1,909,experiment,107,↓,down,↓,0.6390125999459997,True,29,1
AC-K-24K24S1,910,experiment,67,→,right,→,0.6395023999502882,True,29,1
AC-K-24K24S1,911,experiment,84,←,left,←,0.3837935000192374,True,29,1
AC-K-24K24S1,912,experiment,94,↑,up,↑,0.6360118000302464,True,29,0
AC-K-24K24S1,913,experiment,83,←,left,←,0.6877529999474064,True,29,1
AC-K-24K24S1,914,experiment,95,↑,up,↑,0.5969707999611273,True,29,1
AC-K-24K24S1,915,experiment,101,→,right,→,0.8121521000284702,True,29,1
AC-K-24K24S1,916,experiment,53,↑,up,↑,0.7461558000650257,True,29,1
AC-K-24K24S1,917,experiment,97,→,right,→,0.4607942000729963,True,29,1
AC-K-24K24S1,918,experiment,58,↑,up,↑,0.7195338999154046,True,29,1
AC-K-24K24S1,919,experiment,66,↑,up,↑,0.6775155999930575,True,29,1
AC-K-24K24S1,920,experiment,78,←,left,←,0.5367998000001535,True,29,1
AC-K-24K24S1,921,experiment,70,←,left,←,0.35906229994725436,True,29,1
AC-K-24K24S1,922,experiment,105,↓,left,←,0.8278228000272065,False,29,1
AC-K-24K24S1,923,training,103,→,right,→,0.40737969998735934,True,28,0
AC-K-24K24S1,924,training,83,→,right,→,0.6116819999879226,True,28,0
AC-K-24K24S1,925,experiment,67,↓,down,↓,0.6777160000056028,True,28,1
AC-K-24K24S1,926,experiment,55,←,left,←,0.4091818999731913,True,28,1
AC-K-24K24S1,927,experiment,73,←,no_key,no_letter,-1.0,False,28,1
AC-K-24K24S1,928,experiment,101,↑,up,↑,0.5480154000688344,True,28,1
AC-K-24K24S1,929,experiment,62,↑,up,↑,0.737939800019376,True,28,1
AC-K-24K24S1,930,experiment,53,↓,down,↓,0.6510774999624118,True,28,1
AC-K-24K24S1,931,experiment,95,↑,up,↑,0.5701235999586061,True,28,1
AC-K-24K24S1,932,experiment,93,←,left,←,0.46926949999760836,True,28,1
AC-K-24K24S1,933,experiment,66,→,right,→,0.4449456000002101,True,28,1
AC-K-24K24S1,934,experiment,97,↓,down,↓,0.723441099980846,True,28,1
AC-K-24K24S1,935,experiment,91,↑,up,↑,0.36691969993989915,True,28,1
AC-K-24K24S1,936,experiment,52,→,right,→,0.3676902001025155,True,28,0
AC-K-24K24S1,937,experiment,58,↑,up,↑,0.5589542000088841,True,28,1
AC-K-24K24S1,938,experiment,50,↑,no_key,no_letter,-1.0,False,28,1
AC-K-24K24S1,939,experiment,87,↓,down,↓,0.5126690999604762,True,28,1
AC-K-24K24S1,940,experiment,107,→,right,→,0.529158000019379,True,28,1
AC-K-24K24S1,941,experiment,76,→,right,→,0.375990999978967,True,28,1
AC-K-24K24S1,942,experiment,102,←,left,←,0.5545884999446571,True,28,1
AC-K-24K24S1,943,experiment,79,↓,down,↓,0.45846090000122786,True,28,1
AC-K-24K24S1,944,experiment,63,↑,up,↑,0.539794999989681,True,28,1
AC-K-24K24S1,945,experiment,96,→,right,→,0.5906698999460787,True,28,1
AC-K-24K24S1,946,experiment,48,→,right,→,0.4081213999306783,True,28,1
AC-K-24K24S1,947,experiment,108,→,right,→,0.6598711999831721,True,28,1
AC-K-24K24S1,948,experiment,75,↓,down,↓,0.537214900017716,True,28,1
AC-K-24K24S1,949,experiment,80,↑,up,↑,0.6414024999830872,True,28,1
AC-K-24K24S1,950,experiment,99,↑,up,↑,0.4152973999734968,True,28,1
AC-K-24K24S1,951,experiment,84,→,right,→,0.6432600999251008,True,28,1
AC-K-24K24S1,952,experiment,94,←,no_key,no_letter,-1.0,False,28,1
AC-K-24K24S1,953,experiment,89,↓,down,↓,0.5222493000328541,True,28,1
AC-K-24K24S1,954,experiment,86,↓,down,↓,0.6330367000773549,True,28,1
AC-K-24K24S1,955,experiment,82,↓,down,↓,0.5409549999749288,True,28,1
AC-K-24K24S1,956,experiment,88,↓,down,↓,0.4826233999338001,True,28,1
AC-K-24K24S1,957,experiment,70,←,left,←,0.42476280010305345,True,28,1
AC-K-24K24S1,958,experiment,77,→,right,→,0.4464927999069914,True,28,1
AC-K-24K24S1,959,experiment,78,→,right,→,0.5791807000059634,True,28,1
AC-K-24K24S1,960,experiment,69,↓,down,↓,0.4693132999818772,True,28,1
AC-K-24K24S1,961,experiment,103,→,right,→,0.5609577000141144,True,28,1
AC-K-24K24S1,962,experiment,71,→,right,→,0.5873184000374749,True,28,1
AC-K-24K24S1,963,experiment,105,↑,up,↑,0.55325510003604,True,28,1
AC-K-24K24S1,964,experiment,56,→,right,→,0.505394299980253,True,28,1
AC-K-24K24S1,965,experiment,72,→,right,→,0.6293191000586376,True,28,1
AC-K-24K24S1,966,experiment,106,→,right,→,0.4497248000698164,True,28,1
AC-K-24K24S1,967,experiment,59,←,left,←,0.38425060000736266,True,28,1
AC-K-24K24S1,968,experiment,51,↓,down,↓,0.4123932000948116,True,28,1
AC-K-24K24S1,969,experiment,85,↑,no_key,no_letter,-1.0,False,28,1
AC-K-24K24S1,970,experiment,60,↓,down,↓,0.5370962000451982,True,28,1
AC-K-24K24S1,971,experiment,57,↓,down,↓,0.4407861999934539,True,28,1
AC-K-24K24S1,972,experiment,54,↑,up,↑,0.461689000017941,True,28,1
AC-K-24K24S1,973,experiment,49,←,right,→,0.723680799943395,False,28,1
AC-K-24K24S1,974,experiment,74,↓,down,↓,0.6226830000523478,True,28,1
AC-K-24K24S1,975,experiment,104,↓,down,↓,0.49157740001101047,True,28,1
AC-K-24K24S1,976,experiment,61,↑,up,↑,0.5881859000073746,True,28,1
AC-K-24K24S1,977,experiment,83,←,no_key,no_letter,-1.0,False,28,1
AC-K-24K24S1,978,experiment,68,←,left,←,0.5279875999549404,True,28,1
AC-K-24K24S1,979,experiment,92,→,right,→,1.1885853999992833,True,28,1
AC-K-24K24S1,980,experiment,98,←,left,←,0.3583083999110386,True,28,1
AC-K-24K24S1,981,experiment,65,↓,left,←,0.7055865000002086,False,28,0
AC-K-24K24S1,982,experiment,90,→,right,→,0.3427376999752596,True,28,1
AC-K-24K24S1,983,experiment,81,↑,up,↑,0.5676253999117762,True,28,1
AC-K-24K24S1,984,experiment,64,↑,up,↑,0.5400484999408945,True,28,1
AC-K-24K24S1,985,experiment,100,↑,up,↑,0.49373639991972595,True,28,1
AC-K-24K24S1,986,training,83,↓,down,↓,0.4664379999740049,True,28,0
AC-K-24K24S1,987,training,49,↑,up,↑,0.32594250002875924,True,28,1
AC-K-24K24S1,988,experiment,77,←,left,←,0.6974106000270694,True,28,0
AC-K-24K24S1,989,experiment,50,↓,down,↓,0.5173378000035882,True,28,1
AC-K-24K24S1,990,experiment,104,→,right,→,0.47871209995355457,True,28,1
AC-K-24K24S1,991,experiment,75,↑,up,↑,0.4832137000048533,True,28,1
AC-K-24K24S1,992,experiment,89,↑,up,↑,0.47446950001176447,True,28,1
AC-K-24K24S1,993,experiment,53,→,right,→,0.4863023000070825,True,28,1
AC-K-24K24S1,994,experiment,93,←,no_key,no_letter,-1.0,False,28,1
AC-K-24K24S1,995,experiment,72,↑,up,↑,0.5773876000894234,True,28,1
AC-K-24K24S1,996,experiment,99,↑,up,↑,0.5142112999456003,True,28,1
AC-K-24K24S1,997,experiment,107,→,no_key,no_letter,-1.0,False,28,1
AC-K-24K24S1,998,experiment,74,←,left,←,0.4946953000035137,True,28,1
AC-K-24K24S1,999,experiment,78,→,right,→,0.6816543999593705,True,28,1
AC-K-24K24S1,1000,experiment,90,→,right,→,0.4972104000626132,True,28,1
AC-K-24K24S1,1001,experiment,71,↓,down,↓,0.6461773000191897,True,28,1
AC-K-24K24S1,1002,experiment,87,→,right,→,0.44758079992607236,True,28,1
AC-K-24K24S1,1003,experiment,82,←,left,←,0.5149203999899328,True,28,1
AC-K-24K24S1,1004,experiment,62,←,left,←,0.5702778999693692,True,28,1
AC-K-24K24S1,1005,experiment,65,→,right,→,0.4220856000902131,True,28,1
AC-K-24K24S1,1006,experiment,92,↓,down,↓,0.4392908000154421,True,28,1
AC-K-24K24S1,1007,experiment,66,←,left,←,0.5519551000325009,True,28,1
AC-K-24K24S1,1008,experiment,52,↓,down,↓,0.5129097000462934,True,28,1
AC-K-24K24S1,1009,experiment,105,←,left,←,0.3842790999915451,True,28,1
AC-K-24K24S1,1010,experiment,55,→,right,→,0.3753606000682339,True,28,1
AC-K-24K24S1,1011,experiment,81,→,no_key,no_letter,-1.0,False,28,0
AC-K-24K24S1,1012,experiment,97,→,right,→,0.35037609993014485,True,28,1
AC-K-24K24S1,1013,experiment,58,←,left,←,0.6663966000778601,True,28,0
AC-K-24K24S1,1014,experiment,69,←,no_key,no_letter,-1.0,False,28,1
AC-K-24K24S1,1015,experiment,80,↓,down,↓,0.5237117999931797,True,28,1
AC-K-24K24S1,1016,experiment,51,↑,down,↓,0.6621787999756634,False,28,1
AC-K-24K24S1,1017,experiment,84,↓,down,↓,0.5042930000927299,True,28,1
AC-K-24K24S1,1018,experiment,70,↓,down,↓,0.4855257000308484,True,28,1
AC-K-24K24S1,1019,experiment,94,↑,up,↑,0.4350418000249192,True,28,1
AC-K-24K24S1,1020,experiment,102,←,left,←,0.48036829999182373,True,28,1
AC-K-24K24S1,1021,experiment,64,↓,down,↓,0.44834240002091974,True,28,1
AC-K-24K24S1,1022,experiment,98,→,right,→,0.3840370000107214,True,28,1
AC-K-24K24S1,1023,experiment,106,←,left,←,0.5559061999665573,True,28,1
AC-K-24K24S1,1024,experiment,86,↓,down,↓,0.6335646000225097,True,28,1
AC-K-24K24S1,1025,experiment,57,←,no_key,no_letter,-1.0,False,28,1
AC-K-24K24S1,1026,experiment,79,↓,down,↓,0.5284823999973014,True,28,1
AC-K-24K24S1,1027,experiment,54,↓,down,↓,0.6019258999731392,True,28,1
AC-K-24K24S1,1028,experiment,91,↑,up,↑,0.7159267999231815,True,28,1
AC-K-24K24S1,1029,experiment,67,↑,no_key,no_letter,-1.0,False,28,1
AC-K-24K24S1,1030,experiment,56,←,left,←,0.3426364999031648,True,28,1
AC-K-24K24S1,1031,experiment,61,↑,up,↑,1.098233800032176,True,28,1
AC-K-24K24S1,1032,experiment,83,←,left,←,0.8033520999597386,True,28,1
AC-K-24K24S1,1033,experiment,63,←,left,←,0.5028159000212327,True,28,1
AC-K-24K24S1,1034,experiment,101,↑,up,↑,0.40974499995354563,True,28,1
AC-K-24K24S1,1035,experiment,85,↑,up,↑,0.3835386000573635,True,28,1
AC-K-24K24S1,1036,experiment,96,↓,down,↓,0.5503181000240147,True,28,0
AC-K-24K24S1,1037,experiment,76,↓,down,↓,0.6235728999599814,True,28,1
AC-K-24K24S1,1038,experiment,88,↓,down,↓,0.6260047999676317,True,28,1
AC-K-24K24S1,1039,experiment,48,↓,down,↓,0.6415750000160187,True,28,1
AC-K-24K24S1,1040,experiment,103,↓,down,↓,0.5423337999964133,True,28,1
AC-K-24K24S1,1041,experiment,59,↑,down,↓,0.7895334999775514,False,28,1
AC-K-24K24S1,1042,experiment,49,→,right,→,0.49413239990826696,True,28,1
AC-K-24K24S1,1043,experiment,68,←,left,←,0.43618530000094324,True,28,1
AC-K-24K24S1,1044,experiment,108,←,left,←,0.7988847999367863,True,28,1
AC-K-24K24S1,1045,experiment,73,↓,down,↓,0.6956879000645131,True,28,1
AC-K-24K24S1,1046,experiment,60,↓,down,↓,0.8803462000796571,True,28,1
AC-K-24K24S1,1047,experiment,100,↓,down,↓,0.46833379997406155,True,28,1
AC-K-24K24S1,1048,experiment,95,↓,down,↓,0.634548700065352,True,28,1
AC-K-24K24S1,1049,training,51,→,right,→,0.536032099975273,True,28,0
AC-K-24K24S1,1050,training,72,↑,up,↑,0.5475746999727562,True,28,1
AC-K-24K24S1,1051,experiment,84,←,no_key,no_letter,-1.0,False,28,1
AC-K-24K24S1,1052,experiment,72,←,left,←,0.5030307000270113,True,28,1
AC-K-24K24S1,1053,experiment,52,↓,down,↓,0.6498551000840962,True,28,1
AC-K-24K24S1,1054,experiment,67,←,left,←,0.490109600010328,True,28,1
AC-K-24K24S1,1055,experiment,77,↓,down,↓,0.4614015999250114,True,28,1
AC-K-24K24S1,1056,experiment,88,↑,up,↑,0.40684850001707673,True,28,1
AC-K-24K24S1,1057,experiment,86,↓,down,↓,0.4339916000608355,True,28,1
AC-K-24K24S1,1058,experiment,78,↓,down,↓,0.4233495999360457,True,28,1
AC-K-24K24S1,1059,experiment,68,←,left,←,0.5599123999709263,True,28,1
AC-K-24K24S1,1060,experiment,73,→,right,→,0.34992910001892596,True,28,1
AC-K-24K24S1,1061,experiment,93,→,right,→,0.3178512000013143,True,28,0
AC-K-24K24S1,1062,experiment,82,↓,down,↓,0.43731619999744,True,28,0
AC-K-24K24S1,1063,experiment,59,←,left,←,0.342644999967888,True,28,1
AC-K-24K24S1,1064,experiment,61,↓,down,↓,0.42270659992937,True,28,1
AC-K-24K24S1,1065,experiment,90,→,right,→,0.35107760003302246,True,28,1
AC-K-24K24S1,1066,experiment,99,→,right,→,0.47395370004232973,True,28,0
AC-K-24K24S1,1067,experiment,74,↓,down,↓,0.5748796999687329,True,28,1
AC-K-24K24S1,1068,experiment,48,←,left,←,0.40842150000389665,True,28,1
AC-K-24K24S1,1069,experiment,94,←,left,←,0.3260229000588879,True,28,1
AC-K-24K24S1,1070,experiment,87,↓,down,↓,0.6231368000153452,True,28,1
AC-K-24K24S1,1071,experiment,92,↑,down,↓,0.8082483999896795,False,28,1
AC-K-24K24S1,1072,experiment,89,↑,up,↑,0.4989946000277996,True,28,1
AC-K-24K24S1,1073,experiment,102,↑,up,↑,0.4695923998951912,True,28,1
AC-K-24K24S1,1074,experiment,83,←,left,←,0.3848752999911085,True,28,1
AC-K-24K24S1,1075,experiment,71,↓,down,↓,0.5611898000352085,True,28,1
AC-K-24K24S1,1076,experiment,70,↓,down,↓,0.44363319990225136,True,28,1
AC-K-24K24S1,1077,experiment,105,↓,down,↓,0.43950660002883524,True,28,1
AC-K-24K24S1,1078,experiment,107,←,right,→,0.730963799986057,False,28,1
AC-K-24K24S1,1079,experiment,58,↓,down,↓,0.586843500030227,True,28,1
AC-K-24K24S1,1080,experiment,80,↓,down,↓,0.5694648999487981,True,28,1
AC-K-24K24S1,1081,experiment,56,↑,up,↑,0.4806747999973595,True,28,1
AC-K-24K24S1,1082,experiment,103,↑,no_key,no_letter,-1.0,False,28,1
AC-K-24K24S1,1083,experiment,98,↓,down,↓,0.5922439999412745,True,28,1
AC-K-24K24S1,1084,experiment,60,←,up,↑,0.35076739999931306,False,28,1
AC-K-24K24S1,1085,experiment,62,←,left,←,0.3593698999611661,True,28,0
AC-K-24K24S1,1086,experiment,49,↓,down,↓,0.4999495999654755,True,28,1
AC-K-24K24S1,1087,experiment,54,→,right,→,0.7424575000768527,True,28,1
AC-K-24K24S1,1088,experiment,104,↑,down,↓,0.7111348999897018,False,28,1
AC-K-24K24S1,1089,experiment,64,←,left,←,0.6137141000945121,True,28,1
AC-K-24K24S1,1090,experiment,91,↓,down,↓,0.6554354999680072,True,28,1
AC-K-24K24S1,1091,experiment,69,→,down,↓,0.582872600061819,False,28,1
AC-K-24K24S1,1092,experiment,96,→,down,↓,0.6080632000230253,False,28,1
AC-K-24K24S1,1093,experiment,75,←,down,↓,0.7675592000596225,False,28,1
AC-K-24K24S1,1094,experiment,100,←,down,↓,0.880291200010106,False,28,1
AC-K-24K24S1,1095,experiment,63,→,right,→,0.6964445000048727,True,28,1
AC-K-24K24S1,1096,experiment,50,→,no_key,no_letter,-1.0,False,28,1
AC-K-24K24S1,1097,experiment,53,↓,down,↓,0.5440240999450907,True,28,1
AC-K-24K24S1,1098,experiment,95,→,right,→,0.4038686999119818,True,28,1
AC-K-24K24S1,1099,experiment,57,↓,down,↓,0.4321554000489414,True,28,1
AC-K-24K24S1,1100,experiment,79,↑,up,↑,0.42139959998894483,True,28,1
AC-K-24K24S1,1101,experiment,76,→,down,↓,0.7874580000061542,False,28,1
AC-K-24K24S1,1102,experiment,97,↓,down,↓,0.5799771000165492,True,28,1
AC-K-24K24S1,1103,experiment,81,↑,up,↑,0.4032714000204578,True,28,1
AC-K-24K24S1,1104,experiment,106,↑,up,↑,0.4554799000034109,True,28,0
AC-K-24K24S1,1105,experiment,65,↑,up,↑,0.4161418000003323,True,28,1
AC-K-24K24S1,1106,experiment,66,↑,up,↑,0.3334583999821916,True,28,1
AC-K-24K24S1,1107,experiment,101,↑,up,↑,0.6670095999725163,True,28,0
AC-K-24K24S1,1108,experiment,51,→,right,→,0.5679122000001371,True,28,1
AC-K-24K24S1,1109,experiment,108,→,right,→,0.6380905999103561,True,28,1
AC-K-24K24S1,1110,experiment,85,→,right,→,1.4646210999926552,True,28,1
AC-K-24K24S1,1111,experiment,55,→,no_key,no_letter,-1.0,False,28,1
AC-K-24K24S1,1112,training,82,→,right,→,0.35041690000798553,True,28,0
AC-K-24K24S1,1113,training,76,↓,down,↓,0.6070895000593737,True,28,0
AC-K-24K24S1,1114,experiment,98,↓,down,↓,0.5106787000549957,True,28,1
AC-K-24K24S1,1115,experiment,97,↑,up,↑,0.4187016999348998,True,28,1
AC-K-24K24S1,1116,experiment,70,←,left,←,0.3177986000664532,True,28,1
AC-K-24K24S1,1117,experiment,106,→,right,→,0.5631289999000728,True,28,1
AC-K-24K24S1,1118,experiment,59,↓,down,↓,0.40971690008882433,True,28,1
AC-K-24K24S1,1119,experiment,99,↓,down,↓,0.377750699990429,True,28,1
AC-K-24K24S1,1120,experiment,48,↑,up,↑,0.4174873000010848,True,28,0
AC-K-24K24S1,1121,experiment,81,←,left,←,0.6060278000077233,True,28,1
AC-K-24K24S1,1122,experiment,104,↑,up,↑,0.4119393000146374,True,28,1
AC-K-24K24S1,1123,experiment,80,↓,down,↓,0.4329320000251755,True,28,1
AC-K-24K24S1,1124,experiment,77,↑,up,↑,0.3595850000856444,True,28,1
AC-K-24K24S1,1125,experiment,62,↑,up,↑,0.7397730000084266,True,28,0
AC-K-24K24S1,1126,experiment,108,↑,up,↑,0.538734000059776,True,28,1
AC-K-24K24S1,1127,experiment,95,↓,down,↓,0.5261246999725699,True,28,1
AC-K-24K24S1,1128,experiment,49,←,right,→,0.8734127000207081,False,28,1
AC-K-24K24S1,1129,experiment,67,→,right,→,0.6406921000452712,True,28,1
AC-K-24K24S1,1130,experiment,78,↓,down,↓,0.45367780001834035,True,28,1
AC-K-24K24S1,1131,experiment,57,↓,down,↓,0.6572481000330299,True,28,1
AC-K-24K24S1,1132,experiment,69,↑,up,↑,0.43238679994829,True,28,1
AC-K-24K24S1,1133,experiment,85,↓,down,↓,0.5794316000537947,True,28,1
AC-K-24K24S1,1134,experiment,92,←,left,←,0.44577460002619773,True,28,1
AC-K-24K24S1,1135,experiment,74,↓,left,←,1.0839607999660075,False,28,1
AC-K-24K24S1,1136,experiment,58,←,left,←,0.5500949000706896,True,28,1
AC-K-24K24S1,1137,experiment,103,↑,up,↑,0.6063063000328839,True,28,1
AC-K-24K24S1,1138,experiment,105,↓,down,↓,0.6517698999959975,True,28,1
AC-K-24K24S1,1139,experiment,84,↑,up,↑,0.5660337000153959,True,28,1
AC-K-24K24S1,1140,experiment,64,←,left,←,1.0506437999429181,True,28,1
AC-K-24K24S1,1141,experiment,75,↑,up,↑,0.6324951999122277,True,28,1
AC-K-24K24S1,1142,experiment,60,↑,up,↑,0.4756092999596149,True,28,1
AC-K-24K24S1,1143,experiment,83,←,left,←,0.597874499973841,True,28,1
AC-K-24K24S1,1144,experiment,87,↑,up,↑,0.48919779993593693,True,28,1
AC-K-24K24S1,1145,experiment,94,←,left,←,0.43099380005151033,True,28,1
AC-K-24K24S1,1146,experiment,56,↓,down,↓,0.667177899973467,True,28,1
AC-K-24K24S1,1147,experiment,50,←,left,←,0.5604782999726012,True,28,1
AC-K-24K24S1,1148,experiment,52,↑,no_key,no_letter,-1.0,False,28,1
AC-K-24K24S1,1149,experiment,53,↓,down,↓,0.4283292000181973,True,28,1
AC-K-24K24S1,1150,experiment,89,↓,down,↓,0.5503622000105679,True,28,1
AC-K-24K24S1,1151,experiment,93,↑,up,↑,0.42606540000997484,True,28,1
AC-K-24K24S1,1152,experiment,100,→,right,→,0.5123138000490144,True,28,1
AC-K-24K24S1,1153,experiment,71,↓,down,↓,0.5563817000947893,True,28,1
AC-K-24K24S1,1154,experiment,86,→,no_key,no_letter,-1.0,False,28,1
AC-K-24K24S1,1155,experiment,101,↓,down,↓,0.5176500999368727,True,28,1
AC-K-24K24S1,1156,experiment,91,←,left,←,0.4433366999728605,True,28,1
AC-K-24K24S1,1157,experiment,96,↑,up,↑,0.5702110000420362,True,28,1
AC-K-24K24S1,1158,experiment,102,→,up,↑,0.8258063000394031,False,28,1
AC-K-24K24S1,1159,experiment,65,→,right,→,0.42798760009463876,True,28,1
AC-K-24K24S1,1160,experiment,66,→,right,→,0.7969654999906197,True,28,1
AC-K-24K24S1,1161,experiment,63,↑,up,↑,0.49661799997556955,True,28,1
AC-K-24K24S1,1162,experiment,88,↓,down,↓,0.6801166000077501,True,28,1
AC-K-24K24S1,1163,experiment,61,↓,right,→,1.8011321000522003,False,28,1
AC-K-24K24S1,1164,experiment,72,↑,up,↑,0.4025934999808669,True,28,1
AC-K-24K24S1,1165,experiment,55,→,right,→,0.8639604999916628,True,28,0
AC-K-24K24S1,1166,experiment,54,↑,up,↑,0.49190989998169243,True,28,1
AC-K-24K24S1,1167,experiment,90,←,left,←,0.42672729992773384,True,28,1
AC-K-24K24S1,1168,experiment,68,↓,down,↓,0.5716470000334084,True,28,1
AC-K-24K24S1,1169,experiment,51,↑,up,↑,0.47621989995241165,True,28,1
AC-K-24K24S1,1170,experiment,79,←,left,←,0.5351545999292284,True,28,1
AC-K-24K24S1,1171,experiment,73,→,right,→,0.6182346999412403,True,28,1
AC-K-24K24S1,1172,experiment,82,↓,left,←,0.7348200000124052,False,28,1
AC-K-24K24S1,1173,experiment,76,→,left,←,0.6485995999537408,False,28,1
AC-K-24K24S1,1174,experiment,107,→,right,→,0.6436802999814972,True,28,1
AC-K-24K24S1,1175,training,92,↓,no_key,no_letter,-1.0,False,28,0
AC-K-24K24S1,1176,training,50,↓,down,↓,0.5623177000088617,True,28,1
AC-K-24K24S1,1177,experiment,75,↓,down,↓,0.41140679991804063,True,28,1
AC-K-24K24S1,1178,experiment,54,↓,down,↓,0.5213150999043137,True,28,1
AC-K-24K24S1,1179,experiment,69,↑,up,↑,0.35072879993822426,True,28,1
AC-K-24K24S1,1180,experiment,62,→,right,→,0.30901860003359616,True,28,0
AC-K-24K24S1,1181,experiment,89,→,right,→,0.3594297000672668,True,28,0
AC-K-24K24S1,1182,experiment,98,→,right,→,0.5069278998998925,True,28,0
AC-K-24K24S1,1183,experiment,103,→,right,→,0.3606920000165701,True,28,1
AC-K-24K24S1,1184,experiment,53,↓,down,↓,0.46130229998379946,True,28,0
AC-K-24K24S1,1185,experiment,77,↓,down,↓,0.42609630001243204,True,28,1
AC-K-24K24S1,1186,experiment,81,→,right,→,0.44619930000044405,True,28,1
AC-K-24K24S1,1187,experiment,60,↓,down,↓,0.43281740008387715,True,28,1
AC-K-24K24S1,1188,experiment,66,↓,down,↓,0.5779079999774694,True,28,1
AC-K-24K24S1,1189,experiment,107,←,left,←,0.369815899990499,True,28,1
AC-K-24K24S1,1190,experiment,85,→,right,→,0.37606669997330755,True,28,0
AC-K-24K24S1,1191,experiment,71,→,right,→,0.4940597000531852,True,28,0
AC-K-24K24S1,1192,experiment,83,←,left,←,0.47099649999290705,True,28,1
AC-K-24K24S1,1193,experiment,64,↑,up,↑,0.423396100057289,True,28,1
AC-K-24K24S1,1194,experiment,96,↑,up,↑,0.4149481999920681,True,28,1
AC-K-24K24S1,1195,experiment,88,→,right,→,0.5052475000265986,True,28,1
AC-K-24K24S1,1196,experiment,74,↓,down,↓,0.46107990003656596,True,28,1
AC-K-24K24S1,1197,experiment,68,←,left,←,0.5806146999821067,True,28,1
AC-K-24K24S1,1198,experiment,99,←,left,←,0.4530124000739306,True,28,1
AC-K-24K24S1,1199,experiment,76,←,left,←,0.5379231999395415,True,28,1
AC-K-24K24S1,1200,experiment,82,→,right,→,0.4256734000518918,True,28,1
AC-K-24K24S1,1201,experiment,67,↑,up,↑,0.5064669999992475,True,28,1
AC-K-24K24S1,1202,experiment,70,→,right,→,0.591587100061588,True,28,1
AC-K-24K24S1,1203,experiment,61,←,left,←,0.48398139991331846,True,28,1
AC-K-24K24S1,1204,experiment,90,↓,down,↓,0.6756030999822542,True,28,1
AC-K-24K24S1,1205,experiment,48,↓,left,←,0.8488794999429956,False,28,1
AC-K-24K24S1,1206,experiment,92,↑,up,↑,0.6730819999938831,True,28,1
AC-K-24K24S1,1207,experiment,57,↑,left,←,0.9237725000130013,False,28,1
AC-K-24K24S1,1208,experiment,101,↓,down,↓,0.5577041000360623,True,28,1
AC-K-24K24S1,1209,experiment,91,→,right,→,0.5137233000714332,True,28,1
AC-K-24K24S1,1210,experiment,100,↓,down,↓,0.4923444000305608,True,28,1
AC-K-24K24S1,1211,experiment,56,↓,down,↓,0.8946086999494582,True,28,1
AC-K-24K24S1,1212,experiment,72,↑,up,↑,0.4275015000021085,True,28,1
AC-K-24K24S1,1213,experiment,87,↓,down,↓,0.8937091999687254,True,28,1
AC-K-24K24S1,1214,experiment,80,↑,down,↓,0.8241442000726238,False,28,1
AC-K-24K24S1,1215,experiment,105,←,right,→,1.053104699938558,False,28,1
AC-K-24K24S1,1216,experiment,49,↑,left,←,1.035140800056979,False,28,1
AC-K-24K24S1,1217,experiment,97,←,left,←,0.6425795999821275,True,28,1
AC-K-24K24S1,1218,experiment,58,↓,left,←,1.6538157999748364,False,28,1
AC-K-24K24S1,1219,experiment,93,→,right,→,0.4134673000080511,True,28,1
AC-K-24K24S1,1220,experiment,102,↑,down,↓,0.7954356999834999,False,28,1
AC-K-24K24S1,1221,experiment,51,↓,down,↓,1.0911612000782043,True,28,1
AC-K-24K24S1,1222,experiment,86,→,right,→,0.4915530000580475,True,28,1
AC-K-24K24S1,1223,experiment,104,↓,down,↓,0.4859735000645742,True,28,1
AC-K-24K24S1,1224,experiment,59,→,right,→,0.6714417000766844,True,28,1
AC-K-24K24S1,1225,experiment,95,→,right,→,0.6703406000742689,True,28,1
AC-K-24K24S1,1226,experiment,78,↑,up,↑,0.49719710007775575,True,28,1
AC-K-24K24S1,1227,experiment,106,→,right,→,0.5145172000629827,True,28,1
AC-K-24K24S1,1228,experiment,65,←,left,←,0.4647704000817612,True,28,1
AC-K-24K24S1,1229,experiment,108,→,right,→,0.45066119998227805,True,28,1
AC-K-24K24S1,1230,experiment,84,↓,left,←,0.7492341999895871,False,28,1
AC-K-24K24S1,1231,experiment,55,↓,left,←,0.9097612000769004,False,28,1
AC-K-24K24S1,1232,experiment,50,←,left,←,0.6731645999243483,True,28,1
AC-K-24K24S1,1233,experiment,52,←,no_key,no_letter,-1.0,False,28,1
AC-K-24K24S1,1234,experiment,73,↓,up,↑,1.1137735999654979,False,28,1
AC-K-24K24S1,1235,experiment,63,←,left,←,0.37530319998040795,True,28,1
AC-K-24K24S1,1236,experiment,79,→,right,→,0.4717497000237927,True,28,0
AC-K-24K24S1,1237,experiment,94,↓,left,←,0.5741538000293076,False,28,1
AC-K-24K24S1,1238,training,71,↑,up,↑,0.35042589996010065,True,28,0
AC-K-24K24S1,1239,training,89,↑,up,↑,0.5035711999516934,True,28,0
AC-K-24K24S1,1240,experiment,101,→,right,→,0.5940718000056222,True,28,1
AC-K-24K24S1,1241,experiment,83,↓,down,↓,0.5432123000500724,True,28,1
AC-K-24K24S1,1242,experiment,96,↓,down,↓,0.4342368000652641,True,28,1
AC-K-24K24S1,1243,experiment,93,←,left,←,0.6102227000519633,True,28,1
AC-K-24K24S1,1244,experiment,77,↓,left,←,0.7767602000385523,False,28,1
AC-K-24K24S1,1245,experiment,88,→,right,→,0.4931908999569714,True,28,1
AC-K-24K24S1,1246,experiment,60,←,left,←,0.5096101000672206,True,28,1
AC-K-24K24S1,1247,experiment,61,←,left,←,0.4855284000514075,True,28,1
AC-K-24K24S1,1248,experiment,65,←,left,←,0.47720660001505166,True,28,1
AC-K-24K24S1,1249,experiment,70,←,left,←,0.4275829999241978,True,28,1
AC-K-24K24S1,1250,experiment,57,↑,up,↑,0.6157879999373108,True,28,1
AC-K-24K24S1,1251,experiment,49,←,left,←,0.4633733000373468,True,28,1
AC-K-24K24S1,1252,experiment,106,→,right,→,0.49821190000511706,True,28,1
AC-K-24K24S1,1253,experiment,91,↓,down,↓,0.7524624000070617,True,28,1
AC-K-24K24S1,1254,experiment,73,↑,up,↑,0.6588658000109717,True,28,1
AC-K-24K24S1,1255,experiment,71,←,left,←,0.6573498999932781,True,28,1
AC-K-24K24S1,1256,experiment,53,↓,down,↓,0.5097118000267074,True,28,1
AC-K-24K24S1,1257,experiment,99,↑,up,↑,0.601301799993962,True,28,1
AC-K-24K24S1,1258,experiment,108,↓,down,↓,0.45406930008903146,True,28,1
AC-K-24K24S1,1259,experiment,85,↓,down,↓,0.7042678999714553,True,28,1
AC-K-24K24S1,1260,experiment,75,←,left,←,0.4353220999473706,True,28,1
AC-K-24K24S1,1261,experiment,58,↓,down,↓,0.5751886999933049,True,28,1
AC-K-24K24S1,1262,experiment,54,↑,up,↑,0.6145346999401227,True,28,1
AC-K-24K24S1,1263,experiment,81,←,left,←,0.41976630000863224,True,28,1
AC-K-24K24S1,1264,experiment,76,↑,up,↑,0.46575159998610616,True,28,1
AC-K-24K24S1,1265,experiment,69,←,left,←,0.5766063000774011,True,28,1
AC-K-24K24S1,1266,experiment,97,↑,up,↑,0.6022793999873102,True,28,1
AC-K-24K24S1,1267,experiment,64,↓,down,↓,0.6050266000675038,True,28,1
AC-K-24K24S1,1268,experiment,59,←,left,←,0.3760789999505505,True,28,1
AC-K-24K24S1,1269,experiment,68,↑,up,↑,0.5321062000002712,True,28,0
AC-K-24K24S1,1270,experiment,107,←,left,←,0.36757449992001057,True,28,1
AC-K-24K24S1,1271,experiment,52,→,right,→,0.38429060007911175,True,28,1
AC-K-24K24S1,1272,experiment,67,→,right,→,0.5184563000220805,True,28,0
AC-K-24K24S1,1273,experiment,90,→,right,→,0.40500339993741363,True,28,1
AC-K-24K24S1,1274,experiment,100,↓,down,↓,0.4752303999848664,True,28,0
AC-K-24K24S1,1275,experiment,105,↓,down,↓,0.43802430003415793,True,28,1
AC-K-24K24S1,1276,experiment,102,→,no_key,no_letter,-1.0,False,28,1
AC-K-24K24S1,1277,experiment,66,↑,up,↑,0.497993899974972,True,28,1
AC-K-24K24S1,1278,experiment,79,←,left,←,0.3340348000638187,True,28,1
AC-K-24K24S1,1279,experiment,72,↑,up,↑,0.37532009999267757,True,28,1
AC-K-24K24S1,1280,experiment,104,→,right,→,0.42954469996038824,True,28,0
AC-K-24K24S1,1281,experiment,78,↑,up,↑,0.4037009000312537,True,28,1
AC-K-24K24S1,1282,experiment,51,←,right,→,0.7061067000031471,False,28,1
AC-K-24K24S1,1283,experiment,103,→,right,→,0.4049733999418095,True,28,1
AC-K-24K24S1,1284,experiment,50,↑,right,→,0.7477801999775693,False,28,1
AC-K-24K24S1,1285,experiment,62,←,left,←,0.7854080001125112,True,28,1
AC-K-24K24S1,1286,experiment,95,↑,up,↑,0.40338699996937066,True,28,1
AC-K-24K24S1,1287,experiment,86,↑,no_key,no_letter,-1.0,False,28,0
AC-K-24K24S1,1288,experiment,63,←,left,←,0.5669327999930829,True,28,1
AC-K-24K24S1,1289,experiment,55,←,left,←,0.3269999000476673,True,28,1
AC-K-24K24S1,1290,experiment,98,→,right,→,0.44063830003142357,True,28,0
AC-K-24K24S1,1291,experiment,92,↓,down,↓,0.41698630002792925,True,28,1
AC-K-24K24S1,1292,experiment,94,↑,up,↑,0.48943319998215884,True,28,1
AC-K-24K24S1,1293,experiment,87,→,left,←,0.777335699996911,False,28,1
AC-K-24K24S1,1294,experiment,84,←,left,←,0.5749913000036031,True,28,1
AC-K-24K24S1,1295,experiment,89,↑,left,←,0.6109083000337705,False,28,1
AC-K-24K24S1,1296,experiment,80,↑,up,↑,0.448430799995549,True,28,1
AC-K-24K24S1,1297,experiment,82,↑,up,↑,0.587787099997513,True,28,1
AC-K-24K24S1,1298,experiment,56,←,left,←,0.3586988999741152,True,28,1
AC-K-24K24S1,1299,experiment,74,←,left,←,0.5952144000912085,True,28,0
AC-K-24K24S1,1300,experiment,48,↓,left,←,0.7076063000131398,False,28,1
AC-K-24K24S1,1301,training,66,→,right,→,0.5677884999895468,True,28,0
AC-K-24K24S1,1302,training,60,↑,up,↑,0.3501721000066027,True,28,1
AC-K-24K24S1,1303,experiment,87,→,right,→,0.36782440007664263,True,28,0
AC-K-24K24S1,1304,experiment,91,↑,up,↑,0.5181564000668004,True,28,1
AC-K-24K24S1,1305,experiment,100,→,right,→,0.4728533000452444,True,28,1
AC-K-24K24S1,1306,experiment,75,↑,up,↑,0.5014972999924794,True,28,1
AC-K-24K24S1,1307,experiment,58,←,left,←,0.3418326999526471,True,28,1
AC-K-24K24S1,1308,experiment,106,→,right,→,0.40649419999681413,True,28,0
AC-K-24K24S1,1309,experiment,78,→,right,→,0.2928552000084892,True,28,0
AC-K-24K24S1,1310,experiment,96,↓,down,↓,0.6003097998909652,True,28,0
AC-K-24K24S1,1311,experiment,66,↑,up,↑,0.3759716999484226,True,28,1
AC-K-24K24S1,1312,experiment,83,←,left,←,0.35026810003910214,True,28,1
AC-K-24K24S1,1313,experiment,101,→,right,→,0.5050733999814838,True,28,0
AC-K-24K24S1,1314,experiment,56,↑,up,↑,0.3249658999266103,True,28,1
AC-K-24K24S1,1315,experiment,103,→,no_key,no_letter,-1.0,False,28,0
AC-K-24K24S1,1316,experiment,88,↑,up,↑,0.3504375000484288,True,28,1
AC-K-24K24S1,1317,experiment,86,↑,up,↑,0.32614520005881786,True,28,0
AC-K-24K24S1,1318,experiment,61,↑,up,↑,0.4877108000218868,True,28,0
AC-K-24K24S1,1319,experiment,62,↓,down,↓,0.4479103999910876,True,28,1
AC-K-24K24S1,1320,experiment,74,→,right,→,0.5017744000069797,True,28,1
AC-K-24K24S1,1321,experiment,107,←,left,←,0.36765349993947893,True,28,1
AC-K-24K24S1,1322,experiment,51,↓,down,↓,0.6068236000137404,True,28,0
AC-K-24K24S1,1323,experiment,92,↓,down,↓,0.544510200037621,True,28,1
AC-K-24K24S1,1324,experiment,89,↓,down,↓,0.4776762999827042,True,28,1
AC-K-24K24S1,1325,experiment,76,→,right,→,0.8337984000099823,True,28,1
AC-K-24K24S1,1326,experiment,77,↓,down,↓,0.5435633000452071,True,28,1
AC-K-24K24S1,1327,experiment,68,→,right,→,0.40414820006117225,True,28,1
AC-K-24K24S1,1328,experiment,67,→,right,→,0.37568109994754195,True,28,0
AC-K-24K24S1,1329,experiment,85,↓,down,↓,0.7062765000155196,True,28,0
AC-K-24K24S1,1330,experiment,90,←,left,←,0.35908600001130253,True,28,1
AC-K-24K24S1,1331,experiment,48,→,right,→,0.4584135999903083,True,28,0
AC-K-24K24S1,1332,experiment,55,←,left,←,0.5423230000305921,True,28,1
AC-K-24K24S1,1333,experiment,71,↓,down,↓,0.48953829996753484,True,28,1
AC-K-24K24S1,1334,experiment,49,↑,up,↑,0.4380253000417724,True,28,1
AC-K-24K24S1,1335,experiment,52,↑,up,↑,0.42751089995726943,True,28,1
AC-K-24K24S1,1336,experiment,64,→,right,→,0.4454877000534907,True,28,1
AC-K-24K24S1,1337,experiment,79,↓,down,↓,0.61759240005631,True,28,1
AC-K-24K24S1,1338,experiment,104,↓,down,↓,0.5589791000820696,True,28,1
AC-K-24K24S1,1339,experiment,95,→,right,→,0.5457014000276104,True,28,1
AC-K-24K24S1,1340,experiment,72,←,left,←,0.5641935999738052,True,28,1
AC-K-24K24S1,1341,experiment,94,↓,down,↓,0.47878070001024753,True,28,1
AC-K-24K24S1,1342,experiment,93,→,no_key,no_letter,-1.0,False,28,1
AC-K-24K24S1,1343,experiment,73,←,left,←,0.3756852999795228,True,28,1
AC-K-24K24S1,1344,experiment,54,↓,right,→,0.9289707000134513,False,28,0
AC-K-24K24S1,1345,experiment,50,↓,left,←,0.7158136999933049,False,28,1
AC-K-24K24S1,1346,experiment,102,↓,down,↓,0.6778165999567136,True,28,1
AC-K-24K24S1,1347,experiment,105,→,left,←,0.7045968000311404,False,28,1
AC-K-24K24S1,1348,experiment,108,←,left,←,0.6009336999850348,True,28,1
AC-K-24K24S1,1349,experiment,53,←,left,←,0.5518787000328302,True,28,1
AC-K-24K24S1,1350,experiment,82,←,left,←,0.6869915999704972,True,28,1
AC-K-24K24S1,1351,experiment,63,↓,down,↓,0.895045300014317,True,28,1
AC-K-24K24S1,1352,experiment,57,←,no_key,no_letter,-1.0,False,28,1
AC-K-24K24S1,1353,experiment,80,←,left,←,0.4429846000857651,True,28,1
AC-K-24K24S1,1354,experiment,97,→,right,→,0.4896298999665305,True,28,1
AC-K-24K24S1,1355,experiment,70,↑,up,↑,0.44737299997359514,True,28,1
AC-K-24K24S1,1356,experiment,69,↓,up,↑,0.7427329000784084,False,28,1
AC-K-24K24S1,1357,experiment,65,→,right,→,0.5160558000206947,True,28,1
AC-K-24K24S1,1358,experiment,98,→,right,→,0.5274848999688402,True,28,1
AC-K-24K24S1,1359,experiment,60,←,right,→,1.6309435999719426,False,28,1
AC-K-24K24S1,1360,experiment,84,←,left,←,0.4906905998941511,True,28,1
AC-K-24K24S1,1361,experiment,81,←,left,←,0.5328685999847949,True,28,1
AC-K-24K24S1,1362,experiment,99,→,no_key,no_letter,-1.0,False,28,1
AC-K-24K24S1,1363,experiment,59,→,left,←,0.5203883000649512,False,28,1
AC-K-24K24S1,1364,training,98,←,left,←,0.34190639993175864,True,28,0
AC-K-24K24S1,1365,training,77,↓,left,←,0.25047189998440444,False,28,0
AC-K-24K24S1,1366,experiment,92,←,left,←,0.5697708000661805,True,28,0
AC-K-24K24S1,1367,experiment,54,↑,up,↑,0.44141009997110814,True,28,1
AC-K-24K24S1,1368,experiment,100,↓,down,↓,0.5598441000329331,True,28,1
AC-K-24K24S1,1369,experiment,58,→,right,→,0.5339987999759614,True,28,1
AC-K-24K24S1,1370,experiment,102,↑,up,↑,0.59153370000422,True,28,1
AC-K-24K24S1,1371,experiment,55,↑,up,↑,0.5501699999440461,True,28,1
AC-K-24K24S1,1372,experiment,53,↓,down,↓,0.470859199995175,True,28,1
AC-K-24K24S1,1373,experiment,63,→,right,→,0.6554528999840841,True,28,1
AC-K-24K24S1,1374,experiment,72,←,left,←,0.42983299994375557,True,28,1
AC-K-24K24S1,1375,experiment,52,↑,up,↑,0.5236957999877632,True,28,1
AC-K-24K24S1,1376,experiment,107,↑,up,↑,0.6674997999798506,True,28,1
AC-K-24K24S1,1377,experiment,105,↑,up,↑,0.4069873000262305,True,28,1
AC-K-24K24S1,1378,experiment,83,←,left,←,0.5234171999618411,True,28,1
AC-K-24K24S1,1379,experiment,79,↑,up,↑,0.5084363999776542,True,28,1
AC-K-24K24S1,1380,experiment,56,↑,up,↑,0.36776239995379,True,28,1
AC-K-24K24S1,1381,experiment,71,→,right,→,0.6080833999440074,True,28,0
AC-K-24K24S1,1382,experiment,84,↓,down,↓,0.46829920005984604,True,28,1
AC-K-24K24S1,1383,experiment,85,↓,down,↓,0.6780703000258654,True,28,1
AC-K-24K24S1,1384,experiment,67,←,left,←,0.5253195000113919,True,28,1
AC-K-24K24S1,1385,experiment,76,↓,down,↓,0.5913797999965027,True,28,1
AC-K-24K24S1,1386,experiment,106,↑,up,↑,0.4448763000546023,True,28,1
AC-K-24K24S1,1387,experiment,87,↓,down,↓,0.5829961000708863,True,28,1
AC-K-24K24S1,1388,experiment,81,↓,right,→,0.6212565000168979,False,28,1
AC-K-24K24S1,1389,experiment,96,↓,down,↓,0.44503209996037185,True,28,1
AC-K-24K24S1,1390,experiment,49,→,right,→,0.5795745000941679,True,28,1
AC-K-24K24S1,1391,experiment,64,↑,right,→,0.8954471000470221,False,28,1
AC-K-24K24S1,1392,experiment,77,↓,down,↓,0.42657689994666725,True,28,1
AC-K-24K24S1,1393,experiment,99,↑,up,↑,0.5130045999540016,True,28,1
AC-K-24K24S1,1394,experiment,80,←,left,←,0.6024857999291271,True,28,1
AC-K-24K24S1,1395,experiment,93,→,right,→,0.40396400005556643,True,28,1
AC-K-24K24S1,1396,experiment,69,↓,up,↑,0.8049019000027329,False,28,0
AC-K-24K24S1,1397,experiment,59,↑,up,↑,0.5214180999901146,True,28,1
AC-K-24K24S1,1398,experiment,57,↓,down,↓,0.5061621000058949,True,28,1
AC-K-24K24S1,1399,experiment,75,↓,down,↓,0.6932034000055864,True,28,1
AC-K-24K24S1,1400,experiment,82,↑,up,↑,0.5268861999502406,True,28,1
AC-K-24K24S1,1401,experiment,48,←,no_key,no_letter,-1.0,False,28,1
AC-K-24K24S1,1402,experiment,65,↑,up,↑,0.42566519998945296,True,28,1
AC-K-24K24S1,1403,experiment,97,↑,up,↑,0.35056880000047386,True,28,1
AC-K-24K24S1,1404,experiment,101,←,right,→,0.9375344000291079,False,28,0
AC-K-24K24S1,1405,experiment,70,↑,up,↑,0.3022965000709519,True,28,1
AC-K-24K24S1,1406,experiment,95,←,left,←,0.48135669995099306,True,28,0
