PART_ID,Trial_no,Trial_type,CSI,Stim_letter,Key_pressed,letter_choose,Rt,Corr,Stimulus Time,nDropped
AK-K-19K19S1,1,training,120,→,right,→,1.2740730999503285,True,60,1
AK-K-19K19S1,2,training,120,←,left,←,0.9758108998648822,True,60,0
AK-K-19K19S1,3,training,120,↑,up,↑,1.033219100208953,True,60,0
AK-K-19K19S1,4,training,120,↑,up,↑,0.9529277000110596,True,60,0
AK-K-19K19S1,5,training,120,→,right,→,1.035456100013107,True,60,0
AK-K-19K19S1,6,training,120,←,left,←,0.9705461000557989,True,60,0
AK-K-19K19S1,7,training,120,→,right,→,1.0444473999086767,True,60,0
AK-K-19K19S1,8,training,120,↓,down,↓,1.115599200129509,True,60,0
AK-K-19K19S1,9,training,120,→,right,→,1.2396993001457304,True,60,0
AK-K-19K19S1,10,training,120,↑,up,↑,1.9190228001680225,True,60,0
AK-K-19K19S1,11,training,120,↓,down,↓,1.1071594001259655,True,60,0
AK-K-19K19S1,12,training,120,↓,down,↓,1.1117615001276135,True,60,0
AK-K-19K19S1,13,training,120,↓,down,↓,1.0199796999804676,True,60,0
AK-K-19K19S1,14,training,120,←,left,←,1.0199017999693751,True,60,0
AK-K-19K19S1,15,training,120,↑,up,↑,1.1078624001238495,True,60,0
AK-K-19K19S1,16,training,120,←,left,←,0.9844914001878351,True,60,0
AK-K-19K19S1,17,training,120,←,left,←,1.0176198999397457,True,60,0
AK-K-19K19S1,18,training,120,←,left,←,0.905362999998033,True,60,0
AK-K-19K19S1,19,training,120,↑,up,↑,0.9978538998402655,True,60,0
AK-K-19K19S1,20,training,120,↑,up,↑,0.8067942999769002,True,60,0
AK-K-19K19S1,21,no_adaptation,120,←,left,←,1.0408171999733895,True,36,0
AK-K-19K19S1,22,no_adaptation,120,↑,up,↑,0.9919816001784056,True,36,0
AK-K-19K19S1,23,no_adaptation,120,→,right,→,0.8646916998550296,True,36,0
AK-K-19K19S1,24,no_adaptation,120,↓,down,↓,0.9348249998874962,True,36,0
AK-K-19K19S1,25,no_adaptation,120,←,left,←,1.0020438998471946,True,36,0
AK-K-19K19S1,26,no_adaptation,120,←,left,←,0.7626328999176621,True,36,0
AK-K-19K19S1,27,no_adaptation,120,→,right,→,0.8290297999046743,True,36,0
AK-K-19K19S1,28,no_adaptation,120,↑,up,↑,0.9482931999955326,True,36,0
AK-K-19K19S1,29,no_adaptation,120,↑,up,↑,0.8473469999153167,True,36,0
AK-K-19K19S1,30,no_adaptation,120,↑,up,↑,0.8459057998843491,True,36,0
AK-K-19K19S1,31,no_adaptation,120,←,no_key,no_letter,-1.0,False,36,0
AK-K-19K19S1,32,no_adaptation,120,↑,up,↑,0.7190984000917524,True,36,0
AK-K-19K19S1,33,no_adaptation,120,→,right,→,0.7466319999657571,True,36,0
AK-K-19K19S1,34,no_adaptation,120,↑,up,↑,0.6297591000329703,True,36,0
AK-K-19K19S1,35,no_adaptation,120,↓,down,↓,0.5969847999513149,True,36,0
AK-K-19K19S1,36,no_adaptation,120,→,right,→,0.7256916998885572,True,36,0
AK-K-19K19S1,37,no_adaptation,120,←,left,←,0.7536849998869002,True,36,0
AK-K-19K19S1,38,no_adaptation,120,←,left,←,0.6199400001205504,True,36,0
AK-K-19K19S1,39,no_adaptation,120,→,right,→,0.7000430000480264,True,36,0
AK-K-19K19S1,40,no_adaptation,120,→,right,→,0.712406300008297,True,36,0
AK-K-19K19S1,41,training,49,↑,up,↑,0.6497539000120014,True,36,0
AK-K-19K19S1,42,training,107,↑,up,↑,0.8925517001189291,True,36,1
AK-K-19K19S1,43,experiment,50,↓,up,↑,1.1848609999287874,False,36,1
AK-K-19K19S1,44,experiment,85,→,right,→,0.6941782999783754,True,36,1
AK-K-19K19S1,45,experiment,74,→,right,→,0.778752600075677,True,36,1
AK-K-19K19S1,46,experiment,93,←,left,←,0.7173195001669228,True,36,1
AK-K-19K19S1,47,experiment,88,←,left,←,0.6918085000943393,True,36,1
AK-K-19K19S1,48,experiment,96,↓,down,↓,0.7769998000003397,True,36,1
AK-K-19K19S1,49,experiment,55,→,down,↓,0.9360890998505056,False,36,1
AK-K-19K19S1,50,experiment,83,←,left,←,0.584038499975577,True,36,1
AK-K-19K19S1,51,experiment,76,↑,up,↑,0.6959774000570178,True,36,1
AK-K-19K19S1,52,experiment,78,→,right,→,0.5624654998537153,True,36,1
AK-K-19K19S1,53,experiment,75,←,left,←,0.6994499999564141,True,36,1
AK-K-19K19S1,54,experiment,80,←,left,←,0.5736668000463396,True,36,1
AK-K-19K19S1,55,experiment,49,↑,up,↑,0.5745749999769032,True,36,1
AK-K-19K19S1,56,experiment,89,↓,down,↓,0.6426761001348495,True,36,1
AK-K-19K19S1,57,experiment,73,↑,up,↑,0.729391299886629,True,36,1
AK-K-19K19S1,58,experiment,99,←,left,←,0.659506700001657,True,36,1
AK-K-19K19S1,59,experiment,92,→,right,→,0.6673208000138402,True,36,1
AK-K-19K19S1,60,experiment,105,↓,down,↓,0.7582636999431998,True,36,1
AK-K-19K19S1,61,experiment,101,↑,up,↑,0.7430959998164326,True,36,1
AK-K-19K19S1,62,experiment,58,↑,up,↑,0.7186676000710577,True,36,1
AK-K-19K19S1,63,experiment,57,↓,down,↓,0.8156936001032591,True,36,1
AK-K-19K19S1,64,experiment,52,↑,up,↑,0.6944405999965966,True,36,1
AK-K-19K19S1,65,experiment,61,↓,down,↓,0.6869431999512017,True,36,1
AK-K-19K19S1,66,experiment,48,↓,down,↓,0.7084242000710219,True,36,1
AK-K-19K19S1,67,experiment,60,→,left,←,0.8764289999380708,False,36,1
AK-K-19K19S1,68,experiment,63,↓,down,↓,0.7729221999179572,True,36,1
AK-K-19K19S1,69,experiment,81,↓,down,↓,0.7718259000685066,True,36,1
AK-K-19K19S1,70,experiment,95,←,left,←,0.5417866997886449,True,36,1
AK-K-19K19S1,71,experiment,69,↑,up,↑,0.8257162999361753,True,36,1
AK-K-19K19S1,72,experiment,94,↓,down,↓,0.6502727000042796,True,36,1
AK-K-19K19S1,73,experiment,102,↑,up,↑,0.6469404001254588,True,36,1
AK-K-19K19S1,74,experiment,66,←,left,←,1.2474343997891992,True,36,1
AK-K-19K19S1,75,experiment,100,→,right,→,0.5970043998677284,True,36,1
AK-K-19K19S1,76,experiment,56,↑,up,↑,0.7712886000517756,True,36,1
AK-K-19K19S1,77,experiment,64,→,right,→,0.5191501998342574,True,36,1
AK-K-19K19S1,78,experiment,67,↑,down,↓,0.9487269998062402,False,36,1
AK-K-19K19S1,79,experiment,70,→,right,→,0.6001751001458615,True,36,1
AK-K-19K19S1,80,experiment,106,→,right,→,0.5175634999759495,True,36,1
AK-K-19K19S1,81,experiment,86,←,left,←,0.684970999835059,True,36,1
AK-K-19K19S1,82,experiment,54,←,left,←,0.7680890001356602,True,36,1
AK-K-19K19S1,83,experiment,84,→,right,→,0.6780495999846607,True,36,1
AK-K-19K19S1,84,experiment,71,←,left,←,0.7320715999230742,True,36,1
AK-K-19K19S1,85,experiment,51,→,right,→,0.8065202999860048,True,36,1
AK-K-19K19S1,86,experiment,87,↓,down,↓,0.7458393000997603,True,36,1
AK-K-19K19S1,87,experiment,53,↓,down,↓,0.7387425999622792,True,36,1
AK-K-19K19S1,88,experiment,62,↓,down,↓,0.7293881999794394,True,36,1
AK-K-19K19S1,89,experiment,82,↓,down,↓,0.7296390999108553,True,36,1
AK-K-19K19S1,90,experiment,103,←,left,←,0.69873660011217,True,36,1
AK-K-19K19S1,91,experiment,77,↑,up,↑,0.7261568999383599,True,36,1
AK-K-19K19S1,92,experiment,68,↑,up,↑,0.7306812999304384,True,36,1
AK-K-19K19S1,93,experiment,97,↓,down,↓,0.7657427000813186,True,36,1
AK-K-19K19S1,94,experiment,79,←,left,←,0.49350019986741245,True,36,1
AK-K-19K19S1,95,experiment,108,→,right,→,0.5823902999982238,True,36,1
AK-K-19K19S1,96,experiment,98,↑,up,↑,0.6550553999841213,True,36,1
AK-K-19K19S1,97,experiment,65,→,right,→,0.6077107000164688,True,36,1
AK-K-19K19S1,98,experiment,72,↓,down,↓,0.7037491002120078,True,36,1
AK-K-19K19S1,99,experiment,90,↑,up,↑,0.598530099960044,True,36,1
AK-K-19K19S1,100,experiment,104,↑,up,↑,0.7725163002032787,True,36,1
AK-K-19K19S1,101,experiment,91,→,right,→,0.6637051000725478,True,36,1
AK-K-19K19S1,102,experiment,59,↑,up,↑,0.6499888000544161,True,36,1
AK-K-19K19S1,103,experiment,107,↓,down,↓,0.6930045001208782,True,36,1
AK-K-19K19S1,104,training,54,←,left,←,0.7943498999811709,True,35,0
AK-K-19K19S1,105,training,94,↓,down,↓,0.6839861001353711,True,35,1
AK-K-19K19S1,106,experiment,84,→,right,→,0.5013619000092149,True,35,1
AK-K-19K19S1,107,experiment,77,↓,down,↓,0.816237699938938,True,35,1
AK-K-19K19S1,108,experiment,54,→,right,→,0.5745319998823106,True,35,1
AK-K-19K19S1,109,experiment,101,←,left,←,0.598255000077188,True,35,1
AK-K-19K19S1,110,experiment,50,↓,down,↓,0.6540499001275748,True,35,1
AK-K-19K19S1,111,experiment,65,↑,up,↑,0.7991349999792874,True,35,1
AK-K-19K19S1,112,experiment,104,→,right,→,0.6687673998530954,True,35,1
AK-K-19K19S1,113,experiment,69,↓,down,↓,0.7237470000982285,True,35,1
AK-K-19K19S1,114,experiment,62,↑,up,↑,0.7310027000494301,True,35,1
AK-K-19K19S1,115,experiment,48,→,right,→,0.6778667999897152,True,35,1
AK-K-19K19S1,116,experiment,68,←,left,←,0.6132604000158608,True,35,1
AK-K-19K19S1,117,experiment,67,→,right,→,0.5026875000912696,True,35,1
AK-K-19K19S1,118,experiment,82,→,right,→,0.551863000029698,True,35,1
AK-K-19K19S1,119,experiment,107,↑,up,↑,0.8308308999985456,True,35,1
AK-K-19K19S1,120,experiment,89,↓,down,↓,0.7523796001914889,True,35,1
AK-K-19K19S1,121,experiment,71,↑,up,↑,0.8757380000315607,True,35,1
AK-K-19K19S1,122,experiment,60,←,left,←,0.6453247000463307,True,35,1
AK-K-19K19S1,123,experiment,74,→,left,←,0.7631128998473287,False,35,1
AK-K-19K19S1,124,experiment,63,↑,up,↑,0.648203199962154,True,35,1
AK-K-19K19S1,125,experiment,53,←,left,←,0.789183999877423,True,35,1
AK-K-19K19S1,126,experiment,59,↓,down,↓,0.8184835000429302,True,35,1
AK-K-19K19S1,127,experiment,64,↑,up,↑,0.7251420998945832,True,35,1
AK-K-19K19S1,128,experiment,103,←,left,←,0.8065197998657823,True,35,1
AK-K-19K19S1,129,experiment,106,↓,down,↓,0.7954716000240296,True,35,1
AK-K-19K19S1,130,experiment,58,↑,up,↑,0.7288060002028942,True,35,1
AK-K-19K19S1,131,experiment,88,↓,down,↓,0.8149766998831183,True,35,1
AK-K-19K19S1,132,experiment,87,←,left,←,0.7219414999708533,True,35,1
AK-K-19K19S1,133,experiment,78,→,right,→,0.5235176000278443,True,35,1
AK-K-19K19S1,134,experiment,86,←,left,←,0.6346881999634206,True,35,1
AK-K-19K19S1,135,experiment,85,←,left,←,0.6534977999981493,True,35,1
AK-K-19K19S1,136,experiment,105,→,right,→,0.5933968999888748,True,35,1
AK-K-19K19S1,137,experiment,76,↑,up,↑,0.6169781000353396,True,35,1
AK-K-19K19S1,138,experiment,73,↑,up,↑,0.7125037999358028,True,35,1
AK-K-19K19S1,139,experiment,80,↑,up,↑,0.5545030001085252,True,35,1
AK-K-19K19S1,140,experiment,72,→,left,←,0.7405840000137687,False,35,1
AK-K-19K19S1,141,experiment,92,↑,up,↑,0.6167486000340432,True,35,1
AK-K-19K19S1,142,experiment,57,↓,down,↓,0.925927999895066,True,35,1
AK-K-19K19S1,143,experiment,55,←,left,←,0.8315789999905974,True,35,1
AK-K-19K19S1,144,experiment,81,↑,up,↑,0.7315491000190377,True,35,1
AK-K-19K19S1,145,experiment,66,←,left,←,0.7206438998691738,True,35,1
AK-K-19K19S1,146,experiment,102,→,right,→,0.6665380999911577,True,35,1
AK-K-19K19S1,147,experiment,96,←,left,←,0.736381399910897,True,35,1
AK-K-19K19S1,148,experiment,90,→,right,→,0.5657864999957383,True,35,1
AK-K-19K19S1,149,experiment,97,↓,down,↓,0.7595609000418335,True,35,1
AK-K-19K19S1,150,experiment,70,↓,down,↓,0.6505804001353681,True,35,1
AK-K-19K19S1,151,experiment,56,↑,up,↑,0.8705482999794185,True,35,1
AK-K-19K19S1,152,experiment,52,→,right,→,0.6906653998885304,True,35,1
AK-K-19K19S1,153,experiment,93,↑,up,↑,0.5286081999074668,True,35,1
AK-K-19K19S1,154,experiment,79,↓,down,↓,0.8099821999203414,True,35,1
AK-K-19K19S1,155,experiment,75,→,right,→,0.7213326001074165,True,35,1
AK-K-19K19S1,156,experiment,51,←,left,←,0.7483882999513298,True,35,1
AK-K-19K19S1,157,experiment,108,↓,down,↓,0.7226780001074076,True,35,1
AK-K-19K19S1,158,experiment,98,←,left,←,0.7258462000172585,True,35,1
AK-K-19K19S1,159,experiment,83,←,left,←,0.6857630999293178,True,35,1
AK-K-19K19S1,160,experiment,100,↑,up,↑,0.7384553998708725,True,35,1
AK-K-19K19S1,161,experiment,94,→,right,→,0.7334909001365304,True,35,1
AK-K-19K19S1,162,experiment,91,↑,up,↑,0.8183705001138151,True,35,1
AK-K-19K19S1,163,experiment,95,↑,up,↑,0.6349547000136226,True,35,1
AK-K-19K19S1,164,experiment,61,←,left,←,0.7657839001622051,True,35,1
AK-K-19K19S1,165,experiment,99,↑,up,↑,0.6629888999741524,True,35,1
AK-K-19K19S1,166,experiment,49,↑,up,↑,0.6767436999361962,True,35,1
AK-K-19K19S1,167,training,57,→,right,→,0.6717148998286575,True,34,0
AK-K-19K19S1,168,training,90,↓,down,↓,0.6872409000061452,True,34,1
AK-K-19K19S1,169,experiment,53,↑,up,↑,0.706405300181359,True,34,1
AK-K-19K19S1,170,experiment,56,←,left,←,0.39216180006042123,True,34,1
AK-K-19K19S1,171,experiment,54,→,right,→,0.7385220997966826,True,34,0
AK-K-19K19S1,172,experiment,87,→,right,→,0.6569570999126881,True,34,1
AK-K-19K19S1,173,experiment,96,↓,down,↓,0.6790903001092374,True,34,1
AK-K-19K19S1,174,experiment,64,↑,up,↑,0.6468510001432151,True,34,1
AK-K-19K19S1,175,experiment,86,←,left,←,0.6008903998881578,True,34,1
AK-K-19K19S1,176,experiment,90,→,right,→,1.139542100019753,True,34,1
AK-K-19K19S1,177,experiment,57,↓,down,↓,0.6357376000378281,True,34,1
AK-K-19K19S1,178,experiment,80,→,right,→,0.5923044001683593,True,34,1
AK-K-19K19S1,179,experiment,69,→,right,→,0.5700596999377012,True,34,1
AK-K-19K19S1,180,experiment,73,←,left,←,0.5164091000333428,True,34,1
AK-K-19K19S1,181,experiment,106,↓,down,↓,0.6524186998140067,True,34,1
AK-K-19K19S1,182,experiment,48,→,right,→,0.7631816999055445,True,34,1
AK-K-19K19S1,183,experiment,98,↑,up,↑,0.5965534001588821,True,34,1
AK-K-19K19S1,184,experiment,107,→,right,→,0.5054156000260264,True,34,1
AK-K-19K19S1,185,experiment,76,↓,down,↓,0.6362967998720706,True,34,1
AK-K-19K19S1,186,experiment,65,→,right,→,0.549965700134635,True,34,1
AK-K-19K19S1,187,experiment,97,→,right,→,0.5123244000133127,True,34,1
AK-K-19K19S1,188,experiment,74,←,left,←,0.5477754001040012,True,34,1
AK-K-19K19S1,189,experiment,104,↓,down,↓,0.6680087998975068,True,34,1
AK-K-19K19S1,190,experiment,99,←,left,←,0.6249302001670003,True,34,1
AK-K-19K19S1,191,experiment,103,↓,down,↓,0.6623656000010669,True,34,1
AK-K-19K19S1,192,experiment,68,↑,up,↑,0.5975530000869185,True,34,1
AK-K-19K19S1,193,experiment,63,↑,up,↑,0.624757899902761,True,34,1
AK-K-19K19S1,194,experiment,75,←,left,←,0.5836104000918567,True,34,1
AK-K-19K19S1,195,experiment,55,←,left,←,0.462618799880147,True,34,1
AK-K-19K19S1,196,experiment,51,→,right,→,0.4673921999055892,True,34,1
AK-K-19K19S1,197,experiment,58,→,right,→,1.6856096000410616,True,34,1
AK-K-19K19S1,198,experiment,59,←,left,←,0.7357679998967797,True,34,1
AK-K-19K19S1,199,experiment,92,↓,down,↓,0.564526200061664,True,34,1
AK-K-19K19S1,200,experiment,52,↑,up,↑,0.5728235000278801,True,34,1
AK-K-19K19S1,201,experiment,71,←,left,←,0.5508514998946339,True,34,1
AK-K-19K19S1,202,experiment,88,→,right,→,0.4839472998864949,True,34,1
AK-K-19K19S1,203,experiment,60,→,right,→,0.7014748000074178,True,34,1
AK-K-19K19S1,204,experiment,82,←,left,←,0.6625716998241842,True,34,1
AK-K-19K19S1,205,experiment,62,→,right,→,0.7517752000130713,True,34,1
AK-K-19K19S1,206,experiment,49,↓,left,←,1.090151800075546,False,34,1
AK-K-19K19S1,207,experiment,78,↓,down,↓,0.669363500084728,True,34,1
AK-K-19K19S1,208,experiment,108,→,right,→,0.5914686999749392,True,34,1
AK-K-19K19S1,209,experiment,67,→,right,→,0.6981303999200463,True,34,1
AK-K-19K19S1,210,experiment,77,←,left,←,0.605180200189352,True,34,1
AK-K-19K19S1,211,experiment,61,↑,up,↑,0.6249571000225842,True,34,1
AK-K-19K19S1,212,experiment,79,→,right,→,0.509942599805072,True,34,1
AK-K-19K19S1,213,experiment,66,←,left,←,0.4765355000272393,True,34,1
AK-K-19K19S1,214,experiment,91,←,left,←,0.6434076000005007,True,34,1
AK-K-19K19S1,215,experiment,89,←,up,↑,1.2450126002077013,False,34,1
AK-K-19K19S1,216,experiment,94,↑,up,↑,0.6370819001458585,True,34,1
AK-K-19K19S1,217,experiment,83,→,right,→,0.6003176001831889,True,34,1
AK-K-19K19S1,218,experiment,84,↓,down,↓,0.7326921001076698,True,34,1
AK-K-19K19S1,219,experiment,102,←,left,←,0.6779802998062223,True,34,1
AK-K-19K19S1,220,experiment,101,←,left,←,0.6902578000444919,True,34,1
AK-K-19K19S1,221,experiment,50,↑,up,↑,0.9665592999663204,True,34,1
AK-K-19K19S1,222,experiment,70,↑,up,↑,0.6892128000035882,True,34,1
AK-K-19K19S1,223,experiment,72,←,left,←,0.6463554999791086,True,34,1
AK-K-19K19S1,224,experiment,81,↓,down,↓,0.6340548999141902,True,34,1
AK-K-19K19S1,225,experiment,100,←,left,←,0.7200140999630094,True,34,1
AK-K-19K19S1,226,experiment,93,→,right,→,0.6129439999349415,True,34,1
AK-K-19K19S1,227,experiment,105,←,left,←,0.6341702998615801,True,34,1
AK-K-19K19S1,228,experiment,85,←,left,←,0.75698780012317,True,34,1
AK-K-19K19S1,229,experiment,95,↑,up,↑,0.7676796999294311,True,34,1
AK-K-19K19S1,230,training,98,↑,up,↑,0.5366962999105453,True,33,0
AK-K-19K19S1,231,training,59,←,left,←,0.6163608999922872,True,33,1
AK-K-19K19S1,232,experiment,77,↑,up,↑,0.6547485999763012,True,33,1
AK-K-19K19S1,233,experiment,48,→,right,→,0.5728408999275416,True,33,1
AK-K-19K19S1,234,experiment,93,↓,down,↓,0.695407799910754,True,33,1
AK-K-19K19S1,235,experiment,83,←,left,←,0.6330456999130547,True,33,1
AK-K-19K19S1,236,experiment,107,↑,up,↑,0.6604179998394102,True,33,1
AK-K-19K19S1,237,experiment,98,←,left,←,0.610131099820137,True,33,1
AK-K-19K19S1,238,experiment,51,↑,up,↑,0.7062824999447912,True,33,1
AK-K-19K19S1,239,experiment,79,→,right,→,0.6994762001559138,True,33,1
AK-K-19K19S1,240,experiment,86,←,left,←,0.6355163999833167,True,33,1
AK-K-19K19S1,241,experiment,61,←,left,←,0.6062783999368548,True,33,1
AK-K-19K19S1,242,experiment,69,↑,up,↑,0.6476000999100506,True,33,1
AK-K-19K19S1,243,experiment,82,←,left,←,0.6107956999912858,True,33,1
AK-K-19K19S1,244,experiment,72,↓,down,↓,0.7872355000581592,True,33,1
AK-K-19K19S1,245,experiment,108,→,right,→,0.46485759993083775,True,33,1
AK-K-19K19S1,246,experiment,52,→,right,→,0.6369219999760389,True,33,1
AK-K-19K19S1,247,experiment,95,←,left,←,0.7083107000216842,True,33,1
AK-K-19K19S1,248,experiment,53,↓,down,↓,0.679378200089559,True,33,1
AK-K-19K19S1,249,experiment,89,→,right,→,0.6067735000979155,True,33,1
AK-K-19K19S1,250,experiment,59,↑,up,↑,0.667384099913761,True,33,1
AK-K-19K19S1,251,experiment,96,↑,up,↑,0.8734903000295162,True,33,1
AK-K-19K19S1,252,experiment,74,→,right,→,0.5263401998672634,True,33,1
AK-K-19K19S1,253,experiment,49,↓,down,↓,0.6979892000090331,True,33,1
AK-K-19K19S1,254,experiment,106,←,left,←,0.5149707000236958,True,33,1
AK-K-19K19S1,255,experiment,94,↓,down,↓,0.7922433998901397,True,33,1
AK-K-19K19S1,256,experiment,75,→,right,→,0.5117501998320222,True,33,1
AK-K-19K19S1,257,experiment,76,↑,up,↑,0.6184833000879735,True,33,1
AK-K-19K19S1,258,experiment,91,→,right,→,0.5563413999043405,True,33,1
AK-K-19K19S1,259,experiment,60,↓,down,↓,0.6824226998724043,True,33,1
AK-K-19K19S1,260,experiment,92,→,right,→,0.6811340998392552,True,33,1
AK-K-19K19S1,261,experiment,65,→,right,→,0.7047177001368254,True,33,1
AK-K-19K19S1,262,experiment,105,↑,up,↑,0.530011499999091,True,33,1
AK-K-19K19S1,263,experiment,102,→,right,→,0.683994100196287,True,33,1
AK-K-19K19S1,264,experiment,104,↓,down,↓,0.7186044999398291,True,33,1
AK-K-19K19S1,265,experiment,88,↑,up,↑,0.5651585999876261,True,33,1
AK-K-19K19S1,266,experiment,56,→,right,→,0.7159768000710756,True,33,1
AK-K-19K19S1,267,experiment,97,↓,down,↓,0.8000402001198381,True,33,1
AK-K-19K19S1,268,experiment,64,↓,down,↓,0.763139600167051,True,33,1
AK-K-19K19S1,269,experiment,66,←,left,←,0.631177700124681,True,33,1
AK-K-19K19S1,270,experiment,62,→,right,→,0.5378648999612778,True,33,1
AK-K-19K19S1,271,experiment,70,↑,up,↑,0.6932853998150676,True,33,1
AK-K-19K19S1,272,experiment,78,←,left,←,0.7682910000439733,True,33,1
AK-K-19K19S1,273,experiment,84,←,left,←,0.8144054999575019,True,33,1
AK-K-19K19S1,274,experiment,58,↓,down,↓,0.7551231000106782,True,33,1
AK-K-19K19S1,275,experiment,101,↑,up,↑,0.66750040021725,True,33,1
AK-K-19K19S1,276,experiment,90,↑,up,↑,0.7878091998863965,True,33,1
AK-K-19K19S1,277,experiment,68,↓,down,↓,0.6540716998279095,True,33,1
AK-K-19K19S1,278,experiment,73,↓,down,↓,0.6042849998921156,True,33,1
AK-K-19K19S1,279,experiment,54,↓,right,→,0.5868453998118639,False,33,1
AK-K-19K19S1,280,experiment,80,←,left,←,0.7294861997943372,True,33,1
AK-K-19K19S1,281,experiment,50,↓,down,↓,0.6201075999997556,True,33,1
AK-K-19K19S1,282,experiment,81,↓,down,↓,0.5296332999132574,True,33,1
AK-K-19K19S1,283,experiment,55,←,left,←,0.6660372000187635,True,33,1
AK-K-19K19S1,284,experiment,57,→,right,→,0.6690561999566853,True,33,1
AK-K-19K19S1,285,experiment,100,←,left,←,0.7455725998152047,True,33,1
AK-K-19K19S1,286,experiment,71,↓,down,↓,0.5966002999339253,True,33,1
AK-K-19K19S1,287,experiment,103,←,left,←,0.6509169000200927,True,33,1
AK-K-19K19S1,288,experiment,99,←,left,←,0.6407742998562753,True,33,1
AK-K-19K19S1,289,experiment,63,↓,down,↓,0.5545711000449955,True,33,1
AK-K-19K19S1,290,experiment,87,←,left,←,0.7520409999415278,True,33,1
AK-K-19K19S1,291,experiment,85,←,left,←,0.7982246999163181,True,33,1
AK-K-19K19S1,292,experiment,67,→,right,→,0.7289265999570489,True,33,1
AK-K-19K19S1,293,training,95,↑,up,↑,0.5493264999240637,True,32,0
AK-K-19K19S1,294,training,74,↓,down,↓,0.6229781000874937,True,32,1
AK-K-19K19S1,295,experiment,76,←,left,←,0.5654086999129504,True,32,1
AK-K-19K19S1,296,experiment,84,→,right,→,0.5714848998468369,True,32,1
AK-K-19K19S1,297,experiment,77,←,left,←,0.8912418000400066,True,32,1
AK-K-19K19S1,298,experiment,83,←,left,←,0.7493653998244554,True,32,1
AK-K-19K19S1,299,experiment,99,↑,up,↑,0.6144763000775129,True,32,1
AK-K-19K19S1,300,experiment,105,→,right,→,0.5553266999777406,True,32,1
AK-K-19K19S1,301,experiment,49,↓,down,↓,0.6132618999108672,True,32,1
AK-K-19K19S1,302,experiment,93,←,left,←,0.5662136001046747,True,32,1
AK-K-19K19S1,303,experiment,87,←,left,←,0.731895700097084,True,32,1
AK-K-19K19S1,304,experiment,50,↓,down,↓,0.6858866999391466,True,32,1
AK-K-19K19S1,305,experiment,57,↓,down,↓,0.9041146000381559,True,32,1
AK-K-19K19S1,306,experiment,107,↑,up,↑,0.6888837001752108,True,32,1
AK-K-19K19S1,307,experiment,64,↑,up,↑,0.7367332999128848,True,32,1
AK-K-19K19S1,308,experiment,102,←,left,←,0.6580475999508053,True,32,1
AK-K-19K19S1,309,experiment,59,→,right,→,0.6844409999903291,True,32,1
AK-K-19K19S1,310,experiment,101,↓,down,↓,0.8326699999161065,True,32,1
AK-K-19K19S1,311,experiment,100,←,left,←,0.7024148998316377,True,32,1
AK-K-19K19S1,312,experiment,53,←,left,←,0.7374698000494391,True,32,1
AK-K-19K19S1,313,experiment,73,→,right,→,0.7400559999514371,True,32,1
AK-K-19K19S1,314,experiment,60,←,left,←,0.6670190000440925,True,32,1
AK-K-19K19S1,315,experiment,68,↓,down,↓,0.7065854999236763,True,32,1
AK-K-19K19S1,316,experiment,55,→,right,→,0.7082878998480737,True,32,1
AK-K-19K19S1,317,experiment,63,←,left,←,0.7633851000573486,True,32,1
AK-K-19K19S1,318,experiment,98,↑,up,↑,0.7087291001807898,True,32,1
AK-K-19K19S1,319,experiment,108,↑,up,↑,0.7571805999614298,True,32,1
AK-K-19K19S1,320,experiment,72,←,left,←,0.6636676001362503,True,32,1
AK-K-19K19S1,321,experiment,81,↑,up,↑,0.6983982999809086,True,32,1
AK-K-19K19S1,322,experiment,52,←,left,←,0.6939272999297827,True,32,1
AK-K-19K19S1,323,experiment,88,↓,down,↓,0.7412509999703616,True,32,1
AK-K-19K19S1,324,experiment,51,↑,up,↑,0.7752860998734832,True,32,1
AK-K-19K19S1,325,experiment,78,←,left,←,0.5432259000372142,True,32,1
AK-K-19K19S1,326,experiment,74,→,right,→,0.673327700002119,True,32,1
AK-K-19K19S1,327,experiment,66,←,left,←,0.6890646999236196,True,32,1
AK-K-19K19S1,328,experiment,91,←,left,←,0.7600527000613511,True,32,1
AK-K-19K19S1,329,experiment,104,←,left,←,0.6953332999255508,True,32,1
AK-K-19K19S1,330,experiment,70,↑,up,↑,0.5485963998362422,True,32,1
AK-K-19K19S1,331,experiment,94,↓,down,↓,0.712155600078404,True,32,1
AK-K-19K19S1,332,experiment,92,↓,down,↓,0.5896884999237955,True,32,1
AK-K-19K19S1,333,experiment,67,→,right,→,0.5364115999545902,True,32,1
AK-K-19K19S1,334,experiment,48,↑,up,↑,0.6274947000201792,True,32,1
AK-K-19K19S1,335,experiment,103,↓,down,↓,0.6407558999489993,True,32,1
AK-K-19K19S1,336,experiment,58,←,left,←,0.628357200184837,True,32,1
AK-K-19K19S1,337,experiment,85,←,left,←,0.607786700129509,True,32,1
AK-K-19K19S1,338,experiment,62,↓,down,↓,0.6432864000089467,True,32,1
AK-K-19K19S1,339,experiment,56,↑,up,↑,0.5594637000467628,True,32,1
AK-K-19K19S1,340,experiment,95,↓,down,↓,0.6182391000911593,True,32,1
AK-K-19K19S1,341,experiment,80,→,no_key,no_letter,-1.0,False,32,1
AK-K-19K19S1,342,experiment,90,←,left,←,0.5091693999711424,True,32,1
AK-K-19K19S1,343,experiment,71,↓,down,↓,0.6578454000409693,True,32,1
AK-K-19K19S1,344,experiment,97,↑,up,↑,0.6158087998628616,True,32,1
AK-K-19K19S1,345,experiment,69,→,right,→,0.5687178999651223,True,32,1
AK-K-19K19S1,346,experiment,82,←,left,←,0.7434072000905871,True,32,1
AK-K-19K19S1,347,experiment,79,↓,down,↓,0.649065800011158,True,32,1
AK-K-19K19S1,348,experiment,96,↑,up,↑,0.5994365999940783,True,32,1
AK-K-19K19S1,349,experiment,65,→,right,→,0.553865100024268,True,32,1
AK-K-19K19S1,350,experiment,86,←,left,←,0.5913586001843214,True,32,1
AK-K-19K19S1,351,experiment,106,↑,up,↑,0.6050562001764774,True,32,1
AK-K-19K19S1,352,experiment,61,↓,down,↓,0.80091130011715,True,32,1
AK-K-19K19S1,353,experiment,54,←,left,←,0.7357810998801142,True,32,1
AK-K-19K19S1,354,experiment,89,→,right,→,0.4379414999857545,True,32,1
AK-K-19K19S1,355,experiment,75,↑,up,↑,0.635361900087446,True,32,1
AK-K-19K19S1,356,training,53,←,left,←,0.5207841999363154,True,31,0
AK-K-19K19S1,357,training,107,→,right,→,0.5126686999574304,True,31,1
AK-K-19K19S1,358,experiment,88,↓,down,↓,0.5838242000900209,True,31,1
AK-K-19K19S1,359,experiment,100,↑,up,↑,0.5035582999698818,True,31,1
AK-K-19K19S1,360,experiment,92,↑,up,↑,0.6932439999654889,True,31,1
AK-K-19K19S1,361,experiment,89,→,right,→,0.4687609001994133,True,31,1
AK-K-19K19S1,362,experiment,86,→,right,→,0.6141522000543773,True,31,1
AK-K-19K19S1,363,experiment,84,↑,up,↑,0.5861181998625398,True,31,1
AK-K-19K19S1,364,experiment,51,↑,up,↑,0.5779789001680911,True,31,1
AK-K-19K19S1,365,experiment,56,←,left,←,0.6490734999533743,True,31,1
AK-K-19K19S1,366,experiment,107,→,right,→,0.4920952001120895,True,31,1
AK-K-19K19S1,367,experiment,64,←,left,←,0.6835432001389563,True,31,1
AK-K-19K19S1,368,experiment,101,↑,up,↑,0.599245100049302,True,31,1
AK-K-19K19S1,369,experiment,76,→,right,→,0.4945320999249816,True,31,1
AK-K-19K19S1,370,experiment,96,↑,up,↑,0.619905199855566,True,31,1
AK-K-19K19S1,371,experiment,108,→,right,→,0.9440087999682873,True,31,1
AK-K-19K19S1,372,experiment,67,↑,up,↑,0.5167022999376059,True,31,1
AK-K-19K19S1,373,experiment,50,→,right,→,0.4480373999103904,True,31,1
AK-K-19K19S1,374,experiment,75,←,left,←,0.5013258000835776,True,31,1
AK-K-19K19S1,375,experiment,69,↓,down,↓,0.5224261002149433,True,31,1
AK-K-19K19S1,376,experiment,63,←,left,←,0.5213971000630409,True,31,1
AK-K-19K19S1,377,experiment,48,↑,up,↑,0.6847258999478072,True,31,1
AK-K-19K19S1,378,experiment,98,↓,down,↓,0.657419600058347,True,31,1
AK-K-19K19S1,379,experiment,83,↓,down,↓,0.7961873000022024,True,31,1
AK-K-19K19S1,380,experiment,97,↑,up,↑,0.7004869000520557,True,31,1
AK-K-19K19S1,381,experiment,49,→,right,→,0.4889346999116242,True,31,1
AK-K-19K19S1,382,experiment,71,←,left,←,0.5417578001506627,True,31,1
AK-K-19K19S1,383,experiment,60,↑,up,↑,0.701100799953565,True,31,1
AK-K-19K19S1,384,experiment,74,↓,down,↓,0.6488883998245001,True,31,1
AK-K-19K19S1,385,experiment,54,←,left,←,0.47761030006222427,True,31,1
AK-K-19K19S1,386,experiment,53,↓,down,↓,0.5930403999518603,True,31,1
AK-K-19K19S1,387,experiment,94,←,left,←,0.4990285001695156,True,31,1
AK-K-19K19S1,388,experiment,73,↓,down,↓,0.6633734998758882,True,31,1
AK-K-19K19S1,389,experiment,106,↑,up,↑,0.5939211999066174,True,31,1
AK-K-19K19S1,390,experiment,70,→,right,→,0.6275541000068188,True,31,1
AK-K-19K19S1,391,experiment,104,←,left,←,0.6727360000368208,True,31,1
AK-K-19K19S1,392,experiment,77,↓,down,↓,0.9085543998517096,True,31,1
AK-K-19K19S1,393,experiment,87,←,left,←,0.627881099935621,True,31,1
AK-K-19K19S1,394,experiment,57,←,left,←,0.6406372000928968,True,31,1
AK-K-19K19S1,395,experiment,65,←,left,←,0.6661026999354362,True,31,1
AK-K-19K19S1,396,experiment,91,↑,up,↑,0.6256754000205547,True,31,1
AK-K-19K19S1,397,experiment,79,↓,down,↓,0.7188456999137998,True,31,1
AK-K-19K19S1,398,experiment,85,↑,up,↑,0.6144250999204814,True,31,1
AK-K-19K19S1,399,experiment,72,←,left,←,0.7264534002169967,True,31,1
AK-K-19K19S1,400,experiment,102,↑,up,↑,0.632162399822846,True,31,1
AK-K-19K19S1,401,experiment,80,→,right,→,0.6047118999995291,True,31,1
AK-K-19K19S1,402,experiment,103,↑,up,↑,0.7469533998519182,True,31,1
AK-K-19K19S1,403,experiment,93,←,left,←,0.7187172002159059,True,31,1
AK-K-19K19S1,404,experiment,59,←,left,←,0.6310978000983596,True,31,1
AK-K-19K19S1,405,experiment,99,↑,up,↑,0.741468199994415,True,31,1
AK-K-19K19S1,406,experiment,58,↑,up,↑,0.5647959997877479,True,31,1
AK-K-19K19S1,407,experiment,82,↓,down,↓,0.6353889000602067,True,31,1
AK-K-19K19S1,408,experiment,66,↑,up,↑,1.0446279998868704,True,31,1
AK-K-19K19S1,409,experiment,90,→,right,→,0.6539930000435561,True,31,1
AK-K-19K19S1,410,experiment,52,→,right,→,0.6430532999802381,True,31,1
AK-K-19K19S1,411,experiment,95,↓,down,↓,0.6663768999278545,True,31,1
AK-K-19K19S1,412,experiment,61,↓,down,↓,0.8681199999991804,True,31,1
AK-K-19K19S1,413,experiment,78,↓,down,↓,0.6559049999341369,True,31,1
AK-K-19K19S1,414,experiment,68,←,left,←,0.9435874000191689,True,31,1
AK-K-19K19S1,415,experiment,81,↓,down,↓,0.511735700070858,True,31,1
AK-K-19K19S1,416,experiment,55,→,right,→,0.4414423000998795,True,31,1
AK-K-19K19S1,417,experiment,105,↑,up,↑,0.5411830998491496,True,31,1
AK-K-19K19S1,418,experiment,62,→,right,→,0.4674712000414729,True,31,1
AK-K-19K19S1,419,training,101,↑,up,↑,0.47197670000605285,True,30,0
AK-K-19K19S1,420,training,57,→,right,→,0.49820390017703176,True,30,1
AK-K-19K19S1,421,experiment,106,→,right,→,0.44361030007712543,True,30,1
AK-K-19K19S1,422,experiment,102,↓,down,↓,0.5767400998156518,True,30,1
AK-K-19K19S1,423,experiment,61,↓,down,↓,0.6220189000014216,True,30,1
AK-K-19K19S1,424,experiment,51,→,left,←,0.5727154000196606,False,30,1
AK-K-19K19S1,425,experiment,79,→,right,→,0.5955998999997973,True,30,1
AK-K-19K19S1,426,experiment,93,↑,up,↑,0.5814991001971066,True,30,1
AK-K-19K19S1,427,experiment,52,↑,up,↑,0.677091300021857,True,30,1
AK-K-19K19S1,428,experiment,87,↓,down,↓,0.6781132998876274,True,30,1
AK-K-19K19S1,429,experiment,91,↑,up,↑,0.5492169999051839,True,30,1
AK-K-19K19S1,430,experiment,56,↑,up,↑,0.5730630999896675,True,30,1
AK-K-19K19S1,431,experiment,71,↓,down,↓,0.6470618001185358,True,30,1
AK-K-19K19S1,432,experiment,73,↓,down,↓,0.6372739002108574,True,30,1
AK-K-19K19S1,433,experiment,48,↑,up,↑,0.716174199944362,True,30,1
AK-K-19K19S1,434,experiment,59,→,right,→,0.5247127001639456,True,30,1
AK-K-19K19S1,435,experiment,65,↓,up,↑,0.7064108001068234,False,30,1
AK-K-19K19S1,436,experiment,95,↑,down,↓,0.7110613998956978,False,30,1
AK-K-19K19S1,437,experiment,63,↓,down,↓,0.6146730000618845,True,30,1
AK-K-19K19S1,438,experiment,58,←,left,←,0.5068806998897344,True,30,1
AK-K-19K19S1,439,experiment,86,↓,down,↓,0.7146823999937624,True,30,1
AK-K-19K19S1,440,experiment,81,↓,down,↓,0.6675337001215667,True,30,1
AK-K-19K19S1,441,experiment,75,←,left,←,0.6246236998122185,True,30,1
AK-K-19K19S1,442,experiment,103,←,left,←,0.7739059999585152,True,30,1
AK-K-19K19S1,443,experiment,57,←,left,←,0.6845392999239266,True,30,1
AK-K-19K19S1,444,experiment,70,↓,down,↓,0.7145073998253793,True,30,1
AK-K-19K19S1,445,experiment,69,→,right,→,0.623488700017333,True,30,1
AK-K-19K19S1,446,experiment,85,↓,down,↓,0.6429690001532435,True,30,1
AK-K-19K19S1,447,experiment,89,↑,up,↑,0.7641396999824792,True,30,1
AK-K-19K19S1,448,experiment,96,→,left,←,0.6783290000166744,False,30,1
AK-K-19K19S1,449,experiment,104,→,right,→,0.737342800013721,True,30,1
AK-K-19K19S1,450,experiment,83,←,left,←,0.689023399958387,True,30,1
AK-K-19K19S1,451,experiment,74,→,right,→,0.6849229999352247,True,30,1
AK-K-19K19S1,452,experiment,64,↑,down,↓,0.8928529999684542,False,30,1
AK-K-19K19S1,453,experiment,76,↑,up,↑,0.6887217001058161,True,30,1
AK-K-19K19S1,454,experiment,108,↑,up,↑,0.6175283999182284,True,30,1
AK-K-19K19S1,455,experiment,49,↓,down,↓,0.7133752000518143,True,30,1
AK-K-19K19S1,456,experiment,94,↓,down,↓,0.6382841998711228,True,30,1
AK-K-19K19S1,457,experiment,84,↓,down,↓,0.6088275001384318,True,30,1
AK-K-19K19S1,458,experiment,68,←,left,←,0.5865759998559952,True,30,1
AK-K-19K19S1,459,experiment,101,↓,down,↓,0.5845947000198066,True,30,1
AK-K-19K19S1,460,experiment,53,↓,down,↓,1.056067799916491,True,30,1
AK-K-19K19S1,461,experiment,100,↓,down,↓,0.6293997999746352,True,30,1
AK-K-19K19S1,462,experiment,107,↑,up,↑,0.6089278000872582,True,30,1
AK-K-19K19S1,463,experiment,97,↑,up,↑,0.6009033999871463,True,30,1
AK-K-19K19S1,464,experiment,77,↓,down,↓,0.6878639999777079,True,30,1
AK-K-19K19S1,465,experiment,92,↓,down,↓,0.614621400134638,True,30,1
AK-K-19K19S1,466,experiment,78,→,right,→,0.48483049985952675,True,30,1
AK-K-19K19S1,467,experiment,82,↑,up,↑,0.6306588998995721,True,30,1
AK-K-19K19S1,468,experiment,105,←,left,←,0.6668226001784205,True,30,1
AK-K-19K19S1,469,experiment,54,→,right,→,0.6947321998886764,True,30,1
AK-K-19K19S1,470,experiment,66,↓,down,↓,0.7496839000377804,True,30,1
AK-K-19K19S1,471,experiment,80,←,left,←,0.7336284997873008,True,30,1
AK-K-19K19S1,472,experiment,90,↑,up,↑,0.707375600002706,True,30,1
AK-K-19K19S1,473,experiment,88,↓,down,↓,0.665852699894458,True,30,1
AK-K-19K19S1,474,experiment,60,↓,down,↓,0.6842116999905556,True,30,1
AK-K-19K19S1,475,experiment,99,↓,down,↓,0.592493399977684,True,30,1
AK-K-19K19S1,476,experiment,67,↓,down,↓,0.6511282999999821,True,30,1
AK-K-19K19S1,477,experiment,55,↑,up,↑,0.8954638000577688,True,30,1
AK-K-19K19S1,478,experiment,62,←,left,←,0.7193054999224842,True,30,1
AK-K-19K19S1,479,experiment,98,←,left,←,0.7148746000602841,True,30,1
AK-K-19K19S1,480,experiment,72,→,right,→,0.6306900999043137,True,30,1
AK-K-19K19S1,481,experiment,50,←,left,←,0.5092335001099855,True,30,1
AK-K-19K19S1,482,training,50,→,right,→,0.4903746999334544,True,29,0
AK-K-19K19S1,483,training,75,↑,up,↑,0.47085369983687997,True,29,1
AK-K-19K19S1,484,experiment,90,↓,down,↓,0.7100614998489618,True,29,1
AK-K-19K19S1,485,experiment,97,↓,down,↓,0.7059675001073629,True,29,1
AK-K-19K19S1,486,experiment,100,→,right,→,0.5011394999455661,True,29,1
AK-K-19K19S1,487,experiment,65,→,right,→,0.6279388999100775,True,29,1
AK-K-19K19S1,488,experiment,102,→,right,→,0.5937606999650598,True,29,1
AK-K-19K19S1,489,experiment,92,←,left,←,0.5879927000496536,True,29,1
AK-K-19K19S1,490,experiment,69,→,right,→,0.6139950999058783,True,29,1
AK-K-19K19S1,491,experiment,101,↓,down,↓,0.6443265001289546,True,29,1
AK-K-19K19S1,492,experiment,87,↓,down,↓,0.662293299799785,True,29,1
AK-K-19K19S1,493,experiment,86,↑,down,↓,0.7118189998436719,False,29,1
AK-K-19K19S1,494,experiment,89,←,left,←,0.6223665000870824,True,29,1
AK-K-19K19S1,495,experiment,55,←,left,←,0.6036416001152247,True,29,1
AK-K-19K19S1,496,experiment,79,↑,up,↑,0.529854399850592,True,29,1
AK-K-19K19S1,497,experiment,104,↑,up,↑,0.5309057000558823,True,29,1
AK-K-19K19S1,498,experiment,54,←,left,←,0.5323483000975102,True,29,1
AK-K-19K19S1,499,experiment,106,→,right,→,0.43588910019025207,True,29,1
AK-K-19K19S1,500,experiment,105,→,right,→,0.7441833999473602,True,29,1
AK-K-19K19S1,501,experiment,53,↓,up,↑,0.8492511999793351,False,29,1
AK-K-19K19S1,502,experiment,99,↓,down,↓,0.6793057001195848,True,29,1
AK-K-19K19S1,503,experiment,48,←,left,←,0.7083135000430048,True,29,1
AK-K-19K19S1,504,experiment,75,←,left,←,0.5436646000016481,True,29,1
AK-K-19K19S1,505,experiment,49,←,left,←,0.6424273999873549,True,29,1
AK-K-19K19S1,506,experiment,95,←,left,←,0.6736952001228929,True,29,1
AK-K-19K19S1,507,experiment,76,↓,down,↓,0.8057564001064748,True,29,1
AK-K-19K19S1,508,experiment,82,↓,down,↓,0.5787416000384837,True,29,1
AK-K-19K19S1,509,experiment,51,→,right,→,0.691316100070253,True,29,1
AK-K-19K19S1,510,experiment,52,→,right,→,0.6226886999793351,True,29,1
AK-K-19K19S1,511,experiment,56,↑,up,↑,0.7397241001017392,True,29,1
AK-K-19K19S1,512,experiment,66,→,right,→,0.6330683000851423,True,29,1
AK-K-19K19S1,513,experiment,70,←,left,←,0.7126217999029905,True,29,1
AK-K-19K19S1,514,experiment,73,↑,up,↑,0.7079647001810372,True,29,1
AK-K-19K19S1,515,experiment,64,↑,up,↑,0.6110865001101047,True,29,1
AK-K-19K19S1,516,experiment,88,↑,up,↑,0.8061252001207322,True,29,1
AK-K-19K19S1,517,experiment,103,↓,down,↓,0.7087960001081228,True,29,1
AK-K-19K19S1,518,experiment,68,↑,up,↑,0.5057590999640524,True,29,1
AK-K-19K19S1,519,experiment,77,←,left,←,0.5004036999307573,True,29,1
AK-K-19K19S1,520,experiment,63,→,right,→,0.43641279987059534,True,29,1
AK-K-19K19S1,521,experiment,91,↑,up,↑,0.596891799941659,True,29,1
AK-K-19K19S1,522,experiment,81,→,right,→,0.4584435001015663,True,29,1
AK-K-19K19S1,523,experiment,50,↑,up,↑,0.5920504999812692,True,29,1
AK-K-19K19S1,524,experiment,74,←,left,←,0.6324047001544386,True,29,1
AK-K-19K19S1,525,experiment,98,→,right,→,0.7350445000920445,True,29,1
AK-K-19K19S1,526,experiment,107,↑,up,↑,0.5987740000709891,True,29,1
AK-K-19K19S1,527,experiment,78,←,left,←,0.7015362000092864,True,29,1
AK-K-19K19S1,528,experiment,71,←,left,←,0.7144160999450833,True,29,1
AK-K-19K19S1,529,experiment,93,↓,down,↓,0.7754824999719858,True,29,1
AK-K-19K19S1,530,experiment,72,←,left,←,0.5772430000361055,True,29,1
AK-K-19K19S1,531,experiment,60,→,right,→,0.5587032998446375,True,29,1
AK-K-19K19S1,532,experiment,94,↓,down,↓,0.8336376999504864,True,29,1
AK-K-19K19S1,533,experiment,58,→,right,→,0.5180732998996973,True,29,1
AK-K-19K19S1,534,experiment,96,↑,up,↑,0.5297214000020176,True,29,1
AK-K-19K19S1,535,experiment,84,↓,down,↓,0.6248601998668164,True,29,1
AK-K-19K19S1,536,experiment,57,←,left,←,0.5576263000257313,True,29,1
AK-K-19K19S1,537,experiment,61,↓,down,↓,0.5555340999271721,True,29,1
AK-K-19K19S1,538,experiment,85,→,left,←,0.5053265998139977,False,29,1
AK-K-19K19S1,539,experiment,80,↓,down,↓,0.7790732998400927,True,29,1
AK-K-19K19S1,540,experiment,67,→,right,→,0.6778861000202596,True,29,1
AK-K-19K19S1,541,experiment,59,↑,up,↑,0.7837922999169677,True,29,1
AK-K-19K19S1,542,experiment,108,↑,down,↓,1.0050580999813974,False,29,1
AK-K-19K19S1,543,experiment,83,←,left,←,0.6979940999299288,True,29,1
AK-K-19K19S1,544,experiment,62,→,right,→,0.7059223998803645,True,29,1
AK-K-19K19S1,545,training,60,→,right,→,0.47535350010730326,True,28,0
AK-K-19K19S1,546,training,81,↓,down,↓,0.5338637998793274,True,28,1
AK-K-19K19S1,547,experiment,67,↓,left,←,1.1151079998817295,False,28,1
AK-K-19K19S1,548,experiment,102,↑,up,↑,0.5409780000336468,True,28,1
AK-K-19K19S1,549,experiment,48,←,left,←,0.5917271999642253,True,28,1
AK-K-19K19S1,550,experiment,51,↓,down,↓,0.6075849998742342,True,28,1
AK-K-19K19S1,551,experiment,88,←,left,←,0.5867421999573708,True,28,1
AK-K-19K19S1,552,experiment,66,←,left,←,0.6301692000124604,True,28,1
AK-K-19K19S1,553,experiment,49,↓,down,↓,0.5646533998660743,True,28,1
AK-K-19K19S1,554,experiment,76,→,right,→,0.5814175000414252,True,28,1
AK-K-19K19S1,555,experiment,72,↑,up,↑,0.5265498999506235,True,28,1
AK-K-19K19S1,556,experiment,63,←,left,←,0.4531847999896854,True,28,1
AK-K-19K19S1,557,experiment,74,→,right,→,0.40286499983631074,True,28,1
AK-K-19K19S1,558,experiment,80,↓,down,↓,0.6325807999819517,True,28,0
AK-K-19K19S1,559,experiment,85,←,left,←,0.5556094001512975,True,28,1
AK-K-19K19S1,560,experiment,106,↑,down,↓,0.6671078000217676,False,28,1
AK-K-19K19S1,561,experiment,100,←,left,←,0.575535099953413,True,28,1
AK-K-19K19S1,562,experiment,71,↑,down,↓,0.5372918001376092,False,28,1
AK-K-19K19S1,563,experiment,65,→,right,→,0.5426036999560893,True,28,1
AK-K-19K19S1,564,experiment,60,↓,down,↓,0.5892081998754293,True,28,1
AK-K-19K19S1,565,experiment,69,↓,down,↓,0.47948119998909533,True,28,1
AK-K-19K19S1,566,experiment,56,←,left,←,0.5778141999617219,True,28,1
AK-K-19K19S1,567,experiment,108,→,left,←,0.5912383000832051,False,28,1
AK-K-19K19S1,568,experiment,104,↑,up,↑,0.6539948999416083,True,28,1
AK-K-19K19S1,569,experiment,97,←,left,←,0.6040825000964105,True,28,1
AK-K-19K19S1,570,experiment,53,↑,up,↑,0.6664200001396239,True,28,1
AK-K-19K19S1,571,experiment,62,→,right,→,0.6518075000494719,True,28,1
AK-K-19K19S1,572,experiment,91,→,right,→,0.5321396999061108,True,28,1
AK-K-19K19S1,573,experiment,77,→,right,→,0.5336666000075638,True,28,1
AK-K-19K19S1,574,experiment,75,↓,down,↓,0.6801410999614745,True,28,1
AK-K-19K19S1,575,experiment,54,↑,down,↓,0.8434279998764396,False,28,1
AK-K-19K19S1,576,experiment,95,↑,up,↑,0.7386121000163257,True,28,1
AK-K-19K19S1,577,experiment,82,→,right,→,0.5622290999162942,True,28,1
AK-K-19K19S1,578,experiment,55,←,right,→,0.8416375999804586,False,28,1
AK-K-19K19S1,579,experiment,107,↓,down,↓,0.7012942000292242,True,28,1
AK-K-19K19S1,580,experiment,105,←,left,←,0.6790666000451893,True,28,1
AK-K-19K19S1,581,experiment,96,→,right,→,0.46829640003852546,True,28,1
AK-K-19K19S1,582,experiment,84,↓,down,↓,0.7184526000637561,True,28,1
AK-K-19K19S1,583,experiment,90,→,right,→,0.6682722999248654,True,28,1
AK-K-19K19S1,584,experiment,87,↑,up,↑,0.6773494000080973,True,28,1
AK-K-19K19S1,585,experiment,79,←,left,←,0.6646056000608951,True,28,1
AK-K-19K19S1,586,experiment,78,→,right,→,0.6368720000609756,True,28,1
AK-K-19K19S1,587,experiment,86,↓,down,↓,0.6953207000624388,True,28,1
AK-K-19K19S1,588,experiment,73,→,right,→,0.6118588999379426,True,28,1
AK-K-19K19S1,589,experiment,52,↓,down,↓,0.6505897999741137,True,28,1
AK-K-19K19S1,590,experiment,93,←,left,←,0.6421680999919772,True,28,1
AK-K-19K19S1,591,experiment,89,→,right,→,0.6195040999446064,True,28,1
AK-K-19K19S1,592,experiment,94,↓,down,↓,0.5886358001735061,True,28,1
AK-K-19K19S1,593,experiment,81,↓,down,↓,0.6661896998994052,True,28,1
AK-K-19K19S1,594,experiment,61,↓,down,↓,0.6442140999715775,True,28,1
AK-K-19K19S1,595,experiment,59,↑,down,↓,0.6309247000608593,False,28,1
AK-K-19K19S1,596,experiment,98,←,left,←,0.6136221999768168,True,28,1
AK-K-19K19S1,597,experiment,64,→,right,→,0.6563192000612617,True,28,1
AK-K-19K19S1,598,experiment,101,↓,down,↓,0.740975399967283,True,28,1
AK-K-19K19S1,599,experiment,68,←,left,←,0.7132568000815809,True,28,1
AK-K-19K19S1,600,experiment,50,←,left,←,0.8047275000717491,True,28,1
AK-K-19K19S1,601,experiment,70,←,left,←,0.6537180000450462,True,28,1
AK-K-19K19S1,602,experiment,103,↓,down,↓,0.6895542999263853,True,28,1
AK-K-19K19S1,603,experiment,57,→,left,←,0.7715727998875082,False,28,1
AK-K-19K19S1,604,experiment,58,↓,down,↓,0.705629900097847,True,28,1
AK-K-19K19S1,605,experiment,92,↑,up,↑,1.015542599838227,True,28,1
AK-K-19K19S1,606,experiment,99,→,right,→,0.4468848998658359,True,28,1
AK-K-19K19S1,607,experiment,83,←,left,←,0.6575527000240982,True,28,1
AK-K-19K19S1,608,training,69,↓,down,↓,0.5174930000212044,True,28,0
AK-K-19K19S1,609,training,57,←,left,←,0.4622490999754518,True,28,1
AK-K-19K19S1,610,experiment,99,↓,down,↓,0.5394388001877815,True,28,1
AK-K-19K19S1,611,experiment,79,↓,down,↓,0.4760034999344498,True,28,1
AK-K-19K19S1,612,experiment,83,←,left,←,0.6459113999735564,True,28,1
AK-K-19K19S1,613,experiment,48,↑,up,↑,0.5807593001518399,True,28,1
AK-K-19K19S1,614,experiment,100,↑,down,↓,0.5645466998685151,False,28,1
AK-K-19K19S1,615,experiment,88,→,right,→,0.4889604998752475,True,28,1
AK-K-19K19S1,616,experiment,50,↓,down,↓,0.565054299775511,True,28,1
AK-K-19K19S1,617,experiment,97,↑,up,↑,0.6870739001315087,True,28,1
AK-K-19K19S1,618,experiment,91,←,left,←,0.5178064000792801,True,28,1
AK-K-19K19S1,619,experiment,108,→,right,→,0.47760069998912513,True,28,1
AK-K-19K19S1,620,experiment,59,↑,up,↑,0.5835965001024306,True,28,1
AK-K-19K19S1,621,experiment,58,←,left,←,0.6774538999889046,True,28,1
AK-K-19K19S1,622,experiment,104,↓,down,↓,0.5123065998777747,True,28,1
AK-K-19K19S1,623,experiment,73,←,left,←,0.6440240999218076,True,28,1
AK-K-19K19S1,624,experiment,77,↑,up,↑,0.6093172000255436,True,28,1
AK-K-19K19S1,625,experiment,106,↓,down,↓,0.5503018000163138,True,28,1
AK-K-19K19S1,626,experiment,105,↑,up,↑,0.6061276998370886,True,28,1
AK-K-19K19S1,627,experiment,89,→,right,→,0.6007417000364512,True,28,1
AK-K-19K19S1,628,experiment,52,←,left,←,0.655874699819833,True,28,1
AK-K-19K19S1,629,experiment,102,↓,down,↓,0.6201846001204103,True,28,1
AK-K-19K19S1,630,experiment,72,↑,up,↑,0.6280552998650819,True,28,1
AK-K-19K19S1,631,experiment,93,↓,down,↓,0.612488399958238,True,28,1
AK-K-19K19S1,632,experiment,78,↑,up,↑,0.6983803999610245,True,28,1
AK-K-19K19S1,633,experiment,53,↑,up,↑,0.6294873000588268,True,28,1
AK-K-19K19S1,634,experiment,107,→,right,→,0.7452191000338644,True,28,1
AK-K-19K19S1,635,experiment,84,↑,up,↑,0.6160556999966502,True,28,1
AK-K-19K19S1,636,experiment,85,↑,up,↑,1.1559683000668883,True,28,1
AK-K-19K19S1,637,experiment,49,↓,down,↓,0.6459550000727177,True,28,1
AK-K-19K19S1,638,experiment,74,←,left,←,0.5158386998809874,True,28,1
AK-K-19K19S1,639,experiment,101,←,left,←,0.6140759999398142,True,28,1
AK-K-19K19S1,640,experiment,63,↓,down,↓,0.7052559000439942,True,28,1
AK-K-19K19S1,641,experiment,70,↓,down,↓,0.8144193000625819,True,28,1
AK-K-19K19S1,642,experiment,65,←,left,←,0.6243286998942494,True,28,1
AK-K-19K19S1,643,experiment,64,↑,down,↓,0.810799099970609,False,28,1
AK-K-19K19S1,644,experiment,66,↑,up,↑,0.7248478000983596,True,28,1
AK-K-19K19S1,645,experiment,96,→,left,←,0.6887264000251889,False,28,1
AK-K-19K19S1,646,experiment,62,←,left,←,0.7372825997881591,True,28,1
AK-K-19K19S1,647,experiment,56,→,right,→,0.80960139981471,True,28,1
AK-K-19K19S1,648,experiment,92,←,left,←,0.650881300214678,True,28,1
AK-K-19K19S1,649,experiment,75,→,right,→,0.608564400114119,True,28,1
AK-K-19K19S1,650,experiment,57,→,right,→,0.6059439999517053,True,28,1
AK-K-19K19S1,651,experiment,55,↑,up,↑,0.6756499998737127,True,28,1
AK-K-19K19S1,652,experiment,69,↓,down,↓,0.7226414999458939,True,28,1
AK-K-19K19S1,653,experiment,71,←,left,←,0.542327200062573,True,28,1
AK-K-19K19S1,654,experiment,67,↓,down,↓,0.5629690000787377,True,28,1
AK-K-19K19S1,655,experiment,60,↓,down,↓,0.5290074998047203,True,28,1
AK-K-19K19S1,656,experiment,94,←,left,←,0.4611903999466449,True,28,1
AK-K-19K19S1,657,experiment,61,←,left,←,0.8950487999245524,True,28,1
AK-K-19K19S1,658,experiment,98,↓,down,↓,0.6195207999553531,True,28,1
AK-K-19K19S1,659,experiment,81,↑,up,↑,0.576354700140655,True,28,1
AK-K-19K19S1,660,experiment,68,←,right,→,0.8112604999914765,False,28,1
AK-K-19K19S1,661,experiment,95,→,right,→,0.5240766999777406,True,28,1
AK-K-19K19S1,662,experiment,103,←,left,←,0.5653645999263972,True,28,1
AK-K-19K19S1,663,experiment,82,←,left,←,0.7161660999991,True,28,1
AK-K-19K19S1,664,experiment,86,↑,up,↑,0.6194819000083953,True,28,1
AK-K-19K19S1,665,experiment,51,↓,down,↓,0.746430000057444,True,28,1
AK-K-19K19S1,666,experiment,54,↑,up,↑,0.6429396998137236,True,28,1
AK-K-19K19S1,667,experiment,76,↑,up,↑,0.6724390999879688,True,28,1
AK-K-19K19S1,668,experiment,80,↓,up,↑,1.02011219994165,False,28,1
AK-K-19K19S1,669,experiment,90,←,left,←,0.6136006999295205,True,28,1
AK-K-19K19S1,670,experiment,87,↑,up,↑,0.7125519001856446,True,28,1
AK-K-19K19S1,671,training,103,←,left,←,0.526108899852261,True,28,0
AK-K-19K19S1,672,training,77,←,left,←,0.47177460021339357,True,28,1
AK-K-19K19S1,673,experiment,85,↓,down,↓,0.9452223000116646,True,28,1
AK-K-19K19S1,674,experiment,81,→,right,→,0.528961000032723,True,28,1
AK-K-19K19S1,675,experiment,49,↓,down,↓,0.7640457998495549,True,28,1
AK-K-19K19S1,676,experiment,76,→,left,←,0.9885789998807013,False,28,1
AK-K-19K19S1,677,experiment,54,↑,up,↑,0.5954666000325233,True,28,1
AK-K-19K19S1,678,experiment,96,↓,down,↓,0.7082142001017928,True,28,1
AK-K-19K19S1,679,experiment,100,→,right,→,0.511224800022319,True,28,1
AK-K-19K19S1,680,experiment,75,↓,down,↓,0.6909503000788391,True,28,1
AK-K-19K19S1,681,experiment,98,←,left,←,0.5430548000149429,True,28,1
AK-K-19K19S1,682,experiment,55,←,left,←,0.671418400015682,True,28,1
AK-K-19K19S1,683,experiment,66,←,left,←,0.6712287999689579,True,28,1
AK-K-19K19S1,684,experiment,88,↓,down,↓,0.6633849001955241,True,28,1
AK-K-19K19S1,685,experiment,94,↓,down,↓,0.6783853999804705,True,28,1
AK-K-19K19S1,686,experiment,51,→,right,→,0.6827724000904709,True,28,1
AK-K-19K19S1,687,experiment,61,↑,up,↑,0.6755213001742959,True,28,1
AK-K-19K19S1,688,experiment,106,←,left,←,0.7659372000489384,True,28,1
AK-K-19K19S1,689,experiment,63,←,left,←,0.7071414000820369,True,28,1
AK-K-19K19S1,690,experiment,69,↑,down,↓,0.744916999945417,False,28,1
AK-K-19K19S1,691,experiment,84,→,right,→,0.6234993000980467,True,28,1
AK-K-19K19S1,692,experiment,93,→,right,→,0.6478613000363111,True,28,1
AK-K-19K19S1,693,experiment,48,↓,down,↓,0.7267132999841124,True,28,1
AK-K-19K19S1,694,experiment,64,↑,up,↑,0.5090950999874622,True,28,1
AK-K-19K19S1,695,experiment,80,↑,up,↑,0.5423671000171453,True,28,1
AK-K-19K19S1,696,experiment,57,→,right,→,0.40706840017810464,True,28,1
AK-K-19K19S1,697,experiment,104,→,right,→,0.564142799936235,True,28,0
AK-K-19K19S1,698,experiment,82,←,left,←,0.4185996998567134,True,28,1
AK-K-19K19S1,699,experiment,59,↓,down,↓,0.6386872997973114,True,28,1
AK-K-19K19S1,700,experiment,91,↓,down,↓,0.5752491999883205,True,28,1
AK-K-19K19S1,701,experiment,67,↓,down,↓,0.54720180016011,True,28,1
AK-K-19K19S1,702,experiment,50,←,left,←,0.5245403000153601,True,28,1
AK-K-19K19S1,703,experiment,108,→,right,→,0.4282665001228452,True,28,1
AK-K-19K19S1,704,experiment,74,↑,down,↓,0.5387142999097705,False,28,1
AK-K-19K19S1,705,experiment,102,↓,down,↓,0.5557690998539329,True,28,1
AK-K-19K19S1,706,experiment,58,←,left,←,0.5305991999339312,True,28,1
AK-K-19K19S1,707,experiment,97,↑,up,↑,0.5978374001570046,True,28,1
AK-K-19K19S1,708,experiment,53,→,right,→,0.5646987999789417,True,28,1
AK-K-19K19S1,709,experiment,83,↑,up,↑,0.7787597000133246,True,28,1
AK-K-19K19S1,710,experiment,60,←,left,←,0.5360840999055654,True,28,1
AK-K-19K19S1,711,experiment,73,↑,up,↑,0.5071739999111742,True,28,1
AK-K-19K19S1,712,experiment,77,←,left,←,0.4857592999469489,True,28,1
AK-K-19K19S1,713,experiment,101,→,left,←,0.7133057999890298,False,28,1
AK-K-19K19S1,714,experiment,99,←,left,←,0.620328800054267,True,28,1
AK-K-19K19S1,715,experiment,89,←,left,←,0.6865288000553846,True,28,1
AK-K-19K19S1,716,experiment,62,↓,down,↓,0.6153717001434416,True,28,1
AK-K-19K19S1,717,experiment,72,↓,down,↓,0.6393594001419842,True,28,1
AK-K-19K19S1,718,experiment,105,↓,down,↓,0.7554208000656217,True,28,1
AK-K-19K19S1,719,experiment,95,→,right,→,0.6540110998321325,True,28,1
AK-K-19K19S1,720,experiment,103,→,right,→,0.6584719000384212,True,28,1
AK-K-19K19S1,721,experiment,70,←,left,←,0.8733020999934524,True,28,1
AK-K-19K19S1,722,experiment,52,→,right,→,1.1095337998121977,True,28,1
AK-K-19K19S1,723,experiment,90,↓,down,↓,0.7241624998860061,True,28,1
AK-K-19K19S1,724,experiment,56,↑,up,↑,0.7410333000589162,True,28,1
AK-K-19K19S1,725,experiment,78,→,right,→,0.6379866001661867,True,28,1
AK-K-19K19S1,726,experiment,92,→,right,→,0.7107013000641018,True,28,1
AK-K-19K19S1,727,experiment,68,↑,up,↑,0.6603427000809461,True,28,1
AK-K-19K19S1,728,experiment,79,↑,up,↑,0.536357400007546,True,28,1
AK-K-19K19S1,729,experiment,65,↓,down,↓,0.6620182001497597,True,28,1
AK-K-19K19S1,730,experiment,87,↓,down,↓,0.5755950000602752,True,28,1
AK-K-19K19S1,731,experiment,107,←,left,←,0.5651816001627594,True,28,1
AK-K-19K19S1,732,experiment,71,→,right,→,0.4794391000177711,True,28,1
AK-K-19K19S1,733,experiment,86,←,left,←,0.5521198001224548,True,28,1
AK-K-19K19S1,734,training,75,↓,down,↓,0.5550267999060452,True,28,0
AK-K-19K19S1,735,training,60,→,right,→,0.4733051999937743,True,28,1
AK-K-19K19S1,736,experiment,71,←,left,←,0.5909649999812245,True,28,1
AK-K-19K19S1,737,experiment,65,←,left,←,0.47464630007743835,True,28,1
AK-K-19K19S1,738,experiment,102,↓,down,↓,0.5657014001626521,True,28,1
AK-K-19K19S1,739,experiment,86,→,right,→,0.6513628999236971,True,28,1
AK-K-19K19S1,740,experiment,103,→,right,→,0.5516945000272244,True,28,1
AK-K-19K19S1,741,experiment,96,↓,down,↓,0.6261612998787314,True,28,1
AK-K-19K19S1,742,experiment,100,←,left,←,0.5686228999402374,True,28,1
AK-K-19K19S1,743,experiment,52,↑,up,↑,0.5536037001293153,True,28,1
AK-K-19K19S1,744,experiment,83,→,right,→,0.6720994000788778,True,28,1
AK-K-19K19S1,745,experiment,88,→,right,→,0.4803879999089986,True,28,1
AK-K-19K19S1,746,experiment,104,→,right,→,0.5389922999311239,True,28,1
AK-K-19K19S1,747,experiment,107,→,right,→,0.6344588999636471,True,28,1
AK-K-19K19S1,748,experiment,50,←,left,←,0.6969760998617858,True,28,1
AK-K-19K19S1,749,experiment,77,←,right,→,0.907904600026086,False,28,1
AK-K-19K19S1,750,experiment,108,→,right,→,0.5485050000716001,True,28,1
AK-K-19K19S1,751,experiment,55,↓,down,↓,0.6128841999452561,True,28,1
AK-K-19K19S1,752,experiment,76,→,right,→,0.6192616999614984,True,28,1
AK-K-19K19S1,753,experiment,81,↑,up,↑,0.5603235999587923,True,28,1
AK-K-19K19S1,754,experiment,48,↑,up,↑,0.5786628001369536,True,28,1
AK-K-19K19S1,755,experiment,101,←,left,←,0.6265309997834265,True,28,1
AK-K-19K19S1,756,experiment,69,←,left,←,0.5952848000451922,True,28,1
AK-K-19K19S1,757,experiment,80,←,left,←,0.753331399988383,True,28,1
AK-K-19K19S1,758,experiment,49,→,right,→,0.6836012001149356,True,28,1
AK-K-19K19S1,759,experiment,99,→,right,→,0.6401879000477493,True,28,1
AK-K-19K19S1,760,experiment,75,←,left,←,0.7020109998993576,True,28,1
AK-K-19K19S1,761,experiment,78,↓,down,↓,0.6166850000154227,True,28,1
AK-K-19K19S1,762,experiment,79,←,right,→,0.5902970000170171,False,28,1
AK-K-19K19S1,763,experiment,64,→,right,→,0.6100545998197049,True,28,1
AK-K-19K19S1,764,experiment,85,←,left,←,0.6460143001750112,True,28,1
AK-K-19K19S1,765,experiment,56,↑,up,↑,0.8578292999882251,True,28,1
AK-K-19K19S1,766,experiment,82,↑,up,↑,0.6287082000635564,True,28,1
AK-K-19K19S1,767,experiment,90,←,left,←,0.6141663000453264,True,28,1
AK-K-19K19S1,768,experiment,74,↑,up,↑,0.7416934000793844,True,28,1
AK-K-19K19S1,769,experiment,68,←,right,→,0.46608630008995533,False,28,1
AK-K-19K19S1,770,experiment,92,→,right,→,0.5532394000329077,True,28,1
AK-K-19K19S1,771,experiment,89,→,right,→,0.661874599987641,True,28,1
AK-K-19K19S1,772,experiment,87,→,right,→,0.7193245999515057,True,28,1
AK-K-19K19S1,773,experiment,84,↑,up,↑,0.5033706999383867,True,28,1
AK-K-19K19S1,774,experiment,62,↑,up,↑,0.9911827999167144,True,28,1
AK-K-19K19S1,775,experiment,67,→,right,→,0.4579889001324773,True,28,1
AK-K-19K19S1,776,experiment,58,←,left,←,0.5647123001981527,True,28,1
AK-K-19K19S1,777,experiment,93,↓,down,↓,0.6640451999846846,True,28,1
AK-K-19K19S1,778,experiment,106,↓,down,↓,0.6346418000757694,True,28,1
AK-K-19K19S1,779,experiment,72,↓,down,↓,0.5937888000626117,True,28,1
AK-K-19K19S1,780,experiment,70,→,right,→,0.5875806999392807,True,28,1
AK-K-19K19S1,781,experiment,105,↓,down,↓,0.5056347001809627,True,28,1
AK-K-19K19S1,782,experiment,53,↑,down,↓,0.6359653999097645,False,28,1
AK-K-19K19S1,783,experiment,54,↓,down,↓,0.5932044999208301,True,28,1
AK-K-19K19S1,784,experiment,51,↑,up,↑,0.5450941999442875,True,28,1
AK-K-19K19S1,785,experiment,73,↑,up,↑,0.707745400024578,True,28,1
AK-K-19K19S1,786,experiment,95,→,right,→,0.6003352000843734,True,28,1
AK-K-19K19S1,787,experiment,59,↑,up,↑,0.5577559000812471,True,28,1
AK-K-19K19S1,788,experiment,91,→,right,→,0.3752982998266816,True,28,1
AK-K-19K19S1,789,experiment,66,←,left,←,0.5644960999488831,True,28,0
AK-K-19K19S1,790,experiment,60,→,right,→,0.5544861999806017,True,28,1
AK-K-19K19S1,791,experiment,63,↓,down,↓,0.6475422000512481,True,28,1
AK-K-19K19S1,792,experiment,97,↑,up,↑,0.6381381000392139,True,28,1
AK-K-19K19S1,793,experiment,57,↑,up,↑,0.5862207000609487,True,28,1
AK-K-19K19S1,794,experiment,94,↓,down,↓,0.5723417999688536,True,28,1
AK-K-19K19S1,795,experiment,61,↓,down,↓,0.5852183001115918,True,28,1
AK-K-19K19S1,796,experiment,98,←,left,←,0.6100277998484671,True,28,1
AK-K-19K19S1,797,training,99,↓,down,↓,0.8235645999666303,True,28,0
AK-K-19K19S1,798,training,69,↓,down,↓,0.4959444999694824,True,28,1
AK-K-19K19S1,799,experiment,63,↑,up,↑,0.5195687999948859,True,28,1
AK-K-19K19S1,800,experiment,106,←,right,→,0.3591714999638498,False,28,1
AK-K-19K19S1,801,experiment,79,←,left,←,0.6237170998938382,True,28,0
AK-K-19K19S1,802,experiment,94,↑,up,↑,0.4881053001154214,True,28,1
AK-K-19K19S1,803,experiment,74,↓,down,↓,0.69250230002217,True,28,1
AK-K-19K19S1,804,experiment,68,→,right,→,0.4428226000163704,True,28,1
AK-K-19K19S1,805,experiment,80,↑,up,↑,0.5429602998774499,True,28,1
AK-K-19K19S1,806,experiment,105,↑,up,↑,0.48727159993723035,True,28,1
AK-K-19K19S1,807,experiment,71,→,right,→,0.46007109992206097,True,28,1
AK-K-19K19S1,808,experiment,108,↓,down,↓,0.5184721001423895,True,28,1
AK-K-19K19S1,809,experiment,65,↓,down,↓,0.6767549000214785,True,28,1
AK-K-19K19S1,810,experiment,101,→,right,→,0.4566869998816401,True,28,1
AK-K-19K19S1,811,experiment,88,↑,up,↑,0.6421672001015395,True,28,1
AK-K-19K19S1,812,experiment,62,←,left,←,0.5559026000555605,True,28,1
AK-K-19K19S1,813,experiment,99,↑,up,↑,0.7492488999851048,True,28,1
AK-K-19K19S1,814,experiment,102,←,left,←,0.5899845000822097,True,28,1
AK-K-19K19S1,815,experiment,85,↓,down,↓,0.6745820001233369,True,28,1
AK-K-19K19S1,816,experiment,97,↑,up,↑,0.6159777001012117,True,28,1
AK-K-19K19S1,817,experiment,95,↑,up,↑,0.6164369999896735,True,28,1
AK-K-19K19S1,818,experiment,54,←,left,←,0.6061146999709308,True,28,1
AK-K-19K19S1,819,experiment,81,→,right,→,0.4594887001439929,True,28,1
AK-K-19K19S1,820,experiment,107,←,left,←,0.6381808000151068,True,28,1
AK-K-19K19S1,821,experiment,96,→,left,←,1.037167200120166,False,28,1
AK-K-19K19S1,822,experiment,78,↓,down,↓,0.5623180998954922,True,28,1
AK-K-19K19S1,823,experiment,72,↓,down,↓,0.5488551000598818,True,28,1
AK-K-19K19S1,824,experiment,73,→,right,→,0.4708016999065876,True,28,1
AK-K-19K19S1,825,experiment,90,→,right,→,0.5988946000579745,True,28,1
AK-K-19K19S1,826,experiment,100,↓,down,↓,0.6387417002115399,True,28,1
AK-K-19K19S1,827,experiment,67,←,left,←,0.5667037998791784,True,28,1
AK-K-19K19S1,828,experiment,58,←,left,←,0.6454252998810261,True,28,1
AK-K-19K19S1,829,experiment,64,→,right,→,0.6310934000648558,True,28,1
AK-K-19K19S1,830,experiment,103,↑,up,↑,0.4759360000025481,True,28,1
AK-K-19K19S1,831,experiment,104,↓,up,↑,0.7589446001220495,False,28,1
AK-K-19K19S1,832,experiment,66,→,right,→,0.4432537001557648,True,28,1
AK-K-19K19S1,833,experiment,98,↓,down,↓,0.5617186999879777,True,28,1
AK-K-19K19S1,834,experiment,51,↓,down,↓,0.6508847000077367,True,28,1
AK-K-19K19S1,835,experiment,61,←,left,←,0.4849167999345809,True,28,1
AK-K-19K19S1,836,experiment,59,↓,down,↓,0.7824212000705302,True,28,1
AK-K-19K19S1,837,experiment,87,→,right,→,0.5550322998315096,True,28,1
AK-K-19K19S1,838,experiment,92,←,left,←,0.6146610998548567,True,28,1
AK-K-19K19S1,839,experiment,75,→,right,→,0.5095011000521481,True,28,1
AK-K-19K19S1,840,experiment,60,→,right,→,0.5659167999401689,True,28,1
AK-K-19K19S1,841,experiment,53,←,left,←,0.6777007000055164,True,28,1
AK-K-19K19S1,842,experiment,50,↓,down,↓,0.7227213999722153,True,28,1
AK-K-19K19S1,843,experiment,57,↓,down,↓,0.7233755998313427,True,28,1
AK-K-19K19S1,844,experiment,83,→,right,→,0.5154782000463456,True,28,1
AK-K-19K19S1,845,experiment,77,←,left,←,0.7177967000752687,True,28,1
AK-K-19K19S1,846,experiment,48,←,left,←,0.7220807999838144,True,28,1
AK-K-19K19S1,847,experiment,89,↑,up,↑,0.719671499915421,True,28,1
AK-K-19K19S1,848,experiment,93,↑,up,↑,0.6044701000209898,True,28,1
AK-K-19K19S1,849,experiment,76,←,left,←,0.5476977000944316,True,28,1
AK-K-19K19S1,850,experiment,49,↑,up,↑,0.6698254998773336,True,28,1
AK-K-19K19S1,851,experiment,86,←,left,←,0.5673237999435514,True,28,1
AK-K-19K19S1,852,experiment,55,↑,up,↑,0.6548913998994976,True,28,1
AK-K-19K19S1,853,experiment,56,→,right,→,0.5463542998768389,True,28,1
AK-K-19K19S1,854,experiment,82,←,left,←,0.7855744999833405,True,28,1
AK-K-19K19S1,855,experiment,84,↑,up,↑,0.5989369999151677,True,28,1
AK-K-19K19S1,856,experiment,91,→,right,→,0.47327989991754293,True,28,1
AK-K-19K19S1,857,experiment,52,→,right,→,0.5096075998153538,True,28,1
AK-K-19K19S1,858,experiment,69,↑,up,↑,0.618868499994278,True,28,1
AK-K-19K19S1,859,experiment,70,←,left,←,0.6353585999459028,True,28,1
AK-K-19K19S1,860,training,105,←,left,←,0.5597393000498414,True,28,0
AK-K-19K19S1,861,training,58,→,right,→,0.4860429000109434,True,28,1
AK-K-19K19S1,862,experiment,100,→,right,→,0.5059100999496877,True,28,1
AK-K-19K19S1,863,experiment,53,←,left,←,0.5488083998207003,True,28,1
AK-K-19K19S1,864,experiment,92,↓,down,↓,0.7285418000537902,True,28,1
AK-K-19K19S1,865,experiment,96,↑,up,↑,0.8281946999486536,True,28,1
AK-K-19K19S1,866,experiment,103,→,right,→,0.5375811001285911,True,28,1
AK-K-19K19S1,867,experiment,48,→,right,→,0.5410585000645369,True,28,1
AK-K-19K19S1,868,experiment,70,↑,up,↑,0.5126928999088705,True,28,1
AK-K-19K19S1,869,experiment,73,←,right,→,0.7159853999037296,False,28,1
AK-K-19K19S1,870,experiment,51,←,left,←,0.4390106999780983,True,28,1
AK-K-19K19S1,871,experiment,75,↓,down,↓,0.5569077001418918,True,28,1
AK-K-19K19S1,872,experiment,61,↑,up,↑,0.5788074000738561,True,28,1
AK-K-19K19S1,873,experiment,81,↓,down,↓,0.6491911998018622,True,28,1
AK-K-19K19S1,874,experiment,77,↑,up,↑,0.5098439999856055,True,28,1
AK-K-19K19S1,875,experiment,52,↑,up,↑,0.6491090999916196,True,28,1
AK-K-19K19S1,876,experiment,95,↑,up,↑,0.7678133000154048,True,28,1
AK-K-19K19S1,877,experiment,71,→,right,→,0.5463084999937564,True,28,1
AK-K-19K19S1,878,experiment,54,→,right,→,0.5465484000742435,True,28,1
AK-K-19K19S1,879,experiment,57,←,left,←,0.5540122999809682,True,28,1
AK-K-19K19S1,880,experiment,84,←,left,←,0.6247610000427812,True,28,1
AK-K-19K19S1,881,experiment,85,←,left,←,0.5801522999536246,True,28,1
AK-K-19K19S1,882,experiment,62,←,left,←,0.5288086000364274,True,28,1
AK-K-19K19S1,883,experiment,91,←,left,←,0.5262796001043171,True,28,1
AK-K-19K19S1,884,experiment,105,↓,down,↓,0.6307005998678505,True,28,1
AK-K-19K19S1,885,experiment,104,→,right,→,0.459662500070408,True,28,1
AK-K-19K19S1,886,experiment,80,←,left,←,0.5512243001721799,True,28,1
AK-K-19K19S1,887,experiment,76,←,right,→,0.3749534001108259,False,28,1
AK-K-19K19S1,888,experiment,69,→,right,→,0.4986262999009341,True,28,0
AK-K-19K19S1,889,experiment,93,↓,down,↓,0.6881273000035435,True,28,1
AK-K-19K19S1,890,experiment,97,←,left,←,0.5807660999707878,True,28,1
AK-K-19K19S1,891,experiment,55,→,left,←,0.8917017001658678,False,28,1
AK-K-19K19S1,892,experiment,106,↑,up,↑,0.5333803999237716,True,28,1
AK-K-19K19S1,893,experiment,56,←,left,←,0.6540047999005765,True,28,1
AK-K-19K19S1,894,experiment,94,↓,down,↓,0.7893980001099408,True,28,1
AK-K-19K19S1,895,experiment,49,↓,down,↓,0.6137236999347806,True,28,1
AK-K-19K19S1,896,experiment,74,↑,up,↑,0.5089693001937121,True,28,1
AK-K-19K19S1,897,experiment,88,↓,down,↓,0.6200739999767393,True,28,1
AK-K-19K19S1,898,experiment,72,↓,down,↓,0.5398977999575436,True,28,1
AK-K-19K19S1,899,experiment,68,→,right,→,0.7118722000159323,True,28,1
AK-K-19K19S1,900,experiment,87,↑,up,↑,0.5916256001219153,True,28,1
AK-K-19K19S1,901,experiment,108,↑,down,↓,0.7401454001665115,False,28,1
AK-K-19K19S1,902,experiment,50,→,right,→,0.5423930000979453,True,28,1
AK-K-19K19S1,903,experiment,65,→,right,→,0.5555975998286158,True,28,1
AK-K-19K19S1,904,experiment,82,↓,down,↓,0.6105988000053912,True,28,1
AK-K-19K19S1,905,experiment,98,←,left,←,0.5626206998713315,True,28,1
AK-K-19K19S1,906,experiment,78,↓,down,↓,0.5544599001295865,True,28,1
AK-K-19K19S1,907,experiment,83,↓,down,↓,0.7457034001126885,True,28,1
AK-K-19K19S1,908,experiment,86,→,right,→,0.5117845998611301,True,28,1
AK-K-19K19S1,909,experiment,89,←,left,←,0.5986484000459313,True,28,1
AK-K-19K19S1,910,experiment,64,→,right,→,0.7135885001625866,True,28,1
AK-K-19K19S1,911,experiment,90,↑,right,→,0.9913914001081139,False,28,1
AK-K-19K19S1,912,experiment,63,↑,up,↑,0.5717234998010099,True,28,1
AK-K-19K19S1,913,experiment,102,→,right,→,0.6274290999863297,True,28,1
AK-K-19K19S1,914,experiment,101,↑,down,↓,0.7291786000132561,False,28,1
AK-K-19K19S1,915,experiment,60,←,right,→,0.8086437999736518,False,28,1
AK-K-19K19S1,916,experiment,67,↓,up,↑,0.730514699826017,False,28,1
AK-K-19K19S1,917,experiment,59,←,left,←,0.6020878998097032,True,28,1
AK-K-19K19S1,918,experiment,66,↑,up,↑,0.5411038999445736,True,28,1
AK-K-19K19S1,919,experiment,79,↓,down,↓,0.7653335998766124,True,28,1
AK-K-19K19S1,920,experiment,58,→,right,→,0.5958823999390006,True,28,1
AK-K-19K19S1,921,experiment,107,←,left,←,0.6331670999061316,True,28,1
AK-K-19K19S1,922,experiment,99,↓,down,↓,0.7113330001011491,True,28,1
AK-K-19K19S1,923,training,63,↓,down,↓,0.5026615001261234,True,28,0
AK-K-19K19S1,924,training,101,←,left,←,0.5057217001449317,True,28,1
AK-K-19K19S1,925,experiment,78,→,right,→,0.5637295001652092,True,28,1
AK-K-19K19S1,926,experiment,52,←,left,←,0.5002791001461446,True,28,1
AK-K-19K19S1,927,experiment,92,←,left,←,0.4662005000282079,True,28,1
AK-K-19K19S1,928,experiment,108,←,left,←,0.3582280999980867,True,28,1
AK-K-19K19S1,929,experiment,50,→,left,←,0.4695421000942588,False,28,0
AK-K-19K19S1,930,experiment,104,→,right,→,0.5367741000372916,True,28,1
AK-K-19K19S1,931,experiment,91,→,right,→,0.7257696001324803,True,28,1
AK-K-19K19S1,932,experiment,60,↑,up,↑,0.5654116999357939,True,28,1
AK-K-19K19S1,933,experiment,100,←,left,←,0.5500236998777837,True,28,1
AK-K-19K19S1,934,experiment,53,←,left,←,0.5829261001199484,True,28,1
AK-K-19K19S1,935,experiment,65,↑,up,↑,0.7223799999337643,True,28,1
AK-K-19K19S1,936,experiment,96,→,right,→,0.5422346999403089,True,28,1
AK-K-19K19S1,937,experiment,62,←,left,←,0.5644150001462549,True,28,1
AK-K-19K19S1,938,experiment,101,→,right,→,0.5411966000683606,True,28,1
AK-K-19K19S1,939,experiment,55,←,left,←,0.5253074998036027,True,28,1
AK-K-19K19S1,940,experiment,83,→,right,→,0.6451212998945266,True,28,1
AK-K-19K19S1,941,experiment,81,↑,up,↑,0.6645641000941396,True,28,1
AK-K-19K19S1,942,experiment,99,↑,up,↑,0.6618591002188623,True,28,1
AK-K-19K19S1,943,experiment,95,→,right,→,0.5004950000438839,True,28,1
AK-K-19K19S1,944,experiment,97,→,right,→,0.4648017000872642,True,28,1
AK-K-19K19S1,945,experiment,54,→,right,→,0.580903299851343,True,28,1
AK-K-19K19S1,946,experiment,98,→,right,→,0.46138270013034344,True,28,1
AK-K-19K19S1,947,experiment,61,↓,down,↓,0.6552434000186622,True,28,1
AK-K-19K19S1,948,experiment,77,←,left,←,0.5878441000822932,True,28,1
AK-K-19K19S1,949,experiment,58,↑,up,↑,0.5776128000579774,True,28,1
AK-K-19K19S1,950,experiment,106,↓,down,↓,0.6961757999379188,True,28,1
AK-K-19K19S1,951,experiment,73,←,left,←,0.49226299999281764,True,28,1
AK-K-19K19S1,952,experiment,71,↑,up,↑,0.6332673998549581,True,28,1
AK-K-19K19S1,953,experiment,93,←,left,←,0.5776019000913948,True,28,1
AK-K-19K19S1,954,experiment,68,↓,down,↓,0.532577299978584,True,28,1
AK-K-19K19S1,955,experiment,49,↓,up,↑,0.6956219999119639,False,28,1
AK-K-19K19S1,956,experiment,66,→,left,←,0.6620891999918967,False,28,1
AK-K-19K19S1,957,experiment,74,↓,down,↓,0.6996704000048339,True,28,1
AK-K-19K19S1,958,experiment,90,←,left,←,0.6182746000122279,True,28,1
AK-K-19K19S1,959,experiment,57,↓,down,↓,0.47923149983398616,True,28,1
AK-K-19K19S1,960,experiment,76,→,right,→,0.819275600137189,True,28,1
AK-K-19K19S1,961,experiment,82,←,left,←,0.5282022999599576,True,28,1
AK-K-19K19S1,962,experiment,63,↓,down,↓,0.5264436998404562,True,28,1
AK-K-19K19S1,963,experiment,79,→,right,→,0.6397554001305252,True,28,1
AK-K-19K19S1,964,experiment,102,←,left,←,0.5166573999449611,True,28,1
AK-K-19K19S1,965,experiment,64,→,right,→,0.6431076999288052,True,28,1
AK-K-19K19S1,966,experiment,89,↑,down,↓,0.572629899950698,False,28,1
AK-K-19K19S1,967,experiment,48,↑,up,↑,0.6380924000404775,True,28,1
AK-K-19K19S1,968,experiment,56,→,right,→,0.5544577001128346,True,28,1
AK-K-19K19S1,969,experiment,87,←,left,←,0.7517274999991059,True,28,1
AK-K-19K19S1,970,experiment,69,↓,up,↑,0.8275994001887739,False,28,1
AK-K-19K19S1,971,experiment,59,→,right,→,0.5835724999196827,True,28,1
AK-K-19K19S1,972,experiment,85,←,left,←,0.6846621001604944,True,28,1
AK-K-19K19S1,973,experiment,86,→,right,→,0.6532213999889791,True,28,1
AK-K-19K19S1,974,experiment,72,→,left,←,1.4196093000937253,False,28,1
AK-K-19K19S1,975,experiment,103,↓,down,↓,0.849617499858141,True,28,1
AK-K-19K19S1,976,experiment,88,←,left,←,0.6109221000224352,True,28,1
AK-K-19K19S1,977,experiment,94,←,left,←,0.6519299999345094,True,28,1
AK-K-19K19S1,978,experiment,105,↑,up,↑,1.2078778001014143,True,28,1
AK-K-19K19S1,979,experiment,70,↓,down,↓,0.5208986999932677,True,28,1
AK-K-19K19S1,980,experiment,80,→,right,→,0.594048400176689,True,28,1
AK-K-19K19S1,981,experiment,84,↑,up,↑,0.5187024001497775,True,28,1
AK-K-19K19S1,982,experiment,67,←,left,←,0.5083730001933873,True,28,1
AK-K-19K19S1,983,experiment,51,↓,down,↓,0.5755499000661075,True,28,1
AK-K-19K19S1,984,experiment,75,↑,up,↑,0.576286899857223,True,28,1
AK-K-19K19S1,985,experiment,107,←,left,←,0.5261375999543816,True,28,1
AK-K-19K19S1,986,training,61,→,right,→,0.4735983000136912,True,28,0
AK-K-19K19S1,987,training,81,→,left,←,0.6360672002192587,False,28,1
AK-K-19K19S1,988,experiment,79,→,right,→,0.4651111999992281,True,28,1
AK-K-19K19S1,989,experiment,59,→,right,→,0.41193560021929443,True,28,1
AK-K-19K19S1,990,experiment,70,→,right,→,0.5240050000138581,True,28,1
AK-K-19K19S1,991,experiment,84,←,left,←,0.5316856000572443,True,28,1
AK-K-19K19S1,992,experiment,61,→,right,→,0.5225032998714596,True,28,1
AK-K-19K19S1,993,experiment,99,→,right,→,0.5651591999921948,True,28,1
AK-K-19K19S1,994,experiment,53,↑,up,↑,0.5416063999291509,True,28,1
AK-K-19K19S1,995,experiment,92,→,right,→,0.5301075000315905,True,28,1
AK-K-19K19S1,996,experiment,94,↑,up,↑,0.46172639983706176,True,28,1
AK-K-19K19S1,997,experiment,82,→,right,→,0.5607879001181573,True,28,1
AK-K-19K19S1,998,experiment,93,→,right,→,0.6039429001975805,True,28,1
AK-K-19K19S1,999,experiment,71,→,right,→,0.6048548000399023,True,28,1
AK-K-19K19S1,1000,experiment,64,←,left,←,0.616160900099203,True,28,1
AK-K-19K19S1,1001,experiment,85,←,left,←,0.5876277999486774,True,28,1
AK-K-19K19S1,1002,experiment,78,↑,up,↑,0.44267069990746677,True,28,1
AK-K-19K19S1,1003,experiment,80,↑,up,↑,0.47086390014737844,True,28,1
AK-K-19K19S1,1004,experiment,56,←,left,←,0.5456903998274356,True,28,1
AK-K-19K19S1,1005,experiment,68,←,left,←,0.6217020999174565,True,28,1
AK-K-19K19S1,1006,experiment,48,→,right,→,0.5732758000958711,True,28,1
AK-K-19K19S1,1007,experiment,107,↑,up,↑,0.5314575000666082,True,28,1
AK-K-19K19S1,1008,experiment,51,↑,up,↑,0.5096551000606269,True,28,1
AK-K-19K19S1,1009,experiment,108,←,left,←,0.533848199993372,True,28,1
AK-K-19K19S1,1010,experiment,81,↓,down,↓,0.6462701000273228,True,28,1
AK-K-19K19S1,1011,experiment,91,↓,down,↓,0.5589217999950051,True,28,1
AK-K-19K19S1,1012,experiment,102,↑,up,↑,0.5992276000324637,True,28,1
AK-K-19K19S1,1013,experiment,90,↓,down,↓,0.5217697999905795,True,28,1
AK-K-19K19S1,1014,experiment,74,→,left,←,0.4526887000538409,False,28,1
AK-K-19K19S1,1015,experiment,73,↑,down,↓,0.5710858998354524,False,28,1
AK-K-19K19S1,1016,experiment,97,↑,up,↑,0.5566314000170678,True,28,1
AK-K-19K19S1,1017,experiment,72,↑,up,↑,0.6467763998080045,True,28,1
AK-K-19K19S1,1018,experiment,75,↑,up,↑,0.844875699840486,True,28,1
AK-K-19K19S1,1019,experiment,55,↓,down,↓,0.7292917999438941,True,28,1
AK-K-19K19S1,1020,experiment,89,→,right,→,0.5268451001029462,True,28,1
AK-K-19K19S1,1021,experiment,86,←,left,←,0.4145227000117302,True,28,1
AK-K-19K19S1,1022,experiment,88,←,left,←,0.5603442001156509,True,28,1
AK-K-19K19S1,1023,experiment,63,↓,down,↓,0.7175936000421643,True,28,1
AK-K-19K19S1,1024,experiment,66,↓,down,↓,0.6356989000923932,True,28,1
AK-K-19K19S1,1025,experiment,87,←,left,←,0.6057893999386579,True,28,1
AK-K-19K19S1,1026,experiment,98,↓,down,↓,0.5895767000038177,True,28,1
AK-K-19K19S1,1027,experiment,77,↑,up,↑,0.5969680000562221,True,28,1
AK-K-19K19S1,1028,experiment,96,→,right,→,0.5174508998170495,True,28,1
AK-K-19K19S1,1029,experiment,49,↑,up,↑,0.7608292999211699,True,28,1
AK-K-19K19S1,1030,experiment,105,→,left,←,0.6566075999289751,False,28,1
AK-K-19K19S1,1031,experiment,57,↓,down,↓,0.5878863998223096,True,28,1
AK-K-19K19S1,1032,experiment,60,↓,down,↓,0.5854166999924928,True,28,1
AK-K-19K19S1,1033,experiment,95,→,left,←,0.5946873999200761,False,28,1
AK-K-19K19S1,1034,experiment,106,↑,up,↑,0.5044763998594135,True,28,1
AK-K-19K19S1,1035,experiment,65,↑,up,↑,0.6472800001502037,True,28,1
AK-K-19K19S1,1036,experiment,67,↓,down,↓,0.4874780001118779,True,28,1
AK-K-19K19S1,1037,experiment,104,→,right,→,1.7777450000867248,True,28,1
AK-K-19K19S1,1038,experiment,69,←,left,←,0.5087886000983417,True,28,1
AK-K-19K19S1,1039,experiment,58,↓,down,↓,0.5737028999719769,True,28,1
AK-K-19K19S1,1040,experiment,76,→,right,→,0.4219140000641346,True,28,1
AK-K-19K19S1,1041,experiment,52,→,right,→,0.5320763001218438,True,28,1
AK-K-19K19S1,1042,experiment,101,←,right,→,0.5259092999622226,False,28,1
AK-K-19K19S1,1043,experiment,103,↓,down,↓,0.663022099994123,True,28,1
AK-K-19K19S1,1044,experiment,50,←,left,←,0.6925119000952691,True,28,1
AK-K-19K19S1,1045,experiment,62,↓,down,↓,0.6686081001535058,True,28,1
AK-K-19K19S1,1046,experiment,83,→,right,→,0.630877299932763,True,28,1
AK-K-19K19S1,1047,experiment,54,↑,up,↑,0.7406083999667317,True,28,1
AK-K-19K19S1,1048,experiment,100,↑,up,↑,0.6381152998656034,True,28,1
AK-K-19K19S1,1049,training,72,↑,up,↑,0.48573460010811687,True,28,0
AK-K-19K19S1,1050,training,76,←,left,←,0.5057662001345307,True,28,1
AK-K-19K19S1,1051,experiment,65,←,left,←,0.4803005999419838,True,28,1
AK-K-19K19S1,1052,experiment,79,←,left,←,0.46719060000032187,True,28,1
AK-K-19K19S1,1053,experiment,83,→,right,→,0.46151930000633,True,28,1
AK-K-19K19S1,1054,experiment,50,↑,up,↑,0.5148515999317169,True,28,1
AK-K-19K19S1,1055,experiment,82,→,right,→,0.45148120005615056,True,28,1
AK-K-19K19S1,1056,experiment,55,↑,up,↑,0.5197791000828147,True,28,1
AK-K-19K19S1,1057,experiment,73,↑,up,↑,0.5312363000120968,True,28,1
AK-K-19K19S1,1058,experiment,68,↑,up,↑,0.4559210001025349,True,28,1
AK-K-19K19S1,1059,experiment,92,→,right,→,0.6313195000402629,True,28,1
AK-K-19K19S1,1060,experiment,63,↑,up,↑,0.5216206000186503,True,28,1
AK-K-19K19S1,1061,experiment,86,→,right,→,0.6804899999406189,True,28,1
AK-K-19K19S1,1062,experiment,75,→,right,→,0.50911740004085,True,28,1
AK-K-19K19S1,1063,experiment,88,←,right,→,0.3336334000341594,False,28,1
AK-K-19K19S1,1064,experiment,72,↑,up,↑,0.4549612000118941,True,28,0
AK-K-19K19S1,1065,experiment,104,↓,down,↓,0.5703841999638826,True,28,1
AK-K-19K19S1,1066,experiment,67,→,right,→,0.46189419995062053,True,28,1
AK-K-19K19S1,1067,experiment,99,↓,down,↓,0.6033258000388741,True,28,1
AK-K-19K19S1,1068,experiment,81,↓,down,↓,0.5607798998244107,True,28,1
AK-K-19K19S1,1069,experiment,89,→,right,→,0.48539729998447,True,28,1
AK-K-19K19S1,1070,experiment,94,↑,up,↑,0.48365409998223186,True,28,1
AK-K-19K19S1,1071,experiment,96,→,right,→,0.4488031999208033,True,28,1
AK-K-19K19S1,1072,experiment,76,↓,down,↓,0.5419786998536438,True,28,1
AK-K-19K19S1,1073,experiment,98,↓,down,↓,0.7443156000226736,True,28,1
AK-K-19K19S1,1074,experiment,108,←,left,←,0.5677504001650959,True,28,1
AK-K-19K19S1,1075,experiment,60,↑,up,↑,0.5893272999674082,True,28,1
AK-K-19K19S1,1076,experiment,87,→,right,→,0.48948869993910193,True,28,1
AK-K-19K19S1,1077,experiment,56,→,up,↑,0.7875389999244362,False,28,1
AK-K-19K19S1,1078,experiment,77,↓,down,↓,0.6030405999626964,True,28,1
AK-K-19K19S1,1079,experiment,74,↓,down,↓,0.6109994000289589,True,28,1
AK-K-19K19S1,1080,experiment,84,↓,down,↓,0.5271119000390172,True,28,1
AK-K-19K19S1,1081,experiment,78,→,right,→,0.512919900007546,True,28,1
AK-K-19K19S1,1082,experiment,69,↑,up,↑,0.6536633998621255,True,28,1
AK-K-19K19S1,1083,experiment,52,↑,down,↓,0.6348530000541359,False,28,1
AK-K-19K19S1,1084,experiment,48,↑,up,↑,0.6181039998773485,True,28,1
AK-K-19K19S1,1085,experiment,106,←,left,←,0.4308615999761969,True,28,1
AK-K-19K19S1,1086,experiment,61,←,left,←,0.6017130999825895,True,28,1
AK-K-19K19S1,1087,experiment,54,↑,up,↑,0.5122094000689685,True,28,1
AK-K-19K19S1,1088,experiment,91,→,right,→,0.4462305000051856,True,28,1
AK-K-19K19S1,1089,experiment,57,↑,down,↓,0.6653382000513375,False,28,1
AK-K-19K19S1,1090,experiment,100,↓,down,↓,0.6059240999165922,True,28,1
AK-K-19K19S1,1091,experiment,105,↓,down,↓,1.155579400015995,True,28,1
AK-K-19K19S1,1092,experiment,64,↓,down,↓,0.5844036000780761,True,28,1
AK-K-19K19S1,1093,experiment,85,↑,up,↑,0.5654542001429945,True,28,1
AK-K-19K19S1,1094,experiment,101,←,left,←,0.4700338998809457,True,28,1
AK-K-19K19S1,1095,experiment,95,→,left,←,0.5722705000080168,False,28,1
AK-K-19K19S1,1096,experiment,53,→,right,→,0.5242347000166774,True,28,1
AK-K-19K19S1,1097,experiment,70,↑,up,↑,0.5602100000251085,True,28,1
AK-K-19K19S1,1098,experiment,49,↑,up,↑,0.5221408000215888,True,28,1
AK-K-19K19S1,1099,experiment,102,↑,up,↑,0.635721700033173,True,28,1
AK-K-19K19S1,1100,experiment,80,←,left,←,0.5766413998790085,True,28,1
AK-K-19K19S1,1101,experiment,62,↑,up,↑,0.42940220003947616,True,28,1
AK-K-19K19S1,1102,experiment,97,↑,up,↑,0.48449549986980855,True,28,1
AK-K-19K19S1,1103,experiment,51,↑,up,↑,0.984603599878028,True,28,1
AK-K-19K19S1,1104,experiment,103,↑,up,↑,0.5115492998156697,True,28,1
AK-K-19K19S1,1105,experiment,66,↑,up,↑,0.43800870003178716,True,28,1
AK-K-19K19S1,1106,experiment,71,←,left,←,0.525290000019595,True,28,1
AK-K-19K19S1,1107,experiment,107,↓,down,↓,0.7172298999503255,True,28,1
AK-K-19K19S1,1108,experiment,93,→,right,→,0.4743445001076907,True,28,1
AK-K-19K19S1,1109,experiment,59,↓,down,↓,0.5720891000237316,True,28,1
AK-K-19K19S1,1110,experiment,90,→,right,→,0.4475628000218421,True,28,1
AK-K-19K19S1,1111,experiment,58,↑,up,↑,0.5866976999677718,True,28,1
AK-K-19K19S1,1112,training,76,←,left,←,0.572015899932012,True,28,0
AK-K-19K19S1,1113,training,61,↑,up,↑,0.4491196998860687,True,28,1
AK-K-19K19S1,1114,experiment,53,←,left,←,0.47829369991086423,True,28,1
AK-K-19K19S1,1115,experiment,79,↓,down,↓,0.5775324997957796,True,28,1
AK-K-19K19S1,1116,experiment,65,↓,down,↓,0.5091663999482989,True,28,1
AK-K-19K19S1,1117,experiment,99,←,left,←,0.48060799995437264,True,28,1
AK-K-19K19S1,1118,experiment,64,←,left,←,0.5288060000166297,True,28,1
AK-K-19K19S1,1119,experiment,101,→,right,→,1.3304608999751508,True,28,1
AK-K-19K19S1,1120,experiment,92,↓,down,↓,0.5513670998625457,True,28,1
AK-K-19K19S1,1121,experiment,88,←,left,←,0.4054165999405086,True,28,1
AK-K-19K19S1,1122,experiment,68,←,left,←,0.4464057998266071,True,28,0
AK-K-19K19S1,1123,experiment,54,↑,up,↑,0.45086449990049005,True,28,1
AK-K-19K19S1,1124,experiment,52,←,left,←,0.40841399994678795,True,28,1
AK-K-19K19S1,1125,experiment,93,↑,up,↑,0.4892247000243515,True,28,1
AK-K-19K19S1,1126,experiment,61,→,right,→,0.45779599994421005,True,28,1
AK-K-19K19S1,1127,experiment,72,←,left,←,0.4954752998892218,True,28,1
AK-K-19K19S1,1128,experiment,73,←,left,←,0.5322111998684704,True,28,1
AK-K-19K19S1,1129,experiment,69,↓,down,↓,0.63241279986687,True,28,1
AK-K-19K19S1,1130,experiment,89,←,left,←,0.44236049987375736,True,28,1
AK-K-19K19S1,1131,experiment,78,→,right,→,0.5756522000301629,True,28,1
AK-K-19K19S1,1132,experiment,90,→,right,→,0.7065767999738455,True,28,1
AK-K-19K19S1,1133,experiment,66,↓,down,↓,0.6731300000101328,True,28,1
AK-K-19K19S1,1134,experiment,107,←,left,←,0.5309448000043631,True,28,1
AK-K-19K19S1,1135,experiment,104,←,left,←,0.4995133001357317,True,28,1
AK-K-19K19S1,1136,experiment,97,→,right,→,0.5679880001116544,True,28,1
AK-K-19K19S1,1137,experiment,63,→,right,→,0.7012578998692334,True,28,1
AK-K-19K19S1,1138,experiment,94,←,left,←,0.6183705998118967,True,28,1
AK-K-19K19S1,1139,experiment,77,→,left,←,0.9525555998552591,False,28,1
AK-K-19K19S1,1140,experiment,59,↑,up,↑,0.6555552999489009,True,28,1
AK-K-19K19S1,1141,experiment,102,↓,down,↓,0.8122994999866933,True,28,1
AK-K-19K19S1,1142,experiment,103,↑,up,↑,0.6976471000816673,True,28,1
AK-K-19K19S1,1143,experiment,55,↑,up,↑,0.747866699937731,True,28,1
AK-K-19K19S1,1144,experiment,50,↓,down,↓,0.6298110999632627,True,28,1
AK-K-19K19S1,1145,experiment,84,↑,down,↓,0.9292911000084132,False,28,1
AK-K-19K19S1,1146,experiment,70,→,right,→,0.6053021000698209,True,28,1
AK-K-19K19S1,1147,experiment,105,↑,down,↓,0.7545715000014752,False,28,1
AK-K-19K19S1,1148,experiment,108,→,right,→,0.472952599870041,True,28,1
AK-K-19K19S1,1149,experiment,71,↑,up,↑,0.6952321000862867,True,28,1
AK-K-19K19S1,1150,experiment,80,←,left,←,0.5452280999161303,True,28,1
AK-K-19K19S1,1151,experiment,91,←,left,←,0.5020396001636982,True,28,1
AK-K-19K19S1,1152,experiment,76,←,left,←,0.4733738999348134,True,28,1
AK-K-19K19S1,1153,experiment,83,↑,up,↑,0.5390754998661578,True,28,1
AK-K-19K19S1,1154,experiment,87,←,left,←,0.5050292001105845,True,28,1
AK-K-19K19S1,1155,experiment,82,↑,up,↑,0.5300282000098377,True,28,1
AK-K-19K19S1,1156,experiment,48,↑,up,↑,0.5333197000436485,True,28,1
AK-K-19K19S1,1157,experiment,57,↓,down,↓,0.6852639999706298,True,28,1
AK-K-19K19S1,1158,experiment,81,→,right,→,0.439808800118044,True,28,1
AK-K-19K19S1,1159,experiment,67,→,right,→,0.5761514999903738,True,28,1
AK-K-19K19S1,1160,experiment,58,→,right,→,0.5103755001910031,True,28,1
AK-K-19K19S1,1161,experiment,60,→,right,→,0.4866710000205785,True,28,1
AK-K-19K19S1,1162,experiment,98,↓,down,↓,0.6113149998709559,True,28,1
AK-K-19K19S1,1163,experiment,62,←,left,←,0.6066397000104189,True,28,1
AK-K-19K19S1,1164,experiment,86,↑,down,↓,0.9064294998534024,False,28,1
AK-K-19K19S1,1165,experiment,74,↓,down,↓,0.6299806998576969,True,28,1
AK-K-19K19S1,1166,experiment,56,↓,down,↓,0.6110768998041749,True,28,1
AK-K-19K19S1,1167,experiment,51,→,right,→,0.5057519001420587,True,28,1
AK-K-19K19S1,1168,experiment,100,↓,down,↓,0.5326287001371384,True,28,1
AK-K-19K19S1,1169,experiment,96,←,left,←,0.5203846001531929,True,28,1
AK-K-19K19S1,1170,experiment,75,↓,down,↓,0.5709371000993997,True,28,1
AK-K-19K19S1,1171,experiment,49,→,right,→,0.6200534999370575,True,28,1
AK-K-19K19S1,1172,experiment,85,↑,up,↑,0.6397150999400765,True,28,1
AK-K-19K19S1,1173,experiment,106,→,right,→,0.7794546000659466,True,28,1
AK-K-19K19S1,1174,experiment,95,→,right,→,0.8296150998212397,True,28,1
AK-K-19K19S1,1175,training,78,↑,up,↑,0.6799854000564665,True,28,0
AK-K-19K19S1,1176,training,52,→,right,→,0.47593240020796657,True,28,1
AK-K-19K19S1,1177,experiment,75,←,left,←,0.47235869988799095,True,28,1
AK-K-19K19S1,1178,experiment,69,↓,down,↓,0.5031028999947011,True,28,1
AK-K-19K19S1,1179,experiment,85,↑,up,↑,0.4240854000672698,True,28,1
AK-K-19K19S1,1180,experiment,54,↑,up,↑,0.4929422999266535,True,28,1
AK-K-19K19S1,1181,experiment,70,→,right,→,0.35024049994535744,True,28,1
AK-K-19K19S1,1182,experiment,80,↑,up,↑,0.6580985998734832,True,28,0
AK-K-19K19S1,1183,experiment,102,↑,up,↑,0.5583530000876635,True,28,1
AK-K-19K19S1,1184,experiment,57,↓,down,↓,0.621624100022018,True,28,1
AK-K-19K19S1,1185,experiment,73,↓,down,↓,0.5489541001152247,True,28,1
AK-K-19K19S1,1186,experiment,48,↓,down,↓,0.5675225998274982,True,28,1
AK-K-19K19S1,1187,experiment,93,←,left,←,0.5064628000836819,True,28,1
AK-K-19K19S1,1188,experiment,89,↓,down,↓,0.5608162998687476,True,28,1
AK-K-19K19S1,1189,experiment,79,↑,up,↑,0.6968737998977304,True,28,1
AK-K-19K19S1,1190,experiment,55,↓,down,↓,0.5475454998668283,True,28,1
AK-K-19K19S1,1191,experiment,96,→,right,→,0.5097505999729037,True,28,1
AK-K-19K19S1,1192,experiment,72,↑,up,↑,0.6739373998716474,True,28,1
AK-K-19K19S1,1193,experiment,53,↓,down,↓,0.5741976001299918,True,28,1
AK-K-19K19S1,1194,experiment,105,↑,down,↓,0.5969538001809269,False,28,1
AK-K-19K19S1,1195,experiment,52,↑,up,↑,0.66781170014292,True,28,1
AK-K-19K19S1,1196,experiment,49,←,left,←,0.5856663999147713,True,28,1
AK-K-19K19S1,1197,experiment,59,←,left,←,0.6147648999467492,True,28,1
AK-K-19K19S1,1198,experiment,65,←,right,→,0.7852055002003908,False,28,1
AK-K-19K19S1,1199,experiment,91,→,right,→,0.5325092000421137,True,28,1
AK-K-19K19S1,1200,experiment,98,↑,up,↑,0.5752066001296043,True,28,1
AK-K-19K19S1,1201,experiment,61,→,right,→,0.6601529000326991,True,28,1
AK-K-19K19S1,1202,experiment,90,↓,down,↓,0.7966688999440521,True,28,1
AK-K-19K19S1,1203,experiment,78,←,left,←,0.7710996000096202,True,28,1
AK-K-19K19S1,1204,experiment,106,↓,down,↓,0.5935778000857681,True,28,1
AK-K-19K19S1,1205,experiment,63,↓,down,↓,0.5574741000309587,True,28,1
AK-K-19K19S1,1206,experiment,64,↓,down,↓,0.6504585000220686,True,28,1
AK-K-19K19S1,1207,experiment,103,↓,down,↓,1.151249600108713,True,28,1
AK-K-19K19S1,1208,experiment,97,←,left,←,0.47356320009566844,True,28,1
AK-K-19K19S1,1209,experiment,83,↑,up,↑,0.5632601999677718,True,28,1
AK-K-19K19S1,1210,experiment,76,↑,up,↑,0.755790299968794,True,28,1
AK-K-19K19S1,1211,experiment,94,←,left,←,0.5509522999636829,True,28,1
AK-K-19K19S1,1212,experiment,107,←,left,←,0.5739943000953645,True,28,1
AK-K-19K19S1,1213,experiment,81,↑,up,↑,0.8128337999805808,True,28,1
AK-K-19K19S1,1214,experiment,100,↓,down,↓,0.603489600121975,True,28,1
AK-K-19K19S1,1215,experiment,66,↓,down,↓,0.5741967000067234,True,28,1
AK-K-19K19S1,1216,experiment,101,↓,down,↓,0.6623752000741661,True,28,1
AK-K-19K19S1,1217,experiment,99,↓,down,↓,0.6193216999527067,True,28,1
AK-K-19K19S1,1218,experiment,84,→,right,→,0.5358245999086648,True,28,1
AK-K-19K19S1,1219,experiment,77,←,left,←,0.6012758000288159,True,28,1
AK-K-19K19S1,1220,experiment,92,←,left,←,0.6272123998496681,True,28,1
AK-K-19K19S1,1221,experiment,67,↑,up,↑,0.548073299927637,True,28,1
AK-K-19K19S1,1222,experiment,50,→,right,→,0.5419354001060128,True,28,1
AK-K-19K19S1,1223,experiment,56,→,right,→,0.7100337999872863,True,28,1
AK-K-19K19S1,1224,experiment,95,↓,down,↓,0.9309963998384774,True,28,1
AK-K-19K19S1,1225,experiment,87,↑,up,↑,0.6093263002112508,True,28,1
AK-K-19K19S1,1226,experiment,108,←,left,←,0.6058509999420494,True,28,1
AK-K-19K19S1,1227,experiment,71,←,left,←,0.8304824000224471,True,28,1
AK-K-19K19S1,1228,experiment,74,↑,up,↑,0.6694936000276357,True,28,1
AK-K-19K19S1,1229,experiment,104,→,right,→,0.7846122002229095,True,28,1
AK-K-19K19S1,1230,experiment,60,←,left,←,0.81376410019584,True,28,1
AK-K-19K19S1,1231,experiment,86,↑,left,←,1.1772461000364274,False,28,1
AK-K-19K19S1,1232,experiment,51,↓,down,↓,0.5781015998218209,True,28,1
AK-K-19K19S1,1233,experiment,82,↑,up,↑,0.5361055000685155,True,28,1
AK-K-19K19S1,1234,experiment,68,↑,up,↑,0.5169415001291782,True,28,1
AK-K-19K19S1,1235,experiment,62,↓,down,↓,0.5880005001090467,True,28,1
AK-K-19K19S1,1236,experiment,88,←,left,←,0.5994033000897616,True,28,1
AK-K-19K19S1,1237,experiment,58,↓,down,↓,0.6370063999202102,True,28,1
AK-K-19K19S1,1238,training,97,←,left,←,0.5652286999393255,True,28,0
AK-K-19K19S1,1239,training,61,←,left,←,0.6269405998755246,True,28,1
AK-K-19K19S1,1240,experiment,84,→,right,→,0.4946833001449704,True,28,1
AK-K-19K19S1,1241,experiment,104,→,right,→,0.5770912999287248,True,28,1
AK-K-19K19S1,1242,experiment,93,→,right,→,0.5555243999697268,True,28,1
AK-K-19K19S1,1243,experiment,73,↑,up,↑,0.6535068000666797,True,28,1
AK-K-19K19S1,1244,experiment,52,↓,down,↓,0.4667005001101643,True,28,1
AK-K-19K19S1,1245,experiment,98,→,right,→,0.6479005999863148,True,28,1
AK-K-19K19S1,1246,experiment,107,←,left,←,0.6511167001444846,True,28,1
AK-K-19K19S1,1247,experiment,58,↓,down,↓,0.5823714998550713,True,28,1
AK-K-19K19S1,1248,experiment,72,↓,down,↓,0.6396526999305934,True,28,1
AK-K-19K19S1,1249,experiment,86,→,right,→,0.43421269999817014,True,28,1
AK-K-19K19S1,1250,experiment,69,↑,up,↑,0.5460999000351876,True,28,1
AK-K-19K19S1,1251,experiment,53,↑,down,↓,0.8113208001013845,False,28,1
AK-K-19K19S1,1252,experiment,96,→,right,→,0.44375770003534853,True,28,1
AK-K-19K19S1,1253,experiment,55,↑,up,↑,0.6081030000932515,True,28,1
AK-K-19K19S1,1254,experiment,78,↑,up,↑,0.9264374000485986,True,28,1
AK-K-19K19S1,1255,experiment,76,←,left,←,0.5451762999873608,True,28,1
AK-K-19K19S1,1256,experiment,92,→,right,→,0.6371806999668479,True,28,1
AK-K-19K19S1,1257,experiment,89,←,left,←,0.6065717001911253,True,28,1
AK-K-19K19S1,1258,experiment,54,↑,up,↑,0.6847290999721736,True,28,1
AK-K-19K19S1,1259,experiment,108,↓,down,↓,0.5182576000224799,True,28,1
AK-K-19K19S1,1260,experiment,81,→,right,→,0.4954031000379473,True,28,1
AK-K-19K19S1,1261,experiment,61,←,left,←,0.5273990998975933,True,28,1
AK-K-19K19S1,1262,experiment,85,↑,up,↑,0.5186574999243021,True,28,1
AK-K-19K19S1,1263,experiment,90,←,left,←,0.5971148000098765,True,28,1
AK-K-19K19S1,1264,experiment,67,↑,up,↑,0.5348759000189602,True,28,1
AK-K-19K19S1,1265,experiment,101,←,left,←,0.4805298999417573,True,28,1
AK-K-19K19S1,1266,experiment,50,↑,up,↑,0.5252330999355763,True,28,1
AK-K-19K19S1,1267,experiment,94,←,left,←,0.6093735001049936,True,28,1
AK-K-19K19S1,1268,experiment,83,↓,down,↓,0.5820875000208616,True,28,1
AK-K-19K19S1,1269,experiment,74,↑,up,↑,0.4865057999268174,True,28,1
AK-K-19K19S1,1270,experiment,79,↓,down,↓,0.6014952999539673,True,28,1
AK-K-19K19S1,1271,experiment,57,→,right,→,0.7269188999198377,True,28,1
AK-K-19K19S1,1272,experiment,60,→,left,←,0.5506541000213474,False,28,1
AK-K-19K19S1,1273,experiment,63,→,right,→,1.276191699784249,True,28,1
AK-K-19K19S1,1274,experiment,95,→,right,→,0.4825680998619646,True,28,1
AK-K-19K19S1,1275,experiment,77,→,right,→,0.4702790998853743,True,28,1
AK-K-19K19S1,1276,experiment,88,↑,down,↓,0.5905142000410706,False,28,1
AK-K-19K19S1,1277,experiment,82,↑,up,↑,0.43672519992105663,True,28,1
AK-K-19K19S1,1278,experiment,70,↑,down,↓,0.5640014000236988,False,28,1
AK-K-19K19S1,1279,experiment,106,→,right,→,0.5148333001416177,True,28,1
AK-K-19K19S1,1280,experiment,59,↓,down,↓,0.5390683000441641,True,28,1
AK-K-19K19S1,1281,experiment,80,↑,up,↑,0.4433875000104308,True,28,1
AK-K-19K19S1,1282,experiment,48,←,left,←,0.4186142000835389,True,28,1
AK-K-19K19S1,1283,experiment,62,↑,up,↑,0.5171429000329226,True,28,1
AK-K-19K19S1,1284,experiment,65,↑,up,↑,0.3582502000499517,True,28,1
AK-K-19K19S1,1285,experiment,103,←,left,←,0.5628742000553757,True,28,0
AK-K-19K19S1,1286,experiment,87,↑,up,↑,0.4559172000735998,True,28,1
AK-K-19K19S1,1287,experiment,68,←,left,←,0.5353788000065833,True,28,1
AK-K-19K19S1,1288,experiment,71,↑,up,↑,0.5868698998820037,True,28,1
AK-K-19K19S1,1289,experiment,99,←,left,←,0.5149719000328332,True,28,1
AK-K-19K19S1,1290,experiment,64,↑,up,↑,0.6096709999255836,True,28,1
AK-K-19K19S1,1291,experiment,51,→,left,←,0.9127462999895215,False,28,1
AK-K-19K19S1,1292,experiment,105,→,right,→,0.5701808000449091,True,28,1
AK-K-19K19S1,1293,experiment,56,↓,up,↑,0.5770498998463154,False,28,1
AK-K-19K19S1,1294,experiment,102,→,right,→,0.6089886999689043,True,28,1
AK-K-19K19S1,1295,experiment,97,→,right,→,0.5047479001805186,True,28,1
AK-K-19K19S1,1296,experiment,49,↓,down,↓,0.5726171999704093,True,28,1
AK-K-19K19S1,1297,experiment,91,↓,down,↓,0.5038238998968154,True,28,1
AK-K-19K19S1,1298,experiment,66,↑,up,↑,0.46250860020518303,True,28,1
AK-K-19K19S1,1299,experiment,75,↑,up,↑,0.5317896001506597,True,28,1
AK-K-19K19S1,1300,experiment,100,↑,down,↓,0.7817152000498027,False,28,1
AK-K-19K19S1,1301,training,56,↓,down,↓,0.5514403998386115,True,28,0
AK-K-19K19S1,1302,training,94,↑,up,↑,0.7301318000536412,True,28,1
AK-K-19K19S1,1303,experiment,80,↑,up,↑,0.6668155000079423,True,28,1
AK-K-19K19S1,1304,experiment,71,↑,up,↑,0.6490140999667346,True,28,1
AK-K-19K19S1,1305,experiment,74,↑,up,↑,0.5029708000365645,True,28,1
AK-K-19K19S1,1306,experiment,50,↓,down,↓,0.48304100008681417,True,28,1
AK-K-19K19S1,1307,experiment,95,→,right,→,0.4652068999130279,True,28,1
AK-K-19K19S1,1308,experiment,70,←,left,←,0.5191986998543143,True,28,1
AK-K-19K19S1,1309,experiment,63,↑,down,↓,0.5900018999818712,False,28,1
AK-K-19K19S1,1310,experiment,67,↑,up,↑,0.5763402001466602,True,28,1
AK-K-19K19S1,1311,experiment,87,↑,up,↑,0.49310700013302267,True,28,1
AK-K-19K19S1,1312,experiment,107,↓,down,↓,0.5026443998795003,True,28,1
AK-K-19K19S1,1313,experiment,89,←,left,←,0.549286600202322,True,28,1
AK-K-19K19S1,1314,experiment,57,↓,down,↓,0.5253008001018316,True,28,1
AK-K-19K19S1,1315,experiment,101,←,left,←,0.5108113999012858,True,28,1
AK-K-19K19S1,1316,experiment,66,↑,up,↑,0.5252769000362605,True,28,1
AK-K-19K19S1,1317,experiment,102,→,right,→,0.510928199859336,True,28,1
AK-K-19K19S1,1318,experiment,83,↓,down,↓,0.5276309000328183,True,28,1
AK-K-19K19S1,1319,experiment,81,↓,down,↓,0.6723276998382062,True,28,1
AK-K-19K19S1,1320,experiment,105,↑,up,↑,0.4750866999384016,True,28,1
AK-K-19K19S1,1321,experiment,55,↑,down,↓,0.5903006999287754,False,28,1
AK-K-19K19S1,1322,experiment,49,↑,up,↑,0.5105672001373023,True,28,1
AK-K-19K19S1,1323,experiment,54,↑,up,↑,0.5927263000048697,True,28,1
AK-K-19K19S1,1324,experiment,92,→,right,→,0.5072848000563681,True,28,1
AK-K-19K19S1,1325,experiment,62,↑,up,↑,0.5866338999476284,True,28,1
AK-K-19K19S1,1326,experiment,103,→,right,→,0.4896027999930084,True,28,1
AK-K-19K19S1,1327,experiment,52,↑,up,↑,0.7017536000348628,True,28,1
AK-K-19K19S1,1328,experiment,104,↑,up,↑,0.7032943000085652,True,28,1
AK-K-19K19S1,1329,experiment,85,↑,up,↑,0.49558310001157224,True,28,1
AK-K-19K19S1,1330,experiment,93,→,right,→,0.4694993000011891,True,28,1
AK-K-19K19S1,1331,experiment,56,←,left,←,0.6805354999378324,True,28,1
AK-K-19K19S1,1332,experiment,73,↓,up,↑,1.181521800113842,False,28,1
AK-K-19K19S1,1333,experiment,65,←,left,←,0.5373686000239104,True,28,1
AK-K-19K19S1,1334,experiment,88,↑,up,↑,0.5108334999531507,True,28,1
AK-K-19K19S1,1335,experiment,78,↓,down,↓,0.5931941999588162,True,28,1
AK-K-19K19S1,1336,experiment,60,→,right,→,0.4384911998640746,True,28,1
AK-K-19K19S1,1337,experiment,84,↓,down,↓,0.6249123001471162,True,28,1
AK-K-19K19S1,1338,experiment,86,↑,up,↑,0.6357896002009511,True,28,1
AK-K-19K19S1,1339,experiment,64,↓,down,↓,0.6298052999190986,True,28,1
AK-K-19K19S1,1340,experiment,51,↓,down,↓,0.5720554001163691,True,28,1
AK-K-19K19S1,1341,experiment,53,↑,up,↑,0.43586450000293553,True,28,1
AK-K-19K19S1,1342,experiment,90,↑,up,↑,0.725277200108394,True,28,1
AK-K-19K19S1,1343,experiment,77,→,right,→,0.4314546000678092,True,28,1
AK-K-19K19S1,1344,experiment,58,↑,up,↑,0.5391973999794573,True,28,1
AK-K-19K19S1,1345,experiment,72,↑,up,↑,0.6621242999099195,True,28,1
AK-K-19K19S1,1346,experiment,48,↓,down,↓,0.6286331000737846,True,28,1
AK-K-19K19S1,1347,experiment,82,→,right,→,0.5445411000400782,True,28,1
AK-K-19K19S1,1348,experiment,108,←,left,←,0.5035119000822306,True,28,1
AK-K-19K19S1,1349,experiment,79,↓,down,↓,0.5936978000681847,True,28,1
AK-K-19K19S1,1350,experiment,94,↓,up,↑,0.6753597999922931,False,28,1
AK-K-19K19S1,1351,experiment,91,↓,down,↓,0.658843900077045,True,28,1
AK-K-19K19S1,1352,experiment,69,←,left,←,0.6500089999753982,True,28,1
AK-K-19K19S1,1353,experiment,96,→,right,→,0.44889719993807375,True,28,1
AK-K-19K19S1,1354,experiment,76,→,right,→,0.5978232999332249,True,28,1
AK-K-19K19S1,1355,experiment,100,↓,down,↓,0.741540800081566,True,28,1
AK-K-19K19S1,1356,experiment,98,→,right,→,0.47166699985973537,True,28,1
AK-K-19K19S1,1357,experiment,68,↑,up,↑,0.6067988001741469,True,28,1
AK-K-19K19S1,1358,experiment,59,↓,down,↓,0.5871701999567449,True,28,1
AK-K-19K19S1,1359,experiment,97,↓,down,↓,0.5721067001577467,True,28,1
AK-K-19K19S1,1360,experiment,106,→,right,→,0.5867520999163389,True,28,1
AK-K-19K19S1,1361,experiment,99,↑,up,↑,0.6514770998619497,True,28,1
AK-K-19K19S1,1362,experiment,75,↑,right,→,0.5447372000198811,False,28,1
AK-K-19K19S1,1363,experiment,61,↓,down,↓,0.551048900000751,True,28,1
AK-K-19K19S1,1364,training,66,←,left,←,0.4999488000757992,True,28,0
AK-K-19K19S1,1365,training,77,←,left,←,0.4708805000409484,True,28,1
AK-K-19K19S1,1366,experiment,107,↓,down,↓,0.6007870000321418,True,28,1
AK-K-19K19S1,1367,experiment,61,↓,down,↓,0.5170471000019461,True,28,1
AK-K-19K19S1,1368,experiment,74,←,left,←,0.4562200999353081,True,28,1
AK-K-19K19S1,1369,experiment,53,←,left,←,0.5968462000600994,True,28,1
AK-K-19K19S1,1370,experiment,67,→,right,→,0.5031995000317693,True,28,1
AK-K-19K19S1,1371,experiment,98,↓,down,↓,0.5230843999888748,True,28,1
AK-K-19K19S1,1372,experiment,55,←,left,←,0.5002500000409782,True,28,1
AK-K-19K19S1,1373,experiment,83,←,left,←,0.5973336000461131,True,28,1
AK-K-19K19S1,1374,experiment,93,→,right,→,0.4152754999231547,True,28,1
AK-K-19K19S1,1375,experiment,51,↑,up,↑,0.4617755999788642,True,28,1
AK-K-19K19S1,1376,experiment,71,→,left,←,0.6925015999004245,False,28,1
AK-K-19K19S1,1377,experiment,64,→,right,→,0.49215380009263754,True,28,1
AK-K-19K19S1,1378,experiment,86,↓,down,↓,0.5481827999465168,True,28,1
AK-K-19K19S1,1379,experiment,57,→,right,→,0.5237282000016421,True,28,1
AK-K-19K19S1,1380,experiment,99,→,left,←,0.46253519994206727,False,28,1
AK-K-19K19S1,1381,experiment,68,↑,down,↓,0.7015617000870407,False,28,1
AK-K-19K19S1,1382,experiment,101,↑,down,↓,0.6326138998847455,False,28,1
AK-K-19K19S1,1383,experiment,90,←,left,←,0.4658818000461906,True,28,1
AK-K-19K19S1,1384,experiment,105,↑,down,↓,0.5889944001100957,False,28,1
AK-K-19K19S1,1385,experiment,88,→,right,→,0.6167762000113726,True,28,1
AK-K-19K19S1,1386,experiment,72,→,right,→,0.3167590999510139,True,28,1
AK-K-19K19S1,1387,experiment,50,←,left,←,0.48330099997110665,True,28,0
AK-K-19K19S1,1388,experiment,100,←,left,←,0.45552849979139864,True,28,1
AK-K-19K19S1,1389,experiment,94,↓,down,↓,0.49441000004298985,True,28,1
AK-K-19K19S1,1390,experiment,89,→,left,←,0.8054229998961091,False,28,1
AK-K-19K19S1,1391,experiment,91,←,right,→,0.7038703998550773,False,28,1
AK-K-19K19S1,1392,experiment,56,←,left,←,0.44170590001158416,True,28,1
AK-K-19K19S1,1393,experiment,103,←,left,←,0.4303202999290079,True,28,1
AK-K-19K19S1,1394,experiment,77,←,left,←,0.644025799818337,True,28,1
AK-K-19K19S1,1395,experiment,80,→,right,→,0.6081242000218481,True,28,1
AK-K-19K19S1,1396,experiment,49,↑,up,↑,0.6241532999556512,True,28,1
AK-K-19K19S1,1397,experiment,82,→,right,→,0.4290227999445051,True,28,1
AK-K-19K19S1,1398,experiment,48,→,right,→,0.7716216999106109,True,28,1
AK-K-19K19S1,1399,experiment,96,↓,down,↓,0.5814058999530971,True,28,1
AK-K-19K19S1,1400,experiment,81,↓,down,↓,0.8839676999486983,True,28,1
AK-K-19K19S1,1401,experiment,102,←,left,←,0.4474015000741929,True,28,1
AK-K-19K19S1,1402,experiment,76,→,right,→,0.42849860014393926,True,28,1
AK-K-19K19S1,1403,experiment,87,↓,down,↓,0.5590309998951852,True,28,1
AK-K-19K19S1,1404,experiment,75,↓,down,↓,0.6083390000276268,True,28,1
AK-K-19K19S1,1405,experiment,65,→,right,→,0.4589205998927355,True,28,1
