PART_ID,Trial_no,Trial_type,CSI,Stim_letter,Key_pressed,letter_choose,Rt,Corr,Stimulus Time,nDropped
AM-K-22K21S1,1,training,120,→,right,→,0.9343073999043554,True,60,0
AM-K-22K21S1,2,training,120,↓,right,→,1.607748799957335,False,60,0
AM-K-22K21S1,3,training,120,↓,down,↓,1.7901322001125664,True,60,0
AM-K-22K21S1,4,training,120,↓,down,↓,1.1655081999488175,True,60,0
AM-K-22K21S1,5,training,120,→,right,→,0.9739649998955429,True,60,0
AM-K-22K21S1,6,training,120,←,left,←,0.8060026001185179,True,60,0
AM-K-22K21S1,7,training,120,↓,down,↓,1.1009064998943359,True,60,0
AM-K-22K21S1,8,training,120,↓,down,↓,0.9682153000030667,True,60,0
AM-K-22K21S1,9,training,120,↑,up,↑,1.240465500159189,True,60,0
AM-K-22K21S1,10,training,120,↑,up,↑,1.0543164999689907,True,60,0
AM-K-22K21S1,11,training,120,→,right,→,1.0268987000454217,True,60,0
AM-K-22K21S1,12,training,120,↓,down,↓,1.0569320998620242,True,60,0
AM-K-22K21S1,13,training,120,→,right,→,1.0295951999723911,True,60,0
AM-K-22K21S1,14,training,120,←,left,←,0.8594253999181092,True,60,0
AM-K-22K21S1,15,training,120,←,left,←,0.8641484000254422,True,60,0
AM-K-22K21S1,16,training,120,→,right,→,0.8127527998294681,True,60,0
AM-K-22K21S1,17,training,120,←,left,←,0.7873965001199394,True,60,0
AM-K-22K21S1,18,training,120,↓,down,↓,0.8667191001586616,True,60,0
AM-K-22K21S1,19,training,120,↓,down,↓,0.7590904999524355,True,60,0
AM-K-22K21S1,20,training,120,↑,up,↑,0.6424047001637518,True,60,0
AM-K-22K21S1,21,no_adaptation,120,↑,up,↑,0.7087505999952555,True,36,0
AM-K-22K21S1,22,no_adaptation,120,←,left,←,0.663418399868533,True,36,0
AM-K-22K21S1,23,no_adaptation,120,↑,up,↑,0.8436970999464393,True,36,0
AM-K-22K21S1,24,no_adaptation,120,↓,down,↓,0.7930705000180751,True,36,0
AM-K-22K21S1,25,no_adaptation,120,←,right,→,0.808350499952212,False,36,0
AM-K-22K21S1,26,no_adaptation,120,→,right,→,0.7832750999368727,True,36,0
AM-K-22K21S1,27,no_adaptation,120,↑,up,↑,0.8070416999980807,True,36,0
AM-K-22K21S1,28,no_adaptation,120,→,right,→,0.8704281998798251,True,36,0
AM-K-22K21S1,29,no_adaptation,120,←,left,←,0.6340187999885529,True,36,0
AM-K-22K21S1,30,no_adaptation,120,→,left,←,1.0478356000967324,False,36,0
AM-K-22K21S1,31,no_adaptation,120,↓,down,↓,0.7407758000772446,True,36,0
AM-K-22K21S1,32,no_adaptation,120,↑,up,↑,0.6787163000553846,True,36,0
AM-K-22K21S1,33,no_adaptation,120,←,left,←,0.7623149999417365,True,36,0
AM-K-22K21S1,34,no_adaptation,120,↑,up,↑,0.698793499963358,True,36,0
AM-K-22K21S1,35,no_adaptation,120,←,left,←,0.51789760007523,True,36,0
AM-K-22K21S1,36,no_adaptation,120,↓,down,↓,0.880468999966979,True,36,0
AM-K-22K21S1,37,no_adaptation,120,↓,no_key,no_letter,-1.0,False,36,0
AM-K-22K21S1,38,no_adaptation,120,→,right,→,1.3647338999435306,True,36,0
AM-K-22K21S1,39,no_adaptation,120,←,left,←,0.86899370001629,True,36,0
AM-K-22K21S1,40,no_adaptation,120,↑,up,↑,0.7532293999101967,True,36,0
AM-K-22K21S1,41,training,52,↑,up,↑,0.7909269998781383,True,36,0
AM-K-22K21S1,42,training,79,←,left,←,0.7006059000268579,True,36,1
AM-K-22K21S1,43,experiment,56,←,left,←,0.717511999886483,True,36,1
AM-K-22K21S1,44,experiment,49,→,left,←,0.6723874998278916,False,36,1
AM-K-22K21S1,45,experiment,94,↑,up,↑,0.7817672002129257,True,36,1
AM-K-22K21S1,46,experiment,80,←,no_key,no_letter,-1.0,False,36,1
AM-K-22K21S1,47,experiment,89,←,left,←,0.4716161999385804,True,36,1
AM-K-22K21S1,48,experiment,81,↑,up,↑,0.6162723999004811,True,36,0
AM-K-22K21S1,49,experiment,68,↑,up,↑,0.5287746000103652,True,36,1
AM-K-22K21S1,50,experiment,72,→,right,→,0.5156698001082987,True,36,1
AM-K-22K21S1,51,experiment,97,↑,up,↑,0.6063977000303566,True,36,1
AM-K-22K21S1,52,experiment,78,↓,down,↓,0.6036573997698724,True,36,1
AM-K-22K21S1,53,experiment,65,→,right,→,1.3417415998410434,True,36,1
AM-K-22K21S1,54,experiment,98,↑,left,←,1.7511406000703573,False,36,1
AM-K-22K21S1,55,experiment,102,↓,down,↓,0.998525399947539,True,36,1
AM-K-22K21S1,56,experiment,50,↓,down,↓,0.7815342000685632,True,36,1
AM-K-22K21S1,57,experiment,100,←,left,←,0.6686304998584092,True,36,1
AM-K-22K21S1,58,experiment,91,←,left,←,0.6035219999030232,True,36,1
AM-K-22K21S1,59,experiment,59,↑,left,←,1.0875460000243038,False,36,1
AM-K-22K21S1,60,experiment,103,↓,down,↓,0.5851662999484688,True,36,1
AM-K-22K21S1,61,experiment,73,↓,no_key,no_letter,-1.0,False,36,1
AM-K-22K21S1,62,experiment,85,↑,down,↓,0.5659310000482947,False,36,1
AM-K-22K21S1,63,experiment,87,←,left,←,0.4508078000508249,True,36,1
AM-K-22K21S1,64,experiment,69,↑,up,↑,0.7841164998244494,True,36,0
AM-K-22K21S1,65,experiment,63,←,right,→,0.4256672998890281,False,36,1
AM-K-22K21S1,66,experiment,76,↑,left,←,1.1847821997944266,False,36,0
AM-K-22K21S1,67,experiment,99,←,left,←,0.5762485000304878,True,36,1
AM-K-22K21S1,68,experiment,107,↓,down,↓,0.828975300071761,True,36,1
AM-K-22K21S1,69,experiment,51,←,left,←,1.0104831999633461,True,36,1
AM-K-22K21S1,70,experiment,55,↑,up,↑,0.6795169000979513,True,36,1
AM-K-22K21S1,71,experiment,52,↓,up,↑,1.0584750999696553,False,36,1
AM-K-22K21S1,72,experiment,93,←,left,←,0.38398500019684434,True,36,1
AM-K-22K21S1,73,experiment,71,↓,down,↓,0.7774569001048803,True,36,0
AM-K-22K21S1,74,experiment,61,↓,down,↓,0.5816920998040587,True,36,1
AM-K-22K21S1,75,experiment,67,←,left,←,0.6637621000409126,True,36,1
AM-K-22K21S1,76,experiment,108,←,left,←,0.5929182998370379,True,36,1
AM-K-22K21S1,77,experiment,77,↓,down,↓,0.5272778999060392,True,36,1
AM-K-22K21S1,78,experiment,79,↓,down,↓,0.8238146000076085,True,36,1
AM-K-22K21S1,79,experiment,54,→,right,→,0.7001879001036286,True,36,1
AM-K-22K21S1,80,experiment,84,←,left,←,1.7320640999823809,True,36,1
AM-K-22K21S1,81,experiment,57,↑,down,↓,1.1722290001343936,False,36,1
AM-K-22K21S1,82,experiment,101,←,left,←,0.586408199975267,True,36,1
AM-K-22K21S1,83,experiment,104,→,right,→,0.7201544002164155,True,36,1
AM-K-22K21S1,84,experiment,86,↑,up,↑,0.8705148999579251,True,36,1
AM-K-22K21S1,85,experiment,70,↓,down,↓,0.7004160999786109,True,36,1
AM-K-22K21S1,86,experiment,82,↓,down,↓,0.7165315998718143,True,36,1
AM-K-22K21S1,87,experiment,95,↓,down,↓,0.7438276000320911,True,36,1
AM-K-22K21S1,88,experiment,90,↓,down,↓,0.8683823999017477,True,36,1
AM-K-22K21S1,89,experiment,88,↓,down,↓,0.6516130000818521,True,36,1
AM-K-22K21S1,90,experiment,92,↓,no_key,no_letter,-1.0,False,36,1
AM-K-22K21S1,91,experiment,60,↑,up,↑,0.7435096998233348,True,36,1
AM-K-22K21S1,92,experiment,96,→,right,→,0.7133633999619633,True,36,1
AM-K-22K21S1,93,experiment,74,←,left,←,0.8197967000305653,True,36,1
AM-K-22K21S1,94,experiment,48,→,right,→,0.6348987000528723,True,36,1
AM-K-22K21S1,95,experiment,62,←,left,←,0.900643500033766,True,36,1
AM-K-22K21S1,96,experiment,58,↓,down,↓,0.6368646998889744,True,36,1
AM-K-22K21S1,97,experiment,75,→,right,→,0.6023331999313086,True,36,1
AM-K-22K21S1,98,experiment,105,←,left,←,0.5347980000078678,True,36,1
AM-K-22K21S1,99,experiment,64,↑,up,↑,0.628122900146991,True,36,1
AM-K-22K21S1,100,experiment,66,↑,up,↑,0.6130349000450224,True,36,1
AM-K-22K21S1,101,experiment,53,↓,left,←,0.3585226000286639,False,36,1
AM-K-22K21S1,102,experiment,83,↑,up,↑,1.1116436999291182,True,36,0
AM-K-22K21S1,103,experiment,106,↓,up,↑,0.9276940000709146,False,36,1
AM-K-22K21S1,104,training,89,→,right,→,0.7441216998267919,True,36,0
AM-K-22K21S1,105,training,57,←,left,←,0.47978779999539256,True,36,1
AM-K-22K21S1,106,experiment,86,↓,down,↓,0.6150488001294434,True,36,1
AM-K-22K21S1,107,experiment,59,→,right,→,0.594303899910301,True,36,1
AM-K-22K21S1,108,experiment,83,←,right,→,1.558639399940148,False,36,1
AM-K-22K21S1,109,experiment,57,→,right,→,0.7329501998610795,True,36,1
AM-K-22K21S1,110,experiment,68,↓,down,↓,0.6327194001059979,True,36,1
AM-K-22K21S1,111,experiment,54,←,left,←,0.5571009998675436,True,36,1
AM-K-22K21S1,112,experiment,73,→,right,→,0.4424296000506729,True,36,1
AM-K-22K21S1,113,experiment,48,→,right,→,0.6361273999791592,True,36,0
AM-K-22K21S1,114,experiment,85,←,left,←,0.4700725001748651,True,36,1
AM-K-22K21S1,115,experiment,102,↓,down,↓,0.61690489994362,True,36,0
AM-K-22K21S1,116,experiment,108,←,left,←,0.6755506999325007,True,36,1
AM-K-22K21S1,117,experiment,79,↑,up,↑,0.6463158999104053,True,36,1
AM-K-22K21S1,118,experiment,72,↓,down,↓,1.0603904000017792,True,36,1
AM-K-22K21S1,119,experiment,66,↓,down,↓,0.7556012999266386,True,36,1
AM-K-22K21S1,120,experiment,94,↑,up,↑,0.63721469999291,True,36,1
AM-K-22K21S1,121,experiment,74,←,right,→,0.6193923000246286,False,36,1
AM-K-22K21S1,122,experiment,91,↑,up,↑,0.8116383000742644,True,36,1
AM-K-22K21S1,123,experiment,49,←,left,←,0.762531700078398,True,36,1
AM-K-22K21S1,124,experiment,70,↑,down,↓,0.7243835001718253,False,36,1
AM-K-22K21S1,125,experiment,107,↑,up,↑,0.8034224000293761,True,36,1
AM-K-22K21S1,126,experiment,101,↑,up,↑,0.8253770000301301,True,36,1
AM-K-22K21S1,127,experiment,104,←,left,←,0.7977056000381708,True,36,1
AM-K-22K21S1,128,experiment,98,←,right,→,0.6205616998486221,False,36,1
AM-K-22K21S1,129,experiment,100,↑,up,↑,0.9625542000867426,True,36,1
AM-K-22K21S1,130,experiment,65,↑,left,←,0.9340588999912143,False,36,1
AM-K-22K21S1,131,experiment,52,↑,up,↑,1.6553603000938892,True,36,1
AM-K-22K21S1,132,experiment,63,←,left,←,0.7910408999305218,True,36,1
AM-K-22K21S1,133,experiment,71,←,left,←,0.823407200165093,True,36,1
AM-K-22K21S1,134,experiment,84,↑,up,↑,0.9061030999291688,True,36,1
AM-K-22K21S1,135,experiment,87,←,left,←,0.8731215998996049,True,36,1
AM-K-22K21S1,136,experiment,93,↑,up,↑,0.8461271000560373,True,36,1
AM-K-22K21S1,137,experiment,105,↓,down,↓,0.6969916000962257,True,36,1
AM-K-22K21S1,138,experiment,50,↓,down,↓,1.2598569998517632,True,36,1
AM-K-22K21S1,139,experiment,103,↓,up,↑,0.9587910999543965,False,36,1
AM-K-22K21S1,140,experiment,51,↓,down,↓,0.6953035001643002,True,36,1
AM-K-22K21S1,141,experiment,78,↓,down,↓,0.6334794999565929,True,36,1
AM-K-22K21S1,142,experiment,58,↓,down,↓,0.732348500052467,True,36,1
AM-K-22K21S1,143,experiment,75,←,left,←,0.7976557000074536,True,36,1
AM-K-22K21S1,144,experiment,97,↓,left,←,1.2456451000180095,False,36,1
AM-K-22K21S1,145,experiment,81,↑,left,←,0.9839212000370026,False,36,1
AM-K-22K21S1,146,experiment,61,←,left,←,1.0438719999510795,True,36,1
AM-K-22K21S1,147,experiment,99,←,left,←,0.8410065001808107,True,36,1
AM-K-22K21S1,148,experiment,76,→,right,→,0.7977605999913067,True,36,1
AM-K-22K21S1,149,experiment,64,↑,up,↑,1.2241050000302494,True,36,1
AM-K-22K21S1,150,experiment,53,→,right,→,0.9091439000330865,True,36,1
AM-K-22K21S1,151,experiment,77,↓,down,↓,0.7424735999666154,True,36,1
AM-K-22K21S1,152,experiment,62,←,left,←,0.7161903998348862,True,36,1
AM-K-22K21S1,153,experiment,106,←,left,←,0.8918524000328034,True,36,1
AM-K-22K21S1,154,experiment,92,←,left,←,0.6570010001305491,True,36,1
AM-K-22K21S1,155,experiment,80,→,right,→,0.603881600080058,True,36,1
AM-K-22K21S1,156,experiment,55,←,left,←,0.9376832998823375,True,36,1
AM-K-22K21S1,157,experiment,82,↓,down,↓,0.8162040999159217,True,36,1
AM-K-22K21S1,158,experiment,56,↓,down,↓,0.709167200140655,True,36,1
AM-K-22K21S1,159,experiment,67,←,right,→,0.9136914999689907,False,36,1
AM-K-22K21S1,160,experiment,69,←,left,←,0.7018732998985797,True,36,1
AM-K-22K21S1,161,experiment,95,↑,up,↑,0.8657337001059204,True,36,1
AM-K-22K21S1,162,experiment,96,→,right,→,0.7348740000743419,True,36,1
AM-K-22K21S1,163,experiment,90,↓,down,↓,0.6830838001333177,True,36,1
AM-K-22K21S1,164,experiment,88,↑,up,↑,0.9785005000885576,True,36,1
AM-K-22K21S1,165,experiment,89,↓,down,↓,0.6931764001492411,True,36,1
AM-K-22K21S1,166,experiment,60,↓,down,↓,0.5412596000824124,True,36,1
AM-K-22K21S1,167,training,95,↑,down,↓,1.1527972999028862,False,36,0
AM-K-22K21S1,168,training,97,←,down,↓,0.9135831999592483,False,36,1
AM-K-22K21S1,169,experiment,98,↓,down,↓,0.5002419000957161,True,36,1
AM-K-22K21S1,170,experiment,91,←,left,←,0.6334859998896718,True,36,1
AM-K-22K21S1,171,experiment,55,←,left,←,0.7496843999251723,True,36,1
AM-K-22K21S1,172,experiment,54,→,right,→,0.6379103998187929,True,36,1
AM-K-22K21S1,173,experiment,90,↓,down,↓,0.8136227000504732,True,36,1
AM-K-22K21S1,174,experiment,51,↑,up,↑,1.0435973999556154,True,36,1
AM-K-22K21S1,175,experiment,107,↓,down,↓,0.7179586000274867,True,36,1
AM-K-22K21S1,176,experiment,76,↑,up,↑,0.7356261000968516,True,36,1
AM-K-22K21S1,177,experiment,80,↑,right,→,0.8473690999671817,False,36,1
AM-K-22K21S1,178,experiment,89,↑,up,↑,0.9197738000657409,True,36,1
AM-K-22K21S1,179,experiment,97,→,right,→,0.6182212999556214,True,36,1
AM-K-22K21S1,180,experiment,101,↓,down,↓,0.7912914999760687,True,36,1
AM-K-22K21S1,181,experiment,87,←,left,←,0.570143099874258,True,36,1
AM-K-22K21S1,182,experiment,48,←,right,→,0.8832683002110571,False,36,1
AM-K-22K21S1,183,experiment,99,↓,down,↓,0.7347581000067294,True,36,1
AM-K-22K21S1,184,experiment,88,→,right,→,0.8513835000339895,True,36,1
AM-K-22K21S1,185,experiment,84,→,right,→,0.9332797001115978,True,36,1
AM-K-22K21S1,186,experiment,49,↑,up,↑,0.8712848001159728,True,36,1
AM-K-22K21S1,187,experiment,105,←,left,←,0.768972400110215,True,36,1
AM-K-22K21S1,188,experiment,58,←,left,←,0.8146907999180257,True,36,1
AM-K-22K21S1,189,experiment,65,↑,up,↑,0.9120794001501054,True,36,1
AM-K-22K21S1,190,experiment,56,←,left,←,0.9768741999287158,True,36,1
AM-K-22K21S1,191,experiment,63,←,left,←,1.2844821999315172,True,36,1
AM-K-22K21S1,192,experiment,70,→,right,→,0.785423600114882,True,36,1
AM-K-22K21S1,193,experiment,79,↓,down,↓,1.2316606999374926,True,36,1
AM-K-22K21S1,194,experiment,94,↓,down,↓,0.8384253999684006,True,36,1
AM-K-22K21S1,195,experiment,64,↑,up,↑,1.0071670999750495,True,36,1
AM-K-22K21S1,196,experiment,72,→,right,→,0.8385181000921875,True,36,1
AM-K-22K21S1,197,experiment,53,↓,right,→,0.9069612000603229,False,36,1
AM-K-22K21S1,198,experiment,67,↓,down,↓,0.8318931998219341,True,36,1
AM-K-22K21S1,199,experiment,108,↓,down,↓,0.6743381000123918,True,36,1
AM-K-22K21S1,200,experiment,60,←,left,←,0.7549077000003308,True,36,1
AM-K-22K21S1,201,experiment,103,←,left,←,0.5541113000363111,True,36,1
AM-K-22K21S1,202,experiment,62,←,left,←,0.6072245000395924,True,36,1
AM-K-22K21S1,203,experiment,75,↓,down,↓,0.6053847000002861,True,36,1
AM-K-22K21S1,204,experiment,74,→,left,←,0.7244192000944167,False,36,1
AM-K-22K21S1,205,experiment,93,↓,down,↓,0.6238879999145865,True,36,1
AM-K-22K21S1,206,experiment,59,→,right,→,0.5309603998903185,True,36,1
AM-K-22K21S1,207,experiment,92,→,right,→,0.5585729000158608,True,36,1
AM-K-22K21S1,208,experiment,106,→,right,→,0.5807147000450641,True,36,1
AM-K-22K21S1,209,experiment,102,←,left,←,0.5309892001096159,True,36,1
AM-K-22K21S1,210,experiment,100,↑,up,↑,0.5560956001281738,True,36,1
AM-K-22K21S1,211,experiment,52,↑,up,↑,1.0441388001199812,True,36,1
AM-K-22K21S1,212,experiment,69,↓,down,↓,0.7952159000560641,True,36,1
AM-K-22K21S1,213,experiment,95,→,right,→,0.659425400197506,True,36,1
AM-K-22K21S1,214,experiment,86,←,left,←,0.8122572000138462,True,36,1
AM-K-22K21S1,215,experiment,77,↑,up,↑,0.5695478001143783,True,36,1
AM-K-22K21S1,216,experiment,85,←,left,←,0.7103055000770837,True,36,1
AM-K-22K21S1,217,experiment,57,←,left,←,0.8227319000288844,True,36,1
AM-K-22K21S1,218,experiment,66,←,left,←,0.7194602000527084,True,36,1
AM-K-22K21S1,219,experiment,73,←,left,←,0.47423769999295473,True,36,1
AM-K-22K21S1,220,experiment,71,→,right,→,0.5352420001290739,True,36,0
AM-K-22K21S1,221,experiment,50,←,left,←,1.2969366998877376,True,36,1
AM-K-22K21S1,222,experiment,82,↑,up,↑,0.7052406999282539,True,36,1
AM-K-22K21S1,223,experiment,61,↓,up,↑,1.224534299923107,False,36,1
AM-K-22K21S1,224,experiment,81,↑,up,↑,0.4502553001511842,True,36,1
AM-K-22K21S1,225,experiment,83,←,left,←,0.6219403001014143,True,36,0
AM-K-22K21S1,226,experiment,78,←,right,→,1.010362199973315,False,36,1
AM-K-22K21S1,227,experiment,96,↑,up,↑,0.7777881999500096,True,36,1
AM-K-22K21S1,228,experiment,104,←,left,←,0.6407689000479877,True,36,1
AM-K-22K21S1,229,experiment,68,↓,up,↑,0.9751538999844342,False,36,1
AM-K-22K21S1,230,training,50,↓,down,↓,0.7185665001161397,True,36,0
AM-K-22K21S1,231,training,96,←,left,←,0.6338941000867635,True,36,1
AM-K-22K21S1,232,experiment,71,→,right,→,0.5603126999922097,True,36,1
AM-K-22K21S1,233,experiment,76,→,right,→,0.5044144000858068,True,36,1
AM-K-22K21S1,234,experiment,105,↑,up,↑,0.4885559999383986,True,36,1
AM-K-22K21S1,235,experiment,54,→,right,→,0.6508447998203337,True,36,1
AM-K-22K21S1,236,experiment,83,←,left,←,0.6367685000877827,True,36,1
AM-K-22K21S1,237,experiment,49,↓,down,↓,0.7467137000057846,True,36,1
AM-K-22K21S1,238,experiment,62,←,left,←,0.7119509999174625,True,36,1
AM-K-22K21S1,239,experiment,79,←,left,←,0.5610926998779178,True,36,1
AM-K-22K21S1,240,experiment,99,←,left,←,0.48948709992691875,True,36,1
AM-K-22K21S1,241,experiment,90,→,right,→,0.6075840999837965,True,36,1
AM-K-22K21S1,242,experiment,95,↑,up,↑,0.5590674998238683,True,36,1
AM-K-22K21S1,243,experiment,91,↑,down,↓,0.5545074001420289,False,36,1
AM-K-22K21S1,244,experiment,48,←,left,←,0.7075227999594063,True,36,1
AM-K-22K21S1,245,experiment,102,↓,down,↓,0.4929804001003504,True,36,1
AM-K-22K21S1,246,experiment,89,→,right,→,0.5315119998995215,True,36,1
AM-K-22K21S1,247,experiment,78,↑,no_key,no_letter,-1.0,False,36,1
AM-K-22K21S1,248,experiment,64,→,right,→,1.0314450999721885,True,36,1
AM-K-22K21S1,249,experiment,101,↑,up,↑,0.5080901000183076,True,36,1
AM-K-22K21S1,250,experiment,88,←,left,←,0.4898647000081837,True,36,1
AM-K-22K21S1,251,experiment,74,→,right,→,0.8533692001365125,True,36,1
AM-K-22K21S1,252,experiment,87,←,left,←,0.6620021001435816,True,36,1
AM-K-22K21S1,253,experiment,80,→,right,→,0.4889161998871714,True,36,1
AM-K-22K21S1,254,experiment,63,←,left,←,0.5996671000029892,True,36,1
AM-K-22K21S1,255,experiment,60,↑,up,↑,0.6515330998227,True,36,1
AM-K-22K21S1,256,experiment,82,→,no_key,no_letter,-1.0,False,36,1
AM-K-22K21S1,257,experiment,94,↑,up,↑,0.6797193000093102,True,36,1
AM-K-22K21S1,258,experiment,106,→,right,→,0.5284913000650704,True,36,1
AM-K-22K21S1,259,experiment,52,→,right,→,1.4896706000436097,True,36,1
AM-K-22K21S1,260,experiment,68,↓,down,↓,0.7273363000713289,True,36,1
AM-K-22K21S1,261,experiment,72,↑,up,↑,0.737975399941206,True,36,1
AM-K-22K21S1,262,experiment,86,→,right,→,0.45085260015912354,True,36,1
AM-K-22K21S1,263,experiment,70,↑,up,↑,0.7653813001234084,True,36,0
AM-K-22K21S1,264,experiment,97,←,left,←,0.6940080001950264,True,36,1
AM-K-22K21S1,265,experiment,108,→,right,→,0.2924764999188483,True,36,1
AM-K-22K21S1,266,experiment,85,→,right,→,0.5254875000100583,True,36,0
AM-K-22K21S1,267,experiment,56,←,left,←,1.7499010998290032,True,36,1
AM-K-22K21S1,268,experiment,50,←,left,←,0.7345459000207484,True,36,1
AM-K-22K21S1,269,experiment,59,↑,up,↑,0.6132065001875162,True,36,1
AM-K-22K21S1,270,experiment,73,←,right,→,0.5639402000233531,False,36,1
AM-K-22K21S1,271,experiment,104,←,left,←,0.6424395001959056,True,36,1
AM-K-22K21S1,272,experiment,81,→,right,→,0.6452384998556226,True,36,1
AM-K-22K21S1,273,experiment,107,←,left,←,0.4509584999177605,True,36,1
AM-K-22K21S1,274,experiment,51,↑,up,↑,0.7480293000116944,True,36,0
AM-K-22K21S1,275,experiment,96,→,right,→,0.5897961999289691,True,36,1
AM-K-22K21S1,276,experiment,84,→,left,←,0.3420535000041127,False,36,1
AM-K-22K21S1,277,experiment,57,→,right,→,0.3925687000155449,True,36,0
AM-K-22K21S1,278,experiment,58,↓,left,←,0.46983780013397336,False,36,0
AM-K-22K21S1,279,experiment,98,↓,no_key,no_letter,-1.0,False,36,0
AM-K-22K21S1,280,experiment,65,←,left,←,0.6126071999315172,True,36,1
AM-K-22K21S1,281,experiment,77,↑,left,←,0.8499463999178261,False,36,1
AM-K-22K21S1,282,experiment,100,→,right,→,0.7020180998370051,True,36,1
AM-K-22K21S1,283,experiment,61,→,left,←,0.90193279995583,False,36,1
AM-K-22K21S1,284,experiment,93,→,right,→,0.665884800022468,True,36,1
AM-K-22K21S1,285,experiment,67,↓,down,↓,0.6970353999640793,True,36,1
AM-K-22K21S1,286,experiment,66,↓,down,↓,0.5907030000817031,True,36,1
AM-K-22K21S1,287,experiment,55,↓,down,↓,0.6689734000246972,True,36,1
AM-K-22K21S1,288,experiment,69,↑,down,↓,0.300909899873659,False,36,1
AM-K-22K21S1,289,experiment,103,→,right,→,0.6035064999014139,True,36,0
AM-K-22K21S1,290,experiment,92,↑,left,←,0.8686941000632942,False,36,1
AM-K-22K21S1,291,experiment,75,←,left,←,0.816425499971956,True,36,1
AM-K-22K21S1,292,experiment,53,←,left,←,1.3102647999767214,True,36,1
AM-K-22K21S1,293,training,104,↓,down,↓,0.5389450001530349,True,36,0
AM-K-22K21S1,294,training,72,←,left,←,0.5254954001866281,True,36,1
AM-K-22K21S1,295,experiment,97,←,left,←,0.6391948000527918,True,36,1
AM-K-22K21S1,296,experiment,68,↑,up,↑,0.5026640000287443,True,36,1
AM-K-22K21S1,297,experiment,71,↓,down,↓,0.7226565999444574,True,36,1
AM-K-22K21S1,298,experiment,55,↑,up,↑,0.6031025999691337,True,36,1
AM-K-22K21S1,299,experiment,59,↑,left,←,0.8551248000003397,False,36,1
AM-K-22K21S1,300,experiment,85,←,left,←,0.7522575999610126,True,36,1
AM-K-22K21S1,301,experiment,96,↑,up,↑,0.9459621999412775,True,36,1
AM-K-22K21S1,302,experiment,76,↑,up,↑,0.6185139999724925,True,36,1
AM-K-22K21S1,303,experiment,90,↑,up,↑,0.65957530005835,True,36,1
AM-K-22K21S1,304,experiment,104,→,right,→,0.7262522000819445,True,36,1
AM-K-22K21S1,305,experiment,73,↑,up,↑,0.7686045002192259,True,36,1
AM-K-22K21S1,306,experiment,54,←,left,←,0.8394706000108272,True,36,1
AM-K-22K21S1,307,experiment,102,←,left,←,0.7239319998770952,True,36,1
AM-K-22K21S1,308,experiment,93,↓,up,↑,0.7913065999746323,False,36,1
AM-K-22K21S1,309,experiment,94,↓,down,↓,0.6482461001724005,True,36,1
AM-K-22K21S1,310,experiment,101,↓,down,↓,0.6520955001469702,True,36,1
AM-K-22K21S1,311,experiment,62,←,left,←,0.533267900114879,True,36,1
AM-K-22K21S1,312,experiment,61,↑,up,↑,0.8673227999825031,True,36,1
AM-K-22K21S1,313,experiment,77,→,right,→,0.6784075000323355,True,36,1
AM-K-22K21S1,314,experiment,91,→,right,→,0.7089883999433368,True,36,1
AM-K-22K21S1,315,experiment,95,↑,up,↑,0.768740100087598,True,36,1
AM-K-22K21S1,316,experiment,52,↑,up,↑,1.0323012999724597,True,36,1
AM-K-22K21S1,317,experiment,107,↓,down,↓,0.6989762000739574,True,36,1
AM-K-22K21S1,318,experiment,58,←,right,→,0.6753809999208897,False,36,1
AM-K-22K21S1,319,experiment,57,↑,up,↑,1.044967900030315,True,36,1
AM-K-22K21S1,320,experiment,79,↑,up,↑,0.8648580999579281,True,36,1
AM-K-22K21S1,321,experiment,75,→,right,→,0.6368902998510748,True,36,1
AM-K-22K21S1,322,experiment,67,↓,down,↓,0.9889844998251647,True,36,1
AM-K-22K21S1,323,experiment,100,→,right,→,0.7553598000667989,True,36,1
AM-K-22K21S1,324,experiment,105,→,right,→,0.64990029996261,True,36,1
AM-K-22K21S1,325,experiment,92,↓,down,↓,0.6173853001091629,True,36,1
AM-K-22K21S1,326,experiment,106,←,left,←,0.628579500131309,True,36,1
AM-K-22K21S1,327,experiment,72,↑,left,←,0.8354251000564545,False,36,1
AM-K-22K21S1,328,experiment,60,↑,down,↓,1.4138253000564873,False,36,1
AM-K-22K21S1,329,experiment,50,→,right,→,0.731956500094384,True,36,1
AM-K-22K21S1,330,experiment,80,↑,down,↓,0.5639165998436511,False,36,1
AM-K-22K21S1,331,experiment,99,←,left,←,0.6116547000128776,True,36,1
AM-K-22K21S1,332,experiment,86,←,left,←,0.5585500998422503,True,36,1
AM-K-22K21S1,333,experiment,98,↓,down,↓,0.6229954001028091,True,36,1
AM-K-22K21S1,334,experiment,89,←,right,→,0.5764134998898953,False,36,1
AM-K-22K21S1,335,experiment,51,↓,down,↓,0.8721018999349326,True,36,1
AM-K-22K21S1,336,experiment,65,↑,up,↑,0.6630345000885427,True,36,1
AM-K-22K21S1,337,experiment,49,↑,up,↑,0.7961167998146266,True,36,1
AM-K-22K21S1,338,experiment,82,↓,down,↓,0.5126857999712229,True,36,1
AM-K-22K21S1,339,experiment,81,→,right,→,0.5364679000340402,True,36,1
AM-K-22K21S1,340,experiment,53,←,left,←,0.6893807000014931,True,36,1
AM-K-22K21S1,341,experiment,74,↑,up,↑,0.7167611999902874,True,36,1
AM-K-22K21S1,342,experiment,84,←,left,←,0.6838819999247789,True,36,1
AM-K-22K21S1,343,experiment,78,↓,down,↓,0.5982685000635684,True,36,1
AM-K-22K21S1,344,experiment,69,←,right,→,0.4259086998645216,False,36,1
AM-K-22K21S1,345,experiment,83,→,right,→,0.7217765999957919,True,36,0
AM-K-22K21S1,346,experiment,48,↑,up,↑,0.7482541999779642,True,36,1
AM-K-22K21S1,347,experiment,88,↑,up,↑,0.7607147998642176,True,36,1
AM-K-22K21S1,348,experiment,103,←,left,←,0.8396238000132143,True,36,1
AM-K-22K21S1,349,experiment,56,←,left,←,0.6350807000417262,True,36,1
AM-K-22K21S1,350,experiment,70,→,left,←,1.1300901998765767,False,36,1
AM-K-22K21S1,351,experiment,63,←,right,→,1.119445800082758,False,36,1
AM-K-22K21S1,352,experiment,66,↓,up,↑,1.0924132000654936,False,36,1
AM-K-22K21S1,353,experiment,64,←,left,←,0.6510685998946428,True,36,1
AM-K-22K21S1,354,experiment,87,↑,up,↑,0.5958053001668304,True,36,1
AM-K-22K21S1,355,experiment,108,↓,down,↓,0.5355314000044018,True,36,1
AM-K-22K21S1,356,training,49,↑,up,↑,0.531543199904263,True,36,0
AM-K-22K21S1,357,training,69,↑,up,↑,0.5031719000544399,True,36,1
AM-K-22K21S1,358,experiment,50,↓,down,↓,0.5057962997816503,True,36,1
AM-K-22K21S1,359,experiment,61,→,right,→,0.5128935999237001,True,36,1
AM-K-22K21S1,360,experiment,54,↑,up,↑,0.5140547999180853,True,36,1
AM-K-22K21S1,361,experiment,79,→,right,→,0.515132199972868,True,36,1
AM-K-22K21S1,362,experiment,48,←,left,←,0.6857716999948025,True,36,1
AM-K-22K21S1,363,experiment,85,←,left,←,1.6057704999111593,True,36,1
AM-K-22K21S1,364,experiment,88,→,right,→,0.4959962998982519,True,36,1
AM-K-22K21S1,365,experiment,97,↑,up,↑,0.7153301001526415,True,36,1
AM-K-22K21S1,366,experiment,87,←,left,←,0.7053370999637991,True,36,1
AM-K-22K21S1,367,experiment,93,↓,left,←,1.221451299963519,False,36,1
AM-K-22K21S1,368,experiment,99,↑,left,←,1.4995603000279516,False,36,1
AM-K-22K21S1,369,experiment,63,↑,up,↑,0.5775747001171112,True,36,1
AM-K-22K21S1,370,experiment,60,↓,down,↓,0.7743492999579757,True,36,1
AM-K-22K21S1,371,experiment,81,→,right,→,0.6440347000025213,True,36,1
AM-K-22K21S1,372,experiment,66,→,right,→,0.5400372999720275,True,36,1
AM-K-22K21S1,373,experiment,67,←,left,←,0.4007296001072973,True,36,1
AM-K-22K21S1,374,experiment,103,→,right,→,1.2609179001301527,True,36,0
AM-K-22K21S1,375,experiment,91,→,right,→,0.5319932999555022,True,36,1
AM-K-22K21S1,376,experiment,56,↑,up,↑,0.6036036999430507,True,36,1
AM-K-22K21S1,377,experiment,108,↑,up,↑,0.4876159999985248,True,36,1
AM-K-22K21S1,378,experiment,76,↓,down,↓,0.7621449001599103,True,36,1
AM-K-22K21S1,379,experiment,71,←,down,↓,1.331919200019911,False,36,1
AM-K-22K21S1,380,experiment,59,↑,down,↓,0.986639600014314,False,36,1
AM-K-22K21S1,381,experiment,101,↓,down,↓,0.833066999912262,True,36,1
AM-K-22K21S1,382,experiment,75,→,right,→,0.5186934999655932,True,36,1
AM-K-22K21S1,383,experiment,94,↑,up,↑,0.7462467001751065,True,36,1
AM-K-22K21S1,384,experiment,55,→,right,→,0.5136051999870688,True,36,1
AM-K-22K21S1,385,experiment,68,↑,left,←,0.40897370013408363,False,36,1
AM-K-22K21S1,386,experiment,74,←,left,←,0.6845449998509139,True,36,0
AM-K-22K21S1,387,experiment,100,↑,up,↑,0.5037227999418974,True,36,1
AM-K-22K21S1,388,experiment,58,↑,no_key,no_letter,-1.0,False,36,1
AM-K-22K21S1,389,experiment,90,↑,up,↑,1.6906164998654276,True,36,1
AM-K-22K21S1,390,experiment,70,→,left,←,0.6394362000282854,False,36,1
AM-K-22K21S1,391,experiment,84,→,right,→,0.5455503999255598,True,36,1
AM-K-22K21S1,392,experiment,72,↓,right,→,1.2913742000237107,False,36,1
AM-K-22K21S1,393,experiment,98,←,left,←,0.9425939000211656,True,36,1
AM-K-22K21S1,394,experiment,102,↓,left,←,1.8307902000378817,False,36,1
AM-K-22K21S1,395,experiment,104,↑,up,↑,0.7143629998899996,True,36,1
AM-K-22K21S1,396,experiment,52,↑,up,↑,0.4842292000539601,True,36,1
AM-K-22K21S1,397,experiment,49,↑,up,↑,0.7121799997985363,True,36,1
AM-K-22K21S1,398,experiment,83,↑,up,↑,0.7196594998240471,True,36,1
AM-K-22K21S1,399,experiment,57,→,right,→,0.5118333999998868,True,36,1
AM-K-22K21S1,400,experiment,73,↓,down,↓,0.7068374999798834,True,36,1
AM-K-22K21S1,401,experiment,64,↓,down,↓,0.8571509998291731,True,36,1
AM-K-22K21S1,402,experiment,89,→,right,→,0.5285658999346197,True,36,1
AM-K-22K21S1,403,experiment,65,↓,down,↓,0.7419296000152826,True,36,1
AM-K-22K21S1,404,experiment,82,→,right,→,0.5323681000154465,True,36,1
AM-K-22K21S1,405,experiment,78,↓,down,↓,0.5327930999919772,True,36,1
AM-K-22K21S1,406,experiment,77,↑,down,↓,0.6055825999937952,False,36,1
AM-K-22K21S1,407,experiment,69,↓,down,↓,0.4869647999294102,True,36,1
AM-K-22K21S1,408,experiment,107,→,right,→,0.48628020007163286,True,36,1
AM-K-22K21S1,409,experiment,95,→,right,→,0.39264919981360435,True,36,1
AM-K-22K21S1,410,experiment,62,↓,down,↓,0.7181788000743836,True,36,0
AM-K-22K21S1,411,experiment,106,↓,left,←,0.35059989988803864,False,36,1
AM-K-22K21S1,412,experiment,86,→,right,→,0.530471800127998,True,36,0
AM-K-22K21S1,413,experiment,51,→,right,→,0.5002802999224514,True,36,1
AM-K-22K21S1,414,experiment,80,↑,up,↑,0.5330509000923485,True,36,1
AM-K-22K21S1,415,experiment,96,←,right,→,0.5354499998502433,False,36,1
AM-K-22K21S1,416,experiment,92,←,left,←,0.6671589999459684,True,36,1
AM-K-22K21S1,417,experiment,53,←,left,←,0.5026739998720586,True,36,1
AM-K-22K21S1,418,experiment,105,↑,up,↑,0.5754691001493484,True,36,1
AM-K-22K21S1,419,training,72,←,left,←,0.5636541000567377,True,36,0
AM-K-22K21S1,420,training,99,↑,up,↑,0.48440190008841455,True,36,1
AM-K-22K21S1,421,experiment,58,↑,up,↑,0.49258960015140474,True,36,1
AM-K-22K21S1,422,experiment,55,←,left,←,0.7345558998640627,True,36,1
AM-K-22K21S1,423,experiment,51,↓,down,↓,0.7756125000305474,True,36,1
AM-K-22K21S1,424,experiment,104,←,left,←,0.4412953001447022,True,36,1
AM-K-22K21S1,425,experiment,80,→,right,→,0.6489463001489639,True,36,0
AM-K-22K21S1,426,experiment,82,→,left,←,0.5472315999213606,False,36,1
AM-K-22K21S1,427,experiment,72,↓,down,↓,0.532922999933362,True,36,1
AM-K-22K21S1,428,experiment,60,→,right,→,0.5713583999313414,True,36,1
AM-K-22K21S1,429,experiment,71,←,left,←,0.644299800042063,True,36,1
AM-K-22K21S1,430,experiment,92,↓,down,↓,0.6917956999968737,True,36,1
AM-K-22K21S1,431,experiment,106,→,left,←,0.3925591998267919,False,36,1
AM-K-22K21S1,432,experiment,81,→,right,→,0.8172342998441309,True,36,0
AM-K-22K21S1,433,experiment,50,↑,up,↑,0.5036400998942554,True,36,1
AM-K-22K21S1,434,experiment,57,↓,down,↓,0.7762227999046445,True,36,1
AM-K-22K21S1,435,experiment,53,↑,up,↑,0.511182599933818,True,36,1
AM-K-22K21S1,436,experiment,107,→,right,→,0.9746695999056101,True,36,1
AM-K-22K21S1,437,experiment,61,↑,down,↓,0.7471300000324845,False,36,1
AM-K-22K21S1,438,experiment,88,←,left,←,0.4091805999632925,True,36,1
AM-K-22K21S1,439,experiment,105,←,left,←,0.4341484000906348,True,36,0
AM-K-22K21S1,440,experiment,99,↑,down,↓,0.6409453998785466,False,36,0
AM-K-22K21S1,441,experiment,77,↓,down,↓,0.6450588000006974,True,36,1
AM-K-22K21S1,442,experiment,65,↑,up,↑,0.5014576001558453,True,36,1
AM-K-22K21S1,443,experiment,102,→,left,←,0.6311181001365185,False,36,1
AM-K-22K21S1,444,experiment,64,↑,up,↑,0.48827259987592697,True,36,1
AM-K-22K21S1,445,experiment,93,→,up,↑,1.301723999902606,False,36,1
AM-K-22K21S1,446,experiment,52,→,right,→,0.9756743998732418,True,36,1
AM-K-22K21S1,447,experiment,70,↑,no_key,no_letter,-1.0,False,36,1
AM-K-22K21S1,448,experiment,76,↑,up,↑,0.5684842998161912,True,36,1
AM-K-22K21S1,449,experiment,86,↓,down,↓,0.6849074000492692,True,36,1
AM-K-22K21S1,450,experiment,94,↓,down,↓,0.6819561999291182,True,36,1
AM-K-22K21S1,451,experiment,83,↑,up,↑,0.48309240001253784,True,36,1
AM-K-22K21S1,452,experiment,100,→,right,→,0.6856891999486834,True,36,1
AM-K-22K21S1,453,experiment,79,←,no_key,no_letter,-1.0,False,36,1
AM-K-22K21S1,454,experiment,48,↑,no_key,no_letter,-1.0,False,36,1
AM-K-22K21S1,455,experiment,108,→,right,→,0.5894273999147117,True,36,1
AM-K-22K21S1,456,experiment,49,↓,down,↓,0.7412133000325412,True,36,1
AM-K-22K21S1,457,experiment,68,→,right,→,0.6484369998797774,True,36,1
AM-K-22K21S1,458,experiment,101,→,right,→,0.5246910001151264,True,36,1
AM-K-22K21S1,459,experiment,87,↓,down,↓,0.6346251000650227,True,36,1
AM-K-22K21S1,460,experiment,97,←,left,←,0.6244516998995095,True,36,1
AM-K-22K21S1,461,experiment,56,→,right,→,0.6364810999948531,True,36,1
AM-K-22K21S1,462,experiment,73,↑,up,↑,0.6024472999852151,True,36,1
AM-K-22K21S1,463,experiment,89,↓,up,↑,0.8367353999055922,False,36,1
AM-K-22K21S1,464,experiment,75,↑,up,↑,0.7538213001098484,True,36,1
AM-K-22K21S1,465,experiment,69,→,right,→,0.5966374001000077,True,36,1
AM-K-22K21S1,466,experiment,91,←,left,←,0.6859474000521004,True,36,1
AM-K-22K21S1,467,experiment,63,→,right,→,0.7652044000569731,True,36,1
AM-K-22K21S1,468,experiment,78,↑,up,↑,0.5405341000296175,True,36,1
AM-K-22K21S1,469,experiment,85,↑,up,↑,0.8102857999037951,True,36,1
AM-K-22K21S1,470,experiment,84,←,left,←,0.6294623999856412,True,36,1
AM-K-22K21S1,471,experiment,95,↓,down,↓,1.0761263000313193,True,36,1
AM-K-22K21S1,472,experiment,96,↓,down,↓,0.7289373998064548,True,36,1
AM-K-22K21S1,473,experiment,98,↓,down,↓,0.5548002999275923,True,36,1
AM-K-22K21S1,474,experiment,74,→,right,→,0.9555824000854045,True,36,1
AM-K-22K21S1,475,experiment,59,→,right,→,0.8573469000402838,True,36,1
AM-K-22K21S1,476,experiment,90,↓,left,←,0.8888070001266897,False,36,1
AM-K-22K21S1,477,experiment,66,←,left,←,0.5187049999367446,True,36,1
AM-K-22K21S1,478,experiment,62,↑,up,↑,0.7330839999485761,True,36,1
AM-K-22K21S1,479,experiment,67,→,right,→,1.033199799945578,True,36,1
AM-K-22K21S1,480,experiment,54,↑,down,↓,1.1894175000488758,False,36,1
AM-K-22K21S1,481,experiment,103,↑,down,↓,0.7550711000803858,False,36,1
AM-K-22K21S1,482,training,62,→,right,→,0.5203152999747545,True,36,0
AM-K-22K21S1,483,training,84,←,left,←,0.6696760999038815,True,36,1
AM-K-22K21S1,484,experiment,85,←,left,←,0.5824528997763991,True,36,1
AM-K-22K21S1,485,experiment,108,→,right,→,0.4827560998965055,True,36,1
AM-K-22K21S1,486,experiment,49,←,right,→,0.7910112000536174,False,36,1
AM-K-22K21S1,487,experiment,68,↑,left,←,0.97627819981426,False,36,1
AM-K-22K21S1,488,experiment,98,←,left,←,0.6083178999833763,True,36,1
AM-K-22K21S1,489,experiment,107,→,right,→,0.6680706001352519,True,36,1
AM-K-22K21S1,490,experiment,86,←,no_key,no_letter,-1.0,False,36,1
AM-K-22K21S1,491,experiment,58,↓,down,↓,0.6659575998783112,True,36,1
AM-K-22K21S1,492,experiment,71,↑,up,↑,0.5032580001279712,True,36,1
AM-K-22K21S1,493,experiment,95,↑,up,↑,0.5471403999254107,True,36,1
AM-K-22K21S1,494,experiment,77,←,right,→,0.5555548998527229,False,36,1
AM-K-22K21S1,495,experiment,53,↓,down,↓,0.715242100181058,True,36,1
AM-K-22K21S1,496,experiment,80,←,left,←,0.6757219999562949,True,36,1
AM-K-22K21S1,497,experiment,73,↓,down,↓,0.775926599977538,True,36,1
AM-K-22K21S1,498,experiment,54,←,left,←,0.6867466999683529,True,36,1
AM-K-22K21S1,499,experiment,79,↓,down,↓,0.6165477999020368,True,36,1
AM-K-22K21S1,500,experiment,69,↓,down,↓,0.8568712999112904,True,36,1
AM-K-22K21S1,501,experiment,74,↑,down,↓,0.7417757001239806,False,36,1
AM-K-22K21S1,502,experiment,48,←,left,←,0.36765679996460676,True,36,1
AM-K-22K21S1,503,experiment,52,↓,left,←,1.207104700151831,False,36,0
AM-K-22K21S1,504,experiment,60,←,left,←,0.40101190004497766,True,36,1
AM-K-22K21S1,505,experiment,91,↑,down,↓,0.5953504999633878,False,36,0
AM-K-22K21S1,506,experiment,65,→,left,←,0.6777729999739677,False,36,1
AM-K-22K21S1,507,experiment,106,←,left,←,0.4720534000080079,True,36,1
AM-K-22K21S1,508,experiment,84,↑,down,↓,0.6000824999064207,False,36,1
AM-K-22K21S1,509,experiment,62,↑,down,↓,1.0510943999979645,False,36,1
AM-K-22K21S1,510,experiment,61,→,right,→,0.6762477001175284,True,36,1
AM-K-22K21S1,511,experiment,89,↑,left,←,0.33390259998850524,False,36,1
AM-K-22K21S1,512,experiment,103,←,left,←,0.47536910022608936,True,36,0
AM-K-22K21S1,513,experiment,81,←,left,←,0.5089970999397337,True,36,1
AM-K-22K21S1,514,experiment,55,←,left,←,0.5180671999696642,True,36,1
AM-K-22K21S1,515,experiment,90,↓,down,↓,0.5628102000337094,True,36,1
AM-K-22K21S1,516,experiment,101,→,right,→,0.7462106000166386,True,36,1
AM-K-22K21S1,517,experiment,64,↓,down,↓,0.7185802001040429,True,36,1
AM-K-22K21S1,518,experiment,70,←,left,←,0.5543913999572396,True,36,1
AM-K-22K21S1,519,experiment,99,↓,down,↓,0.7788049001246691,True,36,1
AM-K-22K21S1,520,experiment,76,↑,up,↑,0.5141072999686003,True,36,1
AM-K-22K21S1,521,experiment,97,→,right,→,0.5728973001241684,True,36,1
AM-K-22K21S1,522,experiment,94,↓,down,↓,0.6942451000213623,True,36,1
AM-K-22K21S1,523,experiment,56,↑,up,↑,0.8315783999860287,True,36,1
AM-K-22K21S1,524,experiment,57,↓,down,↓,0.539060499984771,True,36,1
AM-K-22K21S1,525,experiment,88,↑,down,↓,0.39276439999230206,False,36,1
AM-K-22K21S1,526,experiment,59,↓,down,↓,0.6204373999498785,True,36,0
AM-K-22K21S1,527,experiment,51,→,right,→,0.5059729998465627,True,36,1
AM-K-22K21S1,528,experiment,75,←,left,←,0.5723160000052303,True,36,1
AM-K-22K21S1,529,experiment,82,↓,down,↓,0.6259081000462174,True,36,1
AM-K-22K21S1,530,experiment,105,↓,down,↓,0.5974534000270069,True,36,1
AM-K-22K21S1,531,experiment,100,←,left,←,0.5079344999976456,True,36,1
AM-K-22K21S1,532,experiment,63,→,right,→,0.7141432000789791,True,36,1
AM-K-22K21S1,533,experiment,96,→,right,→,0.5256398001220077,True,36,1
AM-K-22K21S1,534,experiment,67,←,left,←,0.49794679996557534,True,36,1
AM-K-22K21S1,535,experiment,93,→,right,→,0.6865119999274611,True,36,1
AM-K-22K21S1,536,experiment,87,→,right,→,0.5897780999075621,True,36,1
AM-K-22K21S1,537,experiment,78,→,right,→,0.9077669000253081,True,36,1
AM-K-22K21S1,538,experiment,50,←,left,←,0.6224343001376837,True,36,1
AM-K-22K21S1,539,experiment,104,↑,left,←,1.2664134001825005,False,36,1
AM-K-22K21S1,540,experiment,83,→,right,→,0.7720279002096504,True,36,1
AM-K-22K21S1,541,experiment,72,→,right,→,0.7166096000000834,True,36,1
AM-K-22K21S1,542,experiment,92,→,right,→,0.736878199968487,True,36,1
AM-K-22K21S1,543,experiment,66,↓,down,↓,0.7332546999678016,True,36,1
AM-K-22K21S1,544,experiment,102,←,left,←,1.3575769001618028,True,36,1
AM-K-22K21S1,545,training,92,→,right,→,0.49519099993631244,True,36,0
AM-K-22K21S1,546,training,62,←,left,←,0.6462447999510914,True,36,1
AM-K-22K21S1,547,experiment,68,↑,up,↑,1.1814586000982672,True,36,1
AM-K-22K21S1,548,experiment,83,↓,down,↓,0.35913110012188554,True,36,1
AM-K-22K21S1,549,experiment,75,↑,up,↑,0.53027190011926,True,36,0
AM-K-22K21S1,550,experiment,97,↓,down,↓,0.6202057998161763,True,36,1
AM-K-22K21S1,551,experiment,74,↓,down,↓,0.6905941998120397,True,36,1
AM-K-22K21S1,552,experiment,52,→,right,→,0.5094029998872429,True,36,1
AM-K-22K21S1,553,experiment,61,←,left,←,0.5966280000284314,True,36,1
AM-K-22K21S1,554,experiment,63,←,left,←,0.3683551999274641,True,36,1
AM-K-22K21S1,555,experiment,71,↑,left,←,0.9199246999341995,False,36,0
AM-K-22K21S1,556,experiment,92,→,right,→,0.7643594997934997,True,36,1
AM-K-22K21S1,557,experiment,76,←,left,←,0.6840927000157535,True,36,1
AM-K-22K21S1,558,experiment,54,→,left,←,0.8383051999844611,False,36,1
AM-K-22K21S1,559,experiment,49,←,left,←,0.7561945000197738,True,36,1
AM-K-22K21S1,560,experiment,99,↓,down,↓,0.764459399972111,True,36,1
AM-K-22K21S1,561,experiment,77,↑,up,↑,0.8438435001298785,True,36,1
AM-K-22K21S1,562,experiment,53,→,left,←,0.8483642998617142,False,36,1
AM-K-22K21S1,563,experiment,101,↑,up,↑,0.7964677999261767,True,36,1
AM-K-22K21S1,564,experiment,78,↓,left,←,0.7781344000250101,False,36,1
AM-K-22K21S1,565,experiment,88,←,no_key,no_letter,-1.0,False,36,1
AM-K-22K21S1,566,experiment,94,↑,up,↑,0.7347876999992877,True,36,1
AM-K-22K21S1,567,experiment,100,↑,no_key,no_letter,-1.0,False,36,1
AM-K-22K21S1,568,experiment,60,↑,up,↑,1.7328949000220746,True,36,1
AM-K-22K21S1,569,experiment,58,↓,down,↓,0.8035897000227123,True,36,1
AM-K-22K21S1,570,experiment,103,→,right,→,0.6727545000612736,True,36,1
AM-K-22K21S1,571,experiment,50,↓,left,←,0.8210169000085443,False,36,1
AM-K-22K21S1,572,experiment,98,↑,left,←,0.858992800116539,False,36,1
AM-K-22K21S1,573,experiment,62,↑,up,↑,0.5796515000984073,True,36,1
AM-K-22K21S1,574,experiment,90,↑,up,↑,0.48672390007413924,True,36,1
AM-K-22K21S1,575,experiment,70,↑,up,↑,0.56340860016644,True,36,1
AM-K-22K21S1,576,experiment,73,←,left,←,0.6521511001046747,True,36,1
AM-K-22K21S1,577,experiment,87,↑,up,↑,0.6850650000851601,True,36,1
AM-K-22K21S1,578,experiment,86,→,right,→,0.7085800000932068,True,36,1
AM-K-22K21S1,579,experiment,82,↓,down,↓,0.7088766999077052,True,36,1
AM-K-22K21S1,580,experiment,89,↓,down,↓,0.7144089001230896,True,36,1
AM-K-22K21S1,581,experiment,107,↓,down,↓,0.6095491000451148,True,36,1
AM-K-22K21S1,582,experiment,59,↓,down,↓,0.7334628999233246,True,36,1
AM-K-22K21S1,583,experiment,69,↓,no_key,no_letter,-1.0,False,36,1
AM-K-22K21S1,584,experiment,81,↑,up,↑,0.9429037999361753,True,36,1
AM-K-22K21S1,585,experiment,51,→,left,←,1.2398538999259472,False,36,1
AM-K-22K21S1,586,experiment,95,←,left,←,0.5900171000976115,True,36,1
AM-K-22K21S1,587,experiment,55,←,left,←,0.635980200022459,True,36,1
AM-K-22K21S1,588,experiment,48,↓,left,←,1.2823383000213653,False,36,1
AM-K-22K21S1,589,experiment,84,→,right,→,0.714581900043413,True,36,1
AM-K-22K21S1,590,experiment,57,↑,up,↑,0.5544495999347419,True,36,1
AM-K-22K21S1,591,experiment,64,↓,down,↓,0.8945720999035984,True,36,1
AM-K-22K21S1,592,experiment,85,↑,up,↑,0.6869439000729471,True,36,1
AM-K-22K21S1,593,experiment,80,↓,left,←,0.9600257000420243,False,36,1
AM-K-22K21S1,594,experiment,91,→,right,→,0.7311485998798162,True,36,1
AM-K-22K21S1,595,experiment,67,↓,down,↓,0.7671906999312341,True,36,1
AM-K-22K21S1,596,experiment,108,→,left,←,0.5880477000027895,False,36,1
AM-K-22K21S1,597,experiment,65,←,left,←,0.5824500999879092,True,36,1
AM-K-22K21S1,598,experiment,102,←,left,←,0.3100169999524951,True,36,1
AM-K-22K21S1,599,experiment,72,↑,up,↑,0.5197020000778139,True,36,0
AM-K-22K21S1,600,experiment,66,↑,up,↑,0.6126838999334723,True,36,1
AM-K-22K21S1,601,experiment,96,↓,down,↓,0.620084699941799,True,36,1
AM-K-22K21S1,602,experiment,106,↑,up,↑,0.5995554998517036,True,36,1
AM-K-22K21S1,603,experiment,104,←,left,←,0.5004217999521643,True,36,1
AM-K-22K21S1,604,experiment,56,→,right,→,0.565429300069809,True,36,1
AM-K-22K21S1,605,experiment,93,→,right,→,0.6235322998836637,True,36,1
AM-K-22K21S1,606,experiment,105,→,right,→,0.6752239000052214,True,36,1
AM-K-22K21S1,607,experiment,79,↑,up,↑,0.7255832001101226,True,36,1
AM-K-22K21S1,608,training,93,←,right,→,0.5059726000763476,False,36,0
AM-K-22K21S1,609,training,108,↑,up,↑,1.1369308000430465,True,36,1
AM-K-22K21S1,610,experiment,71,→,right,→,0.603501999983564,True,36,1
AM-K-22K21S1,611,experiment,63,→,left,←,0.550483699887991,False,36,1
AM-K-22K21S1,612,experiment,58,←,left,←,0.6045937000308186,True,36,1
AM-K-22K21S1,613,experiment,75,↓,down,↓,0.6430595000274479,True,36,1
AM-K-22K21S1,614,experiment,107,←,left,←,0.7574350000359118,True,36,1
AM-K-22K21S1,615,experiment,73,←,left,←,0.7345910000149161,True,36,1
AM-K-22K21S1,616,experiment,104,↓,down,↓,0.7581154000945389,True,36,1
AM-K-22K21S1,617,experiment,89,↓,down,↓,0.7459659001324326,True,36,1
AM-K-22K21S1,618,experiment,103,←,left,←,0.44267209991812706,True,36,1
AM-K-22K21S1,619,experiment,49,→,left,←,0.7905578999780118,False,36,0
AM-K-22K21S1,620,experiment,60,←,no_key,no_letter,-1.0,False,36,1
AM-K-22K21S1,621,experiment,108,↓,down,↓,0.815415799850598,True,36,1
AM-K-22K21S1,622,experiment,54,→,right,→,0.7326039001345634,True,36,1
AM-K-22K21S1,623,experiment,102,↓,left,←,1.2368619001936167,False,36,1
AM-K-22K21S1,624,experiment,53,→,right,→,0.5858934000134468,True,36,1
AM-K-22K21S1,625,experiment,74,↑,up,↑,0.7293722999747843,True,36,1
AM-K-22K21S1,626,experiment,68,↑,up,↑,0.5492423998657614,True,36,1
AM-K-22K21S1,627,experiment,90,→,right,→,0.7851646000053734,True,36,1
AM-K-22K21S1,628,experiment,66,←,left,←,0.44248440000228584,True,36,1
AM-K-22K21S1,629,experiment,94,↓,down,↓,0.6577244000509381,True,36,0
AM-K-22K21S1,630,experiment,78,→,right,→,0.9492299000266939,True,36,1
AM-K-22K21S1,631,experiment,72,←,left,←,0.5186645998619497,True,36,1
AM-K-22K21S1,632,experiment,57,→,left,←,0.5029593000654131,False,36,1
AM-K-22K21S1,633,experiment,51,→,right,→,0.6818168999161571,True,36,1
AM-K-22K21S1,634,experiment,85,→,left,←,1.2898075999692082,False,36,1
AM-K-22K21S1,635,experiment,76,→,left,←,1.1325308000668883,False,36,1
AM-K-22K21S1,636,experiment,69,←,left,←,0.623939499957487,True,36,1
AM-K-22K21S1,637,experiment,105,→,no_key,no_letter,-1.0,False,36,1
AM-K-22K21S1,638,experiment,91,←,left,←,0.4940296998247504,True,36,1
AM-K-22K21S1,639,experiment,81,←,left,←,0.5670165000483394,True,36,1
AM-K-22K21S1,640,experiment,70,↓,down,↓,0.5927861998789012,True,36,1
AM-K-22K21S1,641,experiment,82,→,right,→,0.6534708000253886,True,36,1
AM-K-22K21S1,642,experiment,50,↓,down,↓,0.5863534000236541,True,36,1
AM-K-22K21S1,643,experiment,62,→,left,←,0.8623684998601675,False,36,1
AM-K-22K21S1,644,experiment,87,↓,left,←,0.47907870006747544,False,36,1
AM-K-22K21S1,645,experiment,48,→,right,→,0.978645599912852,True,36,1
AM-K-22K21S1,646,experiment,55,←,left,←,0.4000848000869155,True,36,1
AM-K-22K21S1,647,experiment,64,↑,left,←,0.8193781001027673,False,36,0
AM-K-22K21S1,648,experiment,56,↑,up,↑,0.6481331000104547,True,36,1
AM-K-22K21S1,649,experiment,61,←,left,←,0.6651865998283029,True,36,1
AM-K-22K21S1,650,experiment,65,→,left,←,1.2003715999890119,False,36,1
AM-K-22K21S1,651,experiment,88,→,left,←,0.5468123001046479,False,36,1
AM-K-22K21S1,652,experiment,106,←,left,←,1.4252253000158817,True,36,1
AM-K-22K21S1,653,experiment,100,←,left,←,0.5342307998798788,True,36,1
AM-K-22K21S1,654,experiment,67,←,left,←,0.47515149996615946,True,36,1
AM-K-22K21S1,655,experiment,77,→,left,←,0.3587944000028074,False,36,1
AM-K-22K21S1,656,experiment,101,↑,up,↑,0.5805365999694914,True,36,0
AM-K-22K21S1,657,experiment,96,↑,down,↓,0.1924922000616789,False,36,1
AM-K-22K21S1,658,experiment,92,↑,left,←,0.47408859990537167,False,36,0
AM-K-22K21S1,659,experiment,86,→,right,→,0.5299655999988317,True,36,0
AM-K-22K21S1,660,experiment,83,←,right,→,1.2648847999516875,False,36,1
AM-K-22K21S1,661,experiment,59,←,left,←,0.4826168001163751,True,36,1
AM-K-22K21S1,662,experiment,93,←,right,→,0.6632071000058204,False,36,1
AM-K-22K21S1,663,experiment,79,→,left,←,0.5141248998697847,False,36,1
AM-K-22K21S1,664,experiment,80,→,right,→,0.44335180008783937,True,36,1
AM-K-22K21S1,665,experiment,97,↑,up,↑,0.4878790001384914,True,36,0
AM-K-22K21S1,666,experiment,95,←,left,←,0.5721244998276234,True,36,1
AM-K-22K21S1,667,experiment,84,↑,left,←,0.3507513999938965,False,36,1
AM-K-22K21S1,668,experiment,98,→,left,←,0.8575261998921633,False,36,0
AM-K-22K21S1,669,experiment,52,↑,up,↑,0.5575131000950933,True,36,1
AM-K-22K21S1,670,experiment,99,↑,up,↑,0.590135799953714,True,36,1
AM-K-22K21S1,671,training,96,↓,down,↓,0.8381174001842737,True,36,0
AM-K-22K21S1,672,training,95,→,right,→,0.5644314999226481,True,36,1
AM-K-22K21S1,673,experiment,54,↓,down,↓,0.5954281000886112,True,36,1
AM-K-22K21S1,674,experiment,77,←,left,←,0.8340537999756634,True,36,1
AM-K-22K21S1,675,experiment,78,↓,no_key,no_letter,-1.0,False,36,1
AM-K-22K21S1,676,experiment,62,←,no_key,no_letter,-1.0,False,36,1
AM-K-22K21S1,677,experiment,102,↓,down,↓,0.577347100013867,True,36,1
AM-K-22K21S1,678,experiment,92,→,right,→,0.7073808000423014,True,36,1
AM-K-22K21S1,679,experiment,97,↑,up,↑,0.68639099993743,True,36,1
AM-K-22K21S1,680,experiment,61,↓,up,↑,1.478724000044167,False,36,1
AM-K-22K21S1,681,experiment,72,↓,down,↓,0.7312125999014825,True,36,1
AM-K-22K21S1,682,experiment,53,←,left,←,0.7558492000680417,True,36,1
AM-K-22K21S1,683,experiment,49,←,left,←,0.6450712999794632,True,36,1
AM-K-22K21S1,684,experiment,67,→,right,→,0.668678600108251,True,36,1
AM-K-22K21S1,685,experiment,76,↑,no_key,no_letter,-1.0,False,36,1
AM-K-22K21S1,686,experiment,106,↑,up,↑,0.5738251998554915,True,36,1
AM-K-22K21S1,687,experiment,69,→,right,→,0.6159592000767589,True,36,1
AM-K-22K21S1,688,experiment,79,→,right,→,0.7322426999453455,True,36,1
AM-K-22K21S1,689,experiment,100,←,left,←,0.5897683999501169,True,36,1
AM-K-22K21S1,690,experiment,87,↑,up,↑,0.5523812999017537,True,36,1
AM-K-22K21S1,691,experiment,50,→,up,↑,0.9612954999320209,False,36,1
AM-K-22K21S1,692,experiment,60,←,left,←,0.7108637001365423,True,36,1
AM-K-22K21S1,693,experiment,107,←,left,←,0.5825330999214202,True,36,1
AM-K-22K21S1,694,experiment,95,→,right,→,0.7352185000199825,True,36,1
AM-K-22K21S1,695,experiment,59,↓,down,↓,0.8058698000386357,True,36,1
AM-K-22K21S1,696,experiment,57,↓,down,↓,0.6583221999462694,True,36,1
AM-K-22K21S1,697,experiment,83,→,right,→,1.964208000106737,True,36,1
AM-K-22K21S1,698,experiment,56,↑,up,↑,0.6342853999231011,True,36,1
AM-K-22K21S1,699,experiment,74,←,left,←,0.5521435998380184,True,36,1
AM-K-22K21S1,700,experiment,108,←,left,←,0.8936161999590695,True,36,1
AM-K-22K21S1,701,experiment,96,↓,left,←,1.0737789999693632,False,36,1
AM-K-22K21S1,702,experiment,91,←,left,←,0.6478798999451101,True,36,1
AM-K-22K21S1,703,experiment,66,↑,up,↑,0.6956468999851495,True,36,1
AM-K-22K21S1,704,experiment,58,←,left,←,0.6642330000177026,True,36,1
AM-K-22K21S1,705,experiment,89,→,right,→,0.6156856000889093,True,36,1
AM-K-22K21S1,706,experiment,98,←,left,←,0.6380336000584066,True,36,1
AM-K-22K21S1,707,experiment,80,←,left,←,0.38416989985853434,True,36,1
AM-K-22K21S1,708,experiment,88,↓,down,↓,0.7245294998865575,True,36,0
AM-K-22K21S1,709,experiment,70,←,left,←,0.679679499939084,True,36,1
AM-K-22K21S1,710,experiment,105,←,left,←,0.3174266000278294,True,36,1
AM-K-22K21S1,711,experiment,99,←,left,←,0.6351332999765873,True,36,0
AM-K-22K21S1,712,experiment,64,←,left,←,0.7962962000165135,True,36,1
AM-K-22K21S1,713,experiment,85,↓,left,←,0.7514643000904471,False,36,1
AM-K-22K21S1,714,experiment,71,→,left,←,0.6896302001550794,False,36,1
AM-K-22K21S1,715,experiment,75,↑,up,↑,0.748769799945876,True,36,1
AM-K-22K21S1,716,experiment,104,↑,left,←,1.5716109001077712,False,36,1
AM-K-22K21S1,717,experiment,94,↑,up,↑,0.8453497998416424,True,36,1
AM-K-22K21S1,718,experiment,103,↓,left,←,0.8088392000645399,False,36,1
AM-K-22K21S1,719,experiment,101,→,right,→,0.8551449000369757,True,36,1
AM-K-22K21S1,720,experiment,51,↓,no_key,no_letter,-1.0,False,36,1
AM-K-22K21S1,721,experiment,84,↑,up,↑,0.7437332000117749,True,36,1
AM-K-22K21S1,722,experiment,55,←,left,←,0.4173218999058008,True,36,1
AM-K-22K21S1,723,experiment,63,↑,up,↑,1.0175594999454916,True,36,0
AM-K-22K21S1,724,experiment,81,→,right,→,0.5972253000363708,True,36,1
AM-K-22K21S1,725,experiment,48,→,right,→,1.6609781999140978,True,36,1
AM-K-22K21S1,726,experiment,65,←,left,←,0.4253020000178367,True,36,1
AM-K-22K21S1,727,experiment,93,→,right,→,0.7239314999897033,True,36,0
AM-K-22K21S1,728,experiment,68,↓,down,↓,1.2639981000684202,True,36,1
AM-K-22K21S1,729,experiment,52,↓,down,↓,1.603952300036326,True,36,1
AM-K-22K21S1,730,experiment,90,←,left,←,0.64511219994165,True,36,1
AM-K-22K21S1,731,experiment,82,→,right,→,0.8961886998731643,True,36,1
AM-K-22K21S1,732,experiment,73,↑,up,↑,0.49156940006650984,True,36,1
AM-K-22K21S1,733,experiment,86,→,right,→,0.7707587999757379,True,36,1
AM-K-22K21S1,734,training,77,↑,up,↑,0.47118550003506243,True,36,0
AM-K-22K21S1,735,training,72,←,left,←,0.47570119984447956,True,36,1
AM-K-22K21S1,736,experiment,80,→,right,→,0.8129209000617266,True,36,1
AM-K-22K21S1,737,experiment,48,→,right,→,1.2603998000267893,True,36,1
AM-K-22K21S1,738,experiment,81,←,left,←,0.37571970000863075,True,36,1
AM-K-22K21S1,739,experiment,84,←,left,←,0.7471944000571966,True,36,0
AM-K-22K21S1,740,experiment,68,↓,down,↓,0.7261999000329524,True,36,1
AM-K-22K21S1,741,experiment,73,→,right,→,0.9285124000161886,True,36,1
AM-K-22K21S1,742,experiment,50,↑,up,↑,0.5543875000439584,True,36,1
AM-K-22K21S1,743,experiment,98,↑,up,↑,0.4994137999601662,True,36,1
AM-K-22K21S1,744,experiment,88,↑,no_key,no_letter,-1.0,False,36,1
AM-K-22K21S1,745,experiment,55,↓,down,↓,0.7366600001696497,True,36,1
AM-K-22K21S1,746,experiment,49,↑,up,↑,0.706728900084272,True,36,1
AM-K-22K21S1,747,experiment,75,←,left,←,0.5971476000268012,True,36,1
AM-K-22K21S1,748,experiment,107,←,left,←,0.4737672999035567,True,36,1
AM-K-22K21S1,749,experiment,102,→,right,→,0.4761106998194009,True,36,1
AM-K-22K21S1,750,experiment,78,↑,up,↑,0.662458100123331,True,36,1
AM-K-22K21S1,751,experiment,96,↓,down,↓,0.5396340999286622,True,36,1
AM-K-22K21S1,752,experiment,76,↓,no_key,no_letter,-1.0,False,36,1
AM-K-22K21S1,753,experiment,67,→,right,→,0.6549333999864757,True,36,1
AM-K-22K21S1,754,experiment,103,←,left,←,0.5379345000255853,True,36,1
AM-K-22K21S1,755,experiment,104,↑,no_key,no_letter,-1.0,False,36,1
AM-K-22K21S1,756,experiment,60,→,right,→,0.5421125001739711,True,36,1
AM-K-22K21S1,757,experiment,72,↑,right,→,1.144202700117603,False,36,1
AM-K-22K21S1,758,experiment,105,↑,up,↑,0.7590264999307692,True,36,1
AM-K-22K21S1,759,experiment,51,→,right,→,0.7194256000220776,True,36,1
AM-K-22K21S1,760,experiment,99,↑,right,→,1.017540599917993,False,36,1
AM-K-22K21S1,761,experiment,94,↓,down,↓,0.7610969000961632,True,36,1
AM-K-22K21S1,762,experiment,61,→,right,→,0.7424023000057787,True,36,1
AM-K-22K21S1,763,experiment,82,↑,up,↑,0.8368937000632286,True,36,1
AM-K-22K21S1,764,experiment,106,↓,down,↓,0.9518529002089053,True,36,1
AM-K-22K21S1,765,experiment,66,↓,down,↓,1.452131199883297,True,36,1
AM-K-22K21S1,766,experiment,100,←,left,←,0.5757718998938799,True,36,1
AM-K-22K21S1,767,experiment,58,↑,left,←,0.3425390999764204,False,36,1
AM-K-22K21S1,768,experiment,69,↓,down,↓,0.8719603999052197,True,36,0
AM-K-22K21S1,769,experiment,90,↑,up,↑,0.550604599993676,True,36,1
AM-K-22K21S1,770,experiment,56,↓,down,↓,0.6298924000002444,True,36,1
AM-K-22K21S1,771,experiment,108,→,right,→,0.6563339999411255,True,36,1
AM-K-22K21S1,772,experiment,53,↓,down,↓,0.6440719000529498,True,36,1
AM-K-22K21S1,773,experiment,57,↓,down,↓,0.5507356999441981,True,36,1
AM-K-22K21S1,774,experiment,92,↓,down,↓,0.64201660011895,True,36,1
AM-K-22K21S1,775,experiment,97,↓,down,↓,0.6956988000310957,True,36,1
AM-K-22K21S1,776,experiment,87,→,right,→,0.8143726999405771,True,36,1
AM-K-22K21S1,777,experiment,62,↓,right,→,1.4891582001000643,False,36,1
AM-K-22K21S1,778,experiment,79,↓,down,↓,0.6187457998748869,True,36,1
AM-K-22K21S1,779,experiment,74,↑,up,↑,0.6167164999060333,True,36,1
AM-K-22K21S1,780,experiment,77,↓,down,↓,0.7020539999939501,True,36,1
AM-K-22K21S1,781,experiment,59,←,left,←,0.7342328000813723,True,36,1
AM-K-22K21S1,782,experiment,95,→,right,→,0.7933326000347733,True,36,1
AM-K-22K21S1,783,experiment,83,→,no_key,no_letter,-1.0,False,36,1
AM-K-22K21S1,784,experiment,71,↓,down,↓,0.6305471998639405,True,36,1
AM-K-22K21S1,785,experiment,52,↑,up,↑,1.0195190999656916,True,36,1
AM-K-22K21S1,786,experiment,101,→,right,→,0.48087269999086857,True,36,1
AM-K-22K21S1,787,experiment,54,↑,up,↑,0.8996065999381244,True,36,1
AM-K-22K21S1,788,experiment,93,↓,down,↓,0.6560893999412656,True,36,1
AM-K-22K21S1,789,experiment,85,←,left,←,0.4339906999375671,True,36,1
AM-K-22K21S1,790,experiment,63,↓,down,↓,0.5460622999817133,True,36,0
AM-K-22K21S1,791,experiment,86,↑,no_key,no_letter,-1.0,False,36,1
AM-K-22K21S1,792,experiment,70,←,left,←,0.67280020006001,True,36,1
AM-K-22K21S1,793,experiment,65,←,left,←,0.7997198000084609,True,36,1
AM-K-22K21S1,794,experiment,91,↑,left,←,1.2651859000325203,False,36,1
AM-K-22K21S1,795,experiment,64,→,no_key,no_letter,-1.0,False,36,1
AM-K-22K21S1,796,experiment,89,←,left,←,1.1079945999663323,True,36,1
AM-K-22K21S1,797,training,88,→,right,→,0.40082130022346973,True,36,0
AM-K-22K21S1,798,training,65,↓,down,↓,0.6212975999806076,True,36,0
AM-K-22K21S1,799,experiment,58,→,right,→,0.4497772001195699,True,36,1
AM-K-22K21S1,800,experiment,93,↑,up,↑,0.7750664001796395,True,36,0
AM-K-22K21S1,801,experiment,48,↓,down,↓,0.7361222999170423,True,36,1
AM-K-22K21S1,802,experiment,89,→,right,→,0.3342887999024242,True,36,1
AM-K-22K21S1,803,experiment,108,↑,up,↑,0.5153087999206036,True,36,0
AM-K-22K21S1,804,experiment,86,↓,left,←,0.9930801999289542,False,36,1
AM-K-22K21S1,805,experiment,95,↓,down,↓,0.7531836000271142,True,36,1
AM-K-22K21S1,806,experiment,73,←,right,→,1.0987175998743623,False,36,1
AM-K-22K21S1,807,experiment,49,↓,left,←,0.9343189001083374,False,36,1
AM-K-22K21S1,808,experiment,71,↑,up,↑,0.5048966999165714,True,36,1
AM-K-22K21S1,809,experiment,50,→,right,→,0.6275996000040323,True,36,1
AM-K-22K21S1,810,experiment,83,↑,left,←,0.24342640000395477,False,36,1
AM-K-22K21S1,811,experiment,84,←,right,→,0.33409140002913773,False,36,0
AM-K-22K21S1,812,experiment,102,→,right,→,0.4509025998413563,True,36,0
AM-K-22K21S1,813,experiment,77,↑,right,→,0.4340590999927372,False,36,0
AM-K-22K21S1,814,experiment,97,→,right,→,0.7039952999912202,True,36,0
AM-K-22K21S1,815,experiment,55,↓,up,↑,0.39217080012895167,False,36,1
AM-K-22K21S1,816,experiment,105,↑,down,↓,0.2684863000176847,False,36,0
AM-K-22K21S1,817,experiment,63,→,right,→,0.6686980999074876,True,36,0
AM-K-22K21S1,818,experiment,66,↓,left,←,0.4336168998852372,False,36,1
AM-K-22K21S1,819,experiment,56,↑,up,↑,0.9116799000184983,True,36,0
AM-K-22K21S1,820,experiment,96,→,right,→,0.5064872000366449,True,36,1
AM-K-22K21S1,821,experiment,74,←,left,←,0.5090108998119831,True,36,1
AM-K-22K21S1,822,experiment,78,↑,up,↑,0.718524299794808,True,36,1
AM-K-22K21S1,823,experiment,75,↑,up,↑,0.552555900067091,True,36,1
AM-K-22K21S1,824,experiment,76,↓,down,↓,0.8250508001074195,True,36,1
AM-K-22K21S1,825,experiment,88,→,right,→,0.6423171998467296,True,36,1
AM-K-22K21S1,826,experiment,59,↑,up,↑,0.6208754999097437,True,36,1
AM-K-22K21S1,827,experiment,98,→,right,→,0.36738230008631945,True,36,1
AM-K-22K21S1,828,experiment,81,←,right,→,0.5203263000585139,False,36,0
AM-K-22K21S1,829,experiment,68,↓,left,←,0.5805111001245677,False,36,1
AM-K-22K21S1,830,experiment,54,↑,up,↑,0.7470231999177486,True,36,1
AM-K-22K21S1,831,experiment,69,↓,up,↑,0.9496942998375744,False,36,1
AM-K-22K21S1,832,experiment,107,→,right,→,0.4918522001244128,True,36,1
AM-K-22K21S1,833,experiment,72,→,right,→,0.5677178001496941,True,36,1
AM-K-22K21S1,834,experiment,52,↓,down,↓,0.8475438999012113,True,36,1
AM-K-22K21S1,835,experiment,99,↓,down,↓,0.9242279999889433,True,36,1
AM-K-22K21S1,836,experiment,104,←,right,→,0.5719781001098454,False,36,1
AM-K-22K21S1,837,experiment,62,↓,down,↓,0.6963996000122279,True,36,1
AM-K-22K21S1,838,experiment,64,←,left,←,0.35078389989212155,True,36,1
AM-K-22K21S1,839,experiment,103,↑,down,↓,0.6058736999984831,False,36,0
AM-K-22K21S1,840,experiment,100,→,right,→,1.2280365000478923,True,36,1
AM-K-22K21S1,841,experiment,65,→,right,→,0.6127939000725746,True,36,1
AM-K-22K21S1,842,experiment,53,↑,down,↓,0.6423688000068069,False,36,1
AM-K-22K21S1,843,experiment,91,→,right,→,0.514273599954322,True,36,1
AM-K-22K21S1,844,experiment,79,→,right,→,0.594795900164172,True,36,1
AM-K-22K21S1,845,experiment,87,←,left,←,0.4939157001208514,True,36,1
AM-K-22K21S1,846,experiment,106,→,right,→,0.36732909991405904,True,36,1
AM-K-22K21S1,847,experiment,80,→,right,→,0.9004320001695305,True,36,0
AM-K-22K21S1,848,experiment,70,←,left,←,0.7927335000131279,True,36,1
AM-K-22K21S1,849,experiment,92,←,left,←,0.6020710000302643,True,36,1
AM-K-22K21S1,850,experiment,82,→,right,→,0.5585455999244004,True,36,1
AM-K-22K21S1,851,experiment,101,↓,left,←,0.8063880000263453,False,36,1
AM-K-22K21S1,852,experiment,85,↓,down,↓,0.6012065999675542,True,36,1
AM-K-22K21S1,853,experiment,57,←,left,←,0.45099559985101223,True,36,1
AM-K-22K21S1,854,experiment,67,→,right,→,0.48567140009254217,True,36,0
AM-K-22K21S1,855,experiment,94,↓,down,↓,0.7059720000252128,True,36,1
AM-K-22K21S1,856,experiment,90,↓,down,↓,0.8151809999253601,True,36,1
AM-K-22K21S1,857,experiment,61,→,no_key,no_letter,-1.0,False,36,1
AM-K-22K21S1,858,experiment,51,←,left,←,0.6018938000779599,True,36,1
AM-K-22K21S1,859,experiment,60,↑,no_key,no_letter,-1.0,False,36,1
AM-K-22K21S1,860,training,102,↑,up,↑,0.622589300153777,True,36,0
AM-K-22K21S1,861,training,73,↓,down,↓,0.61305409995839,True,36,1
AM-K-22K21S1,862,experiment,62,↑,up,↑,0.4501592998858541,True,36,1
AM-K-22K21S1,863,experiment,86,↑,up,↑,0.40920590003952384,True,36,0
AM-K-22K21S1,864,experiment,83,←,right,→,0.5556190002243966,False,36,0
AM-K-22K21S1,865,experiment,108,↓,up,↑,0.8808331999462098,False,36,1
AM-K-22K21S1,866,experiment,56,←,down,↓,0.3426907998509705,False,36,1
AM-K-22K21S1,867,experiment,103,↓,down,↓,0.8818896999582648,True,36,0
AM-K-22K21S1,868,experiment,80,→,right,→,0.5798729001544416,True,36,1
AM-K-22K21S1,869,experiment,88,→,right,→,0.5192161998711526,True,36,1
AM-K-22K21S1,870,experiment,72,↓,down,↓,0.6422031000256538,True,36,1
AM-K-22K21S1,871,experiment,68,↓,down,↓,0.6096667000092566,True,36,1
AM-K-22K21S1,872,experiment,79,→,right,→,0.5027143999468535,True,36,1
AM-K-22K21S1,873,experiment,107,→,right,→,0.43559130001813173,True,36,1
AM-K-22K21S1,874,experiment,78,←,left,←,0.4179046999197453,True,36,0
AM-K-22K21S1,875,experiment,52,→,right,→,0.39307590015232563,True,36,0
AM-K-22K21S1,876,experiment,70,↓,down,↓,0.5360715999267995,True,36,0
AM-K-22K21S1,877,experiment,81,↑,up,↑,0.7678174001630396,True,36,1
AM-K-22K21S1,878,experiment,65,↑,up,↑,0.9069265997968614,True,36,1
AM-K-22K21S1,879,experiment,57,↑,up,↑,0.4256748000625521,True,36,1
AM-K-22K21S1,880,experiment,66,←,left,←,0.771995099959895,True,36,0
AM-K-22K21S1,881,experiment,50,↓,down,↓,0.6838998000603169,True,36,1
AM-K-22K21S1,882,experiment,60,→,right,→,0.6282430000137538,True,36,1
AM-K-22K21S1,883,experiment,76,←,left,←,0.6737166000530124,True,36,1
AM-K-22K21S1,884,experiment,82,↓,down,↓,0.4756239000707865,True,36,1
AM-K-22K21S1,885,experiment,89,↓,down,↓,0.4174055999610573,True,36,1
AM-K-22K21S1,886,experiment,74,←,left,←,0.5522531000897288,True,36,0
AM-K-22K21S1,887,experiment,67,→,right,→,0.4917764998972416,True,36,1
AM-K-22K21S1,888,experiment,63,↓,down,↓,0.46734119998291135,True,36,1
AM-K-22K21S1,889,experiment,98,←,left,←,0.47874599997885525,True,36,0
AM-K-22K21S1,890,experiment,105,↓,no_key,no_letter,-1.0,False,36,1
AM-K-22K21S1,891,experiment,84,→,right,→,0.4695964001584798,True,36,1
AM-K-22K21S1,892,experiment,90,↑,up,↑,0.6439110999926925,True,36,0
AM-K-22K21S1,893,experiment,99,→,right,→,0.6165906998794526,True,36,1
AM-K-22K21S1,894,experiment,51,←,left,←,0.8790024998597801,True,36,1
AM-K-22K21S1,895,experiment,97,↑,left,←,1.2192830999847502,False,36,1
AM-K-22K21S1,896,experiment,49,←,left,←,0.5459545000921935,True,36,1
AM-K-22K21S1,897,experiment,96,↑,up,↑,0.5954307001084089,True,36,1
AM-K-22K21S1,898,experiment,91,→,right,→,0.5091482999268919,True,36,1
AM-K-22K21S1,899,experiment,77,↓,down,↓,0.7110681999474764,True,36,1
AM-K-22K21S1,900,experiment,106,↑,up,↑,0.646938200108707,True,36,1
AM-K-22K21S1,901,experiment,87,↑,up,↑,0.5916389001067728,True,36,1
AM-K-22K21S1,902,experiment,73,↓,down,↓,0.8473573999945074,True,36,1
AM-K-22K21S1,903,experiment,54,→,right,→,1.291218499885872,True,36,1
AM-K-22K21S1,904,experiment,92,↓,down,↓,0.7525262001436204,True,36,1
AM-K-22K21S1,905,experiment,94,↑,down,↓,0.4168048999272287,False,36,1
AM-K-22K21S1,906,experiment,53,←,left,←,0.48031380004249513,True,36,0
AM-K-22K21S1,907,experiment,61,↓,down,↓,0.5521805000025779,True,36,1
AM-K-22K21S1,908,experiment,85,←,left,←,0.5894946998450905,True,36,1
AM-K-22K21S1,909,experiment,59,↑,up,↑,0.7139029998797923,True,36,1
AM-K-22K21S1,910,experiment,101,↑,up,↑,0.7229745998047292,True,36,1
AM-K-22K21S1,911,experiment,69,→,right,→,0.7349519999697804,True,36,1
AM-K-22K21S1,912,experiment,104,←,left,←,0.5505142998881638,True,36,1
AM-K-22K21S1,913,experiment,102,↑,up,↑,0.5984897001180798,True,36,1
AM-K-22K21S1,914,experiment,58,←,no_key,no_letter,-1.0,False,36,1
AM-K-22K21S1,915,experiment,93,↑,up,↑,0.644479600014165,True,36,1
AM-K-22K21S1,916,experiment,48,←,left,←,0.6344951000064611,True,36,1
AM-K-22K21S1,917,experiment,64,→,no_key,no_letter,-1.0,False,36,1
AM-K-22K21S1,918,experiment,95,←,left,←,0.5808445001021028,True,36,1
AM-K-22K21S1,919,experiment,55,↓,down,↓,0.6429528000298887,True,36,1
AM-K-22K21S1,920,experiment,71,↑,down,↓,0.9454135000705719,False,36,1
AM-K-22K21S1,921,experiment,75,↑,up,↑,0.48262470006011426,True,36,1
AM-K-22K21S1,922,experiment,100,→,right,→,0.581109199905768,True,36,1
AM-K-22K21S1,923,training,107,↓,left,←,0.9561717000324279,False,36,0
AM-K-22K21S1,924,training,63,←,left,←,0.4099264000542462,True,36,1
AM-K-22K21S1,925,experiment,57,↑,left,←,0.4770180000923574,False,36,0
AM-K-22K21S1,926,experiment,85,↓,down,↓,0.6443748997990042,True,36,1
AM-K-22K21S1,927,experiment,68,↓,down,↓,0.5158048998564482,True,36,1
AM-K-22K21S1,928,experiment,54,↑,up,↑,0.5088774000760168,True,36,1
AM-K-22K21S1,929,experiment,77,→,left,←,0.5026646999176592,False,36,1
AM-K-22K21S1,930,experiment,87,↓,right,→,0.2684999001212418,False,36,1
AM-K-22K21S1,931,experiment,56,↓,down,↓,0.4867458001244813,True,36,0
AM-K-22K21S1,932,experiment,59,↓,down,↓,0.3513458000961691,True,36,1
AM-K-22K21S1,933,experiment,64,↓,down,↓,0.5073184999637306,True,36,0
AM-K-22K21S1,934,experiment,80,←,left,←,0.5003209998831153,True,36,1
AM-K-22K21S1,935,experiment,48,←,right,→,1.0319562000222504,False,36,1
AM-K-22K21S1,936,experiment,60,→,right,→,0.44336559996008873,True,36,1
AM-K-22K21S1,937,experiment,94,↑,up,↑,0.45095760002732277,True,36,0
AM-K-22K21S1,938,experiment,106,↑,up,↑,0.4749171999283135,True,36,0
AM-K-22K21S1,939,experiment,70,←,left,←,0.4802135000936687,True,36,1
AM-K-22K21S1,940,experiment,101,↓,down,↓,0.6343902999069542,True,36,1
AM-K-22K21S1,941,experiment,67,←,left,←,0.7867061998695135,True,36,1
AM-K-22K21S1,942,experiment,74,←,left,←,0.6664067001547664,True,36,1
AM-K-22K21S1,943,experiment,78,←,left,←,0.5252787000499666,True,36,1
AM-K-22K21S1,944,experiment,82,↓,left,←,0.7569409999996424,False,36,1
AM-K-22K21S1,945,experiment,105,↑,up,↑,0.5070036000106484,True,36,1
AM-K-22K21S1,946,experiment,81,↓,down,↓,0.5394995999522507,True,36,1
AM-K-22K21S1,947,experiment,84,←,left,←,0.5294709000736475,True,36,1
AM-K-22K21S1,948,experiment,53,↑,up,↑,0.626662899972871,True,36,1
AM-K-22K21S1,949,experiment,96,↓,down,↓,0.6813572999089956,True,36,1
AM-K-22K21S1,950,experiment,79,→,left,←,0.37571910000406206,False,36,1
AM-K-22K21S1,951,experiment,52,←,left,←,0.6982229000423104,True,36,0
AM-K-22K21S1,952,experiment,75,↑,no_key,no_letter,-1.0,False,36,1
AM-K-22K21S1,953,experiment,83,←,left,←,0.5218909000977874,True,36,1
AM-K-22K21S1,954,experiment,93,←,left,←,0.5258182999677956,True,36,1
AM-K-22K21S1,955,experiment,58,↑,up,↑,0.7571131999138743,True,36,1
AM-K-22K21S1,956,experiment,88,↓,down,↓,0.8411016999743879,True,36,1
AM-K-22K21S1,957,experiment,76,→,right,→,0.6621424001641572,True,36,1
AM-K-22K21S1,958,experiment,107,↑,up,↑,0.5194606999866664,True,36,1
AM-K-22K21S1,959,experiment,61,→,right,→,0.742462299996987,True,36,1
AM-K-22K21S1,960,experiment,103,↑,up,↑,0.4422028998378664,True,36,1
AM-K-22K21S1,961,experiment,95,←,left,←,0.46850920002907515,True,36,0
AM-K-22K21S1,962,experiment,50,←,left,←,0.39353340002708137,True,36,0
AM-K-22K21S1,963,experiment,86,↑,up,↑,0.5468910001218319,True,36,0
AM-K-22K21S1,964,experiment,98,↓,down,↓,0.5800970001146197,True,36,1
AM-K-22K21S1,965,experiment,102,↓,down,↓,0.49864340014755726,True,36,1
AM-K-22K21S1,966,experiment,104,↓,down,↓,0.7639043000526726,True,36,1
AM-K-22K21S1,967,experiment,62,←,left,←,0.5042888999450952,True,36,1
AM-K-22K21S1,968,experiment,99,↓,down,↓,0.6666949999053031,True,36,1
AM-K-22K21S1,969,experiment,63,→,down,↓,1.1304977000690997,False,36,1
AM-K-22K21S1,970,experiment,51,←,left,←,0.4423521999269724,True,36,1
AM-K-22K21S1,971,experiment,72,↑,up,↑,0.5536018998827785,True,36,0
AM-K-22K21S1,972,experiment,69,↑,up,↑,0.4925176000688225,True,36,1
AM-K-22K21S1,973,experiment,65,→,right,→,0.6832074001431465,True,36,1
AM-K-22K21S1,974,experiment,91,↓,down,↓,0.49694850016385317,True,36,1
AM-K-22K21S1,975,experiment,66,↑,up,↑,0.4946538000367582,True,36,1
AM-K-22K21S1,976,experiment,49,↓,down,↓,0.5780050999019295,True,36,1
AM-K-22K21S1,977,experiment,97,←,left,←,0.6503238000441343,True,36,1
AM-K-22K21S1,978,experiment,108,→,right,→,0.5003386000171304,True,36,1
AM-K-22K21S1,979,experiment,92,↓,down,↓,0.5692788001615554,True,36,1
AM-K-22K21S1,980,experiment,55,↓,down,↓,0.575888300081715,True,36,1
AM-K-22K21S1,981,experiment,71,↑,no_key,no_letter,-1.0,False,36,1
AM-K-22K21S1,982,experiment,100,↓,down,↓,0.5044732000678778,True,36,1
AM-K-22K21S1,983,experiment,73,→,right,→,0.6115552000701427,True,36,1
AM-K-22K21S1,984,experiment,90,↑,up,↑,0.700892599998042,True,36,1
AM-K-22K21S1,985,experiment,89,←,left,←,0.5468977999407798,True,36,1
AM-K-22K21S1,986,training,84,←,left,←,0.4848183998838067,True,36,0
AM-K-22K21S1,987,training,88,↑,up,↑,0.5713895000517368,True,36,1
AM-K-22K21S1,988,experiment,55,←,left,←,0.4507706998847425,True,36,1
AM-K-22K21S1,989,experiment,99,↓,down,↓,0.7420021002180874,True,36,0
AM-K-22K21S1,990,experiment,87,↑,up,↑,0.5790858999826014,True,36,1
AM-K-22K21S1,991,experiment,95,↓,down,↓,0.5959538000170141,True,36,1
AM-K-22K21S1,992,experiment,86,↑,up,↑,0.686861100140959,True,36,1
AM-K-22K21S1,993,experiment,103,↑,down,↓,0.752670899964869,False,36,1
AM-K-22K21S1,994,experiment,108,←,right,→,0.5183794999029487,False,36,1
AM-K-22K21S1,995,experiment,71,←,left,←,0.43503680010326207,True,36,1
AM-K-22K21S1,996,experiment,102,↑,down,↓,0.6056158998981118,False,36,0
AM-K-22K21S1,997,experiment,104,→,right,→,0.5143613000400364,True,36,1
AM-K-22K21S1,998,experiment,49,↓,left,←,0.5011986000463367,False,36,1
AM-K-22K21S1,999,experiment,62,→,right,→,0.4925881000235677,True,36,1
AM-K-22K21S1,1000,experiment,68,→,right,→,0.4422611000481993,True,36,1
AM-K-22K21S1,1001,experiment,98,↑,down,↓,0.5186862999107689,False,36,0
AM-K-22K21S1,1002,experiment,82,→,right,→,0.45050959987565875,True,36,1
AM-K-22K21S1,1003,experiment,91,↑,up,↑,0.5974258999340236,True,36,0
AM-K-22K21S1,1004,experiment,67,→,right,→,0.5268365000374615,True,36,1
AM-K-22K21S1,1005,experiment,96,←,left,←,0.6497331999707967,True,36,1
AM-K-22K21S1,1006,experiment,63,↑,up,↑,0.4905304000712931,True,36,1
AM-K-22K21S1,1007,experiment,60,→,up,↑,0.8663922999985516,False,36,1
AM-K-22K21S1,1008,experiment,107,↑,up,↑,0.6199125999119133,True,36,1
AM-K-22K21S1,1009,experiment,94,←,up,↑,0.6835455999244004,False,36,1
AM-K-22K21S1,1010,experiment,58,↓,down,↓,0.7325267000123858,True,36,1
AM-K-22K21S1,1011,experiment,56,↑,down,↓,0.7881833999417722,False,36,1
AM-K-22K21S1,1012,experiment,101,↑,up,↑,0.522891900036484,True,36,1
AM-K-22K21S1,1013,experiment,50,↓,down,↓,0.4852585999760777,True,36,1
AM-K-22K21S1,1014,experiment,106,↓,down,↓,0.6940792999230325,True,36,1
AM-K-22K21S1,1015,experiment,52,←,left,←,0.6327365001197904,True,36,1
AM-K-22K21S1,1016,experiment,90,→,right,→,0.4731950999703258,True,36,1
AM-K-22K21S1,1017,experiment,61,↓,down,↓,0.6576283001340926,True,36,0
AM-K-22K21S1,1018,experiment,69,→,left,←,0.5120760998688638,False,36,1
AM-K-22K21S1,1019,experiment,88,↑,up,↑,0.645989399868995,True,36,1
AM-K-22K21S1,1020,experiment,79,↑,up,↑,0.4423738999757916,True,36,1
AM-K-22K21S1,1021,experiment,81,↓,down,↓,0.6441842999774963,True,36,0
AM-K-22K21S1,1022,experiment,78,←,left,←,0.5681620999239385,True,36,1
AM-K-22K21S1,1023,experiment,77,←,left,←,0.4717518000397831,True,36,1
AM-K-22K21S1,1024,experiment,93,←,left,←,0.533399400068447,True,36,0
AM-K-22K21S1,1025,experiment,97,↑,up,↑,0.679394899867475,True,36,1
AM-K-22K21S1,1026,experiment,53,←,left,←,0.5862948999274522,True,36,1
AM-K-22K21S1,1027,experiment,57,↓,down,↓,0.711570099927485,True,36,1
AM-K-22K21S1,1028,experiment,74,↓,down,↓,0.8102986998856068,True,36,1
AM-K-22K21S1,1029,experiment,76,←,left,←,0.5522803999483585,True,36,1
AM-K-22K21S1,1030,experiment,48,→,right,→,0.6181086001452059,True,36,1
AM-K-22K21S1,1031,experiment,70,↓,down,↓,0.6978037999942899,True,36,1
AM-K-22K21S1,1032,experiment,73,↑,up,↑,0.4850886999629438,True,36,1
AM-K-22K21S1,1033,experiment,89,↓,down,↓,0.7160685998387635,True,36,1
AM-K-22K21S1,1034,experiment,72,→,no_key,no_letter,-1.0,False,36,1
AM-K-22K21S1,1035,experiment,105,↑,up,↑,0.6368826001416892,True,36,1
AM-K-22K21S1,1036,experiment,75,↑,down,↓,0.6341954001691192,False,36,1
AM-K-22K21S1,1037,experiment,64,→,right,→,0.47600809996947646,True,36,1
AM-K-22K21S1,1038,experiment,59,↑,up,↑,0.5879661999642849,True,36,1
AM-K-22K21S1,1039,experiment,80,→,right,→,0.5056884998921305,True,36,1
AM-K-22K21S1,1040,experiment,85,↓,down,↓,0.6243841000832617,True,36,1
AM-K-22K21S1,1041,experiment,84,↓,down,↓,0.42619429994374514,True,36,1
AM-K-22K21S1,1042,experiment,51,↑,up,↑,0.6165671998169273,True,36,0
AM-K-22K21S1,1043,experiment,65,↓,down,↓,0.4352444999385625,True,36,1
AM-K-22K21S1,1044,experiment,66,↓,down,↓,0.4821136000100523,True,36,0
AM-K-22K21S1,1045,experiment,83,→,right,→,0.5546063999645412,True,36,1
AM-K-22K21S1,1046,experiment,54,↑,up,↑,0.4007411999627948,True,36,1
AM-K-22K21S1,1047,experiment,100,↑,up,↑,0.47289630002342165,True,36,0
AM-K-22K21S1,1048,experiment,92,←,left,←,0.4009483999107033,True,36,1
AM-K-22K21S1,1049,training,86,↓,no_key,no_letter,-1.0,False,36,0
AM-K-22K21S1,1050,training,89,↓,down,↓,0.5517012998461723,True,36,1
AM-K-22K21S1,1051,experiment,97,←,left,←,1.7131037001963705,True,36,1
AM-K-22K21S1,1052,experiment,89,→,right,→,0.6140736001543701,True,36,1
AM-K-22K21S1,1053,experiment,101,←,left,←,0.41736059985123575,True,36,1
AM-K-22K21S1,1054,experiment,87,←,left,←,0.3181667998433113,True,36,0
AM-K-22K21S1,1055,experiment,72,↓,left,←,0.3176829000003636,False,36,0
AM-K-22K21S1,1056,experiment,100,↓,down,↓,0.27663990017026663,True,36,0
AM-K-22K21S1,1057,experiment,104,↑,up,↑,0.5382328000850976,True,36,0
AM-K-22K21S1,1058,experiment,95,↑,up,↑,0.5570112001150846,True,36,1
AM-K-22K21S1,1059,experiment,88,←,left,←,0.5769096000585705,True,36,1
AM-K-22K21S1,1060,experiment,49,←,left,←,0.3923335000872612,True,36,1
AM-K-22K21S1,1061,experiment,93,←,left,←,0.2523646999616176,True,36,0
AM-K-22K21S1,1062,experiment,66,→,right,→,0.4340197001583874,True,36,0
AM-K-22K21S1,1063,experiment,56,←,left,←,0.29234530008397996,True,36,0
AM-K-22K21S1,1064,experiment,61,←,right,→,0.4175100999418646,False,36,0
AM-K-22K21S1,1065,experiment,82,↑,up,↑,0.5184896998107433,True,36,0
AM-K-22K21S1,1066,experiment,73,↑,up,↑,0.3250957999844104,True,36,1
AM-K-22K21S1,1067,experiment,57,↓,down,↓,0.608386600157246,True,36,0
AM-K-22K21S1,1068,experiment,86,←,left,←,0.417406199965626,True,36,1
AM-K-22K21S1,1069,experiment,62,↓,down,↓,0.677424699999392,True,36,0
AM-K-22K21S1,1070,experiment,92,→,right,→,0.5712449999991804,True,36,1
AM-K-22K21S1,1071,experiment,74,↓,left,←,0.2924438000191003,False,36,1
AM-K-22K21S1,1072,experiment,65,←,left,←,0.3499976000748575,True,36,0
AM-K-22K21S1,1073,experiment,60,←,left,←,0.6949160001240671,True,36,0
AM-K-22K21S1,1074,experiment,90,→,right,→,0.5250975000672042,True,36,1
AM-K-22K21S1,1075,experiment,78,←,left,←,0.3173566998448223,True,36,1
AM-K-22K21S1,1076,experiment,51,↑,up,↑,0.5757915999274701,True,36,0
AM-K-22K21S1,1077,experiment,77,↓,down,↓,0.5112529001198709,True,36,1
AM-K-22K21S1,1078,experiment,80,→,right,→,0.5437187000643462,True,36,1
AM-K-22K21S1,1079,experiment,54,↑,up,↑,1.263463599840179,True,36,1
AM-K-22K21S1,1080,experiment,108,→,right,→,0.5369701001327485,True,36,1
AM-K-22K21S1,1081,experiment,69,↑,up,↑,0.7158184999134392,True,36,1
AM-K-22K21S1,1082,experiment,59,↑,up,↑,0.350493400124833,True,36,1
AM-K-22K21S1,1083,experiment,75,←,left,←,0.4840029999613762,True,36,0
AM-K-22K21S1,1084,experiment,52,↑,up,↑,0.6145557998679578,True,36,1
AM-K-22K21S1,1085,experiment,106,↑,no_key,no_letter,-1.0,False,36,1
AM-K-22K21S1,1086,experiment,53,→,right,→,0.5538607998751104,True,36,1
AM-K-22K21S1,1087,experiment,84,↓,down,↓,0.6392598999664187,True,36,1
AM-K-22K21S1,1088,experiment,103,←,right,→,0.46723939990624785,False,36,1
AM-K-22K21S1,1089,experiment,96,→,right,→,0.4247574999462813,True,36,0
AM-K-22K21S1,1090,experiment,85,↓,down,↓,0.6819562001619488,True,36,0
AM-K-22K21S1,1091,experiment,79,↓,down,↓,0.692031699931249,True,36,1
AM-K-22K21S1,1092,experiment,50,↓,down,↓,0.8392126001417637,True,36,1
AM-K-22K21S1,1093,experiment,107,→,left,←,0.36786550004035234,False,36,1
AM-K-22K21S1,1094,experiment,64,↑,down,↓,0.580980199854821,False,36,0
AM-K-22K21S1,1095,experiment,99,←,left,←,0.6202428999822587,True,36,1
AM-K-22K21S1,1096,experiment,81,↑,up,↑,0.4173457999713719,True,36,1
AM-K-22K21S1,1097,experiment,83,↓,down,↓,0.491807300131768,True,36,0
AM-K-22K21S1,1098,experiment,58,→,no_key,no_letter,-1.0,False,36,1
AM-K-22K21S1,1099,experiment,105,→,right,→,0.6584125999361277,True,36,1
AM-K-22K21S1,1100,experiment,71,→,right,→,0.5119054999668151,True,36,1
AM-K-22K21S1,1101,experiment,91,↓,up,↑,0.6689855000004172,False,36,1
AM-K-22K21S1,1102,experiment,63,↑,up,↑,0.5729598999023438,True,36,1
AM-K-22K21S1,1103,experiment,94,←,left,←,0.40915189986117184,True,36,1
AM-K-22K21S1,1104,experiment,48,↓,up,↑,1.6774399999994785,False,36,0
AM-K-22K21S1,1105,experiment,98,←,left,←,0.7454939000308514,True,36,1
AM-K-22K21S1,1106,experiment,67,←,left,←,0.5730526000261307,True,36,1
AM-K-22K21S1,1107,experiment,76,↑,up,↑,0.6124102999456227,True,36,1
AM-K-22K21S1,1108,experiment,68,↓,down,↓,0.5411064999643713,True,36,1
AM-K-22K21S1,1109,experiment,102,→,no_key,no_letter,-1.0,False,36,1
AM-K-22K21S1,1110,experiment,55,←,left,←,0.5476613999344409,True,36,1
AM-K-22K21S1,1111,experiment,70,→,right,→,0.5260803001001477,True,36,1
AM-K-22K21S1,1112,training,104,↑,up,↑,0.4500490000937134,True,36,0
AM-K-22K21S1,1113,training,56,←,left,←,0.70224229991436,True,36,0
AM-K-22K21S1,1114,experiment,104,→,right,→,0.5992628000676632,True,36,1
AM-K-22K21S1,1115,experiment,90,←,left,←,0.5529340000357479,True,36,1
AM-K-22K21S1,1116,experiment,68,→,left,←,0.5879877000115812,False,36,1
AM-K-22K21S1,1117,experiment,89,↓,left,←,0.3341006999835372,False,36,1
AM-K-22K21S1,1118,experiment,92,↓,down,↓,0.30913109984248877,True,36,0
AM-K-22K21S1,1119,experiment,50,↓,down,↓,0.7321904997806996,True,36,0
AM-K-22K21S1,1120,experiment,48,←,left,←,0.518689600052312,True,36,1
AM-K-22K21S1,1121,experiment,54,←,left,←,0.434075600001961,True,36,1
AM-K-22K21S1,1122,experiment,107,←,left,←,0.5705093001015484,True,36,0
AM-K-22K21S1,1123,experiment,67,↑,left,←,0.5088839000090957,False,36,1
AM-K-22K21S1,1124,experiment,87,↓,down,↓,0.4758195001631975,True,36,1
AM-K-22K21S1,1125,experiment,98,←,down,↓,0.3506865000817925,False,36,1
AM-K-22K21S1,1126,experiment,61,↑,down,↓,0.6601241000462323,False,36,0
AM-K-22K21S1,1127,experiment,62,→,down,↓,0.3179617999121547,False,36,1
AM-K-22K21S1,1128,experiment,95,↓,left,←,1.0636206998024136,False,36,0
AM-K-22K21S1,1129,experiment,53,↑,up,↑,0.5067463000304997,True,36,1
AM-K-22K21S1,1130,experiment,59,↑,up,↑,0.3924068999476731,True,36,1
AM-K-22K21S1,1131,experiment,52,↓,down,↓,0.47373609989881516,True,36,0
AM-K-22K21S1,1132,experiment,102,↑,up,↑,0.2768399000633508,True,36,1
AM-K-22K21S1,1133,experiment,55,↑,down,↓,0.6293764000292867,False,36,0
AM-K-22K21S1,1134,experiment,106,←,left,←,0.36688080010935664,True,36,1
AM-K-22K21S1,1135,experiment,56,←,left,←,1.8466721000149846,True,36,0
AM-K-22K21S1,1136,experiment,82,←,left,←,0.6811186999548227,True,36,1
AM-K-22K21S1,1137,experiment,64,←,left,←,0.5121130999177694,True,36,1
AM-K-22K21S1,1138,experiment,51,→,left,←,0.5383731999900192,False,36,1
AM-K-22K21S1,1139,experiment,77,↑,left,←,1.0188035999890417,False,36,1
AM-K-22K21S1,1140,experiment,97,←,left,←,0.625476999906823,True,36,1
AM-K-22K21S1,1141,experiment,70,↑,left,←,0.12695740000344813,False,36,1
AM-K-22K21S1,1142,experiment,93,→,left,←,0.9415329000912607,False,36,0
AM-K-22K21S1,1143,experiment,86,→,right,→,0.5389135000295937,True,36,1
AM-K-22K21S1,1144,experiment,71,↓,left,←,0.5171766001731157,False,36,1
AM-K-22K21S1,1145,experiment,63,↓,down,↓,0.44211079995147884,True,36,1
AM-K-22K21S1,1146,experiment,75,→,right,→,0.6079375999979675,True,36,0
AM-K-22K21S1,1147,experiment,49,→,right,→,0.6548121999949217,True,36,1
AM-K-22K21S1,1148,experiment,100,→,left,←,0.37580200005322695,False,36,1
AM-K-22K21S1,1149,experiment,91,↓,down,↓,0.645402800058946,True,36,0
AM-K-22K21S1,1150,experiment,76,→,right,→,0.5620142000261694,True,36,1
AM-K-22K21S1,1151,experiment,103,→,right,→,0.5531271998770535,True,36,1
AM-K-22K21S1,1152,experiment,69,↑,up,↑,0.4917523998301476,True,36,1
AM-K-22K21S1,1153,experiment,72,←,left,←,0.47254059999249876,True,36,1
AM-K-22K21S1,1154,experiment,66,↓,down,↓,0.542585999937728,True,36,1
AM-K-22K21S1,1155,experiment,81,↑,up,↑,0.669690900016576,True,36,1
AM-K-22K21S1,1156,experiment,65,↑,up,↑,1.045507299946621,True,36,1
AM-K-22K21S1,1157,experiment,58,←,left,←,0.6314905998297036,True,36,1
AM-K-22K21S1,1158,experiment,79,←,left,←,0.5798328998498619,True,36,1
AM-K-22K21S1,1159,experiment,57,↓,left,←,0.31733669992536306,False,36,1
AM-K-22K21S1,1160,experiment,73,↑,up,↑,0.5715272999368608,True,36,0
AM-K-22K21S1,1161,experiment,99,↓,down,↓,0.468018600018695,True,36,1
AM-K-22K21S1,1162,experiment,108,↑,up,↑,0.588418300030753,True,36,0
AM-K-22K21S1,1163,experiment,85,←,left,←,0.6398132001049817,True,36,1
AM-K-22K21S1,1164,experiment,74,↑,left,←,0.8132418000604957,False,36,1
AM-K-22K21S1,1165,experiment,101,↑,up,↑,0.522633200045675,True,36,1
AM-K-22K21S1,1166,experiment,88,↓,no_key,no_letter,-1.0,False,36,1
AM-K-22K21S1,1167,experiment,105,↓,left,←,0.34164800005964935,False,36,1
AM-K-22K21S1,1168,experiment,94,→,right,→,0.5045438001397997,True,36,0
AM-K-22K21S1,1169,experiment,78,↓,down,↓,0.585748199839145,True,36,1
AM-K-22K21S1,1170,experiment,80,→,right,→,0.7034633001312613,True,36,1
AM-K-22K21S1,1171,experiment,83,↓,up,↑,0.7192714000120759,False,36,1
AM-K-22K21S1,1172,experiment,60,↑,up,↑,0.582676799967885,True,36,1
AM-K-22K21S1,1173,experiment,96,→,right,→,0.5268035000190139,True,36,1
AM-K-22K21S1,1174,experiment,84,↓,left,←,0.3188444001134485,False,36,1
AM-K-22K21S1,1175,training,63,↓,no_key,no_letter,-1.0,False,36,0
AM-K-22K21S1,1176,training,96,←,left,←,0.3923518001101911,True,36,1
AM-K-22K21S1,1177,experiment,65,↓,up,↑,0.5029758999589831,False,36,0
AM-K-22K21S1,1178,experiment,87,↑,no_key,no_letter,-1.0,False,36,1
AM-K-22K21S1,1179,experiment,74,←,left,←,0.4860761999152601,True,36,1
AM-K-22K21S1,1180,experiment,76,↑,up,↑,0.544648899929598,True,36,1
AM-K-22K21S1,1181,experiment,69,←,left,←,0.4763653001282364,True,36,1
AM-K-22K21S1,1182,experiment,75,→,right,→,0.4712195999454707,True,36,1
AM-K-22K21S1,1183,experiment,49,↑,up,↑,0.5795134999789298,True,36,0
AM-K-22K21S1,1184,experiment,83,→,left,←,0.8322311001829803,False,36,1
AM-K-22K21S1,1185,experiment,63,↑,up,↑,0.5137547000776976,True,36,1
AM-K-22K21S1,1186,experiment,103,↓,down,↓,0.4749044000636786,True,36,1
AM-K-22K21S1,1187,experiment,106,→,right,→,0.5321503998711705,True,36,1
AM-K-22K21S1,1188,experiment,70,→,right,→,0.6306544998660684,True,36,1
AM-K-22K21S1,1189,experiment,88,↓,down,↓,0.5761601000558585,True,36,1
AM-K-22K21S1,1190,experiment,67,←,left,←,0.7062381999567151,True,36,1
AM-K-22K21S1,1191,experiment,80,↑,up,↑,0.4260352000128478,True,36,1
AM-K-22K21S1,1192,experiment,62,←,left,←,0.5090312000829726,True,36,0
AM-K-22K21S1,1193,experiment,105,↑,up,↑,0.5650380000006407,True,36,1
AM-K-22K21S1,1194,experiment,98,↓,down,↓,0.6773672997951508,True,36,1
AM-K-22K21S1,1195,experiment,99,←,left,←,0.6331769998650998,True,36,1
AM-K-22K21S1,1196,experiment,96,↑,left,←,0.6957034999504685,False,36,1
AM-K-22K21S1,1197,experiment,79,→,no_key,no_letter,-1.0,False,36,1
AM-K-22K21S1,1198,experiment,82,↑,up,↑,0.6627087998203933,True,36,1
AM-K-22K21S1,1199,experiment,68,↑,up,↑,0.5655079998541623,True,36,1
AM-K-22K21S1,1200,experiment,56,↑,up,↑,0.4091801999602467,True,36,1
AM-K-22K21S1,1201,experiment,85,↓,no_key,no_letter,-1.0,False,36,0
AM-K-22K21S1,1202,experiment,108,→,right,→,0.4507885999046266,True,36,1
AM-K-22K21S1,1203,experiment,52,→,right,→,0.47219309979118407,True,36,0
AM-K-22K21S1,1204,experiment,48,←,left,←,0.5323365998920053,True,36,1
AM-K-22K21S1,1205,experiment,97,←,left,←,0.694350500125438,True,36,1
AM-K-22K21S1,1206,experiment,78,←,left,←,0.3509494001045823,True,36,1
AM-K-22K21S1,1207,experiment,89,↓,left,←,0.7563741998746991,False,36,0
AM-K-22K21S1,1208,experiment,59,↓,down,↓,0.5382392001338303,True,36,1
AM-K-22K21S1,1209,experiment,77,↓,down,↓,0.5866976000834256,True,36,1
AM-K-22K21S1,1210,experiment,50,↓,down,↓,0.48294609994627535,True,36,1
AM-K-22K21S1,1211,experiment,94,↑,up,↑,0.5355004000011832,True,36,1
AM-K-22K21S1,1212,experiment,81,→,right,→,0.6067938001360744,True,36,1
AM-K-22K21S1,1213,experiment,102,↑,up,↑,0.8123135999776423,True,36,1
AM-K-22K21S1,1214,experiment,91,→,right,→,0.5497157999780029,True,36,1
AM-K-22K21S1,1215,experiment,100,↑,up,↑,0.5497787999920547,True,36,1
AM-K-22K21S1,1216,experiment,73,←,left,←,0.4424733000341803,True,36,1
AM-K-22K21S1,1217,experiment,92,→,right,→,0.47099890001118183,True,36,0
AM-K-22K21S1,1218,experiment,57,↑,up,↑,0.5198771001305431,True,36,1
AM-K-22K21S1,1219,experiment,66,↓,down,↓,0.8369382999371737,True,36,1
AM-K-22K21S1,1220,experiment,71,↑,no_key,no_letter,-1.0,False,36,1
AM-K-22K21S1,1221,experiment,86,→,right,→,0.5598216999787837,True,36,1
AM-K-22K21S1,1222,experiment,58,→,right,→,0.6461139000020921,True,36,1
AM-K-22K21S1,1223,experiment,107,↓,down,↓,0.647988700075075,True,36,1
AM-K-22K21S1,1224,experiment,84,↑,no_key,no_letter,-1.0,False,36,1
AM-K-22K21S1,1225,experiment,93,→,right,→,0.40912449988536537,True,36,1
AM-K-22K21S1,1226,experiment,61,→,left,←,0.41747720004059374,False,36,0
AM-K-22K21S1,1227,experiment,51,↓,down,↓,0.6200415000785142,True,36,0
AM-K-22K21S1,1228,experiment,95,←,left,←,0.4415596001781523,True,36,1
AM-K-22K21S1,1229,experiment,104,↓,down,↓,0.4712076000869274,True,36,0
AM-K-22K21S1,1230,experiment,60,←,right,→,0.5192086000461131,False,36,0
AM-K-22K21S1,1231,experiment,53,↓,down,↓,0.47371249995194376,True,36,1
AM-K-22K21S1,1232,experiment,101,↑,up,↑,0.5319802998565137,True,36,1
AM-K-22K21S1,1233,experiment,90,←,left,←,0.5360755999572575,True,36,1
AM-K-22K21S1,1234,experiment,64,↑,up,↑,0.7658398000057787,True,36,1
AM-K-22K21S1,1235,experiment,54,→,right,→,0.7401634999550879,True,36,1
AM-K-22K21S1,1236,experiment,55,→,right,→,0.876092900056392,True,36,1
AM-K-22K21S1,1237,experiment,72,→,right,→,0.6005516999866813,True,36,1
AM-K-22K21S1,1238,training,65,↑,no_key,no_letter,-1.0,False,36,0
AM-K-22K21S1,1239,training,48,↑,no_key,no_letter,-1.0,False,36,1
AM-K-22K21S1,1240,experiment,79,↑,no_key,no_letter,-1.0,False,36,1
AM-K-22K21S1,1241,experiment,66,←,no_key,no_letter,-1.0,False,36,1
AM-K-22K21S1,1242,experiment,68,→,right,→,1.6930138999596238,True,36,1
AM-K-22K21S1,1243,experiment,81,←,left,←,0.4503609000239521,True,36,1
AM-K-22K21S1,1244,experiment,55,↑,up,↑,0.7528118998743594,True,36,0
AM-K-22K21S1,1245,experiment,60,→,left,←,0.3424299000762403,False,36,1
AM-K-22K21S1,1246,experiment,54,↓,down,↓,0.8543465998955071,True,36,0
AM-K-22K21S1,1247,experiment,92,→,left,←,0.5570118001196533,False,36,1
AM-K-22K21S1,1248,experiment,103,↑,left,←,0.8440359998494387,False,36,1
AM-K-22K21S1,1249,experiment,100,↑,left,←,0.24340279982425272,False,36,1
AM-K-22K21S1,1250,experiment,72,↑,up,↑,0.548711699899286,True,36,0
AM-K-22K21S1,1251,experiment,58,→,right,→,0.5149517999961972,True,36,1
AM-K-22K21S1,1252,experiment,107,↑,up,↑,0.7222982000093907,True,36,1
AM-K-22K21S1,1253,experiment,73,↓,down,↓,0.4769754000008106,True,36,1
AM-K-22K21S1,1254,experiment,105,→,left,←,0.4700909999664873,False,36,1
AM-K-22K21S1,1255,experiment,102,→,right,→,0.44227749994024634,True,36,0
AM-K-22K21S1,1256,experiment,86,↑,up,↑,0.4821526000741869,True,36,0
AM-K-22K21S1,1257,experiment,108,←,left,←,0.4178519998677075,True,36,1
AM-K-22K21S1,1258,experiment,76,←,left,←,0.4805595001671463,True,36,0
AM-K-22K21S1,1259,experiment,57,↓,down,↓,0.5290286999661475,True,36,1
AM-K-22K21S1,1260,experiment,74,→,right,→,0.4346940000541508,True,36,1
AM-K-22K21S1,1261,experiment,88,↓,left,←,0.3083581000100821,False,36,0
AM-K-22K21S1,1262,experiment,71,←,right,→,0.5829662000760436,False,36,0
AM-K-22K21S1,1263,experiment,104,↑,up,↑,0.48467000015079975,True,36,1
AM-K-22K21S1,1264,experiment,99,↓,down,↓,1.9043908000458032,True,36,1
AM-K-22K21S1,1265,experiment,106,→,no_key,no_letter,-1.0,False,36,1
AM-K-22K21S1,1266,experiment,97,←,left,←,0.45047960011288524,True,36,1
AM-K-22K21S1,1267,experiment,51,→,right,→,0.45096020004712045,True,36,0
AM-K-22K21S1,1268,experiment,78,←,right,→,0.3840801001060754,False,36,0
AM-K-22K21S1,1269,experiment,96,↓,up,↑,0.8403223999775946,False,36,0
AM-K-22K21S1,1270,experiment,56,↓,right,→,1.8836633001919836,False,36,1
AM-K-22K21S1,1271,experiment,49,↑,no_key,no_letter,-1.0,False,36,1
AM-K-22K21S1,1272,experiment,87,↓,left,←,0.3426183999981731,False,36,1
AM-K-22K21S1,1273,experiment,94,↓,down,↓,0.6220634998753667,True,36,0
AM-K-22K21S1,1274,experiment,48,↑,down,↓,1.3327872999943793,False,36,1
AM-K-22K21S1,1275,experiment,85,↑,right,→,0.6671536001376808,False,36,1
AM-K-22K21S1,1276,experiment,53,↓,down,↓,0.5340311999898404,True,36,1
AM-K-22K21S1,1277,experiment,62,→,no_key,no_letter,-1.0,False,36,1
AM-K-22K21S1,1278,experiment,61,↓,down,↓,0.5684756000991911,True,36,1
AM-K-22K21S1,1279,experiment,64,↓,down,↓,1.2282619001343846,True,36,1
AM-K-22K21S1,1280,experiment,91,↓,down,↓,0.65234460006468,True,36,1
AM-K-22K21S1,1281,experiment,59,↑,up,↑,0.5026310000102967,True,36,1
AM-K-22K21S1,1282,experiment,52,←,right,→,0.6090222999919206,False,36,1
AM-K-22K21S1,1283,experiment,77,←,left,←,0.4948201000224799,True,36,1
AM-K-22K21S1,1284,experiment,69,↑,down,↓,0.4995627999305725,False,36,1
AM-K-22K21S1,1285,experiment,63,→,right,→,0.49809010000899434,True,36,1
AM-K-22K21S1,1286,experiment,82,←,left,←,0.6826452999375761,True,36,1
AM-K-22K21S1,1287,experiment,101,→,left,←,0.5013081999495625,False,36,1
AM-K-22K21S1,1288,experiment,98,→,right,→,0.367411500075832,True,36,1
AM-K-22K21S1,1289,experiment,75,↓,left,←,0.32575670001097023,False,36,0
AM-K-22K21S1,1290,experiment,89,↓,down,↓,0.5487675000913441,True,36,0
AM-K-22K21S1,1291,experiment,67,↓,down,↓,0.30879199993796647,True,36,1
AM-K-22K21S1,1292,experiment,80,↓,right,→,0.40153200016357005,False,36,0
AM-K-22K21S1,1293,experiment,70,→,left,←,0.8084889000747353,False,36,0
AM-K-22K21S1,1294,experiment,95,↓,down,↓,0.3766006000805646,True,36,1
AM-K-22K21S1,1295,experiment,84,→,right,→,0.5000799000263214,True,36,0
AM-K-22K21S1,1296,experiment,93,→,right,→,0.4251142998691648,True,36,1
AM-K-22K21S1,1297,experiment,90,↓,down,↓,0.6331553000491112,True,36,0
AM-K-22K21S1,1298,experiment,50,→,left,←,0.510964100016281,False,36,1
AM-K-22K21S1,1299,experiment,65,↓,down,↓,0.580745599931106,True,36,1
AM-K-22K21S1,1300,experiment,83,↓,down,↓,0.6014918000437319,True,36,1
AM-K-22K21S1,1301,training,104,←,left,←,0.5842216999735683,True,37,0
AM-K-22K21S1,1302,training,104,↓,down,↓,0.43399860011413693,True,37,1
AM-K-22K21S1,1303,experiment,108,→,no_key,no_letter,-1.0,False,37,0
AM-K-22K21S1,1304,experiment,52,→,right,→,0.4263403001241386,True,37,1
AM-K-22K21S1,1305,experiment,53,↓,down,↓,0.483947099884972,True,37,0
AM-K-22K21S1,1306,experiment,103,↓,down,↓,0.6457732000853866,True,37,1
AM-K-22K21S1,1307,experiment,81,↑,up,↑,0.4421710998285562,True,37,1
AM-K-22K21S1,1308,experiment,56,→,left,←,1.1318813001271337,False,37,0
AM-K-22K21S1,1309,experiment,106,↓,left,←,0.5546975999604911,False,37,1
AM-K-22K21S1,1310,experiment,100,↑,up,↑,0.6107665998861194,True,37,1
AM-K-22K21S1,1311,experiment,60,↓,down,↓,0.5982144998852164,True,37,1
AM-K-22K21S1,1312,experiment,91,↑,up,↑,0.48770459997467697,True,37,1
AM-K-22K21S1,1313,experiment,65,→,down,↓,1.085931699955836,False,37,1
AM-K-22K21S1,1314,experiment,57,↓,down,↓,0.6153462999500334,True,37,1
AM-K-22K21S1,1315,experiment,94,→,left,←,0.7350092998240143,False,37,1
AM-K-22K21S1,1316,experiment,96,↑,left,←,0.33421400003135204,False,37,1
AM-K-22K21S1,1317,experiment,101,←,left,←,0.6017497000284493,True,37,0
AM-K-22K21S1,1318,experiment,64,→,left,←,0.5084479998331517,False,37,1
AM-K-22K21S1,1319,experiment,72,↑,up,↑,0.424804599955678,True,37,1
AM-K-22K21S1,1320,experiment,73,→,left,←,0.5417013999540359,False,37,0
AM-K-22K21S1,1321,experiment,79,↑,up,↑,0.5095164999365807,True,37,1
AM-K-22K21S1,1322,experiment,58,↑,up,↑,0.5495809998828918,True,37,1
AM-K-22K21S1,1323,experiment,74,↑,up,↑,0.39234769996255636,True,37,1
AM-K-22K21S1,1324,experiment,87,→,right,→,0.4817117000930011,True,37,0
AM-K-22K21S1,1325,experiment,69,←,left,←,0.3424264001660049,True,37,1
AM-K-22K21S1,1326,experiment,97,→,left,←,0.5038863001391292,False,37,0
AM-K-22K21S1,1327,experiment,71,←,left,←,0.6037365000229329,True,37,1
AM-K-22K21S1,1328,experiment,50,↓,down,↓,0.6429187001194805,True,37,1
AM-K-22K21S1,1329,experiment,104,→,no_key,no_letter,-1.0,False,37,1
AM-K-22K21S1,1330,experiment,88,←,left,←,0.42601850000210106,True,37,1
AM-K-22K21S1,1331,experiment,48,←,left,←,1.3110230001620948,True,37,0
AM-K-22K21S1,1332,experiment,93,↑,up,↑,0.5877434001304209,True,37,1
AM-K-22K21S1,1333,experiment,92,↑,left,←,0.30070660007186234,False,37,1
AM-K-22K21S1,1334,experiment,51,↑,up,↑,0.42548309988342226,True,37,0
AM-K-22K21S1,1335,experiment,85,↓,down,↓,0.49019000004045665,True,37,0
AM-K-22K21S1,1336,experiment,76,→,right,→,0.5245743999257684,True,37,1
AM-K-22K21S1,1337,experiment,98,↑,up,↑,0.630550199886784,True,37,1
AM-K-22K21S1,1338,experiment,49,←,left,←,0.5168274999596179,True,37,1
AM-K-22K21S1,1339,experiment,54,↑,up,↑,0.43407770013436675,True,37,1
AM-K-22K21S1,1340,experiment,102,→,right,→,0.48963469988666475,True,37,0
AM-K-22K21S1,1341,experiment,55,→,left,←,0.37575730006210506,False,37,1
AM-K-22K21S1,1342,experiment,105,↓,down,↓,0.5131112998351455,True,37,0
AM-K-22K21S1,1343,experiment,107,→,right,→,0.648488599807024,True,37,1
AM-K-22K21S1,1344,experiment,68,↓,down,↓,0.7033079999964684,True,37,1
AM-K-22K21S1,1345,experiment,77,↑,up,↑,0.5853880997747183,True,37,1
AM-K-22K21S1,1346,experiment,82,↓,left,←,0.37579690013080835,False,37,1
AM-K-22K21S1,1347,experiment,86,↑,up,↑,0.4907730999402702,True,37,0
AM-K-22K21S1,1348,experiment,90,↓,no_key,no_letter,-1.0,False,37,1
AM-K-22K21S1,1349,experiment,83,←,right,→,0.4422621000558138,False,37,1
AM-K-22K21S1,1350,experiment,89,↑,up,↑,0.62130880006589,True,37,0
AM-K-22K21S1,1351,experiment,63,↓,down,↓,0.5909378998912871,True,37,1
AM-K-22K21S1,1352,experiment,70,↓,down,↓,1.3356334001291543,True,37,1
AM-K-22K21S1,1353,experiment,84,→,right,→,0.5661084000021219,True,37,1
AM-K-22K21S1,1354,experiment,59,↓,down,↓,0.5154403999913484,True,37,1
AM-K-22K21S1,1355,experiment,99,→,left,←,0.3671423001214862,False,37,1
AM-K-22K21S1,1356,experiment,67,←,right,→,0.5363423000089824,False,37,0
AM-K-22K21S1,1357,experiment,95,↑,up,↑,1.170743100112304,True,37,1
AM-K-22K21S1,1358,experiment,62,←,left,←,0.43390330020338297,True,37,1
AM-K-22K21S1,1359,experiment,75,↓,down,↓,0.5640420999843627,True,37,0
AM-K-22K21S1,1360,experiment,78,→,right,→,0.643138200044632,True,37,1
AM-K-22K21S1,1361,experiment,61,→,right,→,0.5252408001106232,True,37,1
AM-K-22K21S1,1362,experiment,66,→,right,→,0.4898270999547094,True,37,1
AM-K-22K21S1,1363,experiment,80,↑,up,↑,0.547054799972102,True,37,1
AM-K-22K21S1,1364,training,99,↓,down,↓,0.47807840001769364,True,37,0
AM-K-22K21S1,1365,training,70,→,right,→,0.498302899999544,True,37,0
AM-K-22K21S1,1366,experiment,75,→,right,→,0.3839532001875341,True,37,1
AM-K-22K21S1,1367,experiment,70,↓,down,↓,0.42561339982785285,True,37,0
AM-K-22K21S1,1368,experiment,71,↑,up,↑,0.6362360001076013,True,37,0
AM-K-22K21S1,1369,experiment,100,↓,down,↓,0.9696645999792963,True,37,1
AM-K-22K21S1,1370,experiment,95,→,right,→,0.626513299997896,True,37,1
AM-K-22K21S1,1371,experiment,89,↓,down,↓,0.476204999955371,True,37,1
AM-K-22K21S1,1372,experiment,85,→,right,→,0.5076041000429541,True,37,0
AM-K-22K21S1,1373,experiment,92,←,left,←,0.48901500017382205,True,37,1
AM-K-22K21S1,1374,experiment,106,→,right,→,0.57721809996292,True,37,1
AM-K-22K21S1,1375,experiment,67,→,right,→,0.5154914001468569,True,37,1
AM-K-22K21S1,1376,experiment,49,←,left,←,0.3173995998222381,True,37,1
AM-K-22K21S1,1377,experiment,77,↑,up,↑,0.5271140998229384,True,37,0
AM-K-22K21S1,1378,experiment,63,↑,up,↑,0.4085119999945164,True,37,1
AM-K-22K21S1,1379,experiment,50,↑,down,↓,0.5958117998670787,False,37,0
AM-K-22K21S1,1380,experiment,108,←,left,←,0.3682959999423474,True,37,1
AM-K-22K21S1,1381,experiment,87,←,left,←,0.3672976999077946,True,37,0
AM-K-22K21S1,1382,experiment,98,↑,up,↑,0.5309091999661177,True,37,0
AM-K-22K21S1,1383,experiment,69,→,right,→,0.7101675001904368,True,37,1
AM-K-22K21S1,1384,experiment,90,↑,up,↑,0.38422250002622604,True,37,1
AM-K-22K21S1,1385,experiment,105,←,right,→,0.5849293998908252,False,37,0
AM-K-22K21S1,1386,experiment,101,↑,left,←,0.3765465000178665,False,37,1
AM-K-22K21S1,1387,experiment,78,→,right,→,0.4866728999186307,True,37,0
AM-K-22K21S1,1388,experiment,81,↑,up,↑,0.3420166000723839,True,37,1
AM-K-22K21S1,1389,experiment,104,→,right,→,0.5344001001212746,True,37,0
AM-K-22K21S1,1390,experiment,65,↑,up,↑,0.409001300111413,True,37,1
AM-K-22K21S1,1391,experiment,53,→,right,→,0.5920295000541955,True,37,0
AM-K-22K21S1,1392,experiment,62,↓,down,↓,0.5715099000371993,True,37,1
AM-K-22K21S1,1393,experiment,58,↓,down,↓,0.4507683999836445,True,37,1
AM-K-22K21S1,1394,experiment,84,→,right,→,0.45037150010466576,True,37,0
AM-K-22K21S1,1395,experiment,51,←,left,←,0.5191095001064241,True,37,0
AM-K-22K21S1,1396,experiment,60,↓,down,↓,0.5181768001057208,True,37,1
AM-K-22K21S1,1397,experiment,76,↓,down,↓,0.5919409000780433,True,37,1
AM-K-22K21S1,1398,experiment,102,←,left,←,0.4591472998727113,True,37,1
AM-K-22K21S1,1399,experiment,72,↑,up,↑,0.6190049001015723,True,37,0
AM-K-22K21S1,1400,experiment,80,↓,left,←,0.9433323999401182,False,37,1
AM-K-22K21S1,1401,experiment,56,←,right,→,0.6229525001253933,False,37,1
AM-K-22K21S1,1402,experiment,48,←,left,←,0.69343789992854,True,37,1
AM-K-22K21S1,1403,experiment,82,↓,down,↓,0.5344229999464005,True,37,1
AM-K-22K21S1,1404,experiment,107,→,right,→,0.71694829990156,True,37,1
