PART_ID,Trial_no,Trial_type,CSI,Stim_letter,Key_pressed,letter_choose,Rt,Corr,Stimulus Time,nDropped
JJ-K-32K32S2,1,training,120,↓,down,↓,0.9728715000674129,True,60,1
JJ-K-32K32S2,2,training,120,↑,up,↑,0.617930999957025,True,60,0
JJ-K-32K32S2,3,training,120,↓,down,↓,0.4434364999178797,True,60,0
JJ-K-32K32S2,4,training,120,↑,up,↑,0.5169211002066731,True,60,0
JJ-K-32K32S2,5,training,120,→,right,→,1.9998107999563217,True,60,0
JJ-K-32K32S2,6,training,120,→,right,→,0.7191552999429405,True,60,0
JJ-K-32K32S2,7,training,120,→,right,→,0.6111310999840498,True,60,0
JJ-K-32K32S2,8,training,120,←,left,←,0.5837115000467747,True,60,0
JJ-K-32K32S2,9,training,120,←,left,←,0.5925966000650078,True,60,0
JJ-K-32K32S2,10,training,120,→,right,→,0.46048310003243387,True,60,0
JJ-K-32K32S2,11,training,120,↑,up,↑,0.5340563000645489,True,60,0
JJ-K-32K32S2,12,training,120,←,left,←,0.5003546001389623,True,60,0
JJ-K-32K32S2,13,training,120,→,right,→,0.5593744001816958,True,60,0
JJ-K-32K32S2,14,training,120,↑,up,↑,0.4603811998385936,True,60,0
JJ-K-32K32S2,15,training,120,↓,down,↓,0.5928028000053018,True,60,0
JJ-K-32K32S2,16,training,120,↓,down,↓,0.5505639999173582,True,60,0
JJ-K-32K32S2,17,training,120,←,right,→,0.500579500105232,False,60,0
JJ-K-32K32S2,18,training,120,↑,up,↑,0.508907999843359,True,60,0
JJ-K-32K32S2,19,training,120,↓,down,↓,0.5923856000881642,True,60,0
JJ-K-32K32S2,20,training,120,↓,down,↓,0.5426549001131207,True,60,0
JJ-K-32K32S2,21,no_adaptation,120,↑,up,↑,0.5822249997872859,True,36,0
JJ-K-32K32S2,22,no_adaptation,120,←,left,←,0.605885999975726,True,36,0
JJ-K-32K32S2,23,no_adaptation,120,↑,no_key,no_letter,-1.0,False,36,0
JJ-K-32K32S2,24,no_adaptation,120,←,left,←,0.63686090009287,True,36,0
JJ-K-32K32S2,25,no_adaptation,120,→,right,→,0.5382996001280844,True,36,0
JJ-K-32K32S2,26,no_adaptation,120,↑,no_key,no_letter,-1.0,False,36,0
JJ-K-32K32S2,27,no_adaptation,120,→,right,→,0.5161864999681711,True,36,0
JJ-K-32K32S2,28,no_adaptation,120,←,left,←,0.4512070999480784,True,36,0
JJ-K-32K32S2,29,no_adaptation,120,←,left,←,0.44439740013331175,True,36,0
JJ-K-32K32S2,30,no_adaptation,120,↓,up,↑,0.5037048000376672,False,36,0
JJ-K-32K32S2,31,no_adaptation,120,↑,up,↑,0.5146250000689179,True,36,0
JJ-K-32K32S2,32,no_adaptation,120,↑,up,↑,0.5573039001319557,True,36,0
JJ-K-32K32S2,33,no_adaptation,120,↓,down,↓,0.5899682000745088,True,36,0
JJ-K-32K32S2,34,no_adaptation,120,↑,up,↑,0.7176006999798119,True,36,0
JJ-K-32K32S2,35,no_adaptation,120,↓,down,↓,0.5757302998099476,True,36,0
JJ-K-32K32S2,36,no_adaptation,120,→,right,→,0.5676392000168562,True,36,0
JJ-K-32K32S2,37,no_adaptation,120,→,right,→,0.5282266000285745,True,36,0
JJ-K-32K32S2,38,no_adaptation,120,↑,up,↑,0.5457198999356478,True,36,0
JJ-K-32K32S2,39,no_adaptation,120,←,no_key,no_letter,-1.0,False,36,0
JJ-K-32K32S2,40,no_adaptation,120,↑,up,↑,1.058673599967733,True,36,0
JJ-K-32K32S2,41,training,71,↑,up,↑,0.5418636000249535,True,36,0
JJ-K-32K32S2,42,training,103,↓,down,↓,0.6136692001018673,True,36,1
JJ-K-32K32S2,43,experiment,56,←,left,←,0.49794599995948374,True,36,1
JJ-K-32K32S2,44,experiment,87,↓,down,↓,0.616783200064674,True,36,1
JJ-K-32K32S2,45,experiment,90,→,left,←,0.4739681000355631,False,36,1
JJ-K-32K32S2,46,experiment,93,↑,up,↑,0.4956334000453353,True,36,1
JJ-K-32K32S2,47,experiment,88,←,left,←,0.48627129988744855,True,36,1
JJ-K-32K32S2,48,experiment,63,→,right,→,0.6130709999706596,True,36,1
JJ-K-32K32S2,49,experiment,62,↓,down,↓,0.6153073001187295,True,36,1
JJ-K-32K32S2,50,experiment,60,→,left,←,0.7625081997830421,False,36,1
JJ-K-32K32S2,51,experiment,79,←,left,←,0.5694892001338303,True,36,1
JJ-K-32K32S2,52,experiment,82,→,no_key,no_letter,-1.0,False,36,1
JJ-K-32K32S2,53,experiment,70,→,right,→,0.7044865000061691,True,36,1
JJ-K-32K32S2,54,experiment,54,→,right,→,0.5141547999810427,True,36,1
JJ-K-32K32S2,55,experiment,84,↓,down,↓,0.6093153001274914,True,36,1
JJ-K-32K32S2,56,experiment,97,↑,up,↑,0.5286042001098394,True,36,1
JJ-K-32K32S2,57,experiment,80,→,right,→,0.6563297000247985,True,36,1
JJ-K-32K32S2,58,experiment,66,←,left,←,0.5517084000166506,True,36,1
JJ-K-32K32S2,59,experiment,86,→,right,→,0.5649313000030816,True,36,1
JJ-K-32K32S2,60,experiment,107,↓,down,↓,0.5461583000142127,True,36,1
JJ-K-32K32S2,61,experiment,73,↑,no_key,no_letter,-1.0,False,36,1
JJ-K-32K32S2,62,experiment,81,→,right,→,0.4812364000827074,True,36,1
JJ-K-32K32S2,63,experiment,99,→,right,→,0.5808272999711335,True,36,1
JJ-K-32K32S2,64,experiment,65,↓,down,↓,0.6077014999464154,True,36,1
JJ-K-32K32S2,65,experiment,92,→,right,→,0.6084086999762803,True,36,1
JJ-K-32K32S2,66,experiment,102,↓,down,↓,0.5896596000529826,True,36,1
JJ-K-32K32S2,67,experiment,48,↑,up,↑,0.5817060000263155,True,36,1
JJ-K-32K32S2,68,experiment,68,→,right,→,0.559348699869588,True,36,1
JJ-K-32K32S2,69,experiment,108,↓,down,↓,0.44204430002719164,True,36,1
JJ-K-32K32S2,70,experiment,104,↓,down,↓,0.5279404998291284,True,36,0
JJ-K-32K32S2,71,experiment,96,↓,up,↑,0.6105095001403242,False,36,1
JJ-K-32K32S2,72,experiment,53,→,right,→,0.5122660000342876,True,36,1
JJ-K-32K32S2,73,experiment,55,↓,down,↓,0.5690675000660121,True,36,1
JJ-K-32K32S2,74,experiment,89,↑,up,↑,0.6922240999992937,True,36,1
JJ-K-32K32S2,75,experiment,52,←,left,←,0.5109714998397976,True,36,1
JJ-K-32K32S2,76,experiment,95,→,right,→,0.5625638999044895,True,36,1
JJ-K-32K32S2,77,experiment,61,→,right,→,0.5033748999703676,True,36,1
JJ-K-32K32S2,78,experiment,75,←,left,←,0.6497947000898421,True,36,1
JJ-K-32K32S2,79,experiment,51,→,right,→,0.5105280999559909,True,36,1
JJ-K-32K32S2,80,experiment,78,→,right,→,0.5677970999386162,True,36,1
JJ-K-32K32S2,81,experiment,98,↑,up,↑,0.5042226000223309,True,36,1
JJ-K-32K32S2,82,experiment,77,↑,up,↑,0.7703894998412579,True,36,1
JJ-K-32K32S2,83,experiment,69,←,left,←,0.46846120012924075,True,36,1
JJ-K-32K32S2,84,experiment,64,←,left,←,0.5954016000032425,True,36,0
JJ-K-32K32S2,85,experiment,58,←,right,→,0.5922536000143737,False,36,1
JJ-K-32K32S2,86,experiment,74,→,right,→,0.5356313998345286,True,36,1
JJ-K-32K32S2,87,experiment,91,←,left,←,0.7237633999902755,True,36,1
JJ-K-32K32S2,88,experiment,94,→,right,→,0.4710925999097526,True,36,1
JJ-K-32K32S2,89,experiment,105,↓,down,↓,0.6646212998311967,True,36,0
JJ-K-32K32S2,90,experiment,100,←,left,←,0.5803501000627875,True,36,1
JJ-K-32K32S2,91,experiment,85,←,left,←,0.5204823000822216,True,36,1
JJ-K-32K32S2,92,experiment,76,↑,up,↑,0.6260343000758439,True,36,1
JJ-K-32K32S2,93,experiment,72,←,left,←,0.5206180999521166,True,36,1
JJ-K-32K32S2,94,experiment,101,←,no_key,no_letter,-1.0,False,36,1
JJ-K-32K32S2,95,experiment,71,→,left,←,0.41766560007818043,False,36,1
JJ-K-32K32S2,96,experiment,103,↓,down,↓,0.5995431998744607,True,36,0
JJ-K-32K32S2,97,experiment,106,↓,down,↓,0.6599705000407994,True,36,1
JJ-K-32K32S2,98,experiment,67,→,right,→,0.5230964000802487,True,36,1
JJ-K-32K32S2,99,experiment,57,↓,down,↓,0.5308013998437673,True,36,1
JJ-K-32K32S2,100,experiment,59,↑,up,↑,0.553420800017193,True,36,1
JJ-K-32K32S2,101,experiment,83,→,right,→,0.6476632999256253,True,36,1
JJ-K-32K32S2,102,experiment,49,←,right,→,0.7326574998442084,False,36,1
JJ-K-32K32S2,103,experiment,50,↑,up,↑,0.5904469999950379,True,36,1
JJ-K-32K32S2,104,training,97,↑,up,↑,0.6381637000013143,True,36,0
JJ-K-32K32S2,105,training,51,→,right,→,0.7632877000141889,True,36,1
JJ-K-32K32S2,106,experiment,56,↑,up,↑,1.9295862999279052,True,36,1
JJ-K-32K32S2,107,experiment,94,←,left,←,0.47713689994998276,True,36,1
JJ-K-32K32S2,108,experiment,92,↓,down,↓,0.5863842000253499,True,36,1
JJ-K-32K32S2,109,experiment,51,↓,down,↓,0.5221423001494259,True,36,1
JJ-K-32K32S2,110,experiment,61,→,right,→,0.5841200000140816,True,36,1
JJ-K-32K32S2,111,experiment,77,↓,down,↓,0.5429497000295669,True,36,1
JJ-K-32K32S2,112,experiment,97,←,left,←,0.5043800000566989,True,36,1
JJ-K-32K32S2,113,experiment,98,→,right,→,0.6032407998573035,True,36,1
JJ-K-32K32S2,114,experiment,80,↑,up,↑,0.48816860001534224,True,36,1
JJ-K-32K32S2,115,experiment,48,↓,down,↓,0.548360199900344,True,36,1
JJ-K-32K32S2,116,experiment,99,↑,up,↑,0.51724290009588,True,36,1
JJ-K-32K32S2,117,experiment,50,↓,down,↓,0.5914721998851746,True,36,1
JJ-K-32K32S2,118,experiment,90,↓,down,↓,0.5535575000103563,True,36,1
JJ-K-32K32S2,119,experiment,79,→,right,→,0.5767426998354495,True,36,1
JJ-K-32K32S2,120,experiment,73,←,left,←,0.41121129994280636,True,36,1
JJ-K-32K32S2,121,experiment,85,→,right,→,0.5234370999969542,True,36,0
JJ-K-32K32S2,122,experiment,59,→,right,→,0.49854200007393956,True,36,1
JJ-K-32K32S2,123,experiment,96,→,right,→,0.5583251998759806,True,36,1
JJ-K-32K32S2,124,experiment,55,↓,down,↓,0.5495112999342382,True,36,1
JJ-K-32K32S2,125,experiment,54,↓,down,↓,1.461104999994859,True,36,1
JJ-K-32K32S2,126,experiment,86,→,right,→,0.5256298999302089,True,36,1
JJ-K-32K32S2,127,experiment,108,→,right,→,0.47696430003270507,True,36,1
JJ-K-32K32S2,128,experiment,87,←,left,←,0.47588759986683726,True,36,1
JJ-K-32K32S2,129,experiment,63,↑,up,↑,0.6111194000113755,True,36,1
JJ-K-32K32S2,130,experiment,103,←,left,←,0.5442900001071393,True,36,1
JJ-K-32K32S2,131,experiment,105,↑,up,↑,0.5109335000161082,True,36,1
JJ-K-32K32S2,132,experiment,107,→,right,→,0.5828730999492109,True,36,1
JJ-K-32K32S2,133,experiment,52,↓,down,↓,0.5899626000318676,True,36,1
JJ-K-32K32S2,134,experiment,62,←,left,←,0.47361019998788834,True,36,1
JJ-K-32K32S2,135,experiment,89,↓,down,↓,0.5441371998749673,True,36,1
JJ-K-32K32S2,136,experiment,104,↓,down,↓,0.5837648001033813,True,36,1
JJ-K-32K32S2,137,experiment,82,→,right,→,0.51664559985511,True,36,1
JJ-K-32K32S2,138,experiment,95,→,right,→,0.5119292000308633,True,36,1
JJ-K-32K32S2,139,experiment,57,↓,down,↓,0.5445529001299292,True,36,1
JJ-K-32K32S2,140,experiment,93,↓,down,↓,0.5397062001284212,True,36,1
JJ-K-32K32S2,141,experiment,81,↓,down,↓,1.3065845998935401,True,36,1
JJ-K-32K32S2,142,experiment,74,→,right,→,0.6131484999787062,True,36,1
JJ-K-32K32S2,143,experiment,69,↓,down,↓,0.5332255999092013,True,36,1
JJ-K-32K32S2,144,experiment,76,←,left,←,0.6384310000576079,True,36,1
JJ-K-32K32S2,145,experiment,102,←,left,←,0.6344592000823468,True,36,1
JJ-K-32K32S2,146,experiment,68,←,left,←,0.5301550999283791,True,36,1
JJ-K-32K32S2,147,experiment,84,↓,down,↓,0.5286270999349654,True,36,1
JJ-K-32K32S2,148,experiment,83,↓,down,↓,0.5035833998117596,True,36,1
JJ-K-32K32S2,149,experiment,101,↓,down,↓,0.4820512000005692,True,36,1
JJ-K-32K32S2,150,experiment,58,↓,down,↓,0.5384071001317352,True,36,1
JJ-K-32K32S2,151,experiment,49,→,right,→,0.5561302001588047,True,36,1
JJ-K-32K32S2,152,experiment,67,↑,up,↑,0.71119419997558,True,36,1
JJ-K-32K32S2,153,experiment,75,↑,up,↑,0.6174061999190599,True,36,1
JJ-K-32K32S2,154,experiment,53,→,right,→,0.5671144002117217,True,36,1
JJ-K-32K32S2,155,experiment,100,↓,down,↓,0.5347509998828173,True,36,1
JJ-K-32K32S2,156,experiment,64,→,left,←,0.7639121999964118,False,36,1
JJ-K-32K32S2,157,experiment,65,↑,up,↑,0.5512437999714166,True,36,1
JJ-K-32K32S2,158,experiment,106,→,right,→,0.5735736000351608,True,36,1
JJ-K-32K32S2,159,experiment,71,→,right,→,0.5586941000074148,True,36,1
JJ-K-32K32S2,160,experiment,66,↓,down,↓,0.5541264000348747,True,36,1
JJ-K-32K32S2,161,experiment,72,→,right,→,0.5635830999817699,True,36,1
JJ-K-32K32S2,162,experiment,70,←,left,←,0.4852950000204146,True,36,1
JJ-K-32K32S2,163,experiment,78,→,right,→,0.6156403000932187,True,36,1
JJ-K-32K32S2,164,experiment,60,→,right,→,0.6026427000761032,True,36,1
JJ-K-32K32S2,165,experiment,91,↑,up,↑,0.5641306999605149,True,36,1
JJ-K-32K32S2,166,experiment,88,↑,up,↑,0.5836194998119026,True,36,1
JJ-K-32K32S2,167,training,86,↑,up,↑,0.4619303001090884,True,35,0
JJ-K-32K32S2,168,training,54,←,left,←,0.48870430001989007,True,35,0
JJ-K-32K32S2,169,experiment,53,↓,down,↓,0.6346102999523282,True,35,1
JJ-K-32K32S2,170,experiment,84,→,right,→,0.7330990000627935,True,35,1
JJ-K-32K32S2,171,experiment,55,←,left,←,0.5492221999447793,True,35,1
JJ-K-32K32S2,172,experiment,101,→,right,→,0.5733350999653339,True,35,1
JJ-K-32K32S2,173,experiment,83,→,right,→,0.5622290999162942,True,35,1
JJ-K-32K32S2,174,experiment,73,→,right,→,0.8592419000342488,True,35,1
JJ-K-32K32S2,175,experiment,96,←,left,←,0.5687541998922825,True,35,1
JJ-K-32K32S2,176,experiment,51,↑,up,↑,0.520485500106588,True,35,1
JJ-K-32K32S2,177,experiment,102,↑,up,↑,0.5374594999011606,True,35,1
JJ-K-32K32S2,178,experiment,103,↑,up,↑,0.5694906997960061,True,35,1
JJ-K-32K32S2,179,experiment,62,←,left,←,0.653722100192681,True,35,1
JJ-K-32K32S2,180,experiment,90,→,right,→,0.5654345999937505,True,35,1
JJ-K-32K32S2,181,experiment,104,←,left,←,0.47561679990030825,True,35,1
JJ-K-32K32S2,182,experiment,77,↓,up,↑,0.4011152999009937,False,35,1
JJ-K-32K32S2,183,experiment,63,↓,down,↓,0.5848298000637442,True,35,0
JJ-K-32K32S2,184,experiment,57,↓,up,↑,0.6062472001649439,False,35,1
JJ-K-32K32S2,185,experiment,99,←,left,←,1.6043678999412805,True,35,1
JJ-K-32K32S2,186,experiment,95,→,right,→,0.8281810998450965,True,35,1
JJ-K-32K32S2,187,experiment,81,←,left,←,0.5118514001369476,True,35,1
JJ-K-32K32S2,188,experiment,48,←,left,←,0.49103950010612607,True,35,1
JJ-K-32K32S2,189,experiment,88,←,left,←,1.4417010999750346,True,35,1
JJ-K-32K32S2,190,experiment,74,↑,up,↑,0.519065999891609,True,35,1
JJ-K-32K32S2,191,experiment,105,↑,up,↑,0.5110497002024204,True,35,1
JJ-K-32K32S2,192,experiment,79,←,left,←,0.46412259992212057,True,35,1
JJ-K-32K32S2,193,experiment,85,↑,up,↑,0.44198679993860424,True,35,0
JJ-K-32K32S2,194,experiment,54,↑,up,↑,1.6286051999777555,True,35,0
JJ-K-32K32S2,195,experiment,70,↑,up,↑,0.44312410010024905,True,35,1
JJ-K-32K32S2,196,experiment,60,←,left,←,0.5095638998318464,True,35,0
JJ-K-32K32S2,197,experiment,91,↓,down,↓,0.6987453999463469,True,35,1
JJ-K-32K32S2,198,experiment,107,↓,down,↓,0.5628430000506341,True,35,1
JJ-K-32K32S2,199,experiment,97,↑,up,↑,0.6276513000484556,True,35,1
JJ-K-32K32S2,200,experiment,82,→,right,→,0.5345453000627458,True,35,1
JJ-K-32K32S2,201,experiment,106,←,left,←,1.6935215999837965,True,35,1
JJ-K-32K32S2,202,experiment,56,↑,up,↑,0.5588068999350071,True,35,1
JJ-K-32K32S2,203,experiment,89,↓,down,↓,0.4745848001912236,True,35,1
JJ-K-32K32S2,204,experiment,78,↑,no_key,no_letter,-1.0,False,35,1
JJ-K-32K32S2,205,experiment,93,↑,up,↑,0.6635819000657648,True,35,1
JJ-K-32K32S2,206,experiment,71,↑,up,↑,0.5808004999998957,True,35,1
JJ-K-32K32S2,207,experiment,94,↑,up,↑,0.5179660001304001,True,35,1
JJ-K-32K32S2,208,experiment,52,↑,up,↑,0.4954537998419255,True,35,1
JJ-K-32K32S2,209,experiment,80,↑,up,↑,0.4087298000231385,True,35,1
JJ-K-32K32S2,210,experiment,64,↓,down,↓,0.6505964999087155,True,35,0
JJ-K-32K32S2,211,experiment,100,→,right,→,0.5587534001097083,True,35,1
JJ-K-32K32S2,212,experiment,68,↓,down,↓,0.529453800059855,True,35,1
JJ-K-32K32S2,213,experiment,49,↑,up,↑,0.531680200016126,True,35,1
JJ-K-32K32S2,214,experiment,72,←,left,←,0.48601390002295375,True,35,1
JJ-K-32K32S2,215,experiment,76,←,right,→,0.46568799996748567,False,35,1
JJ-K-32K32S2,216,experiment,98,←,left,←,0.5975064998492599,True,35,0
JJ-K-32K32S2,217,experiment,65,↑,up,↑,0.5354857998900115,True,35,1
JJ-K-32K32S2,218,experiment,69,→,right,→,0.6027397001162171,True,35,1
JJ-K-32K32S2,219,experiment,87,↑,up,↑,0.6214252000208944,True,35,1
JJ-K-32K32S2,220,experiment,66,→,right,→,0.5420858999714255,True,35,1
JJ-K-32K32S2,221,experiment,67,↑,up,↑,0.5459758001379669,True,35,1
JJ-K-32K32S2,222,experiment,61,↑,up,↑,0.5357135001104325,True,35,1
JJ-K-32K32S2,223,experiment,92,↑,up,↑,1.5393862999044359,True,35,1
JJ-K-32K32S2,224,experiment,50,↓,down,↓,0.59687599982135,True,35,1
JJ-K-32K32S2,225,experiment,86,↑,up,↑,0.6077799999620765,True,35,1
JJ-K-32K32S2,226,experiment,75,←,left,←,0.4948250998277217,True,35,1
JJ-K-32K32S2,227,experiment,108,→,right,→,0.4938014999497682,True,35,1
JJ-K-32K32S2,228,experiment,58,←,left,←,0.47876410000026226,True,35,1
JJ-K-32K32S2,229,experiment,59,→,right,→,0.5273615999612957,True,35,1
JJ-K-32K32S2,230,training,59,←,left,←,0.42533989995718,True,34,0
JJ-K-32K32S2,231,training,52,←,left,←,0.48309289989992976,True,34,0
JJ-K-32K32S2,232,experiment,50,→,right,→,1.2631372001487762,True,34,1
JJ-K-32K32S2,233,experiment,66,←,left,←,0.42608919995836914,True,34,1
JJ-K-32K32S2,234,experiment,100,←,left,←,0.49904330004937947,True,34,0
JJ-K-32K32S2,235,experiment,79,↓,down,↓,0.5723971000406891,True,34,1
JJ-K-32K32S2,236,experiment,51,↓,down,↓,0.4087777000386268,True,34,1
JJ-K-32K32S2,237,experiment,91,↑,up,↑,0.48482020013034344,True,34,0
JJ-K-32K32S2,238,experiment,61,↑,up,↑,0.5410714999306947,True,34,1
JJ-K-32K32S2,239,experiment,64,←,left,←,1.3459895001724362,True,34,1
JJ-K-32K32S2,240,experiment,67,←,left,←,0.5334262000396848,True,34,1
JJ-K-32K32S2,241,experiment,104,↓,down,↓,0.5971269998699427,True,34,1
JJ-K-32K32S2,242,experiment,77,←,left,←,0.6032851999625564,True,34,1
JJ-K-32K32S2,243,experiment,80,↓,down,↓,0.5682137999683619,True,34,1
JJ-K-32K32S2,244,experiment,105,←,left,←,0.45481239981018007,True,34,1
JJ-K-32K32S2,245,experiment,65,↓,down,↓,0.5099806999787688,True,34,1
JJ-K-32K32S2,246,experiment,95,←,left,←,0.4738725000061095,True,34,1
JJ-K-32K32S2,247,experiment,63,←,left,←,0.4264136999845505,True,34,1
JJ-K-32K32S2,248,experiment,102,↑,up,↑,0.557885899906978,True,34,1
JJ-K-32K32S2,249,experiment,99,↑,left,←,0.510305899893865,False,34,1
JJ-K-32K32S2,250,experiment,57,→,left,←,0.5267167000565678,False,34,1
JJ-K-32K32S2,251,experiment,106,←,left,←,0.5421149001922458,True,34,1
JJ-K-32K32S2,252,experiment,70,↓,down,↓,0.5847910000011325,True,34,1
JJ-K-32K32S2,253,experiment,75,↑,up,↑,0.4962559000123292,True,34,1
JJ-K-32K32S2,254,experiment,86,→,left,←,0.719392100116238,False,34,1
JJ-K-32K32S2,255,experiment,74,↓,down,↓,0.5777515000663698,True,34,1
JJ-K-32K32S2,256,experiment,48,→,right,→,0.6343680999707431,True,34,1
JJ-K-32K32S2,257,experiment,93,←,left,←,0.5061367000453174,True,34,1
JJ-K-32K32S2,258,experiment,108,↓,down,↓,0.4894105999264866,True,34,1
JJ-K-32K32S2,259,experiment,71,↑,up,↑,0.5736661001574248,True,34,1
JJ-K-32K32S2,260,experiment,53,→,right,→,0.5085892998613417,True,34,1
JJ-K-32K32S2,261,experiment,81,↑,up,↑,0.5650549998972565,True,34,1
JJ-K-32K32S2,262,experiment,85,→,right,→,0.5136891000438482,True,34,1
JJ-K-32K32S2,263,experiment,92,→,right,→,0.5259669998195022,True,34,1
JJ-K-32K32S2,264,experiment,97,←,no_key,no_letter,-1.0,False,34,1
JJ-K-32K32S2,265,experiment,69,→,right,→,0.5550460000522435,True,34,1
JJ-K-32K32S2,266,experiment,49,→,right,→,0.5242711000610143,True,34,1
JJ-K-32K32S2,267,experiment,55,→,right,→,0.45279550016857684,True,34,1
JJ-K-32K32S2,268,experiment,58,→,left,←,0.5426704999990761,False,34,0
JJ-K-32K32S2,269,experiment,78,↓,down,↓,0.8148516998626292,True,34,1
JJ-K-32K32S2,270,experiment,82,↑,up,↑,0.658551000058651,True,34,1
JJ-K-32K32S2,271,experiment,68,↓,down,↓,0.5931785998400301,True,34,1
JJ-K-32K32S2,272,experiment,62,↓,down,↓,0.4687071999069303,True,34,1
JJ-K-32K32S2,273,experiment,76,→,left,←,0.6641361000947654,False,34,1
JJ-K-32K32S2,274,experiment,98,↓,down,↓,0.572761100018397,True,34,1
JJ-K-32K32S2,275,experiment,88,←,left,←,0.6161514001432806,True,34,1
JJ-K-32K32S2,276,experiment,73,↑,up,↑,0.5986307000275701,True,34,1
JJ-K-32K32S2,277,experiment,60,↑,up,↑,0.5145052999723703,True,34,1
JJ-K-32K32S2,278,experiment,94,→,left,←,0.34342220006510615,False,34,1
JJ-K-32K32S2,279,experiment,52,→,right,→,0.7187182002235204,True,34,0
JJ-K-32K32S2,280,experiment,101,↓,down,↓,0.5762497000396252,True,34,1
JJ-K-32K32S2,281,experiment,96,↓,down,↓,0.5207374000456184,True,34,1
JJ-K-32K32S2,282,experiment,107,←,left,←,0.5118791998829693,True,34,1
JJ-K-32K32S2,283,experiment,59,→,right,→,0.5517124999314547,True,34,1
JJ-K-32K32S2,284,experiment,84,→,right,→,0.5013052001595497,True,34,1
JJ-K-32K32S2,285,experiment,56,↓,down,↓,0.5183532999362797,True,34,1
JJ-K-32K32S2,286,experiment,89,↑,up,↑,0.5878538999240845,True,34,1
JJ-K-32K32S2,287,experiment,90,→,right,→,0.5735814999789,True,34,1
JJ-K-32K32S2,288,experiment,87,←,left,←,0.537785500055179,True,34,1
JJ-K-32K32S2,289,experiment,103,↓,down,↓,0.5053224000148475,True,34,1
JJ-K-32K32S2,290,experiment,72,→,right,→,0.4927080001216382,True,34,1
JJ-K-32K32S2,291,experiment,83,↓,down,↓,0.5652139000594616,True,34,1
JJ-K-32K32S2,292,experiment,54,↑,up,↑,0.5000652999151498,True,34,1
JJ-K-32K32S2,293,training,65,←,right,→,0.49708690005354583,False,34,0
JJ-K-32K32S2,294,training,108,→,left,←,0.43444300000555813,False,34,1
JJ-K-32K32S2,295,experiment,105,↓,down,↓,0.6598640999291092,True,34,1
JJ-K-32K32S2,296,experiment,59,←,up,↑,0.5173541000112891,False,34,1
JJ-K-32K32S2,297,experiment,71,↓,down,↓,0.5206194999627769,True,34,1
JJ-K-32K32S2,298,experiment,108,↓,down,↓,0.4640211001969874,True,34,1
JJ-K-32K32S2,299,experiment,69,↓,down,↓,0.39213669998571277,True,34,1
JJ-K-32K32S2,300,experiment,67,↓,down,↓,0.5036651999689639,True,34,0
JJ-K-32K32S2,301,experiment,73,↑,up,↑,0.6263950001448393,True,34,1
JJ-K-32K32S2,302,experiment,82,↓,down,↓,0.4859629001002759,True,34,1
JJ-K-32K32S2,303,experiment,100,→,right,→,0.5691566001623869,True,34,1
JJ-K-32K32S2,304,experiment,95,↑,up,↑,0.6104222000576556,True,34,1
JJ-K-32K32S2,305,experiment,84,↑,up,↑,0.5178489999379963,True,34,1
JJ-K-32K32S2,306,experiment,48,↓,down,↓,0.5368844999466091,True,34,1
JJ-K-32K32S2,307,experiment,92,→,right,→,0.5485050999559462,True,34,1
JJ-K-32K32S2,308,experiment,58,↓,down,↓,0.723016900010407,True,34,1
JJ-K-32K32S2,309,experiment,98,←,left,←,0.5571141000837088,True,34,1
JJ-K-32K32S2,310,experiment,81,→,right,→,0.5959094001445919,True,34,1
JJ-K-32K32S2,311,experiment,104,→,right,→,0.5524825002066791,True,34,1
JJ-K-32K32S2,312,experiment,83,↑,up,↑,0.5184431001543999,True,34,1
JJ-K-32K32S2,313,experiment,103,↓,down,↓,0.5593491999898106,True,34,1
JJ-K-32K32S2,314,experiment,97,↑,up,↑,0.5044130999594927,True,34,1
JJ-K-32K32S2,315,experiment,55,↑,up,↑,0.48966049985028803,True,34,1
JJ-K-32K32S2,316,experiment,68,↓,down,↓,0.5114112000446767,True,34,1
JJ-K-32K32S2,317,experiment,79,→,right,→,0.527962600113824,True,34,1
JJ-K-32K32S2,318,experiment,96,←,left,←,0.4750091000460088,True,34,1
JJ-K-32K32S2,319,experiment,49,↓,down,↓,0.8471140000037849,True,34,1
JJ-K-32K32S2,320,experiment,54,↑,up,↑,0.6188047998584807,True,34,1
JJ-K-32K32S2,321,experiment,76,→,left,←,0.7526402999646962,False,34,1
JJ-K-32K32S2,322,experiment,50,↑,up,↑,0.6737460000440478,True,34,1
JJ-K-32K32S2,323,experiment,72,←,left,←,0.5825706000905484,True,34,1
JJ-K-32K32S2,324,experiment,63,→,right,→,0.5777646000497043,True,34,1
JJ-K-32K32S2,325,experiment,106,↑,up,↑,0.494916700059548,True,34,1
JJ-K-32K32S2,326,experiment,89,↑,up,↑,0.6850646999664605,True,34,1
JJ-K-32K32S2,327,experiment,52,→,right,→,0.5843162999954075,True,34,1
JJ-K-32K32S2,328,experiment,90,←,left,←,0.5225867000408471,True,34,1
JJ-K-32K32S2,329,experiment,107,→,right,→,0.48960250010713935,True,34,1
JJ-K-32K32S2,330,experiment,102,→,right,→,0.7477990000043064,True,34,1
JJ-K-32K32S2,331,experiment,60,→,right,→,0.5134273997973651,True,34,1
JJ-K-32K32S2,332,experiment,75,→,right,→,0.491657700156793,True,34,1
JJ-K-32K32S2,333,experiment,65,→,right,→,0.4738666999619454,True,34,1
JJ-K-32K32S2,334,experiment,51,→,right,→,0.4621017000172287,True,34,1
JJ-K-32K32S2,335,experiment,64,↑,up,↑,0.5094810998998582,True,34,1
JJ-K-32K32S2,336,experiment,53,←,left,←,0.5113349000457674,True,34,1
JJ-K-32K32S2,337,experiment,61,↑,up,↑,0.5822554999031126,True,34,1
JJ-K-32K32S2,338,experiment,70,←,left,←,0.5114568998105824,True,34,1
JJ-K-32K32S2,339,experiment,93,↓,down,↓,0.6518002001103014,True,34,1
JJ-K-32K32S2,340,experiment,88,↓,down,↓,0.6045045999344438,True,34,1
JJ-K-32K32S2,341,experiment,99,↑,up,↑,0.5785486998502165,True,34,1
JJ-K-32K32S2,342,experiment,85,→,right,→,0.5988523999694735,True,34,1
JJ-K-32K32S2,343,experiment,86,←,left,←,0.4109296000096947,True,34,1
JJ-K-32K32S2,344,experiment,78,↑,up,↑,0.5108622999396175,True,34,0
JJ-K-32K32S2,345,experiment,62,→,right,→,0.5334085999056697,True,34,1
JJ-K-32K32S2,346,experiment,87,→,right,→,0.4908537999726832,True,34,1
JJ-K-32K32S2,347,experiment,101,↑,up,↑,0.5172027999069542,True,34,1
JJ-K-32K32S2,348,experiment,94,↓,down,↓,0.6729005000088364,True,34,1
JJ-K-32K32S2,349,experiment,74,←,left,←,1.6609625997953117,True,34,1
JJ-K-32K32S2,350,experiment,57,→,right,→,0.49495379999279976,True,34,1
JJ-K-32K32S2,351,experiment,66,↓,down,↓,0.6210455000400543,True,34,1
JJ-K-32K32S2,352,experiment,80,↓,down,↓,0.5214784999843687,True,34,1
JJ-K-32K32S2,353,experiment,77,↑,up,↑,0.6265685001853853,True,34,1
JJ-K-32K32S2,354,experiment,56,←,left,←,0.5185390000697225,True,34,1
JJ-K-32K32S2,355,experiment,91,←,left,←,0.4991695999633521,True,34,1
JJ-K-32K32S2,356,training,80,↑,up,↑,1.1294758000876755,True,33,0
JJ-K-32K32S2,357,training,60,→,right,→,0.4797894998919219,True,33,1
JJ-K-32K32S2,358,experiment,66,←,left,←,0.47020530002191663,True,33,1
JJ-K-32K32S2,359,experiment,63,←,left,←,0.7100422000512481,True,33,1
JJ-K-32K32S2,360,experiment,97,←,left,←,0.47287779999896884,True,33,1
JJ-K-32K32S2,361,experiment,100,←,left,←,0.45272850012406707,True,33,1
JJ-K-32K32S2,362,experiment,54,→,right,→,0.5278189999517053,True,33,1
JJ-K-32K32S2,363,experiment,68,←,left,←,0.7157489999663085,True,33,1
JJ-K-32K32S2,364,experiment,95,↓,down,↓,0.7112680999562144,True,33,1
JJ-K-32K32S2,365,experiment,108,→,right,→,0.5983287999406457,True,33,1
JJ-K-32K32S2,366,experiment,50,↓,down,↓,0.5971093999687582,True,33,1
JJ-K-32K32S2,367,experiment,94,↑,up,↑,0.6777409999631345,True,33,1
JJ-K-32K32S2,368,experiment,80,↑,up,↑,0.5117944998200983,True,33,1
JJ-K-32K32S2,369,experiment,74,↓,down,↓,0.5065808999352157,True,33,1
JJ-K-32K32S2,370,experiment,104,→,right,→,0.6272754000965506,True,33,1
JJ-K-32K32S2,371,experiment,103,←,left,←,0.4871934000402689,True,33,1
JJ-K-32K32S2,372,experiment,96,↓,up,↑,0.6433741000946611,False,33,1
JJ-K-32K32S2,373,experiment,65,←,left,←,0.523752799956128,True,33,1
JJ-K-32K32S2,374,experiment,93,↓,down,↓,0.6073670999612659,True,33,1
JJ-K-32K32S2,375,experiment,82,↑,up,↑,0.6594044999219477,True,33,1
JJ-K-32K32S2,376,experiment,84,←,left,←,0.4767720000818372,True,33,1
JJ-K-32K32S2,377,experiment,98,→,right,→,0.46456899982877076,True,33,1
JJ-K-32K32S2,378,experiment,64,→,right,→,0.6403167999815196,True,33,1
JJ-K-32K32S2,379,experiment,107,→,right,→,0.5387822000775486,True,33,1
JJ-K-32K32S2,380,experiment,51,←,left,←,0.4837319999933243,True,33,1
JJ-K-32K32S2,381,experiment,91,→,right,→,0.5457879998721182,True,33,1
JJ-K-32K32S2,382,experiment,81,↑,right,→,0.8725668999832124,False,33,1
JJ-K-32K32S2,383,experiment,69,→,right,→,0.646360200131312,True,33,1
JJ-K-32K32S2,384,experiment,106,↑,up,↑,0.5524879998993129,True,33,1
JJ-K-32K32S2,385,experiment,88,←,left,←,0.476944399997592,True,33,1
JJ-K-32K32S2,386,experiment,57,↑,up,↑,0.5588241999503225,True,33,1
JJ-K-32K32S2,387,experiment,86,↓,down,↓,0.6834867000579834,True,33,1
JJ-K-32K32S2,388,experiment,87,←,left,←,0.6667996998876333,True,33,1
JJ-K-32K32S2,389,experiment,70,→,right,→,0.5605752998962998,True,33,1
JJ-K-32K32S2,390,experiment,78,←,left,←,0.6562048001214862,True,33,1
JJ-K-32K32S2,391,experiment,77,↓,down,↓,0.5876965001225471,True,33,1
JJ-K-32K32S2,392,experiment,75,↑,up,↑,0.5628787998575717,True,33,1
JJ-K-32K32S2,393,experiment,105,↑,up,↑,0.5527552000712603,True,33,1
JJ-K-32K32S2,394,experiment,71,↓,down,↓,0.6592035999055952,True,33,1
JJ-K-32K32S2,395,experiment,62,↓,down,↓,0.49175410019233823,True,33,1
JJ-K-32K32S2,396,experiment,73,←,left,←,0.551768200006336,True,33,1
JJ-K-32K32S2,397,experiment,79,→,right,→,0.8870932999998331,True,33,1
JJ-K-32K32S2,398,experiment,56,←,left,←,0.7688373001292348,True,33,1
JJ-K-32K32S2,399,experiment,52,←,left,←,0.4961113000754267,True,33,1
JJ-K-32K32S2,400,experiment,102,←,no_key,no_letter,-1.0,False,33,1
JJ-K-32K32S2,401,experiment,76,↓,down,↓,0.6027228001039475,True,33,1
JJ-K-32K32S2,402,experiment,59,↑,no_key,no_letter,-1.0,False,33,1
JJ-K-32K32S2,403,experiment,55,↓,no_key,no_letter,-1.0,False,33,1
JJ-K-32K32S2,404,experiment,72,→,no_key,no_letter,-1.0,False,33,1
JJ-K-32K32S2,405,experiment,53,↑,up,↑,0.648431200068444,True,33,1
JJ-K-32K32S2,406,experiment,48,↓,down,↓,0.4782614998985082,True,33,1
JJ-K-32K32S2,407,experiment,60,←,left,←,0.5747438999824226,True,33,1
JJ-K-32K32S2,408,experiment,85,←,left,←,0.4750572999473661,True,33,1
JJ-K-32K32S2,409,experiment,58,↑,up,↑,0.6206825999543071,True,33,1
JJ-K-32K32S2,410,experiment,90,→,right,→,0.5414064000360668,True,33,1
JJ-K-32K32S2,411,experiment,67,←,left,←,0.7210987999569625,True,33,1
JJ-K-32K32S2,412,experiment,99,↓,down,↓,0.5306198999751359,True,33,1
JJ-K-32K32S2,413,experiment,61,↑,up,↑,0.6087560998275876,True,33,1
JJ-K-32K32S2,414,experiment,49,↓,down,↓,0.6319994002114981,True,33,1
JJ-K-32K32S2,415,experiment,101,→,right,→,0.5965253000613302,True,33,1
JJ-K-32K32S2,416,experiment,89,↑,up,↑,0.582593800034374,True,33,1
JJ-K-32K32S2,417,experiment,83,↑,up,↑,0.5472275998909026,True,33,1
JJ-K-32K32S2,418,experiment,92,→,right,→,0.4863453998696059,True,33,1
JJ-K-32K32S2,419,training,105,↓,no_key,no_letter,-1.0,False,32,0
JJ-K-32K32S2,420,training,72,↓,down,↓,0.6966271998826414,True,32,1
JJ-K-32K32S2,421,experiment,88,←,left,←,0.5748264000285417,True,32,1
JJ-K-32K32S2,422,experiment,81,→,left,←,0.5327368001453578,False,32,1
JJ-K-32K32S2,423,experiment,65,→,right,→,0.4974401001818478,True,32,1
JJ-K-32K32S2,424,experiment,80,↓,left,←,1.1784890999551862,False,32,1
JJ-K-32K32S2,425,experiment,72,←,left,←,0.514855399960652,True,32,1
JJ-K-32K32S2,426,experiment,83,↓,left,←,1.874212299939245,False,32,1
JJ-K-32K32S2,427,experiment,75,↓,left,←,0.7978370999917388,False,32,1
JJ-K-32K32S2,428,experiment,102,↓,down,↓,0.5873168001417071,True,32,1
JJ-K-32K32S2,429,experiment,71,←,left,←,0.5397638001013547,True,32,1
JJ-K-32K32S2,430,experiment,87,←,left,←,0.5448942999355495,True,32,1
JJ-K-32K32S2,431,experiment,69,→,left,←,0.5076846999581903,False,32,1
JJ-K-32K32S2,432,experiment,101,→,right,→,0.7093265999574214,True,32,1
JJ-K-32K32S2,433,experiment,58,←,left,←,0.46940609999001026,True,32,1
JJ-K-32K32S2,434,experiment,51,←,left,←,0.6097452000249177,True,32,1
JJ-K-32K32S2,435,experiment,92,↓,down,↓,0.5701460000127554,True,32,1
JJ-K-32K32S2,436,experiment,95,↓,down,↓,0.43634120002388954,True,32,1
JJ-K-32K32S2,437,experiment,50,→,right,→,0.48874280019663274,True,32,1
JJ-K-32K32S2,438,experiment,63,↑,up,↑,0.7279036999680102,True,32,1
JJ-K-32K32S2,439,experiment,105,←,left,←,0.4793052999302745,True,32,1
JJ-K-32K32S2,440,experiment,64,→,right,→,0.5824758999515325,True,32,1
JJ-K-32K32S2,441,experiment,107,↑,up,↑,0.5633030999451876,True,32,1
JJ-K-32K32S2,442,experiment,99,↑,up,↑,0.4993696000892669,True,32,1
JJ-K-32K32S2,443,experiment,62,↓,down,↓,0.5466197999194264,True,32,1
JJ-K-32K32S2,444,experiment,76,→,no_key,no_letter,-1.0,False,32,1
JJ-K-32K32S2,445,experiment,59,→,right,→,0.6973576999735087,True,32,1
JJ-K-32K32S2,446,experiment,60,→,right,→,0.9370227998588234,True,32,1
JJ-K-32K32S2,447,experiment,67,←,left,←,0.5968293999321759,True,32,1
JJ-K-32K32S2,448,experiment,108,↑,down,↓,1.088612199993804,False,32,1
JJ-K-32K32S2,449,experiment,77,↓,down,↓,0.6747491999994963,True,32,1
JJ-K-32K32S2,450,experiment,104,←,right,→,0.5807040000800043,False,32,1
JJ-K-32K32S2,451,experiment,94,↑,up,↑,0.5737848000135273,True,32,1
JJ-K-32K32S2,452,experiment,90,↓,down,↓,0.6564768999814987,True,32,1
JJ-K-32K32S2,453,experiment,89,→,right,→,0.7924212999641895,True,32,1
JJ-K-32K32S2,454,experiment,49,↑,up,↑,0.5358931000810117,True,32,1
JJ-K-32K32S2,455,experiment,56,←,left,←,0.679485599976033,True,32,1
JJ-K-32K32S2,456,experiment,85,→,right,→,0.7513175001367927,True,32,1
JJ-K-32K32S2,457,experiment,66,↑,up,↑,0.5631732998881489,True,32,1
JJ-K-32K32S2,458,experiment,86,→,right,→,0.6636598000768572,True,32,1
JJ-K-32K32S2,459,experiment,52,↓,down,↓,0.763489699922502,True,32,1
JJ-K-32K32S2,460,experiment,48,↓,down,↓,0.7644658000208437,True,32,1
JJ-K-32K32S2,461,experiment,84,↓,down,↓,0.5614091001916677,True,32,1
JJ-K-32K32S2,462,experiment,96,↓,down,↓,0.5146917998790741,True,32,1
JJ-K-32K32S2,463,experiment,78,←,left,←,0.6436475999653339,True,32,1
JJ-K-32K32S2,464,experiment,103,↓,down,↓,0.5030946000479162,True,32,1
JJ-K-32K32S2,465,experiment,91,→,right,→,0.46850610012188554,True,32,1
JJ-K-32K32S2,466,experiment,106,↓,down,↓,0.614351199939847,True,32,1
JJ-K-32K32S2,467,experiment,74,←,left,←,0.5567741000559181,True,32,1
JJ-K-32K32S2,468,experiment,70,←,left,←,0.6868065998423845,True,32,1
JJ-K-32K32S2,469,experiment,54,↓,down,↓,0.5608100998215377,True,32,1
JJ-K-32K32S2,470,experiment,61,→,right,→,0.509581700200215,True,32,1
JJ-K-32K32S2,471,experiment,79,↓,down,↓,0.49454149999655783,True,32,1
JJ-K-32K32S2,472,experiment,98,→,right,→,0.4901163000613451,True,32,1
JJ-K-32K32S2,473,experiment,93,↓,down,↓,0.558946899836883,True,32,1
JJ-K-32K32S2,474,experiment,73,→,left,←,0.512131700059399,False,32,1
JJ-K-32K32S2,475,experiment,100,↓,down,↓,0.45791530003771186,True,32,1
JJ-K-32K32S2,476,experiment,82,←,right,→,0.5239581000059843,False,32,1
JJ-K-32K32S2,477,experiment,97,↓,down,↓,0.5262983001302928,True,32,1
JJ-K-32K32S2,478,experiment,68,↑,up,↑,0.6265306998975575,True,32,1
JJ-K-32K32S2,479,experiment,57,→,right,→,0.9901680999901146,True,32,1
JJ-K-32K32S2,480,experiment,53,←,left,←,0.5404805999714881,True,32,1
JJ-K-32K32S2,481,experiment,55,↓,down,↓,0.6285200000274926,True,32,1
JJ-K-32K32S2,482,training,106,←,right,→,0.6601591999642551,False,32,0
JJ-K-32K32S2,483,training,80,←,left,←,0.5669583999551833,True,32,1
JJ-K-32K32S2,484,experiment,67,→,right,→,0.6416006998624653,True,32,1
JJ-K-32K32S2,485,experiment,102,↑,up,↑,0.581723399925977,True,32,1
JJ-K-32K32S2,486,experiment,83,↓,down,↓,0.49053940013982356,True,32,1
JJ-K-32K32S2,487,experiment,91,↓,down,↓,0.5361498999409378,True,32,1
JJ-K-32K32S2,488,experiment,68,↑,up,↑,0.6434963999781758,True,32,1
JJ-K-32K32S2,489,experiment,89,↓,down,↓,0.6519287000410259,True,32,1
JJ-K-32K32S2,490,experiment,48,↑,up,↑,0.5943176997825503,True,32,1
JJ-K-32K32S2,491,experiment,95,→,right,→,0.5217408000025898,True,32,1
JJ-K-32K32S2,492,experiment,73,←,left,←,0.5719951000064611,True,32,1
JJ-K-32K32S2,493,experiment,81,↓,down,↓,0.5378896000329405,True,32,1
JJ-K-32K32S2,494,experiment,94,↓,down,↓,0.556631000014022,True,32,1
JJ-K-32K32S2,495,experiment,55,←,left,←,0.5236349999904633,True,32,1
JJ-K-32K32S2,496,experiment,76,↓,down,↓,0.5171364999841899,True,32,1
JJ-K-32K32S2,497,experiment,69,↓,up,↑,0.777264199918136,False,32,1
JJ-K-32K32S2,498,experiment,65,↓,down,↓,0.6363576001022011,True,32,1
JJ-K-32K32S2,499,experiment,105,↑,up,↑,0.5515990999992937,True,32,1
JJ-K-32K32S2,500,experiment,75,→,right,→,0.6403007998596877,True,32,1
JJ-K-32K32S2,501,experiment,74,↓,down,↓,0.6537035000510514,True,32,1
JJ-K-32K32S2,502,experiment,101,↑,up,↑,0.7374011999927461,True,32,1
JJ-K-32K32S2,503,experiment,70,←,left,←,0.6119460000190884,True,32,1
JJ-K-32K32S2,504,experiment,78,↑,down,↓,0.585062500089407,False,32,1
JJ-K-32K32S2,505,experiment,98,↑,up,↑,0.568932699970901,True,32,1
JJ-K-32K32S2,506,experiment,100,↓,down,↓,0.5362180999945849,True,32,1
JJ-K-32K32S2,507,experiment,107,↓,down,↓,0.5187939000315964,True,32,1
JJ-K-32K32S2,508,experiment,90,→,right,→,0.7878934000618756,True,32,1
JJ-K-32K32S2,509,experiment,59,→,right,→,0.5684503999073058,True,32,1
JJ-K-32K32S2,510,experiment,104,→,right,→,0.4866957999765873,True,32,1
JJ-K-32K32S2,511,experiment,99,→,right,→,0.538264200091362,True,32,1
JJ-K-32K32S2,512,experiment,84,→,right,→,0.47209970001131296,True,32,1
JJ-K-32K32S2,513,experiment,96,↓,down,↓,0.6129745999351144,True,32,1
JJ-K-32K32S2,514,experiment,66,←,left,←,0.5820396998897195,True,32,1
JJ-K-32K32S2,515,experiment,62,↑,up,↑,0.8736813999712467,True,32,1
JJ-K-32K32S2,516,experiment,86,←,left,←,0.5216007002163678,True,32,1
JJ-K-32K32S2,517,experiment,60,↓,down,↓,0.5924502001143992,True,32,1
JJ-K-32K32S2,518,experiment,106,←,left,←,0.5650905000511557,True,32,1
JJ-K-32K32S2,519,experiment,56,→,left,←,0.5235242999624461,False,32,1
JJ-K-32K32S2,520,experiment,80,→,right,→,0.6117068000603467,True,32,1
JJ-K-32K32S2,521,experiment,79,↓,down,↓,0.5523920999839902,True,32,1
JJ-K-32K32S2,522,experiment,57,↑,up,↑,0.5671629998832941,True,32,1
JJ-K-32K32S2,523,experiment,63,←,left,←,0.5311845999676734,True,32,1
JJ-K-32K32S2,524,experiment,72,←,left,←,0.4856312000192702,True,32,1
JJ-K-32K32S2,525,experiment,52,↑,up,↑,0.4969398002140224,True,32,1
JJ-K-32K32S2,526,experiment,88,↓,down,↓,0.5670186998322606,True,32,1
JJ-K-32K32S2,527,experiment,97,↑,down,↓,0.47970879985950887,False,32,1
JJ-K-32K32S2,528,experiment,77,↓,down,↓,0.8986800999846309,True,32,1
JJ-K-32K32S2,529,experiment,49,↓,up,↑,0.6618576999753714,False,32,1
JJ-K-32K32S2,530,experiment,92,↓,down,↓,0.5725727998651564,True,32,1
JJ-K-32K32S2,531,experiment,108,←,left,←,0.7051057000644505,True,32,1
JJ-K-32K32S2,532,experiment,50,↓,down,↓,0.5398239998612553,True,32,1
JJ-K-32K32S2,533,experiment,51,←,left,←,0.572882300009951,True,32,1
JJ-K-32K32S2,534,experiment,82,↑,up,↑,0.6823895999696106,True,32,1
JJ-K-32K32S2,535,experiment,61,→,right,→,0.5464925998821855,True,32,1
JJ-K-32K32S2,536,experiment,85,↑,down,↓,0.7196676000021398,False,32,1
JJ-K-32K32S2,537,experiment,53,←,left,←,0.4573067999444902,True,32,1
JJ-K-32K32S2,538,experiment,103,→,right,→,0.5165111999958754,True,32,1
JJ-K-32K32S2,539,experiment,58,↑,up,↑,0.5320188000332564,True,32,1
JJ-K-32K32S2,540,experiment,71,↑,up,↑,0.4785480999853462,True,32,1
JJ-K-32K32S2,541,experiment,54,→,right,→,0.8254964000079781,True,32,1
JJ-K-32K32S2,542,experiment,93,→,right,→,0.5531188999302685,True,32,1
JJ-K-32K32S2,543,experiment,87,↓,down,↓,0.5576798000838608,True,32,1
JJ-K-32K32S2,544,experiment,64,↑,up,↑,0.5776879999320954,True,32,1
JJ-K-32K32S2,545,training,108,←,left,←,0.5230892000254244,True,31,0
JJ-K-32K32S2,546,training,66,→,right,→,0.511707799974829,True,31,1
JJ-K-32K32S2,547,experiment,62,←,left,←,0.5424694998655468,True,31,1
JJ-K-32K32S2,548,experiment,58,→,right,→,1.317146599991247,True,31,1
JJ-K-32K32S2,549,experiment,104,↓,down,↓,0.6534619000740349,True,31,1
JJ-K-32K32S2,550,experiment,81,↑,up,↑,0.46418989985249937,True,31,1
JJ-K-32K32S2,551,experiment,59,↓,left,←,0.8976463000290096,False,31,1
JJ-K-32K32S2,552,experiment,52,↓,down,↓,0.5881465000566095,True,31,1
JJ-K-32K32S2,553,experiment,91,→,left,←,0.6697463998571038,False,31,1
JJ-K-32K32S2,554,experiment,69,←,left,←,0.5075490998569876,True,31,1
JJ-K-32K32S2,555,experiment,89,↓,down,↓,0.5772730000317097,True,31,1
JJ-K-32K32S2,556,experiment,57,←,left,←,0.57500179996714,True,31,1
JJ-K-32K32S2,557,experiment,83,↓,down,↓,0.5639887000434101,True,31,1
JJ-K-32K32S2,558,experiment,102,→,left,←,0.49908270011655986,False,31,1
JJ-K-32K32S2,559,experiment,64,→,left,←,0.73739939997904,False,31,1
JJ-K-32K32S2,560,experiment,82,→,left,←,0.6961372001096606,False,31,1
JJ-K-32K32S2,561,experiment,103,↑,down,↓,0.5778089999221265,False,31,1
JJ-K-32K32S2,562,experiment,88,↓,down,↓,0.5008853999897838,True,31,1
JJ-K-32K32S2,563,experiment,55,→,left,←,0.6622825998347253,False,31,1
JJ-K-32K32S2,564,experiment,49,→,right,→,0.5873143998906016,True,31,1
JJ-K-32K32S2,565,experiment,61,↑,up,↑,0.5271059998776764,True,31,1
JJ-K-32K32S2,566,experiment,107,→,right,→,0.5738556000869721,True,31,1
JJ-K-32K32S2,567,experiment,66,←,left,←,0.48865979979746044,True,31,1
JJ-K-32K32S2,568,experiment,60,↓,down,↓,0.6087017001118511,True,31,1
JJ-K-32K32S2,569,experiment,106,↓,down,↓,0.57278270018287,True,31,1
JJ-K-32K32S2,570,experiment,79,↑,up,↑,0.667218399932608,True,31,1
JJ-K-32K32S2,571,experiment,74,←,left,←,0.591523600043729,True,31,1
JJ-K-32K32S2,572,experiment,50,→,right,→,0.5509540000930429,True,31,1
JJ-K-32K32S2,573,experiment,56,→,right,→,0.5580947999842465,True,31,1
JJ-K-32K32S2,574,experiment,87,→,right,→,0.6344178998842835,True,31,1
JJ-K-32K32S2,575,experiment,95,→,right,→,0.48133160010911524,True,31,1
JJ-K-32K32S2,576,experiment,76,↓,down,↓,0.5881274999119341,True,31,1
JJ-K-32K32S2,577,experiment,100,→,right,→,0.5549407000653446,True,31,1
JJ-K-32K32S2,578,experiment,77,←,left,←,0.578700999962166,True,31,1
JJ-K-32K32S2,579,experiment,75,↑,up,↑,0.5618604000192136,True,31,1
JJ-K-32K32S2,580,experiment,85,←,left,←,0.6550209999550134,True,31,1
JJ-K-32K32S2,581,experiment,54,←,left,←,0.5781984000932425,True,31,1
JJ-K-32K32S2,582,experiment,86,↓,down,↓,0.6061761998571455,True,31,1
JJ-K-32K32S2,583,experiment,105,→,left,←,0.7066144999116659,False,31,1
JJ-K-32K32S2,584,experiment,63,←,left,←,0.5529408999718726,True,31,1
JJ-K-32K32S2,585,experiment,48,↓,down,↓,0.5786390998400748,True,31,1
JJ-K-32K32S2,586,experiment,73,←,left,←,0.5551617001183331,True,31,1
JJ-K-32K32S2,587,experiment,101,←,left,←,0.49903069995343685,True,31,1
JJ-K-32K32S2,588,experiment,80,←,left,←,0.45984569983556867,True,31,1
JJ-K-32K32S2,589,experiment,94,↑,up,↑,0.7218074998818338,True,31,1
JJ-K-32K32S2,590,experiment,96,←,left,←,0.5725332000292838,True,31,1
JJ-K-32K32S2,591,experiment,71,↑,up,↑,0.6137046001385897,True,31,1
JJ-K-32K32S2,592,experiment,78,↑,up,↑,0.4911092999391258,True,31,1
JJ-K-32K32S2,593,experiment,65,↓,down,↓,0.6172795000020415,True,31,1
JJ-K-32K32S2,594,experiment,98,→,right,→,0.6795535997953266,True,31,1
JJ-K-32K32S2,595,experiment,90,←,left,←,0.48610129998996854,True,31,1
JJ-K-32K32S2,596,experiment,84,↓,down,↓,0.5660705000627786,True,31,1
JJ-K-32K32S2,597,experiment,97,→,right,→,0.6706330000888556,True,31,1
JJ-K-32K32S2,598,experiment,72,↓,down,↓,0.5634078001603484,True,31,1
JJ-K-32K32S2,599,experiment,68,→,left,←,0.5977966000791639,False,31,1
JJ-K-32K32S2,600,experiment,92,↑,up,↑,0.5668265998829156,True,31,1
JJ-K-32K32S2,601,experiment,51,↓,down,↓,0.5189285001251847,True,31,1
JJ-K-32K32S2,602,experiment,53,→,left,←,0.6160207998473197,False,31,1
JJ-K-32K32S2,603,experiment,67,↑,up,↑,0.5928257999476045,True,31,1
JJ-K-32K32S2,604,experiment,108,←,left,←,0.5730683000292629,True,31,1
JJ-K-32K32S2,605,experiment,99,↑,up,↑,0.5325845000334084,True,31,1
JJ-K-32K32S2,606,experiment,70,↓,down,↓,0.5357989999465644,True,31,1
JJ-K-32K32S2,607,experiment,93,↓,down,↓,0.5310096999164671,True,31,1
JJ-K-32K32S2,608,training,87,←,left,←,0.4850864999461919,True,31,0
JJ-K-32K32S2,609,training,106,→,right,→,0.6059648001100868,True,31,1
JJ-K-32K32S2,610,experiment,84,→,right,→,0.6978291999548674,True,31,1
JJ-K-32K32S2,611,experiment,53,↓,down,↓,0.571500499965623,True,31,1
JJ-K-32K32S2,612,experiment,85,↑,up,↑,0.5678076001349837,True,31,1
JJ-K-32K32S2,613,experiment,51,→,left,←,0.6008276001084596,False,31,1
JJ-K-32K32S2,614,experiment,102,↓,down,↓,0.6217896998859942,True,31,1
JJ-K-32K32S2,615,experiment,93,→,right,→,0.5976441998500377,True,31,1
JJ-K-32K32S2,616,experiment,68,↓,down,↓,0.6546283999923617,True,31,1
JJ-K-32K32S2,617,experiment,69,←,left,←,0.4848701998125762,True,31,1
JJ-K-32K32S2,618,experiment,54,←,left,←,0.5673285000957549,True,31,1
JJ-K-32K32S2,619,experiment,107,→,right,→,0.5886953000444919,True,31,1
JJ-K-32K32S2,620,experiment,49,↓,down,↓,0.6443662999663502,True,31,1
JJ-K-32K32S2,621,experiment,62,→,right,→,0.605907800141722,True,31,1
JJ-K-32K32S2,622,experiment,56,↑,up,↑,0.5385190998204052,True,31,1
JJ-K-32K32S2,623,experiment,70,↓,down,↓,0.6453996000345796,True,31,1
JJ-K-32K32S2,624,experiment,94,↑,down,↓,0.5633537999819964,False,31,1
JJ-K-32K32S2,625,experiment,61,↑,up,↑,0.5765393998008221,True,31,1
JJ-K-32K32S2,626,experiment,50,↓,down,↓,0.5926487999968231,True,31,1
JJ-K-32K32S2,627,experiment,60,←,left,←,0.5487428999040276,True,31,1
JJ-K-32K32S2,628,experiment,91,←,left,←,0.5360120998229831,True,31,1
JJ-K-32K32S2,629,experiment,80,←,left,←,0.5117210999596864,True,31,1
JJ-K-32K32S2,630,experiment,81,↑,up,↑,0.5757115001324564,True,31,1
JJ-K-32K32S2,631,experiment,58,→,right,→,0.49322249996475875,True,31,1
JJ-K-32K32S2,632,experiment,104,→,right,→,0.5264859001617879,True,31,1
JJ-K-32K32S2,633,experiment,48,←,left,←,0.6815233000088483,True,31,1
JJ-K-32K32S2,634,experiment,74,←,left,←,0.5171292000450194,True,31,1
JJ-K-32K32S2,635,experiment,95,↓,down,↓,0.6006526998244226,True,31,1
JJ-K-32K32S2,636,experiment,101,↓,down,↓,0.526425699936226,True,31,1
JJ-K-32K32S2,637,experiment,87,↑,up,↑,0.5882814000360668,True,31,1
JJ-K-32K32S2,638,experiment,82,→,right,→,0.7209999999031425,True,31,1
JJ-K-32K32S2,639,experiment,103,→,right,→,0.5696348000783473,True,31,1
JJ-K-32K32S2,640,experiment,65,←,left,←,0.5250907000154257,True,31,1
JJ-K-32K32S2,641,experiment,57,←,left,←,0.5487836000975221,True,31,1
JJ-K-32K32S2,642,experiment,92,←,left,←,0.5919955999124795,True,31,1
JJ-K-32K32S2,643,experiment,78,↑,up,↑,0.6379319000989199,True,31,1
JJ-K-32K32S2,644,experiment,90,↓,down,↓,0.5340070000384003,True,31,1
JJ-K-32K32S2,645,experiment,83,←,left,←,0.4294885001145303,True,31,1
JJ-K-32K32S2,646,experiment,99,→,right,→,0.5139239998534322,True,31,0
JJ-K-32K32S2,647,experiment,105,↑,up,↑,0.45011139987036586,True,31,1
JJ-K-32K32S2,648,experiment,76,→,left,←,0.44673279998824,False,31,1
JJ-K-32K32S2,649,experiment,73,→,right,→,0.539917399873957,True,31,1
JJ-K-32K32S2,650,experiment,108,↓,down,↓,0.6898709998931736,True,31,1
JJ-K-32K32S2,651,experiment,100,←,left,←,0.5086830998770893,True,31,1
JJ-K-32K32S2,652,experiment,97,←,left,←,0.48790069995447993,True,31,1
JJ-K-32K32S2,653,experiment,63,→,right,→,0.5428607000503689,True,31,1
JJ-K-32K32S2,654,experiment,79,←,left,←,0.4945150997955352,True,31,1
JJ-K-32K32S2,655,experiment,71,←,left,←,0.7389269000850618,True,31,1
JJ-K-32K32S2,656,experiment,64,←,left,←,0.5517738000489771,True,31,1
JJ-K-32K32S2,657,experiment,77,↓,down,↓,0.6082478000316769,True,31,1
JJ-K-32K32S2,658,experiment,59,↓,down,↓,0.5154211998451501,True,31,1
JJ-K-32K32S2,659,experiment,75,→,right,→,0.6216294998303056,True,31,1
JJ-K-32K32S2,660,experiment,72,↓,down,↓,0.7001991998404264,True,31,1
JJ-K-32K32S2,661,experiment,106,←,left,←,0.5326412001159042,True,31,1
JJ-K-32K32S2,662,experiment,52,←,left,←,0.5016481000930071,True,31,1
JJ-K-32K32S2,663,experiment,55,→,right,→,0.6231270001735538,True,31,1
JJ-K-32K32S2,664,experiment,96,←,left,←,0.5661175998393446,True,31,1
JJ-K-32K32S2,665,experiment,98,↑,up,↑,0.6700959999579936,True,31,1
JJ-K-32K32S2,666,experiment,67,↓,down,↓,0.6690161000005901,True,31,1
JJ-K-32K32S2,667,experiment,66,↓,down,↓,0.45201729983091354,True,31,1
JJ-K-32K32S2,668,experiment,88,←,left,←,0.5241662999615073,True,31,1
JJ-K-32K32S2,669,experiment,89,↑,down,↓,0.5212354999966919,False,31,1
JJ-K-32K32S2,670,experiment,86,→,right,→,0.6073547000996768,True,31,1
JJ-K-32K32S2,671,training,100,←,left,←,0.6223478999454528,True,30,0
JJ-K-32K32S2,672,training,62,←,left,←,0.4725634998176247,True,30,1
JJ-K-32K32S2,673,experiment,56,↓,up,↑,0.6345867000054568,False,30,1
JJ-K-32K32S2,674,experiment,98,↓,down,↓,0.6158749000169337,True,30,1
JJ-K-32K32S2,675,experiment,100,→,right,→,0.5419331998564303,True,30,1
JJ-K-32K32S2,676,experiment,53,←,left,←,0.5183095999527723,True,30,1
JJ-K-32K32S2,677,experiment,58,↓,down,↓,0.5817063001450151,True,30,1
JJ-K-32K32S2,678,experiment,103,↑,down,↓,0.9238255999516696,False,30,1
JJ-K-32K32S2,679,experiment,91,→,left,←,0.7201519999653101,False,30,1
JJ-K-32K32S2,680,experiment,49,↓,left,←,1.0266173998825252,False,30,1
JJ-K-32K32S2,681,experiment,85,↑,up,↑,0.6288600000552833,True,30,1
JJ-K-32K32S2,682,experiment,77,↓,down,↓,0.4975645998492837,True,30,1
JJ-K-32K32S2,683,experiment,96,↑,right,→,0.6453645001165569,False,30,1
JJ-K-32K32S2,684,experiment,94,←,left,←,0.5556459999643266,True,30,1
JJ-K-32K32S2,685,experiment,68,←,left,←,0.4943790999241173,True,30,1
JJ-K-32K32S2,686,experiment,105,←,left,←,0.45540440012700856,True,30,1
JJ-K-32K32S2,687,experiment,86,↑,up,↑,0.8082212000153959,True,30,1
JJ-K-32K32S2,688,experiment,70,↓,down,↓,0.6721077999100089,True,30,1
JJ-K-32K32S2,689,experiment,72,↓,down,↓,0.669012000085786,True,30,1
JJ-K-32K32S2,690,experiment,87,→,right,→,0.5249271998181939,True,30,1
JJ-K-32K32S2,691,experiment,59,↑,up,↑,0.5960508999414742,True,30,1
JJ-K-32K32S2,692,experiment,57,←,left,←,0.5529092000797391,True,30,1
JJ-K-32K32S2,693,experiment,69,→,right,→,0.5396124001126736,True,30,1
JJ-K-32K32S2,694,experiment,52,↑,up,↑,0.5241453000344336,True,30,1
JJ-K-32K32S2,695,experiment,74,↑,up,↑,0.49430739996023476,True,30,1
JJ-K-32K32S2,696,experiment,95,←,left,←,0.5628037999849766,True,30,1
JJ-K-32K32S2,697,experiment,62,↑,up,↑,0.4632160998880863,True,30,1
JJ-K-32K32S2,698,experiment,90,↑,up,↑,0.4462900999933481,True,30,1
JJ-K-32K32S2,699,experiment,48,←,left,←,0.4761538999155164,True,30,1
JJ-K-32K32S2,700,experiment,61,→,right,→,0.7405862999148667,True,30,1
JJ-K-32K32S2,701,experiment,108,↓,up,↑,0.7624743999913335,False,30,1
JJ-K-32K32S2,702,experiment,106,↓,down,↓,0.6884115999564528,True,30,1
JJ-K-32K32S2,703,experiment,80,↓,down,↓,0.8259486998431385,True,30,1
JJ-K-32K32S2,704,experiment,107,←,left,←,0.4768862999044359,True,30,1
JJ-K-32K32S2,705,experiment,89,↑,up,↑,0.49186350009404123,True,30,1
JJ-K-32K32S2,706,experiment,50,↑,up,↑,0.46313640009611845,True,30,1
JJ-K-32K32S2,707,experiment,104,↓,down,↓,0.6978527000173926,True,30,1
JJ-K-32K32S2,708,experiment,101,↑,up,↑,0.5717708999291062,True,30,1
JJ-K-32K32S2,709,experiment,102,↓,down,↓,0.6185307002160698,True,30,1
JJ-K-32K32S2,710,experiment,79,↓,down,↓,0.5592191000469029,True,30,1
JJ-K-32K32S2,711,experiment,97,←,left,←,0.608312499942258,True,30,1
JJ-K-32K32S2,712,experiment,54,→,right,→,0.533678499981761,True,30,1
JJ-K-32K32S2,713,experiment,75,↑,up,↑,0.5911141000688076,True,30,1
JJ-K-32K32S2,714,experiment,71,↓,down,↓,0.647502499865368,True,30,1
JJ-K-32K32S2,715,experiment,67,↑,up,↑,0.49488610005937517,True,30,1
JJ-K-32K32S2,716,experiment,76,↑,up,↑,0.5451625999994576,True,30,1
JJ-K-32K32S2,717,experiment,83,↓,up,↑,0.7199689999688417,False,30,1
JJ-K-32K32S2,718,experiment,84,→,right,→,0.7186422999948263,True,30,1
JJ-K-32K32S2,719,experiment,66,↑,up,↑,0.6192863998003304,True,30,1
JJ-K-32K32S2,720,experiment,78,←,left,←,0.5363205000758171,True,30,1
JJ-K-32K32S2,721,experiment,82,↓,down,↓,0.5114637999795377,True,30,1
JJ-K-32K32S2,722,experiment,93,↓,down,↓,0.6434569000266492,True,30,1
JJ-K-32K32S2,723,experiment,88,↑,up,↑,0.5163116999901831,True,30,1
JJ-K-32K32S2,724,experiment,92,→,right,→,0.5046848999336362,True,30,1
JJ-K-32K32S2,725,experiment,64,←,left,←,0.6628159999381751,True,30,1
JJ-K-32K32S2,726,experiment,55,↑,up,↑,0.5056300999131054,True,30,1
JJ-K-32K32S2,727,experiment,73,→,right,→,0.6125414001289755,True,30,1
JJ-K-32K32S2,728,experiment,51,↑,up,↑,0.49056730000302196,True,30,1
JJ-K-32K32S2,729,experiment,60,↑,up,↑,0.6107280999422073,True,30,1
JJ-K-32K32S2,730,experiment,65,→,right,→,0.5243147001601756,True,30,1
JJ-K-32K32S2,731,experiment,63,←,left,←,0.5301999999210238,True,30,1
JJ-K-32K32S2,732,experiment,99,↑,up,↑,0.48358820006251335,True,30,1
JJ-K-32K32S2,733,experiment,81,→,right,→,0.5249057998880744,True,30,1
JJ-K-32K32S2,734,training,78,↑,up,↑,0.4845982000697404,True,30,0
JJ-K-32K32S2,735,training,78,←,left,←,0.5190498998854309,True,30,1
JJ-K-32K32S2,736,experiment,94,↑,up,↑,0.4666202999651432,True,30,1
JJ-K-32K32S2,737,experiment,59,↓,down,↓,0.7479089999105781,True,30,1
JJ-K-32K32S2,738,experiment,88,←,left,←,0.4723227999638766,True,30,1
JJ-K-32K32S2,739,experiment,48,←,left,←,0.4451603000052273,True,30,1
JJ-K-32K32S2,740,experiment,65,↑,up,↑,0.48555670003406703,True,30,1
JJ-K-32K32S2,741,experiment,101,←,left,←,0.44788890006020665,True,30,1
JJ-K-32K32S2,742,experiment,52,↑,up,↑,0.4683674001134932,True,30,1
JJ-K-32K32S2,743,experiment,75,↑,up,↑,0.48876810004003346,True,30,1
JJ-K-32K32S2,744,experiment,98,→,left,←,0.4439871001522988,False,30,1
JJ-K-32K32S2,745,experiment,57,↓,down,↓,0.7108988999389112,True,30,1
JJ-K-32K32S2,746,experiment,79,↑,up,↑,0.47169249993748963,True,30,1
JJ-K-32K32S2,747,experiment,104,→,right,→,0.7377937999553978,True,30,1
JJ-K-32K32S2,748,experiment,51,←,left,←,0.5387389999814332,True,30,1
JJ-K-32K32S2,749,experiment,80,→,right,→,0.7222728999331594,True,30,1
JJ-K-32K32S2,750,experiment,50,↓,down,↓,0.7484029999468476,True,30,1
JJ-K-32K32S2,751,experiment,69,↑,up,↑,0.5109431999735534,True,30,1
JJ-K-32K32S2,752,experiment,58,↓,down,↓,0.49470839998684824,True,30,1
JJ-K-32K32S2,753,experiment,103,↓,down,↓,0.6883943001739681,True,30,1
JJ-K-32K32S2,754,experiment,108,←,left,←,0.6403233997989446,True,30,1
JJ-K-32K32S2,755,experiment,64,↑,down,↓,0.6172154999803752,False,30,1
JJ-K-32K32S2,756,experiment,86,↓,down,↓,0.5316953000146896,True,30,1
JJ-K-32K32S2,757,experiment,55,↑,up,↑,0.6196262000594288,True,30,1
JJ-K-32K32S2,758,experiment,60,↑,up,↑,0.518237299984321,True,30,1
JJ-K-32K32S2,759,experiment,62,↓,down,↓,0.548802100121975,True,30,1
JJ-K-32K32S2,760,experiment,102,→,right,→,0.540553200058639,True,30,1
JJ-K-32K32S2,761,experiment,84,→,right,→,0.46659239986911416,True,30,1
JJ-K-32K32S2,762,experiment,95,↓,right,→,0.011962099932134151,False,30,1
JJ-K-32K32S2,763,experiment,87,→,right,→,0.664869099855423,True,30,0
JJ-K-32K32S2,764,experiment,74,↓,down,↓,0.5572091999929398,True,30,1
JJ-K-32K32S2,765,experiment,105,↑,up,↑,0.5794365999754518,True,30,1
JJ-K-32K32S2,766,experiment,73,←,left,←,0.6435576998628676,True,30,1
JJ-K-32K32S2,767,experiment,91,↓,down,↓,0.5395460000727326,True,30,1
JJ-K-32K32S2,768,experiment,100,←,left,←,0.5240581000689417,True,30,1
JJ-K-32K32S2,769,experiment,106,←,left,←,0.8035308998078108,True,30,1
JJ-K-32K32S2,770,experiment,99,→,right,→,0.5536495000123978,True,30,1
JJ-K-32K32S2,771,experiment,92,↑,down,↓,0.5806307999882847,False,30,1
JJ-K-32K32S2,772,experiment,97,↑,up,↑,0.4684363000560552,True,30,1
JJ-K-32K32S2,773,experiment,61,↑,up,↑,0.6053314998280257,True,30,1
JJ-K-32K32S2,774,experiment,77,↑,up,↑,0.45094299991615117,True,30,1
JJ-K-32K32S2,775,experiment,53,←,right,→,0.5677195000462234,False,30,1
JJ-K-32K32S2,776,experiment,54,↓,up,↑,0.44616359984502196,False,30,1
JJ-K-32K32S2,777,experiment,107,↓,up,↑,0.42445420008152723,False,30,1
JJ-K-32K32S2,778,experiment,63,↓,down,↓,0.48209619987756014,True,30,0
JJ-K-32K32S2,779,experiment,72,↑,up,↑,0.510303300106898,True,30,1
JJ-K-32K32S2,780,experiment,90,→,right,→,0.5162895999383181,True,30,1
JJ-K-32K32S2,781,experiment,93,↓,down,↓,0.6878364000003785,True,30,1
JJ-K-32K32S2,782,experiment,89,←,left,←,0.5821428000926971,True,30,1
JJ-K-32K32S2,783,experiment,49,←,left,←,0.5503528001718223,True,30,1
JJ-K-32K32S2,784,experiment,83,←,left,←,0.4443323998712003,True,30,1
JJ-K-32K32S2,785,experiment,81,←,left,←,0.5833409999031574,True,30,1
JJ-K-32K32S2,786,experiment,82,←,left,←,0.5083187001291662,True,30,1
JJ-K-32K32S2,787,experiment,78,→,right,→,0.5339386002160609,True,30,1
JJ-K-32K32S2,788,experiment,67,↑,up,↑,0.5620033000595868,True,30,1
JJ-K-32K32S2,789,experiment,76,←,left,←,0.47429280006326735,True,30,1
JJ-K-32K32S2,790,experiment,96,↑,up,↑,0.4868200998753309,True,30,1
JJ-K-32K32S2,791,experiment,68,←,left,←,0.4520891001448035,True,30,1
JJ-K-32K32S2,792,experiment,66,↓,left,←,0.7638624000828713,False,30,1
JJ-K-32K32S2,793,experiment,70,→,right,→,1.2297230002004653,True,30,1
JJ-K-32K32S2,794,experiment,71,↓,down,↓,0.6123416000045836,True,30,1
JJ-K-32K32S2,795,experiment,85,→,right,→,0.5829505999572575,True,30,1
JJ-K-32K32S2,796,experiment,56,→,right,→,0.5647859000600874,True,30,1
JJ-K-32K32S2,797,training,53,←,left,←,1.0060104001313448,True,30,0
JJ-K-32K32S2,798,training,88,↑,up,↑,0.607849899912253,True,30,1
JJ-K-32K32S2,799,experiment,57,↓,down,↓,0.6684226000215858,True,30,1
JJ-K-32K32S2,800,experiment,53,→,right,→,0.6235181000083685,True,30,1
JJ-K-32K32S2,801,experiment,104,↓,down,↓,0.6275927000679076,True,30,1
JJ-K-32K32S2,802,experiment,52,→,right,→,0.9530782999936491,True,30,1
JJ-K-32K32S2,803,experiment,98,↓,down,↓,1.2815892999060452,True,30,1
JJ-K-32K32S2,804,experiment,79,→,right,→,0.49957220000214875,True,30,1
JJ-K-32K32S2,805,experiment,67,↓,down,↓,0.62507289997302,True,30,1
JJ-K-32K32S2,806,experiment,91,↑,up,↑,0.6334116999059916,True,30,1
JJ-K-32K32S2,807,experiment,87,↑,up,↑,0.6186393001116812,True,30,1
JJ-K-32K32S2,808,experiment,73,↓,down,↓,0.5375230999197811,True,30,1
JJ-K-32K32S2,809,experiment,69,↑,down,↓,0.4845354000572115,False,30,1
JJ-K-32K32S2,810,experiment,64,→,right,→,0.5638598999939859,True,30,1
JJ-K-32K32S2,811,experiment,108,↓,down,↓,0.6245426000095904,True,30,1
JJ-K-32K32S2,812,experiment,84,←,left,←,0.5634392998181283,True,30,1
JJ-K-32K32S2,813,experiment,88,↓,down,↓,0.6790827000513673,True,30,1
JJ-K-32K32S2,814,experiment,100,→,right,→,0.5381391001865268,True,30,1
JJ-K-32K32S2,815,experiment,61,↓,down,↓,0.6477697999216616,True,30,1
JJ-K-32K32S2,816,experiment,81,↓,down,↓,0.45086620002985,True,30,1
JJ-K-32K32S2,817,experiment,66,→,right,→,0.6102585000917315,True,30,1
JJ-K-32K32S2,818,experiment,72,←,left,←,0.6096415999345481,True,30,1
JJ-K-32K32S2,819,experiment,86,←,left,←,0.7800988000817597,True,30,1
JJ-K-32K32S2,820,experiment,70,↑,up,↑,0.6213399998378009,True,30,1
JJ-K-32K32S2,821,experiment,59,↑,up,↑,0.5203370999079198,True,30,1
JJ-K-32K32S2,822,experiment,65,→,right,→,0.5657836999744177,True,30,1
JJ-K-32K32S2,823,experiment,51,↑,up,↑,0.49370340001769364,True,30,1
JJ-K-32K32S2,824,experiment,55,↓,down,↓,0.6552303999196738,True,30,1
JJ-K-32K32S2,825,experiment,80,↓,down,↓,0.5539593999274075,True,30,1
JJ-K-32K32S2,826,experiment,97,↑,up,↑,0.5308419999200851,True,30,1
JJ-K-32K32S2,827,experiment,68,↓,down,↓,0.550586000084877,True,30,1
JJ-K-32K32S2,828,experiment,105,→,right,→,0.6294819000177085,True,30,1
JJ-K-32K32S2,829,experiment,82,→,right,→,0.48883639997802675,True,30,1
JJ-K-32K32S2,830,experiment,107,↑,up,↑,0.5852603998500854,True,30,1
JJ-K-32K32S2,831,experiment,101,→,right,→,0.5359964999370277,True,30,1
JJ-K-32K32S2,832,experiment,90,↑,up,↑,0.508230600040406,True,30,1
JJ-K-32K32S2,833,experiment,94,↓,down,↓,0.5765327999833971,True,30,1
JJ-K-32K32S2,834,experiment,58,↓,down,↓,0.5576695001218468,True,30,1
JJ-K-32K32S2,835,experiment,62,↓,up,↑,0.658389100106433,False,30,1
JJ-K-32K32S2,836,experiment,60,↑,up,↑,0.5159146999940276,True,30,1
JJ-K-32K32S2,837,experiment,75,↓,down,↓,0.6299370001070201,True,30,1
JJ-K-32K32S2,838,experiment,49,→,right,→,0.48420269996859133,True,30,1
JJ-K-32K32S2,839,experiment,96,←,left,←,0.5444633001461625,True,30,1
JJ-K-32K32S2,840,experiment,74,↓,down,↓,0.6260721001308411,True,30,1
JJ-K-32K32S2,841,experiment,48,↓,down,↓,0.7206228999421,True,30,1
JJ-K-32K32S2,842,experiment,63,↓,down,↓,0.36796860001049936,True,30,1
JJ-K-32K32S2,843,experiment,102,↓,down,↓,0.5890311000403017,True,30,0
JJ-K-32K32S2,844,experiment,78,→,right,→,0.5315950000658631,True,30,1
JJ-K-32K32S2,845,experiment,76,←,left,←,0.6122997000347823,True,30,1
JJ-K-32K32S2,846,experiment,95,←,left,←,0.4758282999973744,True,30,1
JJ-K-32K32S2,847,experiment,103,→,right,→,0.5422355001792312,True,30,1
JJ-K-32K32S2,848,experiment,56,→,right,→,0.5416632001288235,True,30,1
JJ-K-32K32S2,849,experiment,77,→,left,←,0.6060059999581426,False,30,1
JJ-K-32K32S2,850,experiment,106,↑,up,↑,0.5941983999218792,True,30,1
JJ-K-32K32S2,851,experiment,71,→,right,→,0.5306677999906242,True,30,1
JJ-K-32K32S2,852,experiment,89,→,right,→,0.4391607001889497,True,30,1
JJ-K-32K32S2,853,experiment,50,→,right,→,0.47648190008476377,True,30,1
JJ-K-32K32S2,854,experiment,92,↓,down,↓,0.578902899986133,True,30,1
JJ-K-32K32S2,855,experiment,99,↑,up,↑,0.762097000144422,True,30,1
JJ-K-32K32S2,856,experiment,83,↓,down,↓,0.5522749000228941,True,30,1
JJ-K-32K32S2,857,experiment,93,←,left,←,0.6502649001777172,True,30,1
JJ-K-32K32S2,858,experiment,85,↓,down,↓,0.4834539000876248,True,30,1
JJ-K-32K32S2,859,experiment,54,↓,down,↓,0.6301122000440955,True,30,1
JJ-K-32K32S2,860,training,55,↑,up,↑,1.3596109999343753,True,29,0
JJ-K-32K32S2,861,training,74,←,left,←,0.6480076999869198,True,29,1
JJ-K-32K32S2,862,experiment,86,→,left,←,0.5453055999241769,False,29,1
JJ-K-32K32S2,863,experiment,84,↑,up,↑,0.5275210998952389,True,29,1
JJ-K-32K32S2,864,experiment,49,→,right,→,0.6177179000806063,True,29,1
JJ-K-32K32S2,865,experiment,90,←,left,←,0.5227293998468667,True,29,1
JJ-K-32K32S2,866,experiment,66,→,right,→,0.5274525000713766,True,29,1
JJ-K-32K32S2,867,experiment,87,↓,down,↓,0.6132813000585884,True,29,1
JJ-K-32K32S2,868,experiment,80,←,left,←,0.5538009000010788,True,29,1
JJ-K-32K32S2,869,experiment,107,↓,down,↓,0.7432313000317663,True,29,1
JJ-K-32K32S2,870,experiment,103,→,right,→,0.4949064999818802,True,29,1
JJ-K-32K32S2,871,experiment,101,←,left,←,0.4729919000528753,True,29,1
JJ-K-32K32S2,872,experiment,71,→,right,→,0.4940425001550466,True,29,1
JJ-K-32K32S2,873,experiment,70,↑,up,↑,0.49129010015167296,True,29,1
JJ-K-32K32S2,874,experiment,93,←,left,←,0.456294700037688,True,29,1
JJ-K-32K32S2,875,experiment,81,↑,up,↑,0.45828830008395016,True,29,1
JJ-K-32K32S2,876,experiment,65,→,right,→,0.44202949991449714,True,29,1
JJ-K-32K32S2,877,experiment,88,→,left,←,0.6348946001380682,False,29,1
JJ-K-32K32S2,878,experiment,69,←,left,←,0.5784372000489384,True,29,1
JJ-K-32K32S2,879,experiment,55,↓,down,↓,0.8486844000872225,True,29,1
JJ-K-32K32S2,880,experiment,51,→,right,→,0.6293047000654042,True,29,1
JJ-K-32K32S2,881,experiment,82,↑,down,↓,0.6803528000600636,False,29,1
JJ-K-32K32S2,882,experiment,58,←,left,←,0.465361500158906,True,29,1
JJ-K-32K32S2,883,experiment,94,↓,down,↓,0.6631968999281526,True,29,1
JJ-K-32K32S2,884,experiment,96,→,right,→,0.6203388997819275,True,29,1
JJ-K-32K32S2,885,experiment,78,→,left,←,0.5772044998593628,False,29,1
JJ-K-32K32S2,886,experiment,64,←,right,→,0.7883164000231773,False,29,1
JJ-K-32K32S2,887,experiment,73,↑,up,↑,0.6359711000695825,True,29,1
JJ-K-32K32S2,888,experiment,52,→,right,→,0.6172329001128674,True,29,1
JJ-K-32K32S2,889,experiment,105,↑,up,↑,0.5090875001624227,True,29,1
JJ-K-32K32S2,890,experiment,74,↓,down,↓,0.7358109999913722,True,29,1
JJ-K-32K32S2,891,experiment,61,→,right,→,0.5100114000961185,True,29,1
JJ-K-32K32S2,892,experiment,99,←,left,←,0.4962796999607235,True,29,1
JJ-K-32K32S2,893,experiment,48,→,right,→,0.5322321001440287,True,29,1
JJ-K-32K32S2,894,experiment,63,←,left,←,0.6902006999589503,True,29,1
JJ-K-32K32S2,895,experiment,91,→,right,→,0.5273736000526696,True,29,1
JJ-K-32K32S2,896,experiment,102,↓,down,↓,0.616082499967888,True,29,1
JJ-K-32K32S2,897,experiment,75,↑,up,↑,0.5661524999886751,True,29,1
JJ-K-32K32S2,898,experiment,97,↓,down,↓,0.5266978999134153,True,29,1
JJ-K-32K32S2,899,experiment,72,→,left,←,0.5534778998699039,False,29,1
JJ-K-32K32S2,900,experiment,104,↑,up,↑,0.5044630998745561,True,29,1
JJ-K-32K32S2,901,experiment,76,↓,down,↓,0.6670091999694705,True,29,1
JJ-K-32K32S2,902,experiment,98,→,right,→,0.5348717998713255,True,29,1
JJ-K-32K32S2,903,experiment,89,←,left,←,0.6036499999463558,True,29,1
JJ-K-32K32S2,904,experiment,57,→,right,→,0.5038252999074757,True,29,1
JJ-K-32K32S2,905,experiment,53,↓,down,↓,0.6262660999782383,True,29,1
JJ-K-32K32S2,906,experiment,100,→,right,→,0.5592014000285417,True,29,1
JJ-K-32K32S2,907,experiment,50,→,right,→,0.6318783999886364,True,29,1
JJ-K-32K32S2,908,experiment,83,←,left,←,0.6185644001234323,True,29,1
JJ-K-32K32S2,909,experiment,54,→,right,→,1.2877279000822455,True,29,1
JJ-K-32K32S2,910,experiment,92,←,left,←,0.6291100999806076,True,29,1
JJ-K-32K32S2,911,experiment,56,↑,up,↑,0.5528704999014735,True,29,1
JJ-K-32K32S2,912,experiment,67,↓,down,↓,0.5001072001177818,True,29,1
JJ-K-32K32S2,913,experiment,85,↓,down,↓,0.49160640011541545,True,29,1
JJ-K-32K32S2,914,experiment,106,↑,up,↑,0.6044234000146389,True,29,1
JJ-K-32K32S2,915,experiment,59,←,left,←,0.5201355000026524,True,29,1
JJ-K-32K32S2,916,experiment,108,↓,down,↓,0.5187591998837888,True,29,1
JJ-K-32K32S2,917,experiment,62,→,right,→,0.5330087000038475,True,29,1
JJ-K-32K32S2,918,experiment,60,↓,down,↓,0.587701000040397,True,29,1
JJ-K-32K32S2,919,experiment,77,↓,down,↓,0.5060368000995368,True,29,1
JJ-K-32K32S2,920,experiment,95,↓,down,↓,0.5577829000540078,True,29,1
JJ-K-32K32S2,921,experiment,68,↑,up,↑,0.5763882999308407,True,29,1
JJ-K-32K32S2,922,experiment,79,→,right,→,1.5664193998090923,True,29,1
JJ-K-32K32S2,923,training,56,↑,up,↑,0.48535049986094236,True,28,0
JJ-K-32K32S2,924,training,56,→,left,←,0.6792352001648396,False,28,1
JJ-K-32K32S2,925,experiment,68,↓,down,↓,0.49277770007029176,True,28,1
JJ-K-32K32S2,926,experiment,97,↑,up,↑,0.5764792999252677,True,28,1
JJ-K-32K32S2,927,experiment,54,↑,up,↑,0.6233206999022514,True,28,1
JJ-K-32K32S2,928,experiment,100,↓,down,↓,0.5406394999008626,True,28,1
JJ-K-32K32S2,929,experiment,84,←,left,←,0.5387438999023288,True,28,1
JJ-K-32K32S2,930,experiment,71,↑,up,↑,0.501029800157994,True,28,1
JJ-K-32K32S2,931,experiment,55,↓,down,↓,0.5663789000827819,True,28,1
JJ-K-32K32S2,932,experiment,64,↑,up,↑,0.5063489999156445,True,28,1
JJ-K-32K32S2,933,experiment,49,↑,down,↓,0.4372560998890549,False,28,1
JJ-K-32K32S2,934,experiment,79,↓,down,↓,0.5692284998949617,True,28,1
JJ-K-32K32S2,935,experiment,92,↑,up,↑,0.443599299993366,True,28,1
JJ-K-32K32S2,936,experiment,105,←,left,←,0.5585716001223773,True,28,1
JJ-K-32K32S2,937,experiment,69,↓,down,↓,0.5930431999731809,True,28,1
JJ-K-32K32S2,938,experiment,108,→,right,→,0.5170829000417143,True,28,1
JJ-K-32K32S2,939,experiment,102,←,left,←,0.40628260001540184,True,28,1
JJ-K-32K32S2,940,experiment,75,↓,down,↓,0.5803012000396848,True,28,1
JJ-K-32K32S2,941,experiment,87,→,right,→,0.6479126000776887,True,28,1
JJ-K-32K32S2,942,experiment,73,↑,up,↑,0.5491790999658406,True,28,1
JJ-K-32K32S2,943,experiment,65,→,right,→,0.561354799894616,True,28,1
JJ-K-32K32S2,944,experiment,91,←,left,←,0.5084801998455077,True,28,1
JJ-K-32K32S2,945,experiment,53,↑,up,↑,0.4780823001638055,True,28,1
JJ-K-32K32S2,946,experiment,72,→,right,→,0.48268730007112026,True,28,1
JJ-K-32K32S2,947,experiment,103,↑,up,↑,0.4604654998984188,True,28,1
JJ-K-32K32S2,948,experiment,93,↑,up,↑,0.4588886999990791,True,28,1
JJ-K-32K32S2,949,experiment,99,←,left,←,0.5273890001699328,True,28,1
JJ-K-32K32S2,950,experiment,59,←,left,←,0.4385495998430997,True,28,1
JJ-K-32K32S2,951,experiment,67,←,left,←,0.6623017999809235,True,28,1
JJ-K-32K32S2,952,experiment,77,↑,up,↑,0.5465995999984443,True,28,1
JJ-K-32K32S2,953,experiment,70,→,right,→,0.5321649999823421,True,28,1
JJ-K-32K32S2,954,experiment,63,←,left,←,0.4413364001084119,True,28,1
JJ-K-32K32S2,955,experiment,82,↓,down,↓,0.708214599872008,True,28,1
JJ-K-32K32S2,956,experiment,80,↑,up,↑,0.5970303998328745,True,28,1
JJ-K-32K32S2,957,experiment,83,→,no_key,no_letter,-1.0,False,28,1
JJ-K-32K32S2,958,experiment,88,↑,left,←,0.7111239000223577,False,28,1
JJ-K-32K32S2,959,experiment,95,↓,down,↓,0.6266993000172079,True,28,1
JJ-K-32K32S2,960,experiment,51,→,left,←,0.7845683000050485,False,28,1
JJ-K-32K32S2,961,experiment,58,↑,up,↑,0.5416137999854982,True,28,1
JJ-K-32K32S2,962,experiment,76,→,left,←,0.5263739000074565,False,28,1
JJ-K-32K32S2,963,experiment,86,↓,down,↓,0.5965814001392573,True,28,1
JJ-K-32K32S2,964,experiment,98,↓,down,↓,0.6514095000457019,True,28,1
JJ-K-32K32S2,965,experiment,50,→,right,→,0.5448736001271755,True,28,1
JJ-K-32K32S2,966,experiment,78,←,left,←,0.544497599825263,True,28,1
JJ-K-32K32S2,967,experiment,90,↓,down,↓,0.6684790002182126,True,28,1
JJ-K-32K32S2,968,experiment,48,↑,up,↑,0.5054440998937935,True,28,1
JJ-K-32K32S2,969,experiment,60,↑,up,↑,0.5929248998872936,True,28,1
JJ-K-32K32S2,970,experiment,96,↑,up,↑,0.488969299942255,True,28,1
JJ-K-32K32S2,971,experiment,56,↑,up,↑,0.5302830000873655,True,28,1
JJ-K-32K32S2,972,experiment,101,←,left,←,0.5872257999144495,True,28,1
JJ-K-32K32S2,973,experiment,85,↑,up,↑,0.6466685999184847,True,28,1
JJ-K-32K32S2,974,experiment,62,→,right,→,0.5116610999684781,True,28,1
JJ-K-32K32S2,975,experiment,52,←,left,←,0.5298628997988999,True,28,1
JJ-K-32K32S2,976,experiment,81,←,left,←,0.5294542999472469,True,28,1
JJ-K-32K32S2,977,experiment,107,↑,up,↑,0.5679675000719726,True,28,1
JJ-K-32K32S2,978,experiment,89,↓,down,↓,0.7474237999413162,True,28,1
JJ-K-32K32S2,979,experiment,57,←,left,←,0.4741787000093609,True,28,1
JJ-K-32K32S2,980,experiment,74,↑,up,↑,0.5421571000479162,True,28,1
JJ-K-32K32S2,981,experiment,94,←,left,←,0.5211217000614852,True,28,1
JJ-K-32K32S2,982,experiment,106,←,left,←,0.4804702999535948,True,28,1
JJ-K-32K32S2,983,experiment,66,↑,up,↑,0.5267673002090305,True,28,1
JJ-K-32K32S2,984,experiment,61,↑,up,↑,0.5971526999492198,True,28,1
JJ-K-32K32S2,985,experiment,104,→,right,→,0.698173499898985,True,28,1
JJ-K-32K32S2,986,training,104,→,left,←,0.5689270999282598,False,28,0
JJ-K-32K32S2,987,training,74,→,right,→,0.5053645998705178,True,28,1
JJ-K-32K32S2,988,experiment,78,←,left,←,0.4590436997823417,True,28,1
JJ-K-32K32S2,989,experiment,70,↑,up,↑,0.4970372000243515,True,28,1
JJ-K-32K32S2,990,experiment,66,↓,up,↑,0.4546753999311477,False,28,1
JJ-K-32K32S2,991,experiment,55,↓,up,↑,0.40177099988795817,False,28,1
JJ-K-32K32S2,992,experiment,97,→,right,→,0.5207940000109375,True,28,0
JJ-K-32K32S2,993,experiment,63,→,right,→,0.6469956999644637,True,28,1
JJ-K-32K32S2,994,experiment,77,↓,down,↓,0.6751143999863416,True,28,1
JJ-K-32K32S2,995,experiment,103,←,right,→,0.7654702998697758,False,28,1
JJ-K-32K32S2,996,experiment,90,↑,up,↑,0.46457920013926923,True,28,1
JJ-K-32K32S2,997,experiment,54,↑,up,↑,1.2755986000411212,True,28,1
JJ-K-32K32S2,998,experiment,100,↓,down,↓,0.6468196997884661,True,28,1
JJ-K-32K32S2,999,experiment,50,↑,down,↓,0.563867500051856,False,28,1
JJ-K-32K32S2,1000,experiment,108,↑,down,↓,1.0727405999787152,False,28,1
JJ-K-32K32S2,1001,experiment,52,→,right,→,0.6922504999674857,True,28,1
JJ-K-32K32S2,1002,experiment,105,↑,up,↑,0.5972686000168324,True,28,1
JJ-K-32K32S2,1003,experiment,56,↑,up,↑,0.47445740015245974,True,28,1
JJ-K-32K32S2,1004,experiment,96,↓,down,↓,0.5349678001366556,True,28,1
JJ-K-32K32S2,1005,experiment,76,→,right,→,0.5841574999503791,True,28,1
JJ-K-32K32S2,1006,experiment,48,↓,down,↓,0.5844833999872208,True,28,1
JJ-K-32K32S2,1007,experiment,51,↓,down,↓,1.3841329999268055,True,28,1
JJ-K-32K32S2,1008,experiment,74,←,left,←,0.5276866001076996,True,28,1
JJ-K-32K32S2,1009,experiment,83,↑,up,↑,0.5263263999950141,True,28,1
JJ-K-32K32S2,1010,experiment,61,←,left,←,0.6127991999965161,True,28,1
JJ-K-32K32S2,1011,experiment,79,↓,down,↓,0.6655870999675244,True,28,1
JJ-K-32K32S2,1012,experiment,81,→,right,→,0.4996042000129819,True,28,1
JJ-K-32K32S2,1013,experiment,75,→,right,→,0.5344583000987768,True,28,1
JJ-K-32K32S2,1014,experiment,67,←,left,←,0.6583053001668304,True,28,1
JJ-K-32K32S2,1015,experiment,98,←,left,←,0.5350552001036704,True,28,1
JJ-K-32K32S2,1016,experiment,57,→,left,←,0.5425269999541342,False,28,1
JJ-K-32K32S2,1017,experiment,64,→,right,→,0.4755130000412464,True,28,1
JJ-K-32K32S2,1018,experiment,73,↑,up,↑,0.5039589998777956,True,28,1
JJ-K-32K32S2,1019,experiment,58,↑,up,↑,0.4961401999462396,True,28,1
JJ-K-32K32S2,1020,experiment,87,→,right,→,0.48675870010629296,True,28,1
JJ-K-32K32S2,1021,experiment,80,←,left,←,0.44823750015348196,True,28,1
JJ-K-32K32S2,1022,experiment,92,←,left,←,0.4553697002120316,True,28,1
JJ-K-32K32S2,1023,experiment,84,←,left,←,0.40851230011321604,True,28,1
JJ-K-32K32S2,1024,experiment,60,↓,down,↓,0.684130699839443,True,28,1
JJ-K-32K32S2,1025,experiment,49,←,left,←,0.5042232999112457,True,28,1
JJ-K-32K32S2,1026,experiment,94,←,left,←,0.46064380020834506,True,28,1
JJ-K-32K32S2,1027,experiment,82,→,right,→,0.5983335999771953,True,28,1
JJ-K-32K32S2,1028,experiment,99,↓,down,↓,0.7172382001299411,True,28,1
JJ-K-32K32S2,1029,experiment,68,↓,down,↓,0.569453899981454,True,28,1
JJ-K-32K32S2,1030,experiment,107,↑,up,↑,0.6062847999855876,True,28,1
JJ-K-32K32S2,1031,experiment,88,←,left,←,0.48878840007819235,True,28,1
JJ-K-32K32S2,1032,experiment,69,↑,up,↑,0.5334900999441743,True,28,1
JJ-K-32K32S2,1033,experiment,91,↓,down,↓,0.6493889999110252,True,28,1
JJ-K-32K32S2,1034,experiment,59,←,left,←,0.4596373999956995,True,28,1
JJ-K-32K32S2,1035,experiment,86,→,right,→,0.5083810000214726,True,28,1
JJ-K-32K32S2,1036,experiment,65,→,left,←,0.4905000999569893,False,28,1
JJ-K-32K32S2,1037,experiment,89,→,right,→,0.4726843999233097,True,28,1
JJ-K-32K32S2,1038,experiment,53,↑,up,↑,0.6516563000623137,True,28,1
JJ-K-32K32S2,1039,experiment,101,↓,down,↓,0.503671099897474,True,28,1
JJ-K-32K32S2,1040,experiment,95,←,left,←,0.571496699936688,True,28,1
JJ-K-32K32S2,1041,experiment,102,→,right,→,0.45031119999475777,True,28,1
JJ-K-32K32S2,1042,experiment,85,→,left,←,0.4995762000326067,False,28,1
JJ-K-32K32S2,1043,experiment,106,↓,down,↓,0.6280858998652548,True,28,1
JJ-K-32K32S2,1044,experiment,72,↓,down,↓,0.47467699996195734,True,28,1
JJ-K-32K32S2,1045,experiment,104,↑,up,↑,0.7087242000270635,True,28,1
JJ-K-32K32S2,1046,experiment,71,↓,down,↓,0.5843549000564963,True,28,1
JJ-K-32K32S2,1047,experiment,93,←,left,←,0.5136720000300556,True,28,1
JJ-K-32K32S2,1048,experiment,62,←,left,←,0.45612380001693964,True,28,1
JJ-K-32K32S2,1049,training,49,↓,down,↓,0.5967220000457019,True,28,0
JJ-K-32K32S2,1050,training,96,←,left,←,0.5084685001056641,True,28,1
JJ-K-32K32S2,1051,experiment,61,←,left,←,0.4834131000097841,True,28,1
JJ-K-32K32S2,1052,experiment,89,↑,up,↑,0.5381964000407606,True,28,1
JJ-K-32K32S2,1053,experiment,71,↑,up,↑,1.6524203999433666,True,28,1
JJ-K-32K32S2,1054,experiment,68,→,right,→,0.5232033999636769,True,28,1
JJ-K-32K32S2,1055,experiment,87,→,left,←,0.5210788999684155,False,28,1
JJ-K-32K32S2,1056,experiment,57,↓,down,↓,1.0728371001314372,True,28,1
JJ-K-32K32S2,1057,experiment,99,←,left,←,0.6044699000194669,True,28,1
JJ-K-32K32S2,1058,experiment,72,↓,down,↓,0.6198575999587774,True,28,1
JJ-K-32K32S2,1059,experiment,80,←,left,←,0.5283584001008421,True,28,1
JJ-K-32K32S2,1060,experiment,64,→,right,→,0.4292703999672085,True,28,1
JJ-K-32K32S2,1061,experiment,101,↑,down,↓,0.6980431999545544,False,28,1
JJ-K-32K32S2,1062,experiment,100,←,left,←,0.5483323000371456,True,28,1
JJ-K-32K32S2,1063,experiment,104,→,left,←,0.7233116999268532,False,28,1
JJ-K-32K32S2,1064,experiment,82,↑,down,↓,1.0828197000082582,False,28,1
JJ-K-32K32S2,1065,experiment,65,→,left,←,0.5053179999813437,False,28,1
JJ-K-32K32S2,1066,experiment,76,↓,down,↓,0.6116306001786143,True,28,1
JJ-K-32K32S2,1067,experiment,50,↓,down,↓,0.498577400110662,True,28,1
JJ-K-32K32S2,1068,experiment,59,↓,down,↓,0.4824282000772655,True,28,1
JJ-K-32K32S2,1069,experiment,81,←,left,←,0.5076355999335647,True,28,1
JJ-K-32K32S2,1070,experiment,86,→,right,→,0.5065703999716789,True,28,1
JJ-K-32K32S2,1071,experiment,95,→,right,→,0.5262249999213964,True,28,1
JJ-K-32K32S2,1072,experiment,108,↑,up,↑,0.5808145001064986,True,28,1
JJ-K-32K32S2,1073,experiment,75,←,left,←,0.5323822000063956,True,28,1
JJ-K-32K32S2,1074,experiment,98,←,left,←,0.485916499979794,True,28,1
JJ-K-32K32S2,1075,experiment,51,→,right,→,0.5609944998286664,True,28,1
JJ-K-32K32S2,1076,experiment,48,→,right,→,0.5144922998733819,True,28,1
JJ-K-32K32S2,1077,experiment,93,←,right,→,0.4785466000903398,False,28,1
JJ-K-32K32S2,1078,experiment,96,→,right,→,0.46718099992722273,True,28,1
JJ-K-32K32S2,1079,experiment,91,←,left,←,0.48169120005331933,True,28,1
JJ-K-32K32S2,1080,experiment,83,↓,down,↓,0.7064263999927789,True,28,1
JJ-K-32K32S2,1081,experiment,74,↓,down,↓,0.613294999813661,True,28,1
JJ-K-32K32S2,1082,experiment,58,→,right,→,0.6090030998457223,True,28,1
JJ-K-32K32S2,1083,experiment,84,↑,up,↑,0.5403378999326378,True,28,1
JJ-K-32K32S2,1084,experiment,90,→,left,←,0.7842555001843721,False,28,1
JJ-K-32K32S2,1085,experiment,66,↓,down,↓,0.5706513999029994,True,28,1
JJ-K-32K32S2,1086,experiment,79,↓,up,↑,0.9133009000215679,False,28,1
JJ-K-32K32S2,1087,experiment,70,↓,down,↓,0.48512850003317,True,28,1
JJ-K-32K32S2,1088,experiment,53,→,right,→,1.055959700141102,True,28,1
JJ-K-32K32S2,1089,experiment,92,→,right,→,0.5425146999768913,True,28,1
JJ-K-32K32S2,1090,experiment,62,↑,up,↑,0.5400191000662744,True,28,1
JJ-K-32K32S2,1091,experiment,73,↓,down,↓,0.49367259978316724,True,28,1
JJ-K-32K32S2,1092,experiment,97,↑,up,↑,0.7454335999209434,True,28,1
JJ-K-32K32S2,1093,experiment,85,↑,up,↑,0.5107362000271678,True,28,1
JJ-K-32K32S2,1094,experiment,56,↑,up,↑,0.4873492999467999,True,28,1
JJ-K-32K32S2,1095,experiment,55,↑,up,↑,0.46558200009167194,True,28,1
JJ-K-32K32S2,1096,experiment,49,→,right,→,0.6623416999354959,True,28,1
JJ-K-32K32S2,1097,experiment,63,↑,up,↑,0.4865472000092268,True,28,1
JJ-K-32K32S2,1098,experiment,107,↓,down,↓,0.6791224000044167,True,28,1
JJ-K-32K32S2,1099,experiment,88,↓,up,↑,0.47016200004145503,False,28,1
JJ-K-32K32S2,1100,experiment,69,→,right,→,0.6122732998337597,True,28,1
JJ-K-32K32S2,1101,experiment,52,←,left,←,0.6341183001641184,True,28,1
JJ-K-32K32S2,1102,experiment,105,↑,up,↑,0.485419400036335,True,28,1
JJ-K-32K32S2,1103,experiment,78,↑,up,↑,0.6717707000207156,True,28,1
JJ-K-32K32S2,1104,experiment,94,←,left,←,0.5413506000768393,True,28,1
JJ-K-32K32S2,1105,experiment,67,↑,up,↑,0.4970616998616606,True,28,1
JJ-K-32K32S2,1106,experiment,103,↓,down,↓,0.6342672000173479,True,28,1
JJ-K-32K32S2,1107,experiment,54,←,left,←,0.50266889994964,True,28,1
JJ-K-32K32S2,1108,experiment,102,↓,down,↓,0.6564733001869172,True,28,1
JJ-K-32K32S2,1109,experiment,106,→,left,←,0.449983200058341,False,28,1
JJ-K-32K32S2,1110,experiment,60,↑,up,↑,0.5078396000899374,True,28,1
JJ-K-32K32S2,1111,experiment,77,→,right,→,0.4857061000075191,True,28,1
JJ-K-32K32S2,1112,training,101,→,left,←,0.9221052001230419,False,28,0
JJ-K-32K32S2,1113,training,92,↓,down,↓,0.5742647999431938,True,28,1
JJ-K-32K32S2,1114,experiment,55,→,right,→,0.5728393001481891,True,28,1
JJ-K-32K32S2,1115,experiment,90,↓,down,↓,1.0071666999720037,True,28,1
JJ-K-32K32S2,1116,experiment,62,→,left,←,0.6498416000977159,False,28,1
JJ-K-32K32S2,1117,experiment,67,→,right,→,0.4411892001517117,True,28,1
JJ-K-32K32S2,1118,experiment,63,↓,down,↓,0.7065643998794258,True,28,1
JJ-K-32K32S2,1119,experiment,68,←,left,←,0.5829857001081109,True,28,1
JJ-K-32K32S2,1120,experiment,51,←,left,←,0.5906863999553025,True,28,1
JJ-K-32K32S2,1121,experiment,48,↑,up,↑,0.5906406999565661,True,28,1
JJ-K-32K32S2,1122,experiment,91,↓,down,↓,0.656500400044024,True,28,1
JJ-K-32K32S2,1123,experiment,107,↓,down,↓,0.48998919990845025,True,28,1
JJ-K-32K32S2,1124,experiment,56,←,left,←,0.5315429999027401,True,28,1
JJ-K-32K32S2,1125,experiment,100,←,left,←,0.4766214999835938,True,28,1
JJ-K-32K32S2,1126,experiment,70,←,left,←,0.5299117001704872,True,28,1
JJ-K-32K32S2,1127,experiment,84,←,left,←,0.5203853999264538,True,28,1
JJ-K-32K32S2,1128,experiment,93,←,left,←,0.444500399986282,True,28,1
JJ-K-32K32S2,1129,experiment,69,↑,up,↑,0.6592853998299688,True,28,1
JJ-K-32K32S2,1130,experiment,61,↑,down,↓,0.652252399828285,False,28,1
JJ-K-32K32S2,1131,experiment,65,→,right,→,0.564322599908337,True,28,1
JJ-K-32K32S2,1132,experiment,99,↓,down,↓,0.5724154999479651,True,28,1
JJ-K-32K32S2,1133,experiment,76,↓,down,↓,0.507685299962759,True,28,1
JJ-K-32K32S2,1134,experiment,88,↓,down,↓,0.46589750004932284,True,28,1
JJ-K-32K32S2,1135,experiment,52,←,left,←,0.7177976998500526,True,28,1
JJ-K-32K32S2,1136,experiment,95,→,right,→,0.7369373999536037,True,28,1
JJ-K-32K32S2,1137,experiment,102,→,right,→,0.4655142000410706,True,28,1
JJ-K-32K32S2,1138,experiment,77,→,left,←,0.492753200000152,False,28,1
JJ-K-32K32S2,1139,experiment,73,←,left,←,0.6005147001706064,True,28,1
JJ-K-32K32S2,1140,experiment,106,↑,up,↑,0.5968045999761671,True,28,1
JJ-K-32K32S2,1141,experiment,66,↓,down,↓,0.5343902998138219,True,28,1
JJ-K-32K32S2,1142,experiment,94,↓,down,↓,0.5055267000570893,True,28,1
JJ-K-32K32S2,1143,experiment,108,↓,down,↓,0.4888913999311626,True,28,1
JJ-K-32K32S2,1144,experiment,101,←,right,→,0.5234449999406934,False,28,1
JJ-K-32K32S2,1145,experiment,92,↑,up,↑,0.6475106000434607,True,28,1
JJ-K-32K32S2,1146,experiment,89,↑,up,↑,0.6473759000655264,True,28,1
JJ-K-32K32S2,1147,experiment,78,↑,up,↑,1.0990921000484377,True,28,1
JJ-K-32K32S2,1148,experiment,72,↓,up,↑,0.28427649987861514,False,28,1
JJ-K-32K32S2,1149,experiment,58,↓,down,↓,0.5754796001128852,True,28,0
JJ-K-32K32S2,1150,experiment,81,↓,down,↓,1.565263400087133,True,28,1
JJ-K-32K32S2,1151,experiment,97,→,right,→,0.533710400108248,True,28,1
JJ-K-32K32S2,1152,experiment,105,↓,down,↓,0.6211176000069827,True,28,1
JJ-K-32K32S2,1153,experiment,49,→,left,←,0.6997210001572967,False,28,1
JJ-K-32K32S2,1154,experiment,79,←,left,←,0.7811541999690235,True,28,1
JJ-K-32K32S2,1155,experiment,96,→,left,←,0.5734507001470774,False,28,1
JJ-K-32K32S2,1156,experiment,75,↑,up,↑,0.5732114999555051,True,28,1
JJ-K-32K32S2,1157,experiment,54,→,left,←,0.6198046000208706,False,28,1
JJ-K-32K32S2,1158,experiment,50,←,left,←,0.578355599893257,True,28,1
JJ-K-32K32S2,1159,experiment,53,↑,down,↓,0.7531000999733806,False,28,1
JJ-K-32K32S2,1160,experiment,74,↑,up,↑,0.506070900009945,True,28,1
JJ-K-32K32S2,1161,experiment,104,↓,down,↓,0.6748695001006126,True,28,1
JJ-K-32K32S2,1162,experiment,71,↑,up,↑,0.7839804999530315,True,28,1
JJ-K-32K32S2,1163,experiment,83,→,right,→,0.652526100166142,True,28,1
JJ-K-32K32S2,1164,experiment,87,←,left,←,0.5973394999746233,True,28,1
JJ-K-32K32S2,1165,experiment,80,↑,up,↑,0.5783619999419898,True,28,1
JJ-K-32K32S2,1166,experiment,59,↑,up,↑,0.623341599944979,True,28,1
JJ-K-32K32S2,1167,experiment,60,→,right,→,0.586251099826768,True,28,1
JJ-K-32K32S2,1168,experiment,86,↑,up,↑,0.48566669994033873,True,28,1
JJ-K-32K32S2,1169,experiment,64,←,left,←,0.5245562000200152,True,28,1
JJ-K-32K32S2,1170,experiment,103,←,left,←,0.48511340003460646,True,28,1
JJ-K-32K32S2,1171,experiment,82,→,right,→,0.558251699898392,True,28,1
JJ-K-32K32S2,1172,experiment,98,↑,up,↑,0.5109407000709325,True,28,1
JJ-K-32K32S2,1173,experiment,85,↓,down,↓,0.6536440998315811,True,28,1
JJ-K-32K32S2,1174,experiment,57,←,left,←,0.5041932000312954,True,28,1
JJ-K-32K32S2,1175,training,75,↑,up,↑,0.4923725000116974,True,28,0
JJ-K-32K32S2,1176,training,77,↓,up,↑,0.49489219998940825,False,28,1
JJ-K-32K32S2,1177,experiment,73,→,left,←,0.5942911999300122,False,28,1
JJ-K-32K32S2,1178,experiment,56,←,left,←,0.47979020001366735,True,28,1
JJ-K-32K32S2,1179,experiment,70,↓,down,↓,0.6047818998340517,True,28,1
JJ-K-32K32S2,1180,experiment,71,↑,up,↑,0.5244127998594195,True,28,1
JJ-K-32K32S2,1181,experiment,108,↓,down,↓,0.41158859990537167,True,28,1
JJ-K-32K32S2,1182,experiment,55,↑,up,↑,0.631838700035587,True,28,1
JJ-K-32K32S2,1183,experiment,79,←,left,←,0.6198778999969363,True,28,1
JJ-K-32K32S2,1184,experiment,95,↓,down,↓,0.5393984001129866,True,28,1
JJ-K-32K32S2,1185,experiment,82,↑,up,↑,0.5060849001165479,True,28,1
JJ-K-32K32S2,1186,experiment,93,↑,down,↓,0.43833659985102713,False,28,1
JJ-K-32K32S2,1187,experiment,84,←,left,←,0.5203982999082655,True,28,1
JJ-K-32K32S2,1188,experiment,50,→,right,→,0.5388684999197721,True,28,1
JJ-K-32K32S2,1189,experiment,77,→,left,←,0.46717029996216297,False,28,1
JJ-K-32K32S2,1190,experiment,60,↑,up,↑,0.45218299981206656,True,28,1
JJ-K-32K32S2,1191,experiment,106,←,left,←,0.6225002000574023,True,28,1
JJ-K-32K32S2,1192,experiment,94,↑,up,↑,0.4697606998961419,True,28,1
JJ-K-32K32S2,1193,experiment,64,↓,down,↓,0.581769100157544,True,28,1
JJ-K-32K32S2,1194,experiment,51,↑,up,↑,0.4930630000308156,True,28,1
JJ-K-32K32S2,1195,experiment,91,→,left,←,0.5149342999793589,False,28,1
JJ-K-32K32S2,1196,experiment,63,↓,down,↓,0.5447802001144737,True,28,1
JJ-K-32K32S2,1197,experiment,87,↑,up,↑,0.6619847000110894,True,28,1
JJ-K-32K32S2,1198,experiment,83,↓,down,↓,0.6074582999572158,True,28,1
JJ-K-32K32S2,1199,experiment,90,←,left,←,0.6246052999049425,True,28,1
JJ-K-32K32S2,1200,experiment,69,←,left,←,0.47231789981015027,True,28,1
JJ-K-32K32S2,1201,experiment,80,←,left,←,0.47429120005108416,True,28,1
JJ-K-32K32S2,1202,experiment,74,↓,down,↓,0.4866413997951895,True,28,1
JJ-K-32K32S2,1203,experiment,81,↑,up,↑,0.7037589000537992,True,28,1
JJ-K-32K32S2,1204,experiment,100,←,left,←,0.5140471002086997,True,28,1
JJ-K-32K32S2,1205,experiment,86,→,right,→,0.496345299994573,True,28,1
JJ-K-32K32S2,1206,experiment,107,←,left,←,0.46450080000795424,True,28,1
JJ-K-32K32S2,1207,experiment,92,←,left,←,0.4628016999922693,True,28,1
JJ-K-32K32S2,1208,experiment,53,↑,up,↑,0.6178534999489784,True,28,1
JJ-K-32K32S2,1209,experiment,85,←,left,←,0.5008735998999327,True,28,1
JJ-K-32K32S2,1210,experiment,66,↑,up,↑,0.5066684000194073,True,28,1
JJ-K-32K32S2,1211,experiment,98,↑,up,↑,1.3255586999002844,True,28,1
JJ-K-32K32S2,1212,experiment,104,↓,down,↓,0.6213155000004917,True,28,1
JJ-K-32K32S2,1213,experiment,52,↑,up,↑,0.5308612000662833,True,28,1
JJ-K-32K32S2,1214,experiment,58,↑,up,↑,0.6099280000198632,True,28,1
JJ-K-32K32S2,1215,experiment,78,←,left,←,0.6154638999141753,True,28,1
JJ-K-32K32S2,1216,experiment,96,↑,up,↑,0.6943179999943823,True,28,1
JJ-K-32K32S2,1217,experiment,68,→,right,→,0.6754807999823242,True,28,1
JJ-K-32K32S2,1218,experiment,97,←,left,←,0.47208360000513494,True,28,1
JJ-K-32K32S2,1219,experiment,103,←,left,←,0.7785807999316603,True,28,1
JJ-K-32K32S2,1220,experiment,89,←,left,←,0.6053963000886142,True,28,1
JJ-K-32K32S2,1221,experiment,75,←,left,←,0.5077810999937356,True,28,1
JJ-K-32K32S2,1222,experiment,48,→,left,←,0.5272327000275254,False,28,1
JJ-K-32K32S2,1223,experiment,49,↑,up,↑,0.5137792001478374,True,28,1
JJ-K-32K32S2,1224,experiment,61,←,left,←,0.4804619001224637,True,28,1
JJ-K-32K32S2,1225,experiment,76,→,right,→,0.7557472998742014,True,28,1
JJ-K-32K32S2,1226,experiment,54,↑,up,↑,0.5949931000359356,True,28,1
JJ-K-32K32S2,1227,experiment,88,↑,left,←,0.8136750000994653,False,28,1
JJ-K-32K32S2,1228,experiment,105,↓,down,↓,0.7297910000197589,True,28,1
JJ-K-32K32S2,1229,experiment,59,←,left,←,0.4883846000302583,True,28,1
JJ-K-32K32S2,1230,experiment,57,←,left,←,0.6974026998504996,True,28,1
JJ-K-32K32S2,1231,experiment,99,↓,down,↓,0.6761496001854539,True,28,1
JJ-K-32K32S2,1232,experiment,101,↑,up,↑,0.7513452998828143,True,28,1
JJ-K-32K32S2,1233,experiment,65,←,left,←,0.5712794999126345,True,28,1
JJ-K-32K32S2,1234,experiment,102,↓,down,↓,0.5859089000150561,True,28,1
JJ-K-32K32S2,1235,experiment,72,↑,up,↑,0.6023028001654893,True,28,1
JJ-K-32K32S2,1236,experiment,67,←,left,←,0.4836605000309646,True,28,1
JJ-K-32K32S2,1237,experiment,62,↓,down,↓,0.6514701000414789,True,28,1
JJ-K-32K32S2,1238,training,71,←,left,←,0.5175711000338197,True,28,0
JJ-K-32K32S2,1239,training,83,↑,up,↑,0.5808908001054078,True,28,1
JJ-K-32K32S2,1240,experiment,106,↓,down,↓,0.6098228001501411,True,28,1
JJ-K-32K32S2,1241,experiment,48,↑,up,↑,0.601257500005886,True,28,1
JJ-K-32K32S2,1242,experiment,87,↓,down,↓,0.5478137000463903,True,28,1
JJ-K-32K32S2,1243,experiment,53,→,left,←,0.9879304000642151,False,28,1
JJ-K-32K32S2,1244,experiment,99,↑,up,↑,0.6109626998659223,True,28,1
JJ-K-32K32S2,1245,experiment,94,←,left,←,0.5229427001904696,True,28,1
JJ-K-32K32S2,1246,experiment,81,↓,down,↓,0.6907199001871049,True,28,1
JJ-K-32K32S2,1247,experiment,108,↓,down,↓,0.5546911999117583,True,28,1
JJ-K-32K32S2,1248,experiment,76,←,left,←,0.5867733999621123,True,28,1
JJ-K-32K32S2,1249,experiment,98,←,left,←,0.5382580000441521,True,28,1
JJ-K-32K32S2,1250,experiment,64,↓,down,↓,0.6869540999177843,True,28,1
JJ-K-32K32S2,1251,experiment,86,↑,up,↑,0.614385899854824,True,28,1
JJ-K-32K32S2,1252,experiment,100,→,right,→,0.6842331001535058,True,28,1
JJ-K-32K32S2,1253,experiment,101,↓,down,↓,0.7750593000091612,True,28,1
JJ-K-32K32S2,1254,experiment,51,↑,down,↓,1.0707075998652726,False,28,1
JJ-K-32K32S2,1255,experiment,68,↓,down,↓,0.4689342000056058,True,28,1
JJ-K-32K32S2,1256,experiment,54,→,right,→,0.8077713998500258,True,28,1
JJ-K-32K32S2,1257,experiment,85,↓,down,↓,0.48288649995811284,True,28,1
JJ-K-32K32S2,1258,experiment,65,←,left,←,0.6896603000350296,True,28,1
JJ-K-32K32S2,1259,experiment,77,←,left,←,0.6039601000957191,True,28,1
JJ-K-32K32S2,1260,experiment,69,←,left,←,0.5486512000206858,True,28,1
JJ-K-32K32S2,1261,experiment,61,←,left,←,0.514277100097388,True,28,1
JJ-K-32K32S2,1262,experiment,78,→,left,←,0.5871564999688417,False,28,1
JJ-K-32K32S2,1263,experiment,103,→,right,→,0.6730380000080913,True,28,1
JJ-K-32K32S2,1264,experiment,59,←,left,←,0.554275400005281,True,28,1
JJ-K-32K32S2,1265,experiment,84,↑,up,↑,0.6154773999005556,True,28,1
JJ-K-32K32S2,1266,experiment,91,→,right,→,0.5765150999650359,True,28,1
JJ-K-32K32S2,1267,experiment,102,→,right,→,0.6550354000646621,True,28,1
JJ-K-32K32S2,1268,experiment,74,←,left,←,0.6039237999357283,True,28,1
JJ-K-32K32S2,1269,experiment,82,→,right,→,0.5682199001312256,True,28,1
JJ-K-32K32S2,1270,experiment,105,↑,up,↑,0.6460349999833852,True,28,1
JJ-K-32K32S2,1271,experiment,71,↓,down,↓,0.7559929999988526,True,28,1
JJ-K-32K32S2,1272,experiment,70,↑,up,↑,0.5661734000314027,True,28,1
JJ-K-32K32S2,1273,experiment,83,↑,up,↑,0.5314873999450356,True,28,1
JJ-K-32K32S2,1274,experiment,92,↓,down,↓,0.8551513999700546,True,28,1
JJ-K-32K32S2,1275,experiment,55,→,right,→,0.7542538000270724,True,28,1
JJ-K-32K32S2,1276,experiment,89,←,left,←,0.4777524000965059,True,28,1
JJ-K-32K32S2,1277,experiment,72,↓,down,↓,0.5945350998081267,True,28,1
JJ-K-32K32S2,1278,experiment,96,↑,up,↑,0.5546158000361174,True,28,1
JJ-K-32K32S2,1279,experiment,107,←,left,←,0.6004206999205053,True,28,1
JJ-K-32K32S2,1280,experiment,95,↓,down,↓,0.6163564999587834,True,28,1
JJ-K-32K32S2,1281,experiment,104,←,left,←,0.5968020998407155,True,28,1
JJ-K-32K32S2,1282,experiment,63,↑,up,↑,0.8714494998566806,True,28,1
JJ-K-32K32S2,1283,experiment,75,↓,down,↓,0.818999599898234,True,28,1
JJ-K-32K32S2,1284,experiment,93,↑,up,↑,0.5872455001808703,True,28,1
JJ-K-32K32S2,1285,experiment,56,←,left,←,0.5045382999815047,True,28,1
JJ-K-32K32S2,1286,experiment,52,←,left,←,0.5390728998463601,True,28,1
JJ-K-32K32S2,1287,experiment,79,←,left,←,0.4906403999775648,True,28,1
JJ-K-32K32S2,1288,experiment,50,→,right,→,0.614193799905479,True,28,1
JJ-K-32K32S2,1289,experiment,88,→,left,←,0.6318074001464993,False,28,1
JJ-K-32K32S2,1290,experiment,80,→,left,←,0.4518091999925673,False,28,1
JJ-K-32K32S2,1291,experiment,49,↑,up,↑,0.49720790004357696,True,28,1
JJ-K-32K32S2,1292,experiment,57,↑,up,↑,0.49000869994051754,True,28,1
JJ-K-32K32S2,1293,experiment,60,→,left,←,0.5139212999492884,False,28,1
JJ-K-32K32S2,1294,experiment,73,←,left,←,0.46884469990618527,True,28,1
JJ-K-32K32S2,1295,experiment,62,↓,down,↓,0.8290697000920773,True,28,1
JJ-K-32K32S2,1296,experiment,67,↓,down,↓,0.51762880012393,True,28,1
JJ-K-32K32S2,1297,experiment,58,↑,up,↑,0.5733266000170261,True,28,1
JJ-K-32K32S2,1298,experiment,90,←,left,←,0.48003640002571046,True,28,1
JJ-K-32K32S2,1299,experiment,66,→,right,→,0.5264063999056816,True,28,1
JJ-K-32K32S2,1300,experiment,97,↑,up,↑,0.5368518999312073,True,28,1
JJ-K-32K32S2,1301,training,95,←,left,←,0.5848201001062989,True,28,0
JJ-K-32K32S2,1302,training,86,↓,down,↓,0.5084979999810457,True,28,1
JJ-K-32K32S2,1303,experiment,100,→,right,→,0.47859110007993877,True,28,1
JJ-K-32K32S2,1304,experiment,73,↓,down,↓,0.5469932998530567,True,28,1
JJ-K-32K32S2,1305,experiment,74,←,left,←,0.6120278001762927,True,28,1
JJ-K-32K32S2,1306,experiment,78,←,left,←,0.473136099986732,True,28,1
JJ-K-32K32S2,1307,experiment,95,↓,down,↓,0.5580422000493854,True,28,1
JJ-K-32K32S2,1308,experiment,86,←,left,←,0.5869797999039292,True,28,1
JJ-K-32K32S2,1309,experiment,83,←,left,←,0.40745679987594485,True,28,1
JJ-K-32K32S2,1310,experiment,54,→,right,→,0.9566411999985576,True,28,1
JJ-K-32K32S2,1311,experiment,49,↓,down,↓,1.3818493001163006,True,28,1
JJ-K-32K32S2,1312,experiment,80,→,right,→,0.6432678999844939,True,28,1
JJ-K-32K32S2,1313,experiment,76,←,left,←,0.44809660012833774,True,28,1
JJ-K-32K32S2,1314,experiment,75,←,left,←,0.5887641999870539,True,28,1
JJ-K-32K32S2,1315,experiment,102,↓,down,↓,0.5949631999246776,True,28,1
JJ-K-32K32S2,1316,experiment,82,↑,up,↑,0.6395390999969095,True,28,1
JJ-K-32K32S2,1317,experiment,60,→,right,→,0.6256915000267327,True,28,1
JJ-K-32K32S2,1318,experiment,61,→,right,→,0.5962094999849796,True,28,1
JJ-K-32K32S2,1319,experiment,63,→,right,→,0.5431812000460923,True,28,1
JJ-K-32K32S2,1320,experiment,98,↑,up,↑,0.6566300000995398,True,28,1
JJ-K-32K32S2,1321,experiment,50,←,left,←,0.4851793998386711,True,28,1
JJ-K-32K32S2,1322,experiment,72,→,left,←,0.6656456000637263,False,28,1
JJ-K-32K32S2,1323,experiment,52,←,left,←,0.5734236999414861,True,28,1
JJ-K-32K32S2,1324,experiment,59,←,left,←,0.5545460002031177,True,28,1
JJ-K-32K32S2,1325,experiment,81,↓,down,↓,0.5288892001844943,True,28,1
JJ-K-32K32S2,1326,experiment,55,↓,down,↓,0.48132900008931756,True,28,1
JJ-K-32K32S2,1327,experiment,77,↓,down,↓,0.5641361998859793,True,28,1
JJ-K-32K32S2,1328,experiment,91,↓,down,↓,0.5427141000982374,True,28,1
JJ-K-32K32S2,1329,experiment,84,→,right,→,0.5568654998205602,True,28,1
JJ-K-32K32S2,1330,experiment,69,↑,down,↓,0.5513175998348743,False,28,1
JJ-K-32K32S2,1331,experiment,66,↓,up,↑,0.5711403000168502,False,28,1
JJ-K-32K32S2,1332,experiment,103,↑,down,↓,0.5456756001804024,False,28,1
JJ-K-32K32S2,1333,experiment,99,↓,up,↑,0.7143361000344157,False,28,1
JJ-K-32K32S2,1334,experiment,107,↑,up,↑,0.5933749999385327,True,28,1
JJ-K-32K32S2,1335,experiment,56,↓,down,↓,0.5428588998038322,True,28,1
JJ-K-32K32S2,1336,experiment,92,→,right,→,0.6743956999853253,True,28,1
JJ-K-32K32S2,1337,experiment,65,↓,down,↓,0.6011916999705136,True,28,1
JJ-K-32K32S2,1338,experiment,79,↓,down,↓,0.5105423999484628,True,28,1
JJ-K-32K32S2,1339,experiment,67,↓,down,↓,0.475818500155583,True,28,1
JJ-K-32K32S2,1340,experiment,104,←,left,←,0.5898731998167932,True,28,1
JJ-K-32K32S2,1341,experiment,71,↑,up,↑,0.7661596999969333,True,28,1
JJ-K-32K32S2,1342,experiment,62,←,left,←,1.0427620999980718,True,28,1
JJ-K-32K32S2,1343,experiment,64,↑,up,↑,0.6113055001478642,True,28,1
JJ-K-32K32S2,1344,experiment,68,↓,down,↓,0.6840181001462042,True,28,1
JJ-K-32K32S2,1345,experiment,108,↓,down,↓,0.4683873001486063,True,28,1
JJ-K-32K32S2,1346,experiment,57,↑,up,↑,0.5663604000583291,True,28,1
JJ-K-32K32S2,1347,experiment,70,→,left,←,0.45620150002650917,False,28,1
JJ-K-32K32S2,1348,experiment,105,→,right,→,0.690603099996224,True,28,1
JJ-K-32K32S2,1349,experiment,89,↓,down,↓,0.6169792998116463,True,28,1
JJ-K-32K32S2,1350,experiment,58,→,left,←,0.7089978000149131,False,28,1
JJ-K-32K32S2,1351,experiment,96,←,left,←,0.5680371001362801,True,28,1
JJ-K-32K32S2,1352,experiment,94,←,left,←,0.6498146001249552,True,28,1
JJ-K-32K32S2,1353,experiment,106,←,left,←,0.7641624000389129,True,28,1
JJ-K-32K32S2,1354,experiment,51,→,right,→,0.5402913999278098,True,28,1
JJ-K-32K32S2,1355,experiment,101,↑,up,↑,0.6524702999740839,True,28,1
JJ-K-32K32S2,1356,experiment,93,→,right,→,0.5553208000492305,True,28,1
JJ-K-32K32S2,1357,experiment,85,←,left,←,0.4883729999419302,True,28,1
JJ-K-32K32S2,1358,experiment,97,←,left,←,0.628012000117451,True,28,1
JJ-K-32K32S2,1359,experiment,90,→,left,←,0.5965654000174254,False,28,1
JJ-K-32K32S2,1360,experiment,53,↑,up,↑,0.5227493999991566,True,28,1
JJ-K-32K32S2,1361,experiment,87,→,right,→,0.5123896000441164,True,28,1
JJ-K-32K32S2,1362,experiment,88,↑,up,↑,0.5662085998337716,True,28,1
JJ-K-32K32S2,1363,experiment,48,←,left,←,0.4632788999006152,True,28,1
JJ-K-32K32S2,1364,training,97,↑,up,↑,0.5273785998579115,True,28,0
JJ-K-32K32S2,1365,training,81,↓,down,↓,0.8713521000463516,True,28,1
JJ-K-32K32S2,1366,experiment,57,↓,down,↓,0.5448793000541627,True,28,1
JJ-K-32K32S2,1367,experiment,50,↑,down,↓,0.5464286000933498,False,28,1
JJ-K-32K32S2,1368,experiment,70,↑,up,↑,0.6693061999976635,True,28,1
JJ-K-32K32S2,1369,experiment,106,↓,down,↓,0.6464045001193881,True,28,1
JJ-K-32K32S2,1370,experiment,83,↑,up,↑,0.680401099845767,True,28,1
JJ-K-32K32S2,1371,experiment,64,↑,up,↑,0.4636295000091195,True,28,1
JJ-K-32K32S2,1372,experiment,81,↓,up,↑,0.5455731998663396,False,28,1
JJ-K-32K32S2,1373,experiment,100,←,left,←,0.546139000216499,True,28,1
JJ-K-32K32S2,1374,experiment,108,→,left,←,0.751680799992755,False,28,1
JJ-K-32K32S2,1375,experiment,86,↓,down,↓,0.4367885999381542,True,28,1
JJ-K-32K32S2,1376,experiment,75,↑,up,↑,0.642554699908942,True,28,1
JJ-K-32K32S2,1377,experiment,52,↓,down,↓,0.6470155001152307,True,28,1
JJ-K-32K32S2,1378,experiment,76,←,left,←,0.5711578000336885,True,28,1
JJ-K-32K32S2,1379,experiment,91,↓,down,↓,0.4616296000313014,True,28,1
JJ-K-32K32S2,1380,experiment,85,←,left,←,1.6067108998540789,True,28,1
JJ-K-32K32S2,1381,experiment,88,↓,down,↓,0.7286514998413622,True,28,1
JJ-K-32K32S2,1382,experiment,67,↓,down,↓,0.5570808001793921,True,28,1
JJ-K-32K32S2,1383,experiment,63,←,left,←,0.49741420010104775,True,28,1
JJ-K-32K32S2,1384,experiment,54,↓,down,↓,0.6591801000759006,True,28,1
JJ-K-32K32S2,1385,experiment,72,↓,down,↓,0.5125164000783116,True,28,1
JJ-K-32K32S2,1386,experiment,77,←,left,←,0.41804439993575215,True,28,1
JJ-K-32K32S2,1387,experiment,94,←,left,←,0.44174790009856224,True,28,1
JJ-K-32K32S2,1388,experiment,95,←,left,←,0.4164672000333667,True,28,1
JJ-K-32K32S2,1389,experiment,105,←,left,←,0.5483382998500019,True,28,1
JJ-K-32K32S2,1390,experiment,103,→,right,→,0.603637200081721,True,28,1
JJ-K-32K32S2,1391,experiment,97,→,right,→,0.6908855999354273,True,28,1
JJ-K-32K32S2,1392,experiment,89,↑,up,↑,0.7453383998945355,True,28,1
JJ-K-32K32S2,1393,experiment,74,↓,down,↓,0.6023679999634624,True,28,1
JJ-K-32K32S2,1394,experiment,59,↓,down,↓,0.7104545999318361,True,28,1
JJ-K-32K32S2,1395,experiment,98,↑,up,↑,0.5051235998980701,True,28,1
JJ-K-32K32S2,1396,experiment,92,↑,up,↑,0.6376066000666469,True,28,1
JJ-K-32K32S2,1397,experiment,102,↑,up,↑,0.6501437998376787,True,28,1
JJ-K-32K32S2,1398,experiment,99,←,left,←,0.5670028999447823,True,28,1
JJ-K-32K32S2,1399,experiment,82,↑,up,↑,0.5805378002114594,True,28,1
JJ-K-32K32S2,1400,experiment,66,→,right,→,0.6071723001077771,True,28,1
JJ-K-32K32S2,1401,experiment,68,→,right,→,0.5757642998360097,True,28,1
JJ-K-32K32S2,1402,experiment,48,←,left,←,0.568439400056377,True,28,1
JJ-K-32K32S2,1403,experiment,80,←,left,←,0.5029156000819057,True,28,1
JJ-K-32K32S2,1404,experiment,78,→,right,→,0.6166550000198185,True,28,1
