PART_ID,Trial_no,Trial_type,CSI,Stim_letter,Key_pressed,letter_choose,Rt,Corr,Stimulus Time,nDropped
JS-M-24M24S1,1,training,120,↓,down,↓,0.7891775998286903,True,60,0
JS-M-24M24S1,2,training,120,↓,down,↓,0.5506185998674482,True,60,0
JS-M-24M24S1,3,training,120,↓,down,↓,0.44398030010052025,True,60,0
JS-M-24M24S1,4,training,120,→,right,→,0.4188303998671472,True,60,0
JS-M-24M24S1,5,training,120,←,right,→,0.41007860004901886,False,60,0
JS-M-24M24S1,6,training,120,↓,down,↓,0.6168029999826103,True,60,0
JS-M-24M24S1,7,training,120,→,right,→,2.125213999999687,True,60,0
JS-M-24M24S1,8,training,120,→,right,→,0.5678985000122339,True,60,0
JS-M-24M24S1,9,training,120,↑,left,←,0.3767095999792218,False,60,0
JS-M-24M24S1,10,training,120,→,right,→,0.5175721000414342,True,60,0
JS-M-24M24S1,11,training,120,←,right,→,0.13501129997894168,False,60,0
JS-M-24M24S1,12,training,120,↓,left,←,0.10183349996805191,False,60,0
JS-M-24M24S1,13,training,120,↑,up,↑,0.7869004998356104,True,60,0
JS-M-24M24S1,14,training,120,↑,right,→,0.38545689987950027,False,60,0
JS-M-24M24S1,15,training,120,←,left,←,0.642665300052613,True,60,0
JS-M-24M24S1,16,training,120,↓,down,↓,0.7949510999023914,True,60,0
JS-M-24M24S1,17,training,120,←,left,←,0.6259612001013011,True,60,0
JS-M-24M24S1,18,training,120,←,left,←,0.5172156000044197,True,60,0
JS-M-24M24S1,19,training,120,→,right,→,0.2925171998795122,True,60,0
JS-M-24M24S1,20,training,120,→,up,↑,0.30250400002114475,False,60,0
JS-M-24M24S1,21,no_adaptation,120,→,right,→,0.5258947999682277,True,36,0
JS-M-24M24S1,22,no_adaptation,120,→,down,↓,0.1688459999859333,False,36,0
JS-M-24M24S1,23,no_adaptation,120,→,right,→,0.26068100007250905,True,36,0
JS-M-24M24S1,24,no_adaptation,120,←,right,→,0.7814985001459718,False,36,0
JS-M-24M24S1,25,no_adaptation,120,→,up,↑,0.326848299941048,False,36,0
JS-M-24M24S1,26,no_adaptation,120,↓,down,↓,0.9915926000103354,True,36,0
JS-M-24M24S1,27,no_adaptation,120,↑,left,←,0.2850941999349743,False,36,0
JS-M-24M24S1,28,no_adaptation,120,→,right,→,0.601453899871558,True,36,0
JS-M-24M24S1,29,no_adaptation,120,↓,down,↓,0.425572199979797,True,36,0
JS-M-24M24S1,30,no_adaptation,120,→,right,→,0.4705487999599427,True,36,0
JS-M-24M24S1,31,no_adaptation,120,↓,down,↓,0.5064808998722583,True,36,0
JS-M-24M24S1,32,no_adaptation,120,↓,right,→,0.19408399984240532,False,36,0
JS-M-24M24S1,33,no_adaptation,120,↓,up,↑,0.42585839983075857,False,36,0
JS-M-24M24S1,34,no_adaptation,120,←,left,←,0.16847930010408163,True,36,0
JS-M-24M24S1,35,no_adaptation,120,↓,right,→,0.24359720014035702,False,36,0
JS-M-24M24S1,36,no_adaptation,120,←,right,→,0.6052035000175238,False,36,0
JS-M-24M24S1,37,no_adaptation,120,→,right,→,0.3675330998376012,True,36,0
JS-M-24M24S1,38,no_adaptation,120,←,down,↓,1.9322806000709534,False,36,0
JS-M-24M24S1,39,no_adaptation,120,←,left,←,0.43403790006414056,True,36,0
JS-M-24M24S1,40,no_adaptation,120,↑,up,↑,0.6833146999124438,True,36,0
JS-M-24M24S1,41,training,87,↑,right,→,0.4423774001188576,False,36,0
JS-M-24M24S1,42,training,101,→,down,↓,0.33385870000347495,False,36,0
JS-M-24M24S1,43,experiment,88,↓,right,→,0.10997699992731214,False,36,0
JS-M-24M24S1,44,experiment,90,↓,right,→,0.3837107999715954,False,36,0
JS-M-24M24S1,45,experiment,83,←,right,→,0.5530300999525934,False,36,0
JS-M-24M24S1,46,experiment,107,↑,up,↑,0.23541790014132857,True,36,1
JS-M-24M24S1,47,experiment,64,←,left,←,0.3672609000932425,True,36,0
JS-M-24M24S1,48,experiment,68,↓,down,↓,0.26839459990151227,True,36,0
JS-M-24M24S1,49,experiment,96,→,right,→,0.2853456998709589,True,36,0
JS-M-24M24S1,50,experiment,97,→,left,←,0.26856709993444383,False,36,0
JS-M-24M24S1,51,experiment,71,↓,down,↓,0.2601267001591623,True,36,0
JS-M-24M24S1,52,experiment,80,→,right,→,0.22716040001250803,True,36,0
JS-M-24M24S1,53,experiment,100,→,right,→,1.65465520019643,True,36,0
JS-M-24M24S1,54,experiment,103,←,right,→,0.36763300001621246,False,36,1
JS-M-24M24S1,55,experiment,91,←,up,↑,0.1352617999073118,False,36,0
JS-M-24M24S1,56,experiment,73,↑,down,↓,0.3505750000476837,False,36,0
JS-M-24M24S1,57,experiment,52,↓,left,←,0.2183501000981778,False,36,0
JS-M-24M24S1,58,experiment,99,↓,down,↓,0.6821169999893755,True,36,0
JS-M-24M24S1,59,experiment,92,↓,down,↓,0.6478470000438392,True,36,1
JS-M-24M24S1,60,experiment,51,←,right,→,0.25166089995764196,False,36,1
JS-M-24M24S1,61,experiment,98,↓,left,←,0.45119539997540414,False,36,0
JS-M-24M24S1,62,experiment,74,→,left,←,0.5323661000002176,False,36,0
JS-M-24M24S1,63,experiment,87,→,no_key,no_letter,-1.0,False,36,1
JS-M-24M24S1,64,experiment,105,↓,down,↓,0.9276986999902874,True,36,1
JS-M-24M24S1,65,experiment,86,→,right,→,0.4177239998243749,True,36,1
JS-M-24M24S1,66,experiment,59,→,right,→,0.3092465999070555,True,36,0
JS-M-24M24S1,67,experiment,78,↓,right,→,0.3590749998111278,False,36,0
JS-M-24M24S1,68,experiment,104,→,right,→,1.352245399961248,True,36,0
JS-M-24M24S1,69,experiment,63,↓,up,↑,0.21845799987204373,False,36,1
JS-M-24M24S1,70,experiment,67,↑,down,↓,0.30918450001627207,False,36,0
JS-M-24M24S1,71,experiment,72,↑,down,↓,0.28541230014525354,False,36,0
JS-M-24M24S1,72,experiment,75,→,down,↓,0.23386729997582734,False,36,0
JS-M-24M24S1,73,experiment,84,←,right,→,0.10032299999147654,False,36,0
JS-M-24M24S1,74,experiment,55,→,no_key,no_letter,-1.0,False,36,0
JS-M-24M24S1,75,experiment,101,→,right,→,0.9925986998714507,True,36,1
JS-M-24M24S1,76,experiment,62,↑,right,→,0.4766929999459535,False,36,1
JS-M-24M24S1,77,experiment,106,←,right,→,0.408927199896425,False,36,1
JS-M-24M24S1,78,experiment,54,←,left,←,0.4260523999109864,True,36,0
JS-M-24M24S1,79,experiment,81,←,left,←,0.4508322000037879,True,36,0
JS-M-24M24S1,80,experiment,57,↓,right,→,0.73576660011895,False,36,0
JS-M-24M24S1,81,experiment,66,→,right,→,0.5004980999510735,True,36,1
JS-M-24M24S1,82,experiment,56,←,left,←,1.0693498000036925,True,36,1
JS-M-24M24S1,83,experiment,48,↑,right,→,0.6663391999900341,False,36,1
JS-M-24M24S1,84,experiment,79,→,right,→,0.4855456000659615,True,36,1
JS-M-24M24S1,85,experiment,89,↑,no_key,no_letter,-1.0,False,36,1
JS-M-24M24S1,86,experiment,108,→,right,→,0.43378400010988116,True,36,1
JS-M-24M24S1,87,experiment,94,←,right,→,0.44245210010558367,False,36,0
JS-M-24M24S1,88,experiment,60,↓,down,↓,0.5848211001139134,True,36,0
JS-M-24M24S1,89,experiment,61,→,right,→,0.42595150019042194,True,36,1
JS-M-24M24S1,90,experiment,65,↑,left,←,0.7896825999487191,False,36,0
JS-M-24M24S1,91,experiment,58,←,left,←,0.41728619998320937,True,36,1
JS-M-24M24S1,92,experiment,53,→,right,→,1.4232006000820547,True,36,0
JS-M-24M24S1,93,experiment,102,←,left,←,0.40076939994469285,True,36,1
JS-M-24M24S1,94,experiment,82,→,right,→,1.0880405998323113,True,36,0
JS-M-24M24S1,95,experiment,85,↓,right,→,0.3256862999405712,False,36,1
JS-M-24M24S1,96,experiment,70,↓,up,↑,0.5709194999653846,False,36,0
JS-M-24M24S1,97,experiment,50,↓,down,↓,0.351084099849686,True,36,1
JS-M-24M24S1,98,experiment,69,←,left,←,0.3263686001300812,True,36,0
JS-M-24M24S1,99,experiment,49,↑,right,→,0.39174040011130273,False,36,0
JS-M-24M24S1,100,experiment,77,→,left,←,0.15153949987143278,False,36,0
JS-M-24M24S1,101,experiment,95,↓,down,↓,-0.005561899859458208,True,36,0
JS-M-24M24S1,102,experiment,76,↑,right,→,0.06846239999867976,False,36,0
JS-M-24M24S1,103,experiment,93,↓,left,←,0.25164319993928075,False,36,0
JS-M-24M24S1,104,training,88,↓,left,←,0.21009539999067783,False,37,0
JS-M-24M24S1,105,training,83,↓,down,↓,0.11009499989449978,True,37,0
JS-M-24M24S1,106,experiment,107,→,left,←,0.21884309989400208,False,37,0
JS-M-24M24S1,107,experiment,76,←,left,←,0.3924472997896373,True,37,0
JS-M-24M24S1,108,experiment,74,↓,left,←,0.2442552000284195,False,37,0
JS-M-24M24S1,109,experiment,85,↑,down,↓,0.1520360999274999,False,37,0
JS-M-24M24S1,110,experiment,101,↓,left,←,0.4342199000529945,False,37,0
JS-M-24M24S1,111,experiment,83,→,up,↑,0.3925830000080168,False,37,0
JS-M-24M24S1,112,experiment,98,→,down,↓,0.3505851998925209,False,37,0
JS-M-24M24S1,113,experiment,56,↓,down,↓,1.090726099908352,True,37,0
JS-M-24M24S1,114,experiment,69,←,left,←,0.42562559992074966,True,37,1
JS-M-24M24S1,115,experiment,89,↑,down,↓,0.544644600013271,False,37,0
JS-M-24M24S1,116,experiment,57,→,right,→,0.4507202999666333,True,37,1
JS-M-24M24S1,117,experiment,64,→,left,←,0.6558098997920752,False,37,0
JS-M-24M24S1,118,experiment,70,→,right,→,0.5661010998301208,True,37,1
JS-M-24M24S1,119,experiment,54,↑,right,→,0.5806697001680732,False,37,1
JS-M-24M24S1,120,experiment,91,↓,left,←,0.3257708998862654,False,37,1
JS-M-24M24S1,121,experiment,66,↑,up,↑,0.587408300023526,True,37,0
JS-M-24M24S1,122,experiment,97,→,right,→,0.4013740001246333,True,37,1
JS-M-24M24S1,123,experiment,92,→,right,→,0.3008033998776227,True,37,0
JS-M-24M24S1,124,experiment,61,→,right,→,0.3750742000993341,True,37,0
JS-M-24M24S1,125,experiment,72,↑,right,→,0.33396929991431534,False,37,0
JS-M-24M24S1,126,experiment,51,↓,right,→,0.7243341999128461,False,37,0
JS-M-24M24S1,127,experiment,48,↓,right,→,0.47976030013523996,False,37,1
JS-M-24M24S1,128,experiment,77,→,right,→,0.3176581000443548,True,37,1
JS-M-24M24S1,129,experiment,105,↓,right,→,0.6417998000979424,False,37,0
JS-M-24M24S1,130,experiment,94,↑,down,↓,0.6645551000256091,False,37,1
JS-M-24M24S1,131,experiment,73,↑,up,↑,0.4932291000150144,True,37,1
JS-M-24M24S1,132,experiment,102,←,down,↓,0.30075319996103644,False,37,1
JS-M-24M24S1,133,experiment,95,→,left,←,0.3175115000922233,False,37,0
JS-M-24M24S1,134,experiment,108,↑,right,→,1.0816441997885704,False,37,0
JS-M-24M24S1,135,experiment,49,→,down,↓,0.26026170002296567,False,37,1
JS-M-24M24S1,136,experiment,87,←,up,↑,0.21028549992479384,False,37,0
JS-M-24M24S1,137,experiment,103,↑,left,←,0.23535319999791682,False,37,0
JS-M-24M24S1,138,experiment,104,↑,right,→,0.11850430001504719,False,37,0
JS-M-24M24S1,139,experiment,106,←,left,←,0.5901661000680178,True,37,0
JS-M-24M24S1,140,experiment,88,→,right,→,0.5287857998628169,True,37,1
JS-M-24M24S1,141,experiment,100,←,left,←,0.3841569998767227,True,37,1
JS-M-24M24S1,142,experiment,84,←,right,→,1.0061302999965847,False,37,0
JS-M-24M24S1,143,experiment,63,↓,left,←,0.3176312998402864,False,37,1
JS-M-24M24S1,144,experiment,93,↑,down,↓,0.5725551000796258,False,37,0
JS-M-24M24S1,145,experiment,53,→,up,↑,0.31736269989050925,False,37,1
JS-M-24M24S1,146,experiment,60,↑,right,→,0.1603012999985367,False,37,0
JS-M-24M24S1,147,experiment,81,←,right,→,0.32552969991229475,False,37,0
JS-M-24M24S1,148,experiment,68,→,right,→,0.3594230997841805,True,37,0
JS-M-24M24S1,149,experiment,62,↓,right,→,0.6988336998037994,False,37,0
JS-M-24M24S1,150,experiment,99,→,right,→,0.41695220000110567,True,37,1
JS-M-24M24S1,151,experiment,96,↑,right,→,0.596243399893865,False,37,0
JS-M-24M24S1,152,experiment,82,→,no_key,no_letter,-1.0,False,37,1
JS-M-24M24S1,153,experiment,90,→,right,→,0.3839636999182403,True,37,1
JS-M-24M24S1,154,experiment,78,→,right,→,1.049396000104025,True,37,0
JS-M-24M24S1,155,experiment,79,←,left,←,0.4589712000451982,True,37,1
JS-M-24M24S1,156,experiment,67,←,left,←,0.384127700002864,True,37,0
JS-M-24M24S1,157,experiment,75,←,left,←,0.3748713999520987,True,37,0
JS-M-24M24S1,158,experiment,50,↓,right,→,0.6346858001779765,False,37,0
JS-M-24M24S1,159,experiment,52,←,left,←,0.3248480998445302,True,37,1
JS-M-24M24S1,160,experiment,58,↓,down,↓,0.57433329988271,True,37,0
JS-M-24M24S1,161,experiment,80,←,right,→,0.47700940002687275,False,37,1
JS-M-24M24S1,162,experiment,71,→,left,←,0.3839634000323713,False,37,0
JS-M-24M24S1,163,experiment,59,←,left,←,0.4592697999905795,True,37,0
JS-M-24M24S1,164,experiment,55,↓,right,→,0.43421379989013076,False,37,0
JS-M-24M24S1,165,experiment,65,↑,right,→,0.1774907000362873,False,37,0
JS-M-24M24S1,166,experiment,86,←,right,→,0.08489629998803139,False,37,0
JS-M-24M24S1,167,training,96,←,left,←,0.08412200002931058,True,38,0
JS-M-24M24S1,168,training,79,↑,up,↑,1.1752027000766248,True,38,0
JS-M-24M24S1,169,experiment,96,→,no_key,no_letter,-1.0,False,38,1
JS-M-24M24S1,170,experiment,78,←,left,←,0.19315359997563064,True,38,1
JS-M-24M24S1,171,experiment,60,←,down,↓,0.1353786000981927,False,38,0
JS-M-24M24S1,172,experiment,58,←,right,→,0.2268763999454677,False,38,0
JS-M-24M24S1,173,experiment,64,←,left,←,0.26031149993650615,True,38,0
JS-M-24M24S1,174,experiment,48,←,left,←,0.4507224999833852,True,38,0
JS-M-24M24S1,175,experiment,95,←,no_key,no_letter,-1.0,False,38,0
JS-M-24M24S1,176,experiment,71,←,left,←,0.4004934998229146,True,38,1
JS-M-24M24S1,177,experiment,72,↑,left,←,1.4354040001053363,False,38,0
JS-M-24M24S1,178,experiment,59,←,left,←,0.3510590000078082,True,38,1
JS-M-24M24S1,179,experiment,99,↑,left,←,0.43419990013353527,False,38,0
JS-M-24M24S1,180,experiment,77,↓,no_key,no_letter,-1.0,False,38,0
JS-M-24M24S1,181,experiment,53,←,right,→,0.05987729993648827,False,38,1
JS-M-24M24S1,182,experiment,103,←,down,↓,0.2851008998695761,False,38,0
JS-M-24M24S1,183,experiment,79,←,left,←,0.3254850001540035,True,38,0
JS-M-24M24S1,184,experiment,56,←,left,←,0.30888219992630184,True,38,0
JS-M-24M24S1,185,experiment,97,←,left,←,0.3187496999744326,True,38,0
JS-M-24M24S1,186,experiment,92,→,right,→,0.5057572000660002,True,38,0
JS-M-24M24S1,187,experiment,51,←,left,←,0.33345379983074963,True,38,1
JS-M-24M24S1,188,experiment,82,↓,right,→,0.43395800003781915,False,38,0
JS-M-24M24S1,189,experiment,83,→,left,←,0.21833210019394755,False,38,0
JS-M-24M24S1,190,experiment,54,→,left,←,0.5741055000107735,False,38,0
JS-M-24M24S1,191,experiment,106,↑,left,←,0.38400460011325777,False,38,1
JS-M-24M24S1,192,experiment,61,←,up,↑,0.3507150001823902,False,38,0
JS-M-24M24S1,193,experiment,100,↓,down,↓,0.24336800002492964,True,38,0
JS-M-24M24S1,194,experiment,105,↓,down,↓,0.6713405000045896,True,38,0
JS-M-24M24S1,195,experiment,108,↓,down,↓,0.37568020005710423,True,38,1
JS-M-24M24S1,196,experiment,52,↓,down,↓,0.5038056999910623,True,38,0
JS-M-24M24S1,197,experiment,67,↑,down,↓,0.5885934000834823,False,38,1
JS-M-24M24S1,198,experiment,70,→,left,←,0.34217180009000003,False,38,1
JS-M-24M24S1,199,experiment,102,←,down,↓,0.20152170001529157,False,38,0
JS-M-24M24S1,200,experiment,69,↑,down,↓,0.4583313998300582,False,38,0
JS-M-24M24S1,201,experiment,86,←,down,↓,0.4424398001283407,False,38,0
JS-M-24M24S1,202,experiment,98,↓,down,↓,0.5826147000771016,True,38,0
JS-M-24M24S1,203,experiment,57,←,left,←,0.7321685999631882,True,38,1
JS-M-24M24S1,204,experiment,74,↓,down,↓,0.41731039993464947,True,38,1
JS-M-24M24S1,205,experiment,49,←,left,←,0.40084949997253716,True,38,0
JS-M-24M24S1,206,experiment,73,↓,no_key,no_letter,-1.0,False,38,0
JS-M-24M24S1,207,experiment,66,↓,down,↓,0.5654346998780966,True,38,1
JS-M-24M24S1,208,experiment,55,↑,down,↓,0.2684192000888288,False,38,1
JS-M-24M24S1,209,experiment,107,←,up,↑,0.2769861000124365,False,38,0
JS-M-24M24S1,210,experiment,104,→,right,→,0.1267617999110371,True,38,0
JS-M-24M24S1,211,experiment,50,↓,left,←,0.334082999965176,False,38,0
JS-M-24M24S1,212,experiment,94,→,down,↓,0.285359000088647,False,38,0
JS-M-24M24S1,213,experiment,65,↓,right,→,0.798831099877134,False,38,0
JS-M-24M24S1,214,experiment,88,↑,right,→,0.5372526999562979,False,38,1
JS-M-24M24S1,215,experiment,84,←,right,→,0.34216820006258786,False,38,1
JS-M-24M24S1,216,experiment,91,↑,right,→,0.42625260003842413,False,38,0
JS-M-24M24S1,217,experiment,68,→,left,←,0.28510680003091693,False,38,0
JS-M-24M24S1,218,experiment,81,→,right,→,0.3842079001478851,True,38,0
JS-M-24M24S1,219,experiment,76,↑,right,→,0.3508998998440802,False,38,0
JS-M-24M24S1,220,experiment,89,↑,right,→,0.48567999992519617,False,38,0
JS-M-24M24S1,221,experiment,90,↑,left,←,0.35915959998965263,False,38,0
JS-M-24M24S1,222,experiment,63,→,right,→,0.35086310002952814,True,38,0
JS-M-24M24S1,223,experiment,93,←,left,←,0.37593499990180135,True,38,0
JS-M-24M24S1,224,experiment,75,→,right,→,0.38431379990652204,True,38,0
JS-M-24M24S1,225,experiment,87,↓,right,→,0.5640770997852087,False,38,0
JS-M-24M24S1,226,experiment,62,↓,right,→,0.459175200201571,False,38,1
JS-M-24M24S1,227,experiment,85,↑,down,↓,0.49714970006607473,False,38,0
JS-M-24M24S1,228,experiment,101,→,right,→,0.45927769993431866,True,38,1
JS-M-24M24S1,229,experiment,80,→,right,→,0.517833299934864,True,38,0
JS-M-24M24S1,230,training,62,←,right,→,0.40092329983599484,False,39,0
JS-M-24M24S1,231,training,62,↓,left,←,0.13512930017895997,False,39,0
JS-M-24M24S1,232,experiment,107,→,up,↑,0.2517510000616312,False,39,0
JS-M-24M24S1,233,experiment,87,←,right,→,0.21877139993011951,False,39,0
JS-M-24M24S1,234,experiment,91,←,down,↓,0.10989159997552633,False,39,0
JS-M-24M24S1,235,experiment,88,↑,right,→,0.3937335000373423,False,39,0
JS-M-24M24S1,236,experiment,70,→,right,→,0.40971940010786057,True,39,0
JS-M-24M24S1,237,experiment,69,↑,right,→,0.4013500998262316,False,39,0
JS-M-24M24S1,238,experiment,100,↑,up,↑,0.17723010014742613,True,39,0
JS-M-24M24S1,239,experiment,84,←,right,→,0.051721799885854125,False,39,0
JS-M-24M24S1,240,experiment,101,←,right,→,0.46757290000095963,False,39,0
JS-M-24M24S1,241,experiment,74,↑,right,→,0.6182446000166237,False,39,0
JS-M-24M24S1,242,experiment,73,←,left,←,0.33403980010189116,True,39,1
JS-M-24M24S1,243,experiment,96,↑,up,↑,1.8107614999171346,True,39,0
JS-M-24M24S1,244,experiment,55,→,right,→,0.3757309999782592,True,39,1
JS-M-24M24S1,245,experiment,48,↑,right,→,0.6163257001899183,False,39,0
JS-M-24M24S1,246,experiment,89,←,left,←,0.4340729999821633,True,39,1
JS-M-24M24S1,247,experiment,97,↑,left,←,0.32606830005533993,False,39,0
JS-M-24M24S1,248,experiment,94,←,right,→,0.4756086999550462,False,39,0
JS-M-24M24S1,249,experiment,52,→,right,→,0.6055487999692559,True,39,0
JS-M-24M24S1,250,experiment,79,←,right,→,0.35081070009619,False,39,1
JS-M-24M24S1,251,experiment,93,→,right,→,0.4009559000842273,True,39,0
JS-M-24M24S1,252,experiment,68,↓,down,↓,0.6857477000448853,True,39,0
JS-M-24M24S1,253,experiment,92,↑,right,→,1.011636400129646,False,39,1
JS-M-24M24S1,254,experiment,51,→,right,→,0.5299069001339376,True,39,1
JS-M-24M24S1,255,experiment,95,←,left,←,0.47498920001089573,True,39,1
JS-M-24M24S1,256,experiment,54,→,right,→,0.8551167000550777,True,39,0
JS-M-24M24S1,257,experiment,83,←,left,←,0.4417940001003444,True,39,1
JS-M-24M24S1,258,experiment,61,→,up,↑,0.5224050001706928,False,39,0
JS-M-24M24S1,259,experiment,82,→,right,→,0.4186042998917401,True,39,1
JS-M-24M24S1,260,experiment,75,↓,right,→,0.25186310010030866,False,39,0
JS-M-24M24S1,261,experiment,57,→,right,→,0.4671630999073386,True,39,0
JS-M-24M24S1,262,experiment,50,←,right,→,1.122708500130102,False,39,0
JS-M-24M24S1,263,experiment,106,→,down,↓,0.05250500002875924,False,39,1
JS-M-24M24S1,264,experiment,60,↓,down,↓,0.5055523000191897,True,39,0
JS-M-24M24S1,265,experiment,67,←,left,←,0.2519537000916898,True,39,1
JS-M-24M24S1,266,experiment,99,→,right,→,0.5120069000404328,True,39,0
JS-M-24M24S1,267,experiment,105,↓,right,→,0.3257165998220444,False,39,1
JS-M-24M24S1,268,experiment,59,↑,down,↓,0.42550119990482926,False,39,0
JS-M-24M24S1,269,experiment,49,↑,up,↑,0.3586643000598997,True,39,0
JS-M-24M24S1,270,experiment,63,↓,left,←,0.8649556001182646,False,39,0
JS-M-24M24S1,271,experiment,58,↑,down,↓,0.8746999998111278,False,39,1
JS-M-24M24S1,272,experiment,85,←,right,→,0.3341651000082493,False,39,1
JS-M-24M24S1,273,experiment,65,↓,down,↓,0.6713104001246393,True,39,0
JS-M-24M24S1,274,experiment,62,↑,left,←,0.26839440013282,False,39,1
JS-M-24M24S1,275,experiment,72,↑,down,↓,0.29317609989084303,False,39,0
JS-M-24M24S1,276,experiment,76,→,right,→,0.42585729993879795,True,39,0
JS-M-24M24S1,277,experiment,98,→,left,←,0.3842976000159979,False,39,0
JS-M-24M24S1,278,experiment,102,→,right,→,0.49587480002082884,True,39,0
JS-M-24M24S1,279,experiment,78,↑,no_key,no_letter,-1.0,False,39,0
JS-M-24M24S1,280,experiment,71,↑,right,→,0.38414539978839457,False,39,1
JS-M-24M24S1,281,experiment,66,↓,right,→,0.5076350998133421,False,39,0
JS-M-24M24S1,282,experiment,80,→,down,↓,1.0842108000069857,False,39,1
JS-M-24M24S1,283,experiment,81,↓,right,→,0.09362470009364188,False,39,1
JS-M-24M24S1,284,experiment,104,←,left,←,0.11034790007397532,True,39,0
JS-M-24M24S1,285,experiment,103,↑,right,→,0.0017969999462366104,False,39,0
JS-M-24M24S1,286,experiment,64,↓,down,↓,0.6752770999446511,True,39,0
JS-M-24M24S1,287,experiment,90,→,left,←,0.32571060000918806,False,39,1
JS-M-24M24S1,288,experiment,108,↑,right,→,0.13504339987412095,False,39,0
JS-M-24M24S1,289,experiment,86,↑,down,↓,0.09386359993368387,False,39,0
JS-M-24M24S1,290,experiment,77,→,up,↑,0.06844589998945594,False,39,0
JS-M-24M24S1,291,experiment,53,→,right,→,0.3925558999180794,True,39,0
JS-M-24M24S1,292,experiment,56,←,right,→,0.3021247999276966,False,39,0
JS-M-24M24S1,293,training,73,↓,right,→,0.4171331999823451,False,40,0
JS-M-24M24S1,294,training,85,↓,right,→,0.11862749978899956,False,40,0
JS-M-24M24S1,295,experiment,70,↑,left,←,0.0352057998534292,False,40,0
JS-M-24M24S1,296,experiment,64,↑,down,↓,0.035180999897420406,False,40,0
JS-M-24M24S1,297,experiment,97,↑,up,↑,0.15099140000529587,True,40,0
JS-M-24M24S1,298,experiment,87,←,left,←,0.1599750998429954,True,40,0
JS-M-24M24S1,299,experiment,69,↓,up,↑,0.4508487000130117,False,40,0
JS-M-24M24S1,300,experiment,74,←,left,←,0.2933770997915417,True,40,0
JS-M-24M24S1,301,experiment,73,↑,right,→,0.3919460999313742,False,40,0
JS-M-24M24S1,302,experiment,96,←,left,←,0.11001119995489717,True,40,0
JS-M-24M24S1,303,experiment,83,→,right,→,1.101508499821648,True,40,0
JS-M-24M24S1,304,experiment,91,↑,right,→,0.14350550016388297,False,40,1
JS-M-24M24S1,305,experiment,93,←,down,↓,0.060159899992868304,False,40,0
JS-M-24M24S1,306,experiment,75,→,left,←,0.7751148999668658,False,40,0
JS-M-24M24S1,307,experiment,95,←,up,↑,0.2020620999392122,False,40,1
JS-M-24M24S1,308,experiment,82,→,right,→,0.1941265999339521,True,40,0
JS-M-24M24S1,309,experiment,63,↓,down,↓,0.08493459993042052,True,40,0
JS-M-24M24S1,310,experiment,88,↑,down,↓,0.010109599912539124,False,40,0
JS-M-24M24S1,311,experiment,54,↑,down,↓,0.06053999997675419,False,40,0
JS-M-24M24S1,312,experiment,57,↓,right,→,-0.0056165000423789024,False,40,0
JS-M-24M24S1,313,experiment,84,←,right,→,0.0018029001075774431,False,40,0
JS-M-24M24S1,314,experiment,68,→,right,→,0.07701390003785491,True,40,0
JS-M-24M24S1,315,experiment,67,↓,right,→,0.1433828000444919,False,40,0
JS-M-24M24S1,316,experiment,98,←,left,←,0.010221299948170781,True,40,0
JS-M-24M24S1,317,experiment,102,↑,right,→,0.13513230020180345,False,40,0
JS-M-24M24S1,318,experiment,53,→,left,←,0.36740870005451143,False,40,0
JS-M-24M24S1,319,experiment,61,↑,down,↓,0.5996765999589115,False,40,0
JS-M-24M24S1,320,experiment,56,↓,down,↓,0.5168308999855071,True,40,1
JS-M-24M24S1,321,experiment,58,↑,up,↑,0.4006501999683678,True,40,1
JS-M-24M24S1,322,experiment,51,↓,down,↓,0.8985133999958634,True,40,0
JS-M-24M24S1,323,experiment,90,↓,up,↑,0.34246439998969436,False,40,1
JS-M-24M24S1,324,experiment,78,→,right,→,0.3760208999738097,True,40,0
JS-M-24M24S1,325,experiment,99,←,down,↓,0.2939656001981348,False,40,0
JS-M-24M24S1,326,experiment,76,→,right,→,0.2752054000739008,True,40,0
JS-M-24M24S1,327,experiment,101,←,right,→,0.40070390002802014,False,40,0
JS-M-24M24S1,328,experiment,100,↑,up,↑,0.4841080999467522,True,40,0
JS-M-24M24S1,329,experiment,50,↓,down,↓,0.5073935999535024,True,40,0
JS-M-24M24S1,330,experiment,105,↓,down,↓,0.5156149000395089,True,40,0
JS-M-24M24S1,331,experiment,81,↓,right,→,0.5794787001796067,False,40,1
JS-M-24M24S1,332,experiment,86,↓,down,↓,0.39232060010544956,True,40,1
JS-M-24M24S1,333,experiment,108,↓,right,→,0.48401879984885454,False,40,0
JS-M-24M24S1,334,experiment,71,↓,down,↓,0.6556683999951929,True,40,0
JS-M-24M24S1,335,experiment,65,↑,down,↓,0.24353799992240965,False,40,1
JS-M-24M24S1,336,experiment,107,←,left,←,0.4332198998890817,True,40,0
JS-M-24M24S1,337,experiment,55,→,right,→,0.43483919999562204,True,40,0
JS-M-24M24S1,338,experiment,103,←,left,←,0.3672110000625253,True,40,0
JS-M-24M24S1,339,experiment,85,→,right,→,0.5221945000812411,True,40,0
JS-M-24M24S1,340,experiment,72,←,left,←,0.2686532000079751,True,40,1
JS-M-24M24S1,341,experiment,77,→,right,→,0.40078660007566214,True,40,0
JS-M-24M24S1,342,experiment,80,↑,right,→,0.467305300058797,False,40,0
JS-M-24M24S1,343,experiment,89,↓,down,↓,0.40121350018307567,True,40,0
JS-M-24M24S1,344,experiment,94,↓,right,→,0.3417544001713395,False,40,0
JS-M-24M24S1,345,experiment,48,→,right,→,0.5947434001136571,True,40,0
JS-M-24M24S1,346,experiment,49,↓,down,↓,0.4431417000014335,True,40,1
JS-M-24M24S1,347,experiment,62,←,right,→,0.12593099987134337,False,40,1
JS-M-24M24S1,348,experiment,104,←,right,→,1.171072400175035,False,40,0
JS-M-24M24S1,349,experiment,59,↓,down,↓,0.22677890001796186,True,40,1
JS-M-24M24S1,350,experiment,60,←,right,→,0.2599482999648899,False,40,0
JS-M-24M24S1,351,experiment,52,→,down,↓,0.2933005001395941,False,40,0
JS-M-24M24S1,352,experiment,106,↑,right,→,0.4089655000716448,False,40,0
JS-M-24M24S1,353,experiment,66,→,right,→,0.28515890007838607,True,40,0
JS-M-24M24S1,354,experiment,79,→,right,→,0.39184860000386834,True,40,0
JS-M-24M24S1,355,experiment,92,↓,right,→,0.3504879998508841,False,40,0
JS-M-24M24S1,356,training,53,←,right,→,0.09986399998888373,False,41,0
JS-M-24M24S1,357,training,80,↓,down,↓,0.5549475001171231,True,41,0
JS-M-24M24S1,358,experiment,71,↓,down,↓,0.17683280003257096,True,41,1
JS-M-24M24S1,359,experiment,50,→,down,↓,0.2684933999553323,False,41,0
JS-M-24M24S1,360,experiment,59,→,down,↓,0.04268059995956719,False,41,0
JS-M-24M24S1,361,experiment,73,↑,right,→,0.33576949988491833,False,41,0
JS-M-24M24S1,362,experiment,84,↓,right,→,0.3506257999688387,False,41,0
JS-M-24M24S1,363,experiment,80,→,down,↓,0.018369799945503473,False,41,0
JS-M-24M24S1,364,experiment,60,←,left,←,0.32690380001440644,True,41,0
JS-M-24M24S1,365,experiment,61,↓,left,←,0.28509469982236624,False,41,0
JS-M-24M24S1,366,experiment,92,↓,down,↓,0.27660110010765493,True,41,0
JS-M-24M24S1,367,experiment,57,→,down,↓,0.20994510012678802,False,41,0
JS-M-24M24S1,368,experiment,99,↑,down,↓,0.3339901000726968,False,41,0
JS-M-24M24S1,369,experiment,58,←,left,←,0.44218110013753176,True,41,0
JS-M-24M24S1,370,experiment,48,→,right,→,0.5351608998607844,True,41,0
JS-M-24M24S1,371,experiment,88,↑,left,←,0.3756163001526147,False,41,1
JS-M-24M24S1,372,experiment,100,→,left,←,0.026787800015881658,False,41,0
JS-M-24M24S1,373,experiment,51,↑,right,→,0.060340499971061945,False,41,0
JS-M-24M24S1,374,experiment,85,↑,left,←,0.11826239991933107,False,41,0
JS-M-24M24S1,375,experiment,97,↓,right,→,0.1691039998549968,False,41,0
JS-M-24M24S1,376,experiment,81,↑,left,←,0.03514060005545616,False,41,0
JS-M-24M24S1,377,experiment,106,→,down,↓,0.19384550000540912,False,41,0
JS-M-24M24S1,378,experiment,64,↓,left,←,0.01038450002670288,False,41,0
JS-M-24M24S1,379,experiment,78,↓,down,↓,0.3603019001893699,True,41,0
JS-M-24M24S1,380,experiment,107,↑,down,↓,0.2933073998428881,False,41,0
JS-M-24M24S1,381,experiment,49,→,down,↓,0.20160439983010292,False,41,0
JS-M-24M24S1,382,experiment,82,↑,up,↑,0.28550689993426204,True,41,0
JS-M-24M24S1,383,experiment,101,→,up,↑,0.3102426999248564,False,41,0
JS-M-24M24S1,384,experiment,103,↓,up,↑,0.32709649996832013,False,41,0
JS-M-24M24S1,385,experiment,56,↑,down,↓,0.2935122998896986,False,41,0
JS-M-24M24S1,386,experiment,63,↓,up,↑,0.24402279988862574,False,41,0
JS-M-24M24S1,387,experiment,96,↑,up,↑,0.010294399922713637,True,41,0
JS-M-24M24S1,388,experiment,62,↑,down,↓,0.18496030010282993,False,41,0
JS-M-24M24S1,389,experiment,74,←,up,↑,0.15027379989624023,False,41,0
JS-M-24M24S1,390,experiment,68,←,down,↓,0.35023340000770986,False,41,0
JS-M-24M24S1,391,experiment,69,↑,down,↓,0.16709590004757047,False,41,0
JS-M-24M24S1,392,experiment,53,←,down,↓,0.22754790005274117,False,41,0
JS-M-24M24S1,393,experiment,94,→,down,↓,0.15160669991746545,False,41,0
JS-M-24M24S1,394,experiment,52,↑,down,↓,0.27705939998850226,False,41,0
JS-M-24M24S1,395,experiment,83,→,down,↓,0.47570620011538267,False,41,0
JS-M-24M24S1,396,experiment,54,↑,left,←,0.04365559993311763,False,41,0
JS-M-24M24S1,397,experiment,108,→,left,←,0.008989800000563264,False,41,0
JS-M-24M24S1,398,experiment,72,↑,right,→,0.29359259991906583,False,41,0
JS-M-24M24S1,399,experiment,86,↓,right,→,0.15193439996801317,False,41,0
JS-M-24M24S1,400,experiment,87,←,down,↓,0.2098808002192527,False,41,0
JS-M-24M24S1,401,experiment,91,↓,left,←,0.10993789997883141,False,41,0
JS-M-24M24S1,402,experiment,55,↑,up,↑,0.00900179985910654,True,41,0
JS-M-24M24S1,403,experiment,90,→,up,↑,0.21831750008277595,False,41,0
JS-M-24M24S1,404,experiment,70,→,left,←,0.06012660008855164,False,41,0
JS-M-24M24S1,405,experiment,89,←,right,→,0.10161409992724657,False,41,0
JS-M-24M24S1,406,experiment,77,↑,right,→,0.251963600050658,False,41,0
JS-M-24M24S1,407,experiment,65,↑,down,↓,0.03541650017723441,False,41,0
JS-M-24M24S1,408,experiment,102,←,down,↓,0.11840200005099177,False,41,0
JS-M-24M24S1,409,experiment,98,↑,down,↓,0.32749349996447563,False,41,0
JS-M-24M24S1,410,experiment,76,←,down,↓,1.2452902998775244,False,41,0
JS-M-24M24S1,411,experiment,66,→,left,←,0.06847039982676506,False,41,1
JS-M-24M24S1,412,experiment,93,←,right,→,0.10992220020852983,False,41,0
JS-M-24M24S1,413,experiment,95,↓,right,→,0.243288200115785,False,41,0
JS-M-24M24S1,414,experiment,75,↓,right,→,0.7004543000366539,False,41,0
JS-M-24M24S1,415,experiment,105,↓,right,→,0.0936249999795109,False,41,1
JS-M-24M24S1,416,experiment,67,↓,left,←,0.21856590011157095,False,41,0
JS-M-24M24S1,417,experiment,104,↑,up,↑,0.30203199991956353,True,41,0
JS-M-24M24S1,418,experiment,79,→,down,↓,0.12659080000594258,False,41,0
JS-M-24M24S1,419,training,60,↓,left,←,0.475665400037542,False,42,0
JS-M-24M24S1,420,training,101,→,down,↓,0.03488140017725527,False,42,0
JS-M-24M24S1,421,experiment,56,↓,left,←,0.08536779996939003,False,42,0
JS-M-24M24S1,422,experiment,76,→,down,↓,0.18541979999281466,False,42,0
JS-M-24M24S1,423,experiment,108,↓,down,↓,0.17593160015530884,True,42,0
JS-M-24M24S1,424,experiment,89,↓,down,↓,0.27703980007208884,True,42,0
JS-M-24M24S1,425,experiment,50,↓,down,↓,0.2600767998956144,True,42,0
JS-M-24M24S1,426,experiment,71,↑,up,↑,1.8113953000865877,True,42,0
JS-M-24M24S1,427,experiment,98,↑,up,↑,0.45008899993263185,True,42,1
JS-M-24M24S1,428,experiment,75,←,left,←,0.0182090001180768,True,42,0
JS-M-24M24S1,429,experiment,87,↑,down,↓,0.17659039981663227,False,42,0
JS-M-24M24S1,430,experiment,82,↓,down,↓,0.1935206998605281,True,42,0
JS-M-24M24S1,431,experiment,65,←,down,↓,0.3502621999941766,False,42,0
JS-M-24M24S1,432,experiment,51,→,down,↓,0.7978968999814242,False,42,0
JS-M-24M24S1,433,experiment,95,↑,down,↓,0.07584940013475716,False,42,1
JS-M-24M24S1,434,experiment,90,→,right,→,0.1435851000715047,True,42,0
JS-M-24M24S1,435,experiment,58,↓,up,↑,0.5282316999509931,False,42,0
JS-M-24M24S1,436,experiment,86,↓,up,↑,0.018374500097706914,False,42,1
JS-M-24M24S1,437,experiment,64,←,right,→,0.010098700178787112,False,42,1
JS-M-24M24S1,438,experiment,66,→,left,←,0.11060569994151592,False,42,0
JS-M-24M24S1,439,experiment,70,→,left,←,0.1834927999880165,False,42,0
JS-M-24M24S1,440,experiment,77,←,left,←,0.0017960001714527607,True,42,0
JS-M-24M24S1,441,experiment,48,←,up,↑,0.14329669997096062,False,42,0
JS-M-24M24S1,442,experiment,84,→,up,↑,0.01857360010035336,False,42,0
JS-M-24M24S1,443,experiment,104,↓,right,→,0.018279599957168102,False,42,0
JS-M-24M24S1,444,experiment,74,←,right,→,0.1370709000620991,False,42,0
JS-M-24M24S1,445,experiment,68,→,up,↑,0.08546230010688305,False,42,0
JS-M-24M24S1,446,experiment,63,→,down,↓,0.010138999903574586,False,42,0
JS-M-24M24S1,447,experiment,72,↑,right,→,0.051810599863529205,False,42,0
JS-M-24M24S1,448,experiment,73,←,right,→,0.28499830001965165,False,42,0
JS-M-24M24S1,449,experiment,107,←,left,←,0.0768087999895215,True,42,0
JS-M-24M24S1,450,experiment,69,←,right,→,0.017371099907904863,False,42,0
JS-M-24M24S1,451,experiment,67,↑,left,←,0.06034000008367002,False,42,0
JS-M-24M24S1,452,experiment,78,↓,left,←,0.30177409993484616,False,42,0
JS-M-24M24S1,453,experiment,57,↓,right,→,0.48406799999065697,False,42,0
JS-M-24M24S1,454,experiment,100,→,right,→,0.521904299966991,True,42,0
JS-M-24M24S1,455,experiment,61,→,down,↓,0.17685200017876923,False,42,0
JS-M-24M24S1,456,experiment,54,↑,down,↓,0.035101199988275766,False,42,0
JS-M-24M24S1,457,experiment,106,↑,right,→,0.4926031001377851,False,42,0
JS-M-24M24S1,458,experiment,91,↓,down,↓,1.2032887998502702,True,42,0
JS-M-24M24S1,459,experiment,83,↑,right,→,0.026777700055390596,False,42,1
JS-M-24M24S1,460,experiment,85,←,down,↓,0.4671876998618245,False,42,0
JS-M-24M24S1,461,experiment,103,←,down,↓,0.5358251999132335,False,42,0
JS-M-24M24S1,462,experiment,96,→,up,↑,0.30056020012125373,False,42,1
JS-M-24M24S1,463,experiment,53,←,left,←,0.21091300016269088,True,42,0
JS-M-24M24S1,464,experiment,79,↑,down,↓,0.010541900061070919,False,42,0
JS-M-24M24S1,465,experiment,55,→,right,→,0.026626699836924672,True,42,1
JS-M-24M24S1,466,experiment,88,↑,down,↓,0.21704040002077818,False,42,0
JS-M-24M24S1,467,experiment,81,←,right,→,0.5703586000017822,False,42,0
JS-M-24M24S1,468,experiment,80,←,down,↓,0.1770182999316603,False,42,1
JS-M-24M24S1,469,experiment,93,←,right,→,0.5878341998904943,False,42,0
JS-M-24M24S1,470,experiment,102,→,left,←,-0.00557969999499619,False,42,1
JS-M-24M24S1,471,experiment,101,→,right,→,0.051392200170084834,True,42,0
JS-M-24M24S1,472,experiment,59,↑,left,←,1.2718442000914365,False,42,0
JS-M-24M24S1,473,experiment,99,→,right,→,0.35005060001276433,True,42,1
JS-M-24M24S1,474,experiment,97,←,left,←,0.44227540004067123,True,42,0
JS-M-24M24S1,475,experiment,92,↑,up,↑,0.5396900000050664,True,42,0
JS-M-24M24S1,476,experiment,62,↑,right,→,0.6887803999707103,False,42,1
JS-M-24M24S1,477,experiment,52,→,right,→,0.4010908999480307,True,42,1
JS-M-24M24S1,478,experiment,49,→,right,→,0.3186216999311,True,42,0
JS-M-24M24S1,479,experiment,94,↓,right,→,0.3669765000231564,False,42,0
JS-M-24M24S1,480,experiment,105,←,right,→,0.40893819998018444,False,42,0
JS-M-24M24S1,481,experiment,60,→,right,→,0.3675440000370145,True,42,0
JS-M-24M24S1,482,training,71,↓,right,→,0.6848263000138104,False,43,0
JS-M-24M24S1,483,training,73,→,up,↑,0.3506356000434607,False,43,1
JS-M-24M24S1,484,experiment,52,→,right,→,0.12688449979759753,True,43,0
JS-M-24M24S1,485,experiment,50,↑,right,→,0.25183289987035096,False,43,0
JS-M-24M24S1,486,experiment,92,↑,up,↑,0.08510639984160662,True,43,0
JS-M-24M24S1,487,experiment,49,←,down,↓,0.109920599963516,False,43,0
JS-M-24M24S1,488,experiment,64,↓,up,↑,0.2268316000699997,False,43,0
JS-M-24M24S1,489,experiment,77,→,right,→,0.10033029993064702,True,43,0
JS-M-24M24S1,490,experiment,83,←,down,↓,0.09352890006266534,False,43,0
JS-M-24M24S1,491,experiment,55,→,right,→,0.15139100002124906,True,43,0
JS-M-24M24S1,492,experiment,100,↓,right,→,0.1353674998972565,False,43,0
JS-M-24M24S1,493,experiment,97,↑,up,↑,0.5995246998500079,True,43,0
JS-M-24M24S1,494,experiment,69,↓,down,↓,1.2082875000778586,True,43,1
JS-M-24M24S1,495,experiment,108,↓,down,↓,0.30198200000450015,True,43,1
JS-M-24M24S1,496,experiment,96,↓,right,→,0.30205900012515485,False,43,0
JS-M-24M24S1,497,experiment,68,→,left,←,0.44120800006203353,False,43,0
JS-M-24M24S1,498,experiment,88,↑,up,↑,1.9685589999426156,True,43,0
JS-M-24M24S1,499,experiment,102,←,down,↓,0.0520172999240458,False,43,1
JS-M-24M24S1,500,experiment,81,↓,down,↓,0.417589700082317,True,43,0
JS-M-24M24S1,501,experiment,93,↑,down,↓,0.101714399876073,False,43,0
JS-M-24M24S1,502,experiment,62,↓,up,↑,0.3007095998618752,False,43,0
JS-M-24M24S1,503,experiment,48,↑,left,←,0.17662780010141432,False,43,0
JS-M-24M24S1,504,experiment,70,→,no_key,no_letter,-1.0,False,43,0
JS-M-24M24S1,505,experiment,66,↑,up,↑,0.467558000003919,True,43,1
JS-M-24M24S1,506,experiment,61,↓,down,↓,0.5506988000124693,True,43,0
JS-M-24M24S1,507,experiment,72,→,no_key,no_letter,-1.0,False,43,1
JS-M-24M24S1,508,experiment,91,↓,right,→,0.40030470001511276,False,43,1
JS-M-24M24S1,509,experiment,75,↑,right,→,1.3987318000290543,False,43,0
JS-M-24M24S1,510,experiment,51,→,down,↓,0.27706059999763966,False,43,1
JS-M-24M24S1,511,experiment,84,→,left,←,0.41717599984258413,False,43,0
JS-M-24M24S1,512,experiment,105,↓,left,←,0.31829959992319345,False,43,0
JS-M-24M24S1,513,experiment,76,←,left,←,0.37589369993656874,True,43,0
JS-M-24M24S1,514,experiment,85,↑,right,→,0.2417063000611961,False,43,0
JS-M-24M24S1,515,experiment,73,↓,up,↑,0.2686625998467207,False,43,0
JS-M-24M24S1,516,experiment,89,→,right,→,0.285375899868086,True,43,0
JS-M-24M24S1,517,experiment,60,↓,up,↑,0.14385210000909865,False,43,0
JS-M-24M24S1,518,experiment,80,↓,right,→,0.3188100999686867,False,43,0
JS-M-24M24S1,519,experiment,53,←,right,→,0.3511439999565482,False,43,0
JS-M-24M24S1,520,experiment,103,↓,left,←,0.39249220001511276,False,43,0
JS-M-24M24S1,521,experiment,79,→,right,→,0.4010892999358475,True,43,0
JS-M-24M24S1,522,experiment,94,↑,right,→,0.5611302999313921,False,43,0
JS-M-24M24S1,523,experiment,57,↓,down,↓,0.5348632000386715,True,43,1
JS-M-24M24S1,524,experiment,74,→,right,→,0.4171661001164466,True,43,1
JS-M-24M24S1,525,experiment,58,↑,right,→,0.4425646001473069,False,43,0
JS-M-24M24S1,526,experiment,101,↑,up,↑,0.45083300000987947,True,43,0
JS-M-24M24S1,527,experiment,86,↓,down,↓,0.5088938002008945,True,43,0
JS-M-24M24S1,528,experiment,78,←,down,↓,0.01850809995085001,False,43,0
JS-M-24M24S1,529,experiment,82,↓,left,←,0.11898789997212589,False,43,0
JS-M-24M24S1,530,experiment,65,←,down,↓,0.24320839997380972,False,43,0
JS-M-24M24S1,531,experiment,87,↑,up,↑,0.5285915001295507,True,43,0
JS-M-24M24S1,532,experiment,71,←,left,←,0.1768324999138713,True,43,1
JS-M-24M24S1,533,experiment,95,←,down,↓,0.3269836001563817,False,43,0
JS-M-24M24S1,534,experiment,106,↑,right,→,0.15212369989603758,False,43,0
JS-M-24M24S1,535,experiment,107,↑,down,↓,0.19354410003870726,False,43,0
JS-M-24M24S1,536,experiment,63,←,down,↓,0.3585218000225723,False,43,0
JS-M-24M24S1,537,experiment,59,↓,up,↑,0.19378009997308254,False,43,0
JS-M-24M24S1,538,experiment,98,←,right,→,0.3838478000834584,False,43,0
JS-M-24M24S1,539,experiment,54,↓,left,←,0.19356729998253286,False,43,0
JS-M-24M24S1,540,experiment,56,↑,down,↓,0.26032450003549457,False,43,0
JS-M-24M24S1,541,experiment,104,←,down,↓,0.6545217998791486,False,43,0
JS-M-24M24S1,542,experiment,67,→,right,→,0.010317600099369884,True,43,1
JS-M-24M24S1,543,experiment,99,←,right,→,0.2935575000010431,False,43,0
JS-M-24M24S1,544,experiment,90,↑,up,↑,0.0932320998981595,True,43,0
JS-M-24M24S1,545,training,65,←,left,←,0.310491899959743,True,44,0
JS-M-24M24S1,546,training,52,→,left,←,0.2915258000139147,False,44,0
JS-M-24M24S1,547,experiment,107,→,up,↑,0.08504049992188811,False,44,0
JS-M-24M24S1,548,experiment,83,→,down,↓,0.010195899987593293,False,44,0
JS-M-24M24S1,549,experiment,86,↑,left,←,1.0265146000310779,False,44,0
JS-M-24M24S1,550,experiment,60,←,up,↑,0.38405649992637336,False,44,1
JS-M-24M24S1,551,experiment,89,↑,down,↓,0.343517699977383,False,44,0
JS-M-24M24S1,552,experiment,66,↑,up,↑,0.46766159986145794,True,44,0
JS-M-24M24S1,553,experiment,87,→,right,→,0.3519051999319345,True,44,0
JS-M-24M24S1,554,experiment,67,←,left,←,0.3842718000523746,True,44,0
JS-M-24M24S1,555,experiment,100,←,left,←,0.3591241999529302,True,44,0
JS-M-24M24S1,556,experiment,65,↓,right,→,0.3267173001077026,False,44,0
JS-M-24M24S1,557,experiment,49,→,down,↓,0.3847332999575883,False,44,0
JS-M-24M24S1,558,experiment,75,↓,up,↑,0.08528949995525181,False,44,0
JS-M-24M24S1,559,experiment,70,↓,right,→,0.010183699894696474,False,44,0
JS-M-24M24S1,560,experiment,94,←,right,→,0.05195820005610585,False,44,0
JS-M-24M24S1,561,experiment,53,↓,down,↓,0.1853135998826474,True,44,0
JS-M-24M24S1,562,experiment,77,→,left,←,0.16012869984842837,False,44,0
JS-M-24M24S1,563,experiment,81,↓,right,→,0.176911799935624,False,44,0
JS-M-24M24S1,564,experiment,97,↓,up,↑,0.13507590000517666,False,44,0
JS-M-24M24S1,565,experiment,72,↓,left,←,0.3837811001576483,False,44,0
JS-M-24M24S1,566,experiment,55,→,down,↓,0.01837800000794232,False,44,0
JS-M-24M24S1,567,experiment,99,→,left,←,0.059608800103887916,False,44,0
JS-M-24M24S1,568,experiment,95,↓,right,→,0.3421201000455767,False,44,0
JS-M-24M24S1,569,experiment,51,←,left,←,0.1753813000395894,True,44,0
JS-M-24M24S1,570,experiment,84,→,up,↑,0.590398299973458,False,44,0
JS-M-24M24S1,571,experiment,91,→,down,↓,0.058870499953627586,False,44,1
JS-M-24M24S1,572,experiment,63,←,up,↑,0.05088089988566935,False,44,0
JS-M-24M24S1,573,experiment,80,↓,right,→,0.043464899994432926,False,44,0
JS-M-24M24S1,574,experiment,82,←,left,←,0.3519570000935346,True,44,0
JS-M-24M24S1,575,experiment,88,→,down,↓,0.2687754000071436,False,44,0
JS-M-24M24S1,576,experiment,96,→,left,←,0.11010819999501109,False,44,0
JS-M-24M24S1,577,experiment,68,↓,right,→,0.4925098998937756,False,44,0
JS-M-24M24S1,578,experiment,56,↓,up,↑,0.31017449987120926,False,44,0
JS-M-24M24S1,579,experiment,64,↑,right,→,0.1686418999452144,False,44,0
JS-M-24M24S1,580,experiment,85,←,down,↓,0.0750693001318723,False,44,0
JS-M-24M24S1,581,experiment,69,↓,up,↑,0.18529630010016263,False,44,0
JS-M-24M24S1,582,experiment,102,↓,right,→,0.4353359001688659,False,44,0
JS-M-24M24S1,583,experiment,74,←,left,←,0.1358380001038313,True,44,0
JS-M-24M24S1,584,experiment,104,→,down,↓,0.5500640000682324,False,44,0
JS-M-24M24S1,585,experiment,71,↓,left,←,0.05181790003553033,False,44,1
JS-M-24M24S1,586,experiment,73,↓,right,→,0.28513839980587363,False,44,0
JS-M-24M24S1,587,experiment,57,↓,right,→,0.1354618000332266,False,44,0
JS-M-24M24S1,588,experiment,54,→,down,↓,0.2669660998508334,False,44,1
JS-M-24M24S1,589,experiment,52,↓,down,↓,0.5740165999159217,True,44,0
JS-M-24M24S1,590,experiment,108,→,up,↑,0.10156730003654957,False,44,1
JS-M-24M24S1,591,experiment,61,←,up,↑,0.0270112999714911,False,44,0
JS-M-24M24S1,592,experiment,101,↓,no_key,no_letter,-1.0,False,44,0
JS-M-24M24S1,593,experiment,103,↓,up,↑,0.09332760004326701,False,44,1
JS-M-24M24S1,594,experiment,76,↓,right,→,0.16848089988343418,False,44,0
JS-M-24M24S1,595,experiment,59,←,right,→,0.2170168999582529,False,44,0
JS-M-24M24S1,596,experiment,105,↓,left,←,0.17659339983947575,False,44,0
JS-M-24M24S1,597,experiment,98,←,right,→,0.15168670006096363,False,44,0
JS-M-24M24S1,598,experiment,48,←,right,→,0.9190483998972923,False,44,0
JS-M-24M24S1,599,experiment,79,↑,left,←,0.21853070007637143,False,44,1
JS-M-24M24S1,600,experiment,58,→,right,→,0.11880350019782782,True,44,0
JS-M-24M24S1,601,experiment,93,→,right,→,0.018500400008633733,True,44,0
JS-M-24M24S1,602,experiment,62,←,left,←,0.24380640010349452,True,44,0
JS-M-24M24S1,603,experiment,50,↑,left,←,0.1777925998903811,False,44,0
JS-M-24M24S1,604,experiment,92,↑,up,↑,0.6308393999934196,True,44,0
JS-M-24M24S1,605,experiment,106,↑,right,→,0.027363500092178583,False,44,1
JS-M-24M24S1,606,experiment,78,→,down,↓,0.2184812999330461,False,44,0
JS-M-24M24S1,607,experiment,90,↑,left,←,0.01711969985626638,False,44,0
JS-M-24M24S1,608,training,81,↓,down,↓,0.09331009979359806,True,44,0
JS-M-24M24S1,609,training,95,↑,right,→,0.3671633000485599,False,44,0
JS-M-24M24S1,610,experiment,79,↓,up,↑,0.2667793999426067,False,44,0
JS-M-24M24S1,611,experiment,96,↓,down,↓,0.06010539992712438,True,44,0
JS-M-24M24S1,612,experiment,54,↓,up,↑,0.1851816000416875,False,44,0
JS-M-24M24S1,613,experiment,56,→,down,↓,0.11013359995558858,False,44,0
JS-M-24M24S1,614,experiment,53,→,right,→,0.3103306000120938,True,44,0
JS-M-24M24S1,615,experiment,55,→,left,←,0.00993860000744462,False,44,0
JS-M-24M24S1,616,experiment,61,←,down,↓,0.7881773000117391,False,44,0
JS-M-24M24S1,617,experiment,77,↑,up,↑,0.27677170000970364,True,44,1
JS-M-24M24S1,618,experiment,83,→,right,→,0.09388719988055527,True,44,0
JS-M-24M24S1,619,experiment,106,↑,down,↓,0.018181500025093555,False,44,0
JS-M-24M24S1,620,experiment,66,↑,left,←,0.19406599993817508,False,44,0
JS-M-24M24S1,621,experiment,95,↓,right,→,0.026816300116479397,False,44,0
JS-M-24M24S1,622,experiment,102,→,left,←,0.17646540002897382,False,44,0
JS-M-24M24S1,623,experiment,75,↓,right,→,1.161519599845633,False,44,0
JS-M-24M24S1,624,experiment,108,←,left,←,0.376155799953267,True,44,1
JS-M-24M24S1,625,experiment,64,↓,left,←,0.3672034000046551,False,44,0
JS-M-24M24S1,626,experiment,104,↓,down,↓,0.35905009997077286,True,44,0
JS-M-24M24S1,627,experiment,67,↓,down,↓,0.27665509982034564,True,44,0
JS-M-24M24S1,628,experiment,49,↓,down,↓,0.26751350006088614,True,44,0
JS-M-24M24S1,629,experiment,101,←,right,→,0.3267484998796135,False,44,0
JS-M-24M24S1,630,experiment,65,←,left,←,0.4586137000005692,True,44,0
JS-M-24M24S1,631,experiment,97,↓,down,↓,0.32702160021290183,True,44,0
JS-M-24M24S1,632,experiment,87,→,right,→,0.3523450999055058,True,44,0
JS-M-24M24S1,633,experiment,48,←,right,→,1.2962398999370635,False,44,0
JS-M-24M24S1,634,experiment,103,↓,down,↓,0.34354400006122887,True,44,1
JS-M-24M24S1,635,experiment,57,↓,down,↓,0.5677676000632346,True,44,0
JS-M-24M24S1,636,experiment,92,↓,down,↓,0.367351199965924,True,44,1
JS-M-24M24S1,637,experiment,91,→,right,→,0.3675844999961555,True,44,0
JS-M-24M24S1,638,experiment,82,→,right,→,0.36772329988889396,True,44,0
JS-M-24M24S1,639,experiment,105,←,right,→,0.450375699903816,False,44,0
JS-M-24M24S1,640,experiment,84,←,right,→,0.3269328000023961,False,44,0
JS-M-24M24S1,641,experiment,69,←,left,←,0.4925383999943733,True,44,0
JS-M-24M24S1,642,experiment,85,↓,right,→,0.43396579986438155,False,44,0
JS-M-24M24S1,643,experiment,58,↓,down,↓,0.39243249990977347,True,44,0
JS-M-24M24S1,644,experiment,93,→,right,→,0.4593364999163896,True,44,0
JS-M-24M24S1,645,experiment,70,→,right,→,0.3101528000552207,True,44,0
JS-M-24M24S1,646,experiment,100,↓,down,↓,0.3266829000785947,True,44,0
JS-M-24M24S1,647,experiment,59,↑,right,→,0.6008015000261366,False,44,0
JS-M-24M24S1,648,experiment,50,↓,down,↓,0.3266544002108276,True,44,1
JS-M-24M24S1,649,experiment,90,↑,up,↑,0.5951062999665737,True,44,0
JS-M-24M24S1,650,experiment,71,↓,down,↓,0.46821180009283125,True,44,1
JS-M-24M24S1,651,experiment,60,←,right,→,0.45071120001375675,False,44,0
JS-M-24M24S1,652,experiment,88,↓,down,↓,0.3846484001260251,True,44,0
JS-M-24M24S1,653,experiment,68,↑,down,↓,1.7332480000331998,False,44,0
JS-M-24M24S1,654,experiment,76,←,right,→,0.2935311999171972,False,44,1
JS-M-24M24S1,655,experiment,94,↓,right,→,0.019036100013181567,False,44,0
JS-M-24M24S1,656,experiment,89,←,down,↓,0.1672569999936968,False,44,0
JS-M-24M24S1,657,experiment,72,↓,down,↓,0.08503319998271763,True,44,0
JS-M-24M24S1,658,experiment,62,↑,up,↑,0.03512610006146133,True,44,0
JS-M-24M24S1,659,experiment,52,↓,left,←,0.19350190018303692,False,44,0
JS-M-24M24S1,660,experiment,99,→,down,↓,0.15969830006361008,False,44,0
JS-M-24M24S1,661,experiment,74,↑,up,↑,0.1687378000933677,True,44,0
JS-M-24M24S1,662,experiment,73,↓,right,→,0.1602130001410842,False,44,0
JS-M-24M24S1,663,experiment,81,←,up,↑,0.16003830009140074,False,44,0
JS-M-24M24S1,664,experiment,51,→,down,↓,0.06862769997678697,False,44,0
JS-M-24M24S1,665,experiment,78,→,down,↓,0.17711800010874867,False,44,0
JS-M-24M24S1,666,experiment,98,↓,right,→,0.010239999974146485,False,44,0
JS-M-24M24S1,667,experiment,63,↑,right,→,0.05980759998783469,False,44,0
JS-M-24M24S1,668,experiment,86,↑,down,↓,0.11035440000705421,False,44,0
JS-M-24M24S1,669,experiment,107,↓,down,↓,0.025844299932941794,True,44,0
JS-M-24M24S1,670,experiment,80,→,up,↑,0.1351264000404626,False,44,0
JS-M-24M24S1,671,training,65,↑,down,↓,0.1852833000011742,False,44,0
JS-M-24M24S1,672,training,56,←,up,↑,0.026725600007921457,False,44,0
JS-M-24M24S1,673,experiment,108,↓,down,↓,0.20193940005265176,True,44,0
JS-M-24M24S1,674,experiment,49,↓,up,↑,0.31856649997644126,False,44,0
JS-M-24M24S1,675,experiment,69,→,up,↑,0.2683441999834031,False,44,0
JS-M-24M24S1,676,experiment,50,↑,left,←,0.19354470004327595,False,44,0
JS-M-24M24S1,677,experiment,106,↑,down,↓,0.043426600052043796,False,44,0
JS-M-24M24S1,678,experiment,68,→,right,→,0.1603153001051396,True,44,0
JS-M-24M24S1,679,experiment,103,←,left,←,0.08496719994582236,True,44,0
JS-M-24M24S1,680,experiment,90,↓,down,↓,0.14332530018873513,True,44,0
JS-M-24M24S1,681,experiment,98,↓,left,←,0.22700889990665019,False,44,0
JS-M-24M24S1,682,experiment,56,←,down,↓,0.1016200000885874,False,44,0
JS-M-24M24S1,683,experiment,71,↓,down,↓,0.37579360022209585,True,44,0
JS-M-24M24S1,684,experiment,95,↑,up,↑,0.21880359994247556,True,44,0
JS-M-24M24S1,685,experiment,91,↓,up,↑,0.25190980010665953,False,44,0
JS-M-24M24S1,686,experiment,55,→,left,←,0.2756989998742938,False,44,0
JS-M-24M24S1,687,experiment,87,←,down,↓,0.05192749993875623,False,44,0
JS-M-24M24S1,688,experiment,75,←,down,↓,0.29329459997825325,False,44,0
JS-M-24M24S1,689,experiment,65,↑,up,↑,0.20023509999737144,True,44,0
JS-M-24M24S1,690,experiment,107,↑,up,↑,0.11826980020850897,True,44,0
JS-M-24M24S1,691,experiment,99,→,down,↓,0.2100867999251932,False,44,0
JS-M-24M24S1,692,experiment,105,←,down,↓,0.3183362998533994,False,44,0
JS-M-24M24S1,693,experiment,97,↑,up,↑,0.017684000078588724,True,44,0
JS-M-24M24S1,694,experiment,53,↓,left,←,0.15184659999795258,False,44,0
JS-M-24M24S1,695,experiment,70,←,down,↓,0.13536770013161004,False,44,0
JS-M-24M24S1,696,experiment,89,↑,left,←,0.09350479999557137,False,44,0
JS-M-24M24S1,697,experiment,80,→,down,↓,0.01824330003000796,False,44,0
JS-M-24M24S1,698,experiment,96,←,left,←,0.05890580010600388,True,44,0
JS-M-24M24S1,699,experiment,102,↓,up,↑,0.35888339998200536,False,44,0
JS-M-24M24S1,700,experiment,52,↓,up,↑,0.17679809988476336,False,44,0
JS-M-24M24S1,701,experiment,86,↓,left,←,0.18531289999373257,False,44,0
JS-M-24M24S1,702,experiment,62,↑,left,←,0.1352516000624746,False,44,0
JS-M-24M24S1,703,experiment,51,↓,right,→,0.1353418999351561,False,44,0
JS-M-24M24S1,704,experiment,63,→,right,→,0.05994040006771684,True,44,0
JS-M-24M24S1,705,experiment,101,←,right,→,0.01028669998049736,False,44,0
JS-M-24M24S1,706,experiment,54,↓,left,←,0.06032499996945262,False,44,0
JS-M-24M24S1,707,experiment,81,↑,down,↓,0.16653360007330775,False,44,1
JS-M-24M24S1,708,experiment,76,→,down,↓,0.4009026000276208,False,44,0
JS-M-24M24S1,709,experiment,74,↓,right,→,0.13540230016224086,False,44,0
JS-M-24M24S1,710,experiment,88,←,up,↑,0.25211849994957447,False,44,0
JS-M-24M24S1,711,experiment,85,↑,up,↑,0.026613299967721105,True,44,0
JS-M-24M24S1,712,experiment,60,↓,down,↓,0.21873570000752807,True,44,0
JS-M-24M24S1,713,experiment,73,→,left,←,0.08528890018351376,False,44,0
JS-M-24M24S1,714,experiment,93,↓,left,←,0.06865809997543693,False,44,0
JS-M-24M24S1,715,experiment,79,→,right,→,1.4273651000112295,True,44,0
JS-M-24M24S1,716,experiment,84,↓,right,→,0.7017433000728488,False,44,1
JS-M-24M24S1,717,experiment,94,→,left,←,0.3840254999231547,False,44,1
JS-M-24M24S1,718,experiment,82,→,right,→,0.47589509980753064,True,44,0
JS-M-24M24S1,719,experiment,100,↓,down,↓,1.0820659999735653,True,44,0
JS-M-24M24S1,720,experiment,66,↑,up,↑,0.5683875000104308,True,44,1
JS-M-24M24S1,721,experiment,92,↑,right,→,0.4009644999168813,False,44,1
JS-M-24M24S1,722,experiment,104,↑,left,←,0.3605045999865979,False,44,0
JS-M-24M24S1,723,experiment,64,←,left,←,0.30170470010489225,True,44,0
JS-M-24M24S1,724,experiment,48,→,no_key,no_letter,-1.0,False,44,0
JS-M-24M24S1,725,experiment,78,←,right,→,0.492302100174129,False,44,1
JS-M-24M24S1,726,experiment,77,↓,down,↓,0.4433114998973906,True,44,0
JS-M-24M24S1,727,experiment,67,↑,up,↑,1.1535541000775993,True,44,0
JS-M-24M24S1,728,experiment,59,←,left,←,0.6713813999667764,True,44,1
JS-M-24M24S1,729,experiment,83,↓,right,→,0.5092452999670058,False,44,1
JS-M-24M24S1,730,experiment,72,↓,right,→,0.5092664000112563,False,44,0
JS-M-24M24S1,731,experiment,61,↑,up,↑,0.5544231999665499,True,44,0
JS-M-24M24S1,732,experiment,58,↓,down,↓,0.5014382998924702,True,44,1
JS-M-24M24S1,733,experiment,57,↑,up,↑,0.358853799989447,True,44,0
JS-M-24M24S1,734,training,57,←,up,↑,0.645953900180757,False,44,0
JS-M-24M24S1,735,training,101,↓,right,→,0.3673513999674469,False,44,1
JS-M-24M24S1,736,experiment,74,←,up,↑,0.4436844999436289,False,44,0
JS-M-24M24S1,737,experiment,66,→,right,→,0.40923669980838895,True,44,0
JS-M-24M24S1,738,experiment,99,↓,down,↓,0.4345726000610739,True,44,0
JS-M-24M24S1,739,experiment,80,←,left,←,0.4509111000224948,True,44,0
JS-M-24M24S1,740,experiment,63,→,down,↓,0.691641999874264,False,44,0
JS-M-24M24S1,741,experiment,77,←,right,→,0.6779179000295699,False,44,1
JS-M-24M24S1,742,experiment,88,→,right,→,0.6612356998957694,True,44,1
JS-M-24M24S1,743,experiment,101,←,left,←,0.43365459982305765,True,44,1
JS-M-24M24S1,744,experiment,100,↓,right,→,0.47572980006225407,False,44,0
JS-M-24M24S1,745,experiment,58,↑,right,→,0.42582760006189346,False,44,0
JS-M-24M24S1,746,experiment,98,→,down,↓,0.37569970008917153,False,44,0
JS-M-24M24S1,747,experiment,73,→,right,→,0.47595469979569316,True,44,0
JS-M-24M24S1,748,experiment,83,↑,up,↑,0.5103088999167085,True,44,0
JS-M-24M24S1,749,experiment,102,↑,down,↓,0.4927398001309484,False,44,0
JS-M-24M24S1,750,experiment,62,↓,up,↑,0.3518300000578165,False,44,0
JS-M-24M24S1,751,experiment,60,←,left,←,0.5942261000163853,True,44,0
JS-M-24M24S1,752,experiment,90,↓,down,↓,0.3838716000318527,True,44,1
JS-M-24M24S1,753,experiment,61,↑,down,↓,0.6007083998993039,False,44,0
JS-M-24M24S1,754,experiment,93,→,right,→,0.6167347000446171,True,44,1
JS-M-24M24S1,755,experiment,65,←,right,→,0.3922401999589056,False,44,1
JS-M-24M24S1,756,experiment,57,→,right,→,0.3924985001794994,True,44,0
JS-M-24M24S1,757,experiment,56,↑,right,→,0.326914899982512,False,44,0
JS-M-24M24S1,758,experiment,48,↓,down,↓,0.4173901998437941,True,44,0
JS-M-24M24S1,759,experiment,97,←,left,←,0.5557095999829471,True,44,0
JS-M-24M24S1,760,experiment,89,←,left,←,0.36044410010799766,True,44,1
JS-M-24M24S1,761,experiment,76,←,left,←,0.36059350008144975,True,44,0
JS-M-24M24S1,762,experiment,79,→,right,→,0.38407610007561743,True,44,0
JS-M-24M24S1,763,experiment,71,→,right,→,0.45896849990822375,True,44,0
JS-M-24M24S1,764,experiment,64,↑,left,←,0.13513480010442436,False,44,0
JS-M-24M24S1,765,experiment,84,→,down,↓,0.3675496999640018,False,44,0
JS-M-24M24S1,766,experiment,94,→,up,↑,0.060137500055134296,False,44,0
JS-M-24M24S1,767,experiment,103,↓,right,→,0.3268703001085669,False,44,0
JS-M-24M24S1,768,experiment,92,↑,right,→,0.1434659999795258,False,44,0
JS-M-24M24S1,769,experiment,75,→,right,→,0.2851687998045236,True,44,0
JS-M-24M24S1,770,experiment,55,↓,right,→,0.04358190018683672,False,44,0
JS-M-24M24S1,771,experiment,69,↑,left,←,1.117902599973604,False,44,0
JS-M-24M24S1,772,experiment,78,↓,left,←,0.4422526000998914,False,44,1
JS-M-24M24S1,773,experiment,85,↓,down,↓,0.358815599931404,True,44,0
JS-M-24M24S1,774,experiment,95,↑,right,→,0.7057173000648618,False,44,0
JS-M-24M24S1,775,experiment,86,↑,up,↑,1.2325259000062943,True,44,1
JS-M-24M24S1,776,experiment,52,↓,down,↓,0.5814665001817048,True,44,1
JS-M-24M24S1,777,experiment,50,→,right,→,0.4257209999486804,True,44,1
JS-M-24M24S1,778,experiment,87,→,up,↑,0.06861230009235442,False,44,0
JS-M-24M24S1,779,experiment,51,↑,right,→,0.4673776999115944,False,44,0
JS-M-24M24S1,780,experiment,54,←,left,←,0.09350170008838177,True,44,0
JS-M-24M24S1,781,experiment,108,↑,down,↓,0.018458700040355325,False,44,0
JS-M-24M24S1,782,experiment,68,←,down,↓,0.16829849989153445,False,44,0
JS-M-24M24S1,783,experiment,105,←,down,↓,0.5165453001391143,False,44,0
JS-M-24M24S1,784,experiment,91,↓,up,↑,0.15993269998580217,False,44,0
JS-M-24M24S1,785,experiment,96,←,down,↓,0.47551080002449453,False,44,0
JS-M-24M24S1,786,experiment,104,←,down,↓,0.20215889997780323,False,44,0
JS-M-24M24S1,787,experiment,49,→,up,↑,0.07712300005368888,False,44,0
JS-M-24M24S1,788,experiment,107,→,right,→,0.28552150004543364,True,44,0
JS-M-24M24S1,789,experiment,67,↓,up,↑,0.317237300099805,False,44,0
JS-M-24M24S1,790,experiment,59,→,down,↓,0.17743589985184371,False,44,0
JS-M-24M24S1,791,experiment,72,←,down,↓,0.5009023000020534,False,44,0
JS-M-24M24S1,792,experiment,53,↓,left,←,0.14349919999949634,False,44,0
JS-M-24M24S1,793,experiment,106,↓,down,↓,0.26890450017526746,True,44,0
JS-M-24M24S1,794,experiment,70,↓,left,←,0.08507800009101629,False,44,0
JS-M-24M24S1,795,experiment,81,→,up,↑,0.31010490003973246,False,44,0
JS-M-24M24S1,796,experiment,82,↓,up,↑,0.026776200160384178,False,44,0
JS-M-24M24S1,797,training,92,→,left,←,0.1437115001026541,False,44,0
JS-M-24M24S1,798,training,93,↓,left,←,0.06858179997652769,False,44,0
JS-M-24M24S1,799,experiment,61,↑,right,→,0.16848120000213385,False,44,0
JS-M-24M24S1,800,experiment,49,↓,right,→,0.24352349992841482,False,44,0
JS-M-24M24S1,801,experiment,77,←,up,↑,0.293594199931249,False,44,0
JS-M-24M24S1,802,experiment,87,←,right,→,0.060337600065395236,False,44,0
JS-M-24M24S1,803,experiment,97,↓,down,↓,0.02677829982712865,True,44,0
JS-M-24M24S1,804,experiment,65,→,down,↓,0.46008059987798333,False,44,0
JS-M-24M24S1,805,experiment,73,↓,down,↓,0.8876094999723136,True,44,0
JS-M-24M24S1,806,experiment,84,←,down,↓,0.23540770006366074,False,44,1
JS-M-24M24S1,807,experiment,59,←,right,→,0.06895560002885759,False,44,0
JS-M-24M24S1,808,experiment,105,↑,down,↓,0.39226160012185574,False,44,0
JS-M-24M24S1,809,experiment,67,↓,down,↓,0.21869050012901425,True,44,0
JS-M-24M24S1,810,experiment,81,↓,right,→,0.1684725999366492,False,44,0
JS-M-24M24S1,811,experiment,80,↓,down,↓,0.06016670004464686,True,44,0
JS-M-24M24S1,812,experiment,99,←,down,↓,0.32688899990171194,False,44,0
JS-M-24M24S1,813,experiment,91,←,down,↓,0.010365699883550406,False,44,0
JS-M-24M24S1,814,experiment,104,↓,up,↑,0.026657999958842993,False,44,0
JS-M-24M24S1,815,experiment,101,→,right,→,0.24339399999007583,True,44,0
JS-M-24M24S1,816,experiment,55,↑,up,↑,0.1017930000089109,True,44,0
JS-M-24M24S1,817,experiment,68,↑,up,↑,0.29343850002624094,True,44,0
JS-M-24M24S1,818,experiment,58,↓,down,↓,0.4016041997820139,True,44,0
JS-M-24M24S1,819,experiment,74,←,right,→,0.251858799951151,False,44,0
JS-M-24M24S1,820,experiment,106,↑,down,↓,0.026590799912810326,False,44,0
JS-M-24M24S1,821,experiment,79,↓,right,→,0.20171949989162385,False,44,0
JS-M-24M24S1,822,experiment,78,←,down,↓,0.6828827999997884,False,44,0
JS-M-24M24S1,823,experiment,48,↓,up,↑,0.6310070001054555,False,44,1
JS-M-24M24S1,824,experiment,93,←,right,→,0.001769899856299162,False,44,1
JS-M-24M24S1,825,experiment,92,↑,right,→,0.043536300072446465,False,44,0
JS-M-24M24S1,826,experiment,86,→,right,→,0.4504760999698192,True,44,0
JS-M-24M24S1,827,experiment,72,→,right,→,0.2351631000638008,True,44,0
JS-M-24M24S1,828,experiment,90,←,down,↓,0.21850169985555112,False,44,0
JS-M-24M24S1,829,experiment,56,↓,down,↓,0.051636199932545424,True,44,0
JS-M-24M24S1,830,experiment,100,←,right,→,0.21022860007360578,False,44,0
JS-M-24M24S1,831,experiment,75,→,down,↓,0.11019060015678406,False,44,0
JS-M-24M24S1,832,experiment,108,←,right,→,0.28531669988296926,False,44,0
JS-M-24M24S1,833,experiment,88,↓,left,←,0.2519654999487102,False,44,0
JS-M-24M24S1,834,experiment,69,↓,down,↓,0.08536179992370307,True,44,0
JS-M-24M24S1,835,experiment,54,←,right,→,0.0018126999493688345,False,44,0
JS-M-24M24S1,836,experiment,50,↓,right,→,0.1184248998761177,False,44,0
JS-M-24M24S1,837,experiment,95,↑,down,↓,0.5357669000513852,False,44,0
JS-M-24M24S1,838,experiment,85,←,left,←,0.12683189986273646,True,44,0
JS-M-24M24S1,839,experiment,96,→,down,↓,0.05142190004698932,False,44,0
JS-M-24M24S1,840,experiment,52,←,right,→,1.1422156000044197,False,44,0
JS-M-24M24S1,841,experiment,89,↓,right,→,0.3183354998473078,False,44,1
JS-M-24M24S1,842,experiment,60,↓,right,→,0.40884290006943047,False,44,0
JS-M-24M24S1,843,experiment,57,←,right,→,0.4849610000383109,False,44,0
JS-M-24M24S1,844,experiment,103,←,down,↓,0.40086860000155866,False,44,0
JS-M-24M24S1,845,experiment,71,→,up,↑,0.04348809993825853,False,44,0
JS-M-24M24S1,846,experiment,64,←,down,↓,0.31710169999860227,False,44,0
JS-M-24M24S1,847,experiment,62,→,left,←,0.18531990004703403,False,44,0
JS-M-24M24S1,848,experiment,82,→,left,←,0.06839979998767376,False,44,0
JS-M-24M24S1,849,experiment,70,→,down,↓,0.35172199993394315,False,44,0
JS-M-24M24S1,850,experiment,102,↑,down,↓,0.20180910010822117,False,44,0
JS-M-24M24S1,851,experiment,66,↑,down,↓,0.13510389998555183,False,44,0
JS-M-24M24S1,852,experiment,76,↓,right,→,0.09364299988374114,False,44,0
JS-M-24M24S1,853,experiment,53,←,right,→,0.4334117998369038,False,44,0
JS-M-24M24S1,854,experiment,107,↑,right,→,0.5925204001832753,False,44,0
JS-M-24M24S1,855,experiment,98,→,down,↓,0.7756358999758959,False,44,1
JS-M-24M24S1,856,experiment,83,↓,up,↑,0.3757903999648988,False,44,1
JS-M-24M24S1,857,experiment,51,→,right,→,0.14176029991358519,True,44,0
JS-M-24M24S1,858,experiment,63,←,right,→,0.3019201001152396,False,44,0
JS-M-24M24S1,859,experiment,94,↓,up,↑,0.02738610003143549,False,44,0
JS-M-24M24S1,860,training,54,↑,left,←,0.09341660002246499,False,44,0
JS-M-24M24S1,861,training,63,→,left,←,0.06799859995953739,False,44,0
JS-M-24M24S1,862,experiment,51,←,right,→,0.14357710001058877,False,44,0
JS-M-24M24S1,863,experiment,76,↓,up,↑,0.010057700099423528,False,44,0
JS-M-24M24S1,864,experiment,75,←,left,←,0.10196850006468594,True,44,0
JS-M-24M24S1,865,experiment,52,→,down,↓,0.13530620001256466,False,44,0
JS-M-24M24S1,866,experiment,63,←,up,↑,0.15165259991772473,False,44,0
JS-M-24M24S1,867,experiment,82,←,left,←,0.051791900070384145,True,44,0
JS-M-24M24S1,868,experiment,108,↓,right,→,0.5497439000755548,False,44,0
JS-M-24M24S1,869,experiment,95,→,right,→,0.02688080002553761,True,44,1
JS-M-24M24S1,870,experiment,105,→,down,↓,0.302307500038296,False,44,0
JS-M-24M24S1,871,experiment,97,←,right,→,0.11015429999679327,False,44,0
JS-M-24M24S1,872,experiment,72,→,down,↓,0.317955199861899,False,44,0
JS-M-24M24S1,873,experiment,48,↓,up,↑,0.17664710013195872,False,44,0
JS-M-24M24S1,874,experiment,56,↑,down,↓,0.3016178999096155,False,44,0
JS-M-24M24S1,875,experiment,79,↓,left,←,0.10185940004885197,False,44,0
JS-M-24M24S1,876,experiment,92,↓,down,↓,0.02653679996728897,True,44,0
JS-M-24M24S1,877,experiment,77,→,up,↑,0.1686884998343885,False,44,0
JS-M-24M24S1,878,experiment,91,↓,left,←,0.06858339998871088,False,44,0
JS-M-24M24S1,879,experiment,104,→,right,→,0.06843730015680194,True,44,0
JS-M-24M24S1,880,experiment,71,←,left,←,0.21851269993931055,True,44,0
JS-M-24M24S1,881,experiment,98,←,right,→,0.28493500011973083,False,44,0
JS-M-24M24S1,882,experiment,90,↓,up,↑,0.36732079996727407,False,44,0
JS-M-24M24S1,883,experiment,106,←,down,↓,0.1935840998776257,False,44,0
JS-M-24M24S1,884,experiment,59,↓,right,→,0.17671369994059205,False,44,0
JS-M-24M24S1,885,experiment,101,↓,down,↓,0.45923289982602,True,44,0
JS-M-24M24S1,886,experiment,69,←,right,→,0.14368310011923313,False,44,0
JS-M-24M24S1,887,experiment,66,↓,down,↓,0.05074619990773499,True,44,0
JS-M-24M24S1,888,experiment,93,↓,left,←,0.3003389001823962,False,44,0
JS-M-24M24S1,889,experiment,84,→,right,→,0.14346830011345446,True,44,0
JS-M-24M24S1,890,experiment,54,→,right,→,0.3518777000717819,True,44,0
JS-M-24M24S1,891,experiment,65,↓,right,→,0.31035230006091297,False,44,0
JS-M-24M24S1,892,experiment,55,↓,left,←,0.2020215999800712,False,44,0
JS-M-24M24S1,893,experiment,100,↑,up,↑,0.5166436999570578,True,44,0
JS-M-24M24S1,894,experiment,96,←,left,←,0.3834448999259621,True,44,0
JS-M-24M24S1,895,experiment,103,←,left,←,0.29226580006070435,True,44,0
JS-M-24M24S1,896,experiment,86,←,right,→,0.6300192999187857,False,44,0
JS-M-24M24S1,897,experiment,102,←,right,→,0.30988479987718165,False,44,1
JS-M-24M24S1,898,experiment,87,↓,left,←,0.1933342998381704,False,44,0
JS-M-24M24S1,899,experiment,88,←,right,→,0.3434989999514073,False,44,0
JS-M-24M24S1,900,experiment,68,↓,left,←,0.268473899923265,False,44,0
JS-M-24M24S1,901,experiment,73,↑,down,↓,0.26007910002954304,False,44,0
JS-M-24M24S1,902,experiment,62,↑,up,↑,0.2850026998203248,True,44,0
JS-M-24M24S1,903,experiment,83,→,down,↓,0.23536840011365712,False,44,0
JS-M-24M24S1,904,experiment,99,↓,right,→,0.010019800160080194,False,44,0
JS-M-24M24S1,905,experiment,64,↑,right,→,0.2768043000251055,False,44,0
JS-M-24M24S1,906,experiment,70,→,down,↓,1.6294494001194835,False,44,0
JS-M-24M24S1,907,experiment,81,↑,up,↑,0.37633760017342865,True,44,1
JS-M-24M24S1,908,experiment,85,→,right,→,0.1113211999181658,True,44,0
JS-M-24M24S1,909,experiment,94,↑,down,↓,0.798030000180006,False,44,0
JS-M-24M24S1,910,experiment,60,↓,up,↑,0.1187126999720931,False,44,1
JS-M-24M24S1,911,experiment,89,↓,up,↑,0.07648129994049668,False,44,0
JS-M-24M24S1,912,experiment,67,↑,left,←,0.010169500019401312,False,44,0
JS-M-24M24S1,913,experiment,78,↑,down,↓,0.26781639992259443,False,44,0
JS-M-24M24S1,914,experiment,80,↓,left,←,0.2684492999687791,False,44,0
JS-M-24M24S1,915,experiment,49,→,right,→,0.035140000050887465,True,44,0
JS-M-24M24S1,916,experiment,107,↑,down,↓,0.09374330006539822,False,44,0
JS-M-24M24S1,917,experiment,58,↓,left,←,0.09229349996894598,False,44,0
JS-M-24M24S1,918,experiment,74,←,up,↑,0.23514249990694225,False,44,0
JS-M-24M24S1,919,experiment,61,↓,down,↓,0.2687834999524057,True,44,0
JS-M-24M24S1,920,experiment,57,↑,up,↑,0.22727529983967543,True,44,0
JS-M-24M24S1,921,experiment,53,→,right,→,0.08545420016162097,True,44,0
JS-M-24M24S1,922,experiment,50,←,down,↓,0.1600784999318421,False,44,0
JS-M-24M24S1,923,training,99,↓,left,←,0.28518979996442795,False,44,0
JS-M-24M24S1,924,training,89,↓,down,↓,0.8385139999445528,True,44,0
JS-M-24M24S1,925,experiment,57,↑,right,→,0.05147810000926256,False,44,1
JS-M-24M24S1,926,experiment,105,↑,right,→,0.1519395001232624,False,44,0
JS-M-24M24S1,927,experiment,101,↑,up,↑,0.08522669994272292,True,44,0
JS-M-24M24S1,928,experiment,53,↓,left,←,0.08533830009400845,False,44,0
JS-M-24M24S1,929,experiment,64,←,right,→,0.5942842001095414,False,44,0
JS-M-24M24S1,930,experiment,104,↑,right,→,0.21865619998425245,False,44,1
JS-M-24M24S1,931,experiment,55,→,right,→,0.425733300158754,True,44,0
JS-M-24M24S1,932,experiment,74,↓,right,→,0.26845100009813905,False,44,0
JS-M-24M24S1,933,experiment,103,↑,up,↑,0.5551766999997199,True,44,0
JS-M-24M24S1,934,experiment,77,↑,up,↑,0.40058439993299544,True,44,1
JS-M-24M24S1,935,experiment,100,→,right,→,0.4177421999629587,True,44,0
JS-M-24M24S1,936,experiment,69,↓,down,↓,0.41745910001918674,True,44,0
JS-M-24M24S1,937,experiment,78,↓,right,→,0.35886320006102324,False,44,0
JS-M-24M24S1,938,experiment,93,←,left,←,0.2016414999961853,True,44,0
JS-M-24M24S1,939,experiment,56,↑,down,↓,0.001811400055885315,False,44,0
JS-M-24M24S1,940,experiment,92,↑,left,←,0.23495059995912015,False,44,0
JS-M-24M24S1,941,experiment,84,↓,right,→,0.04363480000756681,False,44,0
JS-M-24M24S1,942,experiment,73,↑,up,↑,0.3102745998185128,True,44,0
JS-M-24M24S1,943,experiment,86,↑,right,→,0.03509590006433427,False,44,0
JS-M-24M24S1,944,experiment,63,↑,left,←,0.135948299895972,False,44,0
JS-M-24M24S1,945,experiment,96,↓,right,→,0.04318429995328188,False,44,0
JS-M-24M24S1,946,experiment,106,↓,up,↑,0.018338199937716126,False,44,0
JS-M-24M24S1,947,experiment,71,←,up,↑,0.0017623999156057835,False,44,0
JS-M-24M24S1,948,experiment,59,←,right,→,0.0768941999413073,False,44,0
JS-M-24M24S1,949,experiment,50,↓,left,←,0.084396299906075,False,44,0
JS-M-24M24S1,950,experiment,89,↓,down,↓,0.5367211999837309,True,44,0
JS-M-24M24S1,951,experiment,90,↓,down,↓,0.2103305000346154,True,44,0
JS-M-24M24S1,952,experiment,67,→,left,←,0.09336960013024509,False,44,0
JS-M-24M24S1,953,experiment,48,↑,up,↑,0.40030710003338754,True,44,0
JS-M-24M24S1,954,experiment,51,←,left,←,0.3094961999449879,True,44,0
JS-M-24M24S1,955,experiment,54,→,up,↑,0.49279049993492663,False,44,0
JS-M-24M24S1,956,experiment,66,↑,down,↓,0.6275902001652867,False,44,0
JS-M-24M24S1,957,experiment,62,→,up,↑,0.37549589993432164,False,44,1
JS-M-24M24S1,958,experiment,107,→,down,↓,0.11876640003174543,False,44,0
JS-M-24M24S1,959,experiment,79,→,up,↑,0.1935033998452127,False,44,0
JS-M-24M24S1,960,experiment,108,←,down,↓,0.8939206001814455,False,44,0
JS-M-24M24S1,961,experiment,65,←,up,↑,0.35180020006373525,False,44,1
JS-M-24M24S1,962,experiment,91,↑,left,←,0.351698299869895,False,44,0
JS-M-24M24S1,963,experiment,52,←,left,←,0.18521229992620647,True,44,0
JS-M-24M24S1,964,experiment,61,→,right,→,0.4597261000890285,True,44,0
JS-M-24M24S1,965,experiment,97,→,right,→,0.35879000020213425,True,44,0
JS-M-24M24S1,966,experiment,49,→,right,→,0.45905850012786686,True,44,0
JS-M-24M24S1,967,experiment,68,↑,left,←,0.16008509998209774,False,44,0
JS-M-24M24S1,968,experiment,94,↑,right,→,0.1919696000404656,False,44,0
JS-M-24M24S1,969,experiment,81,↓,right,→,0.2933438001200557,False,44,0
JS-M-24M24S1,970,experiment,82,←,left,←,0.12690610019490123,True,44,0
JS-M-24M24S1,971,experiment,72,→,down,↓,0.2684883000329137,False,44,0
JS-M-24M24S1,972,experiment,85,↓,up,↑,0.252525300020352,False,44,0
JS-M-24M24S1,973,experiment,83,↑,down,↓,0.02673959988169372,False,44,0
JS-M-24M24S1,974,experiment,87,←,down,↓,0.1251150998286903,False,44,0
JS-M-24M24S1,975,experiment,60,→,right,→,0.07655860017985106,True,44,0
JS-M-24M24S1,976,experiment,70,↓,right,→,0.9954131999984384,False,44,0
JS-M-24M24S1,977,experiment,102,↑,down,↓,0.13563839998096228,False,44,1
JS-M-24M24S1,978,experiment,80,↑,up,↑,0.11041909991763532,True,44,0
JS-M-24M24S1,979,experiment,75,↓,left,←,0.3255243001040071,False,44,0
JS-M-24M24S1,980,experiment,99,↓,right,→,0.12671949993818998,False,44,0
JS-M-24M24S1,981,experiment,88,←,right,→,1.4678231000434607,False,44,0
JS-M-24M24S1,982,experiment,95,→,right,→,0.4172414999920875,True,44,1
JS-M-24M24S1,983,experiment,58,→,down,↓,0.03445759997703135,False,44,0
JS-M-24M24S1,984,experiment,98,→,down,↓,0.0018117001745849848,False,44,0
JS-M-24M24S1,985,experiment,76,→,down,↓,0.11018349998630583,False,44,0
JS-M-24M24S1,986,training,71,←,down,↓,0.20183320017531514,False,44,0
JS-M-24M24S1,987,training,61,↑,down,↓,0.009314500028267503,False,44,0
JS-M-24M24S1,988,experiment,96,→,down,↓,0.2765913000330329,False,44,0
JS-M-24M24S1,989,experiment,85,↓,left,←,0.24326939997263253,False,44,0
JS-M-24M24S1,990,experiment,72,↓,down,↓,0.16684040008112788,True,44,0
JS-M-24M24S1,991,experiment,58,↑,down,↓,0.0018246001563966274,False,44,0
JS-M-24M24S1,992,experiment,86,↑,up,↑,0.1767188000958413,True,44,0
JS-M-24M24S1,993,experiment,75,↓,left,←,0.05993660003878176,False,44,0
JS-M-24M24S1,994,experiment,74,→,down,↓,0.8963049999438226,False,44,0
JS-M-24M24S1,995,experiment,51,←,right,→,0.1269099998753518,False,44,1
JS-M-24M24S1,996,experiment,81,↑,right,→,0.06008110009133816,False,44,0
JS-M-24M24S1,997,experiment,62,←,down,↓,0.6217428001109511,False,44,0
JS-M-24M24S1,998,experiment,55,↓,down,↓,0.36731360014528036,True,44,1
JS-M-24M24S1,999,experiment,49,←,down,↓,0.41725860000588,False,44,0
JS-M-24M24S1,1000,experiment,91,↑,up,↑,0.0931938998401165,True,44,0
JS-M-24M24S1,1001,experiment,66,→,down,↓,0.5737940000835806,False,44,0
JS-M-24M24S1,1002,experiment,82,←,up,↑,0.6909625998232514,False,44,1
JS-M-24M24S1,1003,experiment,87,→,down,↓,0.16015109978616238,False,44,1
JS-M-24M24S1,1004,experiment,98,↑,down,↓,0.11014549992978573,False,44,0
JS-M-24M24S1,1005,experiment,94,→,up,↑,0.5409584001172334,False,44,0
JS-M-24M24S1,1006,experiment,80,↓,left,←,0.1268124000634998,False,44,1
JS-M-24M24S1,1007,experiment,83,←,down,↓,1.1853477000258863,False,44,0
JS-M-24M24S1,1008,experiment,53,←,left,←,0.18525340012274683,True,44,1
JS-M-24M24S1,1009,experiment,64,↑,right,→,0.018261099932715297,False,44,0
JS-M-24M24S1,1010,experiment,89,↓,right,→,0.19356389995664358,False,44,0
JS-M-24M24S1,1011,experiment,99,↓,right,→,0.2020640999544412,False,44,0
JS-M-24M24S1,1012,experiment,108,→,left,←,0.15145740006119013,False,44,0
JS-M-24M24S1,1013,experiment,79,↑,right,→,0.0349908999633044,False,44,0
JS-M-24M24S1,1014,experiment,76,←,left,←,0.10165419988334179,True,44,0
JS-M-24M24S1,1015,experiment,71,←,left,←,0.28576950007118285,True,44,0
JS-M-24M24S1,1016,experiment,104,↓,left,←,0.0936093998607248,False,44,0
JS-M-24M24S1,1017,experiment,70,↓,down,↓,0.21086749993264675,True,44,0
JS-M-24M24S1,1018,experiment,84,↑,down,↓,0.05206939997151494,False,44,0
JS-M-24M24S1,1019,experiment,78,↑,left,←,0.11029990017414093,False,44,0
JS-M-24M24S1,1020,experiment,107,↑,down,↓,0.026749799959361553,False,44,0
JS-M-24M24S1,1021,experiment,95,↑,right,→,0.15199210005812347,False,44,0
JS-M-24M24S1,1022,experiment,54,↓,left,←,0.41699380008503795,False,44,0
JS-M-24M24S1,1023,experiment,67,→,right,→,0.11013070004992187,True,44,0
JS-M-24M24S1,1024,experiment,92,→,left,←,0.11002130014821887,False,44,0
JS-M-24M24S1,1025,experiment,63,→,left,←,0.8615003998856992,False,44,0
JS-M-24M24S1,1026,experiment,61,←,right,→,0.1753809000365436,False,44,1
JS-M-24M24S1,1027,experiment,102,←,left,←,0.060446699848398566,True,44,0
JS-M-24M24S1,1028,experiment,52,←,right,→,0.04316759994253516,False,44,0
JS-M-24M24S1,1029,experiment,100,↑,right,→,0.11865460011176765,False,44,0
JS-M-24M24S1,1030,experiment,59,→,right,→,0.01019390020519495,True,44,0
JS-M-24M24S1,1031,experiment,68,↑,no_key,no_letter,-1.0,False,44,0
JS-M-24M24S1,1032,experiment,65,↑,down,↓,0.06846920005045831,False,44,1
JS-M-24M24S1,1033,experiment,56,→,down,↓,0.0018221000209450722,False,44,0
JS-M-24M24S1,1034,experiment,97,←,no_key,no_letter,-1.0,False,44,0
JS-M-24M24S1,1035,experiment,77,↑,up,↑,0.025313900085166097,True,44,1
JS-M-24M24S1,1036,experiment,48,←,left,←,0.026778799947351217,True,44,0
JS-M-24M24S1,1037,experiment,57,↑,right,→,0.28521499992348254,False,44,0
JS-M-24M24S1,1038,experiment,106,←,left,←,0.11842690012417734,True,44,0
JS-M-24M24S1,1039,experiment,93,↓,left,←,0.15209070011042058,False,44,0
JS-M-24M24S1,1040,experiment,90,←,right,→,0.06849159998819232,False,44,0
JS-M-24M24S1,1041,experiment,105,←,down,↓,0.06010269979014993,False,44,0
JS-M-24M24S1,1042,experiment,50,↓,right,→,0.1850716001354158,False,44,0
JS-M-24M24S1,1043,experiment,60,↓,down,↓,0.09356210008263588,True,44,0
JS-M-24M24S1,1044,experiment,101,↑,left,←,0.1518403000663966,False,44,0
JS-M-24M24S1,1045,experiment,73,↑,right,→,0.2603142000734806,False,44,0
JS-M-24M24S1,1046,experiment,103,↓,up,↑,0.6940552999731153,False,44,0
JS-M-24M24S1,1047,experiment,88,↑,up,↑,0.05836830008774996,True,44,1
JS-M-24M24S1,1048,experiment,69,↑,right,→,0.26877729990519583,False,44,0
JS-M-24M24S1,1049,training,77,←,up,↑,0.001863699872046709,False,44,0
JS-M-24M24S1,1050,training,81,↓,down,↓,0.06843250012025237,True,44,0
JS-M-24M24S1,1051,experiment,95,↓,left,←,0.12753889989107847,False,44,0
JS-M-24M24S1,1052,experiment,73,→,right,→,0.058323799865320325,True,44,0
JS-M-24M24S1,1053,experiment,104,→,down,↓,0.11022139992564917,False,44,0
JS-M-24M24S1,1054,experiment,91,←,up,↑,0.10163810010999441,False,44,0
JS-M-24M24S1,1055,experiment,78,↓,left,←,0.13412180007435381,False,44,0
JS-M-24M24S1,1056,experiment,93,←,right,→,0.39201670000329614,False,44,0
JS-M-24M24S1,1057,experiment,108,↓,right,→,0.12710699997842312,False,44,0
JS-M-24M24S1,1058,experiment,100,←,up,↑,0.11807550000958145,False,44,0
JS-M-24M24S1,1059,experiment,89,↑,right,→,0.16079230001196265,False,44,0
JS-M-24M24S1,1060,experiment,87,↑,right,→,0.2270499998703599,False,44,0
JS-M-24M24S1,1061,experiment,76,→,left,←,1.682008400093764,False,44,0
JS-M-24M24S1,1062,experiment,55,↑,right,→,0.3350558001548052,False,44,1
JS-M-24M24S1,1063,experiment,69,←,up,↑,0.3099623001180589,False,44,0
JS-M-24M24S1,1064,experiment,71,↓,left,←,0.10174260009080172,False,44,0
JS-M-24M24S1,1065,experiment,56,↓,down,↓,0.9260009999852628,True,44,0
JS-M-24M24S1,1066,experiment,72,↓,right,→,0.29309709998779,False,44,1
JS-M-24M24S1,1067,experiment,75,→,down,↓,0.19325489993207157,False,44,0
JS-M-24M24S1,1068,experiment,66,↓,left,←,0.0017794999293982983,False,44,0
JS-M-24M24S1,1069,experiment,63,←,down,↓,0.26851300010457635,False,44,0
JS-M-24M24S1,1070,experiment,79,←,up,↑,0.09325899998657405,False,44,0
JS-M-24M24S1,1071,experiment,98,↑,down,↓,0.026875799987465143,False,44,0
JS-M-24M24S1,1072,experiment,106,→,right,→,0.31845449982210994,True,44,0
JS-M-24M24S1,1073,experiment,68,↑,right,→,0.23527010018005967,False,44,0
JS-M-24M24S1,1074,experiment,96,←,right,→,0.11830410012044013,False,44,0
JS-M-24M24S1,1075,experiment,86,←,up,↑,0.07677090005017817,False,44,0
JS-M-24M24S1,1076,experiment,101,←,up,↑,0.0768087999895215,False,44,0
JS-M-24M24S1,1077,experiment,107,←,down,↓,0.09349150001071393,False,44,0
JS-M-24M24S1,1078,experiment,90,↑,right,→,0.15145929995924234,False,44,0
JS-M-24M24S1,1079,experiment,61,↑,down,↓,0.24354650010354817,False,44,0
JS-M-24M24S1,1080,experiment,103,→,down,↓,0.060119800036773086,False,44,0
JS-M-24M24S1,1081,experiment,49,→,down,↓,0.3352761999703944,False,44,0
JS-M-24M24S1,1082,experiment,74,↓,right,→,0.5090578000526875,False,44,0
JS-M-24M24S1,1083,experiment,60,↑,up,↑,0.02694180002436042,True,44,0
JS-M-24M24S1,1084,experiment,67,↓,down,↓,0.3265939000993967,True,44,0
JS-M-24M24S1,1085,experiment,94,→,down,↓,0.24349660007283092,False,44,0
JS-M-24M24S1,1086,experiment,92,↑,down,↓,0.5603044999297708,False,44,0
JS-M-24M24S1,1087,experiment,85,↓,right,→,0.29228729987517,False,44,1
JS-M-24M24S1,1088,experiment,99,↑,left,←,0.8765593999996781,False,44,0
JS-M-24M24S1,1089,experiment,81,↓,left,←,0.9742821999825537,False,44,1
JS-M-24M24S1,1090,experiment,77,↓,down,↓,0.11751209991052747,True,44,1
JS-M-24M24S1,1091,experiment,59,→,right,→,0.1600112000014633,True,44,0
JS-M-24M24S1,1092,experiment,52,←,left,←,0.1272124000824988,True,44,0
JS-M-24M24S1,1093,experiment,70,↓,right,→,0.34353579999879,False,44,0
JS-M-24M24S1,1094,experiment,84,↑,up,↑,0.2934874000493437,True,44,0
JS-M-24M24S1,1095,experiment,48,↑,right,→,0.26043449994176626,False,44,0
JS-M-24M24S1,1096,experiment,80,↓,right,→,0.2934898999519646,False,44,0
JS-M-24M24S1,1097,experiment,65,↑,down,↓,0.2768110998440534,False,44,0
JS-M-24M24S1,1098,experiment,88,←,up,↑,0.010020599933341146,False,44,1
JS-M-24M24S1,1099,experiment,97,←,down,↓,0.8652814000379294,False,44,0
JS-M-24M24S1,1100,experiment,54,←,right,→,0.41755610005930066,False,44,1
JS-M-24M24S1,1101,experiment,53,←,right,→,0.335127400001511,False,44,0
JS-M-24M24S1,1102,experiment,82,→,down,↓,0.367531499825418,False,44,0
JS-M-24M24S1,1103,experiment,50,↑,right,→,0.21831039991229773,False,44,0
JS-M-24M24S1,1104,experiment,58,←,down,↓,0.18532890011556447,False,44,0
JS-M-24M24S1,1105,experiment,51,↓,down,↓,0.2768421000801027,True,44,0
JS-M-24M24S1,1106,experiment,62,→,left,←,-0.005459500011056662,False,44,0
JS-M-24M24S1,1107,experiment,102,↑,down,↓,0.16863489989191294,False,44,0
JS-M-24M24S1,1108,experiment,64,←,right,→,0.04349129996262491,False,44,0
JS-M-24M24S1,1109,experiment,57,←,right,→,0.135002400027588,False,44,0
JS-M-24M24S1,1110,experiment,83,→,right,→,0.1856229999102652,True,44,0
JS-M-24M24S1,1111,experiment,105,↓,right,→,0.14363830001093447,False,44,0
JS-M-24M24S1,1112,training,84,←,left,←,0.06856940011493862,True,44,0
JS-M-24M24S1,1113,training,87,↑,down,↓,0.16848429990932345,False,44,0
JS-M-24M24S1,1114,experiment,56,→,down,↓,0.06033240002579987,False,44,0
JS-M-24M24S1,1115,experiment,70,↓,down,↓,0.12519990000873804,True,44,0
JS-M-24M24S1,1116,experiment,106,↓,left,←,0.0005047000013291836,False,44,0
JS-M-24M24S1,1117,experiment,57,→,down,↓,0.14381799986585975,False,44,0
JS-M-24M24S1,1118,experiment,76,↑,down,↓,0.08492870000191033,False,44,0
JS-M-24M24S1,1119,experiment,95,↓,up,↑,0.30997640010900795,False,44,0
JS-M-24M24S1,1120,experiment,79,↑,down,↓,0.1440679000224918,False,44,0
JS-M-24M24S1,1121,experiment,91,↑,right,→,0.13520050002261996,False,44,0
JS-M-24M24S1,1122,experiment,51,↑,right,→,0.12700710003264248,False,44,0
JS-M-24M24S1,1123,experiment,77,→,up,↑,0.227170699974522,False,44,0
JS-M-24M24S1,1124,experiment,60,←,down,↓,0.126863099867478,False,44,0
JS-M-24M24S1,1125,experiment,104,↑,down,↓,0.01826319983229041,False,44,0
JS-M-24M24S1,1126,experiment,59,↓,up,↑,0.03515809983946383,False,44,0
JS-M-24M24S1,1127,experiment,49,←,left,←,0.4762753997929394,True,44,0
JS-M-24M24S1,1128,experiment,58,→,left,←,0.2105047998484224,False,44,0
JS-M-24M24S1,1129,experiment,80,↓,right,→,0.45929690008051693,False,44,0
JS-M-24M24S1,1130,experiment,88,←,down,↓,0.36738319997675717,False,44,0
JS-M-24M24S1,1131,experiment,74,↓,up,↑,0.07701679994352162,False,44,0
JS-M-24M24S1,1132,experiment,101,←,right,→,0.06871220003813505,False,44,0
JS-M-24M24S1,1133,experiment,48,←,down,↓,0.16031070007011294,False,44,0
JS-M-24M24S1,1134,experiment,68,↑,left,←,0.10181439993903041,False,44,0
JS-M-24M24S1,1135,experiment,54,←,left,←,0.010231199907138944,True,44,0
JS-M-24M24S1,1136,experiment,103,↓,down,↓,0.0017812000587582588,True,44,0
JS-M-24M24S1,1137,experiment,89,→,left,←,0.02659319993108511,False,44,0
JS-M-24M24S1,1138,experiment,65,↑,up,↑,0.22690030001103878,True,44,0
JS-M-24M24S1,1139,experiment,105,↑,up,↑,0.027049700031057,True,44,0
JS-M-24M24S1,1140,experiment,78,↑,left,←,0.16004789993166924,False,44,0
JS-M-24M24S1,1141,experiment,73,→,right,→,0.9129131999798119,True,44,0
JS-M-24M24S1,1142,experiment,66,→,down,↓,0.5010189998429269,False,44,1
JS-M-24M24S1,1143,experiment,53,←,up,↑,0.25198059994727373,False,44,0
JS-M-24M24S1,1144,experiment,61,↓,up,↑,0.434453799854964,False,44,0
JS-M-24M24S1,1145,experiment,98,↓,right,→,0.10163670009933412,False,44,0
JS-M-24M24S1,1146,experiment,85,↓,up,↑,1.35902989981696,False,44,0
JS-M-24M24S1,1147,experiment,67,↑,left,←,0.343689400004223,False,44,1
JS-M-24M24S1,1148,experiment,62,↓,up,↑,0.21827680012211204,False,44,0
JS-M-24M24S1,1149,experiment,63,→,down,↓,0.06015810021199286,False,44,0
JS-M-24M24S1,1150,experiment,102,↑,left,←,0.7854329000692815,False,44,0
JS-M-24M24S1,1151,experiment,52,←,up,↑,0.5608324999921024,False,44,1
JS-M-24M24S1,1152,experiment,107,↓,up,↑,0.068762700073421,False,44,1
JS-M-24M24S1,1153,experiment,87,←,down,↓,0.1352144000120461,False,44,0
JS-M-24M24S1,1154,experiment,64,←,up,↑,0.05181700014509261,False,44,0
JS-M-24M24S1,1155,experiment,90,→,down,↓,0.010231500025838614,False,44,0
JS-M-24M24S1,1156,experiment,69,↓,right,→,0.1437721000984311,False,44,0
JS-M-24M24S1,1157,experiment,83,↓,down,↓,0.2019427998457104,True,44,0
JS-M-24M24S1,1158,experiment,93,←,down,↓,0.04309600009582937,False,44,0
JS-M-24M24S1,1159,experiment,84,→,down,↓,0.025666499976068735,False,44,0
JS-M-24M24S1,1160,experiment,96,↓,right,→,0.010556400055065751,False,44,0
JS-M-24M24S1,1161,experiment,75,↓,down,↓,0.09416390000842512,True,44,0
JS-M-24M24S1,1162,experiment,92,←,up,↑,0.10045539983548224,False,44,0
JS-M-24M24S1,1163,experiment,108,→,down,↓,0.1938968999311328,False,44,0
JS-M-24M24S1,1164,experiment,71,→,up,↑,0.4342459000181407,False,44,0
JS-M-24M24S1,1165,experiment,72,↑,up,↑,0.3339402999263257,True,44,0
JS-M-24M24S1,1166,experiment,100,↓,no_key,no_letter,-1.0,False,44,0
JS-M-24M24S1,1167,experiment,82,←,down,↓,0.11644569993950427,False,44,1
JS-M-24M24S1,1168,experiment,81,→,right,→,0.09330739988945425,True,44,0
JS-M-24M24S1,1169,experiment,97,↑,right,→,0.5003945000935346,False,44,0
JS-M-24M24S1,1170,experiment,86,←,up,↑,0.08386750007048249,False,44,0
JS-M-24M24S1,1171,experiment,99,←,up,↑,0.2850711999926716,False,44,0
JS-M-24M24S1,1172,experiment,55,↑,left,←,0.39254800020717084,False,44,0
JS-M-24M24S1,1173,experiment,94,↓,down,↓,0.2088569002225995,True,44,0
JS-M-24M24S1,1174,experiment,50,→,right,→,0.5761471998412162,True,44,0
JS-M-24M24S1,1175,training,55,→,up,↑,0.026531799929216504,False,44,0
JS-M-24M24S1,1176,training,49,→,up,↑,0.08537079999223351,False,44,0
JS-M-24M24S1,1177,experiment,98,←,up,↑,0.07664240011945367,False,44,0
JS-M-24M24S1,1178,experiment,67,↑,down,↓,0.4509741999208927,False,44,0
JS-M-24M24S1,1179,experiment,99,→,down,↓,0.6357066000346094,False,44,0
JS-M-24M24S1,1180,experiment,73,↓,up,↑,0.24366459995508194,False,44,1
JS-M-24M24S1,1181,experiment,82,↑,up,↑,0.27713379985652864,True,44,0
JS-M-24M24S1,1182,experiment,50,←,left,←,0.018217100063338876,True,44,0
JS-M-24M24S1,1183,experiment,72,←,left,←,0.11046970007009804,True,44,0
JS-M-24M24S1,1184,experiment,86,↓,down,↓,0.27666949992999434,True,44,0
JS-M-24M24S1,1185,experiment,52,↑,left,←,0.1265737998764962,False,44,0
JS-M-24M24S1,1186,experiment,64,→,up,↑,0.12688039988279343,False,44,0
JS-M-24M24S1,1187,experiment,66,←,up,↑,0.10200109984725714,False,44,0
JS-M-24M24S1,1188,experiment,105,←,up,↑,0.16852879989892244,False,44,0
JS-M-24M24S1,1189,experiment,62,↓,up,↑,0.535575799876824,False,44,0
JS-M-24M24S1,1190,experiment,81,↑,right,→,0.16018000012263656,False,44,0
JS-M-24M24S1,1191,experiment,53,→,down,↓,0.193746899953112,False,44,0
JS-M-24M24S1,1192,experiment,87,↑,up,↑,0.19328239979222417,True,44,0
JS-M-24M24S1,1193,experiment,108,→,left,←,0.11869619996286929,False,44,0
JS-M-24M24S1,1194,experiment,89,↓,up,↑,0.20177969988435507,False,44,0
JS-M-24M24S1,1195,experiment,96,→,down,↓,0.21853539999574423,False,44,0
JS-M-24M24S1,1196,experiment,90,↓,right,→,0.2184796999208629,False,44,0
JS-M-24M24S1,1197,experiment,79,↑,right,→,0.1433749001007527,False,44,0
JS-M-24M24S1,1198,experiment,57,←,right,→,0.17692080000415444,False,44,0
JS-M-24M24S1,1199,experiment,101,→,right,→,0.27712700003758073,True,44,0
JS-M-24M24S1,1200,experiment,70,→,down,↓,0.10176660004071891,False,44,0
JS-M-24M24S1,1201,experiment,103,→,down,↓,0.0018025999888777733,False,44,0
JS-M-24M24S1,1202,experiment,74,→,left,←,0.2518792999908328,False,44,0
JS-M-24M24S1,1203,experiment,83,←,left,←,0.027113599935546517,True,44,0
JS-M-24M24S1,1204,experiment,88,→,right,→,0.2358678998425603,True,44,0
JS-M-24M24S1,1205,experiment,63,←,down,↓,0.0183614999987185,False,44,0
JS-M-24M24S1,1206,experiment,97,→,up,↑,0.1353637999854982,False,44,0
JS-M-24M24S1,1207,experiment,94,→,right,→,0.10186120006255805,True,44,0
JS-M-24M24S1,1208,experiment,71,→,right,→,0.0602227000053972,True,44,0
JS-M-24M24S1,1209,experiment,69,↓,right,→,0.32662700000219047,False,44,0
JS-M-24M24S1,1210,experiment,68,→,right,→,0.2351665000896901,True,44,0
JS-M-24M24S1,1211,experiment,78,←,right,→,0.3592149999458343,False,44,0
JS-M-24M24S1,1212,experiment,75,↑,right,→,0.45085850008763373,False,44,0
JS-M-24M24S1,1213,experiment,93,←,right,→,0.1184841999784112,False,44,0
JS-M-24M24S1,1214,experiment,85,→,up,↑,0.26038269978016615,False,44,0
JS-M-24M24S1,1215,experiment,59,↑,right,→,0.06796419993042946,False,44,0
JS-M-24M24S1,1216,experiment,76,↑,down,↓,0.6567185998428613,False,44,0
JS-M-24M24S1,1217,experiment,106,←,up,↑,0.434496299829334,False,44,1
JS-M-24M24S1,1218,experiment,60,←,left,←,0.11009810003452003,True,44,0
JS-M-24M24S1,1219,experiment,95,←,right,→,0.1017779998946935,False,44,0
JS-M-24M24S1,1220,experiment,65,↓,left,←,0.060327700106427073,False,44,0
JS-M-24M24S1,1221,experiment,56,↑,left,←,0.04345660004764795,False,44,0
JS-M-24M24S1,1222,experiment,84,↓,up,↑,0.1019633999094367,False,44,0
JS-M-24M24S1,1223,experiment,102,←,up,↑,0.07704439992085099,False,44,0
JS-M-24M24S1,1224,experiment,100,←,down,↓,0.009759500157088041,False,44,0
JS-M-24M24S1,1225,experiment,77,→,right,→,0.04365240014158189,True,44,0
JS-M-24M24S1,1226,experiment,55,←,down,↓,0.06804449995979667,False,44,0
JS-M-24M24S1,1227,experiment,92,←,right,→,0.3437850000336766,False,44,0
JS-M-24M24S1,1228,experiment,91,→,right,→,0.8472590001765639,True,44,0
JS-M-24M24S1,1229,experiment,58,↑,right,→,0.06858729990199208,False,44,1
JS-M-24M24S1,1230,experiment,80,↓,right,→,0.45892390003427863,False,44,0
JS-M-24M24S1,1231,experiment,61,←,right,→,0.7529557000380009,False,44,0
JS-M-24M24S1,1232,experiment,51,↑,right,→,0.4670396000146866,False,44,1
JS-M-24M24S1,1233,experiment,104,←,left,←,0.0689190998673439,True,44,0
JS-M-24M24S1,1234,experiment,54,↑,up,↑,0.24352090014144778,True,44,0
JS-M-24M24S1,1235,experiment,49,↑,down,↓,0.9075478999875486,False,44,0
JS-M-24M24S1,1236,experiment,107,↑,up,↑,0.27714619995094836,True,44,1
JS-M-24M24S1,1237,experiment,48,←,down,↓,0.7004555999301374,False,44,0
JS-M-24M24S1,1238,training,97,→,up,↑,0.12709349999204278,False,44,0
JS-M-24M24S1,1239,training,74,↑,left,←,0.11842600000090897,False,44,0
JS-M-24M24S1,1240,experiment,92,→,left,←,0.2601109000388533,False,44,0
JS-M-24M24S1,1241,experiment,82,↑,left,←,0.15198459988459945,False,44,0
JS-M-24M24S1,1242,experiment,58,←,right,→,0.1766566000878811,False,44,0
JS-M-24M24S1,1243,experiment,76,↓,down,↓,0.008997499942779541,True,44,0
JS-M-24M24S1,1244,experiment,51,↑,left,←,0.2518353001214564,False,44,0
JS-M-24M24S1,1245,experiment,63,←,up,↑,0.158629700075835,False,44,0
JS-M-24M24S1,1246,experiment,99,→,down,↓,0.009926300030201674,False,44,0
JS-M-24M24S1,1247,experiment,66,↓,right,→,0.21015519998036325,False,44,0
JS-M-24M24S1,1248,experiment,102,↑,up,↑,0.134004499996081,True,44,0
JS-M-24M24S1,1249,experiment,106,↑,up,↑,0.10229790001176298,True,44,0
JS-M-24M24S1,1250,experiment,97,←,down,↓,0.11015200009569526,False,44,0
JS-M-24M24S1,1251,experiment,93,↑,right,→,0.33510820008814335,False,44,0
JS-M-24M24S1,1252,experiment,83,→,right,→,0.04326270008459687,True,44,0
JS-M-24M24S1,1253,experiment,86,↓,left,←,0.11841470003128052,False,44,0
JS-M-24M24S1,1254,experiment,69,↓,right,→,0.1942034000530839,False,44,0
JS-M-24M24S1,1255,experiment,74,←,left,←,0.1686508001293987,True,44,0
JS-M-24M24S1,1256,experiment,90,↑,up,↑,0.17678810004144907,True,44,0
JS-M-24M24S1,1257,experiment,62,↑,down,↓,0.5174944000318646,False,44,0
JS-M-24M24S1,1258,experiment,68,←,down,↓,0.3021929000969976,False,44,0
JS-M-24M24S1,1259,experiment,80,→,right,→,0.14319370011799037,True,44,0
JS-M-24M24S1,1260,experiment,75,←,right,→,0.3840410001575947,False,44,0
JS-M-24M24S1,1261,experiment,71,↑,right,→,0.03516940004192293,False,44,0
JS-M-24M24S1,1262,experiment,73,←,left,←,0.02696499996818602,True,44,0
JS-M-24M24S1,1263,experiment,98,→,right,→,0.30202100006863475,True,44,0
JS-M-24M24S1,1264,experiment,65,←,down,↓,0.30214340006932616,False,44,0
JS-M-24M24S1,1265,experiment,55,↑,left,←,0.08511390001513064,False,44,0
JS-M-24M24S1,1266,experiment,50,↑,down,↓,0.3102116999216378,False,44,0
JS-M-24M24S1,1267,experiment,52,←,left,←,0.11900370009243488,True,44,0
JS-M-24M24S1,1268,experiment,101,↑,left,←,0.2338048000819981,False,44,0
JS-M-24M24S1,1269,experiment,94,←,left,←,0.3350178000982851,True,44,0
JS-M-24M24S1,1270,experiment,91,→,right,→,0.35888629988767207,True,44,0
JS-M-24M24S1,1271,experiment,48,←,right,→,0.2933241999708116,False,44,0
JS-M-24M24S1,1272,experiment,78,←,right,→,0.19358949991874397,False,44,0
JS-M-24M24S1,1273,experiment,70,↑,left,←,0.08517120010219514,False,44,0
JS-M-24M24S1,1274,experiment,77,←,left,←,0.3679202999919653,True,44,0
JS-M-24M24S1,1275,experiment,103,←,left,←,0.07651309994980693,True,44,0
JS-M-24M24S1,1276,experiment,85,←,right,→,0.10894040018320084,False,44,0
JS-M-24M24S1,1277,experiment,60,↑,left,←,0.11006299988366663,False,44,0
JS-M-24M24S1,1278,experiment,87,↑,left,←,0.026727800024673343,False,44,0
JS-M-24M24S1,1279,experiment,81,←,up,↑,0.5006645999383181,False,44,0
JS-M-24M24S1,1280,experiment,54,↑,left,←,0.16881650011055171,False,44,0
JS-M-24M24S1,1281,experiment,96,↑,up,↑,0.2663555999752134,True,44,0
JS-M-24M24S1,1282,experiment,59,→,right,→,0.30258819996379316,True,44,0
JS-M-24M24S1,1283,experiment,64,↑,left,←,0.03514340007677674,False,44,0
JS-M-24M24S1,1284,experiment,49,→,right,→,0.10888550011441112,True,44,0
JS-M-24M24S1,1285,experiment,84,↓,left,←,0.2771540000103414,False,44,0
JS-M-24M24S1,1286,experiment,108,↓,down,↓,0.04339589993469417,True,44,0
JS-M-24M24S1,1287,experiment,67,↓,down,↓,0.05835469998419285,True,44,0
JS-M-24M24S1,1288,experiment,79,→,right,→,0.6456158999353647,True,44,0
JS-M-24M24S1,1289,experiment,89,→,right,→,0.19333679997362196,True,44,1
JS-M-24M24S1,1290,experiment,104,←,right,→,0.05191719997674227,False,44,0
JS-M-24M24S1,1291,experiment,88,→,left,←,0.016435599885880947,False,44,0
JS-M-24M24S1,1292,experiment,105,→,down,↓,1.1181334001012146,False,44,0
JS-M-24M24S1,1293,experiment,56,→,up,↑,0.17701960005797446,False,44,1
JS-M-24M24S1,1294,experiment,72,↑,up,↑,0.46695519983768463,True,44,0
JS-M-24M24S1,1295,experiment,53,↑,down,↓,0.28513169987127185,False,44,0
JS-M-24M24S1,1296,experiment,57,↑,down,↓,0.697134800022468,False,44,0
JS-M-24M24S1,1297,experiment,100,↑,up,↑,0.02684219996444881,True,44,1
JS-M-24M24S1,1298,experiment,107,↓,right,→,0.5173384000081569,False,44,0
JS-M-24M24S1,1299,experiment,95,→,left,←,0.0848711000289768,False,44,0
JS-M-24M24S1,1300,experiment,61,↑,down,↓,0.4015102998819202,False,44,0
JS-M-24M24S1,1301,training,72,←,right,→,0.508998200064525,False,44,0
JS-M-24M24S1,1302,training,99,↑,down,↓,0.08543960005044937,False,44,0
JS-M-24M24S1,1303,experiment,48,→,down,↓,0.35183720011264086,False,44,0
JS-M-24M24S1,1304,experiment,52,→,down,↓,0.1853056000545621,False,44,0
JS-M-24M24S1,1305,experiment,107,←,down,↓,0.43450909992679954,False,44,0
JS-M-24M24S1,1306,experiment,106,→,right,→,0.0017778000328689814,True,44,0
JS-M-24M24S1,1307,experiment,87,←,up,↑,0.03491279995068908,False,44,0
JS-M-24M24S1,1308,experiment,57,↑,down,↓,0.10201180004514754,False,44,0
JS-M-24M24S1,1309,experiment,56,↑,left,←,0.11845639999955893,False,44,0
JS-M-24M24S1,1310,experiment,89,→,down,↓,0.40067660016939044,False,44,0
JS-M-24M24S1,1311,experiment,51,↓,right,→,1.0491281000431627,False,44,0
JS-M-24M24S1,1312,experiment,60,↓,up,↑,0.4507814000826329,False,44,1
JS-M-24M24S1,1313,experiment,59,↑,up,↑,0.2268680001143366,True,44,0
JS-M-24M24S1,1314,experiment,90,↓,left,←,0.3764706999063492,False,44,0
JS-M-24M24S1,1315,experiment,82,←,down,↓,0.0018087001517415047,False,44,0
JS-M-24M24S1,1316,experiment,96,↓,left,←,0.0766142001375556,False,44,0
JS-M-24M24S1,1317,experiment,63,←,right,→,0.06698499992489815,False,44,0
JS-M-24M24S1,1318,experiment,81,←,right,→,0.5000434000976384,False,44,0
JS-M-24M24S1,1319,experiment,92,→,up,↑,0.05177569994702935,False,44,0
JS-M-24M24S1,1320,experiment,49,→,up,↑,0.38383019994944334,False,44,0
JS-M-24M24S1,1321,experiment,66,↓,up,↑,0.34434420010074973,False,44,0
JS-M-24M24S1,1322,experiment,79,←,right,→,0.3923097001388669,False,44,0
JS-M-24M24S1,1323,experiment,100,←,up,↑,0.12699440005235374,False,44,0
JS-M-24M24S1,1324,experiment,78,↓,up,↑,0.392420900054276,False,44,0
JS-M-24M24S1,1325,experiment,84,↓,left,←,0.01820569997653365,False,44,0
JS-M-24M24S1,1326,experiment,101,↓,up,↑,0.08468019985593855,False,44,0
JS-M-24M24S1,1327,experiment,97,←,up,↑,0.018568099942058325,False,44,0
JS-M-24M24S1,1328,experiment,75,↑,left,←,0.25152059993706644,False,44,0
JS-M-24M24S1,1329,experiment,85,↓,up,↑,0.25981300021521747,False,44,0
JS-M-24M24S1,1330,experiment,93,↑,up,↑,0.15184260020032525,True,44,0
JS-M-24M24S1,1331,experiment,72,→,right,→,0.8315194000024348,True,44,0
JS-M-24M24S1,1332,experiment,95,→,right,→,0.22662730002775788,True,44,1
JS-M-24M24S1,1333,experiment,69,←,left,←,0.16856319992803037,True,44,0
JS-M-24M24S1,1334,experiment,83,←,down,↓,0.0018254001624882221,False,44,0
JS-M-24M24S1,1335,experiment,102,↑,down,↓,0.12673870008438826,False,44,0
JS-M-24M24S1,1336,experiment,50,→,down,↓,0.251626200042665,False,44,0
JS-M-24M24S1,1337,experiment,58,↑,down,↓,0.16014260007068515,False,44,0
JS-M-24M24S1,1338,experiment,70,↓,left,←,0.3191985001321882,False,44,0
JS-M-24M24S1,1339,experiment,99,→,right,→,0.5014790999703109,True,44,0
JS-M-24M24S1,1340,experiment,98,→,left,←,0.10179009987041354,False,44,0
JS-M-24M24S1,1341,experiment,53,↑,up,↑,0.28516330011188984,True,44,0
JS-M-24M24S1,1342,experiment,71,↓,up,↑,0.18559439992532134,False,44,0
JS-M-24M24S1,1343,experiment,104,←,left,←,0.5508924000896513,True,44,0
JS-M-24M24S1,1344,experiment,77,→,up,↑,0.06847870000638068,False,44,1
JS-M-24M24S1,1345,experiment,67,→,right,→,0.14358569984324276,True,44,0
JS-M-24M24S1,1346,experiment,76,↑,down,↓,0.05987920006737113,False,44,0
JS-M-24M24S1,1347,experiment,65,←,down,↓,0.2021728998515755,False,44,0
JS-M-24M24S1,1348,experiment,73,←,left,←,0.3357108999043703,True,44,0
JS-M-24M24S1,1349,experiment,108,↓,right,→,0.1102704000659287,False,44,0
JS-M-24M24S1,1350,experiment,68,←,right,→,0.2686613998375833,False,44,0
JS-M-24M24S1,1351,experiment,54,→,right,→,0.2688374000135809,True,44,0
JS-M-24M24S1,1352,experiment,91,↓,up,↑,0.24369490006938577,False,44,0
JS-M-24M24S1,1353,experiment,62,↓,up,↑,0.002114800037816167,False,44,0
JS-M-24M24S1,1354,experiment,94,→,right,→,0.19358089985325933,True,44,0
JS-M-24M24S1,1355,experiment,80,→,right,→,0.08345829998143017,True,44,0
JS-M-24M24S1,1356,experiment,88,→,right,→,0.276922499993816,True,44,0
JS-M-24M24S1,1357,experiment,55,→,down,↓,0.10348050016909838,False,44,0
JS-M-24M24S1,1358,experiment,86,↑,up,↑,0.3100828002206981,True,44,0
JS-M-24M24S1,1359,experiment,61,→,right,→,0.21862649987451732,True,44,0
JS-M-24M24S1,1360,experiment,103,→,right,→,0.1590116999577731,True,44,0
JS-M-24M24S1,1361,experiment,74,←,left,←,0.08514560014009476,True,44,0
JS-M-24M24S1,1362,experiment,105,↓,up,↑,0.3595969998277724,False,44,0
JS-M-24M24S1,1363,experiment,64,↑,down,↓,0.6961072999984026,False,44,0
JS-M-24M24S1,1364,training,66,←,down,↓,0.1514947998803109,False,44,0
JS-M-24M24S1,1365,training,107,↑,left,←,0.23563080001622438,False,44,0
JS-M-24M24S1,1366,experiment,67,↓,up,↑,0.29330580006353557,False,44,0
JS-M-24M24S1,1367,experiment,73,←,down,↓,0.38439429993741214,False,44,0
JS-M-24M24S1,1368,experiment,59,→,up,↑,0.05164509988389909,False,44,0
JS-M-24M24S1,1369,experiment,91,→,down,↓,0.20175620005466044,False,44,0
JS-M-24M24S1,1370,experiment,74,←,right,→,0.051907400134950876,False,44,0
JS-M-24M24S1,1371,experiment,72,↑,up,↑,0.35906369984149933,True,44,0
JS-M-24M24S1,1372,experiment,85,→,up,↑,0.0017850000876933336,False,44,0
JS-M-24M24S1,1373,experiment,65,←,up,↑,0.3672938998788595,False,44,0
JS-M-24M24S1,1374,experiment,76,←,left,←,0.1685913000255823,True,44,0
JS-M-24M24S1,1375,experiment,57,↓,left,←,0.21012980001978576,False,44,0
JS-M-24M24S1,1376,experiment,88,←,down,↓,0.24139829981140792,False,44,0
JS-M-24M24S1,1377,experiment,80,↓,up,↑,0.026777700055390596,False,44,0
JS-M-24M24S1,1378,experiment,83,↑,down,↓,0.15221369988285005,False,44,0
