PART_ID,Trial_no,Trial_type,CSI,Stim_letter,Key_pressed,letter_choose,Rt,Corr,Stimulus Time,nDropped
MP-k-21K21S2,1,training,120,↓,down,↓,0.8325964000541717,True,60,0
MP-k-21K21S2,2,training,120,↑,up,↑,1.030151099897921,True,60,0
MP-k-21K21S2,3,training,120,↑,up,↑,1.0917419001925737,True,60,0
MP-k-21K21S2,4,training,120,→,right,→,0.6801046999171376,True,60,0
MP-k-21K21S2,5,training,120,↑,up,↑,0.7309274000581354,True,60,0
MP-k-21K21S2,6,training,120,↑,up,↑,0.5342321000061929,True,60,0
MP-k-21K21S2,7,training,120,↓,down,↓,0.8224804000928998,True,60,0
MP-k-21K21S2,8,training,120,↓,down,↓,0.7407673001289368,True,60,0
MP-k-21K21S2,9,training,120,→,right,→,0.5665382000152022,True,60,0
MP-k-21K21S2,10,training,120,←,left,←,0.5922815999947488,True,60,0
MP-k-21K21S2,11,training,120,→,right,→,0.5840385998599231,True,60,0
MP-k-21K21S2,12,training,120,↓,down,↓,0.7088136000093073,True,60,0
MP-k-21K21S2,13,training,120,→,right,→,0.791583500104025,True,60,0
MP-k-21K21S2,14,training,120,↓,down,↓,0.7192792999558151,True,60,0
MP-k-21K21S2,15,training,120,↓,down,↓,0.6819271999411285,True,60,0
MP-k-21K21S2,16,training,120,↑,up,↑,0.7330708000808954,True,60,0
MP-k-21K21S2,17,training,120,→,right,→,0.6509519999381155,True,60,0
MP-k-21K21S2,18,training,120,→,right,→,0.49365170020610094,True,60,0
MP-k-21K21S2,19,training,120,↓,down,↓,0.8464545998722315,True,60,0
MP-k-21K21S2,20,training,120,↓,down,↓,0.6758477999828756,True,60,0
MP-k-21K21S2,21,no_adaptation,120,←,left,←,0.5195856001228094,True,36,0
MP-k-21K21S2,22,no_adaptation,120,→,right,→,0.6179653001017869,True,36,0
MP-k-21K21S2,23,no_adaptation,120,←,left,←,0.6243386000860482,True,36,0
MP-k-21K21S2,24,no_adaptation,120,↑,up,↑,0.814334399998188,True,36,0
MP-k-21K21S2,25,no_adaptation,120,→,right,→,0.45092119998298585,True,36,0
MP-k-21K21S2,26,no_adaptation,120,←,left,←,0.48965179990045726,True,36,0
MP-k-21K21S2,27,no_adaptation,120,↓,down,↓,0.6052486000116915,True,36,0
MP-k-21K21S2,28,no_adaptation,120,↓,down,↓,0.6360502999741584,True,36,0
MP-k-21K21S2,29,no_adaptation,120,←,left,←,0.42578779999166727,True,36,0
MP-k-21K21S2,30,no_adaptation,120,→,right,→,0.6550840002018958,True,36,0
MP-k-21K21S2,31,no_adaptation,120,←,left,←,1.6840108998585492,True,36,0
MP-k-21K21S2,32,no_adaptation,120,←,left,←,0.5918239001184702,True,36,0
MP-k-21K21S2,33,no_adaptation,120,→,right,→,0.4951981999911368,True,36,0
MP-k-21K21S2,34,no_adaptation,120,←,left,←,0.5145940999500453,True,36,0
MP-k-21K21S2,35,no_adaptation,120,←,left,←,0.5569858998060226,True,36,0
MP-k-21K21S2,36,no_adaptation,120,↑,up,↑,1.349805299891159,True,36,0
MP-k-21K21S2,37,no_adaptation,120,→,right,→,0.5669561000540853,True,36,0
MP-k-21K21S2,38,no_adaptation,120,↓,down,↓,0.6714843001682311,True,36,0
MP-k-21K21S2,39,no_adaptation,120,↓,down,↓,0.5718835999723524,True,36,0
MP-k-21K21S2,40,no_adaptation,120,↑,up,↑,1.0839547000359744,True,36,0
MP-k-21K21S2,41,training,98,↓,down,↓,0.7141513999085873,True,36,0
MP-k-21K21S2,42,training,54,←,left,←,0.5311756001319736,True,36,1
MP-k-21K21S2,43,experiment,99,↓,down,↓,0.7565623999107629,True,36,1
MP-k-21K21S2,44,experiment,85,↑,up,↑,0.745531199965626,True,36,1
MP-k-21K21S2,45,experiment,104,←,left,←,0.49703169986605644,True,36,1
MP-k-21K21S2,46,experiment,81,→,right,→,0.6017712999600917,True,36,1
MP-k-21K21S2,47,experiment,97,↑,up,↑,0.5129996999166906,True,36,1
MP-k-21K21S2,48,experiment,96,←,left,←,0.5482177999801934,True,36,1
MP-k-21K21S2,49,experiment,82,←,left,←,0.6743849001359195,True,36,1
MP-k-21K21S2,50,experiment,98,↓,down,↓,0.6303445000667125,True,36,1
MP-k-21K21S2,51,experiment,95,←,left,←,0.5733380001038313,True,36,1
MP-k-21K21S2,52,experiment,62,↑,up,↑,0.5374832001980394,True,36,1
MP-k-21K21S2,53,experiment,74,←,left,←,0.5389692999888211,True,36,1
MP-k-21K21S2,54,experiment,88,←,left,←,0.48775849980302155,True,36,1
MP-k-21K21S2,55,experiment,101,←,left,←,0.5066603000741452,True,36,1
MP-k-21K21S2,56,experiment,93,↑,up,↑,0.5747326000127941,True,36,1
MP-k-21K21S2,57,experiment,83,↑,up,↑,0.7798593000043184,True,36,1
MP-k-21K21S2,58,experiment,84,↓,down,↓,0.6643848000094295,True,36,1
MP-k-21K21S2,59,experiment,91,←,left,←,0.6149659000802785,True,36,1
MP-k-21K21S2,60,experiment,56,→,right,→,0.5634673999156803,True,36,1
MP-k-21K21S2,61,experiment,65,←,left,←,0.4794910999480635,True,36,1
MP-k-21K21S2,62,experiment,94,←,left,←,0.41716370009817183,True,36,1
MP-k-21K21S2,63,experiment,108,←,left,←,0.5744849999900907,True,36,0
MP-k-21K21S2,64,experiment,70,↑,up,↑,0.7284082002006471,True,36,1
MP-k-21K21S2,65,experiment,79,→,right,→,0.5203381997998804,True,36,1
MP-k-21K21S2,66,experiment,59,←,left,←,0.5676667999941856,True,36,1
MP-k-21K21S2,67,experiment,58,↑,up,↑,0.5656341998837888,True,36,1
MP-k-21K21S2,68,experiment,86,↑,up,↑,0.6498887001071125,True,36,1
MP-k-21K21S2,69,experiment,53,↓,down,↓,0.7819087998941541,True,36,1
MP-k-21K21S2,70,experiment,78,→,right,→,0.5483442000113428,True,36,1
MP-k-21K21S2,71,experiment,87,↑,up,↑,0.7689600999001414,True,36,1
MP-k-21K21S2,72,experiment,57,←,left,←,0.5033149002119899,True,36,1
MP-k-21K21S2,73,experiment,55,→,right,→,0.5365775998216122,True,36,1
MP-k-21K21S2,74,experiment,71,→,right,→,0.7871926000807434,True,36,1
MP-k-21K21S2,75,experiment,54,↑,up,↑,0.5456236999016255,True,36,1
MP-k-21K21S2,76,experiment,73,↓,down,↓,0.7155178000684828,True,36,1
MP-k-21K21S2,77,experiment,52,→,right,→,0.8051636999007314,True,36,1
MP-k-21K21S2,78,experiment,63,→,right,→,0.7512541001196951,True,36,1
MP-k-21K21S2,79,experiment,49,↓,up,↑,0.809429100016132,False,36,1
MP-k-21K21S2,80,experiment,100,→,right,→,0.5589260999113321,True,36,1
MP-k-21K21S2,81,experiment,69,→,right,→,0.5453140998724848,True,36,1
MP-k-21K21S2,82,experiment,75,→,right,→,0.5542882999870926,True,36,1
MP-k-21K21S2,83,experiment,103,←,left,←,0.5774457999505103,True,36,1
MP-k-21K21S2,84,experiment,76,→,right,→,0.5688905999995768,True,36,1
MP-k-21K21S2,85,experiment,48,↑,up,↑,0.7139407000504434,True,36,1
MP-k-21K21S2,86,experiment,77,→,right,→,0.5713397001381963,True,36,1
MP-k-21K21S2,87,experiment,80,→,right,→,0.5218384000472724,True,36,1
MP-k-21K21S2,88,experiment,89,→,right,→,0.5672180999536067,True,36,1
MP-k-21K21S2,89,experiment,67,←,left,←,0.68960260017775,True,36,1
MP-k-21K21S2,90,experiment,64,↑,up,↑,0.632212599972263,True,36,1
MP-k-21K21S2,91,experiment,50,→,right,→,0.6220313000958413,True,36,1
MP-k-21K21S2,92,experiment,72,↓,down,↓,0.8448521001264453,True,36,1
MP-k-21K21S2,93,experiment,66,↓,down,↓,0.8527086998801678,True,36,1
MP-k-21K21S2,94,experiment,90,→,right,→,0.7728940001688898,True,36,1
MP-k-21K21S2,95,experiment,105,←,left,←,0.5381414999719709,True,36,1
MP-k-21K21S2,96,experiment,68,←,left,←,0.6302298000082374,True,36,1
MP-k-21K21S2,97,experiment,106,←,left,←,0.6413050999399275,True,36,1
MP-k-21K21S2,98,experiment,107,↓,down,↓,0.6275202000979334,True,36,1
MP-k-21K21S2,99,experiment,51,↑,up,↑,0.7213486998807639,True,36,1
MP-k-21K21S2,100,experiment,61,↓,down,↓,0.6955961000639945,True,36,1
MP-k-21K21S2,101,experiment,60,←,left,←,0.6239263000898063,True,36,1
MP-k-21K21S2,102,experiment,102,←,left,←,0.5163998000789434,True,36,1
MP-k-21K21S2,103,experiment,92,↓,down,↓,0.7129379999823868,True,36,1
MP-k-21K21S2,104,training,96,←,left,←,0.6348210000433028,True,35,0
MP-k-21K21S2,105,training,86,↑,up,↑,0.668313100002706,True,35,1
MP-k-21K21S2,106,experiment,57,←,left,←,0.5426224998664111,True,35,1
MP-k-21K21S2,107,experiment,54,←,left,←,0.5265077999792993,True,35,1
MP-k-21K21S2,108,experiment,79,←,left,←,0.5748469999525696,True,35,1
MP-k-21K21S2,109,experiment,52,↑,up,↑,0.6546464001294225,True,35,1
MP-k-21K21S2,110,experiment,62,→,right,→,0.6875092000700533,True,35,1
MP-k-21K21S2,111,experiment,86,↓,down,↓,0.7029854999855161,True,35,1
MP-k-21K21S2,112,experiment,53,↓,down,↓,0.6647708001546562,True,35,1
MP-k-21K21S2,113,experiment,82,↑,up,↑,0.546539600007236,True,35,1
MP-k-21K21S2,114,experiment,87,↓,down,↓,0.6795699000358582,True,35,1
MP-k-21K21S2,115,experiment,78,↑,up,↑,0.633572000078857,True,35,1
MP-k-21K21S2,116,experiment,107,↓,down,↓,0.6766157997772098,True,35,1
MP-k-21K21S2,117,experiment,103,←,left,←,0.702843900071457,True,35,1
MP-k-21K21S2,118,experiment,58,↓,down,↓,0.6311251001898199,True,35,1
MP-k-21K21S2,119,experiment,100,→,right,→,0.6921645998954773,True,35,1
MP-k-21K21S2,120,experiment,88,↓,down,↓,0.7470082000363618,True,35,1
MP-k-21K21S2,121,experiment,67,↑,up,↑,0.5102019999176264,True,35,1
MP-k-21K21S2,122,experiment,101,↓,down,↓,0.703841800102964,True,35,1
MP-k-21K21S2,123,experiment,92,↓,down,↓,0.7168930000625551,True,35,1
MP-k-21K21S2,124,experiment,63,→,right,→,0.6109345001168549,True,35,1
MP-k-21K21S2,125,experiment,64,→,right,→,0.5970339998602867,True,35,1
MP-k-21K21S2,126,experiment,61,→,right,→,0.5204710001125932,True,35,1
MP-k-21K21S2,127,experiment,68,→,right,→,0.44172150013037026,True,35,1
MP-k-21K21S2,128,experiment,70,→,right,→,0.49938769987784326,True,35,0
MP-k-21K21S2,129,experiment,74,↓,down,↓,0.630321899894625,True,35,1
MP-k-21K21S2,130,experiment,85,←,left,←,0.7204662000294775,True,35,1
MP-k-21K21S2,131,experiment,89,↑,up,↑,0.8058317999821156,True,35,1
MP-k-21K21S2,132,experiment,102,↓,down,↓,0.7158154000062495,True,35,1
MP-k-21K21S2,133,experiment,60,←,left,←,0.5222579000983387,True,35,1
MP-k-21K21S2,134,experiment,95,↓,down,↓,0.6293516999576241,True,35,1
MP-k-21K21S2,135,experiment,48,↓,down,↓,0.7879822000395507,True,35,1
MP-k-21K21S2,136,experiment,59,↓,down,↓,0.8647483999375254,True,35,1
MP-k-21K21S2,137,experiment,66,↑,up,↑,0.7279987998772413,True,35,1
MP-k-21K21S2,138,experiment,72,↓,down,↓,0.730416800128296,True,35,1
MP-k-21K21S2,139,experiment,73,↓,down,↓,0.6284855001140386,True,35,1
MP-k-21K21S2,140,experiment,81,↓,down,↓,0.6003306000493467,True,35,1
MP-k-21K21S2,141,experiment,65,↑,up,↑,0.594530199887231,True,35,1
MP-k-21K21S2,142,experiment,55,↓,down,↓,0.6244314000941813,True,35,1
MP-k-21K21S2,143,experiment,83,→,right,→,0.5311544998548925,True,35,1
MP-k-21K21S2,144,experiment,49,↓,down,↓,0.5572066998574883,True,35,1
MP-k-21K21S2,145,experiment,84,↑,up,↑,0.6587271997705102,True,35,1
MP-k-21K21S2,146,experiment,105,←,left,←,0.6289684998337179,True,35,1
MP-k-21K21S2,147,experiment,71,→,right,→,0.7881829000543803,True,35,1
MP-k-21K21S2,148,experiment,76,→,right,→,0.6991951998788863,True,35,1
MP-k-21K21S2,149,experiment,96,←,left,←,0.6069334999192506,True,35,1
MP-k-21K21S2,150,experiment,51,←,left,←,0.5733492998406291,True,35,1
MP-k-21K21S2,151,experiment,108,↑,up,↑,0.7540442999452353,True,35,1
MP-k-21K21S2,152,experiment,99,↑,up,↑,0.7705748998560011,True,35,1
MP-k-21K21S2,153,experiment,91,↓,down,↓,0.7253994999919087,True,35,1
MP-k-21K21S2,154,experiment,90,→,right,→,0.5944258999079466,True,35,1
MP-k-21K21S2,155,experiment,104,→,right,→,0.5595099998172373,True,35,1
MP-k-21K21S2,156,experiment,56,→,right,→,0.7020916000474244,True,35,1
MP-k-21K21S2,157,experiment,97,→,right,→,0.6894139999058098,True,35,1
MP-k-21K21S2,158,experiment,80,↓,down,↓,0.7387023998890072,True,35,1
MP-k-21K21S2,159,experiment,98,↑,up,↑,0.5723372001666576,True,35,1
MP-k-21K21S2,160,experiment,77,↑,up,↑,0.8031410998664796,True,35,1
MP-k-21K21S2,161,experiment,93,↑,up,↑,0.6198609999846667,True,35,1
MP-k-21K21S2,162,experiment,50,←,left,←,0.69819389982149,True,35,1
MP-k-21K21S2,163,experiment,75,←,left,←,0.6851110002025962,True,35,1
MP-k-21K21S2,164,experiment,94,→,right,→,0.5621704999357462,True,35,1
MP-k-21K21S2,165,experiment,69,↑,up,↑,0.5726121999323368,True,35,1
MP-k-21K21S2,166,experiment,106,↓,down,↓,0.8896820000372827,True,35,1
MP-k-21K21S2,167,training,62,→,right,→,0.812540499959141,True,34,0
MP-k-21K21S2,168,training,68,↓,down,↓,0.9490604000166059,True,34,1
MP-k-21K21S2,169,experiment,91,↑,up,↑,0.7362933999393135,True,34,1
MP-k-21K21S2,170,experiment,72,←,left,←,0.6348639000207186,True,34,1
MP-k-21K21S2,171,experiment,79,↓,down,↓,0.6228074999526143,True,34,1
MP-k-21K21S2,172,experiment,71,↓,down,↓,0.5340079998131841,True,34,1
MP-k-21K21S2,173,experiment,96,↑,up,↑,0.5681773000396788,True,34,1
MP-k-21K21S2,174,experiment,102,→,right,→,0.6393214999698102,True,34,1
MP-k-21K21S2,175,experiment,100,←,left,←,0.4764628999400884,True,34,1
MP-k-21K21S2,176,experiment,50,←,left,←,0.7118493998423219,True,34,1
MP-k-21K21S2,177,experiment,77,↑,up,↑,1.3856726998928934,True,34,1
MP-k-21K21S2,178,experiment,95,←,left,←,0.6663317999336869,True,34,1
MP-k-21K21S2,179,experiment,84,↓,down,↓,0.6673606000840664,True,34,1
MP-k-21K21S2,180,experiment,56,↓,down,↓,0.6138320998288691,True,34,1
MP-k-21K21S2,181,experiment,52,↓,down,↓,0.8275601000059396,True,34,1
MP-k-21K21S2,182,experiment,88,↑,up,↑,0.6048658001236618,True,34,1
MP-k-21K21S2,183,experiment,89,↓,down,↓,0.5825867000967264,True,34,1
MP-k-21K21S2,184,experiment,61,←,left,←,0.5067008999176323,True,34,1
MP-k-21K21S2,185,experiment,82,→,right,→,0.6669436998199672,True,34,1
MP-k-21K21S2,186,experiment,63,↑,up,↑,0.5310765001922846,True,34,1
MP-k-21K21S2,187,experiment,107,←,left,←,0.5140058998949826,True,34,1
MP-k-21K21S2,188,experiment,86,←,left,←,0.6960225999355316,True,34,1
MP-k-21K21S2,189,experiment,59,→,right,→,0.5440388999413699,True,34,1
MP-k-21K21S2,190,experiment,105,→,right,→,0.767031199997291,True,34,1
MP-k-21K21S2,191,experiment,49,←,left,←,0.5517235000152141,True,34,1
MP-k-21K21S2,192,experiment,106,↓,down,↓,0.5903203999623656,True,34,1
MP-k-21K21S2,193,experiment,51,↑,up,↑,0.581183300120756,True,34,1
MP-k-21K21S2,194,experiment,58,↑,up,↑,0.5060924000572413,True,34,1
MP-k-21K21S2,195,experiment,104,→,right,→,0.6671199998818338,True,34,1
MP-k-21K21S2,196,experiment,68,→,right,→,0.529370800126344,True,34,1
MP-k-21K21S2,197,experiment,65,←,left,←,0.5421267999336123,True,34,1
MP-k-21K21S2,198,experiment,90,↓,down,↓,0.5781610999256372,True,34,1
MP-k-21K21S2,199,experiment,98,↓,down,↓,0.7943965001031756,True,34,1
MP-k-21K21S2,200,experiment,101,←,left,←,0.7525587999261916,True,34,1
MP-k-21K21S2,201,experiment,75,↓,down,↓,0.8095634998753667,True,34,1
MP-k-21K21S2,202,experiment,87,→,right,→,0.643619199981913,True,34,1
MP-k-21K21S2,203,experiment,73,↓,down,↓,0.5940798001829535,True,34,1
MP-k-21K21S2,204,experiment,53,←,left,←,0.5918101000133902,True,34,1
MP-k-21K21S2,205,experiment,54,←,left,←,0.5259857000783086,True,34,1
MP-k-21K21S2,206,experiment,103,→,right,→,0.45487309992313385,True,34,1
MP-k-21K21S2,207,experiment,81,↑,up,↑,0.6966365000698715,True,34,0
MP-k-21K21S2,208,experiment,62,↑,up,↑,0.5197842998895794,True,34,1
MP-k-21K21S2,209,experiment,80,↓,down,↓,0.6005420999135822,True,34,1
MP-k-21K21S2,210,experiment,92,→,right,→,0.577224199892953,True,34,1
MP-k-21K21S2,211,experiment,55,→,right,→,0.5434314999729395,True,34,1
MP-k-21K21S2,212,experiment,74,↑,up,↑,0.6970432999078184,True,34,1
MP-k-21K21S2,213,experiment,69,↑,up,↑,0.8302375997882336,True,34,1
MP-k-21K21S2,214,experiment,85,↓,down,↓,0.6960611999966204,True,34,1
MP-k-21K21S2,215,experiment,70,→,right,→,0.6363343000411987,True,34,1
MP-k-21K21S2,216,experiment,97,→,right,→,1.0343605000525713,True,34,1
MP-k-21K21S2,217,experiment,83,↓,down,↓,0.7088087000884116,True,34,1
MP-k-21K21S2,218,experiment,57,→,right,→,0.7571678999811411,True,34,1
MP-k-21K21S2,219,experiment,78,↓,down,↓,0.5326149000320584,True,34,1
MP-k-21K21S2,220,experiment,66,→,right,→,0.4969628001563251,True,34,1
MP-k-21K21S2,221,experiment,99,↑,up,↑,1.2196969001088291,True,34,1
MP-k-21K21S2,222,experiment,64,↓,down,↓,0.6696174000389874,True,34,1
MP-k-21K21S2,223,experiment,67,→,right,→,0.6119905000086874,True,34,1
MP-k-21K21S2,224,experiment,93,←,left,←,0.5966799000743777,True,34,1
MP-k-21K21S2,225,experiment,48,↑,right,→,0.6921916999854147,False,34,1
MP-k-21K21S2,226,experiment,94,→,right,→,0.5448937001638114,True,34,1
MP-k-21K21S2,227,experiment,60,←,left,←,0.5110084000043571,True,34,1
MP-k-21K21S2,228,experiment,76,→,right,→,0.6170414998196065,True,34,1
MP-k-21K21S2,229,experiment,108,→,right,→,0.4919226998463273,True,34,1
MP-k-21K21S2,230,training,52,↓,down,↓,0.5894036001991481,True,33,0
MP-k-21K21S2,231,training,61,↓,down,↓,0.5772911000531167,True,33,1
MP-k-21K21S2,232,experiment,80,↓,down,↓,0.5911191001068801,True,33,1
MP-k-21K21S2,233,experiment,97,→,right,→,0.6628602999262512,True,33,1
MP-k-21K21S2,234,experiment,68,←,left,←,0.669224499957636,True,33,1
MP-k-21K21S2,235,experiment,104,→,right,→,0.5276930001564324,True,33,1
MP-k-21K21S2,236,experiment,81,←,left,←,0.5594907999038696,True,33,1
MP-k-21K21S2,237,experiment,75,↓,down,↓,0.5917875999584794,True,33,1
MP-k-21K21S2,238,experiment,103,←,left,←,0.6534372000023723,True,33,1
MP-k-21K21S2,239,experiment,100,↑,up,↑,0.5937346999999136,True,33,1
MP-k-21K21S2,240,experiment,67,↓,down,↓,0.635624699993059,True,33,1
MP-k-21K21S2,241,experiment,107,↓,down,↓,0.5829103998839855,True,33,1
MP-k-21K21S2,242,experiment,99,→,right,→,0.5815597998443991,True,33,1
MP-k-21K21S2,243,experiment,78,↑,up,↑,0.8122018999420106,True,33,1
MP-k-21K21S2,244,experiment,79,↓,down,↓,0.6334601000417024,True,33,1
MP-k-21K21S2,245,experiment,49,↓,down,↓,0.8073275000788271,True,33,1
MP-k-21K21S2,246,experiment,94,←,left,←,0.6311752002220601,True,33,1
MP-k-21K21S2,247,experiment,64,↓,down,↓,0.6243787000421435,True,33,1
MP-k-21K21S2,248,experiment,85,↓,down,↓,0.7385228001512587,True,33,1
MP-k-21K21S2,249,experiment,83,↓,down,↓,0.5611600999254733,True,33,1
MP-k-21K21S2,250,experiment,71,↓,down,↓,0.714840300148353,True,33,1
MP-k-21K21S2,251,experiment,93,←,left,←,0.7027166001498699,True,33,1
MP-k-21K21S2,252,experiment,86,→,right,→,0.6537333000451326,True,33,1
MP-k-21K21S2,253,experiment,89,→,right,→,0.47806540015153587,True,33,1
MP-k-21K21S2,254,experiment,58,←,left,←,0.7672942001372576,True,33,1
MP-k-21K21S2,255,experiment,90,→,right,→,0.6103383000008762,True,33,1
MP-k-21K21S2,256,experiment,56,→,right,→,0.5191879000049084,True,33,1
MP-k-21K21S2,257,experiment,82,↓,down,↓,0.7265963999088854,True,33,1
MP-k-21K21S2,258,experiment,65,→,right,→,0.47604950005188584,True,33,1
MP-k-21K21S2,259,experiment,87,→,right,→,0.4915628999006003,True,33,1
MP-k-21K21S2,260,experiment,101,←,left,←,0.5097008000593632,True,33,1
MP-k-21K21S2,261,experiment,60,↑,up,↑,0.5254977000877261,True,33,1
MP-k-21K21S2,262,experiment,96,←,left,←,0.6400303998962045,True,33,1
MP-k-21K21S2,263,experiment,74,→,right,→,0.5257921998854727,True,33,1
MP-k-21K21S2,264,experiment,102,→,right,→,0.47050780011340976,True,33,1
MP-k-21K21S2,265,experiment,63,↓,down,↓,0.6299074999988079,True,33,1
MP-k-21K21S2,266,experiment,106,←,left,←,0.640750499907881,True,33,1
MP-k-21K21S2,267,experiment,108,↓,down,↓,0.530975200003013,True,33,1
MP-k-21K21S2,268,experiment,76,↓,down,↓,0.5000092999543995,True,33,1
MP-k-21K21S2,269,experiment,54,↑,up,↑,1.0296503999270499,True,33,1
MP-k-21K21S2,270,experiment,92,←,left,←,0.5175409999210387,True,33,1
MP-k-21K21S2,271,experiment,91,↑,up,↑,0.4662553002126515,True,33,1
MP-k-21K21S2,272,experiment,84,→,right,→,0.48325460008345544,True,33,1
MP-k-21K21S2,273,experiment,73,↓,down,↓,0.5911707999184728,True,33,1
MP-k-21K21S2,274,experiment,59,←,left,←,0.9637741998303682,True,33,1
MP-k-21K21S2,275,experiment,52,←,left,←,0.7084729999769479,True,33,1
MP-k-21K21S2,276,experiment,55,→,right,→,0.4928923000115901,True,33,1
MP-k-21K21S2,277,experiment,70,→,right,→,0.4253683998249471,True,33,1
MP-k-21K21S2,278,experiment,95,→,right,→,0.5842128999065608,True,33,0
MP-k-21K21S2,279,experiment,61,↑,up,↑,0.4845935998018831,True,33,1
MP-k-21K21S2,280,experiment,72,↓,down,↓,0.584667099872604,True,33,1
MP-k-21K21S2,281,experiment,66,↑,down,↓,0.8432102999649942,False,33,1
MP-k-21K21S2,282,experiment,77,→,right,→,0.4715714999474585,True,33,1
MP-k-21K21S2,283,experiment,105,←,left,←,0.529183299979195,True,33,1
MP-k-21K21S2,284,experiment,88,←,right,→,0.41755440016277134,False,33,1
MP-k-21K21S2,285,experiment,69,↓,down,↓,0.6384573001414537,True,33,0
MP-k-21K21S2,286,experiment,53,→,right,→,0.4989022999070585,True,33,1
MP-k-21K21S2,287,experiment,62,↓,down,↓,0.6099374000914395,True,33,1
MP-k-21K21S2,288,experiment,50,↑,down,↓,0.680588599992916,False,33,1
MP-k-21K21S2,289,experiment,48,↑,up,↑,0.6532848998904228,True,33,1
MP-k-21K21S2,290,experiment,57,↓,down,↓,0.7038298000115901,True,33,1
MP-k-21K21S2,291,experiment,51,←,left,←,0.5625893000978976,True,33,1
MP-k-21K21S2,292,experiment,98,↑,up,↑,0.6350215999409556,True,33,1
MP-k-21K21S2,293,training,83,↓,down,↓,0.6643099999055266,True,32,0
MP-k-21K21S2,294,training,68,←,left,←,0.8306549000553787,True,32,1
MP-k-21K21S2,295,experiment,58,↓,down,↓,0.593913699965924,True,32,1
MP-k-21K21S2,296,experiment,80,↑,up,↑,0.487233400112018,True,32,1
MP-k-21K21S2,297,experiment,106,↓,down,↓,0.5760969000402838,True,32,1
MP-k-21K21S2,298,experiment,67,↓,down,↓,0.6105249000247568,True,32,1
MP-k-21K21S2,299,experiment,99,↓,down,↓,0.5530520000029355,True,32,1
MP-k-21K21S2,300,experiment,95,←,left,←,0.690994800068438,True,32,1
MP-k-21K21S2,301,experiment,57,↑,up,↑,0.6040312999393791,True,32,1
MP-k-21K21S2,302,experiment,98,←,left,←,0.5072157999966294,True,32,1
MP-k-21K21S2,303,experiment,62,↓,down,↓,0.5542339000385255,True,32,1
MP-k-21K21S2,304,experiment,85,→,right,→,0.5191617000382394,True,32,1
MP-k-21K21S2,305,experiment,51,↑,up,↑,0.5052866998594254,True,32,1
MP-k-21K21S2,306,experiment,74,↓,down,↓,0.4761270999442786,True,32,1
MP-k-21K21S2,307,experiment,90,←,left,←,0.6988951000384986,True,32,1
MP-k-21K21S2,308,experiment,59,←,left,←,0.48283540015108883,True,32,1
MP-k-21K21S2,309,experiment,61,↓,down,↓,0.587303499924019,True,32,1
MP-k-21K21S2,310,experiment,72,↓,down,↓,0.6193972998298705,True,32,1
MP-k-21K21S2,311,experiment,52,↑,up,↑,0.5371290999464691,True,32,1
MP-k-21K21S2,312,experiment,84,↑,up,↑,0.5357419999781996,True,32,1
MP-k-21K21S2,313,experiment,53,↑,up,↑,0.624385799979791,True,32,1
MP-k-21K21S2,314,experiment,102,←,left,←,0.5089344000443816,True,32,1
MP-k-21K21S2,315,experiment,94,←,left,←,0.48903079982846975,True,32,1
MP-k-21K21S2,316,experiment,88,→,right,→,0.6959784000646323,True,32,1
MP-k-21K21S2,317,experiment,65,←,left,←,0.5738132998812944,True,32,1
MP-k-21K21S2,318,experiment,48,↓,down,↓,0.6306785999331623,True,32,1
MP-k-21K21S2,319,experiment,82,↑,up,↑,0.4422464999370277,True,32,1
MP-k-21K21S2,320,experiment,77,→,right,→,0.48555590002797544,True,32,1
MP-k-21K21S2,321,experiment,60,←,left,←,0.8303527999669313,True,32,1
MP-k-21K21S2,322,experiment,49,←,left,←,0.7401731999125332,True,32,1
MP-k-21K21S2,323,experiment,86,→,right,→,0.4579349998384714,True,32,1
MP-k-21K21S2,324,experiment,78,↓,down,↓,0.62892090016976,True,32,1
MP-k-21K21S2,325,experiment,107,↓,down,↓,0.5200632000342011,True,32,1
MP-k-21K21S2,326,experiment,103,↑,up,↑,0.6088408001232892,True,32,1
MP-k-21K21S2,327,experiment,97,→,right,→,0.6237865998409688,True,32,1
MP-k-21K21S2,328,experiment,105,←,left,←,0.739470100030303,True,32,1
MP-k-21K21S2,329,experiment,100,→,right,→,0.6679024000186473,True,32,1
MP-k-21K21S2,330,experiment,71,←,left,←,0.489423600025475,True,32,1
MP-k-21K21S2,331,experiment,79,↓,down,↓,0.5552413000259548,True,32,1
MP-k-21K21S2,332,experiment,63,↑,up,↑,0.5837617998477072,True,32,1
MP-k-21K21S2,333,experiment,92,↑,up,↑,0.48935590009205043,True,32,1
MP-k-21K21S2,334,experiment,81,→,right,→,0.5064801000989974,True,32,1
MP-k-21K21S2,335,experiment,87,↑,up,↑,0.5607592999003828,True,32,1
MP-k-21K21S2,336,experiment,104,→,right,→,0.49564209999516606,True,32,1
MP-k-21K21S2,337,experiment,83,→,right,→,0.8402295999694616,True,32,1
MP-k-21K21S2,338,experiment,66,↑,up,↑,0.48818959994241595,True,32,1
MP-k-21K21S2,339,experiment,93,↓,down,↓,0.7170858001336455,True,32,1
MP-k-21K21S2,340,experiment,68,→,right,→,0.6176350000314415,True,32,1
MP-k-21K21S2,341,experiment,69,↑,up,↑,0.5373446000739932,True,32,1
MP-k-21K21S2,342,experiment,55,↑,up,↑,0.5060699000023305,True,32,1
MP-k-21K21S2,343,experiment,76,↓,down,↓,0.6518736998550594,True,32,1
MP-k-21K21S2,344,experiment,89,↑,up,↑,0.4364344000350684,True,32,1
MP-k-21K21S2,345,experiment,73,↑,up,↑,0.5051804000977427,True,32,0
MP-k-21K21S2,346,experiment,101,↑,up,↑,0.6593778999522328,True,32,1
MP-k-21K21S2,347,experiment,91,←,left,←,0.4903307999484241,True,32,1
MP-k-21K21S2,348,experiment,64,↓,down,↓,0.6089560999535024,True,32,1
MP-k-21K21S2,349,experiment,70,↑,up,↑,0.5130012000445276,True,32,1
MP-k-21K21S2,350,experiment,96,←,left,←,0.6041015998926014,True,32,1
MP-k-21K21S2,351,experiment,54,↑,up,↑,0.48205469991080463,True,32,1
MP-k-21K21S2,352,experiment,56,→,right,→,0.6516398000530899,True,32,1
MP-k-21K21S2,353,experiment,108,→,right,→,0.5492827000562102,True,32,1
MP-k-21K21S2,354,experiment,50,↑,up,↑,0.5023326000664383,True,32,1
MP-k-21K21S2,355,experiment,75,↑,up,↑,0.5770905998069793,True,32,1
MP-k-21K21S2,356,training,104,←,left,←,0.6983811999671161,True,31,0
MP-k-21K21S2,357,training,79,←,left,←,0.6037061999086291,True,31,1
MP-k-21K21S2,358,experiment,67,←,left,←,0.477103800047189,True,31,1
MP-k-21K21S2,359,experiment,107,←,left,←,0.6463895000051707,True,31,1
MP-k-21K21S2,360,experiment,73,↓,down,↓,0.6356797001790255,True,31,1
MP-k-21K21S2,361,experiment,53,↑,up,↑,0.4723288998939097,True,31,1
MP-k-21K21S2,362,experiment,96,←,left,←,0.4930578002240509,True,31,1
MP-k-21K21S2,363,experiment,108,←,left,←,0.500997900031507,True,31,1
MP-k-21K21S2,364,experiment,80,←,left,←,0.375899399863556,True,31,1
MP-k-21K21S2,365,experiment,64,→,right,→,0.777429899899289,True,31,0
MP-k-21K21S2,366,experiment,59,←,left,←,0.5823279998730868,True,31,1
MP-k-21K21S2,367,experiment,101,←,left,←,0.7090361001901329,True,31,1
MP-k-21K21S2,368,experiment,69,→,right,→,0.6174417000729591,True,31,1
MP-k-21K21S2,369,experiment,78,→,right,→,0.7186275999993086,True,31,1
MP-k-21K21S2,370,experiment,86,←,left,←,0.5249104001559317,True,31,1
MP-k-21K21S2,371,experiment,63,→,right,→,0.6747447000816464,True,31,1
MP-k-21K21S2,372,experiment,70,→,right,→,0.5359326000325382,True,31,1
MP-k-21K21S2,373,experiment,102,↑,up,↑,1.0083240000531077,True,31,1
MP-k-21K21S2,374,experiment,88,↑,up,↑,0.538312999997288,True,31,1
MP-k-21K21S2,375,experiment,55,↓,down,↓,0.7702879998832941,True,31,1
MP-k-21K21S2,376,experiment,90,↑,up,↑,0.6451033998746425,True,31,1
MP-k-21K21S2,377,experiment,95,→,right,→,0.5314964998979121,True,31,1
MP-k-21K21S2,378,experiment,103,←,left,←,0.5794456999283284,True,31,1
MP-k-21K21S2,379,experiment,94,↓,down,↓,1.028510499978438,True,31,1
MP-k-21K21S2,380,experiment,49,↓,down,↓,0.6828327998518944,True,31,1
MP-k-21K21S2,381,experiment,52,→,right,→,0.6940379999577999,True,31,1
MP-k-21K21S2,382,experiment,93,↑,up,↑,0.8030365998856723,True,31,1
MP-k-21K21S2,383,experiment,89,↑,up,↑,0.6131457001902163,True,31,1
MP-k-21K21S2,384,experiment,104,→,right,→,0.5375819001346827,True,31,1
MP-k-21K21S2,385,experiment,85,↓,down,↓,0.6631539000663906,True,31,1
MP-k-21K21S2,386,experiment,98,↓,down,↓,0.5879488999489695,True,31,1
MP-k-21K21S2,387,experiment,54,→,right,→,0.42639110004529357,True,31,1
MP-k-21K21S2,388,experiment,74,↓,down,↓,0.5835060998797417,True,31,0
MP-k-21K21S2,389,experiment,81,↓,down,↓,0.6370619998779148,True,31,1
MP-k-21K21S2,390,experiment,62,↑,up,↑,0.6467971000820398,True,31,1
MP-k-21K21S2,391,experiment,50,→,right,→,0.6918827001936734,True,31,1
MP-k-21K21S2,392,experiment,51,←,left,←,0.5750939999707043,True,31,1
MP-k-21K21S2,393,experiment,100,→,right,→,0.5903189000673592,True,31,1
MP-k-21K21S2,394,experiment,60,→,right,→,0.5305055999197066,True,31,1
MP-k-21K21S2,395,experiment,61,↑,up,↑,0.6404591000173241,True,31,1
MP-k-21K21S2,396,experiment,97,↑,up,↑,0.4942007998470217,True,31,1
MP-k-21K21S2,397,experiment,83,↑,up,↑,0.5826643998734653,True,31,1
MP-k-21K21S2,398,experiment,68,←,left,←,0.6483406000770628,True,31,1
MP-k-21K21S2,399,experiment,56,→,right,→,0.507270900066942,True,31,1
MP-k-21K21S2,400,experiment,87,↓,down,↓,0.6978366000112146,True,31,1
MP-k-21K21S2,401,experiment,66,↓,down,↓,0.9594382999930531,True,31,1
MP-k-21K21S2,402,experiment,84,→,right,→,0.4927660000976175,True,31,1
MP-k-21K21S2,403,experiment,57,↓,down,↓,0.5659250000026077,True,31,1
MP-k-21K21S2,404,experiment,82,↓,down,↓,0.6516526001505554,True,31,1
MP-k-21K21S2,405,experiment,106,→,right,→,0.48601879994384944,True,31,1
MP-k-21K21S2,406,experiment,79,→,right,→,0.47227289993315935,True,31,1
MP-k-21K21S2,407,experiment,92,↑,up,↑,0.48618609993718565,True,31,1
MP-k-21K21S2,408,experiment,72,↓,down,↓,0.5865279999561608,True,31,1
MP-k-21K21S2,409,experiment,65,↓,down,↓,0.5813478999771178,True,31,1
MP-k-21K21S2,410,experiment,75,←,left,←,0.6606976001057774,True,31,1
MP-k-21K21S2,411,experiment,76,↑,up,↑,0.47294029989279807,True,31,1
MP-k-21K21S2,412,experiment,48,↑,up,↑,0.7019921001046896,True,31,1
MP-k-21K21S2,413,experiment,77,↑,up,↑,0.5116129999514669,True,31,1
MP-k-21K21S2,414,experiment,71,↓,down,↓,0.5713462999556214,True,31,1
MP-k-21K21S2,415,experiment,58,←,right,→,0.7929609001148492,False,31,1
MP-k-21K21S2,416,experiment,99,↑,up,↑,0.6318565998226404,True,31,1
MP-k-21K21S2,417,experiment,91,↓,down,↓,0.6325121999252588,True,31,1
MP-k-21K21S2,418,experiment,105,→,right,→,0.5232422000262886,True,31,1
MP-k-21K21S2,419,training,77,↓,down,↓,0.519827299984172,True,30,0
MP-k-21K21S2,420,training,48,↑,up,↑,0.46694489987567067,True,30,1
MP-k-21K21S2,421,experiment,108,→,right,→,0.38414910016581416,True,30,1
MP-k-21K21S2,422,experiment,103,→,left,←,0.729304000036791,False,30,0
MP-k-21K21S2,423,experiment,63,←,left,←,0.6386871000286192,True,30,1
MP-k-21K21S2,424,experiment,57,↓,down,↓,0.5941685999277979,True,30,1
MP-k-21K21S2,425,experiment,72,↑,up,↑,0.546044500079006,True,30,1
MP-k-21K21S2,426,experiment,89,↓,down,↓,0.6541176000609994,True,30,1
MP-k-21K21S2,427,experiment,97,↑,up,↑,0.6512911999598145,True,30,1
MP-k-21K21S2,428,experiment,80,↓,up,↑,0.6941038998775184,False,30,1
MP-k-21K21S2,429,experiment,62,↑,up,↑,0.645526299951598,True,30,1
MP-k-21K21S2,430,experiment,84,↑,up,↑,0.7597558998968452,True,30,1
MP-k-21K21S2,431,experiment,90,↑,up,↑,0.7709713999647647,True,30,1
MP-k-21K21S2,432,experiment,65,←,left,←,0.46983019984327257,True,30,1
MP-k-21K21S2,433,experiment,105,↑,up,↑,0.6401251000352204,True,30,1
MP-k-21K21S2,434,experiment,94,↓,up,↑,0.7427787999622524,False,30,1
MP-k-21K21S2,435,experiment,96,↑,up,↑,0.6169067001901567,True,30,1
MP-k-21K21S2,436,experiment,92,→,right,→,0.5612280999775976,True,30,1
MP-k-21K21S2,437,experiment,48,↓,down,↓,0.6667325000744313,True,30,1
MP-k-21K21S2,438,experiment,64,↑,up,↑,0.5463409000076354,True,30,1
MP-k-21K21S2,439,experiment,76,↑,up,↑,0.5152315001469105,True,30,1
MP-k-21K21S2,440,experiment,51,→,right,→,0.5572400998789817,True,30,1
MP-k-21K21S2,441,experiment,70,→,right,→,0.48739499994553626,True,30,1
MP-k-21K21S2,442,experiment,86,↓,up,↑,0.6067351999226958,False,30,1
MP-k-21K21S2,443,experiment,95,←,left,←,0.5424379000905901,True,30,1
MP-k-21K21S2,444,experiment,78,↑,up,↑,0.6702984999865294,True,30,1
MP-k-21K21S2,445,experiment,98,←,left,←,0.4988636998459697,True,30,1
MP-k-21K21S2,446,experiment,82,←,left,←,0.66725689987652,True,30,1
MP-k-21K21S2,447,experiment,85,←,left,←,0.6040103998966515,True,30,1
MP-k-21K21S2,448,experiment,79,↑,up,↑,0.5292774999979883,True,30,1
MP-k-21K21S2,449,experiment,52,←,right,→,0.6183966000098735,False,30,1
MP-k-21K21S2,450,experiment,55,↓,down,↓,0.7990849001798779,True,30,1
MP-k-21K21S2,451,experiment,102,→,right,→,0.5249012000858784,True,30,1
MP-k-21K21S2,452,experiment,56,←,left,←,0.6767982000019401,True,30,1
MP-k-21K21S2,453,experiment,100,↓,down,↓,0.7200121998321265,True,30,1
MP-k-21K21S2,454,experiment,59,→,right,→,0.6555701000615954,True,30,1
MP-k-21K21S2,455,experiment,69,↑,up,↑,0.6378480999264866,True,30,1
MP-k-21K21S2,456,experiment,101,↓,down,↓,0.634248899994418,True,30,1
MP-k-21K21S2,457,experiment,66,↑,up,↑,0.562706699827686,True,30,1
MP-k-21K21S2,458,experiment,60,→,right,→,0.6398384000640363,True,30,1
MP-k-21K21S2,459,experiment,61,→,right,→,0.6254781000316143,True,30,1
MP-k-21K21S2,460,experiment,58,↑,up,↑,0.5812222000677139,True,30,1
MP-k-21K21S2,461,experiment,107,↓,down,↓,0.5614483000244945,True,30,1
MP-k-21K21S2,462,experiment,93,←,left,←,0.5560552000533789,True,30,1
MP-k-21K21S2,463,experiment,106,←,left,←,0.49810800002887845,True,30,1
MP-k-21K21S2,464,experiment,77,↑,up,↑,0.6204274001065642,True,30,1
MP-k-21K21S2,465,experiment,88,←,left,←,0.6379587000701576,True,30,1
MP-k-21K21S2,466,experiment,83,→,right,→,0.7043004999868572,True,30,1
MP-k-21K21S2,467,experiment,53,↑,up,↑,0.6581352001521736,True,30,1
MP-k-21K21S2,468,experiment,104,↑,up,↑,0.46067459997721016,True,30,1
MP-k-21K21S2,469,experiment,54,←,left,←,0.6646155999042094,True,30,1
MP-k-21K21S2,470,experiment,67,→,right,→,0.5110178999602795,True,30,1
MP-k-21K21S2,471,experiment,87,←,left,←,0.5014591000508517,True,30,1
MP-k-21K21S2,472,experiment,50,←,left,←,0.5044070000294596,True,30,1
MP-k-21K21S2,473,experiment,99,←,left,←,0.41977949999272823,True,30,1
MP-k-21K21S2,474,experiment,73,→,right,→,0.6334891999140382,True,30,0
MP-k-21K21S2,475,experiment,68,↓,down,↓,0.8093157999683172,True,30,1
MP-k-21K21S2,476,experiment,75,←,left,←,0.5115827000699937,True,30,1
MP-k-21K21S2,477,experiment,71,→,right,→,0.45936329988762736,True,30,1
MP-k-21K21S2,478,experiment,91,↓,down,↓,0.5224232999607921,True,30,1
MP-k-21K21S2,479,experiment,74,→,right,→,0.5165188999380916,True,30,1
MP-k-21K21S2,480,experiment,49,←,left,←,0.7031968999654055,True,30,1
MP-k-21K21S2,481,experiment,81,←,left,←,0.8079176000319421,True,30,1
MP-k-21K21S2,482,training,106,→,right,→,0.43399740010499954,True,29,0
MP-k-21K21S2,483,training,105,→,right,→,0.7892330999020487,True,29,1
MP-k-21K21S2,484,experiment,88,→,right,→,0.5119453000370413,True,29,1
MP-k-21K21S2,485,experiment,52,→,right,→,0.4737851000390947,True,29,1
MP-k-21K21S2,486,experiment,66,←,left,←,0.6468841000460088,True,29,1
MP-k-21K21S2,487,experiment,61,←,left,←,0.488497800193727,True,29,1
MP-k-21K21S2,488,experiment,69,↑,up,↑,0.8854306999128312,True,29,1
MP-k-21K21S2,489,experiment,103,←,right,→,0.7033633000683039,False,29,1
MP-k-21K21S2,490,experiment,59,←,left,←,0.4796144999563694,True,29,1
MP-k-21K21S2,491,experiment,100,↓,down,↓,0.6505299001000822,True,29,1
MP-k-21K21S2,492,experiment,78,→,right,→,0.46245059999637306,True,29,1
MP-k-21K21S2,493,experiment,67,←,left,←,0.5249563998077065,True,29,1
MP-k-21K21S2,494,experiment,63,←,left,←,0.46676449989899993,True,29,1
MP-k-21K21S2,495,experiment,68,←,left,←,0.41724950005300343,True,29,1
MP-k-21K21S2,496,experiment,91,←,left,←,0.5140865000430495,True,29,0
MP-k-21K21S2,497,experiment,62,→,left,←,0.4564288998953998,False,29,1
MP-k-21K21S2,498,experiment,70,↓,down,↓,0.6144771000836045,True,29,1
MP-k-21K21S2,499,experiment,87,→,right,→,0.44077209988608956,True,29,1
MP-k-21K21S2,500,experiment,73,↓,down,↓,0.8784440997987986,True,29,1
MP-k-21K21S2,501,experiment,90,↓,down,↓,0.5011350999120623,True,29,1
MP-k-21K21S2,502,experiment,48,↓,down,↓,0.4087570998817682,True,29,1
MP-k-21K21S2,503,experiment,94,←,left,←,0.5203888001851737,True,29,0
MP-k-21K21S2,504,experiment,84,←,left,←,0.5514376000501215,True,29,1
MP-k-21K21S2,505,experiment,83,↓,down,↓,0.5900748998392373,True,29,1
MP-k-21K21S2,506,experiment,95,→,right,→,0.4704644000157714,True,29,1
MP-k-21K21S2,507,experiment,72,↓,down,↓,0.650851699989289,True,29,1
MP-k-21K21S2,508,experiment,65,↓,down,↓,0.5631428000051528,True,29,1
MP-k-21K21S2,509,experiment,74,↓,down,↓,0.5317811998538673,True,29,1
MP-k-21K21S2,510,experiment,77,←,left,←,0.5645314999856055,True,29,1
MP-k-21K21S2,511,experiment,105,←,left,←,0.4985847999341786,True,29,1
MP-k-21K21S2,512,experiment,53,↑,up,↑,0.5484863999299705,True,29,1
MP-k-21K21S2,513,experiment,81,→,right,→,0.5554091001395136,True,29,1
MP-k-21K21S2,514,experiment,92,↓,down,↓,0.5343738000374287,True,29,1
MP-k-21K21S2,515,experiment,76,↑,up,↑,0.6792645000386983,True,29,1
MP-k-21K21S2,516,experiment,98,↑,up,↑,0.803230700083077,True,29,1
MP-k-21K21S2,517,experiment,85,←,left,←,0.6227792999707162,True,29,1
MP-k-21K21S2,518,experiment,102,↓,down,↓,0.6993454000912607,True,29,1
MP-k-21K21S2,519,experiment,80,←,left,←,0.4448335999622941,True,29,1
MP-k-21K21S2,520,experiment,104,↑,up,↑,0.6796027000527829,True,29,1
MP-k-21K21S2,521,experiment,99,↓,down,↓,0.5550603999290615,True,29,1
MP-k-21K21S2,522,experiment,96,←,left,←,0.5803992000874132,True,29,1
MP-k-21K21S2,523,experiment,106,←,left,←,0.5214690000284463,True,29,1
MP-k-21K21S2,524,experiment,56,→,right,→,0.4895796999335289,True,29,1
MP-k-21K21S2,525,experiment,82,←,left,←,0.6582190000917763,True,29,1
MP-k-21K21S2,526,experiment,89,↑,up,↑,0.5300358000677079,True,29,1
MP-k-21K21S2,527,experiment,75,↓,down,↓,0.5715728001669049,True,29,1
MP-k-21K21S2,528,experiment,71,↑,up,↑,0.7404670000541955,True,29,1
MP-k-21K21S2,529,experiment,54,←,left,←,0.5086847001221031,True,29,1
MP-k-21K21S2,530,experiment,51,←,left,←,0.4716547999996692,True,29,1
MP-k-21K21S2,531,experiment,101,←,left,←,0.5544336000457406,True,29,1
MP-k-21K21S2,532,experiment,55,↑,up,↑,0.6816467999015003,True,29,1
MP-k-21K21S2,533,experiment,50,↑,right,→,0.9891650001518428,False,29,1
MP-k-21K21S2,534,experiment,107,←,left,←,0.7134273000992835,True,29,1
MP-k-21K21S2,535,experiment,58,↑,down,↓,0.8011583001352847,False,29,1
MP-k-21K21S2,536,experiment,49,→,right,→,0.6726281999144703,True,29,1
MP-k-21K21S2,537,experiment,79,→,right,→,0.5630378001369536,True,29,1
MP-k-21K21S2,538,experiment,60,←,right,→,0.8160790000110865,False,29,1
MP-k-21K21S2,539,experiment,108,↑,up,↑,1.1550310999155045,True,29,1
MP-k-21K21S2,540,experiment,97,←,left,←,0.5241310000419617,True,29,1
MP-k-21K21S2,541,experiment,93,↓,up,↑,0.87168850004673,False,29,1
MP-k-21K21S2,542,experiment,86,←,left,←,0.6557384999468923,True,29,1
MP-k-21K21S2,543,experiment,64,↑,up,↑,0.727901500184089,True,29,1
MP-k-21K21S2,544,experiment,57,↓,down,↓,0.5995185000356287,True,29,1
MP-k-21K21S2,545,training,79,←,left,←,0.9323589999694377,True,28,0
MP-k-21K21S2,546,training,64,←,left,←,0.6891256000380963,True,28,1
MP-k-21K21S2,547,experiment,108,→,right,→,0.47319000004790723,True,28,1
MP-k-21K21S2,548,experiment,105,←,left,←,0.5708203001413494,True,28,1
MP-k-21K21S2,549,experiment,62,←,left,←,0.47122250008396804,True,28,1
MP-k-21K21S2,550,experiment,101,→,right,→,0.5222563000861555,True,28,1
MP-k-21K21S2,551,experiment,84,↑,down,↓,0.7132713000755757,False,28,1
MP-k-21K21S2,552,experiment,50,↓,down,↓,0.6435396000742912,True,28,1
MP-k-21K21S2,553,experiment,90,←,left,←,0.7314746999181807,True,28,1
MP-k-21K21S2,554,experiment,71,↑,down,↓,0.6382045999635011,False,28,1
MP-k-21K21S2,555,experiment,53,↑,up,↑,0.650971099967137,True,28,1
MP-k-21K21S2,556,experiment,49,↓,down,↓,0.5444412999786437,True,28,1
MP-k-21K21S2,557,experiment,96,←,left,←,0.49065240006893873,True,28,1
MP-k-21K21S2,558,experiment,106,←,left,←,0.4911203000228852,True,28,1
MP-k-21K21S2,559,experiment,94,←,left,←,0.6398459998890758,True,28,1
MP-k-21K21S2,560,experiment,61,↑,up,↑,0.5296604000031948,True,28,1
MP-k-21K21S2,561,experiment,72,↑,up,↑,0.6045468999072909,True,28,1
MP-k-21K21S2,562,experiment,102,↑,up,↑,0.553927400149405,True,28,1
MP-k-21K21S2,563,experiment,63,↓,down,↓,1.1263971999287605,True,28,1
MP-k-21K21S2,564,experiment,104,←,down,↓,0.8065332998521626,False,28,1
MP-k-21K21S2,565,experiment,78,↓,down,↓,0.6599283998366445,True,28,1
MP-k-21K21S2,566,experiment,67,↑,up,↑,0.5468389999587089,True,28,1
MP-k-21K21S2,567,experiment,54,→,down,↓,1.1306171999312937,False,28,1
MP-k-21K21S2,568,experiment,103,↑,down,↓,0.7466033999808133,False,28,1
MP-k-21K21S2,569,experiment,76,←,right,→,0.9869239998515695,False,28,1
MP-k-21K21S2,570,experiment,57,→,right,→,0.6161472001112998,True,28,1
MP-k-21K21S2,571,experiment,68,←,left,←,0.8006093001458794,True,28,1
MP-k-21K21S2,572,experiment,55,↑,down,↓,0.8303039001766592,False,28,1
MP-k-21K21S2,573,experiment,91,↓,down,↓,0.6220760000869632,True,28,1
MP-k-21K21S2,574,experiment,100,→,right,→,1.1874608998186886,True,28,1
MP-k-21K21S2,575,experiment,87,←,down,↓,0.7344279999379069,False,28,1
MP-k-21K21S2,576,experiment,85,↑,up,↑,0.5725787000264972,True,28,1
MP-k-21K21S2,577,experiment,66,↑,up,↑,0.607178800040856,True,28,1
MP-k-21K21S2,578,experiment,64,→,up,↑,0.8572716000489891,False,28,1
MP-k-21K21S2,579,experiment,88,←,left,←,0.6332553999964148,True,28,1
MP-k-21K21S2,580,experiment,82,↑,up,↑,0.5965682999230921,True,28,1
MP-k-21K21S2,581,experiment,99,↑,up,↑,0.7473440000321716,True,28,1
MP-k-21K21S2,582,experiment,48,↑,up,↑,0.6532223001122475,True,28,1
MP-k-21K21S2,583,experiment,95,↓,down,↓,0.8351843000855297,True,28,1
MP-k-21K21S2,584,experiment,89,↑,down,↓,0.7797882000450045,False,28,1
MP-k-21K21S2,585,experiment,92,↓,down,↓,0.6454966999590397,True,28,1
MP-k-21K21S2,586,experiment,51,↓,down,↓,0.7064846998546273,True,28,1
MP-k-21K21S2,587,experiment,56,←,left,←,0.7232991999480873,True,28,1
MP-k-21K21S2,588,experiment,59,←,left,←,0.5623262000735849,True,28,1
MP-k-21K21S2,589,experiment,60,↑,down,↓,0.7999251000583172,False,28,1
MP-k-21K21S2,590,experiment,70,→,down,↓,0.7040109999943525,False,28,1
MP-k-21K21S2,591,experiment,73,←,left,←,0.8431766000576317,True,28,1
MP-k-21K21S2,592,experiment,98,↓,down,↓,0.5446476000361145,True,28,1
MP-k-21K21S2,593,experiment,86,←,down,↓,0.598312099929899,False,28,1
MP-k-21K21S2,594,experiment,58,←,left,←,0.5144917999859899,True,28,1
MP-k-21K21S2,595,experiment,79,→,right,→,0.6277501999866217,True,28,1
MP-k-21K21S2,596,experiment,75,↓,down,↓,0.792836399981752,True,28,1
MP-k-21K21S2,597,experiment,83,↓,down,↓,0.8453209998551756,True,28,1
MP-k-21K21S2,598,experiment,80,↑,up,↑,0.5125233998987824,True,28,1
MP-k-21K21S2,599,experiment,77,↓,down,↓,0.6020654998719692,True,28,1
MP-k-21K21S2,600,experiment,52,↑,down,↓,0.5841137999668717,False,28,1
MP-k-21K21S2,601,experiment,93,←,left,←,0.6976727999281138,True,28,1
MP-k-21K21S2,602,experiment,97,↓,down,↓,0.5571701000444591,True,28,1
MP-k-21K21S2,603,experiment,65,→,right,→,0.5291094998829067,True,28,1
MP-k-21K21S2,604,experiment,81,↓,down,↓,0.5202303999103606,True,28,1
MP-k-21K21S2,605,experiment,107,←,down,↓,0.6636830000206828,False,28,1
MP-k-21K21S2,606,experiment,74,↓,down,↓,0.6519683999940753,True,28,1
MP-k-21K21S2,607,experiment,69,↓,down,↓,0.5868755001574755,True,28,1
MP-k-21K21S2,608,training,57,←,right,→,0.9085473001468927,False,28,0
MP-k-21K21S2,609,training,51,→,right,→,0.47893600002862513,True,28,1
MP-k-21K21S2,610,experiment,49,←,left,←,0.5711292999330908,True,28,1
MP-k-21K21S2,611,experiment,107,←,left,←,0.6485423999838531,True,28,1
MP-k-21K21S2,612,experiment,99,↓,down,↓,0.8610626999288797,True,28,1
MP-k-21K21S2,613,experiment,61,↑,down,↓,0.8144161999225616,False,28,1
MP-k-21K21S2,614,experiment,54,↑,down,↓,0.747519499855116,False,28,1
MP-k-21K21S2,615,experiment,86,↓,down,↓,0.5603891001082957,True,28,1
MP-k-21K21S2,616,experiment,90,↑,up,↑,0.5396351998206228,True,28,1
MP-k-21K21S2,617,experiment,55,→,right,→,0.9316801999229938,True,28,1
MP-k-21K21S2,618,experiment,51,→,right,→,0.7087356001138687,True,28,1
MP-k-21K21S2,619,experiment,102,↓,down,↓,0.6863779001869261,True,28,1
MP-k-21K21S2,620,experiment,108,←,left,←,1.1104796000290662,True,28,1
MP-k-21K21S2,621,experiment,71,←,left,←,0.6663100000005215,True,28,1
MP-k-21K21S2,622,experiment,60,↓,down,↓,0.6431637001223862,True,28,1
MP-k-21K21S2,623,experiment,80,↑,up,↑,0.5266062000300735,True,28,1
MP-k-21K21S2,624,experiment,64,→,right,→,0.5720297999214381,True,28,1
MP-k-21K21S2,625,experiment,79,↓,down,↓,0.5466469000093639,True,28,1
MP-k-21K21S2,626,experiment,59,→,right,→,0.5526318999473006,True,28,1
MP-k-21K21S2,627,experiment,56,↑,down,↓,0.6797286998480558,False,28,1
MP-k-21K21S2,628,experiment,95,↑,down,↓,1.3007068000733852,False,28,1
MP-k-21K21S2,629,experiment,58,↑,up,↑,0.61316949990578,True,28,1
MP-k-21K21S2,630,experiment,72,↓,down,↓,0.6443066000938416,True,28,1
MP-k-21K21S2,631,experiment,50,↑,down,↓,0.8415463001001626,False,28,1
MP-k-21K21S2,632,experiment,89,→,right,→,0.545887699816376,True,28,1
MP-k-21K21S2,633,experiment,82,→,right,→,0.5604173999745399,True,28,1
MP-k-21K21S2,634,experiment,73,←,left,←,0.8336569000966847,True,28,1
MP-k-21K21S2,635,experiment,85,←,right,→,1.3398799998685718,False,28,1
MP-k-21K21S2,636,experiment,87,↑,down,↓,0.6889761998318136,False,28,1
MP-k-21K21S2,637,experiment,66,↓,down,↓,0.6308891999069601,True,28,1
MP-k-21K21S2,638,experiment,81,←,left,←,0.5060060999821872,True,28,1
MP-k-21K21S2,639,experiment,88,←,left,←,0.6001278001349419,True,28,1
MP-k-21K21S2,640,experiment,105,↓,down,↓,0.5889023998752236,True,28,1
MP-k-21K21S2,641,experiment,53,←,down,↓,0.803188000107184,False,28,1
MP-k-21K21S2,642,experiment,106,↓,down,↓,0.7036911000031978,True,28,1
MP-k-21K21S2,643,experiment,96,↓,down,↓,0.6351819999981672,True,28,1
MP-k-21K21S2,644,experiment,101,←,left,←,0.639934399863705,True,28,1
MP-k-21K21S2,645,experiment,77,←,down,↓,0.7005266998894513,False,28,1
MP-k-21K21S2,646,experiment,65,↓,down,↓,0.46637689997442067,True,28,1
MP-k-21K21S2,647,experiment,97,←,left,←,0.7273518999572843,True,28,1
MP-k-21K21S2,648,experiment,62,←,left,←,0.5333521000575274,True,28,1
MP-k-21K21S2,649,experiment,78,↑,down,↓,0.7497558000031859,False,28,1
MP-k-21K21S2,650,experiment,83,→,left,←,0.5957204999867827,False,28,1
MP-k-21K21S2,651,experiment,94,↓,down,↓,0.587903399951756,True,28,1
MP-k-21K21S2,652,experiment,69,↑,up,↑,0.6851656998042017,True,28,1
MP-k-21K21S2,653,experiment,68,→,right,→,0.46680940012447536,True,28,1
MP-k-21K21S2,654,experiment,104,↓,down,↓,0.629011900164187,True,28,1
MP-k-21K21S2,655,experiment,63,←,left,←,0.6704927999526262,True,28,1
MP-k-21K21S2,656,experiment,52,↓,down,↓,0.5781926999334246,True,28,1
MP-k-21K21S2,657,experiment,75,↓,down,↓,0.46620970009826124,True,28,1
MP-k-21K21S2,658,experiment,74,↓,down,↓,0.5584914998617023,True,28,1
MP-k-21K21S2,659,experiment,98,←,right,→,0.5112485000863671,False,28,1
MP-k-21K21S2,660,experiment,76,↑,up,↑,0.7531556999310851,True,28,1
MP-k-21K21S2,661,experiment,91,↑,down,↓,0.6525040999986231,False,28,1
MP-k-21K21S2,662,experiment,92,←,left,←,0.5875926001463085,True,28,1
MP-k-21K21S2,663,experiment,93,↑,up,↑,0.5964881000109017,True,28,1
MP-k-21K21S2,664,experiment,70,↑,up,↑,0.45330659998580813,True,28,1
MP-k-21K21S2,665,experiment,67,↑,down,↓,0.6368635001126677,False,28,1
MP-k-21K21S2,666,experiment,100,←,left,←,0.4578062000218779,True,28,1
MP-k-21K21S2,667,experiment,84,←,left,←,0.45928880013525486,True,28,1
MP-k-21K21S2,668,experiment,103,←,left,←,0.5582812998909503,True,28,1
MP-k-21K21S2,669,experiment,48,←,left,←,0.45593310007825494,True,28,1
MP-k-21K21S2,670,experiment,57,↓,down,↓,0.6421912999358028,True,28,1
MP-k-21K21S2,671,training,103,←,left,←,0.4449523000512272,True,28,0
MP-k-21K21S2,672,training,63,↓,down,↓,0.5498114998918027,True,28,1
MP-k-21K21S2,673,experiment,86,↑,up,↑,0.6432396001182497,True,28,1
MP-k-21K21S2,674,experiment,93,→,right,→,0.4900857999455184,True,28,1
MP-k-21K21S2,675,experiment,90,↓,down,↓,0.5203138999640942,True,28,1
MP-k-21K21S2,676,experiment,52,→,right,→,0.45809580013155937,True,28,1
MP-k-21K21S2,677,experiment,65,→,right,→,0.6177354999817908,True,28,1
MP-k-21K21S2,678,experiment,100,←,left,←,0.43918139999732375,True,28,1
MP-k-21K21S2,679,experiment,55,↑,up,↑,0.6033626000862569,True,28,1
MP-k-21K21S2,680,experiment,103,→,right,→,0.4489261999260634,True,28,1
MP-k-21K21S2,681,experiment,60,↓,down,↓,0.4662649999372661,True,28,1
MP-k-21K21S2,682,experiment,83,→,right,→,0.46764690009877086,True,28,1
MP-k-21K21S2,683,experiment,99,↓,down,↓,0.46368549996986985,True,28,1
MP-k-21K21S2,684,experiment,104,↑,down,↓,0.8422848999034613,False,28,1
MP-k-21K21S2,685,experiment,53,←,up,↑,0.5746082998812199,False,28,1
MP-k-21K21S2,686,experiment,74,↓,up,↑,0.6545218999963254,False,28,1
MP-k-21K21S2,687,experiment,76,←,left,←,0.594725799979642,True,28,1
MP-k-21K21S2,688,experiment,108,→,right,→,0.5591149998363107,True,28,1
MP-k-21K21S2,689,experiment,87,←,right,→,0.5391187998466194,False,28,1
MP-k-21K21S2,690,experiment,59,→,right,→,0.6016830999869853,True,28,1
MP-k-21K21S2,691,experiment,48,↓,right,→,0.7051417001057416,False,28,1
MP-k-21K21S2,692,experiment,84,↓,up,↑,0.8487329001072794,False,28,1
MP-k-21K21S2,693,experiment,51,↓,down,↓,0.5894037000834942,True,28,1
MP-k-21K21S2,694,experiment,98,↑,down,↓,0.8128840001299977,False,28,1
MP-k-21K21S2,695,experiment,63,→,down,↓,0.7108079001773149,False,28,1
MP-k-21K21S2,696,experiment,72,←,left,←,0.7141234001610428,True,28,1
MP-k-21K21S2,697,experiment,57,↓,down,↓,0.5704149000812322,True,28,1
MP-k-21K21S2,698,experiment,85,→,right,→,0.4788007000461221,True,28,1
MP-k-21K21S2,699,experiment,67,↑,down,↓,0.6694496001582593,False,28,1
MP-k-21K21S2,700,experiment,94,↑,up,↑,0.5712452000007033,True,28,1
MP-k-21K21S2,701,experiment,69,→,right,→,0.5088462000712752,True,28,1
MP-k-21K21S2,702,experiment,62,↑,up,↑,0.5075418001506478,True,28,1
MP-k-21K21S2,703,experiment,70,↑,up,↑,0.46355580003000796,True,28,1
MP-k-21K21S2,704,experiment,97,←,left,←,0.4522328998427838,True,28,1
MP-k-21K21S2,705,experiment,80,↑,up,↑,0.447413100162521,True,28,1
MP-k-21K21S2,706,experiment,101,↑,up,↑,0.6114611998200417,True,28,1
MP-k-21K21S2,707,experiment,71,→,down,↓,0.9711926998570561,False,28,1
MP-k-21K21S2,708,experiment,78,↓,down,↓,0.5939183998852968,True,28,1
MP-k-21K21S2,709,experiment,54,→,right,→,0.43994229985401034,True,28,1
MP-k-21K21S2,710,experiment,58,←,left,←,0.48270760010927916,True,28,1
MP-k-21K21S2,711,experiment,73,↑,down,↓,0.6148866000585258,False,28,1
MP-k-21K21S2,712,experiment,107,↑,down,↓,0.5780537999235094,False,28,1
MP-k-21K21S2,713,experiment,64,→,right,→,0.5174304000101984,True,28,1
MP-k-21K21S2,714,experiment,105,→,right,→,0.597592500038445,True,28,1
MP-k-21K21S2,715,experiment,75,←,right,→,0.7084956001490355,False,28,1
MP-k-21K21S2,716,experiment,66,↑,down,↓,0.6737723001278937,False,28,1
MP-k-21K21S2,717,experiment,50,↑,up,↑,0.717727400129661,True,28,1
MP-k-21K21S2,718,experiment,106,↓,down,↓,0.789545200066641,True,28,1
MP-k-21K21S2,719,experiment,61,↓,down,↓,0.48114489996805787,True,28,1
MP-k-21K21S2,720,experiment,88,↑,down,↓,0.6484224998857826,False,28,1
MP-k-21K21S2,721,experiment,81,↓,down,↓,1.4271525000222027,True,28,1
MP-k-21K21S2,722,experiment,49,↑,down,↓,0.721223299857229,False,28,1
MP-k-21K21S2,723,experiment,79,→,right,→,0.4736808999441564,True,28,1
MP-k-21K21S2,724,experiment,95,↑,down,↓,0.6867607000749558,False,28,1
MP-k-21K21S2,725,experiment,89,←,down,↓,0.5653880001045763,False,28,1
MP-k-21K21S2,726,experiment,68,←,left,←,0.4878156001213938,True,28,1
MP-k-21K21S2,727,experiment,92,↓,down,↓,0.49367969995364547,True,28,1
MP-k-21K21S2,728,experiment,102,↓,down,↓,0.5914500998333097,True,28,1
MP-k-21K21S2,729,experiment,77,←,down,↓,0.6136608000379056,False,28,1
MP-k-21K21S2,730,experiment,91,←,left,←,0.486342899966985,True,28,1
MP-k-21K21S2,731,experiment,56,↑,down,↓,0.5760401000734419,False,28,1
MP-k-21K21S2,732,experiment,82,↓,down,↓,0.5257128998637199,True,28,1
MP-k-21K21S2,733,experiment,96,→,left,←,0.6163293998688459,False,28,1
MP-k-21K21S2,734,training,96,→,right,→,0.43220899999141693,True,28,0
MP-k-21K21S2,735,training,68,↓,down,↓,0.6396522999275476,True,28,1
MP-k-21K21S2,736,experiment,49,←,left,←,0.4216448001097888,True,28,1
MP-k-21K21S2,737,experiment,74,→,right,→,0.41210770001634955,True,28,1
MP-k-21K21S2,738,experiment,93,↓,down,↓,0.42788559990003705,True,28,1
MP-k-21K21S2,739,experiment,53,→,right,→,0.440320200053975,True,28,1
MP-k-21K21S2,740,experiment,102,↓,down,↓,0.5566282998770475,True,28,1
MP-k-21K21S2,741,experiment,66,→,right,→,0.44792879978194833,True,28,1
MP-k-21K21S2,742,experiment,51,↑,down,↓,0.5646226999815553,False,28,1
MP-k-21K21S2,743,experiment,75,↑,up,↑,0.6608462000731379,True,28,1
MP-k-21K21S2,744,experiment,55,↓,down,↓,0.5998745001852512,True,28,1
MP-k-21K21S2,745,experiment,99,→,left,←,0.7105016000568867,False,28,1
MP-k-21K21S2,746,experiment,95,↓,down,↓,0.562304699793458,True,28,1
MP-k-21K21S2,747,experiment,84,↓,down,↓,0.43954870011657476,True,28,1
MP-k-21K21S2,748,experiment,91,→,right,→,0.6715774000622332,True,28,1
MP-k-21K21S2,749,experiment,73,↑,up,↑,0.8117398999165744,True,28,1
MP-k-21K21S2,750,experiment,87,↑,down,↓,0.7180703999474645,False,28,1
MP-k-21K21S2,751,experiment,97,←,left,←,0.4409441000316292,True,28,1
MP-k-21K21S2,752,experiment,107,↑,up,↑,0.9789674999192357,True,28,1
MP-k-21K21S2,753,experiment,80,↓,down,↓,0.4651461001485586,True,28,1
MP-k-21K21S2,754,experiment,85,↑,up,↑,0.45805720007047057,True,28,1
MP-k-21K21S2,755,experiment,69,↑,up,↑,0.36687059979885817,True,28,1
MP-k-21K21S2,756,experiment,76,→,right,→,0.5117907000239938,True,28,0
MP-k-21K21S2,757,experiment,70,→,right,→,0.6437274999916553,True,28,1
MP-k-21K21S2,758,experiment,108,→,right,→,0.5176639999262989,True,28,1
MP-k-21K21S2,759,experiment,57,↑,up,↑,0.6140749000478536,True,28,1
MP-k-21K21S2,760,experiment,59,→,right,→,0.4653305998072028,True,28,1
MP-k-21K21S2,761,experiment,77,↑,up,↑,0.5089363001752645,True,28,1
MP-k-21K21S2,762,experiment,88,→,right,→,0.42710290011018515,True,28,1
MP-k-21K21S2,763,experiment,52,↑,up,↑,0.5202480999287218,True,28,1
MP-k-21K21S2,764,experiment,60,↓,up,↑,0.7194645998533815,False,28,1
MP-k-21K21S2,765,experiment,82,↑,up,↑,0.4872056001331657,True,28,1
MP-k-21K21S2,766,experiment,79,←,right,→,0.46515339985489845,False,28,1
MP-k-21K21S2,767,experiment,101,→,left,←,0.916531499940902,False,28,1
MP-k-21K21S2,768,experiment,81,↑,up,↑,0.636640900047496,True,28,1
MP-k-21K21S2,769,experiment,67,→,up,↑,0.6047447000164539,False,28,1
MP-k-21K21S2,770,experiment,106,→,right,→,0.5528984998818487,True,28,1
MP-k-21K21S2,771,experiment,90,←,left,←,0.5726978001184762,True,28,1
MP-k-21K21S2,772,experiment,64,↓,down,↓,0.5283280999865383,True,28,1
MP-k-21K21S2,773,experiment,48,←,down,↓,0.7948288000188768,False,28,1
MP-k-21K21S2,774,experiment,56,↓,down,↓,0.5041793000418693,True,28,1
MP-k-21K21S2,775,experiment,96,←,left,←,0.427772399969399,True,28,1
MP-k-21K21S2,776,experiment,105,→,right,→,0.7193215999286622,True,28,1
MP-k-21K21S2,777,experiment,94,↑,down,↓,0.555113899987191,False,28,1
MP-k-21K21S2,778,experiment,92,←,left,←,0.4537008998449892,True,28,1
MP-k-21K21S2,779,experiment,103,↑,down,↓,0.5931178000755608,False,28,1
MP-k-21K21S2,780,experiment,98,↑,down,↓,0.5926975999027491,False,28,1
MP-k-21K21S2,781,experiment,65,↑,up,↑,0.4116225999314338,True,28,1
MP-k-21K21S2,782,experiment,50,→,right,→,0.6813093998935074,True,28,1
MP-k-21K21S2,783,experiment,58,→,down,↓,1.0345790998544544,False,28,1
MP-k-21K21S2,784,experiment,78,↑,down,↓,0.9907899000681937,False,28,1
MP-k-21K21S2,785,experiment,89,↓,down,↓,0.6096359000075608,True,28,1
MP-k-21K21S2,786,experiment,72,←,left,←,0.4889767998829484,True,28,1
MP-k-21K21S2,787,experiment,100,↓,down,↓,0.4916221001185477,True,28,1
MP-k-21K21S2,788,experiment,104,←,down,↓,0.6605620000045747,False,28,1
MP-k-21K21S2,789,experiment,63,→,down,↓,0.5809522001072764,False,28,1
MP-k-21K21S2,790,experiment,61,↑,up,↑,0.44903740007430315,True,28,1
MP-k-21K21S2,791,experiment,54,↓,down,↓,0.6049829998519272,True,28,1
MP-k-21K21S2,792,experiment,83,→,right,→,0.5205794998910278,True,28,1
MP-k-21K21S2,793,experiment,71,↑,up,↑,1.115872499998659,True,28,1
MP-k-21K21S2,794,experiment,86,↓,down,↓,0.45816730009391904,True,28,1
MP-k-21K21S2,795,experiment,68,↑,up,↑,0.42516430001705885,True,28,1
MP-k-21K21S2,796,experiment,62,↑,up,↑,0.4990157999563962,True,28,1
MP-k-21K21S2,797,training,63,→,right,→,0.4598642000928521,True,28,0
MP-k-21K21S2,798,training,74,→,left,←,0.7203544999938458,False,28,1
MP-k-21K21S2,799,experiment,108,←,right,→,0.5273626998532563,False,28,1
MP-k-21K21S2,800,experiment,72,↓,up,↑,0.7700684999581426,False,28,1
MP-k-21K21S2,801,experiment,101,↑,up,↑,0.8014401998370886,True,28,1
MP-k-21K21S2,802,experiment,70,→,right,→,0.890122199896723,True,28,1
MP-k-21K21S2,803,experiment,60,→,right,→,0.6577279998455197,True,28,1
MP-k-21K21S2,804,experiment,106,→,right,→,0.6757683001924306,True,28,1
MP-k-21K21S2,805,experiment,81,↓,down,↓,0.6857191999442875,True,28,1
MP-k-21K21S2,806,experiment,65,↑,down,↓,0.8042824000585824,False,28,1
MP-k-21K21S2,807,experiment,74,↑,down,↓,0.6434823998715729,False,28,1
MP-k-21K21S2,808,experiment,104,←,left,←,0.47066330001689494,True,28,1
MP-k-21K21S2,809,experiment,56,→,right,→,0.46544629987329245,True,28,1
MP-k-21K21S2,810,experiment,90,→,right,→,0.8801263999193907,True,28,1
MP-k-21K21S2,811,experiment,69,→,right,→,0.42969190003350377,True,28,1
MP-k-21K21S2,812,experiment,75,→,right,→,0.4353121998719871,True,28,1
MP-k-21K21S2,813,experiment,66,←,left,←,0.5958861999679357,True,28,1
MP-k-21K21S2,814,experiment,59,→,right,→,0.5117898001335561,True,28,1
MP-k-21K21S2,815,experiment,64,←,left,←,0.5337626999244094,True,28,1
MP-k-21K21S2,816,experiment,50,→,down,↓,0.8235953999683261,False,28,1
MP-k-21K21S2,817,experiment,51,←,left,←,0.6295634999405593,True,28,1
MP-k-21K21S2,818,experiment,83,↑,up,↑,0.46399409999139607,True,28,1
MP-k-21K21S2,819,experiment,52,↓,down,↓,0.7080248000565916,True,28,1
MP-k-21K21S2,820,experiment,54,↑,up,↑,0.661359200021252,True,28,1
MP-k-21K21S2,821,experiment,100,↑,up,↑,0.4891771001275629,True,28,1
MP-k-21K21S2,822,experiment,48,↑,up,↑,0.7734170998446643,True,28,1
MP-k-21K21S2,823,experiment,61,↑,up,↑,0.5618947998154908,True,28,1
MP-k-21K21S2,824,experiment,49,→,right,→,0.5390933998860419,True,28,1
MP-k-21K21S2,825,experiment,82,←,left,←,0.44979179999791086,True,28,1
MP-k-21K21S2,826,experiment,78,↓,down,↓,0.549537300132215,True,28,1
MP-k-21K21S2,827,experiment,92,→,right,→,0.6965765999630094,True,28,1
MP-k-21K21S2,828,experiment,73,→,right,→,0.43610360007733107,True,28,1
MP-k-21K21S2,829,experiment,88,↑,up,↑,0.6851603998802602,True,28,1
MP-k-21K21S2,830,experiment,97,→,right,→,1.0731520999688655,True,28,1
MP-k-21K21S2,831,experiment,89,←,left,←,0.5443990998901427,True,28,1
MP-k-21K21S2,832,experiment,91,→,right,→,0.40465659997425973,True,28,1
MP-k-21K21S2,833,experiment,57,←,left,←,0.48039439995773137,True,28,1
MP-k-21K21S2,834,experiment,98,→,right,→,0.9642787000630051,True,28,1
MP-k-21K21S2,835,experiment,62,↓,down,↓,0.5046593998558819,True,28,1
MP-k-21K21S2,836,experiment,94,↑,down,↓,0.7324802000075579,False,28,1
MP-k-21K21S2,837,experiment,87,↓,down,↓,0.5379017000086606,True,28,1
MP-k-21K21S2,838,experiment,84,↓,down,↓,0.528755399864167,True,28,1
MP-k-21K21S2,839,experiment,96,→,right,→,0.4191733000334352,True,28,1
MP-k-21K21S2,840,experiment,93,↓,down,↓,0.3836306999437511,True,28,1
MP-k-21K21S2,841,experiment,105,→,right,→,0.4799620001576841,True,28,0
MP-k-21K21S2,842,experiment,71,↓,down,↓,0.3838042002171278,True,28,1
MP-k-21K21S2,843,experiment,67,↓,down,↓,0.4464898998849094,True,28,0
MP-k-21K21S2,844,experiment,102,→,down,↓,0.5779875000007451,False,28,1
MP-k-21K21S2,845,experiment,55,↑,up,↑,0.6245751001406461,True,28,1
MP-k-21K21S2,846,experiment,107,↓,down,↓,0.4914388000033796,True,28,1
MP-k-21K21S2,847,experiment,86,→,right,→,0.4192681999411434,True,28,1
MP-k-21K21S2,848,experiment,58,↑,down,↓,0.5501673999242485,False,28,1
MP-k-21K21S2,849,experiment,80,←,right,→,0.3840093999169767,False,28,1
MP-k-21K21S2,850,experiment,68,←,right,→,0.6865683000069112,False,28,0
MP-k-21K21S2,851,experiment,53,→,down,↓,0.5295655000954866,False,28,1
MP-k-21K21S2,852,experiment,79,→,right,→,0.505891399923712,True,28,1
MP-k-21K21S2,853,experiment,99,↑,up,↑,0.6842346000485122,True,28,1
MP-k-21K21S2,854,experiment,63,←,down,↓,0.523690199945122,False,28,1
MP-k-21K21S2,855,experiment,77,→,right,→,0.46090080006979406,True,28,1
MP-k-21K21S2,856,experiment,103,↓,down,↓,0.5518737998791039,True,28,1
MP-k-21K21S2,857,experiment,76,↑,down,↓,0.5602124999277294,False,28,1
MP-k-21K21S2,858,experiment,85,↑,down,↓,0.6771156000904739,False,28,1
MP-k-21K21S2,859,experiment,95,↑,up,↑,0.8985051000490785,True,28,1
MP-k-21K21S2,860,training,76,←,left,←,0.4433350001927465,True,28,0
MP-k-21K21S2,861,training,48,←,left,←,0.5294454998802394,True,28,1
MP-k-21K21S2,862,experiment,93,↓,down,↓,0.7567692000884563,True,28,1
MP-k-21K21S2,863,experiment,57,↑,up,↑,0.49991750018671155,True,28,1
MP-k-21K21S2,864,experiment,89,→,right,→,0.6253735998179764,True,28,1
MP-k-21K21S2,865,experiment,76,←,left,←,0.5187793001532555,True,28,1
MP-k-21K21S2,866,experiment,101,→,left,←,0.48811920010484755,False,28,1
MP-k-21K21S2,867,experiment,64,←,left,←,0.41536460001952946,True,28,1
MP-k-21K21S2,868,experiment,84,→,right,→,0.5139335000421852,True,28,1
MP-k-21K21S2,869,experiment,65,↑,up,↑,0.4634546001907438,True,28,1
MP-k-21K21S2,870,experiment,51,↑,up,↑,0.9479020000435412,True,28,1
MP-k-21K21S2,871,experiment,83,→,right,→,0.5217798999510705,True,28,1
MP-k-21K21S2,872,experiment,72,→,right,→,0.413104800041765,True,28,1
MP-k-21K21S2,873,experiment,90,→,down,↓,0.6456734000239521,False,28,1
MP-k-21K21S2,874,experiment,75,←,left,←,0.49874520022422075,True,28,1
MP-k-21K21S2,875,experiment,104,↑,up,↑,0.4356324998661876,True,28,1
MP-k-21K21S2,876,experiment,98,←,left,←,0.45733979996293783,True,28,1
MP-k-21K21S2,877,experiment,56,←,left,←,0.436324100010097,True,28,1
MP-k-21K21S2,878,experiment,60,↑,down,↓,0.9025980001315475,False,28,1
MP-k-21K21S2,879,experiment,107,←,left,←,0.494476200081408,True,28,1
MP-k-21K21S2,880,experiment,92,↑,up,↑,0.7399812999647111,True,28,1
MP-k-21K21S2,881,experiment,53,←,left,←,0.5005336999893188,True,28,1
MP-k-21K21S2,882,experiment,67,←,left,←,1.0577584998682141,True,28,1
MP-k-21K21S2,883,experiment,62,↓,down,↓,0.714485100004822,True,28,1
MP-k-21K21S2,884,experiment,99,→,left,←,0.5245730001479387,False,28,1
MP-k-21K21S2,885,experiment,94,←,left,←,0.47986560012213886,True,28,1
MP-k-21K21S2,886,experiment,61,↓,down,↓,0.47995910001918674,True,28,1
MP-k-21K21S2,887,experiment,48,↓,down,↓,0.6287708999589086,True,28,1
MP-k-21K21S2,888,experiment,91,↑,up,↑,0.7650600001215935,True,28,1
MP-k-21K21S2,889,experiment,103,↓,down,↓,0.4596916001755744,True,28,1
MP-k-21K21S2,890,experiment,54,←,left,←,0.5751709998585284,True,28,1
MP-k-21K21S2,891,experiment,100,↓,down,↓,0.5027836000081152,True,28,1
MP-k-21K21S2,892,experiment,73,←,left,←,0.418321399949491,True,28,1
MP-k-21K21S2,893,experiment,50,←,left,←,0.4405276000034064,True,28,1
MP-k-21K21S2,894,experiment,87,↑,up,↑,0.42579100001603365,True,28,1
MP-k-21K21S2,895,experiment,80,→,right,→,0.989532700041309,True,28,1
MP-k-21K21S2,896,experiment,108,↑,up,↑,0.41020220005884767,True,28,1
MP-k-21K21S2,897,experiment,49,→,left,←,0.5683842999860644,False,28,1
MP-k-21K21S2,898,experiment,81,↓,down,↓,0.5024545001797378,True,28,1
MP-k-21K21S2,899,experiment,105,←,left,←,0.527847400167957,True,28,1
MP-k-21K21S2,900,experiment,102,↑,up,↑,0.5599619999993593,True,28,1
MP-k-21K21S2,901,experiment,78,←,left,←,0.4231400000862777,True,28,1
MP-k-21K21S2,902,experiment,52,←,left,←,0.8926097999792546,True,28,1
MP-k-21K21S2,903,experiment,68,←,left,←,1.1140366001054645,True,28,1
MP-k-21K21S2,904,experiment,86,↓,down,↓,0.5763841001316905,True,28,1
MP-k-21K21S2,905,experiment,59,→,right,→,0.4855597000569105,True,28,1
MP-k-21K21S2,906,experiment,95,←,left,←,0.46677409997209907,True,28,1
MP-k-21K21S2,907,experiment,70,↑,down,↓,0.7679201001301408,False,28,1
MP-k-21K21S2,908,experiment,88,↓,down,↓,0.5555994000751525,True,28,1
MP-k-21K21S2,909,experiment,96,↓,down,↓,0.6048276000656188,True,28,1
MP-k-21K21S2,910,experiment,63,↑,down,↓,0.639551600208506,False,28,1
MP-k-21K21S2,911,experiment,82,→,right,→,0.4501169000286609,True,28,1
MP-k-21K21S2,912,experiment,58,↑,up,↑,0.5165828999597579,True,28,1
MP-k-21K21S2,913,experiment,85,→,left,←,0.6194155998528004,False,28,1
MP-k-21K21S2,914,experiment,71,↓,down,↓,0.6586577999405563,True,28,1
MP-k-21K21S2,915,experiment,66,↓,down,↓,0.5459422999992967,True,28,1
MP-k-21K21S2,916,experiment,79,→,right,→,0.44963129982352257,True,28,1
MP-k-21K21S2,917,experiment,106,←,left,←,0.5958033998031169,True,28,1
MP-k-21K21S2,918,experiment,69,←,left,←,0.4290761000011116,True,28,1
MP-k-21K21S2,919,experiment,77,↑,up,↑,0.43376060016453266,True,28,1
MP-k-21K21S2,920,experiment,74,↑,down,↓,0.6074288000818342,False,28,1
MP-k-21K21S2,921,experiment,55,←,left,←,0.4443776998668909,True,28,1
MP-k-21K21S2,922,experiment,97,↑,up,↑,0.36740759992972016,True,28,1
MP-k-21K21S2,923,training,99,↓,down,↓,0.5289164001587778,True,28,0
MP-k-21K21S2,924,training,103,↑,down,↓,0.736941099865362,False,28,1
MP-k-21K21S2,925,experiment,108,↑,down,↓,0.5834898001048714,False,28,1
MP-k-21K21S2,926,experiment,51,↑,up,↑,0.5749863998498768,True,28,1
MP-k-21K21S2,927,experiment,107,↑,up,↑,0.44392969994805753,True,28,1
MP-k-21K21S2,928,experiment,93,←,left,←,0.5468789001461118,True,28,1
MP-k-21K21S2,929,experiment,63,↓,down,↓,0.512041199952364,True,28,1
MP-k-21K21S2,930,experiment,62,↑,up,↑,0.5184827998746186,True,28,1
MP-k-21K21S2,931,experiment,78,→,right,→,0.559437399962917,True,28,1
MP-k-21K21S2,932,experiment,60,↓,down,↓,0.4768830998800695,True,28,1
MP-k-21K21S2,933,experiment,61,↑,up,↑,0.6692518000490963,True,28,1
MP-k-21K21S2,934,experiment,67,↓,down,↓,0.9080352999735624,True,28,1
MP-k-21K21S2,935,experiment,57,↑,up,↑,0.5803702000994235,True,28,1
MP-k-21K21S2,936,experiment,84,↑,up,↑,0.4889098000712693,True,28,1
MP-k-21K21S2,937,experiment,71,↓,down,↓,0.46128150005824864,True,28,1
MP-k-21K21S2,938,experiment,89,↓,up,↑,0.3508500999305397,False,28,1
MP-k-21K21S2,939,experiment,103,←,left,←,0.46802620007656515,True,28,0
MP-k-21K21S2,940,experiment,96,↑,up,↑,0.6490206997841597,True,28,1
MP-k-21K21S2,941,experiment,74,→,right,→,0.4781147001776844,True,28,1
MP-k-21K21S2,942,experiment,59,→,right,→,1.41524440003559,True,28,1
MP-k-21K21S2,943,experiment,86,→,right,→,0.5934718998614699,True,28,1
MP-k-21K21S2,944,experiment,106,→,right,→,0.4303741999901831,True,28,1
MP-k-21K21S2,945,experiment,56,→,right,→,0.7460529000964016,True,28,1
MP-k-21K21S2,946,experiment,95,↓,down,↓,0.6198531999252737,True,28,1
MP-k-21K21S2,947,experiment,98,↓,down,↓,0.7542973000090569,True,28,1
MP-k-21K21S2,948,experiment,79,→,right,→,0.5614016000181437,True,28,1
MP-k-21K21S2,949,experiment,72,→,right,→,0.6109753998462111,True,28,1
MP-k-21K21S2,950,experiment,69,→,right,→,0.9710051000583917,True,28,1
MP-k-21K21S2,951,experiment,94,↓,down,↓,0.6207970001269132,True,28,1
MP-k-21K21S2,952,experiment,99,→,right,→,0.6349533000029624,True,28,1
MP-k-21K21S2,953,experiment,76,↑,up,↑,0.5915786998812109,True,28,1
MP-k-21K21S2,954,experiment,80,→,right,→,0.43706120015121996,True,28,1
MP-k-21K21S2,955,experiment,101,↑,right,→,1.1532915001735091,False,28,1
MP-k-21K21S2,956,experiment,54,↑,up,↑,0.6652414998970926,True,28,1
MP-k-21K21S2,957,experiment,53,↓,down,↓,0.8764292998239398,True,28,1
MP-k-21K21S2,958,experiment,90,←,left,←,0.6031279999297112,True,28,1
MP-k-21K21S2,959,experiment,77,←,left,←,0.7370891999453306,True,28,1
MP-k-21K21S2,960,experiment,49,↓,down,↓,0.6672468998003751,True,28,1
MP-k-21K21S2,961,experiment,64,↑,down,↓,0.6348950997926295,False,28,1
MP-k-21K21S2,962,experiment,83,↑,up,↑,0.49373570014722645,True,28,1
MP-k-21K21S2,963,experiment,55,↓,down,↓,0.639483799925074,True,28,1
MP-k-21K21S2,964,experiment,50,↓,down,↓,0.5969740999862552,True,28,1
MP-k-21K21S2,965,experiment,65,←,left,←,0.4708577001001686,True,28,1
MP-k-21K21S2,966,experiment,87,→,down,↓,0.5426117999013513,False,28,1
MP-k-21K21S2,967,experiment,97,→,right,→,0.7764521001372486,True,28,1
MP-k-21K21S2,968,experiment,105,←,left,←,0.5500328000634909,True,28,1
MP-k-21K21S2,969,experiment,75,↓,down,↓,0.6227796000894159,True,28,1
MP-k-21K21S2,970,experiment,104,→,right,→,0.4350928000640124,True,28,1
MP-k-21K21S2,971,experiment,48,↑,up,↑,0.48134029982611537,True,28,1
MP-k-21K21S2,972,experiment,82,↑,up,↑,0.4343622999731451,True,28,1
MP-k-21K21S2,973,experiment,81,→,right,→,0.5097410997841507,True,28,1
MP-k-21K21S2,974,experiment,85,→,right,→,0.7327523999847472,True,28,1
MP-k-21K21S2,975,experiment,70,↑,up,↑,0.47174530010670424,True,28,1
MP-k-21K21S2,976,experiment,100,↓,down,↓,0.6834142999723554,True,28,1
MP-k-21K21S2,977,experiment,58,→,down,↓,0.6043291999958456,False,28,1
MP-k-21K21S2,978,experiment,92,←,left,←,0.49324010009877384,True,28,1
MP-k-21K21S2,979,experiment,52,↑,up,↑,0.4557523999828845,True,28,1
MP-k-21K21S2,980,experiment,102,←,down,↓,0.6671146999578923,False,28,1
MP-k-21K21S2,981,experiment,88,→,right,→,0.45083320001140237,True,28,1
MP-k-21K21S2,982,experiment,91,↓,up,↑,0.730247600004077,False,28,1
MP-k-21K21S2,983,experiment,66,←,left,←,0.63863670011051,True,28,1
MP-k-21K21S2,984,experiment,73,↑,up,↑,0.4365067998878658,True,28,1
MP-k-21K21S2,985,experiment,68,→,down,↓,0.7000132999382913,False,28,1
MP-k-21K21S2,986,training,98,←,down,↓,0.8066195000428706,False,28,0
MP-k-21K21S2,987,training,55,→,right,→,0.8669402999803424,True,28,1
MP-k-21K21S2,988,experiment,51,↑,down,↓,0.5671725000720471,False,28,1
MP-k-21K21S2,989,experiment,97,↑,up,↑,0.6556949000805616,True,28,1
MP-k-21K21S2,990,experiment,87,→,left,←,0.5522453000303358,False,28,1
MP-k-21K21S2,991,experiment,52,↑,down,↓,0.4014185001142323,False,28,1
MP-k-21K21S2,992,experiment,75,→,right,→,0.543078999966383,True,28,0
MP-k-21K21S2,993,experiment,62,→,right,→,0.48454019986093044,True,28,1
MP-k-21K21S2,994,experiment,58,←,left,←,0.5174346999265254,True,28,1
MP-k-21K21S2,995,experiment,73,→,down,↓,0.9202046999707818,False,28,1
MP-k-21K21S2,996,experiment,56,↓,down,↓,0.5925935001578182,True,28,1
MP-k-21K21S2,997,experiment,76,←,left,←,0.4081053000409156,True,28,1
MP-k-21K21S2,998,experiment,91,→,down,↓,0.5684434999711812,False,28,1
MP-k-21K21S2,999,experiment,61,↑,up,↑,0.4848108999431133,True,28,1
MP-k-21K21S2,1000,experiment,74,←,down,↓,1.0170885000843555,False,28,1
MP-k-21K21S2,1001,experiment,82,←,left,←,0.5321118000429124,True,28,1
MP-k-21K21S2,1002,experiment,90,→,right,→,0.48844289989210665,True,28,1
MP-k-21K21S2,1003,experiment,69,↓,down,↓,0.5576327999588102,True,28,1
MP-k-21K21S2,1004,experiment,104,←,down,↓,0.7402516000438482,False,28,1
MP-k-21K21S2,1005,experiment,54,→,right,→,0.5084589999169111,True,28,1
MP-k-21K21S2,1006,experiment,71,↑,down,↓,0.7283392001409084,False,28,1
MP-k-21K21S2,1007,experiment,55,←,down,↓,0.6726184000726789,False,28,1
MP-k-21K21S2,1008,experiment,63,→,right,→,0.5288321999832988,True,28,1
MP-k-21K21S2,1009,experiment,89,↓,down,↓,0.6133485999889672,True,28,1
MP-k-21K21S2,1010,experiment,64,↓,down,↓,0.9030649999622256,True,28,1
MP-k-21K21S2,1011,experiment,72,→,right,→,0.5629998000804335,True,28,1
MP-k-21K21S2,1012,experiment,79,↑,up,↑,0.4973862001206726,True,28,1
MP-k-21K21S2,1013,experiment,100,←,left,←,0.5799579001031816,True,28,1
MP-k-21K21S2,1014,experiment,103,↑,up,↑,0.5378519999794662,True,28,1
MP-k-21K21S2,1015,experiment,81,←,left,←,0.5049833999946713,True,28,1
MP-k-21K21S2,1016,experiment,86,→,down,↓,0.6077320999465883,False,28,1
MP-k-21K21S2,1017,experiment,88,↑,down,↓,0.8181421998888254,False,28,1
MP-k-21K21S2,1018,experiment,108,↑,up,↑,0.4368890000041574,True,28,1
MP-k-21K21S2,1019,experiment,107,↓,down,↓,0.5270947001408786,True,28,1
MP-k-21K21S2,1020,experiment,93,↓,down,↓,0.49899980006739497,True,28,1
MP-k-21K21S2,1021,experiment,98,↓,down,↓,0.5020299002062529,True,28,1
MP-k-21K21S2,1022,experiment,96,↑,down,↓,0.46589670004323125,False,28,1
MP-k-21K21S2,1023,experiment,48,←,left,←,0.5505691999569535,True,28,1
MP-k-21K21S2,1024,experiment,68,↓,down,↓,0.5938087000977248,True,28,1
MP-k-21K21S2,1025,experiment,70,↓,down,↓,0.5465817998629063,True,28,1
MP-k-21K21S2,1026,experiment,59,→,right,→,0.5048092000652105,True,28,1
MP-k-21K21S2,1027,experiment,50,↑,down,↓,0.5394163001328707,False,28,1
MP-k-21K21S2,1028,experiment,80,↑,up,↑,0.7709156998898834,True,28,1
MP-k-21K21S2,1029,experiment,101,↓,down,↓,0.5539188999682665,True,28,1
MP-k-21K21S2,1030,experiment,84,←,left,←,0.48743989993818104,True,28,1
MP-k-21K21S2,1031,experiment,94,←,left,←,0.6846301001496613,True,28,1
MP-k-21K21S2,1032,experiment,106,↑,down,↓,0.541935499990359,False,28,1
MP-k-21K21S2,1033,experiment,83,→,down,↓,0.8361150999553502,False,28,1
MP-k-21K21S2,1034,experiment,65,↑,up,↑,0.46875660005025566,True,28,1
MP-k-21K21S2,1035,experiment,102,←,left,←,0.49598050001077354,True,28,1
MP-k-21K21S2,1036,experiment,77,↑,up,↑,0.4657823999878019,True,28,1
MP-k-21K21S2,1037,experiment,60,↑,up,↑,0.5311827000696212,True,28,1
MP-k-21K21S2,1038,experiment,95,←,left,←,0.5176146000158042,True,28,1
MP-k-21K21S2,1039,experiment,99,↓,down,↓,0.5117411001119763,True,28,1
MP-k-21K21S2,1040,experiment,67,↓,down,↓,0.6207987999077886,True,28,1
MP-k-21K21S2,1041,experiment,66,↓,down,↓,0.5018671001307666,True,28,1
MP-k-21K21S2,1042,experiment,53,↑,down,↓,0.8403510001953691,False,28,1
MP-k-21K21S2,1043,experiment,105,→,down,↓,0.7309951998759061,False,28,1
MP-k-21K21S2,1044,experiment,49,↑,down,↓,0.6051944000646472,False,28,1
MP-k-21K21S2,1045,experiment,57,↓,down,↓,0.6014080001041293,True,28,1
MP-k-21K21S2,1046,experiment,92,→,right,→,0.5703732999972999,True,28,1
MP-k-21K21S2,1047,experiment,85,→,down,↓,0.655365000013262,False,28,1
MP-k-21K21S2,1048,experiment,78,↑,down,↓,0.5626056001055986,False,28,1
MP-k-21K21S2,1049,training,59,→,right,→,0.5469541000202298,True,28,0
MP-k-21K21S2,1050,training,54,↑,down,↓,1.082482900004834,False,28,1
MP-k-21K21S2,1051,experiment,54,↓,down,↓,0.5088162000756711,True,28,1
MP-k-21K21S2,1052,experiment,98,→,right,→,0.9915527000557631,True,28,1
MP-k-21K21S2,1053,experiment,95,→,right,→,0.5199818001128733,True,28,1
MP-k-21K21S2,1054,experiment,74,↑,up,↑,0.48248959984630346,True,28,1
MP-k-21K21S2,1055,experiment,61,↓,down,↓,0.5065659999381751,True,28,1
MP-k-21K21S2,1056,experiment,69,↓,down,↓,0.510974399978295,True,28,1
MP-k-21K21S2,1057,experiment,93,→,right,→,0.5233785000164062,True,28,1
MP-k-21K21S2,1058,experiment,107,←,right,→,0.7140004001557827,False,28,1
MP-k-21K21S2,1059,experiment,48,→,left,←,1.1732880000490695,False,28,1
MP-k-21K21S2,1060,experiment,58,↑,down,↓,0.6665387998800725,False,28,1
MP-k-21K21S2,1061,experiment,101,→,right,→,0.7499303000513464,True,28,1
MP-k-21K21S2,1062,experiment,73,↓,down,↓,0.615575399948284,True,28,1
MP-k-21K21S2,1063,experiment,55,←,left,←,0.5158943999558687,True,28,1
MP-k-21K21S2,1064,experiment,92,↑,up,↑,0.5204978999681771,True,28,1
MP-k-21K21S2,1065,experiment,79,↑,up,↑,0.75322650000453,True,28,1
MP-k-21K21S2,1066,experiment,94,←,left,←,0.45958749996498227,True,28,1
MP-k-21K21S2,1067,experiment,84,↓,down,↓,0.45300570013932884,True,28,1
MP-k-21K21S2,1068,experiment,57,←,left,←,0.43999530002474785,True,28,1
MP-k-21K21S2,1069,experiment,100,→,right,→,0.4846953998785466,True,28,1
MP-k-21K21S2,1070,experiment,68,→,right,→,0.6663228000979871,True,28,1
MP-k-21K21S2,1071,experiment,96,→,right,→,0.6874563999008387,True,28,1
MP-k-21K21S2,1072,experiment,66,←,left,←,0.4776225001551211,True,28,1
MP-k-21K21S2,1073,experiment,67,←,left,←,0.41263079992495477,True,28,1
MP-k-21K21S2,1074,experiment,87,↑,down,↓,0.6300935000181198,False,28,1
MP-k-21K21S2,1075,experiment,53,↓,down,↓,0.6909361998550594,True,28,1
MP-k-21K21S2,1076,experiment,52,↓,down,↓,0.5577026000246406,True,28,1
MP-k-21K21S2,1077,experiment,83,→,down,↓,0.699427800020203,False,28,1
MP-k-21K21S2,1078,experiment,81,→,down,↓,0.6201082000043243,False,28,1
MP-k-21K21S2,1079,experiment,63,←,down,↓,0.5743581999558955,False,28,1
MP-k-21K21S2,1080,experiment,49,↓,down,↓,0.5027864000294358,True,28,1
MP-k-21K21S2,1081,experiment,99,←,left,←,0.8575218999758363,True,28,1
MP-k-21K21S2,1082,experiment,80,←,down,↓,0.58818419999443,False,28,1
MP-k-21K21S2,1083,experiment,108,→,right,→,0.49600229994393885,True,28,1
MP-k-21K21S2,1084,experiment,71,↓,down,↓,0.5959634999744594,True,28,1
MP-k-21K21S2,1085,experiment,62,↑,down,↓,0.5515850000083447,False,28,1
MP-k-21K21S2,1086,experiment,51,→,down,↓,0.6799879998434335,False,28,1
MP-k-21K21S2,1087,experiment,106,↑,down,↓,0.552998100174591,False,28,1
MP-k-21K21S2,1088,experiment,60,↑,down,↓,0.590703499969095,False,28,1
MP-k-21K21S2,1089,experiment,65,↓,down,↓,0.48913800017908216,True,28,1
MP-k-21K21S2,1090,experiment,91,→,down,↓,0.5268248000647873,False,28,1
MP-k-21K21S2,1091,experiment,72,←,left,←,0.513566300040111,True,28,1
MP-k-21K21S2,1092,experiment,75,→,right,→,0.4835592999588698,True,28,1
MP-k-21K21S2,1093,experiment,56,↓,down,↓,0.5496342999394983,True,28,1
MP-k-21K21S2,1094,experiment,59,→,right,→,0.45152200013399124,True,28,1
MP-k-21K21S2,1095,experiment,70,→,down,↓,0.5698651000857353,False,28,1
MP-k-21K21S2,1096,experiment,64,↑,down,↓,0.4856644000392407,False,28,1
MP-k-21K21S2,1097,experiment,78,↑,up,↑,0.5441360999830067,True,28,1
MP-k-21K21S2,1098,experiment,90,↓,down,↓,0.436431200010702,True,28,1
MP-k-21K21S2,1099,experiment,76,↑,up,↑,0.465159900020808,True,28,1
MP-k-21K21S2,1100,experiment,77,↓,down,↓,0.533345100004226,True,28,1
MP-k-21K21S2,1101,experiment,103,↓,down,↓,0.3002351000905037,True,28,1
MP-k-21K21S2,1102,experiment,50,←,down,↓,0.6557096999604255,False,28,0
MP-k-21K21S2,1103,experiment,105,←,down,↓,0.5218441998586059,False,28,1
MP-k-21K21S2,1104,experiment,85,↓,down,↓,0.5281662000343204,True,28,1
MP-k-21K21S2,1105,experiment,89,↑,up,↑,0.4136691000312567,True,28,1
MP-k-21K21S2,1106,experiment,104,←,left,←,0.46571900020353496,True,28,1
MP-k-21K21S2,1107,experiment,88,←,left,←,0.47329859994351864,True,28,1
MP-k-21K21S2,1108,experiment,86,←,left,←,0.4574928998481482,True,28,1
MP-k-21K21S2,1109,experiment,102,↓,down,↓,0.5327772998716682,True,28,1
MP-k-21K21S2,1110,experiment,82,←,left,←,1.0680737001821399,True,28,1
MP-k-21K21S2,1111,experiment,97,→,right,→,0.48858939995989203,True,28,1
MP-k-21K21S2,1112,training,51,→,right,→,0.6143468997906893,True,28,0
MP-k-21K21S2,1113,training,105,←,left,←,0.4905746001750231,True,28,1
MP-k-21K21S2,1114,experiment,53,↓,down,↓,0.6288757999427617,True,28,1
MP-k-21K21S2,1115,experiment,64,→,left,←,0.5584185000043362,False,28,1
MP-k-21K21S2,1116,experiment,106,↓,down,↓,0.5001741000451148,True,28,1
MP-k-21K21S2,1117,experiment,101,←,down,↓,0.6862818000372499,False,28,1
MP-k-21K21S2,1118,experiment,60,↓,down,↓,0.5588663001544774,True,28,1
MP-k-21K21S2,1119,experiment,58,↑,up,↑,0.5807423000223935,True,28,1
MP-k-21K21S2,1120,experiment,95,←,left,←,0.9175299999769777,True,28,1
MP-k-21K21S2,1121,experiment,102,←,left,←,0.49447469995357096,True,28,1
MP-k-21K21S2,1122,experiment,105,←,down,↓,0.4397984999231994,False,28,1
MP-k-21K21S2,1123,experiment,94,→,down,↓,0.6302555000875145,False,28,1
MP-k-21K21S2,1124,experiment,74,←,left,←,0.4360205000266433,True,28,1
MP-k-21K21S2,1125,experiment,85,↓,down,↓,0.5742495998274535,True,28,1
MP-k-21K21S2,1126,experiment,93,←,down,↓,1.215773800155148,False,28,1
MP-k-21K21S2,1127,experiment,65,↑,down,↓,0.7771335002034903,False,28,1
MP-k-21K21S2,1128,experiment,87,←,left,←,0.7407567000482231,True,28,1
MP-k-21K21S2,1129,experiment,88,↑,up,↑,0.5216883001849055,True,28,1
MP-k-21K21S2,1130,experiment,69,←,down,↓,0.6852383997756988,False,28,1
MP-k-21K21S2,1131,experiment,97,←,left,←,0.5853312998078763,True,28,1
MP-k-21K21S2,1132,experiment,75,←,left,←,0.5448165000416338,True,28,1
MP-k-21K21S2,1133,experiment,103,↓,down,↓,0.5363022999372333,True,28,1
MP-k-21K21S2,1134,experiment,61,↑,up,↑,0.4304464999586344,True,28,1
MP-k-21K21S2,1135,experiment,108,←,left,←,0.4487298000603914,True,28,1
MP-k-21K21S2,1136,experiment,107,↑,up,↑,0.602847300004214,True,28,1
MP-k-21K21S2,1137,experiment,77,←,left,←,0.48908729990944266,True,28,1
MP-k-21K21S2,1138,experiment,99,↓,down,↓,0.6359412998426706,True,28,1
MP-k-21K21S2,1139,experiment,62,→,down,↓,0.749832300003618,False,28,1
MP-k-21K21S2,1140,experiment,70,↑,up,↑,0.4797937998082489,True,28,1
MP-k-21K21S2,1141,experiment,89,↓,down,↓,0.5108282000292093,True,28,1
MP-k-21K21S2,1142,experiment,78,→,down,↓,0.6643888000398874,False,28,1
MP-k-21K21S2,1143,experiment,54,↓,down,↓,0.5073084998875856,True,28,1
MP-k-21K21S2,1144,experiment,73,→,down,↓,0.534429999999702,False,28,1
MP-k-21K21S2,1145,experiment,50,↑,down,↓,0.6001117001287639,False,28,1
MP-k-21K21S2,1146,experiment,52,↓,down,↓,0.6385395999532193,True,28,1
MP-k-21K21S2,1147,experiment,59,←,down,↓,0.648958700010553,False,28,1
MP-k-21K21S2,1148,experiment,68,↓,down,↓,0.44002609979361296,True,28,1
MP-k-21K21S2,1149,experiment,84,↑,up,↑,0.6181183999869972,True,28,1
MP-k-21K21S2,1150,experiment,56,↓,down,↓,0.7424375999253243,True,28,1
MP-k-21K21S2,1151,experiment,76,←,down,↓,1.3435414000414312,False,28,1
MP-k-21K21S2,1152,experiment,72,↓,down,↓,0.4732146000023931,True,28,1
MP-k-21K21S2,1153,experiment,104,←,left,←,0.44325280003249645,True,28,1
MP-k-21K21S2,1154,experiment,63,←,down,↓,0.5404495999682695,False,28,1
MP-k-21K21S2,1155,experiment,90,↑,up,↑,0.576379100093618,True,28,1
MP-k-21K21S2,1156,experiment,91,↑,down,↓,0.5949611999094486,False,28,1
MP-k-21K21S2,1157,experiment,49,↓,down,↓,0.49092500004917383,True,28,1
MP-k-21K21S2,1158,experiment,55,↑,down,↓,0.6368167998734862,False,28,1
MP-k-21K21S2,1159,experiment,83,↑,up,↑,0.5352451999206096,True,28,1
MP-k-21K21S2,1160,experiment,66,←,left,←,0.5311997998505831,True,28,1
MP-k-21K21S2,1161,experiment,96,↓,down,↓,0.4537072000093758,True,28,1
MP-k-21K21S2,1162,experiment,51,←,down,↓,0.5467687000054866,False,28,1
MP-k-21K21S2,1163,experiment,100,↓,down,↓,0.5548912999220192,True,28,1
MP-k-21K21S2,1164,experiment,92,→,right,→,0.46169510018080473,True,28,1
MP-k-21K21S2,1165,experiment,82,→,right,→,0.7597782001830637,True,28,1
MP-k-21K21S2,1166,experiment,79,↓,down,↓,0.47882440011017025,True,28,1
MP-k-21K21S2,1167,experiment,71,↑,down,↓,0.6198150001000613,False,28,1
MP-k-21K21S2,1168,experiment,57,↑,up,↑,0.5281154001131654,True,28,1
MP-k-21K21S2,1169,experiment,98,←,right,→,0.5779677999671549,False,28,1
MP-k-21K21S2,1170,experiment,86,↓,down,↓,1.2618057001382113,True,28,1
MP-k-21K21S2,1171,experiment,80,↓,down,↓,0.5848024000879377,True,28,1
MP-k-21K21S2,1172,experiment,48,↓,down,↓,0.5291764000430703,True,28,1
MP-k-21K21S2,1173,experiment,67,↓,down,↓,0.7496857000514865,True,28,1
MP-k-21K21S2,1174,experiment,81,→,right,→,0.48438969999551773,True,28,1
MP-k-21K21S2,1175,training,57,↓,down,↓,0.8367830000352114,True,28,0
MP-k-21K21S2,1176,training,101,↓,down,↓,0.6493462000507861,True,28,1
MP-k-21K21S2,1177,experiment,67,→,right,→,0.41741070011630654,True,28,1
MP-k-21K21S2,1178,experiment,92,↓,down,↓,0.4968117999378592,True,28,1
MP-k-21K21S2,1179,experiment,79,←,left,←,0.4425079000648111,True,28,1
MP-k-21K21S2,1180,experiment,81,↓,no_key,no_letter,-1.0,False,28,1
MP-k-21K21S2,1181,experiment,77,↓,down,↓,0.41539249988272786,True,28,1
MP-k-21K21S2,1182,experiment,62,→,down,↓,0.5216018999926746,False,28,1
MP-k-21K21S2,1183,experiment,73,←,left,←,0.5799966000486165,True,28,1
MP-k-21K21S2,1184,experiment,75,↑,down,↓,0.5873992999549955,False,28,1
MP-k-21K21S2,1185,experiment,100,→,left,←,0.7139427000656724,False,28,1
MP-k-21K21S2,1186,experiment,68,↓,down,↓,0.6066963002085686,True,28,1
MP-k-21K21S2,1187,experiment,61,↓,down,↓,0.49758809991180897,True,28,1
MP-k-21K21S2,1188,experiment,78,←,left,←,0.4835029998794198,True,28,1
MP-k-21K21S2,1189,experiment,99,→,right,→,0.45491149998269975,True,28,1
MP-k-21K21S2,1190,experiment,85,↓,down,↓,0.5835855999030173,True,28,1
MP-k-21K21S2,1191,experiment,57,←,left,←,0.5494093000888824,True,28,1
MP-k-21K21S2,1192,experiment,96,↑,up,↑,0.48691320000216365,True,28,1
MP-k-21K21S2,1193,experiment,63,↓,down,↓,0.5423862000461668,True,28,1
MP-k-21K21S2,1194,experiment,53,↓,down,↓,0.5508757000789046,True,28,1
MP-k-21K21S2,1195,experiment,84,←,left,←,0.460545799927786,True,28,1
MP-k-21K21S2,1196,experiment,52,←,left,←,0.4728381000459194,True,28,1
MP-k-21K21S2,1197,experiment,54,↓,down,↓,0.4512890998739749,True,28,1
MP-k-21K21S2,1198,experiment,72,↑,up,↑,0.5371392001397908,True,28,1
MP-k-21K21S2,1199,experiment,56,←,down,↓,0.896879700012505,False,28,1
MP-k-21K21S2,1200,experiment,50,↓,down,↓,0.3090705000795424,True,28,1
MP-k-21K21S2,1201,experiment,82,↑,down,↓,1.6036555001046509,False,28,0
MP-k-21K21S2,1202,experiment,105,↓,down,↓,0.5601655000355095,True,28,1
MP-k-21K21S2,1203,experiment,59,↑,down,↓,0.3744594999589026,False,28,1
MP-k-21K21S2,1204,experiment,106,↓,down,↓,0.3668802999891341,True,28,0
MP-k-21K21S2,1205,experiment,76,↓,down,↓,1.1223827998619527,True,28,0
MP-k-21K21S2,1206,experiment,90,→,down,↓,0.6313509000465274,False,28,1
MP-k-21K21S2,1207,experiment,94,↓,down,↓,1.230049300007522,True,28,1
MP-k-21K21S2,1208,experiment,58,→,right,→,0.47308869985863566,True,28,1
MP-k-21K21S2,1209,experiment,86,↑,down,↓,0.5612360998056829,False,28,1
MP-k-21K21S2,1210,experiment,49,↓,down,↓,0.4902999000623822,True,28,1
MP-k-21K21S2,1211,experiment,101,→,down,↓,0.7250985000282526,False,28,1
MP-k-21K21S2,1212,experiment,102,↑,down,↓,1.0053732998203486,False,28,1
MP-k-21K21S2,1213,experiment,108,↓,up,↑,0.8486947999335825,False,28,1
MP-k-21K21S2,1214,experiment,66,←,left,←,0.5444891999941319,True,28,1
MP-k-21K21S2,1215,experiment,98,→,right,→,0.681671499973163,True,28,1
MP-k-21K21S2,1216,experiment,71,↓,down,↓,0.6385196000337601,True,28,1
MP-k-21K21S2,1217,experiment,104,→,down,↓,0.6897535999305546,False,28,1
MP-k-21K21S2,1218,experiment,55,→,right,→,0.43562550004571676,True,28,1
MP-k-21K21S2,1219,experiment,91,→,right,→,0.6282838999759406,True,28,1
MP-k-21K21S2,1220,experiment,60,←,left,←,0.48718779999762774,True,28,1
MP-k-21K21S2,1221,experiment,83,←,left,←,0.479085500119254,True,28,1
MP-k-21K21S2,1222,experiment,48,↓,down,↓,0.5798520999960601,True,28,1
MP-k-21K21S2,1223,experiment,64,↑,down,↓,0.702969599980861,False,28,1
MP-k-21K21S2,1224,experiment,74,↑,up,↑,0.5539838999975473,True,28,1
MP-k-21K21S2,1225,experiment,93,←,left,←,0.5406190000940114,True,28,1
MP-k-21K21S2,1226,experiment,65,→,right,→,0.4888269999064505,True,28,1
MP-k-21K21S2,1227,experiment,107,↓,down,↓,0.6491334000602365,True,28,1
MP-k-21K21S2,1228,experiment,51,↑,up,↑,0.4382307999767363,True,28,1
MP-k-21K21S2,1229,experiment,97,→,right,→,0.5557402998674661,True,28,1
MP-k-21K21S2,1230,experiment,69,↑,down,↓,0.9180064999964088,False,28,1
MP-k-21K21S2,1231,experiment,80,←,right,→,0.5184692998882383,False,28,1
MP-k-21K21S2,1232,experiment,87,→,right,→,0.5246087000705302,True,28,1
MP-k-21K21S2,1233,experiment,70,←,left,←,0.49587059998884797,True,28,1
MP-k-21K21S2,1234,experiment,89,→,right,→,0.9900953001342714,True,28,1
MP-k-21K21S2,1235,experiment,103,←,down,↓,0.779579000081867,False,28,1
MP-k-21K21S2,1236,experiment,95,↑,up,↑,0.5482407999224961,True,28,1
MP-k-21K21S2,1237,experiment,88,←,left,←,0.5366938000079244,True,28,1
MP-k-21K21S2,1238,training,64,↓,down,↓,0.9013014999218285,True,28,0
MP-k-21K21S2,1239,training,103,→,down,↓,0.6225980001036078,False,28,1
MP-k-21K21S2,1240,experiment,87,→,right,→,0.544258699985221,True,28,1
MP-k-21K21S2,1241,experiment,49,→,right,→,0.5540839000605047,True,28,1
MP-k-21K21S2,1242,experiment,51,→,down,↓,0.4990316000767052,False,28,1
MP-k-21K21S2,1243,experiment,97,↓,down,↓,0.38379219989292324,True,28,1
MP-k-21K21S2,1244,experiment,83,←,left,←,0.4987090998329222,True,28,0
MP-k-21K21S2,1245,experiment,81,←,down,↓,1.0353378001600504,False,28,1
MP-k-21K21S2,1246,experiment,84,↑,up,↑,0.4298729000147432,True,28,1
MP-k-21K21S2,1247,experiment,58,←,down,↓,0.7127659998368472,False,28,1
MP-k-21K21S2,1248,experiment,101,↓,down,↓,0.7541463999077678,True,28,1
MP-k-21K21S2,1249,experiment,80,↓,down,↓,0.561317800078541,True,28,1
MP-k-21K21S2,1250,experiment,72,↑,down,↓,0.7865319000557065,False,28,1
MP-k-21K21S2,1251,experiment,71,↓,down,↓,0.587333100149408,True,28,1
MP-k-21K21S2,1252,experiment,79,↓,down,↓,0.6413837999571115,True,28,1
MP-k-21K21S2,1253,experiment,85,↑,down,↓,0.7232665000483394,False,28,1
MP-k-21K21S2,1254,experiment,96,↓,down,↓,0.6462163000833243,True,28,1
MP-k-21K21S2,1255,experiment,53,←,left,←,0.5057912000920624,True,28,1
MP-k-21K21S2,1256,experiment,52,↑,down,↓,0.5079093999229372,False,28,1
MP-k-21K21S2,1257,experiment,98,↓,down,↓,0.5185312000103295,True,28,1
MP-k-21K21S2,1258,experiment,59,←,left,←,0.518134499900043,True,28,1
MP-k-21K21S2,1259,experiment,54,↑,down,↓,0.6150167998857796,False,28,1
MP-k-21K21S2,1260,experiment,106,↓,down,↓,0.48304899991489947,True,28,1
MP-k-21K21S2,1261,experiment,91,←,down,↓,0.4571803000289947,False,28,1
MP-k-21K21S2,1262,experiment,68,↑,up,↑,0.4797354000620544,True,28,1
MP-k-21K21S2,1263,experiment,89,→,right,→,0.5585692001041025,True,28,1
MP-k-21K21S2,1264,experiment,65,→,down,↓,0.5141699998639524,False,28,1
MP-k-21K21S2,1265,experiment,94,←,left,←,0.5179043998941779,True,28,1
MP-k-21K21S2,1266,experiment,77,→,right,→,0.48754159989766777,True,28,1
MP-k-21K21S2,1267,experiment,107,↑,down,↓,0.5198339000344276,False,28,1
MP-k-21K21S2,1268,experiment,63,↑,down,↓,0.5661134999245405,False,28,1
MP-k-21K21S2,1269,experiment,70,→,down,↓,0.8080100000370294,False,28,1
MP-k-21K21S2,1270,experiment,104,↓,down,↓,0.8364596001338214,True,28,1
MP-k-21K21S2,1271,experiment,103,←,left,←,0.5365460000466555,True,28,1
MP-k-21K21S2,1272,experiment,92,→,right,→,0.5640974999405444,True,28,1
MP-k-21K21S2,1273,experiment,74,←,left,←,0.6687219000887126,True,28,1
MP-k-21K21S2,1274,experiment,66,→,left,←,1.0436342998873442,False,28,1
MP-k-21K21S2,1275,experiment,73,↓,down,↓,0.4177224999293685,True,28,1
MP-k-21K21S2,1276,experiment,90,←,left,←,0.4265697000082582,True,28,1
MP-k-21K21S2,1277,experiment,108,←,left,←,0.9896049001254141,True,28,1
MP-k-21K21S2,1278,experiment,93,←,left,←,0.5101107000373304,True,28,1
MP-k-21K21S2,1279,experiment,60,↓,down,↓,0.5575862000696361,True,28,1
MP-k-21K21S2,1280,experiment,99,↓,down,↓,0.5099136999342591,True,28,1
MP-k-21K21S2,1281,experiment,64,↑,down,↓,0.5162186999805272,False,28,1
MP-k-21K21S2,1282,experiment,69,→,down,↓,0.7603046000003815,False,28,1
MP-k-21K21S2,1283,experiment,100,→,right,→,0.4720964999869466,True,28,1
MP-k-21K21S2,1284,experiment,105,→,down,↓,0.5940282999072224,False,28,1
MP-k-21K21S2,1285,experiment,56,↓,down,↓,0.4712884998880327,True,28,1
MP-k-21K21S2,1286,experiment,82,→,right,→,0.4648881999310106,True,28,1
MP-k-21K21S2,1287,experiment,62,→,right,→,0.4733088999055326,True,28,1
MP-k-21K21S2,1288,experiment,88,↓,down,↓,0.4724506000056863,True,28,1
MP-k-21K21S2,1289,experiment,55,↓,down,↓,0.4986327001824975,True,28,1
MP-k-21K21S2,1290,experiment,75,↑,down,↓,0.573813599999994,False,28,1
MP-k-21K21S2,1291,experiment,48,↑,down,↓,0.6065116999670863,False,28,1
MP-k-21K21S2,1292,experiment,76,←,down,↓,0.5403819000348449,False,28,1
MP-k-21K21S2,1293,experiment,102,←,left,←,0.4683687000069767,True,28,1
MP-k-21K21S2,1294,experiment,57,←,left,←,0.5027926000766456,True,28,1
MP-k-21K21S2,1295,experiment,67,↓,down,↓,0.44398640003055334,True,28,1
MP-k-21K21S2,1296,experiment,50,←,down,↓,0.5614789000246674,False,28,1
MP-k-21K21S2,1297,experiment,86,→,right,→,0.48621980007737875,True,28,1
MP-k-21K21S2,1298,experiment,78,↑,up,↑,0.6326641000341624,True,28,1
MP-k-21K21S2,1299,experiment,61,↑,down,↓,0.6266507001128048,False,28,1
MP-k-21K21S2,1300,experiment,95,←,left,←,0.6498925001360476,True,28,1
MP-k-21K21S2,1301,training,61,↑,down,↓,0.8173326998949051,False,28,0
MP-k-21K21S2,1302,training,108,↑,up,↑,0.5239653000608087,True,28,1
MP-k-21K21S2,1303,experiment,101,←,left,←,0.445011000148952,True,28,1
MP-k-21K21S2,1304,experiment,105,↑,up,↑,0.47208320000208914,True,28,1
MP-k-21K21S2,1305,experiment,60,←,down,↓,0.6569887001533061,False,28,1
MP-k-21K21S2,1306,experiment,104,←,left,←,0.44371849996969104,True,28,1
MP-k-21K21S2,1307,experiment,82,←,down,↓,0.734413499943912,False,28,1
MP-k-21K21S2,1308,experiment,89,←,left,←,0.7071280002128333,True,28,1
MP-k-21K21S2,1309,experiment,65,→,right,→,0.47265930008143187,True,28,1
MP-k-21K21S2,1310,experiment,103,↓,down,↓,0.5150409999769181,True,28,1
MP-k-21K21S2,1311,experiment,48,↑,up,↑,0.5021883000154048,True,28,1
MP-k-21K21S2,1312,experiment,94,↓,up,↑,0.5625420999713242,False,28,1
MP-k-21K21S2,1313,experiment,66,↑,down,↓,0.5576069999951869,False,28,1
MP-k-21K21S2,1314,experiment,67,↓,down,↓,0.5287955000530928,True,28,1
MP-k-21K21S2,1315,experiment,49,→,right,→,0.47552650002762675,True,28,1
MP-k-21K21S2,1316,experiment,78,↑,down,↓,0.5180548999924213,False,28,1
MP-k-21K21S2,1317,experiment,69,←,left,←,0.6261320000048727,True,28,1
MP-k-21K21S2,1318,experiment,59,↑,up,↑,0.4452035001013428,True,28,1
MP-k-21K21S2,1319,experiment,90,←,left,←,0.45330709987320006,True,28,1
MP-k-21K21S2,1320,experiment,57,→,right,→,0.42416119994595647,True,28,1
MP-k-21K21S2,1321,experiment,79,←,left,←,0.42057269997894764,True,28,1
MP-k-21K21S2,1322,experiment,56,→,down,↓,0.6886050999164581,False,28,1
MP-k-21K21S2,1323,experiment,55,↑,up,↑,0.4668240000028163,True,28,1
MP-k-21K21S2,1324,experiment,106,←,left,←,0.45978990010917187,True,28,1
MP-k-21K21S2,1325,experiment,68,→,right,→,0.7946981999557465,True,28,1
MP-k-21K21S2,1326,experiment,77,→,left,←,0.7611906998790801,False,28,1
MP-k-21K21S2,1327,experiment,54,↑,up,↑,0.4403921999037266,True,28,1
MP-k-21K21S2,1328,experiment,83,←,left,←,0.42698340001516044,True,28,1
MP-k-21K21S2,1329,experiment,91,←,down,↓,0.5709389001131058,False,28,1
MP-k-21K21S2,1330,experiment,74,↑,down,↓,0.6432669998612255,False,28,1
MP-k-21K21S2,1331,experiment,84,↓,down,↓,0.5575395999476314,True,28,1
MP-k-21K21S2,1332,experiment,53,←,left,←,0.5731047000735998,True,28,1
MP-k-21K21S2,1333,experiment,86,→,down,↓,0.6331080000381917,False,28,1
MP-k-21K21S2,1334,experiment,97,↑,up,↑,0.4551945000421256,True,28,1
MP-k-21K21S2,1335,experiment,87,←,down,↓,0.8714752998203039,False,28,1
MP-k-21K21S2,1336,experiment,93,→,right,→,0.48524650000035763,True,28,1
MP-k-21K21S2,1337,experiment,58,→,right,→,0.494547399925068,True,28,1
MP-k-21K21S2,1338,experiment,108,↑,up,↑,0.43067810009233654,True,28,1
MP-k-21K21S2,1339,experiment,71,↑,up,↑,0.5411024000495672,True,28,1
MP-k-21K21S2,1340,experiment,64,↑,down,↓,1.1061259999405593,False,28,1
MP-k-21K21S2,1341,experiment,75,→,right,→,0.4123850001487881,True,28,1
MP-k-21K21S2,1342,experiment,72,↑,up,↑,0.5877898000180721,True,28,1
MP-k-21K21S2,1343,experiment,88,↑,down,↓,0.7428331999108195,False,28,1
MP-k-21K21S2,1344,experiment,51,→,down,↓,0.5837704997975379,False,28,1
MP-k-21K21S2,1345,experiment,61,↓,down,↓,0.5238084997981787,True,28,1
MP-k-21K21S2,1346,experiment,81,→,down,↓,0.507618400035426,False,28,1
MP-k-21K21S2,1347,experiment,62,←,left,←,0.5063302000053227,True,28,1
MP-k-21K21S2,1348,experiment,85,→,down,↓,0.6655423000920564,False,28,1
MP-k-21K21S2,1349,experiment,73,→,down,↓,0.5902289999648929,False,28,1
MP-k-21K21S2,1350,experiment,63,↓,down,↓,0.5291776000522077,True,28,1
MP-k-21K21S2,1351,experiment,98,←,down,↓,0.5070883000735193,False,28,1
MP-k-21K21S2,1352,experiment,99,↓,down,↓,0.4135012999176979,True,28,1
MP-k-21K21S2,1353,experiment,80,→,down,↓,0.42558409995399415,False,28,1
MP-k-21K21S2,1354,experiment,102,↓,down,↓,0.4071163998451084,True,28,1
MP-k-21K21S2,1355,experiment,96,←,left,←,0.5816005999222398,True,28,1
MP-k-21K21S2,1356,experiment,92,←,down,↓,0.3682488000486046,False,28,1
MP-k-21K21S2,1357,experiment,70,↑,up,↑,0.5522191000636667,True,28,0
MP-k-21K21S2,1358,experiment,100,→,down,↓,0.5453365999273956,False,28,1
MP-k-21K21S2,1359,experiment,107,→,up,↑,0.7271891001146287,False,28,1
MP-k-21K21S2,1360,experiment,95,→,right,→,1.353980700019747,True,28,1
MP-k-21K21S2,1361,experiment,76,↑,down,↓,0.5622926999349147,False,28,1
MP-k-21K21S2,1362,experiment,50,→,right,→,0.46697419998236,True,28,1
MP-k-21K21S2,1363,experiment,52,←,down,↓,0.5349391000345349,False,28,1
MP-k-21K21S2,1364,training,100,→,right,→,0.6061656998936087,True,28,0
MP-k-21K21S2,1365,training,95,←,down,↓,0.5016497999895364,False,28,1
MP-k-21K21S2,1366,experiment,101,←,left,←,0.4560350999236107,True,28,1
MP-k-21K21S2,1367,experiment,77,↑,down,↓,0.5236188999842852,False,28,1
MP-k-21K21S2,1368,experiment,61,→,down,↓,0.6820837000850588,False,28,1
MP-k-21K21S2,1369,experiment,73,↓,down,↓,0.3760930001735687,True,28,1
MP-k-21K21S2,1370,experiment,105,↑,up,↑,0.45942199998535216,True,28,0
MP-k-21K21S2,1371,experiment,95,←,down,↓,0.5932436999864876,False,28,1
MP-k-21K21S2,1372,experiment,59,↑,up,↑,0.414397899992764,True,28,1
MP-k-21K21S2,1373,experiment,67,→,down,↓,0.622220000019297,False,28,1
MP-k-21K21S2,1374,experiment,102,←,down,↓,0.6431335001252592,False,28,1
MP-k-21K21S2,1375,experiment,93,←,down,↓,0.5781687998678535,False,28,1
MP-k-21K21S2,1376,experiment,100,→,right,→,0.4494948999490589,True,28,1
MP-k-21K21S2,1377,experiment,98,↑,down,↓,0.6145308001432568,False,28,1
MP-k-21K21S2,1378,experiment,69,→,right,→,0.5106591999065131,True,28,1
MP-k-21K21S2,1379,experiment,88,↓,down,↓,0.4926981998141855,True,28,1
MP-k-21K21S2,1380,experiment,96,←,left,←,0.5047192999627441,True,28,1
MP-k-21K21S2,1381,experiment,104,↑,up,↑,0.43342399992980063,True,28,1
MP-k-21K21S2,1382,experiment,49,↓,down,↓,0.5037665998097509,True,28,1
MP-k-21K21S2,1383,experiment,62,↓,down,↓,0.5186642000917345,True,28,1
MP-k-21K21S2,1384,experiment,71,←,left,←,0.45004240004345775,True,28,1
MP-k-21K21S2,1385,experiment,60,↓,down,↓,0.46788379992358387,True,28,1
MP-k-21K21S2,1386,experiment,58,↑,down,↓,0.8856854001060128,False,28,1
MP-k-21K21S2,1387,experiment,54,→,right,→,0.41636670008301735,True,28,1
MP-k-21K21S2,1388,experiment,51,↑,up,↑,0.7100950998719782,True,28,1
MP-k-21K21S2,1389,experiment,55,←,left,←,0.8072648998349905,True,28,1
MP-k-21K21S2,1390,experiment,83,←,left,←,0.5868083001114428,True,28,1
MP-k-21K21S2,1391,experiment,91,↓,down,↓,0.508878700202331,True,28,1
MP-k-21K21S2,1392,experiment,53,→,down,↓,0.6945911999791861,False,28,1
MP-k-21K21S2,1393,experiment,65,→,right,→,0.4530959001276642,True,28,1
MP-k-21K21S2,1394,experiment,64,←,down,↓,0.5014247000217438,False,28,1
MP-k-21K21S2,1395,experiment,75,←,down,↓,0.6564252998214215,False,28,1
MP-k-21K21S2,1396,experiment,106,→,right,→,0.40284740016795695,True,28,1
MP-k-21K21S2,1397,experiment,66,↓,down,↓,0.4676375000271946,True,28,1
MP-k-21K21S2,1398,experiment,52,↓,down,↓,0.4874826001469046,True,28,1
MP-k-21K21S2,1399,experiment,94,↑,down,↓,0.564114399952814,False,28,1
MP-k-21K21S2,1400,experiment,70,←,down,↓,0.48610129998996854,False,28,1
