PART_ID,Trial_no,Trial_type,CSI,Stim_letter,Key_pressed,letter_choose,Rt,Corr,Stimulus Time,nDropped
MP-K-21K21S1,1,training,120,↑,up,↑,1.6314028999768198,True,60,0
MP-K-21K21S1,2,training,120,↓,down,↓,1.0925535999704152,True,60,0
MP-K-21K21S1,3,training,120,↓,down,↓,0.7994709999766201,True,60,0
MP-K-21K21S1,4,training,120,←,left,←,0.8468124000355601,True,60,0
MP-K-21K21S1,5,training,120,↓,down,↓,0.7799392000306398,True,60,0
MP-K-21K21S1,6,training,120,↓,down,↓,0.8358314000070095,True,60,0
MP-K-21K21S1,7,training,120,←,left,←,0.5170462999958545,True,60,0
MP-K-21K21S1,8,training,120,↑,up,↑,0.7632550001144409,True,60,0
MP-K-21K21S1,9,training,120,↑,up,↑,0.7000327999703586,True,60,0
MP-K-21K21S1,10,training,120,↓,down,↓,0.9750832999125123,True,60,0
MP-K-21K21S1,11,training,120,←,left,←,0.7912443999666721,True,60,0
MP-K-21K21S1,12,training,120,←,left,←,0.7268761000595987,True,60,0
MP-K-21K21S1,13,training,120,←,left,←,0.55021519982256,True,60,0
MP-K-21K21S1,14,training,120,↑,up,↑,0.7774869999848306,True,60,0
MP-K-21K21S1,15,training,120,→,right,→,0.7933412999846041,True,60,0
MP-K-21K21S1,16,training,120,↓,down,↓,1.1366397000383586,True,60,0
MP-K-21K21S1,17,training,120,→,right,→,0.6978337001055479,True,60,0
MP-K-21K21S1,18,training,120,←,left,←,0.6253484999760985,True,60,0
MP-K-21K21S1,19,training,120,→,right,→,1.7630904000252485,True,60,0
MP-K-21K21S1,20,training,120,←,left,←,0.8113277000375092,True,60,0
MP-K-21K21S1,21,no_adaptation,120,↓,down,↓,0.8186144998762757,True,36,0
MP-K-21K21S1,22,no_adaptation,120,↑,up,↑,0.7127185000572354,True,36,0
MP-K-21K21S1,23,no_adaptation,120,→,right,→,0.6591470998246223,True,36,0
MP-K-21K21S1,24,no_adaptation,120,←,left,←,0.47164949984289706,True,36,0
MP-K-21K21S1,25,no_adaptation,120,→,right,→,0.5480837000068277,True,36,0
MP-K-21K21S1,26,no_adaptation,120,↑,up,↑,0.6933037000708282,True,36,0
MP-K-21K21S1,27,no_adaptation,120,←,up,↑,0.888332000002265,False,36,0
MP-K-21K21S1,28,no_adaptation,120,↓,down,↓,0.8038198999129236,True,36,0
MP-K-21K21S1,29,no_adaptation,120,←,right,→,0.7306046998128295,False,36,0
MP-K-21K21S1,30,no_adaptation,120,↑,up,↑,0.7083824998699129,True,36,0
MP-K-21K21S1,31,no_adaptation,120,↓,down,↓,0.7669826000928879,True,36,0
MP-K-21K21S1,32,no_adaptation,120,↓,down,↓,1.087608400033787,True,36,0
MP-K-21K21S1,33,no_adaptation,120,→,right,→,0.6110392999835312,True,36,0
MP-K-21K21S1,34,no_adaptation,120,←,left,←,1.1295674999710172,True,36,0
MP-K-21K21S1,35,no_adaptation,120,↓,down,↓,0.7711757000070065,True,36,0
MP-K-21K21S1,36,no_adaptation,120,↑,up,↑,0.6275737001560628,True,36,0
MP-K-21K21S1,37,no_adaptation,120,←,left,←,0.641297800000757,True,36,0
MP-K-21K21S1,38,no_adaptation,120,↑,up,↑,0.662886899895966,True,36,0
MP-K-21K21S1,39,no_adaptation,120,→,right,→,0.6355181001126766,True,36,0
MP-K-21K21S1,40,no_adaptation,120,↑,up,↑,0.6247570000123233,True,36,0
MP-K-21K21S1,41,training,101,↑,up,↑,0.643523900071159,True,36,0
MP-K-21K21S1,42,training,57,→,right,→,0.6545972998719662,True,36,1
MP-K-21K21S1,43,experiment,63,↓,down,↓,0.9031841000542045,True,36,1
MP-K-21K21S1,44,experiment,97,↓,down,↓,0.8339172000996768,True,36,1
MP-K-21K21S1,45,experiment,95,→,right,→,0.8245766998734325,True,36,1
MP-K-21K21S1,46,experiment,88,→,right,→,1.105936500011012,True,36,1
MP-K-21K21S1,47,experiment,49,↓,down,↓,1.0769161998759955,True,36,1
MP-K-21K21S1,48,experiment,105,↓,down,↓,0.8145886999554932,True,36,1
MP-K-21K21S1,49,experiment,62,→,right,→,0.7209981000050902,True,36,1
MP-K-21K21S1,50,experiment,75,→,right,→,0.8107201000675559,True,36,1
MP-K-21K21S1,51,experiment,72,→,right,→,0.8020595000125468,True,36,1
MP-K-21K21S1,52,experiment,78,↓,down,↓,0.663806099910289,True,36,1
MP-K-21K21S1,53,experiment,98,→,right,→,0.7882471000775695,True,36,1
MP-K-21K21S1,54,experiment,79,→,right,→,0.8658931998070329,True,36,1
MP-K-21K21S1,55,experiment,56,↓,down,↓,0.8682454999070615,True,36,1
MP-K-21K21S1,56,experiment,108,↓,down,↓,0.7250610000919551,True,36,1
MP-K-21K21S1,57,experiment,91,←,left,←,0.6974908001720905,True,36,1
MP-K-21K21S1,58,experiment,48,↓,down,↓,0.9092732998542488,True,36,1
MP-K-21K21S1,59,experiment,100,→,right,→,0.6553323999978602,True,36,1
MP-K-21K21S1,60,experiment,53,↓,down,↓,0.9950661999173462,True,36,1
MP-K-21K21S1,61,experiment,80,↑,up,↑,0.9283890000078827,True,36,1
MP-K-21K21S1,62,experiment,67,→,right,→,0.9323181000072509,True,36,1
MP-K-21K21S1,63,experiment,77,↑,up,↑,0.8532803999260068,True,36,1
MP-K-21K21S1,64,experiment,107,↑,up,↑,0.9749746001325548,True,36,1
MP-K-21K21S1,65,experiment,71,→,right,→,0.8958811000920832,True,36,1
MP-K-21K21S1,66,experiment,90,↑,up,↑,0.9416634000372142,True,36,1
MP-K-21K21S1,67,experiment,102,↓,down,↓,0.8695102999918163,True,36,1
MP-K-21K21S1,68,experiment,92,→,right,→,0.8919122000224888,True,36,1
MP-K-21K21S1,69,experiment,103,→,right,→,0.5976356000173837,True,36,1
MP-K-21K21S1,70,experiment,59,↓,down,↓,0.7056808001361787,True,36,1
MP-K-21K21S1,71,experiment,87,→,right,→,0.8562043998390436,True,36,1
MP-K-21K21S1,72,experiment,55,→,right,→,0.723220800049603,True,36,1
MP-K-21K21S1,73,experiment,84,↓,down,↓,1.2259194999933243,True,36,1
MP-K-21K21S1,74,experiment,93,←,right,→,0.7933569999877363,False,36,1
MP-K-21K21S1,75,experiment,74,↑,right,→,0.8248066999949515,False,36,1
MP-K-21K21S1,76,experiment,99,↓,down,↓,0.8304312000982463,True,36,1
MP-K-21K21S1,77,experiment,60,←,right,→,1.136879300000146,False,36,1
MP-K-21K21S1,78,experiment,58,↓,down,↓,0.7678767999168485,True,36,1
MP-K-21K21S1,79,experiment,54,→,right,→,0.7430475999135524,True,36,1
MP-K-21K21S1,80,experiment,82,↑,up,↑,0.8135345000773668,True,36,1
MP-K-21K21S1,81,experiment,65,→,right,→,0.7589988999534398,True,36,1
MP-K-21K21S1,82,experiment,83,↑,up,↑,0.7886797001119703,True,36,1
MP-K-21K21S1,83,experiment,101,↓,down,↓,0.7234784001484513,True,36,1
MP-K-21K21S1,84,experiment,89,↓,down,↓,0.7360710999928415,True,36,1
MP-K-21K21S1,85,experiment,51,→,right,→,0.7294526998884976,True,36,1
MP-K-21K21S1,86,experiment,86,←,right,→,0.8313525000121444,False,36,1
MP-K-21K21S1,87,experiment,57,↑,up,↑,0.8026435000356287,True,36,1
MP-K-21K21S1,88,experiment,94,←,left,←,0.7389481000136584,True,36,1
MP-K-21K21S1,89,experiment,81,↓,left,←,0.7140357999596745,False,36,1
MP-K-21K21S1,90,experiment,66,←,left,←,0.8710216998588294,True,36,1
MP-K-21K21S1,91,experiment,70,←,left,←,0.6766499001532793,True,36,1
MP-K-21K21S1,92,experiment,52,↓,down,↓,0.6562080001458526,True,36,1
MP-K-21K21S1,93,experiment,76,↓,down,↓,0.6604016001801938,True,36,1
MP-K-21K21S1,94,experiment,69,→,right,→,0.6906683000270277,True,36,1
MP-K-21K21S1,95,experiment,104,↑,up,↑,0.9799577000085264,True,36,1
MP-K-21K21S1,96,experiment,96,→,right,→,0.6201851000078022,True,36,1
MP-K-21K21S1,97,experiment,61,←,left,←,0.6950941998511553,True,36,1
MP-K-21K21S1,98,experiment,85,←,left,←,0.8543255999684334,True,36,1
MP-K-21K21S1,99,experiment,64,↑,up,↑,0.9103598999790847,True,36,1
MP-K-21K21S1,100,experiment,68,↑,up,↑,0.9549778001382947,True,36,1
MP-K-21K21S1,101,experiment,73,↑,up,↑,0.7720449001062661,True,36,1
MP-K-21K21S1,102,experiment,106,→,right,→,0.8575014001689851,True,36,1
MP-K-21K21S1,103,experiment,50,↑,up,↑,0.8701629999559373,True,36,1
MP-K-21K21S1,104,training,81,→,left,←,1.0854707998223603,False,35,0
MP-K-21K21S1,105,training,103,→,right,→,0.7913408998865634,True,35,1
MP-K-21K21S1,106,experiment,77,→,right,→,0.6617244998924434,True,35,1
MP-K-21K21S1,107,experiment,91,→,right,→,0.6205010998528451,True,35,1
MP-K-21K21S1,108,experiment,52,←,left,←,0.7462069999892265,True,35,1
MP-K-21K21S1,109,experiment,72,→,right,→,0.8201424998696893,True,35,1
MP-K-21K21S1,110,experiment,100,←,left,←,0.793203700101003,True,35,1
MP-K-21K21S1,111,experiment,65,←,left,←,0.7797262000385672,True,35,1
MP-K-21K21S1,112,experiment,58,←,left,←,0.7768713000696152,True,35,1
MP-K-21K21S1,113,experiment,84,→,right,→,0.7016412999946624,True,35,1
MP-K-21K21S1,114,experiment,57,→,right,→,0.9904529999475926,True,35,1
MP-K-21K21S1,115,experiment,96,←,left,←,0.8704677999485284,True,35,1
MP-K-21K21S1,116,experiment,81,↓,down,↓,0.9120193000417203,True,35,1
MP-K-21K21S1,117,experiment,107,↓,down,↓,0.7116429000161588,True,35,1
MP-K-21K21S1,118,experiment,60,←,left,←,0.8871220999862999,True,35,1
MP-K-21K21S1,119,experiment,66,→,right,→,0.6211551001761109,True,35,1
MP-K-21K21S1,120,experiment,95,↓,down,↓,0.732201499864459,True,35,1
MP-K-21K21S1,121,experiment,82,↓,down,↓,0.8270642999559641,True,35,1
MP-K-21K21S1,122,experiment,48,→,right,→,0.7136408998630941,True,35,1
MP-K-21K21S1,123,experiment,90,→,right,→,0.8625577001366764,True,35,1
MP-K-21K21S1,124,experiment,53,→,right,→,0.7383071999065578,True,35,1
MP-K-21K21S1,125,experiment,105,→,right,→,0.9214025000110269,True,35,1
MP-K-21K21S1,126,experiment,85,↑,down,↓,0.7597888999152929,False,35,1
MP-K-21K21S1,127,experiment,93,→,right,→,0.6980634999927133,True,35,1
MP-K-21K21S1,128,experiment,49,↓,down,↓,0.9334235999267548,True,35,1
MP-K-21K21S1,129,experiment,101,↓,down,↓,0.7259388999082148,True,35,1
MP-K-21K21S1,130,experiment,71,↓,down,↓,0.7135884999297559,True,35,1
MP-K-21K21S1,131,experiment,73,→,right,→,0.6438247999176383,True,35,1
MP-K-21K21S1,132,experiment,80,→,right,→,0.9752107998356223,True,35,1
MP-K-21K21S1,133,experiment,108,↓,down,↓,0.6679543999489397,True,35,1
MP-K-21K21S1,134,experiment,70,→,right,→,0.46620999998413026,True,35,1
MP-K-21K21S1,135,experiment,79,←,right,→,0.8443893999792635,False,35,1
MP-K-21K21S1,136,experiment,68,←,left,←,0.707739100093022,True,35,1
MP-K-21K21S1,137,experiment,103,↑,up,↑,0.6126973999198526,True,35,1
MP-K-21K21S1,138,experiment,98,↑,up,↑,0.6115015000104904,True,35,1
MP-K-21K21S1,139,experiment,61,←,left,←,0.7425329999532551,True,35,1
MP-K-21K21S1,140,experiment,92,↓,down,↓,0.8417670000344515,True,35,1
MP-K-21K21S1,141,experiment,102,←,left,←,0.462238899897784,True,35,1
MP-K-21K21S1,142,experiment,67,↑,up,↑,1.0686534000560641,True,35,0
MP-K-21K21S1,143,experiment,75,→,right,→,0.40945030003786087,True,35,1
MP-K-21K21S1,144,experiment,76,←,right,→,0.949987200088799,False,35,0
MP-K-21K21S1,145,experiment,87,←,left,←,0.8347270998638123,True,35,1
MP-K-21K21S1,146,experiment,74,↓,down,↓,0.7604815999511629,True,35,1
MP-K-21K21S1,147,experiment,59,↓,down,↓,0.934152300003916,True,35,1
MP-K-21K21S1,148,experiment,51,↑,left,←,1.3995859001297504,False,35,1
MP-K-21K21S1,149,experiment,94,↑,down,↓,0.991702500032261,False,35,1
MP-K-21K21S1,150,experiment,54,↑,up,↑,0.7178476999979466,True,35,1
MP-K-21K21S1,151,experiment,88,↑,up,↑,0.8193878999445587,True,35,1
MP-K-21K21S1,152,experiment,50,→,right,→,0.7374045001342893,True,35,1
MP-K-21K21S1,153,experiment,104,←,left,←,0.8166861000936478,True,35,1
MP-K-21K21S1,154,experiment,86,↓,down,↓,0.6512434999458492,True,35,1
MP-K-21K21S1,155,experiment,78,↑,up,↑,0.5590223998297006,True,35,1
MP-K-21K21S1,156,experiment,64,←,left,←,0.7710657001007348,True,35,1
MP-K-21K21S1,157,experiment,63,←,left,←,0.6951965000480413,True,35,1
MP-K-21K21S1,158,experiment,106,←,left,←,0.6955440000165254,True,35,1
MP-K-21K21S1,159,experiment,56,↓,down,↓,0.7364433000329882,True,35,1
MP-K-21K21S1,160,experiment,69,↓,down,↓,0.7078718999400735,True,35,1
MP-K-21K21S1,161,experiment,99,→,right,→,0.9104152000509202,True,35,1
MP-K-21K21S1,162,experiment,89,←,left,←,0.8279732998926193,True,35,1
MP-K-21K21S1,163,experiment,62,←,left,←,0.758198200026527,True,35,1
MP-K-21K21S1,164,experiment,83,→,right,→,0.7636225998867303,True,35,1
MP-K-21K21S1,165,experiment,97,↓,down,↓,0.7323179999366403,True,35,1
MP-K-21K21S1,166,experiment,55,↓,down,↓,0.6442048000171781,True,35,1
MP-K-21K21S1,167,training,72,→,right,→,0.6211032001301646,True,34,0
MP-K-21K21S1,168,training,55,←,left,←,0.5134523999877274,True,34,1
MP-K-21K21S1,169,experiment,90,←,left,←,0.7664284999482334,True,34,1
MP-K-21K21S1,170,experiment,78,↓,down,↓,0.8373467000201344,True,34,1
MP-K-21K21S1,171,experiment,69,→,right,→,0.7966452999971807,True,34,1
MP-K-21K21S1,172,experiment,83,→,right,→,0.7126193000003695,True,34,1
MP-K-21K21S1,173,experiment,93,↓,down,↓,0.8365317999850959,True,34,1
MP-K-21K21S1,174,experiment,63,↓,down,↓,0.8940202998928726,True,34,1
MP-K-21K21S1,175,experiment,54,↑,up,↑,0.8722419999539852,True,34,1
MP-K-21K21S1,176,experiment,79,↑,up,↑,0.6584981000050902,True,34,1
MP-K-21K21S1,177,experiment,56,←,left,←,1.0290467999875546,True,34,1
MP-K-21K21S1,178,experiment,105,→,right,→,0.5764357999432832,True,34,1
MP-K-21K21S1,179,experiment,55,↑,up,↑,0.5829107000026852,True,34,1
MP-K-21K21S1,180,experiment,107,←,left,←,0.7715600999072194,True,34,1
MP-K-21K21S1,181,experiment,71,↓,up,↑,0.8604421000927687,False,34,1
MP-K-21K21S1,182,experiment,70,↓,down,↓,0.8745325000490993,True,34,1
MP-K-21K21S1,183,experiment,104,↑,down,↓,1.117736800108105,False,34,1
MP-K-21K21S1,184,experiment,89,↓,down,↓,0.689906699815765,True,34,1
MP-K-21K21S1,185,experiment,58,↑,up,↑,0.7386111000087112,True,34,1
MP-K-21K21S1,186,experiment,50,↓,up,↑,0.7079521000850946,False,34,1
MP-K-21K21S1,187,experiment,87,→,right,→,0.5624053999781609,True,34,1
MP-K-21K21S1,188,experiment,48,↑,up,↑,0.5875158999115229,True,34,1
MP-K-21K21S1,189,experiment,68,←,left,←,0.7970835000742227,True,34,1
MP-K-21K21S1,190,experiment,92,↓,down,↓,0.8621080999728292,True,34,1
MP-K-21K21S1,191,experiment,91,↓,down,↓,0.7728047000709921,True,34,1
MP-K-21K21S1,192,experiment,64,↓,down,↓,0.8803845001384616,True,34,1
MP-K-21K21S1,193,experiment,76,←,left,←,0.5553133001085371,True,34,1
MP-K-21K21S1,194,experiment,85,←,right,→,0.7923020001035184,False,34,1
MP-K-21K21S1,195,experiment,59,←,left,←,0.6768505999352783,True,34,1
MP-K-21K21S1,196,experiment,53,↑,up,↑,0.5919455999974161,True,34,1
MP-K-21K21S1,197,experiment,96,↓,down,↓,0.9518927000463009,True,34,1
MP-K-21K21S1,198,experiment,99,→,right,→,0.5845005998853594,True,34,1
MP-K-21K21S1,199,experiment,84,↓,down,↓,0.6768714999780059,True,34,1
MP-K-21K21S1,200,experiment,102,←,right,→,0.7912494998890907,False,34,1
MP-K-21K21S1,201,experiment,77,→,right,→,0.7255069999955595,True,34,1
MP-K-21K21S1,202,experiment,108,←,left,←,0.5482956999912858,True,34,1
MP-K-21K21S1,203,experiment,95,←,right,→,0.8305425001308322,False,34,1
MP-K-21K21S1,204,experiment,65,→,right,→,0.7670571999624372,True,34,1
MP-K-21K21S1,205,experiment,88,↑,up,↑,0.7707076000515372,True,34,1
MP-K-21K21S1,206,experiment,73,←,left,←,0.5710543999448419,True,34,1
MP-K-21K21S1,207,experiment,51,↑,up,↑,1.0908029000274837,True,34,1
MP-K-21K21S1,208,experiment,86,↑,up,↑,0.6982857000548393,True,34,1
MP-K-21K21S1,209,experiment,75,←,left,←,0.6287344999145716,True,34,1
MP-K-21K21S1,210,experiment,80,→,right,→,0.6725693000480533,True,34,1
MP-K-21K21S1,211,experiment,101,→,right,→,0.6916038999333978,True,34,1
MP-K-21K21S1,212,experiment,74,←,left,←,0.6631567999720573,True,34,1
MP-K-21K21S1,213,experiment,103,↑,up,↑,1.2577978000044823,True,34,1
MP-K-21K21S1,214,experiment,60,↑,up,↑,0.6912746999878436,True,34,1
MP-K-21K21S1,215,experiment,61,↑,up,↑,0.8747729999013245,True,34,1
MP-K-21K21S1,216,experiment,106,→,right,→,0.532118400093168,True,34,1
MP-K-21K21S1,217,experiment,97,↑,up,↑,0.758277699816972,True,34,1
MP-K-21K21S1,218,experiment,82,→,right,→,0.836113200057298,True,34,1
MP-K-21K21S1,219,experiment,57,→,right,→,0.607779199955985,True,34,1
MP-K-21K21S1,220,experiment,100,←,left,←,0.6056830000597984,True,34,1
MP-K-21K21S1,221,experiment,67,↓,down,↓,0.7347077999729663,True,34,1
MP-K-21K21S1,222,experiment,49,↑,down,↓,1.1926909999456257,False,34,1
MP-K-21K21S1,223,experiment,94,→,right,→,0.7294295001775026,True,34,1
MP-K-21K21S1,224,experiment,52,←,left,←,0.6904185998719186,True,34,1
MP-K-21K21S1,225,experiment,62,↑,up,↑,0.7777283999603242,True,34,1
MP-K-21K21S1,226,experiment,72,→,right,→,0.6025386999826878,True,34,1
MP-K-21K21S1,227,experiment,66,↑,up,↑,0.7560370999854058,True,34,1
MP-K-21K21S1,228,experiment,81,↓,up,↑,0.8983924998901784,False,34,1
MP-K-21K21S1,229,experiment,98,→,left,←,1.05332800000906,False,34,1
MP-K-21K21S1,230,training,101,↓,down,↓,0.8185860998928547,True,34,0
MP-K-21K21S1,231,training,95,←,left,←,0.7219648000318557,True,34,1
MP-K-21K21S1,232,experiment,52,↑,left,←,0.795194499893114,False,34,1
MP-K-21K21S1,233,experiment,74,→,right,→,0.6902202998753637,True,34,1
MP-K-21K21S1,234,experiment,100,←,left,←,1.044970299815759,True,34,1
MP-K-21K21S1,235,experiment,102,→,right,→,0.8411489001009613,True,34,1
MP-K-21K21S1,236,experiment,64,↓,down,↓,0.8656709999777377,True,34,1
MP-K-21K21S1,237,experiment,108,↑,up,↑,0.8106376000214368,True,34,1
MP-K-21K21S1,238,experiment,69,↑,up,↑,0.6831331001594663,True,34,1
MP-K-21K21S1,239,experiment,88,→,right,→,0.7221124998759478,True,34,1
MP-K-21K21S1,240,experiment,98,↓,down,↓,0.7000531000085175,True,34,1
MP-K-21K21S1,241,experiment,78,→,right,→,0.7577303000725806,True,34,1
MP-K-21K21S1,242,experiment,85,←,left,←,0.5626169999595731,True,34,1
MP-K-21K21S1,243,experiment,80,←,left,←,0.6576773000415415,True,34,1
MP-K-21K21S1,244,experiment,84,←,left,←,0.5468599000014365,True,34,1
MP-K-21K21S1,245,experiment,91,→,right,→,0.630381700117141,True,34,1
MP-K-21K21S1,246,experiment,107,↑,down,↓,0.8969972999766469,False,34,1
MP-K-21K21S1,247,experiment,48,←,left,←,0.5967068001627922,True,34,1
MP-K-21K21S1,248,experiment,53,←,left,←,0.6667322998400778,True,34,1
MP-K-21K21S1,249,experiment,56,→,right,→,0.709220000077039,True,34,1
MP-K-21K21S1,250,experiment,72,←,right,→,0.5846116000320762,False,34,1
MP-K-21K21S1,251,experiment,87,←,left,←,0.46811480005271733,True,34,1
MP-K-21K21S1,252,experiment,82,←,left,←,0.5337276000063866,True,34,1
MP-K-21K21S1,253,experiment,62,→,right,→,0.5395845000166446,True,34,1
MP-K-21K21S1,254,experiment,58,→,right,→,0.6261915001086891,True,34,1
MP-K-21K21S1,255,experiment,61,↓,down,↓,0.8127146000042558,True,34,1
MP-K-21K21S1,256,experiment,60,↓,down,↓,0.8160447999835014,True,34,1
MP-K-21K21S1,257,experiment,106,→,right,→,0.739790900144726,True,34,1
MP-K-21K21S1,258,experiment,93,←,right,→,0.7507839000318199,False,34,1
MP-K-21K21S1,259,experiment,77,↓,down,↓,1.1268628998659551,True,34,1
MP-K-21K21S1,260,experiment,97,↑,up,↑,0.7450594999827445,True,34,1
MP-K-21K21S1,261,experiment,66,←,left,←,0.5410841000266373,True,34,1
MP-K-21K21S1,262,experiment,79,↓,down,↓,0.6606656000949442,True,34,1
MP-K-21K21S1,263,experiment,89,↑,up,↑,0.7720713000744581,True,34,1
MP-K-21K21S1,264,experiment,83,→,right,→,0.6811556001193821,True,34,1
MP-K-21K21S1,265,experiment,92,→,right,→,0.47114129993133247,True,34,1
MP-K-21K21S1,266,experiment,50,↑,up,↑,0.9229546000715345,True,34,1
MP-K-21K21S1,267,experiment,63,←,left,←,0.48870530002750456,True,34,1
MP-K-21K21S1,268,experiment,67,→,right,→,0.5265613000374287,True,34,1
MP-K-21K21S1,269,experiment,68,↓,down,↓,0.8344588000327349,True,34,1
MP-K-21K21S1,270,experiment,96,←,left,←,0.4888218000996858,True,34,1
MP-K-21K21S1,271,experiment,75,↑,up,↑,0.7320872999262065,True,34,1
MP-K-21K21S1,272,experiment,101,→,right,→,0.5647650000173599,True,34,1
MP-K-21K21S1,273,experiment,57,↑,up,↑,0.8909249000716954,True,34,1
MP-K-21K21S1,274,experiment,65,←,left,←,0.6250504001509398,True,34,1
MP-K-21K21S1,275,experiment,59,↑,up,↑,0.5642365999519825,True,34,1
MP-K-21K21S1,276,experiment,94,↑,up,↑,0.733916699886322,True,34,1
MP-K-21K21S1,277,experiment,99,→,right,→,0.607126499991864,True,34,1
MP-K-21K21S1,278,experiment,55,↑,up,↑,0.5243557000067085,True,34,1
MP-K-21K21S1,279,experiment,81,↑,up,↑,0.6200583998579532,True,34,1
MP-K-21K21S1,280,experiment,73,↑,up,↑,0.730663999915123,True,34,1
MP-K-21K21S1,281,experiment,54,→,right,→,0.6671279999427497,True,34,1
MP-K-21K21S1,282,experiment,95,←,right,→,0.9366345000453293,False,34,1
MP-K-21K21S1,283,experiment,76,↑,up,↑,0.5855809000786394,True,34,1
MP-K-21K21S1,284,experiment,90,↓,down,↓,0.8834644998423755,True,34,1
MP-K-21K21S1,285,experiment,86,→,right,→,1.1952687001321465,True,34,1
MP-K-21K21S1,286,experiment,103,↓,down,↓,0.7529019000940025,True,34,1
MP-K-21K21S1,287,experiment,49,→,right,→,0.7618532001506537,True,34,1
MP-K-21K21S1,288,experiment,71,→,right,→,0.6515156000386924,True,34,1
MP-K-21K21S1,289,experiment,105,→,right,→,0.8783172001130879,True,34,1
MP-K-21K21S1,290,experiment,104,←,left,←,0.7760079000145197,True,34,1
MP-K-21K21S1,291,experiment,70,↑,up,↑,0.865637700073421,True,34,1
MP-K-21K21S1,292,experiment,51,↓,right,→,1.1892256999853998,False,34,1
MP-K-21K21S1,293,training,86,↓,down,↓,0.7023323001340032,True,33,0
MP-K-21K21S1,294,training,90,↑,right,→,0.9159786999225616,False,33,1
MP-K-21K21S1,295,experiment,70,↑,up,↑,0.7276971999090165,True,33,1
MP-K-21K21S1,296,experiment,106,→,right,→,0.6471096999011934,True,33,1
MP-K-21K21S1,297,experiment,87,→,right,→,0.6233967998996377,True,33,1
MP-K-21K21S1,298,experiment,98,→,right,→,0.5495531000196934,True,33,1
MP-K-21K21S1,299,experiment,52,↓,down,↓,0.6220082000363618,True,33,1
MP-K-21K21S1,300,experiment,66,↓,down,↓,0.6625004999805242,True,33,1
MP-K-21K21S1,301,experiment,57,←,right,→,0.7047204000409693,False,33,1
MP-K-21K21S1,302,experiment,51,↑,right,→,0.9310046001337469,False,33,1
MP-K-21K21S1,303,experiment,49,↓,down,↓,0.6932169999927282,True,33,1
MP-K-21K21S1,304,experiment,102,↑,up,↑,0.5273843000177294,True,33,1
MP-K-21K21S1,305,experiment,65,→,right,→,0.5559753999114037,True,33,1
MP-K-21K21S1,306,experiment,53,←,right,→,0.9397693001665175,False,33,1
MP-K-21K21S1,307,experiment,64,→,right,→,0.8963499998208135,True,33,1
MP-K-21K21S1,308,experiment,72,←,right,→,0.7081108000129461,False,33,1
MP-K-21K21S1,309,experiment,73,↓,down,↓,0.6231406000442803,True,33,1
MP-K-21K21S1,310,experiment,88,↓,down,↓,0.8488169000484049,True,33,1
MP-K-21K21S1,311,experiment,81,↓,down,↓,0.7953019000124186,True,33,1
MP-K-21K21S1,312,experiment,69,→,right,→,0.6441782000474632,True,33,1
MP-K-21K21S1,313,experiment,80,↑,up,↑,0.6637154000345618,True,33,1
MP-K-21K21S1,314,experiment,104,→,right,→,0.5459706999827176,True,33,1
MP-K-21K21S1,315,experiment,54,↓,down,↓,0.8176160000730306,True,33,1
MP-K-21K21S1,316,experiment,82,←,left,←,0.7655752000864595,True,33,1
MP-K-21K21S1,317,experiment,68,→,right,→,0.5999663998372853,True,33,1
MP-K-21K21S1,318,experiment,77,←,left,←,0.7017651998903602,True,33,1
MP-K-21K21S1,319,experiment,100,↓,down,↓,0.9841686000581831,True,33,1
MP-K-21K21S1,320,experiment,89,↓,down,↓,0.6268688999116421,True,33,1
MP-K-21K21S1,321,experiment,90,←,left,←,0.6356354998424649,True,33,1
MP-K-21K21S1,322,experiment,76,↑,up,↑,0.8566434001550078,True,33,1
MP-K-21K21S1,323,experiment,55,←,left,←,0.5397405000403523,True,33,1
MP-K-21K21S1,324,experiment,62,←,right,→,0.9691407000645995,False,33,1
MP-K-21K21S1,325,experiment,59,←,left,←,0.6065191000234336,True,33,1
MP-K-21K21S1,326,experiment,101,↑,up,↑,0.6841531000100076,True,33,1
MP-K-21K21S1,327,experiment,84,→,right,→,0.5166667001321912,True,33,1
MP-K-21K21S1,328,experiment,58,↑,up,↑,0.4843087999615818,True,33,1
MP-K-21K21S1,329,experiment,92,↑,up,↑,0.6499474998563528,True,33,1
MP-K-21K21S1,330,experiment,71,→,right,→,0.7998777001630515,True,33,1
MP-K-21K21S1,331,experiment,83,↑,up,↑,0.8042022997979075,True,33,1
MP-K-21K21S1,332,experiment,79,↑,up,↑,0.8493629000149667,True,33,1
MP-K-21K21S1,333,experiment,60,←,left,←,0.5308628999628127,True,33,1
MP-K-21K21S1,334,experiment,50,↓,down,↓,0.9565776998642832,True,33,1
MP-K-21K21S1,335,experiment,97,↑,up,↑,0.5415139999240637,True,33,1
MP-K-21K21S1,336,experiment,91,↑,up,↑,0.881382399937138,True,33,1
MP-K-21K21S1,337,experiment,74,←,left,←,0.6529790000058711,True,33,1
MP-K-21K21S1,338,experiment,63,↓,right,→,0.9817602999974042,False,33,1
MP-K-21K21S1,339,experiment,86,←,left,←,0.553154299966991,True,33,1
MP-K-21K21S1,340,experiment,95,↑,up,↑,0.8031978001818061,True,33,1
MP-K-21K21S1,341,experiment,107,→,right,→,0.8309877999126911,True,33,1
MP-K-21K21S1,342,experiment,85,←,left,←,0.5848065000027418,True,33,1
MP-K-21K21S1,343,experiment,96,→,right,→,0.6971559000667185,True,33,1
MP-K-21K21S1,344,experiment,48,→,right,→,0.7488653999753296,True,33,1
MP-K-21K21S1,345,experiment,105,↓,down,↓,0.7155605000443757,True,33,1
MP-K-21K21S1,346,experiment,103,←,right,→,0.6762256999500096,False,33,1
MP-K-21K21S1,347,experiment,99,↓,down,↓,0.7197567999828607,True,33,1
MP-K-21K21S1,348,experiment,93,←,left,←,0.5158947999589145,True,33,1
MP-K-21K21S1,349,experiment,61,↓,down,↓,0.9067746999207884,True,33,1
MP-K-21K21S1,350,experiment,108,→,right,→,0.6419573000166565,True,33,1
MP-K-21K21S1,351,experiment,75,↑,up,↑,0.4087137000169605,True,33,1
MP-K-21K21S1,352,experiment,78,→,right,→,0.9962293999269605,True,33,0
MP-K-21K21S1,353,experiment,94,←,left,←,0.724485999904573,True,33,1
MP-K-21K21S1,354,experiment,56,→,right,→,0.6047352000605315,True,33,1
MP-K-21K21S1,355,experiment,67,↓,down,↓,1.1017472001258284,True,33,1
MP-K-21K21S1,356,training,75,→,right,→,0.6103036000858992,True,33,0
MP-K-21K21S1,357,training,55,→,right,→,0.8552389999385923,True,33,1
MP-K-21K21S1,358,experiment,107,→,right,→,0.5609268001280725,True,33,1
MP-K-21K21S1,359,experiment,61,↓,down,↓,0.7735114998649806,True,33,1
MP-K-21K21S1,360,experiment,59,↑,up,↑,0.45055180019699037,True,33,1
MP-K-21K21S1,361,experiment,57,↑,up,↑,0.40968360006809235,True,33,0
MP-K-21K21S1,362,experiment,49,↑,up,↑,0.8203298000153154,True,33,0
MP-K-21K21S1,363,experiment,100,↓,down,↓,0.6739308000542223,True,33,1
MP-K-21K21S1,364,experiment,55,↓,down,↓,0.5963327998761088,True,33,1
MP-K-21K21S1,365,experiment,91,→,right,→,1.0056505999527872,True,33,1
MP-K-21K21S1,366,experiment,90,→,right,→,0.591040600091219,True,33,1
MP-K-21K21S1,367,experiment,83,→,right,→,0.8034016001038253,True,33,1
MP-K-21K21S1,368,experiment,85,↑,up,↑,0.6464534001424909,True,33,1
MP-K-21K21S1,369,experiment,101,↓,down,↓,0.7064692000858486,True,33,1
MP-K-21K21S1,370,experiment,56,→,right,→,0.683213499840349,True,33,1
MP-K-21K21S1,371,experiment,88,→,right,→,0.6982408999465406,True,33,1
MP-K-21K21S1,372,experiment,104,↓,down,↓,0.747229800093919,True,33,1
MP-K-21K21S1,373,experiment,51,↓,down,↓,0.596034900052473,True,33,1
MP-K-21K21S1,374,experiment,67,↑,up,↑,0.5173149998299778,True,33,1
MP-K-21K21S1,375,experiment,62,↑,up,↑,1.171749300090596,True,33,1
MP-K-21K21S1,376,experiment,63,↑,up,↑,0.9435256000142545,True,33,1
MP-K-21K21S1,377,experiment,105,←,left,←,0.7659497999120504,True,33,1
MP-K-21K21S1,378,experiment,99,←,left,←,0.6381598000880331,True,33,1
MP-K-21K21S1,379,experiment,52,←,left,←,0.730791199952364,True,33,1
MP-K-21K21S1,380,experiment,77,→,right,→,0.7154802000150084,True,33,1
MP-K-21K21S1,381,experiment,86,→,right,→,0.6418296000920236,True,33,1
MP-K-21K21S1,382,experiment,96,←,left,←,0.9042839999310672,True,33,1
MP-K-21K21S1,383,experiment,97,←,left,←,0.658912600018084,True,33,1
MP-K-21K21S1,384,experiment,68,←,right,→,0.7457405000459403,False,33,1
MP-K-21K21S1,385,experiment,50,↑,down,↓,1.0668432000093162,False,33,1
MP-K-21K21S1,386,experiment,74,←,left,←,0.5430888999253511,True,33,1
MP-K-21K21S1,387,experiment,76,↑,right,→,0.8236310000065714,False,33,1
MP-K-21K21S1,388,experiment,81,↑,up,↑,0.5873466001357883,True,33,1
MP-K-21K21S1,389,experiment,73,↑,up,↑,0.7873236001469195,True,33,1
MP-K-21K21S1,390,experiment,72,→,right,→,0.5951286999043077,True,33,1
MP-K-21K21S1,391,experiment,70,↑,up,↑,0.9558005998842418,True,33,1
MP-K-21K21S1,392,experiment,82,←,no_key,no_letter,-1.0,False,33,1
MP-K-21K21S1,393,experiment,71,→,right,→,0.6523199998773634,True,33,1
MP-K-21K21S1,394,experiment,78,↑,up,↑,0.7920895998831838,True,33,1
MP-K-21K21S1,395,experiment,53,↑,up,↑,0.7102024001069367,True,33,1
MP-K-21K21S1,396,experiment,80,↓,right,→,1.351039299974218,False,33,1
MP-K-21K21S1,397,experiment,102,↓,down,↓,0.7585415998473763,True,33,1
MP-K-21K21S1,398,experiment,87,↓,down,↓,0.9148329000454396,True,33,1
MP-K-21K21S1,399,experiment,89,→,right,→,0.5680797998793423,True,33,1
MP-K-21K21S1,400,experiment,98,→,right,→,0.6006338999141008,True,33,1
MP-K-21K21S1,401,experiment,106,←,left,←,0.5170954999048263,True,33,1
MP-K-21K21S1,402,experiment,54,↑,up,↑,0.5341656000819057,True,33,1
MP-K-21K21S1,403,experiment,94,↓,down,↓,1.2650264999829233,True,33,1
MP-K-21K21S1,404,experiment,108,↓,down,↓,0.930201199837029,True,33,1
MP-K-21K21S1,405,experiment,60,↑,up,↑,0.6084658999461681,True,33,1
MP-K-21K21S1,406,experiment,103,←,left,←,0.65345360012725,True,33,1
MP-K-21K21S1,407,experiment,69,→,right,→,0.6919231999199837,True,33,1
MP-K-21K21S1,408,experiment,64,↑,up,↑,0.7306208999361843,True,33,1
MP-K-21K21S1,409,experiment,84,→,right,→,1.6567168000619859,True,33,1
MP-K-21K21S1,410,experiment,66,←,left,←,0.4802663999143988,True,33,1
MP-K-21K21S1,411,experiment,75,↓,down,↓,0.715581800090149,True,33,1
MP-K-21K21S1,412,experiment,93,↑,down,↓,0.9916204998735338,False,33,1
MP-K-21K21S1,413,experiment,65,→,right,→,0.6260970002040267,True,33,1
MP-K-21K21S1,414,experiment,48,↑,up,↑,0.7688884001690894,True,33,1
MP-K-21K21S1,415,experiment,92,↑,up,↑,0.5711020000744611,True,33,1
MP-K-21K21S1,416,experiment,79,←,left,←,0.513548499904573,True,33,1
MP-K-21K21S1,417,experiment,58,→,right,→,0.5372961999382824,True,33,1
MP-K-21K21S1,418,experiment,95,←,right,→,1.0355803999118507,False,33,1
MP-K-21K21S1,419,training,77,↑,up,↑,0.6992650001775473,True,33,0
MP-K-21K21S1,420,training,100,→,right,→,0.7733477998990566,True,33,1
MP-K-21K21S1,421,experiment,108,↑,up,↑,0.5942387999966741,True,33,1
MP-K-21K21S1,422,experiment,84,→,right,→,0.6861577001400292,True,33,1
MP-K-21K21S1,423,experiment,64,→,right,→,0.716959600104019,True,33,1
MP-K-21K21S1,424,experiment,60,→,right,→,0.6280262998770922,True,33,1
MP-K-21K21S1,425,experiment,71,↑,up,↑,0.6266536000184715,True,33,1
MP-K-21K21S1,426,experiment,57,↓,down,↓,0.7023926000110805,True,33,1
MP-K-21K21S1,427,experiment,93,↓,down,↓,0.667405900079757,True,33,1
MP-K-21K21S1,428,experiment,78,↓,down,↓,0.7423060999717563,True,33,1
MP-K-21K21S1,429,experiment,48,↓,down,↓,0.6962741001043469,True,33,1
MP-K-21K21S1,430,experiment,102,→,right,→,0.6497571000363678,True,33,1
MP-K-21K21S1,431,experiment,54,→,right,→,0.6537854000926018,True,33,1
MP-K-21K21S1,432,experiment,88,↑,up,↑,0.7980816001072526,True,33,1
MP-K-21K21S1,433,experiment,95,↑,up,↑,0.5821039001457393,True,33,1
MP-K-21K21S1,434,experiment,62,↓,down,↓,0.9857002999633551,True,33,1
MP-K-21K21S1,435,experiment,53,↓,down,↓,0.7444928998593241,True,33,1
MP-K-21K21S1,436,experiment,56,↑,up,↑,0.7999299999792129,True,33,1
MP-K-21K21S1,437,experiment,107,→,right,→,0.6278844000771642,True,33,1
MP-K-21K21S1,438,experiment,80,←,left,←,0.6718711999710649,True,33,1
MP-K-21K21S1,439,experiment,104,↑,up,↑,0.7060601999983191,True,33,1
MP-K-21K21S1,440,experiment,58,↑,up,↑,0.6339428999926895,True,33,1
MP-K-21K21S1,441,experiment,66,↓,down,↓,0.6744659000542015,True,33,1
MP-K-21K21S1,442,experiment,92,↑,up,↑,0.6164720999076962,True,33,1
MP-K-21K21S1,443,experiment,106,↑,up,↑,0.9081920001190156,True,33,1
MP-K-21K21S1,444,experiment,85,→,right,→,0.6351662999950349,True,33,1
MP-K-21K21S1,445,experiment,103,←,right,→,0.663308400195092,False,33,1
MP-K-21K21S1,446,experiment,97,→,right,→,0.6039124000817537,True,33,1
MP-K-21K21S1,447,experiment,79,←,left,←,0.7288726000115275,True,33,1
MP-K-21K21S1,448,experiment,94,←,left,←,0.5481585001107305,True,33,1
MP-K-21K21S1,449,experiment,52,↓,left,←,0.9007474000100046,False,33,1
MP-K-21K21S1,450,experiment,96,↑,up,↑,0.48833490000106394,True,33,1
MP-K-21K21S1,451,experiment,65,→,right,→,0.6475247999187559,True,33,1
MP-K-21K21S1,452,experiment,105,→,right,→,0.5215062000788748,True,33,1
MP-K-21K21S1,453,experiment,83,→,right,→,0.456676899921149,True,33,1
MP-K-21K21S1,454,experiment,51,→,right,→,0.47709050006233156,True,33,1
MP-K-21K21S1,455,experiment,69,↑,down,↓,1.0022234998177737,False,33,1
MP-K-21K21S1,456,experiment,50,↑,up,↑,0.8334281998686492,True,33,1
MP-K-21K21S1,457,experiment,89,↑,up,↑,0.8261319999583066,True,33,1
MP-K-21K21S1,458,experiment,99,↑,up,↑,0.7517847998533398,True,33,1
MP-K-21K21S1,459,experiment,87,↑,up,↑,0.5644688999745995,True,33,1
MP-K-21K21S1,460,experiment,81,←,left,←,0.7946077000815421,True,33,1
MP-K-21K21S1,461,experiment,75,→,right,→,0.6252663000486791,True,33,1
MP-K-21K21S1,462,experiment,61,↑,up,↑,0.5080150000285357,True,33,1
MP-K-21K21S1,463,experiment,70,←,left,←,0.7838878999464214,True,33,1
MP-K-21K21S1,464,experiment,90,←,left,←,0.6980956001207232,True,33,1
MP-K-21K21S1,465,experiment,68,↑,left,←,0.9030575000215322,False,33,1
MP-K-21K21S1,466,experiment,76,←,left,←,0.5216429999563843,True,33,1
MP-K-21K21S1,467,experiment,73,←,left,←,0.7079227999784052,True,33,1
MP-K-21K21S1,468,experiment,49,→,right,→,0.6868672999553382,True,33,1
MP-K-21K21S1,469,experiment,63,←,left,←,0.5744574000127614,True,33,1
MP-K-21K21S1,470,experiment,77,←,left,←,0.6694086000788957,True,33,1
MP-K-21K21S1,471,experiment,91,→,right,→,0.7720977000426501,True,33,1
MP-K-21K21S1,472,experiment,100,↓,down,↓,0.9475262998603284,True,33,1
MP-K-21K21S1,473,experiment,98,↓,down,↓,0.9482955997809768,True,33,1
MP-K-21K21S1,474,experiment,72,↑,down,↓,1.0941440002061427,False,33,1
MP-K-21K21S1,475,experiment,59,←,left,←,0.7025764000136405,True,33,1
MP-K-21K21S1,476,experiment,74,→,right,→,0.39233339997008443,True,33,1
MP-K-21K21S1,477,experiment,101,↑,up,↑,0.631210699910298,True,33,0
MP-K-21K21S1,478,experiment,86,←,left,←,0.5130730997771025,True,33,1
MP-K-21K21S1,479,experiment,82,→,right,→,0.42594489990733564,True,33,1
MP-K-21K21S1,480,experiment,67,↓,down,↓,0.7607372999191284,True,33,1
MP-K-21K21S1,481,experiment,55,←,right,→,1.5117824000772089,False,33,1
MP-K-21K21S1,482,training,82,←,left,←,0.6811065000947565,True,32,0
MP-K-21K21S1,483,training,74,↑,up,↑,0.5969721998553723,True,32,1
MP-K-21K21S1,484,experiment,81,↑,up,↑,0.5374129000119865,True,32,1
MP-K-21K21S1,485,experiment,93,↑,up,↑,0.4370834999717772,True,32,1
MP-K-21K21S1,486,experiment,51,→,right,→,0.5859433000441641,True,32,1
MP-K-21K21S1,487,experiment,84,↓,down,↓,0.7823409999255091,True,32,1
MP-K-21K21S1,488,experiment,83,→,right,→,0.7067472999915481,True,32,1
MP-K-21K21S1,489,experiment,98,←,right,→,0.7014574999921024,False,32,1
MP-K-21K21S1,490,experiment,54,←,right,→,0.6872471000533551,False,32,1
MP-K-21K21S1,491,experiment,52,→,right,→,0.5379588999785483,True,32,1
MP-K-21K21S1,492,experiment,64,←,right,→,0.7988040000200272,False,32,1
MP-K-21K21S1,493,experiment,55,↓,down,↓,0.6841357001103461,True,32,1
MP-K-21K21S1,494,experiment,86,←,left,←,0.4095445000566542,True,32,1
MP-K-21K21S1,495,experiment,100,→,right,→,0.40271269995719194,True,32,1
MP-K-21K21S1,496,experiment,57,←,left,←,0.589557999977842,True,32,0
MP-K-21K21S1,497,experiment,49,↑,down,↓,1.0854334000032395,False,32,1
MP-K-21K21S1,498,experiment,108,←,left,←,0.5738075999543071,True,32,1
MP-K-21K21S1,499,experiment,76,↓,down,↓,0.6450930000282824,True,32,1
MP-K-21K21S1,500,experiment,68,→,right,→,0.628252699971199,True,32,1
MP-K-21K21S1,501,experiment,71,↓,down,↓,0.8191190999932587,True,32,1
MP-K-21K21S1,502,experiment,102,↑,up,↑,0.5604685000143945,True,32,1
MP-K-21K21S1,503,experiment,87,↑,down,↓,1.0446826999541372,False,32,1
MP-K-21K21S1,504,experiment,106,←,left,←,0.7193462001159787,True,32,1
MP-K-21K21S1,505,experiment,89,↑,up,↑,0.6765125999227166,True,32,1
MP-K-21K21S1,506,experiment,59,→,right,→,0.5573042000178248,True,32,1
MP-K-21K21S1,507,experiment,75,↑,up,↑,0.6539755000267178,True,32,1
MP-K-21K21S1,508,experiment,70,→,right,→,0.8837089999578893,True,32,1
MP-K-21K21S1,509,experiment,78,→,right,→,0.7102006999775767,True,32,1
MP-K-21K21S1,510,experiment,48,←,left,←,0.6416599999647588,True,32,1
MP-K-21K21S1,511,experiment,85,→,right,→,0.4594000999350101,True,32,1
MP-K-21K21S1,512,experiment,107,←,left,←,0.5569885999429971,True,32,1
MP-K-21K21S1,513,experiment,73,↓,down,↓,0.8059225999750197,True,32,1
MP-K-21K21S1,514,experiment,60,←,left,←,0.47346349991858006,True,32,1
MP-K-21K21S1,515,experiment,56,→,left,←,0.7476491997949779,False,32,1
MP-K-21K21S1,516,experiment,66,↑,left,←,0.7032936001196504,False,32,1
MP-K-21K21S1,517,experiment,104,↓,down,↓,0.6801728000864387,True,32,1
MP-K-21K21S1,518,experiment,77,→,left,←,0.7389493000227958,False,32,1
MP-K-21K21S1,519,experiment,82,→,right,→,0.5776172000914812,True,32,1
MP-K-21K21S1,520,experiment,92,→,right,→,0.5557534999679774,True,32,1
MP-K-21K21S1,521,experiment,80,→,right,→,1.0423866999335587,True,32,1
MP-K-21K21S1,522,experiment,58,→,right,→,0.5492396000772715,True,32,1
MP-K-21K21S1,523,experiment,69,→,left,←,0.6398851000703871,False,32,1
MP-K-21K21S1,524,experiment,97,←,left,←,0.6775644000153989,True,32,1
MP-K-21K21S1,525,experiment,79,→,left,←,0.6959831998683512,False,32,1
MP-K-21K21S1,526,experiment,105,↑,left,←,0.7286969001870602,False,32,1
MP-K-21K21S1,527,experiment,91,←,left,←,0.5327455999795347,True,32,1
MP-K-21K21S1,528,experiment,74,←,right,→,0.9022947000339627,False,32,1
MP-K-21K21S1,529,experiment,103,↑,up,↑,0.9677482000552118,True,32,1
MP-K-21K21S1,530,experiment,99,↓,down,↓,0.8719538999721408,True,32,1
MP-K-21K21S1,531,experiment,61,↑,up,↑,0.5839515998959541,True,32,1
MP-K-21K21S1,532,experiment,72,←,left,←,0.7686165000777692,True,32,1
MP-K-21K21S1,533,experiment,88,↑,up,↑,0.8440245999954641,True,32,1
MP-K-21K21S1,534,experiment,65,↓,down,↓,0.916361200157553,True,32,1
MP-K-21K21S1,535,experiment,53,↓,up,↑,0.869593300158158,False,32,1
MP-K-21K21S1,536,experiment,96,→,right,→,0.4902964001521468,True,32,1
MP-K-21K21S1,537,experiment,67,↑,up,↑,0.9123293000739068,True,32,1
MP-K-21K21S1,538,experiment,50,↑,up,↑,0.8908601000439376,True,32,1
MP-K-21K21S1,539,experiment,63,←,left,←,0.673705899855122,True,32,1
MP-K-21K21S1,540,experiment,95,→,right,→,0.5027401000261307,True,32,1
MP-K-21K21S1,541,experiment,90,←,left,←,0.564540799940005,True,32,1
MP-K-21K21S1,542,experiment,101,←,left,←,0.9480836000293493,True,32,1
MP-K-21K21S1,543,experiment,94,←,left,←,0.4702654997818172,True,32,1
MP-K-21K21S1,544,experiment,62,→,right,→,0.6463842000812292,True,32,1
MP-K-21K21S1,545,training,62,↑,up,↑,0.6421898000407964,True,32,0
MP-K-21K21S1,546,training,84,→,right,→,0.7879037000238895,True,32,1
MP-K-21K21S1,547,experiment,94,→,right,→,0.7332381000742316,True,32,1
MP-K-21K21S1,548,experiment,78,←,left,←,0.5813628998585045,True,32,1
MP-K-21K21S1,549,experiment,92,↓,down,↓,0.7191284000873566,True,32,1
MP-K-21K21S1,550,experiment,96,←,left,←,0.6181105999276042,True,32,1
MP-K-21K21S1,551,experiment,53,→,right,→,0.7754810000769794,True,32,1
MP-K-21K21S1,552,experiment,50,→,right,→,0.7838789999950677,True,32,1
MP-K-21K21S1,553,experiment,75,←,left,←,0.6230208999477327,True,32,1
MP-K-21K21S1,554,experiment,74,↑,up,↑,0.4608988999389112,True,32,1
MP-K-21K21S1,555,experiment,64,→,right,→,0.5651545999571681,True,32,1
MP-K-21K21S1,556,experiment,107,→,right,→,0.6827110999729484,True,32,1
MP-K-21K21S1,557,experiment,71,←,up,↑,1.3431959999725223,False,32,1
MP-K-21K21S1,558,experiment,102,↓,down,↓,0.767221000045538,True,32,1
MP-K-21K21S1,559,experiment,69,↓,down,↓,0.641374799888581,True,32,1
MP-K-21K21S1,560,experiment,89,←,left,←,0.5535949000623077,True,32,1
MP-K-21K21S1,561,experiment,87,←,left,←,0.6542819000314921,True,32,1
MP-K-21K21S1,562,experiment,93,←,left,←,0.5250647000502795,True,32,1
MP-K-21K21S1,563,experiment,56,←,left,←,0.8770426001865417,True,32,1
MP-K-21K21S1,564,experiment,70,→,right,→,0.6024486001115292,True,32,1
MP-K-21K21S1,565,experiment,52,↓,down,↓,0.6968228998593986,True,32,1
MP-K-21K21S1,566,experiment,72,↑,down,↓,1.004570399876684,False,32,1
MP-K-21K21S1,567,experiment,85,↓,down,↓,0.7275688000954688,True,32,1
MP-K-21K21S1,568,experiment,59,←,right,→,0.7905863998457789,False,32,1
MP-K-21K21S1,569,experiment,101,↑,left,←,1.2210353000555187,False,32,1
MP-K-21K21S1,570,experiment,79,↑,up,↑,0.553630500100553,True,32,1
MP-K-21K21S1,571,experiment,103,↓,up,↑,0.9450431999284774,False,32,1
MP-K-21K21S1,572,experiment,81,→,right,→,0.5277706000488251,True,32,1
MP-K-21K21S1,573,experiment,108,→,left,←,1.1263429999817163,False,32,1
MP-K-21K21S1,574,experiment,105,↑,up,↑,0.4860132001340389,True,32,1
MP-K-21K21S1,575,experiment,48,→,right,→,0.8899230000097305,True,32,1
MP-K-21K21S1,576,experiment,82,→,right,→,0.7386711998842657,True,32,1
MP-K-21K21S1,577,experiment,98,←,left,←,0.5402774999383837,True,32,1
MP-K-21K21S1,578,experiment,61,→,right,→,0.5458870001602918,True,32,1
MP-K-21K21S1,579,experiment,58,↓,down,↓,0.7682439999189228,True,32,1
MP-K-21K21S1,580,experiment,66,→,right,→,0.4752182001248002,True,32,1
MP-K-21K21S1,581,experiment,84,↓,down,↓,0.8283545998856425,True,32,1
MP-K-21K21S1,582,experiment,65,→,right,→,0.6530569000169635,True,32,1
MP-K-21K21S1,583,experiment,55,←,right,→,0.872495099902153,False,32,1
MP-K-21K21S1,584,experiment,80,←,left,←,0.40120849991217256,True,32,1
MP-K-21K21S1,585,experiment,68,↓,down,↓,0.9951931999530643,True,32,1
MP-K-21K21S1,586,experiment,77,↑,up,↑,0.7535559001844376,True,32,1
MP-K-21K21S1,587,experiment,76,↓,down,↓,0.7536350002046674,True,32,1
MP-K-21K21S1,588,experiment,86,↓,down,↓,0.8547271999996156,True,32,1
MP-K-21K21S1,589,experiment,62,↑,up,↑,0.6393711999990046,True,32,1
MP-K-21K21S1,590,experiment,63,→,right,→,0.417565600015223,True,32,1
MP-K-21K21S1,591,experiment,100,↓,down,↓,0.7819123000372201,True,32,0
MP-K-21K21S1,592,experiment,60,↓,down,↓,0.9062777000945061,True,32,1
MP-K-21K21S1,593,experiment,57,←,left,←,0.49857189995236695,True,32,1
MP-K-21K21S1,594,experiment,67,←,right,→,0.8240930999163538,False,32,1
MP-K-21K21S1,595,experiment,83,↓,left,←,0.43560920003801584,False,32,1
MP-K-21K21S1,596,experiment,49,↑,down,↓,1.0248652999289334,False,32,0
MP-K-21K21S1,597,experiment,104,↓,down,↓,0.4453734999988228,True,32,1
MP-K-21K21S1,598,experiment,91,↑,right,→,0.8123847001697868,False,32,1
MP-K-21K21S1,599,experiment,97,←,right,→,0.5869165000040084,False,32,1
MP-K-21K21S1,600,experiment,106,↓,up,↑,1.6156409000977874,False,32,1
MP-K-21K21S1,601,experiment,90,↑,up,↑,0.6164145001675934,True,32,1
MP-K-21K21S1,602,experiment,99,↓,down,↓,0.6542857999447733,True,32,1
MP-K-21K21S1,603,experiment,51,←,left,←,0.40955560002475977,True,32,1
MP-K-21K21S1,604,experiment,95,↑,up,↑,1.0023761000484228,True,32,0
MP-K-21K21S1,605,experiment,54,←,right,→,0.5837465000804514,False,32,1
MP-K-21K21S1,606,experiment,73,←,left,←,0.6797412000596523,True,32,1
MP-K-21K21S1,607,experiment,88,↓,down,↓,0.6706642999779433,True,32,1
MP-K-21K21S1,608,training,58,←,right,→,0.7649288999382406,False,32,0
MP-K-21K21S1,609,training,60,←,left,←,0.45804390008561313,True,32,1
MP-K-21K21S1,610,experiment,96,←,left,←,0.6871949001215398,True,32,1
MP-K-21K21S1,611,experiment,63,←,left,←,0.598473799880594,True,32,1
MP-K-21K21S1,612,experiment,48,↑,down,↓,0.902051700046286,False,32,1
MP-K-21K21S1,613,experiment,93,←,left,←,0.6268986000213772,True,32,1
MP-K-21K21S1,614,experiment,87,↓,down,↓,0.7164906999096274,True,32,1
MP-K-21K21S1,615,experiment,82,←,right,→,0.7401351998560131,False,32,1
MP-K-21K21S1,616,experiment,72,→,right,→,0.4862327999435365,True,32,1
MP-K-21K21S1,617,experiment,98,↑,up,↑,0.6256226000841707,True,32,1
MP-K-21K21S1,618,experiment,95,→,right,→,0.576751200016588,True,32,1
MP-K-21K21S1,619,experiment,90,↑,up,↑,0.4752007001079619,True,32,1
MP-K-21K21S1,620,experiment,58,↓,up,↑,0.8127513998188078,False,32,1
MP-K-21K21S1,621,experiment,50,↑,up,↑,0.8191091001499444,True,32,1
MP-K-21K21S1,622,experiment,77,↓,down,↓,0.8484366999473423,True,32,1
MP-K-21K21S1,623,experiment,102,→,right,→,0.716186200035736,True,32,1
MP-K-21K21S1,624,experiment,79,←,left,←,0.5729248998686671,True,32,1
MP-K-21K21S1,625,experiment,66,↓,down,↓,0.5917322000022978,True,32,1
MP-K-21K21S1,626,experiment,101,→,right,→,0.4779600999318063,True,32,1
MP-K-21K21S1,627,experiment,65,→,right,→,0.5091434998903424,True,32,1
MP-K-21K21S1,628,experiment,62,→,right,→,0.6278713000938296,True,32,1
MP-K-21K21S1,629,experiment,91,←,left,←,0.5479499001521617,True,32,1
MP-K-21K21S1,630,experiment,68,↑,down,↓,0.9429574999958277,False,32,1
MP-K-21K21S1,631,experiment,56,←,left,←,0.6463342998176813,True,32,1
MP-K-21K21S1,632,experiment,89,→,right,→,0.5102354998234659,True,32,1
MP-K-21K21S1,633,experiment,108,↓,up,↑,0.9257910000160336,False,32,1
MP-K-21K21S1,634,experiment,54,↑,up,↑,0.5664499001577497,True,32,1
MP-K-21K21S1,635,experiment,61,←,left,←,0.39279199996963143,True,32,1
MP-K-21K21S1,636,experiment,99,→,right,→,0.5139983999542892,True,32,1
MP-K-21K21S1,637,experiment,106,←,left,←,0.5136114000342786,True,32,1
MP-K-21K21S1,638,experiment,100,←,left,←,0.6113610998727381,True,32,1
MP-K-21K21S1,639,experiment,75,↑,down,↓,1.5299038998782635,False,32,1
MP-K-21K21S1,640,experiment,80,↑,up,↑,0.6814757999964058,True,32,1
MP-K-21K21S1,641,experiment,107,↑,up,↑,1.826157100033015,True,32,1
MP-K-21K21S1,642,experiment,86,↑,up,↑,0.9957123000640422,True,32,1
MP-K-21K21S1,643,experiment,97,←,left,←,0.5951266998890787,True,32,1
MP-K-21K21S1,644,experiment,55,←,left,←,0.7045655997935683,True,32,1
MP-K-21K21S1,645,experiment,81,→,right,→,0.7531055000144988,True,32,1
MP-K-21K21S1,646,experiment,53,←,left,←,0.5771021000109613,True,32,1
MP-K-21K21S1,647,experiment,92,→,right,→,0.9307661999482661,True,32,1
MP-K-21K21S1,648,experiment,71,↑,left,←,1.3095223000273108,False,32,1
MP-K-21K21S1,649,experiment,83,←,left,←,0.38443879992701113,True,32,1
MP-K-21K21S1,650,experiment,69,→,right,→,0.5262242001481354,True,32,1
MP-K-21K21S1,651,experiment,49,↓,down,↓,1.3685669999103993,True,32,1
MP-K-21K21S1,652,experiment,52,→,right,→,0.6322922001127154,True,32,1
MP-K-21K21S1,653,experiment,60,↓,right,→,0.9386350999120623,False,32,1
MP-K-21K21S1,654,experiment,70,→,right,→,0.6053782999515533,True,32,1
MP-K-21K21S1,655,experiment,78,↓,down,↓,0.6987829999998212,True,32,1
MP-K-21K21S1,656,experiment,84,↑,down,↓,1.0105033998843282,False,32,1
MP-K-21K21S1,657,experiment,105,←,no_key,no_letter,-1.0,False,32,1
MP-K-21K21S1,658,experiment,94,←,right,→,0.7215396000538021,False,32,1
MP-K-21K21S1,659,experiment,57,↓,down,↓,0.7372085000388324,True,32,1
MP-K-21K21S1,660,experiment,103,↓,down,↓,0.6012993000913411,True,32,1
MP-K-21K21S1,661,experiment,73,←,down,↓,0.7207651000935584,False,32,1
MP-K-21K21S1,662,experiment,104,→,right,→,0.46474029985256493,True,32,1
MP-K-21K21S1,663,experiment,88,↑,up,↑,0.5285664000548422,True,32,1
MP-K-21K21S1,664,experiment,74,→,right,→,0.562491400167346,True,32,1
MP-K-21K21S1,665,experiment,59,←,left,←,0.6558976001106203,True,32,1
MP-K-21K21S1,666,experiment,76,↓,down,↓,0.7881185999140143,True,32,1
MP-K-21K21S1,667,experiment,85,←,left,←,0.45570070017129183,True,32,1
MP-K-21K21S1,668,experiment,67,↑,up,↑,0.7589058999437839,True,32,1
MP-K-21K21S1,669,experiment,64,↑,up,↑,0.6190272998064756,True,32,1
MP-K-21K21S1,670,experiment,51,→,left,←,0.8249615000095218,False,32,1
MP-K-21K21S1,671,training,61,↓,down,↓,1.3644470002036542,True,32,0
MP-K-21K21S1,672,training,92,←,left,←,0.7668043999001384,True,32,1
MP-K-21K21S1,673,experiment,68,↑,up,↑,0.6969705000519753,True,32,1
MP-K-21K21S1,674,experiment,91,↑,up,↑,0.9263935000635684,True,32,1
MP-K-21K21S1,675,experiment,71,↑,up,↑,0.5134246000088751,True,32,1
MP-K-21K21S1,676,experiment,67,←,left,←,0.7341573999729007,True,32,1
MP-K-21K21S1,677,experiment,81,→,right,→,0.5016254000365734,True,32,1
MP-K-21K21S1,678,experiment,51,↑,up,↑,0.4805263001471758,True,32,1
MP-K-21K21S1,679,experiment,49,←,right,→,0.8285424998030066,False,32,1
MP-K-21K21S1,680,experiment,83,→,right,→,0.8551749000325799,True,32,1
MP-K-21K21S1,681,experiment,87,↓,up,↑,0.6556156000588089,False,32,1
MP-K-21K21S1,682,experiment,92,↓,down,↓,0.838297100039199,True,32,1
MP-K-21K21S1,683,experiment,97,↑,down,↓,1.0918596999254078,False,32,1
MP-K-21K21S1,684,experiment,89,↓,down,↓,0.730301900068298,True,32,1
MP-K-21K21S1,685,experiment,58,←,left,←,0.5693409000523388,True,32,1
MP-K-21K21S1,686,experiment,64,←,left,←,0.4928490000311285,True,32,1
MP-K-21K21S1,687,experiment,99,↑,down,↓,1.0720198000781238,False,32,1
MP-K-21K21S1,688,experiment,62,←,left,←,0.5679494000505656,True,32,1
MP-K-21K21S1,689,experiment,95,↑,up,↑,0.4412817000411451,True,32,1
MP-K-21K21S1,690,experiment,96,←,left,←,0.8714158998336643,True,32,0
MP-K-21K21S1,691,experiment,101,↑,up,↑,0.6985713001340628,True,32,1
MP-K-21K21S1,692,experiment,102,↑,down,↓,1.028444199822843,False,32,1
MP-K-21K21S1,693,experiment,53,→,right,→,0.6330663999542594,True,32,1
MP-K-21K21S1,694,experiment,85,↑,down,↓,1.0193120001349598,False,32,1
MP-K-21K21S1,695,experiment,106,→,right,→,0.502356099896133,True,32,1
MP-K-21K21S1,696,experiment,72,←,left,←,0.7222182999830693,True,32,1
MP-K-21K21S1,697,experiment,52,→,right,→,0.6596655000466853,True,32,1
MP-K-21K21S1,698,experiment,54,↑,up,↑,0.5509560001082718,True,32,1
MP-K-21K21S1,699,experiment,107,→,left,←,0.3428763998672366,False,32,1
MP-K-21K21S1,700,experiment,63,↑,up,↑,0.826007799943909,True,32,1
MP-K-21K21S1,701,experiment,55,←,right,→,0.8140308000147343,False,32,1
MP-K-21K21S1,702,experiment,77,↓,down,↓,0.6275716000236571,True,32,1
MP-K-21K21S1,703,experiment,82,←,left,←,0.558883799938485,True,32,1
MP-K-21K21S1,704,experiment,75,←,right,→,0.7753977999091148,False,32,1
MP-K-21K21S1,705,experiment,103,←,left,←,0.9094668999314308,True,32,1
MP-K-21K21S1,706,experiment,79,↓,down,↓,0.6787968999706209,True,32,1
MP-K-21K21S1,707,experiment,86,↑,down,↓,0.8623514999635518,False,32,1
MP-K-21K21S1,708,experiment,56,↑,down,↓,0.8012155001051724,False,32,1
MP-K-21K21S1,709,experiment,76,←,right,→,0.8956683999858797,False,32,1
MP-K-21K21S1,710,experiment,73,←,left,←,1.2829016000032425,True,32,1
MP-K-21K21S1,711,experiment,65,←,left,←,0.8974997999612242,True,32,1
MP-K-21K21S1,712,experiment,104,↓,down,↓,0.8505229998845607,True,32,1
MP-K-21K21S1,713,experiment,57,←,left,←,0.501214100047946,True,32,1
MP-K-21K21S1,714,experiment,61,→,right,→,0.7806424999143928,True,32,1
MP-K-21K21S1,715,experiment,94,←,left,←,0.8058025999926031,True,32,1
MP-K-21K21S1,716,experiment,50,↓,down,↓,0.7483986001461744,True,32,1
MP-K-21K21S1,717,experiment,84,↓,down,↓,1.0260177000891417,True,32,1
MP-K-21K21S1,718,experiment,80,←,left,←,0.7741273001302034,True,32,1
MP-K-21K21S1,719,experiment,66,↑,up,↑,0.44871549983508885,True,32,1
MP-K-21K21S1,720,experiment,88,↓,down,↓,0.7531841001473367,True,32,1
MP-K-21K21S1,721,experiment,74,↓,down,↓,0.7223308999091387,True,32,1
MP-K-21K21S1,722,experiment,100,↓,down,↓,0.6355457999743521,True,32,1
MP-K-21K21S1,723,experiment,69,←,left,←,1.2508004000410438,True,32,1
MP-K-21K21S1,724,experiment,59,→,right,→,0.5009968997910619,True,32,1
MP-K-21K21S1,725,experiment,93,→,left,←,0.34229300008155406,False,32,1
MP-K-21K21S1,726,experiment,78,↓,down,↓,0.8255561999976635,True,32,0
MP-K-21K21S1,727,experiment,48,←,no_key,no_letter,-1.0,False,32,1
MP-K-21K21S1,728,experiment,108,←,left,←,0.8062436999753118,True,32,1
MP-K-21K21S1,729,experiment,105,↓,right,→,0.9625262001063675,False,32,1
MP-K-21K21S1,730,experiment,60,←,left,←,0.5997236000839621,True,32,1
MP-K-21K21S1,731,experiment,70,→,left,←,0.5600811999756843,False,32,1
MP-K-21K21S1,732,experiment,98,←,right,→,0.729229599935934,False,32,1
MP-K-21K21S1,733,experiment,90,→,left,←,0.7571332000661641,False,32,1
MP-K-21K21S1,734,training,85,←,left,←,0.5319799000862986,True,32,0
MP-K-21K21S1,735,training,64,←,left,←,0.44097730005159974,True,32,1
MP-K-21K21S1,736,experiment,49,↓,down,↓,0.5988743999041617,True,32,0
MP-K-21K21S1,737,experiment,70,↓,down,↓,0.7273995999712497,True,32,1
MP-K-21K21S1,738,experiment,93,→,right,→,0.5390356001444161,True,32,1
MP-K-21K21S1,739,experiment,94,→,right,→,0.5655652999412268,True,32,1
MP-K-21K21S1,740,experiment,105,↑,up,↑,0.49968970008194447,True,32,1
MP-K-21K21S1,741,experiment,82,↑,up,↑,0.5080558001063764,True,32,1
MP-K-21K21S1,742,experiment,50,↑,up,↑,0.8306895999703556,True,32,1
MP-K-21K21S1,743,experiment,60,↑,up,↑,0.4493643001187593,True,32,1
MP-K-21K21S1,744,experiment,106,→,right,→,0.683538599871099,True,32,1
MP-K-21K21S1,745,experiment,91,↓,right,→,0.8177128999959677,False,32,1
MP-K-21K21S1,746,experiment,72,↓,down,↓,0.6487934000324458,True,32,1
MP-K-21K21S1,747,experiment,98,↑,up,↑,0.5495106000453234,True,32,1
MP-K-21K21S1,748,experiment,108,→,right,→,0.5391933000646532,True,32,1
MP-K-21K21S1,749,experiment,95,←,left,←,0.5419622999615967,True,32,1
MP-K-21K21S1,750,experiment,59,→,right,→,1.1481290000956506,True,32,1
MP-K-21K21S1,751,experiment,83,↑,up,↑,0.4741927001159638,True,32,1
MP-K-21K21S1,752,experiment,86,←,no_key,no_letter,-1.0,False,32,1
MP-K-21K21S1,753,experiment,67,→,right,→,0.7981128001119941,True,32,1
MP-K-21K21S1,754,experiment,81,←,left,←,0.39294550009071827,True,32,1
MP-K-21K21S1,755,experiment,78,→,left,←,0.6165082000661641,False,32,1
MP-K-21K21S1,756,experiment,63,↓,down,↓,0.6826100000180304,True,32,1
MP-K-21K21S1,757,experiment,104,↓,down,↓,0.5805615000426769,True,32,1
MP-K-21K21S1,758,experiment,58,↓,down,↓,0.7214357000775635,True,32,1
MP-K-21K21S1,759,experiment,87,←,right,→,0.911053900141269,False,32,1
MP-K-21K21S1,760,experiment,92,↓,down,↓,0.6277171999681741,True,32,1
MP-K-21K21S1,761,experiment,66,↑,down,↓,0.6839934999588877,False,32,1
MP-K-21K21S1,762,experiment,71,↓,down,↓,0.6169137998949736,True,32,1
MP-K-21K21S1,763,experiment,90,←,left,←,0.5938373000826687,True,32,1
MP-K-21K21S1,764,experiment,100,←,left,←,0.688612500205636,True,32,1
MP-K-21K21S1,765,experiment,96,←,left,←,0.5007311999797821,True,32,1
MP-K-21K21S1,766,experiment,51,↓,down,↓,0.6873005002271384,True,32,1
MP-K-21K21S1,767,experiment,53,←,left,←,0.553782399976626,True,32,1
MP-K-21K21S1,768,experiment,97,→,right,→,0.5229307999834418,True,32,1
MP-K-21K21S1,769,experiment,62,↑,up,↑,0.5049568000249565,True,32,1
MP-K-21K21S1,770,experiment,101,→,right,→,0.44297200022265315,True,32,1
MP-K-21K21S1,771,experiment,52,←,left,←,0.5752003998495638,True,32,1
MP-K-21K21S1,772,experiment,76,→,right,→,0.6943614999763668,True,32,1
MP-K-21K21S1,773,experiment,68,←,left,←,0.7235568000469357,True,32,1
MP-K-21K21S1,774,experiment,61,↑,right,→,0.9140462998766452,False,32,1
MP-K-21K21S1,775,experiment,80,↓,down,↓,0.7062389000784606,True,32,1
MP-K-21K21S1,776,experiment,79,→,up,↑,0.7872713000979275,False,32,1
MP-K-21K21S1,777,experiment,77,→,left,←,0.6100941998884082,False,32,1
MP-K-21K21S1,778,experiment,85,↑,up,↑,0.5412914999760687,True,32,1
MP-K-21K21S1,779,experiment,69,←,right,→,0.8639903999865055,False,32,1
MP-K-21K21S1,780,experiment,84,↓,left,←,1.1370583998505026,False,32,1
MP-K-21K21S1,781,experiment,73,↑,up,↑,1.1231800999958068,True,32,1
MP-K-21K21S1,782,experiment,88,↑,up,↑,0.6325524998828769,True,32,1
MP-K-21K21S1,783,experiment,54,↑,left,←,1.1168180000968277,False,32,1
MP-K-21K21S1,784,experiment,64,→,right,→,0.8182550999335945,True,32,1
MP-K-21K21S1,785,experiment,99,←,left,←,0.5926989000290632,True,32,1
MP-K-21K21S1,786,experiment,74,↓,down,↓,0.6959784999489784,True,32,1
MP-K-21K21S1,787,experiment,55,→,right,→,0.5612844999413937,True,32,1
MP-K-21K21S1,788,experiment,75,←,left,←,0.5936247000936419,True,32,1
MP-K-21K21S1,789,experiment,89,→,left,←,0.8677602000534534,False,32,1
MP-K-21K21S1,790,experiment,65,↓,down,↓,0.675086900126189,True,32,1
MP-K-21K21S1,791,experiment,107,←,left,←,0.5961822001263499,True,32,1
MP-K-21K21S1,792,experiment,102,↑,up,↑,0.7218534001149237,True,32,1
MP-K-21K21S1,793,experiment,48,↑,up,↑,0.7409242000430822,True,32,1
MP-K-21K21S1,794,experiment,57,←,left,←,0.47556739998981357,True,32,1
MP-K-21K21S1,795,experiment,103,←,left,←,0.7900229999795556,True,32,1
MP-K-21K21S1,796,experiment,56,←,left,←,0.5872606998309493,True,32,1
MP-K-21K21S1,797,training,105,←,left,←,0.6105167001951486,True,32,0
MP-K-21K21S1,798,training,106,→,right,→,0.6864811000414193,True,32,1
MP-K-21K21S1,799,experiment,68,↑,up,↑,0.7082304998766631,True,32,1
MP-K-21K21S1,800,experiment,83,←,left,←,1.4838147000409663,True,32,1
MP-K-21K21S1,801,experiment,76,←,left,←,0.36697960016317666,True,32,1
MP-K-21K21S1,802,experiment,87,↑,up,↑,0.5864911000244319,True,32,0
MP-K-21K21S1,803,experiment,93,↓,down,↓,0.7956556999124587,True,32,1
MP-K-21K21S1,804,experiment,91,→,right,→,0.5251185998786241,True,32,1
MP-K-21K21S1,805,experiment,89,↑,up,↑,0.5061996998265386,True,32,1
MP-K-21K21S1,806,experiment,75,←,left,←,0.4525647000409663,True,32,1
MP-K-21K21S1,807,experiment,97,←,right,→,0.577735000057146,False,32,1
MP-K-21K21S1,808,experiment,67,↓,down,↓,0.6361273000948131,True,32,1
MP-K-21K21S1,809,experiment,49,↓,down,↓,0.7942266000900418,True,32,1
MP-K-21K21S1,810,experiment,53,↑,up,↑,0.6246215000282973,True,32,1
MP-K-21K21S1,811,experiment,48,←,right,→,0.5514477000106126,False,32,1
MP-K-21K21S1,812,experiment,94,←,left,←,0.5936759999021888,True,32,1
MP-K-21K21S1,813,experiment,90,→,right,→,0.5076921000145376,True,32,1
MP-K-21K21S1,814,experiment,71,↑,up,↑,0.6556178000755608,True,32,1
MP-K-21K21S1,815,experiment,98,→,right,→,0.5483836999628693,True,32,1
MP-K-21K21S1,816,experiment,100,→,right,→,0.6365505000576377,True,32,1
MP-K-21K21S1,817,experiment,103,←,left,←,0.37567640002816916,True,32,1
MP-K-21K21S1,818,experiment,81,↑,right,→,0.7579582999460399,False,32,0
MP-K-21K21S1,819,experiment,104,→,right,→,0.4846718998160213,True,32,1
MP-K-21K21S1,820,experiment,64,↓,down,↓,0.6198390999343246,True,32,1
MP-K-21K21S1,821,experiment,63,←,left,←,0.4615197000093758,True,32,1
MP-K-21K21S1,822,experiment,77,↑,up,↑,0.5213165001478046,True,32,1
MP-K-21K21S1,823,experiment,66,←,left,←,0.48612579982727766,True,32,1
MP-K-21K21S1,824,experiment,57,↓,up,↑,0.5992653998546302,False,32,1
MP-K-21K21S1,825,experiment,60,↑,up,↑,0.5629790001548827,True,32,1
MP-K-21K21S1,826,experiment,96,↓,down,↓,1.1960950999055058,True,32,1
MP-K-21K21S1,827,experiment,59,↑,no_key,no_letter,-1.0,False,32,1
MP-K-21K21S1,828,experiment,72,→,right,→,0.6101164000574499,True,32,1
MP-K-21K21S1,829,experiment,50,↓,down,↓,0.7449998999945819,True,32,1
MP-K-21K21S1,830,experiment,106,↑,down,↓,0.8153780000284314,False,32,1
MP-K-21K21S1,831,experiment,61,↑,down,↓,0.7459587999619544,False,32,1
MP-K-21K21S1,832,experiment,92,↓,left,←,0.9170121001079679,False,32,1
MP-K-21K21S1,833,experiment,88,→,right,→,0.6907279000151902,True,32,1
MP-K-21K21S1,834,experiment,69,→,right,→,0.631745400140062,True,32,1
MP-K-21K21S1,835,experiment,105,←,left,←,0.87593559990637,True,32,1
MP-K-21K21S1,836,experiment,85,↓,down,↓,0.723388799931854,True,32,1
MP-K-21K21S1,837,experiment,95,↓,down,↓,0.6304903000127524,True,32,1
MP-K-21K21S1,838,experiment,52,→,no_key,no_letter,-1.0,False,32,1
MP-K-21K21S1,839,experiment,62,←,right,→,0.41797870001755655,False,32,1
MP-K-21K21S1,840,experiment,86,→,right,→,0.4831099999137223,True,32,0
MP-K-21K21S1,841,experiment,101,↑,up,↑,0.46189529984258115,True,32,1
MP-K-21K21S1,842,experiment,82,↑,up,↑,0.392877200152725,True,32,1
MP-K-21K21S1,843,experiment,78,←,left,←,0.8053917000070214,True,32,0
MP-K-21K21S1,844,experiment,51,→,right,→,0.7718824001494795,True,32,1
MP-K-21K21S1,845,experiment,79,↓,down,↓,1.2582600000314415,True,32,1
MP-K-21K21S1,846,experiment,84,↓,down,↓,0.8275036998093128,True,32,1
MP-K-21K21S1,847,experiment,74,←,right,→,0.4813210000284016,False,32,1
MP-K-21K21S1,848,experiment,70,↑,left,←,1.1827283001039177,False,32,1
MP-K-21K21S1,849,experiment,55,←,right,→,0.7485556998290122,False,32,1
MP-K-21K21S1,850,experiment,102,←,left,←,0.5723617998883128,True,32,1
MP-K-21K21S1,851,experiment,65,↓,down,↓,0.5672593999188393,True,32,1
MP-K-21K21S1,852,experiment,73,→,right,→,0.5760713999625295,True,32,1
MP-K-21K21S1,853,experiment,80,↑,down,↓,1.0305506999138743,False,32,1
MP-K-21K21S1,854,experiment,58,←,left,←,0.697013899916783,True,32,1
MP-K-21K21S1,855,experiment,56,→,right,→,0.359526599990204,True,32,1
MP-K-21K21S1,856,experiment,107,←,left,←,0.4953781000804156,True,32,1
MP-K-21K21S1,857,experiment,99,→,right,→,0.5547307999804616,True,32,1
MP-K-21K21S1,858,experiment,54,→,right,→,0.649886199971661,True,32,1
MP-K-21K21S1,859,experiment,108,→,right,→,0.5237049001734704,True,32,1
MP-K-21K21S1,860,training,67,→,right,→,0.5508139000739902,True,32,0
MP-K-21K21S1,861,training,101,←,left,←,0.5748131000436842,True,32,1
MP-K-21K21S1,862,experiment,80,↓,down,↓,0.629184199962765,True,32,1
MP-K-21K21S1,863,experiment,91,←,left,←,0.5568998998496681,True,32,1
MP-K-21K21S1,864,experiment,108,↑,up,↑,0.5383963000494987,True,32,1
MP-K-21K21S1,865,experiment,96,↑,up,↑,0.5082845999859273,True,32,1
MP-K-21K21S1,866,experiment,58,→,right,→,0.6524269999936223,True,32,1
MP-K-21K21S1,867,experiment,103,↑,up,↑,0.4633893999271095,True,32,1
MP-K-21K21S1,868,experiment,60,←,left,←,0.5365527998656034,True,32,1
MP-K-21K21S1,869,experiment,56,↓,down,↓,0.6883225999772549,True,32,1
MP-K-21K21S1,870,experiment,89,↑,up,↑,0.5585907998029143,True,32,1
MP-K-21K21S1,871,experiment,81,←,left,←,0.5009941998869181,True,32,1
MP-K-21K21S1,872,experiment,74,→,left,←,0.5761277000419796,False,32,1
MP-K-21K21S1,873,experiment,107,→,right,→,0.3761471000034362,True,32,1
MP-K-21K21S1,874,experiment,65,↓,down,↓,0.7283107000403106,True,32,0
MP-K-21K21S1,875,experiment,83,→,right,→,0.5430597998201847,True,32,1
MP-K-21K21S1,876,experiment,70,←,left,←,0.5378159999381751,True,32,1
MP-K-21K21S1,877,experiment,88,↓,down,↓,0.5264607002027333,True,32,1
MP-K-21K21S1,878,experiment,66,↓,down,↓,0.5709704998880625,True,32,1
MP-K-21K21S1,879,experiment,82,↑,up,↑,0.4885945999994874,True,32,1
MP-K-21K21S1,880,experiment,48,↑,down,↓,1.100661999778822,False,32,1
MP-K-21K21S1,881,experiment,106,↓,down,↓,0.7168870999012142,True,32,1
MP-K-21K21S1,882,experiment,98,←,left,←,0.51943330001086,True,32,1
MP-K-21K21S1,883,experiment,93,→,right,→,0.4993862002156675,True,32,1
MP-K-21K21S1,884,experiment,75,↓,down,↓,0.566039300058037,True,32,1
MP-K-21K21S1,885,experiment,92,↑,up,↑,0.49658060004003346,True,32,1
MP-K-21K21S1,886,experiment,78,→,right,→,0.5943545000627637,True,32,1
MP-K-21K21S1,887,experiment,104,↑,no_key,no_letter,-1.0,False,32,1
MP-K-21K21S1,888,experiment,69,↑,up,↑,1.1310129000339657,True,32,1
MP-K-21K21S1,889,experiment,63,←,left,←,0.7039485999848694,True,32,1
MP-K-21K21S1,890,experiment,77,↓,right,→,0.9137202999554574,False,32,1
MP-K-21K21S1,891,experiment,85,↓,down,↓,0.6564288998488337,True,32,1
MP-K-21K21S1,892,experiment,86,↑,up,↑,0.4811526997946203,True,32,1
MP-K-21K21S1,893,experiment,57,←,left,←,0.4746181000955403,True,32,1
MP-K-21K21S1,894,experiment,100,↑,up,↑,0.5179951000027359,True,32,1
MP-K-21K21S1,895,experiment,79,↑,up,↑,0.8547706000972539,True,32,1
MP-K-21K21S1,896,experiment,61,↑,left,←,0.703842299990356,False,32,1
MP-K-21K21S1,897,experiment,59,↑,up,↑,0.6234383000992239,True,32,1
MP-K-21K21S1,898,experiment,50,↑,up,↑,0.37562769977375865,True,32,1
MP-K-21K21S1,899,experiment,94,↑,up,↑,0.6226810999214649,True,32,0
MP-K-21K21S1,900,experiment,97,→,left,←,0.5092331001069397,False,32,1
MP-K-21K21S1,901,experiment,64,↓,down,↓,0.747286100173369,True,32,1
MP-K-21K21S1,902,experiment,99,↓,left,←,0.6358890000265092,False,32,1
MP-K-21K21S1,903,experiment,73,↑,left,←,0.8819351000711322,False,32,1
MP-K-21K21S1,904,experiment,84,→,no_key,no_letter,-1.0,False,32,1
MP-K-21K21S1,905,experiment,51,→,right,→,1.4994187999982387,True,32,1
MP-K-21K21S1,906,experiment,67,↓,left,←,0.7363718000706285,False,32,1
MP-K-21K21S1,907,experiment,54,↑,up,↑,0.504872800083831,True,32,1
MP-K-21K21S1,908,experiment,102,↑,right,→,1.0181350000202656,False,32,1
MP-K-21K21S1,909,experiment,71,←,left,←,1.73749059997499,True,32,1
MP-K-21K21S1,910,experiment,87,←,left,←,1.6391455999109894,True,32,1
MP-K-21K21S1,911,experiment,53,←,right,→,0.9071784000843763,False,32,1
MP-K-21K21S1,912,experiment,72,→,right,→,0.5661603000480682,True,32,1
MP-K-21K21S1,913,experiment,90,←,left,←,0.5372759001329541,True,32,1
MP-K-21K21S1,914,experiment,68,←,left,←,0.8053351999260485,True,32,1
MP-K-21K21S1,915,experiment,49,←,no_key,no_letter,-1.0,False,32,1
MP-K-21K21S1,916,experiment,55,→,right,→,1.0443945999722928,True,32,1
MP-K-21K21S1,917,experiment,52,↓,down,↓,0.6568636000156403,True,32,1
MP-K-21K21S1,918,experiment,105,←,left,←,0.5150570999830961,True,32,1
MP-K-21K21S1,919,experiment,101,↑,left,←,0.8207863999996334,False,32,1
MP-K-21K21S1,920,experiment,76,→,right,→,0.561990899965167,True,32,1
MP-K-21K21S1,921,experiment,62,↓,down,↓,0.5423526000231504,True,32,1
MP-K-21K21S1,922,experiment,95,←,left,←,0.70484449993819,True,32,1
MP-K-21K21S1,923,training,83,←,left,←,0.440479600103572,True,32,0
MP-K-21K21S1,924,training,60,←,left,←,1.0018627000972629,True,32,1
MP-K-21K21S1,925,experiment,75,↓,down,↓,0.5207690000534058,True,32,1
MP-K-21K21S1,926,experiment,97,←,left,←,0.6110822998452932,True,32,1
MP-K-21K21S1,927,experiment,79,←,no_key,no_letter,-1.0,False,32,1
MP-K-21K21S1,928,experiment,107,→,left,←,0.6226319000124931,False,32,1
MP-K-21K21S1,929,experiment,60,←,left,←,0.41091020009480417,True,32,1
MP-K-21K21S1,930,experiment,67,↓,down,↓,0.6818025999236852,True,32,1
MP-K-21K21S1,931,experiment,102,↓,down,↓,0.6680974001064897,True,32,1
MP-K-21K21S1,932,experiment,80,→,left,←,0.622528700158,False,32,1
MP-K-21K21S1,933,experiment,59,→,right,→,0.6576148001477122,True,32,1
MP-K-21K21S1,934,experiment,98,↑,up,↑,0.5662297001108527,True,32,1
MP-K-21K21S1,935,experiment,70,←,left,←,0.5119994999840856,True,32,1
MP-K-21K21S1,936,experiment,81,←,left,←,0.5842033999506384,True,32,1
MP-K-21K21S1,937,experiment,74,↓,down,↓,0.743759399978444,True,32,1
MP-K-21K21S1,938,experiment,78,→,left,←,0.5839203000068665,False,32,1
MP-K-21K21S1,939,experiment,105,↑,up,↑,0.8132453998550773,True,32,1
MP-K-21K21S1,940,experiment,108,↓,down,↓,0.5681201000697911,True,32,1
MP-K-21K21S1,941,experiment,88,←,left,←,0.46800540015101433,True,32,1
MP-K-21K21S1,942,experiment,57,↓,down,↓,0.5740487999282777,True,32,1
MP-K-21K21S1,943,experiment,72,↓,down,↓,0.6867579000536352,True,32,1
MP-K-21K21S1,944,experiment,62,↑,up,↑,0.48651780001819134,True,32,1
MP-K-21K21S1,945,experiment,96,→,right,→,0.4744443998206407,True,32,1
MP-K-21K21S1,946,experiment,51,↓,down,↓,0.5983571000397205,True,32,1
MP-K-21K21S1,947,experiment,68,↑,up,↑,0.551549999974668,True,32,1
MP-K-21K21S1,948,experiment,53,→,right,→,0.44757770001888275,True,32,1
MP-K-21K21S1,949,experiment,82,←,no_key,no_letter,-1.0,False,32,1
MP-K-21K21S1,950,experiment,85,↓,left,←,1.0957669999916106,False,32,1
MP-K-21K21S1,951,experiment,54,↓,down,↓,0.6735441999044269,True,32,1
MP-K-21K21S1,952,experiment,91,↑,up,↑,0.767893899930641,True,32,1
MP-K-21K21S1,953,experiment,106,→,left,←,0.6934354000259191,False,32,1
MP-K-21K21S1,954,experiment,50,←,down,↓,0.7765875000040978,False,32,1
MP-K-21K21S1,955,experiment,66,→,left,←,0.7233331000898033,False,32,1
MP-K-21K21S1,956,experiment,77,←,down,↓,0.804311600048095,False,32,1
MP-K-21K21S1,957,experiment,86,↑,up,↑,0.7750191998202354,True,32,1
MP-K-21K21S1,958,experiment,52,→,right,→,0.8304304999765009,True,32,1
MP-K-21K21S1,959,experiment,65,↓,down,↓,0.831062400015071,True,32,1
MP-K-21K21S1,960,experiment,99,↑,down,↓,1.0044146999716759,False,32,1
MP-K-21K21S1,961,experiment,73,↑,up,↑,0.6118185999803245,True,32,1
MP-K-21K21S1,962,experiment,87,↑,up,↑,0.7583063999190927,True,32,1
MP-K-21K21S1,963,experiment,83,→,left,←,0.8520574001595378,False,32,1
MP-K-21K21S1,964,experiment,84,↑,up,↑,0.6454968999605626,True,32,1
MP-K-21K21S1,965,experiment,56,→,up,↑,0.7126362000126392,False,32,1
MP-K-21K21S1,966,experiment,93,↑,up,↑,0.62066620006226,True,32,1
MP-K-21K21S1,967,experiment,101,↑,up,↑,0.48988529993221164,True,32,1
MP-K-21K21S1,968,experiment,48,→,right,→,0.47013260005041957,True,32,1
MP-K-21K21S1,969,experiment,89,↓,up,↑,0.8132820001337677,False,32,1
MP-K-21K21S1,970,experiment,94,→,down,↓,1.1647799999918789,False,32,1
MP-K-21K21S1,971,experiment,58,→,left,←,1.3626602001022547,False,32,1
MP-K-21K21S1,972,experiment,61,↓,down,↓,0.615193200064823,True,32,1
MP-K-21K21S1,973,experiment,71,←,left,←,0.7825564998202026,True,32,1
MP-K-21K21S1,974,experiment,49,→,right,→,0.5746256001293659,True,32,1
MP-K-21K21S1,975,experiment,100,↑,up,↑,1.7822475999128073,True,32,1
MP-K-21K21S1,976,experiment,69,↓,down,↓,0.7752748001366854,True,32,1
MP-K-21K21S1,977,experiment,64,↓,down,↓,0.6507864000741392,True,32,1
MP-K-21K21S1,978,experiment,55,←,left,←,0.4858395999763161,True,32,1
MP-K-21K21S1,979,experiment,104,←,left,←,0.6078562999609858,True,32,1
MP-K-21K21S1,980,experiment,76,↑,up,↑,0.7497215000912547,True,32,1
MP-K-21K21S1,981,experiment,95,↓,down,↓,0.6717795999720693,True,32,1
MP-K-21K21S1,982,experiment,103,↓,down,↓,0.8341045998968184,True,32,1
MP-K-21K21S1,983,experiment,90,↓,down,↓,0.6984788000117987,True,32,1
MP-K-21K21S1,984,experiment,92,→,down,↓,0.9194134001154453,False,32,1
MP-K-21K21S1,985,experiment,63,←,left,←,1.2215066000353545,True,32,1
MP-K-21K21S1,986,training,63,↓,down,↓,0.5308912999462336,True,32,0
MP-K-21K21S1,987,training,70,↑,down,↓,0.6459395999554545,False,32,1
MP-K-21K21S1,988,experiment,71,→,right,→,0.6040220998693258,True,32,1
MP-K-21K21S1,989,experiment,48,↑,down,↓,1.0832876998465508,False,32,1
MP-K-21K21S1,990,experiment,72,→,right,→,0.7598822999279946,True,32,1
MP-K-21K21S1,991,experiment,76,→,right,→,0.7759452001191676,True,32,1
MP-K-21K21S1,992,experiment,105,←,left,←,0.5898535000160336,True,32,1
MP-K-21K21S1,993,experiment,65,←,right,→,0.8957233000546694,False,32,1
MP-K-21K21S1,994,experiment,93,↓,down,↓,0.7164434001315385,True,32,1
MP-K-21K21S1,995,experiment,70,→,right,→,0.7283632999751717,True,32,1
MP-K-21K21S1,996,experiment,60,↓,down,↓,1.4070715999696404,True,32,1
MP-K-21K21S1,997,experiment,69,→,right,→,0.5512973999138921,True,32,1
MP-K-21K21S1,998,experiment,59,↑,down,↓,0.813196700066328,False,32,1
MP-K-21K21S1,999,experiment,85,↑,up,↑,0.5841172998771071,True,32,1
MP-K-21K21S1,1000,experiment,83,↓,down,↓,1.036739899776876,True,32,1
MP-K-21K21S1,1001,experiment,88,←,left,←,0.5257286000996828,True,32,1
MP-K-21K21S1,1002,experiment,51,↑,right,→,0.8953943999949843,False,32,1
MP-K-21K21S1,1003,experiment,106,↓,down,↓,0.6243831000756472,True,32,1
MP-K-21K21S1,1004,experiment,66,←,left,←,0.7128923998679966,True,32,1
MP-K-21K21S1,1005,experiment,78,↓,down,↓,0.6578089999966323,True,32,1
MP-K-21K21S1,1006,experiment,57,→,right,→,0.5324356001801789,True,32,1
MP-K-21K21S1,1007,experiment,67,→,right,→,0.5364681000355631,True,32,1
MP-K-21K21S1,1008,experiment,96,↓,down,↓,0.658508500084281,True,32,1
MP-K-21K21S1,1009,experiment,58,→,left,←,1.0445509001147002,False,32,1
MP-K-21K21S1,1010,experiment,100,←,right,→,0.6251562000252306,False,32,1
MP-K-21K21S1,1011,experiment,54,→,right,→,0.44635299989022315,True,32,1
MP-K-21K21S1,1012,experiment,75,→,right,→,0.7227801000699401,True,32,1
MP-K-21K21S1,1013,experiment,81,→,right,→,0.7224284000694752,True,32,1
MP-K-21K21S1,1014,experiment,89,↑,down,↓,0.9515609999652952,False,32,1
MP-K-21K21S1,1015,experiment,77,←,left,←,0.7116274000145495,True,32,1
MP-K-21K21S1,1016,experiment,80,↑,down,↓,1.2641243999823928,False,32,1
MP-K-21K21S1,1017,experiment,102,↑,right,→,1.2190624999348074,False,32,1
MP-K-21K21S1,1018,experiment,62,→,right,→,0.4933186999987811,True,32,1
MP-K-21K21S1,1019,experiment,86,←,left,←,0.6846815999597311,True,32,1
MP-K-21K21S1,1020,experiment,108,↓,down,↓,0.6450821000616997,True,32,1
MP-K-21K21S1,1021,experiment,84,↓,down,↓,0.6151425000280142,True,32,1
MP-K-21K21S1,1022,experiment,87,→,right,→,0.5616754998918623,True,32,1
MP-K-21K21S1,1023,experiment,104,→,right,→,0.9276642999611795,True,32,1
MP-K-21K21S1,1024,experiment,74,↑,up,↑,0.48965700017288327,True,32,1
MP-K-21K21S1,1025,experiment,56,↑,up,↑,0.4589319999795407,True,32,1
MP-K-21K21S1,1026,experiment,98,←,right,→,0.7517998998519033,False,32,1
MP-K-21K21S1,1027,experiment,68,→,right,→,0.8508404998574406,True,32,1
MP-K-21K21S1,1028,experiment,103,→,right,→,0.7821012998465449,True,32,1
MP-K-21K21S1,1029,experiment,92,←,left,←,0.5758296998683363,True,32,1
MP-K-21K21S1,1030,experiment,94,←,left,←,0.5613267999142408,True,32,1
MP-K-21K21S1,1031,experiment,95,→,left,←,0.6829305000137538,False,32,1
MP-K-21K21S1,1032,experiment,63,→,right,→,0.9943162999115884,True,32,1
MP-K-21K21S1,1033,experiment,79,↓,down,↓,0.6959685001056641,True,32,1
MP-K-21K21S1,1034,experiment,90,→,right,→,0.4777272997889668,True,32,1
MP-K-21K21S1,1035,experiment,99,↑,up,↑,0.873125100042671,True,32,1
MP-K-21K21S1,1036,experiment,64,→,right,→,0.6643281001597643,True,32,1
MP-K-21K21S1,1037,experiment,101,←,left,←,0.5556980001274496,True,32,1
MP-K-21K21S1,1038,experiment,97,↑,up,↑,0.7247817001771182,True,32,1
MP-K-21K21S1,1039,experiment,55,→,right,→,0.4851033999584615,True,32,1
MP-K-21K21S1,1040,experiment,49,→,right,→,1.1292359000071883,True,32,1
MP-K-21K21S1,1041,experiment,53,↑,up,↑,0.6419107997789979,True,32,1
MP-K-21K21S1,1042,experiment,52,←,left,←,1.3027302001137286,True,32,1
MP-K-21K21S1,1043,experiment,50,→,right,→,0.9058181999716908,True,32,1
MP-K-21K21S1,1044,experiment,73,←,left,←,1.1246779998764396,True,32,1
MP-K-21K21S1,1045,experiment,61,←,left,←,0.9149872998241335,True,32,1
MP-K-21K21S1,1046,experiment,107,↑,up,↑,0.6584695000201464,True,32,1
MP-K-21K21S1,1047,experiment,91,↓,down,↓,0.9373437000904232,True,32,1
MP-K-21K21S1,1048,experiment,82,↓,down,↓,0.7123628999106586,True,32,1
MP-K-21K21S1,1049,training,94,←,left,←,0.5708210000302643,True,32,0
MP-K-21K21S1,1050,training,77,←,left,←,0.4109304999001324,True,32,1
MP-K-21K21S1,1051,experiment,50,↓,down,↓,0.5842144000343978,True,32,1
MP-K-21K21S1,1052,experiment,56,→,right,→,0.5020085999276489,True,32,1
MP-K-21K21S1,1053,experiment,52,→,right,→,0.6403304999694228,True,32,1
MP-K-21K21S1,1054,experiment,59,↓,down,↓,0.6986376999411732,True,32,1
MP-K-21K21S1,1055,experiment,82,↑,up,↑,0.5151246001478285,True,32,1
MP-K-21K21S1,1056,experiment,97,↑,right,→,0.7737283001188189,False,32,1
MP-K-21K21S1,1057,experiment,74,↑,up,↑,0.51780050015077,True,32,1
MP-K-21K21S1,1058,experiment,57,←,left,←,0.525878599844873,True,32,1
MP-K-21K21S1,1059,experiment,88,↑,up,↑,0.659294200129807,True,32,1
MP-K-21K21S1,1060,experiment,94,←,left,←,0.5214565000496805,True,32,1
MP-K-21K21S1,1061,experiment,64,→,right,→,0.5107756000943482,True,32,1
MP-K-21K21S1,1062,experiment,89,↓,down,↓,0.6682715001516044,True,32,1
MP-K-21K21S1,1063,experiment,66,↑,up,↑,0.8192265001125634,True,32,1
MP-K-21K21S1,1064,experiment,85,↓,down,↓,0.5739548001438379,True,32,1
MP-K-21K21S1,1065,experiment,75,→,right,→,0.4697147000115365,True,32,1
MP-K-21K21S1,1066,experiment,101,↑,up,↑,0.5450037000700831,True,32,1
MP-K-21K21S1,1067,experiment,95,←,right,→,0.5313635000493377,False,32,1
MP-K-21K21S1,1068,experiment,103,↑,down,↓,0.7634600999299437,False,32,1
MP-K-21K21S1,1069,experiment,60,↓,up,↑,0.7205337001942098,False,32,1
MP-K-21K21S1,1070,experiment,62,→,right,→,0.7664417999330908,True,32,1
MP-K-21K21S1,1071,experiment,67,↑,down,↓,0.7532659999560565,False,32,1
MP-K-21K21S1,1072,experiment,108,←,left,←,0.5748817001003772,True,32,1
MP-K-21K21S1,1073,experiment,58,→,right,→,0.6363852000795305,True,32,1
MP-K-21K21S1,1074,experiment,86,←,up,↑,0.6617352000903338,False,32,1
MP-K-21K21S1,1075,experiment,87,↑,up,↑,0.8622007998637855,True,32,1
MP-K-21K21S1,1076,experiment,83,←,left,←,0.7354708998464048,True,32,1
MP-K-21K21S1,1077,experiment,76,↓,down,↓,0.7040862999856472,True,32,1
MP-K-21K21S1,1078,experiment,100,→,left,←,0.8342243998777121,False,32,1
MP-K-21K21S1,1079,experiment,70,↑,up,↑,1.0892338999547064,True,32,1
MP-K-21K21S1,1080,experiment,63,↓,down,↓,1.1361672999337316,True,32,1
MP-K-21K21S1,1081,experiment,61,←,left,←,0.5741534000262618,True,32,1
MP-K-21K21S1,1082,experiment,51,←,left,←,1.085971900029108,True,32,1
MP-K-21K21S1,1083,experiment,68,→,right,→,1.0032053000759333,True,32,1
MP-K-21K21S1,1084,experiment,79,←,left,←,0.672833199845627,True,32,1
MP-K-21K21S1,1085,experiment,65,←,left,←,0.6237681000493467,True,32,1
MP-K-21K21S1,1086,experiment,102,→,left,←,0.7883017000276595,False,32,1
MP-K-21K21S1,1087,experiment,99,↑,up,↑,0.5953676998615265,True,32,1
MP-K-21K21S1,1088,experiment,104,↑,up,↑,1.2568089000415057,True,32,1
MP-K-21K21S1,1089,experiment,96,←,left,←,0.5660147001035511,True,32,1
MP-K-21K21S1,1090,experiment,91,↑,up,↑,0.8246188999619335,True,32,1
MP-K-21K21S1,1091,experiment,92,↑,up,↑,0.4410939000081271,True,32,1
MP-K-21K21S1,1092,experiment,107,↑,up,↑,0.7230896998662502,True,32,1
MP-K-21K21S1,1093,experiment,49,↑,up,↑,0.7414204000961035,True,32,1
MP-K-21K21S1,1094,experiment,72,↑,up,↑,0.44774199998937547,True,32,1
MP-K-21K21S1,1095,experiment,55,←,left,←,0.4750341000035405,True,32,1
MP-K-21K21S1,1096,experiment,98,↓,down,↓,0.6311761999968439,True,32,1
MP-K-21K21S1,1097,experiment,105,↑,up,↑,0.7223614999093115,True,32,1
MP-K-21K21S1,1098,experiment,81,↓,up,↑,0.7063243000302464,False,32,1
MP-K-21K21S1,1099,experiment,84,↑,no_key,no_letter,-1.0,False,32,1
MP-K-21K21S1,1100,experiment,71,→,left,←,0.4683842998929322,False,32,1
MP-K-21K21S1,1101,experiment,73,↑,up,↑,0.4413236000109464,True,32,1
MP-K-21K21S1,1102,experiment,53,←,left,←,0.392819199943915,True,32,1
MP-K-21K21S1,1103,experiment,48,←,right,→,0.485191100044176,False,32,0
MP-K-21K21S1,1104,experiment,69,←,left,←,0.6025227999780327,True,32,1
MP-K-21K21S1,1105,experiment,106,←,left,←,0.454907099949196,True,32,1
MP-K-21K21S1,1106,experiment,78,←,left,←,0.39288810011930764,True,32,1
MP-K-21K21S1,1107,experiment,54,↑,up,↑,0.6721934000961483,True,32,1
MP-K-21K21S1,1108,experiment,77,↑,up,↑,0.45921460003592074,True,32,1
MP-K-21K21S1,1109,experiment,80,→,right,→,0.4377093999646604,True,32,1
MP-K-21K21S1,1110,experiment,90,→,right,→,0.7497934999410063,True,32,0
MP-K-21K21S1,1111,experiment,93,←,left,←,0.5927285000216216,True,32,1
MP-K-21K21S1,1112,training,75,↑,left,←,0.7177001999225467,False,32,0
MP-K-21K21S1,1113,training,82,←,left,←,0.4853078001178801,True,32,1
MP-K-21K21S1,1114,experiment,58,↑,up,↑,0.4544139001518488,True,32,1
MP-K-21K21S1,1115,experiment,60,←,left,←,0.47192089981399477,True,32,1
MP-K-21K21S1,1116,experiment,92,↓,down,↓,0.6219656001776457,True,32,1
MP-K-21K21S1,1117,experiment,81,↓,down,↓,0.609664199873805,True,32,1
MP-K-21K21S1,1118,experiment,90,↓,down,↓,0.658928900025785,True,32,1
MP-K-21K21S1,1119,experiment,106,→,right,→,0.5410097001586109,True,32,1
MP-K-21K21S1,1120,experiment,62,↑,down,↓,0.6904099001549184,False,32,1
MP-K-21K21S1,1121,experiment,86,↓,down,↓,0.7858478999696672,True,32,1
MP-K-21K21S1,1122,experiment,59,↑,up,↑,0.46217670012265444,True,32,1
MP-K-21K21S1,1123,experiment,66,↑,up,↑,0.7417444000020623,True,32,1
MP-K-21K21S1,1124,experiment,96,←,left,←,0.4956419998779893,True,32,1
MP-K-21K21S1,1125,experiment,76,←,left,←,0.8180643999949098,True,32,1
MP-K-21K21S1,1126,experiment,77,←,left,←,0.5196064000483602,True,32,1
MP-K-21K21S1,1127,experiment,69,↓,down,↓,0.6833670001942664,True,32,1
MP-K-21K21S1,1128,experiment,101,→,right,→,0.518059799913317,True,32,1
MP-K-21K21S1,1129,experiment,82,↓,down,↓,0.6218840000219643,True,32,1
MP-K-21K21S1,1130,experiment,93,↑,up,↑,0.5976303000934422,True,32,1
MP-K-21K21S1,1131,experiment,61,↓,down,↓,0.6649267999455333,True,32,1
MP-K-21K21S1,1132,experiment,74,→,left,←,0.7732428000308573,False,32,1
MP-K-21K21S1,1133,experiment,54,←,left,←,0.48435519984923303,True,32,1
MP-K-21K21S1,1134,experiment,87,→,right,→,0.49152089981362224,True,32,1
MP-K-21K21S1,1135,experiment,51,↓,down,↓,0.9267229000106454,True,32,1
MP-K-21K21S1,1136,experiment,91,↓,down,↓,0.5469583000522107,True,32,1
MP-K-21K21S1,1137,experiment,55,↑,up,↑,0.8905120000708848,True,32,1
MP-K-21K21S1,1138,experiment,84,→,right,→,0.4663921999745071,True,32,1
MP-K-21K21S1,1139,experiment,67,↑,down,↓,0.7213282999582589,False,32,1
MP-K-21K21S1,1140,experiment,103,↑,no_key,no_letter,-1.0,False,32,1
MP-K-21K21S1,1141,experiment,80,→,right,→,0.49726940016262233,True,32,1
MP-K-21K21S1,1142,experiment,94,↓,down,↓,0.7105630999431014,True,32,1
MP-K-21K21S1,1143,experiment,85,→,right,→,0.6125648999586701,True,32,1
MP-K-21K21S1,1144,experiment,104,↑,up,↑,0.6409441998694092,True,32,1
MP-K-21K21S1,1145,experiment,65,↓,up,↑,0.7691623000428081,False,32,1
MP-K-21K21S1,1146,experiment,70,↑,up,↑,0.4505737000145018,True,32,1
MP-K-21K21S1,1147,experiment,73,↑,up,↑,0.7840173000004143,True,32,1
MP-K-21K21S1,1148,experiment,107,→,right,→,0.5326146001461893,True,32,1
MP-K-21K21S1,1149,experiment,68,↓,down,↓,0.9442749000154436,True,32,1
MP-K-21K21S1,1150,experiment,98,←,left,←,0.6337028001435101,True,32,1
MP-K-21K21S1,1151,experiment,63,←,left,←,0.9872075000312179,True,32,1
MP-K-21K21S1,1152,experiment,49,→,right,→,0.4667662000283599,True,32,1
MP-K-21K21S1,1153,experiment,99,←,left,←,0.49535059998743236,True,32,1
MP-K-21K21S1,1154,experiment,52,←,left,←,0.505715899867937,True,32,1
MP-K-21K21S1,1155,experiment,100,←,left,←,0.4520358999725431,True,32,1
MP-K-21K21S1,1156,experiment,108,→,right,→,0.5093048000708222,True,32,1
MP-K-21K21S1,1157,experiment,50,↓,left,←,0.8001226000487804,False,32,1
MP-K-21K21S1,1158,experiment,89,←,left,←,0.682267100084573,True,32,1
MP-K-21K21S1,1159,experiment,71,←,left,←,0.7829215000383556,True,32,1
MP-K-21K21S1,1160,experiment,83,←,left,←,0.4754969999194145,True,32,1
MP-K-21K21S1,1161,experiment,72,↑,up,↑,0.49650759994983673,True,32,1
MP-K-21K21S1,1162,experiment,53,→,left,←,0.7145207999274135,False,32,1
MP-K-21K21S1,1163,experiment,57,→,right,→,0.5786077999509871,True,32,1
MP-K-21K21S1,1164,experiment,78,↓,down,↓,1.0970034000929445,True,32,1
MP-K-21K21S1,1165,experiment,88,←,left,←,0.7753022001124918,True,32,1
MP-K-21K21S1,1166,experiment,48,↓,down,↓,0.9918706000316888,True,32,1
MP-K-21K21S1,1167,experiment,95,↓,down,↓,0.6963908998295665,True,32,1
MP-K-21K21S1,1168,experiment,64,↑,up,↑,0.5667920000851154,True,32,1
MP-K-21K21S1,1169,experiment,56,←,left,←,0.5892159999348223,True,32,1
MP-K-21K21S1,1170,experiment,105,↑,up,↑,0.5302370002027601,True,32,1
MP-K-21K21S1,1171,experiment,75,→,right,→,0.5153901998419315,True,32,1
MP-K-21K21S1,1172,experiment,79,→,right,→,0.6042826001066715,True,32,1
MP-K-21K21S1,1173,experiment,102,→,right,→,0.5617309999652207,True,32,1
MP-K-21K21S1,1174,experiment,97,↓,down,↓,0.9067713001277298,True,32,1
MP-K-21K21S1,1175,training,86,↓,down,↓,0.8816821000073105,True,32,0
MP-K-21K21S1,1176,training,49,↑,up,↑,0.7340119001455605,True,32,1
MP-K-21K21S1,1177,experiment,66,↑,up,↑,0.5701206000521779,True,32,1
MP-K-21K21S1,1178,experiment,54,→,right,→,0.897463500034064,True,32,1
MP-K-21K21S1,1179,experiment,89,↓,up,↑,0.8232199000194669,False,32,1
MP-K-21K21S1,1180,experiment,102,→,right,→,0.5399176999926567,True,32,1
MP-K-21K21S1,1181,experiment,65,↓,down,↓,0.6962110998574644,True,32,1
MP-K-21K21S1,1182,experiment,69,←,left,←,0.8048588000237942,True,32,1
MP-K-21K21S1,1183,experiment,62,←,left,←,0.4877492000814527,True,32,1
MP-K-21K21S1,1184,experiment,101,↓,up,↑,0.8020019000396132,False,32,1
MP-K-21K21S1,1185,experiment,58,↓,up,↑,0.950441500172019,False,32,1
MP-K-21K21S1,1186,experiment,74,→,right,→,0.6635596000123769,True,32,1
MP-K-21K21S1,1187,experiment,91,→,right,→,0.5740712999831885,True,32,1
MP-K-21K21S1,1188,experiment,53,↓,up,↑,0.8055169000290334,False,32,1
MP-K-21K21S1,1189,experiment,84,↑,right,→,1.0332609000615776,False,32,1
MP-K-21K21S1,1190,experiment,71,↑,up,↑,0.5112246000207961,True,32,1
MP-K-21K21S1,1191,experiment,60,←,left,←,0.5026893999893218,True,32,1
MP-K-21K21S1,1192,experiment,103,→,right,→,0.584224599879235,True,32,1
MP-K-21K21S1,1193,experiment,59,↑,up,↑,0.8368452000431716,True,32,1
MP-K-21K21S1,1194,experiment,95,←,left,←,0.5073329999577254,True,32,1
MP-K-21K21S1,1195,experiment,108,←,left,←,0.4984991999808699,True,32,1
MP-K-21K21S1,1196,experiment,51,→,left,←,0.8375804000534117,False,32,1
MP-K-21K21S1,1197,experiment,48,↓,down,↓,0.6034794999286532,True,32,1
MP-K-21K21S1,1198,experiment,80,→,right,→,0.49648239999078214,True,32,1
MP-K-21K21S1,1199,experiment,93,→,right,→,0.5251005000900477,True,32,1
MP-K-21K21S1,1200,experiment,83,↑,down,↓,0.8521863000933081,False,32,1
MP-K-21K21S1,1201,experiment,88,↑,up,↑,0.5645830000285059,True,32,1
MP-K-21K21S1,1202,experiment,79,←,left,←,0.5393612999469042,True,32,1
MP-K-21K21S1,1203,experiment,87,↑,down,↓,1.1765556000173092,False,32,1
MP-K-21K21S1,1204,experiment,63,↓,up,↑,1.716391900088638,False,32,1
MP-K-21K21S1,1205,experiment,70,←,left,←,0.44782430003397167,True,32,1
MP-K-21K21S1,1206,experiment,104,←,left,←,0.46673580002970994,True,32,1
MP-K-21K21S1,1207,experiment,94,↓,left,←,0.9202694001141936,False,32,1
MP-K-21K21S1,1208,experiment,73,←,left,←,0.4990515001118183,True,32,1
MP-K-21K21S1,1209,experiment,99,→,right,→,0.5337300000246614,True,32,1
MP-K-21K21S1,1210,experiment,92,←,left,←,0.6975314998999238,True,32,1
MP-K-21K21S1,1211,experiment,61,←,left,←,0.7050166998524219,True,32,1
MP-K-21K21S1,1212,experiment,85,←,left,←,0.384606400039047,True,32,1
MP-K-21K21S1,1213,experiment,64,←,left,←,1.2589357001706958,True,32,0
MP-K-21K21S1,1214,experiment,81,↓,up,↑,0.860863900044933,False,32,1
MP-K-21K21S1,1215,experiment,97,→,up,↑,0.9855800999794155,False,32,1
MP-K-21K21S1,1216,experiment,86,↓,down,↓,0.7013543001376092,True,32,1
MP-K-21K21S1,1217,experiment,78,↑,up,↑,0.47093229996971786,True,32,1
MP-K-21K21S1,1218,experiment,106,↓,up,↑,0.4178972998633981,False,32,1
MP-K-21K21S1,1219,experiment,72,↑,down,↓,1.015155600151047,False,32,1
MP-K-21K21S1,1220,experiment,90,←,left,←,0.5281380999367684,True,32,1
MP-K-21K21S1,1221,experiment,56,←,right,→,0.6158855999819934,False,32,1
MP-K-21K21S1,1222,experiment,52,↓,down,↓,0.40077710011973977,True,32,1
MP-K-21K21S1,1223,experiment,75,↓,down,↓,0.36732899979688227,True,32,0
MP-K-21K21S1,1224,experiment,98,↑,down,↓,0.6841215000022203,False,32,0
MP-K-21K21S1,1225,experiment,49,→,left,←,0.4721672001760453,False,32,1
MP-K-21K21S1,1226,experiment,82,←,right,→,0.6175958998501301,False,32,1
MP-K-21K21S1,1227,experiment,55,→,left,←,0.7343242999631912,False,32,1
MP-K-21K21S1,1228,experiment,77,→,down,↓,0.7270983001217246,False,32,1
MP-K-21K21S1,1229,experiment,105,↑,up,↑,1.2950671999715269,True,32,1
MP-K-21K21S1,1230,experiment,50,↑,up,↑,1.2818248001858592,True,32,1
MP-K-21K21S1,1231,experiment,76,↓,down,↓,0.6047362999524921,True,32,1
MP-K-21K21S1,1232,experiment,67,→,right,→,0.6295638000592589,True,32,1
MP-K-21K21S1,1233,experiment,100,→,right,→,0.8749905999284238,True,32,1
MP-K-21K21S1,1234,experiment,107,↓,down,↓,0.6201703001279384,True,32,1
MP-K-21K21S1,1235,experiment,68,←,left,←,0.6445570001378655,True,32,1
MP-K-21K21S1,1236,experiment,57,↑,left,←,1.2952519000973552,False,32,1
MP-K-21K21S1,1237,experiment,96,→,left,←,0.6751308999955654,False,32,1
MP-K-21K21S1,1238,training,54,↑,right,→,0.6814252999611199,False,32,0
MP-K-21K21S1,1239,training,84,←,left,←,0.4417610000818968,True,32,1
MP-K-21K21S1,1240,experiment,103,→,right,→,0.6216305000707507,True,32,1
MP-K-21K21S1,1241,experiment,63,↑,up,↑,0.7035150998272002,True,32,1
MP-K-21K21S1,1242,experiment,48,↓,up,↑,0.578725199913606,False,32,1
MP-K-21K21S1,1243,experiment,73,←,left,←,0.6672330000437796,True,32,1
MP-K-21K21S1,1244,experiment,71,→,right,→,0.5526582000311464,True,32,1
MP-K-21K21S1,1245,experiment,102,↓,down,↓,0.7280977999325842,True,32,1
MP-K-21K21S1,1246,experiment,104,↑,up,↑,0.5359702999703586,True,32,1
MP-K-21K21S1,1247,experiment,93,→,no_key,no_letter,-1.0,False,32,1
MP-K-21K21S1,1248,experiment,95,↑,no_key,no_letter,-1.0,False,32,1
MP-K-21K21S1,1249,experiment,81,↓,down,↓,0.6048185999970883,True,32,1
MP-K-21K21S1,1250,experiment,74,↓,down,↓,0.7957764000166208,True,32,1
MP-K-21K21S1,1251,experiment,83,←,left,←,0.5277122999541461,True,32,1
MP-K-21K21S1,1252,experiment,65,↓,down,↓,0.9968538000248373,True,32,1
MP-K-21K21S1,1253,experiment,101,↓,down,↓,1.538795700063929,True,32,1
MP-K-21K21S1,1254,experiment,75,←,left,←,0.6596242000814527,True,32,1
MP-K-21K21S1,1255,experiment,91,←,left,←,0.7867503999732435,True,32,1
MP-K-21K21S1,1256,experiment,96,←,left,←,0.5712160000111908,True,32,1
MP-K-21K21S1,1257,experiment,64,↓,up,↑,0.846477699931711,False,32,1
MP-K-21K21S1,1258,experiment,50,↑,left,←,1.2752978999633342,False,32,1
MP-K-21K21S1,1259,experiment,69,←,left,←,0.673149400157854,True,32,1
MP-K-21K21S1,1260,experiment,68,↑,up,↑,0.6392421999480575,True,32,1
MP-K-21K21S1,1261,experiment,100,→,left,←,0.7399315000511706,False,32,1
MP-K-21K21S1,1262,experiment,55,←,down,↓,1.267776899971068,False,32,1
MP-K-21K21S1,1263,experiment,77,↑,up,↑,0.7910907999612391,True,32,1
MP-K-21K21S1,1264,experiment,54,↓,left,←,0.8131161001510918,False,32,1
MP-K-21K21S1,1265,experiment,80,→,left,←,0.6254133998882025,False,32,1
MP-K-21K21S1,1266,experiment,52,→,left,←,0.5909226001240313,False,32,1
MP-K-21K21S1,1267,experiment,86,←,left,←,0.5142019998747855,True,32,1
MP-K-21K21S1,1268,experiment,57,→,right,→,0.6344706998206675,True,32,1
MP-K-21K21S1,1269,experiment,107,←,left,←,0.6611022998113185,True,32,1
MP-K-21K21S1,1270,experiment,70,↓,left,←,0.7389919001143426,False,32,1
MP-K-21K21S1,1271,experiment,79,↓,down,↓,0.6186445998027921,True,32,1
MP-K-21K21S1,1272,experiment,87,→,right,→,0.5484998000320047,True,32,1
MP-K-21K21S1,1273,experiment,72,→,left,←,1.5502346998546273,False,32,1
MP-K-21K21S1,1274,experiment,66,↓,down,↓,0.7218222999945283,True,32,1
MP-K-21K21S1,1275,experiment,90,↑,right,→,1.0144322998821735,False,32,1
MP-K-21K21S1,1276,experiment,94,↓,down,↓,0.6782032998744398,True,32,1
MP-K-21K21S1,1277,experiment,89,↑,up,↑,0.5731546001043171,True,32,1
MP-K-21K21S1,1278,experiment,49,←,left,←,0.7336826999671757,True,32,1
MP-K-21K21S1,1279,experiment,85,→,right,→,0.6275033000856638,True,32,1
MP-K-21K21S1,1280,experiment,106,↑,up,↑,0.5992129000369459,True,32,1
MP-K-21K21S1,1281,experiment,76,↓,left,←,0.6693138999398798,False,32,1
MP-K-21K21S1,1282,experiment,78,←,up,↑,0.728338000131771,False,32,1
MP-K-21K21S1,1283,experiment,108,→,right,→,0.927065399941057,True,32,1
MP-K-21K21S1,1284,experiment,105,↓,down,↓,0.7024248000234365,True,32,1
MP-K-21K21S1,1285,experiment,61,↓,down,↓,0.6857536002062261,True,32,1
MP-K-21K21S1,1286,experiment,99,←,right,→,0.5611147000454366,False,32,1
MP-K-21K21S1,1287,experiment,58,→,right,→,0.775347099872306,True,32,1
MP-K-21K21S1,1288,experiment,67,←,left,←,0.8335422000382096,True,32,1
MP-K-21K21S1,1289,experiment,51,↑,down,↓,1.063117500161752,False,32,1
MP-K-21K21S1,1290,experiment,97,↓,down,↓,0.8835556001868099,True,32,1
MP-K-21K21S1,1291,experiment,56,←,left,←,0.6533431999851018,True,32,1
MP-K-21K21S1,1292,experiment,60,↓,left,←,0.823067800141871,False,32,1
MP-K-21K21S1,1293,experiment,53,↑,up,↑,0.5801307000219822,True,32,1
MP-K-21K21S1,1294,experiment,98,↓,down,↓,1.0117740000132471,True,32,1
MP-K-21K21S1,1295,experiment,59,↑,down,↓,1.055649499874562,False,32,1
MP-K-21K21S1,1296,experiment,62,↑,up,↑,0.8961149998940527,True,32,1
MP-K-21K21S1,1297,experiment,92,↑,up,↑,0.9816380001138896,True,32,1
MP-K-21K21S1,1298,experiment,82,↓,up,↑,0.8346347999759018,False,32,1
MP-K-21K21S1,1299,experiment,88,↑,up,↑,1.2035926000680774,True,32,1
MP-K-21K21S1,1300,experiment,84,↑,up,↑,0.49530950002372265,True,32,1
MP-K-21K21S1,1301,training,82,→,right,→,0.48639849992468953,True,32,0
MP-K-21K21S1,1302,training,87,→,right,→,0.47721430007368326,True,32,1
MP-K-21K21S1,1303,experiment,52,↑,up,↑,0.46533369994722307,True,32,1
MP-K-21K21S1,1304,experiment,106,↓,down,↓,0.47458670008927584,True,32,1
MP-K-21K21S1,1305,experiment,59,↑,up,↑,0.4675278998911381,True,32,1
MP-K-21K21S1,1306,experiment,57,↑,up,↑,0.8458483000285923,True,32,1
MP-K-21K21S1,1307,experiment,58,→,right,→,0.6484255001414567,True,32,1
MP-K-21K21S1,1308,experiment,49,↑,up,↑,0.48564759991131723,True,32,1
MP-K-21K21S1,1309,experiment,65,←,left,←,0.7321211001835763,True,32,1
MP-K-21K21S1,1310,experiment,85,←,left,←,0.400714399991557,True,32,1
MP-K-21K21S1,1311,experiment,56,↓,down,↓,0.5112024999689311,True,32,0
MP-K-21K21S1,1312,experiment,77,↓,down,↓,0.5529849999584258,True,32,1
MP-K-21K21S1,1313,experiment,54,←,left,←,0.49673269991762936,True,32,1
MP-K-21K21S1,1314,experiment,68,↓,down,↓,0.7657474000006914,True,32,1
MP-K-21K21S1,1315,experiment,75,↑,down,↓,0.7667530998587608,False,32,1
MP-K-21K21S1,1316,experiment,84,↓,down,↓,0.754943500040099,True,32,1
MP-K-21K21S1,1317,experiment,89,←,left,←,0.686542000155896,True,32,1
MP-K-21K21S1,1318,experiment,78,→,right,→,0.5448322999291122,True,32,1
MP-K-21K21S1,1319,experiment,92,↑,down,↓,0.6842068999540061,False,32,1
MP-K-21K21S1,1320,experiment,74,←,left,←,0.5439915000461042,True,32,1
MP-K-21K21S1,1321,experiment,98,↓,down,↓,0.9533677001018077,True,32,1
MP-K-21K21S1,1322,experiment,86,→,right,→,0.5664033000357449,True,32,1
MP-K-21K21S1,1323,experiment,81,↓,down,↓,0.6444039999041706,True,32,1
MP-K-21K21S1,1324,experiment,76,↓,down,↓,0.6732093000318855,True,32,1
MP-K-21K21S1,1325,experiment,105,←,left,←,1.0748000999446958,True,32,1
MP-K-21K21S1,1326,experiment,61,→,right,→,0.5952524999156594,True,32,1
MP-K-21K21S1,1327,experiment,66,→,left,←,0.9891494000330567,False,32,1
MP-K-21K21S1,1328,experiment,62,→,right,→,0.5526663998607546,True,32,1
MP-K-21K21S1,1329,experiment,53,↓,down,↓,0.5523582000751048,True,32,1
MP-K-21K21S1,1330,experiment,73,←,left,←,0.49791060015559196,True,32,1
MP-K-21K21S1,1331,experiment,107,→,right,→,0.5138409999199212,True,32,1
MP-K-21K21S1,1332,experiment,79,←,left,←,0.45043580001220107,True,32,1
MP-K-21K21S1,1333,experiment,70,↑,up,↑,0.48911119997501373,True,32,1
MP-K-21K21S1,1334,experiment,67,→,right,→,0.49471730017103255,True,32,1
MP-K-21K21S1,1335,experiment,100,↑,up,↑,0.6570862999651581,True,32,1
MP-K-21K21S1,1336,experiment,69,→,right,→,0.9033764000050724,True,32,1
MP-K-21K21S1,1337,experiment,94,←,left,←,0.7554478000383824,True,32,1
MP-K-21K21S1,1338,experiment,51,←,right,→,0.6760058999061584,False,32,1
MP-K-21K21S1,1339,experiment,99,↓,down,↓,1.2076772002037615,True,32,1
MP-K-21K21S1,1340,experiment,55,↑,up,↑,0.7085627999622375,True,32,1
MP-K-21K21S1,1341,experiment,101,↑,up,↑,0.6381620999891311,True,32,1
MP-K-21K21S1,1342,experiment,48,←,left,←,0.5243836999870837,True,32,1
MP-K-21K21S1,1343,experiment,104,←,right,→,0.5885048001073301,False,32,1
MP-K-21K21S1,1344,experiment,63,←,left,←,0.6075553998816758,True,32,1
MP-K-21K21S1,1345,experiment,96,↑,up,↑,0.6629530999343842,True,32,1
MP-K-21K21S1,1346,experiment,80,↓,up,↑,1.3212443001102656,False,32,1
MP-K-21K21S1,1347,experiment,108,↑,left,←,1.0480460000690073,False,32,1
MP-K-21K21S1,1348,experiment,82,→,left,←,0.7300493000075221,False,32,1
MP-K-21K21S1,1349,experiment,50,↓,down,↓,0.6677725999616086,True,32,1
MP-K-21K21S1,1350,experiment,103,←,down,↓,1.2864917998667806,False,32,1
MP-K-21K21S1,1351,experiment,64,↓,down,↓,0.8933936001267284,True,32,1
MP-K-21K21S1,1352,experiment,83,→,left,←,0.9657016999553889,False,32,1
MP-K-21K21S1,1353,experiment,97,↑,right,→,0.9425470000132918,False,32,1
MP-K-21K21S1,1354,experiment,90,←,left,←,0.8025098999496549,True,32,1
MP-K-21K21S1,1355,experiment,72,↑,down,↓,0.7781268001999706,False,32,1
MP-K-21K21S1,1356,experiment,91,→,up,↑,0.8441669000312686,False,32,1
MP-K-21K21S1,1357,experiment,93,→,right,→,0.6912430999800563,True,32,1
MP-K-21K21S1,1358,experiment,95,→,left,←,0.7595448999200016,False,32,1
MP-K-21K21S1,1359,experiment,87,↑,up,↑,0.6762323000002652,True,32,1
MP-K-21K21S1,1360,experiment,88,↑,right,→,1.2672953999135643,False,32,1
MP-K-21K21S1,1361,experiment,102,→,right,→,0.7341940000187606,True,32,1
MP-K-21K21S1,1362,experiment,60,↑,up,↑,0.6847884000744671,True,32,1
MP-K-21K21S1,1363,experiment,71,↓,down,↓,0.9691351000219584,True,32,1
MP-K-21K21S1,1364,training,75,←,left,←,0.5528168000746518,True,32,0
MP-K-21K21S1,1365,training,101,←,right,→,0.649011000059545,False,32,1
MP-K-21K21S1,1366,experiment,61,←,left,←,0.6423537998925894,True,32,1
MP-K-21K21S1,1367,experiment,54,→,right,→,0.5263836998492479,True,32,1
MP-K-21K21S1,1368,experiment,83,↑,down,↓,1.0453944001346827,False,32,1
MP-K-21K21S1,1369,experiment,76,←,left,←,0.6738299999851733,True,32,1
MP-K-21K21S1,1370,experiment,65,↓,down,↓,0.5448306000325829,True,32,1
MP-K-21K21S1,1371,experiment,98,→,right,→,0.6259646001271904,True,32,1
MP-K-21K21S1,1372,experiment,62,↓,down,↓,0.5719461999833584,True,32,1
MP-K-21K21S1,1373,experiment,97,↑,up,↑,0.5883314998354763,True,32,1
MP-K-21K21S1,1374,experiment,92,↓,down,↓,0.5739323000889271,True,32,1
MP-K-21K21S1,1375,experiment,100,↓,down,↓,0.6931605997961015,True,32,1
MP-K-21K21S1,1376,experiment,58,↓,down,↓,0.6138423001393676,True,32,1
MP-K-21K21S1,1377,experiment,79,↓,down,↓,0.7385764000937343,True,32,1
MP-K-21K21S1,1378,experiment,59,↑,up,↑,0.5208072999957949,True,32,1
MP-K-21K21S1,1379,experiment,89,←,left,←,0.6620368000585586,True,32,1
MP-K-21K21S1,1380,experiment,55,←,right,→,0.8726349000353366,False,32,1
MP-K-21K21S1,1381,experiment,78,←,left,←,0.5713608001824468,True,32,1
MP-K-21K21S1,1382,experiment,50,↑,up,↑,0.5154635000508279,True,32,1
MP-K-21K21S1,1383,experiment,90,←,left,←,0.3921765999402851,True,32,1
MP-K-21K21S1,1384,experiment,88,↑,up,↑,0.4589774999767542,True,32,0
MP-K-21K21S1,1385,experiment,106,↑,left,←,0.7891947000753134,False,32,1
MP-K-21K21S1,1386,experiment,81,↓,up,↑,0.7300561000593007,False,32,1
MP-K-21K21S1,1387,experiment,69,↓,down,↓,0.5973751998972148,True,32,1
MP-K-21K21S1,1388,experiment,95,→,right,→,0.5495752000715584,True,32,1
MP-K-21K21S1,1389,experiment,51,→,left,←,0.7823783000931144,False,32,1
MP-K-21K21S1,1390,experiment,93,↓,down,↓,0.7355743001680821,True,32,1
MP-K-21K21S1,1391,experiment,99,↑,up,↑,0.5289193000644445,True,32,1
MP-K-21K21S1,1392,experiment,108,↓,down,↓,0.7433878001756966,True,32,1
MP-K-21K21S1,1393,experiment,105,←,up,↑,0.7263765998650342,False,32,1
MP-K-21K21S1,1394,experiment,96,→,down,↓,0.8970818999223411,False,32,1
MP-K-21K21S1,1395,experiment,73,↑,down,↓,0.5883266001474112,False,32,1
MP-K-21K21S1,1396,experiment,87,↓,down,↓,0.5033664000220597,True,32,1
MP-K-21K21S1,1397,experiment,107,→,right,→,0.7354813001584262,True,32,1
MP-K-21K21S1,1398,experiment,85,↓,down,↓,0.5412234000395983,True,32,1
MP-K-21K21S1,1399,experiment,82,←,left,←,0.5398518000729382,True,32,1
MP-K-21K21S1,1400,experiment,60,↓,down,↓,0.6738432999700308,True,32,1
MP-K-21K21S1,1401,experiment,77,↓,down,↓,0.700906699988991,True,32,1
