PART_ID,Trial_no,Trial_type,CSI,Stim_letter,Key_pressed,letter_choose,Rt,Corr,Stimulus Time,nDropped
MW-K-33K33S2,1,training,120,→,right,→,0.9698952999897301,True,60,1
MW-K-33K33S2,2,training,120,←,left,←,0.9776966001372784,True,60,0
MW-K-33K33S2,3,training,120,↑,up,↑,0.96950350003317,True,60,0
MW-K-33K33S2,4,training,120,→,right,→,0.8176223000045866,True,60,0
MW-K-33K33S2,5,training,120,←,left,←,0.6423897000495344,True,60,0
MW-K-33K33S2,6,training,120,→,right,→,0.6427198001183569,True,60,0
MW-K-33K33S2,7,training,120,↓,down,↓,0.9056211998686194,True,60,0
MW-K-33K33S2,8,training,120,→,right,→,0.6262412001378834,True,60,0
MW-K-33K33S2,9,training,120,→,right,→,0.5679440000094473,True,60,0
MW-K-33K33S2,10,training,120,→,right,→,0.8179319999180734,True,60,0
MW-K-33K33S2,11,training,120,→,right,→,0.5755533999763429,True,60,0
MW-K-33K33S2,12,training,120,↑,up,↑,0.7360284000169486,True,60,0
MW-K-33K33S2,13,training,120,←,left,←,0.49238900002092123,True,60,0
MW-K-33K33S2,14,training,120,→,right,→,0.5920861000195146,True,60,0
MW-K-33K33S2,15,training,120,←,left,←,0.7958478999789804,True,60,0
MW-K-33K33S2,16,training,120,↑,up,↑,0.6097263998817652,True,60,0
MW-K-33K33S2,17,training,120,↑,up,↑,0.5922540000174195,True,60,0
MW-K-33K33S2,18,training,120,→,right,→,0.4590207999572158,True,60,0
MW-K-33K33S2,19,training,120,↑,up,↑,0.5086437000427395,True,60,0
MW-K-33K33S2,20,training,120,←,left,←,0.4766883000265807,True,60,0
MW-K-33K33S2,21,no_adaptation,120,↓,down,↓,0.8802545000799,True,36,0
MW-K-33K33S2,22,no_adaptation,120,↓,down,↓,0.6679209000431001,True,36,0
MW-K-33K33S2,23,no_adaptation,120,↑,up,↑,0.8080140000674874,True,36,0
MW-K-33K33S2,24,no_adaptation,120,←,left,←,0.5745878000743687,True,36,0
MW-K-33K33S2,25,no_adaptation,120,←,up,↑,0.7668482000008225,False,36,0
MW-K-33K33S2,26,no_adaptation,120,→,right,→,0.5508057998958975,True,36,0
MW-K-33K33S2,27,no_adaptation,120,←,left,←,0.41690219985321164,True,36,0
MW-K-33K33S2,28,no_adaptation,120,→,right,→,0.709905399940908,True,36,0
MW-K-33K33S2,29,no_adaptation,120,↑,up,↑,0.6644460000097752,True,36,0
MW-K-33K33S2,30,no_adaptation,120,←,left,←,0.5248688000719994,True,36,0
MW-K-33K33S2,31,no_adaptation,120,←,left,←,0.7188909000251442,True,36,0
MW-K-33K33S2,32,no_adaptation,120,←,left,←,0.49708899995312095,True,36,0
MW-K-33K33S2,33,no_adaptation,120,↓,down,↓,0.8203257999848574,True,36,0
MW-K-33K33S2,34,no_adaptation,120,←,left,←,0.6185991999227554,True,36,0
MW-K-33K33S2,35,no_adaptation,120,→,right,→,0.8407592999283224,True,36,0
MW-K-33K33S2,36,no_adaptation,120,→,right,→,0.7342590000480413,True,36,0
MW-K-33K33S2,37,no_adaptation,120,→,right,→,0.791567999869585,True,36,0
MW-K-33K33S2,38,no_adaptation,120,↑,up,↑,1.1592308999970555,True,36,0
MW-K-33K33S2,39,no_adaptation,120,↑,up,↑,0.5516592999920249,True,36,0
MW-K-33K33S2,40,no_adaptation,120,↓,down,↓,0.8246168000623584,True,36,0
MW-K-33K33S2,41,training,100,↑,up,↑,0.7294920000713319,True,36,0
MW-K-33K33S2,42,training,96,→,right,→,0.5957696998957545,True,36,1
MW-K-33K33S2,43,experiment,51,↓,down,↓,0.8825264999177307,True,36,1
MW-K-33K33S2,44,experiment,88,↓,down,↓,0.753550399793312,True,36,1
MW-K-33K33S2,45,experiment,94,↓,down,↓,0.7235006999690086,True,36,1
MW-K-33K33S2,46,experiment,70,↑,up,↑,0.8870069000404328,True,36,1
MW-K-33K33S2,47,experiment,87,→,right,→,0.7422697001602501,True,36,1
MW-K-33K33S2,48,experiment,67,←,left,←,0.794087199959904,True,36,1
MW-K-33K33S2,49,experiment,60,→,right,→,0.6541033999528736,True,36,1
MW-K-33K33S2,50,experiment,89,↓,down,↓,0.8217793998774141,True,36,1
MW-K-33K33S2,51,experiment,101,↓,down,↓,0.7867482998408377,True,36,1
MW-K-33K33S2,52,experiment,59,→,right,→,0.7993030999787152,True,36,1
MW-K-33K33S2,53,experiment,98,←,left,←,0.7102248000446707,True,36,1
MW-K-33K33S2,54,experiment,74,→,right,→,0.6648248999845237,True,36,1
MW-K-33K33S2,55,experiment,107,↑,up,↑,0.8821930999401957,True,36,1
MW-K-33K33S2,56,experiment,71,←,left,←,0.7827951000072062,True,36,1
MW-K-33K33S2,57,experiment,72,↑,up,↑,0.9753726001363248,True,36,1
MW-K-33K33S2,58,experiment,56,←,left,←,0.653195499908179,True,36,1
MW-K-33K33S2,59,experiment,84,→,right,→,0.6710154998581856,True,36,1
MW-K-33K33S2,60,experiment,52,↓,down,↓,0.8264077000785619,True,36,1
MW-K-33K33S2,61,experiment,77,↑,down,↓,0.12669649999588728,False,36,1
MW-K-33K33S2,62,experiment,93,←,left,←,0.5242190000135452,True,36,0
MW-K-33K33S2,63,experiment,66,↓,down,↓,0.816874000011012,True,36,1
MW-K-33K33S2,64,experiment,62,↑,up,↑,0.6911210999824107,True,36,1
MW-K-33K33S2,65,experiment,61,←,left,←,0.6111184998881072,True,36,1
MW-K-33K33S2,66,experiment,78,↓,down,↓,0.816003899788484,True,36,1
MW-K-33K33S2,67,experiment,69,←,left,←,0.5763622000813484,True,36,1
MW-K-33K33S2,68,experiment,102,←,left,←,0.73479890008457,True,36,1
MW-K-33K33S2,69,experiment,80,→,right,→,0.6064951999578625,True,36,1
MW-K-33K33S2,70,experiment,90,←,left,←,0.5279420998413116,True,36,1
MW-K-33K33S2,71,experiment,108,↓,down,↓,0.9269965998828411,True,36,1
MW-K-33K33S2,72,experiment,83,→,right,→,0.7736323999706656,True,36,1
MW-K-33K33S2,73,experiment,91,↑,up,↑,0.7840112999547273,True,36,1
MW-K-33K33S2,74,experiment,103,→,right,→,0.6061202997807413,True,36,1
MW-K-33K33S2,75,experiment,85,↑,up,↑,0.6971022000070661,True,36,1
MW-K-33K33S2,76,experiment,82,↓,down,↓,0.7453821001108736,True,36,1
MW-K-33K33S2,77,experiment,50,→,right,→,0.5625171998981386,True,36,1
MW-K-33K33S2,78,experiment,86,↑,up,↑,0.7827858000528067,True,36,1
MW-K-33K33S2,79,experiment,63,←,left,←,0.6023613000288606,True,36,1
MW-K-33K33S2,80,experiment,81,↑,up,↑,0.6472006998956203,True,36,1
MW-K-33K33S2,81,experiment,104,↓,down,↓,0.6421805000863969,True,36,1
MW-K-33K33S2,82,experiment,106,←,left,←,0.5164811001159251,True,36,1
MW-K-33K33S2,83,experiment,96,↑,up,↑,0.5276250001043081,True,36,1
MW-K-33K33S2,84,experiment,54,→,right,→,0.5762463000137359,True,36,1
MW-K-33K33S2,85,experiment,79,↑,up,↑,0.8545941000338644,True,36,1
MW-K-33K33S2,86,experiment,75,↓,down,↓,0.7469303000252694,True,36,1
MW-K-33K33S2,87,experiment,68,↑,up,↑,0.7578531999606639,True,36,1
MW-K-33K33S2,88,experiment,73,↑,up,↑,0.5989421000704169,True,36,1
MW-K-33K33S2,89,experiment,76,←,left,←,0.5737352999858558,True,36,1
MW-K-33K33S2,90,experiment,57,←,left,←,0.8830666998401284,True,36,1
MW-K-33K33S2,91,experiment,92,↓,down,↓,0.7127831999678165,True,36,1
MW-K-33K33S2,92,experiment,105,→,right,→,0.6647322000935674,True,36,1
MW-K-33K33S2,93,experiment,49,↓,down,↓,0.7574044999200851,True,36,1
MW-K-33K33S2,94,experiment,65,↓,down,↓,0.7212676999624819,True,36,1
MW-K-33K33S2,95,experiment,95,↓,down,↓,0.6448014001362026,True,36,1
MW-K-33K33S2,96,experiment,97,↑,up,↑,0.5702176000922918,True,36,1
MW-K-33K33S2,97,experiment,55,↓,down,↓,0.7367819000501186,True,36,1
MW-K-33K33S2,98,experiment,64,↓,down,↓,0.6856742999516428,True,36,1
MW-K-33K33S2,99,experiment,53,→,right,→,0.6082808000501245,True,36,1
MW-K-33K33S2,100,experiment,58,←,left,←,0.6123687999788672,True,36,1
MW-K-33K33S2,101,experiment,100,←,left,←,0.5864562999922782,True,36,1
MW-K-33K33S2,102,experiment,48,↑,up,↑,0.7946345000527799,True,36,1
MW-K-33K33S2,103,experiment,99,←,left,←,0.4897150998003781,True,36,1
MW-K-33K33S2,104,training,51,→,right,→,0.7375606999266893,True,35,0
MW-K-33K33S2,105,training,94,↑,up,↑,0.5643235999159515,True,35,1
MW-K-33K33S2,106,experiment,81,↓,down,↓,0.74640419986099,True,35,1
MW-K-33K33S2,107,experiment,67,↑,up,↑,0.6298251000698656,True,35,1
MW-K-33K33S2,108,experiment,74,→,right,→,0.7155153998173773,True,35,1
MW-K-33K33S2,109,experiment,75,→,right,→,0.6614534999243915,True,35,1
MW-K-33K33S2,110,experiment,92,↓,down,↓,0.5961593000683933,True,35,1
MW-K-33K33S2,111,experiment,50,→,right,→,0.675125899957493,True,35,1
MW-K-33K33S2,112,experiment,66,↑,up,↑,0.6820357998367399,True,35,1
MW-K-33K33S2,113,experiment,85,←,left,←,0.5464034997858107,True,35,1
MW-K-33K33S2,114,experiment,83,←,left,←,0.6880814998876303,True,35,1
MW-K-33K33S2,115,experiment,71,↓,down,↓,0.6524331998080015,True,35,1
MW-K-33K33S2,116,experiment,56,→,right,→,0.5915289002005011,True,35,1
MW-K-33K33S2,117,experiment,60,↑,up,↑,0.547662700060755,True,35,1
MW-K-33K33S2,118,experiment,54,→,right,→,0.6514870000537485,True,35,1
MW-K-33K33S2,119,experiment,76,←,left,←,0.5119209999684244,True,35,1
MW-K-33K33S2,120,experiment,103,↑,up,↑,0.6565119000151753,True,35,1
MW-K-33K33S2,121,experiment,90,↓,down,↓,0.703826199984178,True,35,1
MW-K-33K33S2,122,experiment,58,→,right,→,0.6319166999310255,True,35,1
MW-K-33K33S2,123,experiment,104,↓,down,↓,0.5956836000550538,True,35,1
MW-K-33K33S2,124,experiment,55,←,left,←,0.6250008998904377,True,35,1
MW-K-33K33S2,125,experiment,106,↑,up,↑,0.7006897998508066,True,35,1
MW-K-33K33S2,126,experiment,91,↑,up,↑,0.46587570011615753,True,35,1
MW-K-33K33S2,127,experiment,53,→,right,→,0.5890589999035001,True,35,0
MW-K-33K33S2,128,experiment,61,←,left,←,0.6091378000564873,True,35,1
MW-K-33K33S2,129,experiment,65,←,left,←,0.6506786998361349,True,35,1
MW-K-33K33S2,130,experiment,49,↓,down,↓,0.7281913000624627,True,35,1
MW-K-33K33S2,131,experiment,77,↑,up,↑,0.689166400115937,True,35,1
MW-K-33K33S2,132,experiment,95,←,left,←,0.6132247999776155,True,35,1
MW-K-33K33S2,133,experiment,105,←,left,←,0.5376139001455158,True,35,1
MW-K-33K33S2,134,experiment,94,↑,up,↑,0.5880625999998301,True,35,1
MW-K-33K33S2,135,experiment,80,↓,down,↓,0.7296910998411477,True,35,1
MW-K-33K33S2,136,experiment,63,↓,down,↓,0.6789660002104938,True,35,1
MW-K-33K33S2,137,experiment,101,↓,down,↓,0.66592329996638,True,35,1
MW-K-33K33S2,138,experiment,96,↑,up,↑,0.5911477999761701,True,35,1
MW-K-33K33S2,139,experiment,51,←,left,←,0.5742849998641759,True,35,1
MW-K-33K33S2,140,experiment,88,→,right,→,0.6817126001697034,True,35,1
MW-K-33K33S2,141,experiment,72,→,right,→,0.518090499797836,True,35,1
MW-K-33K33S2,142,experiment,48,→,right,→,0.6571901000570506,True,35,1
MW-K-33K33S2,143,experiment,89,↓,down,↓,0.696882100077346,True,35,1
MW-K-33K33S2,144,experiment,97,↑,up,↑,0.8203863999806345,True,35,1
MW-K-33K33S2,145,experiment,86,←,left,←,0.5186866999138147,True,35,1
MW-K-33K33S2,146,experiment,73,→,right,→,0.5212110001593828,True,35,1
MW-K-33K33S2,147,experiment,68,←,left,←,0.46165980002842844,True,35,1
MW-K-33K33S2,148,experiment,52,←,left,←,0.5932531000580639,True,35,0
MW-K-33K33S2,149,experiment,87,↑,up,↑,0.4841017001308501,True,35,1
MW-K-33K33S2,150,experiment,93,←,left,←,0.6254922999069095,True,35,1
MW-K-33K33S2,151,experiment,102,→,right,→,0.6543179999571294,True,35,1
MW-K-33K33S2,152,experiment,78,↓,down,↓,0.6817284000571817,True,35,1
MW-K-33K33S2,153,experiment,70,↑,up,↑,0.6867494999896735,True,35,1
MW-K-33K33S2,154,experiment,98,↓,down,↓,0.6584893001709133,True,35,1
MW-K-33K33S2,155,experiment,99,←,left,←,0.49507230008020997,True,35,1
MW-K-33K33S2,156,experiment,69,←,left,←,0.5472070998512208,True,35,1
MW-K-33K33S2,157,experiment,82,↓,down,↓,0.6259354001376778,True,35,1
MW-K-33K33S2,158,experiment,107,↑,up,↑,0.5089561999775469,True,35,1
MW-K-33K33S2,159,experiment,57,↓,down,↓,0.6295093998778611,True,35,1
MW-K-33K33S2,160,experiment,62,←,left,←,0.5511098999995738,True,35,1
MW-K-33K33S2,161,experiment,79,→,right,→,0.5429934000130743,True,35,1
MW-K-33K33S2,162,experiment,64,←,left,←,0.49112630006857216,True,35,1
MW-K-33K33S2,163,experiment,84,→,left,←,0.523304000031203,False,35,1
MW-K-33K33S2,164,experiment,100,↑,up,↑,0.5806785000022501,True,35,1
MW-K-33K33S2,165,experiment,59,→,right,→,0.4736426000017673,True,35,1
MW-K-33K33S2,166,experiment,108,→,right,→,0.5140744999516755,True,35,1
MW-K-33K33S2,167,training,58,↓,down,↓,0.7593161000404507,True,34,0
MW-K-33K33S2,168,training,75,↑,up,↑,0.5992966000922024,True,34,1
MW-K-33K33S2,169,experiment,73,→,right,→,0.5827221998479217,True,34,1
MW-K-33K33S2,170,experiment,72,↓,down,↓,0.6630921000614762,True,34,1
MW-K-33K33S2,171,experiment,62,←,left,←,0.6235150001011789,True,34,1
MW-K-33K33S2,172,experiment,86,←,right,→,0.8974858999717981,False,34,1
MW-K-33K33S2,173,experiment,84,←,left,←,0.48126530018635094,True,34,1
MW-K-33K33S2,174,experiment,106,↑,up,↑,0.5861563000362366,True,34,1
MW-K-33K33S2,175,experiment,94,→,right,→,0.5073766999412328,True,34,1
MW-K-33K33S2,176,experiment,108,←,left,←,0.538517499808222,True,34,1
MW-K-33K33S2,177,experiment,60,←,left,←,0.4256518001202494,True,34,1
MW-K-33K33S2,178,experiment,99,↓,down,↓,0.6700262001249939,True,34,0
MW-K-33K33S2,179,experiment,80,↓,down,↓,0.6088062000926584,True,34,1
MW-K-33K33S2,180,experiment,81,←,left,←,0.7568924000952393,True,34,1
MW-K-33K33S2,181,experiment,59,→,right,→,0.5703403998631984,True,34,1
MW-K-33K33S2,182,experiment,68,↓,down,↓,0.7006773001048714,True,34,1
MW-K-33K33S2,183,experiment,96,↓,down,↓,0.6165461998898536,True,34,1
MW-K-33K33S2,184,experiment,61,→,right,→,0.5871067999396473,True,34,1
MW-K-33K33S2,185,experiment,85,↑,up,↑,0.7029015999287367,True,34,1
MW-K-33K33S2,186,experiment,79,→,right,→,0.5837477999739349,True,34,1
MW-K-33K33S2,187,experiment,78,↓,down,↓,0.6382045999635011,True,34,1
MW-K-33K33S2,188,experiment,55,→,right,→,0.6101002998184413,True,34,1
MW-K-33K33S2,189,experiment,75,→,right,→,0.8324000998400152,True,34,1
MW-K-33K33S2,190,experiment,107,↑,up,↑,0.5790362001862377,True,34,1
MW-K-33K33S2,191,experiment,66,→,left,←,0.9577050998341292,False,34,1
MW-K-33K33S2,192,experiment,50,↓,down,↓,0.7262526000849903,True,34,1
MW-K-33K33S2,193,experiment,53,↑,up,↑,0.6954310999717563,True,34,1
MW-K-33K33S2,194,experiment,56,←,left,←,0.5282677998766303,True,34,1
MW-K-33K33S2,195,experiment,95,↓,down,↓,0.6509968000464141,True,34,1
MW-K-33K33S2,196,experiment,63,↓,down,↓,0.675893499981612,True,34,1
MW-K-33K33S2,197,experiment,89,→,right,→,0.4748685001395643,True,34,1
MW-K-33K33S2,198,experiment,76,→,right,→,0.6062578000128269,True,34,1
MW-K-33K33S2,199,experiment,51,↓,down,↓,0.5807205000892282,True,34,1
MW-K-33K33S2,200,experiment,52,↓,down,↓,0.6917933998629451,True,34,1
MW-K-33K33S2,201,experiment,83,←,left,←,0.6441747001372278,True,34,1
MW-K-33K33S2,202,experiment,82,↑,up,↑,0.5746848999988288,True,34,1
MW-K-33K33S2,203,experiment,98,↓,down,↓,0.6308130000252277,True,34,1
MW-K-33K33S2,204,experiment,93,←,left,←,0.5902967997826636,True,34,1
MW-K-33K33S2,205,experiment,70,↑,down,↓,0.7749735000543296,False,34,1
MW-K-33K33S2,206,experiment,87,→,right,→,0.7708308999426663,True,34,1
MW-K-33K33S2,207,experiment,58,→,right,→,0.5601780000142753,True,34,1
MW-K-33K33S2,208,experiment,100,↓,down,↓,0.6801475998945534,True,34,1
MW-K-33K33S2,209,experiment,49,←,left,←,0.5801981000695378,True,34,1
MW-K-33K33S2,210,experiment,103,←,left,←,0.5700445000547916,True,34,1
MW-K-33K33S2,211,experiment,105,←,left,←,0.5443561000283808,True,34,1
MW-K-33K33S2,212,experiment,65,→,right,→,0.6045855998527259,True,34,1
MW-K-33K33S2,213,experiment,69,→,right,→,0.6129304000642151,True,34,1
MW-K-33K33S2,214,experiment,67,←,left,←,0.7427578999195248,True,34,1
MW-K-33K33S2,215,experiment,71,↓,down,↓,0.7520720001775771,True,34,1
MW-K-33K33S2,216,experiment,77,←,left,←,0.7439588000997901,True,34,1
MW-K-33K33S2,217,experiment,92,→,right,→,0.7152631001081318,True,34,1
MW-K-33K33S2,218,experiment,54,↑,up,↑,0.7158697000704706,True,34,1
MW-K-33K33S2,219,experiment,91,↑,up,↑,0.5052231000736356,True,34,1
MW-K-33K33S2,220,experiment,64,↓,down,↓,0.7270971001125872,True,34,1
MW-K-33K33S2,221,experiment,90,↑,up,↑,0.6437617000192404,True,34,1
MW-K-33K33S2,222,experiment,74,→,right,→,0.6328198998235166,True,34,1
MW-K-33K33S2,223,experiment,102,↑,up,↑,0.6451128998305649,True,34,1
MW-K-33K33S2,224,experiment,48,↑,up,↑,0.6591788998339325,True,34,1
MW-K-33K33S2,225,experiment,88,→,right,→,0.6432662000879645,True,34,1
MW-K-33K33S2,226,experiment,97,↓,down,↓,0.5210078998934478,True,34,1
MW-K-33K33S2,227,experiment,101,↑,up,↑,0.5141451999079436,True,34,1
MW-K-33K33S2,228,experiment,104,←,left,←,0.4663877999410033,True,34,1
MW-K-33K33S2,229,experiment,57,↑,up,↑,0.5885677998885512,True,34,1
MW-K-33K33S2,230,training,58,↑,up,↑,0.6533258000854403,True,33,0
MW-K-33K33S2,231,training,91,↑,up,↑,0.5162520001176745,True,33,1
MW-K-33K33S2,232,experiment,69,↓,down,↓,0.5044805000070482,True,33,1
MW-K-33K33S2,233,experiment,55,→,right,→,0.5775696001946926,True,33,1
MW-K-33K33S2,234,experiment,64,→,right,→,0.7729533999226987,True,33,1
MW-K-33K33S2,235,experiment,89,→,right,→,0.7118852001149207,True,33,1
MW-K-33K33S2,236,experiment,70,↑,up,↑,0.5796789999585599,True,33,1
MW-K-33K33S2,237,experiment,85,←,left,←,0.5835936998482794,True,33,1
MW-K-33K33S2,238,experiment,100,→,right,→,0.6867633999790996,True,33,1
MW-K-33K33S2,239,experiment,49,↓,down,↓,0.7388847998809069,True,33,1
MW-K-33K33S2,240,experiment,62,↓,down,↓,0.7121647999156266,True,33,1
MW-K-33K33S2,241,experiment,75,↑,up,↑,0.6662453000899404,True,33,1
MW-K-33K33S2,242,experiment,91,↓,down,↓,0.6006803000345826,True,33,1
MW-K-33K33S2,243,experiment,94,↑,down,↓,0.8095311999786645,False,33,1
MW-K-33K33S2,244,experiment,74,←,left,←,0.5123066999949515,True,33,1
MW-K-33K33S2,245,experiment,88,↓,down,↓,0.5981743999291211,True,33,1
MW-K-33K33S2,246,experiment,98,↑,up,↑,0.7970491000451148,True,33,1
MW-K-33K33S2,247,experiment,61,→,right,→,0.6802874999120831,True,33,1
MW-K-33K33S2,248,experiment,102,↓,down,↓,0.53870529984124,True,33,1
MW-K-33K33S2,249,experiment,92,↓,down,↓,0.6464262998197228,True,33,1
MW-K-33K33S2,250,experiment,71,→,right,→,0.7403740999288857,True,33,1
MW-K-33K33S2,251,experiment,83,←,left,←,0.45136939990334213,True,33,1
MW-K-33K33S2,252,experiment,108,→,right,→,1.7399039999581873,True,33,1
MW-K-33K33S2,253,experiment,86,→,right,→,0.6570564999710768,True,33,1
MW-K-33K33S2,254,experiment,76,→,right,→,0.6451195999979973,True,33,1
MW-K-33K33S2,255,experiment,54,←,left,←,0.6013815000187606,True,33,1
MW-K-33K33S2,256,experiment,59,↓,down,↓,0.6371901000384241,True,33,1
MW-K-33K33S2,257,experiment,53,↓,down,↓,0.6019919998943806,True,33,1
MW-K-33K33S2,258,experiment,79,←,left,←,0.7350070001557469,True,33,1
MW-K-33K33S2,259,experiment,87,↑,up,↑,0.6124994000419974,True,33,1
MW-K-33K33S2,260,experiment,66,→,right,→,0.6134445001371205,True,33,1
MW-K-33K33S2,261,experiment,80,→,left,←,0.46602739999070764,False,33,1
MW-K-33K33S2,262,experiment,56,→,right,→,0.4921182000543922,True,33,1
MW-K-33K33S2,263,experiment,48,↑,up,↑,0.5445371998939663,True,33,1
MW-K-33K33S2,264,experiment,105,↑,up,↑,0.7194183000829071,True,33,1
MW-K-33K33S2,265,experiment,68,↑,up,↑,0.6357807000167668,True,33,1
MW-K-33K33S2,266,experiment,106,→,right,→,0.44708399986848235,True,33,1
MW-K-33K33S2,267,experiment,95,→,right,→,0.7087736998219043,True,33,0
MW-K-33K33S2,268,experiment,73,↓,down,↓,0.7038451000116765,True,33,1
MW-K-33K33S2,269,experiment,50,↑,up,↑,0.6345098000019789,True,33,1
MW-K-33K33S2,270,experiment,103,↓,down,↓,0.6146314998622984,True,33,1
MW-K-33K33S2,271,experiment,84,←,left,←,0.5456020999699831,True,33,1
MW-K-33K33S2,272,experiment,60,↓,down,↓,0.543415900086984,True,33,1
MW-K-33K33S2,273,experiment,104,→,right,→,0.5189831999596208,True,33,1
MW-K-33K33S2,274,experiment,52,↓,down,↓,0.600501700071618,True,33,1
MW-K-33K33S2,275,experiment,81,←,left,←,0.7172457000706345,True,33,1
MW-K-33K33S2,276,experiment,101,→,right,→,0.7506732000038028,True,33,1
MW-K-33K33S2,277,experiment,77,←,left,←,0.7267988999374211,True,33,1
MW-K-33K33S2,278,experiment,97,→,right,→,0.4812821999657899,True,33,1
MW-K-33K33S2,279,experiment,93,↓,down,↓,0.6384719999041408,True,33,1
MW-K-33K33S2,280,experiment,78,←,left,←,0.6344823001418263,True,33,1
MW-K-33K33S2,281,experiment,107,←,left,←,0.7011981999967247,True,33,1
MW-K-33K33S2,282,experiment,63,↑,up,↑,0.7479592999443412,True,33,1
MW-K-33K33S2,283,experiment,67,↓,down,↓,0.7593723000027239,True,33,1
MW-K-33K33S2,284,experiment,96,→,right,→,0.6966192000545561,True,33,1
MW-K-33K33S2,285,experiment,57,↑,up,↑,0.7452891999855638,True,33,1
MW-K-33K33S2,286,experiment,65,←,left,←,0.6536916000768542,True,33,1
MW-K-33K33S2,287,experiment,51,←,left,←,0.6345328001771122,True,33,1
MW-K-33K33S2,288,experiment,82,↓,down,↓,0.6455667000263929,True,33,1
MW-K-33K33S2,289,experiment,90,↓,down,↓,0.6294559999369085,True,33,1
MW-K-33K33S2,290,experiment,58,↑,up,↑,0.6087229999247938,True,33,1
MW-K-33K33S2,291,experiment,99,↓,down,↓,0.4948756000958383,True,33,1
MW-K-33K33S2,292,experiment,72,↓,down,↓,0.6591807000804693,True,33,1
MW-K-33K33S2,293,training,67,←,left,←,0.5797491001430899,True,32,0
MW-K-33K33S2,294,training,62,↑,up,↑,0.6317468998022377,True,32,1
MW-K-33K33S2,295,experiment,68,←,left,←,0.5356103000231087,True,32,1
MW-K-33K33S2,296,experiment,61,←,left,←,0.5413772000465542,True,32,1
MW-K-33K33S2,297,experiment,62,↓,down,↓,0.6989759001880884,True,32,1
MW-K-33K33S2,298,experiment,90,←,left,←,0.5687088000122458,True,32,1
MW-K-33K33S2,299,experiment,99,↓,down,↓,0.5769122999627143,True,32,1
MW-K-33K33S2,300,experiment,105,↓,down,↓,0.5663426001556218,True,32,1
MW-K-33K33S2,301,experiment,63,→,right,→,0.6265227000694722,True,32,1
MW-K-33K33S2,302,experiment,104,↑,up,↑,0.766415499849245,True,32,1
MW-K-33K33S2,303,experiment,54,←,left,←,1.1256051000673324,True,32,1
MW-K-33K33S2,304,experiment,94,→,right,→,0.6247625001706183,True,32,1
MW-K-33K33S2,305,experiment,79,←,left,←,0.5492281999904662,True,32,1
MW-K-33K33S2,306,experiment,102,↓,down,↓,0.6769327998626977,True,32,1
MW-K-33K33S2,307,experiment,106,↑,up,↑,0.6301769001875073,True,32,1
MW-K-33K33S2,308,experiment,89,↓,down,↓,0.5669140999671072,True,32,1
MW-K-33K33S2,309,experiment,85,←,left,←,0.7717468000482768,True,32,1
MW-K-33K33S2,310,experiment,97,→,right,→,0.5640302998945117,True,32,1
MW-K-33K33S2,311,experiment,100,↑,up,↑,0.4997676000930369,True,32,1
MW-K-33K33S2,312,experiment,51,←,left,←,0.5185392999555916,True,32,1
MW-K-33K33S2,313,experiment,60,→,right,→,0.6295713998842984,True,32,1
MW-K-33K33S2,314,experiment,86,→,right,→,0.5115684999618679,True,32,1
MW-K-33K33S2,315,experiment,78,↓,down,↓,0.5527061000466347,True,32,1
MW-K-33K33S2,316,experiment,93,←,left,←,0.5154281998984516,True,32,1
MW-K-33K33S2,317,experiment,70,↓,down,↓,0.591238500084728,True,32,1
MW-K-33K33S2,318,experiment,55,←,left,←,0.557208799989894,True,32,1
MW-K-33K33S2,319,experiment,73,→,right,→,0.6141719999723136,True,32,1
MW-K-33K33S2,320,experiment,71,→,right,→,0.8056548999156803,True,32,1
MW-K-33K33S2,321,experiment,103,→,right,→,1.8422837001271546,True,32,1
MW-K-33K33S2,322,experiment,66,←,left,←,0.6422362998127937,True,32,1
MW-K-33K33S2,323,experiment,57,←,left,←,0.6212875000201166,True,32,1
MW-K-33K33S2,324,experiment,77,↓,down,↓,0.6584714001510292,True,32,1
MW-K-33K33S2,325,experiment,87,↑,up,↑,0.7550493001472205,True,32,1
MW-K-33K33S2,326,experiment,48,↑,up,↑,0.548125899862498,True,32,1
MW-K-33K33S2,327,experiment,82,→,right,→,1.5866177999414504,True,32,1
MW-K-33K33S2,328,experiment,58,↓,down,↓,0.7516694001387805,True,32,1
MW-K-33K33S2,329,experiment,69,→,right,→,0.4742219001054764,True,32,1
MW-K-33K33S2,330,experiment,108,←,left,←,0.4908962999470532,True,32,1
MW-K-33K33S2,331,experiment,98,→,right,→,0.5823338001500815,True,32,1
MW-K-33K33S2,332,experiment,52,↓,down,↓,0.5974051998928189,True,32,1
MW-K-33K33S2,333,experiment,53,↑,up,↑,0.4515239999163896,True,32,1
MW-K-33K33S2,334,experiment,101,←,left,←,0.5915095000527799,True,32,1
MW-K-33K33S2,335,experiment,80,↑,up,↑,0.6050119998399168,True,32,1
MW-K-33K33S2,336,experiment,65,←,left,←,0.5749069999437779,True,32,1
MW-K-33K33S2,337,experiment,50,←,left,←,0.5428673001006246,True,32,1
MW-K-33K33S2,338,experiment,88,→,right,→,0.5715888000559062,True,32,1
MW-K-33K33S2,339,experiment,64,→,right,→,0.6308967999648303,True,32,1
MW-K-33K33S2,340,experiment,59,↑,up,↑,0.6017726000864059,True,32,1
MW-K-33K33S2,341,experiment,67,←,left,←,0.6510465999599546,True,32,1
MW-K-33K33S2,342,experiment,81,→,right,→,0.501824599923566,True,32,1
MW-K-33K33S2,343,experiment,76,→,right,→,0.6961018999572843,True,32,1
MW-K-33K33S2,344,experiment,92,↑,up,↑,0.5092172999866307,True,32,1
MW-K-33K33S2,345,experiment,91,←,left,←,0.4662856999784708,True,32,1
MW-K-33K33S2,346,experiment,75,←,left,←,0.4466124000027776,True,32,1
MW-K-33K33S2,347,experiment,96,←,left,←,0.4360256001818925,True,32,1
MW-K-33K33S2,348,experiment,49,↓,down,↓,0.6099316000472754,True,32,0
MW-K-33K33S2,349,experiment,74,→,right,→,0.7046848000027239,True,32,1
MW-K-33K33S2,350,experiment,83,←,left,←,0.5124341999180615,True,32,1
MW-K-33K33S2,351,experiment,72,↓,down,↓,0.651482299901545,True,32,1
MW-K-33K33S2,352,experiment,84,←,left,←,0.6452089000958949,True,32,1
MW-K-33K33S2,353,experiment,107,↑,up,↑,0.5831605999264866,True,32,1
MW-K-33K33S2,354,experiment,56,←,left,←,0.6208407999947667,True,32,1
MW-K-33K33S2,355,experiment,95,←,left,←,0.6603036997839808,True,32,1
MW-K-33K33S2,356,training,65,↓,down,↓,0.6616631001234055,True,31,0
MW-K-33K33S2,357,training,74,↓,down,↓,0.6342122000642121,True,31,1
MW-K-33K33S2,358,experiment,104,→,right,→,0.6136751000303775,True,31,1
MW-K-33K33S2,359,experiment,93,↓,down,↓,0.6219401999842376,True,31,1
MW-K-33K33S2,360,experiment,51,↑,up,↑,0.6753632999025285,True,31,1
MW-K-33K33S2,361,experiment,74,↓,down,↓,0.5596000000368804,True,31,1
MW-K-33K33S2,362,experiment,89,←,left,←,0.47532899980433285,True,31,1
MW-K-33K33S2,363,experiment,103,↑,up,↑,0.48554069991223514,True,31,1
MW-K-33K33S2,364,experiment,81,↓,down,↓,0.6951963999308646,True,31,1
MW-K-33K33S2,365,experiment,99,↑,up,↑,0.6098581000696868,True,31,1
MW-K-33K33S2,366,experiment,85,↓,down,↓,0.6689208000898361,True,31,1
MW-K-33K33S2,367,experiment,57,↑,up,↑,0.7828238001093268,True,31,1
MW-K-33K33S2,368,experiment,87,↑,up,↑,0.6824137000367045,True,31,1
MW-K-33K33S2,369,experiment,106,↓,down,↓,0.6274562999606133,True,31,1
MW-K-33K33S2,370,experiment,76,←,left,←,0.6328036999329925,True,31,1
MW-K-33K33S2,371,experiment,101,←,left,←,0.7493296000175178,True,31,1
MW-K-33K33S2,372,experiment,79,→,right,→,0.508815900189802,True,31,1
MW-K-33K33S2,373,experiment,71,→,right,→,0.5124391000717878,True,31,1
MW-K-33K33S2,374,experiment,75,↑,up,↑,0.5145549001172185,True,31,1
MW-K-33K33S2,375,experiment,68,↓,down,↓,0.5910585999954492,True,31,1
MW-K-33K33S2,376,experiment,78,→,right,→,0.5251596998423338,True,31,1
MW-K-33K33S2,377,experiment,73,←,left,←,0.4957655998878181,True,31,1
MW-K-33K33S2,378,experiment,50,←,left,←,0.42696589999832213,True,31,1
MW-K-33K33S2,379,experiment,48,←,left,←,0.6491651998367161,True,31,0
MW-K-33K33S2,380,experiment,56,←,left,←,0.6361739998683333,True,31,1
MW-K-33K33S2,381,experiment,94,→,right,→,0.49092440004460514,True,31,1
MW-K-33K33S2,382,experiment,62,↓,down,↓,0.5222320000175387,True,31,1
MW-K-33K33S2,383,experiment,61,↓,down,↓,0.5847028000280261,True,31,1
MW-K-33K33S2,384,experiment,97,←,left,←,0.5847044000402093,True,31,1
MW-K-33K33S2,385,experiment,105,←,left,←,0.550004499964416,True,31,1
MW-K-33K33S2,386,experiment,49,←,left,←,0.6236052000895143,True,31,1
MW-K-33K33S2,387,experiment,83,↓,down,↓,0.5788032000418752,True,31,1
MW-K-33K33S2,388,experiment,84,↓,down,↓,0.5271475999616086,True,31,1
MW-K-33K33S2,389,experiment,80,↓,down,↓,0.567369099939242,True,31,1
MW-K-33K33S2,390,experiment,90,←,left,←,0.5864028001669794,True,31,1
MW-K-33K33S2,391,experiment,77,↑,up,↑,0.5131618999876082,True,31,1
MW-K-33K33S2,392,experiment,53,→,left,←,0.6905243000946939,False,31,1
MW-K-33K33S2,393,experiment,54,→,left,←,0.6526273000054061,False,31,1
MW-K-33K33S2,394,experiment,82,↓,left,←,0.5029662998858839,False,31,1
MW-K-33K33S2,395,experiment,72,↑,up,↑,0.5068167001008987,True,31,1
MW-K-33K33S2,396,experiment,102,↑,up,↑,0.4006737000308931,True,31,1
MW-K-33K33S2,397,experiment,64,↑,up,↑,0.4622661001048982,True,31,0
MW-K-33K33S2,398,experiment,86,↓,down,↓,0.5426542998757213,True,31,1
MW-K-33K33S2,399,experiment,52,↓,down,↓,0.7114953999407589,True,31,1
MW-K-33K33S2,400,experiment,88,↓,down,↓,0.5652349998708814,True,31,1
MW-K-33K33S2,401,experiment,92,↓,down,↓,0.5603183000348508,True,31,1
MW-K-33K33S2,402,experiment,58,←,left,←,0.590032400097698,True,31,1
MW-K-33K33S2,403,experiment,100,↓,down,↓,0.6209263999480754,True,31,1
MW-K-33K33S2,404,experiment,96,↓,down,↓,0.5156929998192936,True,31,1
MW-K-33K33S2,405,experiment,69,↓,down,↓,0.6717791000846773,True,31,1
MW-K-33K33S2,406,experiment,67,↑,up,↑,0.5744206001982093,True,31,1
MW-K-33K33S2,407,experiment,55,→,right,→,0.708733499981463,True,31,1
MW-K-33K33S2,408,experiment,107,↓,down,↓,0.6601852001622319,True,31,1
MW-K-33K33S2,409,experiment,91,↓,down,↓,0.6512776999734342,True,31,1
MW-K-33K33S2,410,experiment,70,↓,down,↓,0.6818886001128703,True,31,1
MW-K-33K33S2,411,experiment,65,↓,down,↓,0.5924945999868214,True,31,1
MW-K-33K33S2,412,experiment,63,↑,down,↓,0.6114063998684287,False,31,1
MW-K-33K33S2,413,experiment,98,↑,up,↑,0.730158600024879,True,31,1
MW-K-33K33S2,414,experiment,60,→,up,↑,1.0485845999792218,False,31,1
MW-K-33K33S2,415,experiment,59,→,right,→,0.6185538000427186,True,31,1
MW-K-33K33S2,416,experiment,95,←,left,←,0.4739022001158446,True,31,1
MW-K-33K33S2,417,experiment,108,↑,up,↑,0.6666913998778909,True,31,1
MW-K-33K33S2,418,experiment,66,↓,down,↓,0.6177417000290006,True,31,1
MW-K-33K33S2,419,training,51,←,left,←,0.6043255999684334,True,30,0
MW-K-33K33S2,420,training,81,←,left,←,0.4565771999768913,True,30,1
MW-K-33K33S2,421,experiment,80,→,right,→,0.6272340000141412,True,30,1
MW-K-33K33S2,422,experiment,71,→,left,←,0.4822629000991583,False,30,1
MW-K-33K33S2,423,experiment,54,→,right,→,0.5326751999091357,True,30,1
MW-K-33K33S2,424,experiment,98,↑,up,↑,0.5904421000741422,True,30,1
MW-K-33K33S2,425,experiment,52,↑,up,↑,0.6134911000262946,True,30,1
MW-K-33K33S2,426,experiment,96,↑,up,↑,0.4602026001084596,True,30,1
MW-K-33K33S2,427,experiment,90,→,right,→,0.49966320022940636,True,30,1
MW-K-33K33S2,428,experiment,56,←,left,←,0.5246969000436366,True,30,1
MW-K-33K33S2,429,experiment,61,↑,up,↑,0.46711089997552335,True,30,1
MW-K-33K33S2,430,experiment,81,↓,down,↓,0.6291185999289155,True,30,1
MW-K-33K33S2,431,experiment,95,↑,up,↑,0.6440372001379728,True,30,1
MW-K-33K33S2,432,experiment,104,↑,up,↑,0.5753661999478936,True,30,1
MW-K-33K33S2,433,experiment,77,→,right,→,0.5344183000270277,True,30,1
MW-K-33K33S2,434,experiment,105,↓,down,↓,0.6617720001377165,True,30,1
MW-K-33K33S2,435,experiment,65,→,right,→,0.4851051000878215,True,30,1
MW-K-33K33S2,436,experiment,69,↓,down,↓,0.666575700044632,True,30,1
MW-K-33K33S2,437,experiment,99,↑,up,↑,0.5104829000774771,True,30,1
MW-K-33K33S2,438,experiment,89,↑,up,↑,0.6202817999292165,True,30,1
MW-K-33K33S2,439,experiment,70,↓,down,↓,0.5238626999780536,True,30,1
MW-K-33K33S2,440,experiment,84,↓,up,↑,0.6425406998023391,False,30,1
MW-K-33K33S2,441,experiment,92,↓,down,↓,0.6257628998719156,True,30,1
MW-K-33K33S2,442,experiment,107,←,left,←,0.5567487000953406,True,30,1
MW-K-33K33S2,443,experiment,50,→,right,→,0.6937516999896616,True,30,1
MW-K-33K33S2,444,experiment,88,←,left,←,0.5962023001629859,True,30,1
MW-K-33K33S2,445,experiment,101,↓,down,↓,0.5383139001205564,True,30,1
MW-K-33K33S2,446,experiment,106,↑,down,↓,0.617023300146684,False,30,1
MW-K-33K33S2,447,experiment,91,↓,down,↓,0.5458745998330414,True,30,1
MW-K-33K33S2,448,experiment,49,→,right,→,0.5313110998831689,True,30,1
MW-K-33K33S2,449,experiment,94,↑,up,↑,0.4702324999962002,True,30,1
MW-K-33K33S2,450,experiment,64,↓,down,↓,0.6537649999372661,True,30,1
MW-K-33K33S2,451,experiment,51,←,right,→,0.8422365998849273,False,30,1
MW-K-33K33S2,452,experiment,97,→,right,→,0.5758499000221491,True,30,1
MW-K-33K33S2,453,experiment,67,→,right,→,0.6262896999251097,True,30,1
MW-K-33K33S2,454,experiment,93,←,left,←,0.5059020998887718,True,30,1
MW-K-33K33S2,455,experiment,74,↑,up,↑,0.6447003001812845,True,30,1
MW-K-33K33S2,456,experiment,76,↓,down,↓,0.5850288001820445,True,30,1
MW-K-33K33S2,457,experiment,58,↑,up,↑,0.6300178999081254,True,30,1
MW-K-33K33S2,458,experiment,48,↑,up,↑,0.540420499863103,True,30,1
MW-K-33K33S2,459,experiment,102,↑,up,↑,1.5405323999002576,True,30,1
MW-K-33K33S2,460,experiment,59,→,right,→,0.6588934001047164,True,30,1
MW-K-33K33S2,461,experiment,83,↓,down,↓,0.8526706001721323,True,30,1
MW-K-33K33S2,462,experiment,73,↓,down,↓,0.5218925999943167,True,30,1
MW-K-33K33S2,463,experiment,72,←,left,←,0.7646201001480222,True,30,1
MW-K-33K33S2,464,experiment,62,←,left,←,0.5851592000108212,True,30,1
MW-K-33K33S2,465,experiment,57,→,right,→,0.5825853999704123,True,30,1
MW-K-33K33S2,466,experiment,100,↑,up,↑,0.5894903999287635,True,30,1
MW-K-33K33S2,467,experiment,53,→,right,→,0.5078353001736104,True,30,1
MW-K-33K33S2,468,experiment,82,←,left,←,0.5318565999623388,True,30,1
MW-K-33K33S2,469,experiment,60,←,left,←,0.5145542998798192,True,30,1
MW-K-33K33S2,470,experiment,79,→,right,→,0.5710763998795301,True,30,1
MW-K-33K33S2,471,experiment,66,↑,up,↑,0.6699528000317514,True,30,1
MW-K-33K33S2,472,experiment,87,←,left,←,0.541979200206697,True,30,1
MW-K-33K33S2,473,experiment,86,←,left,←,0.6833110000006855,True,30,1
MW-K-33K33S2,474,experiment,63,→,right,→,0.6666031000204384,True,30,1
MW-K-33K33S2,475,experiment,68,→,right,→,0.5531798999290913,True,30,1
MW-K-33K33S2,476,experiment,55,←,left,←,0.736453999998048,True,30,1
MW-K-33K33S2,477,experiment,108,↑,up,↑,0.590537799987942,True,30,1
MW-K-33K33S2,478,experiment,78,←,left,←,0.6045269998721778,True,30,1
MW-K-33K33S2,479,experiment,75,↓,down,↓,0.5870453000534326,True,30,1
MW-K-33K33S2,480,experiment,103,↓,down,↓,0.6728415999095887,True,30,1
MW-K-33K33S2,481,experiment,85,→,right,→,0.7131030999589711,True,30,1
MW-K-33K33S2,482,training,49,←,left,←,0.7168920999392867,True,29,0
MW-K-33K33S2,483,training,81,←,left,←,0.7968882001005113,True,29,1
MW-K-33K33S2,484,experiment,77,←,left,←,0.6349826999939978,True,29,1
MW-K-33K33S2,485,experiment,98,↑,up,↑,0.584611700149253,True,29,1
MW-K-33K33S2,486,experiment,67,↓,down,↓,0.754697899799794,True,29,1
MW-K-33K33S2,487,experiment,97,←,left,←,0.5238443000707775,True,29,1
MW-K-33K33S2,488,experiment,72,↑,up,↑,0.4864606000483036,True,29,1
MW-K-33K33S2,489,experiment,64,↑,up,↑,0.6532273998018354,True,29,1
MW-K-33K33S2,490,experiment,101,←,left,←,0.7052992000244558,True,29,1
MW-K-33K33S2,491,experiment,93,←,left,←,0.6535457000136375,True,29,1
MW-K-33K33S2,492,experiment,51,↓,down,↓,0.7220322999637574,True,29,1
MW-K-33K33S2,493,experiment,83,←,left,←,0.6411321999039501,True,29,1
MW-K-33K33S2,494,experiment,87,↑,up,↑,0.6021169000305235,True,29,1
MW-K-33K33S2,495,experiment,95,←,left,←,0.8017496999818832,True,29,1
MW-K-33K33S2,496,experiment,78,←,left,←,0.6714896999765188,True,29,1
MW-K-33K33S2,497,experiment,86,↓,down,↓,0.6796180999372154,True,29,1
MW-K-33K33S2,498,experiment,81,←,left,←,0.6968386999797076,True,29,1
MW-K-33K33S2,499,experiment,59,←,left,←,0.6169414999894798,True,29,1
MW-K-33K33S2,500,experiment,60,↓,down,↓,0.596372100058943,True,29,1
MW-K-33K33S2,501,experiment,62,↓,down,↓,0.639083500020206,True,29,1
MW-K-33K33S2,502,experiment,91,↓,down,↓,0.5748551997821778,True,29,1
MW-K-33K33S2,503,experiment,54,→,right,→,0.6374436998739839,True,29,1
MW-K-33K33S2,504,experiment,107,↓,down,↓,0.6160466999281198,True,29,1
MW-K-33K33S2,505,experiment,50,↓,down,↓,0.6143170997966081,True,29,1
MW-K-33K33S2,506,experiment,79,↓,down,↓,0.6989879999309778,True,29,1
MW-K-33K33S2,507,experiment,70,↑,up,↑,0.6553942998871207,True,29,1
MW-K-33K33S2,508,experiment,100,←,left,←,0.5555711998604238,True,29,1
MW-K-33K33S2,509,experiment,94,↑,up,↑,0.7095394001808017,True,29,1
MW-K-33K33S2,510,experiment,85,↑,up,↑,0.652563399868086,True,29,1
MW-K-33K33S2,511,experiment,57,↓,down,↓,0.6474754000082612,True,29,1
MW-K-33K33S2,512,experiment,108,←,left,←,0.5609730000142008,True,29,1
MW-K-33K33S2,513,experiment,66,↓,down,↓,0.5319544998928905,True,29,1
MW-K-33K33S2,514,experiment,71,←,left,←,0.7107357000932097,True,29,1
MW-K-33K33S2,515,experiment,104,←,left,←,0.6077056999783963,True,29,1
MW-K-33K33S2,516,experiment,61,←,left,←,0.6589371999725699,True,29,1
MW-K-33K33S2,517,experiment,96,→,right,→,0.6798868000041693,True,29,1
MW-K-33K33S2,518,experiment,82,←,left,←,0.6810891998466104,True,29,1
MW-K-33K33S2,519,experiment,80,→,right,→,0.6745132999494672,True,29,1
MW-K-33K33S2,520,experiment,68,↓,down,↓,0.7046586000360548,True,29,1
MW-K-33K33S2,521,experiment,53,↑,down,↓,0.7944018999114633,False,29,1
MW-K-33K33S2,522,experiment,55,↓,down,↓,0.7437738999724388,True,29,1
MW-K-33K33S2,523,experiment,73,←,left,←,0.5378621998243034,True,29,1
MW-K-33K33S2,524,experiment,69,↑,up,↑,0.5726119000464678,True,29,1
MW-K-33K33S2,525,experiment,84,↓,down,↓,0.6654127000365406,True,29,1
MW-K-33K33S2,526,experiment,106,←,left,←,0.6752753998152912,True,29,1
MW-K-33K33S2,527,experiment,99,↑,up,↑,0.6389248999767005,True,29,1
MW-K-33K33S2,528,experiment,56,↑,up,↑,0.6421391998883337,True,29,1
MW-K-33K33S2,529,experiment,105,←,left,←,0.49306740006431937,True,29,1
MW-K-33K33S2,530,experiment,74,↓,down,↓,0.6085169999860227,True,29,1
MW-K-33K33S2,531,experiment,48,→,right,→,0.6480370999779552,True,29,1
MW-K-33K33S2,532,experiment,92,↑,up,↑,0.5352342999540269,True,29,1
MW-K-33K33S2,533,experiment,76,→,right,→,0.648219299968332,True,29,1
MW-K-33K33S2,534,experiment,49,↓,down,↓,0.6218684997875243,True,29,1
MW-K-33K33S2,535,experiment,102,↓,down,↓,0.7063225999008864,True,29,1
MW-K-33K33S2,536,experiment,65,←,right,→,0.8318365998566151,False,29,1
MW-K-33K33S2,537,experiment,90,↓,down,↓,0.680412600049749,True,29,1
MW-K-33K33S2,538,experiment,75,→,right,→,0.8435982998926193,True,29,1
MW-K-33K33S2,539,experiment,89,↓,down,↓,0.8280940998811275,True,29,1
MW-K-33K33S2,540,experiment,103,→,right,→,0.6480187000706792,True,29,1
MW-K-33K33S2,541,experiment,52,↓,down,↓,0.6845052000135183,True,29,1
MW-K-33K33S2,542,experiment,88,↑,up,↑,0.6355820999015123,True,29,1
MW-K-33K33S2,543,experiment,58,↑,up,↑,0.6387106000911444,True,29,1
MW-K-33K33S2,544,experiment,63,↓,down,↓,0.6318728001788259,True,29,1
MW-K-33K33S2,545,training,94,←,left,←,0.5776758000720292,True,28,0
MW-K-33K33S2,546,training,76,→,right,→,0.6007040999829769,True,28,1
MW-K-33K33S2,547,experiment,65,→,right,→,0.6987375000026077,True,28,1
MW-K-33K33S2,548,experiment,70,←,left,←,0.7433529999107122,True,28,1
MW-K-33K33S2,549,experiment,60,↑,up,↑,0.7331339998636395,True,28,1
MW-K-33K33S2,550,experiment,79,←,left,←,0.5493189999833703,True,28,1
MW-K-33K33S2,551,experiment,68,↓,down,↓,0.6883717998862267,True,28,1
MW-K-33K33S2,552,experiment,66,→,right,→,0.5824403997976333,True,28,1
MW-K-33K33S2,553,experiment,57,←,left,←,0.8597955999430269,True,28,1
MW-K-33K33S2,554,experiment,102,↓,down,↓,0.8553014998324215,True,28,1
MW-K-33K33S2,555,experiment,89,↓,down,↓,0.6468305001035333,True,28,1
MW-K-33K33S2,556,experiment,80,←,left,←,0.5778352001216263,True,28,1
MW-K-33K33S2,557,experiment,51,→,right,→,0.7137644998729229,True,28,1
MW-K-33K33S2,558,experiment,77,→,right,→,0.5550311000552028,True,28,1
MW-K-33K33S2,559,experiment,82,↑,down,↓,0.6410331001970917,False,28,1
MW-K-33K33S2,560,experiment,98,→,right,→,0.7184220000635833,True,28,1
MW-K-33K33S2,561,experiment,54,→,right,→,0.6554376999847591,True,28,1
MW-K-33K33S2,562,experiment,75,↑,up,↑,0.7238441000226885,True,28,1
MW-K-33K33S2,563,experiment,55,↑,up,↑,0.5962996000889689,True,28,1
MW-K-33K33S2,564,experiment,103,↑,up,↑,0.625620000064373,True,28,1
MW-K-33K33S2,565,experiment,58,←,left,←,0.5017450000159442,True,28,1
MW-K-33K33S2,566,experiment,69,←,left,←,0.4738092999905348,True,28,1
MW-K-33K33S2,567,experiment,72,→,right,→,0.5186950999777764,True,28,1
MW-K-33K33S2,568,experiment,94,↓,down,↓,0.7061466998420656,True,28,1
MW-K-33K33S2,569,experiment,62,→,right,→,0.6411046998109668,True,28,1
MW-K-33K33S2,570,experiment,67,←,left,←,0.6485971000511199,True,28,1
MW-K-33K33S2,571,experiment,71,↑,up,↑,0.6948802000842988,True,28,1
MW-K-33K33S2,572,experiment,76,→,right,→,0.6015059999190271,True,28,1
MW-K-33K33S2,573,experiment,87,→,right,→,0.556310199899599,True,28,1
MW-K-33K33S2,574,experiment,107,↑,up,↑,0.514055399922654,True,28,1
MW-K-33K33S2,575,experiment,53,→,right,→,0.5153661000076681,True,28,1
MW-K-33K33S2,576,experiment,78,←,left,←,0.5323136998340487,True,28,1
MW-K-33K33S2,577,experiment,95,→,right,→,0.599301400128752,True,28,1
MW-K-33K33S2,578,experiment,88,↑,up,↑,0.5535629999358207,True,28,1
MW-K-33K33S2,579,experiment,50,↓,down,↓,0.7143439999781549,True,28,1
MW-K-33K33S2,580,experiment,48,→,right,→,0.5653367000631988,True,28,1
MW-K-33K33S2,581,experiment,91,↓,down,↓,0.6801821000408381,True,28,1
MW-K-33K33S2,582,experiment,108,←,left,←,0.5608075999189168,True,28,1
MW-K-33K33S2,583,experiment,86,↑,up,↑,0.5090314999688417,True,28,1
MW-K-33K33S2,584,experiment,105,→,right,→,0.5095340001862496,True,28,1
MW-K-33K33S2,585,experiment,63,←,left,←,0.5799895999953151,True,28,1
MW-K-33K33S2,586,experiment,101,←,left,←,0.4908088999800384,True,28,1
MW-K-33K33S2,587,experiment,92,←,left,←,0.775930100120604,True,28,1
MW-K-33K33S2,588,experiment,104,↑,up,↑,0.5422284998930991,True,28,1
MW-K-33K33S2,589,experiment,61,↑,up,↑,0.4837664000224322,True,28,1
MW-K-33K33S2,590,experiment,97,→,right,→,0.48008450004272163,True,28,1
MW-K-33K33S2,591,experiment,100,↑,up,↑,0.5470237999688834,True,28,1
MW-K-33K33S2,592,experiment,99,↓,down,↓,0.611466099973768,True,28,1
MW-K-33K33S2,593,experiment,84,→,right,→,0.5749554999638349,True,28,1
MW-K-33K33S2,594,experiment,106,↑,up,↑,0.5164866000413895,True,28,1
MW-K-33K33S2,595,experiment,73,→,right,→,0.45522130001336336,True,28,1
MW-K-33K33S2,596,experiment,64,↓,down,↓,0.5593206000048667,True,28,1
MW-K-33K33S2,597,experiment,90,→,down,↓,0.7625726999249309,False,28,1
MW-K-33K33S2,598,experiment,59,↓,down,↓,0.6559613000135869,True,28,1
MW-K-33K33S2,599,experiment,81,→,right,→,0.5784424999728799,True,28,1
MW-K-33K33S2,600,experiment,93,↓,down,↓,0.8677573001477867,True,28,1
MW-K-33K33S2,601,experiment,74,→,right,→,0.5363799000624567,True,28,1
MW-K-33K33S2,602,experiment,83,↑,up,↑,0.5268567998427898,True,28,1
MW-K-33K33S2,603,experiment,49,↑,up,↑,0.4493066999129951,True,28,1
MW-K-33K33S2,604,experiment,96,↓,down,↓,0.6150628000032157,True,28,1
MW-K-33K33S2,605,experiment,52,→,right,→,0.5244835999328643,True,28,1
MW-K-33K33S2,606,experiment,56,↓,down,↓,0.564823399996385,True,28,1
MW-K-33K33S2,607,experiment,85,←,left,←,0.6815514001064003,True,28,1
MW-K-33K33S2,608,training,53,↓,down,↓,0.8135846999939531,True,28,0
MW-K-33K33S2,609,training,98,←,left,←,0.6917849001474679,True,28,1
MW-K-33K33S2,610,experiment,97,←,left,←,0.47972989990375936,True,28,1
MW-K-33K33S2,611,experiment,75,←,left,←,0.4833957999944687,True,28,1
MW-K-33K33S2,612,experiment,60,→,right,→,0.6118448998313397,True,28,1
MW-K-33K33S2,613,experiment,70,↑,up,↑,0.6839321998413652,True,28,1
MW-K-33K33S2,614,experiment,54,←,left,←,0.5662211000453681,True,28,1
MW-K-33K33S2,615,experiment,108,↑,up,↑,0.6752995999995619,True,28,1
MW-K-33K33S2,616,experiment,58,↑,up,↑,0.5807785000652075,True,28,1
MW-K-33K33S2,617,experiment,90,→,right,→,0.6551441999617964,True,28,1
MW-K-33K33S2,618,experiment,65,←,right,→,0.8148439999204129,False,28,1
MW-K-33K33S2,619,experiment,72,↓,up,↑,0.7979407000821084,False,28,1
MW-K-33K33S2,620,experiment,67,↓,down,↓,0.6151904000435024,True,28,1
MW-K-33K33S2,621,experiment,93,↓,down,↓,0.6552009999286383,True,28,1
MW-K-33K33S2,622,experiment,107,↓,down,↓,0.5848274000454694,True,28,1
MW-K-33K33S2,623,experiment,50,↑,up,↑,0.6646543999668211,True,28,1
MW-K-33K33S2,624,experiment,74,↑,up,↑,0.5491948002018034,True,28,1
MW-K-33K33S2,625,experiment,77,←,right,→,0.7732803001999855,False,28,1
MW-K-33K33S2,626,experiment,73,↑,up,↑,0.5175150998402387,True,28,1
MW-K-33K33S2,627,experiment,81,→,right,→,0.7256293999962509,True,28,1
MW-K-33K33S2,628,experiment,76,↑,up,↑,0.5829429000150412,True,28,1
MW-K-33K33S2,629,experiment,64,→,right,→,0.49809110001660883,True,28,1
MW-K-33K33S2,630,experiment,52,←,left,←,0.7085372998844832,True,28,1
MW-K-33K33S2,631,experiment,48,↓,up,↑,0.7597994999960065,False,28,1
MW-K-33K33S2,632,experiment,66,↑,up,↑,0.4751660998445004,True,28,1
MW-K-33K33S2,633,experiment,68,↑,up,↑,0.7054081000387669,True,28,1
MW-K-33K33S2,634,experiment,59,↓,down,↓,0.5930711999535561,True,28,1
MW-K-33K33S2,635,experiment,88,→,right,→,0.6437307000160217,True,28,1
MW-K-33K33S2,636,experiment,51,↓,down,↓,0.5766205999534577,True,28,1
MW-K-33K33S2,637,experiment,103,↓,down,↓,0.6470731999725103,True,28,1
MW-K-33K33S2,638,experiment,102,←,left,←,0.5787321999669075,True,28,1
MW-K-33K33S2,639,experiment,95,←,left,←,0.5232444000430405,True,28,1
MW-K-33K33S2,640,experiment,101,→,right,→,0.62032729992643,True,28,1
MW-K-33K33S2,641,experiment,78,↑,down,↓,0.7775506000034511,False,28,1
MW-K-33K33S2,642,experiment,56,←,left,←,1.0391361000947654,True,28,1
MW-K-33K33S2,643,experiment,84,↓,down,↓,0.6090894001536071,True,28,1
MW-K-33K33S2,644,experiment,89,↓,down,↓,0.8667768999002874,True,28,1
MW-K-33K33S2,645,experiment,87,↓,down,↓,1.050976200029254,True,28,1
MW-K-33K33S2,646,experiment,63,↓,down,↓,1.0034699998795986,True,28,1
MW-K-33K33S2,647,experiment,105,←,left,←,0.5846662002149969,True,28,1
MW-K-33K33S2,648,experiment,79,↓,down,↓,0.7422774001024663,True,28,1
MW-K-33K33S2,649,experiment,98,←,left,←,0.6476036000531167,True,28,1
MW-K-33K33S2,650,experiment,92,→,right,→,0.6228662000503391,True,28,1
MW-K-33K33S2,651,experiment,49,→,right,→,0.5729920000303537,True,28,1
MW-K-33K33S2,652,experiment,91,↓,down,↓,0.6155362999998033,True,28,1
MW-K-33K33S2,653,experiment,96,→,right,→,0.5826814000029117,True,28,1
MW-K-33K33S2,654,experiment,61,↓,down,↓,0.6505438999738544,True,28,1
MW-K-33K33S2,655,experiment,104,↓,down,↓,0.6374948001466691,True,28,1
MW-K-33K33S2,656,experiment,106,↑,up,↑,0.7041418999433517,True,28,1
MW-K-33K33S2,657,experiment,82,↓,down,↓,0.5603835999500006,True,28,1
MW-K-33K33S2,658,experiment,94,←,left,←,0.746395600028336,True,28,1
MW-K-33K33S2,659,experiment,83,↑,up,↑,0.6403487999923527,True,28,1
MW-K-33K33S2,660,experiment,86,←,left,←,0.5700819999910891,True,28,1
MW-K-33K33S2,661,experiment,80,→,right,→,0.5283173001371324,True,28,1
MW-K-33K33S2,662,experiment,62,←,left,←,0.7182565000839531,True,28,1
MW-K-33K33S2,663,experiment,55,←,left,←,0.5750085001345724,True,28,1
MW-K-33K33S2,664,experiment,100,↑,up,↑,0.5983251000288874,True,28,1
MW-K-33K33S2,665,experiment,69,↑,up,↑,0.5109587002079934,True,28,1
MW-K-33K33S2,666,experiment,85,←,left,←,0.4621532999444753,True,28,1
MW-K-33K33S2,667,experiment,99,↓,up,↑,0.6744073000736535,False,28,1
MW-K-33K33S2,668,experiment,71,↑,up,↑,0.5673435002099723,True,28,1
MW-K-33K33S2,669,experiment,53,←,left,←,0.45481169992126524,True,28,1
MW-K-33K33S2,670,experiment,57,↓,down,↓,0.7772442998830229,True,28,1
MW-K-33K33S2,671,training,106,↓,down,↓,0.6670886999927461,True,28,0
MW-K-33K33S2,672,training,68,↓,down,↓,0.6652901999186724,True,28,1
MW-K-33K33S2,673,experiment,59,←,left,←,0.7386179999448359,True,28,1
MW-K-33K33S2,674,experiment,77,→,left,←,0.6990484001580626,False,28,1
MW-K-33K33S2,675,experiment,54,↑,up,↑,0.5486783999949694,True,28,1
MW-K-33K33S2,676,experiment,51,↑,up,↑,0.6454634999390692,True,28,1
MW-K-33K33S2,677,experiment,58,←,left,←,0.5281777000054717,True,28,1
MW-K-33K33S2,678,experiment,78,→,right,→,0.6327954002190381,True,28,1
MW-K-33K33S2,679,experiment,83,↑,up,↑,0.6354296000208706,True,28,1
MW-K-33K33S2,680,experiment,76,←,left,←,0.5205936999991536,True,28,1
MW-K-33K33S2,681,experiment,108,→,right,→,0.5910432999953628,True,28,1
MW-K-33K33S2,682,experiment,61,→,right,→,0.4589496001135558,True,28,1
MW-K-33K33S2,683,experiment,104,↓,down,↓,0.6456693999934942,True,28,1
MW-K-33K33S2,684,experiment,84,↑,up,↑,0.5754812001250684,True,28,1
MW-K-33K33S2,685,experiment,75,↑,up,↑,0.5270258998498321,True,28,1
MW-K-33K33S2,686,experiment,57,→,right,→,0.44700119993649423,True,28,1
MW-K-33K33S2,687,experiment,105,↑,up,↑,0.5136080000083894,True,28,1
MW-K-33K33S2,688,experiment,87,→,right,→,0.7196815998759121,True,28,1
MW-K-33K33S2,689,experiment,99,→,right,→,0.5055194001179188,True,28,1
MW-K-33K33S2,690,experiment,79,↑,up,↑,0.5227367000188679,True,28,1
MW-K-33K33S2,691,experiment,81,←,left,←,0.594659399939701,True,28,1
MW-K-33K33S2,692,experiment,62,↑,up,↑,0.5338516999036074,True,28,1
MW-K-33K33S2,693,experiment,53,↑,up,↑,0.5105556000489742,True,28,1
MW-K-33K33S2,694,experiment,73,↓,down,↓,0.5776627000886947,True,28,1
MW-K-33K33S2,695,experiment,74,←,left,←,0.5621017999947071,True,28,1
MW-K-33K33S2,696,experiment,100,↑,up,↑,0.5537082999944687,True,28,1
MW-K-33K33S2,697,experiment,107,→,right,→,0.44747060001827776,True,28,1
MW-K-33K33S2,698,experiment,68,↓,down,↓,0.5661905000451952,True,28,1
MW-K-33K33S2,699,experiment,82,↑,down,↓,0.6280232998542488,False,28,1
MW-K-33K33S2,700,experiment,85,←,left,←,0.5106842000968754,True,28,1
MW-K-33K33S2,701,experiment,95,↓,down,↓,0.52211600006558,True,28,1
MW-K-33K33S2,702,experiment,52,→,right,→,0.5154335000552237,True,28,1
MW-K-33K33S2,703,experiment,92,←,left,←,0.47229529987089336,True,28,1
MW-K-33K33S2,704,experiment,55,→,right,→,0.48225150001235306,True,28,1
MW-K-33K33S2,705,experiment,102,→,right,→,0.4687870000489056,True,28,1
MW-K-33K33S2,706,experiment,70,←,left,←,0.7943895999342203,True,28,1
MW-K-33K33S2,707,experiment,67,←,left,←,0.5643327001016587,True,28,1
MW-K-33K33S2,708,experiment,86,↑,up,↑,0.5846681001130491,True,28,1
MW-K-33K33S2,709,experiment,63,→,right,→,0.4518701999913901,True,28,1
MW-K-33K33S2,710,experiment,96,←,left,←,0.4896676999051124,True,28,1
MW-K-33K33S2,711,experiment,60,→,right,→,0.5458435001783073,True,28,1
MW-K-33K33S2,712,experiment,90,↓,up,↑,0.6855576001107693,False,28,1
MW-K-33K33S2,713,experiment,69,↓,down,↓,0.5948723999317735,True,28,1
MW-K-33K33S2,714,experiment,94,↓,down,↓,0.6112830000929534,True,28,1
MW-K-33K33S2,715,experiment,103,↑,down,↓,0.6963130999356508,False,28,1
MW-K-33K33S2,716,experiment,66,←,left,←,0.5980088000651449,True,28,1
MW-K-33K33S2,717,experiment,56,↓,down,↓,0.6272285000886768,True,28,1
MW-K-33K33S2,718,experiment,89,↑,up,↑,0.5880916998721659,True,28,1
MW-K-33K33S2,719,experiment,101,↑,up,↑,0.5949673000723124,True,28,1
MW-K-33K33S2,720,experiment,50,→,right,→,0.5459765999112278,True,28,1
MW-K-33K33S2,721,experiment,49,↑,up,↑,0.4753349998500198,True,28,1
MW-K-33K33S2,722,experiment,98,←,left,←,0.4474769001826644,True,28,1
MW-K-33K33S2,723,experiment,65,↓,down,↓,0.5675621000118554,True,28,1
MW-K-33K33S2,724,experiment,64,↑,up,↑,0.627238400047645,True,28,1
MW-K-33K33S2,725,experiment,106,→,right,→,0.4944607000797987,True,28,1
MW-K-33K33S2,726,experiment,71,←,left,←,0.6746014000382274,True,28,1
MW-K-33K33S2,727,experiment,88,↓,down,↓,0.562043699901551,True,28,1
MW-K-33K33S2,728,experiment,48,→,right,→,0.5074418999720365,True,28,1
MW-K-33K33S2,729,experiment,97,↑,up,↑,0.5102446000091732,True,28,1
MW-K-33K33S2,730,experiment,91,→,right,→,0.5633844998665154,True,28,1
MW-K-33K33S2,731,experiment,80,→,right,→,0.6495250998996198,True,28,1
MW-K-33K33S2,732,experiment,72,←,left,←,0.61528420005925,True,28,1
MW-K-33K33S2,733,experiment,93,←,left,←,0.6714527001604438,True,28,1
MW-K-33K33S2,734,training,78,←,left,←,0.5777311001438648,True,28,0
MW-K-33K33S2,735,training,64,↓,down,↓,0.6210844002198428,True,28,1
MW-K-33K33S2,736,experiment,65,→,right,→,0.7263269000686705,True,28,1
MW-K-33K33S2,737,experiment,108,↓,down,↓,0.6608427001629025,True,28,1
MW-K-33K33S2,738,experiment,94,←,left,←,0.5707942000590265,True,28,1
MW-K-33K33S2,739,experiment,59,→,right,→,0.7759211999364197,True,28,1
MW-K-33K33S2,740,experiment,64,↓,down,↓,0.7071067998185754,True,28,1
MW-K-33K33S2,741,experiment,87,↓,down,↓,0.7453680001199245,True,28,1
MW-K-33K33S2,742,experiment,52,←,left,←,0.6022100001573563,True,28,1
MW-K-33K33S2,743,experiment,79,↑,up,↑,0.5992660999763757,True,28,1
MW-K-33K33S2,744,experiment,95,→,right,→,0.5833046000916511,True,28,1
MW-K-33K33S2,745,experiment,102,→,right,→,0.5736223000567406,True,28,1
MW-K-33K33S2,746,experiment,62,←,left,←,0.5297340999823064,True,28,1
MW-K-33K33S2,747,experiment,53,↑,up,↑,0.6987716001458466,True,28,1
MW-K-33K33S2,748,experiment,107,→,right,→,0.49853910016827285,True,28,1
MW-K-33K33S2,749,experiment,84,↑,up,↑,0.5942382998764515,True,28,1
MW-K-33K33S2,750,experiment,63,↓,down,↓,0.5813643001019955,True,28,1
MW-K-33K33S2,751,experiment,80,↑,up,↑,0.5950684000272304,True,28,1
MW-K-33K33S2,752,experiment,77,↓,up,↑,0.7771069998852909,False,28,1
MW-K-33K33S2,753,experiment,88,←,left,←,0.49243749980814755,True,28,1
MW-K-33K33S2,754,experiment,71,↑,up,↑,0.5847709998488426,True,28,1
MW-K-33K33S2,755,experiment,56,←,left,←,0.4385678998660296,True,28,1
MW-K-33K33S2,756,experiment,101,↓,down,↓,0.5630828998982906,True,28,1
MW-K-33K33S2,757,experiment,98,↓,down,↓,0.5873253000900149,True,28,1
MW-K-33K33S2,758,experiment,58,←,left,←,0.6162880000192672,True,28,1
MW-K-33K33S2,759,experiment,70,↑,left,←,0.7598770998883992,False,28,1
MW-K-33K33S2,760,experiment,60,→,down,↓,0.5093652000650764,False,28,1
MW-K-33K33S2,761,experiment,75,↑,up,↑,0.7357161999680102,True,28,1
MW-K-33K33S2,762,experiment,106,→,right,→,0.6383424999658018,True,28,1
MW-K-33K33S2,763,experiment,49,←,left,←,0.6364294001832604,True,28,1
MW-K-33K33S2,764,experiment,78,←,left,←,0.5528381001204252,True,28,1
MW-K-33K33S2,765,experiment,103,↑,up,↑,0.5762141000013798,True,28,1
MW-K-33K33S2,766,experiment,67,→,right,→,0.4907294998411089,True,28,1
MW-K-33K33S2,767,experiment,85,↓,down,↓,0.5863870000466704,True,28,1
MW-K-33K33S2,768,experiment,74,→,right,→,0.650038099847734,True,28,1
MW-K-33K33S2,769,experiment,92,↓,down,↓,0.5850861999206245,True,28,1
MW-K-33K33S2,770,experiment,96,→,right,→,0.6256395000964403,True,28,1
MW-K-33K33S2,771,experiment,97,→,right,→,0.4084425999317318,True,28,1
MW-K-33K33S2,772,experiment,82,↓,down,↓,0.5717559000477195,True,28,1
MW-K-33K33S2,773,experiment,104,↓,down,↓,0.5137354000471532,True,28,1
MW-K-33K33S2,774,experiment,69,→,right,→,0.7817030001897365,True,28,1
MW-K-33K33S2,775,experiment,93,↓,down,↓,0.8472343999892473,True,28,1
MW-K-33K33S2,776,experiment,50,←,left,←,0.4600410000421107,True,28,1
MW-K-33K33S2,777,experiment,81,↓,down,↓,0.6625608999747783,True,28,1
MW-K-33K33S2,778,experiment,90,←,left,←,0.6374228000640869,True,28,1
MW-K-33K33S2,779,experiment,89,←,left,←,0.4697784997988492,True,28,1
MW-K-33K33S2,780,experiment,57,→,right,→,0.632009900175035,True,28,1
MW-K-33K33S2,781,experiment,73,←,left,←,0.5021864001173526,True,28,1
MW-K-33K33S2,782,experiment,66,↑,up,↑,0.6915282998234034,True,28,1
MW-K-33K33S2,783,experiment,105,↑,up,↑,0.5565206001047045,True,28,1
MW-K-33K33S2,784,experiment,55,→,right,→,0.5715232999064028,True,28,1
MW-K-33K33S2,785,experiment,72,↑,up,↑,0.47633980005048215,True,28,1
MW-K-33K33S2,786,experiment,99,↑,up,↑,0.4960039001889527,True,28,1
MW-K-33K33S2,787,experiment,51,↓,down,↓,0.9146665001753718,True,28,1
MW-K-33K33S2,788,experiment,91,←,left,←,0.6154761000070721,True,28,1
MW-K-33K33S2,789,experiment,61,→,right,→,0.47449710010550916,True,28,1
MW-K-33K33S2,790,experiment,48,↓,down,↓,0.5351356000173837,True,28,1
MW-K-33K33S2,791,experiment,100,↑,down,↓,0.656144900014624,False,28,1
MW-K-33K33S2,792,experiment,86,↑,up,↑,0.45669689984060824,True,28,1
MW-K-33K33S2,793,experiment,83,→,right,→,0.6344431000761688,True,28,1
MW-K-33K33S2,794,experiment,68,↑,up,↑,0.5222215000540018,True,28,1
MW-K-33K33S2,795,experiment,54,↑,up,↑,0.4589792999904603,True,28,1
MW-K-33K33S2,796,experiment,76,↓,down,↓,0.7511629997752607,True,28,1
MW-K-33K33S2,797,training,77,↑,up,↑,0.522712399950251,True,28,0
MW-K-33K33S2,798,training,103,→,right,→,0.4509902000427246,True,28,1
MW-K-33K33S2,799,experiment,100,←,left,←,0.4874633001163602,True,28,1
MW-K-33K33S2,800,experiment,103,↑,up,↑,0.5132546999957412,True,28,1
MW-K-33K33S2,801,experiment,60,→,right,→,0.520119900116697,True,28,1
MW-K-33K33S2,802,experiment,80,←,left,←,0.4485391997732222,True,28,1
MW-K-33K33S2,803,experiment,57,↑,left,←,0.6992558999918401,False,28,1
MW-K-33K33S2,804,experiment,98,→,right,→,0.5904037998989224,True,28,1
MW-K-33K33S2,805,experiment,72,←,left,←,0.6465970000717789,True,28,1
MW-K-33K33S2,806,experiment,93,→,right,→,0.573258199961856,True,28,1
MW-K-33K33S2,807,experiment,97,←,left,←,0.46961060003377497,True,28,1
MW-K-33K33S2,808,experiment,56,↑,up,↑,0.5038280999287963,True,28,1
MW-K-33K33S2,809,experiment,63,→,right,→,0.5903270000126213,True,28,1
MW-K-33K33S2,810,experiment,55,↑,up,↑,0.5159710000734776,True,28,1
MW-K-33K33S2,811,experiment,82,→,right,→,0.5081472999881953,True,28,1
MW-K-33K33S2,812,experiment,84,←,left,←,0.6112646998371929,True,28,1
MW-K-33K33S2,813,experiment,102,↑,up,↑,0.4806462998967618,True,28,1
MW-K-33K33S2,814,experiment,69,↑,up,↑,0.4858637999277562,True,28,1
MW-K-33K33S2,815,experiment,81,↓,down,↓,0.535143000073731,True,28,1
MW-K-33K33S2,816,experiment,49,↑,up,↑,0.4173606000840664,True,28,1
MW-K-33K33S2,817,experiment,99,↑,up,↑,0.43124129995703697,True,28,1
MW-K-33K33S2,818,experiment,61,←,left,←,0.6813595001585782,True,28,1
MW-K-33K33S2,819,experiment,96,→,right,→,0.629622999811545,True,28,1
MW-K-33K33S2,820,experiment,51,↓,down,↓,0.5392333001364022,True,28,1
MW-K-33K33S2,821,experiment,105,→,right,→,0.4662531998474151,True,28,1
MW-K-33K33S2,822,experiment,54,←,left,←,0.4693492001388222,True,28,1
MW-K-33K33S2,823,experiment,52,→,right,→,0.46495699998922646,True,28,1
MW-K-33K33S2,824,experiment,62,→,right,→,0.6655268000904471,True,28,1
MW-K-33K33S2,825,experiment,86,↑,up,↑,0.49779779999516904,True,28,1
MW-K-33K33S2,826,experiment,92,→,right,→,0.5187680998351425,True,28,1
MW-K-33K33S2,827,experiment,71,↓,down,↓,0.5301272000651807,True,28,1
MW-K-33K33S2,828,experiment,91,→,right,→,0.42198510002344847,True,28,1
MW-K-33K33S2,829,experiment,74,↓,down,↓,0.6601342998910695,True,28,1
MW-K-33K33S2,830,experiment,76,↓,down,↓,0.5924990000203252,True,28,1
MW-K-33K33S2,831,experiment,48,↑,down,↓,0.6723609999753535,False,28,1
MW-K-33K33S2,832,experiment,68,↑,down,↓,0.5743228998035192,False,28,1
MW-K-33K33S2,833,experiment,53,↓,down,↓,0.5735194999724627,True,28,1
MW-K-33K33S2,834,experiment,67,↑,up,↑,0.48794740019366145,True,28,1
MW-K-33K33S2,835,experiment,88,←,left,←,0.5104823999572545,True,28,1
MW-K-33K33S2,836,experiment,70,→,right,→,0.7464427000377327,True,28,1
MW-K-33K33S2,837,experiment,66,↑,up,↑,0.574227900011465,True,28,1
MW-K-33K33S2,838,experiment,101,→,right,→,0.6130716998595744,True,28,1
MW-K-33K33S2,839,experiment,89,←,left,←,0.47853829991072416,True,28,1
MW-K-33K33S2,840,experiment,83,←,left,←,0.6235944000072777,True,28,1
MW-K-33K33S2,841,experiment,73,→,right,→,0.4859877999406308,True,28,1
MW-K-33K33S2,842,experiment,58,↓,down,↓,0.4948195999022573,True,28,1
MW-K-33K33S2,843,experiment,65,←,right,→,0.45307249994948506,False,28,1
MW-K-33K33S2,844,experiment,108,←,left,←,0.4148436998948455,True,28,1
MW-K-33K33S2,845,experiment,95,↑,up,↑,0.43823310011066496,True,28,1
MW-K-33K33S2,846,experiment,64,→,left,←,0.7830068999901414,False,28,1
MW-K-33K33S2,847,experiment,104,←,left,←,0.5647372000385076,True,28,1
MW-K-33K33S2,848,experiment,87,↑,up,↑,0.464661099947989,True,28,1
MW-K-33K33S2,849,experiment,90,→,right,→,0.4316767998971045,True,28,1
MW-K-33K33S2,850,experiment,59,↑,up,↑,0.4345557999331504,True,28,1
MW-K-33K33S2,851,experiment,75,→,right,→,0.4159407000988722,True,28,1
MW-K-33K33S2,852,experiment,77,→,right,→,0.4131219000555575,True,28,1
MW-K-33K33S2,853,experiment,106,↑,up,↑,0.5607958000618964,True,28,1
MW-K-33K33S2,854,experiment,50,→,right,→,0.4250816002022475,True,28,1
MW-K-33K33S2,855,experiment,85,↑,up,↑,0.47554460004903376,True,28,1
MW-K-33K33S2,856,experiment,78,↑,up,↑,0.44629039987921715,True,28,1
MW-K-33K33S2,857,experiment,79,→,right,→,0.6578656998462975,True,28,1
MW-K-33K33S2,858,experiment,107,→,right,→,0.49948360002599657,True,28,1
MW-K-33K33S2,859,experiment,94,↑,up,↑,0.5679163997992873,True,28,1
MW-K-33K33S2,860,training,59,↓,down,↓,0.5773942000232637,True,28,0
MW-K-33K33S2,861,training,72,→,right,→,0.4420153999235481,True,28,1
MW-K-33K33S2,862,experiment,82,←,left,←,0.6208802999462932,True,28,1
MW-K-33K33S2,863,experiment,78,←,left,←,0.49756909999996424,True,28,1
MW-K-33K33S2,864,experiment,66,↓,down,↓,0.6712597999721766,True,28,1
MW-K-33K33S2,865,experiment,93,←,left,←,0.5810383998323232,True,28,1
MW-K-33K33S2,866,experiment,80,→,right,→,0.47494290000759065,True,28,1
MW-K-33K33S2,867,experiment,57,↓,down,↓,0.6446138001047075,True,28,1
MW-K-33K33S2,868,experiment,58,←,left,←,0.4632880000863224,True,28,1
MW-K-33K33S2,869,experiment,73,→,right,→,0.6039708000607789,True,28,1
MW-K-33K33S2,870,experiment,85,↓,down,↓,0.5589813999831676,True,28,1
MW-K-33K33S2,871,experiment,70,←,left,←,0.4731582999229431,True,28,1
MW-K-33K33S2,872,experiment,90,↓,down,↓,0.5758349001407623,True,28,1
MW-K-33K33S2,873,experiment,54,↓,down,↓,0.6225700997747481,True,28,1
MW-K-33K33S2,874,experiment,98,↑,down,↓,0.6846451000310481,False,28,1
MW-K-33K33S2,875,experiment,101,←,left,←,0.43935190001502633,True,28,1
MW-K-33K33S2,876,experiment,89,→,right,→,0.4797667001839727,True,28,1
MW-K-33K33S2,877,experiment,52,↑,up,↑,0.5628583000507206,True,28,1
MW-K-33K33S2,878,experiment,99,↑,up,↑,0.49082369985990226,True,28,1
MW-K-33K33S2,879,experiment,72,←,left,←,0.43078639986924827,True,28,1
MW-K-33K33S2,880,experiment,94,←,left,←,0.34307499998249114,True,28,1
MW-K-33K33S2,881,experiment,69,→,right,→,0.45674600009806454,True,28,1
MW-K-33K33S2,882,experiment,63,→,right,→,0.5692696999758482,True,28,1
MW-K-33K33S2,883,experiment,50,↑,up,↑,0.43385999999009073,True,28,1
MW-K-33K33S2,884,experiment,65,↑,up,↑,0.41858699987642467,True,28,1
MW-K-33K33S2,885,experiment,71,→,right,→,0.48974660015664995,True,28,1
MW-K-33K33S2,886,experiment,62,→,right,→,0.4891893998719752,True,28,1
MW-K-33K33S2,887,experiment,76,→,right,→,0.6039597000926733,True,28,1
MW-K-33K33S2,888,experiment,105,←,left,←,0.48020340013317764,True,28,1
MW-K-33K33S2,889,experiment,53,↓,down,↓,0.7071366000454873,True,28,1
MW-K-33K33S2,890,experiment,97,↑,up,↑,0.478119800100103,True,28,1
MW-K-33K33S2,891,experiment,86,↓,down,↓,0.5903304999228567,True,28,1
MW-K-33K33S2,892,experiment,68,←,left,←,0.67963290004991,True,28,1
MW-K-33K33S2,893,experiment,83,↑,up,↑,0.6406485999468714,True,28,1
MW-K-33K33S2,894,experiment,84,←,left,←,0.4663938998710364,True,28,1
MW-K-33K33S2,895,experiment,91,↓,down,↓,0.6090913999360055,True,28,1
MW-K-33K33S2,896,experiment,81,↓,down,↓,0.573536500101909,True,28,1
MW-K-33K33S2,897,experiment,60,↓,down,↓,0.498566199792549,True,28,1
MW-K-33K33S2,898,experiment,74,↓,down,↓,0.46136000007390976,True,28,1
MW-K-33K33S2,899,experiment,108,↓,down,↓,0.5504815001040697,True,28,1
MW-K-33K33S2,900,experiment,102,↑,up,↑,0.421886800089851,True,28,1
MW-K-33K33S2,901,experiment,64,→,right,→,0.47940700012259185,True,28,1
MW-K-33K33S2,902,experiment,104,←,left,←,0.5693875998258591,True,28,1
MW-K-33K33S2,903,experiment,59,↑,up,↑,0.44671560009010136,True,28,1
MW-K-33K33S2,904,experiment,51,←,left,←,0.5075204998720437,True,28,1
MW-K-33K33S2,905,experiment,106,→,right,→,0.483430199790746,True,28,1
MW-K-33K33S2,906,experiment,67,←,left,←,0.881561900023371,True,28,1
MW-K-33K33S2,907,experiment,55,↑,left,←,0.49152999999932945,False,28,1
MW-K-33K33S2,908,experiment,95,↑,up,↑,0.47193280002102256,True,28,1
MW-K-33K33S2,909,experiment,87,→,right,→,0.43958140001632273,True,28,1
MW-K-33K33S2,910,experiment,77,→,right,→,0.5959568000398576,True,28,1
MW-K-33K33S2,911,experiment,100,↓,down,↓,0.5706901999656111,True,28,1
MW-K-33K33S2,912,experiment,56,↑,up,↑,0.48868989991024137,True,28,1
MW-K-33K33S2,913,experiment,79,↑,up,↑,0.45835909992456436,True,28,1
MW-K-33K33S2,914,experiment,88,↑,up,↑,0.5704483001027256,True,28,1
MW-K-33K33S2,915,experiment,96,↑,up,↑,0.44336339994333684,True,28,1
MW-K-33K33S2,916,experiment,48,↓,up,↑,0.4893883999902755,False,28,1
MW-K-33K33S2,917,experiment,49,→,right,→,0.4294114001095295,True,28,1
MW-K-33K33S2,918,experiment,75,←,left,←,0.7066339999437332,True,28,1
MW-K-33K33S2,919,experiment,92,→,right,→,0.47130650002509356,True,28,1
MW-K-33K33S2,920,experiment,107,↓,up,↑,0.6243662999477237,False,28,1
MW-K-33K33S2,921,experiment,103,←,left,←,0.4291232998948544,True,28,1
MW-K-33K33S2,922,experiment,61,↓,down,↓,0.6628692999947816,True,28,1
MW-K-33K33S2,923,training,72,→,right,→,1.5489068001043051,True,28,0
MW-K-33K33S2,924,training,76,↑,up,↑,0.5490137999877334,True,28,1
MW-K-33K33S2,925,experiment,108,→,right,→,0.4586463999003172,True,28,1
MW-K-33K33S2,926,experiment,95,↑,up,↑,0.4564290000125766,True,28,1
MW-K-33K33S2,927,experiment,71,↑,up,↑,0.5263438001275063,True,28,1
MW-K-33K33S2,928,experiment,66,↑,up,↑,0.5311473999172449,True,28,1
MW-K-33K33S2,929,experiment,96,→,left,←,0.4693689998239279,False,28,1
MW-K-33K33S2,930,experiment,78,→,right,→,0.44058079994283617,True,28,1
MW-K-33K33S2,931,experiment,105,↑,up,↑,0.5475439000874758,True,28,1
MW-K-33K33S2,932,experiment,58,→,right,→,0.4338448999915272,True,28,1
MW-K-33K33S2,933,experiment,101,↑,up,↑,0.5268143001012504,True,28,1
MW-K-33K33S2,934,experiment,99,←,left,←,0.5444736999925226,True,28,1
MW-K-33K33S2,935,experiment,82,←,right,→,0.5672075999900699,False,28,1
MW-K-33K33S2,936,experiment,79,↓,down,↓,0.7178684000391513,True,28,1
MW-K-33K33S2,937,experiment,77,↓,down,↓,0.5191941000521183,True,28,1
MW-K-33K33S2,938,experiment,94,→,right,→,0.5706178001128137,True,28,1
MW-K-33K33S2,939,experiment,55,→,right,→,0.5454637999646366,True,28,1
MW-K-33K33S2,940,experiment,54,→,right,→,0.7614152999594808,True,28,1
MW-K-33K33S2,941,experiment,107,→,right,→,0.47068979986943305,True,28,1
MW-K-33K33S2,942,experiment,70,↓,down,↓,0.5402805001940578,True,28,1
MW-K-33K33S2,943,experiment,73,→,left,←,0.7419499999377877,False,28,1
MW-K-33K33S2,944,experiment,68,↑,up,↑,0.5613866997882724,True,28,1
MW-K-33K33S2,945,experiment,89,→,right,→,0.580999800004065,True,28,1
MW-K-33K33S2,946,experiment,88,↑,up,↑,0.512168699875474,True,28,1
MW-K-33K33S2,947,experiment,48,→,right,→,0.40405550017021596,True,28,1
MW-K-33K33S2,948,experiment,62,↓,down,↓,0.6619978002272546,True,28,0
MW-K-33K33S2,949,experiment,93,↓,down,↓,0.6367554999887943,True,28,1
MW-K-33K33S2,950,experiment,92,←,left,←,0.6436878000386059,True,28,1
MW-K-33K33S2,951,experiment,84,↓,down,↓,0.5177630998659879,True,28,1
MW-K-33K33S2,952,experiment,59,↓,down,↓,0.5011566001921892,True,28,1
MW-K-33K33S2,953,experiment,85,←,left,←,0.6126033999025822,True,28,1
MW-K-33K33S2,954,experiment,103,←,left,←,0.4975168998353183,True,28,1
MW-K-33K33S2,955,experiment,65,←,left,←,0.495624499861151,True,28,1
MW-K-33K33S2,956,experiment,104,↑,up,↑,1.0808185001369566,True,28,1
MW-K-33K33S2,957,experiment,53,→,right,→,0.675479699857533,True,28,1
MW-K-33K33S2,958,experiment,75,→,right,→,0.4792021999601275,True,28,1
MW-K-33K33S2,959,experiment,50,↓,down,↓,0.49888570001348853,True,28,1
MW-K-33K33S2,960,experiment,63,↑,up,↑,0.4977908998262137,True,28,1
MW-K-33K33S2,961,experiment,106,→,right,→,0.5780597000848502,True,28,1
MW-K-33K33S2,962,experiment,97,↓,down,↓,0.6258692000992596,True,28,1
MW-K-33K33S2,963,experiment,61,→,right,→,0.5243999999947846,True,28,1
MW-K-33K33S2,964,experiment,76,→,right,→,0.5259577000979334,True,28,1
MW-K-33K33S2,965,experiment,67,↓,down,↓,0.6102287000976503,True,28,1
MW-K-33K33S2,966,experiment,100,←,left,←,0.46448009996674955,True,28,1
MW-K-33K33S2,967,experiment,51,↓,down,↓,0.5567077999003232,True,28,1
MW-K-33K33S2,968,experiment,87,→,right,→,0.4648670998867601,True,28,1
MW-K-33K33S2,969,experiment,90,↑,up,↑,0.4639697000384331,True,28,1
MW-K-33K33S2,970,experiment,102,→,right,→,0.4830155000090599,True,28,1
MW-K-33K33S2,971,experiment,69,↑,down,↓,0.8484664000570774,False,28,1
MW-K-33K33S2,972,experiment,60,←,left,←,0.5061861001886427,True,28,1
MW-K-33K33S2,973,experiment,72,←,left,←,0.549479000037536,True,28,1
MW-K-33K33S2,974,experiment,91,↑,up,↑,0.5372140998952091,True,28,1
MW-K-33K33S2,975,experiment,86,→,left,←,0.5585562998894602,False,28,1
MW-K-33K33S2,976,experiment,52,←,left,←,0.5347300998400897,True,28,1
MW-K-33K33S2,977,experiment,98,←,left,←,0.48047240008600056,True,28,1
MW-K-33K33S2,978,experiment,74,←,left,←,0.46004370017908514,True,28,1
MW-K-33K33S2,979,experiment,49,←,left,←,0.5294297998771071,True,28,1
MW-K-33K33S2,980,experiment,80,→,right,→,0.6249662998598069,True,28,1
MW-K-33K33S2,981,experiment,83,↓,down,↓,0.6121028999332339,True,28,1
MW-K-33K33S2,982,experiment,81,←,left,←,0.44834260013885796,True,28,1
MW-K-33K33S2,983,experiment,64,↓,down,↓,0.5768621999304742,True,28,1
MW-K-33K33S2,984,experiment,57,↓,down,↓,0.5267519999761134,True,28,1
MW-K-33K33S2,985,experiment,56,↑,up,↑,0.6147675001993775,True,28,1
MW-K-33K33S2,986,training,74,←,left,←,0.5506807998754084,True,28,0
MW-K-33K33S2,987,training,87,←,left,←,0.5633549999911338,True,28,1
MW-K-33K33S2,988,experiment,89,←,left,←,0.6387159000150859,True,28,1
MW-K-33K33S2,989,experiment,106,→,right,→,0.40249869995750487,True,28,1
MW-K-33K33S2,990,experiment,49,↑,up,↑,0.5046423999592662,True,28,0
MW-K-33K33S2,991,experiment,66,↑,up,↑,0.4943920997902751,True,28,1
MW-K-33K33S2,992,experiment,70,↓,up,↑,0.5707907001487911,False,28,1
MW-K-33K33S2,993,experiment,48,↓,down,↓,0.6359828999266028,True,28,1
MW-K-33K33S2,994,experiment,101,←,left,←,0.54485909990035,True,28,1
MW-K-33K33S2,995,experiment,77,→,right,→,0.6244663998950273,True,28,1
MW-K-33K33S2,996,experiment,55,↓,down,↓,0.5890300001483411,True,28,1
MW-K-33K33S2,997,experiment,100,→,right,→,0.6198708999436349,True,28,1
MW-K-33K33S2,998,experiment,52,←,left,←,0.7852455999236554,True,28,1
MW-K-33K33S2,999,experiment,86,←,left,←,0.5648513999767601,True,28,1
MW-K-33K33S2,1000,experiment,61,↑,up,↑,0.4495095999445766,True,28,1
MW-K-33K33S2,1001,experiment,97,↓,down,↓,0.6709861000999808,True,28,1
MW-K-33K33S2,1002,experiment,94,→,right,→,0.644386800006032,True,28,1
MW-K-33K33S2,1003,experiment,87,↓,right,→,0.6053274001460522,False,28,1
MW-K-33K33S2,1004,experiment,98,↑,down,↓,0.5720885000191629,False,28,1
MW-K-33K33S2,1005,experiment,93,↑,up,↑,0.4857415999285877,True,28,1
MW-K-33K33S2,1006,experiment,54,↓,down,↓,0.6482106000185013,True,28,1
MW-K-33K33S2,1007,experiment,65,↓,down,↓,0.5043455001432449,True,28,1
MW-K-33K33S2,1008,experiment,102,←,left,←,0.4736591998953372,True,28,1
MW-K-33K33S2,1009,experiment,90,→,right,→,0.6964414999820292,True,28,1
MW-K-33K33S2,1010,experiment,75,↑,up,↑,0.6750644999556243,True,28,1
MW-K-33K33S2,1011,experiment,95,→,left,←,0.512255699839443,False,28,1
MW-K-33K33S2,1012,experiment,53,→,right,→,0.46584049984812737,True,28,1
MW-K-33K33S2,1013,experiment,68,→,right,→,0.5842865000013262,True,28,1
MW-K-33K33S2,1014,experiment,91,←,left,←,0.49845439987257123,True,28,1
MW-K-33K33S2,1015,experiment,58,↑,up,↑,0.5227579998318106,True,28,1
MW-K-33K33S2,1016,experiment,62,←,left,←,0.46501910011284053,True,28,1
MW-K-33K33S2,1017,experiment,69,→,right,→,0.7030268998350948,True,28,1
MW-K-33K33S2,1018,experiment,50,↓,down,↓,0.546143300132826,True,28,1
MW-K-33K33S2,1019,experiment,85,↓,down,↓,0.5115491000469774,True,28,1
MW-K-33K33S2,1020,experiment,105,↓,down,↓,0.6479567000642419,True,28,1
MW-K-33K33S2,1021,experiment,104,↑,down,↓,0.5868937999475747,False,28,1
MW-K-33K33S2,1022,experiment,84,↓,up,↑,0.6549992000218481,False,28,1
MW-K-33K33S2,1023,experiment,107,→,right,→,0.5447052998933941,True,28,1
MW-K-33K33S2,1024,experiment,63,↑,up,↑,0.47025009989738464,True,28,1
MW-K-33K33S2,1025,experiment,74,↓,down,↓,0.5298671999480575,True,28,1
MW-K-33K33S2,1026,experiment,71,↓,down,↓,0.6367940998170525,True,28,1
MW-K-33K33S2,1027,experiment,79,→,right,→,0.5284721001517028,True,28,1
MW-K-33K33S2,1028,experiment,51,↑,right,→,0.6020867999177426,False,28,1
MW-K-33K33S2,1029,experiment,99,↓,down,↓,0.536729000043124,True,28,1
MW-K-33K33S2,1030,experiment,56,↓,down,↓,0.6328533999621868,True,28,1
MW-K-33K33S2,1031,experiment,73,↓,down,↓,0.5905383999925107,True,28,1
MW-K-33K33S2,1032,experiment,76,↓,up,↑,0.725131900049746,False,28,1
MW-K-33K33S2,1033,experiment,67,←,left,←,0.6417352999560535,True,28,1
MW-K-33K33S2,1034,experiment,103,↑,down,↓,0.5816581000108272,False,28,1
MW-K-33K33S2,1035,experiment,60,↓,down,↓,0.6096892000641674,True,28,1
MW-K-33K33S2,1036,experiment,59,↓,down,↓,0.6053959999699146,True,28,1
MW-K-33K33S2,1037,experiment,83,←,left,←,0.4492286001332104,True,28,1
MW-K-33K33S2,1038,experiment,108,←,left,←,0.40306539996527135,True,28,1
MW-K-33K33S2,1039,experiment,96,←,left,←,0.3421811999287456,True,28,0
MW-K-33K33S2,1040,experiment,81,↓,down,↓,0.5052552002016455,True,28,0
MW-K-33K33S2,1041,experiment,82,→,right,→,0.5532062000129372,True,28,1
MW-K-33K33S2,1042,experiment,64,↑,up,↑,0.6295127000194043,True,28,1
MW-K-33K33S2,1043,experiment,88,↑,up,↑,0.47042380017228425,True,28,1
MW-K-33K33S2,1044,experiment,78,→,right,→,0.5538480998948216,True,28,1
MW-K-33K33S2,1045,experiment,72,↓,down,↓,0.7794006001204252,True,28,1
MW-K-33K33S2,1046,experiment,57,↑,up,↑,0.537038599839434,True,28,1
MW-K-33K33S2,1047,experiment,80,→,left,←,0.4726140999700874,False,28,1
MW-K-33K33S2,1048,experiment,92,←,left,←,0.6146533999126405,True,28,1
MW-K-33K33S2,1049,training,89,→,right,→,0.5030047001782805,True,28,0
MW-K-33K33S2,1050,training,105,↓,down,↓,0.6557148001156747,True,28,1
MW-K-33K33S2,1051,experiment,84,→,right,→,0.6250869000796229,True,28,1
MW-K-33K33S2,1052,experiment,103,←,left,←,0.6934951001312584,True,28,1
MW-K-33K33S2,1053,experiment,52,↓,down,↓,0.6241854999680072,True,28,1
MW-K-33K33S2,1054,experiment,64,↓,down,↓,0.6016385001130402,True,28,1
MW-K-33K33S2,1055,experiment,85,→,left,←,0.8451427000109106,False,28,1
MW-K-33K33S2,1056,experiment,79,←,left,←,0.4807208999991417,True,28,1
MW-K-33K33S2,1057,experiment,78,↓,down,↓,0.5551996999420226,True,28,1
MW-K-33K33S2,1058,experiment,104,→,right,→,0.5217601000331342,True,28,1
MW-K-33K33S2,1059,experiment,59,→,right,→,0.48902039998210967,True,28,1
MW-K-33K33S2,1060,experiment,91,↑,up,↑,0.6707311999052763,True,28,1
MW-K-33K33S2,1061,experiment,65,←,left,←,0.6457595999818295,True,28,1
MW-K-33K33S2,1062,experiment,101,→,left,←,0.6496096001937985,False,28,1
MW-K-33K33S2,1063,experiment,107,↓,down,↓,0.6357382999267429,True,28,1
MW-K-33K33S2,1064,experiment,66,↓,down,↓,0.5160880000330508,True,28,1
MW-K-33K33S2,1065,experiment,76,←,left,←,0.5820375001057982,True,28,1
MW-K-33K33S2,1066,experiment,80,←,left,←,0.35066690016537905,True,28,1
MW-K-33K33S2,1067,experiment,92,←,left,←,0.43820839980617166,True,28,0
MW-K-33K33S2,1068,experiment,61,↑,up,↑,0.5201370001304895,True,28,1
MW-K-33K33S2,1069,experiment,62,↑,up,↑,0.7025639000348747,True,28,1
MW-K-33K33S2,1070,experiment,50,←,left,←,0.537246799794957,True,28,1
MW-K-33K33S2,1071,experiment,51,←,left,←,0.6027558001223952,True,28,1
MW-K-33K33S2,1072,experiment,88,↑,up,↑,0.4771114999894053,True,28,1
MW-K-33K33S2,1073,experiment,102,↓,down,↓,0.6234444000292569,True,28,1
MW-K-33K33S2,1074,experiment,105,←,left,←,0.5151438999455422,True,28,1
MW-K-33K33S2,1075,experiment,77,↑,up,↑,0.5246751999948174,True,28,1
MW-K-33K33S2,1076,experiment,48,↑,up,↑,0.5433386000804603,True,28,1
MW-K-33K33S2,1077,experiment,63,←,left,←,0.4444764999207109,True,28,1
MW-K-33K33S2,1078,experiment,67,↓,down,↓,0.5082330000586808,True,28,1
MW-K-33K33S2,1079,experiment,86,→,down,↓,0.7150554000400007,False,28,1
MW-K-33K33S2,1080,experiment,60,→,right,→,0.5059185000136495,True,28,1
MW-K-33K33S2,1081,experiment,56,→,right,→,0.6271158000454307,True,28,1
MW-K-33K33S2,1082,experiment,99,↑,up,↑,0.6244344001170248,True,28,1
MW-K-33K33S2,1083,experiment,83,←,left,←,0.4993771000299603,True,28,1
MW-K-33K33S2,1084,experiment,81,←,left,←,0.7002487999852747,True,28,1
MW-K-33K33S2,1085,experiment,93,→,right,→,0.46502180001698434,True,28,1
MW-K-33K33S2,1086,experiment,96,→,right,→,1.4620276999194175,True,28,1
MW-K-33K33S2,1087,experiment,71,←,left,←,0.6196136998478323,True,28,1
MW-K-33K33S2,1088,experiment,73,↑,up,↑,0.490062199998647,True,28,1
MW-K-33K33S2,1089,experiment,90,→,right,→,0.648151199799031,True,28,1
MW-K-33K33S2,1090,experiment,108,→,left,←,0.5537874000146985,False,28,1
MW-K-33K33S2,1091,experiment,49,→,right,→,0.49103459995239973,True,28,1
MW-K-33K33S2,1092,experiment,57,↑,up,↑,0.5880303999874741,True,28,1
MW-K-33K33S2,1093,experiment,53,→,right,→,0.4502713999245316,True,28,1
MW-K-33K33S2,1094,experiment,89,←,left,←,0.4744102000258863,True,28,1
MW-K-33K33S2,1095,experiment,98,↑,up,↑,0.5025682998821139,True,28,1
MW-K-33K33S2,1096,experiment,100,→,right,→,0.44893270009197295,True,28,1
MW-K-33K33S2,1097,experiment,55,→,right,→,0.36719670007005334,True,28,1
MW-K-33K33S2,1098,experiment,94,↓,down,↓,0.5338236000388861,True,28,0
MW-K-33K33S2,1099,experiment,75,↓,down,↓,0.6390354000031948,True,28,1
MW-K-33K33S2,1100,experiment,70,↓,down,↓,0.5337761000264436,True,28,1
MW-K-33K33S2,1101,experiment,82,→,right,→,0.5494602001272142,True,28,1
MW-K-33K33S2,1102,experiment,95,↓,down,↓,0.6394483000040054,True,28,1
MW-K-33K33S2,1103,experiment,54,←,left,←,0.4673628001473844,True,28,1
MW-K-33K33S2,1104,experiment,68,←,left,←,1.2977491000201553,True,28,1
MW-K-33K33S2,1105,experiment,97,←,left,←,0.445106300059706,True,28,1
MW-K-33K33S2,1106,experiment,69,→,left,←,0.3670993000268936,False,28,1
MW-K-33K33S2,1107,experiment,72,↓,down,↓,0.628507899818942,True,28,0
MW-K-33K33S2,1108,experiment,106,↑,down,↓,0.7039135999511927,False,28,1
MW-K-33K33S2,1109,experiment,58,↓,up,↑,0.5519522000104189,False,28,1
MW-K-33K33S2,1110,experiment,87,←,left,←,0.500874700024724,True,28,1
MW-K-33K33S2,1111,experiment,74,↑,up,↑,0.46351150004193187,True,28,1
MW-K-33K33S2,1112,training,61,→,right,→,0.5895810001529753,True,28,0
MW-K-33K33S2,1113,training,49,←,left,←,0.6377526000142097,True,28,1
MW-K-33K33S2,1114,experiment,70,↑,up,↑,0.5644129000138491,True,28,1
MW-K-33K33S2,1115,experiment,65,↑,up,↑,0.7675085000228137,True,28,1
MW-K-33K33S2,1116,experiment,64,↑,up,↑,0.547507300041616,True,28,1
MW-K-33K33S2,1117,experiment,96,↑,up,↑,0.5332460000645369,True,28,1
MW-K-33K33S2,1118,experiment,90,↑,up,↑,1.4735668001230806,True,28,1
MW-K-33K33S2,1119,experiment,81,↓,down,↓,0.6831219000741839,True,28,1
MW-K-33K33S2,1120,experiment,67,↓,down,↓,0.5448094001039863,True,28,1
MW-K-33K33S2,1121,experiment,104,↓,down,↓,0.5764615000225604,True,28,1
MW-K-33K33S2,1122,experiment,107,→,right,→,0.5093332000542432,True,28,1
MW-K-33K33S2,1123,experiment,56,↑,down,↓,0.638113500084728,False,28,1
MW-K-33K33S2,1124,experiment,73,←,left,←,0.49155439995229244,True,28,1
MW-K-33K33S2,1125,experiment,63,↓,down,↓,0.4589547999203205,True,28,1
MW-K-33K33S2,1126,experiment,83,↓,down,↓,0.4605868998914957,True,28,1
MW-K-33K33S2,1127,experiment,50,←,left,←,0.5695305000990629,True,28,1
MW-K-33K33S2,1128,experiment,68,←,left,←,0.4678895999677479,True,28,1
MW-K-33K33S2,1129,experiment,82,→,right,→,0.6856790999881923,True,28,1
MW-K-33K33S2,1130,experiment,84,↓,down,↓,0.5901817998383194,True,28,1
MW-K-33K33S2,1131,experiment,103,→,right,→,0.6199360999744385,True,28,1
MW-K-33K33S2,1132,experiment,80,→,right,→,0.6400865998584777,True,28,1
MW-K-33K33S2,1133,experiment,75,↑,up,↑,0.4851617000531405,True,28,1
MW-K-33K33S2,1134,experiment,92,↑,down,↓,0.6987846998963505,False,28,1
MW-K-33K33S2,1135,experiment,74,←,left,←,0.5818062000907958,True,28,1
MW-K-33K33S2,1136,experiment,78,←,left,←,0.6763563000131398,True,28,1
MW-K-33K33S2,1137,experiment,85,↑,up,↑,0.49270339985378087,True,28,1
MW-K-33K33S2,1138,experiment,100,←,left,←,0.5433836998417974,True,28,1
MW-K-33K33S2,1139,experiment,69,↓,up,↑,0.6985919000580907,False,28,1
MW-K-33K33S2,1140,experiment,51,→,right,→,0.5410754000768065,True,28,1
MW-K-33K33S2,1141,experiment,61,→,right,→,0.6029028000775725,True,28,1
MW-K-33K33S2,1142,experiment,72,↑,down,↓,0.7387390001676977,False,28,1
MW-K-33K33S2,1143,experiment,87,↓,down,↓,0.5436159002128989,True,28,1
MW-K-33K33S2,1144,experiment,88,↑,down,↓,1.0359653001651168,False,28,1
MW-K-33K33S2,1145,experiment,53,↑,up,↑,0.46491390001028776,True,28,1
MW-K-33K33S2,1146,experiment,48,←,left,←,0.6619317000731826,True,28,1
MW-K-33K33S2,1147,experiment,59,→,right,→,0.6474915000144392,True,28,1
MW-K-33K33S2,1148,experiment,93,→,right,→,0.5340534001588821,True,28,1
MW-K-33K33S2,1149,experiment,102,←,left,←,0.4942592999432236,True,28,1
MW-K-33K33S2,1150,experiment,62,→,left,←,0.6695749000646174,False,28,1
MW-K-33K33S2,1151,experiment,77,→,right,→,0.5929346999619156,True,28,1
MW-K-33K33S2,1152,experiment,71,←,left,←,0.4812345001846552,True,28,1
MW-K-33K33S2,1153,experiment,86,←,left,←,0.48106510005891323,True,28,1
MW-K-33K33S2,1154,experiment,105,↑,up,↑,0.650510499952361,True,28,1
MW-K-33K33S2,1155,experiment,60,↓,down,↓,0.5800594000611454,True,28,1
MW-K-33K33S2,1156,experiment,57,→,right,→,0.5616381999570876,True,28,1
MW-K-33K33S2,1157,experiment,98,←,left,←,0.5143124000169337,True,28,1
MW-K-33K33S2,1158,experiment,97,→,right,→,0.48498490010388196,True,28,1
MW-K-33K33S2,1159,experiment,89,↑,up,↑,0.6116543000098318,True,28,1
MW-K-33K33S2,1160,experiment,108,→,right,→,0.6149356998503208,True,28,1
MW-K-33K33S2,1161,experiment,52,↓,down,↓,0.5808984998147935,True,28,1
MW-K-33K33S2,1162,experiment,58,↓,down,↓,0.5860136998817325,True,28,1
MW-K-33K33S2,1163,experiment,55,↓,down,↓,0.5280295999255031,True,28,1
MW-K-33K33S2,1164,experiment,101,↑,up,↑,0.47306959982961416,True,28,1
MW-K-33K33S2,1165,experiment,99,↑,up,↑,0.6286257999017835,True,28,1
MW-K-33K33S2,1166,experiment,79,→,right,→,0.5847950999159366,True,28,1
MW-K-33K33S2,1167,experiment,54,↓,down,↓,0.5673076999373734,True,28,1
MW-K-33K33S2,1168,experiment,94,↑,up,↑,0.5849650001619011,True,28,1
MW-K-33K33S2,1169,experiment,106,↑,up,↑,0.5977135999128222,True,28,1
MW-K-33K33S2,1170,experiment,66,←,left,←,0.5035682001616806,True,28,1
MW-K-33K33S2,1171,experiment,76,→,right,→,0.6342076000291854,True,28,1
MW-K-33K33S2,1172,experiment,91,↓,down,↓,0.7062419999856502,True,28,1
MW-K-33K33S2,1173,experiment,49,↓,down,↓,0.6053466000594199,True,28,1
MW-K-33K33S2,1174,experiment,95,↓,down,↓,0.6291706999763846,True,28,1
MW-K-33K33S2,1175,training,91,←,left,←,0.5450520000886172,True,28,0
MW-K-33K33S2,1176,training,101,←,left,←,0.4574895000550896,True,28,1
MW-K-33K33S2,1177,experiment,101,↑,up,↑,0.4690243999939412,True,28,1
MW-K-33K33S2,1178,experiment,96,→,right,→,0.4898649000097066,True,28,1
MW-K-33K33S2,1179,experiment,48,↑,up,↑,0.44602079992182553,True,28,1
MW-K-33K33S2,1180,experiment,57,↓,down,↓,0.7048031999729574,True,28,1
MW-K-33K33S2,1181,experiment,69,↓,down,↓,0.60498489998281,True,28,1
MW-K-33K33S2,1182,experiment,103,↓,down,↓,0.601970599964261,True,28,1
MW-K-33K33S2,1183,experiment,76,→,right,→,0.4724937002174556,True,28,1
MW-K-33K33S2,1184,experiment,83,→,right,→,0.5055913999676704,True,28,1
MW-K-33K33S2,1185,experiment,104,↓,down,↓,0.6183158999774605,True,28,1
MW-K-33K33S2,1186,experiment,77,→,right,→,0.6237466000020504,True,28,1
MW-K-33K33S2,1187,experiment,94,→,right,→,0.5350717001128942,True,28,1
MW-K-33K33S2,1188,experiment,88,→,right,→,0.6602501000743359,True,28,1
MW-K-33K33S2,1189,experiment,99,↑,up,↑,0.6646177000366151,True,28,1
MW-K-33K33S2,1190,experiment,58,→,right,→,0.634370599873364,True,28,1
MW-K-33K33S2,1191,experiment,66,→,right,→,0.62653569993563,True,28,1
MW-K-33K33S2,1192,experiment,70,↑,up,↑,0.5619885998312384,True,28,1
MW-K-33K33S2,1193,experiment,63,↑,up,↑,0.5900506998877972,True,28,1
MW-K-33K33S2,1194,experiment,98,→,right,→,0.5253277998417616,True,28,1
MW-K-33K33S2,1195,experiment,64,→,right,→,0.6749734999611974,True,28,1
MW-K-33K33S2,1196,experiment,65,→,right,→,0.5857918001711369,True,28,1
MW-K-33K33S2,1197,experiment,82,↑,up,↑,0.5910064000636339,True,28,1
MW-K-33K33S2,1198,experiment,107,↑,up,↑,0.6594225999433547,True,28,1
MW-K-33K33S2,1199,experiment,80,→,right,→,0.5020213001407683,True,28,1
MW-K-33K33S2,1200,experiment,89,↓,down,↓,0.580175100127235,True,28,1
MW-K-33K33S2,1201,experiment,61,↑,up,↑,0.6883020999375731,True,28,1
MW-K-33K33S2,1202,experiment,75,↑,up,↑,0.651213499950245,True,28,1
MW-K-33K33S2,1203,experiment,74,↓,down,↓,0.6643320999573916,True,28,1
MW-K-33K33S2,1204,experiment,97,↑,up,↑,0.5491905999369919,True,28,1
MW-K-33K33S2,1205,experiment,79,←,left,←,0.6043910998851061,True,28,1
MW-K-33K33S2,1206,experiment,51,→,right,→,0.6267872001044452,True,28,1
MW-K-33K33S2,1207,experiment,50,→,right,→,0.6088560000061989,True,28,1
MW-K-33K33S2,1208,experiment,72,→,right,→,0.6003924999386072,True,28,1
MW-K-33K33S2,1209,experiment,60,←,left,←,0.6360480000730604,True,28,1
MW-K-33K33S2,1210,experiment,85,←,left,←,0.4940698000136763,True,28,1
MW-K-33K33S2,1211,experiment,91,↓,down,↓,0.6114586000330746,True,28,1
MW-K-33K33S2,1212,experiment,68,↑,up,↑,0.5322719998657703,True,28,1
MW-K-33K33S2,1213,experiment,54,←,left,←,0.6454479000531137,True,28,1
MW-K-33K33S2,1214,experiment,86,↑,up,↑,0.5175088997930288,True,28,1
MW-K-33K33S2,1215,experiment,95,→,right,→,0.5289547999855131,True,28,1
MW-K-33K33S2,1216,experiment,81,→,right,→,0.6008999000769109,True,28,1
MW-K-33K33S2,1217,experiment,90,↑,up,↑,0.4906347000505775,True,28,1
MW-K-33K33S2,1218,experiment,67,←,left,←,0.6162843001075089,True,28,1
MW-K-33K33S2,1219,experiment,106,↓,down,↓,0.5240842001512647,True,28,1
MW-K-33K33S2,1220,experiment,105,←,left,←,0.6757074000779539,True,28,1
MW-K-33K33S2,1221,experiment,100,↑,up,↑,0.45506109995767474,True,28,1
MW-K-33K33S2,1222,experiment,93,↓,down,↓,0.6853716999758035,True,28,1
MW-K-33K33S2,1223,experiment,87,↑,up,↑,0.7324369999114424,True,28,1
MW-K-33K33S2,1224,experiment,78,→,left,←,0.5647946998942643,False,28,1
MW-K-33K33S2,1225,experiment,71,←,left,←,0.6143230001907796,True,28,1
MW-K-33K33S2,1226,experiment,49,↑,up,↑,0.5972577999345958,True,28,1
MW-K-33K33S2,1227,experiment,55,↑,up,↑,0.6664333001244813,True,28,1
MW-K-33K33S2,1228,experiment,92,↑,up,↑,0.5368728002067655,True,28,1
MW-K-33K33S2,1229,experiment,84,←,left,←,0.574767499929294,True,28,1
MW-K-33K33S2,1230,experiment,59,←,left,←,0.683818900026381,True,28,1
MW-K-33K33S2,1231,experiment,73,↓,down,↓,0.5840052999556065,True,28,1
MW-K-33K33S2,1232,experiment,52,→,right,→,0.5032203998416662,True,28,1
MW-K-33K33S2,1233,experiment,108,↑,up,↑,0.4707059001084417,True,28,1
MW-K-33K33S2,1234,experiment,62,→,right,→,0.5829700001049787,True,28,1
MW-K-33K33S2,1235,experiment,56,←,left,←,0.4925944001879543,True,28,1
MW-K-33K33S2,1236,experiment,102,↑,up,↑,0.4548054998740554,True,28,1
MW-K-33K33S2,1237,experiment,53,→,right,→,0.4583519999869168,True,28,1
MW-K-33K33S2,1238,training,73,←,left,←,0.5584442999679595,True,28,0
MW-K-33K33S2,1239,training,65,←,left,←,0.6421570000238717,True,28,1
MW-K-33K33S2,1240,experiment,103,←,left,←,0.3758265001233667,True,28,1
MW-K-33K33S2,1241,experiment,54,→,right,→,0.4920141000766307,True,28,1
MW-K-33K33S2,1242,experiment,74,↑,up,↑,0.4475285999942571,True,28,1
MW-K-33K33S2,1243,experiment,100,↑,up,↑,0.45193270011805,True,28,1
MW-K-33K33S2,1244,experiment,90,←,left,←,0.4757142998278141,True,28,1
MW-K-33K33S2,1245,experiment,70,↓,down,↓,0.5771343000233173,True,28,1
MW-K-33K33S2,1246,experiment,67,↓,down,↓,0.48346609994769096,True,28,1
MW-K-33K33S2,1247,experiment,68,↑,up,↑,0.6572035001590848,True,28,1
MW-K-33K33S2,1248,experiment,94,→,right,→,0.4713692998047918,True,28,1
MW-K-33K33S2,1249,experiment,57,↑,up,↑,0.43306740000844,True,28,1
MW-K-33K33S2,1250,experiment,75,↓,down,↓,0.4943987999577075,True,28,1
MW-K-33K33S2,1251,experiment,99,↑,down,↓,0.6494756999891251,False,28,1
MW-K-33K33S2,1252,experiment,83,←,left,←,0.7155933999456465,True,28,1
MW-K-33K33S2,1253,experiment,72,↓,down,↓,0.47063550003804266,True,28,1
MW-K-33K33S2,1254,experiment,52,↓,left,←,1.1303626000881195,False,28,1
MW-K-33K33S2,1255,experiment,77,↓,down,↓,0.5789902000688016,True,28,1
MW-K-33K33S2,1256,experiment,79,↑,up,↑,0.5611070001032203,True,28,1
MW-K-33K33S2,1257,experiment,101,↓,down,↓,0.528868299908936,True,28,1
MW-K-33K33S2,1258,experiment,86,→,right,→,0.4705266999080777,True,28,1
MW-K-33K33S2,1259,experiment,58,←,right,→,0.58386250003241,False,28,1
MW-K-33K33S2,1260,experiment,69,←,left,←,0.5534127000719309,True,28,1
MW-K-33K33S2,1261,experiment,89,→,right,→,0.5013286999892443,True,28,1
MW-K-33K33S2,1262,experiment,66,→,right,→,0.4601496998220682,True,28,1
MW-K-33K33S2,1263,experiment,65,↑,up,↑,0.43495220015756786,True,28,1
MW-K-33K33S2,1264,experiment,50,←,left,←,0.5446339999325573,True,28,1
MW-K-33K33S2,1265,experiment,55,→,right,→,0.47208609990775585,True,28,1
MW-K-33K33S2,1266,experiment,95,→,right,→,0.509249199880287,True,28,1
MW-K-33K33S2,1267,experiment,88,→,right,→,0.5632036000024527,True,28,1
MW-K-33K33S2,1268,experiment,87,↑,up,↑,0.4873761001508683,True,28,1
MW-K-33K33S2,1269,experiment,60,→,right,→,0.6555758998729289,True,28,1
MW-K-33K33S2,1270,experiment,78,→,right,→,0.5545598000753671,True,28,1
MW-K-33K33S2,1271,experiment,82,↑,up,↑,0.5127967000007629,True,28,1
MW-K-33K33S2,1272,experiment,107,←,left,←,0.5921976000536233,True,28,1
MW-K-33K33S2,1273,experiment,64,↓,up,↑,0.6029503000900149,False,28,1
MW-K-33K33S2,1274,experiment,59,↓,down,↓,0.614979499951005,True,28,1
MW-K-33K33S2,1275,experiment,61,←,left,←,0.6095400000922382,True,28,1
MW-K-33K33S2,1276,experiment,51,↓,down,↓,0.5922777000814676,True,28,1
MW-K-33K33S2,1277,experiment,92,←,left,←,0.641600799979642,True,28,1
MW-K-33K33S2,1278,experiment,105,←,left,←,0.5244686000514776,True,28,1
MW-K-33K33S2,1279,experiment,97,→,right,→,0.6390977997798473,True,28,1
MW-K-33K33S2,1280,experiment,63,←,left,←,0.5041076000779867,True,28,1
MW-K-33K33S2,1281,experiment,81,↓,down,↓,0.49663970014080405,True,28,1
MW-K-33K33S2,1282,experiment,84,←,left,←,0.5922055998817086,True,28,1
MW-K-33K33S2,1283,experiment,76,↓,down,↓,0.582872600061819,True,28,1
MW-K-33K33S2,1284,experiment,71,←,left,←,0.5435568999964744,True,28,1
MW-K-33K33S2,1285,experiment,108,↑,left,←,0.5337406999897212,False,28,1
MW-K-33K33S2,1286,experiment,96,↑,left,←,0.5679492999333888,False,28,1
MW-K-33K33S2,1287,experiment,98,←,left,←,0.4723620000295341,True,28,1
MW-K-33K33S2,1288,experiment,48,↓,down,↓,0.4774060999043286,True,28,1
MW-K-33K33S2,1289,experiment,85,→,right,→,0.5175350001081824,True,28,1
MW-K-33K33S2,1290,experiment,102,←,left,←,0.5903364000841975,True,28,1
MW-K-33K33S2,1291,experiment,73,←,left,←,0.589961800025776,True,28,1
MW-K-33K33S2,1292,experiment,93,↑,up,↑,0.5590870999731123,True,28,1
MW-K-33K33S2,1293,experiment,53,↑,up,↑,0.6388952999841422,True,28,1
MW-K-33K33S2,1294,experiment,49,←,left,←,0.5724063999950886,True,28,1
MW-K-33K33S2,1295,experiment,80,↓,down,↓,0.6588530999142677,True,28,1
MW-K-33K33S2,1296,experiment,106,↓,down,↓,0.6046023999806494,True,28,1
MW-K-33K33S2,1297,experiment,62,←,left,←,0.6236998999956995,True,28,1
MW-K-33K33S2,1298,experiment,104,←,left,←,0.5234580999240279,True,28,1
MW-K-33K33S2,1299,experiment,91,→,right,→,0.5518634000327438,True,28,1
MW-K-33K33S2,1300,experiment,56,→,right,→,0.486922699958086,True,28,1
MW-K-33K33S2,1301,training,92,→,no_key,no_letter,-1.0,False,28,0
MW-K-33K33S2,1302,training,60,→,right,→,0.5620552999898791,True,28,1
MW-K-33K33S2,1303,experiment,55,↓,up,↑,0.7208450001198798,False,28,1
MW-K-33K33S2,1304,experiment,80,↓,down,↓,0.6409416000824422,True,28,1
MW-K-33K33S2,1305,experiment,65,→,right,→,0.5293048999737948,True,28,1
MW-K-33K33S2,1306,experiment,72,←,left,←,0.60362090007402,True,28,1
MW-K-33K33S2,1307,experiment,48,↓,down,↓,0.4911331001203507,True,28,1
MW-K-33K33S2,1308,experiment,106,←,left,←,0.6040006000548601,True,28,1
MW-K-33K33S2,1309,experiment,81,←,left,←,0.4884311000350863,True,28,1
MW-K-33K33S2,1310,experiment,57,←,left,←,0.5135519001632929,True,28,1
MW-K-33K33S2,1311,experiment,63,↑,up,↑,0.45563410012982786,True,28,1
MW-K-33K33S2,1312,experiment,54,→,right,→,0.6592752998694777,True,28,1
MW-K-33K33S2,1313,experiment,88,↓,up,↑,0.7793235999997705,False,28,1
MW-K-33K33S2,1314,experiment,56,↓,down,↓,0.5374549000989646,True,28,1
MW-K-33K33S2,1315,experiment,86,↓,down,↓,0.487084100022912,True,28,1
MW-K-33K33S2,1316,experiment,49,↑,up,↑,0.4508867999538779,True,28,1
MW-K-33K33S2,1317,experiment,83,→,right,→,0.5409466000273824,True,28,1
MW-K-33K33S2,1318,experiment,99,↓,down,↓,0.5820859998930246,True,28,1
MW-K-33K33S2,1319,experiment,95,↑,up,↑,0.49455430009402335,True,28,1
MW-K-33K33S2,1320,experiment,61,→,right,→,0.43847170006483793,True,28,1
MW-K-33K33S2,1321,experiment,101,←,left,←,0.5227934999857098,True,28,1
MW-K-33K33S2,1322,experiment,96,←,left,←,0.4375345997978002,True,28,1
MW-K-33K33S2,1323,experiment,68,←,left,←,0.4292790999170393,True,28,1
MW-K-33K33S2,1324,experiment,74,↓,down,↓,0.6271135001443326,True,28,1
MW-K-33K33S2,1325,experiment,50,→,right,→,0.4648716999217868,True,28,1
MW-K-33K33S2,1326,experiment,51,↓,down,↓,0.5808062998112291,True,28,1
MW-K-33K33S2,1327,experiment,75,←,left,←,0.46823849994689226,True,28,1
MW-K-33K33S2,1328,experiment,94,↑,down,↓,0.5219113000202924,False,28,1
MW-K-33K33S2,1329,experiment,100,←,left,←,0.4754949000198394,True,28,1
MW-K-33K33S2,1330,experiment,69,↑,up,↑,0.4329719999805093,True,28,1
MW-K-33K33S2,1331,experiment,60,↑,up,↑,0.4355804000515491,True,28,1
MW-K-33K33S2,1332,experiment,78,↑,up,↑,0.36826150002889335,True,28,1
MW-K-33K33S2,1333,experiment,97,←,left,←,0.47197030019015074,True,28,0
MW-K-33K33S2,1334,experiment,90,→,right,→,0.4551967999432236,True,28,1
MW-K-33K33S2,1335,experiment,52,←,right,→,0.530744899995625,False,28,1
MW-K-33K33S2,1336,experiment,103,↓,down,↓,0.5629205000586808,True,28,1
MW-K-33K33S2,1337,experiment,98,↓,down,↓,0.5713373001199216,True,28,1
MW-K-33K33S2,1338,experiment,73,↓,down,↓,0.5561003000475466,True,28,1
MW-K-33K33S2,1339,experiment,89,↓,down,↓,0.49584630015306175,True,28,1
MW-K-33K33S2,1340,experiment,102,→,right,→,0.593451099935919,True,28,1
MW-K-33K33S2,1341,experiment,70,↓,down,↓,0.5465057999826968,True,28,1
MW-K-33K33S2,1342,experiment,93,↑,down,↓,0.5408416998106986,False,28,1
MW-K-33K33S2,1343,experiment,53,→,right,→,0.45332229998894036,True,28,1
MW-K-33K33S2,1344,experiment,92,↓,down,↓,0.46025440003722906,True,28,1
MW-K-33K33S2,1345,experiment,67,↑,up,↑,0.4754979000426829,True,28,1
MW-K-33K33S2,1346,experiment,108,↑,up,↑,0.4841426000930369,True,28,1
MW-K-33K33S2,1347,experiment,59,→,right,→,0.5093619001563638,True,28,1
MW-K-33K33S2,1348,experiment,66,↓,down,↓,0.5864705999847502,True,28,1
MW-K-33K33S2,1349,experiment,62,↑,up,↑,0.5337952999398112,True,28,1
MW-K-33K33S2,1350,experiment,85,↑,up,↑,0.5717749998439103,True,28,1
MW-K-33K33S2,1351,experiment,87,↑,up,↑,0.4397766999900341,True,28,1
MW-K-33K33S2,1352,experiment,82,→,up,↑,0.6743991000112146,False,28,1
MW-K-33K33S2,1353,experiment,64,←,left,←,0.6577384998090565,True,28,1
MW-K-33K33S2,1354,experiment,71,→,right,→,0.6234587000217289,True,28,1
MW-K-33K33S2,1355,experiment,105,↓,up,↑,0.7952167000621557,False,28,1
MW-K-33K33S2,1356,experiment,84,→,right,→,0.5592046999372542,True,28,1
MW-K-33K33S2,1357,experiment,77,↑,up,↑,0.5508910999633372,True,28,1
MW-K-33K33S2,1358,experiment,104,↓,down,↓,0.5099393001291901,True,28,1
MW-K-33K33S2,1359,experiment,76,→,right,→,0.49601060012355447,True,28,1
MW-K-33K33S2,1360,experiment,58,↑,up,↑,0.4643950001336634,True,28,1
MW-K-33K33S2,1361,experiment,79,→,right,→,0.45104010007344186,True,28,1
MW-K-33K33S2,1362,experiment,91,→,right,→,0.49050899990834296,True,28,1
MW-K-33K33S2,1363,experiment,107,↑,up,↑,0.5869605999905616,True,28,1
MW-K-33K33S2,1364,training,81,↓,down,↓,0.5269043000880629,True,28,0
MW-K-33K33S2,1365,training,81,↑,down,↓,0.5343265999108553,False,28,1
MW-K-33K33S2,1366,experiment,82,↑,up,↑,0.5576675001066178,True,28,1
MW-K-33K33S2,1367,experiment,107,→,right,→,0.5952922999858856,True,28,1
MW-K-33K33S2,1368,experiment,84,↓,down,↓,0.5351036998908967,True,28,1
MW-K-33K33S2,1369,experiment,87,↑,down,↓,0.5486437999643385,False,28,1
MW-K-33K33S2,1370,experiment,90,→,right,→,0.46422789990901947,True,28,1
MW-K-33K33S2,1371,experiment,72,→,right,→,0.45361210010014474,True,28,1
MW-K-33K33S2,1372,experiment,55,←,left,←,0.4966652998700738,True,28,1
MW-K-33K33S2,1373,experiment,91,↓,down,↓,0.509744199924171,True,28,1
MW-K-33K33S2,1374,experiment,66,↑,down,↓,0.6031954998616129,False,28,1
MW-K-33K33S2,1375,experiment,70,→,right,→,0.5234763000626117,True,28,1
MW-K-33K33S2,1376,experiment,57,↑,down,↓,0.5395318998489529,False,28,1
MW-K-33K33S2,1377,experiment,61,↓,down,↓,0.4811215999070555,True,28,1
MW-K-33K33S2,1378,experiment,59,↓,down,↓,0.5139846000820398,True,28,1
MW-K-33K33S2,1379,experiment,92,↑,down,↓,0.5662551000714302,False,28,1
MW-K-33K33S2,1380,experiment,54,←,left,←,0.7892128000967205,True,28,1
MW-K-33K33S2,1381,experiment,75,→,right,→,0.564477700041607,True,28,1
MW-K-33K33S2,1382,experiment,98,←,left,←,0.4768088001292199,True,28,1
MW-K-33K33S2,1383,experiment,99,←,left,←,0.4965536000672728,True,28,1
MW-K-33K33S2,1384,experiment,51,→,right,→,0.6512482999823987,True,28,1
MW-K-33K33S2,1385,experiment,101,↑,up,↑,0.45562669984064996,True,28,1
MW-K-33K33S2,1386,experiment,58,↓,down,↓,0.4973377001006156,True,28,1
MW-K-33K33S2,1387,experiment,80,→,left,←,0.6587507000658661,False,28,1
MW-K-33K33S2,1388,experiment,95,→,left,←,0.5203412999399006,False,28,1
MW-K-33K33S2,1389,experiment,63,↓,left,←,0.4701226002071053,False,28,1
MW-K-33K33S2,1390,experiment,56,→,left,←,0.4405800001695752,False,28,1
MW-K-33K33S2,1391,experiment,94,←,left,←,0.5596370999701321,True,28,1
MW-K-33K33S2,1392,experiment,77,↓,right,→,0.7352682999335229,False,28,1
MW-K-33K33S2,1393,experiment,73,→,right,→,0.4411806999705732,True,28,1
MW-K-33K33S2,1394,experiment,83,↑,left,←,1.1475823998916894,False,28,1
MW-K-33K33S2,1395,experiment,93,→,right,→,0.47018099995329976,True,28,1
MW-K-33K33S2,1396,experiment,100,↑,up,↑,0.4338204001542181,True,28,1
MW-K-33K33S2,1397,experiment,103,↓,down,↓,0.43003569985739887,True,28,1
MW-K-33K33S2,1398,experiment,76,→,right,→,0.5391036001965404,True,28,1
MW-K-33K33S2,1399,experiment,96,↓,down,↓,0.4534440999850631,True,28,1
MW-K-33K33S2,1400,experiment,85,↓,down,↓,0.45418539992533624,True,28,1
MW-K-33K33S2,1401,experiment,97,→,right,→,0.5473913000896573,True,28,1
MW-K-33K33S2,1402,experiment,88,→,right,→,0.43979179998859763,True,28,1
MW-K-33K33S2,1403,experiment,86,←,right,→,0.6010372000746429,False,28,1
