PART_ID,Trial_no,Trial_type,CSI,Stim_letter,Key_pressed,letter_choose,Rt,Corr,Stimulus Time,nDropped
PO-M-22M22S2,1,training,120,→,right,→,0.5174985998310149,True,60,0
PO-M-22M22S2,2,training,120,↑,up,↑,0.5258088000118732,True,60,0
PO-M-22M22S2,3,training,120,←,left,←,0.5758028000127524,True,60,0
PO-M-22M22S2,4,training,120,↑,up,↑,0.4924460998736322,True,60,0
PO-M-22M22S2,5,training,120,↓,down,↓,0.6342545000370592,True,60,0
PO-M-22M22S2,6,training,120,→,right,→,0.5589216998778284,True,60,0
PO-M-22M22S2,7,training,120,↑,up,↑,0.6693316998425871,True,60,0
PO-M-22M22S2,8,training,120,←,left,←,0.5840473000425845,True,60,0
PO-M-22M22S2,9,training,120,↓,down,↓,0.58386420016177,True,60,0
PO-M-22M22S2,10,training,120,↓,down,↓,0.43518440006300807,True,60,0
PO-M-22M22S2,11,training,120,↑,up,↑,0.5507605001330376,True,60,0
PO-M-22M22S2,12,training,120,→,right,→,0.550994300050661,True,60,0
PO-M-22M22S2,13,training,120,→,right,→,1.044969900045544,True,60,0
PO-M-22M22S2,14,training,120,↑,up,↑,0.5012882000301033,True,60,0
PO-M-22M22S2,15,training,120,↑,up,↑,0.5100515000522137,True,60,0
PO-M-22M22S2,16,training,120,↓,down,↓,0.5171670001000166,True,60,0
PO-M-22M22S2,17,training,120,↓,down,↓,0.8972737998701632,True,60,0
PO-M-22M22S2,18,training,120,←,left,←,0.5018309999722987,True,60,0
PO-M-22M22S2,19,training,120,↑,up,↑,0.4348887000232935,True,60,0
PO-M-22M22S2,20,training,120,→,right,→,0.47007869998924434,True,60,0
PO-M-22M22S2,21,no_adaptation,120,↓,down,↓,0.5189134997781366,True,36,0
PO-M-22M22S2,22,no_adaptation,120,↑,up,↑,0.9689579999540001,True,36,0
PO-M-22M22S2,23,no_adaptation,120,↑,up,↑,0.5614479000214487,True,36,0
PO-M-22M22S2,24,no_adaptation,120,←,left,←,0.5537286000326276,True,36,0
PO-M-22M22S2,25,no_adaptation,120,→,right,→,0.4257880998775363,True,36,0
PO-M-22M22S2,26,no_adaptation,120,↑,up,↑,0.5443454999476671,True,36,0
PO-M-22M22S2,27,no_adaptation,120,→,left,←,0.7856973998714238,False,36,0
PO-M-22M22S2,28,no_adaptation,120,↓,down,↓,0.6011746001895517,True,36,0
PO-M-22M22S2,29,no_adaptation,120,↑,up,↑,0.504210100043565,True,36,0
PO-M-22M22S2,30,no_adaptation,120,↑,no_key,no_letter,-1.0,False,36,0
PO-M-22M22S2,31,no_adaptation,120,→,right,→,0.4913238000590354,True,36,0
PO-M-22M22S2,32,no_adaptation,120,←,left,←,0.5827361000701785,True,36,0
PO-M-22M22S2,33,no_adaptation,120,→,right,→,0.471315799979493,True,36,0
PO-M-22M22S2,34,no_adaptation,120,↓,down,↓,0.4342785000335425,True,36,0
PO-M-22M22S2,35,no_adaptation,120,↓,down,↓,0.4424521999899298,True,36,0
PO-M-22M22S2,36,no_adaptation,120,←,left,←,0.4171935000922531,True,36,0
PO-M-22M22S2,37,no_adaptation,120,↓,down,↓,0.4256301000714302,True,36,0
PO-M-22M22S2,38,no_adaptation,120,↓,down,↓,0.5933606999460608,True,36,0
PO-M-22M22S2,39,no_adaptation,120,←,left,←,0.4814303999301046,True,36,0
PO-M-22M22S2,40,no_adaptation,120,←,left,←,0.3587927999906242,True,36,0
PO-M-22M22S2,41,training,85,→,right,→,0.5681220998521894,True,36,0
PO-M-22M22S2,42,training,79,↑,up,↑,0.442158600082621,True,36,1
PO-M-22M22S2,43,experiment,54,→,right,→,0.5950768000911921,True,36,0
PO-M-22M22S2,44,experiment,64,←,left,←,0.3340602000243962,True,36,1
PO-M-22M22S2,45,experiment,80,→,right,→,0.4089055999647826,True,36,0
PO-M-22M22S2,46,experiment,66,↑,up,↑,0.3674107000697404,True,36,0
PO-M-22M22S2,47,experiment,100,→,right,→,0.5413452000357211,True,36,0
PO-M-22M22S2,48,experiment,90,←,left,←,0.4816824998706579,True,36,1
PO-M-22M22S2,49,experiment,72,↑,up,↑,1.5737493000924587,True,36,1
PO-M-22M22S2,50,experiment,93,←,left,←,0.5593977998942137,True,36,1
PO-M-22M22S2,51,experiment,92,↓,down,↓,0.4340003998950124,True,36,1
PO-M-22M22S2,52,experiment,61,→,right,→,0.4090867000631988,True,36,0
PO-M-22M22S2,53,experiment,108,↑,up,↑,0.5671401999425143,True,36,0
PO-M-22M22S2,54,experiment,102,→,right,→,0.877763400087133,True,36,1
PO-M-22M22S2,55,experiment,67,←,left,←,0.5643774999771267,True,36,1
PO-M-22M22S2,56,experiment,49,↓,down,↓,0.5810591001063585,True,36,1
PO-M-22M22S2,57,experiment,85,↑,up,↑,0.49729220010340214,True,36,1
PO-M-22M22S2,58,experiment,75,←,left,←,0.43389629991725087,True,36,1
PO-M-22M22S2,59,experiment,107,↓,down,↓,1.398698200006038,True,36,0
PO-M-22M22S2,60,experiment,88,↓,down,↓,0.7366741998121142,True,36,1
PO-M-22M22S2,61,experiment,62,↓,right,→,0.8783890998456627,False,36,1
PO-M-22M22S2,62,experiment,57,↑,up,↑,0.5040082999039441,True,36,1
PO-M-22M22S2,63,experiment,79,→,right,→,0.6331565000582486,True,36,1
PO-M-22M22S2,64,experiment,76,↓,down,↓,0.6059622999746352,True,36,1
PO-M-22M22S2,65,experiment,91,←,left,←,0.5273444999475032,True,36,1
PO-M-22M22S2,66,experiment,101,↓,down,↓,0.5202703000977635,True,36,1
PO-M-22M22S2,67,experiment,71,↓,down,↓,0.39280829997733235,True,36,1
PO-M-22M22S2,68,experiment,105,↓,down,↓,0.40822979994118214,True,36,0
PO-M-22M22S2,69,experiment,86,↓,no_key,no_letter,-1.0,False,36,0
PO-M-22M22S2,70,experiment,50,↓,down,↓,0.5869232001714408,True,36,1
PO-M-22M22S2,71,experiment,84,←,left,←,0.5753263998776674,True,36,1
PO-M-22M22S2,72,experiment,106,←,left,←,0.836674900026992,True,36,1
PO-M-22M22S2,73,experiment,98,↑,up,↑,0.6743343998678029,True,36,1
PO-M-22M22S2,74,experiment,60,↓,down,↓,0.5234746998175979,True,36,1
PO-M-22M22S2,75,experiment,51,→,right,→,0.7730270000174642,True,36,1
PO-M-22M22S2,76,experiment,78,↑,up,↑,0.5634934999980032,True,36,1
PO-M-22M22S2,77,experiment,94,↑,up,↑,0.5176343000493944,True,36,1
PO-M-22M22S2,78,experiment,68,→,right,→,0.4822426000609994,True,36,1
PO-M-22M22S2,79,experiment,103,↓,down,↓,0.44242209987714887,True,36,1
PO-M-22M22S2,80,experiment,97,↓,down,↓,0.43454420007765293,True,36,0
PO-M-22M22S2,81,experiment,81,↓,down,↓,0.4683926999568939,True,36,0
PO-M-22M22S2,82,experiment,99,↑,up,↑,0.42556370003148913,True,36,0
PO-M-22M22S2,83,experiment,65,↑,up,↑,0.5288241999223828,True,36,0
PO-M-22M22S2,84,experiment,104,↓,down,↓,0.6247009001672268,True,36,1
PO-M-22M22S2,85,experiment,95,↓,down,↓,0.4094879000913352,True,36,1
PO-M-22M22S2,86,experiment,87,↑,up,↑,0.5458486001007259,True,36,0
PO-M-22M22S2,87,experiment,59,←,up,↑,0.8639998000580817,False,36,1
PO-M-22M22S2,88,experiment,96,↓,down,↓,0.3995817999821156,True,36,1
PO-M-22M22S2,89,experiment,56,↓,down,↓,0.5778200998902321,True,36,0
PO-M-22M22S2,90,experiment,69,←,no_key,no_letter,-1.0,False,36,1
PO-M-22M22S2,91,experiment,63,←,right,→,0.6472973998170346,False,36,1
PO-M-22M22S2,92,experiment,77,→,right,→,0.5235790000297129,True,36,1
PO-M-22M22S2,93,experiment,58,↓,down,↓,0.7867733999155462,True,36,1
PO-M-22M22S2,94,experiment,55,←,no_key,no_letter,-1.0,False,36,1
PO-M-22M22S2,95,experiment,53,↑,up,↑,0.5123264000285417,True,36,1
PO-M-22M22S2,96,experiment,70,←,no_key,no_letter,-1.0,False,36,1
PO-M-22M22S2,97,experiment,74,↓,down,↓,0.612013400066644,True,36,1
PO-M-22M22S2,98,experiment,82,→,left,←,0.44208579999394715,False,36,1
PO-M-22M22S2,99,experiment,73,↓,down,↓,0.5095426000189036,True,36,0
PO-M-22M22S2,100,experiment,48,→,right,→,0.48943810001946986,True,36,1
PO-M-22M22S2,101,experiment,83,←,left,←,0.409926800057292,True,36,1
PO-M-22M22S2,102,experiment,52,↓,down,↓,1.1107909001875669,True,36,0
PO-M-22M22S2,103,experiment,89,↓,down,↓,1.236376500222832,True,36,1
PO-M-22M22S2,104,training,59,↓,down,↓,0.44233440002426505,True,36,0
PO-M-22M22S2,105,training,81,↑,up,↑,0.5761267000343651,True,36,0
PO-M-22M22S2,106,experiment,95,↓,down,↓,0.4260090999305248,True,36,1
PO-M-22M22S2,107,experiment,78,↑,up,↑,0.3671500999480486,True,36,0
PO-M-22M22S2,108,experiment,103,↑,up,↑,0.5716868001036346,True,36,0
PO-M-22M22S2,109,experiment,75,→,right,→,0.5875599998980761,True,36,1
PO-M-22M22S2,110,experiment,100,←,left,←,0.6022289998363703,True,36,1
PO-M-22M22S2,111,experiment,66,←,left,←,0.708113000029698,True,36,1
PO-M-22M22S2,112,experiment,83,↓,down,↓,0.5317014001775533,True,36,1
PO-M-22M22S2,113,experiment,99,↑,up,↑,0.43430460011586547,True,36,1
PO-M-22M22S2,114,experiment,89,←,no_key,no_letter,-1.0,False,36,0
PO-M-22M22S2,115,experiment,107,→,right,→,0.5308145999442786,True,36,1
PO-M-22M22S2,116,experiment,62,↑,up,↑,0.36740759992972016,True,36,1
PO-M-22M22S2,117,experiment,68,↓,down,↓,0.5948777000885457,True,36,0
PO-M-22M22S2,118,experiment,61,←,left,←,0.4089873000048101,True,36,1
PO-M-22M22S2,119,experiment,70,→,right,→,0.502040000166744,True,36,0
PO-M-22M22S2,120,experiment,67,↑,up,↑,0.44262890005484223,True,36,1
PO-M-22M22S2,121,experiment,53,→,right,→,0.5434677000157535,True,36,0
PO-M-22M22S2,122,experiment,52,↑,up,↑,0.5201770002022386,True,36,1
PO-M-22M22S2,123,experiment,88,↑,no_key,no_letter,-1.0,False,36,1
PO-M-22M22S2,124,experiment,104,↓,down,↓,0.6681816999334842,True,36,1
PO-M-22M22S2,125,experiment,81,←,left,←,0.4172072000801563,True,36,1
PO-M-22M22S2,126,experiment,54,→,right,→,0.4990755000617355,True,36,0
PO-M-22M22S2,127,experiment,92,↑,up,↑,0.4340482000261545,True,36,1
PO-M-22M22S2,128,experiment,59,↑,up,↑,0.5546315999235958,True,36,0
PO-M-22M22S2,129,experiment,106,→,right,→,1.1684053998906165,True,36,1
PO-M-22M22S2,130,experiment,101,↓,left,←,1.1916670999489725,False,36,1
PO-M-22M22S2,131,experiment,64,←,left,←,1.4343762998469174,True,36,1
PO-M-22M22S2,132,experiment,56,←,left,←,1.8538977999705821,True,36,1
PO-M-22M22S2,133,experiment,102,→,left,←,0.7855924000032246,False,36,1
PO-M-22M22S2,134,experiment,90,→,no_key,no_letter,-1.0,False,36,1
PO-M-22M22S2,135,experiment,94,↑,up,↑,0.6373980001080781,True,36,1
PO-M-22M22S2,136,experiment,105,←,left,←,0.4260087001603097,True,36,1
PO-M-22M22S2,137,experiment,48,↑,left,←,0.8227884999942034,False,36,0
PO-M-22M22S2,138,experiment,74,←,left,←,0.6128887000959367,True,36,1
PO-M-22M22S2,139,experiment,86,↑,up,↑,0.5434844999108464,True,36,1
PO-M-22M22S2,140,experiment,73,→,right,→,0.41798279993236065,True,36,1
PO-M-22M22S2,141,experiment,87,→,right,→,0.49072990007698536,True,36,0
PO-M-22M22S2,142,experiment,55,↓,down,↓,0.5482777000870556,True,36,1
PO-M-22M22S2,143,experiment,51,↑,up,↑,0.4340902999974787,True,36,1
PO-M-22M22S2,144,experiment,97,↑,up,↑,0.5468127001076937,True,36,0
PO-M-22M22S2,145,experiment,50,←,left,←,0.35095089999958873,True,36,1
PO-M-22M22S2,146,experiment,58,↑,up,↑,0.38325800001621246,True,36,0
PO-M-22M22S2,147,experiment,69,→,right,→,0.3841210000682622,True,36,0
PO-M-22M22S2,148,experiment,49,↑,up,↑,0.40824280004017055,True,36,0
PO-M-22M22S2,149,experiment,91,←,left,←,0.5235693000722677,True,36,0
PO-M-22M22S2,150,experiment,98,↑,up,↑,0.5178235000930727,True,36,1
PO-M-22M22S2,151,experiment,82,→,right,→,0.31025779992341995,True,36,1
PO-M-22M22S2,152,experiment,80,↓,down,↓,0.45004779985174537,True,36,0
PO-M-22M22S2,153,experiment,71,→,left,←,0.45079959998838603,False,36,0
PO-M-22M22S2,154,experiment,76,←,left,←,0.38427630020305514,True,36,0
PO-M-22M22S2,155,experiment,108,→,right,→,0.37555520003661513,True,36,0
PO-M-22M22S2,156,experiment,57,←,left,←,0.5766895001288503,True,36,0
PO-M-22M22S2,157,experiment,60,↓,down,↓,0.597517800051719,True,36,1
PO-M-22M22S2,158,experiment,72,↓,down,↓,0.40845580003224313,True,36,1
PO-M-22M22S2,159,experiment,93,←,left,←,0.5333878002129495,True,36,0
PO-M-22M22S2,160,experiment,65,↑,up,↑,0.5064246000256389,True,36,1
PO-M-22M22S2,161,experiment,84,→,right,→,0.5932821999303997,True,36,1
PO-M-22M22S2,162,experiment,79,→,right,→,0.5111845000647008,True,36,1
PO-M-22M22S2,163,experiment,77,↓,down,↓,0.5612510000355542,True,36,1
PO-M-22M22S2,164,experiment,63,←,left,←,0.6300117999780923,True,36,1
PO-M-22M22S2,165,experiment,85,→,right,→,0.5995249000843614,True,36,1
PO-M-22M22S2,166,experiment,96,←,left,←,1.2069477001205087,True,36,1
PO-M-22M22S2,167,training,75,↓,up,↑,0.7309862000402063,False,36,0
PO-M-22M22S2,168,training,59,↑,up,↑,0.3755185999907553,True,36,1
PO-M-22M22S2,169,experiment,107,↑,up,↑,0.4786664000712335,True,36,0
PO-M-22M22S2,170,experiment,77,↓,no_key,no_letter,-1.0,False,36,1
PO-M-22M22S2,171,experiment,92,→,right,→,0.45065000001341105,True,36,1
PO-M-22M22S2,172,experiment,51,←,left,←,0.5677185000386089,True,36,0
PO-M-22M22S2,173,experiment,64,↑,up,↑,0.39963290002197027,True,36,1
PO-M-22M22S2,174,experiment,104,←,left,←,0.4003355000168085,True,36,0
PO-M-22M22S2,175,experiment,61,←,left,←,0.5792363998480141,True,36,0
PO-M-22M22S2,176,experiment,74,↓,down,↓,0.4090017999988049,True,36,1
PO-M-22M22S2,177,experiment,63,→,right,→,0.49326010001823306,True,36,0
PO-M-22M22S2,178,experiment,95,←,left,←,0.4343535997904837,True,36,1
PO-M-22M22S2,179,experiment,50,→,right,→,0.4948348000179976,True,36,0
PO-M-22M22S2,180,experiment,103,←,left,←,0.5366375998128206,True,36,1
PO-M-22M22S2,181,experiment,67,↑,up,↑,0.39251679996959865,True,36,1
PO-M-22M22S2,182,experiment,75,↓,down,↓,1.0359529999550432,True,36,0
PO-M-22M22S2,183,experiment,90,→,left,←,0.8119016999844462,False,36,1
PO-M-22M22S2,184,experiment,49,→,right,→,0.3510948000475764,True,36,1
PO-M-22M22S2,185,experiment,68,↑,up,↑,0.4008199998643249,True,36,0
PO-M-22M22S2,186,experiment,84,↓,down,↓,0.4424861001316458,True,36,0
PO-M-22M22S2,187,experiment,98,→,left,←,0.44246049993671477,False,36,0
PO-M-22M22S2,188,experiment,105,→,right,→,0.9452035001013428,True,36,0
PO-M-22M22S2,189,experiment,99,↑,up,↑,0.3840119999367744,True,36,1
PO-M-22M22S2,190,experiment,71,↓,down,↓,0.4902935998979956,True,36,0
PO-M-22M22S2,191,experiment,89,←,left,←,0.43389220000244677,True,36,1
PO-M-22M22S2,192,experiment,93,↑,up,↑,0.39255560003221035,True,36,0
PO-M-22M22S2,193,experiment,97,→,right,→,0.6632136001717299,True,36,0
PO-M-22M22S2,194,experiment,57,←,left,←,0.41803930001333356,True,36,1
PO-M-22M22S2,195,experiment,53,→,right,→,0.6065205000340939,True,36,0
PO-M-22M22S2,196,experiment,52,↑,up,↑,0.771999099990353,True,36,1
PO-M-22M22S2,197,experiment,101,↓,down,↓,0.6351165999658406,True,36,1
PO-M-22M22S2,198,experiment,58,↑,up,↑,0.5822691000066698,True,36,1
PO-M-22M22S2,199,experiment,100,←,left,←,0.44264480005949736,True,36,1
PO-M-22M22S2,200,experiment,81,→,right,→,0.5759274000301957,True,36,0
PO-M-22M22S2,201,experiment,82,→,right,→,0.6853376000653952,True,36,1
PO-M-22M22S2,202,experiment,108,←,no_key,no_letter,-1.0,False,36,1
PO-M-22M22S2,203,experiment,73,↑,up,↑,0.4709110998082906,True,36,1
PO-M-22M22S2,204,experiment,91,↑,up,↑,0.5085495999082923,True,36,0
PO-M-22M22S2,205,experiment,62,←,left,←,0.3925612000748515,True,36,1
PO-M-22M22S2,206,experiment,69,↓,down,↓,0.4761945998761803,True,36,0
PO-M-22M22S2,207,experiment,56,↓,down,↓,0.6063830000348389,True,36,0
PO-M-22M22S2,208,experiment,96,↑,up,↑,0.4092373000457883,True,36,1
PO-M-22M22S2,209,experiment,106,↑,up,↑,0.41803720011375844,True,36,0
PO-M-22M22S2,210,experiment,86,↑,up,↑,0.4991617000196129,True,36,0
PO-M-22M22S2,211,experiment,94,→,right,→,0.6314011001959443,True,36,1
PO-M-22M22S2,212,experiment,66,↑,up,↑,0.44265669980086386,True,36,1
PO-M-22M22S2,213,experiment,54,↓,down,↓,0.40900630014948547,True,36,0
PO-M-22M22S2,214,experiment,55,↑,up,↑,0.9362623998895288,True,36,0
PO-M-22M22S2,215,experiment,83,→,right,→,0.6711850999854505,True,36,1
PO-M-22M22S2,216,experiment,60,↑,up,↑,0.37680310010910034,True,36,1
PO-M-22M22S2,217,experiment,87,←,left,←,0.42662969999946654,True,36,0
PO-M-22M22S2,218,experiment,72,↓,no_key,no_letter,-1.0,False,36,0
PO-M-22M22S2,219,experiment,48,←,left,←,0.6019802999217063,True,36,1
PO-M-22M22S2,220,experiment,85,←,left,←,0.42565769981592894,True,36,1
PO-M-22M22S2,221,experiment,102,↑,up,↑,0.4006847001146525,True,36,0
PO-M-22M22S2,222,experiment,80,↑,up,↑,0.37643379997462034,True,36,0
PO-M-22M22S2,223,experiment,70,←,left,←,0.5597632999997586,True,36,0
PO-M-22M22S2,224,experiment,88,←,left,←,0.367187200114131,True,36,1
PO-M-22M22S2,225,experiment,79,↑,up,↑,0.51485939999111,True,36,0
PO-M-22M22S2,226,experiment,59,←,right,→,0.5458083001431078,False,36,1
PO-M-22M22S2,227,experiment,76,→,right,→,0.5780954000074416,True,36,1
PO-M-22M22S2,228,experiment,78,←,left,←,0.3673415998928249,True,36,1
PO-M-22M22S2,229,experiment,65,↑,up,↑,0.4505811999551952,True,36,0
PO-M-22M22S2,230,training,57,↓,left,←,1.3078553001396358,False,35,0
PO-M-22M22S2,231,training,86,↑,up,↑,0.5466314000077546,True,35,1
PO-M-22M22S2,232,experiment,107,←,left,←,0.4015909999143332,True,35,1
PO-M-22M22S2,233,experiment,70,←,left,←,0.5202830999623984,True,35,0
PO-M-22M22S2,234,experiment,69,←,left,←,0.37574549997225404,True,35,1
PO-M-22M22S2,235,experiment,89,←,left,←,0.4343268999364227,True,35,0
PO-M-22M22S2,236,experiment,95,↑,up,↑,0.6455494000110775,True,35,0
PO-M-22M22S2,237,experiment,60,→,right,→,0.4007052001543343,True,35,1
PO-M-22M22S2,238,experiment,108,↑,up,↑,0.5073828999884427,True,35,1
PO-M-22M22S2,239,experiment,87,→,right,→,0.4343906999565661,True,35,1
PO-M-22M22S2,240,experiment,86,←,left,←,0.6023940001614392,True,35,0
PO-M-22M22S2,241,experiment,66,←,left,←,0.5161480000242591,True,35,1
PO-M-22M22S2,242,experiment,76,↑,up,↑,0.5661824000999331,True,35,1
PO-M-22M22S2,243,experiment,68,←,left,←,0.6723563000559807,True,35,1
PO-M-22M22S2,244,experiment,80,↑,up,↑,0.6265914998948574,True,35,1
PO-M-22M22S2,245,experiment,52,←,left,←,0.39332709996961057,True,35,1
PO-M-22M22S2,246,experiment,54,→,right,→,0.5572077999822795,True,35,0
PO-M-22M22S2,247,experiment,61,↑,up,↑,0.4258952001109719,True,35,1
PO-M-22M22S2,248,experiment,65,↑,down,↓,0.46779180015437305,False,35,0
PO-M-22M22S2,249,experiment,53,←,left,←,0.3838678998872638,True,35,1
PO-M-22M22S2,250,experiment,67,←,up,↑,0.4803671999834478,False,35,0
PO-M-22M22S2,251,experiment,85,↑,up,↑,0.3754465999081731,True,35,1
PO-M-22M22S2,252,experiment,62,←,left,←,0.4009711998514831,True,35,0
PO-M-22M22S2,253,experiment,101,↓,down,↓,0.4896774999797344,True,35,0
PO-M-22M22S2,254,experiment,79,↑,up,↑,0.4422432999126613,True,35,1
PO-M-22M22S2,255,experiment,100,→,no_key,no_letter,-1.0,False,35,0
PO-M-22M22S2,256,experiment,106,→,right,→,0.637380399974063,True,35,1
PO-M-22M22S2,257,experiment,97,→,right,→,0.3925012999679893,True,35,1
PO-M-22M22S2,258,experiment,49,↓,down,↓,0.6830878998152912,True,35,0
PO-M-22M22S2,259,experiment,50,↑,up,↑,0.5748195999767631,True,35,1
PO-M-22M22S2,260,experiment,64,←,left,←,0.5459443000145257,True,35,1
PO-M-22M22S2,261,experiment,73,↓,down,↓,0.5555916000157595,True,35,1
PO-M-22M22S2,262,experiment,88,↓,down,↓,1.247582099866122,True,35,1
PO-M-22M22S2,263,experiment,77,←,left,←,0.5235590999945998,True,35,1
PO-M-22M22S2,264,experiment,102,←,left,←,0.46037760004401207,True,35,1
PO-M-22M22S2,265,experiment,58,→,right,→,0.4628027998842299,True,35,0
PO-M-22M22S2,266,experiment,71,↓,up,↑,0.4675392999779433,False,35,1
PO-M-22M22S2,267,experiment,78,↑,up,↑,0.5185344000346959,True,35,1
PO-M-22M22S2,268,experiment,75,↑,up,↑,0.5128013000357896,True,35,1
PO-M-22M22S2,269,experiment,82,↑,up,↑,0.4811483998782933,True,35,1
PO-M-22M22S2,270,experiment,104,→,right,→,0.6110785000491887,True,35,1
PO-M-22M22S2,271,experiment,59,↓,down,↓,1.070078199962154,True,35,1
PO-M-22M22S2,272,experiment,63,→,right,→,0.9021580000407994,True,35,1
PO-M-22M22S2,273,experiment,56,→,right,→,0.4423840001691133,True,35,1
PO-M-22M22S2,274,experiment,81,↓,down,↓,0.9939419000875205,True,35,0
PO-M-22M22S2,275,experiment,91,→,right,→,0.6515641000587493,True,35,1
PO-M-22M22S2,276,experiment,93,→,right,→,1.1381345000118017,True,35,1
PO-M-22M22S2,277,experiment,83,→,right,→,0.649120399961248,True,35,1
PO-M-22M22S2,278,experiment,55,←,left,←,0.4426311000715941,True,35,1
PO-M-22M22S2,279,experiment,51,↑,up,↑,0.5771147001069039,True,35,0
PO-M-22M22S2,280,experiment,72,→,right,→,0.4904883000999689,True,35,1
PO-M-22M22S2,281,experiment,98,↓,down,↓,0.5252980999648571,True,35,1
PO-M-22M22S2,282,experiment,96,←,left,←,0.38520539994351566,True,35,1
PO-M-22M22S2,283,experiment,103,↓,down,↓,0.4424048999790102,True,35,0
PO-M-22M22S2,284,experiment,90,→,right,→,0.38398899999447167,True,35,0
PO-M-22M22S2,285,experiment,94,←,left,←,0.7739993999712169,True,35,0
PO-M-22M22S2,286,experiment,92,↓,left,←,0.4423403001856059,False,35,1
PO-M-22M22S2,287,experiment,84,↓,down,↓,0.4899214000906795,True,35,0
PO-M-22M22S2,288,experiment,48,←,left,←,0.5336384000256658,True,35,1
PO-M-22M22S2,289,experiment,57,↓,left,←,0.461650799959898,False,35,1
PO-M-22M22S2,290,experiment,105,→,right,→,0.3840758998412639,True,35,0
PO-M-22M22S2,291,experiment,99,↑,down,↓,1.6144688001368195,False,35,0
PO-M-22M22S2,292,experiment,74,→,right,→,0.5325710000470281,True,35,1
PO-M-22M22S2,293,training,93,↑,up,↑,0.5593612999655306,True,35,0
PO-M-22M22S2,294,training,79,↓,down,↓,0.5103567000478506,True,35,1
PO-M-22M22S2,295,experiment,101,↓,up,↑,0.592374499887228,False,35,1
PO-M-22M22S2,296,experiment,67,←,right,→,0.8338492000475526,False,35,1
PO-M-22M22S2,297,experiment,97,→,no_key,no_letter,-1.0,False,35,1
PO-M-22M22S2,298,experiment,104,↓,down,↓,0.5423292000778019,True,35,1
PO-M-22M22S2,299,experiment,68,←,left,←,0.5378934999462217,True,35,1
PO-M-22M22S2,300,experiment,94,←,left,←,0.5487880001310259,True,35,1
PO-M-22M22S2,301,experiment,82,→,right,→,0.6271051000803709,True,35,1
PO-M-22M22S2,302,experiment,52,↑,up,↑,0.648583099944517,True,35,1
PO-M-22M22S2,303,experiment,69,←,left,←,0.3841550999786705,True,35,1
PO-M-22M22S2,304,experiment,48,↑,up,↑,0.5035166000016034,True,35,0
PO-M-22M22S2,305,experiment,100,↑,up,↑,0.5299490999896079,True,35,1
PO-M-22M22S2,306,experiment,61,←,left,←,0.50400699977763,True,35,1
PO-M-22M22S2,307,experiment,99,↑,up,↑,0.4090564998332411,True,35,1
PO-M-22M22S2,308,experiment,92,←,right,→,0.530702100135386,False,35,0
PO-M-22M22S2,309,experiment,86,→,right,→,0.48129979986697435,True,35,1
PO-M-22M22S2,310,experiment,85,↓,down,↓,0.4724552999250591,True,35,1
PO-M-22M22S2,311,experiment,57,→,right,→,0.578323099995032,True,35,1
PO-M-22M22S2,312,experiment,89,↓,down,↓,1.165301499888301,True,35,1
PO-M-22M22S2,313,experiment,105,←,left,←,0.4912849001120776,True,35,1
PO-M-22M22S2,314,experiment,108,→,right,→,0.4913135999813676,True,35,1
PO-M-22M22S2,315,experiment,96,→,right,→,0.4248523998539895,True,35,1
PO-M-22M22S2,316,experiment,51,→,right,→,1.1094585000537336,True,35,0
PO-M-22M22S2,317,experiment,66,↑,up,↑,0.5461704998742789,True,35,1
PO-M-22M22S2,318,experiment,81,←,left,←,0.40168710006400943,True,35,1
PO-M-22M22S2,319,experiment,88,←,left,←,0.6105909999459982,True,35,0
PO-M-22M22S2,320,experiment,79,↑,up,↑,0.4796545000281185,True,35,1
PO-M-22M22S2,321,experiment,65,→,right,→,0.6542962999083102,True,35,1
PO-M-22M22S2,322,experiment,58,←,left,←,0.680394500028342,True,35,1
PO-M-22M22S2,323,experiment,83,↑,up,↑,0.577276400057599,True,35,1
PO-M-22M22S2,324,experiment,53,←,left,←,0.43394789984449744,True,35,1
PO-M-22M22S2,325,experiment,73,↑,up,↑,0.47889070003293455,True,35,0
PO-M-22M22S2,326,experiment,87,→,left,←,0.4620491999667138,False,35,1
PO-M-22M22S2,327,experiment,107,↑,up,↑,0.34282729984261096,True,35,1
PO-M-22M22S2,328,experiment,90,→,right,→,0.4984528999775648,True,35,0
PO-M-22M22S2,329,experiment,98,↓,down,↓,0.7736396000254899,True,35,1
PO-M-22M22S2,330,experiment,55,↓,down,↓,0.5240402999334037,True,35,1
PO-M-22M22S2,331,experiment,103,←,left,←,0.4259669000748545,True,35,1
PO-M-22M22S2,332,experiment,80,→,right,→,1.3126664001028985,True,35,0
PO-M-22M22S2,333,experiment,60,↑,up,↑,0.4088610000908375,True,35,1
PO-M-22M22S2,334,experiment,74,↓,down,↓,0.6214534998871386,True,35,0
PO-M-22M22S2,335,experiment,62,↑,up,↑,0.5277861000504345,True,35,1
PO-M-22M22S2,336,experiment,54,←,left,←,0.3925855001434684,True,35,1
PO-M-22M22S2,337,experiment,72,←,left,←,0.9767547000665218,True,35,0
PO-M-22M22S2,338,experiment,102,←,left,←,0.4425991999451071,True,35,1
PO-M-22M22S2,339,experiment,63,→,right,→,0.6795324000995606,True,35,0
PO-M-22M22S2,340,experiment,76,↑,up,↑,0.9466420998796821,True,35,1
PO-M-22M22S2,341,experiment,59,↑,up,↑,0.4733255999162793,True,35,1
PO-M-22M22S2,342,experiment,84,↑,up,↑,0.3758017001673579,True,35,1
PO-M-22M22S2,343,experiment,64,→,right,→,0.5325501000043005,True,35,0
PO-M-22M22S2,344,experiment,91,↑,up,↑,0.4014348001219332,True,35,1
PO-M-22M22S2,345,experiment,77,→,right,→,0.4258582000620663,True,35,0
PO-M-22M22S2,346,experiment,78,→,right,→,0.3757106000557542,True,35,0
PO-M-22M22S2,347,experiment,70,↓,down,↓,0.8438041000626981,True,35,0
PO-M-22M22S2,348,experiment,49,↑,up,↑,0.6575539000332355,True,35,1
PO-M-22M22S2,349,experiment,50,↑,up,↑,0.4090568001847714,True,35,1
PO-M-22M22S2,350,experiment,93,→,right,→,0.5262629000935704,True,35,0
PO-M-22M22S2,351,experiment,75,↑,up,↑,0.5442039999179542,True,35,1
PO-M-22M22S2,352,experiment,106,↑,up,↑,0.47908139997161925,True,35,1
PO-M-22M22S2,353,experiment,56,↓,down,↓,0.5928353001363575,True,35,1
PO-M-22M22S2,354,experiment,71,←,left,←,0.6326987000647932,True,35,1
PO-M-22M22S2,355,experiment,95,←,left,←,1.2396269000601023,True,35,1
PO-M-22M22S2,356,training,54,↑,up,↑,0.417171300156042,True,34,0
PO-M-22M22S2,357,training,52,←,left,←,0.5681642999406904,True,34,0
PO-M-22M22S2,358,experiment,72,←,left,←,0.5536444000899792,True,34,1
PO-M-22M22S2,359,experiment,91,←,left,←,0.4688886001240462,True,34,1
PO-M-22M22S2,360,experiment,52,→,right,→,0.4800275999587029,True,34,1
PO-M-22M22S2,361,experiment,73,←,left,←,0.5085332000162452,True,34,1
PO-M-22M22S2,362,experiment,75,↑,up,↑,0.4006564000155777,True,34,1
PO-M-22M22S2,363,experiment,96,↓,right,→,0.4697115998715162,False,34,0
PO-M-22M22S2,364,experiment,58,←,left,←,0.9516183000523597,True,34,1
PO-M-22M22S2,365,experiment,74,→,right,→,0.5926369000226259,True,34,1
PO-M-22M22S2,366,experiment,86,↑,up,↑,0.531944900052622,True,34,1
PO-M-22M22S2,367,experiment,81,←,left,←,0.5872759998310357,True,34,1
PO-M-22M22S2,368,experiment,54,↓,down,↓,0.5534324001055211,True,34,1
PO-M-22M22S2,369,experiment,71,←,left,←,0.49965929985046387,True,34,1
PO-M-22M22S2,370,experiment,99,↑,up,↑,0.4943466999102384,True,34,1
PO-M-22M22S2,371,experiment,90,→,right,→,0.5802631999831647,True,34,1
PO-M-22M22S2,372,experiment,60,→,right,→,0.5527011998929083,True,34,1
PO-M-22M22S2,373,experiment,79,↓,down,↓,0.5280293000396341,True,34,1
PO-M-22M22S2,374,experiment,63,←,left,←,0.597665200009942,True,34,1
PO-M-22M22S2,375,experiment,100,↑,up,↑,0.8042481001466513,True,34,1
PO-M-22M22S2,376,experiment,76,←,left,←,0.6342284998390824,True,34,1
PO-M-22M22S2,377,experiment,55,←,down,↓,1.7904538998845965,False,34,1
PO-M-22M22S2,378,experiment,93,→,up,↑,0.9832826000638306,False,34,1
PO-M-22M22S2,379,experiment,56,→,right,→,0.6448770000133663,True,34,1
PO-M-22M22S2,380,experiment,48,↓,left,←,0.7230704000685364,False,34,1
PO-M-22M22S2,381,experiment,66,←,left,←,0.41733289998956025,True,34,1
PO-M-22M22S2,382,experiment,101,←,left,←,0.41789190005511045,True,34,0
PO-M-22M22S2,383,experiment,64,←,left,←,0.40078549995087087,True,34,0
PO-M-22M22S2,384,experiment,94,↑,up,↑,0.8542578001506627,True,34,0
PO-M-22M22S2,385,experiment,77,→,right,→,0.5056223999708891,True,34,1
PO-M-22M22S2,386,experiment,62,→,right,→,0.434255100088194,True,34,1
PO-M-22M22S2,387,experiment,106,↓,down,↓,0.467725400114432,True,34,0
PO-M-22M22S2,388,experiment,83,→,right,→,0.5568369999527931,True,34,1
PO-M-22M22S2,389,experiment,59,←,left,←,1.9305020000319928,True,34,1
PO-M-22M22S2,390,experiment,95,↑,up,↑,0.5172255001962185,True,34,1
PO-M-22M22S2,391,experiment,67,←,left,←,0.5378408001270145,True,34,1
PO-M-22M22S2,392,experiment,50,↓,up,↑,0.45191030018031597,False,34,1
PO-M-22M22S2,393,experiment,69,→,right,→,0.4736804000567645,True,34,0
PO-M-22M22S2,394,experiment,65,↓,down,↓,1.0966575001366436,True,34,1
PO-M-22M22S2,395,experiment,92,↑,up,↑,0.5337626000400633,True,34,1
PO-M-22M22S2,396,experiment,87,↑,up,↑,0.5954844998195767,True,34,1
PO-M-22M22S2,397,experiment,89,↑,up,↑,0.4082102000247687,True,34,1
PO-M-22M22S2,398,experiment,82,←,left,←,0.400294299935922,True,34,0
PO-M-22M22S2,399,experiment,98,↑,up,↑,0.3510664999485016,True,34,0
PO-M-22M22S2,400,experiment,97,←,left,←,0.48908259999006987,True,34,0
PO-M-22M22S2,401,experiment,102,↑,up,↑,0.5073135998100042,True,34,1
PO-M-22M22S2,402,experiment,85,→,right,→,0.6100333000067621,True,34,1
PO-M-22M22S2,403,experiment,57,→,left,←,0.7264594999141991,False,34,1
PO-M-22M22S2,404,experiment,103,→,right,→,0.527041899971664,True,34,1
PO-M-22M22S2,405,experiment,49,→,right,→,0.50542620010674,True,34,1
PO-M-22M22S2,406,experiment,68,↓,down,↓,0.6219256001058966,True,34,1
PO-M-22M22S2,407,experiment,80,←,left,←,0.40868049999698997,True,34,1
PO-M-22M22S2,408,experiment,88,↓,down,↓,0.4678899999707937,True,34,0
PO-M-22M22S2,409,experiment,107,←,left,←,0.5334410001523793,True,34,1
PO-M-22M22S2,410,experiment,108,↓,down,↓,0.4919114999938756,True,34,1
PO-M-22M22S2,411,experiment,105,←,left,←,0.4007176000159234,True,34,1
PO-M-22M22S2,412,experiment,53,↑,up,↑,0.38411749992519617,True,34,0
PO-M-22M22S2,413,experiment,51,↓,down,↓,0.41683369991369545,True,34,0
PO-M-22M22S2,414,experiment,84,↑,up,↑,0.40082430001348257,True,34,0
PO-M-22M22S2,415,experiment,104,↓,down,↓,0.40050730016082525,True,34,0
PO-M-22M22S2,416,experiment,70,↓,down,↓,0.41910910001024604,True,34,0
PO-M-22M22S2,417,experiment,61,→,right,→,0.5711770001798868,True,34,0
PO-M-22M22S2,418,experiment,78,→,left,←,0.5385192998219281,False,34,1
PO-M-22M22S2,419,training,102,↓,down,↓,0.7081883999053389,True,34,0
PO-M-22M22S2,420,training,54,↓,down,↓,0.541751200100407,True,34,1
PO-M-22M22S2,421,experiment,64,↓,down,↓,0.54627939988859,True,34,1
PO-M-22M22S2,422,experiment,105,←,down,↓,0.7847597000654787,False,34,1
PO-M-22M22S2,423,experiment,80,←,left,←,0.41741769993677735,True,34,1
PO-M-22M22S2,424,experiment,48,↓,down,↓,0.6213841000571847,True,34,0
PO-M-22M22S2,425,experiment,87,→,right,→,0.5433678000699729,True,34,1
PO-M-22M22S2,426,experiment,79,→,right,→,0.3682038001716137,True,34,1
PO-M-22M22S2,427,experiment,85,→,right,→,1.1069368000607938,True,34,0
PO-M-22M22S2,428,experiment,54,↑,up,↑,0.5244757998734713,True,34,1
PO-M-22M22S2,429,experiment,60,→,left,←,0.8431557998992503,False,34,1
PO-M-22M22S2,430,experiment,83,→,right,→,0.5895114000886679,True,34,1
PO-M-22M22S2,431,experiment,51,↑,no_key,no_letter,-1.0,False,34,1
PO-M-22M22S2,432,experiment,58,←,left,←,0.47506260010413826,True,34,1
PO-M-22M22S2,433,experiment,81,↓,down,↓,0.5967111999634653,True,34,1
PO-M-22M22S2,434,experiment,89,←,left,←,0.5743875000625849,True,34,1
PO-M-22M22S2,435,experiment,52,↑,up,↑,0.9819330000318587,True,34,1
PO-M-22M22S2,436,experiment,100,→,right,→,0.6448731999844313,True,34,1
PO-M-22M22S2,437,experiment,74,→,right,→,0.4588472000323236,True,34,1
PO-M-22M22S2,438,experiment,107,↓,down,↓,0.5957114000339061,True,34,1
PO-M-22M22S2,439,experiment,50,↑,up,↑,0.39237029990181327,True,34,1
PO-M-22M22S2,440,experiment,106,↑,up,↑,0.4081665000412613,True,34,0
PO-M-22M22S2,441,experiment,76,→,right,→,0.5728847999125719,True,34,0
PO-M-22M22S2,442,experiment,108,↑,up,↑,0.47377869999036193,True,34,1
PO-M-22M22S2,443,experiment,61,→,right,→,0.4505966999568045,True,34,1
PO-M-22M22S2,444,experiment,49,↓,down,↓,0.6231360000092536,True,34,0
PO-M-22M22S2,445,experiment,104,←,right,→,0.3762922000605613,False,34,1
PO-M-22M22S2,446,experiment,72,→,right,→,0.47554050013422966,True,34,0
PO-M-22M22S2,447,experiment,63,↑,up,↑,0.4338883999735117,True,34,1
PO-M-22M22S2,448,experiment,97,↓,down,↓,0.4091281001456082,True,34,0
PO-M-22M22S2,449,experiment,68,↓,down,↓,0.4817318001296371,True,34,0
PO-M-22M22S2,450,experiment,55,←,left,←,0.8117541999090463,True,34,1
PO-M-22M22S2,451,experiment,98,→,right,→,0.3589216999243945,True,34,1
PO-M-22M22S2,452,experiment,99,↓,down,↓,0.5785244000144303,True,34,0
PO-M-22M22S2,453,experiment,78,←,left,←,0.6410947002004832,True,34,1
PO-M-22M22S2,454,experiment,103,←,left,←,0.8928113000001758,True,34,1
PO-M-22M22S2,455,experiment,92,←,left,←,0.4744510999880731,True,34,1
PO-M-22M22S2,456,experiment,102,←,left,←,0.3674915998708457,True,34,1
PO-M-22M22S2,457,experiment,88,←,left,←,0.42588289990089834,True,34,0
PO-M-22M22S2,458,experiment,90,↑,right,→,0.8086659999098629,False,34,0
PO-M-22M22S2,459,experiment,56,→,right,→,0.3830015999265015,True,34,1
PO-M-22M22S2,460,experiment,82,↓,down,↓,0.5381501000374556,True,34,0
PO-M-22M22S2,461,experiment,62,↓,down,↓,0.4340121001005173,True,34,1
PO-M-22M22S2,462,experiment,95,↓,down,↓,1.2942447001114488,True,34,0
PO-M-22M22S2,463,experiment,73,→,right,→,0.49796759989112616,True,34,1
PO-M-22M22S2,464,experiment,101,←,left,←,0.38405629992485046,True,34,1
PO-M-22M22S2,465,experiment,86,→,right,→,0.5434391999151558,True,34,0
PO-M-22M22S2,466,experiment,77,↓,left,←,0.40070799994282424,False,34,1
PO-M-22M22S2,467,experiment,66,→,right,→,0.543648699996993,True,34,1
PO-M-22M22S2,468,experiment,67,↑,up,↑,0.45202470012009144,True,34,1
PO-M-22M22S2,469,experiment,91,↓,down,↓,0.4584193998016417,True,34,0
PO-M-22M22S2,470,experiment,96,←,left,←,0.40905410004779696,True,34,1
PO-M-22M22S2,471,experiment,59,↓,down,↓,0.4912707000039518,True,34,0
PO-M-22M22S2,472,experiment,53,↓,down,↓,0.42565680015832186,True,34,1
PO-M-22M22S2,473,experiment,70,→,right,→,0.50076730013825,True,34,0
PO-M-22M22S2,474,experiment,69,→,right,→,0.5293707000091672,True,34,1
PO-M-22M22S2,475,experiment,84,↑,up,↑,0.5198311998974532,True,34,1
PO-M-22M22S2,476,experiment,71,↓,down,↓,0.5153481001034379,True,34,1
PO-M-22M22S2,477,experiment,75,↓,down,↓,0.5334890999365598,True,34,1
PO-M-22M22S2,478,experiment,94,↓,down,↓,0.6162908000405878,True,34,1
PO-M-22M22S2,479,experiment,93,↑,up,↑,0.4565502000041306,True,34,1
PO-M-22M22S2,480,experiment,57,→,right,→,0.5308912999462336,True,34,0
PO-M-22M22S2,481,experiment,65,→,right,→,0.4641630998812616,True,34,1
PO-M-22M22S2,482,training,87,←,left,←,1.142519700108096,True,33,0
PO-M-22M22S2,483,training,92,→,right,→,0.530361199984327,True,33,1
PO-M-22M22S2,484,experiment,60,↑,up,↑,0.5765358998905867,True,33,1
PO-M-22M22S2,485,experiment,72,↑,no_key,no_letter,-1.0,False,33,1
PO-M-22M22S2,486,experiment,62,→,right,→,0.4173907998483628,True,33,1
PO-M-22M22S2,487,experiment,75,←,left,←,0.5161828000564128,True,33,0
PO-M-22M22S2,488,experiment,85,↓,up,↑,0.8347505000419915,False,33,1
PO-M-22M22S2,489,experiment,96,→,right,→,0.5051275999285281,True,33,1
PO-M-22M22S2,490,experiment,84,→,right,→,0.5687384000048041,True,33,1
PO-M-22M22S2,491,experiment,70,↑,up,↑,0.4904978000558913,True,33,1
PO-M-22M22S2,492,experiment,103,↑,up,↑,0.42574490001425147,True,33,1
PO-M-22M22S2,493,experiment,64,←,up,↑,0.7895786999724805,False,33,0
PO-M-22M22S2,494,experiment,77,↑,up,↑,1.0921236998401582,True,33,1
PO-M-22M22S2,495,experiment,87,→,right,→,0.666781899984926,True,33,1
PO-M-22M22S2,496,experiment,102,↑,up,↑,0.4462550999596715,True,33,1
PO-M-22M22S2,497,experiment,98,→,right,→,0.9788083999883384,True,33,1
PO-M-22M22S2,498,experiment,58,↓,down,↓,0.6242089001461864,True,33,1
PO-M-22M22S2,499,experiment,79,←,left,←,0.5327158998697996,True,33,1
PO-M-22M22S2,500,experiment,61,→,right,→,0.5708682001568377,True,33,1
PO-M-22M22S2,501,experiment,88,↓,down,↓,0.47006129985675216,True,33,1
PO-M-22M22S2,502,experiment,65,→,right,→,0.44641309999860823,True,33,1
PO-M-22M22S2,503,experiment,95,↓,down,↓,0.45229060016572475,True,33,1
PO-M-22M22S2,504,experiment,104,↑,up,↑,0.447173599852249,True,33,1
PO-M-22M22S2,505,experiment,106,→,right,→,0.5449936001095921,True,33,1
PO-M-22M22S2,506,experiment,108,←,left,←,0.4258921002037823,True,33,1
PO-M-22M22S2,507,experiment,101,↓,down,↓,0.44448970002122223,True,33,0
PO-M-22M22S2,508,experiment,105,←,left,←,0.35913040000014007,True,33,0
PO-M-22M22S2,509,experiment,74,↓,left,←,0.7348283999599516,False,33,0
PO-M-22M22S2,510,experiment,93,↑,up,↑,0.3922245998401195,True,33,1
PO-M-22M22S2,511,experiment,91,←,right,→,0.6275136000476778,False,33,0
PO-M-22M22S2,512,experiment,68,→,up,↑,0.619622299913317,False,33,1
PO-M-22M22S2,513,experiment,107,←,left,←,0.44768540002405643,True,33,1
PO-M-22M22S2,514,experiment,97,↓,down,↓,0.47642780002206564,True,33,1
PO-M-22M22S2,515,experiment,52,↓,down,↓,0.7756805999670178,True,33,1
PO-M-22M22S2,516,experiment,71,↓,down,↓,0.4730815999209881,True,33,1
PO-M-22M22S2,517,experiment,92,→,right,→,0.5028679000679404,True,33,1
PO-M-22M22S2,518,experiment,66,→,right,→,0.5088551000226289,True,33,1
PO-M-22M22S2,519,experiment,54,↓,down,↓,0.6140710001345724,True,33,1
PO-M-22M22S2,520,experiment,86,→,right,→,1.216499999864027,True,33,1
PO-M-22M22S2,521,experiment,100,↓,down,↓,0.6141353000421077,True,33,1
PO-M-22M22S2,522,experiment,53,→,right,→,0.41757620009593666,True,33,1
PO-M-22M22S2,523,experiment,56,→,right,→,0.591820599976927,True,33,0
PO-M-22M22S2,524,experiment,81,←,left,←,0.46881270012818277,True,33,1
PO-M-22M22S2,525,experiment,99,↑,up,↑,0.4650308000855148,True,33,1
PO-M-22M22S2,526,experiment,69,→,right,→,0.6069527000654489,True,33,1
PO-M-22M22S2,527,experiment,94,←,left,←,0.4550788002088666,True,33,1
PO-M-22M22S2,528,experiment,82,↓,down,↓,0.6808813000097871,True,33,1
PO-M-22M22S2,529,experiment,50,↑,up,↑,0.580723199993372,True,33,1
PO-M-22M22S2,530,experiment,78,←,left,←,0.44372379989363253,True,33,1
PO-M-22M22S2,531,experiment,57,↓,down,↓,0.45460109994746745,True,33,0
PO-M-22M22S2,532,experiment,48,←,left,←,0.40909600001759827,True,33,1
PO-M-22M22S2,533,experiment,80,←,left,←,0.350596799980849,True,33,0
PO-M-22M22S2,534,experiment,55,↑,up,↑,0.42569950013421476,True,33,0
PO-M-22M22S2,535,experiment,90,↑,up,↑,0.5114568001590669,True,33,0
PO-M-22M22S2,536,experiment,63,→,right,→,0.3671860001049936,True,33,1
PO-M-22M22S2,537,experiment,89,↑,up,↑,0.6087839000392705,True,33,0
PO-M-22M22S2,538,experiment,49,→,right,→,0.40907729999162257,True,33,1
PO-M-22M22S2,539,experiment,59,→,right,→,0.5952838999219239,True,33,0
PO-M-22M22S2,540,experiment,83,→,right,→,0.6476195000577718,True,33,1
PO-M-22M22S2,541,experiment,51,←,left,←,0.47665269998833537,True,33,1
PO-M-22M22S2,542,experiment,76,↓,left,←,1.1679013001266867,False,33,1
PO-M-22M22S2,543,experiment,67,↑,up,↑,0.507135899970308,True,33,1
PO-M-22M22S2,544,experiment,73,←,left,←,0.5495555000379682,True,33,1
PO-M-22M22S2,545,training,69,→,left,←,0.4868815999943763,False,33,0
PO-M-22M22S2,546,training,103,↑,up,↑,0.3841040001716465,True,33,1
PO-M-22M22S2,547,experiment,66,↓,down,↓,0.6909985998645425,True,33,0
PO-M-22M22S2,548,experiment,83,→,right,→,0.515295600052923,True,33,1
PO-M-22M22S2,549,experiment,52,↓,down,↓,0.629082600120455,True,33,1
PO-M-22M22S2,550,experiment,65,↑,up,↑,0.41753520001657307,True,33,1
PO-M-22M22S2,551,experiment,75,←,no_key,no_letter,-1.0,False,33,0
PO-M-22M22S2,552,experiment,106,↓,down,↓,0.49817040003836155,True,33,1
PO-M-22M22S2,553,experiment,98,↑,up,↑,0.41784499981440604,True,33,1
PO-M-22M22S2,554,experiment,104,→,right,→,0.4499137999955565,True,33,0
PO-M-22M22S2,555,experiment,56,↑,up,↑,0.5479178000241518,True,33,1
PO-M-22M22S2,556,experiment,82,←,left,←,0.570335199823603,True,33,1
PO-M-22M22S2,557,experiment,96,↑,up,↑,0.38472170010209084,True,33,1
PO-M-22M22S2,558,experiment,107,↑,up,↑,0.2755211000330746,True,33,0
PO-M-22M22S2,559,experiment,57,↓,up,↑,0.6654321998357773,False,33,0
PO-M-22M22S2,560,experiment,55,↓,down,↓,0.6600112000014633,True,33,1
PO-M-22M22S2,561,experiment,102,↓,down,↓,0.47177189984358847,True,33,1
PO-M-22M22S2,562,experiment,60,→,right,→,0.4082740999292582,True,33,1
PO-M-22M22S2,563,experiment,90,←,left,←,0.40089579997584224,True,33,0
PO-M-22M22S2,564,experiment,99,↑,up,↑,0.5679284001234919,True,33,0
PO-M-22M22S2,565,experiment,79,←,left,←,0.4005257999524474,True,33,1
PO-M-22M22S2,566,experiment,69,→,right,→,0.6387639997992665,True,33,0
PO-M-22M22S2,567,experiment,68,↓,down,↓,0.7584033000748605,True,33,1
PO-M-22M22S2,568,experiment,73,→,right,→,0.48742680018767715,True,33,1
PO-M-22M22S2,569,experiment,61,→,right,→,0.6313786001410335,True,33,1
PO-M-22M22S2,570,experiment,84,←,left,←,0.4084071998950094,True,33,1
PO-M-22M22S2,571,experiment,87,←,left,←,0.3424609999638051,True,33,0
PO-M-22M22S2,572,experiment,49,↑,up,↑,0.5092160000931472,True,33,0
PO-M-22M22S2,573,experiment,67,→,right,→,0.35080559994094074,True,33,1
PO-M-22M22S2,574,experiment,103,↓,down,↓,1.1453586001880467,True,33,0
PO-M-22M22S2,575,experiment,101,←,left,←,0.4579523999709636,True,33,1
PO-M-22M22S2,576,experiment,78,→,right,→,0.6051366999745369,True,33,1
PO-M-22M22S2,577,experiment,53,→,right,→,0.459591600112617,True,33,1
PO-M-22M22S2,578,experiment,58,↑,up,↑,0.5567656999919564,True,33,1
PO-M-22M22S2,579,experiment,86,→,right,→,0.34954859991557896,True,33,1
PO-M-22M22S2,580,experiment,59,←,left,←,0.39169049984775484,True,33,0
PO-M-22M22S2,581,experiment,97,→,right,→,0.3841015000361949,True,33,0
PO-M-22M22S2,582,experiment,50,↓,down,↓,0.4468588000163436,True,33,0
PO-M-22M22S2,583,experiment,92,↑,up,↑,0.4538940000347793,True,33,1
PO-M-22M22S2,584,experiment,80,→,right,→,0.5761464000679553,True,33,1
PO-M-22M22S2,585,experiment,62,↑,up,↑,0.40095769986510277,True,33,1
PO-M-22M22S2,586,experiment,85,←,left,←,0.567257999908179,True,33,0
PO-M-22M22S2,587,experiment,91,←,left,←,0.9780145001132041,True,33,1
PO-M-22M22S2,588,experiment,54,↑,up,↑,0.6245748000219464,True,33,1
PO-M-22M22S2,589,experiment,81,↓,down,↓,0.5562756999861449,True,33,1
PO-M-22M22S2,590,experiment,48,→,right,→,0.44664409989491105,True,33,1
PO-M-22M22S2,591,experiment,76,↓,down,↓,0.5304811999667436,True,33,0
PO-M-22M22S2,592,experiment,94,←,left,←,0.41774900001473725,True,33,1
PO-M-22M22S2,593,experiment,89,→,down,↓,0.6470081000588834,False,33,0
PO-M-22M22S2,594,experiment,105,↑,left,←,0.7609814000315964,False,33,1
PO-M-22M22S2,595,experiment,63,↓,down,↓,0.41755870007909834,True,33,1
PO-M-22M22S2,596,experiment,100,←,left,←,0.38507509999908507,True,33,0
PO-M-22M22S2,597,experiment,51,→,right,→,0.417488900013268,True,33,0
PO-M-22M22S2,598,experiment,93,←,up,↑,0.8018317001406103,False,33,0
PO-M-22M22S2,599,experiment,108,←,left,←,0.8853490999899805,True,33,1
PO-M-22M22S2,600,experiment,64,↓,down,↓,0.47643289994448423,True,33,1
PO-M-22M22S2,601,experiment,77,↑,up,↑,0.615526600042358,True,33,1
PO-M-22M22S2,602,experiment,74,↓,down,↓,0.5658825000282377,True,33,1
PO-M-22M22S2,603,experiment,88,↑,up,↑,0.585430100094527,True,33,1
PO-M-22M22S2,604,experiment,71,↑,down,↓,0.7223837999626994,False,33,1
PO-M-22M22S2,605,experiment,70,↑,down,↓,0.7337179000023752,False,33,1
PO-M-22M22S2,606,experiment,95,←,left,←,0.46465819980949163,True,33,1
PO-M-22M22S2,607,experiment,72,↓,down,↓,0.6136512001976371,True,33,1
PO-M-22M22S2,608,training,95,←,left,←,0.6026971000246704,True,33,0
PO-M-22M22S2,609,training,73,↓,down,↓,0.4251536000519991,True,33,1
PO-M-22M22S2,610,experiment,61,→,right,→,0.41740750009194016,True,33,0
PO-M-22M22S2,611,experiment,77,→,right,→,0.5852790998760611,True,33,0
PO-M-22M22S2,612,experiment,51,↑,up,↑,0.6005956998560578,True,33,1
PO-M-22M22S2,613,experiment,73,→,right,→,0.624286999925971,True,33,1
PO-M-22M22S2,614,experiment,98,↓,down,↓,0.4706530999392271,True,33,1
PO-M-22M22S2,615,experiment,97,↑,up,↑,0.45102899987250566,True,33,1
PO-M-22M22S2,616,experiment,74,↓,down,↓,0.4478116000536829,True,33,1
PO-M-22M22S2,617,experiment,92,←,left,←,0.5665812001097947,True,33,1
PO-M-22M22S2,618,experiment,60,←,left,←,0.4676852999255061,True,33,1
PO-M-22M22S2,619,experiment,90,↓,down,↓,0.5546428000088781,True,33,1
PO-M-22M22S2,620,experiment,83,↑,up,↑,0.6002106000669301,True,33,1
PO-M-22M22S2,621,experiment,105,→,right,→,0.4451097999699414,True,33,1
PO-M-22M22S2,622,experiment,106,←,left,←,0.5112499000970274,True,33,0
PO-M-22M22S2,623,experiment,88,↑,up,↑,0.4694175000768155,True,33,1
PO-M-22M22S2,624,experiment,75,↓,right,→,0.7458858001045883,False,33,1
PO-M-22M22S2,625,experiment,70,↑,up,↑,0.49191829981282353,True,33,1
PO-M-22M22S2,626,experiment,57,↑,up,↑,0.367802299791947,True,33,1
PO-M-22M22S2,627,experiment,62,←,left,←,1.1051044999621809,True,33,0
PO-M-22M22S2,628,experiment,59,↑,up,↑,0.47285969997756183,True,33,1
PO-M-22M22S2,629,experiment,89,→,right,→,0.4878463000059128,True,33,1
PO-M-22M22S2,630,experiment,78,↑,up,↑,0.3338079999666661,True,33,1
PO-M-22M22S2,631,experiment,72,←,left,←,0.4839739000890404,True,33,0
PO-M-22M22S2,632,experiment,87,→,right,→,0.4090736999642104,True,33,1
PO-M-22M22S2,633,experiment,84,←,left,←,0.42510779993608594,True,33,0
PO-M-22M22S2,634,experiment,55,→,right,→,0.6424350999295712,True,33,0
PO-M-22M22S2,635,experiment,107,←,left,←,0.517113900044933,True,33,1
PO-M-22M22S2,636,experiment,81,←,left,←,0.9409171999432147,True,33,1
PO-M-22M22S2,637,experiment,80,→,right,→,0.5402158999349922,True,33,1
PO-M-22M22S2,638,experiment,64,↓,down,↓,1.2729017999954522,True,33,1
PO-M-22M22S2,639,experiment,82,↓,down,↓,0.562298099976033,True,33,1
PO-M-22M22S2,640,experiment,69,↑,down,↓,0.620645800139755,False,33,1
PO-M-22M22S2,641,experiment,71,→,right,→,0.7399344998411834,True,33,1
PO-M-22M22S2,642,experiment,104,←,left,←,0.3923810999840498,True,33,1
PO-M-22M22S2,643,experiment,58,←,left,←,0.5677599001210183,True,33,0
PO-M-22M22S2,644,experiment,67,↑,up,↑,0.4509598999284208,True,33,1
PO-M-22M22S2,645,experiment,96,↑,up,↑,0.5844719000160694,True,33,1
PO-M-22M22S2,646,experiment,91,→,right,→,0.5701911000069231,True,33,1
PO-M-22M22S2,647,experiment,101,←,left,←,0.5615052001085132,True,33,1
PO-M-22M22S2,648,experiment,49,↓,down,↓,0.46694379998371005,True,33,1
PO-M-22M22S2,649,experiment,103,↓,down,↓,0.48535059997811913,True,33,1
PO-M-22M22S2,650,experiment,93,←,left,←,0.5389584000222385,True,33,1
PO-M-22M22S2,651,experiment,66,↑,up,↑,0.5028074998408556,True,33,1
PO-M-22M22S2,652,experiment,108,←,left,←,0.5186038999818265,True,33,1
PO-M-22M22S2,653,experiment,85,↓,down,↓,0.5891081001609564,True,33,1
PO-M-22M22S2,654,experiment,54,←,left,←,0.5312284999527037,True,33,1
PO-M-22M22S2,655,experiment,52,↑,up,↑,0.5083492000121623,True,33,1
PO-M-22M22S2,656,experiment,56,→,right,→,0.38422040012665093,True,33,1
PO-M-22M22S2,657,experiment,50,←,left,←,0.4176497000735253,True,33,0
PO-M-22M22S2,658,experiment,53,→,left,←,0.4090690000448376,False,33,0
PO-M-22M22S2,659,experiment,48,↑,up,↑,0.5688750999979675,True,33,0
PO-M-22M22S2,660,experiment,100,←,left,←,0.5207058999221772,True,33,1
PO-M-22M22S2,661,experiment,63,←,left,←,1.1187619001138955,True,33,1
PO-M-22M22S2,662,experiment,86,↑,up,↑,0.5171389998868108,True,33,1
PO-M-22M22S2,663,experiment,94,↓,down,↓,0.9846333998721093,True,33,1
PO-M-22M22S2,664,experiment,99,↑,left,←,1.2401420001406223,False,33,1
PO-M-22M22S2,665,experiment,79,→,left,←,0.5237106999848038,False,33,1
PO-M-22M22S2,666,experiment,102,↓,down,↓,0.6123250001110137,True,33,1
PO-M-22M22S2,667,experiment,95,↑,up,↑,0.7796630999073386,True,33,1
PO-M-22M22S2,668,experiment,76,↓,down,↓,0.5548708999995142,True,33,1
PO-M-22M22S2,669,experiment,65,↑,up,↑,0.7504879001062363,True,33,1
PO-M-22M22S2,670,experiment,68,↓,down,↓,0.5375222999136895,True,33,1
PO-M-22M22S2,671,training,89,←,left,←,0.40904249995946884,True,32,0
PO-M-22M22S2,672,training,89,↓,down,↓,0.44726369995623827,True,32,0
PO-M-22M22S2,673,experiment,106,↓,down,↓,0.41018290002830327,True,32,1
PO-M-22M22S2,674,experiment,55,↓,down,↓,0.4380487999878824,True,32,0
PO-M-22M22S2,675,experiment,71,↑,up,↑,0.37586609995923936,True,32,0
PO-M-22M22S2,676,experiment,99,↓,down,↓,0.34254080010578036,True,32,0
PO-M-22M22S2,677,experiment,81,→,right,→,0.3339687001425773,True,32,0
PO-M-22M22S2,678,experiment,66,↓,down,↓,0.4096750000026077,True,32,0
PO-M-22M22S2,679,experiment,53,←,left,←,0.46825779997743666,True,32,0
PO-M-22M22S2,680,experiment,60,↓,up,↑,0.5497739999555051,False,32,1
PO-M-22M22S2,681,experiment,72,←,left,←,0.615300599951297,True,32,1
PO-M-22M22S2,682,experiment,92,←,left,←,0.8155313001479954,True,32,1
PO-M-22M22S2,683,experiment,89,→,right,→,0.4493251000531018,True,32,1
PO-M-22M22S2,684,experiment,102,↑,left,←,0.9566562999971211,False,32,1
PO-M-22M22S2,685,experiment,107,→,right,→,0.41716299997642636,True,32,1
PO-M-22M22S2,686,experiment,105,↓,down,↓,0.5820367999840528,True,32,0
PO-M-22M22S2,687,experiment,104,→,right,→,0.3259072001092136,True,32,1
PO-M-22M22S2,688,experiment,51,↓,down,↓,0.5006653999444097,True,32,0
PO-M-22M22S2,689,experiment,62,←,no_key,no_letter,-1.0,False,32,1
PO-M-22M22S2,690,experiment,52,↑,up,↑,0.5329944998957217,True,32,1
PO-M-22M22S2,691,experiment,100,↑,up,↑,0.5340559999458492,True,32,1
PO-M-22M22S2,692,experiment,73,↑,up,↑,0.5120956001337618,True,32,1
PO-M-22M22S2,693,experiment,59,↓,down,↓,0.9438143998850137,True,32,1
PO-M-22M22S2,694,experiment,85,↑,down,↓,1.461422299966216,False,32,1
PO-M-22M22S2,695,experiment,70,←,left,←,0.9641222001519054,True,32,1
PO-M-22M22S2,696,experiment,103,↑,up,↑,0.47416350012645125,True,32,1
PO-M-22M22S2,697,experiment,58,↑,up,↑,0.643782600061968,True,32,1
PO-M-22M22S2,698,experiment,48,↓,down,↓,0.5855859001167119,True,32,1
PO-M-22M22S2,699,experiment,67,↓,down,↓,0.5638914001174271,True,32,1
PO-M-22M22S2,700,experiment,50,↓,down,↓,0.5079755000770092,True,32,1
PO-M-22M22S2,701,experiment,82,↑,down,↓,1.004040300147608,False,32,1
PO-M-22M22S2,702,experiment,69,→,left,←,0.8924738001078367,False,32,1
PO-M-22M22S2,703,experiment,74,←,left,←,0.44842830020934343,True,32,1
PO-M-22M22S2,704,experiment,83,↑,left,←,1.0659873001277447,False,32,1
PO-M-22M22S2,705,experiment,88,←,left,←,1.00167870009318,True,32,1
PO-M-22M22S2,706,experiment,65,→,right,→,0.5715921998489648,True,32,1
PO-M-22M22S2,707,experiment,84,→,right,→,0.5288270998280495,True,32,1
PO-M-22M22S2,708,experiment,101,←,left,←,0.4897628999315202,True,32,1
PO-M-22M22S2,709,experiment,54,↑,up,↑,0.5158398000057787,True,32,1
PO-M-22M22S2,710,experiment,75,←,left,←,0.5019527999684215,True,32,1
PO-M-22M22S2,711,experiment,64,↑,up,↑,0.5564255001954734,True,32,1
PO-M-22M22S2,712,experiment,96,→,right,→,0.469734099926427,True,32,1
PO-M-22M22S2,713,experiment,79,→,right,→,0.6644687000662088,True,32,1
PO-M-22M22S2,714,experiment,57,↓,down,↓,0.4430573000572622,True,32,1
PO-M-22M22S2,715,experiment,90,↓,left,←,0.7465979000553489,False,32,1
PO-M-22M22S2,716,experiment,78,→,right,→,0.5624909000471234,True,32,1
PO-M-22M22S2,717,experiment,86,↓,down,↓,0.4471706000622362,True,32,1
PO-M-22M22S2,718,experiment,49,↓,down,↓,0.6520617001224309,True,32,1
PO-M-22M22S2,719,experiment,63,←,left,←,0.41716669988818467,True,32,1
PO-M-22M22S2,720,experiment,61,↑,up,↑,0.4557924000546336,True,32,0
PO-M-22M22S2,721,experiment,56,→,right,→,0.44195779995061457,True,32,1
PO-M-22M22S2,722,experiment,87,↓,down,↓,0.4096971999388188,True,32,1
PO-M-22M22S2,723,experiment,77,→,right,→,0.46492990013211966,True,32,0
PO-M-22M22S2,724,experiment,95,↓,down,↓,0.4006598999258131,True,32,1
PO-M-22M22S2,725,experiment,98,↓,down,↓,0.5013127001002431,True,32,0
PO-M-22M22S2,726,experiment,68,↑,up,↑,0.6738686999306083,True,32,1
PO-M-22M22S2,727,experiment,91,←,left,←,0.5363478998187929,True,32,1
PO-M-22M22S2,728,experiment,97,↓,down,↓,1.0821140999905765,True,32,1
PO-M-22M22S2,729,experiment,93,↑,up,↑,0.5594812999479473,True,32,1
PO-M-22M22S2,730,experiment,94,↑,up,↑,0.5215868998784572,True,32,1
PO-M-22M22S2,731,experiment,108,↓,down,↓,0.6003064999822527,True,32,1
PO-M-22M22S2,732,experiment,80,←,left,←,0.5333808998111635,True,32,1
PO-M-22M22S2,733,experiment,76,↑,up,↑,0.5263712001033127,True,32,1
PO-M-22M22S2,734,training,60,→,left,←,1.0308643002063036,False,32,0
PO-M-22M22S2,735,training,72,↑,up,↑,0.5653746998868883,True,32,1
PO-M-22M22S2,736,experiment,79,↑,up,↑,0.5160264000296593,True,32,1
PO-M-22M22S2,737,experiment,95,←,left,←,0.4952793000265956,True,32,1
PO-M-22M22S2,738,experiment,101,←,left,←,0.46592579991556704,True,32,1
PO-M-22M22S2,739,experiment,53,↓,right,→,0.8533401999156922,False,32,1
PO-M-22M22S2,740,experiment,105,↓,left,←,0.4171690000221133,False,32,1
PO-M-22M22S2,741,experiment,80,↓,down,↓,0.4364748999942094,True,32,0
PO-M-22M22S2,742,experiment,56,↑,up,↑,0.49533080006949604,True,32,1
PO-M-22M22S2,743,experiment,99,←,left,←,0.5543631999753416,True,32,1
PO-M-22M22S2,744,experiment,58,→,right,→,0.6004988998174667,True,32,1
PO-M-22M22S2,745,experiment,104,↑,up,↑,0.46190130012109876,True,32,1
PO-M-22M22S2,746,experiment,64,↑,up,↑,0.5576293999329209,True,32,1
PO-M-22M22S2,747,experiment,57,↓,down,↓,0.6200478000100702,True,32,1
PO-M-22M22S2,748,experiment,76,→,right,→,0.7298582000657916,True,32,1
PO-M-22M22S2,749,experiment,86,←,left,←,0.535418099956587,True,32,1
PO-M-22M22S2,750,experiment,92,↑,up,↑,0.49110610014759004,True,32,1
PO-M-22M22S2,751,experiment,73,↓,no_key,no_letter,-1.0,False,32,1
PO-M-22M22S2,752,experiment,68,↑,up,↑,0.9391035998705775,True,32,1
PO-M-22M22S2,753,experiment,94,↓,up,↑,1.6050330998841673,False,32,1
PO-M-22M22S2,754,experiment,60,→,left,←,1.552580300020054,False,32,1
PO-M-22M22S2,755,experiment,89,→,right,→,0.6604629999492317,True,32,1
PO-M-22M22S2,756,experiment,74,↓,down,↓,0.5773536001797765,True,32,1
PO-M-22M22S2,757,experiment,62,←,down,↓,0.3921414001379162,False,32,1
PO-M-22M22S2,758,experiment,83,↓,down,↓,1.58518570009619,True,32,0
PO-M-22M22S2,759,experiment,77,↑,up,↑,0.5119622000493109,True,32,1
PO-M-22M22S2,760,experiment,87,↑,up,↑,0.4946385999210179,True,32,1
PO-M-22M22S2,761,experiment,69,←,left,←,0.475424500182271,True,32,1
PO-M-22M22S2,762,experiment,98,↑,up,↑,0.607182800071314,True,32,1
PO-M-22M22S2,763,experiment,103,↓,down,↓,0.5323395000305027,True,32,1
PO-M-22M22S2,764,experiment,67,↓,down,↓,0.45655050012283027,True,32,1
PO-M-22M22S2,765,experiment,72,←,left,←,0.5178083998616785,True,32,1
PO-M-22M22S2,766,experiment,63,→,right,→,0.4759593999478966,True,32,1
PO-M-22M22S2,767,experiment,81,←,up,↑,0.46171129983849823,False,32,1
PO-M-22M22S2,768,experiment,54,←,left,←,0.48922890005633235,True,32,1
PO-M-22M22S2,769,experiment,100,↑,up,↑,0.43590310006402433,True,32,1
PO-M-22M22S2,770,experiment,59,↑,up,↑,0.550505000166595,True,32,0
PO-M-22M22S2,771,experiment,82,→,right,→,0.41741869994439185,True,32,1
PO-M-22M22S2,772,experiment,55,↑,up,↑,0.4730962000321597,True,32,0
PO-M-22M22S2,773,experiment,78,↑,no_key,no_letter,-1.0,False,32,1
PO-M-22M22S2,774,experiment,75,→,right,→,0.35048180003650486,True,32,1
PO-M-22M22S2,775,experiment,66,↓,down,↓,0.4409670999739319,True,32,0
PO-M-22M22S2,776,experiment,49,←,left,←,0.5498980998527259,True,32,1
PO-M-22M22S2,777,experiment,65,↑,left,←,0.7139948001131415,False,32,1
PO-M-22M22S2,778,experiment,93,↑,up,↑,0.4623496998101473,True,32,1
PO-M-22M22S2,779,experiment,102,↓,down,↓,0.5849425001069903,True,32,1
PO-M-22M22S2,780,experiment,91,→,left,←,0.36659719981253147,False,32,1
PO-M-22M22S2,781,experiment,71,→,right,→,0.49241629987955093,True,32,0
PO-M-22M22S2,782,experiment,108,↑,left,←,0.7001557000912726,False,32,1
PO-M-22M22S2,783,experiment,85,←,left,←,1.3715717000886798,True,32,1
PO-M-22M22S2,784,experiment,88,←,left,←,0.5193662999663502,True,32,1
PO-M-22M22S2,785,experiment,96,→,left,←,0.4503708998672664,False,32,1
PO-M-22M22S2,786,experiment,84,→,right,→,1.2680359000805765,True,32,1
PO-M-22M22S2,787,experiment,50,←,left,←,0.5922628999687731,True,32,1
PO-M-22M22S2,788,experiment,61,→,right,→,0.5641419999301434,True,32,1
PO-M-22M22S2,789,experiment,51,↑,up,↑,0.5402311000507325,True,32,1
PO-M-22M22S2,790,experiment,90,↓,down,↓,0.6241986998356879,True,32,1
PO-M-22M22S2,791,experiment,97,→,right,→,0.574428599793464,True,32,1
PO-M-22M22S2,792,experiment,52,↓,down,↓,0.3674340001307428,True,32,1
PO-M-22M22S2,793,experiment,48,↑,up,↑,0.5990022998303175,True,32,0
PO-M-22M22S2,794,experiment,70,→,right,→,0.41720769996754825,True,32,1
PO-M-22M22S2,795,experiment,106,→,right,→,0.5706102000549436,True,32,0
PO-M-22M22S2,796,experiment,107,↓,down,↓,0.4172461999114603,True,32,1
PO-M-22M22S2,797,training,96,←,left,←,0.43825550004839897,True,32,0
PO-M-22M22S2,798,training,96,←,left,←,0.4089236001018435,True,32,0
PO-M-22M22S2,799,experiment,56,←,left,←,0.46441180002875626,True,32,0
PO-M-22M22S2,800,experiment,95,↓,down,↓,0.5812319000251591,True,32,1
PO-M-22M22S2,801,experiment,49,↓,down,↓,0.41773659992031753,True,32,1
PO-M-22M22S2,802,experiment,82,↑,up,↑,0.5129037001170218,True,32,0
PO-M-22M22S2,803,experiment,105,↑,up,↑,0.5213349000550807,True,32,1
PO-M-22M22S2,804,experiment,98,←,left,←,0.43605099990963936,True,32,1
PO-M-22M22S2,805,experiment,51,↑,up,↑,0.46456389990635216,True,32,0
PO-M-22M22S2,806,experiment,75,→,right,→,0.6203840000089258,True,32,1
PO-M-22M22S2,807,experiment,55,→,right,→,0.9935053000226617,True,32,1
PO-M-22M22S2,808,experiment,96,←,left,←,0.39193010004237294,True,32,1
PO-M-22M22S2,809,experiment,101,↓,down,↓,0.5992434001527727,True,32,0
PO-M-22M22S2,810,experiment,99,↓,down,↓,0.5582273001782596,True,32,1
PO-M-22M22S2,811,experiment,103,↑,up,↑,0.5011388000566512,True,32,1
PO-M-22M22S2,812,experiment,88,→,right,→,0.4010675000026822,True,32,1
PO-M-22M22S2,813,experiment,108,←,left,←,0.5029773998539895,True,32,0
PO-M-22M22S2,814,experiment,104,↑,up,↑,0.4091786998324096,True,32,1
PO-M-22M22S2,815,experiment,76,→,right,→,0.5495072000194341,True,32,0
PO-M-22M22S2,816,experiment,73,→,right,→,0.5590526999440044,True,32,1
PO-M-22M22S2,817,experiment,68,↓,down,↓,0.6176964999176562,True,32,1
PO-M-22M22S2,818,experiment,91,↑,up,↑,0.4665979000274092,True,32,1
PO-M-22M22S2,819,experiment,80,→,right,→,0.38396400003694,True,32,1
PO-M-22M22S2,820,experiment,53,↓,down,↓,0.41743479995056987,True,32,0
PO-M-22M22S2,821,experiment,58,←,left,←,1.4309270000085235,True,32,0
PO-M-22M22S2,822,experiment,106,↓,down,↓,0.4424365998711437,True,32,1
PO-M-22M22S2,823,experiment,50,→,right,→,0.4710476000327617,True,32,1
PO-M-22M22S2,824,experiment,77,←,left,←,0.746070499997586,True,32,1
PO-M-22M22S2,825,experiment,67,↓,right,→,0.5257991999387741,False,32,1
PO-M-22M22S2,826,experiment,94,←,left,←,0.5048408999573439,True,32,1
PO-M-22M22S2,827,experiment,78,↑,up,↑,0.6180942000355572,True,32,1
PO-M-22M22S2,828,experiment,62,↓,down,↓,0.5646171001717448,True,32,1
PO-M-22M22S2,829,experiment,107,←,left,←,0.6416536998003721,True,32,1
PO-M-22M22S2,830,experiment,86,→,right,→,0.4752625001128763,True,32,1
PO-M-22M22S2,831,experiment,100,↓,down,↓,0.43913190020248294,True,32,1
PO-M-22M22S2,832,experiment,69,→,right,→,0.909944900078699,True,32,0
PO-M-22M22S2,833,experiment,66,↑,up,↑,0.5473442999646068,True,32,1
PO-M-22M22S2,834,experiment,60,→,right,→,0.9206473999656737,True,32,1
PO-M-22M22S2,835,experiment,52,↓,down,↓,0.48259110003709793,True,32,1
PO-M-22M22S2,836,experiment,61,→,right,→,0.4354166998527944,True,32,1
PO-M-22M22S2,837,experiment,63,↑,up,↑,0.4598361998796463,True,32,0
PO-M-22M22S2,838,experiment,84,↓,down,↓,0.5571498000063002,True,32,1
PO-M-22M22S2,839,experiment,70,↓,down,↓,0.5191846000961959,True,32,1
PO-M-22M22S2,840,experiment,89,↑,up,↑,0.39287279988639057,True,32,1
PO-M-22M22S2,841,experiment,83,→,right,→,0.33383939997293055,True,32,0
PO-M-22M22S2,842,experiment,90,↑,up,↑,0.9807005000766367,True,32,0
PO-M-22M22S2,843,experiment,79,↑,up,↑,0.6269636999350041,True,32,1
PO-M-22M22S2,844,experiment,71,←,left,←,0.4007156000006944,True,32,1
PO-M-22M22S2,845,experiment,59,↓,down,↓,0.949441900011152,True,32,0
PO-M-22M22S2,846,experiment,54,→,right,→,1.0291885000187904,True,32,1
PO-M-22M22S2,847,experiment,64,↓,down,↓,0.8626745999790728,True,32,1
PO-M-22M22S2,848,experiment,74,→,right,→,0.6030495001468807,True,32,1
PO-M-22M22S2,849,experiment,87,→,right,→,0.5417579999193549,True,32,1
PO-M-22M22S2,850,experiment,48,←,left,←,0.5520300001371652,True,32,1
PO-M-22M22S2,851,experiment,65,→,right,→,0.41727339988574386,True,32,1
PO-M-22M22S2,852,experiment,93,←,left,←,0.4996050999034196,True,32,0
PO-M-22M22S2,853,experiment,85,→,right,→,0.45107139996252954,True,32,1
PO-M-22M22S2,854,experiment,72,←,left,←,0.5288225000258535,True,32,1
PO-M-22M22S2,855,experiment,81,→,right,→,0.41729689994826913,True,32,1
PO-M-22M22S2,856,experiment,57,↑,up,↑,0.6362925001885742,True,32,0
PO-M-22M22S2,857,experiment,92,←,left,←,0.40085419989190996,True,32,1
PO-M-22M22S2,858,experiment,102,←,left,←,0.5131550999358296,True,32,0
PO-M-22M22S2,859,experiment,97,↑,up,↑,0.3761324000079185,True,32,1
PO-M-22M22S2,860,training,99,←,left,←,0.3757263000588864,True,31,0
PO-M-22M22S2,861,training,56,↑,up,↑,0.6227160999551415,True,31,0
PO-M-22M22S2,862,experiment,96,↓,down,↓,0.5494509998243302,True,31,1
PO-M-22M22S2,863,experiment,78,↑,up,↑,0.5172216000501066,True,31,1
PO-M-22M22S2,864,experiment,91,←,left,←,0.5698391001205891,True,31,1
PO-M-22M22S2,865,experiment,93,↑,up,↑,0.5640281001105905,True,31,1
PO-M-22M22S2,866,experiment,58,←,left,←,0.5537398001179099,True,31,1
PO-M-22M22S2,867,experiment,77,→,right,→,0.6017468001227826,True,31,1
PO-M-22M22S2,868,experiment,98,↑,up,↑,1.7049339998047799,True,31,1
PO-M-22M22S2,869,experiment,106,←,left,←,0.7444968000054359,True,31,1
PO-M-22M22S2,870,experiment,51,→,left,←,0.7057539001107216,False,31,1
PO-M-22M22S2,871,experiment,57,↓,left,←,0.602011299924925,False,31,1
PO-M-22M22S2,872,experiment,107,→,right,→,0.33520239987410605,True,31,1
PO-M-22M22S2,873,experiment,60,←,left,←,0.460084900027141,True,31,0
PO-M-22M22S2,874,experiment,66,↓,down,↓,0.5153534000273794,True,31,1
PO-M-22M22S2,875,experiment,73,←,left,←,1.02994509995915,True,31,1
PO-M-22M22S2,876,experiment,99,←,left,←,0.5238562999293208,True,31,1
PO-M-22M22S2,877,experiment,90,↑,up,↑,1.1124334998894483,True,31,1
PO-M-22M22S2,878,experiment,59,→,right,→,0.4326264001429081,True,31,1
PO-M-22M22S2,879,experiment,81,→,right,→,0.5792352000717074,True,31,0
PO-M-22M22S2,880,experiment,69,→,right,→,0.46103839995339513,True,31,1
PO-M-22M22S2,881,experiment,95,←,right,→,0.4274677000939846,False,31,1
PO-M-22M22S2,882,experiment,89,←,left,←,0.34237219998613,True,31,0
PO-M-22M22S2,883,experiment,65,↑,up,↑,0.5034923001658171,True,31,0
PO-M-22M22S2,884,experiment,68,↓,down,↓,0.5245894999243319,True,31,1
PO-M-22M22S2,885,experiment,76,→,right,→,0.5500255001243204,True,31,1
PO-M-22M22S2,886,experiment,102,↓,down,↓,0.46177940000779927,True,31,1
PO-M-22M22S2,887,experiment,48,←,left,←,0.36740899994038045,True,31,1
PO-M-22M22S2,888,experiment,72,→,right,→,0.571444199886173,True,31,0
PO-M-22M22S2,889,experiment,74,↑,up,↑,0.37523750006221235,True,31,1
PO-M-22M22S2,890,experiment,50,→,right,→,0.39264389988966286,True,31,0
PO-M-22M22S2,891,experiment,52,←,left,←,0.5938898001331836,True,31,0
PO-M-22M22S2,892,experiment,61,←,left,←,0.46188080008141696,True,31,1
PO-M-22M22S2,893,experiment,67,←,left,←,0.5487681000959128,True,31,1
PO-M-22M22S2,894,experiment,70,↑,up,↑,0.5352868000045419,True,31,1
PO-M-22M22S2,895,experiment,100,↓,up,↑,0.7123605001252145,False,31,1
PO-M-22M22S2,896,experiment,82,↑,up,↑,0.6244842999149114,True,31,1
PO-M-22M22S2,897,experiment,103,←,left,←,0.4688158999197185,True,31,1
PO-M-22M22S2,898,experiment,83,↓,down,↓,0.6700228999834508,True,31,1
PO-M-22M22S2,899,experiment,94,←,left,←,0.6117675001733005,True,31,1
PO-M-22M22S2,900,experiment,92,↓,down,↓,0.39265580009669065,True,31,1
PO-M-22M22S2,901,experiment,88,↓,down,↓,0.5828255999367684,True,31,0
PO-M-22M22S2,902,experiment,64,↓,down,↓,0.5059964000247419,True,31,1
PO-M-22M22S2,903,experiment,55,↓,down,↓,0.5710352999158204,True,31,1
PO-M-22M22S2,904,experiment,56,↓,down,↓,0.46568590006791055,True,31,1
PO-M-22M22S2,905,experiment,80,←,left,←,0.5398641999345273,True,31,1
PO-M-22M22S2,906,experiment,53,↑,up,↑,0.5164057998917997,True,31,1
PO-M-22M22S2,907,experiment,84,↑,up,↑,0.30924690002575517,True,31,1
PO-M-22M22S2,908,experiment,71,↑,up,↑,0.4869313999079168,True,31,0
PO-M-22M22S2,909,experiment,105,↓,down,↓,0.48036119993776083,True,31,1
PO-M-22M22S2,910,experiment,108,↓,down,↓,0.4018381000496447,True,31,1
PO-M-22M22S2,911,experiment,54,↓,down,↓,0.3350118000525981,True,31,0
PO-M-22M22S2,912,experiment,97,↑,up,↑,0.6230447001289576,True,31,0
PO-M-22M22S2,913,experiment,104,→,right,→,0.5951877997722477,True,31,1
PO-M-22M22S2,914,experiment,85,←,left,←,0.4868411000352353,True,31,1
PO-M-22M22S2,915,experiment,49,←,left,←,0.5229549000505358,True,31,1
PO-M-22M22S2,916,experiment,87,↑,up,↑,0.5207088999450207,True,31,1
PO-M-22M22S2,917,experiment,101,←,left,←,1.073757200036198,True,31,1
PO-M-22M22S2,918,experiment,86,↓,down,↓,0.521867300150916,True,31,1
PO-M-22M22S2,919,experiment,75,↑,up,↑,0.4434380999300629,True,31,1
PO-M-22M22S2,920,experiment,62,→,right,→,0.40906299999915063,True,31,1
PO-M-22M22S2,921,experiment,79,↓,down,↓,0.43415219988673925,True,31,0
PO-M-22M22S2,922,experiment,63,↑,up,↑,0.38420429988764226,True,31,1
PO-M-22M22S2,923,training,68,↑,up,↑,0.5040188001003116,True,30,0
PO-M-22M22S2,924,training,64,←,left,←,0.5183359000366181,True,30,1
PO-M-22M22S2,925,experiment,92,↑,up,↑,0.4904823999386281,True,30,1
PO-M-22M22S2,926,experiment,69,←,left,←,0.5357377000618726,True,30,1
PO-M-22M22S2,927,experiment,89,←,left,←,0.38420319999568164,True,30,1
PO-M-22M22S2,928,experiment,68,←,left,←,0.36714309989474714,True,30,0
PO-M-22M22S2,929,experiment,60,→,right,→,0.7863962999545038,True,30,0
PO-M-22M22S2,930,experiment,53,↑,up,↑,0.5851515999529511,True,30,1
PO-M-22M22S2,931,experiment,98,↑,up,↑,0.4172268998809159,True,30,1
PO-M-22M22S2,932,experiment,86,↓,up,↑,0.5069120000116527,False,30,0
PO-M-22M22S2,933,experiment,97,↑,up,↑,0.40080539998598397,True,30,1
PO-M-22M22S2,934,experiment,51,→,left,←,0.437124399933964,False,30,0
PO-M-22M22S2,935,experiment,56,←,left,←,0.567950600059703,True,30,1
PO-M-22M22S2,936,experiment,96,↓,down,↓,0.42558369995094836,True,30,1
PO-M-22M22S2,937,experiment,64,↑,up,↑,0.48231020011007786,True,30,1
PO-M-22M22S2,938,experiment,95,↑,up,↑,0.5108330000657588,True,30,1
PO-M-22M22S2,939,experiment,65,↑,up,↑,0.5007559000514448,True,30,1
PO-M-22M22S2,940,experiment,70,↑,up,↑,0.5210104999132454,True,30,1
PO-M-22M22S2,941,experiment,108,→,right,→,0.43160309991799295,True,30,1
PO-M-22M22S2,942,experiment,83,←,left,←,0.4424519999884069,True,30,1
PO-M-22M22S2,943,experiment,52,↑,up,↑,0.5274053001776338,True,30,1
PO-M-22M22S2,944,experiment,91,↑,up,↑,0.3580563999712467,True,30,1
PO-M-22M22S2,945,experiment,77,←,right,→,0.6909904000349343,False,30,0
PO-M-22M22S2,946,experiment,104,↑,up,↑,0.4288967999164015,True,30,1
PO-M-22M22S2,947,experiment,66,↑,up,↑,0.46880050003528595,True,30,1
PO-M-22M22S2,948,experiment,106,↑,up,↑,0.35931830015033484,True,30,1
PO-M-22M22S2,949,experiment,62,↓,down,↓,0.45100459991954267,True,30,0
PO-M-22M22S2,950,experiment,57,↓,down,↓,0.375503099989146,True,30,1
PO-M-22M22S2,951,experiment,90,↓,down,↓,0.6721506998874247,True,30,0
PO-M-22M22S2,952,experiment,55,↓,down,↓,0.6987546000164002,True,30,1
PO-M-22M22S2,953,experiment,63,→,right,→,0.4340955999214202,True,30,1
PO-M-22M22S2,954,experiment,107,↑,up,↑,0.4599792999215424,True,30,1
PO-M-22M22S2,955,experiment,84,→,right,→,0.4853867997881025,True,30,1
PO-M-22M22S2,956,experiment,78,→,right,→,0.46403959998860955,True,30,1
PO-M-22M22S2,957,experiment,49,↑,up,↑,0.4845882998779416,True,30,1
PO-M-22M22S2,958,experiment,48,←,left,←,0.46564260008744895,True,30,1
PO-M-22M22S2,959,experiment,76,←,left,←,0.4292653000447899,True,30,1
PO-M-22M22S2,960,experiment,99,→,right,→,0.49023599992506206,True,30,1
PO-M-22M22S2,961,experiment,94,←,left,←,0.5988379002083093,True,30,1
PO-M-22M22S2,962,experiment,82,→,right,→,0.6113113998435438,True,30,1
PO-M-22M22S2,963,experiment,73,→,right,→,0.7384542999789119,True,30,1
PO-M-22M22S2,964,experiment,101,←,left,←,0.5708783001173288,True,30,1
PO-M-22M22S2,965,experiment,79,↑,up,↑,0.3841337999328971,True,30,1
PO-M-22M22S2,966,experiment,74,←,left,←,0.33400300005450845,True,30,0
PO-M-22M22S2,967,experiment,87,↑,up,↑,0.3842307000886649,True,30,0
PO-M-22M22S2,968,experiment,58,↑,up,↑,0.4271654000040144,True,30,0
PO-M-22M22S2,969,experiment,105,→,left,←,0.6217864998616278,False,30,1
PO-M-22M22S2,970,experiment,71,↓,up,↑,0.5650264001451433,False,30,1
PO-M-22M22S2,971,experiment,88,↓,down,↓,0.8006565000396222,True,30,1
PO-M-22M22S2,972,experiment,54,←,left,←,0.7581376999150962,True,30,1
PO-M-22M22S2,973,experiment,61,→,right,→,0.6995885998476297,True,30,1
PO-M-22M22S2,974,experiment,67,↓,left,←,0.4492043999489397,False,30,1
PO-M-22M22S2,975,experiment,81,←,left,←,1.1234798000659794,True,30,1
PO-M-22M22S2,976,experiment,59,←,left,←,0.4193100000265986,True,30,1
PO-M-22M22S2,977,experiment,50,→,right,→,0.608635799959302,True,30,0
PO-M-22M22S2,978,experiment,102,←,left,←,0.5819701000582427,True,30,1
PO-M-22M22S2,979,experiment,80,↓,down,↓,0.45985670015215874,True,30,1
PO-M-22M22S2,980,experiment,72,↓,down,↓,0.4250511999707669,True,30,1
PO-M-22M22S2,981,experiment,93,→,right,→,0.5608439999632537,True,30,0
PO-M-22M22S2,982,experiment,103,→,left,←,0.632006400031969,False,30,1
PO-M-22M22S2,983,experiment,75,↑,up,↑,0.5333010000176728,True,30,1
PO-M-22M22S2,984,experiment,100,↑,up,↑,0.400700599886477,True,30,1
PO-M-22M22S2,985,experiment,85,→,right,→,0.7053678999654949,True,30,0
PO-M-22M22S2,986,training,77,↓,down,↓,0.9016229999251664,True,30,0
PO-M-22M22S2,987,training,88,↓,down,↓,0.6120488999877125,True,30,1
PO-M-22M22S2,988,experiment,83,→,right,→,0.4397941001225263,True,30,1
PO-M-22M22S2,989,experiment,68,↑,up,↑,0.47926250007003546,True,30,1
PO-M-22M22S2,990,experiment,100,↑,up,↑,0.41959980013780296,True,30,1
PO-M-22M22S2,991,experiment,73,↑,up,↑,0.45725199999287724,True,30,0
PO-M-22M22S2,992,experiment,84,→,right,→,1.146465600002557,True,30,1
PO-M-22M22S2,993,experiment,97,↑,up,↑,0.39213340007700026,True,30,1
PO-M-22M22S2,994,experiment,62,←,left,←,0.6149965999647975,True,30,0
PO-M-22M22S2,995,experiment,99,↓,down,↓,0.5487989999819547,True,30,1
PO-M-22M22S2,996,experiment,67,→,right,→,0.5922689998988062,True,30,1
PO-M-22M22S2,997,experiment,103,↓,down,↓,0.4621811001561582,True,30,1
PO-M-22M22S2,998,experiment,107,←,left,←,0.5193537999875844,True,30,1
PO-M-22M22S2,999,experiment,63,↓,down,↓,0.6453877999447286,True,30,1
PO-M-22M22S2,1000,experiment,95,←,left,←,0.4359760000370443,True,30,1
PO-M-22M22S2,1001,experiment,104,→,right,→,0.5672296001575887,True,30,1
PO-M-22M22S2,1002,experiment,93,↑,up,↑,0.3757331999950111,True,30,1
PO-M-22M22S2,1003,experiment,55,→,right,→,0.47933449991978705,True,30,0
PO-M-22M22S2,1004,experiment,52,←,left,←,0.530429600039497,True,30,1
PO-M-22M22S2,1005,experiment,82,←,left,←,0.457535799825564,True,30,1
PO-M-22M22S2,1006,experiment,75,←,left,←,0.5581229000817984,True,30,1
PO-M-22M22S2,1007,experiment,51,↓,left,←,0.8223216000478715,False,30,1
PO-M-22M22S2,1008,experiment,66,←,left,←,0.5112656999845058,True,30,1
PO-M-22M22S2,1009,experiment,77,→,right,→,0.47279699984937906,True,30,1
PO-M-22M22S2,1010,experiment,105,↓,down,↓,0.5464532000478357,True,30,1
PO-M-22M22S2,1011,experiment,61,↓,down,↓,0.5207282998599112,True,30,1
PO-M-22M22S2,1012,experiment,56,↓,down,↓,0.8006790999788791,True,30,1
PO-M-22M22S2,1013,experiment,64,↓,down,↓,0.49126000003889203,True,30,1
PO-M-22M22S2,1014,experiment,80,↑,up,↑,1.0123785000760108,True,30,1
PO-M-22M22S2,1015,experiment,98,↑,up,↑,0.5231563998386264,True,30,1
PO-M-22M22S2,1016,experiment,60,↑,up,↑,0.4898250000551343,True,30,1
PO-M-22M22S2,1017,experiment,57,↑,up,↑,0.4829377999994904,True,30,1
PO-M-22M22S2,1018,experiment,94,↓,down,↓,0.4802468998823315,True,30,1
PO-M-22M22S2,1019,experiment,59,↑,up,↑,0.9287610999308527,True,30,1
PO-M-22M22S2,1020,experiment,102,←,left,←,0.4175066000316292,True,30,1
PO-M-22M22S2,1021,experiment,70,↓,down,↓,0.5928870998322964,True,30,0
PO-M-22M22S2,1022,experiment,81,→,right,→,0.8778040001634508,True,30,1
PO-M-22M22S2,1023,experiment,65,←,left,←,0.9329164999071509,True,30,1
PO-M-22M22S2,1024,experiment,101,←,left,←,0.4300922998227179,True,30,1
PO-M-22M22S2,1025,experiment,69,←,left,←,0.42944910004734993,True,30,1
PO-M-22M22S2,1026,experiment,96,↓,down,↓,0.49949229997582734,True,30,1
PO-M-22M22S2,1027,experiment,87,↓,down,↓,0.4503462000284344,True,30,1
PO-M-22M22S2,1028,experiment,48,↑,up,↑,1.0162111001554877,True,30,1
PO-M-22M22S2,1029,experiment,88,↑,up,↑,0.5457141001243144,True,30,1
PO-M-22M22S2,1030,experiment,90,↑,up,↑,0.38409770000725985,True,30,1
PO-M-22M22S2,1031,experiment,78,→,left,←,0.4007776000071317,False,30,0
PO-M-22M22S2,1032,experiment,71,↑,up,↑,0.3507916999515146,True,30,0
PO-M-22M22S2,1033,experiment,72,↓,down,↓,0.5327943000011146,True,30,0
PO-M-22M22S2,1034,experiment,76,←,left,←,0.5098804000299424,True,30,1
PO-M-22M22S2,1035,experiment,54,↑,up,↑,0.4955923000816256,True,30,1
PO-M-22M22S2,1036,experiment,85,↑,up,↑,0.4006898000370711,True,30,1
PO-M-22M22S2,1037,experiment,53,→,right,→,0.400546400109306,True,30,0
PO-M-22M22S2,1038,experiment,74,→,right,→,0.4008087001275271,True,30,0
PO-M-22M22S2,1039,experiment,49,→,right,→,0.47485060011968017,True,30,0
PO-M-22M22S2,1040,experiment,91,↑,up,↑,0.6012442999053746,True,30,1
PO-M-22M22S2,1041,experiment,106,↑,up,↑,0.46977780014276505,True,30,1
PO-M-22M22S2,1042,experiment,58,←,left,←,0.6154132999945432,True,30,1
PO-M-22M22S2,1043,experiment,108,↓,down,↓,0.5143591000232846,True,30,1
PO-M-22M22S2,1044,experiment,79,→,right,→,0.6110475000459701,True,30,1
PO-M-22M22S2,1045,experiment,89,↓,down,↓,0.5248596000019461,True,30,1
PO-M-22M22S2,1046,experiment,50,→,right,→,0.5751803000457585,True,30,1
PO-M-22M22S2,1047,experiment,86,↑,up,↑,0.5469674000050873,True,30,1
PO-M-22M22S2,1048,experiment,92,↑,up,↑,0.4702367999125272,True,30,1
PO-M-22M22S2,1049,training,91,→,right,→,0.6065156999975443,True,29,0
PO-M-22M22S2,1050,training,89,←,left,←,0.44812570000067353,True,29,1
PO-M-22M22S2,1051,experiment,69,←,left,←,0.36832350003533065,True,29,1
PO-M-22M22S2,1052,experiment,91,←,left,←,0.521075600059703,True,29,0
PO-M-22M22S2,1053,experiment,95,→,right,→,0.5079465999733657,True,29,1
PO-M-22M22S2,1054,experiment,66,↓,down,↓,0.4815609999932349,True,29,1
PO-M-22M22S2,1055,experiment,56,←,left,←,0.34283510013483465,True,29,1
PO-M-22M22S2,1056,experiment,64,↓,down,↓,0.4319863000418991,True,29,0
PO-M-22M22S2,1057,experiment,97,↑,up,↑,0.5018005999736488,True,29,1
PO-M-22M22S2,1058,experiment,50,→,right,→,0.7128840999212116,True,29,1
PO-M-22M22S2,1059,experiment,82,↓,down,↓,0.6086563998833299,True,29,1
PO-M-22M22S2,1060,experiment,104,↓,down,↓,0.5652910999488086,True,29,1
PO-M-22M22S2,1061,experiment,58,→,right,→,0.4995432000141591,True,29,1
PO-M-22M22S2,1062,experiment,72,↑,up,↑,0.43885970022529364,True,29,1
PO-M-22M22S2,1063,experiment,90,↑,up,↑,0.446965399896726,True,29,1
PO-M-22M22S2,1064,experiment,67,→,right,→,0.47867690003477037,True,29,1
PO-M-22M22S2,1065,experiment,79,←,left,←,0.5046581998467445,True,29,1
PO-M-22M22S2,1066,experiment,89,↑,up,↑,0.45442119985818863,True,29,1
PO-M-22M22S2,1067,experiment,105,↑,up,↑,0.45698100002482533,True,29,1
PO-M-22M22S2,1068,experiment,101,←,left,←,0.43713560001924634,True,29,1
PO-M-22M22S2,1069,experiment,88,→,right,→,0.4938699998892844,True,29,1
PO-M-22M22S2,1070,experiment,85,↑,up,↑,0.36727970000356436,True,29,1
PO-M-22M22S2,1071,experiment,99,←,left,←,0.3758767999242991,True,29,0
PO-M-22M22S2,1072,experiment,74,↓,down,↓,0.5969128999859095,True,29,0
PO-M-22M22S2,1073,experiment,54,↓,down,↓,0.39220439991913736,True,29,1
PO-M-22M22S2,1074,experiment,108,↓,down,↓,0.494371899869293,True,29,0
PO-M-22M22S2,1075,experiment,55,→,right,→,0.6165238998364657,True,29,1
PO-M-22M22S2,1076,experiment,49,←,left,←,0.5109943000134081,True,29,1
PO-M-22M22S2,1077,experiment,81,←,left,←,0.5272537998389453,True,29,1
PO-M-22M22S2,1078,experiment,83,↓,down,↓,0.5903455999214202,True,29,1
PO-M-22M22S2,1079,experiment,106,→,right,→,0.5550976998638362,True,29,1
PO-M-22M22S2,1080,experiment,86,↓,down,↓,0.4162708001676947,True,29,1
PO-M-22M22S2,1081,experiment,52,↑,up,↑,0.5733882999047637,True,29,1
PO-M-22M22S2,1082,experiment,51,↑,up,↑,0.5976901999674737,True,29,1
PO-M-22M22S2,1083,experiment,107,↑,up,↑,0.49727559997700155,True,29,1
PO-M-22M22S2,1084,experiment,61,↑,up,↑,0.5048885999713093,True,29,1
PO-M-22M22S2,1085,experiment,70,→,right,→,0.44491479988209903,True,29,1
PO-M-22M22S2,1086,experiment,65,←,left,←,0.38390130014158785,True,29,1
PO-M-22M22S2,1087,experiment,63,↑,up,↑,0.5200070000719279,True,29,0
PO-M-22M22S2,1088,experiment,84,←,left,←,0.479217299958691,True,29,1
PO-M-22M22S2,1089,experiment,48,↑,no_key,no_letter,-1.0,False,29,1
PO-M-22M22S2,1090,experiment,59,↓,down,↓,0.6271315000485629,True,29,1
PO-M-22M22S2,1091,experiment,98,→,right,→,0.601136100012809,True,29,1
PO-M-22M22S2,1092,experiment,71,←,left,←,1.8730244000907987,True,29,1
PO-M-22M22S2,1093,experiment,57,←,left,←,0.7393569000996649,True,29,1
PO-M-22M22S2,1094,experiment,87,←,left,←,1.103598500136286,True,29,1
PO-M-22M22S2,1095,experiment,93,↑,up,↑,0.46020199987106025,True,29,1
PO-M-22M22S2,1096,experiment,75,↑,up,↑,0.49685869994573295,True,29,1
PO-M-22M22S2,1097,experiment,92,←,left,←,0.48580150003544986,True,29,1
PO-M-22M22S2,1098,experiment,100,↑,up,↑,0.5288853000383824,True,29,1
PO-M-22M22S2,1099,experiment,62,→,right,→,0.943514300044626,True,29,1
PO-M-22M22S2,1100,experiment,78,←,left,←,0.35095319990068674,True,29,1
PO-M-22M22S2,1101,experiment,77,↓,down,↓,0.6467720000073314,True,29,0
PO-M-22M22S2,1102,experiment,73,←,no_key,no_letter,-1.0,False,29,1
PO-M-22M22S2,1103,experiment,102,→,up,↑,0.6533621998969465,False,29,1
PO-M-22M22S2,1104,experiment,76,→,right,→,0.5381289999932051,True,29,1
PO-M-22M22S2,1105,experiment,96,↓,down,↓,0.5797081999480724,True,29,1
PO-M-22M22S2,1106,experiment,68,↑,up,↑,0.5335028998088092,True,29,1
PO-M-22M22S2,1107,experiment,94,↑,up,↑,0.47268100013025105,True,29,1
PO-M-22M22S2,1108,experiment,103,↑,up,↑,0.5711405999027193,True,29,1
PO-M-22M22S2,1109,experiment,53,→,right,→,0.442110100062564,True,29,1
PO-M-22M22S2,1110,experiment,80,↑,up,↑,0.49351330008357763,True,29,1
PO-M-22M22S2,1111,experiment,60,→,right,→,0.46153529989533126,True,29,1
PO-M-22M22S2,1112,training,76,→,right,→,0.6279002998489887,True,28,0
PO-M-22M22S2,1113,training,51,←,left,←,1.2893974999897182,True,28,1
PO-M-22M22S2,1114,experiment,48,←,left,←,0.4616424001287669,True,28,1
PO-M-22M22S2,1115,experiment,50,↑,up,↑,0.4265100001357496,True,28,1
PO-M-22M22S2,1116,experiment,61,←,left,←,0.3756965999491513,True,28,1
PO-M-22M22S2,1117,experiment,72,↓,left,←,0.8052474001888186,False,28,0
PO-M-22M22S2,1118,experiment,63,↑,up,↑,0.4957562000490725,True,28,1
PO-M-22M22S2,1119,experiment,67,←,left,←,0.4296761001460254,True,28,1
PO-M-22M22S2,1120,experiment,87,→,right,→,0.375729100080207,True,28,1
PO-M-22M22S2,1121,experiment,66,↑,up,↑,0.9049288998357952,True,28,0
PO-M-22M22S2,1122,experiment,49,→,right,→,0.4363752999342978,True,28,1
PO-M-22M22S2,1123,experiment,62,←,right,→,0.4542070000898093,False,28,1
PO-M-22M22S2,1124,experiment,86,↑,up,↑,0.4072464001365006,True,28,1
PO-M-22M22S2,1125,experiment,81,↓,down,↓,0.4354497999884188,True,28,1
PO-M-22M22S2,1126,experiment,93,→,right,→,0.48260889993980527,True,28,1
PO-M-22M22S2,1127,experiment,77,↓,down,↓,0.5893791001290083,True,28,1
PO-M-22M22S2,1128,experiment,103,↑,up,↑,0.4117343001998961,True,28,1
PO-M-22M22S2,1129,experiment,53,←,left,←,0.8244770001620054,True,28,1
PO-M-22M22S2,1130,experiment,101,←,right,→,0.46957809990271926,False,28,1
PO-M-22M22S2,1131,experiment,60,↓,down,↓,0.502545699942857,True,28,1
PO-M-22M22S2,1132,experiment,80,←,left,←,0.4715702999383211,True,28,1
PO-M-22M22S2,1133,experiment,104,←,left,←,0.42620530002750456,True,28,1
PO-M-22M22S2,1134,experiment,94,←,left,←,1.0735887000337243,True,28,1
PO-M-22M22S2,1135,experiment,75,←,left,←,0.5172021999023855,True,28,1
PO-M-22M22S2,1136,experiment,108,←,left,←,0.4762005000375211,True,28,1
PO-M-22M22S2,1137,experiment,54,←,left,←,0.40760450018569827,True,28,1
PO-M-22M22S2,1138,experiment,97,→,right,→,0.44587469985708594,True,28,1
PO-M-22M22S2,1139,experiment,64,↓,down,↓,0.5819457999896258,True,28,1
PO-M-22M22S2,1140,experiment,96,←,left,←,0.35863769985735416,True,28,1
PO-M-22M22S2,1141,experiment,100,→,right,→,0.3023113999515772,True,28,0
PO-M-22M22S2,1142,experiment,70,↓,down,↓,0.5382958000991493,True,28,0
PO-M-22M22S2,1143,experiment,58,←,left,←,0.4250288000330329,True,28,1
PO-M-22M22S2,1144,experiment,79,←,left,←,0.43775829998776317,True,28,1
PO-M-22M22S2,1145,experiment,99,→,left,←,0.38404649985022843,False,28,1
PO-M-22M22S2,1146,experiment,83,↓,down,↓,0.5189746001269668,True,28,0
PO-M-22M22S2,1147,experiment,52,←,left,←,0.4805276000406593,True,28,1
PO-M-22M22S2,1148,experiment,74,↓,down,↓,0.413062599953264,True,28,1
PO-M-22M22S2,1149,experiment,65,↓,down,↓,0.4860219999682158,True,28,1
PO-M-22M22S2,1150,experiment,91,↓,down,↓,0.5800457000732422,True,28,1
PO-M-22M22S2,1151,experiment,55,↑,up,↑,0.4899742000270635,True,28,1
PO-M-22M22S2,1152,experiment,106,↑,left,←,0.6185298000928015,False,28,1
PO-M-22M22S2,1153,experiment,85,↑,up,↑,0.453581300098449,True,28,1
PO-M-22M22S2,1154,experiment,71,←,left,←,0.4512257999740541,True,28,1
PO-M-22M22S2,1155,experiment,92,↓,down,↓,0.5948826000094414,True,28,1
PO-M-22M22S2,1156,experiment,102,←,left,←,0.40930820000357926,True,28,1
PO-M-22M22S2,1157,experiment,56,↑,up,↑,0.4847073000855744,True,28,1
PO-M-22M22S2,1158,experiment,57,↓,left,←,0.5020471999887377,False,28,1
PO-M-22M22S2,1159,experiment,73,↑,up,↑,0.4174174000509083,True,28,1
PO-M-22M22S2,1160,experiment,107,→,right,→,0.6689448000397533,True,28,1
PO-M-22M22S2,1161,experiment,90,↓,down,↓,0.48399069998413324,True,28,1
PO-M-22M22S2,1162,experiment,59,←,left,←,0.5489817999769002,True,28,1
PO-M-22M22S2,1163,experiment,78,↓,down,↓,1.2603949999902397,True,28,1
PO-M-22M22S2,1164,experiment,95,←,left,←,0.44217689987272024,True,28,1
PO-M-22M22S2,1165,experiment,82,↓,down,↓,0.4289298001676798,True,28,1
PO-M-22M22S2,1166,experiment,89,→,left,←,0.6376304998993874,False,28,1
PO-M-22M22S2,1167,experiment,76,↑,up,↑,0.5382875001523644,True,28,1
PO-M-22M22S2,1168,experiment,84,←,left,←,0.4724386997986585,True,28,1
PO-M-22M22S2,1169,experiment,51,→,no_key,no_letter,-1.0,False,28,1
PO-M-22M22S2,1170,experiment,68,←,left,←,0.4570730999112129,True,28,1
PO-M-22M22S2,1171,experiment,69,→,right,→,0.543354099849239,True,28,1
PO-M-22M22S2,1172,experiment,88,←,left,←,0.4842328999657184,True,28,1
PO-M-22M22S2,1173,experiment,105,←,left,←,0.5895211000461131,True,28,1
PO-M-22M22S2,1174,experiment,98,↑,up,↑,0.452872300054878,True,28,1
PO-M-22M22S2,1175,training,55,↑,right,→,0.44280559988692403,False,28,0
PO-M-22M22S2,1176,training,96,→,right,→,0.6086953999474645,True,28,1
PO-M-22M22S2,1177,experiment,65,←,no_key,no_letter,-1.0,False,28,1
PO-M-22M22S2,1178,experiment,66,↑,up,↑,0.3756787998136133,True,28,1
PO-M-22M22S2,1179,experiment,96,↑,up,↑,0.5847390000708401,True,28,0
PO-M-22M22S2,1180,experiment,98,↑,up,↑,0.4090029997751117,True,28,1
PO-M-22M22S2,1181,experiment,103,←,left,←,0.5171249001286924,True,28,1
PO-M-22M22S2,1182,experiment,91,→,right,→,0.5055787998717278,True,28,1
PO-M-22M22S2,1183,experiment,69,↑,up,↑,0.5341763999313116,True,28,1
PO-M-22M22S2,1184,experiment,59,↑,up,↑,0.5009216000325978,True,28,1
PO-M-22M22S2,1185,experiment,48,→,right,→,0.6166328000836074,True,28,1
PO-M-22M22S2,1186,experiment,55,↑,up,↑,0.5813409998081625,True,28,1
PO-M-22M22S2,1187,experiment,74,←,left,←,0.6615849998779595,True,28,1
PO-M-22M22S2,1188,experiment,83,↑,up,↑,0.4230590998195112,True,28,1
PO-M-22M22S2,1189,experiment,86,→,right,→,0.5288846001494676,True,28,1
PO-M-22M22S2,1190,experiment,60,↑,up,↑,0.43943749996833503,True,28,1
PO-M-22M22S2,1191,experiment,78,↓,down,↓,0.451805799966678,True,28,1
PO-M-22M22S2,1192,experiment,81,↓,down,↓,0.5104432001244277,True,28,1
PO-M-22M22S2,1193,experiment,57,↓,down,↓,0.49465170013718307,True,28,1
PO-M-22M22S2,1194,experiment,88,→,right,→,0.8699636999517679,True,28,1
PO-M-22M22S2,1195,experiment,53,→,right,→,0.49733650009147823,True,28,1
PO-M-22M22S2,1196,experiment,107,↑,up,↑,0.5693560000509024,True,28,1
PO-M-22M22S2,1197,experiment,49,↑,up,↑,0.6255989000201225,True,28,1
PO-M-22M22S2,1198,experiment,68,←,left,←,0.857714100042358,True,28,1
PO-M-22M22S2,1199,experiment,54,↑,left,←,1.3811019000131637,False,28,1
PO-M-22M22S2,1200,experiment,79,↓,down,↓,0.4669571998529136,True,28,1
PO-M-22M22S2,1201,experiment,75,←,left,←,0.3845404000021517,True,28,1
PO-M-22M22S2,1202,experiment,71,↓,left,←,0.8554559000767767,False,28,0
PO-M-22M22S2,1203,experiment,51,←,left,←,0.611831899965182,True,28,1
PO-M-22M22S2,1204,experiment,82,←,right,→,1.4158844000194222,False,28,1
PO-M-22M22S2,1205,experiment,84,←,right,→,0.6908144999761134,False,28,1
PO-M-22M22S2,1206,experiment,99,→,right,→,0.44617120013572276,True,28,1
PO-M-22M22S2,1207,experiment,90,↓,left,←,1.549509400036186,False,28,1
PO-M-22M22S2,1208,experiment,108,←,left,←,0.40392539999447763,True,28,1
PO-M-22M22S2,1209,experiment,94,↓,down,↓,0.48334429995156825,True,28,1
PO-M-22M22S2,1210,experiment,93,→,right,→,0.4965005998965353,True,28,1
PO-M-22M22S2,1211,experiment,85,↓,down,↓,0.6479438999667764,True,28,1
PO-M-22M22S2,1212,experiment,95,←,left,←,0.6620012999046594,True,28,1
PO-M-22M22S2,1213,experiment,106,→,right,→,0.4161009001545608,True,28,1
PO-M-22M22S2,1214,experiment,64,↑,up,↑,0.5058162999339402,True,28,1
PO-M-22M22S2,1215,experiment,63,←,left,←,0.4087070000823587,True,28,1
PO-M-22M22S2,1216,experiment,67,↓,down,↓,0.5609718000050634,True,28,1
PO-M-22M22S2,1217,experiment,62,→,right,→,0.6059348999988288,True,28,1
PO-M-22M22S2,1218,experiment,100,→,right,→,0.5480945999734104,True,28,1
PO-M-22M22S2,1219,experiment,80,→,right,→,0.5225559000391513,True,28,1
PO-M-22M22S2,1220,experiment,58,↓,down,↓,0.5141563999932259,True,28,1
PO-M-22M22S2,1221,experiment,87,→,right,→,0.3840794002171606,True,28,1
PO-M-22M22S2,1222,experiment,102,↓,down,↓,0.4148719999939203,True,28,0
PO-M-22M22S2,1223,experiment,76,↑,left,←,0.460704900091514,False,28,1
PO-M-22M22S2,1224,experiment,61,↑,up,↑,0.4773130000103265,True,28,1
PO-M-22M22S2,1225,experiment,72,↓,up,↑,0.5458819000050426,False,28,1
PO-M-22M22S2,1226,experiment,73,↑,up,↑,0.46735800011083484,True,28,1
PO-M-22M22S2,1227,experiment,77,→,right,→,1.0548992999829352,True,28,1
PO-M-22M22S2,1228,experiment,105,→,left,←,0.7294463000725955,False,28,1
PO-M-22M22S2,1229,experiment,97,↓,down,↓,0.595699500059709,True,28,1
PO-M-22M22S2,1230,experiment,92,↓,down,↓,0.4928713000845164,True,28,1
PO-M-22M22S2,1231,experiment,56,←,left,←,0.6062290999107063,True,28,1
PO-M-22M22S2,1232,experiment,50,→,right,→,0.3092408999800682,True,28,1
PO-M-22M22S2,1233,experiment,70,↑,up,↑,0.43280680011957884,True,28,0
PO-M-22M22S2,1234,experiment,101,→,left,←,0.4141486999578774,False,28,1
PO-M-22M22S2,1235,experiment,89,↑,up,↑,0.5349216000176966,True,28,1
PO-M-22M22S2,1236,experiment,52,↑,down,↓,0.608179499860853,False,28,1
PO-M-22M22S2,1237,experiment,104,↓,down,↓,0.5168937998823822,True,28,1
PO-M-22M22S2,1238,training,89,↑,up,↑,0.5898460000753403,True,28,0
PO-M-22M22S2,1239,training,68,←,right,→,0.5029800999909639,False,28,1
PO-M-22M22S2,1240,experiment,93,↓,down,↓,0.6354983001947403,True,28,1
PO-M-22M22S2,1241,experiment,68,→,right,→,1.243629600154236,True,28,1
PO-M-22M22S2,1242,experiment,103,↓,down,↓,0.5030372000765055,True,28,1
PO-M-22M22S2,1243,experiment,49,←,left,←,0.9626887000631541,True,28,1
PO-M-22M22S2,1244,experiment,56,↑,down,↓,0.9528282999526709,False,28,1
PO-M-22M22S2,1245,experiment,85,↑,up,↑,0.4863935001194477,True,28,1
PO-M-22M22S2,1246,experiment,99,→,right,→,0.6257911999709904,True,28,1
PO-M-22M22S2,1247,experiment,86,↓,down,↓,0.4756339997984469,True,28,1
PO-M-22M22S2,1248,experiment,48,←,left,←,1.1601865999400616,True,28,1
PO-M-22M22S2,1249,experiment,100,↑,up,↑,0.5442342997994274,True,28,1
PO-M-22M22S2,1250,experiment,81,↓,up,↑,0.5036200999747962,False,28,1
PO-M-22M22S2,1251,experiment,69,↑,up,↑,0.5800258000381291,True,28,1
PO-M-22M22S2,1252,experiment,57,↓,right,→,0.505576399853453,False,28,1
PO-M-22M22S2,1253,experiment,96,↓,down,↓,0.9328536000102758,True,28,1
PO-M-22M22S2,1254,experiment,60,↑,up,↑,0.5392102000769228,True,28,1
PO-M-22M22S2,1255,experiment,62,←,left,←,0.3587289999704808,True,28,1
PO-M-22M22S2,1256,experiment,71,↑,up,↑,0.6663695999886841,True,28,0
PO-M-22M22S2,1257,experiment,105,←,left,←,0.4443779999855906,True,28,1
PO-M-22M22S2,1258,experiment,87,→,right,→,0.5572869000025094,True,28,1
PO-M-22M22S2,1259,experiment,83,↑,up,↑,0.4751796000637114,True,28,1
PO-M-22M22S2,1260,experiment,72,↓,down,↓,0.4081876000855118,True,28,1
PO-M-22M22S2,1261,experiment,80,↓,down,↓,0.4447248999495059,True,28,1
PO-M-22M22S2,1262,experiment,67,←,left,←,0.36799730011262,True,28,1
PO-M-22M22S2,1263,experiment,76,←,left,←,0.3507294000592083,True,28,0
PO-M-22M22S2,1264,experiment,55,↓,up,↑,0.6188203999772668,False,28,0
PO-M-22M22S2,1265,experiment,90,→,right,→,0.48388949991203845,True,28,1
PO-M-22M22S2,1266,experiment,91,↓,down,↓,0.4424180001951754,True,28,1
PO-M-22M22S2,1267,experiment,104,↑,up,↑,0.57372109987773,True,28,1
PO-M-22M22S2,1268,experiment,88,→,right,→,0.4566730000078678,True,28,1
PO-M-22M22S2,1269,experiment,59,↑,left,←,0.7145044999197125,False,28,1
PO-M-22M22S2,1270,experiment,79,↑,up,↑,0.523148100124672,True,28,1
PO-M-22M22S2,1271,experiment,107,→,right,→,0.5303388999309391,True,28,1
PO-M-22M22S2,1272,experiment,75,↑,up,↑,0.555483200121671,True,28,1
PO-M-22M22S2,1273,experiment,95,→,right,→,0.5414718000683933,True,28,1
PO-M-22M22S2,1274,experiment,92,→,right,→,0.40925229992717505,True,28,1
PO-M-22M22S2,1275,experiment,63,↓,down,↓,0.5630064001306891,True,28,1
PO-M-22M22S2,1276,experiment,64,←,right,→,0.5426255001220852,False,28,1
PO-M-22M22S2,1277,experiment,89,→,right,→,0.5469245000276715,True,28,1
PO-M-22M22S2,1278,experiment,106,↑,up,↑,0.4735367998946458,True,28,1
PO-M-22M22S2,1279,experiment,82,←,left,←,0.5466948000248522,True,28,1
PO-M-22M22S2,1280,experiment,53,→,right,→,0.47494999994523823,True,28,1
PO-M-22M22S2,1281,experiment,102,↓,down,↓,0.4615221999119967,True,28,1
PO-M-22M22S2,1282,experiment,97,↓,down,↓,0.5064334999769926,True,28,1
PO-M-22M22S2,1283,experiment,108,↓,down,↓,0.5299682000186294,True,28,1
PO-M-22M22S2,1284,experiment,50,←,left,←,0.6277450998313725,True,28,1
PO-M-22M22S2,1285,experiment,65,→,right,→,0.5568665000610054,True,28,1
PO-M-22M22S2,1286,experiment,73,↓,down,↓,0.5260346999857575,True,28,1
PO-M-22M22S2,1287,experiment,101,↓,down,↓,0.5351980999112129,True,28,1
PO-M-22M22S2,1288,experiment,52,↓,down,↓,0.4323209000285715,True,28,1
PO-M-22M22S2,1289,experiment,51,←,left,←,0.7574442001059651,True,28,1
PO-M-22M22S2,1290,experiment,94,↓,down,↓,0.6314759999513626,True,28,1
PO-M-22M22S2,1291,experiment,66,↓,down,↓,0.4877749001607299,True,28,1
PO-M-22M22S2,1292,experiment,70,→,right,→,0.532593899872154,True,28,1
PO-M-22M22S2,1293,experiment,77,↓,down,↓,0.4854117000941187,True,28,1
PO-M-22M22S2,1294,experiment,98,←,left,←,0.44130319985561073,True,28,1
PO-M-22M22S2,1295,experiment,84,↓,left,←,1.0672337000723928,False,28,1
PO-M-22M22S2,1296,experiment,58,↑,up,↑,0.35055960016325116,True,28,1
PO-M-22M22S2,1297,experiment,54,→,right,→,0.5161995999515057,True,28,0
PO-M-22M22S2,1298,experiment,74,↑,up,↑,0.5272018001414835,True,28,1
PO-M-22M22S2,1299,experiment,61,→,right,→,0.4693354999180883,True,28,1
PO-M-22M22S2,1300,experiment,78,↓,down,↓,0.7283688997849822,True,28,1
PO-M-22M22S2,1301,training,66,←,left,←,0.3839284998830408,True,28,0
PO-M-22M22S2,1302,training,89,↑,up,↑,0.510370000032708,True,28,0
PO-M-22M22S2,1303,experiment,69,↓,down,↓,0.5867023998871446,True,28,1
PO-M-22M22S2,1304,experiment,50,→,right,→,0.5624774000607431,True,28,1
PO-M-22M22S2,1305,experiment,80,↑,up,↑,0.7287643000017852,True,28,1
PO-M-22M22S2,1306,experiment,82,↑,up,↑,0.45624030008912086,True,28,1
PO-M-22M22S2,1307,experiment,103,↑,up,↑,0.5232236001174897,True,28,1
PO-M-22M22S2,1308,experiment,94,↑,up,↑,0.37595489993691444,True,28,1
PO-M-22M22S2,1309,experiment,106,←,left,←,0.5635805998463184,True,28,0
PO-M-22M22S2,1310,experiment,96,↑,left,←,0.7488664998672903,False,28,1
PO-M-22M22S2,1311,experiment,75,→,left,←,0.7733692999463528,False,28,1
PO-M-22M22S2,1312,experiment,81,↑,no_key,no_letter,-1.0,False,28,1
PO-M-22M22S2,1313,experiment,93,↑,up,↑,0.8157840999774635,True,28,1
PO-M-22M22S2,1314,experiment,100,↑,up,↑,0.43721810006536543,True,28,1
PO-M-22M22S2,1315,experiment,77,→,right,→,0.5459497000556439,True,28,1
PO-M-22M22S2,1316,experiment,56,←,right,→,0.6570218000560999,False,28,1
PO-M-22M22S2,1317,experiment,89,↑,up,↑,1.000371300149709,True,28,1
PO-M-22M22S2,1318,experiment,71,→,right,→,0.4167359001003206,True,28,1
PO-M-22M22S2,1319,experiment,48,↓,down,↓,0.5440068999305367,True,28,1
PO-M-22M22S2,1320,experiment,79,←,left,←,0.9434847999364138,True,28,1
PO-M-22M22S2,1321,experiment,67,↑,up,↑,0.4192582000978291,True,28,1
PO-M-22M22S2,1322,experiment,57,→,right,→,0.35067240009084344,True,28,1
PO-M-22M22S2,1323,experiment,59,←,left,←,0.38409500010311604,True,28,0
PO-M-22M22S2,1324,experiment,74,→,right,→,0.32573519996367395,True,28,0
PO-M-22M22S2,1325,experiment,97,→,left,←,0.5904633000027388,False,28,0
PO-M-22M22S2,1326,experiment,53,↑,up,↑,0.5007519000209868,True,28,1
PO-M-22M22S2,1327,experiment,84,←,left,←,0.5727609000168741,True,28,1
PO-M-22M22S2,1328,experiment,108,↑,up,↑,0.43313430016860366,True,28,1
PO-M-22M22S2,1329,experiment,76,→,right,→,0.5983663001097739,True,28,1
PO-M-22M22S2,1330,experiment,92,↓,down,↓,0.591412500012666,True,28,1
PO-M-22M22S2,1331,experiment,64,↓,down,↓,0.4583912000525743,True,28,1
PO-M-22M22S2,1332,experiment,95,→,right,→,0.4559704998973757,True,28,1
PO-M-22M22S2,1333,experiment,98,↑,up,↑,0.5006305000279099,True,28,1
PO-M-22M22S2,1334,experiment,73,↑,up,↑,0.5282284999266267,True,28,1
PO-M-22M22S2,1335,experiment,54,↓,down,↓,0.4328240000177175,True,28,1
PO-M-22M22S2,1336,experiment,99,↓,down,↓,0.5022066000383347,True,28,1
PO-M-22M22S2,1337,experiment,85,↑,up,↑,0.3174936999566853,True,28,1
PO-M-22M22S2,1338,experiment,60,↑,up,↑,0.4048677000682801,True,28,0
PO-M-22M22S2,1339,experiment,87,↑,up,↑,0.5108088001143187,True,28,0
PO-M-22M22S2,1340,experiment,90,←,left,←,0.42057069996371865,True,28,1
PO-M-22M22S2,1341,experiment,88,←,left,←,0.5259201999288052,True,28,1
PO-M-22M22S2,1342,experiment,72,←,left,←,0.5527049999218434,True,28,1
PO-M-22M22S2,1343,experiment,61,←,left,←,0.4620788001921028,True,28,1
PO-M-22M22S2,1344,experiment,105,↑,up,↑,0.5287258999887854,True,28,1
PO-M-22M22S2,1345,experiment,78,↑,up,↑,0.4413107999134809,True,28,1
PO-M-22M22S2,1346,experiment,62,↓,down,↓,0.6188729999121279,True,28,1
PO-M-22M22S2,1347,experiment,70,↓,up,↑,0.8023065000306815,False,28,1
PO-M-22M22S2,1348,experiment,101,↓,down,↓,0.6243518001865596,True,28,1
PO-M-22M22S2,1349,experiment,86,↑,up,↑,0.5305309998802841,True,28,1
PO-M-22M22S2,1350,experiment,66,↑,up,↑,0.5747708999551833,True,28,1
PO-M-22M22S2,1351,experiment,51,↑,up,↑,0.4624032999854535,True,28,1
PO-M-22M22S2,1352,experiment,68,↓,down,↓,0.508929300121963,True,28,1
PO-M-22M22S2,1353,experiment,58,←,left,←,0.5735505998600274,True,28,1
PO-M-22M22S2,1354,experiment,107,←,left,←,0.5142536999192089,True,28,1
PO-M-22M22S2,1355,experiment,49,→,right,→,0.5888545999769121,True,28,1
PO-M-22M22S2,1356,experiment,104,↓,down,↓,0.6266819001175463,True,28,1
PO-M-22M22S2,1357,experiment,52,←,left,←,0.38501040008850396,True,28,1
PO-M-22M22S2,1358,experiment,83,→,left,←,0.7241796001326293,False,28,0
PO-M-22M22S2,1359,experiment,102,↓,down,↓,0.5330210998654366,True,28,1
PO-M-22M22S2,1360,experiment,55,→,right,→,0.5809214001055807,True,28,1
PO-M-22M22S2,1361,experiment,63,→,right,→,0.5602518999949098,True,28,1
PO-M-22M22S2,1362,experiment,91,←,left,←,0.5796103000175208,True,28,1
PO-M-22M22S2,1363,experiment,65,←,left,←,0.3838565999176353,True,28,1
PO-M-22M22S2,1364,training,82,↑,right,→,0.9916022000834346,False,28,0
PO-M-22M22S2,1365,training,95,←,left,←,0.4798890999518335,True,28,1
PO-M-22M22S2,1366,experiment,83,←,left,←,1.2809116998687387,True,28,1
PO-M-22M22S2,1367,experiment,56,→,right,→,0.5145717000123113,True,28,1
PO-M-22M22S2,1368,experiment,108,↑,up,↑,0.4097643999848515,True,28,1
PO-M-22M22S2,1369,experiment,59,↓,down,↓,0.5013562999665737,True,28,1
PO-M-22M22S2,1370,experiment,72,↓,down,↓,0.41747109987773,True,28,1
PO-M-22M22S2,1371,experiment,85,↑,up,↑,0.5639460999518633,True,28,1
PO-M-22M22S2,1372,experiment,80,←,left,←,0.44239960005506873,True,28,1
PO-M-22M22S2,1373,experiment,107,←,left,←,0.5008785999380052,True,28,1
PO-M-22M22S2,1374,experiment,102,↓,down,↓,0.47038449998945,True,28,1
PO-M-22M22S2,1375,experiment,96,↓,down,↓,0.523380900034681,True,28,1
PO-M-22M22S2,1376,experiment,78,→,right,→,0.6763466000556946,True,28,1
PO-M-22M22S2,1377,experiment,69,↓,down,↓,0.5218690000474453,True,28,1
PO-M-22M22S2,1378,experiment,101,↑,up,↑,0.5550037999637425,True,28,1
PO-M-22M22S2,1379,experiment,84,↑,up,↑,0.4643854999449104,True,28,1
PO-M-22M22S2,1380,experiment,87,↑,up,↑,0.41735859983600676,True,28,1
PO-M-22M22S2,1381,experiment,91,←,left,←,0.6010181000456214,True,28,1
PO-M-22M22S2,1382,experiment,103,←,left,←,0.3757338998839259,True,28,1
PO-M-22M22S2,1383,experiment,92,→,right,→,0.5525172001216561,True,28,0
PO-M-22M22S2,1384,experiment,97,←,left,←,0.4416947001591325,True,28,1
PO-M-22M22S2,1385,experiment,65,→,right,→,0.5863139999564737,True,28,1
PO-M-22M22S2,1386,experiment,77,→,right,→,0.5768199998419732,True,28,1
PO-M-22M22S2,1387,experiment,90,↓,left,←,0.8915333000477403,False,28,1
PO-M-22M22S2,1388,experiment,48,↑,up,↑,0.40757469995878637,True,28,1
PO-M-22M22S2,1389,experiment,51,↓,down,↓,0.46216070000082254,True,28,0
PO-M-22M22S2,1390,experiment,75,→,right,→,0.4666005000472069,True,28,1
PO-M-22M22S2,1391,experiment,60,↑,up,↑,0.4042265999596566,True,28,1
PO-M-22M22S2,1392,experiment,82,↓,down,↓,0.5438712001778185,True,28,1
PO-M-22M22S2,1393,experiment,73,↓,down,↓,0.4334255000576377,True,28,1
PO-M-22M22S2,1394,experiment,55,→,right,→,0.5577598998788744,True,28,1
PO-M-22M22S2,1395,experiment,74,←,left,←,0.47826709994114935,True,28,1
PO-M-22M22S2,1396,experiment,93,↓,down,↓,0.5241238998714834,True,28,1
PO-M-22M22S2,1397,experiment,62,↓,down,↓,0.4500460000708699,True,28,1
PO-M-22M22S2,1398,experiment,95,↓,down,↓,0.4560738999862224,True,28,1
PO-M-22M22S2,1399,experiment,79,↑,up,↑,0.4911841000430286,True,28,1
PO-M-22M22S2,1400,experiment,86,←,left,←,0.4267468999605626,True,28,1
PO-M-22M22S2,1401,experiment,106,←,left,←,1.4377955000381917,True,28,1
PO-M-22M22S2,1402,experiment,89,←,left,←,0.5104052000679076,True,28,1
PO-M-22M22S2,1403,experiment,50,↓,down,↓,0.5135029000230134,True,28,1
PO-M-22M22S2,1404,experiment,71,↓,down,↓,0.4132020999677479,True,28,1
