PART_ID,Trial_no,Trial_type,CSI,Stim_letter,Key_pressed,letter_choose,Rt,Corr,Stimulus Time,nDropped
WZ-K-21K21S1,1,training,120,→,no_key,no_letter,-1.0,False,60,0
WZ-K-21K21S1,2,training,120,←,left,←,0.7078755998518318,True,60,0
WZ-K-21K21S1,3,training,120,→,left,←,0.5090314000844955,False,60,0
WZ-K-21K21S1,4,training,120,↑,up,↑,0.6257631999906152,True,60,0
WZ-K-21K21S1,5,training,120,↓,left,←,0.5255640000104904,False,60,0
WZ-K-21K21S1,6,training,120,↑,no_key,no_letter,-1.0,False,60,0
WZ-K-21K21S1,7,training,120,↑,up,↑,0.6728196998592466,True,60,0
WZ-K-21K21S1,8,training,120,←,left,←,0.6090526999905705,True,60,0
WZ-K-21K21S1,9,training,120,←,left,←,0.6258770998101681,True,60,0
WZ-K-21K21S1,10,training,120,←,left,←,0.4603512999601662,True,60,0
WZ-K-21K21S1,11,training,120,←,left,←,0.4019802000839263,True,60,0
WZ-K-21K21S1,12,training,120,↑,no_key,no_letter,-1.0,False,60,0
WZ-K-21K21S1,13,training,120,↑,up,↑,0.5519622000865638,True,60,0
WZ-K-21K21S1,14,training,120,→,right,→,0.46011020010337234,True,60,0
WZ-K-21K21S1,15,training,120,←,right,→,0.443597000092268,False,60,0
WZ-K-21K21S1,16,training,120,↑,up,↑,0.6256053999532014,True,60,0
WZ-K-21K21S1,17,training,120,←,left,←,0.5507457000203431,True,60,0
WZ-K-21K21S1,18,training,120,→,left,←,0.4517252000514418,False,60,0
WZ-K-21K21S1,19,training,120,←,left,←,0.6177047998644412,True,60,0
WZ-K-21K21S1,20,training,120,↑,up,↑,0.5510733001865447,True,60,0
WZ-K-21K21S1,21,no_adaptation,120,↑,no_key,no_letter,-1.0,False,36,0
WZ-K-21K21S1,22,no_adaptation,120,←,left,←,0.5141562998760492,True,36,0
WZ-K-21K21S1,23,no_adaptation,120,←,left,←,0.5966715000104159,True,36,0
WZ-K-21K21S1,24,no_adaptation,120,↓,down,↓,0.803957800148055,True,36,0
WZ-K-21K21S1,25,no_adaptation,120,←,left,←,0.42551620001904666,True,36,0
WZ-K-21K21S1,26,no_adaptation,120,↓,down,↓,0.632614400004968,True,36,0
WZ-K-21K21S1,27,no_adaptation,120,↓,down,↓,0.7024161000736058,True,36,0
WZ-K-21K21S1,28,no_adaptation,120,↓,down,↓,0.8655012999661267,True,36,0
WZ-K-21K21S1,29,no_adaptation,120,→,right,→,0.7023044000379741,True,36,0
WZ-K-21K21S1,30,no_adaptation,120,↑,up,↑,0.6729153001215309,True,36,0
WZ-K-21K21S1,31,no_adaptation,120,↑,up,↑,0.7493094999808818,True,36,0
WZ-K-21K21S1,32,no_adaptation,120,←,up,↑,1.246193200116977,False,36,0
WZ-K-21K21S1,33,no_adaptation,120,↓,up,↑,1.3475347999483347,False,36,0
WZ-K-21K21S1,34,no_adaptation,120,→,right,→,0.6922154000494629,True,36,0
WZ-K-21K21S1,35,no_adaptation,120,→,right,→,0.7840656999032944,True,36,0
WZ-K-21K21S1,36,no_adaptation,120,↑,up,↑,0.7438406001310796,True,36,0
WZ-K-21K21S1,37,no_adaptation,120,↓,down,↓,0.6968265001196414,True,36,0
WZ-K-21K21S1,38,no_adaptation,120,↓,down,↓,0.8521879999898374,True,36,0
WZ-K-21K21S1,39,no_adaptation,120,↓,down,↓,0.6171565998811275,True,36,0
WZ-K-21K21S1,40,no_adaptation,120,↑,up,↑,0.9353801000397652,True,36,0
WZ-K-21K21S1,41,training,93,→,right,→,0.6714875001925975,True,36,0
WZ-K-21K21S1,42,training,66,→,right,→,0.750312700169161,True,36,1
WZ-K-21K21S1,43,experiment,56,→,right,→,0.6536053000018001,True,36,1
WZ-K-21K21S1,44,experiment,76,↑,up,↑,0.7058437999803573,True,36,1
WZ-K-21K21S1,45,experiment,79,↑,up,↑,0.8507935998495668,True,36,1
WZ-K-21K21S1,46,experiment,102,←,left,←,0.9185200999490917,True,36,1
WZ-K-21K21S1,47,experiment,86,↓,down,↓,0.6848074998706579,True,36,1
WZ-K-21K21S1,48,experiment,83,←,left,←,0.7336299000307918,True,36,1
WZ-K-21K21S1,49,experiment,65,↑,up,↑,0.9541805998887867,True,36,1
WZ-K-21K21S1,50,experiment,107,←,left,←,0.7199653000570834,True,36,1
WZ-K-21K21S1,51,experiment,74,↑,up,↑,0.7464006000664085,True,36,1
WZ-K-21K21S1,52,experiment,91,↓,down,↓,0.7178140000905842,True,36,1
WZ-K-21K21S1,53,experiment,64,↓,down,↓,0.7233877999242395,True,36,1
WZ-K-21K21S1,54,experiment,67,→,right,→,0.7756920999381691,True,36,1
WZ-K-21K21S1,55,experiment,81,↑,up,↑,0.7014011000283062,True,36,1
WZ-K-21K21S1,56,experiment,69,→,right,→,0.7142128997948021,True,36,1
WZ-K-21K21S1,57,experiment,97,→,right,→,0.8928115000016987,True,36,1
WZ-K-21K21S1,58,experiment,99,→,right,→,0.8725252998992801,True,36,1
WZ-K-21K21S1,59,experiment,71,↑,up,↑,0.7170653999783099,True,36,1
WZ-K-21K21S1,60,experiment,103,↑,up,↑,0.7896928999107331,True,36,1
WZ-K-21K21S1,61,experiment,88,↓,down,↓,0.6964213000610471,True,36,1
WZ-K-21K21S1,62,experiment,85,↑,up,↑,0.8315306999720633,True,36,1
WZ-K-21K21S1,63,experiment,61,→,right,→,0.8495877999812365,True,36,1
WZ-K-21K21S1,64,experiment,57,↑,up,↑,0.8284952000249177,True,36,1
WZ-K-21K21S1,65,experiment,96,←,left,←,0.9389438000507653,True,36,1
WZ-K-21K21S1,66,experiment,105,←,left,←,0.8259052999783307,True,36,1
WZ-K-21K21S1,67,experiment,49,←,left,←,0.8884246000088751,True,36,1
WZ-K-21K21S1,68,experiment,108,↓,down,↓,0.8482773001305759,True,36,1
WZ-K-21K21S1,69,experiment,62,→,right,→,0.7372832999099046,True,36,1
WZ-K-21K21S1,70,experiment,89,→,right,→,0.8140887001063675,True,36,1
WZ-K-21K21S1,71,experiment,101,↓,down,↓,0.7074007999617606,True,36,1
WZ-K-21K21S1,72,experiment,78,↓,down,↓,0.9088445000816137,True,36,1
WZ-K-21K21S1,73,experiment,59,↑,up,↑,0.8204725000541657,True,36,1
WZ-K-21K21S1,74,experiment,63,↑,up,↑,0.934685799991712,True,36,1
WZ-K-21K21S1,75,experiment,55,→,right,→,0.5985345998778939,True,36,1
WZ-K-21K21S1,76,experiment,80,→,right,→,0.8596843001432717,True,36,1
WZ-K-21K21S1,77,experiment,84,←,left,←,0.8290109001100063,True,36,1
WZ-K-21K21S1,78,experiment,92,←,left,←,0.7808432001620531,True,36,1
WZ-K-21K21S1,79,experiment,98,↓,down,↓,0.717079599853605,True,36,1
WZ-K-21K21S1,80,experiment,106,↑,up,↑,1.0282784001901746,True,36,1
WZ-K-21K21S1,81,experiment,54,↑,up,↑,1.0009109999518842,True,36,1
WZ-K-21K21S1,82,experiment,52,→,right,→,0.8633926999755204,True,36,1
WZ-K-21K21S1,83,experiment,73,→,right,→,0.7722930999007076,True,36,1
WZ-K-21K21S1,84,experiment,53,↑,up,↑,0.9714244001079351,True,36,1
WZ-K-21K21S1,85,experiment,70,↑,up,↑,0.7088625999167562,True,36,1
WZ-K-21K21S1,86,experiment,58,←,left,←,0.7328987999353558,True,36,1
WZ-K-21K21S1,87,experiment,75,↑,up,↑,0.9183726999908686,True,36,1
WZ-K-21K21S1,88,experiment,95,↓,down,↓,0.7056356999091804,True,36,1
WZ-K-21K21S1,89,experiment,82,←,left,←,0.833836100064218,True,36,1
WZ-K-21K21S1,90,experiment,51,←,left,←,0.7911218998488039,True,36,1
WZ-K-21K21S1,91,experiment,60,↓,down,↓,1.0032651999499649,True,36,1
WZ-K-21K21S1,92,experiment,72,←,left,←,0.5869528001639992,True,36,1
WZ-K-21K21S1,93,experiment,90,←,left,←,0.7332731999922544,True,36,1
WZ-K-21K21S1,94,experiment,68,→,right,→,0.8249572000931948,True,36,1
WZ-K-21K21S1,95,experiment,48,↓,down,↓,0.5116141999606043,True,36,1
WZ-K-21K21S1,96,experiment,104,↑,left,←,1.6803311000112444,False,36,1
WZ-K-21K21S1,97,experiment,93,↓,down,↓,0.7095354001503438,True,36,1
WZ-K-21K21S1,98,experiment,94,↑,down,↓,0.969663199968636,False,36,1
WZ-K-21K21S1,99,experiment,66,↓,down,↓,0.9085499998182058,True,36,1
WZ-K-21K21S1,100,experiment,87,↑,up,↑,0.8268501998391002,True,36,1
WZ-K-21K21S1,101,experiment,50,←,left,←,0.9691405999474227,True,36,1
WZ-K-21K21S1,102,experiment,100,←,left,←,0.7926296999212354,True,36,1
WZ-K-21K21S1,103,experiment,77,←,left,←,0.6149855998810381,True,36,1
WZ-K-21K21S1,104,training,71,←,left,←,0.7024183999747038,True,35,0
WZ-K-21K21S1,105,training,66,→,left,←,1.8043265000451356,False,35,1
WZ-K-21K21S1,106,experiment,59,↑,up,↑,0.7839037999510765,True,35,1
WZ-K-21K21S1,107,experiment,55,↑,up,↑,0.8858515000902116,True,35,1
WZ-K-21K21S1,108,experiment,107,↑,up,↑,0.7984599000774324,True,35,1
WZ-K-21K21S1,109,experiment,94,↑,up,↑,0.7428488999139518,True,35,1
WZ-K-21K21S1,110,experiment,69,→,right,→,0.7378433998674154,True,35,1
WZ-K-21K21S1,111,experiment,61,→,right,→,0.6479430999606848,True,35,1
WZ-K-21K21S1,112,experiment,86,→,right,→,1.4169630000833422,True,35,1
WZ-K-21K21S1,113,experiment,62,→,right,→,0.8115441999398172,True,35,1
WZ-K-21K21S1,114,experiment,68,↓,down,↓,0.8599807999562472,True,35,1
WZ-K-21K21S1,115,experiment,84,↓,down,↓,0.789246000116691,True,35,1
WZ-K-21K21S1,116,experiment,96,↑,up,↑,0.6531793000176549,True,35,1
WZ-K-21K21S1,117,experiment,89,↑,up,↑,0.9972817001398653,True,35,1
WZ-K-21K21S1,118,experiment,54,↑,up,↑,1.395007599843666,True,35,1
WZ-K-21K21S1,119,experiment,58,←,left,←,0.647645500022918,True,35,1
WZ-K-21K21S1,120,experiment,67,→,left,←,1.8070507999509573,False,35,1
WZ-K-21K21S1,121,experiment,50,←,left,←,0.7655671997927129,True,35,1
WZ-K-21K21S1,122,experiment,76,→,right,→,0.9655124999117106,True,35,1
WZ-K-21K21S1,123,experiment,87,→,right,→,1.72944280016236,True,35,1
WZ-K-21K21S1,124,experiment,81,↓,down,↓,0.8725990001112223,True,35,1
WZ-K-21K21S1,125,experiment,97,←,left,←,1.1648311000317335,True,35,1
WZ-K-21K21S1,126,experiment,66,→,right,→,0.7676987999584526,True,35,1
WZ-K-21K21S1,127,experiment,100,↓,down,↓,1.919638300081715,True,35,1
WZ-K-21K21S1,128,experiment,85,↑,up,↑,1.1422909998800606,True,35,1
WZ-K-21K21S1,129,experiment,103,↓,down,↓,0.7338383998721838,True,35,1
WZ-K-21K21S1,130,experiment,83,↑,down,↓,1.5966845999937505,False,35,1
WZ-K-21K21S1,131,experiment,82,↓,down,↓,1.000790199963376,True,35,1
WZ-K-21K21S1,132,experiment,88,↑,up,↑,0.76292399992235,True,35,1
WZ-K-21K21S1,133,experiment,51,↑,up,↑,1.0032999999821186,True,35,1
WZ-K-21K21S1,134,experiment,106,←,left,←,0.9435900000389665,True,35,1
WZ-K-21K21S1,135,experiment,92,↓,down,↓,0.9476818998809904,True,35,1
WZ-K-21K21S1,136,experiment,49,↑,up,↑,0.8123114001937211,True,35,1
WZ-K-21K21S1,137,experiment,72,↓,down,↓,0.70738419983536,True,35,1
WZ-K-21K21S1,138,experiment,74,↑,up,↑,0.7742473999969661,True,35,1
WZ-K-21K21S1,139,experiment,60,↑,up,↑,0.7947739998344332,True,35,1
WZ-K-21K21S1,140,experiment,80,↑,down,↓,1.5681823000777513,False,35,1
WZ-K-21K21S1,141,experiment,56,↓,down,↓,0.7586167000699788,True,35,1
WZ-K-21K21S1,142,experiment,91,←,right,→,0.9774577000644058,False,35,1
WZ-K-21K21S1,143,experiment,65,↓,down,↓,0.7326185998972505,True,35,1
WZ-K-21K21S1,144,experiment,78,↓,down,↓,0.73279959987849,True,35,1
WZ-K-21K21S1,145,experiment,53,←,left,←,0.7657550000585616,True,35,1
WZ-K-21K21S1,146,experiment,52,↓,down,↓,0.6052752998657525,True,35,1
WZ-K-21K21S1,147,experiment,75,→,right,→,0.46040989994071424,True,35,1
WZ-K-21K21S1,148,experiment,93,→,right,→,0.9142381998244673,True,35,0
WZ-K-21K21S1,149,experiment,77,→,right,→,0.7630889001302421,True,35,1
WZ-K-21K21S1,150,experiment,79,←,left,←,0.8658974000718445,True,35,1
WZ-K-21K21S1,151,experiment,98,↓,down,↓,0.8861331001389772,True,35,1
WZ-K-21K21S1,152,experiment,73,→,right,→,0.7301806001923978,True,35,1
WZ-K-21K21S1,153,experiment,104,↓,down,↓,0.6420408000703901,True,35,1
WZ-K-21K21S1,154,experiment,63,↑,up,↑,1.0913460000883788,True,35,1
WZ-K-21K21S1,155,experiment,95,↑,left,←,1.199197500012815,False,35,1
WZ-K-21K21S1,156,experiment,101,↓,down,↓,0.8211835999973118,True,35,1
WZ-K-21K21S1,157,experiment,70,→,right,→,0.788585799979046,True,35,1
WZ-K-21K21S1,158,experiment,48,←,left,←,0.7650178000330925,True,35,1
WZ-K-21K21S1,159,experiment,105,↑,up,↑,1.2668252000585198,True,35,1
WZ-K-21K21S1,160,experiment,90,↓,down,↓,0.8337375000119209,True,35,1
WZ-K-21K21S1,161,experiment,108,→,right,→,0.6358034000732005,True,35,1
WZ-K-21K21S1,162,experiment,99,→,right,→,1.1372457998804748,True,35,1
WZ-K-21K21S1,163,experiment,71,→,right,→,0.7480226000770926,True,35,1
WZ-K-21K21S1,164,experiment,102,↑,up,↑,0.7475759000517428,True,35,1
WZ-K-21K21S1,165,experiment,64,↓,down,↓,0.680165900150314,True,35,1
WZ-K-21K21S1,166,experiment,57,↓,down,↓,0.9218654001597315,True,35,1
WZ-K-21K21S1,167,training,88,←,right,→,0.9192864000797272,False,34,0
WZ-K-21K21S1,168,training,71,←,left,←,0.7544472999870777,True,34,1
WZ-K-21K21S1,169,experiment,83,↑,down,↓,0.9282100000418723,False,34,1
WZ-K-21K21S1,170,experiment,74,→,left,←,1.5864065000787377,False,34,1
WZ-K-21K21S1,171,experiment,88,↑,up,↑,0.6371149001643062,True,34,1
WZ-K-21K21S1,172,experiment,80,→,right,→,0.6411894001066685,True,34,1
WZ-K-21K21S1,173,experiment,84,→,right,→,0.6668803000357002,True,34,1
WZ-K-21K21S1,174,experiment,54,↓,down,↓,1.190007400000468,True,34,1
WZ-K-21K21S1,175,experiment,57,→,right,→,0.6190740999300033,True,34,1
WZ-K-21K21S1,176,experiment,98,←,left,←,1.5852736998349428,True,34,1
WZ-K-21K21S1,177,experiment,105,→,right,→,0.6064627999439836,True,34,1
WZ-K-21K21S1,178,experiment,50,←,right,→,1.9256927999667823,False,34,1
WZ-K-21K21S1,179,experiment,97,←,left,←,0.759325799997896,True,34,1
WZ-K-21K21S1,180,experiment,85,↓,down,↓,0.9644241998903453,True,34,1
WZ-K-21K21S1,181,experiment,58,↑,up,↑,0.4902091999538243,True,34,1
WZ-K-21K21S1,182,experiment,79,↑,up,↑,0.7880758999381214,True,34,1
WZ-K-21K21S1,183,experiment,86,↑,up,↑,0.5516437999904156,True,34,1
WZ-K-21K21S1,184,experiment,82,↑,up,↑,1.0220002999994904,True,34,1
WZ-K-21K21S1,185,experiment,87,↓,down,↓,0.8317796001210809,True,34,1
WZ-K-21K21S1,186,experiment,75,↓,down,↓,0.9809121999423951,True,34,1
WZ-K-21K21S1,187,experiment,55,→,right,→,1.6751735999714583,True,34,1
WZ-K-21K21S1,188,experiment,106,↑,up,↑,1.0124348001554608,True,34,1
WZ-K-21K21S1,189,experiment,104,↓,down,↓,0.7288576001301408,True,34,1
WZ-K-21K21S1,190,experiment,99,→,right,→,0.8666570000350475,True,34,1
WZ-K-21K21S1,191,experiment,77,←,left,←,0.6378490999341011,True,34,1
WZ-K-21K21S1,192,experiment,108,→,right,→,0.551919300109148,True,34,1
WZ-K-21K21S1,193,experiment,81,←,left,←,1.0946665001101792,True,34,1
WZ-K-21K21S1,194,experiment,78,←,left,←,0.7286886998917907,True,34,1
WZ-K-21K21S1,195,experiment,66,→,right,→,0.7898184999357909,True,34,1
WZ-K-21K21S1,196,experiment,60,←,right,→,1.193615300115198,False,34,1
WZ-K-21K21S1,197,experiment,56,↑,left,←,0.392081500031054,False,34,1
WZ-K-21K21S1,198,experiment,92,→,right,→,1.3918618001043797,True,34,1
WZ-K-21K21S1,199,experiment,53,↓,up,↑,1.1901695998385549,False,34,1
WZ-K-21K21S1,200,experiment,103,↓,up,↑,1.3397381999529898,False,34,1
WZ-K-21K21S1,201,experiment,90,↑,up,↑,0.8636302000377327,True,34,1
WZ-K-21K21S1,202,experiment,52,↑,up,↑,0.9475532998330891,True,34,1
WZ-K-21K21S1,203,experiment,48,←,left,←,1.2052713998127729,True,34,1
WZ-K-21K21S1,204,experiment,62,←,left,←,0.7998520000837743,True,34,1
WZ-K-21K21S1,205,experiment,49,↑,up,↑,0.5749538000673056,True,34,1
WZ-K-21K21S1,206,experiment,61,→,right,→,0.9875747999176383,True,34,1
WZ-K-21K21S1,207,experiment,94,↑,up,↑,0.6043991001788527,True,34,1
WZ-K-21K21S1,208,experiment,107,↑,up,↑,0.8161933999508619,True,34,1
WZ-K-21K21S1,209,experiment,68,↑,up,↑,0.6806161999702454,True,34,1
WZ-K-21K21S1,210,experiment,71,↑,up,↑,1.133164200000465,True,34,1
WZ-K-21K21S1,211,experiment,96,↓,down,↓,0.7757331999018788,True,34,1
WZ-K-21K21S1,212,experiment,73,↑,up,↑,1.191950500011444,True,34,1
WZ-K-21K21S1,213,experiment,72,→,right,→,0.9041466000489891,True,34,1
WZ-K-21K21S1,214,experiment,67,↑,up,↑,1.3015060999896377,True,34,1
WZ-K-21K21S1,215,experiment,76,↑,up,↑,1.4555114000104368,True,34,1
WZ-K-21K21S1,216,experiment,51,→,right,→,0.7638193001039326,True,34,1
WZ-K-21K21S1,217,experiment,93,←,left,←,0.8295255000703037,True,34,1
WZ-K-21K21S1,218,experiment,102,↑,up,↑,0.6498762001283467,True,34,1
WZ-K-21K21S1,219,experiment,69,↑,up,↑,0.7687842000741512,True,34,1
WZ-K-21K21S1,220,experiment,64,↑,up,↑,0.6604154000524431,True,34,1
WZ-K-21K21S1,221,experiment,101,↑,up,↑,1.008182300021872,True,34,1
WZ-K-21K21S1,222,experiment,89,→,right,→,0.8579456000588834,True,34,1
WZ-K-21K21S1,223,experiment,63,←,left,←,0.8581705999094993,True,34,1
WZ-K-21K21S1,224,experiment,91,↑,up,↑,0.6573050001170486,True,34,1
WZ-K-21K21S1,225,experiment,59,→,right,→,1.435007399879396,True,34,1
WZ-K-21K21S1,226,experiment,70,←,left,←,1.2499549000058323,True,34,1
WZ-K-21K21S1,227,experiment,95,↓,up,↑,1.6717186998575926,False,34,1
WZ-K-21K21S1,228,experiment,65,↓,down,↓,0.8312295998912305,True,34,1
WZ-K-21K21S1,229,experiment,100,←,left,←,1.1558994001243263,True,34,1
WZ-K-21K21S1,230,training,73,↓,down,↓,0.7008526001591235,True,34,0
WZ-K-21K21S1,231,training,66,←,left,←,0.5704126001801342,True,34,1
WZ-K-21K21S1,232,experiment,86,↑,down,↓,0.8392084001097828,False,34,1
WZ-K-21K21S1,233,experiment,97,↑,up,↑,0.860665800049901,True,34,1
WZ-K-21K21S1,234,experiment,65,↑,up,↑,0.95673290011473,True,34,1
WZ-K-21K21S1,235,experiment,71,→,left,←,1.0379920001141727,False,34,1
WZ-K-21K21S1,236,experiment,74,↓,down,↓,0.923362199915573,True,34,1
WZ-K-21K21S1,237,experiment,50,→,right,→,0.6618532000575215,True,34,1
WZ-K-21K21S1,238,experiment,93,↓,down,↓,0.6279451998416334,True,34,1
WZ-K-21K21S1,239,experiment,60,↑,up,↑,0.8624590002000332,True,34,1
WZ-K-21K21S1,240,experiment,105,→,right,→,0.5527480999007821,True,34,1
WZ-K-21K21S1,241,experiment,61,←,left,←,0.5978562000673264,True,34,1
WZ-K-21K21S1,242,experiment,73,←,left,←,0.6615801001898944,True,34,1
WZ-K-21K21S1,243,experiment,101,→,right,→,0.7128876000642776,True,34,1
WZ-K-21K21S1,244,experiment,98,→,right,→,0.7237056000158191,True,34,1
WZ-K-21K21S1,245,experiment,68,↓,down,↓,0.5116879001725465,True,34,1
WZ-K-21K21S1,246,experiment,89,↓,left,←,1.2135644999798387,False,34,1
WZ-K-21K21S1,247,experiment,78,←,left,←,0.8504306001123041,True,34,1
WZ-K-21K21S1,248,experiment,106,↑,up,↑,0.7887810999527574,True,34,1
WZ-K-21K21S1,249,experiment,49,→,no_key,no_letter,-1.0,False,34,1
WZ-K-21K21S1,250,experiment,92,←,right,→,0.9915346999187022,False,34,1
WZ-K-21K21S1,251,experiment,88,←,left,←,0.666281099896878,True,34,1
WZ-K-21K21S1,252,experiment,90,↑,up,↑,0.6570089000742882,True,34,1
WZ-K-21K21S1,253,experiment,59,↓,down,↓,0.7707577999681234,True,34,1
WZ-K-21K21S1,254,experiment,104,←,left,←,0.6567341000773013,True,34,1
WZ-K-21K21S1,255,experiment,85,←,left,←,0.7777195000089705,True,34,1
WZ-K-21K21S1,256,experiment,83,↑,up,↑,0.7029719999991357,True,34,1
WZ-K-21K21S1,257,experiment,66,←,left,←,0.9005293000955135,True,34,1
WZ-K-21K21S1,258,experiment,56,←,left,←,0.8694949999917299,True,34,1
WZ-K-21K21S1,259,experiment,48,→,right,→,0.5866776998154819,True,34,1
WZ-K-21K21S1,260,experiment,81,↓,down,↓,0.5602455998305231,True,34,1
WZ-K-21K21S1,261,experiment,63,→,left,←,0.828416199889034,False,34,1
WZ-K-21K21S1,262,experiment,91,←,down,↓,1.5406792999710888,False,34,1
WZ-K-21K21S1,263,experiment,77,↓,down,↓,0.9250771999359131,True,34,1
WZ-K-21K21S1,264,experiment,62,→,right,→,0.658888999838382,True,34,1
WZ-K-21K21S1,265,experiment,84,→,left,←,0.9726277000736445,False,34,1
WZ-K-21K21S1,266,experiment,95,↑,up,↑,0.6855091999750584,True,34,1
WZ-K-21K21S1,267,experiment,58,↓,down,↓,0.6385103999637067,True,34,1
WZ-K-21K21S1,268,experiment,100,→,right,→,0.6351906999479979,True,34,1
WZ-K-21K21S1,269,experiment,52,→,right,→,1.5044942998792976,True,34,1
WZ-K-21K21S1,270,experiment,87,→,right,→,0.8468807998578995,True,34,1
WZ-K-21K21S1,271,experiment,94,→,left,←,0.8933610999956727,False,34,1
WZ-K-21K21S1,272,experiment,64,←,left,←,0.7800716999918222,True,34,1
WZ-K-21K21S1,273,experiment,102,↑,up,↑,0.746218099957332,True,34,1
WZ-K-21K21S1,274,experiment,67,↓,down,↓,0.773615000071004,True,34,1
WZ-K-21K21S1,275,experiment,108,↓,down,↓,0.5384515000041574,True,34,1
WZ-K-21K21S1,276,experiment,69,←,left,←,0.7413169001229107,True,34,1
WZ-K-21K21S1,277,experiment,70,↓,down,↓,0.680322099942714,True,34,1
WZ-K-21K21S1,278,experiment,80,↓,down,↓,0.593867199961096,True,34,1
WZ-K-21K21S1,279,experiment,54,↓,down,↓,0.8718765000812709,True,34,1
WZ-K-21K21S1,280,experiment,82,→,left,←,1.441456399857998,False,34,1
WZ-K-21K21S1,281,experiment,55,→,down,↓,1.292656800011173,False,34,1
WZ-K-21K21S1,282,experiment,107,←,left,←,0.5811308000702411,True,34,1
WZ-K-21K21S1,283,experiment,57,↑,down,↓,0.994449800113216,False,34,1
WZ-K-21K21S1,284,experiment,75,↑,up,↑,0.8895476998295635,True,34,1
WZ-K-21K21S1,285,experiment,96,↑,up,↑,1.1497028998564929,True,34,1
WZ-K-21K21S1,286,experiment,72,↑,up,↑,0.6791842000093311,True,34,1
WZ-K-21K21S1,287,experiment,99,↓,down,↓,1.026580800069496,True,34,1
WZ-K-21K21S1,288,experiment,51,→,right,→,0.7284172000363469,True,34,1
WZ-K-21K21S1,289,experiment,79,←,left,←,1.2883855998516083,True,34,1
WZ-K-21K21S1,290,experiment,103,↑,up,↑,0.8424516001250595,True,34,1
WZ-K-21K21S1,291,experiment,76,→,right,→,0.7030488001182675,True,34,1
WZ-K-21K21S1,292,experiment,53,→,left,←,1.1291181000415236,False,34,1
WZ-K-21K21S1,293,training,91,↑,no_key,no_letter,-1.0,False,34,0
WZ-K-21K21S1,294,training,81,←,left,←,0.7899635001085699,True,34,1
WZ-K-21K21S1,295,experiment,76,←,left,←,0.5084365999791771,True,34,1
WZ-K-21K21S1,296,experiment,80,↑,up,↑,0.6210908000357449,True,34,1
WZ-K-21K21S1,297,experiment,74,↓,down,↓,0.4993771000299603,True,34,1
WZ-K-21K21S1,298,experiment,63,↑,up,↑,0.8578923000022769,True,34,1
WZ-K-21K21S1,299,experiment,73,↑,up,↑,0.5509925000369549,True,34,1
WZ-K-21K21S1,300,experiment,95,←,left,←,0.7850526999682188,True,34,1
WZ-K-21K21S1,301,experiment,54,↓,down,↓,0.5994688000064343,True,34,1
WZ-K-21K21S1,302,experiment,104,↓,down,↓,0.5085680999327451,True,34,1
WZ-K-21K21S1,303,experiment,56,↓,down,↓,0.4342974000610411,True,34,1
WZ-K-21K21S1,304,experiment,64,→,right,→,0.6539300000295043,True,34,0
WZ-K-21K21S1,305,experiment,55,↓,down,↓,0.4732206000480801,True,34,1
WZ-K-21K21S1,306,experiment,94,←,right,→,1.9024842001963407,False,34,1
WZ-K-21K21S1,307,experiment,86,↓,down,↓,0.7174156000837684,True,34,1
WZ-K-21K21S1,308,experiment,65,↑,up,↑,0.8668778000865132,True,34,1
WZ-K-21K21S1,309,experiment,72,←,up,↑,1.3837415999732912,False,34,1
WZ-K-21K21S1,310,experiment,78,↑,up,↑,0.5580106000415981,True,34,1
WZ-K-21K21S1,311,experiment,89,←,left,←,0.8097224000375718,True,34,1
WZ-K-21K21S1,312,experiment,90,→,right,→,0.5073057999834418,True,34,1
WZ-K-21K21S1,313,experiment,100,↑,up,↑,1.0290765000972897,True,34,1
WZ-K-21K21S1,314,experiment,101,→,right,→,0.8181038999464363,True,34,1
WZ-K-21K21S1,315,experiment,61,↑,up,↑,0.6529614999890327,True,34,1
WZ-K-21K21S1,316,experiment,91,←,left,←,0.4922405001707375,True,34,1
WZ-K-21K21S1,317,experiment,60,↑,up,↑,0.732354500098154,True,34,1
WZ-K-21K21S1,318,experiment,59,→,right,→,0.795268899993971,True,34,1
WZ-K-21K21S1,319,experiment,87,→,right,→,1.0058754000347108,True,34,1
WZ-K-21K21S1,320,experiment,102,←,down,↓,1.9000003000255674,False,34,1
WZ-K-21K21S1,321,experiment,49,→,right,→,0.7744733998551965,True,34,1
WZ-K-21K21S1,322,experiment,108,↓,down,↓,0.6352320001460612,True,34,1
WZ-K-21K21S1,323,experiment,75,↓,down,↓,0.848584600025788,True,34,1
WZ-K-21K21S1,324,experiment,79,→,right,→,0.8601660998538136,True,34,1
WZ-K-21K21S1,325,experiment,107,↓,down,↓,0.5096380000468343,True,34,1
WZ-K-21K21S1,326,experiment,98,↑,down,↓,0.7363406999502331,False,34,1
WZ-K-21K21S1,327,experiment,85,↓,down,↓,0.7023132999893278,True,34,1
WZ-K-21K21S1,328,experiment,81,↑,down,↓,1.415036299964413,False,34,1
WZ-K-21K21S1,329,experiment,92,↓,down,↓,0.9354878000449389,True,34,1
WZ-K-21K21S1,330,experiment,50,→,right,→,0.7687920001335442,True,34,1
WZ-K-21K21S1,331,experiment,66,→,right,→,0.588248600019142,True,34,1
WZ-K-21K21S1,332,experiment,68,↑,up,↑,1.445841200184077,True,34,1
WZ-K-21K21S1,333,experiment,84,←,left,←,0.8554644999094307,True,34,1
WZ-K-21K21S1,334,experiment,106,↑,up,↑,0.8496085999067873,True,34,1
WZ-K-21K21S1,335,experiment,103,→,right,→,1.156959000043571,True,34,1
WZ-K-21K21S1,336,experiment,69,↓,down,↓,0.6552899000234902,True,34,1
WZ-K-21K21S1,337,experiment,88,↑,up,↑,0.7110711999703199,True,34,1
WZ-K-21K21S1,338,experiment,52,→,right,→,0.5932744001038373,True,34,1
WZ-K-21K21S1,339,experiment,71,→,right,→,0.5616800000425428,True,34,1
WZ-K-21K21S1,340,experiment,96,↓,down,↓,0.5309983000624925,True,34,1
WZ-K-21K21S1,341,experiment,53,↑,down,↓,0.851890099933371,False,34,1
WZ-K-21K21S1,342,experiment,99,←,left,←,0.5524871998932213,True,34,1
WZ-K-21K21S1,343,experiment,77,→,right,→,0.9204098000191152,True,34,1
WZ-K-21K21S1,344,experiment,62,↓,down,↓,0.7348400000482798,True,34,1
WZ-K-21K21S1,345,experiment,83,↓,down,↓,0.7816577001940459,True,34,1
WZ-K-21K21S1,346,experiment,51,↑,left,←,1.6527722999453545,False,34,1
WZ-K-21K21S1,347,experiment,93,→,right,→,0.6114336000755429,True,34,1
WZ-K-21K21S1,348,experiment,58,←,left,←,0.911587500013411,True,34,1
WZ-K-21K21S1,349,experiment,82,↓,down,↓,0.49607660016044974,True,34,1
WZ-K-21K21S1,350,experiment,67,←,left,←,0.8771108000073582,True,34,1
WZ-K-21K21S1,351,experiment,97,↑,up,↑,0.7932629999704659,True,34,1
WZ-K-21K21S1,352,experiment,105,↑,left,←,1.6062524002045393,False,34,1
WZ-K-21K21S1,353,experiment,48,→,right,→,0.5902166001033038,True,34,1
WZ-K-21K21S1,354,experiment,57,↓,down,↓,0.6986627001315355,True,34,1
WZ-K-21K21S1,355,experiment,70,↑,up,↑,0.4255101000890136,True,34,1
WZ-K-21K21S1,356,training,93,←,left,←,0.5521914998535067,True,34,0
WZ-K-21K21S1,357,training,73,←,left,←,0.7934429999440908,True,34,1
WZ-K-21K21S1,358,experiment,98,↓,down,↓,0.7209223001264036,True,34,1
WZ-K-21K21S1,359,experiment,100,→,right,→,0.6502827999647707,True,34,1
WZ-K-21K21S1,360,experiment,54,↓,down,↓,0.5421756999567151,True,34,1
WZ-K-21K21S1,361,experiment,66,↑,down,↓,0.6498763000126928,False,34,1
WZ-K-21K21S1,362,experiment,91,←,left,←,0.505509200040251,True,34,1
WZ-K-21K21S1,363,experiment,96,←,left,←,0.7410247998777777,True,34,1
WZ-K-21K21S1,364,experiment,99,←,left,←,0.502058699959889,True,34,1
WZ-K-21K21S1,365,experiment,53,→,right,→,0.5198466000147164,True,34,1
WZ-K-21K21S1,366,experiment,102,↓,down,↓,0.5289354000706226,True,34,1
WZ-K-21K21S1,367,experiment,49,←,left,←,0.7640642998740077,True,34,1
WZ-K-21K21S1,368,experiment,90,↓,down,↓,0.5185481000225991,True,34,1
WZ-K-21K21S1,369,experiment,103,↑,up,↑,0.4951969999819994,True,34,1
WZ-K-21K21S1,370,experiment,78,←,left,←,0.418232100084424,True,34,1
WZ-K-21K21S1,371,experiment,89,↑,up,↑,0.5301590000744909,True,34,0
WZ-K-21K21S1,372,experiment,76,←,left,←,0.3998829999472946,True,34,1
WZ-K-21K21S1,373,experiment,107,↓,down,↓,0.6706252000294626,True,34,0
WZ-K-21K21S1,374,experiment,58,↓,down,↓,0.6722375000827014,True,34,1
WZ-K-21K21S1,375,experiment,67,↑,up,↑,0.7590089000295848,True,34,1
WZ-K-21K21S1,376,experiment,94,↓,down,↓,0.6888951999135315,True,34,1
WZ-K-21K21S1,377,experiment,55,↑,up,↑,0.45123549993149936,True,34,1
WZ-K-21K21S1,378,experiment,81,↑,up,↑,0.7250437000766397,True,34,0
WZ-K-21K21S1,379,experiment,104,↑,up,↑,0.7808815999887884,True,34,1
WZ-K-21K21S1,380,experiment,48,←,left,←,0.7093785000033677,True,34,1
WZ-K-21K21S1,381,experiment,86,→,right,→,0.5321791998576373,True,34,1
WZ-K-21K21S1,382,experiment,60,↓,down,↓,0.5308637998532504,True,34,1
WZ-K-21K21S1,383,experiment,74,→,right,→,0.6683322999160737,True,34,1
WZ-K-21K21S1,384,experiment,51,↓,down,↓,0.7363498001359403,True,34,1
WZ-K-21K21S1,385,experiment,101,→,right,→,0.7372473999857903,True,34,1
WZ-K-21K21S1,386,experiment,64,→,right,→,0.5662118000909686,True,34,1
WZ-K-21K21S1,387,experiment,73,↓,down,↓,0.4710931000299752,True,34,1
WZ-K-21K21S1,388,experiment,79,←,left,←,0.8175301998853683,True,34,1
WZ-K-21K21S1,389,experiment,106,←,left,←,0.7167984999250621,True,34,1
WZ-K-21K21S1,390,experiment,82,→,right,→,0.524603100027889,True,34,1
WZ-K-21K21S1,391,experiment,56,←,left,←,0.7488494999706745,True,34,1
WZ-K-21K21S1,392,experiment,62,↓,down,↓,0.4090080999303609,True,34,1
WZ-K-21K21S1,393,experiment,69,←,left,←,0.40905120014213026,True,34,0
WZ-K-21K21S1,394,experiment,68,←,left,←,0.5063746999949217,True,34,0
WZ-K-21K21S1,395,experiment,95,↓,down,↓,0.5260015001986176,True,34,1
WZ-K-21K21S1,396,experiment,50,←,left,←,0.5602818001061678,True,34,1
WZ-K-21K21S1,397,experiment,57,→,right,→,0.7347625000402331,True,34,1
WZ-K-21K21S1,398,experiment,108,←,left,←,0.8209563000127673,True,34,1
WZ-K-21K21S1,399,experiment,83,←,left,←,0.5043953999411315,True,34,1
WZ-K-21K21S1,400,experiment,92,↑,up,↑,0.8451435000170022,True,34,1
WZ-K-21K21S1,401,experiment,75,→,right,→,0.9782581001054496,True,34,1
WZ-K-21K21S1,402,experiment,87,←,left,←,0.5016623002011329,True,34,1
WZ-K-21K21S1,403,experiment,59,→,left,←,0.7337674000300467,False,34,1
WZ-K-21K21S1,404,experiment,93,→,right,→,0.6890648000407964,True,34,1
WZ-K-21K21S1,405,experiment,61,←,left,←,0.4970303999725729,True,34,1
WZ-K-21K21S1,406,experiment,65,→,left,←,0.7516487999819219,False,34,1
WZ-K-21K21S1,407,experiment,71,↓,down,↓,0.4570311999414116,True,34,1
WZ-K-21K21S1,408,experiment,88,↓,down,↓,0.4578551999293268,True,34,0
WZ-K-21K21S1,409,experiment,70,←,left,←,0.6467679000925273,True,34,1
WZ-K-21K21S1,410,experiment,63,↓,down,↓,0.6635245999787003,True,34,1
WZ-K-21K21S1,411,experiment,80,↓,down,↓,0.5380597999319434,True,34,1
WZ-K-21K21S1,412,experiment,52,↓,down,↓,0.9310511997900903,True,34,1
WZ-K-21K21S1,413,experiment,77,→,right,→,0.8517456001136452,True,34,1
WZ-K-21K21S1,414,experiment,72,←,left,←,0.6573493999894708,True,34,1
WZ-K-21K21S1,415,experiment,105,↑,up,↑,0.7398986998014152,True,34,1
WZ-K-21K21S1,416,experiment,85,↓,down,↓,0.48170309979468584,True,34,1
WZ-K-21K21S1,417,experiment,84,↑,up,↑,0.5458637000992894,True,34,1
WZ-K-21K21S1,418,experiment,97,↑,up,↑,0.8117350998800248,True,34,1
WZ-K-21K21S1,419,training,83,→,right,→,1.109522599959746,True,33,0
WZ-K-21K21S1,420,training,108,↓,down,↓,0.5646470999345183,True,33,1
WZ-K-21K21S1,421,experiment,96,←,left,←,0.573735399870202,True,33,1
WZ-K-21K21S1,422,experiment,75,↑,up,↑,0.5093761999160051,True,33,1
WZ-K-21K21S1,423,experiment,67,→,left,←,0.7305103000253439,False,33,1
WZ-K-21K21S1,424,experiment,94,←,left,←,0.6614892000798136,True,33,1
WZ-K-21K21S1,425,experiment,48,↓,down,↓,0.691394800087437,True,33,1
WZ-K-21K21S1,426,experiment,99,→,right,→,0.6699479999952018,True,33,1
WZ-K-21K21S1,427,experiment,79,↑,left,←,0.19586739991791546,False,33,1
WZ-K-21K21S1,428,experiment,58,↓,down,↓,0.594301600009203,True,33,0
WZ-K-21K21S1,429,experiment,62,↑,up,↑,0.5415743999183178,True,33,1
WZ-K-21K21S1,430,experiment,85,↓,down,↓,0.6273135999217629,True,33,1
WZ-K-21K21S1,431,experiment,61,↑,down,↓,0.8696933998726308,False,33,1
WZ-K-21K21S1,432,experiment,74,↓,down,↓,0.866231300169602,True,33,1
WZ-K-21K21S1,433,experiment,50,←,left,←,0.5023234998807311,True,33,1
WZ-K-21K21S1,434,experiment,52,→,right,→,0.561075699981302,True,33,1
WZ-K-21K21S1,435,experiment,49,↑,up,↑,0.7539618001319468,True,33,1
WZ-K-21K21S1,436,experiment,72,↓,down,↓,0.5080231998581439,True,33,1
WZ-K-21K21S1,437,experiment,105,←,left,←,0.7476345000322908,True,33,1
WZ-K-21K21S1,438,experiment,97,↑,up,↑,0.6530673000961542,True,33,1
WZ-K-21K21S1,439,experiment,65,↓,down,↓,0.5173639999702573,True,33,1
WZ-K-21K21S1,440,experiment,80,←,up,↑,0.7896036000456661,False,33,1
WZ-K-21K21S1,441,experiment,108,→,right,→,0.5617395997978747,True,33,1
WZ-K-21K21S1,442,experiment,88,←,left,←,0.7976544999983162,True,33,1
WZ-K-21K21S1,443,experiment,87,←,left,←,0.472297300118953,True,33,1
WZ-K-21K21S1,444,experiment,104,→,right,→,0.9064313999842852,True,33,1
WZ-K-21K21S1,445,experiment,102,↑,up,↑,0.8677848000079393,True,33,1
WZ-K-21K21S1,446,experiment,51,↑,up,↑,0.7435480998829007,True,33,1
WZ-K-21K21S1,447,experiment,98,↑,up,↑,1.0090294000692666,True,33,1
WZ-K-21K21S1,448,experiment,84,↓,down,↓,0.636378699913621,True,33,1
WZ-K-21K21S1,449,experiment,91,↑,up,↑,0.7964364001527429,True,33,1
WZ-K-21K21S1,450,experiment,92,↓,down,↓,0.5893989000469446,True,33,1
WZ-K-21K21S1,451,experiment,59,→,left,←,0.9057750999927521,False,33,1
WZ-K-21K21S1,452,experiment,106,↓,down,↓,0.6343044000677764,True,33,1
WZ-K-21K21S1,453,experiment,100,←,left,←,0.742844199994579,True,33,1
WZ-K-21K21S1,454,experiment,101,↑,up,↑,0.599301700014621,True,33,1
WZ-K-21K21S1,455,experiment,103,←,left,←,0.5084608001634479,True,33,1
WZ-K-21K21S1,456,experiment,54,←,left,←,0.7579513001255691,True,33,1
WZ-K-21K21S1,457,experiment,90,→,left,←,0.8173186001367867,False,33,1
WZ-K-21K21S1,458,experiment,71,→,left,←,1.0806573999579996,False,33,1
WZ-K-21K21S1,459,experiment,83,←,left,←,0.6573834998998791,True,33,1
WZ-K-21K21S1,460,experiment,93,↓,down,↓,0.7439017998985946,True,33,1
WZ-K-21K21S1,461,experiment,63,↓,down,↓,0.748891499824822,True,33,1
WZ-K-21K21S1,462,experiment,60,↓,down,↓,0.4431278998963535,True,33,1
WZ-K-21K21S1,463,experiment,55,←,left,←,0.6380258998833597,True,33,0
WZ-K-21K21S1,464,experiment,68,↓,down,↓,0.6215236000716686,True,33,1
WZ-K-21K21S1,465,experiment,69,↑,up,↑,0.805661299964413,True,33,1
WZ-K-21K21S1,466,experiment,70,↓,up,↑,0.9733104000333697,False,33,1
WZ-K-21K21S1,467,experiment,107,↓,down,↓,0.5299831000156701,True,33,1
WZ-K-21K21S1,468,experiment,81,↑,up,↑,0.6095326999202371,True,33,1
WZ-K-21K21S1,469,experiment,82,↓,down,↓,0.6457018000073731,True,33,1
WZ-K-21K21S1,470,experiment,53,↓,down,↓,0.6981258001178503,True,33,1
WZ-K-21K21S1,471,experiment,73,↓,down,↓,0.8373683001846075,True,33,1
WZ-K-21K21S1,472,experiment,77,↓,up,↑,1.4341621999628842,False,33,1
WZ-K-21K21S1,473,experiment,89,→,right,→,1.026333199813962,True,33,1
WZ-K-21K21S1,474,experiment,95,→,right,→,0.7296132000628859,True,33,1
WZ-K-21K21S1,475,experiment,57,←,left,←,0.5610083001665771,True,33,1
WZ-K-21K21S1,476,experiment,56,←,left,←,0.5839064000174403,True,33,1
WZ-K-21K21S1,477,experiment,86,→,right,→,0.9553650999441743,True,33,1
WZ-K-21K21S1,478,experiment,76,←,left,←,0.6914917998947203,True,33,1
WZ-K-21K21S1,479,experiment,66,↑,up,↑,1.193794900085777,True,33,1
WZ-K-21K21S1,480,experiment,64,↑,up,↑,0.7163659001234919,True,33,1
WZ-K-21K21S1,481,experiment,78,↓,down,↓,0.5174259999766946,True,33,1
WZ-K-21K21S1,482,training,59,↑,up,↑,0.6327277000527829,True,33,0
WZ-K-21K21S1,483,training,73,↑,up,↑,1.8547171000391245,True,33,1
WZ-K-21K21S1,484,experiment,97,↑,up,↑,0.5001236000098288,True,33,1
WZ-K-21K21S1,485,experiment,94,↑,up,↑,0.6081697000190616,True,33,1
WZ-K-21K21S1,486,experiment,107,↑,up,↑,0.8199434000998735,True,33,1
WZ-K-21K21S1,487,experiment,104,↓,up,↑,0.9026779998093843,False,33,1
WZ-K-21K21S1,488,experiment,96,↑,up,↑,0.8742662000004202,True,33,1
WZ-K-21K21S1,489,experiment,58,↑,up,↑,0.7954243998974562,True,33,1
WZ-K-21K21S1,490,experiment,69,←,left,←,0.5245664000976831,True,33,1
WZ-K-21K21S1,491,experiment,62,↓,down,↓,0.7706124000251293,True,33,1
WZ-K-21K21S1,492,experiment,55,↓,down,↓,0.5135127999819815,True,33,1
WZ-K-21K21S1,493,experiment,105,↓,down,↓,0.6011612999718636,True,33,1
WZ-K-21K21S1,494,experiment,59,→,right,→,0.5414059001486748,True,33,1
WZ-K-21K21S1,495,experiment,92,←,left,←,0.4494493999518454,True,33,1
WZ-K-21K21S1,496,experiment,66,↓,down,↓,0.7045930000022054,True,33,1
WZ-K-21K21S1,497,experiment,87,→,right,→,0.47919629979878664,True,33,1
WZ-K-21K21S1,498,experiment,90,←,left,←,0.7414816999807954,True,33,1
WZ-K-21K21S1,499,experiment,93,←,left,←,0.6486037001013756,True,33,1
WZ-K-21K21S1,500,experiment,71,↓,down,↓,0.5267757999245077,True,33,1
WZ-K-21K21S1,501,experiment,108,←,left,←,0.493086599977687,True,33,1
WZ-K-21K21S1,502,experiment,68,→,right,→,0.7947082000318915,True,33,1
WZ-K-21K21S1,503,experiment,84,↑,up,↑,0.7505811001174152,True,33,1
WZ-K-21K21S1,504,experiment,100,↓,down,↓,0.5270023001357913,True,33,1
WZ-K-21K21S1,505,experiment,101,↓,down,↓,0.656053600134328,True,33,1
WZ-K-21K21S1,506,experiment,99,↓,down,↓,0.7083811000920832,True,33,1
WZ-K-21K21S1,507,experiment,76,←,left,←,0.8308667000383139,True,33,1
WZ-K-21K21S1,508,experiment,82,↑,up,↑,0.7933617001399398,True,33,1
WZ-K-21K21S1,509,experiment,51,↓,down,↓,0.6084616000298411,True,33,1
WZ-K-21K21S1,510,experiment,61,→,right,→,0.740201500011608,True,33,1
WZ-K-21K21S1,511,experiment,70,↑,up,↑,0.582296899985522,True,33,1
WZ-K-21K21S1,512,experiment,106,←,left,←,0.4755310001783073,True,33,1
WZ-K-21K21S1,513,experiment,57,↑,up,↑,0.5171123999170959,True,33,1
WZ-K-21K21S1,514,experiment,103,↓,down,↓,0.48606559983454645,True,33,1
WZ-K-21K21S1,515,experiment,72,↓,down,↓,0.42606849991716444,True,33,1
WZ-K-21K21S1,516,experiment,65,←,left,←,0.7151832000818104,True,33,0
WZ-K-21K21S1,517,experiment,53,←,left,←,0.49264069995842874,True,33,1
WZ-K-21K21S1,518,experiment,54,↑,up,↑,0.6786009999923408,True,33,1
WZ-K-21K21S1,519,experiment,89,←,left,←,1.694055899977684,True,33,1
WZ-K-21K21S1,520,experiment,73,→,right,→,0.6334064998663962,True,33,1
WZ-K-21K21S1,521,experiment,52,←,left,←,1.1819713998120278,True,33,1
WZ-K-21K21S1,522,experiment,91,↓,down,↓,0.5681451000273228,True,33,1
WZ-K-21K21S1,523,experiment,79,↓,down,↓,0.7348779998719692,True,33,1
WZ-K-21K21S1,524,experiment,85,→,right,→,0.7327835999894887,True,33,1
WZ-K-21K21S1,525,experiment,49,↓,up,↑,1.102954899892211,False,33,1
WZ-K-21K21S1,526,experiment,86,←,left,←,0.6379168999847025,True,33,1
WZ-K-21K21S1,527,experiment,64,→,right,→,0.5667453000787646,True,33,1
WZ-K-21K21S1,528,experiment,88,↓,down,↓,0.746365400031209,True,33,1
WZ-K-21K21S1,529,experiment,63,←,left,←,0.5914600000251085,True,33,1
WZ-K-21K21S1,530,experiment,81,←,left,←,0.7723229001276195,True,33,1
WZ-K-21K21S1,531,experiment,60,↓,down,↓,0.5130540998652577,True,33,1
WZ-K-21K21S1,532,experiment,74,↑,left,←,1.723496199818328,False,33,1
WZ-K-21K21S1,533,experiment,102,→,left,←,1.6600352001842111,False,33,1
WZ-K-21K21S1,534,experiment,48,↓,down,↓,0.4970501000061631,True,33,1
WZ-K-21K21S1,535,experiment,77,→,left,←,0.8191235000267625,False,33,1
WZ-K-21K21S1,536,experiment,95,→,right,→,0.8264910001307726,True,33,1
WZ-K-21K21S1,537,experiment,80,↓,down,↓,0.6305503998883069,True,33,1
WZ-K-21K21S1,538,experiment,78,←,left,←,0.6750219999812543,True,33,1
WZ-K-21K21S1,539,experiment,67,↑,up,↑,0.7132772000040859,True,33,1
WZ-K-21K21S1,540,experiment,98,→,right,→,0.8277262998744845,True,33,1
WZ-K-21K21S1,541,experiment,83,←,right,→,1.1026808999013156,False,33,1
WZ-K-21K21S1,542,experiment,75,↑,up,↑,0.9293098000343889,True,33,1
WZ-K-21K21S1,543,experiment,56,↓,up,↑,1.1048838999122381,False,33,1
WZ-K-21K21S1,544,experiment,50,↓,down,↓,0.4837688999250531,True,33,1
WZ-K-21K21S1,545,training,75,↑,up,↑,0.6456408000085503,True,33,0
WZ-K-21K21S1,546,training,71,→,right,→,0.49156049988232553,True,33,1
WZ-K-21K21S1,547,experiment,88,→,right,→,0.47435420006513596,True,33,1
WZ-K-21K21S1,548,experiment,57,↑,up,↑,0.46804700000211596,True,33,1
WZ-K-21K21S1,549,experiment,94,→,right,→,0.7539062001742423,True,33,1
WZ-K-21K21S1,550,experiment,80,↑,up,↑,0.6167845998425037,True,33,1
WZ-K-21K21S1,551,experiment,97,↑,up,↑,0.6236295001581311,True,33,1
WZ-K-21K21S1,552,experiment,68,↑,up,↑,0.46357089979574084,True,33,1
WZ-K-21K21S1,553,experiment,82,↑,up,↑,0.4655271000228822,True,33,1
WZ-K-21K21S1,554,experiment,79,←,left,←,0.7002228999044746,True,33,1
WZ-K-21K21S1,555,experiment,83,↓,down,↓,0.5084969999734312,True,33,1
WZ-K-21K21S1,556,experiment,52,↓,up,↑,0.8543604998849332,False,33,1
WZ-K-21K21S1,557,experiment,78,→,right,→,0.5456927998457104,True,33,1
WZ-K-21K21S1,558,experiment,74,↓,down,↓,0.5311131998896599,True,33,1
WZ-K-21K21S1,559,experiment,85,→,right,→,0.44904439989477396,True,33,1
WZ-K-21K21S1,560,experiment,106,↑,up,↑,0.5073784999549389,True,33,0
WZ-K-21K21S1,561,experiment,108,↑,up,↑,0.4591842999216169,True,33,1
WZ-K-21K21S1,562,experiment,53,↓,no_key,no_letter,-1.0,False,33,1
WZ-K-21K21S1,563,experiment,73,↑,up,↑,0.6079584001563489,True,33,1
WZ-K-21K21S1,564,experiment,56,↑,up,↑,0.5411596999038011,True,33,1
WZ-K-21K21S1,565,experiment,61,↓,down,↓,0.5786898999940604,True,33,1
WZ-K-21K21S1,566,experiment,99,←,left,←,0.6822587000206113,True,33,1
WZ-K-21K21S1,567,experiment,103,←,left,←,0.6920804001856595,True,33,1
WZ-K-21K21S1,568,experiment,49,↓,down,↓,0.9999951000791043,True,33,1
WZ-K-21K21S1,569,experiment,60,←,left,←,0.5236626998521388,True,33,1
WZ-K-21K21S1,570,experiment,92,←,right,→,1.5039853998459876,False,33,1
WZ-K-21K21S1,571,experiment,87,→,right,→,0.8382834000512958,True,33,1
WZ-K-21K21S1,572,experiment,105,→,right,→,0.5938693999778479,True,33,1
WZ-K-21K21S1,573,experiment,72,→,right,→,0.5615201999899,True,33,1
WZ-K-21K21S1,574,experiment,63,←,left,←,0.7341809999197721,True,33,1
WZ-K-21K21S1,575,experiment,75,→,right,→,0.6636980001349002,True,33,1
WZ-K-21K21S1,576,experiment,100,←,left,←,0.7313565998338163,True,33,1
WZ-K-21K21S1,577,experiment,66,→,right,→,0.8078191000968218,True,33,1
WZ-K-21K21S1,578,experiment,54,←,right,→,0.7809747001156211,False,33,1
WZ-K-21K21S1,579,experiment,89,→,right,→,1.9036944000981748,True,33,1
WZ-K-21K21S1,580,experiment,67,→,right,→,0.7571845001075417,True,33,1
WZ-K-21K21S1,581,experiment,77,→,right,→,0.5885849001351744,True,33,1
WZ-K-21K21S1,582,experiment,102,↓,down,↓,0.6346462001092732,True,33,1
WZ-K-21K21S1,583,experiment,93,→,right,→,1.2019259999506176,True,33,1
WZ-K-21K21S1,584,experiment,71,↓,down,↓,0.7941670999862254,True,33,1
WZ-K-21K21S1,585,experiment,98,↑,up,↑,0.7372630999889225,True,33,1
WZ-K-21K21S1,586,experiment,55,↑,up,↑,0.6093393999617547,True,33,1
WZ-K-21K21S1,587,experiment,48,↑,up,↑,0.600744399940595,True,33,1
WZ-K-21K21S1,588,experiment,70,→,right,→,0.5453874000813812,True,33,1
WZ-K-21K21S1,589,experiment,59,←,left,←,0.6079760000575334,True,33,1
WZ-K-21K21S1,590,experiment,86,↑,up,↑,0.7063168999738991,True,33,1
WZ-K-21K21S1,591,experiment,69,→,right,→,0.7349193999543786,True,33,1
WZ-K-21K21S1,592,experiment,50,↓,down,↓,0.5286057000048459,True,33,1
WZ-K-21K21S1,593,experiment,65,↓,down,↓,0.5100061998236924,True,33,1
WZ-K-21K21S1,594,experiment,62,←,left,←,0.6123369999695569,True,33,1
WZ-K-21K21S1,595,experiment,95,←,left,←,0.6520231000613421,True,33,1
WZ-K-21K21S1,596,experiment,84,↓,down,↓,0.6941708000376821,True,33,1
WZ-K-21K21S1,597,experiment,51,↓,down,↓,0.8008421999402344,True,33,1
WZ-K-21K21S1,598,experiment,58,↓,down,↓,0.5651799000333995,True,33,1
WZ-K-21K21S1,599,experiment,90,↓,down,↓,0.46442150021903217,True,33,1
WZ-K-21K21S1,600,experiment,107,→,right,→,1.6418094001710415,True,33,1
WZ-K-21K21S1,601,experiment,96,→,right,→,0.6396672998089343,True,33,1
WZ-K-21K21S1,602,experiment,64,↑,up,↑,0.680273300036788,True,33,1
WZ-K-21K21S1,603,experiment,91,↓,down,↓,0.5664140998851508,True,33,1
WZ-K-21K21S1,604,experiment,101,↑,down,↓,0.9418184000533074,False,33,1
WZ-K-21K21S1,605,experiment,81,↑,up,↑,0.5805907999165356,True,33,1
WZ-K-21K21S1,606,experiment,104,→,no_key,no_letter,-1.0,False,33,1
WZ-K-21K21S1,607,experiment,76,↓,down,↓,1.0508945998735726,True,33,1
WZ-K-21K21S1,608,training,98,→,left,←,1.1247210998553783,False,32,0
WZ-K-21K21S1,609,training,50,←,left,←,0.494797500083223,True,32,1
WZ-K-21K21S1,610,experiment,65,↓,down,↓,0.5331411000806838,True,32,1
WZ-K-21K21S1,611,experiment,72,←,left,←,0.5276013999246061,True,32,1
WZ-K-21K21S1,612,experiment,80,↓,down,↓,0.47165770013816655,True,32,1
WZ-K-21K21S1,613,experiment,100,→,left,←,1.0509509998373687,False,32,1
WZ-K-21K21S1,614,experiment,99,↓,down,↓,0.5598002001643181,True,32,1
WZ-K-21K21S1,615,experiment,92,↓,down,↓,0.6185862999409437,True,32,1
WZ-K-21K21S1,616,experiment,50,→,right,→,0.5769813999067992,True,32,1
WZ-K-21K21S1,617,experiment,64,↑,up,↑,1.0043693999759853,True,32,1
WZ-K-21K21S1,618,experiment,85,←,left,←,0.4872375000268221,True,32,1
WZ-K-21K21S1,619,experiment,53,↑,up,↑,1.2736843000166118,True,32,1
WZ-K-21K21S1,620,experiment,60,↑,up,↑,0.6984475001227111,True,32,1
WZ-K-21K21S1,621,experiment,66,↓,down,↓,0.49604499991983175,True,32,1
WZ-K-21K21S1,622,experiment,55,←,left,←,0.6575116000603884,True,32,1
WZ-K-21K21S1,623,experiment,57,→,no_key,no_letter,-1.0,False,32,1
WZ-K-21K21S1,624,experiment,107,←,left,←,0.7464999000076205,True,32,1
WZ-K-21K21S1,625,experiment,70,←,left,←,0.4773184999357909,True,32,1
WZ-K-21K21S1,626,experiment,56,←,left,←,0.5514265999663621,True,32,1
WZ-K-21K21S1,627,experiment,94,→,up,↑,1.2655106000602245,False,32,1
WZ-K-21K21S1,628,experiment,91,↓,down,↓,0.6884043000172824,True,32,1
WZ-K-21K21S1,629,experiment,86,↑,up,↑,0.5676949000917375,True,32,1
WZ-K-21K21S1,630,experiment,59,↓,down,↓,0.7651563000399619,True,32,1
WZ-K-21K21S1,631,experiment,104,←,left,←,0.4912878000177443,True,32,1
WZ-K-21K21S1,632,experiment,62,←,left,←,0.8027451999951154,True,32,1
WZ-K-21K21S1,633,experiment,101,→,right,→,0.5689141000621021,True,32,1
WZ-K-21K21S1,634,experiment,103,←,left,←,0.535431400174275,True,32,1
WZ-K-21K21S1,635,experiment,105,←,left,←,0.4083779000211507,True,32,1
WZ-K-21K21S1,636,experiment,68,→,right,→,0.5112408001441509,True,32,0
WZ-K-21K21S1,637,experiment,67,→,left,←,0.724548599915579,False,32,1
WZ-K-21K21S1,638,experiment,77,↓,down,↓,0.7015921999700367,True,32,1
WZ-K-21K21S1,639,experiment,69,→,right,→,0.5463080999907106,True,32,1
WZ-K-21K21S1,640,experiment,106,↓,down,↓,0.6886839000508189,True,32,1
WZ-K-21K21S1,641,experiment,61,→,left,←,0.7040924998000264,False,32,1
WZ-K-21K21S1,642,experiment,81,←,left,←,0.4965528000611812,True,32,1
WZ-K-21K21S1,643,experiment,52,←,left,←,0.6110461000353098,True,32,1
WZ-K-21K21S1,644,experiment,51,→,right,→,0.6172023999970406,True,32,1
WZ-K-21K21S1,645,experiment,88,→,no_key,no_letter,-1.0,False,32,1
WZ-K-21K21S1,646,experiment,83,←,left,←,0.6023232000879943,True,32,1
WZ-K-21K21S1,647,experiment,93,→,left,←,0.7623268999159336,False,32,1
WZ-K-21K21S1,648,experiment,79,↓,down,↓,0.6894898000173271,True,32,1
WZ-K-21K21S1,649,experiment,76,↑,up,↑,0.7720406998414546,True,32,1
WZ-K-21K21S1,650,experiment,49,←,left,←,0.5084061999805272,True,32,1
WZ-K-21K21S1,651,experiment,89,↑,up,↑,0.4663990999106318,True,32,1
WZ-K-21K21S1,652,experiment,98,→,right,→,0.4783107000403106,True,32,1
WZ-K-21K21S1,653,experiment,82,↑,up,↑,0.607726400019601,True,32,1
WZ-K-21K21S1,654,experiment,75,←,left,←,0.34319010004401207,True,32,1
WZ-K-21K21S1,655,experiment,73,↓,down,↓,0.3843074000906199,True,32,0
WZ-K-21K21S1,656,experiment,108,←,left,←,0.4753111000172794,True,32,0
WZ-K-21K21S1,657,experiment,54,→,right,→,0.49398670019581914,True,32,1
WZ-K-21K21S1,658,experiment,58,↑,no_key,no_letter,-1.0,False,32,1
WZ-K-21K21S1,659,experiment,102,→,right,→,0.8708860999904573,True,32,1
WZ-K-21K21S1,660,experiment,48,↑,up,↑,0.7158694001846015,True,32,1
WZ-K-21K21S1,661,experiment,74,←,left,←,0.7900547999888659,True,32,1
WZ-K-21K21S1,662,experiment,78,←,left,←,0.7559765998739749,True,32,1
WZ-K-21K21S1,663,experiment,63,↓,down,↓,0.6326584999915212,True,32,1
WZ-K-21K21S1,664,experiment,87,←,left,←,0.5939795998856425,True,32,1
WZ-K-21K21S1,665,experiment,97,←,left,←,0.3840663000009954,True,32,1
WZ-K-21K21S1,666,experiment,84,→,right,→,0.6856826001312584,True,32,0
WZ-K-21K21S1,667,experiment,71,→,right,→,0.9623793000355363,True,32,1
WZ-K-21K21S1,668,experiment,95,←,left,←,0.5874884000513703,True,32,1
WZ-K-21K21S1,669,experiment,90,↑,up,↑,0.6779049001634121,True,32,1
WZ-K-21K21S1,670,experiment,96,↓,up,↑,0.9304327999707311,False,32,1
WZ-K-21K21S1,671,training,65,↓,down,↓,0.9566520999651402,True,32,0
WZ-K-21K21S1,672,training,74,←,left,←,0.7016958999447525,True,32,1
WZ-K-21K21S1,673,experiment,48,↑,up,↑,0.7452577000949532,True,32,1
WZ-K-21K21S1,674,experiment,86,↓,down,↓,0.5987434999551624,True,32,1
WZ-K-21K21S1,675,experiment,79,→,right,→,0.8839235999621451,True,32,1
WZ-K-21K21S1,676,experiment,53,→,right,→,0.5026440001092851,True,32,1
WZ-K-21K21S1,677,experiment,89,↓,down,↓,0.5806583999656141,True,32,1
WZ-K-21K21S1,678,experiment,67,↓,down,↓,0.4551176999229938,True,32,1
WZ-K-21K21S1,679,experiment,77,→,right,→,0.6108188000507653,True,32,1
WZ-K-21K21S1,680,experiment,83,→,right,→,0.40060429996810853,True,32,1
WZ-K-21K21S1,681,experiment,97,←,left,←,0.46951939980499446,True,32,0
WZ-K-21K21S1,682,experiment,71,↓,down,↓,0.5867808999028057,True,32,1
WZ-K-21K21S1,683,experiment,92,↑,up,↑,0.4526682998985052,True,32,1
WZ-K-21K21S1,684,experiment,69,↑,up,↑,0.4753605998121202,True,32,1
WZ-K-21K21S1,685,experiment,54,↓,down,↓,0.6700585000216961,True,32,1
WZ-K-21K21S1,686,experiment,99,↑,up,↑,0.8021152999717742,True,32,1
WZ-K-21K21S1,687,experiment,55,←,left,←,0.7515154001303017,True,32,1
WZ-K-21K21S1,688,experiment,72,↓,down,↓,0.5691857999190688,True,32,1
WZ-K-21K21S1,689,experiment,78,↑,up,↑,0.5122163998894393,True,32,1
WZ-K-21K21S1,690,experiment,82,→,right,→,0.616480200085789,True,32,1
WZ-K-21K21S1,691,experiment,50,→,right,→,0.6308243998792022,True,32,1
WZ-K-21K21S1,692,experiment,51,↑,up,↑,0.500073199858889,True,32,1
WZ-K-21K21S1,693,experiment,70,→,right,→,0.6329049998894334,True,32,1
WZ-K-21K21S1,694,experiment,80,→,right,→,0.6762814000248909,True,32,1
WZ-K-21K21S1,695,experiment,90,↑,up,↑,0.5310937999747694,True,32,1
WZ-K-21K21S1,696,experiment,102,↓,down,↓,0.4360205000266433,True,32,1
WZ-K-21K21S1,697,experiment,100,↑,up,↑,0.5122362000402063,True,32,1
WZ-K-21K21S1,698,experiment,94,←,left,←,0.6122332001104951,True,32,1
WZ-K-21K21S1,699,experiment,56,↓,down,↓,0.6728890999220312,True,32,1
WZ-K-21K21S1,700,experiment,81,↓,down,↓,0.4432858000509441,True,32,1
WZ-K-21K21S1,701,experiment,63,→,left,←,0.9793515000492334,False,32,1
WZ-K-21K21S1,702,experiment,101,←,left,←,0.6503524000290781,True,32,1
WZ-K-21K21S1,703,experiment,58,→,right,→,0.5884940000250936,True,32,1
WZ-K-21K21S1,704,experiment,76,↓,down,↓,0.4993650000542402,True,32,1
WZ-K-21K21S1,705,experiment,73,←,left,←,0.7026760000735521,True,32,1
WZ-K-21K21S1,706,experiment,93,←,left,←,0.48349980008788407,True,32,1
WZ-K-21K21S1,707,experiment,64,↓,down,↓,0.6905572998803109,True,32,1
WZ-K-21K21S1,708,experiment,62,↑,up,↑,0.7217393000610173,True,32,1
WZ-K-21K21S1,709,experiment,98,↓,down,↓,0.41747840004973114,True,32,1
WZ-K-21K21S1,710,experiment,87,←,left,←,0.43824180006049573,True,32,0
WZ-K-21K21S1,711,experiment,57,↑,up,↑,0.5768810000736266,True,32,1
WZ-K-21K21S1,712,experiment,74,←,left,←,0.40927259996533394,True,32,1
WZ-K-21K21S1,713,experiment,68,↑,up,↑,0.4569787001237273,True,32,0
WZ-K-21K21S1,714,experiment,59,↓,down,↓,0.48284099996089935,True,32,1
WZ-K-21K21S1,715,experiment,91,→,left,←,1.240556800039485,False,32,1
WZ-K-21K21S1,716,experiment,107,←,left,←,0.4828788999002427,True,32,1
WZ-K-21K21S1,717,experiment,75,→,left,←,0.8386031000409275,False,32,1
WZ-K-21K21S1,718,experiment,106,↓,down,↓,0.4418228999711573,True,32,1
WZ-K-21K21S1,719,experiment,85,→,right,→,1.2744498001411557,True,32,1
WZ-K-21K21S1,720,experiment,66,↑,down,↓,0.7209582000505179,False,32,1
WZ-K-21K21S1,721,experiment,105,←,left,←,0.47271769982762635,True,32,1
WZ-K-21K21S1,722,experiment,61,↓,down,↓,0.6009423001669347,True,32,1
WZ-K-21K21S1,723,experiment,88,↓,down,↓,0.6113729998469353,True,32,1
WZ-K-21K21S1,724,experiment,96,↑,up,↑,0.4588457001373172,True,32,1
WZ-K-21K21S1,725,experiment,104,↓,up,↑,0.8855469999834895,False,32,1
WZ-K-21K21S1,726,experiment,52,→,right,→,0.6327251000329852,True,32,1
WZ-K-21K21S1,727,experiment,49,↓,down,↓,0.46286830003373325,True,32,1
WZ-K-21K21S1,728,experiment,95,→,right,→,0.6440373999066651,True,32,1
WZ-K-21K21S1,729,experiment,108,↑,up,↑,0.4543505001347512,True,32,1
WZ-K-21K21S1,730,experiment,65,↑,up,↑,0.40061510005034506,True,32,1
WZ-K-21K21S1,731,experiment,103,↑,up,↑,0.891130100004375,True,32,0
WZ-K-21K21S1,732,experiment,84,→,right,→,0.6349291999358684,True,32,1
WZ-K-21K21S1,733,experiment,60,←,right,→,0.6693426000420004,False,32,1
WZ-K-21K21S1,734,training,78,→,right,→,0.6085967000108212,True,31,0
WZ-K-21K21S1,735,training,90,↑,up,↑,0.6097251998726279,True,31,1
WZ-K-21K21S1,736,experiment,52,→,left,←,0.5600888999179006,False,31,1
WZ-K-21K21S1,737,experiment,107,↑,up,↑,0.645509600173682,True,31,1
WZ-K-21K21S1,738,experiment,76,→,right,→,0.6182237998582423,True,31,1
WZ-K-21K21S1,739,experiment,83,←,left,←,0.5336457001976669,True,31,1
WZ-K-21K21S1,740,experiment,69,↓,right,→,0.36765690008178353,False,31,1
WZ-K-21K21S1,741,experiment,62,↓,up,↑,1.413200099952519,False,31,0
WZ-K-21K21S1,742,experiment,96,←,left,←,0.4521651000250131,True,31,1
WZ-K-21K21S1,743,experiment,71,↑,up,↑,0.4505109000019729,True,31,1
WZ-K-21K21S1,744,experiment,75,↓,up,↑,0.6151280999183655,False,31,1
WZ-K-21K21S1,745,experiment,97,↓,down,↓,0.533848199993372,True,31,1
WZ-K-21K21S1,746,experiment,99,↓,down,↓,0.5028558000922203,True,31,1
WZ-K-21K21S1,747,experiment,68,→,right,→,0.8280793000012636,True,31,1
WZ-K-21K21S1,748,experiment,67,→,right,→,0.49247259995900095,True,31,1
WZ-K-21K21S1,749,experiment,80,↓,down,↓,0.8698756000958383,True,31,1
WZ-K-21K21S1,750,experiment,98,↑,down,↓,0.6582560001406819,False,31,1
WZ-K-21K21S1,751,experiment,65,←,left,←,0.48240359988994896,True,31,1
WZ-K-21K21S1,752,experiment,48,↓,down,↓,0.5905648001935333,True,31,1
WZ-K-21K21S1,753,experiment,108,→,right,→,0.4664227000903338,True,31,1
WZ-K-21K21S1,754,experiment,104,↓,down,↓,0.5087861001957208,True,31,1
WZ-K-21K21S1,755,experiment,86,→,right,→,0.48348840000107884,True,31,1
WZ-K-21K21S1,756,experiment,89,↓,down,↓,0.5783520000986755,True,31,1
WZ-K-21K21S1,757,experiment,101,↑,down,↓,0.6012831998523325,False,31,1
WZ-K-21K21S1,758,experiment,56,↓,down,↓,0.6626873000059277,True,31,1
WZ-K-21K21S1,759,experiment,79,→,right,→,0.5610903000924736,True,31,1
WZ-K-21K21S1,760,experiment,50,↑,up,↑,0.5378344000782818,True,31,1
WZ-K-21K21S1,761,experiment,66,→,right,→,0.5498652998358011,True,31,1
WZ-K-21K21S1,762,experiment,78,↑,up,↑,0.6054728000890464,True,31,1
WZ-K-21K21S1,763,experiment,103,↑,up,↑,0.4667704999446869,True,31,1
WZ-K-21K21S1,764,experiment,90,↓,down,↓,0.6498674999456853,True,31,1
WZ-K-21K21S1,765,experiment,63,↑,up,↑,0.7304704000707716,True,31,1
WZ-K-21K21S1,766,experiment,70,↑,up,↑,0.5017422998789698,True,31,1
WZ-K-21K21S1,767,experiment,55,↓,down,↓,0.5509770000353456,True,31,1
WZ-K-21K21S1,768,experiment,54,↑,up,↑,0.7026268998160958,True,31,1
WZ-K-21K21S1,769,experiment,95,↓,down,↓,0.6187750999815762,True,31,1
WZ-K-21K21S1,770,experiment,102,←,left,←,0.7757256999611855,True,31,1
WZ-K-21K21S1,771,experiment,87,←,left,←,0.45945349987596273,True,31,1
WZ-K-21K21S1,772,experiment,82,↑,down,↓,0.6135018998757005,False,31,1
WZ-K-21K21S1,773,experiment,94,→,right,→,0.4774485998786986,True,31,1
WZ-K-21K21S1,774,experiment,91,→,right,→,0.6595813001040369,True,31,1
WZ-K-21K21S1,775,experiment,60,←,left,←,0.6132433000020683,True,31,1
WZ-K-21K21S1,776,experiment,74,←,left,←,0.69997310009785,True,31,1
WZ-K-21K21S1,777,experiment,59,↓,down,↓,0.6116629000753164,True,31,1
WZ-K-21K21S1,778,experiment,73,↓,up,↑,0.6509461998939514,False,31,1
WZ-K-21K21S1,779,experiment,77,↑,up,↑,0.6869634001050144,True,31,1
WZ-K-21K21S1,780,experiment,81,↑,up,↑,0.6963682000059634,True,31,1
WZ-K-21K21S1,781,experiment,49,←,left,←,0.9238976000342518,True,31,1
WZ-K-21K21S1,782,experiment,64,↑,up,↑,0.5370479000266641,True,31,1
WZ-K-21K21S1,783,experiment,51,→,right,→,0.5462623999919742,True,31,1
WZ-K-21K21S1,784,experiment,92,→,up,↑,0.5819546999409795,False,31,1
WZ-K-21K21S1,785,experiment,53,→,right,→,0.46888569998554885,True,31,1
WZ-K-21K21S1,786,experiment,84,→,right,→,1.4219110000412911,True,31,1
WZ-K-21K21S1,787,experiment,72,←,left,←,0.8043997997883707,True,31,1
WZ-K-21K21S1,788,experiment,100,↓,down,↓,0.762556100031361,True,31,1
WZ-K-21K21S1,789,experiment,106,↓,down,↓,0.5124657000415027,True,31,1
WZ-K-21K21S1,790,experiment,105,→,right,→,0.7206894000992179,True,31,1
WZ-K-21K21S1,791,experiment,58,→,right,→,0.7442839001305401,True,31,1
WZ-K-21K21S1,792,experiment,85,↑,up,↑,0.7417723999824375,True,31,1
WZ-K-21K21S1,793,experiment,57,↑,up,↑,0.70876540010795,True,31,1
WZ-K-21K21S1,794,experiment,93,↑,up,↑,1.1053759001661092,True,31,1
WZ-K-21K21S1,795,experiment,61,←,left,←,0.552418400067836,True,31,1
WZ-K-21K21S1,796,experiment,88,↑,up,↑,0.6046500001102686,True,31,1
WZ-K-21K21S1,797,training,100,↓,up,↑,0.6900003000628203,False,31,0
WZ-K-21K21S1,798,training,98,→,left,←,0.6215156000107527,False,31,1
WZ-K-21K21S1,799,experiment,57,→,right,→,0.44986820011399686,True,31,1
WZ-K-21K21S1,800,experiment,73,↓,down,↓,0.4955504999961704,True,31,1
WZ-K-21K21S1,801,experiment,108,→,right,→,0.5752214000094682,True,31,1
WZ-K-21K21S1,802,experiment,58,←,left,←,0.4287284999154508,True,31,1
WZ-K-21K21S1,803,experiment,101,←,left,←,0.6571804000996053,True,31,0
WZ-K-21K21S1,804,experiment,64,↑,up,↑,0.47345430008135736,True,31,1
WZ-K-21K21S1,805,experiment,66,←,up,↑,0.5920898001641035,False,31,1
WZ-K-21K21S1,806,experiment,62,↓,down,↓,0.4913315998855978,True,31,1
WZ-K-21K21S1,807,experiment,53,→,right,→,0.46200990001671016,True,31,1
WZ-K-21K21S1,808,experiment,56,←,left,←,0.48058259999379516,True,31,1
WZ-K-21K21S1,809,experiment,69,↓,down,↓,0.43091849982738495,True,31,1
WZ-K-21K21S1,810,experiment,68,←,left,←,0.5097681998740882,True,31,1
WZ-K-21K21S1,811,experiment,65,↓,down,↓,0.5315260998904705,True,31,1
WZ-K-21K21S1,812,experiment,60,↑,up,↑,0.5137410000897944,True,31,1
WZ-K-21K21S1,813,experiment,104,←,left,←,0.6903210000600666,True,31,1
WZ-K-21K21S1,814,experiment,92,↑,up,↑,0.4880909000057727,True,31,1
WZ-K-21K21S1,815,experiment,59,←,left,←,0.7841282999143004,True,31,1
WZ-K-21K21S1,816,experiment,107,←,left,←,0.5409786000382155,True,31,1
WZ-K-21K21S1,817,experiment,91,←,left,←,0.4726374000310898,True,31,1
WZ-K-21K21S1,818,experiment,86,→,right,→,0.5285035001579672,True,31,1
WZ-K-21K21S1,819,experiment,74,↑,up,↑,0.6189798999112099,True,31,1
WZ-K-21K21S1,820,experiment,52,→,right,→,0.8006462000776082,True,31,1
WZ-K-21K21S1,821,experiment,105,↓,down,↓,0.517067400040105,True,31,1
WZ-K-21K21S1,822,experiment,76,←,left,←,0.47882340010255575,True,31,1
WZ-K-21K21S1,823,experiment,79,↑,up,↑,0.4652168001048267,True,31,1
WZ-K-21K21S1,824,experiment,54,→,right,→,0.8522969998884946,True,31,1
WZ-K-21K21S1,825,experiment,93,↓,down,↓,0.5315527999773622,True,31,1
WZ-K-21K21S1,826,experiment,94,↓,down,↓,0.6059413999319077,True,31,1
WZ-K-21K21S1,827,experiment,95,↑,up,↑,0.46189910010434687,True,31,1
WZ-K-21K21S1,828,experiment,85,↓,down,↓,0.47850920003838837,True,31,1
WZ-K-21K21S1,829,experiment,83,→,right,→,0.4795260999817401,True,31,1
WZ-K-21K21S1,830,experiment,103,→,left,←,0.8099617001134902,False,31,1
WZ-K-21K21S1,831,experiment,61,↓,down,↓,0.7891351000871509,True,31,1
WZ-K-21K21S1,832,experiment,100,↓,down,↓,0.5477673001587391,True,31,1
WZ-K-21K21S1,833,experiment,50,↓,down,↓,0.684622700093314,True,31,1
WZ-K-21K21S1,834,experiment,97,↑,up,↑,0.5051632998511195,True,31,1
WZ-K-21K21S1,835,experiment,72,←,left,←,0.67639430006966,True,31,1
WZ-K-21K21S1,836,experiment,67,←,left,←,0.45073250005953014,True,31,1
WZ-K-21K21S1,837,experiment,89,↑,down,↓,0.6425570999272168,False,31,1
WZ-K-21K21S1,838,experiment,82,↑,up,↑,0.45361580001190305,True,31,1
WZ-K-21K21S1,839,experiment,63,↑,up,↑,0.4307079999707639,True,31,1
WZ-K-21K21S1,840,experiment,106,←,left,←,0.5133527000434697,True,31,1
WZ-K-21K21S1,841,experiment,75,→,right,→,0.5073971999809146,True,31,1
WZ-K-21K21S1,842,experiment,77,→,left,←,0.5809227998834103,False,31,1
WZ-K-21K21S1,843,experiment,99,↑,up,↑,0.4445352000184357,True,31,1
WZ-K-21K21S1,844,experiment,84,↓,down,↓,0.5660477001219988,True,31,1
WZ-K-21K21S1,845,experiment,51,↓,down,↓,0.6062239999882877,True,31,1
WZ-K-21K21S1,846,experiment,71,↓,right,→,0.7578804998192936,False,31,1
WZ-K-21K21S1,847,experiment,96,↑,up,↑,0.6152038001455367,True,31,1
WZ-K-21K21S1,848,experiment,49,↓,down,↓,0.4540503001771867,True,31,1
WZ-K-21K21S1,849,experiment,88,→,right,→,1.2220913998316973,True,31,1
WZ-K-21K21S1,850,experiment,78,←,left,←,0.5145397000014782,True,31,1
WZ-K-21K21S1,851,experiment,48,↓,down,↓,0.5577742999885231,True,31,1
WZ-K-21K21S1,852,experiment,70,↑,up,↑,0.43997789989225566,True,31,1
WZ-K-21K21S1,853,experiment,81,↑,up,↑,0.4589925999753177,True,31,1
WZ-K-21K21S1,854,experiment,55,→,right,→,0.5661571999080479,True,31,1
WZ-K-21K21S1,855,experiment,98,→,right,→,0.6946447000373155,True,31,1
WZ-K-21K21S1,856,experiment,87,←,left,←,0.49329389980994165,True,31,1
WZ-K-21K21S1,857,experiment,90,←,left,←,0.715545600047335,True,31,1
WZ-K-21K21S1,858,experiment,80,→,right,→,0.4762055000755936,True,31,1
WZ-K-21K21S1,859,experiment,102,↓,left,←,1.1346456999890506,False,31,1
WZ-K-21K21S1,860,training,96,←,left,←,0.624618100002408,True,30,0
WZ-K-21K21S1,861,training,102,↑,up,↑,0.42959489999338984,True,30,1
WZ-K-21K21S1,862,experiment,100,↑,up,↑,0.4185792999342084,True,30,1
WZ-K-21K21S1,863,experiment,63,→,right,→,0.8999530000146478,True,30,0
WZ-K-21K21S1,864,experiment,102,↑,up,↑,0.5816369000822306,True,30,1
WZ-K-21K21S1,865,experiment,52,↓,up,↑,0.5405222000554204,False,30,1
WZ-K-21K21S1,866,experiment,79,↑,up,↑,0.3673145000357181,True,30,1
WZ-K-21K21S1,867,experiment,72,←,left,←,0.6132325001526624,True,30,0
WZ-K-21K21S1,868,experiment,59,↑,up,↑,1.1765204998664558,True,30,1
WZ-K-21K21S1,869,experiment,97,↑,up,↑,1.5368244999554008,True,30,1
WZ-K-21K21S1,870,experiment,55,↓,down,↓,0.5528863000217825,True,30,1
WZ-K-21K21S1,871,experiment,77,→,left,←,0.6168047999963164,False,30,1
WZ-K-21K21S1,872,experiment,49,→,left,←,0.6397087001241744,False,30,1
WZ-K-21K21S1,873,experiment,60,←,left,←,1.0816247998736799,True,30,1
WZ-K-21K21S1,874,experiment,93,↓,down,↓,0.9348323999438435,True,30,1
WZ-K-21K21S1,875,experiment,99,→,right,→,0.4724707999266684,True,30,1
WZ-K-21K21S1,876,experiment,96,←,left,←,0.4930698999669403,True,30,1
WZ-K-21K21S1,877,experiment,56,↓,down,↓,0.4943677999544889,True,30,1
WZ-K-21K21S1,878,experiment,104,→,down,↓,0.8157518000807613,False,30,1
WZ-K-21K21S1,879,experiment,74,→,right,→,0.5981016999576241,True,30,1
WZ-K-21K21S1,880,experiment,101,→,left,←,0.5962775000371039,False,30,1
WZ-K-21K21S1,881,experiment,107,↓,left,←,0.6402185000479221,False,30,1
WZ-K-21K21S1,882,experiment,48,→,left,←,1.078352800104767,False,30,1
WZ-K-21K21S1,883,experiment,73,←,left,←,0.5785303001757711,True,30,1
WZ-K-21K21S1,884,experiment,106,→,right,→,0.4800700000487268,True,30,1
WZ-K-21K21S1,885,experiment,70,↓,down,↓,0.6532872000243515,True,30,1
WZ-K-21K21S1,886,experiment,86,↓,down,↓,0.5100816001649946,True,30,1
WZ-K-21K21S1,887,experiment,71,↓,down,↓,0.5059368999209255,True,30,1
WZ-K-21K21S1,888,experiment,61,←,down,↓,0.417513299966231,False,30,1
WZ-K-21K21S1,889,experiment,78,↑,up,↑,0.9258082997985184,True,30,0
WZ-K-21K21S1,890,experiment,98,→,left,←,0.6716668999288231,False,30,1
WZ-K-21K21S1,891,experiment,51,↓,right,→,0.7715159000363201,False,30,1
WZ-K-21K21S1,892,experiment,53,↓,down,↓,0.602827199967578,True,30,1
WZ-K-21K21S1,893,experiment,66,↑,down,↓,0.6044901998247951,False,30,1
WZ-K-21K21S1,894,experiment,87,↓,up,↑,0.7270023000892252,False,30,1
WZ-K-21K21S1,895,experiment,64,↓,down,↓,0.8604619998950511,True,30,1
WZ-K-21K21S1,896,experiment,85,↓,down,↓,0.5972925999667495,True,30,1
WZ-K-21K21S1,897,experiment,108,↑,down,↓,0.6729653000365943,False,30,1
WZ-K-21K21S1,898,experiment,76,↑,up,↑,0.516394899925217,True,30,1
WZ-K-21K21S1,899,experiment,67,↑,up,↑,0.753161899978295,True,30,1
WZ-K-21K21S1,900,experiment,54,↑,up,↑,0.6728616000618786,True,30,1
WZ-K-21K21S1,901,experiment,80,←,left,←,0.5309588999953121,True,30,1
WZ-K-21K21S1,902,experiment,103,↑,up,↑,0.5948956999927759,True,30,1
WZ-K-21K21S1,903,experiment,69,→,right,→,0.6840536999516189,True,30,1
WZ-K-21K21S1,904,experiment,95,↑,up,↑,0.4406879001762718,True,30,1
WZ-K-21K21S1,905,experiment,65,↑,up,↑,1.2490999000146985,True,30,1
WZ-K-21K21S1,906,experiment,75,→,right,→,0.7818720999639481,True,30,1
WZ-K-21K21S1,907,experiment,57,↑,up,↑,0.7713219001889229,True,30,1
WZ-K-21K21S1,908,experiment,88,→,right,→,0.5265178999397904,True,30,1
WZ-K-21K21S1,909,experiment,84,←,right,→,0.709125200053677,False,30,1
WZ-K-21K21S1,910,experiment,50,←,right,→,1.4799943000543863,False,30,1
WZ-K-21K21S1,911,experiment,81,↑,up,↑,0.48933190014213324,True,30,1
WZ-K-21K21S1,912,experiment,89,↓,down,↓,0.4558838000521064,True,30,1
WZ-K-21K21S1,913,experiment,62,→,down,↓,1.176649000030011,False,30,1
WZ-K-21K21S1,914,experiment,94,↓,down,↓,0.6657467000186443,True,30,1
WZ-K-21K21S1,915,experiment,82,↓,down,↓,0.4594662000890821,True,30,1
WZ-K-21K21S1,916,experiment,68,←,down,↓,0.7702372001949698,False,30,1
WZ-K-21K21S1,917,experiment,83,←,up,↑,0.935673100175336,False,30,1
WZ-K-21K21S1,918,experiment,90,↓,down,↓,0.6598555999808013,True,30,1
WZ-K-21K21S1,919,experiment,92,←,right,→,0.6989957999903709,False,30,1
WZ-K-21K21S1,920,experiment,58,→,right,→,0.5871635000221431,True,30,1
WZ-K-21K21S1,921,experiment,91,↑,up,↑,0.5092174999881536,True,30,1
WZ-K-21K21S1,922,experiment,105,↑,up,↑,0.7254292999859899,True,30,1
WZ-K-21K21S1,923,training,103,→,left,←,1.2010672001633793,False,30,0
WZ-K-21K21S1,924,training,108,←,left,←,0.5402253000065684,True,30,1
WZ-K-21K21S1,925,experiment,53,↑,up,↑,0.5246942001394928,True,30,1
WZ-K-21K21S1,926,experiment,64,↓,down,↓,0.45807019993662834,True,30,1
WZ-K-21K21S1,927,experiment,81,↓,down,↓,0.4525019000284374,True,30,1
WZ-K-21K21S1,928,experiment,76,←,left,←,0.5129227000288665,True,30,1
WZ-K-21K21S1,929,experiment,101,→,right,→,0.5941649999003857,True,30,1
WZ-K-21K21S1,930,experiment,74,→,left,←,0.5778142001945525,False,30,1
WZ-K-21K21S1,931,experiment,103,↓,down,↓,0.46419980004429817,True,30,1
WZ-K-21K21S1,932,experiment,70,→,down,↓,0.5658051001373678,False,30,1
WZ-K-21K21S1,933,experiment,98,↑,down,↓,0.6703304001130164,False,30,1
WZ-K-21K21S1,934,experiment,68,↓,down,↓,0.3925838000141084,True,30,1
WZ-K-21K21S1,935,experiment,71,→,right,→,0.4686437000054866,True,30,0
WZ-K-21K21S1,936,experiment,106,→,right,→,0.6624041001778096,True,30,1
WZ-K-21K21S1,937,experiment,78,↑,up,↑,0.4417399000376463,True,30,1
WZ-K-21K21S1,938,experiment,66,→,up,↑,0.5937714998144656,False,30,1
WZ-K-21K21S1,939,experiment,57,←,left,←,0.4706313998904079,True,30,1
WZ-K-21K21S1,940,experiment,62,↑,up,↑,0.44679509988054633,True,30,1
WZ-K-21K21S1,941,experiment,77,←,up,↑,0.7308251999784261,False,30,1
WZ-K-21K21S1,942,experiment,52,↑,up,↑,0.5317061999812722,True,30,1
WZ-K-21K21S1,943,experiment,90,←,up,↑,0.6643662001006305,False,30,1
WZ-K-21K21S1,944,experiment,75,→,right,→,0.6762840000446886,True,30,1
WZ-K-21K21S1,945,experiment,92,→,right,→,0.650146400090307,True,30,1
WZ-K-21K21S1,946,experiment,102,←,left,←,0.5580134999472648,True,30,1
WZ-K-21K21S1,947,experiment,107,→,right,→,0.4757077998947352,True,30,1
WZ-K-21K21S1,948,experiment,72,↓,left,←,1.248493299819529,False,30,1
WZ-K-21K21S1,949,experiment,54,↑,up,↑,0.7163480001036078,True,30,1
WZ-K-21K21S1,950,experiment,104,→,right,→,0.4685827000066638,True,30,1
WZ-K-21K21S1,951,experiment,61,↑,up,↑,0.45332759991288185,True,30,1
WZ-K-21K21S1,952,experiment,86,←,left,←,0.7024383000098169,True,30,1
WZ-K-21K21S1,953,experiment,94,↓,up,↑,0.6509203999303281,False,30,1
WZ-K-21K21S1,954,experiment,67,←,left,←,0.5625567999668419,True,30,1
WZ-K-21K21S1,955,experiment,97,↓,down,↓,0.4590984999667853,True,30,1
WZ-K-21K21S1,956,experiment,95,↓,down,↓,0.48884820006787777,True,30,1
WZ-K-21K21S1,957,experiment,105,←,left,←,0.6580020000692457,True,30,1
WZ-K-21K21S1,958,experiment,89,→,right,→,0.7456157999113202,True,30,1
WZ-K-21K21S1,959,experiment,96,←,left,←,0.5396072000730783,True,30,1
WZ-K-21K21S1,960,experiment,69,←,left,←,0.4708647998049855,True,30,1
WZ-K-21K21S1,961,experiment,80,↓,down,↓,1.288773899897933,True,30,1
WZ-K-21K21S1,962,experiment,82,↓,left,←,0.953399799996987,False,30,1
WZ-K-21K21S1,963,experiment,58,→,right,→,0.6318814000114799,True,30,1
WZ-K-21K21S1,964,experiment,63,→,right,→,0.4570787998382002,True,30,1
WZ-K-21K21S1,965,experiment,59,→,right,→,1.0270672000478953,True,30,1
WZ-K-21K21S1,966,experiment,108,↑,left,←,0.6622023000381887,False,30,1
WZ-K-21K21S1,967,experiment,51,↓,up,↑,0.7939319999422878,False,30,1
WZ-K-21K21S1,968,experiment,48,↑,up,↑,0.7140479001682252,True,30,1
WZ-K-21K21S1,969,experiment,93,↓,up,↑,0.7660515999887139,False,30,1
WZ-K-21K21S1,970,experiment,100,↑,up,↑,0.4457585997879505,True,30,1
WZ-K-21K21S1,971,experiment,84,↓,down,↓,0.4715877999551594,True,30,1
WZ-K-21K21S1,972,experiment,56,↑,up,↑,0.5056270000059158,True,30,1
WZ-K-21K21S1,973,experiment,91,↑,up,↑,0.6705978000536561,True,30,1
WZ-K-21K21S1,974,experiment,49,↑,up,↑,0.6111821001395583,True,30,1
WZ-K-21K21S1,975,experiment,60,↑,up,↑,0.4312020998913795,True,30,1
WZ-K-21K21S1,976,experiment,83,←,left,←,0.44969359994865954,True,30,1
WZ-K-21K21S1,977,experiment,65,→,left,←,0.625787999946624,False,30,1
WZ-K-21K21S1,978,experiment,88,←,left,←,0.475039399927482,True,30,1
WZ-K-21K21S1,979,experiment,99,←,left,←,0.5987539999186993,True,30,1
WZ-K-21K21S1,980,experiment,87,←,left,←,0.5375534000340849,True,30,1
WZ-K-21K21S1,981,experiment,50,←,right,→,0.6833450000267476,False,30,1
WZ-K-21K21S1,982,experiment,73,↓,down,↓,0.5592457999009639,True,30,1
WZ-K-21K21S1,983,experiment,55,↑,up,↑,0.5104942000471056,True,30,1
WZ-K-21K21S1,984,experiment,79,→,right,→,0.47947739996016026,True,30,1
WZ-K-21K21S1,985,experiment,85,←,left,←,0.49547100020572543,True,30,1
WZ-K-21K21S1,986,training,49,→,right,→,0.7041003000922501,True,30,0
WZ-K-21K21S1,987,training,88,←,left,←,0.4699800000526011,True,30,1
WZ-K-21K21S1,988,experiment,62,↓,up,↑,0.6544287998694927,False,30,1
WZ-K-21K21S1,989,experiment,66,↓,up,↑,0.7743859998881817,False,30,1
WZ-K-21K21S1,990,experiment,52,↑,up,↑,0.4536718998569995,True,30,1
WZ-K-21K21S1,991,experiment,101,↓,down,↓,0.5133502001408488,True,30,1
WZ-K-21K21S1,992,experiment,90,←,left,←,0.5586284000892192,True,30,1
WZ-K-21K21S1,993,experiment,60,↑,up,↑,0.8364945999346673,True,30,1
WZ-K-21K21S1,994,experiment,103,↓,left,←,0.5919269998557866,False,30,1
WZ-K-21K21S1,995,experiment,74,←,left,←,0.36122510000132024,True,30,1
WZ-K-21K21S1,996,experiment,86,↓,down,↓,0.5713603000622243,True,30,0
WZ-K-21K21S1,997,experiment,87,↓,left,←,0.359037599992007,False,30,1
WZ-K-21K21S1,998,experiment,57,→,right,→,0.47797070001251996,True,30,0
WZ-K-21K21S1,999,experiment,95,↑,up,↑,0.5946913999505341,True,30,1
WZ-K-21K21S1,1000,experiment,94,→,right,→,0.6592741999775171,True,30,1
WZ-K-21K21S1,1001,experiment,50,→,right,→,0.47201750008389354,True,30,1
WZ-K-21K21S1,1002,experiment,65,←,left,←,0.4711311000864953,True,30,1
WZ-K-21K21S1,1003,experiment,89,↓,up,↑,0.7501904999371618,False,30,1
WZ-K-21K21S1,1004,experiment,75,↑,up,↑,0.5988064999692142,True,30,1
WZ-K-21K21S1,1005,experiment,84,↑,up,↑,0.7305415000300854,True,30,1
WZ-K-21K21S1,1006,experiment,97,↑,up,↑,0.5727605000138283,True,30,1
WZ-K-21K21S1,1007,experiment,96,↑,up,↑,0.7735254999715835,True,30,1
WZ-K-21K21S1,1008,experiment,80,←,left,←,0.4279289001133293,True,30,1
WZ-K-21K21S1,1009,experiment,88,↑,left,←,0.8844649998936802,False,30,1
WZ-K-21K21S1,1010,experiment,81,↓,up,↑,0.5337777000386268,False,30,1
WZ-K-21K21S1,1011,experiment,56,→,left,←,0.725693300133571,False,30,1
WZ-K-21K21S1,1012,experiment,70,↑,up,↑,0.44900870020501316,True,30,1
WZ-K-21K21S1,1013,experiment,82,↑,up,↑,0.35921280016191304,True,30,1
WZ-K-21K21S1,1014,experiment,83,↑,up,↑,0.3590325000695884,True,30,0
WZ-K-21K21S1,1015,experiment,73,↑,up,↑,0.641693799989298,True,30,0
WZ-K-21K21S1,1016,experiment,69,↑,up,↑,0.38383179996162653,True,30,1
WZ-K-21K21S1,1017,experiment,107,↓,up,↑,0.5169823998585343,False,30,0
WZ-K-21K21S1,1018,experiment,106,↓,down,↓,0.4686865999829024,True,30,1
WZ-K-21K21S1,1019,experiment,102,↑,up,↑,0.5678493999876082,True,30,1
WZ-K-21K21S1,1020,experiment,71,←,left,←,0.42589569999836385,True,30,1
WZ-K-21K21S1,1021,experiment,64,→,left,←,0.6343054999597371,False,30,1
WZ-K-21K21S1,1022,experiment,78,↓,down,↓,0.47863299981690943,True,30,1
WZ-K-21K21S1,1023,experiment,99,↑,up,↑,0.634297100128606,True,30,1
WZ-K-21K21S1,1024,experiment,105,↓,down,↓,0.4617375999223441,True,30,1
WZ-K-21K21S1,1025,experiment,104,→,right,→,0.9523746999911964,True,30,1
WZ-K-21K21S1,1026,experiment,55,→,right,→,0.46397779998369515,True,30,1
WZ-K-21K21S1,1027,experiment,67,←,left,←,0.4947540999855846,True,30,1
WZ-K-21K21S1,1028,experiment,51,←,up,↑,1.1057196999900043,False,30,1
WZ-K-21K21S1,1029,experiment,53,↑,up,↑,0.8834120999090374,True,30,1
WZ-K-21K21S1,1030,experiment,85,←,left,←,0.49947159993462265,True,30,1
WZ-K-21K21S1,1031,experiment,72,↓,down,↓,1.0149592999368906,True,30,1
WZ-K-21K21S1,1032,experiment,63,←,left,←,0.4332113000564277,True,30,1
WZ-K-21K21S1,1033,experiment,61,↓,down,↓,0.5952520999126136,True,30,1
WZ-K-21K21S1,1034,experiment,108,←,right,→,0.5832488997839391,False,30,1
WZ-K-21K21S1,1035,experiment,92,↑,up,↑,0.6410180998500437,True,30,1
WZ-K-21K21S1,1036,experiment,76,→,right,→,0.7015639999881387,True,30,1
WZ-K-21K21S1,1037,experiment,93,←,up,↑,0.746664899867028,False,30,1
WZ-K-21K21S1,1038,experiment,98,→,right,→,0.5713172000832856,True,30,1
WZ-K-21K21S1,1039,experiment,91,↓,down,↓,0.6939091000240296,True,30,1
WZ-K-21K21S1,1040,experiment,79,↓,down,↓,0.6077982999850065,True,30,1
WZ-K-21K21S1,1041,experiment,58,↓,down,↓,0.755688700126484,True,30,1
WZ-K-21K21S1,1042,experiment,48,→,right,→,0.5731133001390845,True,30,1
WZ-K-21K21S1,1043,experiment,100,↓,down,↓,0.4602274999488145,True,30,1
WZ-K-21K21S1,1044,experiment,68,←,left,←,0.47519430005922914,True,30,1
WZ-K-21K21S1,1045,experiment,49,←,left,←,0.3765658000484109,True,30,1
WZ-K-21K21S1,1046,experiment,54,↓,down,↓,0.43789269984699786,True,30,0
WZ-K-21K21S1,1047,experiment,59,↑,up,↑,0.5280150999315083,True,30,1
WZ-K-21K21S1,1048,experiment,77,↑,up,↑,1.2250180998817086,True,30,1
WZ-K-21K21S1,1049,training,48,→,right,→,0.40098640020005405,True,30,0
WZ-K-21K21S1,1050,training,89,↑,up,↑,0.3928701998665929,True,30,0
WZ-K-21K21S1,1051,experiment,59,→,right,→,0.39216089993715286,True,30,0
WZ-K-21K21S1,1052,experiment,71,←,right,→,0.6280529000796378,False,30,0
WZ-K-21K21S1,1053,experiment,77,←,left,←,0.4335404001176357,True,30,1
WZ-K-21K21S1,1054,experiment,86,→,right,→,0.5148392000701278,True,30,1
WZ-K-21K21S1,1055,experiment,92,↑,up,↑,1.1830599000677466,True,30,1
WZ-K-21K21S1,1056,experiment,102,↑,up,↑,0.5577042000368237,True,30,1
WZ-K-21K21S1,1057,experiment,89,←,right,→,0.7290479999501258,False,30,1
WZ-K-21K21S1,1058,experiment,53,←,left,←,0.6427219999022782,True,30,1
WZ-K-21K21S1,1059,experiment,57,↑,up,↑,0.49340219981968403,True,30,1
WZ-K-21K21S1,1060,experiment,82,↑,up,↑,0.3921172998379916,True,30,1
WZ-K-21K21S1,1061,experiment,104,↑,up,↑,0.6352119999937713,True,30,0
WZ-K-21K21S1,1062,experiment,103,←,left,←,0.5112086001317948,True,30,1
WZ-K-21K21S1,1063,experiment,65,↓,up,↑,0.5488847000524402,False,30,1
WZ-K-21K21S1,1064,experiment,52,←,left,←,0.4223086000420153,True,30,1
WZ-K-21K21S1,1065,experiment,49,←,left,←,0.3922538000624627,True,30,0
WZ-K-21K21S1,1066,experiment,51,↓,up,↑,0.618804199853912,False,30,0
WZ-K-21K21S1,1067,experiment,50,←,left,←,0.4732186999171972,True,30,1
WZ-K-21K21S1,1068,experiment,81,←,left,←,0.6748538000974804,True,30,1
WZ-K-21K21S1,1069,experiment,95,↑,up,↑,0.5199277999345213,True,30,1
WZ-K-21K21S1,1070,experiment,73,↑,up,↑,0.6026252000592649,True,30,1
WZ-K-21K21S1,1071,experiment,99,↑,up,↑,0.44149380014277995,True,30,1
WZ-K-21K21S1,1072,experiment,87,←,left,←,0.41852220008149743,True,30,1
WZ-K-21K21S1,1073,experiment,96,←,left,←,0.6571212999988347,True,30,0
WZ-K-21K21S1,1074,experiment,84,→,right,→,0.6826725997962058,True,30,1
WZ-K-21K21S1,1075,experiment,68,←,left,←,0.47234199987724423,True,30,1
WZ-K-21K21S1,1076,experiment,58,↑,up,↑,0.8976102999877185,True,30,1
WZ-K-21K21S1,1077,experiment,54,↑,up,↑,0.5553452998865396,True,30,1
WZ-K-21K21S1,1078,experiment,78,↑,up,↑,0.42698349989950657,True,30,1
WZ-K-21K21S1,1079,experiment,100,↓,up,↑,0.5201312999706715,False,30,1
WZ-K-21K21S1,1080,experiment,76,→,right,→,0.40078230015933514,True,30,1
WZ-K-21K21S1,1081,experiment,66,↓,up,↑,0.7392975001130253,False,30,0
WZ-K-21K21S1,1082,experiment,63,←,left,←,1.0884438001085073,True,30,1
WZ-K-21K21S1,1083,experiment,108,→,right,→,0.5043154000304639,True,30,1
WZ-K-21K21S1,1084,experiment,79,↑,left,←,0.8173905001021922,False,30,1
WZ-K-21K21S1,1085,experiment,56,←,up,↑,0.6539660999551415,False,30,1
WZ-K-21K21S1,1086,experiment,80,↓,up,↑,0.624791800044477,False,30,1
WZ-K-21K21S1,1087,experiment,62,↓,down,↓,0.5068919998593628,True,30,1
WZ-K-21K21S1,1088,experiment,69,→,right,→,0.567294699838385,True,30,1
WZ-K-21K21S1,1089,experiment,91,↑,left,←,0.45010080002248287,False,30,1
WZ-K-21K21S1,1090,experiment,83,↑,up,↑,0.35077140014618635,True,30,1
WZ-K-21K21S1,1091,experiment,88,↓,up,↑,0.7121450998820364,False,30,0
WZ-K-21K21S1,1092,experiment,72,→,right,→,0.5396066999528557,True,30,1
WZ-K-21K21S1,1093,experiment,74,↓,up,↑,0.5970707000233233,False,30,1
WZ-K-21K21S1,1094,experiment,60,→,right,→,0.5129295000806451,True,30,1
WZ-K-21K21S1,1095,experiment,107,→,right,→,0.4644865000154823,True,30,1
WZ-K-21K21S1,1096,experiment,94,→,right,→,0.46991509990766644,True,30,1
WZ-K-21K21S1,1097,experiment,75,←,left,←,0.6660232001449913,True,30,1
WZ-K-21K21S1,1098,experiment,93,↑,up,↑,0.47220110008493066,True,30,1
WZ-K-21K21S1,1099,experiment,97,→,up,↑,0.700669800164178,False,30,1
WZ-K-21K21S1,1100,experiment,48,←,up,↑,0.6086230999790132,False,30,1
WZ-K-21K21S1,1101,experiment,101,←,right,→,0.574108799919486,False,30,1
WZ-K-21K21S1,1102,experiment,98,↓,down,↓,0.5342880000825971,True,30,1
WZ-K-21K21S1,1103,experiment,106,←,left,←,0.7172083000186831,True,30,1
WZ-K-21K21S1,1104,experiment,67,↑,up,↑,0.4740752000361681,True,30,1
WZ-K-21K21S1,1105,experiment,90,→,no_key,no_letter,-1.0,False,30,1
WZ-K-21K21S1,1106,experiment,55,→,left,←,0.7774290000088513,False,30,1
WZ-K-21K21S1,1107,experiment,61,→,right,→,0.46145189995877445,True,30,1
WZ-K-21K21S1,1108,experiment,70,←,right,→,0.6915621999651194,False,30,1
WZ-K-21K21S1,1109,experiment,64,↓,right,→,1.0423011998645961,False,30,1
WZ-K-21K21S1,1110,experiment,105,←,left,←,0.525601499946788,True,30,1
WZ-K-21K21S1,1111,experiment,85,←,left,←,0.7077779998071492,True,30,1
WZ-K-21K21S1,1112,training,83,→,right,→,0.4802015000022948,True,30,0
WZ-K-21K21S1,1113,training,84,↓,down,↓,0.6486885000485927,True,30,1
WZ-K-21K21S1,1114,experiment,82,→,left,←,0.7152059997897595,False,30,1
WZ-K-21K21S1,1115,experiment,66,→,right,→,0.6162459999322891,True,30,1
WZ-K-21K21S1,1116,experiment,91,↓,left,←,1.0088816001079977,False,30,1
WZ-K-21K21S1,1117,experiment,65,↑,up,↑,0.4426625999622047,True,30,1
WZ-K-21K21S1,1118,experiment,105,←,up,↑,0.5977098001167178,False,30,1
WZ-K-21K21S1,1119,experiment,62,→,left,←,0.5046576999593526,False,30,1
WZ-K-21K21S1,1120,experiment,76,→,left,←,0.6269580000080168,False,30,1
WZ-K-21K21S1,1121,experiment,74,↓,up,↑,0.5771298999898136,False,30,1
WZ-K-21K21S1,1122,experiment,49,→,right,→,0.4812577001284808,True,30,1
WZ-K-21K21S1,1123,experiment,70,↓,up,↑,0.638398899929598,False,30,1
WZ-K-21K21S1,1124,experiment,69,↓,down,↓,0.5495798999909312,True,30,1
WZ-K-21K21S1,1125,experiment,106,→,right,→,0.5320020001381636,True,30,1
WZ-K-21K21S1,1126,experiment,83,→,right,→,0.5948492998722941,True,30,1
WZ-K-21K21S1,1127,experiment,96,↑,up,↑,0.41961149987764657,True,30,1
WZ-K-21K21S1,1128,experiment,57,↓,up,↑,1.126516800140962,False,30,0
WZ-K-21K21S1,1129,experiment,107,↓,down,↓,0.5415882000233978,True,30,1
WZ-K-21K21S1,1130,experiment,75,←,left,←,0.6383844998199493,True,30,1
WZ-K-21K21S1,1131,experiment,85,↓,down,↓,0.5843566998373717,True,30,1
WZ-K-21K21S1,1132,experiment,67,←,left,←,0.5704532000236213,True,30,1
WZ-K-21K21S1,1133,experiment,61,↑,down,↓,0.5749701000750065,False,30,1
WZ-K-21K21S1,1134,experiment,78,↑,up,↑,0.4305473999120295,True,30,1
WZ-K-21K21S1,1135,experiment,54,↓,down,↓,0.5463563001248986,True,30,1
WZ-K-21K21S1,1136,experiment,93,→,right,→,0.4936171001754701,True,30,1
WZ-K-21K21S1,1137,experiment,50,→,right,→,0.8002021999564022,True,30,1
WZ-K-21K21S1,1138,experiment,51,←,left,←,0.687342599965632,True,30,1
WZ-K-21K21S1,1139,experiment,58,↑,up,↑,0.3758187999483198,True,30,1
WZ-K-21K21S1,1140,experiment,55,↑,up,↑,0.6063104001805186,True,30,0
WZ-K-21K21S1,1141,experiment,90,→,right,→,0.5197358001023531,True,30,1
WZ-K-21K21S1,1142,experiment,60,↑,up,↑,0.5427117999643087,True,30,1
WZ-K-21K21S1,1143,experiment,89,←,left,←,0.49955979990772903,True,30,1
WZ-K-21K21S1,1144,experiment,73,→,right,→,0.6146160999778658,True,30,1
WZ-K-21K21S1,1145,experiment,77,↓,down,↓,0.7004201000090688,True,30,1
WZ-K-21K21S1,1146,experiment,87,↑,up,↑,0.5308592999354005,True,30,1
WZ-K-21K21S1,1147,experiment,68,↓,up,↑,0.6544090998359025,False,30,1
WZ-K-21K21S1,1148,experiment,103,↓,down,↓,0.4738300999160856,True,30,1
WZ-K-21K21S1,1149,experiment,102,→,right,→,0.7324816999025643,True,30,1
WZ-K-21K21S1,1150,experiment,56,↑,up,↑,0.7721188000869006,True,30,1
WZ-K-21K21S1,1151,experiment,88,↑,down,↓,0.6237991000525653,False,30,1
WZ-K-21K21S1,1152,experiment,95,←,left,←,0.4310323998797685,True,30,1
WZ-K-21K21S1,1153,experiment,72,↓,down,↓,0.4770416999235749,True,30,1
WZ-K-21K21S1,1154,experiment,63,↑,up,↑,0.48494240012951195,True,30,1
WZ-K-21K21S1,1155,experiment,99,↓,down,↓,0.4722366000059992,True,30,1
WZ-K-21K21S1,1156,experiment,59,↑,up,↑,0.4572927001863718,True,30,1
WZ-K-21K21S1,1157,experiment,100,↑,up,↑,0.48536609997972846,True,30,1
WZ-K-21K21S1,1158,experiment,108,↑,up,↑,0.9418536999728531,True,30,1
WZ-K-21K21S1,1159,experiment,86,↓,down,↓,0.5470950999297202,True,30,1
WZ-K-21K21S1,1160,experiment,52,→,right,→,0.5714954000432044,True,30,1
WZ-K-21K21S1,1161,experiment,80,↓,down,↓,0.3171765999868512,True,30,1
WZ-K-21K21S1,1162,experiment,84,↓,down,↓,0.7846463001333177,True,30,0
WZ-K-21K21S1,1163,experiment,104,↓,down,↓,0.550008499994874,True,30,1
WZ-K-21K21S1,1164,experiment,92,←,left,←,0.48916810005903244,True,30,1
WZ-K-21K21S1,1165,experiment,64,↑,up,↑,0.7198063998948783,True,30,1
WZ-K-21K21S1,1166,experiment,101,↓,down,↓,0.5210187998600304,True,30,1
WZ-K-21K21S1,1167,experiment,98,↑,up,↑,0.5952063000295311,True,30,1
WZ-K-21K21S1,1168,experiment,81,↑,up,↑,0.8161617999430746,True,30,1
WZ-K-21K21S1,1169,experiment,97,→,right,→,0.5188727998174727,True,30,1
WZ-K-21K21S1,1170,experiment,71,↑,up,↑,0.43448649998754263,True,30,1
WZ-K-21K21S1,1171,experiment,79,↑,up,↑,0.42305559990927577,True,30,1
WZ-K-21K21S1,1172,experiment,48,→,right,→,0.597085100132972,True,30,1
WZ-K-21K21S1,1173,experiment,94,↑,up,↑,0.46975160017609596,True,30,1
WZ-K-21K21S1,1174,experiment,53,→,right,→,0.4808786998037249,True,30,1
WZ-K-21K21S1,1175,training,50,↓,left,←,1.0085068999323994,False,30,0
WZ-K-21K21S1,1176,training,71,↓,down,↓,0.5203468999825418,True,30,1
WZ-K-21K21S1,1177,experiment,86,→,left,←,0.6147356999572366,False,30,1
WZ-K-21K21S1,1178,experiment,100,↓,down,↓,0.6365002999082208,True,30,1
WZ-K-21K21S1,1179,experiment,63,↑,up,↑,0.5495615999680012,True,30,1
WZ-K-21K21S1,1180,experiment,98,↓,up,↑,0.8707211997825652,False,30,1
WZ-K-21K21S1,1181,experiment,107,←,left,←,0.5996252000331879,True,30,1
WZ-K-21K21S1,1182,experiment,99,←,left,←,0.6623575000558048,True,30,1
WZ-K-21K21S1,1183,experiment,68,→,right,→,0.460646599996835,True,30,1
WZ-K-21K21S1,1184,experiment,56,←,left,←,0.8317438000813127,True,30,1
WZ-K-21K21S1,1185,experiment,90,←,left,←,0.4239022999536246,True,30,1
WZ-K-21K21S1,1186,experiment,48,↓,down,↓,0.6628376999869943,True,30,0
WZ-K-21K21S1,1187,experiment,51,↓,down,↓,0.5712405999656767,True,30,1
WZ-K-21K21S1,1188,experiment,94,↑,right,→,0.27568969991989434,False,30,1
WZ-K-21K21S1,1189,experiment,83,↓,down,↓,0.565269700018689,True,30,0
WZ-K-21K21S1,1190,experiment,101,↓,down,↓,0.4009086999576539,True,30,1
WZ-K-21K21S1,1191,experiment,74,↑,down,↓,0.6354331998154521,False,30,0
WZ-K-21K21S1,1192,experiment,85,↓,down,↓,0.5336128000635654,True,30,1
WZ-K-21K21S1,1193,experiment,102,↓,down,↓,0.5177402999252081,True,30,1
WZ-K-21K21S1,1194,experiment,91,→,right,→,0.5866682999767363,True,30,1
WZ-K-21K21S1,1195,experiment,106,→,down,↓,0.67976039997302,False,30,1
WZ-K-21K21S1,1196,experiment,50,↓,down,↓,0.4832701999694109,True,30,1
WZ-K-21K21S1,1197,experiment,92,↑,up,↑,0.7211549999192357,True,30,1
WZ-K-21K21S1,1198,experiment,104,↑,up,↑,0.7772837001830339,True,30,1
WZ-K-21K21S1,1199,experiment,105,→,left,←,0.6708958998788148,False,30,1
WZ-K-21K21S1,1200,experiment,70,→,right,→,0.6606976999901235,True,30,1
WZ-K-21K21S1,1201,experiment,79,←,left,←,1.039706600131467,True,30,1
WZ-K-21K21S1,1202,experiment,82,↑,up,↑,0.5146204999182373,True,30,1
WZ-K-21K21S1,1203,experiment,52,↓,up,↑,0.7163796999957412,False,30,1
WZ-K-21K21S1,1204,experiment,80,↓,up,↑,0.7250012001022696,False,30,1
WZ-K-21K21S1,1205,experiment,87,↓,up,↑,0.658458299934864,False,30,1
WZ-K-21K21S1,1206,experiment,60,↑,up,↑,0.7158345999196172,True,30,1
WZ-K-21K21S1,1207,experiment,77,→,up,↑,0.9730502997990698,False,30,1
WZ-K-21K21S1,1208,experiment,89,↑,up,↑,0.7201498001813889,True,30,1
WZ-K-21K21S1,1209,experiment,58,←,left,←,0.4876835998147726,True,30,1
WZ-K-21K21S1,1210,experiment,73,↑,up,↑,0.7395113001111895,True,30,1
WZ-K-21K21S1,1211,experiment,78,→,right,→,0.7155248001217842,True,30,1
WZ-K-21K21S1,1212,experiment,72,↓,down,↓,0.6704879000317305,True,30,1
WZ-K-21K21S1,1213,experiment,103,↓,up,↑,0.7532581000123173,False,30,1
WZ-K-21K21S1,1214,experiment,66,←,left,←,0.44496989995241165,True,30,1
WZ-K-21K21S1,1215,experiment,57,↓,down,↓,0.44806369999423623,True,30,1
WZ-K-21K21S1,1216,experiment,54,←,left,←,0.7240351000800729,True,30,1
WZ-K-21K21S1,1217,experiment,88,↑,up,↑,0.3673643998336047,True,30,1
WZ-K-21K21S1,1218,experiment,76,←,left,←,0.4648605000693351,True,30,0
WZ-K-21K21S1,1219,experiment,84,↑,up,↑,0.3509561999235302,True,30,1
WZ-K-21K21S1,1220,experiment,81,↓,up,↑,0.6881639000494033,False,30,0
WZ-K-21K21S1,1221,experiment,59,→,right,→,0.5205965000204742,True,30,1
WZ-K-21K21S1,1222,experiment,64,→,right,→,0.42312729987315834,True,30,1
WZ-K-21K21S1,1223,experiment,108,←,left,←,0.4486877000890672,True,30,1
WZ-K-21K21S1,1224,experiment,71,→,right,→,0.48699250002391636,True,30,1
WZ-K-21K21S1,1225,experiment,49,←,left,←,0.4750731000676751,True,30,1
WZ-K-21K21S1,1226,experiment,75,→,right,→,0.4784462999086827,True,30,1
WZ-K-21K21S1,1227,experiment,96,→,right,→,0.4280137000605464,True,30,1
WZ-K-21K21S1,1228,experiment,93,↑,up,↑,0.4271959001198411,True,30,1
WZ-K-21K21S1,1229,experiment,62,↑,up,↑,0.6688573998399079,True,30,1
WZ-K-21K21S1,1230,experiment,67,→,left,←,0.787597700022161,False,30,1
WZ-K-21K21S1,1231,experiment,97,←,left,←,0.6432431000284851,True,30,1
WZ-K-21K21S1,1232,experiment,53,↑,up,↑,0.5274697998538613,True,30,1
WZ-K-21K21S1,1233,experiment,69,←,left,←,0.45150070008821785,True,30,1
WZ-K-21K21S1,1234,experiment,65,↑,up,↑,1.123280799947679,True,30,1
WZ-K-21K21S1,1235,experiment,61,↓,up,↑,0.6263988001737744,False,30,1
WZ-K-21K21S1,1236,experiment,95,→,left,←,0.9289271000307053,False,30,1
WZ-K-21K21S1,1237,experiment,55,↓,down,↓,0.5132844999898225,True,30,1
WZ-K-21K21S1,1238,training,62,→,right,→,0.5398633000440896,True,30,0
WZ-K-21K21S1,1239,training,55,→,right,→,0.6433876999653876,True,30,1
WZ-K-21K21S1,1240,experiment,106,↓,down,↓,0.5022171000018716,True,30,1
WZ-K-21K21S1,1241,experiment,101,↓,down,↓,0.5360448998399079,True,30,1
WZ-K-21K21S1,1242,experiment,86,→,left,←,0.4379193999338895,False,30,1
WZ-K-21K21S1,1243,experiment,83,↓,down,↓,0.42488900013267994,True,30,1
WZ-K-21K21S1,1244,experiment,75,→,right,→,0.5899469999130815,True,30,0
WZ-K-21K21S1,1245,experiment,76,↓,down,↓,0.4846906999591738,True,30,1
WZ-K-21K21S1,1246,experiment,92,↑,up,↑,0.46639800001867115,True,30,1
WZ-K-21K21S1,1247,experiment,91,→,right,→,0.3506276998668909,True,30,1
WZ-K-21K21S1,1248,experiment,85,→,right,→,0.670263399835676,True,30,0
WZ-K-21K21S1,1249,experiment,61,←,left,←,0.43934969999827445,True,30,1
WZ-K-21K21S1,1250,experiment,57,→,right,→,0.5220637999009341,True,30,1
WZ-K-21K21S1,1251,experiment,107,→,right,→,0.44118389999493957,True,30,1
WZ-K-21K21S1,1252,experiment,99,→,right,→,0.4306095000356436,True,30,1
WZ-K-21K21S1,1253,experiment,84,→,right,→,0.5525783998891711,True,30,1
WZ-K-21K21S1,1254,experiment,108,↑,up,↑,0.47031349991448224,True,30,1
WZ-K-21K21S1,1255,experiment,79,↓,up,↑,0.7051691999658942,False,30,1
WZ-K-21K21S1,1256,experiment,102,↓,down,↓,0.4192195001523942,True,30,1
WZ-K-21K21S1,1257,experiment,70,↓,down,↓,0.5061652001459152,True,30,0
WZ-K-21K21S1,1258,experiment,49,→,right,→,0.4374738000333309,True,30,1
WZ-K-21K21S1,1259,experiment,63,→,left,←,0.64637630013749,False,30,1
WZ-K-21K21S1,1260,experiment,94,←,left,←,0.5007541000377387,True,30,1
WZ-K-21K21S1,1261,experiment,71,→,right,→,0.6487262998707592,True,30,1
WZ-K-21K21S1,1262,experiment,54,↑,up,↑,0.42046459997072816,True,30,1
WZ-K-21K21S1,1263,experiment,77,→,right,→,0.37569879996590316,True,30,0
WZ-K-21K21S1,1264,experiment,93,←,left,←,0.6672455000225455,True,30,0
WZ-K-21K21S1,1265,experiment,51,←,right,→,0.623042399995029,False,30,1
WZ-K-21K21S1,1266,experiment,89,→,up,↑,0.3175235998351127,False,30,1
WZ-K-21K21S1,1267,experiment,50,→,up,↑,0.8824603999964893,False,30,0
WZ-K-21K21S1,1268,experiment,68,←,left,←,0.5042053998913616,True,30,1
WZ-K-21K21S1,1269,experiment,48,↑,up,↑,0.43051799992099404,True,30,1
WZ-K-21K21S1,1270,experiment,90,↑,up,↑,0.4006275001447648,True,30,1
WZ-K-21K21S1,1271,experiment,58,↑,up,↑,0.5202759001404047,True,30,0
WZ-K-21K21S1,1272,experiment,78,→,right,→,0.9613405000418425,True,30,1
WZ-K-21K21S1,1273,experiment,81,→,left,←,0.9203981999307871,False,30,1
WZ-K-21K21S1,1274,experiment,59,→,left,←,0.9111536999698728,False,30,1
WZ-K-21K21S1,1275,experiment,74,←,left,←,0.45798849989660084,True,30,1
WZ-K-21K21S1,1276,experiment,55,←,right,→,1.1970451998058707,False,30,1
WZ-K-21K21S1,1277,experiment,64,↑,up,↑,0.631161900004372,True,30,1
WZ-K-21K21S1,1278,experiment,100,←,left,←,0.3754435998853296,True,30,1
WZ-K-21K21S1,1279,experiment,65,→,right,→,0.4471301999874413,True,30,0
WZ-K-21K21S1,1280,experiment,72,↓,up,↑,0.6368762999773026,False,30,1
WZ-K-21K21S1,1281,experiment,66,→,right,→,0.42924509989097714,True,30,1
WZ-K-21K21S1,1282,experiment,87,↑,up,↑,0.44657599995844066,True,30,1
WZ-K-21K21S1,1283,experiment,88,↑,up,↑,0.5669666000176221,True,30,1
WZ-K-21K21S1,1284,experiment,73,↑,up,↑,0.4796941000968218,True,30,1
WZ-K-21K21S1,1285,experiment,62,↓,down,↓,0.49541420000605285,True,30,1
WZ-K-21K21S1,1286,experiment,56,↓,down,↓,0.6886656999122351,True,30,1
WZ-K-21K21S1,1287,experiment,103,→,right,→,0.44329550000838935,True,30,1
WZ-K-21K21S1,1288,experiment,80,←,right,→,0.7099796999245882,False,30,1
WZ-K-21K21S1,1289,experiment,105,←,left,←,0.4544324998278171,True,30,1
WZ-K-21K21S1,1290,experiment,95,→,left,←,0.5720367999747396,False,30,1
WZ-K-21K21S1,1291,experiment,82,↓,up,↑,0.6174424001947045,False,30,1
WZ-K-21K21S1,1292,experiment,98,→,right,→,0.487526300130412,True,30,1
WZ-K-21K21S1,1293,experiment,52,←,left,←,0.5385571999941021,True,30,1
WZ-K-21K21S1,1294,experiment,53,↓,down,↓,0.4753248000051826,True,30,1
WZ-K-21K21S1,1295,experiment,67,→,right,→,0.4175225000362843,True,30,1
WZ-K-21K21S1,1296,experiment,97,←,left,←,0.5998621000908315,True,30,0
WZ-K-21K21S1,1297,experiment,96,←,left,←,0.4008570001460612,True,30,1
WZ-K-21K21S1,1298,experiment,69,←,left,←,0.37570169987156987,True,30,0
WZ-K-21K21S1,1299,experiment,60,↓,up,↑,0.7564615998417139,False,30,0
WZ-K-21K21S1,1300,experiment,104,←,left,←,0.5390360001474619,True,30,1
WZ-K-21K21S1,1301,training,50,←,left,←,0.40062159998342395,True,30,0
WZ-K-21K21S1,1302,training,87,↓,up,↑,0.5715014000888914,False,30,0
WZ-K-21K21S1,1303,experiment,62,↑,left,←,0.3766422001644969,False,30,1
WZ-K-21K21S1,1304,experiment,81,←,up,↑,0.6211463999934494,False,30,0
WZ-K-21K21S1,1305,experiment,82,→,up,↑,0.5681125998962671,False,30,1
WZ-K-21K21S1,1306,experiment,104,↑,up,↑,0.5745905002113432,True,30,1
WZ-K-21K21S1,1307,experiment,101,→,right,→,0.46946930000558496,True,30,1
WZ-K-21K21S1,1308,experiment,105,↑,up,↑,0.5357411000877619,True,30,1
WZ-K-21K21S1,1309,experiment,75,↓,up,↑,0.5768195998389274,False,30,1
WZ-K-21K21S1,1310,experiment,76,→,up,↑,0.5364136998541653,False,30,1
WZ-K-21K21S1,1311,experiment,93,←,left,←,0.31750819995068014,True,30,1
WZ-K-21K21S1,1312,experiment,59,↓,up,↑,0.6109883000608534,False,30,0
WZ-K-21K21S1,1313,experiment,85,↑,up,↑,0.37538819992914796,True,30,1
WZ-K-21K21S1,1314,experiment,61,↓,up,↑,0.5622115000151098,False,30,0
WZ-K-21K21S1,1315,experiment,56,↓,up,↑,0.6568158001173288,False,30,1
WZ-K-21K21S1,1316,experiment,65,↑,up,↑,0.5365288001485169,True,30,1
WZ-K-21K21S1,1317,experiment,79,↓,up,↑,0.5446299999020994,False,30,1
WZ-K-21K21S1,1318,experiment,98,←,left,←,0.41918150009587407,True,30,1
WZ-K-21K21S1,1319,experiment,71,→,right,→,0.42510150000452995,True,30,0
WZ-K-21K21S1,1320,experiment,77,↓,down,↓,1.7741767999250442,True,30,0
WZ-K-21K21S1,1321,experiment,69,→,up,↑,0.7758440000470728,False,30,1
WZ-K-21K21S1,1322,experiment,53,→,right,→,0.6629906001035124,True,30,1
WZ-K-21K21S1,1323,experiment,92,↓,down,↓,0.5253196998964995,True,30,1
WZ-K-21K21S1,1324,experiment,55,←,left,←,0.4856227000709623,True,30,1
WZ-K-21K21S1,1325,experiment,74,↑,up,↑,0.5612606001086533,True,30,1
WZ-K-21K21S1,1326,experiment,52,←,left,←,0.6093781001400203,True,30,1
WZ-K-21K21S1,1327,experiment,66,→,left,←,0.747034200001508,False,30,1
WZ-K-21K21S1,1328,experiment,87,↑,up,↑,0.3924461000133306,True,30,1
WZ-K-21K21S1,1329,experiment,95,←,left,←,0.4634209999348968,True,30,0
WZ-K-21K21S1,1330,experiment,83,↑,up,↑,0.4489509998820722,True,30,1
WZ-K-21K21S1,1331,experiment,102,↑,up,↑,0.6767172999680042,True,30,1
WZ-K-21K21S1,1332,experiment,63,↑,up,↑,0.9724574000574648,True,30,1
WZ-K-21K21S1,1333,experiment,49,→,right,→,0.4288550999481231,True,30,1
WZ-K-21K21S1,1334,experiment,90,→,right,→,0.4378589999396354,True,30,1
WZ-K-21K21S1,1335,experiment,100,↑,up,↑,0.4582393001765013,True,30,1
WZ-K-21K21S1,1336,experiment,78,↑,up,↑,1.5414794001262635,True,30,1
WZ-K-21K21S1,1337,experiment,106,→,right,→,0.6522085000760853,True,30,1
WZ-K-21K21S1,1338,experiment,97,↑,up,↑,0.41810110001824796,True,30,1
WZ-K-21K21S1,1339,experiment,68,↑,up,↑,1.4735398998018354,True,30,0
WZ-K-21K21S1,1340,experiment,64,←,left,←,0.4573200000450015,True,30,1
WZ-K-21K21S1,1341,experiment,54,→,right,→,0.8364013999234885,True,30,1
WZ-K-21K21S1,1342,experiment,96,→,right,→,0.5229277000762522,True,30,1
WZ-K-21K21S1,1343,experiment,86,←,left,←,0.5129164000973105,True,30,1
WZ-K-21K21S1,1344,experiment,51,↓,down,↓,0.5709834999870509,True,30,1
WZ-K-21K21S1,1345,experiment,91,←,left,←,0.5254829998593777,True,30,1
WZ-K-21K21S1,1346,experiment,88,→,right,→,0.5387456000316888,True,30,1
WZ-K-21K21S1,1347,experiment,108,↑,up,↑,0.4328457999508828,True,30,1
WZ-K-21K21S1,1348,experiment,48,←,left,←,0.3766010000836104,True,30,1
WZ-K-21K21S1,1349,experiment,99,→,right,→,0.4005543999373913,True,30,0
WZ-K-21K21S1,1350,experiment,57,→,right,→,0.5228054998442531,True,30,0
WZ-K-21K21S1,1351,experiment,58,↓,down,↓,0.5540901999920607,True,30,1
WZ-K-21K21S1,1352,experiment,107,↓,down,↓,0.383973800111562,True,30,1
WZ-K-21K21S1,1353,experiment,103,←,left,←,0.5016750001814216,True,30,0
WZ-K-21K21S1,1354,experiment,67,↑,up,↑,0.6113225999288261,True,30,1
WZ-K-21K21S1,1355,experiment,60,↑,up,↑,0.5190167999826372,True,30,1
WZ-K-21K21S1,1356,experiment,94,→,down,↓,0.754454200156033,False,30,1
WZ-K-21K21S1,1357,experiment,89,→,right,→,0.6065742000937462,True,30,1
WZ-K-21K21S1,1358,experiment,72,↑,up,↑,0.5899656000547111,True,30,1
WZ-K-21K21S1,1359,experiment,80,↓,down,↓,0.4592169001698494,True,30,1
WZ-K-21K21S1,1360,experiment,70,←,left,←,0.48933629994280636,True,30,1
WZ-K-21K21S1,1361,experiment,50,↑,up,↑,0.5569082000292838,True,30,1
WZ-K-21K21S1,1362,experiment,73,→,right,→,1.3897001000586897,True,30,1
WZ-K-21K21S1,1363,experiment,84,→,left,←,0.6254722001031041,False,30,1
WZ-K-21K21S1,1364,training,50,↑,up,↑,0.3755740998312831,True,30,0
WZ-K-21K21S1,1365,training,61,↓,down,↓,0.5984496998135,True,30,0
WZ-K-21K21S1,1366,experiment,53,↑,up,↑,0.3669760001357645,True,30,1
WZ-K-21K21S1,1367,experiment,103,→,right,→,0.4351333000231534,True,30,0
WZ-K-21K21S1,1368,experiment,79,↑,up,↑,0.31790110003203154,True,30,1
WZ-K-21K21S1,1369,experiment,66,→,right,→,0.5156205000821501,True,30,0
WZ-K-21K21S1,1370,experiment,99,↑,up,↑,0.5176079000812024,True,30,1
WZ-K-21K21S1,1371,experiment,69,↑,up,↑,0.36798830004408956,True,30,1
WZ-K-21K21S1,1372,experiment,100,→,right,→,0.6491050999611616,True,30,0
WZ-K-21K21S1,1373,experiment,62,←,left,←,0.37571480008773506,True,30,1
WZ-K-21K21S1,1374,experiment,77,↑,up,↑,0.5130527999717742,True,30,0
WZ-K-21K21S1,1375,experiment,52,→,right,→,0.3668736000545323,True,30,1
WZ-K-21K21S1,1376,experiment,96,↑,up,↑,0.40082899993285537,True,30,0
WZ-K-21K21S1,1377,experiment,78,↑,up,↑,0.39357950002886355,True,30,0
WZ-K-21K21S1,1378,experiment,107,→,left,←,0.5645231001544744,False,30,0
WZ-K-21K21S1,1379,experiment,60,↓,up,↑,0.5456222000066191,False,30,1
WZ-K-21K21S1,1380,experiment,82,←,left,←,0.7439904001075774,True,30,1
WZ-K-21K21S1,1381,experiment,55,↑,up,↑,0.45591869996860623,True,30,1
WZ-K-21K21S1,1382,experiment,54,↓,down,↓,0.5554840001277626,True,30,1
WZ-K-21K21S1,1383,experiment,89,→,left,←,0.566965099889785,False,30,1
WZ-K-21K21S1,1384,experiment,84,←,up,↑,0.7960828000213951,False,30,1
WZ-K-21K21S1,1385,experiment,98,←,left,←,0.6356140999123454,True,30,1
WZ-K-21K21S1,1386,experiment,49,←,left,←,0.43378280010074377,True,30,1
WZ-K-21K21S1,1387,experiment,85,↑,up,↑,0.6517129999119788,True,30,1
WZ-K-21K21S1,1388,experiment,71,↓,down,↓,0.7375791999511421,True,30,1
WZ-K-21K21S1,1389,experiment,93,↓,down,↓,0.39218010008335114,True,30,1
WZ-K-21K21S1,1390,experiment,90,→,down,↓,0.6867006001994014,False,30,0
WZ-K-21K21S1,1391,experiment,92,←,left,←,0.49244670011103153,True,30,1
WZ-K-21K21S1,1392,experiment,75,↑,up,↑,0.47147969994693995,True,30,1
WZ-K-21K21S1,1393,experiment,88,↑,up,↑,0.5751855999697,True,30,1
WZ-K-21K21S1,1394,experiment,81,←,left,←,1.2610665999818593,True,30,1
WZ-K-21K21S1,1395,experiment,105,↓,down,↓,0.431713999947533,True,30,1
WZ-K-21K21S1,1396,experiment,59,←,left,←,1.6500999999698251,True,30,1
WZ-K-21K21S1,1397,experiment,50,↑,left,←,0.6951133999973536,False,30,1
WZ-K-21K21S1,1398,experiment,104,←,left,←,0.42526570009067655,True,30,1
WZ-K-21K21S1,1399,experiment,51,↑,up,↑,0.4699105001054704,True,30,1
WZ-K-21K21S1,1400,experiment,102,↑,up,↑,0.4009702999610454,True,30,1
WZ-K-21K21S1,1401,experiment,56,↑,up,↑,0.4455049999523908,True,30,0
WZ-K-21K21S1,1402,experiment,95,↓,up,↑,0.5160964999813586,False,30,1
WZ-K-21K21S1,1403,experiment,101,↑,up,↑,0.6934851000551134,True,30,1
WZ-K-21K21S1,1404,experiment,68,→,left,←,0.6026087000500411,False,30,1
WZ-K-21K21S1,1405,experiment,91,↑,up,↑,0.4603193001821637,True,30,1
