PART_ID,Trial,Stimuli,Version,Training,FIXTIME,TIME,Correct,SOA,Reversal,Reversal_count,Latency,stim_name,Rating
Y2-S2-160K20,1,SQUARES,First_showed,training,45,15,True,8,-,-,0.46764689998235554,right,-
Y2-S2-160K20,2,SQUARES,First_showed,training,45,15,True,8,-,-,0.26763280003797263,right,-
Y2-S2-160K20,3,SQUARES,First_showed,training,45,15,True,8,-,-,0.20065680000698194,right,-
Y2-S2-160K20,4,SQUARES,First_showed,training,45,15,True,8,-,-,0.2674076999537647,left,-
Y2-S2-160K20,5,SQUARES,First_showed,training,45,15,True,8,-,-,0.45087370002875105,right,-
Y2-S2-160K20,6,SQUARES,First_showed,training,45,15,True,8,-,-,0.33435299998382106,left,-
Y2-S2-160K20,7,SQUARES,First_showed,training,45,15,True,8,-,-,0.25073849997716025,left,-
Y2-S2-160K20,8,SQUARES,First_showed,training,45,15,True,8,-,-,0.16739689995301887,left,-
Y2-S2-160K20,9,SQUARES,First_showed,training,45,15,True,8,-,-,0.18424400000367314,left,-
Y2-S2-160K20,10,SQUARES,First_showed,training,45,15,True,8,-,-,0.13551980000920594,left,-
Y2-S2-160K20,11,SQUARES,First_showed,training,45,15,True,3,-,-,0.017455099965445697,right,-
Y2-S2-160K20,12,SQUARES,First_showed,training,45,15,True,3,-,-,0.2181224999949336,left,-
Y2-S2-160K20,13,SQUARES,First_showed,training,45,15,True,3,-,-,0.18404480000026524,right,-
Y2-S2-160K20,14,SQUARES,First_showed,training,45,15,True,3,-,-,0.10076950001530349,right,-
Y2-S2-160K20,15,SQUARES,First_showed,training,45,15,True,3,-,-,0.2340418000239879,right,-
Y2-S2-160K20,16,SQUARES,First_showed,training,45,15,True,3,-,-,0.13455470005283132,left,-
Y2-S2-160K20,17,SQUARES,First_showed,training,45,15,True,3,-,-,0.2172730999882333,left,-
Y2-S2-160K20,18,SQUARES,First_showed,training,45,15,True,3,-,-,0.26757399999769405,left,-
Y2-S2-160K20,19,SQUARES,First_showed,training,45,15,True,3,-,-,0.1007804999826476,left,-
Y2-S2-160K20,20,SQUARES,First_showed,training,45,15,True,3,-,-,0.45100010000169277,right,-
Y2-S2-160K20,1,SQUARES,First_showed,exp,45,15,True,3,0,0,0.26788030000170693,left,-
Y2-S2-160K20,2,SQUARES,First_showed,exp,45,15,True,3,0,-,0.2008361999760382,right,-
Y2-S2-160K20,3,SQUARES,First_showed,exp,45,15,True,3,0,-,0.30073739995714277,right,-
Y2-S2-160K20,4,SQUARES,First_showed,exp,45,15,True,2,0,-,0.3513636999996379,right,-
Y2-S2-160K20,5,SQUARES,First_showed,exp,45,15,True,2,0,-,0.4841618000064045,right,-
Y2-S2-160K20,6,SQUARES,First_showed,exp,45,15,True,2,0,-,0.266957999963779,left,-
Y2-S2-160K20,7,SQUARES,First_showed,exp,45,15,True,1,0,-,0.7506199000054039,left,-
Y2-S2-160K20,8,SQUARES,First_showed,exp,45,15,True,1,0,-,1.3670407999888994,left,-
Y2-S2-160K20,9,SQUARES,First_showed,exp,45,15,False,1,1,1,2.0175101999775507,left,-
Y2-S2-160K20,10,SQUARES,First_showed,exp,45,15,True,2,0,-,0.7174883999978192,left,-
Y2-S2-160K20,11,SQUARES,First_showed,exp,45,15,True,2,0,-,0.38430569996125996,left,-
Y2-S2-160K20,12,SQUARES,First_showed,exp,45,15,True,2,1,2,0.4507259000092745,right,-
Y2-S2-160K20,13,SQUARES,First_showed,exp,45,15,True,1,0,-,0.5344158000079915,left,-
Y2-S2-160K20,14,SQUARES,First_showed,exp,45,15,True,1,0,-,0.46750049997353926,left,-
Y2-S2-160K20,15,SQUARES,First_showed,exp,45,15,True,1,0,-,0.6343628999893554,left,-
Y2-S2-160K20,16,SQUARES,First_showed,exp,45,15,False,0,1,3,0.7345985000138171,right,-
Y2-S2-160K20,17,SQUARES,First_showed,exp,45,15,True,1,0,-,1.534351099980995,right,-
Y2-S2-160K20,18,SQUARES,First_showed,exp,45,15,True,1,0,-,1.0509727000026032,left,-
Y2-S2-160K20,19,SQUARES,First_showed,exp,45,15,True,1,1,4,0.7011249999632128,right,-
Y2-S2-160K20,20,SQUARES,First_showed,exp,45,15,False,0,1,5,0.8006292000063695,left,-
Y2-S2-160K20,21,SQUARES,First_showed,exp,45,15,True,1,0,-,2.884214800025802,right,-
Y2-S2-160K20,22,SQUARES,First_showed,exp,45,15,True,1,0,-,0.38444540003547445,right,-
Y2-S2-160K20,23,SQUARES,First_showed,exp,45,15,False,1,0,-,0.7674671999993734,right,-
Y2-S2-160K20,24,SQUARES,First_showed,exp,45,15,False,2,0,-,0.2509758000378497,right,-
Y2-S2-160K20,25,SQUARES,First_showed,exp,45,15,True,3,0,-,0.48431549995439127,left,-
Y2-S2-160K20,26,SQUARES,First_showed,exp,45,15,True,3,0,-,0.3343756000394933,right,-
Y2-S2-160K20,27,SQUARES,First_showed,exp,45,15,True,3,1,6,0.5342250000103377,left,-
Y2-S2-160K20,28,SQUARES,First_showed,exp,45,15,True,2,0,-,0.6173880000133067,left,-
Y2-S2-160K20,29,SQUARES,First_showed,exp,45,15,True,2,0,-,1.5173649999778718,right,-
Y2-S2-160K20,30,SQUARES,First_showed,exp,45,15,True,2,0,-,1.0508399000391364,right,-
Y2-S2-160K20,31,SQUARES,First_showed,exp,45,15,True,1,0,-,1.6669396000215784,right,-
Y2-S2-160K20,32,SQUARES,First_showed,exp,45,15,True,1,0,-,0.4173202000092715,left,-
Y2-S2-160K20,33,SQUARES,First_showed,exp,45,15,False,1,1,7,0.8010298000299372,right,-
Y2-S2-160K20,34,SQUARES,First_showed,exp,45,15,True,2,0,-,0.401108399964869,right,-
Y2-S2-160K20,35,SQUARES,First_showed,exp,45,15,True,2,0,-,0.4340475000208244,right,-
Y2-S2-160K20,36,SQUARES,First_showed,exp,45,15,False,2,0,-,0.6179012999637052,left,-
Y2-S2-160K20,37,SQUARES,First_showed,exp,45,15,True,3,0,-,0.5508290000143461,right,-
Y2-S2-160K20,38,SQUARES,First_showed,exp,45,15,True,3,0,-,0.6009484000387602,right,-
Y2-S2-160K20,39,SQUARES,First_showed,exp,45,15,True,3,1,8,0.6011621000361629,right,-
Y2-S2-160K20,40,SQUARES,First_showed,exp,45,15,True,2,0,-,0.3510198000003584,left,-
Y2-S2-160K20,41,SQUARES,First_showed,exp,45,15,True,2,0,-,0.7174014000338502,left,-
Y2-S2-160K20,42,SQUARES,First_showed,exp,45,15,True,2,0,-,0.4342208000016399,right,-
Y2-S2-160K20,43,SQUARES,First_showed,exp,45,15,True,1,0,-,0.4176386000472121,left,-
Y2-S2-160K20,44,SQUARES,First_showed,exp,45,15,False,1,1,9,1.8677490000263788,right,-
Y2-S2-160K20,45,SQUARES,First_showed,exp,45,15,True,2,0,-,0.8176360999932513,right,-
Y2-S2-160K20,46,SQUARES,First_showed,exp,45,15,True,2,0,-,0.5006532999686897,left,-
Y2-S2-160K20,47,SQUARES,First_showed,exp,45,15,True,2,1,10,1.0010871999547817,right,-
Y2-S2-160K20,48,SQUARES,First_showed,exp,45,15,True,1,0,-,2.80113400000846,left,-
Y2-S2-160K20,49,SQUARES,First_showed,exp,45,15,False,1,1,11,1.5834676999947987,right,-
Y2-S2-160K20,50,SQUARES,First_showed,exp,45,15,True,2,0,-,0.43439839995699003,right,-
Y2-S2-160K20,51,SQUARES,First_showed,exp,45,15,True,2,0,-,0.38461850001476705,right,-
Y2-S2-160K20,52,SQUARES,First_showed,exp,45,15,True,2,1,12,0.4509364999830723,right,-
Y2-S2-160K20,53,SQUARES,First_showed,exp,45,15,True,1,0,-,0.5177775000338443,right,-
Y2-S2-160K20,54,SQUARES,First_showed,exp,45,15,True,1,0,-,0.4003024999983609,right,-
Y2-S2-160K20,55,SQUARES,First_showed,exp,45,15,True,1,0,-,0.4342056999448687,left,-
Y2-S2-160K20,56,SQUARES,First_showed,exp,45,15,True,0,0,-,0.5675646000308916,left,-
Y2-S2-160K20,57,SQUARES,First_showed,exp,45,15,True,0,0,-,0.7671033999649808,right,-
Y2-S2-160K20,58,SQUARES,First_showed,exp,45,15,False,0,1,13,0.6505746999755502,left,-
Y2-S2-160K20,59,SQUARES,First_showed,exp,45,15,True,1,0,-,0.6340165000292473,left,-
Y2-S2-160K20,60,SQUARES,First_showed,exp,45,15,True,1,0,-,0.6675249999971129,right,-
Y2-S2-160K20,61,SQUARES,First_showed,exp,45,15,True,1,1,14,0.3507141000009142,right,-
Y2-S2-160K20,62,SQUARES,First_showed,exp,45,15,False,0,1,15,0.4003104000003077,left,-
Y2-S2-160K20,63,SQUARES,First_showed,exp,45,15,True,1,0,-,0.6504004999878816,right,-
Y2-S2-160K20,64,SQUARES,First_showed,exp,45,15,True,1,0,-,0.5006924999761395,right,-
Y2-S2-160K20,65,SQUARES,First_showed,exp,45,15,True,1,1,16,0.6671574999927543,right,-
Y2-S2-160K20,1,CIRCLES,First_hidden,training,45,15,True,8,-,-,0.6838424000306986,right,-
Y2-S2-160K20,2,CIRCLES,First_hidden,training,45,15,True,8,-,-,0.45054390002042055,right,-
Y2-S2-160K20,3,CIRCLES,First_hidden,training,45,15,True,8,-,-,0.2337740000220947,right,-
Y2-S2-160K20,4,CIRCLES,First_hidden,training,45,15,True,8,-,-,0.4509029000182636,right,-
Y2-S2-160K20,5,CIRCLES,First_hidden,training,45,15,True,8,-,-,0.5009535999852233,left,-
Y2-S2-160K20,6,CIRCLES,First_hidden,training,45,15,True,8,-,-,0.5503371999948286,right,-
Y2-S2-160K20,7,CIRCLES,First_hidden,training,45,15,True,8,-,-,0.3336286999983713,left,-
Y2-S2-160K20,8,CIRCLES,First_hidden,training,45,15,True,8,-,-,0.23432839999441057,right,-
Y2-S2-160K20,9,CIRCLES,First_hidden,training,45,15,True,8,-,-,0.21694259997457266,left,-
Y2-S2-160K20,10,CIRCLES,First_hidden,training,45,15,True,8,-,-,0.46702639997238293,right,-
Y2-S2-160K20,11,CIRCLES,First_hidden,training,45,15,True,3,-,-,0.5843063999782316,left,-
Y2-S2-160K20,12,CIRCLES,First_hidden,training,45,15,True,3,-,-,0.3839217000058852,right,-
Y2-S2-160K20,13,CIRCLES,First_hidden,training,45,15,True,3,-,-,0.48386589996516705,left,-
Y2-S2-160K20,14,CIRCLES,First_hidden,training,45,15,True,3,-,-,0.4342422999907285,right,-
Y2-S2-160K20,15,CIRCLES,First_hidden,training,45,15,True,3,-,-,0.2840756999794394,left,-
Y2-S2-160K20,16,CIRCLES,First_hidden,training,45,15,True,3,-,-,0.5341035000164993,left,-
Y2-S2-160K20,17,CIRCLES,First_hidden,training,45,15,True,3,-,-,0.4839466999983415,left,-
Y2-S2-160K20,18,CIRCLES,First_hidden,training,45,15,True,3,-,-,0.2842848000000231,right,-
Y2-S2-160K20,19,CIRCLES,First_hidden,training,45,15,True,3,-,-,0.36681710003176704,left,-
Y2-S2-160K20,20,CIRCLES,First_hidden,training,45,15,True,3,-,-,0.2841007999959402,right,-
Y2-S2-160K20,1,CIRCLES,First_hidden,exp,45,15,True,3,0,0,0.5345518999965861,right,-
Y2-S2-160K20,2,CIRCLES,First_hidden,exp,45,15,True,3,0,-,0.41767369996523485,left,-
Y2-S2-160K20,3,CIRCLES,First_hidden,exp,45,15,True,3,0,-,0.48410990001866594,left,-
Y2-S2-160K20,4,CIRCLES,First_hidden,exp,45,15,True,2,0,-,0.633672000025399,left,-
Y2-S2-160K20,5,CIRCLES,First_hidden,exp,45,15,True,2,0,-,0.5006564999930561,right,-
Y2-S2-160K20,6,CIRCLES,First_hidden,exp,45,15,True,2,0,-,0.617520899977535,left,-
Y2-S2-160K20,7,CIRCLES,First_hidden,exp,45,15,True,1,0,-,0.6012502000085078,right,-
Y2-S2-160K20,8,CIRCLES,First_hidden,exp,45,15,True,1,0,-,0.6510046999901533,left,-
Y2-S2-160K20,9,CIRCLES,First_hidden,exp,45,15,True,1,0,-,0.5840901000192389,right,-
Y2-S2-160K20,10,CIRCLES,First_hidden,exp,45,15,True,0,0,-,0.8510678000166081,right,-
Y2-S2-160K20,11,CIRCLES,First_hidden,exp,45,15,True,0,0,-,1.9345368000213057,left,-
Y2-S2-160K20,12,CIRCLES,First_hidden,exp,45,15,False,0,1,1,0.6838787000160664,right,-
Y2-S2-160K20,13,CIRCLES,First_hidden,exp,45,15,True,1,0,-,0.6843574999948032,left,-
Y2-S2-160K20,14,CIRCLES,First_hidden,exp,45,15,True,1,0,-,0.6009814999997616,right,-
Y2-S2-160K20,15,CIRCLES,First_hidden,exp,45,15,True,1,1,2,0.6508880999754183,right,-
Y2-S2-160K20,16,CIRCLES,First_hidden,exp,45,15,True,0,0,-,0.950910700019449,right,-
Y2-S2-160K20,17,CIRCLES,First_hidden,exp,45,15,True,0,0,-,0.8176445999997668,right,-
Y2-S2-160K20,18,CIRCLES,First_hidden,exp,45,15,False,0,1,3,0.6840637999703176,left,-
Y2-S2-160K20,19,CIRCLES,First_hidden,exp,45,15,True,1,0,-,0.5841569000040181,left,-
Y2-S2-160K20,20,CIRCLES,First_hidden,exp,45,15,False,1,0,-,0.8506794999702834,right,-
Y2-S2-160K20,21,CIRCLES,First_hidden,exp,45,15,True,2,0,-,0.6003084999974817,right,-
Y2-S2-160K20,22,CIRCLES,First_hidden,exp,45,15,True,2,0,-,0.36747090000426397,right,-
Y2-S2-160K20,23,CIRCLES,First_hidden,exp,45,15,True,2,1,4,0.7173766999621876,right,-
Y2-S2-160K20,24,CIRCLES,First_hidden,exp,45,15,True,1,0,-,0.5505554000264965,right,-
Y2-S2-160K20,25,CIRCLES,First_hidden,exp,45,15,False,1,1,5,0.8346698000095785,right,-
Y2-S2-160K20,26,CIRCLES,First_hidden,exp,45,15,True,2,0,-,0.5343568999669515,left,-
Y2-S2-160K20,27,CIRCLES,First_hidden,exp,45,15,True,2,0,-,0.3502528000390157,left,-
Y2-S2-160K20,28,CIRCLES,First_hidden,exp,45,15,True,2,1,6,0.30071189999580383,left,-
Y2-S2-160K20,29,CIRCLES,First_hidden,exp,45,15,True,1,0,-,0.5011029000161216,right,-
Y2-S2-160K20,30,CIRCLES,First_hidden,exp,45,15,True,1,0,-,0.6172943999990821,right,-
Y2-S2-160K20,31,CIRCLES,First_hidden,exp,45,15,True,1,0,-,1.0505534000112675,right,-
Y2-S2-160K20,32,CIRCLES,First_hidden,exp,45,15,True,0,0,-,0.6008022000314668,left,-
Y2-S2-160K20,33,CIRCLES,First_hidden,exp,45,15,True,0,0,-,0.6177580000367016,left,-
Y2-S2-160K20,34,CIRCLES,First_hidden,exp,45,15,True,0,0,-,0.7676949999877252,right,-
Y2-S2-160K20,35,CIRCLES,First_hidden,exp,45,15,True,-1,0,-,0.5176299000158906,right,-
Y2-S2-160K20,36,CIRCLES,First_hidden,exp,45,15,True,-1,0,-,0.5511834999779239,left,-
Y2-S2-160K20,37,CIRCLES,First_hidden,exp,45,15,False,-1,1,7,0.38414300000295043,right,-
Y2-S2-160K20,38,CIRCLES,First_hidden,exp,45,15,False,0,0,-,0.38459279999369755,right,-
Y2-S2-160K20,39,CIRCLES,First_hidden,exp,45,15,True,1,0,-,0.38420990004669875,left,-
Y2-S2-160K20,40,CIRCLES,First_hidden,exp,45,15,False,1,0,-,0.23410290002357215,left,-
Y2-S2-160K20,41,CIRCLES,First_hidden,exp,45,15,True,2,0,-,0.3340928999823518,right,-
Y2-S2-160K20,42,CIRCLES,First_hidden,exp,45,15,True,2,0,-,0.4507082999916747,right,-
Y2-S2-160K20,43,CIRCLES,First_hidden,exp,45,15,True,2,1,8,0.4509798999642953,right,-
Y2-S2-160K20,44,CIRCLES,First_hidden,exp,45,15,True,1,0,-,0.6842933000298217,right,-
Y2-S2-160K20,45,CIRCLES,First_hidden,exp,45,15,True,1,0,-,0.5011310999980196,right,-
Y2-S2-160K20,46,CIRCLES,First_hidden,exp,45,15,True,1,0,-,0.5341682000434957,right,-
Y2-S2-160K20,47,CIRCLES,First_hidden,exp,45,15,False,0,1,9,0.6510959999868646,right,-
Y2-S2-160K20,48,CIRCLES,First_hidden,exp,45,15,True,1,0,-,0.3843298999709077,left,-
Y2-S2-160K20,49,CIRCLES,First_hidden,exp,45,15,False,1,0,-,0.517467099998612,right,-
Y2-S2-160K20,50,CIRCLES,First_hidden,exp,45,15,True,2,0,-,0.5842060000286438,right,-
Y2-S2-160K20,51,CIRCLES,First_hidden,exp,45,15,True,2,0,-,0.3506809000391513,right,-
Y2-S2-160K20,52,CIRCLES,First_hidden,exp,45,15,True,2,1,10,0.43433650000952184,right,-
Y2-S2-160K20,53,CIRCLES,First_hidden,exp,45,15,False,1,1,11,0.8845936999423429,right,-
Y2-S2-160K20,54,CIRCLES,First_hidden,exp,45,15,True,2,0,-,0.6348207999835722,right,-
Y2-S2-160K20,55,CIRCLES,First_hidden,exp,45,15,True,2,0,-,0.5842653000145219,right,-
Y2-S2-160K20,56,CIRCLES,First_hidden,exp,45,15,True,2,1,12,0.5338731999509037,right,-
Y2-S2-160K20,57,CIRCLES,First_hidden,exp,45,15,True,1,0,-,0.6009347999934107,left,-
Y2-S2-160K20,58,CIRCLES,First_hidden,exp,45,15,True,1,0,-,0.7676127000013366,right,-
Y2-S2-160K20,59,CIRCLES,First_hidden,exp,45,15,True,1,0,-,0.5510016999905929,left,-
Y2-S2-160K20,60,CIRCLES,First_hidden,exp,45,15,True,0,0,-,0.7009765999973752,left,-
Y2-S2-160K20,61,CIRCLES,First_hidden,exp,45,15,False,0,1,13,0.8337912000133656,right,-
Y2-S2-160K20,62,CIRCLES,First_hidden,exp,45,15,True,1,0,-,0.3850566999753937,right,-
Y2-S2-160K20,63,CIRCLES,First_hidden,exp,45,15,True,1,0,-,0.6841428999905474,left,-
Y2-S2-160K20,64,CIRCLES,First_hidden,exp,45,15,True,1,1,14,0.4173848999780603,right,-
Y2-S2-160K20,65,CIRCLES,First_hidden,exp,45,15,False,0,1,15,0.03410539997275919,right,-
Y2-S2-160K20,66,CIRCLES,First_hidden,exp,45,15,True,1,0,-,0.30058669997379184,right,-
Y2-S2-160K20,67,CIRCLES,First_hidden,exp,45,15,True,1,0,-,0.5676765999523923,left,-
Y2-S2-160K20,68,CIRCLES,First_hidden,exp,45,15,True,1,1,16,0.5681005999795161,left,-
