PART_ID,Trial,Stimuli,Version,Training,FIXTIME,TIME,Correct,SOA,Reversal,Reversal_count,Latency,stim_name,Rating
Y2-S2-078M27,1,SQUARES,First_showed,training,45,15,True,8,-,-,0.3178656999953091,left,-
Y2-S2-078M27,2,SQUARES,First_showed,training,45,15,True,8,-,-,0.46786130010150373,left,-
Y2-S2-078M27,3,SQUARES,First_showed,training,45,15,True,8,-,-,0.21789059997536242,left,-
Y2-S2-078M27,4,SQUARES,First_showed,training,45,15,True,8,-,-,0.28399979998357594,left,-
Y2-S2-078M27,5,SQUARES,First_showed,training,45,15,True,8,-,-,0.18474509997759014,left,-
Y2-S2-078M27,6,SQUARES,First_showed,training,45,15,True,8,-,-,0.16753249999601394,right,-
Y2-S2-078M27,7,SQUARES,First_showed,training,45,15,True,8,-,-,0.23427779995836318,left,-
Y2-S2-078M27,8,SQUARES,First_showed,training,45,15,True,8,-,-,0.3845436000265181,right,-
Y2-S2-078M27,9,SQUARES,First_showed,training,45,15,True,8,-,-,0.11724900000263005,left,-
Y2-S2-078M27,10,SQUARES,First_showed,training,45,15,True,8,-,-,0.15128500002902,left,-
Y2-S2-078M27,11,SQUARES,First_showed,training,45,15,True,3,-,-,0.18427960004191846,left,-
Y2-S2-078M27,12,SQUARES,First_showed,training,45,15,True,3,-,-,0.1839451000560075,right,-
Y2-S2-078M27,13,SQUARES,First_showed,training,45,15,True,3,-,-,0.16762710001785308,right,-
Y2-S2-078M27,14,SQUARES,First_showed,training,45,15,True,3,-,-,0.13437450001947582,right,-
Y2-S2-078M27,15,SQUARES,First_showed,training,45,15,True,3,-,-,0.1505881999619305,right,-
Y2-S2-078M27,16,SQUARES,First_showed,training,45,15,True,3,-,-,0.2007017000578344,right,-
Y2-S2-078M27,17,SQUARES,First_showed,training,45,15,True,3,-,-,0.1341000999091193,right,-
Y2-S2-078M27,18,SQUARES,First_showed,training,45,15,True,3,-,-,0.15075250004883856,right,-
Y2-S2-078M27,19,SQUARES,First_showed,training,45,15,True,3,-,-,0.31732369994278997,left,-
Y2-S2-078M27,20,SQUARES,First_showed,training,45,15,True,3,-,-,0.13393460004590452,right,-
Y2-S2-078M27,1,SQUARES,First_showed,exp,45,15,True,3,0,0,0.2008184000151232,right,-
Y2-S2-078M27,2,SQUARES,First_showed,exp,45,15,True,3,0,-,0.20091389992740005,right,-
Y2-S2-078M27,3,SQUARES,First_showed,exp,45,15,True,3,0,-,0.267466300050728,left,-
Y2-S2-078M27,4,SQUARES,First_showed,exp,45,15,True,2,0,-,0.2663821999449283,left,-
Y2-S2-078M27,5,SQUARES,First_showed,exp,45,15,True,2,0,-,0.11731069989036769,left,-
Y2-S2-078M27,6,SQUARES,First_showed,exp,45,15,True,2,0,-,0.10064890002831817,right,-
Y2-S2-078M27,7,SQUARES,First_showed,exp,45,15,True,1,0,-,0.1842929000267759,right,-
Y2-S2-078M27,8,SQUARES,First_showed,exp,45,15,False,1,1,1,0.784488300094381,left,-
Y2-S2-078M27,9,SQUARES,First_showed,exp,45,15,True,2,0,-,0.2343438999960199,right,-
Y2-S2-078M27,10,SQUARES,First_showed,exp,45,15,False,2,0,-,1.2177290000254288,left,-
Y2-S2-078M27,11,SQUARES,First_showed,exp,45,15,True,3,0,-,0.300985399982892,left,-
Y2-S2-078M27,12,SQUARES,First_showed,exp,45,15,True,3,0,-,0.2014069000724703,right,-
Y2-S2-078M27,13,SQUARES,First_showed,exp,45,15,True,3,1,2,0.23404880007728934,right,-
Y2-S2-078M27,14,SQUARES,First_showed,exp,45,15,True,2,0,-,0.3841189999366179,right,-
Y2-S2-078M27,15,SQUARES,First_showed,exp,45,15,True,2,0,-,0.33417869999539107,left,-
Y2-S2-078M27,16,SQUARES,First_showed,exp,45,15,True,2,0,-,0.2671806000871584,right,-
Y2-S2-078M27,17,SQUARES,First_showed,exp,45,15,True,1,0,-,0.2674467000178993,right,-
Y2-S2-078M27,18,SQUARES,First_showed,exp,45,15,False,1,1,3,1.0840331999352202,left,-
Y2-S2-078M27,19,SQUARES,First_showed,exp,45,15,True,2,0,-,0.25134539999999106,left,-
Y2-S2-078M27,20,SQUARES,First_showed,exp,45,15,True,2,0,-,0.2675310999620706,left,-
Y2-S2-078M27,21,SQUARES,First_showed,exp,45,15,True,2,1,4,0.5012224999954924,right,-
Y2-S2-078M27,22,SQUARES,First_showed,exp,45,15,True,1,0,-,0.5173793999711052,right,-
Y2-S2-078M27,23,SQUARES,First_showed,exp,45,15,True,1,0,-,0.9177277999697253,right,-
Y2-S2-078M27,24,SQUARES,First_showed,exp,45,15,False,1,1,5,0.4677716000005603,left,-
Y2-S2-078M27,25,SQUARES,First_showed,exp,45,15,True,2,0,-,0.1844229999696836,right,-
Y2-S2-078M27,26,SQUARES,First_showed,exp,45,15,True,2,0,-,0.1840747999958694,right,-
Y2-S2-078M27,27,SQUARES,First_showed,exp,45,15,False,2,0,-,1.0841893999604508,left,-
Y2-S2-078M27,28,SQUARES,First_showed,exp,45,15,True,3,0,-,0.23479260003659874,right,-
Y2-S2-078M27,29,SQUARES,First_showed,exp,45,15,True,3,0,-,0.2672696999507025,right,-
Y2-S2-078M27,30,SQUARES,First_showed,exp,45,15,True,3,1,6,0.2176204000134021,left,-
Y2-S2-078M27,31,SQUARES,First_showed,exp,45,15,True,2,0,-,0.5008733000140637,left,-
Y2-S2-078M27,32,SQUARES,First_showed,exp,45,15,False,2,1,7,0.950898400042206,right,-
Y2-S2-078M27,33,SQUARES,First_showed,exp,45,15,True,3,0,-,0.4512778000207618,right,-
Y2-S2-078M27,34,SQUARES,First_showed,exp,45,15,True,3,0,-,0.18451689998619258,right,-
Y2-S2-078M27,35,SQUARES,First_showed,exp,45,15,True,3,1,8,0.36729960003867745,left,-
Y2-S2-078M27,36,SQUARES,First_showed,exp,45,15,True,2,0,-,0.250934400013648,right,-
Y2-S2-078M27,37,SQUARES,First_showed,exp,45,15,True,2,0,-,0.4339457000605762,left,-
Y2-S2-078M27,38,SQUARES,First_showed,exp,45,15,True,2,0,-,0.18414849997498095,right,-
Y2-S2-078M27,39,SQUARES,First_showed,exp,45,15,True,1,0,-,0.26831319998018444,right,-
Y2-S2-078M27,40,SQUARES,First_showed,exp,45,15,False,1,1,9,0.6169598000124097,right,-
Y2-S2-078M27,41,SQUARES,First_showed,exp,45,15,True,2,0,-,0.25122279999777675,left,-
Y2-S2-078M27,42,SQUARES,First_showed,exp,45,15,True,2,0,-,0.2509563999483362,left,-
Y2-S2-078M27,43,SQUARES,First_showed,exp,45,15,True,2,1,10,0.817510399967432,left,-
Y2-S2-078M27,44,SQUARES,First_showed,exp,45,15,True,1,0,-,0.36769520002417266,left,-
Y2-S2-078M27,45,SQUARES,First_showed,exp,45,15,True,1,0,-,0.7176413999404758,right,-
Y2-S2-078M27,46,SQUARES,First_showed,exp,45,15,True,1,0,-,0.3512592000188306,right,-
Y2-S2-078M27,47,SQUARES,First_showed,exp,45,15,False,0,1,11,1.217493599979207,right,-
Y2-S2-078M27,48,SQUARES,First_showed,exp,45,15,False,1,0,-,1.117978100082837,right,-
Y2-S2-078M27,49,SQUARES,First_showed,exp,45,15,True,2,0,-,0.33417439996264875,left,-
Y2-S2-078M27,50,SQUARES,First_showed,exp,45,15,True,2,0,-,0.284772300045006,right,-
Y2-S2-078M27,51,SQUARES,First_showed,exp,45,15,True,2,1,12,0.20072949992027134,right,-
Y2-S2-078M27,52,SQUARES,First_showed,exp,45,15,False,1,1,13,0.2173486000392586,left,-
Y2-S2-078M27,53,SQUARES,First_showed,exp,45,15,True,2,0,-,0.2510204999707639,right,-
Y2-S2-078M27,54,SQUARES,First_showed,exp,45,15,False,2,0,-,0.5002869999734685,left,-
Y2-S2-078M27,55,SQUARES,First_showed,exp,45,15,True,3,0,-,0.3510373999597505,left,-
Y2-S2-078M27,56,SQUARES,First_showed,exp,45,15,True,3,0,-,0.31776450003962964,left,-
Y2-S2-078M27,57,SQUARES,First_showed,exp,45,15,True,3,1,14,0.30136469996068627,right,-
Y2-S2-078M27,58,SQUARES,First_showed,exp,45,15,True,2,0,-,0.6174554999452084,left,-
Y2-S2-078M27,59,SQUARES,First_showed,exp,45,15,True,2,0,-,0.317467899993062,left,-
Y2-S2-078M27,60,SQUARES,First_showed,exp,45,15,True,2,0,-,0.2007025999482721,right,-
Y2-S2-078M27,61,SQUARES,First_showed,exp,45,15,False,1,1,15,0.4339680999983102,left,-
Y2-S2-078M27,62,SQUARES,First_showed,exp,45,15,False,2,0,-,0.33403410005848855,left,-
Y2-S2-078M27,63,SQUARES,First_showed,exp,45,15,True,3,0,-,0.6677571999607608,left,-
Y2-S2-078M27,64,SQUARES,First_showed,exp,45,15,True,3,0,-,0.18421699991449714,right,-
Y2-S2-078M27,65,SQUARES,First_showed,exp,45,15,True,3,1,16,0.1674956000642851,right,-
Y2-S2-078M27,1,CIRCLES,First_hidden,training,45,15,True,8,-,-,0.4008947000838816,right,-
Y2-S2-078M27,2,CIRCLES,First_hidden,training,45,15,True,8,-,-,0.38427899999078363,right,-
Y2-S2-078M27,3,CIRCLES,First_hidden,training,45,15,True,8,-,-,0.36756200005766004,right,-
Y2-S2-078M27,4,CIRCLES,First_hidden,training,45,15,True,8,-,-,0.3678237999556586,left,-
Y2-S2-078M27,5,CIRCLES,First_hidden,training,45,15,True,8,-,-,0.4006481000687927,left,-
Y2-S2-078M27,6,CIRCLES,First_hidden,training,45,15,True,8,-,-,0.3677445000503212,right,-
Y2-S2-078M27,7,CIRCLES,First_hidden,training,45,15,True,8,-,-,0.3176481000846252,right,-
Y2-S2-078M27,8,CIRCLES,First_hidden,training,45,15,True,8,-,-,0.2671093000099063,left,-
Y2-S2-078M27,9,CIRCLES,First_hidden,training,45,15,True,8,-,-,0.2510080999927595,right,-
Y2-S2-078M27,10,CIRCLES,First_hidden,training,45,15,True,8,-,-,0.23441120004281402,left,-
Y2-S2-078M27,11,CIRCLES,First_hidden,training,45,15,True,3,-,-,0.33454189996700734,left,-
Y2-S2-078M27,12,CIRCLES,First_hidden,training,45,15,True,3,-,-,0.31751879991497844,right,-
Y2-S2-078M27,13,CIRCLES,First_hidden,training,45,15,True,3,-,-,0.3007274999981746,left,-
Y2-S2-078M27,14,CIRCLES,First_hidden,training,45,15,True,3,-,-,0.3341224000323564,right,-
Y2-S2-078M27,15,CIRCLES,First_hidden,training,45,15,True,3,-,-,0.3343279999680817,right,-
Y2-S2-078M27,16,CIRCLES,First_hidden,training,45,15,True,3,-,-,0.2840564000653103,right,-
Y2-S2-078M27,17,CIRCLES,First_hidden,training,45,15,True,3,-,-,0.5172001000028104,right,-
Y2-S2-078M27,18,CIRCLES,First_hidden,training,45,15,True,3,-,-,0.48397139995358884,right,-
Y2-S2-078M27,19,CIRCLES,First_hidden,training,45,15,True,3,-,-,0.4673878999892622,left,-
Y2-S2-078M27,20,CIRCLES,First_hidden,training,45,15,True,3,-,-,0.400859999936074,right,-
Y2-S2-078M27,1,CIRCLES,First_hidden,exp,45,15,True,3,0,0,0.317348700016737,left,-
Y2-S2-078M27,2,CIRCLES,First_hidden,exp,45,15,True,3,0,-,0.45080170000437647,right,-
Y2-S2-078M27,3,CIRCLES,First_hidden,exp,45,15,True,3,0,-,0.35067549999803305,left,-
Y2-S2-078M27,4,CIRCLES,First_hidden,exp,45,15,True,2,0,-,0.5670771999284625,right,-
Y2-S2-078M27,5,CIRCLES,First_hidden,exp,45,15,True,2,0,-,0.4342163000255823,right,-
Y2-S2-078M27,6,CIRCLES,First_hidden,exp,45,15,True,2,0,-,0.6842034999281168,right,-
Y2-S2-078M27,7,CIRCLES,First_hidden,exp,45,15,True,1,0,-,0.6180074000731111,left,-
Y2-S2-078M27,8,CIRCLES,First_hidden,exp,45,15,False,1,1,1,1.4344817999517545,right,-
Y2-S2-078M27,9,CIRCLES,First_hidden,exp,45,15,True,2,0,-,0.48444259993266314,left,-
Y2-S2-078M27,10,CIRCLES,First_hidden,exp,45,15,True,2,0,-,0.46770259994082153,right,-
Y2-S2-078M27,11,CIRCLES,First_hidden,exp,45,15,True,2,1,2,0.43423080001957715,left,-
Y2-S2-078M27,12,CIRCLES,First_hidden,exp,45,15,True,1,0,-,0.9342378000728786,right,-
Y2-S2-078M27,13,CIRCLES,First_hidden,exp,45,15,True,1,0,-,0.8341202000156045,left,-
Y2-S2-078M27,14,CIRCLES,First_hidden,exp,45,15,True,1,0,-,0.9511528000002727,right,-
Y2-S2-078M27,15,CIRCLES,First_hidden,exp,45,15,True,0,0,-,1.2844891999848187,right,-
Y2-S2-078M27,16,CIRCLES,First_hidden,exp,45,15,True,0,0,-,0.7345836000749841,right,-
Y2-S2-078M27,17,CIRCLES,First_hidden,exp,45,15,True,0,0,-,0.5174928000196815,right,-
Y2-S2-078M27,18,CIRCLES,First_hidden,exp,45,15,True,-1,0,-,0.5011274999706075,left,-
Y2-S2-078M27,19,CIRCLES,First_hidden,exp,45,15,False,-1,1,3,1.5007362000178546,right,-
Y2-S2-078M27,20,CIRCLES,First_hidden,exp,45,15,False,0,0,-,1.7511197999119759,right,-
Y2-S2-078M27,21,CIRCLES,First_hidden,exp,45,15,True,1,0,-,0.5012189999688417,left,-
Y2-S2-078M27,22,CIRCLES,First_hidden,exp,45,15,True,1,0,-,0.33464270003605634,left,-
Y2-S2-078M27,23,CIRCLES,First_hidden,exp,45,15,True,1,1,4,0.45134059991687536,right,-
Y2-S2-078M27,24,CIRCLES,First_hidden,exp,45,15,False,0,1,5,0.6668597999960184,right,-
Y2-S2-078M27,25,CIRCLES,First_hidden,exp,45,15,False,1,0,-,0.6678250000113621,left,-
Y2-S2-078M27,26,CIRCLES,First_hidden,exp,45,15,True,2,0,-,0.4509426000295207,left,-
Y2-S2-078M27,27,CIRCLES,First_hidden,exp,45,15,True,2,0,-,0.5342228000517935,right,-
Y2-S2-078M27,28,CIRCLES,First_hidden,exp,45,15,False,2,0,-,1.8010868000565097,left,-
Y2-S2-078M27,29,CIRCLES,First_hidden,exp,45,15,True,3,0,-,0.4509470999473706,left,-
Y2-S2-078M27,30,CIRCLES,First_hidden,exp,45,15,True,3,0,-,0.45072929991874844,right,-
Y2-S2-078M27,31,CIRCLES,First_hidden,exp,45,15,True,3,1,6,0.2679732999531552,left,-
Y2-S2-078M27,32,CIRCLES,First_hidden,exp,45,15,True,2,0,-,0.3508754000067711,left,-
Y2-S2-078M27,33,CIRCLES,First_hidden,exp,45,15,True,2,0,-,0.38442800007760525,right,-
Y2-S2-078M27,34,CIRCLES,First_hidden,exp,45,15,True,2,0,-,0.48476339993067086,left,-
Y2-S2-078M27,35,CIRCLES,First_hidden,exp,45,15,False,1,1,7,0.5340568999527022,left,-
Y2-S2-078M27,36,CIRCLES,First_hidden,exp,45,15,True,2,0,-,0.41740140004549176,right,-
Y2-S2-078M27,37,CIRCLES,First_hidden,exp,45,15,True,2,0,-,0.5174530000658706,right,-
Y2-S2-078M27,38,CIRCLES,First_hidden,exp,45,15,True,2,1,8,0.30081540008541197,left,-
Y2-S2-078M27,39,CIRCLES,First_hidden,exp,45,15,True,1,0,-,0.45108200004324317,right,-
Y2-S2-078M27,40,CIRCLES,First_hidden,exp,45,15,True,1,0,-,0.567757899989374,right,-
Y2-S2-078M27,41,CIRCLES,First_hidden,exp,45,15,False,1,1,9,0.4178288000402972,right,-
Y2-S2-078M27,42,CIRCLES,First_hidden,exp,45,15,True,2,0,-,0.4840428000316024,right,-
Y2-S2-078M27,43,CIRCLES,First_hidden,exp,45,15,True,2,0,-,0.38415179995354265,left,-
Y2-S2-078M27,44,CIRCLES,First_hidden,exp,45,15,True,2,1,10,0.4844871999230236,left,-
Y2-S2-078M27,45,CIRCLES,First_hidden,exp,45,15,True,1,0,-,0.4173276999499649,right,-
Y2-S2-078M27,46,CIRCLES,First_hidden,exp,45,15,True,1,0,-,0.38412150007206947,left,-
Y2-S2-078M27,47,CIRCLES,First_hidden,exp,45,15,True,1,0,-,0.4678749000886455,right,-
Y2-S2-078M27,48,CIRCLES,First_hidden,exp,45,15,False,0,1,11,0.5010307999327779,right,-
Y2-S2-078M27,49,CIRCLES,First_hidden,exp,45,15,True,1,0,-,0.5507924000266939,left,-
Y2-S2-078M27,50,CIRCLES,First_hidden,exp,45,15,False,1,0,-,0.8341525999130681,right,-
Y2-S2-078M27,51,CIRCLES,First_hidden,exp,45,15,True,2,0,-,0.5674555000150576,right,-
Y2-S2-078M27,52,CIRCLES,First_hidden,exp,45,15,True,2,0,-,0.5342728000832722,right,-
Y2-S2-078M27,53,CIRCLES,First_hidden,exp,45,15,True,2,1,12,0.4844005999621004,left,-
Y2-S2-078M27,54,CIRCLES,First_hidden,exp,45,15,False,1,1,13,0.5513254000106826,right,-
Y2-S2-078M27,55,CIRCLES,First_hidden,exp,45,15,True,2,0,-,0.45019749994389713,right,-
Y2-S2-078M27,56,CIRCLES,First_hidden,exp,45,15,True,2,0,-,0.3346129999263212,left,-
Y2-S2-078M27,57,CIRCLES,First_hidden,exp,45,15,True,2,1,14,0.28446550003718585,left,-
Y2-S2-078M27,58,CIRCLES,First_hidden,exp,45,15,True,1,0,-,0.5010604000417516,right,-
Y2-S2-078M27,59,CIRCLES,First_hidden,exp,45,15,True,1,0,-,0.4003413999453187,left,-
Y2-S2-078M27,60,CIRCLES,First_hidden,exp,45,15,True,1,0,-,0.6341503000585362,right,-
Y2-S2-078M27,61,CIRCLES,First_hidden,exp,45,15,False,0,1,15,0.3843179999385029,right,-
Y2-S2-078M27,62,CIRCLES,First_hidden,exp,45,15,False,1,0,-,0.7177017999347299,right,-
Y2-S2-078M27,63,CIRCLES,First_hidden,exp,45,15,True,2,0,-,0.40088359999936074,left,-
Y2-S2-078M27,64,CIRCLES,First_hidden,exp,45,15,True,2,0,-,0.2844180000247434,left,-
Y2-S2-078M27,65,CIRCLES,First_hidden,exp,45,15,True,2,1,16,0.2674995999550447,left,-
