PART_ID,Trial,Stimuli,Version,Training,FIXTIME,TIME,Correct,SOA,Reversal,Reversal_count,Latency,stim_name,Rating
Y2-S2-034K26,1,SQUARES,First_showed,training,45,15,True,8,-,-,0.350961700081825,left,-
Y2-S2-034K26,2,SQUARES,First_showed,training,45,15,True,8,-,-,0.11768910009414,left,-
Y2-S2-034K26,3,SQUARES,First_showed,training,45,15,True,8,-,-,0.384151300182566,left,-
Y2-S2-034K26,4,SQUARES,First_showed,training,45,15,True,8,-,-,0.0842069999780506,left,-
Y2-S2-034K26,5,SQUARES,First_showed,training,45,15,True,8,-,-,0.0839003000874072,right,-
Y2-S2-034K26,6,SQUARES,First_showed,training,45,15,True,8,-,-,0.101676400052384,right,-
Y2-S2-034K26,7,SQUARES,First_showed,training,45,15,True,8,-,-,0.184102399973199,left,-
Y2-S2-034K26,8,SQUARES,First_showed,training,45,15,True,8,-,-,0.0510849000420421,right,-
Y2-S2-034K26,9,SQUARES,First_showed,training,45,15,True,8,-,-,0.301224399823695,right,-
Y2-S2-034K26,10,SQUARES,First_showed,training,45,15,True,8,-,-,0.100665399804711,left,-
Y2-S2-034K26,11,SQUARES,First_showed,training,45,15,True,3,-,-,0.200618000002578,right,-
Y2-S2-034K26,12,SQUARES,First_showed,training,45,15,True,3,-,-,0.467817999888212,right,-
Y2-S2-034K26,13,SQUARES,First_showed,training,45,15,True,3,-,-,0.150751599809155,left,-
Y2-S2-034K26,14,SQUARES,First_showed,training,45,15,True,3,-,-,0.201029099989682,left,-
Y2-S2-034K26,15,SQUARES,First_showed,training,45,15,True,3,-,-,0.151414400199428,right,-
Y2-S2-034K26,16,SQUARES,First_showed,training,45,15,False,3,-,-,0.434525900054723,left,-
Y2-S2-034K26,17,SQUARES,First_showed,training,45,15,True,3,-,-,0.133951300056651,left,-
Y2-S2-034K26,18,SQUARES,First_showed,training,45,15,True,3,-,-,0.217906000092626,left,-
Y2-S2-034K26,19,SQUARES,First_showed,training,45,15,True,3,-,-,0.133988399989903,left,-
Y2-S2-034K26,20,SQUARES,First_showed,training,45,15,True,3,-,-,0.133903099922463,right,-
Y2-S2-034K26,1,SQUARES,First_showed,exp,45,15,True,3,0,0,0.15094850002788,left,-
Y2-S2-034K26,2,SQUARES,First_showed,exp,45,15,True,3,0,-,0.117430000100285,right,-
Y2-S2-034K26,3,SQUARES,First_showed,exp,45,15,False,3,0,-,0.367414699867368,left,-
Y2-S2-034K26,4,SQUARES,First_showed,exp,45,15,True,4,0,-,0.201230300124735,left,-
Y2-S2-034K26,5,SQUARES,First_showed,exp,45,15,True,4,0,-,0.117695300141349,left,-
Y2-S2-034K26,6,SQUARES,First_showed,exp,45,15,True,4,1,1,0.283771899994463,left,-
Y2-S2-034K26,7,SQUARES,First_showed,exp,45,15,True,3,0,-,0.0176124998833984,right,-
Y2-S2-034K26,8,SQUARES,First_showed,exp,45,15,True,3,0,-,0.0673858998343349,right,-
Y2-S2-034K26,9,SQUARES,First_showed,exp,45,15,True,3,0,-,0.0505725000984967,right,-
Y2-S2-034K26,10,SQUARES,First_showed,exp,45,15,True,2,0,-,0.0173579999245703,left,-
Y2-S2-034K26,11,SQUARES,First_showed,exp,45,15,True,2,0,-,0.0344615001231432,right,-
Y2-S2-034K26,12,SQUARES,First_showed,exp,45,15,False,2,1,2,0.0343459001742303,right,-
Y2-S2-034K26,13,SQUARES,First_showed,exp,45,15,True,3,0,-,0.083864500047639,left,-
Y2-S2-034K26,14,SQUARES,First_showed,exp,45,15,True,3,0,-,0.0510613999795169,left,-
Y2-S2-034K26,15,SQUARES,First_showed,exp,45,15,True,3,1,3,0.0175222000107169,right,-
Y2-S2-034K26,16,SQUARES,First_showed,exp,45,15,False,2,1,4,0.0842330001760274,right,-
Y2-S2-034K26,17,SQUARES,First_showed,exp,45,15,True,3,0,-,0.117754899896681,right,-
Y2-S2-034K26,18,SQUARES,First_showed,exp,45,15,True,3,0,-,0.0679790999274701,right,-
Y2-S2-034K26,19,SQUARES,First_showed,exp,45,15,True,3,1,5,0.0676281999330968,right,-
Y2-S2-034K26,20,SQUARES,First_showed,exp,45,15,True,2,0,-,0.0177859000395983,right,-
Y2-S2-034K26,21,SQUARES,First_showed,exp,45,15,True,2,0,-,0.100825300207362,right,-
Y2-S2-034K26,22,SQUARES,First_showed,exp,45,15,True,2,0,-,0.101048699812964,right,-
Y2-S2-034K26,23,SQUARES,First_showed,exp,45,15,True,1,0,-,0.100871499860659,right,-
Y2-S2-034K26,24,SQUARES,First_showed,exp,45,15,True,1,0,-,0.0841737999580801,right,-
Y2-S2-034K26,25,SQUARES,First_showed,exp,45,15,True,1,0,-,0.0680823000147939,right,-
Y2-S2-034K26,26,SQUARES,First_showed,exp,45,15,False,0,1,6,0.150444100145251,left,-
Y2-S2-034K26,27,SQUARES,First_showed,exp,45,15,False,1,0,-,0.0676691997796297,left,-
Y2-S2-034K26,28,SQUARES,First_showed,exp,45,15,False,2,0,-,0.484357799869031,left,-
Y2-S2-034K26,29,SQUARES,First_showed,exp,45,15,True,3,0,-,0.201160100055859,left,-
Y2-S2-034K26,30,SQUARES,First_showed,exp,45,15,True,3,0,-,0.100914600072429,right,-
Y2-S2-034K26,31,SQUARES,First_showed,exp,45,15,False,3,0,-,0.200906499987468,left,-
Y2-S2-034K26,32,SQUARES,First_showed,exp,45,15,True,4,0,-,0.0512026001233608,right,-
Y2-S2-034K26,33,SQUARES,First_showed,exp,45,15,True,4,0,-,0.0341980999801308,left,-
Y2-S2-034K26,34,SQUARES,First_showed,exp,45,15,True,4,1,7,0.0342313000001013,right,-
Y2-S2-034K26,35,SQUARES,First_showed,exp,45,15,True,3,0,-,0.0339884001296014,right,-
Y2-S2-034K26,36,SQUARES,First_showed,exp,45,15,True,3,0,-,0.301325500011444,left,-
Y2-S2-034K26,37,SQUARES,First_showed,exp,45,15,True,3,0,-,0.0175733999349177,right,-
Y2-S2-034K26,38,SQUARES,First_showed,exp,45,15,True,2,0,-,0.10091709997505,left,-
Y2-S2-034K26,39,SQUARES,First_showed,exp,45,15,False,2,1,8,0.1344425000716,left,-
Y2-S2-034K26,40,SQUARES,First_showed,exp,45,15,True,3,0,-,0.25076079997234,left,-
Y2-S2-034K26,41,SQUARES,First_showed,exp,45,15,False,3,0,-,0.333942600060254,left,-
Y2-S2-034K26,42,SQUARES,First_showed,exp,45,15,True,4,0,-,0.167570300167426,right,-
Y2-S2-034K26,43,SQUARES,First_showed,exp,45,15,True,4,0,-,0.234395499806851,left,-
Y2-S2-034K26,44,SQUARES,First_showed,exp,45,15,True,4,1,9,2.51744089997374,right,-
Y2-S2-034K26,45,SQUARES,First_showed,exp,45,15,True,3,0,-,0.117666900157928,right,-
Y2-S2-034K26,46,SQUARES,First_showed,exp,45,15,True,3,0,-,0.267403099918738,left,-
Y2-S2-034K26,47,SQUARES,First_showed,exp,45,15,True,3,0,-,0.200847300002351,left,-
Y2-S2-034K26,48,SQUARES,First_showed,exp,45,15,False,2,1,10,0.350691200001165,left,-
Y2-S2-034K26,49,SQUARES,First_showed,exp,45,15,True,3,0,-,0.0676043999847025,right,-
Y2-S2-034K26,50,SQUARES,First_showed,exp,45,15,False,3,0,-,0.0838320001494139,left,-
Y2-S2-034K26,51,SQUARES,First_showed,exp,45,15,True,4,0,-,0.334468600107357,left,-
Y2-S2-034K26,52,SQUARES,First_showed,exp,45,15,True,4,0,-,0.000644100131466985,right,-
Y2-S2-034K26,53,SQUARES,First_showed,exp,45,15,True,4,1,11,0.0170946000143886,right,-
Y2-S2-034K26,54,SQUARES,First_showed,exp,45,15,True,3,0,-,0.0173638998530805,right,-
Y2-S2-034K26,55,SQUARES,First_showed,exp,45,15,True,3,0,-,0.11796489986591,right,-
Y2-S2-034K26,56,SQUARES,First_showed,exp,45,15,True,3,0,-,2.03390459995717,right,-
Y2-S2-034K26,57,SQUARES,First_showed,exp,45,15,True,2,0,-,0.0677932999096811,right,-
Y2-S2-034K26,58,SQUARES,First_showed,exp,45,15,True,2,0,-,0.0672583999112248,right,-
Y2-S2-034K26,59,SQUARES,First_showed,exp,45,15,False,2,1,12,0.100906900130212,left,-
Y2-S2-034K26,60,SQUARES,First_showed,exp,45,15,True,3,0,-,0.0176044998224825,right,-
Y2-S2-034K26,61,SQUARES,First_showed,exp,45,15,True,3,0,-,0.000965900020673871,left,-
Y2-S2-034K26,62,SQUARES,First_showed,exp,45,15,True,3,1,13,0.117791299941018,left,-
Y2-S2-034K26,63,SQUARES,First_showed,exp,45,15,True,2,0,-,0.0677188001573086,left,-
Y2-S2-034K26,64,SQUARES,First_showed,exp,45,15,False,2,1,14,0.0672440000344068,left,-
Y2-S2-034K26,65,SQUARES,First_showed,exp,45,15,True,3,0,-,1.63402409991249,right,-
Y2-S2-034K26,66,SQUARES,First_showed,exp,45,15,True,3,0,-,0.284533000085503,left,-
Y2-S2-034K26,67,SQUARES,First_showed,exp,45,15,True,3,1,15,0.117495999904349,right,-
Y2-S2-034K26,68,SQUARES,First_showed,exp,45,15,True,2,0,-,0.034989699954167,right,-
Y2-S2-034K26,69,SQUARES,First_showed,exp,45,15,False,2,1,16,0.0678138001821935,right,-
Y2-S2-034K26,1,CIRCLES,First_hidden,training,45,15,True,8,-,-,0.450653800042346,left,-
Y2-S2-034K26,2,CIRCLES,First_hidden,training,45,15,True,8,-,-,0.384283300023526,right,-
Y2-S2-034K26,3,CIRCLES,First_hidden,training,45,15,True,8,-,-,0.350701699964702,right,-
Y2-S2-034K26,4,CIRCLES,First_hidden,training,45,15,True,8,-,-,0.317932900041342,right,-
Y2-S2-034K26,5,CIRCLES,First_hidden,training,45,15,True,8,-,-,0.300991700030863,left,-
Y2-S2-034K26,6,CIRCLES,First_hidden,training,45,15,True,8,-,-,0.267288299975917,right,-
Y2-S2-034K26,7,CIRCLES,First_hidden,training,45,15,True,8,-,-,0.251559800002724,left,-
Y2-S2-034K26,8,CIRCLES,First_hidden,training,45,15,True,8,-,-,0.283818600000814,left,-
Y2-S2-034K26,9,CIRCLES,First_hidden,training,45,15,True,8,-,-,0.23417429998517,right,-
Y2-S2-034K26,10,CIRCLES,First_hidden,training,45,15,True,8,-,-,0.217362400144339,left,-
Y2-S2-034K26,11,CIRCLES,First_hidden,training,45,15,True,3,-,-,0.367724800016731,left,-
Y2-S2-034K26,12,CIRCLES,First_hidden,training,45,15,True,3,-,-,0.318188600009307,right,-
Y2-S2-034K26,13,CIRCLES,First_hidden,training,45,15,True,3,-,-,0.36737920017913,right,-
Y2-S2-034K26,14,CIRCLES,First_hidden,training,45,15,True,3,-,-,0.384477900108323,right,-
Y2-S2-034K26,15,CIRCLES,First_hidden,training,45,15,True,3,-,-,0.484504300169647,right,-
Y2-S2-034K26,16,CIRCLES,First_hidden,training,45,15,True,3,-,-,0.38411879981868,left,-
Y2-S2-034K26,17,CIRCLES,First_hidden,training,45,15,True,3,-,-,0.317522600060329,right,-
Y2-S2-034K26,18,CIRCLES,First_hidden,training,45,15,True,3,-,-,0.601143300067633,left,-
Y2-S2-034K26,19,CIRCLES,First_hidden,training,45,15,True,3,-,-,0.550580899929628,left,-
Y2-S2-034K26,20,CIRCLES,First_hidden,training,45,15,True,3,-,-,0.567526600090787,left,-
Y2-S2-034K26,1,CIRCLES,First_hidden,exp,45,15,True,3,0,0,0.401153100188822,right,-
Y2-S2-034K26,2,CIRCLES,First_hidden,exp,45,15,True,3,0,-,0.334579800022766,right,-
Y2-S2-034K26,3,CIRCLES,First_hidden,exp,45,15,True,3,0,-,0.351012899773195,right,-
Y2-S2-034K26,4,CIRCLES,First_hidden,exp,45,15,True,2,0,-,0.334164900006726,right,-
Y2-S2-034K26,5,CIRCLES,First_hidden,exp,45,15,False,2,1,1,0.467878599883989,left,-
Y2-S2-034K26,6,CIRCLES,First_hidden,exp,45,15,True,3,0,-,0.31746460008435,left,-
Y2-S2-034K26,7,CIRCLES,First_hidden,exp,45,15,True,3,0,-,0.484094799961895,right,-
Y2-S2-034K26,8,CIRCLES,First_hidden,exp,45,15,True,3,1,2,0.334064400056377,left,-
Y2-S2-034K26,9,CIRCLES,First_hidden,exp,45,15,True,2,0,-,0.300722799962387,right,-
Y2-S2-034K26,10,CIRCLES,First_hidden,exp,45,15,True,2,0,-,0.751180399907753,right,-
Y2-S2-034K26,11,CIRCLES,First_hidden,exp,45,15,True,2,0,-,0.333543899934739,left,-
Y2-S2-034K26,12,CIRCLES,First_hidden,exp,45,15,True,1,0,-,0.668088899925351,left,-
Y2-S2-034K26,13,CIRCLES,First_hidden,exp,45,15,True,1,0,-,0.484518599929288,right,-
Y2-S2-034K26,14,CIRCLES,First_hidden,exp,45,15,True,1,0,-,0.700856399955228,left,-
Y2-S2-034K26,15,CIRCLES,First_hidden,exp,45,15,True,0,0,-,0.50120159983635,left,-
Y2-S2-034K26,16,CIRCLES,First_hidden,exp,45,15,True,0,0,-,0.450945700053126,right,-
Y2-S2-034K26,17,CIRCLES,First_hidden,exp,45,15,False,0,1,3,0.46796020003967,left,-
Y2-S2-034K26,18,CIRCLES,First_hidden,exp,45,15,True,1,0,-,0.384176200022921,right,-
Y2-S2-034K26,19,CIRCLES,First_hidden,exp,45,15,True,1,0,-,0.550280400086194,left,-
Y2-S2-034K26,20,CIRCLES,First_hidden,exp,45,15,True,1,1,4,0.384678400121629,left,-
Y2-S2-034K26,21,CIRCLES,First_hidden,exp,45,15,True,0,0,-,0.434079900151119,left,-
Y2-S2-034K26,22,CIRCLES,First_hidden,exp,45,15,True,0,0,-,0.534658200107515,right,-
Y2-S2-034K26,23,CIRCLES,First_hidden,exp,45,15,False,0,1,5,0.567355699837208,right,-
Y2-S2-034K26,24,CIRCLES,First_hidden,exp,45,15,True,1,0,-,0.434171000029892,right,-
Y2-S2-034K26,25,CIRCLES,First_hidden,exp,45,15,True,1,0,-,0.367285600164905,left,-
Y2-S2-034K26,26,CIRCLES,First_hidden,exp,45,15,True,1,1,6,0.400992000009865,right,-
Y2-S2-034K26,27,CIRCLES,First_hidden,exp,45,15,True,0,0,-,0.26777600008063,right,-
Y2-S2-034K26,28,CIRCLES,First_hidden,exp,45,15,False,0,1,7,0.450493599986658,left,-
Y2-S2-034K26,29,CIRCLES,First_hidden,exp,45,15,True,1,0,-,0.633924899855629,left,-
Y2-S2-034K26,30,CIRCLES,First_hidden,exp,45,15,True,1,0,-,0.417461199918762,left,-
Y2-S2-034K26,31,CIRCLES,First_hidden,exp,45,15,False,1,0,-,0.333845099899918,right,-
Y2-S2-034K26,32,CIRCLES,First_hidden,exp,45,15,True,2,0,-,0.567692700074986,left,-
Y2-S2-034K26,33,CIRCLES,First_hidden,exp,45,15,True,2,0,-,0.467585999984294,right,-
Y2-S2-034K26,34,CIRCLES,First_hidden,exp,45,15,True,2,1,8,0.334286900004372,right,-
Y2-S2-034K26,35,CIRCLES,First_hidden,exp,45,15,True,1,0,-,0.401135999942198,left,-
Y2-S2-034K26,36,CIRCLES,First_hidden,exp,45,15,True,1,0,-,0.700994099956006,right,-
Y2-S2-034K26,37,CIRCLES,First_hidden,exp,45,15,True,1,0,-,0.433690200094134,left,-
Y2-S2-034K26,38,CIRCLES,First_hidden,exp,45,15,True,0,0,-,0.467971800127998,left,-
Y2-S2-034K26,39,CIRCLES,First_hidden,exp,45,15,False,0,1,9,0.367681000148878,left,-
Y2-S2-034K26,40,CIRCLES,First_hidden,exp,45,15,True,1,0,-,0.50104509992525,right,-
Y2-S2-034K26,41,CIRCLES,First_hidden,exp,45,15,False,1,0,-,0.483870299998671,right,-
Y2-S2-034K26,42,CIRCLES,First_hidden,exp,45,15,True,2,0,-,0.367503999965265,right,-
Y2-S2-034K26,43,CIRCLES,First_hidden,exp,45,15,True,2,0,-,0.534105999860913,right,-
Y2-S2-034K26,44,CIRCLES,First_hidden,exp,45,15,True,2,1,10,0.467977800173685,right,-
Y2-S2-034K26,45,CIRCLES,First_hidden,exp,45,15,True,1,0,-,0.50122889992781,right,-
Y2-S2-034K26,46,CIRCLES,First_hidden,exp,45,15,True,1,0,-,0.516612499952316,right,-
Y2-S2-034K26,47,CIRCLES,First_hidden,exp,45,15,True,1,0,-,0.384068799903616,left,-
Y2-S2-034K26,48,CIRCLES,First_hidden,exp,45,15,True,0,0,-,0.434263199800625,right,-
Y2-S2-034K26,49,CIRCLES,First_hidden,exp,45,15,False,0,1,11,0.317590600112453,left,-
Y2-S2-034K26,50,CIRCLES,First_hidden,exp,45,15,True,1,0,-,0.601268700091168,right,-
Y2-S2-034K26,51,CIRCLES,First_hidden,exp,45,15,True,1,0,-,0.267223999835551,right,-
Y2-S2-034K26,52,CIRCLES,First_hidden,exp,45,15,True,1,1,12,0.416665199911222,left,-
Y2-S2-034K26,53,CIRCLES,First_hidden,exp,45,15,True,0,0,-,0.317707899957895,right,-
Y2-S2-034K26,54,CIRCLES,First_hidden,exp,45,15,False,0,1,13,0.267801099922508,left,-
Y2-S2-034K26,55,CIRCLES,First_hidden,exp,45,15,True,1,0,-,0.384412799961865,right,-
Y2-S2-034K26,56,CIRCLES,First_hidden,exp,45,15,True,1,0,-,0.317573399981484,right,-
Y2-S2-034K26,57,CIRCLES,First_hidden,exp,45,15,True,1,1,14,0.400763000128791,right,-
Y2-S2-034K26,58,CIRCLES,First_hidden,exp,45,15,True,0,0,-,1.05024160002358,left,-
Y2-S2-034K26,59,CIRCLES,First_hidden,exp,45,15,False,0,1,15,0.0509994002059102,right,-
Y2-S2-034K26,60,CIRCLES,First_hidden,exp,45,15,True,1,0,-,0.36786670004949,right,-
Y2-S2-034K26,61,CIRCLES,First_hidden,exp,45,15,True,1,0,-,0.167621100088581,left,-
Y2-S2-034K26,62,CIRCLES,First_hidden,exp,45,15,False,1,0,-,0.201140000019223,left,-
Y2-S2-034K26,63,CIRCLES,First_hidden,exp,45,15,False,2,0,-,0.0846947999671102,right,-
Y2-S2-034K26,64,CIRCLES,First_hidden,exp,45,15,True,3,0,-,0.418075599940494,right,-
Y2-S2-034K26,65,CIRCLES,First_hidden,exp,45,15,True,3,0,-,0.351062299916521,right,-
Y2-S2-034K26,66,CIRCLES,First_hidden,exp,45,15,True,3,1,16,0.368145599961281,left,-
