PART_ID,Trial,Stimuli,Version,Training,FIXTIME,TIME,Correct,SOA,Reversal,Reversal_count,Latency,stim_name,Rating
Y2-S2-203K22,1,SQUARES,First_showed,training,45,15,True,8,-,-,0.3012092001736164,left,-
Y2-S2-203K22,2,SQUARES,First_showed,training,45,15,True,8,-,-,0.7507882993668318,left,-
Y2-S2-203K22,3,SQUARES,First_showed,training,45,15,True,8,-,-,0.1842838004231453,right,-
Y2-S2-203K22,4,SQUARES,First_showed,training,45,15,True,8,-,-,0.16783620044589043,right,-
Y2-S2-203K22,5,SQUARES,First_showed,training,45,15,True,8,-,-,0.13418730068951845,right,-
Y2-S2-203K22,6,SQUARES,First_showed,training,45,15,True,8,-,-,0.08408940024673939,left,-
Y2-S2-203K22,7,SQUARES,First_showed,training,45,15,True,8,-,-,0.6175957005470991,right,-
Y2-S2-203K22,8,SQUARES,First_showed,training,45,15,True,8,-,-,0.10175189934670925,right,-
Y2-S2-203K22,9,SQUARES,First_showed,training,45,15,True,8,-,-,0.08420469984412193,left,-
Y2-S2-203K22,10,SQUARES,First_showed,training,45,15,True,8,-,-,0.634208700619638,right,-
Y2-S2-203K22,11,SQUARES,First_showed,training,45,15,True,3,-,-,0.21731219999492168,left,-
Y2-S2-203K22,12,SQUARES,First_showed,training,45,15,True,3,-,-,0.11727489996701479,right,-
Y2-S2-203K22,13,SQUARES,First_showed,training,45,15,True,3,-,-,0.2510053999722004,right,-
Y2-S2-203K22,14,SQUARES,First_showed,training,45,15,True,3,-,-,0.30097970087081194,left,-
Y2-S2-203K22,15,SQUARES,First_showed,training,45,15,True,3,-,-,0.26737499982118607,left,-
Y2-S2-203K22,16,SQUARES,First_showed,training,45,15,True,3,-,-,0.3183644004166126,left,-
Y2-S2-203K22,17,SQUARES,First_showed,training,45,15,True,3,-,-,0.23426849953830242,left,-
Y2-S2-203K22,18,SQUARES,First_showed,training,45,15,True,3,-,-,0.23361120000481606,left,-
Y2-S2-203K22,19,SQUARES,First_showed,training,45,15,False,3,-,-,0.18406260013580322,right,-
Y2-S2-203K22,20,SQUARES,First_showed,training,45,15,True,3,-,-,0.2508478006348014,right,-
Y2-S2-203K22,1,SQUARES,First_showed,exp,45,15,True,3,0,0,0.20115290023386478,right,-
Y2-S2-203K22,2,SQUARES,First_showed,exp,45,15,True,3,0,-,0.1676924005150795,right,-
Y2-S2-203K22,3,SQUARES,First_showed,exp,45,15,True,3,0,-,0.13390470016747713,left,-
Y2-S2-203K22,4,SQUARES,First_showed,exp,45,15,False,2,1,1,0.41725009959191084,right,-
Y2-S2-203K22,5,SQUARES,First_showed,exp,45,15,True,3,0,-,1.0341137005016208,right,-
Y2-S2-203K22,6,SQUARES,First_showed,exp,45,15,True,3,0,-,0.4339500004425645,right,-
Y2-S2-203K22,7,SQUARES,First_showed,exp,45,15,True,3,1,2,0.28414140082895756,right,-
Y2-S2-203K22,8,SQUARES,First_showed,exp,45,15,True,2,0,-,0.25067950040102005,right,-
Y2-S2-203K22,9,SQUARES,First_showed,exp,45,15,True,2,0,-,0.31773919984698296,left,-
Y2-S2-203K22,10,SQUARES,First_showed,exp,45,15,True,2,0,-,0.36776129994541407,left,-
Y2-S2-203K22,11,SQUARES,First_showed,exp,45,15,False,1,1,3,0.3841898003593087,left,-
Y2-S2-203K22,12,SQUARES,First_showed,exp,45,15,True,2,0,-,0.3842473002150655,right,-
Y2-S2-203K22,13,SQUARES,First_showed,exp,45,15,True,2,0,-,0.31820870004594326,right,-
Y2-S2-203K22,14,SQUARES,First_showed,exp,45,15,False,2,0,-,0.4004103001207113,right,-
Y2-S2-203K22,15,SQUARES,First_showed,exp,45,15,True,3,0,-,0.3010708997026086,left,-
Y2-S2-203K22,16,SQUARES,First_showed,exp,45,15,True,3,0,-,0.36732610035687685,left,-
Y2-S2-203K22,17,SQUARES,First_showed,exp,45,15,True,3,1,4,0.20080520026385784,left,-
Y2-S2-203K22,18,SQUARES,First_showed,exp,45,15,True,2,0,-,0.15079789981245995,left,-
Y2-S2-203K22,19,SQUARES,First_showed,exp,45,15,False,2,1,5,0.8841212000697851,left,-
Y2-S2-203K22,20,SQUARES,First_showed,exp,45,15,True,3,0,-,0.4678023001179099,right,-
Y2-S2-203K22,21,SQUARES,First_showed,exp,45,15,True,3,0,-,0.2338976999744773,right,-
Y2-S2-203K22,22,SQUARES,First_showed,exp,45,15,True,3,1,6,0.20078680012375116,left,-
Y2-S2-203K22,23,SQUARES,First_showed,exp,45,15,True,2,0,-,0.25074789952486753,right,-
Y2-S2-203K22,24,SQUARES,First_showed,exp,45,15,True,2,0,-,0.1007595993578434,left,-
Y2-S2-203K22,25,SQUARES,First_showed,exp,45,15,False,2,1,7,0.5512078003957868,right,-
Y2-S2-203K22,26,SQUARES,First_showed,exp,45,15,True,3,0,-,0.5506728999316692,right,-
Y2-S2-203K22,27,SQUARES,First_showed,exp,45,15,True,3,0,-,0.28446680027991533,left,-
Y2-S2-203K22,28,SQUARES,First_showed,exp,45,15,True,3,1,8,0.2673011999577284,left,-
Y2-S2-203K22,29,SQUARES,First_showed,exp,45,15,True,2,0,-,0.2007819004356861,left,-
Y2-S2-203K22,30,SQUARES,First_showed,exp,45,15,True,2,0,-,0.1341704996302724,left,-
Y2-S2-203K22,31,SQUARES,First_showed,exp,45,15,False,2,1,9,3.3511364003643394,right,-
Y2-S2-203K22,32,SQUARES,First_showed,exp,45,15,True,3,0,-,0.7674525994807482,left,-
Y2-S2-203K22,33,SQUARES,First_showed,exp,45,15,True,3,0,-,0.23371249996125698,left,-
Y2-S2-203K22,34,SQUARES,First_showed,exp,45,15,True,3,1,10,0.18417529948055744,left,-
Y2-S2-203K22,35,SQUARES,First_showed,exp,45,15,True,2,0,-,0.23420100007206202,right,-
Y2-S2-203K22,36,SQUARES,First_showed,exp,45,15,True,2,0,-,0.25104259978979826,right,-
Y2-S2-203K22,37,SQUARES,First_showed,exp,45,15,True,2,0,-,0.38411120045930147,left,-
Y2-S2-203K22,38,SQUARES,First_showed,exp,45,15,False,1,1,11,0.2342435996979475,right,-
Y2-S2-203K22,39,SQUARES,First_showed,exp,45,15,True,2,0,-,0.3177020996809006,right,-
Y2-S2-203K22,40,SQUARES,First_showed,exp,45,15,True,2,0,-,0.25091269984841347,left,-
Y2-S2-203K22,41,SQUARES,First_showed,exp,45,15,True,2,1,12,0.3341572005301714,right,-
Y2-S2-203K22,42,SQUARES,First_showed,exp,45,15,True,1,0,-,0.2848354000598192,right,-
Y2-S2-203K22,43,SQUARES,First_showed,exp,45,15,True,1,0,-,0.23429829999804497,left,-
Y2-S2-203K22,44,SQUARES,First_showed,exp,45,15,True,1,0,-,0.31732149980962276,left,-
Y2-S2-203K22,45,SQUARES,First_showed,exp,45,15,False,0,1,13,0.23430220037698746,left,-
Y2-S2-203K22,46,SQUARES,First_showed,exp,45,15,True,1,0,-,0.25119540002197027,right,-
Y2-S2-203K22,47,SQUARES,First_showed,exp,45,15,True,1,0,-,0.1839312007650733,right,-
Y2-S2-203K22,48,SQUARES,First_showed,exp,45,15,True,1,1,14,0.18442729953676462,left,-
Y2-S2-203K22,49,SQUARES,First_showed,exp,45,15,True,0,0,-,0.551163800060749,left,-
Y2-S2-203K22,50,SQUARES,First_showed,exp,45,15,True,0,0,-,0.3841677997261286,left,-
Y2-S2-203K22,51,SQUARES,First_showed,exp,45,15,False,0,1,15,0.251095300540328,right,-
Y2-S2-203K22,52,SQUARES,First_showed,exp,45,15,False,1,0,-,0.2008935995399952,right,-
Y2-S2-203K22,53,SQUARES,First_showed,exp,45,15,True,2,0,-,0.23400260042399168,right,-
Y2-S2-203K22,54,SQUARES,First_showed,exp,45,15,True,2,0,-,0.2172972997650504,right,-
Y2-S2-203K22,55,SQUARES,First_showed,exp,45,15,True,2,1,16,0.3341224007308483,right,-
Y2-S2-203K22,1,CIRCLES,First_hidden,training,45,15,True,8,-,-,1.1010114001110196,left,-
Y2-S2-203K22,2,CIRCLES,First_hidden,training,45,15,False,8,-,-,0.7341775996610522,left,-
Y2-S2-203K22,3,CIRCLES,First_hidden,training,45,15,True,8,-,-,0.534183899872005,right,-
Y2-S2-203K22,4,CIRCLES,First_hidden,training,45,15,True,8,-,-,0.23407719936221838,left,-
Y2-S2-203K22,5,CIRCLES,First_hidden,training,45,15,True,8,-,-,0.15075729973614216,left,-
Y2-S2-203K22,6,CIRCLES,First_hidden,training,45,15,True,8,-,-,0.1675789998844266,left,-
Y2-S2-203K22,7,CIRCLES,First_hidden,training,45,15,True,8,-,-,0.28410409949719906,right,-
Y2-S2-203K22,8,CIRCLES,First_hidden,training,45,15,True,8,-,-,0.21749099995940924,right,-
Y2-S2-203K22,9,CIRCLES,First_hidden,training,45,15,True,8,-,-,0.20061109960079193,right,-
Y2-S2-203K22,10,CIRCLES,First_hidden,training,45,15,True,8,-,-,0.2508891001343727,right,-
Y2-S2-203K22,11,CIRCLES,First_hidden,training,45,15,True,3,-,-,0.4842977998778224,left,-
Y2-S2-203K22,12,CIRCLES,First_hidden,training,45,15,True,3,-,-,0.33406150061637163,right,-
Y2-S2-203K22,13,CIRCLES,First_hidden,training,45,15,True,3,-,-,0.36766620073467493,right,-
Y2-S2-203K22,14,CIRCLES,First_hidden,training,45,15,True,3,-,-,0.3340592999011278,left,-
Y2-S2-203K22,15,CIRCLES,First_hidden,training,45,15,True,3,-,-,0.33429190050810575,right,-
Y2-S2-203K22,16,CIRCLES,First_hidden,training,45,15,True,3,-,-,0.3179107001051307,right,-
Y2-S2-203K22,17,CIRCLES,First_hidden,training,45,15,True,3,-,-,0.35095319990068674,left,-
Y2-S2-203K22,18,CIRCLES,First_hidden,training,45,15,True,3,-,-,0.3341454993933439,right,-
Y2-S2-203K22,19,CIRCLES,First_hidden,training,45,15,True,3,-,-,0.3176274001598358,left,-
Y2-S2-203K22,20,CIRCLES,First_hidden,training,45,15,True,3,-,-,0.350883100181818,right,-
Y2-S2-203K22,1,CIRCLES,First_hidden,exp,45,15,True,3,0,0,0.46782319992780685,left,-
Y2-S2-203K22,2,CIRCLES,First_hidden,exp,45,15,True,3,0,-,0.33418519981205463,left,-
Y2-S2-203K22,3,CIRCLES,First_hidden,exp,45,15,True,3,0,-,0.3344104001298547,left,-
Y2-S2-203K22,4,CIRCLES,First_hidden,exp,45,15,True,2,0,-,0.4674746999517083,left,-
Y2-S2-203K22,5,CIRCLES,First_hidden,exp,45,15,True,2,0,-,0.4009859003126621,right,-
Y2-S2-203K22,6,CIRCLES,First_hidden,exp,45,15,True,2,0,-,0.4177220994606614,left,-
Y2-S2-203K22,7,CIRCLES,First_hidden,exp,45,15,False,1,1,1,0.6182511998340487,left,-
Y2-S2-203K22,8,CIRCLES,First_hidden,exp,45,15,True,2,0,-,0.4174620006233454,left,-
Y2-S2-203K22,9,CIRCLES,First_hidden,exp,45,15,True,2,0,-,0.38418709952384233,left,-
Y2-S2-203K22,10,CIRCLES,First_hidden,exp,45,15,True,2,1,2,0.45106090046465397,right,-
Y2-S2-203K22,11,CIRCLES,First_hidden,exp,45,15,False,1,1,3,0.8344320002943277,left,-
Y2-S2-203K22,12,CIRCLES,First_hidden,exp,45,15,True,2,0,-,0.3842500001192093,right,-
Y2-S2-203K22,13,CIRCLES,First_hidden,exp,45,15,True,2,0,-,0.4344309000298381,right,-
Y2-S2-203K22,14,CIRCLES,First_hidden,exp,45,15,True,2,1,4,0.41735919937491417,left,-
Y2-S2-203K22,15,CIRCLES,First_hidden,exp,45,15,True,1,0,-,0.41651870030909777,left,-
Y2-S2-203K22,16,CIRCLES,First_hidden,exp,45,15,True,1,0,-,0.5345040000975132,left,-
Y2-S2-203K22,17,CIRCLES,First_hidden,exp,45,15,True,1,0,-,0.618100699968636,left,-
Y2-S2-203K22,18,CIRCLES,First_hidden,exp,45,15,False,0,1,5,0.4172762995585799,right,-
Y2-S2-203K22,19,CIRCLES,First_hidden,exp,45,15,False,1,0,-,0.6509370999410748,right,-
Y2-S2-203K22,20,CIRCLES,First_hidden,exp,45,15,True,2,0,-,0.4343014992773533,left,-
Y2-S2-203K22,21,CIRCLES,First_hidden,exp,45,15,True,2,0,-,0.46727610006928444,right,-
Y2-S2-203K22,22,CIRCLES,First_hidden,exp,45,15,True,2,1,6,0.3675111001357436,right,-
Y2-S2-203K22,23,CIRCLES,First_hidden,exp,45,15,False,1,1,7,0.4508545994758606,right,-
Y2-S2-203K22,24,CIRCLES,First_hidden,exp,45,15,True,2,0,-,0.3508125999942422,right,-
Y2-S2-203K22,25,CIRCLES,First_hidden,exp,45,15,True,2,0,-,0.4174693999812007,right,-
Y2-S2-203K22,26,CIRCLES,First_hidden,exp,45,15,True,2,1,8,0.534087099134922,left,-
Y2-S2-203K22,27,CIRCLES,First_hidden,exp,45,15,True,1,0,-,0.1844452004879713,left,-
Y2-S2-203K22,28,CIRCLES,First_hidden,exp,45,15,False,1,1,9,0.3678364995867014,left,-
Y2-S2-203K22,29,CIRCLES,First_hidden,exp,45,15,True,2,0,-,0.5339691005647182,left,-
Y2-S2-203K22,30,CIRCLES,First_hidden,exp,45,15,True,2,0,-,0.4341804003342986,right,-
Y2-S2-203K22,31,CIRCLES,First_hidden,exp,45,15,True,2,1,10,0.3335683001205325,right,-
Y2-S2-203K22,32,CIRCLES,First_hidden,exp,45,15,True,1,0,-,0.45116820000112057,left,-
Y2-S2-203K22,33,CIRCLES,First_hidden,exp,45,15,True,1,0,-,0.5843147002160549,right,-
Y2-S2-203K22,34,CIRCLES,First_hidden,exp,45,15,False,1,1,11,0.5675593996420503,left,-
Y2-S2-203K22,35,CIRCLES,First_hidden,exp,45,15,True,2,0,-,0.4510425999760628,right,-
Y2-S2-203K22,36,CIRCLES,First_hidden,exp,45,15,False,2,0,-,0.6850712997838855,right,-
Y2-S2-203K22,37,CIRCLES,First_hidden,exp,45,15,True,3,0,-,0.5509174996986985,left,-
Y2-S2-203K22,38,CIRCLES,First_hidden,exp,45,15,True,3,0,-,0.5180110996589065,left,-
Y2-S2-203K22,39,CIRCLES,First_hidden,exp,45,15,True,3,1,12,0.5009867995977402,left,-
Y2-S2-203K22,40,CIRCLES,First_hidden,exp,45,15,True,2,0,-,0.4849394001066685,right,-
Y2-S2-203K22,41,CIRCLES,First_hidden,exp,45,15,True,2,0,-,0.8177409004420042,left,-
Y2-S2-203K22,42,CIRCLES,First_hidden,exp,45,15,True,2,0,-,0.38429069984704256,right,-
Y2-S2-203K22,43,CIRCLES,First_hidden,exp,45,15,True,1,0,-,0.4011054001748562,left,-
Y2-S2-203K22,44,CIRCLES,First_hidden,exp,45,15,False,1,1,13,0.56788370013237,left,-
Y2-S2-203K22,45,CIRCLES,First_hidden,exp,45,15,True,2,0,-,0.21731089986860752,left,-
Y2-S2-203K22,46,CIRCLES,First_hidden,exp,45,15,True,2,0,-,0.5338286003097892,left,-
Y2-S2-203K22,47,CIRCLES,First_hidden,exp,45,15,True,2,1,14,0.5675897002220154,left,-
Y2-S2-203K22,48,CIRCLES,First_hidden,exp,45,15,True,1,0,-,0.417420600540936,left,-
Y2-S2-203K22,49,CIRCLES,First_hidden,exp,45,15,True,1,0,-,0.4008280001580715,left,-
Y2-S2-203K22,50,CIRCLES,First_hidden,exp,45,15,True,1,0,-,0.30099370051175356,left,-
Y2-S2-203K22,51,CIRCLES,First_hidden,exp,45,15,False,0,1,15,0.5674661006778479,left,-
Y2-S2-203K22,52,CIRCLES,First_hidden,exp,45,15,True,1,0,-,1.0338075002655387,left,-
Y2-S2-203K22,53,CIRCLES,First_hidden,exp,45,15,True,1,0,-,0.4004908995702863,left,-
Y2-S2-203K22,54,CIRCLES,First_hidden,exp,45,15,True,1,1,16,0.23416880052536726,left,-
