PART_ID,Trial,Stimuli,Version,Training,FIXTIME,TIME,Correct,SOA,Reversal,Reversal_count,Latency,stim_name,Rating
Y2-S2-006K27,1,SQUARES,First_showed,training,45,15,True,8,-,-,0.16801019990816712,left,-
Y2-S2-006K27,2,SQUARES,First_showed,training,45,15,True,8,-,-,0.13431749981828034,left,-
Y2-S2-006K27,3,SQUARES,First_showed,training,45,15,True,8,-,-,0.7173818000592291,right,-
Y2-S2-006K27,4,SQUARES,First_showed,training,45,15,True,8,-,-,0.20064210006967187,right,-
Y2-S2-006K27,5,SQUARES,First_showed,training,45,15,True,8,-,-,0.2047184999100864,right,-
Y2-S2-006K27,6,SQUARES,First_showed,training,45,15,False,8,-,-,0.16752350004389882,left,-
Y2-S2-006K27,7,SQUARES,First_showed,training,45,15,True,8,-,-,0.10068769985809922,right,-
Y2-S2-006K27,8,SQUARES,First_showed,training,45,15,True,8,-,-,0.15088580013252795,left,-
Y2-S2-006K27,9,SQUARES,First_showed,training,45,15,True,8,-,-,0.21752050006762147,left,-
Y2-S2-006K27,10,SQUARES,First_showed,training,45,15,True,8,-,-,0.050846500089392066,right,-
Y2-S2-006K27,11,SQUARES,First_showed,training,45,15,False,3,-,-,0.11732789990492165,left,-
Y2-S2-006K27,12,SQUARES,First_showed,training,45,15,False,3,-,-,0.13435419998131692,right,-
Y2-S2-006K27,13,SQUARES,First_showed,training,45,15,True,3,-,-,0.20117909996770322,right,-
Y2-S2-006K27,14,SQUARES,First_showed,training,45,15,True,3,-,-,0.11794649995863438,right,-
Y2-S2-006K27,15,SQUARES,First_showed,training,45,15,True,3,-,-,0.06723599997349083,left,-
Y2-S2-006K27,16,SQUARES,First_showed,training,45,15,False,3,-,-,0.06758149992674589,left,-
Y2-S2-006K27,17,SQUARES,First_showed,training,45,15,True,3,-,-,0.3676952999085188,right,-
Y2-S2-006K27,18,SQUARES,First_showed,training,45,15,True,3,-,-,0.13469660002738237,left,-
Y2-S2-006K27,19,SQUARES,First_showed,training,45,15,True,3,-,-,0.40099869994446635,right,-
Y2-S2-006K27,20,SQUARES,First_showed,training,45,15,True,3,-,-,0.26736679999157786,right,-
Y2-S2-006K27,1,SQUARES,First_showed,exp,45,15,True,3,0,0,0.36774110002443194,right,-
Y2-S2-006K27,2,SQUARES,First_showed,exp,45,15,True,3,0,-,0.18398970016278327,left,-
Y2-S2-006K27,3,SQUARES,First_showed,exp,45,15,True,3,0,-,0.11712830001488328,right,-
Y2-S2-006K27,4,SQUARES,First_showed,exp,45,15,True,2,0,-,0.11788989999331534,left,-
Y2-S2-006K27,5,SQUARES,First_showed,exp,45,15,True,2,0,-,0.20115769980475307,left,-
Y2-S2-006K27,6,SQUARES,First_showed,exp,45,15,True,2,0,-,0.21720950002782047,left,-
Y2-S2-006K27,7,SQUARES,First_showed,exp,45,15,True,1,0,-,0.6006990000605583,left,-
Y2-S2-006K27,8,SQUARES,First_showed,exp,45,15,False,1,1,1,0.1509199000429362,left,-
Y2-S2-006K27,9,SQUARES,First_showed,exp,45,15,True,2,0,-,0.48422039998695254,right,-
Y2-S2-006K27,10,SQUARES,First_showed,exp,45,15,True,2,0,-,0.26786880008876324,right,-
Y2-S2-006K27,11,SQUARES,First_showed,exp,45,15,True,2,1,2,0.31773489993065596,right,-
Y2-S2-006K27,12,SQUARES,First_showed,exp,45,15,False,1,1,3,0.4010872000362724,left,-
Y2-S2-006K27,13,SQUARES,First_showed,exp,45,15,True,2,0,-,0.40072280005551875,left,-
Y2-S2-006K27,14,SQUARES,First_showed,exp,45,15,False,2,0,-,0.36811220017261803,right,-
Y2-S2-006K27,15,SQUARES,First_showed,exp,45,15,False,3,0,-,0.13438349985517561,left,-
Y2-S2-006K27,16,SQUARES,First_showed,exp,45,15,True,4,0,-,0.10087309987284243,left,-
Y2-S2-006K27,17,SQUARES,First_showed,exp,45,15,False,4,0,-,0.11718339985236526,right,-
Y2-S2-006K27,18,SQUARES,First_showed,exp,45,15,True,5,0,-,0.2674884998705238,left,-
Y2-S2-006K27,19,SQUARES,First_showed,exp,45,15,True,5,0,-,0.23411930003203452,left,-
Y2-S2-006K27,20,SQUARES,First_showed,exp,45,15,True,5,1,4,0.0846186000853777,left,-
Y2-S2-006K27,21,SQUARES,First_showed,exp,45,15,True,4,0,-,0.21764179994352162,right,-
Y2-S2-006K27,22,SQUARES,First_showed,exp,45,15,True,4,0,-,0.0008759000338613987,right,-
Y2-S2-006K27,23,SQUARES,First_showed,exp,45,15,True,4,0,-,0.2677112000528723,left,-
Y2-S2-006K27,24,SQUARES,First_showed,exp,45,15,True,3,0,-,0.21748460014350712,right,-
Y2-S2-006K27,25,SQUARES,First_showed,exp,45,15,True,3,0,-,0.08419029996730387,right,-
Y2-S2-006K27,26,SQUARES,First_showed,exp,45,15,True,3,0,-,0.3341942001134157,left,-
Y2-S2-006K27,27,SQUARES,First_showed,exp,45,15,False,2,1,5,0.017393900081515312,right,-
Y2-S2-006K27,28,SQUARES,First_showed,exp,45,15,True,3,0,-,0.017914700089022517,right,-
Y2-S2-006K27,29,SQUARES,First_showed,exp,45,15,True,3,0,-,0.1843053000047803,right,-
Y2-S2-006K27,30,SQUARES,First_showed,exp,45,15,True,3,1,6,0.2673824999947101,left,-
Y2-S2-006K27,31,SQUARES,First_showed,exp,45,15,False,2,1,7,0.06775940000079572,right,-
Y2-S2-006K27,32,SQUARES,First_showed,exp,45,15,True,3,0,-,0.06758229993283749,left,-
Y2-S2-006K27,33,SQUARES,First_showed,exp,45,15,True,3,0,-,0.13408559979870915,right,-
Y2-S2-006K27,34,SQUARES,First_showed,exp,45,15,True,3,1,8,0.016978600062429905,right,-
Y2-S2-006K27,35,SQUARES,First_showed,exp,45,15,False,2,1,9,0.2674171000253409,left,-
Y2-S2-006K27,36,SQUARES,First_showed,exp,45,15,False,3,0,-,0.9509580000303686,left,-
Y2-S2-006K27,37,SQUARES,First_showed,exp,45,15,True,4,0,-,0.08429229981265962,right,-
Y2-S2-006K27,38,SQUARES,First_showed,exp,45,15,False,4,0,-,0.0009693000465631485,left,-
Y2-S2-006K27,39,SQUARES,First_showed,exp,45,15,False,5,0,-,0.7013344999868423,left,-
Y2-S2-006K27,40,SQUARES,First_showed,exp,45,15,True,6,0,-,0.23397730011492968,left,-
Y2-S2-006K27,41,SQUARES,First_showed,exp,45,15,True,6,0,-,0.2009521999862045,right,-
Y2-S2-006K27,42,SQUARES,First_showed,exp,45,15,True,6,1,10,0.08431329997256398,right,-
Y2-S2-006K27,43,SQUARES,First_showed,exp,45,15,True,5,0,-,0.2672319000121206,left,-
Y2-S2-006K27,44,SQUARES,First_showed,exp,45,15,True,5,0,-,0.30114260013215244,right,-
Y2-S2-006K27,45,SQUARES,First_showed,exp,45,15,True,5,0,-,0.18472980009391904,left,-
Y2-S2-006K27,46,SQUARES,First_showed,exp,45,15,True,4,0,-,0.550543799996376,right,-
Y2-S2-006K27,47,SQUARES,First_showed,exp,45,15,True,4,0,-,0.26768309995532036,left,-
Y2-S2-006K27,48,SQUARES,First_showed,exp,45,15,True,4,0,-,0.13403990003280342,right,-
Y2-S2-006K27,49,SQUARES,First_showed,exp,45,15,False,3,1,11,0.050861400086432695,left,-
Y2-S2-006K27,50,SQUARES,First_showed,exp,45,15,True,4,0,-,0.2676000001374632,right,-
Y2-S2-006K27,51,SQUARES,First_showed,exp,45,15,True,4,0,-,0.3013838999904692,right,-
Y2-S2-006K27,52,SQUARES,First_showed,exp,45,15,True,4,1,12,0.13428879994899035,right,-
Y2-S2-006K27,53,SQUARES,First_showed,exp,45,15,False,3,1,13,0.38456890010274947,left,-
Y2-S2-006K27,54,SQUARES,First_showed,exp,45,15,True,4,0,-,0.3350615999661386,right,-
Y2-S2-006K27,55,SQUARES,First_showed,exp,45,15,True,4,0,-,0.301368199987337,left,-
Y2-S2-006K27,56,SQUARES,First_showed,exp,45,15,True,4,1,14,0.11750989989377558,left,-
Y2-S2-006K27,57,SQUARES,First_showed,exp,45,15,False,3,1,15,0.23397749988362193,right,-
Y2-S2-006K27,58,SQUARES,First_showed,exp,45,15,True,4,0,-,0.06804849999025464,left,-
Y2-S2-006K27,59,SQUARES,First_showed,exp,45,15,False,4,0,-,0.16803910001181066,right,-
Y2-S2-006K27,60,SQUARES,First_showed,exp,45,15,True,5,0,-,0.01782090007327497,right,-
Y2-S2-006K27,61,SQUARES,First_showed,exp,45,15,True,5,0,-,0.2676299000158906,left,-
Y2-S2-006K27,62,SQUARES,First_showed,exp,45,15,True,5,1,16,0.13442109990864992,right,-
Y2-S2-006K27,1,CIRCLES,First_hidden,training,45,15,True,8,-,-,0.4343495999928564,right,-
Y2-S2-006K27,2,CIRCLES,First_hidden,training,45,15,True,8,-,-,0.3009049999527633,right,-
Y2-S2-006K27,3,CIRCLES,First_hidden,training,45,15,True,8,-,-,0.23422049987129867,right,-
Y2-S2-006K27,4,CIRCLES,First_hidden,training,45,15,True,8,-,-,0.3341332001145929,right,-
Y2-S2-006K27,5,CIRCLES,First_hidden,training,45,15,True,8,-,-,0.2839212000835687,left,-
Y2-S2-006K27,6,CIRCLES,First_hidden,training,45,15,True,8,-,-,0.25038390001282096,right,-
Y2-S2-006K27,7,CIRCLES,First_hidden,training,45,15,True,8,-,-,0.26742300018668175,left,-
Y2-S2-006K27,8,CIRCLES,First_hidden,training,45,15,True,8,-,-,0.2343512000516057,left,-
Y2-S2-006K27,9,CIRCLES,First_hidden,training,45,15,True,8,-,-,0.20060290000401437,left,-
Y2-S2-006K27,10,CIRCLES,First_hidden,training,45,15,True,8,-,-,0.31733549991622567,right,-
Y2-S2-006K27,11,CIRCLES,First_hidden,training,45,15,True,3,-,-,0.35086700017564,left,-
Y2-S2-006K27,12,CIRCLES,First_hidden,training,45,15,True,3,-,-,0.3675412000156939,right,-
Y2-S2-006K27,13,CIRCLES,First_hidden,training,45,15,True,3,-,-,0.45080039999447763,right,-
Y2-S2-006K27,14,CIRCLES,First_hidden,training,45,15,True,3,-,-,0.3675269999075681,right,-
Y2-S2-006K27,15,CIRCLES,First_hidden,training,45,15,True,3,-,-,0.4012569000478834,left,-
Y2-S2-006K27,16,CIRCLES,First_hidden,training,45,15,True,3,-,-,0.3177833999507129,left,-
Y2-S2-006K27,17,CIRCLES,First_hidden,training,45,15,True,3,-,-,0.4337162999436259,right,-
Y2-S2-006K27,18,CIRCLES,First_hidden,training,45,15,False,3,-,-,0.017764999996870756,left,-
Y2-S2-006K27,19,CIRCLES,First_hidden,training,45,15,True,3,-,-,0.25071800011210144,left,-
Y2-S2-006K27,20,CIRCLES,First_hidden,training,45,15,True,3,-,-,0.2843359000980854,left,-
Y2-S2-006K27,1,CIRCLES,First_hidden,exp,45,15,True,3,0,0,0.46757390000857413,right,-
Y2-S2-006K27,2,CIRCLES,First_hidden,exp,45,15,True,3,0,-,0.35149529995396733,left,-
Y2-S2-006K27,3,CIRCLES,First_hidden,exp,45,15,True,3,0,-,0.31751930015161633,left,-
Y2-S2-006K27,4,CIRCLES,First_hidden,exp,45,15,True,2,0,-,0.46765709994360805,right,-
Y2-S2-006K27,5,CIRCLES,First_hidden,exp,45,15,True,2,0,-,0.36738909990526736,left,-
Y2-S2-006K27,6,CIRCLES,First_hidden,exp,45,15,False,2,1,1,0.35109749995172024,right,-
Y2-S2-006K27,7,CIRCLES,First_hidden,exp,45,15,False,3,0,-,1.117727099917829,right,-
Y2-S2-006K27,8,CIRCLES,First_hidden,exp,45,15,True,4,0,-,0.3673082999885082,left,-
Y2-S2-006K27,9,CIRCLES,First_hidden,exp,45,15,True,4,0,-,0.3010960000101477,right,-
Y2-S2-006K27,10,CIRCLES,First_hidden,exp,45,15,True,4,1,2,0.3339315000921488,right,-
Y2-S2-006K27,11,CIRCLES,First_hidden,exp,45,15,True,3,0,-,0.41793689993210137,left,-
Y2-S2-006K27,12,CIRCLES,First_hidden,exp,45,15,True,3,0,-,0.301220600027591,left,-
Y2-S2-006K27,13,CIRCLES,First_hidden,exp,45,15,False,3,1,3,0.3842606998514384,right,-
Y2-S2-006K27,14,CIRCLES,First_hidden,exp,45,15,True,4,0,-,0.36719210003502667,right,-
Y2-S2-006K27,15,CIRCLES,First_hidden,exp,45,15,True,4,0,-,0.35097269993275404,left,-
Y2-S2-006K27,16,CIRCLES,First_hidden,exp,45,15,True,4,1,4,0.28547440003603697,left,-
Y2-S2-006K27,17,CIRCLES,First_hidden,exp,45,15,True,3,0,-,0.4011930001433939,right,-
Y2-S2-006K27,18,CIRCLES,First_hidden,exp,45,15,True,3,0,-,0.3503755999263376,right,-
Y2-S2-006K27,19,CIRCLES,First_hidden,exp,45,15,True,3,0,-,0.3175162000115961,left,-
Y2-S2-006K27,20,CIRCLES,First_hidden,exp,45,15,True,2,0,-,0.40105480002239347,left,-
Y2-S2-006K27,21,CIRCLES,First_hidden,exp,45,15,True,2,0,-,0.06735190004110336,left,-
Y2-S2-006K27,22,CIRCLES,First_hidden,exp,45,15,False,2,1,5,0.2681166999973357,right,-
Y2-S2-006K27,23,CIRCLES,First_hidden,exp,45,15,True,3,0,-,0.9006463999394327,left,-
Y2-S2-006K27,24,CIRCLES,First_hidden,exp,45,15,True,3,0,-,0.40092229982838035,right,-
Y2-S2-006K27,25,CIRCLES,First_hidden,exp,45,15,True,3,1,6,0.40123529988341033,left,-
Y2-S2-006K27,26,CIRCLES,First_hidden,exp,45,15,True,2,0,-,0.4015532999765128,right,-
Y2-S2-006K27,27,CIRCLES,First_hidden,exp,45,15,True,2,0,-,0.4343280999455601,right,-
Y2-S2-006K27,28,CIRCLES,First_hidden,exp,45,15,True,2,0,-,0.317243600031361,left,-
Y2-S2-006K27,29,CIRCLES,First_hidden,exp,45,15,True,1,0,-,0.3508903000038117,left,-
Y2-S2-006K27,30,CIRCLES,First_hidden,exp,45,15,True,1,0,-,0.16734639997594059,left,-
Y2-S2-006K27,31,CIRCLES,First_hidden,exp,45,15,True,1,0,-,0.3175833998247981,left,-
Y2-S2-006K27,32,CIRCLES,First_hidden,exp,45,15,False,0,1,7,0.4010827001184225,right,-
Y2-S2-006K27,33,CIRCLES,First_hidden,exp,45,15,False,1,0,-,0.35109689994715154,left,-
Y2-S2-006K27,34,CIRCLES,First_hidden,exp,45,15,True,2,0,-,0.434122399892658,left,-
Y2-S2-006K27,35,CIRCLES,First_hidden,exp,45,15,True,2,0,-,0.4176862998865545,left,-
Y2-S2-006K27,36,CIRCLES,First_hidden,exp,45,15,True,2,1,8,0.38434320013038814,left,-
Y2-S2-006K27,37,CIRCLES,First_hidden,exp,45,15,False,1,1,9,0.4844363001175225,right,-
Y2-S2-006K27,38,CIRCLES,First_hidden,exp,45,15,True,2,0,-,0.6842630000319332,left,-
Y2-S2-006K27,39,CIRCLES,First_hidden,exp,45,15,False,2,0,-,0.0342981000430882,right,-
Y2-S2-006K27,40,CIRCLES,First_hidden,exp,45,15,True,3,0,-,0.28420170000754297,left,-
Y2-S2-006K27,41,CIRCLES,First_hidden,exp,45,15,True,3,0,-,0.10087620001286268,left,-
Y2-S2-006K27,42,CIRCLES,First_hidden,exp,45,15,False,3,0,-,0.28403960005380213,right,-
Y2-S2-006K27,43,CIRCLES,First_hidden,exp,45,15,False,4,0,-,0.0009490998927503824,right,-
Y2-S2-006K27,44,CIRCLES,First_hidden,exp,45,15,False,5,0,-,0.16752359992824495,right,-
Y2-S2-006K27,45,CIRCLES,First_hidden,exp,45,15,True,6,0,-,0.46704709995537996,left,-
Y2-S2-006K27,46,CIRCLES,First_hidden,exp,45,15,True,6,0,-,0.38458209997043014,left,-
Y2-S2-006K27,47,CIRCLES,First_hidden,exp,45,15,True,6,1,10,0.3506640999112278,left,-
Y2-S2-006K27,48,CIRCLES,First_hidden,exp,45,15,True,5,0,-,0.45103199989534914,right,-
Y2-S2-006K27,49,CIRCLES,First_hidden,exp,45,15,True,5,0,-,0.15111290011554956,left,-
Y2-S2-006K27,50,CIRCLES,First_hidden,exp,45,15,True,5,0,-,0.0677434999961406,left,-
Y2-S2-006K27,51,CIRCLES,First_hidden,exp,45,15,False,4,1,11,0.08474040008150041,right,-
Y2-S2-006K27,52,CIRCLES,First_hidden,exp,45,15,True,5,0,-,0.28460230003111064,left,-
Y2-S2-006K27,53,CIRCLES,First_hidden,exp,45,15,True,5,0,-,0.28482229984365404,left,-
Y2-S2-006K27,54,CIRCLES,First_hidden,exp,45,15,False,5,0,-,0.01761970017105341,right,-
Y2-S2-006K27,55,CIRCLES,First_hidden,exp,45,15,False,6,0,-,0.3007402999792248,right,-
Y2-S2-006K27,56,CIRCLES,First_hidden,exp,45,15,True,7,0,-,0.25088270008563995,right,-
Y2-S2-006K27,57,CIRCLES,First_hidden,exp,45,15,True,7,0,-,0.11746270000003278,right,-
Y2-S2-006K27,58,CIRCLES,First_hidden,exp,45,15,False,7,0,-,0.3847645001951605,left,-
Y2-S2-006K27,59,CIRCLES,First_hidden,exp,45,15,False,8,0,-,0.43426610017195344,left,-
Y2-S2-006K27,60,CIRCLES,First_hidden,exp,45,15,False,9,0,-,0.21719340002164245,right,-
Y2-S2-006K27,61,CIRCLES,First_hidden,exp,45,15,True,10,0,-,0.1830096000339836,left,-
Y2-S2-006K27,62,CIRCLES,First_hidden,exp,45,15,False,10,0,-,0.45070570008829236,right,-
Y2-S2-006K27,63,CIRCLES,First_hidden,exp,45,15,False,11,0,-,0.35096660000272095,right,-
Y2-S2-006K27,64,CIRCLES,First_hidden,exp,45,15,False,12,0,-,0.36779820010997355,right,-
Y2-S2-006K27,65,CIRCLES,First_hidden,exp,45,15,False,13,0,-,0.3508063000626862,right,-
Y2-S2-006K27,66,CIRCLES,First_hidden,exp,45,15,False,14,0,-,0.9009936000220478,left,-
Y2-S2-006K27,67,CIRCLES,First_hidden,exp,45,15,True,15,0,-,0.38392739999108016,right,-
Y2-S2-006K27,68,CIRCLES,First_hidden,exp,45,15,True,15,0,-,0.20098880003206432,left,-
Y2-S2-006K27,69,CIRCLES,First_hidden,exp,45,15,True,15,1,12,0.11751380003988743,left,-
Y2-S2-006K27,70,CIRCLES,First_hidden,exp,45,15,False,14,1,13,0.18433579988777637,right,-
Y2-S2-006K27,71,CIRCLES,First_hidden,exp,45,15,False,15,0,-,0.5177436999510974,left,-
Y2-S2-006K27,72,CIRCLES,First_hidden,exp,45,15,True,16,0,-,0.08392959996126592,right,-
Y2-S2-006K27,73,CIRCLES,First_hidden,exp,45,15,True,16,0,-,0.05081589985638857,right,-
Y2-S2-006K27,74,CIRCLES,First_hidden,exp,45,15,True,16,1,14,0.1678416000213474,right,-
Y2-S2-006K27,75,CIRCLES,First_hidden,exp,45,15,True,15,0,-,0.06724320002831519,right,-
Y2-S2-006K27,76,CIRCLES,First_hidden,exp,45,15,True,15,0,-,0.23392240004613996,right,-
Y2-S2-006K27,77,CIRCLES,First_hidden,exp,45,15,True,15,0,-,0.16754749999381602,right,-
Y2-S2-006K27,78,CIRCLES,First_hidden,exp,45,15,True,14,0,-,0.03412600001320243,right,-
Y2-S2-006K27,79,CIRCLES,First_hidden,exp,45,15,False,14,1,15,0.16772649995982647,left,-
Y2-S2-006K27,80,CIRCLES,First_hidden,exp,45,15,False,15,0,-,0.13400399987585843,left,-
Y2-S2-006K27,81,CIRCLES,First_hidden,exp,45,15,False,16,0,-,0.08404459990561008,left,-
Y2-S2-006K27,82,CIRCLES,First_hidden,exp,45,15,True,17,0,-,0.35066950018517673,right,-
Y2-S2-006K27,83,CIRCLES,First_hidden,exp,45,15,True,17,0,-,0.6507808999158442,right,-
Y2-S2-006K27,84,CIRCLES,First_hidden,exp,45,15,True,17,1,16,0.20077190012671053,right,-
