PART_ID,Trial,Stimuli,Version,Training,FIXTIME,TIME,Correct,SOA,Reversal,Reversal_count,Latency,stim_name,Rating
Y2-S2-056M23,1,SQUARES,First_showed,training,45,15,True,8,-,-,0.46749810001347214,left,-
Y2-S2-056M23,2,SQUARES,First_showed,training,45,15,True,8,-,-,0.4165048999711871,left,-
Y2-S2-056M23,3,SQUARES,First_showed,training,45,15,True,8,-,-,0.5344395000720397,left,-
Y2-S2-056M23,4,SQUARES,First_showed,training,45,15,True,8,-,-,0.10081510001327842,right,-
Y2-S2-056M23,5,SQUARES,First_showed,training,45,15,True,8,-,-,0.1839942999649793,right,-
Y2-S2-056M23,6,SQUARES,First_showed,training,45,15,True,8,-,-,0.08410480001475662,left,-
Y2-S2-056M23,7,SQUARES,First_showed,training,45,15,True,8,-,-,0.3010655000107363,left,-
Y2-S2-056M23,8,SQUARES,First_showed,training,45,15,True,8,-,-,0.13369699998293072,left,-
Y2-S2-056M23,9,SQUARES,First_showed,training,45,15,True,8,-,-,0.10029869992285967,right,-
Y2-S2-056M23,10,SQUARES,First_showed,training,45,15,True,8,-,-,0.4181091000791639,right,-
Y2-S2-056M23,11,SQUARES,First_showed,training,45,15,True,3,-,-,0.23398699995595962,right,-
Y2-S2-056M23,12,SQUARES,First_showed,training,45,15,True,3,-,-,0.38519399997312576,left,-
Y2-S2-056M23,13,SQUARES,First_showed,training,45,15,True,3,-,-,0.31762389990035444,left,-
Y2-S2-056M23,14,SQUARES,First_showed,training,45,15,True,3,-,-,0.21760950004681945,right,-
Y2-S2-056M23,15,SQUARES,First_showed,training,45,15,True,3,-,-,0.3340374000836164,right,-
Y2-S2-056M23,16,SQUARES,First_showed,training,45,15,True,3,-,-,0.3676120999734849,right,-
Y2-S2-056M23,17,SQUARES,First_showed,training,45,15,True,3,-,-,0.33414249995257705,right,-
Y2-S2-056M23,18,SQUARES,First_showed,training,45,15,True,3,-,-,0.28431470005307347,right,-
Y2-S2-056M23,19,SQUARES,First_showed,training,45,15,True,3,-,-,0.20089030009694397,right,-
Y2-S2-056M23,20,SQUARES,First_showed,training,45,15,True,3,-,-,0.13409990002401173,right,-
Y2-S2-056M23,1,SQUARES,First_showed,exp,45,15,True,3,0,0,0.5178293000208214,left,-
Y2-S2-056M23,2,SQUARES,First_showed,exp,45,15,True,3,0,-,0.200555199990049,right,-
Y2-S2-056M23,3,SQUARES,First_showed,exp,45,15,True,3,0,-,0.2839823999674991,left,-
Y2-S2-056M23,4,SQUARES,First_showed,exp,45,15,True,2,0,-,0.28438219998497516,right,-
Y2-S2-056M23,5,SQUARES,First_showed,exp,45,15,True,2,0,-,0.234735400066711,left,-
Y2-S2-056M23,6,SQUARES,First_showed,exp,45,15,True,2,0,-,0.23444179992657155,left,-
Y2-S2-056M23,7,SQUARES,First_showed,exp,45,15,True,1,0,-,0.367829900002107,right,-
Y2-S2-056M23,8,SQUARES,First_showed,exp,45,15,False,1,1,1,0.4842624000739306,left,-
Y2-S2-056M23,9,SQUARES,First_showed,exp,45,15,True,2,0,-,0.21727509994525462,left,-
Y2-S2-056M23,10,SQUARES,First_showed,exp,45,15,True,2,0,-,0.21761299995705485,left,-
Y2-S2-056M23,11,SQUARES,First_showed,exp,45,15,True,2,1,2,0.20092020009178668,left,-
Y2-S2-056M23,12,SQUARES,First_showed,exp,45,15,False,1,1,3,0.18425990000832826,right,-
Y2-S2-056M23,13,SQUARES,First_showed,exp,45,15,False,2,0,-,3.134209500043653,right,-
Y2-S2-056M23,14,SQUARES,First_showed,exp,45,15,False,3,0,-,0.5510161999845877,left,-
Y2-S2-056M23,15,SQUARES,First_showed,exp,45,15,True,4,0,-,0.46762030001264066,left,-
Y2-S2-056M23,16,SQUARES,First_showed,exp,45,15,True,4,0,-,1.3169559999369085,right,-
Y2-S2-056M23,17,SQUARES,First_showed,exp,45,15,True,4,1,4,0.41747860005125403,left,-
Y2-S2-056M23,18,SQUARES,First_showed,exp,45,15,True,3,0,-,0.45066950004547834,right,-
Y2-S2-056M23,19,SQUARES,First_showed,exp,45,15,True,3,0,-,0.284226999967359,right,-
Y2-S2-056M23,20,SQUARES,First_showed,exp,45,15,True,3,0,-,0.23443710000719875,right,-
Y2-S2-056M23,21,SQUARES,First_showed,exp,45,15,True,2,0,-,0.2678269000025466,right,-
Y2-S2-056M23,22,SQUARES,First_showed,exp,45,15,True,2,0,-,0.15081470005679876,left,-
Y2-S2-056M23,23,SQUARES,First_showed,exp,45,15,True,2,0,-,0.3506576999789104,right,-
Y2-S2-056M23,24,SQUARES,First_showed,exp,45,15,True,1,0,-,0.38440570002421737,left,-
Y2-S2-056M23,25,SQUARES,First_showed,exp,45,15,False,1,1,5,0.801062099984847,left,-
Y2-S2-056M23,26,SQUARES,First_showed,exp,45,15,True,2,0,-,0.28386440000031143,left,-
Y2-S2-056M23,27,SQUARES,First_showed,exp,45,15,False,2,0,-,0.6511746000032872,right,-
Y2-S2-056M23,28,SQUARES,First_showed,exp,45,15,True,3,0,-,0.18409830005839467,left,-
Y2-S2-056M23,29,SQUARES,First_showed,exp,45,15,True,3,0,-,0.20099829998798668,right,-
Y2-S2-056M23,30,SQUARES,First_showed,exp,45,15,True,3,1,6,0.7510738000273705,right,-
Y2-S2-056M23,31,SQUARES,First_showed,exp,45,15,True,2,0,-,0.5008077999809757,right,-
Y2-S2-056M23,32,SQUARES,First_showed,exp,45,15,True,2,0,-,0.28409059997648,left,-
Y2-S2-056M23,33,SQUARES,First_showed,exp,45,15,True,2,0,-,0.21729539998341352,left,-
Y2-S2-056M23,34,SQUARES,First_showed,exp,45,15,True,1,0,-,0.46763470000587404,right,-
Y2-S2-056M23,35,SQUARES,First_showed,exp,45,15,False,1,1,7,0.6673965000081807,right,-
Y2-S2-056M23,36,SQUARES,First_showed,exp,45,15,True,2,0,-,0.3008343999972567,right,-
Y2-S2-056M23,37,SQUARES,First_showed,exp,45,15,True,2,0,-,0.1839398000156507,left,-
Y2-S2-056M23,38,SQUARES,First_showed,exp,45,15,False,2,0,-,0.9848979000234976,right,-
Y2-S2-056M23,39,SQUARES,First_showed,exp,45,15,True,3,0,-,0.3008613999700174,left,-
Y2-S2-056M23,40,SQUARES,First_showed,exp,45,15,True,3,0,-,0.5012473999522626,right,-
Y2-S2-056M23,41,SQUARES,First_showed,exp,45,15,True,3,1,8,0.25084290001541376,left,-
Y2-S2-056M23,42,SQUARES,First_showed,exp,45,15,True,2,0,-,0.4675782999256626,right,-
Y2-S2-056M23,43,SQUARES,First_showed,exp,45,15,True,2,0,-,0.23413019999861717,left,-
Y2-S2-056M23,44,SQUARES,First_showed,exp,45,15,True,2,0,-,0.8342930999351665,right,-
Y2-S2-056M23,45,SQUARES,First_showed,exp,45,15,True,1,0,-,0.7845546000171453,left,-
Y2-S2-056M23,46,SQUARES,First_showed,exp,45,15,False,1,1,9,1.0846391000086442,right,-
Y2-S2-056M23,47,SQUARES,First_showed,exp,45,15,True,2,0,-,0.28414690005593,left,-
Y2-S2-056M23,48,SQUARES,First_showed,exp,45,15,True,2,0,-,0.41778090002480894,left,-
Y2-S2-056M23,49,SQUARES,First_showed,exp,45,15,True,2,1,10,0.21742160001304,left,-
Y2-S2-056M23,50,SQUARES,First_showed,exp,45,15,False,1,1,11,1.4841249999590218,left,-
Y2-S2-056M23,51,SQUARES,First_showed,exp,45,15,True,2,0,-,0.3343612999888137,right,-
Y2-S2-056M23,52,SQUARES,First_showed,exp,45,15,True,2,0,-,0.21798960003070533,right,-
Y2-S2-056M23,53,SQUARES,First_showed,exp,45,15,True,2,1,12,0.38413759996183217,right,-
Y2-S2-056M23,54,SQUARES,First_showed,exp,45,15,True,1,0,-,1.01763919997029,right,-
Y2-S2-056M23,55,SQUARES,First_showed,exp,45,15,True,1,0,-,0.5509253999916837,right,-
Y2-S2-056M23,56,SQUARES,First_showed,exp,45,15,False,1,1,13,0.2842610999941826,left,-
Y2-S2-056M23,57,SQUARES,First_showed,exp,45,15,True,2,0,-,0.21771789994090796,right,-
Y2-S2-056M23,58,SQUARES,First_showed,exp,45,15,True,2,0,-,0.45004809997044504,left,-
Y2-S2-056M23,59,SQUARES,First_showed,exp,45,15,True,2,1,14,0.5837770000798628,right,-
Y2-S2-056M23,60,SQUARES,First_showed,exp,45,15,True,1,0,-,0.5841329999966547,left,-
Y2-S2-056M23,61,SQUARES,First_showed,exp,45,15,True,1,0,-,0.5006224999669939,left,-
Y2-S2-056M23,62,SQUARES,First_showed,exp,45,15,False,1,1,15,0.8840759999584407,right,-
Y2-S2-056M23,63,SQUARES,First_showed,exp,45,15,True,2,0,-,0.2510269999038428,left,-
Y2-S2-056M23,64,SQUARES,First_showed,exp,45,15,True,2,0,-,0.20165659999474883,left,-
Y2-S2-056M23,65,SQUARES,First_showed,exp,45,15,True,2,1,16,0.45076480007264763,right,-
Y2-S2-056M23,1,CIRCLES,First_hidden,training,45,15,True,8,-,-,0.5341730000218377,left,-
Y2-S2-056M23,2,CIRCLES,First_hidden,training,45,15,True,8,-,-,0.450695600011386,right,-
Y2-S2-056M23,3,CIRCLES,First_hidden,training,45,15,True,8,-,-,0.4009797000326216,right,-
Y2-S2-056M23,4,CIRCLES,First_hidden,training,45,15,True,8,-,-,0.351336499908939,left,-
Y2-S2-056M23,5,CIRCLES,First_hidden,training,45,15,True,8,-,-,2.0173926000716165,left,-
Y2-S2-056M23,6,CIRCLES,First_hidden,training,45,15,True,8,-,-,0.5677817000541836,right,-
Y2-S2-056M23,7,CIRCLES,First_hidden,training,45,15,True,8,-,-,0.4670490000862628,left,-
Y2-S2-056M23,8,CIRCLES,First_hidden,training,45,15,True,8,-,-,0.3842116000596434,right,-
Y2-S2-056M23,9,CIRCLES,First_hidden,training,45,15,True,8,-,-,0.8510741000063717,left,-
Y2-S2-056M23,10,CIRCLES,First_hidden,training,45,15,True,8,-,-,0.3674757999833673,left,-
Y2-S2-056M23,11,CIRCLES,First_hidden,training,45,15,True,3,-,-,0.5845046000322327,right,-
Y2-S2-056M23,12,CIRCLES,First_hidden,training,45,15,True,3,-,-,0.8006424999330193,left,-
Y2-S2-056M23,13,CIRCLES,First_hidden,training,45,15,True,3,-,-,1.1343939000507817,left,-
Y2-S2-056M23,14,CIRCLES,First_hidden,training,45,15,False,3,-,-,1.2174982998985797,right,-
Y2-S2-056M23,15,CIRCLES,First_hidden,training,45,15,True,3,-,-,0.500880700070411,right,-
Y2-S2-056M23,16,CIRCLES,First_hidden,training,45,15,True,3,-,-,0.9842069000005722,left,-
Y2-S2-056M23,17,CIRCLES,First_hidden,training,45,15,True,3,-,-,0.6010013000341132,left,-
Y2-S2-056M23,18,CIRCLES,First_hidden,training,45,15,True,3,-,-,0.5674357000971213,left,-
Y2-S2-056M23,19,CIRCLES,First_hidden,training,45,15,False,3,-,-,0.6841427999315783,left,-
Y2-S2-056M23,20,CIRCLES,First_hidden,training,45,15,True,3,-,-,0.7508056000806391,left,-
Y2-S2-056M23,1,CIRCLES,First_hidden,exp,45,15,True,3,0,0,0.7011626999592409,left,-
Y2-S2-056M23,2,CIRCLES,First_hidden,exp,45,15,True,3,0,-,0.6845652000047266,left,-
Y2-S2-056M23,3,CIRCLES,First_hidden,exp,45,15,True,3,0,-,0.40077930002007633,right,-
Y2-S2-056M23,4,CIRCLES,First_hidden,exp,45,15,True,2,0,-,0.6676303000422195,right,-
Y2-S2-056M23,5,CIRCLES,First_hidden,exp,45,15,True,2,0,-,0.6339566999813542,right,-
Y2-S2-056M23,6,CIRCLES,First_hidden,exp,45,15,True,2,0,-,0.4513111999258399,right,-
Y2-S2-056M23,7,CIRCLES,First_hidden,exp,45,15,True,1,0,-,0.5676922999555245,left,-
Y2-S2-056M23,8,CIRCLES,First_hidden,exp,45,15,True,1,0,-,0.5012429000344127,right,-
Y2-S2-056M23,9,CIRCLES,First_hidden,exp,45,15,False,1,1,1,1.2509943000040948,left,-
Y2-S2-056M23,10,CIRCLES,First_hidden,exp,45,15,True,2,0,-,0.9504649000009522,right,-
Y2-S2-056M23,11,CIRCLES,First_hidden,exp,45,15,True,2,0,-,0.6176216000458226,right,-
Y2-S2-056M23,12,CIRCLES,First_hidden,exp,45,15,False,2,0,-,1.0010092000011355,left,-
Y2-S2-056M23,13,CIRCLES,First_hidden,exp,45,15,False,3,0,-,1.151206300011836,left,-
Y2-S2-056M23,14,CIRCLES,First_hidden,exp,45,15,False,4,0,-,2.1346698000561446,left,-
Y2-S2-056M23,15,CIRCLES,First_hidden,exp,45,15,True,5,0,-,0.5176636000396684,right,-
Y2-S2-056M23,16,CIRCLES,First_hidden,exp,45,15,True,5,0,-,0.617862300015986,left,-
Y2-S2-056M23,17,CIRCLES,First_hidden,exp,45,15,True,5,1,2,0.4179918000008911,right,-
Y2-S2-056M23,18,CIRCLES,First_hidden,exp,45,15,True,4,0,-,0.41761970007792115,right,-
Y2-S2-056M23,19,CIRCLES,First_hidden,exp,45,15,True,4,0,-,0.384301699930802,right,-
Y2-S2-056M23,20,CIRCLES,First_hidden,exp,45,15,True,4,0,-,0.31747789995279163,right,-
Y2-S2-056M23,21,CIRCLES,First_hidden,exp,45,15,True,3,0,-,0.5005044999998063,left,-
Y2-S2-056M23,22,CIRCLES,First_hidden,exp,45,15,True,3,0,-,0.3842095999279991,right,-
Y2-S2-056M23,23,CIRCLES,First_hidden,exp,45,15,True,3,0,-,0.4342262001009658,left,-
Y2-S2-056M23,24,CIRCLES,First_hidden,exp,45,15,True,2,0,-,0.3842376999091357,left,-
Y2-S2-056M23,25,CIRCLES,First_hidden,exp,45,15,True,2,0,-,0.4174102999968454,right,-
Y2-S2-056M23,26,CIRCLES,First_hidden,exp,45,15,True,2,0,-,0.43405439995694906,right,-
Y2-S2-056M23,27,CIRCLES,First_hidden,exp,45,15,True,1,0,-,0.7173622000264004,left,-
Y2-S2-056M23,28,CIRCLES,First_hidden,exp,45,15,True,1,0,-,0.5675914000021294,right,-
Y2-S2-056M23,29,CIRCLES,First_hidden,exp,45,15,True,1,0,-,0.46740969992242754,right,-
Y2-S2-056M23,30,CIRCLES,First_hidden,exp,45,15,True,0,0,-,0.8341033000033349,right,-
Y2-S2-056M23,31,CIRCLES,First_hidden,exp,45,15,True,0,0,-,0.5676534998929128,right,-
Y2-S2-056M23,32,CIRCLES,First_hidden,exp,45,15,False,0,1,3,0.6509184000315145,left,-
Y2-S2-056M23,33,CIRCLES,First_hidden,exp,45,15,False,1,0,-,0.7836215000133961,left,-
Y2-S2-056M23,34,CIRCLES,First_hidden,exp,45,15,True,2,0,-,0.5346546000801027,right,-
Y2-S2-056M23,35,CIRCLES,First_hidden,exp,45,15,True,2,0,-,0.6843583000591025,left,-
Y2-S2-056M23,36,CIRCLES,First_hidden,exp,45,15,True,2,1,4,0.5845875999657437,left,-
Y2-S2-056M23,37,CIRCLES,First_hidden,exp,45,15,True,1,0,-,0.7682507999707013,left,-
Y2-S2-056M23,38,CIRCLES,First_hidden,exp,45,15,True,1,0,-,1.083971400046721,left,-
Y2-S2-056M23,39,CIRCLES,First_hidden,exp,45,15,True,1,0,-,0.5674196000909433,left,-
Y2-S2-056M23,40,CIRCLES,First_hidden,exp,45,15,False,0,1,5,0.8674942000070587,right,-
Y2-S2-056M23,41,CIRCLES,First_hidden,exp,45,15,True,1,0,-,1.0342785000102594,left,-
Y2-S2-056M23,42,CIRCLES,First_hidden,exp,45,15,True,1,0,-,0.8842485999921337,left,-
Y2-S2-056M23,43,CIRCLES,First_hidden,exp,45,15,False,1,0,-,0.8344678999856114,right,-
Y2-S2-056M23,44,CIRCLES,First_hidden,exp,45,15,True,2,0,-,0.48441130004357547,left,-
Y2-S2-056M23,45,CIRCLES,First_hidden,exp,45,15,True,2,0,-,0.40105190000031143,right,-
Y2-S2-056M23,46,CIRCLES,First_hidden,exp,45,15,True,2,1,6,0.43417959997896105,right,-
Y2-S2-056M23,47,CIRCLES,First_hidden,exp,45,15,False,1,1,7,0.5842439000261948,left,-
Y2-S2-056M23,48,CIRCLES,First_hidden,exp,45,15,True,2,0,-,0.45081509998999536,right,-
Y2-S2-056M23,49,CIRCLES,First_hidden,exp,45,15,True,2,0,-,0.4342965999385342,right,-
Y2-S2-056M23,50,CIRCLES,First_hidden,exp,45,15,False,2,0,-,0.9505040999501944,left,-
Y2-S2-056M23,51,CIRCLES,First_hidden,exp,45,15,True,3,0,-,0.48415740008931607,right,-
Y2-S2-056M23,52,CIRCLES,First_hidden,exp,45,15,True,3,0,-,1.1675245999358594,left,-
Y2-S2-056M23,53,CIRCLES,First_hidden,exp,45,15,True,3,1,8,0.9342531999573112,right,-
Y2-S2-056M23,54,CIRCLES,First_hidden,exp,45,15,True,2,0,-,0.7509833000367507,right,-
Y2-S2-056M23,55,CIRCLES,First_hidden,exp,45,15,True,2,0,-,0.4009442999958992,right,-
Y2-S2-056M23,56,CIRCLES,First_hidden,exp,45,15,True,2,0,-,0.5843603999819607,left,-
Y2-S2-056M23,57,CIRCLES,First_hidden,exp,45,15,True,1,0,-,0.40115130005870014,right,-
Y2-S2-056M23,58,CIRCLES,First_hidden,exp,45,15,True,1,0,-,0.40076999994926155,right,-
Y2-S2-056M23,59,CIRCLES,First_hidden,exp,45,15,False,1,1,9,0.5172377000562847,left,-
Y2-S2-056M23,60,CIRCLES,First_hidden,exp,45,15,True,2,0,-,0.36739559995476156,right,-
Y2-S2-056M23,61,CIRCLES,First_hidden,exp,45,15,True,2,0,-,0.4010359999956563,left,-
Y2-S2-056M23,62,CIRCLES,First_hidden,exp,45,15,True,2,1,10,0.35103550006169826,right,-
Y2-S2-056M23,63,CIRCLES,First_hidden,exp,45,15,True,1,0,-,0.5675474000163376,left,-
Y2-S2-056M23,64,CIRCLES,First_hidden,exp,45,15,True,1,0,-,0.6009823000058532,left,-
Y2-S2-056M23,65,CIRCLES,First_hidden,exp,45,15,True,1,0,-,0.5008035999489948,left,-
Y2-S2-056M23,66,CIRCLES,First_hidden,exp,45,15,True,0,0,-,0.5674642999656498,left,-
Y2-S2-056M23,67,CIRCLES,First_hidden,exp,45,15,False,0,1,11,0.951155100017786,right,-
Y2-S2-056M23,68,CIRCLES,First_hidden,exp,45,15,True,1,0,-,0.5342213000403717,left,-
Y2-S2-056M23,69,CIRCLES,First_hidden,exp,45,15,True,1,0,-,0.4343766999663785,right,-
Y2-S2-056M23,70,CIRCLES,First_hidden,exp,45,15,True,1,1,12,0.46737740002572536,right,-
Y2-S2-056M23,71,CIRCLES,First_hidden,exp,45,15,False,0,1,13,0.5010147000430152,left,-
Y2-S2-056M23,72,CIRCLES,First_hidden,exp,45,15,True,1,0,-,0.6338060999987647,left,-
Y2-S2-056M23,73,CIRCLES,First_hidden,exp,45,15,True,1,0,-,0.5010502999648452,left,-
Y2-S2-056M23,74,CIRCLES,First_hidden,exp,45,15,True,1,1,14,0.500538400025107,right,-
Y2-S2-056M23,75,CIRCLES,First_hidden,exp,45,15,True,0,0,-,0.5008103000000119,left,-
Y2-S2-056M23,76,CIRCLES,First_hidden,exp,45,15,True,0,0,-,0.4349866999546066,right,-
Y2-S2-056M23,77,CIRCLES,First_hidden,exp,45,15,False,0,1,15,0.7844728999771178,right,-
Y2-S2-056M23,78,CIRCLES,First_hidden,exp,45,15,True,1,0,-,0.5006988999666646,left,-
Y2-S2-056M23,79,CIRCLES,First_hidden,exp,45,15,True,1,0,-,0.46722920006141067,right,-
Y2-S2-056M23,80,CIRCLES,First_hidden,exp,45,15,True,1,1,16,0.4677234999835491,left,-
