PART_ID,Trial,Stimuli,Version,Training,FIXTIME,TIME,Correct,SOA,Reversal,Reversal_count,Latency,stim_name,Rating
Y2-S2-152M20,1,SQUARES,First_showed,training,45,15,True,8,-,-,0.9843945000320673,left,-
Y2-S2-152M20,2,SQUARES,First_showed,training,45,15,True,8,-,-,0.2173733999952674,left,-
Y2-S2-152M20,3,SQUARES,First_showed,training,45,15,True,8,-,-,0.1177728003822267,left,-
Y2-S2-152M20,4,SQUARES,First_showed,training,45,15,True,8,-,-,0.5008212998509407,left,-
Y2-S2-152M20,5,SQUARES,First_showed,training,45,15,True,8,-,-,0.01755059976130724,left,-
Y2-S2-152M20,6,SQUARES,First_showed,training,45,15,True,8,-,-,0.05116839986294508,right,-
Y2-S2-152M20,7,SQUARES,First_showed,training,45,15,False,8,-,-,0.034149300307035446,left,-
Y2-S2-152M20,8,SQUARES,First_showed,training,45,15,True,8,-,-,0.10072680003941059,left,-
Y2-S2-152M20,9,SQUARES,First_showed,training,45,15,True,8,-,-,0.15059960028156638,right,-
Y2-S2-152M20,10,SQUARES,First_showed,training,45,15,True,8,-,-,0.1676117000170052,right,-
Y2-S2-152M20,11,SQUARES,First_showed,training,45,15,True,3,-,-,0.06776220025494695,left,-
Y2-S2-152M20,12,SQUARES,First_showed,training,45,15,True,3,-,-,0.05100050009787083,left,-
Y2-S2-152M20,13,SQUARES,First_showed,training,45,15,False,3,-,-,0.01874440023675561,left,-
Y2-S2-152M20,14,SQUARES,First_showed,training,45,15,True,3,-,-,0.20085859997197986,right,-
Y2-S2-152M20,15,SQUARES,First_showed,training,45,15,False,3,-,-,0.03522590035572648,left,-
Y2-S2-152M20,16,SQUARES,First_showed,training,45,15,True,3,-,-,0.15069649973884225,left,-
Y2-S2-152M20,17,SQUARES,First_showed,training,45,15,True,3,-,-,0.1677962001413107,left,-
Y2-S2-152M20,18,SQUARES,First_showed,training,45,15,True,3,-,-,0.21738599985837936,left,-
Y2-S2-152M20,19,SQUARES,First_showed,training,45,15,False,3,-,-,0.08408410008996725,left,-
Y2-S2-152M20,20,SQUARES,First_showed,training,45,15,True,3,-,-,0.16768559999763966,left,-
Y2-S2-152M20,1,SQUARES,First_showed,exp,45,15,False,3,0,0,0.11750839976593852,right,-
Y2-S2-152M20,2,SQUARES,First_showed,exp,45,15,True,4,0,-,0.10098320012912154,right,-
Y2-S2-152M20,3,SQUARES,First_showed,exp,45,15,True,4,0,-,0.034883399959653616,right,-
Y2-S2-152M20,4,SQUARES,First_showed,exp,45,15,False,4,0,-,0.03405330004170537,left,-
Y2-S2-152M20,5,SQUARES,First_showed,exp,45,15,True,5,0,-,0.10123849986121058,left,-
Y2-S2-152M20,6,SQUARES,First_showed,exp,45,15,True,5,0,-,0.15122790029272437,right,-
Y2-S2-152M20,7,SQUARES,First_showed,exp,45,15,True,5,1,1,0.11726729990914464,right,-
Y2-S2-152M20,8,SQUARES,First_showed,exp,45,15,True,4,0,-,0.18421760015189648,right,-
Y2-S2-152M20,9,SQUARES,First_showed,exp,45,15,True,4,0,-,0.4007544000633061,left,-
Y2-S2-152M20,10,SQUARES,First_showed,exp,45,15,True,4,0,-,0.06734489975497127,right,-
Y2-S2-152M20,11,SQUARES,First_showed,exp,45,15,True,3,0,-,0.18460809998214245,right,-
Y2-S2-152M20,12,SQUARES,First_showed,exp,45,15,True,3,0,-,0.20158510003238916,right,-
Y2-S2-152M20,13,SQUARES,First_showed,exp,45,15,True,3,0,-,0.20061449985951185,right,-
Y2-S2-152M20,14,SQUARES,First_showed,exp,45,15,True,2,0,-,0.25079600000754,right,-
Y2-S2-152M20,15,SQUARES,First_showed,exp,45,15,True,2,0,-,0.20087569998577237,left,-
Y2-S2-152M20,16,SQUARES,First_showed,exp,45,15,True,2,0,-,0.08408379973843694,right,-
Y2-S2-152M20,17,SQUARES,First_showed,exp,45,15,True,1,0,-,0.11721260007470846,right,-
Y2-S2-152M20,18,SQUARES,First_showed,exp,45,15,False,1,1,2,0.4677269998937845,left,-
Y2-S2-152M20,19,SQUARES,First_showed,exp,45,15,True,2,0,-,0.2674700999632478,right,-
Y2-S2-152M20,20,SQUARES,First_showed,exp,45,15,True,2,0,-,0.36765599995851517,left,-
Y2-S2-152M20,21,SQUARES,First_showed,exp,45,15,True,2,1,3,0.184829399921,right,-
Y2-S2-152M20,22,SQUARES,First_showed,exp,45,15,False,1,1,4,0.35068559972569346,left,-
Y2-S2-152M20,23,SQUARES,First_showed,exp,45,15,True,2,0,-,0.2513407999649644,left,-
Y2-S2-152M20,24,SQUARES,First_showed,exp,45,15,False,2,0,-,0.3847663998603821,left,-
Y2-S2-152M20,25,SQUARES,First_showed,exp,45,15,True,3,0,-,0.01767290011048317,right,-
Y2-S2-152M20,26,SQUARES,First_showed,exp,45,15,True,3,0,-,0.1340561001561582,right,-
Y2-S2-152M20,27,SQUARES,First_showed,exp,45,15,True,3,1,5,0.2171764997765422,left,-
Y2-S2-152M20,28,SQUARES,First_showed,exp,45,15,True,2,0,-,0.33412190014496446,left,-
Y2-S2-152M20,29,SQUARES,First_showed,exp,45,15,True,2,0,-,0.11743340035900474,left,-
Y2-S2-152M20,30,SQUARES,First_showed,exp,45,15,True,2,0,-,0.18399549974128604,right,-
Y2-S2-152M20,31,SQUARES,First_showed,exp,45,15,True,1,0,-,0.16742910025641322,left,-
Y2-S2-152M20,32,SQUARES,First_showed,exp,45,15,False,1,1,6,0.6508547002449632,left,-
Y2-S2-152M20,33,SQUARES,First_showed,exp,45,15,True,2,0,-,0.11754449969157577,right,-
Y2-S2-152M20,34,SQUARES,First_showed,exp,45,15,True,2,0,-,0.15068909991532564,right,-
Y2-S2-152M20,35,SQUARES,First_showed,exp,45,15,True,2,1,7,0.10070429975166917,right,-
Y2-S2-152M20,36,SQUARES,First_showed,exp,45,15,False,1,1,8,0.1007852996699512,left,-
Y2-S2-152M20,37,SQUARES,First_showed,exp,45,15,True,2,0,-,0.08441739995032549,left,-
Y2-S2-152M20,38,SQUARES,First_showed,exp,45,15,False,2,0,-,0.0008465000428259373,left,-
Y2-S2-152M20,39,SQUARES,First_showed,exp,45,15,False,3,0,-,0.4511422999203205,left,-
Y2-S2-152M20,40,SQUARES,First_showed,exp,45,15,False,4,0,-,0.0840374999679625,left,-
Y2-S2-152M20,41,SQUARES,First_showed,exp,45,15,True,5,0,-,0.08462259965017438,right,-
Y2-S2-152M20,42,SQUARES,First_showed,exp,45,15,True,5,0,-,0.10067960014566779,right,-
Y2-S2-152M20,43,SQUARES,First_showed,exp,45,15,False,5,0,-,0.034333300311118364,left,-
Y2-S2-152M20,44,SQUARES,First_showed,exp,45,15,True,6,0,-,0.46742690028622746,right,-
Y2-S2-152M20,45,SQUARES,First_showed,exp,45,15,True,6,0,-,0.4841136001050472,right,-
Y2-S2-152M20,46,SQUARES,First_showed,exp,45,15,True,6,1,9,0.55133350007236,left,-
Y2-S2-152M20,47,SQUARES,First_showed,exp,45,15,True,5,0,-,0.16738389991223812,right,-
Y2-S2-152M20,48,SQUARES,First_showed,exp,45,15,True,5,0,-,0.18429759982973337,left,-
Y2-S2-152M20,49,SQUARES,First_showed,exp,45,15,True,5,0,-,0.06734339985996485,right,-
Y2-S2-152M20,50,SQUARES,First_showed,exp,45,15,True,4,0,-,0.13421709975227714,left,-
Y2-S2-152M20,51,SQUARES,First_showed,exp,45,15,True,4,0,-,0.18404809990897775,left,-
Y2-S2-152M20,52,SQUARES,First_showed,exp,45,15,True,4,0,-,0.18427319964393973,right,-
Y2-S2-152M20,53,SQUARES,First_showed,exp,45,15,True,3,0,-,0.08428149996325374,right,-
Y2-S2-152M20,54,SQUARES,First_showed,exp,45,15,True,3,0,-,0.15096270013600588,left,-
Y2-S2-152M20,55,SQUARES,First_showed,exp,45,15,True,3,0,-,0.05078489985316992,left,-
Y2-S2-152M20,56,SQUARES,First_showed,exp,45,15,True,2,0,-,0.05081230029463768,left,-
Y2-S2-152M20,57,SQUARES,First_showed,exp,45,15,True,2,0,-,0.45082030026242137,right,-
Y2-S2-152M20,58,SQUARES,First_showed,exp,45,15,False,2,1,10,0.3678611000068486,right,-
Y2-S2-152M20,59,SQUARES,First_showed,exp,45,15,False,3,0,-,0.3504429003223777,left,-
Y2-S2-152M20,60,SQUARES,First_showed,exp,45,15,True,4,0,-,0.03415359975770116,right,-
Y2-S2-152M20,61,SQUARES,First_showed,exp,45,15,True,4,0,-,0.00043430039659142494,left,-
Y2-S2-152M20,62,SQUARES,First_showed,exp,45,15,True,4,1,11,0.40073500014841557,right,-
Y2-S2-152M20,63,SQUARES,First_showed,exp,45,15,True,3,0,-,0.3172836001031101,right,-
Y2-S2-152M20,64,SQUARES,First_showed,exp,45,15,False,3,1,12,0.08418319979682565,left,-
Y2-S2-152M20,65,SQUARES,First_showed,exp,45,15,True,4,0,-,0.10098000010475516,right,-
Y2-S2-152M20,66,SQUARES,First_showed,exp,45,15,True,4,0,-,0.33429199969395995,right,-
Y2-S2-152M20,67,SQUARES,First_showed,exp,45,15,True,4,1,13,0.100343800149858,left,-
Y2-S2-152M20,68,SQUARES,First_showed,exp,45,15,True,3,0,-,0.3507044003345072,right,-
Y2-S2-152M20,69,SQUARES,First_showed,exp,45,15,True,3,0,-,0.017348399851471186,left,-
Y2-S2-152M20,70,SQUARES,First_showed,exp,45,15,True,3,0,-,0.1006253999657929,right,-
Y2-S2-152M20,71,SQUARES,First_showed,exp,45,15,True,2,0,-,0.10080329980701208,right,-
Y2-S2-152M20,72,SQUARES,First_showed,exp,45,15,True,2,0,-,0.03444389998912811,left,-
Y2-S2-152M20,73,SQUARES,First_showed,exp,45,15,True,2,0,-,0.10091660032048821,right,-
Y2-S2-152M20,74,SQUARES,First_showed,exp,45,15,False,1,1,14,0.11796899978071451,left,-
Y2-S2-152M20,75,SQUARES,First_showed,exp,45,15,False,2,0,-,0.1506694001145661,left,-
Y2-S2-152M20,76,SQUARES,First_showed,exp,45,15,True,3,0,-,0.0343448999337852,right,-
Y2-S2-152M20,77,SQUARES,First_showed,exp,45,15,True,3,0,-,0.018369500059634447,right,-
Y2-S2-152M20,78,SQUARES,First_showed,exp,45,15,True,3,1,15,0.15082779992371798,right,-
Y2-S2-152M20,79,SQUARES,First_showed,exp,45,15,True,2,0,-,0.08418949972838163,right,-
Y2-S2-152M20,80,SQUARES,First_showed,exp,45,15,True,2,0,-,0.01748819975182414,right,-
Y2-S2-152M20,81,SQUARES,First_showed,exp,45,15,True,2,0,-,0.06742730038240552,right,-
Y2-S2-152M20,82,SQUARES,First_showed,exp,45,15,True,1,0,-,0.034358300268650055,left,-
Y2-S2-152M20,83,SQUARES,First_showed,exp,45,15,False,1,1,16,0.15096710016950965,left,-
Y2-S2-152M20,1,CIRCLES,First_hidden,training,45,15,False,8,-,-,0.9345058999024332,right,-
Y2-S2-152M20,2,CIRCLES,First_hidden,training,45,15,True,8,-,-,0.9008009000681341,left,-
Y2-S2-152M20,3,CIRCLES,First_hidden,training,45,15,True,8,-,-,0.21740410011261702,left,-
Y2-S2-152M20,4,CIRCLES,First_hidden,training,45,15,True,8,-,-,0.20075249997898936,left,-
Y2-S2-152M20,5,CIRCLES,First_hidden,training,45,15,True,8,-,-,0.18406220013275743,left,-
Y2-S2-152M20,6,CIRCLES,First_hidden,training,45,15,True,8,-,-,0.18384619988501072,left,-
Y2-S2-152M20,7,CIRCLES,First_hidden,training,45,15,True,8,-,-,0.1678273002617061,left,-
Y2-S2-152M20,8,CIRCLES,First_hidden,training,45,15,True,8,-,-,0.21738149970769882,right,-
Y2-S2-152M20,9,CIRCLES,First_hidden,training,45,15,True,8,-,-,0.20096329972147942,right,-
Y2-S2-152M20,10,CIRCLES,First_hidden,training,45,15,True,8,-,-,0.16747139999642968,right,-
Y2-S2-152M20,11,CIRCLES,First_hidden,training,45,15,True,3,-,-,0.21744689997285604,right,-
Y2-S2-152M20,12,CIRCLES,First_hidden,training,45,15,True,3,-,-,0.3679006998427212,left,-
Y2-S2-152M20,13,CIRCLES,First_hidden,training,45,15,True,3,-,-,0.26767680002376437,left,-
Y2-S2-152M20,14,CIRCLES,First_hidden,training,45,15,True,3,-,-,0.3345733997412026,left,-
Y2-S2-152M20,15,CIRCLES,First_hidden,training,45,15,True,3,-,-,0.2677430999465287,left,-
Y2-S2-152M20,16,CIRCLES,First_hidden,training,45,15,False,3,-,-,0.2510521998628974,left,-
Y2-S2-152M20,17,CIRCLES,First_hidden,training,45,15,False,3,-,-,0.08527019992470741,left,-
Y2-S2-152M20,18,CIRCLES,First_hidden,training,45,15,True,3,-,-,0.25074860034510493,right,-
Y2-S2-152M20,19,CIRCLES,First_hidden,training,45,15,True,3,-,-,0.25079600000754,left,-
Y2-S2-152M20,20,CIRCLES,First_hidden,training,45,15,False,3,-,-,0.08403499983251095,right,-
Y2-S2-152M20,1,CIRCLES,First_hidden,exp,45,15,True,3,0,0,0.28456979990005493,left,-
Y2-S2-152M20,2,CIRCLES,First_hidden,exp,45,15,True,3,0,-,0.31760510010644794,left,-
Y2-S2-152M20,3,CIRCLES,First_hidden,exp,45,15,True,3,0,-,0.2846708996221423,left,-
Y2-S2-152M20,4,CIRCLES,First_hidden,exp,45,15,True,2,0,-,0.2841225997544825,right,-
Y2-S2-152M20,5,CIRCLES,First_hidden,exp,45,15,True,2,0,-,0.26723540015518665,left,-
Y2-S2-152M20,6,CIRCLES,First_hidden,exp,45,15,True,2,0,-,0.26756419986486435,left,-
Y2-S2-152M20,7,CIRCLES,First_hidden,exp,45,15,True,1,0,-,0.334228599909693,right,-
Y2-S2-152M20,8,CIRCLES,First_hidden,exp,45,15,True,1,0,-,0.20103950006887317,right,-
Y2-S2-152M20,9,CIRCLES,First_hidden,exp,45,15,True,1,0,-,0.18412070022895932,left,-
Y2-S2-152M20,10,CIRCLES,First_hidden,exp,45,15,False,0,1,1,0.3507650997489691,left,-
Y2-S2-152M20,11,CIRCLES,First_hidden,exp,45,15,True,1,0,-,0.35116210021078587,right,-
Y2-S2-152M20,12,CIRCLES,First_hidden,exp,45,15,True,1,0,-,0.6342223999090493,left,-
Y2-S2-152M20,13,CIRCLES,First_hidden,exp,45,15,True,1,1,2,0.45098299998790026,left,-
Y2-S2-152M20,14,CIRCLES,First_hidden,exp,45,15,False,0,1,3,0.417864500079304,right,-
Y2-S2-152M20,15,CIRCLES,First_hidden,exp,45,15,False,1,0,-,0.3676196997985244,left,-
Y2-S2-152M20,16,CIRCLES,First_hidden,exp,45,15,True,2,0,-,0.5510185998864472,left,-
Y2-S2-152M20,17,CIRCLES,First_hidden,exp,45,15,True,2,0,-,0.7341913003474474,left,-
Y2-S2-152M20,18,CIRCLES,First_hidden,exp,45,15,True,2,1,4,0.7340524001047015,right,-
Y2-S2-152M20,19,CIRCLES,First_hidden,exp,45,15,True,1,0,-,0.6508382000029087,right,-
Y2-S2-152M20,20,CIRCLES,First_hidden,exp,45,15,True,1,0,-,0.30077260034158826,left,-
Y2-S2-152M20,21,CIRCLES,First_hidden,exp,45,15,True,1,0,-,0.33387049986049533,left,-
Y2-S2-152M20,22,CIRCLES,First_hidden,exp,45,15,False,0,1,5,0.96700459998101,right,-
Y2-S2-152M20,23,CIRCLES,First_hidden,exp,45,15,False,1,0,-,0.2008756003342569,left,-
Y2-S2-152M20,24,CIRCLES,First_hidden,exp,45,15,True,2,0,-,0.5676509002223611,left,-
Y2-S2-152M20,25,CIRCLES,First_hidden,exp,45,15,True,2,0,-,0.367503700312227,left,-
Y2-S2-152M20,26,CIRCLES,First_hidden,exp,45,15,False,2,0,-,0.21743670012801886,left,-
Y2-S2-152M20,27,CIRCLES,First_hidden,exp,45,15,True,3,0,-,0.2514943000860512,right,-
Y2-S2-152M20,28,CIRCLES,First_hidden,exp,45,15,True,3,0,-,0.6008347999304533,right,-
Y2-S2-152M20,29,CIRCLES,First_hidden,exp,45,15,True,3,1,6,0.600901999976486,right,-
Y2-S2-152M20,30,CIRCLES,First_hidden,exp,45,15,False,2,1,7,0.5677629997953773,left,-
Y2-S2-152M20,31,CIRCLES,First_hidden,exp,45,15,True,3,0,-,0.550902099814266,left,-
Y2-S2-152M20,32,CIRCLES,First_hidden,exp,45,15,True,3,0,-,0.35032179998233914,left,-
Y2-S2-152M20,33,CIRCLES,First_hidden,exp,45,15,True,3,1,8,0.4007819998078048,left,-
Y2-S2-152M20,34,CIRCLES,First_hidden,exp,45,15,True,2,0,-,0.4176003001630306,left,-
Y2-S2-152M20,35,CIRCLES,First_hidden,exp,45,15,True,2,0,-,0.26761880004778504,left,-
Y2-S2-152M20,36,CIRCLES,First_hidden,exp,45,15,True,2,0,-,0.10051209991797805,left,-
Y2-S2-152M20,37,CIRCLES,First_hidden,exp,45,15,True,1,0,-,0.30118680000305176,right,-
Y2-S2-152M20,38,CIRCLES,First_hidden,exp,45,15,False,1,1,9,0.11735889967530966,left,-
Y2-S2-152M20,39,CIRCLES,First_hidden,exp,45,15,False,2,0,-,0.7007487001828849,right,-
Y2-S2-152M20,40,CIRCLES,First_hidden,exp,45,15,True,3,0,-,0.23419709969311953,right,-
Y2-S2-152M20,41,CIRCLES,First_hidden,exp,45,15,False,3,0,-,0.06691829999908805,left,-
Y2-S2-152M20,42,CIRCLES,First_hidden,exp,45,15,False,4,0,-,0.38430640008300543,right,-
Y2-S2-152M20,43,CIRCLES,First_hidden,exp,45,15,False,5,0,-,0.08431229973211884,left,-
Y2-S2-152M20,44,CIRCLES,First_hidden,exp,45,15,False,6,0,-,0.08393620001152158,right,-
Y2-S2-152M20,45,CIRCLES,First_hidden,exp,45,15,True,7,0,-,0.4837608998641372,right,-
Y2-S2-152M20,46,CIRCLES,First_hidden,exp,45,15,True,7,0,-,0.25088119972497225,left,-
Y2-S2-152M20,47,CIRCLES,First_hidden,exp,45,15,True,7,1,10,0.2512497999705374,left,-
Y2-S2-152M20,48,CIRCLES,First_hidden,exp,45,15,True,6,0,-,0.25089799985289574,right,-
Y2-S2-152M20,49,CIRCLES,First_hidden,exp,45,15,True,6,0,-,0.2506633000448346,left,-
Y2-S2-152M20,50,CIRCLES,First_hidden,exp,45,15,True,6,0,-,0.2672671000473201,left,-
Y2-S2-152M20,51,CIRCLES,First_hidden,exp,45,15,True,5,0,-,0.25089439982548356,right,-
Y2-S2-152M20,52,CIRCLES,First_hidden,exp,45,15,True,5,0,-,0.28391729993745685,left,-
Y2-S2-152M20,53,CIRCLES,First_hidden,exp,45,15,True,5,0,-,0.2675048001110554,right,-
Y2-S2-152M20,54,CIRCLES,First_hidden,exp,45,15,True,4,0,-,0.2843975997529924,right,-
Y2-S2-152M20,55,CIRCLES,First_hidden,exp,45,15,True,4,0,-,0.26758759981021285,left,-
Y2-S2-152M20,56,CIRCLES,First_hidden,exp,45,15,True,4,0,-,0.15092839999124408,right,-
Y2-S2-152M20,57,CIRCLES,First_hidden,exp,45,15,True,3,0,-,0.26795560028404,right,-
Y2-S2-152M20,58,CIRCLES,First_hidden,exp,45,15,True,3,0,-,0.28423949982970953,right,-
Y2-S2-152M20,59,CIRCLES,First_hidden,exp,45,15,True,3,0,-,0.300530600361526,right,-
Y2-S2-152M20,60,CIRCLES,First_hidden,exp,45,15,True,2,0,-,0.36762640019878745,right,-
Y2-S2-152M20,61,CIRCLES,First_hidden,exp,45,15,True,2,0,-,0.2509297002106905,right,-
Y2-S2-152M20,62,CIRCLES,First_hidden,exp,45,15,True,2,0,-,0.28398159984499216,right,-
Y2-S2-152M20,63,CIRCLES,First_hidden,exp,45,15,False,1,1,11,0.40087810019031167,left,-
Y2-S2-152M20,64,CIRCLES,First_hidden,exp,45,15,True,2,0,-,0.5343488999642432,left,-
Y2-S2-152M20,65,CIRCLES,First_hidden,exp,45,15,True,2,0,-,0.333604299928993,left,-
Y2-S2-152M20,66,CIRCLES,First_hidden,exp,45,15,True,2,1,12,0.4842284000478685,left,-
Y2-S2-152M20,67,CIRCLES,First_hidden,exp,45,15,True,1,0,-,1.2008370999246836,right,-
Y2-S2-152M20,68,CIRCLES,First_hidden,exp,45,15,False,1,1,13,0.6006338000297546,left,-
Y2-S2-152M20,69,CIRCLES,First_hidden,exp,45,15,True,2,0,-,0.41732880007475615,left,-
Y2-S2-152M20,70,CIRCLES,First_hidden,exp,45,15,True,2,0,-,0.2007901999168098,right,-
Y2-S2-152M20,71,CIRCLES,First_hidden,exp,45,15,True,2,1,14,0.2839973997324705,left,-
Y2-S2-152M20,72,CIRCLES,First_hidden,exp,45,15,False,1,1,15,0.33430639980360866,left,-
Y2-S2-152M20,73,CIRCLES,First_hidden,exp,45,15,True,2,0,-,0.2838771999813616,left,-
Y2-S2-152M20,74,CIRCLES,First_hidden,exp,45,15,True,2,0,-,0.2345984997227788,right,-
Y2-S2-152M20,75,CIRCLES,First_hidden,exp,45,15,True,2,1,16,0.25100799975916743,right,-
