PART_ID,Trial,Stimuli,Version,Training,FIXTIME,TIME,Correct,SOA,Reversal,Reversal_count,Latency,stim_name,Rating
Y2-S2-140K31,1,SQUARES,First_showed,training,45,15,True,8,-,-,0.8509702002629638,left,-
Y2-S2-140K31,2,SQUARES,First_showed,training,45,15,True,8,-,-,0.5178967998363078,left,-
Y2-S2-140K31,3,SQUARES,First_showed,training,45,15,True,8,-,-,0.28390400018543005,left,-
Y2-S2-140K31,4,SQUARES,First_showed,training,45,15,True,8,-,-,0.267635399941355,left,-
Y2-S2-140K31,5,SQUARES,First_showed,training,45,15,True,8,-,-,0.21740959957242012,left,-
Y2-S2-140K31,6,SQUARES,First_showed,training,45,15,True,8,-,-,0.21748539991676807,left,-
Y2-S2-140K31,7,SQUARES,First_showed,training,45,15,True,8,-,-,0.2840316998772323,right,-
Y2-S2-140K31,8,SQUARES,First_showed,training,45,15,True,8,-,-,0.15057219984009862,left,-
Y2-S2-140K31,9,SQUARES,First_showed,training,45,15,True,8,-,-,0.08422299986705184,right,-
Y2-S2-140K31,10,SQUARES,First_showed,training,45,15,True,8,-,-,0.13441970013082027,right,-
Y2-S2-140K31,11,SQUARES,First_showed,training,45,15,True,3,-,-,0.35111150005832314,right,-
Y2-S2-140K31,12,SQUARES,First_showed,training,45,15,True,3,-,-,0.5011384999379516,right,-
Y2-S2-140K31,13,SQUARES,First_showed,training,45,15,True,3,-,-,0.3009632998146117,left,-
Y2-S2-140K31,14,SQUARES,First_showed,training,45,15,False,3,-,-,0.5674788998439908,left,-
Y2-S2-140K31,15,SQUARES,First_showed,training,45,15,True,3,-,-,0.4671624000184238,right,-
Y2-S2-140K31,16,SQUARES,First_showed,training,45,15,True,3,-,-,0.20066880015656352,left,-
Y2-S2-140K31,17,SQUARES,First_showed,training,45,15,True,3,-,-,0.3173599001020193,right,-
Y2-S2-140K31,18,SQUARES,First_showed,training,45,15,True,3,-,-,0.5010052998550236,right,-
Y2-S2-140K31,19,SQUARES,First_showed,training,45,15,True,3,-,-,0.2842704001814127,right,-
Y2-S2-140K31,20,SQUARES,First_showed,training,45,15,True,3,-,-,0.3342817001976073,right,-
Y2-S2-140K31,1,SQUARES,First_showed,exp,45,15,True,3,0,0,0.4003139999695122,right,-
Y2-S2-140K31,2,SQUARES,First_showed,exp,45,15,True,3,0,-,0.33439149986952543,right,-
Y2-S2-140K31,3,SQUARES,First_showed,exp,45,15,True,3,0,-,0.21769399987533689,right,-
Y2-S2-140K31,4,SQUARES,First_showed,exp,45,15,True,2,0,-,0.20071740029379725,right,-
Y2-S2-140K31,5,SQUARES,First_showed,exp,45,15,True,2,0,-,0.3509760000742972,left,-
Y2-S2-140K31,6,SQUARES,First_showed,exp,45,15,True,2,0,-,0.21767539996653795,left,-
Y2-S2-140K31,7,SQUARES,First_showed,exp,45,15,False,1,1,1,0.5509568997658789,right,-
Y2-S2-140K31,8,SQUARES,First_showed,exp,45,15,True,2,0,-,0.2674119998700917,left,-
Y2-S2-140K31,9,SQUARES,First_showed,exp,45,15,False,2,0,-,0.3676570998504758,right,-
Y2-S2-140K31,10,SQUARES,First_showed,exp,45,15,False,3,0,-,0.4007946001365781,left,-
Y2-S2-140K31,11,SQUARES,First_showed,exp,45,15,True,4,0,-,0.18405470019206405,right,-
Y2-S2-140K31,12,SQUARES,First_showed,exp,45,15,True,4,0,-,0.13447320042178035,left,-
Y2-S2-140K31,13,SQUARES,First_showed,exp,45,15,True,4,1,2,0.1840884000994265,right,-
Y2-S2-140K31,14,SQUARES,First_showed,exp,45,15,True,3,0,-,0.5007843999192119,right,-
Y2-S2-140K31,15,SQUARES,First_showed,exp,45,15,True,3,0,-,0.684377099853009,right,-
Y2-S2-140K31,16,SQUARES,First_showed,exp,45,15,False,3,1,3,0.484130899887532,left,-
Y2-S2-140K31,17,SQUARES,First_showed,exp,45,15,True,4,0,-,0.35101520037278533,right,-
Y2-S2-140K31,18,SQUARES,First_showed,exp,45,15,True,4,0,-,0.3347632000222802,right,-
Y2-S2-140K31,19,SQUARES,First_showed,exp,45,15,False,4,0,-,0.6175016001798213,left,-
Y2-S2-140K31,20,SQUARES,First_showed,exp,45,15,False,5,0,-,0.4499451001174748,left,-
Y2-S2-140K31,21,SQUARES,First_showed,exp,45,15,True,6,0,-,0.20062760030850768,right,-
Y2-S2-140K31,22,SQUARES,First_showed,exp,45,15,True,6,0,-,1.6181843001395464,right,-
Y2-S2-140K31,23,SQUARES,First_showed,exp,45,15,True,6,1,4,0.9173848000355065,right,-
Y2-S2-140K31,24,SQUARES,First_showed,exp,45,15,True,5,0,-,0.8341958001255989,left,-
Y2-S2-140K31,25,SQUARES,First_showed,exp,45,15,True,5,0,-,1.134849099908024,right,-
Y2-S2-140K31,26,SQUARES,First_showed,exp,45,15,False,5,1,5,0.6173519003205001,left,-
Y2-S2-140K31,27,SQUARES,First_showed,exp,45,15,True,6,0,-,1.0508196000009775,right,-
Y2-S2-140K31,28,SQUARES,First_showed,exp,45,15,True,6,0,-,0.5340044996701181,right,-
Y2-S2-140K31,29,SQUARES,First_showed,exp,45,15,True,6,1,6,0.651280099991709,right,-
Y2-S2-140K31,30,SQUARES,First_showed,exp,45,15,True,5,0,-,0.66748660011217,left,-
Y2-S2-140K31,31,SQUARES,First_showed,exp,45,15,True,5,0,-,0.7674472997896373,right,-
Y2-S2-140K31,32,SQUARES,First_showed,exp,45,15,True,5,0,-,0.35097460029646754,right,-
Y2-S2-140K31,33,SQUARES,First_showed,exp,45,15,True,4,0,-,0.5174207999370992,right,-
Y2-S2-140K31,34,SQUARES,First_showed,exp,45,15,True,4,0,-,0.434209399856627,left,-
Y2-S2-140K31,35,SQUARES,First_showed,exp,45,15,False,4,1,7,0.8676128997467458,right,-
Y2-S2-140K31,36,SQUARES,First_showed,exp,45,15,True,5,0,-,0.5843291999772191,left,-
Y2-S2-140K31,37,SQUARES,First_showed,exp,45,15,False,5,0,-,0.7011648002080619,left,-
Y2-S2-140K31,38,SQUARES,First_showed,exp,45,15,True,6,0,-,0.9009116999804974,right,-
Y2-S2-140K31,39,SQUARES,First_showed,exp,45,15,False,6,0,-,0.4176342999562621,left,-
Y2-S2-140K31,40,SQUARES,First_showed,exp,45,15,True,7,0,-,0.9848523000255227,right,-
Y2-S2-140K31,41,SQUARES,First_showed,exp,45,15,False,7,0,-,0.3842319999821484,left,-
Y2-S2-140K31,42,SQUARES,First_showed,exp,45,15,True,8,0,-,0.4175084000453353,right,-
Y2-S2-140K31,43,SQUARES,First_showed,exp,45,15,True,8,0,-,0.2175492998212576,right,-
Y2-S2-140K31,44,SQUARES,First_showed,exp,45,15,True,8,1,8,0.0339365997351706,right,-
Y2-S2-140K31,45,SQUARES,First_showed,exp,45,15,True,7,0,-,0.33429750008508563,right,-
Y2-S2-140K31,46,SQUARES,First_showed,exp,45,15,True,7,0,-,0.25123449973762035,left,-
Y2-S2-140K31,47,SQUARES,First_showed,exp,45,15,False,7,1,9,0.4004808999598026,left,-
Y2-S2-140K31,48,SQUARES,First_showed,exp,45,15,True,8,0,-,0.2676997003145516,left,-
Y2-S2-140K31,49,SQUARES,First_showed,exp,45,15,True,8,0,-,0.2507273000665009,right,-
Y2-S2-140K31,50,SQUARES,First_showed,exp,45,15,False,8,0,-,0.6500464999116957,left,-
Y2-S2-140K31,51,SQUARES,First_showed,exp,45,15,False,9,0,-,0.40095499996095896,left,-
Y2-S2-140K31,52,SQUARES,First_showed,exp,45,15,True,10,0,-,0.31728760013356805,left,-
Y2-S2-140K31,53,SQUARES,First_showed,exp,45,15,True,10,0,-,0.31773030012845993,right,-
Y2-S2-140K31,54,SQUARES,First_showed,exp,45,15,True,10,1,10,0.3182880999520421,left,-
Y2-S2-140K31,55,SQUARES,First_showed,exp,45,15,True,9,0,-,0.2173207001760602,right,-
Y2-S2-140K31,56,SQUARES,First_showed,exp,45,15,True,9,0,-,0.28434079978615046,right,-
Y2-S2-140K31,57,SQUARES,First_showed,exp,45,15,True,9,0,-,0.25075120013207197,right,-
Y2-S2-140K31,58,SQUARES,First_showed,exp,45,15,True,8,0,-,0.3173287999816239,left,-
Y2-S2-140K31,59,SQUARES,First_showed,exp,45,15,True,8,0,-,0.30084240017458797,left,-
Y2-S2-140K31,60,SQUARES,First_showed,exp,45,15,True,8,0,-,0.21752020018175244,left,-
Y2-S2-140K31,61,SQUARES,First_showed,exp,45,15,True,7,0,-,0.2505526999011636,left,-
Y2-S2-140K31,62,SQUARES,First_showed,exp,45,15,True,7,0,-,0.10079049970954657,right,-
Y2-S2-140K31,63,SQUARES,First_showed,exp,45,15,True,7,0,-,0.25068469997495413,left,-
Y2-S2-140K31,64,SQUARES,First_showed,exp,45,15,True,6,0,-,0.26772790029644966,left,-
Y2-S2-140K31,65,SQUARES,First_showed,exp,45,15,True,6,0,-,0.31719439988955855,right,-
Y2-S2-140K31,66,SQUARES,First_showed,exp,45,15,True,6,0,-,0.3179589998908341,left,-
Y2-S2-140K31,67,SQUARES,First_showed,exp,45,15,True,5,0,-,0.38394130021333694,left,-
Y2-S2-140K31,68,SQUARES,First_showed,exp,45,15,True,5,0,-,0.20074070012196898,right,-
Y2-S2-140K31,69,SQUARES,First_showed,exp,45,15,True,5,0,-,0.1507267002016306,left,-
Y2-S2-140K31,70,SQUARES,First_showed,exp,45,15,True,4,0,-,0.25120800035074353,right,-
Y2-S2-140K31,71,SQUARES,First_showed,exp,45,15,True,4,0,-,0.26756969979032874,right,-
Y2-S2-140K31,72,SQUARES,First_showed,exp,45,15,True,4,0,-,0.2839635000564158,right,-
Y2-S2-140K31,73,SQUARES,First_showed,exp,45,15,True,3,0,-,0.2512070001102984,right,-
Y2-S2-140K31,74,SQUARES,First_showed,exp,45,15,True,3,0,-,0.3011257001198828,left,-
Y2-S2-140K31,75,SQUARES,First_showed,exp,45,15,True,3,0,-,0.20086300000548363,right,-
Y2-S2-140K31,76,SQUARES,First_showed,exp,45,15,False,2,1,11,0.5509233996272087,left,-
Y2-S2-140K31,77,SQUARES,First_showed,exp,45,15,True,3,0,-,0.18430319987237453,right,-
Y2-S2-140K31,78,SQUARES,First_showed,exp,45,15,True,3,0,-,0.3178798002190888,left,-
Y2-S2-140K31,79,SQUARES,First_showed,exp,45,15,True,3,1,12,0.23469650000333786,right,-
Y2-S2-140K31,80,SQUARES,First_showed,exp,45,15,False,2,1,13,0.5679344995878637,left,-
Y2-S2-140K31,81,SQUARES,First_showed,exp,45,15,True,3,0,-,0.15106499986723065,right,-
Y2-S2-140K31,82,SQUARES,First_showed,exp,45,15,True,3,0,-,0.23431900003924966,left,-
Y2-S2-140K31,83,SQUARES,First_showed,exp,45,15,True,3,1,14,0.28455989994108677,right,-
Y2-S2-140K31,84,SQUARES,First_showed,exp,45,15,True,2,0,-,0.31756069976836443,right,-
Y2-S2-140K31,85,SQUARES,First_showed,exp,45,15,False,2,1,15,0.6010265997610986,left,-
Y2-S2-140K31,86,SQUARES,First_showed,exp,45,15,False,3,0,-,0.6508291000500321,left,-
Y2-S2-140K31,87,SQUARES,First_showed,exp,45,15,True,4,0,-,0.2674567000940442,right,-
Y2-S2-140K31,88,SQUARES,First_showed,exp,45,15,True,4,0,-,0.36754109989851713,left,-
Y2-S2-140K31,89,SQUARES,First_showed,exp,45,15,False,4,0,-,0.5503374999389052,left,-
Y2-S2-140K31,90,SQUARES,First_showed,exp,45,15,True,5,0,-,0.2508224998600781,right,-
Y2-S2-140K31,91,SQUARES,First_showed,exp,45,15,False,5,0,-,0.4672165000811219,left,-
Y2-S2-140K31,92,SQUARES,First_showed,exp,45,15,True,6,0,-,1.0508202002383769,right,-
Y2-S2-140K31,93,SQUARES,First_showed,exp,45,15,True,6,0,-,0.3005365002900362,right,-
Y2-S2-140K31,94,SQUARES,First_showed,exp,45,15,True,6,1,16,0.25069200014695525,right,-
Y2-S2-140K31,1,CIRCLES,First_hidden,training,45,15,True,8,-,-,0.8844292000867426,left,-
Y2-S2-140K31,2,CIRCLES,First_hidden,training,45,15,True,8,-,-,0.33420310029760003,left,-
Y2-S2-140K31,3,CIRCLES,First_hidden,training,45,15,True,8,-,-,0.23400080017745495,left,-
Y2-S2-140K31,4,CIRCLES,First_hidden,training,45,15,True,8,-,-,0.2505437000654638,right,-
Y2-S2-140K31,5,CIRCLES,First_hidden,training,45,15,True,8,-,-,0.21757169999182224,right,-
Y2-S2-140K31,6,CIRCLES,First_hidden,training,45,15,True,8,-,-,0.2008334998972714,right,-
Y2-S2-140K31,7,CIRCLES,First_hidden,training,45,15,True,8,-,-,0.4510498000308871,right,-
Y2-S2-140K31,8,CIRCLES,First_hidden,training,45,15,True,8,-,-,0.350715100299567,left,-
Y2-S2-140K31,9,CIRCLES,First_hidden,training,45,15,True,8,-,-,0.28415669966489077,right,-
Y2-S2-140K31,10,CIRCLES,First_hidden,training,45,15,True,8,-,-,0.25093260034918785,right,-
Y2-S2-140K31,11,CIRCLES,First_hidden,training,45,15,True,3,-,-,0.0675026997923851,left,-
Y2-S2-140K31,12,CIRCLES,First_hidden,training,45,15,True,3,-,-,0.41786620020866394,right,-
Y2-S2-140K31,13,CIRCLES,First_hidden,training,45,15,True,3,-,-,0.6172034000046551,left,-
Y2-S2-140K31,14,CIRCLES,First_hidden,training,45,15,False,3,-,-,0.817340400069952,left,-
Y2-S2-140K31,15,CIRCLES,First_hidden,training,45,15,True,3,-,-,0.23428540024906397,left,-
Y2-S2-140K31,16,CIRCLES,First_hidden,training,45,15,False,3,-,-,0.1175751001574099,right,-
Y2-S2-140K31,17,CIRCLES,First_hidden,training,45,15,True,3,-,-,0.40084819961339235,left,-
Y2-S2-140K31,18,CIRCLES,First_hidden,training,45,15,True,3,-,-,0.35068949963897467,left,-
Y2-S2-140K31,19,CIRCLES,First_hidden,training,45,15,False,3,-,-,0.10078930016607046,right,-
Y2-S2-140K31,20,CIRCLES,First_hidden,training,45,15,True,3,-,-,0.43437559995800257,right,-
Y2-S2-140K31,1,CIRCLES,First_hidden,exp,45,15,True,3,0,0,1.2840120997279882,right,-
Y2-S2-140K31,2,CIRCLES,First_hidden,exp,45,15,True,3,0,-,0.4011654001660645,right,-
Y2-S2-140K31,3,CIRCLES,First_hidden,exp,45,15,True,3,0,-,0.23463679989799857,left,-
Y2-S2-140K31,4,CIRCLES,First_hidden,exp,45,15,True,2,0,-,0.1009568995796144,right,-
Y2-S2-140K31,5,CIRCLES,First_hidden,exp,45,15,True,2,0,-,0.26736759999766946,right,-
Y2-S2-140K31,6,CIRCLES,First_hidden,exp,45,15,True,2,0,-,0.3676040000282228,left,-
Y2-S2-140K31,7,CIRCLES,First_hidden,exp,45,15,False,1,1,1,0.2006369000300765,left,-
Y2-S2-140K31,8,CIRCLES,First_hidden,exp,45,15,True,2,0,-,0.1009724996984005,left,-
Y2-S2-140K31,9,CIRCLES,First_hidden,exp,45,15,True,2,0,-,0.050753300078213215,left,-
Y2-S2-140K31,10,CIRCLES,First_hidden,exp,45,15,False,2,0,-,0.18386059999465942,right,-
Y2-S2-140K31,11,CIRCLES,First_hidden,exp,45,15,True,3,0,-,0.3007199000567198,left,-
Y2-S2-140K31,12,CIRCLES,First_hidden,exp,45,15,True,3,0,-,0.5509120002388954,right,-
Y2-S2-140K31,13,CIRCLES,First_hidden,exp,45,15,False,3,0,-,0.7010208000428975,left,-
Y2-S2-140K31,14,CIRCLES,First_hidden,exp,45,15,True,4,0,-,0.18409810028970242,left,-
Y2-S2-140K31,15,CIRCLES,First_hidden,exp,45,15,True,4,0,-,0.23434369964525104,left,-
Y2-S2-140K31,16,CIRCLES,First_hidden,exp,45,15,True,4,1,2,0.31734840013086796,right,-
Y2-S2-140K31,17,CIRCLES,First_hidden,exp,45,15,True,3,0,-,0.26739849988371134,right,-
Y2-S2-140K31,18,CIRCLES,First_hidden,exp,45,15,False,3,1,3,0.1508955997414887,right,-
Y2-S2-140K31,19,CIRCLES,First_hidden,exp,45,15,False,4,0,-,0.13443850027397275,left,-
Y2-S2-140K31,20,CIRCLES,First_hidden,exp,45,15,False,5,0,-,0.8006913000717759,left,-
Y2-S2-140K31,21,CIRCLES,First_hidden,exp,45,15,True,6,0,-,0.3508210997097194,right,-
Y2-S2-140K31,22,CIRCLES,First_hidden,exp,45,15,False,6,0,-,0.8173225000500679,left,-
Y2-S2-140K31,23,CIRCLES,First_hidden,exp,45,15,False,7,0,-,0.6340837003663182,left,-
Y2-S2-140K31,24,CIRCLES,First_hidden,exp,45,15,True,8,0,-,0.30071609979495406,right,-
Y2-S2-140K31,25,CIRCLES,First_hidden,exp,45,15,True,8,0,-,0.15118320006877184,right,-
Y2-S2-140K31,26,CIRCLES,First_hidden,exp,45,15,True,8,1,4,0.26745350006967783,right,-
Y2-S2-140K31,27,CIRCLES,First_hidden,exp,45,15,False,7,1,5,0.43415410025045276,left,-
Y2-S2-140K31,28,CIRCLES,First_hidden,exp,45,15,True,8,0,-,0.20094700017943978,right,-
Y2-S2-140K31,29,CIRCLES,First_hidden,exp,45,15,False,8,0,-,0.33399360021576285,left,-
Y2-S2-140K31,30,CIRCLES,First_hidden,exp,45,15,True,9,0,-,0.23425550013780594,right,-
Y2-S2-140K31,31,CIRCLES,First_hidden,exp,45,15,True,9,0,-,0.06771969981491566,right,-
Y2-S2-140K31,32,CIRCLES,First_hidden,exp,45,15,True,9,1,6,0.2674766997806728,right,-
Y2-S2-140K31,33,CIRCLES,First_hidden,exp,45,15,True,8,0,-,0.26752830017358065,right,-
Y2-S2-140K31,34,CIRCLES,First_hidden,exp,45,15,False,8,1,7,0.3841313002631068,left,-
Y2-S2-140K31,35,CIRCLES,First_hidden,exp,45,15,True,9,0,-,0.4173886999487877,right,-
Y2-S2-140K31,36,CIRCLES,First_hidden,exp,45,15,False,9,0,-,0.3674058998003602,left,-
Y2-S2-140K31,37,CIRCLES,First_hidden,exp,45,15,True,10,0,-,0.26738670002669096,right,-
Y2-S2-140K31,38,CIRCLES,First_hidden,exp,45,15,True,10,0,-,0.3174040000885725,right,-
Y2-S2-140K31,39,CIRCLES,First_hidden,exp,45,15,False,10,0,-,0.3341668997891247,left,-
Y2-S2-140K31,40,CIRCLES,First_hidden,exp,45,15,False,11,0,-,0.38378030015155673,left,-
Y2-S2-140K31,41,CIRCLES,First_hidden,exp,45,15,True,12,0,-,0.30072749964892864,right,-
Y2-S2-140K31,42,CIRCLES,First_hidden,exp,45,15,True,12,0,-,0.3505274001508951,right,-
Y2-S2-140K31,43,CIRCLES,First_hidden,exp,45,15,True,12,1,8,0.40088400011882186,right,-
Y2-S2-140K31,44,CIRCLES,First_hidden,exp,45,15,False,11,1,9,0.3511350001208484,left,-
Y2-S2-140K31,45,CIRCLES,First_hidden,exp,45,15,False,12,0,-,0.40051010018214583,left,-
Y2-S2-140K31,46,CIRCLES,First_hidden,exp,45,15,True,13,0,-,0.45094900019466877,right,-
Y2-S2-140K31,47,CIRCLES,First_hidden,exp,45,15,True,13,0,-,0.3851598999463022,right,-
Y2-S2-140K31,48,CIRCLES,First_hidden,exp,45,15,False,13,0,-,0.6507946997880936,left,-
Y2-S2-140K31,49,CIRCLES,First_hidden,exp,45,15,True,14,0,-,0.3675728999078274,right,-
Y2-S2-140K31,50,CIRCLES,First_hidden,exp,45,15,True,14,0,-,0.4009006000123918,right,-
Y2-S2-140K31,51,CIRCLES,First_hidden,exp,45,15,True,14,1,10,0.40155870001763105,right,-
Y2-S2-140K31,52,CIRCLES,First_hidden,exp,45,15,True,13,0,-,0.31813979987055063,right,-
Y2-S2-140K31,53,CIRCLES,First_hidden,exp,45,15,True,13,0,-,0.35091069992631674,right,-
Y2-S2-140K31,54,CIRCLES,First_hidden,exp,45,15,False,13,1,11,0.40112939989194274,left,-
Y2-S2-140K31,55,CIRCLES,First_hidden,exp,45,15,False,14,0,-,0.4340107999742031,left,-
Y2-S2-140K31,56,CIRCLES,First_hidden,exp,45,15,True,15,0,-,0.5677646999247372,left,-
Y2-S2-140K31,57,CIRCLES,First_hidden,exp,45,15,True,15,0,-,0.5339295999146998,right,-
Y2-S2-140K31,58,CIRCLES,First_hidden,exp,45,15,True,15,1,12,0.36793689988553524,left,-
Y2-S2-140K31,59,CIRCLES,First_hidden,exp,45,15,True,14,0,-,0.2843843000009656,right,-
Y2-S2-140K31,60,CIRCLES,First_hidden,exp,45,15,True,14,0,-,0.15072609996423125,right,-
Y2-S2-140K31,61,CIRCLES,First_hidden,exp,45,15,True,14,0,-,0.384126799646765,right,-
Y2-S2-140K31,62,CIRCLES,First_hidden,exp,45,15,True,13,0,-,0.28416950022801757,left,-
Y2-S2-140K31,63,CIRCLES,First_hidden,exp,45,15,True,13,0,-,0.7176159000955522,left,-
Y2-S2-140K31,64,CIRCLES,First_hidden,exp,45,15,True,13,0,-,0.31744390027597547,right,-
Y2-S2-140K31,65,CIRCLES,First_hidden,exp,45,15,True,12,0,-,0.3506195000372827,right,-
Y2-S2-140K31,66,CIRCLES,First_hidden,exp,45,15,True,12,0,-,0.4011369999498129,right,-
Y2-S2-140K31,67,CIRCLES,First_hidden,exp,45,15,True,12,0,-,0.26728189969435334,right,-
Y2-S2-140K31,68,CIRCLES,First_hidden,exp,45,15,True,11,0,-,0.2841424001380801,right,-
Y2-S2-140K31,69,CIRCLES,First_hidden,exp,45,15,True,11,0,-,0.26764999981969595,left,-
Y2-S2-140K31,70,CIRCLES,First_hidden,exp,45,15,True,11,0,-,0.2840497000142932,left,-
Y2-S2-140K31,71,CIRCLES,First_hidden,exp,45,15,True,10,0,-,0.36724069993942976,left,-
Y2-S2-140K31,72,CIRCLES,First_hidden,exp,45,15,True,10,0,-,0.31738230027258396,right,-
Y2-S2-140K31,73,CIRCLES,First_hidden,exp,45,15,True,10,0,-,0.21749209985136986,left,-
Y2-S2-140K31,74,CIRCLES,First_hidden,exp,45,15,True,9,0,-,0.45075249997898936,right,-
Y2-S2-140K31,75,CIRCLES,First_hidden,exp,45,15,True,9,0,-,0.31748379999771714,right,-
Y2-S2-140K31,76,CIRCLES,First_hidden,exp,45,15,True,9,0,-,0.36735660023987293,right,-
Y2-S2-140K31,77,CIRCLES,First_hidden,exp,45,15,True,8,0,-,0.30053439969196916,left,-
Y2-S2-140K31,78,CIRCLES,First_hidden,exp,45,15,True,8,0,-,0.3342058998532593,left,-
Y2-S2-140K31,79,CIRCLES,First_hidden,exp,45,15,True,8,0,-,0.26730020018294454,right,-
Y2-S2-140K31,80,CIRCLES,First_hidden,exp,45,15,True,7,0,-,0.35072119999676943,left,-
Y2-S2-140K31,81,CIRCLES,First_hidden,exp,45,15,True,7,0,-,0.3008028999902308,left,-
Y2-S2-140K31,82,CIRCLES,First_hidden,exp,45,15,True,7,0,-,0.300543500110507,left,-
Y2-S2-140K31,83,CIRCLES,First_hidden,exp,45,15,True,6,0,-,0.26732939993962646,left,-
Y2-S2-140K31,84,CIRCLES,First_hidden,exp,45,15,True,6,0,-,0.30074620014056563,left,-
Y2-S2-140K31,85,CIRCLES,First_hidden,exp,45,15,True,6,0,-,0.267701200209558,left,-
Y2-S2-140K31,86,CIRCLES,First_hidden,exp,45,15,True,5,0,-,0.3007646999321878,left,-
Y2-S2-140K31,87,CIRCLES,First_hidden,exp,45,15,True,5,0,-,0.4178033000789583,right,-
Y2-S2-140K31,88,CIRCLES,First_hidden,exp,45,15,True,5,0,-,0.4841121998615563,left,-
Y2-S2-140K31,89,CIRCLES,First_hidden,exp,45,15,True,4,0,-,0.3176563000306487,right,-
Y2-S2-140K31,90,CIRCLES,First_hidden,exp,45,15,True,4,0,-,0.3341268999502063,right,-
Y2-S2-140K31,91,CIRCLES,First_hidden,exp,45,15,True,4,0,-,0.28427809989079833,right,-
Y2-S2-140K31,92,CIRCLES,First_hidden,exp,45,15,True,3,0,-,0.31764759961515665,left,-
Y2-S2-140K31,93,CIRCLES,First_hidden,exp,45,15,True,3,0,-,0.38420460000634193,right,-
Y2-S2-140K31,94,CIRCLES,First_hidden,exp,45,15,True,3,0,-,0.33432589983567595,right,-
Y2-S2-140K31,95,CIRCLES,First_hidden,exp,45,15,True,2,0,-,0.2843323000706732,right,-
Y2-S2-140K31,96,CIRCLES,First_hidden,exp,45,15,True,2,0,-,0.31732310028746724,left,-
Y2-S2-140K31,97,CIRCLES,First_hidden,exp,45,15,True,2,0,-,0.367276799865067,left,-
Y2-S2-140K31,98,CIRCLES,First_hidden,exp,45,15,True,1,0,-,0.6511904001235962,left,-
Y2-S2-140K31,99,CIRCLES,First_hidden,exp,45,15,True,1,0,-,0.5508333002217114,left,-
Y2-S2-140K31,100,CIRCLES,First_hidden,exp,45,15,True,1,0,-,0.4174178000539541,right,-
Y2-S2-140K31,101,CIRCLES,First_hidden,exp,45,15,True,0,0,-,0.3843661998398602,left,-
Y2-S2-140K31,102,CIRCLES,First_hidden,exp,45,15,True,0,0,-,0.4842713996767998,right,-
Y2-S2-140K31,103,CIRCLES,First_hidden,exp,45,15,True,0,0,-,0.5507780998013914,left,-
Y2-S2-140K31,104,CIRCLES,First_hidden,exp,45,15,False,-1,1,13,0.5675431997515261,right,-
Y2-S2-140K31,105,CIRCLES,First_hidden,exp,45,15,True,0,0,-,0.6675440999679267,right,-
Y2-S2-140K31,106,CIRCLES,First_hidden,exp,45,15,False,0,0,-,0.43444500025361776,right,-
Y2-S2-140K31,107,CIRCLES,First_hidden,exp,45,15,True,1,0,-,0.4837162997573614,right,-
Y2-S2-140K31,108,CIRCLES,First_hidden,exp,45,15,True,1,0,-,0.5007475996389985,left,-
Y2-S2-140K31,109,CIRCLES,First_hidden,exp,45,15,False,1,0,-,0.4340774999000132,right,-
Y2-S2-140K31,110,CIRCLES,First_hidden,exp,45,15,True,2,0,-,0.5842646001838148,left,-
Y2-S2-140K31,111,CIRCLES,First_hidden,exp,45,15,True,2,0,-,0.6340093999169767,left,-
Y2-S2-140K31,112,CIRCLES,First_hidden,exp,45,15,True,2,1,14,0.5174999004229903,right,-
Y2-S2-140K31,113,CIRCLES,First_hidden,exp,45,15,True,1,0,-,0.5508842002600431,left,-
Y2-S2-140K31,114,CIRCLES,First_hidden,exp,45,15,False,1,1,15,0.4342124997638166,right,-
Y2-S2-140K31,115,CIRCLES,First_hidden,exp,45,15,True,2,0,-,0.6674194000661373,left,-
Y2-S2-140K31,116,CIRCLES,First_hidden,exp,45,15,True,2,0,-,0.5010987999849021,left,-
Y2-S2-140K31,117,CIRCLES,First_hidden,exp,45,15,True,2,1,16,0.46771720005199313,right,-
