PART_ID,Trial,Stimuli,Version,Training,FIXTIME,TIME,Correct,SOA,Reversal,Reversal_count,Latency,stim_name,Rating
Y2-S2-129K31,1,SQUARES,First_showed,training,45,15,True,8,-,-,0.5178710000036517,right,-
Y2-S2-129K31,2,SQUARES,First_showed,training,45,15,True,8,-,-,0.3341775000008056,left,-
Y2-S2-129K31,3,SQUARES,First_showed,training,45,15,True,8,-,-,0.23443070000212174,right,-
Y2-S2-129K31,4,SQUARES,First_showed,training,45,15,True,8,-,-,0.3673902000009548,left,-
Y2-S2-129K31,5,SQUARES,First_showed,training,45,15,True,8,-,-,0.4011292999930447,right,-
Y2-S2-129K31,6,SQUARES,First_showed,training,45,15,True,8,-,-,1.9009504999994533,right,-
Y2-S2-129K31,7,SQUARES,First_showed,training,45,15,True,8,-,-,0.6178784000076121,right,-
Y2-S2-129K31,8,SQUARES,First_showed,training,45,15,True,8,-,-,0.45059919999039266,right,-
Y2-S2-129K31,9,SQUARES,First_showed,training,45,15,True,8,-,-,0.5015191999991657,right,-
Y2-S2-129K31,10,SQUARES,First_showed,training,45,15,True,8,-,-,0.5508128999936162,right,-
Y2-S2-129K31,11,SQUARES,First_showed,training,45,15,True,3,-,-,1.3839714999921853,right,-
Y2-S2-129K31,12,SQUARES,First_showed,training,45,15,True,3,-,-,0.7676258999999845,right,-
Y2-S2-129K31,13,SQUARES,First_showed,training,45,15,True,3,-,-,0.7173909000121057,right,-
Y2-S2-129K31,14,SQUARES,First_showed,training,45,15,True,3,-,-,0.41815199999837205,left,-
Y2-S2-129K31,15,SQUARES,First_showed,training,45,15,True,3,-,-,0.45116979999875184,left,-
Y2-S2-129K31,16,SQUARES,First_showed,training,45,15,True,3,-,-,0.45061049998912495,left,-
Y2-S2-129K31,17,SQUARES,First_showed,training,45,15,True,3,-,-,0.50078649999341,left,-
Y2-S2-129K31,18,SQUARES,First_showed,training,45,15,True,3,-,-,0.5678490999998758,left,-
Y2-S2-129K31,19,SQUARES,First_showed,training,45,15,True,3,-,-,0.4178144999896176,right,-
Y2-S2-129K31,20,SQUARES,First_showed,training,45,15,True,3,-,-,0.5168177000014111,left,-
Y2-S2-129K31,1,SQUARES,First_showed,exp,45,15,True,3,0,0,0.30073709999851417,left,-
Y2-S2-129K31,2,SQUARES,First_showed,exp,45,15,True,3,0,-,0.917606800008798,left,-
Y2-S2-129K31,3,SQUARES,First_showed,exp,45,15,True,3,0,-,0.38422459999856073,right,-
Y2-S2-129K31,4,SQUARES,First_showed,exp,45,15,True,2,0,-,0.5842276000039419,right,-
Y2-S2-129K31,5,SQUARES,First_showed,exp,45,15,True,2,0,-,0.5675907000113511,left,-
Y2-S2-129K31,6,SQUARES,First_showed,exp,45,15,True,2,0,-,0.4507328000036068,left,-
Y2-S2-129K31,7,SQUARES,First_showed,exp,45,15,True,1,0,-,0.6664913000131492,right,-
Y2-S2-129K31,8,SQUARES,First_showed,exp,45,15,True,1,0,-,0.5009910999942804,right,-
Y2-S2-129K31,9,SQUARES,First_showed,exp,45,15,True,1,0,-,0.45094280000193976,right,-
Y2-S2-129K31,10,SQUARES,First_showed,exp,45,15,False,0,1,1,0.5845283999951789,left,-
Y2-S2-129K31,11,SQUARES,First_showed,exp,45,15,False,1,0,-,0.8011484000016935,left,-
Y2-S2-129K31,12,SQUARES,First_showed,exp,45,15,True,2,0,-,0.6677591000043321,left,-
Y2-S2-129K31,13,SQUARES,First_showed,exp,45,15,True,2,0,-,0.4007776000071317,left,-
Y2-S2-129K31,14,SQUARES,First_showed,exp,45,15,True,2,1,2,0.3844744000089122,left,-
Y2-S2-129K31,15,SQUARES,First_showed,exp,45,15,True,1,0,-,0.4177415000012843,left,-
Y2-S2-129K31,16,SQUARES,First_showed,exp,45,15,True,1,0,-,0.45061070000519976,left,-
Y2-S2-129K31,17,SQUARES,First_showed,exp,45,15,False,1,1,3,0.4506309999997029,right,-
Y2-S2-129K31,18,SQUARES,First_showed,exp,45,15,True,2,0,-,0.48412269999971613,left,-
Y2-S2-129K31,19,SQUARES,First_showed,exp,45,15,True,2,0,-,0.35077380000439007,left,-
Y2-S2-129K31,20,SQUARES,First_showed,exp,45,15,True,2,1,4,0.3673200000048382,left,-
Y2-S2-129K31,21,SQUARES,First_showed,exp,45,15,True,1,0,-,0.35083149999263696,left,-
Y2-S2-129K31,22,SQUARES,First_showed,exp,45,15,True,1,0,-,0.4505407999968156,left,-
Y2-S2-129K31,23,SQUARES,First_showed,exp,45,15,True,1,0,-,0.4675245999969775,left,-
Y2-S2-129K31,24,SQUARES,First_showed,exp,45,15,True,0,0,-,1.567746700005955,right,-
Y2-S2-129K31,25,SQUARES,First_showed,exp,45,15,False,0,1,5,0.6174869999958901,left,-
Y2-S2-129K31,26,SQUARES,First_showed,exp,45,15,True,1,0,-,0.4341201000061119,right,-
Y2-S2-129K31,27,SQUARES,First_showed,exp,45,15,False,1,0,-,0.5342107999895234,left,-
Y2-S2-129K31,28,SQUARES,First_showed,exp,45,15,True,2,0,-,1.0005820999940624,right,-
Y2-S2-129K31,29,SQUARES,First_showed,exp,45,15,True,2,0,-,0.4007653000007849,left,-
Y2-S2-129K31,30,SQUARES,First_showed,exp,45,15,True,2,1,6,0.31782039999961853,left,-
Y2-S2-129K31,31,SQUARES,First_showed,exp,45,15,True,1,0,-,0.3343592000019271,left,-
Y2-S2-129K31,32,SQUARES,First_showed,exp,45,15,False,1,1,7,0.7841398000018671,right,-
Y2-S2-129K31,33,SQUARES,First_showed,exp,45,15,True,2,0,-,0.3840881000069203,left,-
Y2-S2-129K31,34,SQUARES,First_showed,exp,45,15,True,2,0,-,0.7508180000004359,right,-
Y2-S2-129K31,35,SQUARES,First_showed,exp,45,15,True,2,1,8,0.33424250000098255,right,-
Y2-S2-129K31,36,SQUARES,First_showed,exp,45,15,False,1,1,9,0.4683507000008831,left,-
Y2-S2-129K31,37,SQUARES,First_showed,exp,45,15,True,2,0,-,0.3010811999993166,right,-
Y2-S2-129K31,38,SQUARES,First_showed,exp,45,15,True,2,0,-,0.35083559999475256,right,-
Y2-S2-129K31,39,SQUARES,First_showed,exp,45,15,True,2,1,10,0.48370019999856595,left,-
Y2-S2-129K31,40,SQUARES,First_showed,exp,45,15,True,1,0,-,0.4509316000039689,left,-
Y2-S2-129K31,41,SQUARES,First_showed,exp,45,15,True,1,0,-,0.3841035999939777,left,-
Y2-S2-129K31,42,SQUARES,First_showed,exp,45,15,True,1,0,-,0.5671994999866001,left,-
Y2-S2-129K31,43,SQUARES,First_showed,exp,45,15,False,0,1,11,0.4510205999977188,right,-
Y2-S2-129K31,44,SQUARES,First_showed,exp,45,15,True,1,0,-,0.3841331000003265,left,-
Y2-S2-129K31,45,SQUARES,First_showed,exp,45,15,True,1,0,-,0.4841535999876214,left,-
Y2-S2-129K31,46,SQUARES,First_showed,exp,45,15,True,1,1,12,0.21752590000687633,left,-
Y2-S2-129K31,47,SQUARES,First_showed,exp,45,15,True,0,0,-,0.46727910000481643,left,-
Y2-S2-129K31,48,SQUARES,First_showed,exp,45,15,False,0,1,13,0.400888499993016,right,-
Y2-S2-129K31,49,SQUARES,First_showed,exp,45,15,True,1,0,-,2.9675674000027357,left,-
Y2-S2-129K31,50,SQUARES,First_showed,exp,45,15,True,1,0,-,0.41741960000945255,left,-
Y2-S2-129K31,51,SQUARES,First_showed,exp,45,15,True,1,1,14,0.36709220000193454,left,-
Y2-S2-129K31,52,SQUARES,First_showed,exp,45,15,True,0,0,-,0.45083590000285767,left,-
Y2-S2-129K31,53,SQUARES,First_showed,exp,45,15,False,0,1,15,0.3845327000017278,right,-
Y2-S2-129K31,54,SQUARES,First_showed,exp,45,15,False,1,0,-,0.4844764000008581,right,-
Y2-S2-129K31,55,SQUARES,First_showed,exp,45,15,True,2,0,-,0.217880399999558,left,-
Y2-S2-129K31,56,SQUARES,First_showed,exp,45,15,False,2,0,-,0.5009179999906337,left,-
Y2-S2-129K31,57,SQUARES,First_showed,exp,45,15,False,3,0,-,0.5674805000016931,left,-
Y2-S2-129K31,58,SQUARES,First_showed,exp,45,15,True,4,0,-,0.7509093000116991,left,-
Y2-S2-129K31,59,SQUARES,First_showed,exp,45,15,True,4,0,-,0.45098110000253655,left,-
Y2-S2-129K31,60,SQUARES,First_showed,exp,45,15,True,4,1,16,0.5009311000030721,left,-
Y2-S2-129K31,1,CIRCLES,First_hidden,training,45,15,True,8,-,-,0.43450529999972787,left,-
Y2-S2-129K31,2,CIRCLES,First_hidden,training,45,15,True,8,-,-,0.4339692999928957,left,-
Y2-S2-129K31,3,CIRCLES,First_hidden,training,45,15,True,8,-,-,0.35066949999600183,left,-
Y2-S2-129K31,4,CIRCLES,First_hidden,training,45,15,True,8,-,-,0.4509486000024481,left,-
Y2-S2-129K31,5,CIRCLES,First_hidden,training,45,15,True,8,-,-,0.4344019999989541,right,-
Y2-S2-129K31,6,CIRCLES,First_hidden,training,45,15,True,8,-,-,0.46804220000922214,left,-
Y2-S2-129K31,7,CIRCLES,First_hidden,training,45,15,True,8,-,-,0.5511117999994894,left,-
Y2-S2-129K31,8,CIRCLES,First_hidden,training,45,15,True,8,-,-,0.41731270001037046,left,-
Y2-S2-129K31,9,CIRCLES,First_hidden,training,45,15,True,8,-,-,0.4339910999988206,right,-
Y2-S2-129K31,10,CIRCLES,First_hidden,training,45,15,True,8,-,-,0.38440880000416655,left,-
Y2-S2-129K31,11,CIRCLES,First_hidden,training,45,15,True,3,-,-,0.5842771000025095,right,-
Y2-S2-129K31,12,CIRCLES,First_hidden,training,45,15,True,3,-,-,0.5507637000118848,right,-
Y2-S2-129K31,13,CIRCLES,First_hidden,training,45,15,True,3,-,-,0.4675806999875931,left,-
Y2-S2-129K31,14,CIRCLES,First_hidden,training,45,15,True,3,-,-,0.5013897000026191,left,-
Y2-S2-129K31,15,CIRCLES,First_hidden,training,45,15,True,3,-,-,1.517691000000923,left,-
Y2-S2-129K31,16,CIRCLES,First_hidden,training,45,15,True,3,-,-,0.5177943000016967,right,-
Y2-S2-129K31,17,CIRCLES,First_hidden,training,45,15,True,3,-,-,0.5171811000036541,right,-
Y2-S2-129K31,18,CIRCLES,First_hidden,training,45,15,True,3,-,-,0.48402629999327473,left,-
Y2-S2-129K31,19,CIRCLES,First_hidden,training,45,15,True,3,-,-,0.5176474999898346,right,-
Y2-S2-129K31,20,CIRCLES,First_hidden,training,45,15,True,3,-,-,0.534506700001657,right,-
Y2-S2-129K31,1,CIRCLES,First_hidden,exp,45,15,True,3,0,0,0.43407370000204537,left,-
Y2-S2-129K31,2,CIRCLES,First_hidden,exp,45,15,True,3,0,-,0.4008914000005461,right,-
Y2-S2-129K31,3,CIRCLES,First_hidden,exp,45,15,True,3,0,-,0.5175645000126678,right,-
Y2-S2-129K31,4,CIRCLES,First_hidden,exp,45,15,True,2,0,-,0.4183125999988988,left,-
Y2-S2-129K31,5,CIRCLES,First_hidden,exp,45,15,True,2,0,-,0.5676010000024689,right,-
Y2-S2-129K31,6,CIRCLES,First_hidden,exp,45,15,True,2,0,-,0.45105999999213964,left,-
Y2-S2-129K31,7,CIRCLES,First_hidden,exp,45,15,True,1,0,-,0.834126899993862,left,-
Y2-S2-129K31,8,CIRCLES,First_hidden,exp,45,15,True,1,0,-,0.584496700001182,right,-
Y2-S2-129K31,9,CIRCLES,First_hidden,exp,45,15,True,1,0,-,0.9005506999965291,right,-
Y2-S2-129K31,10,CIRCLES,First_hidden,exp,45,15,False,0,1,1,0.6507692000013776,right,-
Y2-S2-129K31,11,CIRCLES,First_hidden,exp,45,15,True,1,0,-,0.6508393999974942,right,-
Y2-S2-129K31,12,CIRCLES,First_hidden,exp,45,15,True,1,0,-,1.0007343999895966,left,-
Y2-S2-129K31,13,CIRCLES,First_hidden,exp,45,15,True,1,1,2,0.6175168999907328,right,-
Y2-S2-129K31,14,CIRCLES,First_hidden,exp,45,15,True,0,0,-,0.6341404999984661,right,-
Y2-S2-129K31,15,CIRCLES,First_hidden,exp,45,15,False,0,1,3,0.5683069000078831,left,-
Y2-S2-129K31,16,CIRCLES,First_hidden,exp,45,15,False,1,0,-,0.5170969000027981,left,-
Y2-S2-129K31,17,CIRCLES,First_hidden,exp,45,15,True,2,0,-,0.3518938000052003,left,-
Y2-S2-129K31,18,CIRCLES,First_hidden,exp,45,15,False,2,0,-,0.9505944999982603,left,-
Y2-S2-129K31,19,CIRCLES,First_hidden,exp,45,15,True,3,0,-,0.5507937999936985,left,-
Y2-S2-129K31,20,CIRCLES,First_hidden,exp,45,15,True,3,0,-,0.517382699996233,left,-
Y2-S2-129K31,21,CIRCLES,First_hidden,exp,45,15,True,3,1,4,0.5176866000110749,right,-
Y2-S2-129K31,22,CIRCLES,First_hidden,exp,45,15,True,2,0,-,0.5509588999993866,left,-
Y2-S2-129K31,23,CIRCLES,First_hidden,exp,45,15,True,2,0,-,0.5505598000017926,right,-
Y2-S2-129K31,24,CIRCLES,First_hidden,exp,45,15,True,2,0,-,0.5010099000064656,left,-
Y2-S2-129K31,25,CIRCLES,First_hidden,exp,45,15,True,1,0,-,0.5841632999945432,right,-
Y2-S2-129K31,26,CIRCLES,First_hidden,exp,45,15,True,1,0,-,0.5677514999988489,left,-
Y2-S2-129K31,27,CIRCLES,First_hidden,exp,45,15,False,1,1,5,0.5840290000051027,right,-
Y2-S2-129K31,28,CIRCLES,First_hidden,exp,45,15,True,2,0,-,0.6175628999917535,left,-
Y2-S2-129K31,29,CIRCLES,First_hidden,exp,45,15,True,2,0,-,0.50090659999114,left,-
Y2-S2-129K31,30,CIRCLES,First_hidden,exp,45,15,True,2,1,6,0.43404340000415687,left,-
Y2-S2-129K31,31,CIRCLES,First_hidden,exp,45,15,False,1,1,7,0.5676039999962086,right,-
Y2-S2-129K31,32,CIRCLES,First_hidden,exp,45,15,True,2,0,-,0.6844893000088632,right,-
Y2-S2-129K31,33,CIRCLES,First_hidden,exp,45,15,True,2,0,-,0.5842287999985274,left,-
Y2-S2-129K31,34,CIRCLES,First_hidden,exp,45,15,True,2,1,8,0.634379800001625,right,-
Y2-S2-129K31,35,CIRCLES,First_hidden,exp,45,15,True,1,0,-,0.6844242000079248,left,-
Y2-S2-129K31,36,CIRCLES,First_hidden,exp,45,15,False,1,1,9,0.7509083000040846,right,-
Y2-S2-129K31,37,CIRCLES,First_hidden,exp,45,15,True,2,0,-,0.5673893999919528,left,-
Y2-S2-129K31,38,CIRCLES,First_hidden,exp,45,15,True,2,0,-,0.7007737999956589,right,-
Y2-S2-129K31,39,CIRCLES,First_hidden,exp,45,15,True,2,1,10,0.5009380999981659,left,-
Y2-S2-129K31,40,CIRCLES,First_hidden,exp,45,15,True,1,0,-,0.8178707000042778,left,-
Y2-S2-129K31,41,CIRCLES,First_hidden,exp,45,15,True,1,0,-,1.051135300003807,right,-
Y2-S2-129K31,42,CIRCLES,First_hidden,exp,45,15,True,1,0,-,0.9173910000099568,left,-
Y2-S2-129K31,43,CIRCLES,First_hidden,exp,45,15,False,0,1,11,0.7844990999874426,left,-
Y2-S2-129K31,44,CIRCLES,First_hidden,exp,45,15,False,1,0,-,0.6344863999984227,left,-
Y2-S2-129K31,45,CIRCLES,First_hidden,exp,45,15,True,2,0,-,0.5509804000030272,right,-
Y2-S2-129K31,46,CIRCLES,First_hidden,exp,45,15,True,2,0,-,0.4836014000029536,right,-
Y2-S2-129K31,47,CIRCLES,First_hidden,exp,45,15,True,2,1,12,0.5501564000005601,right,-
Y2-S2-129K31,48,CIRCLES,First_hidden,exp,45,15,True,1,0,-,0.6172850000002654,left,-
Y2-S2-129K31,49,CIRCLES,First_hidden,exp,45,15,True,1,0,-,0.5181501000042772,right,-
Y2-S2-129K31,50,CIRCLES,First_hidden,exp,45,15,True,1,0,-,0.7505595999973593,right,-
Y2-S2-129K31,51,CIRCLES,First_hidden,exp,45,15,True,0,0,-,0.5849097000027541,left,-
Y2-S2-129K31,52,CIRCLES,First_hidden,exp,45,15,False,0,1,13,0.7507648000027984,left,-
Y2-S2-129K31,53,CIRCLES,First_hidden,exp,45,15,True,1,0,-,0.5672975000052247,right,-
Y2-S2-129K31,54,CIRCLES,First_hidden,exp,45,15,False,1,0,-,0.5510186000028625,left,-
Y2-S2-129K31,55,CIRCLES,First_hidden,exp,45,15,True,2,0,-,0.601012900006026,left,-
Y2-S2-129K31,56,CIRCLES,First_hidden,exp,45,15,False,2,0,-,0.9173994000011589,left,-
Y2-S2-129K31,57,CIRCLES,First_hidden,exp,45,15,True,3,0,-,0.4670181999972556,left,-
Y2-S2-129K31,58,CIRCLES,First_hidden,exp,45,15,True,3,0,-,0.5174153999978444,left,-
Y2-S2-129K31,59,CIRCLES,First_hidden,exp,45,15,True,3,1,14,0.5510843999945791,right,-
Y2-S2-129K31,60,CIRCLES,First_hidden,exp,45,15,True,2,0,-,0.5509302999998908,left,-
Y2-S2-129K31,61,CIRCLES,First_hidden,exp,45,15,True,2,0,-,0.784440600007656,left,-
Y2-S2-129K31,62,CIRCLES,First_hidden,exp,45,15,True,2,0,-,0.46770870000182185,right,-
Y2-S2-129K31,63,CIRCLES,First_hidden,exp,45,15,True,1,0,-,0.5675944000104209,right,-
Y2-S2-129K31,64,CIRCLES,First_hidden,exp,45,15,False,1,1,15,0.6842795999982627,left,-
Y2-S2-129K31,65,CIRCLES,First_hidden,exp,45,15,True,2,0,-,0.4674860999948578,left,-
Y2-S2-129K31,66,CIRCLES,First_hidden,exp,45,15,True,2,0,-,0.7677079999994021,left,-
Y2-S2-129K31,67,CIRCLES,First_hidden,exp,45,15,True,2,1,16,0.5341162999975495,left,-
