PART_ID,Trial,Stimuli,Version,Training,FIXTIME,TIME,Correct,SOA,Reversal,Reversal_count,Latency,stim_name,Rating
Y2-S2-018K21,1,SQUARES,First_showed,training,45,15,True,8,-,-,0.6006704999599606,left,-
Y2-S2-018K21,2,SQUARES,First_showed,training,45,15,True,8,-,-,0.36772710003424436,right,-
Y2-S2-018K21,3,SQUARES,First_showed,training,45,15,True,8,-,-,0.2841932000592351,right,-
Y2-S2-018K21,4,SQUARES,First_showed,training,45,15,True,8,-,-,0.20121009997092187,right,-
Y2-S2-018K21,5,SQUARES,First_showed,training,45,15,True,8,-,-,0.2843475000699982,left,-
Y2-S2-018K21,6,SQUARES,First_showed,training,45,15,True,8,-,-,0.28369289997499436,left,-
Y2-S2-018K21,7,SQUARES,First_showed,training,45,15,True,8,-,-,0.36759859998710454,right,-
Y2-S2-018K21,8,SQUARES,First_showed,training,45,15,True,8,-,-,0.43429140001535416,left,-
Y2-S2-018K21,9,SQUARES,First_showed,training,45,15,True,8,-,-,0.21753129991702735,left,-
Y2-S2-018K21,10,SQUARES,First_showed,training,45,15,True,8,-,-,0.21735629998147488,right,-
Y2-S2-018K21,11,SQUARES,First_showed,training,45,15,True,3,-,-,0.25072070001624525,right,-
Y2-S2-018K21,12,SQUARES,First_showed,training,45,15,True,3,-,-,0.3668824000051245,right,-
Y2-S2-018K21,13,SQUARES,First_showed,training,45,15,True,3,-,-,0.23386939999181777,left,-
Y2-S2-018K21,14,SQUARES,First_showed,training,45,15,True,3,-,-,0.7672978999326006,right,-
Y2-S2-018K21,15,SQUARES,First_showed,training,45,15,False,3,-,-,0.30057189997751266,right,-
Y2-S2-018K21,16,SQUARES,First_showed,training,45,15,True,3,-,-,0.21749140007887036,left,-
Y2-S2-018K21,17,SQUARES,First_showed,training,45,15,True,3,-,-,0.11694239999633282,right,-
Y2-S2-018K21,18,SQUARES,First_showed,training,45,15,False,3,-,-,0.2506944000488147,left,-
Y2-S2-018K21,19,SQUARES,First_showed,training,45,15,True,3,-,-,0.3505849000066519,left,-
Y2-S2-018K21,20,SQUARES,First_showed,training,45,15,True,3,-,-,0.3175050999270752,left,-
Y2-S2-018K21,1,SQUARES,First_showed,exp,45,15,True,3,0,0,0.283911700011231,left,-
Y2-S2-018K21,2,SQUARES,First_showed,exp,45,15,True,3,0,-,0.2838891999563202,left,-
Y2-S2-018K21,3,SQUARES,First_showed,exp,45,15,True,3,0,-,0.21727210003882647,right,-
Y2-S2-018K21,4,SQUARES,First_showed,exp,45,15,True,2,0,-,0.28438219998497516,left,-
Y2-S2-018K21,5,SQUARES,First_showed,exp,45,15,True,2,0,-,0.20080459991004318,left,-
Y2-S2-018K21,6,SQUARES,First_showed,exp,45,15,True,2,0,-,0.3006501999916509,left,-
Y2-S2-018K21,7,SQUARES,First_showed,exp,45,15,True,1,0,-,0.2507447999669239,left,-
Y2-S2-018K21,8,SQUARES,First_showed,exp,45,15,True,1,0,-,0.1173163999337703,right,-
Y2-S2-018K21,9,SQUARES,First_showed,exp,45,15,True,1,0,-,0.3004758000606671,right,-
Y2-S2-018K21,10,SQUARES,First_showed,exp,45,15,True,0,0,-,0.4340418000938371,left,-
Y2-S2-018K21,11,SQUARES,First_showed,exp,45,15,True,0,0,-,0.6341695000883192,left,-
Y2-S2-018K21,12,SQUARES,First_showed,exp,45,15,False,0,1,1,0.6006573000922799,right,-
Y2-S2-018K21,13,SQUARES,First_showed,exp,45,15,True,1,0,-,0.4675687999697402,right,-
Y2-S2-018K21,14,SQUARES,First_showed,exp,45,15,True,1,0,-,0.5508631000993773,left,-
Y2-S2-018K21,15,SQUARES,First_showed,exp,45,15,True,1,1,2,0.5176711999811232,left,-
Y2-S2-018K21,16,SQUARES,First_showed,exp,45,15,False,0,1,3,0.5006366999587044,left,-
Y2-S2-018K21,17,SQUARES,First_showed,exp,45,15,True,1,0,-,0.600673200096935,right,-
Y2-S2-018K21,18,SQUARES,First_showed,exp,45,15,False,1,0,-,0.4841818999266252,left,-
Y2-S2-018K21,19,SQUARES,First_showed,exp,45,15,True,2,0,-,0.4676626999862492,left,-
Y2-S2-018K21,20,SQUARES,First_showed,exp,45,15,False,2,0,-,1.0005182001041248,right,-
Y2-S2-018K21,21,SQUARES,First_showed,exp,45,15,True,3,0,-,0.38413040002342314,left,-
Y2-S2-018K21,22,SQUARES,First_showed,exp,45,15,True,3,0,-,0.3675689999945462,right,-
Y2-S2-018K21,23,SQUARES,First_showed,exp,45,15,True,3,1,4,0.2674526000628248,left,-
Y2-S2-018K21,24,SQUARES,First_showed,exp,45,15,True,2,0,-,0.3338763000210747,left,-
Y2-S2-018K21,25,SQUARES,First_showed,exp,45,15,True,2,0,-,0.35027789999730885,right,-
Y2-S2-018K21,26,SQUARES,First_showed,exp,45,15,True,2,0,-,0.31752460007555783,right,-
Y2-S2-018K21,27,SQUARES,First_showed,exp,45,15,True,1,0,-,0.317525599966757,left,-
Y2-S2-018K21,28,SQUARES,First_showed,exp,45,15,True,1,0,-,0.2673298000590876,left,-
Y2-S2-018K21,29,SQUARES,First_showed,exp,45,15,True,1,0,-,1.8175008000107482,right,-
Y2-S2-018K21,30,SQUARES,First_showed,exp,45,15,False,0,1,5,1.1173541999887675,left,-
Y2-S2-018K21,31,SQUARES,First_showed,exp,45,15,True,1,0,-,0.6670420999871567,left,-
Y2-S2-018K21,32,SQUARES,First_showed,exp,45,15,True,1,0,-,0.7341663999250159,right,-
Y2-S2-018K21,33,SQUARES,First_showed,exp,45,15,True,1,1,6,0.8841019000392407,right,-
Y2-S2-018K21,34,SQUARES,First_showed,exp,45,15,False,0,1,7,0.6340892999432981,left,-
Y2-S2-018K21,35,SQUARES,First_showed,exp,45,15,False,1,0,-,0.3341960000107065,right,-
Y2-S2-018K21,36,SQUARES,First_showed,exp,45,15,True,2,0,-,0.5673737999750301,left,-
Y2-S2-018K21,37,SQUARES,First_showed,exp,45,15,True,2,0,-,0.3674363000318408,right,-
Y2-S2-018K21,38,SQUARES,First_showed,exp,45,15,True,2,1,8,0.45087589998729527,left,-
Y2-S2-018K21,39,SQUARES,First_showed,exp,45,15,True,1,0,-,0.400349700008519,left,-
Y2-S2-018K21,40,SQUARES,First_showed,exp,45,15,True,1,0,-,0.38391760003287345,right,-
Y2-S2-018K21,41,SQUARES,First_showed,exp,45,15,True,1,0,-,0.3345358999213204,right,-
Y2-S2-018K21,42,SQUARES,First_showed,exp,45,15,False,0,1,9,0.5841679000295699,right,-
Y2-S2-018K21,43,SQUARES,First_showed,exp,45,15,True,1,0,-,0.333944599959068,left,-
Y2-S2-018K21,44,SQUARES,First_showed,exp,45,15,True,1,0,-,0.31740069994702935,left,-
Y2-S2-018K21,45,SQUARES,First_showed,exp,45,15,True,1,1,10,0.40023539995308965,left,-
Y2-S2-018K21,46,SQUARES,First_showed,exp,45,15,False,0,1,11,0.2675543000223115,right,-
Y2-S2-018K21,47,SQUARES,First_showed,exp,45,15,True,1,0,-,0.2842201000312343,left,-
Y2-S2-018K21,48,SQUARES,First_showed,exp,45,15,False,1,0,-,0.4338642000220716,right,-
Y2-S2-018K21,49,SQUARES,First_showed,exp,45,15,True,2,0,-,0.2845479999668896,right,-
Y2-S2-018K21,50,SQUARES,First_showed,exp,45,15,True,2,0,-,0.35072570003103465,left,-
Y2-S2-018K21,51,SQUARES,First_showed,exp,45,15,True,2,1,12,0.7008852999424562,right,-
Y2-S2-018K21,52,SQUARES,First_showed,exp,45,15,True,1,0,-,0.36751429992727935,right,-
Y2-S2-018K21,53,SQUARES,First_showed,exp,45,15,True,1,0,-,0.2506709999870509,left,-
Y2-S2-018K21,54,SQUARES,First_showed,exp,45,15,True,1,0,-,0.5671496998984367,right,-
Y2-S2-018K21,55,SQUARES,First_showed,exp,45,15,False,0,1,13,0.2668452999787405,left,-
Y2-S2-018K21,56,SQUARES,First_showed,exp,45,15,True,1,0,-,0.48411650001071393,left,-
Y2-S2-018K21,57,SQUARES,First_showed,exp,45,15,True,1,0,-,0.3670477999839932,left,-
Y2-S2-018K21,58,SQUARES,First_showed,exp,45,15,True,1,1,14,0.3673224999802187,right,-
Y2-S2-018K21,59,SQUARES,First_showed,exp,45,15,True,0,0,-,1.617563399951905,right,-
Y2-S2-018K21,60,SQUARES,First_showed,exp,45,15,False,0,1,15,0.4342565000988543,right,-
Y2-S2-018K21,61,SQUARES,First_showed,exp,45,15,True,1,0,-,0.4170765000162646,left,-
Y2-S2-018K21,62,SQUARES,First_showed,exp,45,15,True,1,0,-,0.2837883998872712,right,-
Y2-S2-018K21,63,SQUARES,First_showed,exp,45,15,True,1,1,16,0.3341511000180617,right,-
Y2-S2-018K21,1,CIRCLES,First_hidden,training,45,15,True,8,-,-,1.7843370001064613,right,-
Y2-S2-018K21,2,CIRCLES,First_hidden,training,45,15,False,8,-,-,1.6005910000531003,right,-
Y2-S2-018K21,3,CIRCLES,First_hidden,training,45,15,True,8,-,-,0.583982800017111,right,-
Y2-S2-018K21,4,CIRCLES,First_hidden,training,45,15,False,8,-,-,1.317525300080888,left,-
Y2-S2-018K21,5,CIRCLES,First_hidden,training,45,15,True,8,-,-,0.6674730000086129,right,-
Y2-S2-018K21,6,CIRCLES,First_hidden,training,45,15,True,8,-,-,0.5509229999734089,right,-
Y2-S2-018K21,7,CIRCLES,First_hidden,training,45,15,True,8,-,-,0.6176838999381289,left,-
Y2-S2-018K21,8,CIRCLES,First_hidden,training,45,15,True,8,-,-,0.6840389999561012,left,-
Y2-S2-018K21,9,CIRCLES,First_hidden,training,45,15,True,8,-,-,0.5172523999353871,left,-
Y2-S2-018K21,10,CIRCLES,First_hidden,training,45,15,True,8,-,-,0.4507021000608802,right,-
Y2-S2-018K21,11,CIRCLES,First_hidden,training,45,15,True,3,-,-,0.5507753998972476,right,-
Y2-S2-018K21,12,CIRCLES,First_hidden,training,45,15,True,3,-,-,0.4008278000401333,left,-
Y2-S2-018K21,13,CIRCLES,First_hidden,training,45,15,True,3,-,-,0.5007238000398502,left,-
Y2-S2-018K21,14,CIRCLES,First_hidden,training,45,15,True,3,-,-,0.30065729992929846,left,-
Y2-S2-018K21,15,CIRCLES,First_hidden,training,45,15,True,3,-,-,0.3506809000391513,left,-
Y2-S2-018K21,16,CIRCLES,First_hidden,training,45,15,True,3,-,-,0.4341658999910578,right,-
Y2-S2-018K21,17,CIRCLES,First_hidden,training,45,15,True,3,-,-,0.4175568000646308,right,-
Y2-S2-018K21,18,CIRCLES,First_hidden,training,45,15,True,3,-,-,0.43424789991695434,left,-
Y2-S2-018K21,19,CIRCLES,First_hidden,training,45,15,True,3,-,-,0.36834809998981655,right,-
Y2-S2-018K21,20,CIRCLES,First_hidden,training,45,15,True,3,-,-,0.35077209991868585,left,-
Y2-S2-018K21,1,CIRCLES,First_hidden,exp,45,15,True,3,0,0,0.3007795999292284,left,-
Y2-S2-018K21,2,CIRCLES,First_hidden,exp,45,15,True,3,0,-,0.3674909999826923,right,-
Y2-S2-018K21,3,CIRCLES,First_hidden,exp,45,15,True,3,0,-,0.3674454999854788,left,-
Y2-S2-018K21,4,CIRCLES,First_hidden,exp,45,15,True,2,0,-,0.40113810007460415,right,-
Y2-S2-018K21,5,CIRCLES,First_hidden,exp,45,15,True,2,0,-,0.4675395000958815,right,-
Y2-S2-018K21,6,CIRCLES,First_hidden,exp,45,15,True,2,0,-,0.4340209000511095,right,-
Y2-S2-018K21,7,CIRCLES,First_hidden,exp,45,15,True,1,0,-,0.46748659992590547,right,-
Y2-S2-018K21,8,CIRCLES,First_hidden,exp,45,15,True,1,0,-,0.6339359000558034,left,-
Y2-S2-018K21,9,CIRCLES,First_hidden,exp,45,15,False,1,1,1,0.5340105999493971,right,-
Y2-S2-018K21,10,CIRCLES,First_hidden,exp,45,15,True,2,0,-,0.38392759999260306,left,-
Y2-S2-018K21,11,CIRCLES,First_hidden,exp,45,15,True,2,0,-,0.36727950000204146,right,-
Y2-S2-018K21,12,CIRCLES,First_hidden,exp,45,15,True,2,1,2,0.43406450003385544,right,-
Y2-S2-018K21,13,CIRCLES,First_hidden,exp,45,15,True,1,0,-,0.45090979989618063,right,-
Y2-S2-018K21,14,CIRCLES,First_hidden,exp,45,15,True,1,0,-,0.35070519999135286,left,-
Y2-S2-018K21,15,CIRCLES,First_hidden,exp,45,15,False,1,1,3,0.517120199976489,right,-
Y2-S2-018K21,16,CIRCLES,First_hidden,exp,45,15,True,2,0,-,0.41834130010101944,left,-
Y2-S2-018K21,17,CIRCLES,First_hidden,exp,45,15,True,2,0,-,0.4340907000005245,left,-
Y2-S2-018K21,18,CIRCLES,First_hidden,exp,45,15,False,2,0,-,0.5507747000083327,left,-
Y2-S2-018K21,19,CIRCLES,First_hidden,exp,45,15,False,3,0,-,0.5174915000097826,left,-
Y2-S2-018K21,20,CIRCLES,First_hidden,exp,45,15,True,4,0,-,0.28429460001643747,right,-
Y2-S2-018K21,21,CIRCLES,First_hidden,exp,45,15,True,4,0,-,0.5006745000137016,left,-
Y2-S2-018K21,22,CIRCLES,First_hidden,exp,45,15,True,4,1,4,0.2343309000134468,left,-
Y2-S2-018K21,23,CIRCLES,First_hidden,exp,45,15,False,3,1,5,0.5172213999321684,right,-
Y2-S2-018K21,24,CIRCLES,First_hidden,exp,45,15,True,4,0,-,0.5509772000368685,left,-
Y2-S2-018K21,25,CIRCLES,First_hidden,exp,45,15,True,4,0,-,0.43403480004053563,right,-
Y2-S2-018K21,26,CIRCLES,First_hidden,exp,45,15,True,4,1,6,0.3009584000101313,left,-
Y2-S2-018K21,27,CIRCLES,First_hidden,exp,45,15,True,3,0,-,0.31757300009485334,left,-
Y2-S2-018K21,28,CIRCLES,First_hidden,exp,45,15,True,3,0,-,0.2841255000093952,left,-
Y2-S2-018K21,29,CIRCLES,First_hidden,exp,45,15,True,3,0,-,0.41752480005379766,right,-
Y2-S2-018K21,30,CIRCLES,First_hidden,exp,45,15,True,2,0,-,1.5169745000312105,right,-
Y2-S2-018K21,31,CIRCLES,First_hidden,exp,45,15,True,2,0,-,0.4344885000027716,left,-
Y2-S2-018K21,32,CIRCLES,First_hidden,exp,45,15,True,2,0,-,0.41740060003940016,left,-
Y2-S2-018K21,33,CIRCLES,First_hidden,exp,45,15,True,1,0,-,0.41771429998334497,right,-
Y2-S2-018K21,34,CIRCLES,First_hidden,exp,45,15,True,1,0,-,0.6340446000685915,left,-
Y2-S2-018K21,35,CIRCLES,First_hidden,exp,45,15,True,1,0,-,0.4175478999968618,left,-
Y2-S2-018K21,36,CIRCLES,First_hidden,exp,45,15,True,0,0,-,0.5339790999423712,left,-
Y2-S2-018K21,37,CIRCLES,First_hidden,exp,45,15,False,0,1,7,0.41750830004457384,right,-
Y2-S2-018K21,38,CIRCLES,First_hidden,exp,45,15,True,1,0,-,0.4838731999043375,left,-
Y2-S2-018K21,39,CIRCLES,First_hidden,exp,45,15,False,1,0,-,0.4841964999213815,left,-
Y2-S2-018K21,40,CIRCLES,First_hidden,exp,45,15,True,2,0,-,0.30078469996806234,left,-
Y2-S2-018K21,41,CIRCLES,First_hidden,exp,45,15,True,2,0,-,0.36760570004116744,left,-
Y2-S2-018K21,42,CIRCLES,First_hidden,exp,45,15,True,2,1,8,0.25093350000679493,left,-
Y2-S2-018K21,43,CIRCLES,First_hidden,exp,45,15,True,1,0,-,2.333740600035526,left,-
Y2-S2-018K21,44,CIRCLES,First_hidden,exp,45,15,True,1,0,-,0.48396490002050996,left,-
Y2-S2-018K21,45,CIRCLES,First_hidden,exp,45,15,True,1,0,-,0.4675362999550998,left,-
Y2-S2-018K21,46,CIRCLES,First_hidden,exp,45,15,True,0,0,-,0.8341311999829486,left,-
Y2-S2-018K21,47,CIRCLES,First_hidden,exp,45,15,False,0,1,9,0.5337219999637455,right,-
Y2-S2-018K21,48,CIRCLES,First_hidden,exp,45,15,True,1,0,-,0.6339875999838114,left,-
Y2-S2-018K21,49,CIRCLES,First_hidden,exp,45,15,True,1,0,-,0.48362620000261813,right,-
Y2-S2-018K21,50,CIRCLES,First_hidden,exp,45,15,True,1,1,10,0.5841701999306679,right,-
Y2-S2-018K21,51,CIRCLES,First_hidden,exp,45,15,True,0,0,-,0.5507487999275327,right,-
Y2-S2-018K21,52,CIRCLES,First_hidden,exp,45,15,True,0,0,-,0.617713600047864,right,-
Y2-S2-018K21,53,CIRCLES,First_hidden,exp,45,15,True,0,0,-,0.6007237000158057,right,-
Y2-S2-018K21,54,CIRCLES,First_hidden,exp,45,15,False,-1,1,11,0.434263699920848,right,-
Y2-S2-018K21,55,CIRCLES,First_hidden,exp,45,15,True,0,0,-,0.41741059999912977,right,-
Y2-S2-018K21,56,CIRCLES,First_hidden,exp,45,15,False,0,0,-,0.6009809999959543,right,-
Y2-S2-018K21,57,CIRCLES,First_hidden,exp,45,15,True,1,0,-,0.5838426999980584,right,-
Y2-S2-018K21,58,CIRCLES,First_hidden,exp,45,15,True,1,0,-,0.4177149999886751,right,-
Y2-S2-018K21,59,CIRCLES,First_hidden,exp,45,15,True,1,1,12,0.38427330006379634,left,-
Y2-S2-018K21,60,CIRCLES,First_hidden,exp,45,15,True,0,0,-,0.38407009991351515,left,-
Y2-S2-018K21,61,CIRCLES,First_hidden,exp,45,15,True,0,0,-,0.1669670999981463,right,-
Y2-S2-018K21,62,CIRCLES,First_hidden,exp,45,15,True,0,0,-,0.7507875999435782,right,-
Y2-S2-018K21,63,CIRCLES,First_hidden,exp,45,15,True,-1,0,-,0.21694310009479523,left,-
Y2-S2-018K21,64,CIRCLES,First_hidden,exp,45,15,False,-1,1,13,0.4839919999940321,right,-
Y2-S2-018K21,65,CIRCLES,First_hidden,exp,45,15,False,0,0,-,0.25065180007368326,left,-
Y2-S2-018K21,66,CIRCLES,First_hidden,exp,45,15,False,1,0,-,0.2341032000258565,right,-
Y2-S2-018K21,67,CIRCLES,First_hidden,exp,45,15,True,2,0,-,0.40088179998565465,right,-
Y2-S2-018K21,68,CIRCLES,First_hidden,exp,45,15,True,2,0,-,0.318109399988316,right,-
Y2-S2-018K21,69,CIRCLES,First_hidden,exp,45,15,True,2,1,14,0.4675770999165252,left,-
Y2-S2-018K21,70,CIRCLES,First_hidden,exp,45,15,True,1,0,-,0.40081779996398836,left,-
Y2-S2-018K21,71,CIRCLES,First_hidden,exp,45,15,True,1,0,-,0.5842005000449717,right,-
Y2-S2-018K21,72,CIRCLES,First_hidden,exp,45,15,True,1,0,-,0.38439999998081475,left,-
Y2-S2-018K21,73,CIRCLES,First_hidden,exp,45,15,True,0,0,-,0.5175583999371156,right,-
Y2-S2-018K21,74,CIRCLES,First_hidden,exp,45,15,False,0,1,15,0.8166934000328183,right,-
Y2-S2-018K21,75,CIRCLES,First_hidden,exp,45,15,True,1,0,-,0.3840467999689281,left,-
Y2-S2-018K21,76,CIRCLES,First_hidden,exp,45,15,True,1,0,-,0.5340284999692813,left,-
Y2-S2-018K21,77,CIRCLES,First_hidden,exp,45,15,True,1,1,16,0.4175806000130251,left,-
