PART_ID,Trial_no,Trial_type,CSI,Stim_letter,Key_pressed,letter_choose,Rt,Corr,Stimulus Time,nDropped
AC-K-24K24S2,1,training,120,→,right,→,0.8869054999668151,True,60,1
AC-K-24K24S2,2,training,120,↓,down,↓,0.7542361000087112,True,60,0
AC-K-24K24S2,3,training,120,→,right,→,0.6272201000247151,True,60,0
AC-K-24K24S2,4,training,120,←,left,←,0.6258380999788642,True,60,0
AC-K-24K24S2,5,training,120,↑,up,↑,0.5760466000065207,True,60,0
AC-K-24K24S2,6,training,120,↑,up,↑,0.4921428000088781,True,60,0
AC-K-24K24S2,7,training,120,↓,down,↓,0.6263188000302762,True,60,0
AC-K-24K24S2,8,training,120,←,left,←,0.5086006000638008,True,60,0
AC-K-24K24S2,9,training,120,↓,down,↓,0.6813207999803126,True,60,0
AC-K-24K24S2,10,training,120,↑,up,↑,0.7248651999980211,True,60,0
AC-K-24K24S2,11,training,120,←,left,←,0.5754068000242114,True,60,0
AC-K-24K24S2,12,training,120,→,right,→,0.5338595998473465,True,60,0
AC-K-24K24S2,13,training,120,←,right,→,0.47769750002771616,False,60,0
AC-K-24K24S2,14,training,120,←,left,←,0.48601290001533926,True,60,0
AC-K-24K24S2,15,training,120,←,left,←,0.4194689001888037,True,60,0
AC-K-24K24S2,16,training,120,←,left,←,0.4777047000825405,True,60,0
AC-K-24K24S2,17,training,120,↓,no_key,no_letter,-1.0,False,60,0
AC-K-24K24S2,18,training,120,↓,down,↓,0.7247506999410689,True,60,0
AC-K-24K24S2,19,training,120,→,right,→,0.6259469999931753,True,60,0
AC-K-24K24S2,20,training,120,↑,no_key,no_letter,-1.0,False,60,0
AC-K-24K24S2,21,no_adaptation,120,↑,up,↑,0.6976048999931663,True,36,0
AC-K-24K24S2,22,no_adaptation,120,→,right,→,0.5244279999751598,True,36,0
AC-K-24K24S2,23,no_adaptation,120,↑,up,↑,0.5102675000671297,True,36,0
AC-K-24K24S2,24,no_adaptation,120,↓,down,↓,0.5850656998809427,True,36,0
AC-K-24K24S2,25,no_adaptation,120,→,right,→,0.5210601000580937,True,36,0
AC-K-24K24S2,26,no_adaptation,120,←,left,←,0.5228446999099106,True,36,0
AC-K-24K24S2,27,no_adaptation,120,↑,up,↑,0.5169909000396729,True,36,0
AC-K-24K24S2,28,no_adaptation,120,←,left,←,0.4095729999244213,True,36,0
AC-K-24K24S2,29,no_adaptation,120,←,left,←,0.6536957998760045,True,36,0
AC-K-24K24S2,30,no_adaptation,120,←,left,←,0.3752564999740571,True,36,0
AC-K-24K24S2,31,no_adaptation,120,↓,down,↓,0.554356399923563,True,36,0
AC-K-24K24S2,32,no_adaptation,120,↑,up,↑,0.4279070000629872,True,36,0
AC-K-24K24S2,33,no_adaptation,120,←,left,←,0.36720970016904175,True,36,0
AC-K-24K24S2,34,no_adaptation,120,→,right,→,0.3778337000403553,True,36,0
AC-K-24K24S2,35,no_adaptation,120,→,right,→,0.44237560010515153,True,36,0
AC-K-24K24S2,36,no_adaptation,120,←,left,←,0.32558399997651577,True,36,0
AC-K-24K24S2,37,no_adaptation,120,←,left,←,0.4007655999157578,True,36,0
AC-K-24K24S2,38,no_adaptation,120,↓,down,↓,0.5655856998637319,True,36,0
AC-K-24K24S2,39,no_adaptation,120,↓,down,↓,0.5179868000559509,True,36,0
AC-K-24K24S2,40,no_adaptation,120,←,left,←,0.45114600006490946,True,36,0
AC-K-24K24S2,41,training,61,←,left,←,0.5807284000329673,True,36,0
AC-K-24K24S2,42,training,88,↑,up,↑,0.5759145000483841,True,36,1
AC-K-24K24S2,43,experiment,68,→,right,→,0.4740949999541044,True,36,1
AC-K-24K24S2,44,experiment,61,↑,up,↑,0.4821485998108983,True,36,1
AC-K-24K24S2,45,experiment,59,←,left,←,1.6904663001187146,True,36,1
AC-K-24K24S2,46,experiment,78,↓,down,↓,0.4692673999816179,True,36,1
AC-K-24K24S2,47,experiment,50,←,left,←,0.5286544999107718,True,36,1
AC-K-24K24S2,48,experiment,65,→,right,→,0.3508233998436481,True,36,1
AC-K-24K24S2,49,experiment,102,→,right,→,0.43383549991995096,True,36,0
AC-K-24K24S2,50,experiment,70,↑,up,↑,0.39215790014714,True,36,0
AC-K-24K24S2,51,experiment,99,↓,down,↓,0.5623798999004066,True,36,0
AC-K-24K24S2,52,experiment,81,↓,down,↓,0.4969030001666397,True,36,1
AC-K-24K24S2,53,experiment,97,↑,up,↑,0.5800212998874485,True,36,1
AC-K-24K24S2,54,experiment,105,↑,up,↑,0.5856101999524981,True,36,1
AC-K-24K24S2,55,experiment,93,↑,up,↑,0.5149181999731809,True,36,1
AC-K-24K24S2,56,experiment,76,→,right,→,0.4512610000092536,True,36,1
AC-K-24K24S2,57,experiment,51,↑,up,↑,0.560887899948284,True,36,1
AC-K-24K24S2,58,experiment,64,→,right,→,0.4010489999782294,True,36,1
AC-K-24K24S2,59,experiment,106,↑,up,↑,0.3921773999463767,True,36,0
AC-K-24K24S2,60,experiment,58,→,right,→,0.33394389995373785,True,36,0
AC-K-24K24S2,61,experiment,71,↓,down,↓,0.40116270002909005,True,36,0
AC-K-24K24S2,62,experiment,96,↑,up,↑,0.3923003999516368,True,36,1
AC-K-24K24S2,63,experiment,104,→,right,→,0.3176951000932604,True,36,0
AC-K-24K24S2,64,experiment,63,↑,down,↓,0.49821899994276464,False,36,0
AC-K-24K24S2,65,experiment,73,→,right,→,0.44211750011891127,True,36,1
AC-K-24K24S2,66,experiment,86,→,right,→,0.3928535000886768,True,36,0
AC-K-24K24S2,67,experiment,88,↑,up,↑,0.3504131999798119,True,36,1
AC-K-24K24S2,68,experiment,74,↑,up,↑,0.35055229999125004,True,36,0
AC-K-24K24S2,69,experiment,53,→,right,→,0.4262867998331785,True,36,0
AC-K-24K24S2,70,experiment,90,↓,up,↑,0.4190307001117617,False,36,0
AC-K-24K24S2,71,experiment,108,←,right,→,0.38374099996872246,False,36,0
AC-K-24K24S2,72,experiment,66,↑,up,↑,0.6544393000658602,True,36,0
AC-K-24K24S2,73,experiment,94,←,left,←,0.4169453999493271,True,36,1
AC-K-24K24S2,74,experiment,48,↑,up,↑,0.6032483000308275,True,36,0
AC-K-24K24S2,75,experiment,72,↑,up,↑,1.4266677000559866,True,36,1
AC-K-24K24S2,76,experiment,103,↓,down,↓,0.4870100999251008,True,36,1
AC-K-24K24S2,77,experiment,92,↓,down,↓,0.588406799826771,True,36,1
AC-K-24K24S2,78,experiment,89,→,right,→,0.6228912000078708,True,36,1
AC-K-24K24S2,79,experiment,91,→,right,→,0.5192368000280112,True,36,1
AC-K-24K24S2,80,experiment,75,↓,down,↓,0.5368389999493957,True,36,1
AC-K-24K24S2,81,experiment,49,→,right,→,0.5551094000693411,True,36,1
AC-K-24K24S2,82,experiment,84,←,left,←,0.5283888999838382,True,36,1
AC-K-24K24S2,83,experiment,77,←,left,←,0.4814752000384033,True,36,1
AC-K-24K24S2,84,experiment,54,↓,down,↓,0.4334432000759989,True,36,1
AC-K-24K24S2,85,experiment,52,↓,down,↓,0.4093562001362443,True,36,0
AC-K-24K24S2,86,experiment,80,→,right,→,0.524623200064525,True,36,0
AC-K-24K24S2,87,experiment,87,→,right,→,0.6424976999405771,True,36,1
AC-K-24K24S2,88,experiment,60,↓,down,↓,0.47705579991452396,True,36,1
AC-K-24K24S2,89,experiment,62,↑,up,↑,0.628666500095278,True,36,1
AC-K-24K24S2,90,experiment,98,←,left,←,0.41104869986884296,True,36,1
AC-K-24K24S2,91,experiment,55,←,left,←,0.5908967999275774,True,36,0
AC-K-24K24S2,92,experiment,56,↓,down,↓,0.5653158999048173,True,36,1
AC-K-24K24S2,93,experiment,107,↑,up,↑,0.5537641001865268,True,36,1
AC-K-24K24S2,94,experiment,82,↓,down,↓,0.56782740005292,True,36,1
AC-K-24K24S2,95,experiment,67,→,right,→,0.5465236001182348,True,36,1
AC-K-24K24S2,96,experiment,79,←,left,←,0.4340156000107527,True,36,1
AC-K-24K24S2,97,experiment,69,↑,up,↑,0.37616649991832674,True,36,0
AC-K-24K24S2,98,experiment,100,←,left,←,0.4095592999365181,True,36,1
AC-K-24K24S2,99,experiment,83,↑,up,↑,0.5317402998916805,True,36,0
AC-K-24K24S2,100,experiment,101,→,right,→,0.5404878000263125,True,36,1
AC-K-24K24S2,101,experiment,57,↑,up,↑,0.5394008001312613,True,36,1
AC-K-24K24S2,102,experiment,85,←,left,←,0.4893221000675112,True,36,1
AC-K-24K24S2,103,experiment,95,↑,up,↑,0.4427839999552816,True,36,1
AC-K-24K24S2,104,training,71,↑,up,↑,0.489423600025475,True,35,0
AC-K-24K24S2,105,training,68,↓,down,↓,0.4423948999028653,True,35,1
AC-K-24K24S2,106,experiment,72,↑,up,↑,0.35881979996338487,True,35,0
AC-K-24K24S2,107,experiment,50,←,left,←,0.3923772000707686,True,35,0
AC-K-24K24S2,108,experiment,66,→,left,←,0.32548390002921224,False,35,0
AC-K-24K24S2,109,experiment,67,↓,up,↑,0.4088411000557244,False,35,0
AC-K-24K24S2,110,experiment,55,←,left,←,0.5759381998796016,True,35,0
AC-K-24K24S2,111,experiment,85,←,left,←,0.6120875000488013,True,35,1
AC-K-24K24S2,112,experiment,57,→,right,→,0.5201805999968201,True,35,1
AC-K-24K24S2,113,experiment,105,↑,up,↑,0.5039995999541134,True,35,1
AC-K-24K24S2,114,experiment,74,↑,up,↑,1.6351965002249926,True,35,1
AC-K-24K24S2,115,experiment,60,↑,up,↑,0.35842860001139343,True,35,1
AC-K-24K24S2,116,experiment,98,→,right,→,0.38386170007288456,True,35,0
AC-K-24K24S2,117,experiment,82,↑,up,↑,0.4360980000346899,True,35,0
AC-K-24K24S2,118,experiment,103,←,left,←,0.37520259991288185,True,35,0
AC-K-24K24S2,119,experiment,95,↑,up,↑,0.5426898000296205,True,35,0
AC-K-24K24S2,120,experiment,51,↓,down,↓,0.6396157999988645,True,35,1
AC-K-24K24S2,121,experiment,93,↓,down,↓,0.6308001999277622,True,35,1
AC-K-24K24S2,122,experiment,92,↑,up,↑,0.47840240015648305,True,35,1
AC-K-24K24S2,123,experiment,81,←,left,←,0.48801310011185706,True,35,1
AC-K-24K24S2,124,experiment,76,→,right,→,1.8824638000223786,True,35,1
AC-K-24K24S2,125,experiment,54,↓,down,↓,0.6448208999354392,True,35,1
AC-K-24K24S2,126,experiment,94,←,left,←,0.5154885000083596,True,35,1
AC-K-24K24S2,127,experiment,48,↑,up,↑,0.47096520010381937,True,35,1
AC-K-24K24S2,128,experiment,53,↑,up,↑,0.5135746002197266,True,35,1
AC-K-24K24S2,129,experiment,91,→,right,→,1.734347099903971,True,35,1
AC-K-24K24S2,130,experiment,87,→,right,→,0.5958136999979615,True,35,1
AC-K-24K24S2,131,experiment,73,→,right,→,0.6110998999793082,True,35,1
AC-K-24K24S2,132,experiment,99,↓,down,↓,0.5935641000978649,True,35,1
AC-K-24K24S2,133,experiment,69,↑,up,↑,0.5225754000712186,True,35,1
AC-K-24K24S2,134,experiment,90,↑,up,↑,0.5030375998467207,True,35,1
AC-K-24K24S2,135,experiment,63,↓,down,↓,0.5900481999851763,True,35,1
AC-K-24K24S2,136,experiment,104,→,right,→,0.6753916000016034,True,35,1
AC-K-24K24S2,137,experiment,64,←,left,←,0.49877050006762147,True,35,1
AC-K-24K24S2,138,experiment,56,→,right,→,0.46834989986382425,True,35,1
AC-K-24K24S2,139,experiment,52,→,right,→,0.6872690999880433,True,35,1
AC-K-24K24S2,140,experiment,84,↑,up,↑,0.4640681999735534,True,35,1
AC-K-24K24S2,141,experiment,97,→,right,→,0.5321134999394417,True,35,1
AC-K-24K24S2,142,experiment,75,↑,up,↑,0.46186180016957223,True,35,1
AC-K-24K24S2,143,experiment,88,↓,down,↓,0.4691868999507278,True,35,0
AC-K-24K24S2,144,experiment,102,→,right,→,0.6482084000017494,True,35,1
AC-K-24K24S2,145,experiment,101,↑,up,↑,0.4765975000336766,True,35,1
AC-K-24K24S2,146,experiment,78,↑,up,↑,0.7505703999195248,True,35,1
AC-K-24K24S2,147,experiment,107,←,left,←,0.604550400050357,True,35,1
AC-K-24K24S2,148,experiment,100,←,no_key,no_letter,-1.0,False,35,1
AC-K-24K24S2,149,experiment,89,↓,down,↓,0.6462391000241041,True,35,1
AC-K-24K24S2,150,experiment,108,↑,up,↑,0.6719641999807209,True,35,1
AC-K-24K24S2,151,experiment,80,→,right,→,0.553969900123775,True,35,1
AC-K-24K24S2,152,experiment,83,→,right,→,0.6160608001518995,True,35,1
AC-K-24K24S2,153,experiment,77,↓,down,↓,0.4775223999749869,True,35,1
AC-K-24K24S2,154,experiment,59,↓,up,↑,0.7346103000454605,False,35,1
AC-K-24K24S2,155,experiment,70,←,left,←,0.609574600122869,True,35,1
AC-K-24K24S2,156,experiment,86,↓,down,↓,1.7324461999814957,True,35,1
AC-K-24K24S2,157,experiment,61,↑,up,↑,0.6261265999637544,True,35,1
AC-K-24K24S2,158,experiment,62,←,left,←,0.700173799879849,True,35,1
AC-K-24K24S2,159,experiment,79,↑,up,↑,0.426160299917683,True,35,1
AC-K-24K24S2,160,experiment,71,←,left,←,0.7723819001112133,True,35,1
AC-K-24K24S2,161,experiment,65,↓,down,↓,0.7273876999970526,True,35,1
AC-K-24K24S2,162,experiment,96,↓,down,↓,0.594226700020954,True,35,1
AC-K-24K24S2,163,experiment,49,↓,down,↓,0.7698349999263883,True,35,1
AC-K-24K24S2,164,experiment,106,↑,up,↑,0.6711928001604974,True,35,1
AC-K-24K24S2,165,experiment,58,↑,up,↑,0.5368979000486434,True,35,1
AC-K-24K24S2,166,experiment,68,→,right,→,0.5245419000275433,True,35,1
AC-K-24K24S2,167,training,65,→,right,→,0.5840783999301493,True,34,0
AC-K-24K24S2,168,training,94,→,right,→,0.46554929995909333,True,34,1
AC-K-24K24S2,169,experiment,74,→,right,→,0.5814424001146108,True,34,1
AC-K-24K24S2,170,experiment,79,←,right,→,0.5157211001496762,False,34,1
AC-K-24K24S2,171,experiment,95,↓,down,↓,0.41789170005358756,True,34,1
AC-K-24K24S2,172,experiment,54,↓,down,↓,0.40972490003332496,True,34,0
AC-K-24K24S2,173,experiment,48,→,right,→,0.49883880000561476,True,34,1
AC-K-24K24S2,174,experiment,64,↓,down,↓,0.5937183001078665,True,34,1
AC-K-24K24S2,175,experiment,107,→,right,→,0.48568039992824197,True,34,1
AC-K-24K24S2,176,experiment,101,←,left,←,0.6159353998955339,True,34,1
AC-K-24K24S2,177,experiment,96,→,right,→,0.3845810000784695,True,34,1
AC-K-24K24S2,178,experiment,86,↓,down,↓,0.40956489997915924,True,34,1
AC-K-24K24S2,179,experiment,93,←,left,←,0.5627275998704135,True,34,0
AC-K-24K24S2,180,experiment,108,→,left,←,0.4011030001565814,False,34,1
AC-K-24K24S2,181,experiment,57,↓,down,↓,0.45190240000374615,True,34,1
AC-K-24K24S2,182,experiment,83,→,right,→,0.4621552999597043,True,34,0
AC-K-24K24S2,183,experiment,51,↑,up,↑,0.6419835998676717,True,34,1
AC-K-24K24S2,184,experiment,62,←,left,←,0.4836336998268962,True,34,1
AC-K-24K24S2,185,experiment,77,→,right,→,0.46212319983169436,True,34,1
AC-K-24K24S2,186,experiment,55,→,right,→,0.5446011000312865,True,34,1
AC-K-24K24S2,187,experiment,53,↓,down,↓,0.6014205999672413,True,34,1
AC-K-24K24S2,188,experiment,69,↓,down,↓,0.5696914999280125,True,34,1
AC-K-24K24S2,189,experiment,76,↓,down,↓,0.49785980000160635,True,34,1
AC-K-24K24S2,190,experiment,105,←,left,←,0.482532300055027,True,34,1
AC-K-24K24S2,191,experiment,90,↑,up,↑,0.45762580004520714,True,34,1
AC-K-24K24S2,192,experiment,81,→,right,→,0.40949889994226396,True,34,1
AC-K-24K24S2,193,experiment,99,→,right,→,0.5930055000353605,True,34,0
AC-K-24K24S2,194,experiment,82,→,right,→,0.7256424999795854,True,34,1
AC-K-24K24S2,195,experiment,49,←,right,→,0.5922459000721574,False,34,1
AC-K-24K24S2,196,experiment,70,↓,down,↓,0.6570424998644739,True,34,1
AC-K-24K24S2,197,experiment,67,↓,down,↓,0.7518865999300033,True,34,1
AC-K-24K24S2,198,experiment,59,↓,down,↓,0.8859550999477506,True,34,1
AC-K-24K24S2,199,experiment,87,↑,up,↑,0.6453836997970939,True,34,1
AC-K-24K24S2,200,experiment,106,↓,down,↓,0.535755799850449,True,34,1
AC-K-24K24S2,201,experiment,73,↑,up,↑,0.6977744000032544,True,34,1
AC-K-24K24S2,202,experiment,68,→,right,→,0.774799200007692,True,34,1
AC-K-24K24S2,203,experiment,97,↑,up,↑,0.8550086000468582,True,34,1
AC-K-24K24S2,204,experiment,89,↓,down,↓,0.679028500104323,True,34,1
AC-K-24K24S2,205,experiment,56,↓,down,↓,0.8489514000248164,True,34,1
AC-K-24K24S2,206,experiment,71,→,right,→,0.6389429999981076,True,34,1
AC-K-24K24S2,207,experiment,85,→,right,→,0.5766272000037134,True,34,1
AC-K-24K24S2,208,experiment,88,←,left,←,0.5480617000721395,True,34,1
AC-K-24K24S2,209,experiment,78,↓,down,↓,0.9637943000998348,True,34,1
AC-K-24K24S2,210,experiment,58,↑,up,↑,0.7054129000753164,True,34,1
AC-K-24K24S2,211,experiment,98,↓,down,↓,0.6282027999404818,True,34,1
AC-K-24K24S2,212,experiment,104,↓,down,↓,0.4960310999304056,True,34,1
AC-K-24K24S2,213,experiment,75,←,left,←,0.5465488000772893,True,34,1
AC-K-24K24S2,214,experiment,94,↓,down,↓,0.6370801001321524,True,34,1
AC-K-24K24S2,215,experiment,65,↓,down,↓,0.6372337001375854,True,34,1
AC-K-24K24S2,216,experiment,50,↓,down,↓,0.6671907999552786,True,34,1
AC-K-24K24S2,217,experiment,66,↑,up,↑,0.5541739999316633,True,34,1
AC-K-24K24S2,218,experiment,102,↑,up,↑,0.5856827001553029,True,34,1
AC-K-24K24S2,219,experiment,63,→,right,→,0.4850333998911083,True,34,1
AC-K-24K24S2,220,experiment,84,↓,down,↓,0.6773928001057357,True,34,1
AC-K-24K24S2,221,experiment,103,←,left,←,0.5912854999769479,True,34,1
AC-K-24K24S2,222,experiment,91,↑,up,↑,0.3943453000392765,True,34,1
AC-K-24K24S2,223,experiment,100,↑,up,↑,0.401049799984321,True,34,0
AC-K-24K24S2,224,experiment,80,←,left,←,0.5478336999658495,True,34,1
AC-K-24K24S2,225,experiment,92,→,right,→,0.46335759991779923,True,34,1
AC-K-24K24S2,226,experiment,52,↑,up,↑,0.5070347001310438,True,34,1
AC-K-24K24S2,227,experiment,61,↓,down,↓,0.6578573998995125,True,34,1
AC-K-24K24S2,228,experiment,72,↑,up,↑,0.7031228998675942,True,34,1
AC-K-24K24S2,229,experiment,60,←,left,←,0.8149172000121325,True,34,1
AC-K-24K24S2,230,training,97,←,left,←,0.36734479991719127,True,33,0
AC-K-24K24S2,231,training,51,↑,up,↑,0.4011337999254465,True,33,0
AC-K-24K24S2,232,experiment,63,↓,down,↓,0.5658725998364389,True,33,1
AC-K-24K24S2,233,experiment,88,↓,down,↓,0.4815453998744488,True,33,1
AC-K-24K24S2,234,experiment,94,→,right,→,0.6788574999663979,True,33,1
AC-K-24K24S2,235,experiment,68,←,left,←,0.3920084999408573,True,33,1
AC-K-24K24S2,236,experiment,82,→,right,→,0.624856699956581,True,33,0
AC-K-24K24S2,237,experiment,67,←,left,←,0.5453143999911845,True,33,1
AC-K-24K24S2,238,experiment,55,↓,down,↓,0.49704489996656775,True,33,1
AC-K-24K24S2,239,experiment,71,→,right,→,0.4254209999926388,True,33,1
AC-K-24K24S2,240,experiment,104,↑,up,↑,0.7209580999333411,True,33,0
AC-K-24K24S2,241,experiment,96,↓,down,↓,0.451460599899292,True,33,1
AC-K-24K24S2,242,experiment,49,↓,down,↓,0.5688862998504192,True,33,1
AC-K-24K24S2,243,experiment,108,↓,down,↓,0.5339293999131769,True,33,1
AC-K-24K24S2,244,experiment,75,↓,down,↓,0.5997170999180526,True,33,1
AC-K-24K24S2,245,experiment,62,→,right,→,0.4986612999346107,True,33,1
AC-K-24K24S2,246,experiment,89,↑,up,↑,1.2244780000764877,True,33,1
AC-K-24K24S2,247,experiment,86,↓,down,↓,0.4003018999937922,True,33,1
AC-K-24K24S2,248,experiment,77,↓,right,→,0.3419134998694062,False,33,0
AC-K-24K24S2,249,experiment,74,→,right,→,0.4008587999269366,True,33,0
AC-K-24K24S2,250,experiment,60,↑,up,↑,0.4093607999384403,True,33,0
AC-K-24K24S2,251,experiment,85,↑,up,↑,0.5757643000688404,True,33,0
AC-K-24K24S2,252,experiment,90,↑,up,↑,0.3928081998601556,True,33,1
AC-K-24K24S2,253,experiment,66,↓,down,↓,0.40960829984396696,True,33,0
AC-K-24K24S2,254,experiment,98,→,right,→,0.5144259999506176,True,33,1
AC-K-24K24S2,255,experiment,70,←,left,←,0.6622571998741478,True,33,1
AC-K-24K24S2,256,experiment,54,←,left,←,0.4090637001208961,True,33,1
AC-K-24K24S2,257,experiment,107,↑,up,↑,0.3680668999440968,True,33,0
AC-K-24K24S2,258,experiment,83,↓,down,↓,0.5061627000104636,True,33,1
AC-K-24K24S2,259,experiment,80,↑,up,↑,0.6109820001292974,True,33,1
AC-K-24K24S2,260,experiment,87,←,left,←,0.5248957998119295,True,33,1
AC-K-24K24S2,261,experiment,102,↑,up,↑,0.5256608000490814,True,33,1
AC-K-24K24S2,262,experiment,56,←,left,←,0.6137083999346942,True,33,1
AC-K-24K24S2,263,experiment,106,↑,up,↑,0.4893658000510186,True,33,1
AC-K-24K24S2,264,experiment,79,→,right,→,0.5551833999343216,True,33,1
AC-K-24K24S2,265,experiment,58,→,right,→,0.7371917001437396,True,33,1
AC-K-24K24S2,266,experiment,92,→,right,→,0.7168677998706698,True,33,1
AC-K-24K24S2,267,experiment,57,↑,up,↑,0.6926418000366539,True,33,1
AC-K-24K24S2,268,experiment,48,←,right,→,0.7447935999371111,False,33,1
AC-K-24K24S2,269,experiment,81,↓,down,↓,0.7674767000135034,True,33,1
AC-K-24K24S2,270,experiment,78,←,left,←,0.5504336999729276,True,33,1
AC-K-24K24S2,271,experiment,84,↑,up,↑,0.6121416999958456,True,33,1
AC-K-24K24S2,272,experiment,73,→,right,→,0.7627705000340939,True,33,1
AC-K-24K24S2,273,experiment,53,↑,up,↑,0.826500500086695,True,33,1
AC-K-24K24S2,274,experiment,51,↑,up,↑,1.1597096000332385,True,33,1
AC-K-24K24S2,275,experiment,101,→,right,→,0.7196796000935137,True,33,1
AC-K-24K24S2,276,experiment,93,↓,down,↓,0.5876091001555324,True,33,1
AC-K-24K24S2,277,experiment,103,↑,up,↑,0.6894191999454051,True,33,1
AC-K-24K24S2,278,experiment,100,→,right,→,0.7798936998005956,True,33,1
AC-K-24K24S2,279,experiment,105,→,right,→,1.2168938999529928,True,33,1
AC-K-24K24S2,280,experiment,64,↓,down,↓,1.0270626000128686,True,33,1
AC-K-24K24S2,281,experiment,91,←,left,←,0.7711410000920296,True,33,1
AC-K-24K24S2,282,experiment,61,→,right,→,0.6233883001841605,True,33,1
AC-K-24K24S2,283,experiment,97,←,left,←,0.5737422001548111,True,33,1
AC-K-24K24S2,284,experiment,52,→,right,→,0.6211708001792431,True,33,1
AC-K-24K24S2,285,experiment,76,↓,down,↓,0.738678699824959,True,33,1
AC-K-24K24S2,286,experiment,72,↑,up,↑,0.7886997000314295,True,33,1
AC-K-24K24S2,287,experiment,99,↓,down,↓,0.7076709000393748,True,33,1
AC-K-24K24S2,288,experiment,50,→,left,←,1.110361099941656,False,33,1
AC-K-24K24S2,289,experiment,65,←,left,←,0.9559416000265628,True,33,1
AC-K-24K24S2,290,experiment,59,↑,up,↑,0.9856493000406772,True,33,1
AC-K-24K24S2,291,experiment,95,↓,down,↓,0.5542260000947863,True,33,1
AC-K-24K24S2,292,experiment,69,↑,left,←,1.4368217000737786,False,33,1
AC-K-24K24S2,293,training,86,→,right,→,0.7661622001323849,True,32,0
AC-K-24K24S2,294,training,72,←,left,←,0.4475070999469608,True,32,1
AC-K-24K24S2,295,experiment,103,↑,up,↑,0.44292899989522994,True,32,1
AC-K-24K24S2,296,experiment,98,→,right,→,0.41701030009426177,True,32,1
AC-K-24K24S2,297,experiment,82,→,right,→,0.38438639999367297,True,32,0
AC-K-24K24S2,298,experiment,100,→,left,←,0.3928644999396056,False,32,0
AC-K-24K24S2,299,experiment,57,←,left,←,0.40063780010677874,True,32,1
AC-K-24K24S2,300,experiment,78,↓,down,↓,0.483827400021255,True,32,0
AC-K-24K24S2,301,experiment,87,←,left,←,0.46738169994205236,True,32,1
AC-K-24K24S2,302,experiment,84,→,right,→,0.5328130000270903,True,32,1
AC-K-24K24S2,303,experiment,48,→,right,→,1.8708919000346214,True,32,1
AC-K-24K24S2,304,experiment,50,↓,down,↓,0.4511847998946905,True,32,1
AC-K-24K24S2,305,experiment,99,↓,down,↓,0.43990870006382465,True,32,1
AC-K-24K24S2,306,experiment,64,↓,down,↓,0.4010026000905782,True,32,0
AC-K-24K24S2,307,experiment,108,→,right,→,0.4755692998878658,True,32,1
AC-K-24K24S2,308,experiment,54,↓,down,↓,0.6145585000049323,True,32,1
AC-K-24K24S2,309,experiment,67,↑,up,↑,0.5751342000439763,True,32,1
AC-K-24K24S2,310,experiment,68,←,left,←,0.5772355999797583,True,32,1
AC-K-24K24S2,311,experiment,85,↓,down,↓,0.6211517001502216,True,32,1
AC-K-24K24S2,312,experiment,62,↓,down,↓,0.6876530000008643,True,32,1
AC-K-24K24S2,313,experiment,81,→,right,→,0.48066220013424754,True,32,1
AC-K-24K24S2,314,experiment,94,→,right,→,0.8938748000655323,True,32,1
AC-K-24K24S2,315,experiment,71,↑,up,↑,0.6501545000355691,True,32,1
AC-K-24K24S2,316,experiment,96,←,left,←,0.7439208999276161,True,32,1
AC-K-24K24S2,317,experiment,80,←,left,←,0.767225099960342,True,32,1
AC-K-24K24S2,318,experiment,92,→,right,→,1.0814689001999795,True,32,1
AC-K-24K24S2,319,experiment,66,↓,down,↓,0.6319855998735875,True,32,1
AC-K-24K24S2,320,experiment,65,↓,down,↓,0.6004943998996168,True,32,1
AC-K-24K24S2,321,experiment,51,↑,up,↑,0.4953809001017362,True,32,1
AC-K-24K24S2,322,experiment,69,↑,up,↑,0.6846806998364627,True,32,1
AC-K-24K24S2,323,experiment,76,↓,down,↓,0.43951479997485876,True,32,1
AC-K-24K24S2,324,experiment,77,→,right,→,0.5880020000040531,True,32,0
AC-K-24K24S2,325,experiment,102,↑,up,↑,0.5540326000191271,True,32,1
AC-K-24K24S2,326,experiment,101,→,right,→,0.7216085998807102,True,32,1
AC-K-24K24S2,327,experiment,93,→,right,→,0.5974324999842793,True,32,1
AC-K-24K24S2,328,experiment,55,↑,up,↑,0.9550036999862641,True,32,1
AC-K-24K24S2,329,experiment,104,←,left,←,0.6013817000202835,True,32,1
AC-K-24K24S2,330,experiment,95,↓,down,↓,0.48949970002286136,True,32,1
AC-K-24K24S2,331,experiment,83,→,right,→,0.5538443999830633,True,32,1
AC-K-24K24S2,332,experiment,88,←,left,←,0.6219690998550504,True,32,1
AC-K-24K24S2,333,experiment,91,←,left,←,0.46257760003209114,True,32,1
AC-K-24K24S2,334,experiment,61,→,right,→,0.6869661998935044,True,32,1
AC-K-24K24S2,335,experiment,59,↓,down,↓,0.5433797999285161,True,32,1
AC-K-24K24S2,336,experiment,107,↑,up,↑,0.5497999999206513,True,32,1
AC-K-24K24S2,337,experiment,79,←,left,←,0.6452969000674784,True,32,1
AC-K-24K24S2,338,experiment,86,↓,down,↓,0.6062566000036895,True,32,1
AC-K-24K24S2,339,experiment,97,←,left,←,0.6212623999454081,True,32,1
AC-K-24K24S2,340,experiment,63,↓,right,→,1.3827613000757992,False,32,1
AC-K-24K24S2,341,experiment,70,↑,up,↑,0.599875699961558,True,32,1
AC-K-24K24S2,342,experiment,74,↑,up,↑,0.6309581999666989,True,32,1
AC-K-24K24S2,343,experiment,90,↑,up,↑,0.5994330998510122,True,32,1
AC-K-24K24S2,344,experiment,49,←,up,↑,0.9589240998029709,False,32,1
AC-K-24K24S2,345,experiment,72,↓,down,↓,0.6322577998507768,True,32,1
AC-K-24K24S2,346,experiment,106,↑,up,↑,0.5872353999875486,True,32,1
AC-K-24K24S2,347,experiment,52,→,right,→,0.6658969998825341,True,32,1
AC-K-24K24S2,348,experiment,60,↓,down,↓,0.5870057002175599,True,32,1
AC-K-24K24S2,349,experiment,73,↓,down,↓,0.5709615000523627,True,32,1
AC-K-24K24S2,350,experiment,58,→,right,→,0.5046012001112103,True,32,1
AC-K-24K24S2,351,experiment,75,←,left,←,0.4177641998976469,True,32,1
AC-K-24K24S2,352,experiment,56,↓,down,↓,0.6709358999505639,True,32,1
AC-K-24K24S2,353,experiment,53,→,right,→,0.5540926000103354,True,32,1
AC-K-24K24S2,354,experiment,89,←,left,←,0.5659783999435604,True,32,1
AC-K-24K24S2,355,experiment,105,→,right,→,0.6359564999584109,True,32,1
AC-K-24K24S2,356,training,50,↑,up,↑,0.5123513001017272,True,31,0
AC-K-24K24S2,357,training,95,↑,up,↑,0.3428552998229861,True,31,1
AC-K-24K24S2,358,experiment,93,↑,up,↑,0.48668349999934435,True,31,0
AC-K-24K24S2,359,experiment,95,←,left,←,0.5071632000617683,True,31,1
AC-K-24K24S2,360,experiment,88,→,right,→,0.3428568998351693,True,31,1
AC-K-24K24S2,361,experiment,92,↓,down,↓,0.5722449000459164,True,31,1
AC-K-24K24S2,362,experiment,76,↓,down,↓,0.5956170000135899,True,31,1
AC-K-24K24S2,363,experiment,97,↑,up,↑,0.5710384000558406,True,31,1
AC-K-24K24S2,364,experiment,99,→,right,→,0.4746245997957885,True,31,1
AC-K-24K24S2,365,experiment,70,↓,down,↓,0.4323810001369566,True,31,1
AC-K-24K24S2,366,experiment,100,↑,up,↑,0.5652433999348432,True,31,1
AC-K-24K24S2,367,experiment,106,←,left,←,0.49086939985863864,True,31,1
AC-K-24K24S2,368,experiment,78,↓,down,↓,0.5889995000325143,True,31,1
AC-K-24K24S2,369,experiment,50,→,up,↑,0.7964560999535024,False,31,1
AC-K-24K24S2,370,experiment,96,↓,down,↓,0.5320131001062691,True,31,1
AC-K-24K24S2,371,experiment,98,↓,down,↓,0.6140896999277174,True,31,1
AC-K-24K24S2,372,experiment,56,↓,left,←,0.7861358998343349,False,31,1
AC-K-24K24S2,373,experiment,79,↑,up,↑,0.5522475999314338,True,31,1
AC-K-24K24S2,374,experiment,102,↑,up,↑,0.4478182999882847,True,31,1
AC-K-24K24S2,375,experiment,107,←,left,←,1.4020020999014378,True,31,1
AC-K-24K24S2,376,experiment,61,↑,up,↑,0.5973361001815647,True,31,1
AC-K-24K24S2,377,experiment,55,→,right,→,0.5865446999669075,True,31,1
AC-K-24K24S2,378,experiment,69,↓,down,↓,0.5880778999999166,True,31,1
AC-K-24K24S2,379,experiment,65,→,right,→,0.46256389981135726,True,31,1
AC-K-24K24S2,380,experiment,85,↑,up,↑,0.4873188999481499,True,31,1
AC-K-24K24S2,381,experiment,62,↑,up,↑,0.3601067999843508,True,31,1
AC-K-24K24S2,382,experiment,83,→,right,→,0.44450290012173355,True,31,1
AC-K-24K24S2,383,experiment,53,←,left,←,0.4012978000100702,True,31,1
AC-K-24K24S2,384,experiment,101,↓,down,↓,0.4863825000356883,True,31,0
AC-K-24K24S2,385,experiment,103,↑,up,↑,0.48828819999471307,True,31,1
AC-K-24K24S2,386,experiment,64,↑,up,↑,0.4471228001639247,True,31,1
AC-K-24K24S2,387,experiment,77,←,left,←,0.6831475000362843,True,31,1
AC-K-24K24S2,388,experiment,63,↓,down,↓,0.6746503999456763,True,31,1
AC-K-24K24S2,389,experiment,90,↓,down,↓,0.5692690000869334,True,31,1
AC-K-24K24S2,390,experiment,59,↓,down,↓,0.6469207000918686,True,31,1
AC-K-24K24S2,391,experiment,57,↑,up,↑,0.42541859997436404,True,31,1
AC-K-24K24S2,392,experiment,75,↓,down,↓,0.7829085001721978,True,31,0
AC-K-24K24S2,393,experiment,54,→,right,→,0.8770822999067605,True,31,1
AC-K-24K24S2,394,experiment,66,→,up,↑,1.083997800014913,False,31,1
AC-K-24K24S2,395,experiment,94,←,left,←,0.568815500009805,True,31,1
AC-K-24K24S2,396,experiment,91,↓,down,↓,0.675632500089705,True,31,1
AC-K-24K24S2,397,experiment,80,↓,up,↑,0.749794099945575,False,31,1
AC-K-24K24S2,398,experiment,74,↓,down,↓,0.4951498999726027,True,31,1
AC-K-24K24S2,399,experiment,49,↑,up,↑,0.5383928001392633,True,31,1
AC-K-24K24S2,400,experiment,52,←,left,←,0.6831880998797715,True,31,1
AC-K-24K24S2,401,experiment,73,←,left,←,0.4632800999097526,True,31,1
AC-K-24K24S2,402,experiment,68,↓,down,↓,0.5897909000050277,True,31,1
AC-K-24K24S2,403,experiment,71,↑,up,↑,0.6381213997956365,True,31,1
AC-K-24K24S2,404,experiment,67,↑,up,↑,0.5979724999051541,True,31,1
AC-K-24K24S2,405,experiment,108,←,right,→,0.9135265001095831,False,31,1
AC-K-24K24S2,406,experiment,84,↑,up,↑,0.7363696999382228,True,31,1
AC-K-24K24S2,407,experiment,58,↑,right,→,0.8314286998938769,False,31,1
AC-K-24K24S2,408,experiment,72,→,right,→,0.5255416999571025,True,31,1
AC-K-24K24S2,409,experiment,60,↑,right,→,1.0287154000252485,False,31,1
AC-K-24K24S2,410,experiment,105,→,right,→,0.3928759000264108,True,31,1
AC-K-24K24S2,411,experiment,81,→,right,→,0.5804528999142349,True,31,0
AC-K-24K24S2,412,experiment,48,↑,up,↑,0.7248146999627352,True,31,1
AC-K-24K24S2,413,experiment,51,→,right,→,0.6468364999163896,True,31,1
AC-K-24K24S2,414,experiment,87,↑,up,↑,1.8552937998902053,True,31,1
AC-K-24K24S2,415,experiment,104,↓,down,↓,0.44988099997863173,True,31,1
AC-K-24K24S2,416,experiment,82,↓,up,↑,0.7963437000289559,False,31,1
AC-K-24K24S2,417,experiment,86,→,right,→,0.5753333999309689,True,31,1
AC-K-24K24S2,418,experiment,89,←,left,←,0.6342962000053376,True,31,1
AC-K-24K24S2,419,training,95,↓,down,↓,0.5735218001063913,True,31,0
AC-K-24K24S2,420,training,108,←,left,←,0.36788050015456975,True,31,1
AC-K-24K24S2,421,experiment,70,↑,up,↑,0.376327000092715,True,31,1
AC-K-24K24S2,422,experiment,68,↓,down,↓,0.4298002999275923,True,31,1
AC-K-24K24S2,423,experiment,93,←,left,←,0.5729822998400778,True,31,0
AC-K-24K24S2,424,experiment,88,→,right,→,0.48031769995577633,True,31,1
AC-K-24K24S2,425,experiment,80,↓,down,↓,0.49794190004467964,True,31,1
AC-K-24K24S2,426,experiment,102,→,right,→,0.5476777001749724,True,31,1
AC-K-24K24S2,427,experiment,59,←,left,←,0.5302047000732273,True,31,1
AC-K-24K24S2,428,experiment,61,→,right,→,0.3428905999753624,True,31,1
AC-K-24K24S2,429,experiment,103,→,right,→,0.3681558999232948,True,31,0
AC-K-24K24S2,430,experiment,65,→,left,←,0.7622958000283688,False,31,0
AC-K-24K24S2,431,experiment,55,→,right,→,0.5131814999040216,True,31,1
AC-K-24K24S2,432,experiment,87,↑,up,↑,0.5510567999444902,True,31,1
AC-K-24K24S2,433,experiment,83,←,left,←,0.376117599895224,True,31,1
AC-K-24K24S2,434,experiment,50,←,left,←,0.4609644999727607,True,31,0
AC-K-24K24S2,435,experiment,108,↑,up,↑,0.4784857998602092,True,31,1
AC-K-24K24S2,436,experiment,81,→,right,→,0.393100299872458,True,31,1
AC-K-24K24S2,437,experiment,94,↑,up,↑,0.5205410001799464,True,31,1
AC-K-24K24S2,438,experiment,82,←,left,←,0.4800019001122564,True,31,1
AC-K-24K24S2,439,experiment,60,→,right,→,0.44811680004931986,True,31,1
AC-K-24K24S2,440,experiment,66,→,right,→,0.401076499838382,True,31,1
AC-K-24K24S2,441,experiment,56,←,left,←,0.4615038998890668,True,31,1
AC-K-24K24S2,442,experiment,100,←,left,←,0.49699320015497506,True,31,1
AC-K-24K24S2,443,experiment,76,↓,down,↓,0.4834928000345826,True,31,1
AC-K-24K24S2,444,experiment,92,↓,down,↓,0.5611004999373108,True,31,1
AC-K-24K24S2,445,experiment,67,↓,down,↓,1.0440613001119345,True,31,1
AC-K-24K24S2,446,experiment,58,↑,up,↑,0.3926032998133451,True,31,1
AC-K-24K24S2,447,experiment,63,↑,up,↑,0.6573795001022518,True,31,0
AC-K-24K24S2,448,experiment,104,↓,down,↓,0.4364559999667108,True,31,1
AC-K-24K24S2,449,experiment,49,←,left,←,0.513861000072211,True,31,1
AC-K-24K24S2,450,experiment,48,↓,down,↓,0.6208631999325007,True,31,1
AC-K-24K24S2,451,experiment,86,↑,up,↑,0.5749492000322789,True,31,1
AC-K-24K24S2,452,experiment,62,←,left,←,0.6593520999886096,True,31,1
AC-K-24K24S2,453,experiment,106,→,right,→,0.5251018998678774,True,31,1
AC-K-24K24S2,454,experiment,105,↑,up,↑,0.40957879996858537,True,31,1
AC-K-24K24S2,455,experiment,71,↑,up,↑,0.5482114998158067,True,31,0
AC-K-24K24S2,456,experiment,101,←,down,↓,0.12741010007448494,False,31,1
AC-K-24K24S2,457,experiment,97,←,left,←,0.3338391000870615,True,31,0
AC-K-24K24S2,458,experiment,107,→,right,→,0.4876288999803364,True,31,0
AC-K-24K24S2,459,experiment,57,↓,down,↓,0.7448744000867009,True,31,1
AC-K-24K24S2,460,experiment,52,↓,down,↓,0.8975128999445587,True,31,1
AC-K-24K24S2,461,experiment,84,↑,up,↑,0.5132546999957412,True,31,1
AC-K-24K24S2,462,experiment,77,←,right,→,0.7625783998519182,False,31,1
AC-K-24K24S2,463,experiment,73,↓,down,↓,0.49122850014828146,True,31,1
AC-K-24K24S2,464,experiment,75,←,left,←,0.5983624001964927,True,31,1
AC-K-24K24S2,465,experiment,53,←,left,←,0.5323828000109643,True,31,1
AC-K-24K24S2,466,experiment,85,↑,up,↑,0.570539299864322,True,31,1
AC-K-24K24S2,467,experiment,96,↓,up,↑,0.7391641000285745,False,31,1
AC-K-24K24S2,468,experiment,74,←,left,←,0.5328716998919845,True,31,1
AC-K-24K24S2,469,experiment,72,↑,up,↑,0.4093367999885231,True,31,1
AC-K-24K24S2,470,experiment,64,←,left,←,0.6007288000546396,True,31,1
AC-K-24K24S2,471,experiment,95,←,left,←,0.2191852000541985,True,31,1
AC-K-24K24S2,472,experiment,90,←,left,←,0.37533349986188114,True,31,0
AC-K-24K24S2,473,experiment,91,→,no_key,no_letter,-1.0,False,31,0
AC-K-24K24S2,474,experiment,51,←,left,←,0.3838953000959009,True,31,1
AC-K-24K24S2,475,experiment,98,→,right,→,0.45130459987558424,True,31,0
AC-K-24K24S2,476,experiment,79,↓,down,↓,0.6308166000526398,True,31,1
AC-K-24K24S2,477,experiment,89,↑,up,↑,0.5754414999391884,True,31,1
AC-K-24K24S2,478,experiment,78,→,right,→,0.392154400004074,True,31,1
AC-K-24K24S2,479,experiment,54,←,left,←,0.508139899931848,True,31,0
AC-K-24K24S2,480,experiment,99,↑,up,↑,0.4092196000274271,True,31,1
AC-K-24K24S2,481,experiment,69,←,left,←,0.4465352001134306,True,31,1
AC-K-24K24S2,482,training,57,←,left,←,0.5472399999853224,True,30,0
AC-K-24K24S2,483,training,71,↑,up,↑,0.5013357999268919,True,30,1
AC-K-24K24S2,484,experiment,96,→,right,→,0.38647769996896386,True,30,1
AC-K-24K24S2,485,experiment,73,↓,left,←,0.27545260009355843,False,30,0
AC-K-24K24S2,486,experiment,99,↓,down,↓,0.43615569989196956,True,30,0
AC-K-24K24S2,487,experiment,68,←,left,←,0.5235122002195567,True,30,1
AC-K-24K24S2,488,experiment,58,←,left,←,0.49092460004612803,True,30,1
AC-K-24K24S2,489,experiment,97,←,left,←,0.47053589997813106,True,30,1
AC-K-24K24S2,490,experiment,57,↓,up,↑,0.40117020020261407,False,30,1
AC-K-24K24S2,491,experiment,65,↓,down,↓,0.3845039999578148,True,30,0
AC-K-24K24S2,492,experiment,86,→,left,←,0.3582721999846399,False,30,0
AC-K-24K24S2,493,experiment,94,↑,up,↑,0.5191764999181032,True,30,0
AC-K-24K24S2,494,experiment,60,↓,down,↓,0.5183820000384003,True,30,1
AC-K-24K24S2,495,experiment,55,↓,down,↓,0.3842228001449257,True,30,1
AC-K-24K24S2,496,experiment,63,←,left,←,0.4355782000347972,True,30,0
AC-K-24K24S2,497,experiment,53,←,left,←,1.5190336999949068,True,30,1
AC-K-24K24S2,498,experiment,76,←,left,←,0.6887411999050528,True,30,1
AC-K-24K24S2,499,experiment,59,↑,up,↑,0.5849953999277204,True,30,1
AC-K-24K24S2,500,experiment,79,←,left,←,0.47901770006865263,True,30,1
AC-K-24K24S2,501,experiment,72,↑,up,↑,0.547483199974522,True,30,1
AC-K-24K24S2,502,experiment,77,→,right,→,0.401021100115031,True,30,1
AC-K-24K24S2,503,experiment,75,→,right,→,0.6261952999047935,True,30,0
AC-K-24K24S2,504,experiment,87,↓,down,↓,0.4357181000523269,True,30,1
AC-K-24K24S2,505,experiment,88,↑,up,↑,0.6124481000006199,True,30,1
AC-K-24K24S2,506,experiment,95,←,left,←,0.4917297000065446,True,30,1
AC-K-24K24S2,507,experiment,62,→,up,↑,0.707319299923256,False,30,1
AC-K-24K24S2,508,experiment,89,↑,up,↑,0.46502249990589917,True,30,1
AC-K-24K24S2,509,experiment,61,↓,down,↓,0.6096888999454677,True,30,1
AC-K-24K24S2,510,experiment,50,←,left,←,0.3774278999771923,True,30,1
AC-K-24K24S2,511,experiment,48,←,left,←,0.440649600001052,True,30,0
AC-K-24K24S2,512,experiment,90,→,right,→,0.7847959999926388,True,30,1
AC-K-24K24S2,513,experiment,85,↑,up,↑,0.3671452000271529,True,30,1
AC-K-24K24S2,514,experiment,78,←,left,←,0.48344209999777377,True,30,0
AC-K-24K24S2,515,experiment,80,→,right,→,0.5812069000676274,True,30,1
AC-K-24K24S2,516,experiment,84,→,right,→,0.5138926999643445,True,30,1
AC-K-24K24S2,517,experiment,106,↑,up,↑,0.4653939001727849,True,30,1
AC-K-24K24S2,518,experiment,56,→,right,→,0.420452699996531,True,30,1
AC-K-24K24S2,519,experiment,74,↓,down,↓,0.6497744000516832,True,30,1
AC-K-24K24S2,520,experiment,93,→,right,→,0.44060000008903444,True,30,1
AC-K-24K24S2,521,experiment,83,→,right,→,0.49885200010612607,True,30,1
AC-K-24K24S2,522,experiment,98,↑,up,↑,0.5500181999523193,True,30,1
AC-K-24K24S2,523,experiment,66,↓,down,↓,0.6176793999038637,True,30,1
AC-K-24K24S2,524,experiment,49,→,up,↑,1.3046342001762241,False,30,1
AC-K-24K24S2,525,experiment,82,←,left,←,0.5443943999707699,True,30,1
AC-K-24K24S2,526,experiment,108,↓,down,↓,0.5820050002075732,True,30,1
AC-K-24K24S2,527,experiment,102,←,left,←,0.48463380010798573,True,30,1
AC-K-24K24S2,528,experiment,69,←,left,←,0.6018928999546915,True,30,1
AC-K-24K24S2,529,experiment,101,←,left,←,0.767913999967277,True,30,1
AC-K-24K24S2,530,experiment,92,↓,left,←,0.9782541999593377,False,30,1
AC-K-24K24S2,531,experiment,105,→,right,→,0.47997250012122095,True,30,1
AC-K-24K24S2,532,experiment,81,↓,down,↓,0.5214916998520494,True,30,1
AC-K-24K24S2,533,experiment,51,→,left,←,0.9071697001345456,False,30,1
AC-K-24K24S2,534,experiment,67,←,left,←,0.8562407998833805,True,30,1
AC-K-24K24S2,535,experiment,54,←,left,←,0.4202785000670701,True,30,1
AC-K-24K24S2,536,experiment,100,↑,up,↑,0.44887359999120235,True,30,0
AC-K-24K24S2,537,experiment,52,→,right,→,0.7093126999679953,True,30,1
AC-K-24K24S2,538,experiment,91,←,left,←,0.6263317000120878,True,30,1
AC-K-24K24S2,539,experiment,107,←,up,↑,0.6932751999702305,False,30,1
AC-K-24K24S2,540,experiment,103,↑,up,↑,0.47900800011120737,True,30,1
AC-K-24K24S2,541,experiment,70,←,left,←,0.5640551999676973,True,30,1
AC-K-24K24S2,542,experiment,64,←,left,←,0.5920258001424372,True,30,1
AC-K-24K24S2,543,experiment,104,↓,down,↓,0.4532308999914676,True,30,1
AC-K-24K24S2,544,experiment,71,↑,up,↑,0.8510865001007915,True,30,1
AC-K-24K24S2,545,training,96,→,right,→,0.43429180001839995,True,30,0
AC-K-24K24S2,546,training,54,←,left,←,0.47814979986287653,True,30,1
AC-K-24K24S2,547,experiment,105,←,left,←,0.4399173001293093,True,30,1
AC-K-24K24S2,548,experiment,80,←,left,←,0.35121360002085567,True,30,1
AC-K-24K24S2,549,experiment,88,↑,up,↑,0.5029696999117732,True,30,1
AC-K-24K24S2,550,experiment,108,↓,down,↓,0.43055339995771646,True,30,1
AC-K-24K24S2,551,experiment,65,→,left,←,0.46301979990676045,False,30,1
AC-K-24K24S2,552,experiment,85,↓,down,↓,0.4558623998891562,True,30,1
AC-K-24K24S2,553,experiment,96,↓,down,↓,0.4294735000003129,True,30,1
AC-K-24K24S2,554,experiment,84,→,right,→,0.5516351999249309,True,30,1
AC-K-24K24S2,555,experiment,51,↑,up,↑,0.5682830000296235,True,30,1
AC-K-24K24S2,556,experiment,69,←,left,←,0.5064817001111805,True,30,1
AC-K-24K24S2,557,experiment,54,↓,down,↓,0.4278482999652624,True,30,1
AC-K-24K24S2,558,experiment,77,↓,down,↓,0.5850817998871207,True,30,1
AC-K-24K24S2,559,experiment,81,↑,up,↑,0.582317000022158,True,30,1
AC-K-24K24S2,560,experiment,67,↑,up,↑,0.4568932999391109,True,30,1
AC-K-24K24S2,561,experiment,62,→,right,→,0.3942865999415517,True,30,1
AC-K-24K24S2,562,experiment,89,↑,up,↑,1.906888599973172,True,30,0
AC-K-24K24S2,563,experiment,70,↓,down,↓,0.5909016998484731,True,30,1
AC-K-24K24S2,564,experiment,74,→,right,→,0.5585261001251638,True,30,1
AC-K-24K24S2,565,experiment,90,↑,up,↑,0.5216520000249147,True,30,1
AC-K-24K24S2,566,experiment,97,↓,right,→,0.48406650009565055,False,30,1
AC-K-24K24S2,567,experiment,100,←,up,↑,0.5589976999908686,False,30,1
AC-K-24K24S2,568,experiment,103,↓,down,↓,0.5500071998685598,True,30,1
AC-K-24K24S2,569,experiment,83,↓,down,↓,0.35110910004004836,True,30,1
AC-K-24K24S2,570,experiment,71,↑,up,↑,1.5019616999197751,True,30,0
AC-K-24K24S2,571,experiment,75,↓,down,↓,0.48031409992836416,True,30,1
AC-K-24K24S2,572,experiment,63,↓,down,↓,0.4636532000731677,True,30,1
AC-K-24K24S2,573,experiment,79,←,left,←,0.5062923999503255,True,30,1
AC-K-24K24S2,574,experiment,94,→,right,→,0.62285659997724,True,30,1
AC-K-24K24S2,575,experiment,73,↑,up,↑,0.36736400006338954,True,30,1
AC-K-24K24S2,576,experiment,87,←,left,←,0.3180634998716414,True,30,0
AC-K-24K24S2,577,experiment,57,↑,up,↑,0.5282980999909341,True,30,1
AC-K-24K24S2,578,experiment,56,↓,down,↓,0.5205205001402646,True,30,1
AC-K-24K24S2,579,experiment,93,↑,up,↑,0.4601790001615882,True,30,1
AC-K-24K24S2,580,experiment,52,↑,up,↑,1.0002799998037517,True,30,1
AC-K-24K24S2,581,experiment,61,→,right,→,0.39215550012886524,True,30,1
AC-K-24K24S2,582,experiment,107,↑,up,↑,0.4242775999009609,True,30,0
AC-K-24K24S2,583,experiment,102,→,right,→,0.3510252002160996,True,30,1
AC-K-24K24S2,584,experiment,91,↑,up,↑,0.2842375999316573,True,30,1
AC-K-24K24S2,585,experiment,55,↑,up,↑,0.4568968000821769,True,30,0
AC-K-24K24S2,586,experiment,76,↓,down,↓,0.4291018000803888,True,30,1
AC-K-24K24S2,587,experiment,68,↓,down,↓,0.628840200137347,True,30,1
AC-K-24K24S2,588,experiment,64,↓,down,↓,0.6301915000658482,True,30,1
AC-K-24K24S2,589,experiment,66,↓,down,↓,0.6068243999034166,True,30,1
AC-K-24K24S2,590,experiment,53,→,right,→,0.5724847000092268,True,30,1
AC-K-24K24S2,591,experiment,101,↓,down,↓,0.5073685001116246,True,30,1
AC-K-24K24S2,592,experiment,106,↑,up,↑,1.4752990000415593,True,30,1
AC-K-24K24S2,593,experiment,49,↑,up,↑,0.6318642001133412,True,30,1
AC-K-24K24S2,594,experiment,59,↓,down,↓,0.6585405999794602,True,30,1
AC-K-24K24S2,595,experiment,86,←,left,←,0.32642819988541305,True,30,1
AC-K-24K24S2,596,experiment,58,→,right,→,0.4982028999365866,True,30,1
AC-K-24K24S2,597,experiment,92,↑,up,↑,0.5593415000475943,True,30,1
AC-K-24K24S2,598,experiment,82,↓,down,↓,0.5814649001695216,True,30,1
AC-K-24K24S2,599,experiment,78,→,right,→,0.4997866000048816,True,30,1
AC-K-24K24S2,600,experiment,72,↑,up,↑,0.5835319000761956,True,30,1
AC-K-24K24S2,601,experiment,99,↑,up,↑,0.6469793000724167,True,30,1
AC-K-24K24S2,602,experiment,50,→,right,→,0.6040879997890443,True,30,1
AC-K-24K24S2,603,experiment,60,↑,up,↑,0.5594868999905884,True,30,1
AC-K-24K24S2,604,experiment,95,↓,down,↓,0.48900309996679425,True,30,1
AC-K-24K24S2,605,experiment,48,↓,up,↑,1.3261263000313193,False,30,1
AC-K-24K24S2,606,experiment,98,↓,down,↓,1.6310360999777913,True,30,1
AC-K-24K24S2,607,experiment,104,↑,up,↑,0.3756905000191182,True,30,1
AC-K-24K24S2,608,training,52,↓,down,↓,0.4891029999125749,True,29,0
AC-K-24K24S2,609,training,90,→,right,→,0.36774969985708594,True,29,1
AC-K-24K24S2,610,experiment,92,→,right,→,0.34280280000530183,True,29,0
AC-K-24K24S2,611,experiment,83,↑,up,↑,0.5833240000065416,True,29,0
AC-K-24K24S2,612,experiment,60,→,left,←,0.27645170013420284,False,29,1
AC-K-24K24S2,613,experiment,99,→,right,→,0.5027504998724908,True,29,0
AC-K-24K24S2,614,experiment,65,←,left,←,0.4286392000503838,True,29,1
AC-K-24K24S2,615,experiment,91,↓,down,↓,0.5247818001080304,True,29,1
AC-K-24K24S2,616,experiment,103,→,right,→,0.35103060002438724,True,29,1
AC-K-24K24S2,617,experiment,81,→,right,→,1.4113729000091553,True,29,0
AC-K-24K24S2,618,experiment,71,←,left,←,0.4512853999622166,True,29,1
AC-K-24K24S2,619,experiment,51,↓,down,↓,0.4323537000454962,True,29,1
AC-K-24K24S2,620,experiment,61,↓,down,↓,1.842151999939233,True,29,1
AC-K-24K24S2,621,experiment,89,↓,down,↓,0.482507900102064,True,29,1
AC-K-24K24S2,622,experiment,54,←,left,←,0.47673849994316697,True,29,1
AC-K-24K24S2,623,experiment,63,↓,down,↓,0.46846000012010336,True,29,1
AC-K-24K24S2,624,experiment,100,↓,down,↓,0.46429229993373156,True,29,1
AC-K-24K24S2,625,experiment,69,↓,down,↓,0.46230060001835227,True,29,1
AC-K-24K24S2,626,experiment,90,←,left,←,0.46967300004325807,True,29,1
AC-K-24K24S2,627,experiment,79,←,left,←,0.43224070011638105,True,29,1
AC-K-24K24S2,628,experiment,86,←,left,←,0.4180308999493718,True,29,1
AC-K-24K24S2,629,experiment,104,↑,up,↑,0.5178886998910457,True,29,1
AC-K-24K24S2,630,experiment,55,←,left,←,0.5667429999448359,True,29,1
AC-K-24K24S2,631,experiment,98,↓,down,↓,0.7591347000561655,True,29,1
AC-K-24K24S2,632,experiment,107,→,right,→,0.6047315001487732,True,29,1
AC-K-24K24S2,633,experiment,58,↓,down,↓,0.48085419996641576,True,29,1
AC-K-24K24S2,634,experiment,62,→,right,→,0.46459590015001595,True,29,1
AC-K-24K24S2,635,experiment,64,↑,up,↑,0.560356100089848,True,29,1
AC-K-24K24S2,636,experiment,93,↓,down,↓,0.482677899999544,True,29,1
AC-K-24K24S2,637,experiment,85,↓,down,↓,0.5387711999937892,True,29,1
AC-K-24K24S2,638,experiment,87,↑,up,↑,0.5357722002081573,True,29,1
AC-K-24K24S2,639,experiment,53,↑,up,↑,0.42464470001868904,True,29,1
AC-K-24K24S2,640,experiment,50,←,left,←,0.33379810000769794,True,29,1
AC-K-24K24S2,641,experiment,56,←,left,←,0.5501418998464942,True,29,0
AC-K-24K24S2,642,experiment,108,↑,up,↑,0.3677310000639409,True,29,1
AC-K-24K24S2,643,experiment,59,↑,up,↑,0.5289986999705434,True,29,0
AC-K-24K24S2,644,experiment,48,↓,down,↓,0.5234290000516921,True,29,1
AC-K-24K24S2,645,experiment,67,←,left,←,0.36116490000858903,True,29,1
AC-K-24K24S2,646,experiment,72,←,left,←,0.3421550998464227,True,29,0
AC-K-24K24S2,647,experiment,94,←,right,→,0.3171989000402391,False,29,0
AC-K-24K24S2,648,experiment,96,↑,up,↑,0.35098020010627806,True,29,0
AC-K-24K24S2,649,experiment,95,↓,down,↓,0.6076213999185711,True,29,1
AC-K-24K24S2,650,experiment,74,←,left,←,0.5022827999200672,True,29,1
AC-K-24K24S2,651,experiment,82,→,left,←,0.6385772000066936,False,29,1
AC-K-24K24S2,652,experiment,106,←,left,←,0.5132035000715405,True,29,1
AC-K-24K24S2,653,experiment,101,→,right,→,0.3843791999388486,True,29,1
AC-K-24K24S2,654,experiment,66,←,left,←,0.51679030014202,True,29,1
AC-K-24K24S2,655,experiment,75,←,left,←,0.3765833000652492,True,29,1
AC-K-24K24S2,656,experiment,57,↓,down,↓,0.524637300055474,True,29,0
AC-K-24K24S2,657,experiment,52,↓,down,↓,0.5497324001044035,True,29,1
AC-K-24K24S2,658,experiment,105,→,right,→,0.37550019985064864,True,29,1
AC-K-24K24S2,659,experiment,70,←,left,←,0.4534525000490248,True,29,0
AC-K-24K24S2,660,experiment,76,↑,up,↑,0.4262590000871569,True,29,1
AC-K-24K24S2,661,experiment,88,↓,down,↓,0.419585500145331,True,29,1
AC-K-24K24S2,662,experiment,68,←,left,←,1.411211800063029,True,29,1
AC-K-24K24S2,663,experiment,84,↓,down,↓,0.43847569986246526,True,29,1
AC-K-24K24S2,664,experiment,78,↑,up,↑,0.4824836999177933,True,29,1
AC-K-24K24S2,665,experiment,77,→,right,→,0.3582816000562161,True,29,1
AC-K-24K24S2,666,experiment,49,→,right,→,0.5981374001130462,True,29,0
AC-K-24K24S2,667,experiment,80,↑,up,↑,0.6432843999937177,True,29,1
AC-K-24K24S2,668,experiment,97,↑,up,↑,0.584856600034982,True,29,1
AC-K-24K24S2,669,experiment,73,→,right,→,0.5528633999638259,True,29,1
AC-K-24K24S2,670,experiment,102,→,right,→,0.544553300132975,True,29,1
AC-K-24K24S2,671,training,78,↑,up,↑,0.5820597999263555,True,28,0
AC-K-24K24S2,672,training,76,→,right,→,0.37556259986013174,True,28,1
AC-K-24K24S2,673,experiment,101,→,right,→,0.5077068998944014,True,28,0
AC-K-24K24S2,674,experiment,92,↓,down,↓,0.41646209987811744,True,28,1
AC-K-24K24S2,675,experiment,79,↓,down,↓,0.5573241000529379,True,28,1
AC-K-24K24S2,676,experiment,99,↑,up,↑,0.3429964000824839,True,28,1
AC-K-24K24S2,677,experiment,73,→,right,→,0.360947199864313,True,28,1
AC-K-24K24S2,678,experiment,91,↑,up,↑,0.37594699999317527,True,28,0
AC-K-24K24S2,679,experiment,104,→,right,→,0.46308900020085275,True,28,1
AC-K-24K24S2,680,experiment,70,↓,down,↓,0.38385379989631474,True,28,1
AC-K-24K24S2,681,experiment,88,↓,down,↓,0.6957334000617266,True,28,0
AC-K-24K24S2,682,experiment,78,→,right,→,0.4413095999043435,True,28,1
AC-K-24K24S2,683,experiment,49,←,left,←,0.37551719998009503,True,28,1
AC-K-24K24S2,684,experiment,94,←,left,←,0.5683301999233663,True,28,0
AC-K-24K24S2,685,experiment,105,↑,up,↑,0.5582989999093115,True,28,1
AC-K-24K24S2,686,experiment,85,↓,down,↓,1.2752813999541104,True,28,1
AC-K-24K24S2,687,experiment,98,↓,down,↓,1.4952477999031544,True,28,1
AC-K-24K24S2,688,experiment,66,↑,up,↑,0.47694150009192526,True,28,1
AC-K-24K24S2,689,experiment,63,←,left,←,0.5166321001015604,True,28,1
AC-K-24K24S2,690,experiment,97,↑,up,↑,0.5356113000307232,True,28,1
AC-K-24K24S2,691,experiment,84,↓,down,↓,0.421545899938792,True,28,1
AC-K-24K24S2,692,experiment,80,←,left,←,0.44949170015752316,True,28,1
AC-K-24K24S2,693,experiment,67,↓,down,↓,0.5693561998195946,True,28,1
AC-K-24K24S2,694,experiment,95,→,right,→,0.35931430011987686,True,28,1
AC-K-24K24S2,695,experiment,68,→,right,→,0.4208761998452246,True,28,0
AC-K-24K24S2,696,experiment,82,↓,down,↓,0.44845200004056096,True,28,1
AC-K-24K24S2,697,experiment,52,↑,up,↑,0.5965152001008391,True,28,1
AC-K-24K24S2,698,experiment,75,↓,down,↓,0.49116870015859604,True,28,1
AC-K-24K24S2,699,experiment,89,←,left,←,0.5461019999347627,True,28,1
AC-K-24K24S2,700,experiment,55,→,right,→,0.6012160000391304,True,28,1
AC-K-24K24S2,701,experiment,103,↑,up,↑,0.414478600025177,True,28,1
AC-K-24K24S2,702,experiment,83,↑,up,↑,0.4740595000330359,True,28,1
AC-K-24K24S2,703,experiment,69,↓,down,↓,0.5837789999786764,True,28,1
AC-K-24K24S2,704,experiment,100,↑,up,↑,0.3277784001547843,True,28,1
AC-K-24K24S2,705,experiment,106,→,left,←,0.41436360008083284,False,28,0
AC-K-24K24S2,706,experiment,81,→,right,→,0.5137672999408096,True,28,1
AC-K-24K24S2,707,experiment,90,↓,down,↓,0.582692600088194,True,28,1
AC-K-24K24S2,708,experiment,72,←,left,←,0.5109667000360787,True,28,1
AC-K-24K24S2,709,experiment,51,←,left,←,0.6333511001430452,True,28,1
AC-K-24K24S2,710,experiment,54,←,left,←,0.5418951997999102,True,28,1
AC-K-24K24S2,711,experiment,107,→,right,→,0.42020600009709597,True,28,1
AC-K-24K24S2,712,experiment,53,←,left,←,0.5616146000102162,True,28,1
AC-K-24K24S2,713,experiment,64,→,left,←,0.6054219000507146,False,28,1
AC-K-24K24S2,714,experiment,58,←,left,←,0.4254562999121845,True,28,1
AC-K-24K24S2,715,experiment,62,↑,up,↑,0.579577500000596,True,28,1
AC-K-24K24S2,716,experiment,59,→,right,→,0.4963130000978708,True,28,1
AC-K-24K24S2,717,experiment,87,←,left,←,0.3841287998948246,True,28,1
AC-K-24K24S2,718,experiment,108,→,left,←,0.7314128000289202,False,28,1
AC-K-24K24S2,719,experiment,76,→,right,→,0.5480826001148671,True,28,1
AC-K-24K24S2,720,experiment,60,↑,up,↑,0.6422113999724388,True,28,1
AC-K-24K24S2,721,experiment,71,→,right,→,0.5442866000812501,True,28,1
AC-K-24K24S2,722,experiment,48,←,left,←,0.6583149000070989,True,28,1
AC-K-24K24S2,723,experiment,57,→,right,→,0.596851599868387,True,28,1
AC-K-24K24S2,724,experiment,93,↓,down,↓,0.6375903999432921,True,28,1
AC-K-24K24S2,725,experiment,77,→,right,→,0.5859614000655711,True,28,1
AC-K-24K24S2,726,experiment,50,↓,down,↓,1.0815218999050558,True,28,1
AC-K-24K24S2,727,experiment,56,↓,down,↓,0.4193088999018073,True,28,1
AC-K-24K24S2,728,experiment,86,↓,down,↓,0.4456643001176417,True,28,1
AC-K-24K24S2,729,experiment,102,→,right,→,0.43350020004436374,True,28,1
AC-K-24K24S2,730,experiment,65,←,left,←,0.41081939986906946,True,28,1
AC-K-24K24S2,731,experiment,96,↑,up,↑,0.5613371001090854,True,28,1
AC-K-24K24S2,732,experiment,61,→,right,→,0.4945231999736279,True,28,1
AC-K-24K24S2,733,experiment,74,←,left,←,0.48953189980238676,True,28,1
AC-K-24K24S2,734,training,108,→,right,→,0.5359439998865128,True,28,0
AC-K-24K24S2,735,training,77,↑,up,↑,0.36798360012471676,True,28,1
AC-K-24K24S2,736,experiment,101,↑,up,↑,0.471655200002715,True,28,0
AC-K-24K24S2,737,experiment,96,↓,down,↓,0.5403551000636071,True,28,1
AC-K-24K24S2,738,experiment,91,→,right,→,0.37765910010784864,True,28,1
AC-K-24K24S2,739,experiment,61,↓,down,↓,0.4759585000574589,True,28,0
AC-K-24K24S2,740,experiment,92,→,right,→,1.498118800111115,True,28,1
AC-K-24K24S2,741,experiment,56,↑,up,↑,0.4828642001375556,True,28,1
AC-K-24K24S2,742,experiment,87,↑,up,↑,0.45037550013512373,True,28,1
AC-K-24K24S2,743,experiment,77,↓,down,↓,0.3589816000312567,True,28,1
AC-K-24K24S2,744,experiment,60,←,left,←,0.5876964000053704,True,28,0
AC-K-24K24S2,745,experiment,49,←,left,←,0.30822729994542897,True,28,1
AC-K-24K24S2,746,experiment,85,→,right,→,0.4260956000071019,True,28,0
AC-K-24K24S2,747,experiment,65,↓,up,↑,0.5871700998395681,False,28,1
AC-K-24K24S2,748,experiment,103,←,left,←,0.4488498999271542,True,28,1
AC-K-24K24S2,749,experiment,67,↓,down,↓,1.1440397000405937,True,28,1
AC-K-24K24S2,750,experiment,76,↑,up,↑,0.5368286999873817,True,28,1
AC-K-24K24S2,751,experiment,72,↓,down,↓,0.4191818998660892,True,28,1
AC-K-24K24S2,752,experiment,59,→,right,→,0.5500262000132352,True,28,1
AC-K-24K24S2,753,experiment,58,↑,up,↑,0.5085266001988202,True,28,1
AC-K-24K24S2,754,experiment,89,←,left,←,0.4663790001068264,True,28,1
AC-K-24K24S2,755,experiment,86,→,right,→,0.6267456999048591,True,28,1
AC-K-24K24S2,756,experiment,73,↑,up,↑,0.5051959999836981,True,28,1
AC-K-24K24S2,757,experiment,68,←,left,←,1.181677000131458,True,28,1
AC-K-24K24S2,758,experiment,107,←,left,←,0.5383968001697212,True,28,1
AC-K-24K24S2,759,experiment,66,↓,down,↓,0.5987168999854475,True,28,1
AC-K-24K24S2,760,experiment,51,↑,up,↑,0.4373967000283301,True,28,1
AC-K-24K24S2,761,experiment,55,↓,down,↓,0.5695032998919487,True,28,1
AC-K-24K24S2,762,experiment,97,↑,up,↑,0.40252080000936985,True,28,1
AC-K-24K24S2,763,experiment,90,↓,down,↓,0.35957639990374446,True,28,1
AC-K-24K24S2,764,experiment,74,←,left,←,0.6359548999462277,True,28,1
AC-K-24K24S2,765,experiment,75,←,left,←,0.4570905000437051,True,28,1
AC-K-24K24S2,766,experiment,100,←,left,←,0.8051730999723077,True,28,1
AC-K-24K24S2,767,experiment,104,→,right,→,0.3678991999477148,True,28,1
AC-K-24K24S2,768,experiment,106,↓,down,↓,0.4550328999757767,True,28,1
AC-K-24K24S2,769,experiment,83,←,left,←,0.5608658997807652,True,28,1
AC-K-24K24S2,770,experiment,50,↓,down,↓,0.4498994001187384,True,28,1
AC-K-24K24S2,771,experiment,108,↓,down,↓,0.6681554999668151,True,28,1
AC-K-24K24S2,772,experiment,94,↓,down,↓,0.5613750000484288,True,28,1
AC-K-24K24S2,773,experiment,79,↓,down,↓,0.5201321998611093,True,28,1
AC-K-24K24S2,774,experiment,63,↑,up,↑,0.6624862002208829,True,28,1
AC-K-24K24S2,775,experiment,54,↑,up,↑,0.561326100025326,True,28,1
AC-K-24K24S2,776,experiment,48,→,right,→,0.555145800113678,True,28,1
AC-K-24K24S2,777,experiment,57,←,left,←,0.5370934000238776,True,28,1
AC-K-24K24S2,778,experiment,71,↓,left,←,0.7795418000314385,False,28,1
AC-K-24K24S2,779,experiment,64,←,left,←,0.42261949996463954,True,28,1
AC-K-24K24S2,780,experiment,102,→,right,→,0.5073674998711795,True,28,1
AC-K-24K24S2,781,experiment,53,↑,up,↑,0.4930360000580549,True,28,1
AC-K-24K24S2,782,experiment,62,→,right,→,0.564473900012672,True,28,1
AC-K-24K24S2,783,experiment,88,↓,down,↓,0.5280905000399798,True,28,1
AC-K-24K24S2,784,experiment,93,↑,up,↑,0.5075823999941349,True,28,1
AC-K-24K24S2,785,experiment,95,→,right,→,0.5193787000607699,True,28,1
AC-K-24K24S2,786,experiment,82,→,right,→,0.41508790012449026,True,28,1
AC-K-24K24S2,787,experiment,80,↑,up,↑,0.49989700014702976,True,28,1
AC-K-24K24S2,788,experiment,78,↓,up,↑,0.6291239999700338,False,28,1
AC-K-24K24S2,789,experiment,81,→,right,→,0.5685602999292314,True,28,1
AC-K-24K24S2,790,experiment,69,↑,up,↑,0.5703831999562681,True,28,1
AC-K-24K24S2,791,experiment,52,↓,down,↓,0.5301544000394642,True,28,1
AC-K-24K24S2,792,experiment,99,↑,up,↑,0.3763470998965204,True,28,1
AC-K-24K24S2,793,experiment,70,↓,down,↓,0.5005445999559015,True,28,1
AC-K-24K24S2,794,experiment,84,↓,no_key,no_letter,-1.0,False,28,1
AC-K-24K24S2,795,experiment,105,↑,up,↑,0.6848289000336081,True,28,1
AC-K-24K24S2,796,experiment,98,←,left,←,0.3776279999874532,True,28,1
AC-K-24K24S2,797,training,54,↓,down,↓,0.5340803998988122,True,28,0
AC-K-24K24S2,798,training,59,→,right,→,0.3677499000914395,True,28,1
AC-K-24K24S2,799,experiment,105,→,right,→,0.5626576999202371,True,28,0
AC-K-24K24S2,800,experiment,107,↓,down,↓,0.6000121999531984,True,28,1
AC-K-24K24S2,801,experiment,86,←,left,←,0.5069879000075161,True,28,1
AC-K-24K24S2,802,experiment,59,→,right,→,0.3845289999153465,True,28,1
AC-K-24K24S2,803,experiment,80,←,left,←,0.48824260011315346,True,28,1
AC-K-24K24S2,804,experiment,73,↑,up,↑,0.49196829996071756,True,28,1
AC-K-24K24S2,805,experiment,64,←,left,←,0.44268550002016127,True,28,1
AC-K-24K24S2,806,experiment,98,→,right,→,0.3671718998812139,True,28,1
AC-K-24K24S2,807,experiment,74,→,left,←,0.3693238999694586,False,28,0
AC-K-24K24S2,808,experiment,55,↓,down,↓,0.6381035998929292,True,28,0
AC-K-24K24S2,809,experiment,87,↓,down,↓,0.47130200010724366,True,28,1
AC-K-24K24S2,810,experiment,72,←,left,←,0.52392049995251,True,28,1
AC-K-24K24S2,811,experiment,82,→,right,→,0.5154094998724759,True,28,1
AC-K-24K24S2,812,experiment,85,↓,down,↓,0.5861517998855561,True,28,1
AC-K-24K24S2,813,experiment,88,←,left,←,0.43726160004734993,True,28,1
AC-K-24K24S2,814,experiment,67,↓,down,↓,0.6050049997866154,True,28,1
AC-K-24K24S2,815,experiment,100,→,right,→,1.3229473000392318,True,28,1
AC-K-24K24S2,816,experiment,60,→,right,→,1.3777985000051558,True,28,1
AC-K-24K24S2,817,experiment,63,↑,up,↑,0.6050509000197053,True,28,1
AC-K-24K24S2,818,experiment,77,→,right,→,0.650721900165081,True,28,1
AC-K-24K24S2,819,experiment,99,↑,up,↑,0.48734840005636215,True,28,1
AC-K-24K24S2,820,experiment,62,←,left,←,0.5347972998861223,True,28,1
AC-K-24K24S2,821,experiment,93,→,right,→,0.3846208001486957,True,28,1
AC-K-24K24S2,822,experiment,70,↑,up,↑,0.5149759000632912,True,28,0
AC-K-24K24S2,823,experiment,97,←,left,←,0.5016262999270111,True,28,1
AC-K-24K24S2,824,experiment,78,↑,up,↑,0.47945689992047846,True,28,1
AC-K-24K24S2,825,experiment,58,↑,up,↑,0.4973381001036614,True,28,1
AC-K-24K24S2,826,experiment,65,←,up,↑,0.6472078999504447,False,28,1
AC-K-24K24S2,827,experiment,49,←,left,←,0.42831580014899373,True,28,1
AC-K-24K24S2,828,experiment,83,←,left,←,0.44739719992503524,True,28,1
AC-K-24K24S2,829,experiment,92,→,right,→,0.43852580012753606,True,28,1
AC-K-24K24S2,830,experiment,79,→,right,→,0.4022531001828611,True,28,1
AC-K-24K24S2,831,experiment,94,→,right,→,0.6263307998888195,True,28,0
AC-K-24K24S2,832,experiment,69,←,left,←,0.46595180011354387,True,28,1
AC-K-24K24S2,833,experiment,54,↓,right,→,0.757076800102368,False,28,1
AC-K-24K24S2,834,experiment,71,↓,down,↓,0.4949679998680949,True,28,1
AC-K-24K24S2,835,experiment,50,↑,up,↑,0.6100087000522763,True,28,1
AC-K-24K24S2,836,experiment,68,→,right,→,0.40272540017031133,True,28,1
AC-K-24K24S2,837,experiment,81,↑,up,↑,0.4234172001015395,True,28,0
AC-K-24K24S2,838,experiment,61,↑,up,↑,0.3509154999628663,True,28,1
AC-K-24K24S2,839,experiment,56,←,left,←,1.1762902999762446,True,28,0
AC-K-24K24S2,840,experiment,102,↓,down,↓,0.6151992999948561,True,28,1
AC-K-24K24S2,841,experiment,106,↑,up,↑,0.5546981999650598,True,28,1
AC-K-24K24S2,842,experiment,52,↑,up,↑,0.5631929999217391,True,28,1
AC-K-24K24S2,843,experiment,89,↑,up,↑,0.5669289000798017,True,28,1
AC-K-24K24S2,844,experiment,108,←,left,←,0.44379370007663965,True,28,1
AC-K-24K24S2,845,experiment,95,↓,down,↓,0.6822542001027614,True,28,1
AC-K-24K24S2,846,experiment,75,→,right,→,0.5015810998156667,True,28,1
AC-K-24K24S2,847,experiment,51,→,right,→,0.5844087000004947,True,28,1
AC-K-24K24S2,848,experiment,91,←,left,←,0.6265163999050856,True,28,1
AC-K-24K24S2,849,experiment,84,←,left,←,0.5170916998758912,True,28,1
AC-K-24K24S2,850,experiment,48,↑,up,↑,0.49637629999779165,True,28,1
AC-K-24K24S2,851,experiment,53,↓,down,↓,0.7224920999724418,True,28,1
AC-K-24K24S2,852,experiment,76,↑,up,↑,0.619717399822548,True,28,1
AC-K-24K24S2,853,experiment,57,↓,down,↓,0.6957010999321938,True,28,1
AC-K-24K24S2,854,experiment,66,↓,down,↓,0.6615038998425007,True,28,1
AC-K-24K24S2,855,experiment,96,↓,down,↓,0.506810599938035,True,28,1
AC-K-24K24S2,856,experiment,104,→,right,→,0.6518854000605643,True,28,1
AC-K-24K24S2,857,experiment,90,←,left,←,1.4351715000811964,True,28,1
AC-K-24K24S2,858,experiment,103,↑,up,↑,0.6231986000202596,True,28,1
AC-K-24K24S2,859,experiment,101,↓,down,↓,0.6923519000411034,True,28,1
AC-K-24K24S2,860,training,104,←,left,←,0.3346052002161741,True,28,0
AC-K-24K24S2,861,training,59,→,right,→,0.4807893999386579,True,28,0
AC-K-24K24S2,862,experiment,99,↓,down,↓,0.6280316999182105,True,28,1
AC-K-24K24S2,863,experiment,58,←,left,←,0.49563940009102225,True,28,1
AC-K-24K24S2,864,experiment,49,↓,down,↓,0.5311479999218136,True,28,1
AC-K-24K24S2,865,experiment,98,←,left,←,0.3341285001952201,True,28,1
AC-K-24K24S2,866,experiment,79,←,up,↑,0.4443083999212831,False,28,0
AC-K-24K24S2,867,experiment,57,↑,up,↑,0.4156628001946956,True,28,1
AC-K-24K24S2,868,experiment,94,→,right,→,0.49526520003564656,True,28,1
AC-K-24K24S2,869,experiment,53,↑,up,↑,0.4892802000977099,True,28,1
AC-K-24K24S2,870,experiment,72,↑,up,↑,0.4135309997946024,True,28,1
AC-K-24K24S2,871,experiment,88,→,right,→,0.3846653001382947,True,28,1
AC-K-24K24S2,872,experiment,95,↓,down,↓,0.5836718000937253,True,28,1
AC-K-24K24S2,873,experiment,74,←,left,←,0.35255390009842813,True,28,1
AC-K-24K24S2,874,experiment,81,←,left,←,0.5334684001281857,True,28,0
AC-K-24K24S2,875,experiment,100,←,left,←,0.44642100017517805,True,28,1
AC-K-24K24S2,876,experiment,50,↓,down,↓,0.4353583001065999,True,28,1
AC-K-24K24S2,877,experiment,77,←,left,←,0.37763660005293787,True,28,1
AC-K-24K24S2,878,experiment,75,↓,down,↓,0.44689129991456866,True,28,0
AC-K-24K24S2,879,experiment,105,→,right,→,0.3756096998695284,True,28,1
AC-K-24K24S2,880,experiment,85,→,left,←,0.5177871999330819,False,28,0
AC-K-24K24S2,881,experiment,93,↑,up,↑,0.3673180998302996,True,28,1
AC-K-24K24S2,882,experiment,91,→,right,→,0.5003764000721276,True,28,0
AC-K-24K24S2,883,experiment,60,←,left,←,0.37601380003616214,True,28,1
AC-K-24K24S2,884,experiment,61,↓,down,↓,0.4722758000716567,True,28,1
AC-K-24K24S2,885,experiment,96,→,left,←,0.342497400008142,False,28,1
AC-K-24K24S2,886,experiment,78,↓,down,↓,0.4132509999908507,True,28,0
AC-K-24K24S2,887,experiment,92,←,left,←,0.5890419001225382,True,28,1
AC-K-24K24S2,888,experiment,80,↓,down,↓,0.4344337999355048,True,28,1
AC-K-24K24S2,889,experiment,54,←,left,←,0.37628520000725985,True,28,1
AC-K-24K24S2,890,experiment,82,←,left,←,0.5802675001323223,True,28,0
AC-K-24K24S2,891,experiment,71,↓,down,↓,0.42872149986214936,True,28,1
AC-K-24K24S2,892,experiment,55,↓,down,↓,0.5527346001472324,True,28,1
AC-K-24K24S2,893,experiment,62,↓,down,↓,0.614116899902001,True,28,1
AC-K-24K24S2,894,experiment,107,←,left,←,0.5373889999464154,True,28,1
AC-K-24K24S2,895,experiment,108,→,right,→,0.4232580999378115,True,28,1
AC-K-24K24S2,896,experiment,67,→,right,→,0.40787489991635084,True,28,1
AC-K-24K24S2,897,experiment,64,→,right,→,0.8177974000573158,True,28,0
AC-K-24K24S2,898,experiment,102,→,right,→,0.5428128000348806,True,28,1
AC-K-24K24S2,899,experiment,84,↓,down,↓,0.4369151999708265,True,28,1
AC-K-24K24S2,900,experiment,51,↓,down,↓,0.5544389002025127,True,28,1
AC-K-24K24S2,901,experiment,65,↑,up,↑,0.43826070008799434,True,28,1
AC-K-24K24S2,902,experiment,97,←,left,←,0.3672519999090582,True,28,1
AC-K-24K24S2,903,experiment,69,→,right,→,0.5337354000657797,True,28,0
AC-K-24K24S2,904,experiment,70,←,right,→,0.8566097000148147,False,28,1
AC-K-24K24S2,905,experiment,59,←,up,↑,1.0583235998637974,False,28,1
AC-K-24K24S2,906,experiment,56,←,left,←,0.5330866000149399,True,28,1
AC-K-24K24S2,907,experiment,104,↑,up,↑,0.5887146999593824,True,28,1
AC-K-24K24S2,908,experiment,83,→,right,→,0.5291495998390019,True,28,1
AC-K-24K24S2,909,experiment,52,←,left,←,0.47413739981129766,True,28,1
AC-K-24K24S2,910,experiment,73,↓,down,↓,0.5505431001074612,True,28,1
AC-K-24K24S2,911,experiment,106,←,left,←,0.4136406001634896,True,28,1
AC-K-24K24S2,912,experiment,66,↓,down,↓,0.5660854000598192,True,28,1
AC-K-24K24S2,913,experiment,68,→,right,→,0.5526535001117736,True,28,1
AC-K-24K24S2,914,experiment,87,←,left,←,0.5332903999369591,True,28,1
AC-K-24K24S2,915,experiment,86,↓,down,↓,0.4030224001035094,True,28,1
AC-K-24K24S2,916,experiment,63,→,right,→,0.44532909989356995,True,28,0
AC-K-24K24S2,917,experiment,89,↓,down,↓,0.6614385000430048,True,28,1
AC-K-24K24S2,918,experiment,90,→,right,→,0.7324514999054372,True,28,1
AC-K-24K24S2,919,experiment,101,↓,up,↑,0.6136717998888344,False,28,1
AC-K-24K24S2,920,experiment,48,↓,down,↓,0.5486655000131577,True,28,1
AC-K-24K24S2,921,experiment,76,←,left,←,0.3256946001201868,True,28,1
AC-K-24K24S2,922,experiment,103,↑,up,↑,0.5652030000928789,True,28,0
AC-K-24K24S2,923,training,73,→,right,→,0.3761493000201881,True,28,0
AC-K-24K24S2,924,training,76,←,left,←,0.42434879997745156,True,28,0
AC-K-24K24S2,925,experiment,64,→,right,→,0.3761936000082642,True,28,1
AC-K-24K24S2,926,experiment,76,←,left,←,0.3261128000449389,True,28,1
AC-K-24K24S2,927,experiment,91,↓,up,↑,0.4690819999668747,False,28,1
AC-K-24K24S2,928,experiment,73,→,right,→,1.3613366999197751,True,28,1
AC-K-24K24S2,929,experiment,75,↑,up,↑,0.34271500003524125,True,28,1
AC-K-24K24S2,930,experiment,83,↓,down,↓,0.5760537998285145,True,28,0
AC-K-24K24S2,931,experiment,78,→,right,→,0.34434469998814166,True,28,1
AC-K-24K24S2,932,experiment,60,←,left,←,0.317789499880746,True,28,1
AC-K-24K24S2,933,experiment,89,↓,down,↓,0.4008649999741465,True,28,0
AC-K-24K24S2,934,experiment,94,→,right,→,0.38403509999625385,True,28,0
AC-K-24K24S2,935,experiment,56,↑,up,↑,1.1186047000810504,True,28,0
AC-K-24K24S2,936,experiment,98,↑,up,↑,0.3780330999288708,True,28,1
AC-K-24K24S2,937,experiment,95,←,left,←,0.729524299968034,True,28,1
AC-K-24K24S2,938,experiment,65,←,left,←,0.3004725999198854,True,28,1
AC-K-24K24S2,939,experiment,90,↑,up,↑,0.34304820001125336,True,28,0
AC-K-24K24S2,940,experiment,81,↑,left,←,0.3100765999406576,False,28,0
AC-K-24K24S2,941,experiment,82,←,left,←,0.5064025998581201,True,28,1
AC-K-24K24S2,942,experiment,84,↑,up,↑,0.497600199887529,True,28,1
AC-K-24K24S2,943,experiment,72,→,right,→,0.5176460999064147,True,28,1
AC-K-24K24S2,944,experiment,54,→,right,→,0.5266555000562221,True,28,1
AC-K-24K24S2,945,experiment,68,↑,up,↑,0.45862610009498894,True,28,1
AC-K-24K24S2,946,experiment,100,→,right,→,0.5584894998464733,True,28,1
AC-K-24K24S2,947,experiment,99,←,right,→,0.7111166999675333,False,28,1
AC-K-24K24S2,948,experiment,105,↑,up,↑,0.5193089998792857,True,28,1
AC-K-24K24S2,949,experiment,61,←,left,←,0.46191029995679855,True,28,1
AC-K-24K24S2,950,experiment,62,→,right,→,0.7106062998063862,True,28,1
AC-K-24K24S2,951,experiment,67,→,right,→,0.35120199993252754,True,28,1
AC-K-24K24S2,952,experiment,63,←,left,←,0.5440397001802921,True,28,1
AC-K-24K24S2,953,experiment,50,↑,up,↑,1.3294556997716427,True,28,1
AC-K-24K24S2,954,experiment,79,↓,down,↓,0.5294592999853194,True,28,1
AC-K-24K24S2,955,experiment,106,↑,up,↑,0.6805128999985754,True,28,1
AC-K-24K24S2,956,experiment,96,↑,up,↑,0.5168141000904143,True,28,1
AC-K-24K24S2,957,experiment,108,↓,down,↓,0.5800875998102129,True,28,1
AC-K-24K24S2,958,experiment,59,→,right,→,1.4082223998848349,True,28,1
AC-K-24K24S2,959,experiment,101,←,right,→,0.8062621999997646,False,28,1
AC-K-24K24S2,960,experiment,70,↓,down,↓,0.622404099907726,True,28,1
AC-K-24K24S2,961,experiment,58,→,right,→,0.6416835999116302,True,28,1
AC-K-24K24S2,962,experiment,49,↑,up,↑,0.4873615000396967,True,28,1
AC-K-24K24S2,963,experiment,69,↓,down,↓,0.5245844998862594,True,28,1
AC-K-24K24S2,964,experiment,57,→,right,→,0.6443269997835159,True,28,1
AC-K-24K24S2,965,experiment,103,→,right,→,0.4639057000167668,True,28,1
AC-K-24K24S2,966,experiment,53,→,right,→,0.7553987998981029,True,28,1
AC-K-24K24S2,967,experiment,97,↓,down,↓,0.5165214000735432,True,28,1
AC-K-24K24S2,968,experiment,77,←,up,↑,0.7817714000120759,False,28,1
AC-K-24K24S2,969,experiment,52,→,right,→,0.4530128000769764,True,28,1
AC-K-24K24S2,970,experiment,104,↑,up,↑,0.551940199919045,True,28,1
AC-K-24K24S2,971,experiment,107,→,right,→,0.5254244999960065,True,28,1
AC-K-24K24S2,972,experiment,102,←,left,←,0.4622967999894172,True,28,1
AC-K-24K24S2,973,experiment,80,↓,down,↓,0.6086714998818934,True,28,1
AC-K-24K24S2,974,experiment,71,↓,down,↓,0.6165128999855369,True,28,1
AC-K-24K24S2,975,experiment,74,←,left,←,0.5271683000028133,True,28,1
AC-K-24K24S2,976,experiment,55,↓,down,↓,0.6232861001044512,True,28,1
AC-K-24K24S2,977,experiment,48,↑,up,↑,0.7099067000672221,True,28,1
AC-K-24K24S2,978,experiment,66,→,right,→,0.5394661999307573,True,28,1
AC-K-24K24S2,979,experiment,87,↑,up,↑,0.5128631999250501,True,28,1
AC-K-24K24S2,980,experiment,93,←,left,←,0.44444989995099604,True,28,1
AC-K-24K24S2,981,experiment,92,→,right,→,0.459933300036937,True,28,1
AC-K-24K24S2,982,experiment,88,↓,down,↓,0.6518796000164002,True,28,1
AC-K-24K24S2,983,experiment,85,↑,up,↑,0.6535819000564516,True,28,1
AC-K-24K24S2,984,experiment,51,→,right,→,0.6341747001279145,True,28,1
AC-K-24K24S2,985,experiment,86,→,right,→,0.5558631999883801,True,28,1
AC-K-24K24S2,986,training,58,←,left,←,0.4582430999726057,True,28,0
AC-K-24K24S2,987,training,90,→,right,→,0.3595312999095768,True,28,1
AC-K-24K24S2,988,experiment,51,→,right,→,0.4097424999345094,True,28,0
AC-K-24K24S2,989,experiment,98,↑,up,↑,0.4081522000487894,True,28,1
AC-K-24K24S2,990,experiment,85,↑,up,↑,0.4833158999681473,True,28,0
AC-K-24K24S2,991,experiment,106,→,right,→,0.5003708999138325,True,28,1
AC-K-24K24S2,992,experiment,86,→,right,→,0.43555960012599826,True,28,1
AC-K-24K24S2,993,experiment,66,↓,down,↓,0.5879110998939723,True,28,1
AC-K-24K24S2,994,experiment,90,↓,down,↓,0.5581618999131024,True,28,1
AC-K-24K24S2,995,experiment,103,→,right,→,0.37533440021798015,True,28,1
AC-K-24K24S2,996,experiment,104,↓,down,↓,0.41897710016928613,True,28,0
AC-K-24K24S2,997,experiment,75,←,down,↓,0.6407419999595731,False,28,1
AC-K-24K24S2,998,experiment,57,↑,up,↑,0.49165500001981854,True,28,1
AC-K-24K24S2,999,experiment,102,←,left,←,1.2858242001384497,True,28,1
AC-K-24K24S2,1000,experiment,70,→,right,→,0.35046590003184974,True,28,1
AC-K-24K24S2,1001,experiment,97,←,left,←,0.36719140014611185,True,28,0
AC-K-24K24S2,1002,experiment,80,→,right,→,0.5937725000549108,True,28,0
AC-K-24K24S2,1003,experiment,65,↑,up,↑,0.49238889990374446,True,28,1
AC-K-24K24S2,1004,experiment,93,←,left,←,0.6412933000829071,True,28,1
AC-K-24K24S2,1005,experiment,99,↑,up,↑,0.48645549989305437,True,28,1
AC-K-24K24S2,1006,experiment,58,→,right,→,0.36794780008494854,True,28,1
AC-K-24K24S2,1007,experiment,60,←,left,←,0.38469960005022585,True,28,0
AC-K-24K24S2,1008,experiment,73,←,left,←,0.30958719993941486,True,28,0
AC-K-24K24S2,1009,experiment,84,↓,down,↓,0.42695600003935397,True,28,1
AC-K-24K24S2,1010,experiment,62,↑,up,↑,0.42072940012440085,True,28,1
AC-K-24K24S2,1011,experiment,72,↓,up,↑,0.7233871000353247,False,28,1
AC-K-24K24S2,1012,experiment,77,↓,down,↓,0.5482622999697924,True,28,1
AC-K-24K24S2,1013,experiment,71,↓,down,↓,0.4545585000887513,True,28,1
AC-K-24K24S2,1014,experiment,50,←,down,↓,0.747252699919045,False,28,1
AC-K-24K24S2,1015,experiment,87,↓,down,↓,0.5521390999201685,True,28,1
AC-K-24K24S2,1016,experiment,91,↑,up,↑,0.4753646000754088,True,28,1
AC-K-24K24S2,1017,experiment,83,→,right,→,0.4920206000097096,True,28,1
AC-K-24K24S2,1018,experiment,96,←,left,←,0.5599442000966519,True,28,1
AC-K-24K24S2,1019,experiment,61,↓,down,↓,0.5092333001084626,True,28,1
AC-K-24K24S2,1020,experiment,95,↓,down,↓,0.4731252999044955,True,28,1
AC-K-24K24S2,1021,experiment,68,→,right,→,0.4711230001412332,True,28,1
AC-K-24K24S2,1022,experiment,92,↓,down,↓,0.5412652001250535,True,28,1
AC-K-24K24S2,1023,experiment,88,↓,left,←,0.6659558999817818,False,28,1
AC-K-24K24S2,1024,experiment,74,↓,down,↓,0.4382048000115901,True,28,1
AC-K-24K24S2,1025,experiment,100,↑,up,↑,0.770974500104785,True,28,1
AC-K-24K24S2,1026,experiment,55,↑,up,↑,1.3777079998981208,True,28,1
AC-K-24K24S2,1027,experiment,63,←,left,←,0.31800239998847246,True,28,1
AC-K-24K24S2,1028,experiment,105,↑,up,↑,0.46069670002907515,True,28,0
AC-K-24K24S2,1029,experiment,54,↑,up,↑,0.49612360005266964,True,28,1
AC-K-24K24S2,1030,experiment,69,←,left,←,0.5008533999789506,True,28,1
AC-K-24K24S2,1031,experiment,78,→,right,→,0.5345644999761134,True,28,1
AC-K-24K24S2,1032,experiment,53,↓,down,↓,0.6953449000138789,True,28,1
AC-K-24K24S2,1033,experiment,82,↑,right,→,0.6239551000762731,False,28,1
AC-K-24K24S2,1034,experiment,64,→,right,→,0.4816212998703122,True,28,1
AC-K-24K24S2,1035,experiment,59,↑,up,↑,0.3747727998998016,True,28,1
AC-K-24K24S2,1036,experiment,56,↑,up,↑,0.4159614001400769,True,28,0
AC-K-24K24S2,1037,experiment,67,↓,down,↓,0.6486176000908017,True,28,1
AC-K-24K24S2,1038,experiment,79,→,right,→,0.40478870016522706,True,28,1
AC-K-24K24S2,1039,experiment,108,↑,up,↑,0.36088789999485016,True,28,1
AC-K-24K24S2,1040,experiment,94,↑,up,↑,0.5450134999118745,True,28,0
AC-K-24K24S2,1041,experiment,101,↑,up,↑,0.4974460999947041,True,28,1
AC-K-24K24S2,1042,experiment,107,↓,down,↓,0.5613748000469059,True,28,1
AC-K-24K24S2,1043,experiment,52,↓,down,↓,0.585234000114724,True,28,1
AC-K-24K24S2,1044,experiment,81,←,left,←,0.5823649000376463,True,28,1
AC-K-24K24S2,1045,experiment,49,→,right,→,0.5744535000994802,True,28,1
AC-K-24K24S2,1046,experiment,76,→,right,→,0.36700440011918545,True,28,1
AC-K-24K24S2,1047,experiment,48,←,left,←,0.5828980999067426,True,28,0
AC-K-24K24S2,1048,experiment,89,↓,down,↓,0.601789099862799,True,28,1
AC-K-24K24S2,1049,training,60,←,left,←,1.4563875999301672,True,28,0
AC-K-24K24S2,1050,training,52,→,right,→,0.5487911000382155,True,28,1
AC-K-24K24S2,1051,experiment,100,→,right,→,0.42114439979195595,True,28,1
AC-K-24K24S2,1052,experiment,59,↓,down,↓,1.2238610000349581,True,28,1
AC-K-24K24S2,1053,experiment,105,←,left,←,0.5397424998227507,True,28,1
AC-K-24K24S2,1054,experiment,55,↑,up,↑,0.3679426999296993,True,28,1
AC-K-24K24S2,1055,experiment,58,↑,up,↑,1.344803199870512,True,28,0
AC-K-24K24S2,1056,experiment,72,↓,down,↓,0.5707614999264479,True,28,1
AC-K-24K24S2,1057,experiment,56,↓,down,↓,0.46529010008089244,True,28,1
AC-K-24K24S2,1058,experiment,93,↑,up,↑,0.47126300004310906,True,28,1
AC-K-24K24S2,1059,experiment,89,←,left,←,0.5744238998740911,True,28,1
AC-K-24K24S2,1060,experiment,65,↑,up,↑,0.473607299849391,True,28,1
AC-K-24K24S2,1061,experiment,49,↓,down,↓,0.5818304000422359,True,28,1
AC-K-24K24S2,1062,experiment,103,←,left,←,0.4837513999082148,True,28,1
AC-K-24K24S2,1063,experiment,69,←,left,←,1.2251920998096466,True,28,1
AC-K-24K24S2,1064,experiment,78,←,left,←,0.37603010004386306,True,28,1
AC-K-24K24S2,1065,experiment,52,→,left,←,0.43701899982988834,False,28,0
AC-K-24K24S2,1066,experiment,67,↑,up,↑,0.7571312999352813,True,28,1
AC-K-24K24S2,1067,experiment,90,←,left,←,0.36139719979837537,True,28,1
AC-K-24K24S2,1068,experiment,97,←,left,←,0.48875120002776384,True,28,0
AC-K-24K24S2,1069,experiment,57,↓,down,↓,0.4029238000512123,True,28,1
AC-K-24K24S2,1070,experiment,63,↑,up,↑,0.44429949996992946,True,28,1
AC-K-24K24S2,1071,experiment,68,↑,up,↑,1.7079767999239266,True,28,1
AC-K-24K24S2,1072,experiment,75,↑,up,↑,0.4143204998690635,True,28,1
AC-K-24K24S2,1073,experiment,98,←,up,↑,0.5404882999137044,False,28,1
AC-K-24K24S2,1074,experiment,80,←,left,←,0.4758081999607384,True,28,1
AC-K-24K24S2,1075,experiment,101,←,right,→,0.40716019994579256,False,28,1
AC-K-24K24S2,1076,experiment,95,→,left,←,0.5508760998491198,False,28,1
AC-K-24K24S2,1077,experiment,54,→,right,→,0.6705060999374837,True,28,1
AC-K-24K24S2,1078,experiment,106,→,right,→,0.3513132000807673,True,28,1
AC-K-24K24S2,1079,experiment,61,↓,up,↑,0.5972307999618351,False,28,1
AC-K-24K24S2,1080,experiment,71,↓,down,↓,0.6373771000653505,True,28,1
AC-K-24K24S2,1081,experiment,50,←,left,←,0.35127900005318224,True,28,1
AC-K-24K24S2,1082,experiment,74,←,left,←,0.5714826001785696,True,28,0
AC-K-24K24S2,1083,experiment,92,↓,left,←,0.7336864999961108,False,28,1
AC-K-24K24S2,1084,experiment,73,←,down,↓,0.8074970999732614,False,28,1
AC-K-24K24S2,1085,experiment,66,↑,down,↓,0.9687850999180228,False,28,1
AC-K-24K24S2,1086,experiment,104,←,left,←,0.5992929001804441,True,28,1
AC-K-24K24S2,1087,experiment,91,↑,up,↑,0.48074520006775856,True,28,1
AC-K-24K24S2,1088,experiment,86,↑,up,↑,0.5527014001272619,True,28,1
AC-K-24K24S2,1089,experiment,96,←,left,←,0.6500158000271767,True,28,1
AC-K-24K24S2,1090,experiment,82,←,left,←,0.35060540004633367,True,28,1
AC-K-24K24S2,1091,experiment,62,→,right,→,0.3759351000189781,True,28,0
AC-K-24K24S2,1092,experiment,94,←,left,←,1.2103065000846982,True,28,0
AC-K-24K24S2,1093,experiment,85,←,left,←,0.3509561999235302,True,28,1
AC-K-24K24S2,1094,experiment,76,→,right,→,0.6615450999233872,True,28,0
AC-K-24K24S2,1095,experiment,60,↓,right,→,0.5507595001254231,False,28,1
AC-K-24K24S2,1096,experiment,102,→,right,→,0.38417720003053546,True,28,1
AC-K-24K24S2,1097,experiment,99,↓,down,↓,0.5255327001214027,True,28,0
AC-K-24K24S2,1098,experiment,84,↓,down,↓,0.4127580998465419,True,28,1
AC-K-24K24S2,1099,experiment,64,→,right,→,0.5020725999493152,True,28,1
AC-K-24K24S2,1100,experiment,88,↑,up,↑,0.5720512000843883,True,28,1
AC-K-24K24S2,1101,experiment,81,↓,down,↓,0.5940187999513,True,28,1
AC-K-24K24S2,1102,experiment,79,↑,up,↑,1.3115376001223922,True,28,1
AC-K-24K24S2,1103,experiment,70,↓,down,↓,0.32595390011556447,True,28,1
AC-K-24K24S2,1104,experiment,53,↓,up,↑,0.5962014999240637,False,28,0
AC-K-24K24S2,1105,experiment,77,↑,up,↑,1.722097200108692,True,28,1
AC-K-24K24S2,1106,experiment,107,↑,down,↓,0.29278350016102195,False,28,1
AC-K-24K24S2,1107,experiment,87,↑,up,↑,0.34252889989875257,True,28,0
AC-K-24K24S2,1108,experiment,108,←,left,←,0.35858960007317364,True,28,0
AC-K-24K24S2,1109,experiment,83,←,left,←,0.5548014000523835,True,28,0
AC-K-24K24S2,1110,experiment,51,←,left,←,0.3592483999673277,True,28,1
AC-K-24K24S2,1111,experiment,48,→,right,→,1.260455199982971,True,28,0
AC-K-24K24S2,1112,training,82,→,right,→,0.3340594000183046,True,28,0
AC-K-24K24S2,1113,training,81,↓,down,↓,0.5789012000896037,True,28,0
AC-K-24K24S2,1114,experiment,49,→,right,→,0.5152688000816852,True,28,1
AC-K-24K24S2,1115,experiment,104,↓,down,↓,0.45152650005184114,True,28,1
AC-K-24K24S2,1116,experiment,57,↓,down,↓,1.1663399999961257,True,28,1
AC-K-24K24S2,1117,experiment,84,↓,down,↓,0.48333510011434555,True,28,1
AC-K-24K24S2,1118,experiment,99,↓,down,↓,0.4947218999732286,True,28,1
AC-K-24K24S2,1119,experiment,101,→,right,→,0.3504772998858243,True,28,1
AC-K-24K24S2,1120,experiment,70,→,right,→,0.3671137001365423,True,28,0
AC-K-24K24S2,1121,experiment,69,↑,up,↑,0.33408390008844435,True,28,0
AC-K-24K24S2,1122,experiment,56,→,right,→,0.6204917000140995,True,28,0
AC-K-24K24S2,1123,experiment,52,→,right,→,0.5141756001394242,True,28,1
AC-K-24K24S2,1124,experiment,63,↓,down,↓,0.40818769996985793,True,28,1
AC-K-24K24S2,1125,experiment,51,→,right,→,0.35157909989356995,True,28,0
AC-K-24K24S2,1126,experiment,86,→,right,→,0.45944759994745255,True,28,0
AC-K-24K24S2,1127,experiment,98,←,left,←,0.5839062000159174,True,28,1
AC-K-24K24S2,1128,experiment,48,→,right,→,1.3203720999881625,True,28,1
AC-K-24K24S2,1129,experiment,72,←,left,←,1.5308144001755863,True,28,1
AC-K-24K24S2,1130,experiment,79,→,right,→,0.3755258999299258,True,28,1
AC-K-24K24S2,1131,experiment,100,↑,up,↑,0.38375909999012947,True,28,0
AC-K-24K24S2,1132,experiment,83,↑,up,↑,0.47031619981862605,True,28,0
AC-K-24K24S2,1133,experiment,65,↑,up,↑,0.3512299000285566,True,28,1
AC-K-24K24S2,1134,experiment,67,↑,up,↑,0.4169491999782622,True,28,0
AC-K-24K24S2,1135,experiment,62,↓,down,↓,0.6505032000131905,True,28,1
AC-K-24K24S2,1136,experiment,55,↑,up,↑,0.4141037000808865,True,28,1
AC-K-24K24S2,1137,experiment,82,↓,down,↓,0.44181669992394745,True,28,1
AC-K-24K24S2,1138,experiment,80,↓,down,↓,0.5891872998327017,True,28,1
AC-K-24K24S2,1139,experiment,73,↓,down,↓,0.5010192000772804,True,28,1
AC-K-24K24S2,1140,experiment,93,↓,down,↓,0.4974291000980884,True,28,1
AC-K-24K24S2,1141,experiment,103,→,right,→,0.5070733998436481,True,28,1
AC-K-24K24S2,1142,experiment,87,←,left,←,0.5295049999840558,True,28,1
AC-K-24K24S2,1143,experiment,81,→,left,←,0.46479450003243983,False,28,1
AC-K-24K24S2,1144,experiment,59,←,left,←,0.5062780999578536,True,28,1
AC-K-24K24S2,1145,experiment,53,←,left,←,0.6519319000653923,True,28,1
AC-K-24K24S2,1146,experiment,68,↓,down,↓,0.41906629991717637,True,28,1
AC-K-24K24S2,1147,experiment,102,↓,down,↓,0.6079991001170129,True,28,1
AC-K-24K24S2,1148,experiment,61,↑,down,↓,0.7472335998900235,False,28,1
AC-K-24K24S2,1149,experiment,88,↓,down,↓,0.455619600135833,True,28,1
AC-K-24K24S2,1150,experiment,58,↓,down,↓,0.5379238000605255,True,28,1
AC-K-24K24S2,1151,experiment,74,↑,up,↑,0.6350241000764072,True,28,1
AC-K-24K24S2,1152,experiment,106,↓,down,↓,0.4543383000418544,True,28,1
AC-K-24K24S2,1153,experiment,95,↓,down,↓,0.3178950999863446,True,28,1
AC-K-24K24S2,1154,experiment,105,←,left,←,0.7000653001014143,True,28,1
AC-K-24K24S2,1155,experiment,64,↓,down,↓,1.2103621999267489,True,28,1
AC-K-24K24S2,1156,experiment,66,↓,down,↓,0.5077587000560015,True,28,1
AC-K-24K24S2,1157,experiment,78,↓,down,↓,0.5090775999706239,True,28,1
AC-K-24K24S2,1158,experiment,90,→,right,→,0.46640620008111,True,28,1
AC-K-24K24S2,1159,experiment,89,→,right,→,0.5538659999147058,True,28,1
AC-K-24K24S2,1160,experiment,108,→,right,→,0.591202000156045,True,28,1
AC-K-24K24S2,1161,experiment,76,→,right,→,0.45390400011092424,True,28,1
AC-K-24K24S2,1162,experiment,71,↑,up,↑,0.3838563999161124,True,28,1
AC-K-24K24S2,1163,experiment,75,↓,down,↓,0.6028371998108923,True,28,0
AC-K-24K24S2,1164,experiment,94,↓,down,↓,0.4511046998668462,True,28,1
AC-K-24K24S2,1165,experiment,77,←,left,←,0.527138999896124,True,28,1
AC-K-24K24S2,1166,experiment,107,→,right,→,0.42983150016516447,True,28,1
AC-K-24K24S2,1167,experiment,54,↓,down,↓,0.4983091000467539,True,28,1
AC-K-24K24S2,1168,experiment,50,←,left,←,0.44538050005212426,True,28,1
AC-K-24K24S2,1169,experiment,96,↓,down,↓,0.5478792001958936,True,28,1
AC-K-24K24S2,1170,experiment,97,→,right,→,1.1167494000401348,True,28,1
AC-K-24K24S2,1171,experiment,85,↑,up,↑,0.5794900998007506,True,28,1
AC-K-24K24S2,1172,experiment,92,↑,up,↑,0.45320659992285073,True,28,1
AC-K-24K24S2,1173,experiment,60,←,left,←,0.4950480000115931,True,28,1
AC-K-24K24S2,1174,experiment,91,↑,up,↑,0.460769800003618,True,28,1
AC-K-24K24S2,1175,training,101,↑,up,↑,0.5030034000519663,True,28,0
AC-K-24K24S2,1176,training,59,←,left,←,0.3363310999702662,True,28,1
AC-K-24K24S2,1177,experiment,51,←,left,←,0.4962166000623256,True,28,0
AC-K-24K24S2,1178,experiment,86,↑,up,↑,0.3502391998190433,True,28,1
AC-K-24K24S2,1179,experiment,84,←,left,←,0.2921273000538349,True,28,0
AC-K-24K24S2,1180,experiment,62,↓,down,↓,1.107582800090313,True,28,0
AC-K-24K24S2,1181,experiment,68,↓,down,↓,0.3775236001238227,True,28,1
AC-K-24K24S2,1182,experiment,100,↓,down,↓,0.37624989985488355,True,28,0
AC-K-24K24S2,1183,experiment,82,↑,up,↑,0.5163042000494897,True,28,0
AC-K-24K24S2,1184,experiment,53,↓,down,↓,0.5897190000396222,True,28,1
AC-K-24K24S2,1185,experiment,103,→,right,→,0.41955189988948405,True,28,1
AC-K-24K24S2,1186,experiment,49,↑,up,↑,0.37619150010868907,True,28,1
AC-K-24K24S2,1187,experiment,94,←,left,←,1.723293999908492,True,28,0
AC-K-24K24S2,1188,experiment,105,↑,up,↑,0.45046969992108643,True,28,1
AC-K-24K24S2,1189,experiment,59,↑,up,↑,0.4445693001616746,True,28,1
AC-K-24K24S2,1190,experiment,77,→,right,→,0.5046597002074122,True,28,1
AC-K-24K24S2,1191,experiment,93,↓,down,↓,0.3756439001299441,True,28,1
AC-K-24K24S2,1192,experiment,67,↑,up,↑,0.36080170003697276,True,28,0
AC-K-24K24S2,1193,experiment,71,←,left,←,0.3505116000305861,True,28,0
AC-K-24K24S2,1194,experiment,54,↓,down,↓,0.5596811999566853,True,28,0
AC-K-24K24S2,1195,experiment,72,→,right,→,1.160625500138849,True,28,1
AC-K-24K24S2,1196,experiment,79,↓,down,↓,0.4476188998669386,True,28,1
AC-K-24K24S2,1197,experiment,87,↑,up,↑,0.5124011000152677,True,28,1
AC-K-24K24S2,1198,experiment,108,→,right,→,0.376151799922809,True,28,1
AC-K-24K24S2,1199,experiment,107,↑,up,↑,0.50821050000377,True,28,1
AC-K-24K24S2,1200,experiment,97,↓,down,↓,0.4473558999598026,True,28,1
AC-K-24K24S2,1201,experiment,63,↓,down,↓,0.6000230999197811,True,28,1
AC-K-24K24S2,1202,experiment,75,↓,down,↓,0.4547605998814106,True,28,1
AC-K-24K24S2,1203,experiment,88,↑,up,↑,0.6228066999465227,True,28,1
AC-K-24K24S2,1204,experiment,58,→,right,→,0.5861370000056922,True,28,1
AC-K-24K24S2,1205,experiment,61,←,left,←,0.5819975999183953,True,28,1
AC-K-24K24S2,1206,experiment,102,↑,up,↑,0.6126533001661301,True,28,1
AC-K-24K24S2,1207,experiment,92,↑,up,↑,0.508996999822557,True,28,1
AC-K-24K24S2,1208,experiment,95,↓,down,↓,0.5449264000635594,True,28,1
AC-K-24K24S2,1209,experiment,60,←,left,←,0.4387162998318672,True,28,1
AC-K-24K24S2,1210,experiment,52,←,left,←,0.8916621000971645,True,28,1
AC-K-24K24S2,1211,experiment,66,↓,down,↓,0.5936213000677526,True,28,1
AC-K-24K24S2,1212,experiment,70,↑,up,↑,0.4663885999470949,True,28,1
AC-K-24K24S2,1213,experiment,65,→,right,→,0.5138890999369323,True,28,1
AC-K-24K24S2,1214,experiment,101,→,right,→,0.5312612999696285,True,28,1
AC-K-24K24S2,1215,experiment,50,↓,down,↓,0.4931481000967324,True,28,1
AC-K-24K24S2,1216,experiment,48,→,right,→,0.6090578997973353,True,28,1
AC-K-24K24S2,1217,experiment,99,←,left,←,1.7673552001360804,True,28,1
AC-K-24K24S2,1218,experiment,83,→,right,→,0.6447213001083583,True,28,1
AC-K-24K24S2,1219,experiment,90,→,right,→,0.9006225999910384,True,28,1
AC-K-24K24S2,1220,experiment,80,←,left,←,0.7898206000681967,True,28,1
AC-K-24K24S2,1221,experiment,98,↓,right,→,0.8209756000433117,False,28,1
AC-K-24K24S2,1222,experiment,104,↑,up,↑,0.5451623999979347,True,28,1
AC-K-24K24S2,1223,experiment,64,→,right,→,0.6133630000986159,True,28,1
AC-K-24K24S2,1224,experiment,91,←,left,←,0.49419640004634857,True,28,1
AC-K-24K24S2,1225,experiment,78,↓,down,↓,0.6406421998981386,True,28,1
AC-K-24K24S2,1226,experiment,57,←,left,←,0.5077398000285029,True,28,1
AC-K-24K24S2,1227,experiment,56,←,left,←,0.7560149000491947,True,28,1
AC-K-24K24S2,1228,experiment,76,↓,down,↓,0.5481508998200297,True,28,1
AC-K-24K24S2,1229,experiment,81,→,right,→,0.5307525999378413,True,28,1
AC-K-24K24S2,1230,experiment,69,↓,down,↓,0.5581119998823851,True,28,1
AC-K-24K24S2,1231,experiment,106,↓,down,↓,0.5161369000561535,True,28,1
AC-K-24K24S2,1232,experiment,73,↓,down,↓,0.4869504999369383,True,28,1
AC-K-24K24S2,1233,experiment,74,↓,down,↓,0.4588476999197155,True,28,1
AC-K-24K24S2,1234,experiment,55,↓,down,↓,0.5738341000396758,True,28,1
AC-K-24K24S2,1235,experiment,96,→,right,→,0.4946613998617977,True,28,1
AC-K-24K24S2,1236,experiment,89,→,right,→,0.5327774002216756,True,28,1
AC-K-24K24S2,1237,experiment,85,↑,up,↑,0.4190376999322325,True,28,1
AC-K-24K24S2,1238,training,77,↓,up,↑,0.4609197999816388,False,28,0
AC-K-24K24S2,1239,training,102,←,left,←,0.41608920018188655,True,28,1
AC-K-24K24S2,1240,experiment,61,←,left,←,0.33404250000603497,True,28,1
AC-K-24K24S2,1241,experiment,79,←,left,←,0.28435390000231564,True,28,0
AC-K-24K24S2,1242,experiment,81,↑,up,↑,0.5397818998899311,True,28,0
AC-K-24K24S2,1243,experiment,64,←,left,←,0.3174337998498231,True,28,1
AC-K-24K24S2,1244,experiment,69,←,left,←,0.46834749984554946,True,28,0
AC-K-24K24S2,1245,experiment,54,→,right,→,0.5038219999987632,True,28,1
AC-K-24K24S2,1246,experiment,106,↓,down,↓,0.5357636001426727,True,28,1
AC-K-24K24S2,1247,experiment,78,←,left,←,0.32539420016109943,True,28,1
AC-K-24K24S2,1248,experiment,71,↑,up,↑,0.35052919993177056,True,28,0
AC-K-24K24S2,1249,experiment,56,↓,down,↓,0.52160710003227,True,28,0
AC-K-24K24S2,1250,experiment,50,→,right,→,0.5474510001949966,True,28,1
AC-K-24K24S2,1251,experiment,100,→,right,→,0.4360351001378149,True,28,1
AC-K-24K24S2,1252,experiment,98,→,right,→,1.1935195999685675,True,28,1
AC-K-24K24S2,1253,experiment,94,↑,up,↑,0.3344461000524461,True,28,1
AC-K-24K24S2,1254,experiment,82,←,left,←,0.3584712001029402,True,28,0
AC-K-24K24S2,1255,experiment,86,←,left,←,0.5250932001508772,True,28,0
AC-K-24K24S2,1256,experiment,77,↓,down,↓,0.5903334999457002,True,28,1
AC-K-24K24S2,1257,experiment,101,←,left,←,0.32558030006475747,True,28,1
AC-K-24K24S2,1258,experiment,67,←,left,←,0.2838783001061529,True,28,0
AC-K-24K24S2,1259,experiment,52,←,left,←,0.30111379991285503,True,28,0
AC-K-24K24S2,1260,experiment,66,←,left,←,0.2755907999817282,True,28,0
AC-K-24K24S2,1261,experiment,91,→,right,→,0.4791010001208633,True,28,0
AC-K-24K24S2,1262,experiment,51,←,left,←,0.283580900169909,True,28,1
AC-K-24K24S2,1263,experiment,68,→,left,←,0.34227730007842183,False,28,0
AC-K-24K24S2,1264,experiment,96,↑,up,↑,0.36784760002046824,True,28,0
AC-K-24K24S2,1265,experiment,87,←,left,←,0.5653782999143004,True,28,1
AC-K-24K24S2,1266,experiment,99,←,left,←,0.46944470005109906,True,28,1
AC-K-24K24S2,1267,experiment,59,←,left,←,0.41498560016043484,True,28,1
AC-K-24K24S2,1268,experiment,60,←,left,←,0.41001230012625456,True,28,1
AC-K-24K24S2,1269,experiment,105,←,left,←,0.4543767001014203,True,28,1
AC-K-24K24S2,1270,experiment,48,→,right,→,0.5162337999790907,True,28,1
AC-K-24K24S2,1271,experiment,55,↓,down,↓,0.45279949996620417,True,28,1
AC-K-24K24S2,1272,experiment,85,→,right,→,0.4459300001617521,True,28,1
AC-K-24K24S2,1273,experiment,84,↑,up,↑,0.3693721001036465,True,28,1
AC-K-24K24S2,1274,experiment,88,↑,up,↑,0.4272424001246691,True,28,0
AC-K-24K24S2,1275,experiment,90,←,right,→,0.5794891999103129,False,28,1
AC-K-24K24S2,1276,experiment,73,↑,left,←,0.7475515000987798,False,28,1
AC-K-24K24S2,1277,experiment,83,↓,down,↓,0.6176640999037772,True,28,1
AC-K-24K24S2,1278,experiment,93,→,right,→,0.5220588999800384,True,28,1
AC-K-24K24S2,1279,experiment,76,←,left,←,0.5230551999993622,True,28,1
AC-K-24K24S2,1280,experiment,49,←,left,←,1.477393199922517,True,28,1
AC-K-24K24S2,1281,experiment,102,↑,up,↑,0.5761935000773519,True,28,1
AC-K-24K24S2,1282,experiment,74,↑,up,↑,0.46401660004630685,True,28,1
AC-K-24K24S2,1283,experiment,80,→,right,→,0.4904279999900609,True,28,1
AC-K-24K24S2,1284,experiment,57,↓,down,↓,0.6035933999810368,True,28,1
AC-K-24K24S2,1285,experiment,103,↓,down,↓,0.44889090000651777,True,28,1
AC-K-24K24S2,1286,experiment,65,←,left,←,0.44093429995700717,True,28,1
AC-K-24K24S2,1287,experiment,92,↓,down,↓,0.44842360005714,True,28,1
AC-K-24K24S2,1288,experiment,107,←,left,←,0.46638279990293086,True,28,1
AC-K-24K24S2,1289,experiment,108,←,left,←,0.45152109977789223,True,28,1
AC-K-24K24S2,1290,experiment,75,↓,down,↓,0.504422599915415,True,28,1
AC-K-24K24S2,1291,experiment,62,←,left,←,0.4790847999975085,True,28,1
AC-K-24K24S2,1292,experiment,70,→,right,→,0.5800886999350041,True,28,1
AC-K-24K24S2,1293,experiment,63,→,right,→,0.45553710008971393,True,28,1
AC-K-24K24S2,1294,experiment,72,→,right,→,0.4690225999802351,True,28,1
AC-K-24K24S2,1295,experiment,53,↑,up,↑,1.1121154001448303,True,28,1
AC-K-24K24S2,1296,experiment,95,←,left,←,0.4594237001147121,True,28,1
AC-K-24K24S2,1297,experiment,58,↓,down,↓,0.5814932999201119,True,28,1
AC-K-24K24S2,1298,experiment,89,←,left,←,0.3339323000982404,True,28,1
AC-K-24K24S2,1299,experiment,97,↓,down,↓,0.5621390999294817,True,28,0
AC-K-24K24S2,1300,experiment,104,→,right,→,0.3511665998958051,True,28,1
AC-K-24K24S2,1301,training,57,↓,down,↓,0.5246215001679957,True,28,0
AC-K-24K24S2,1302,training,54,↓,up,↑,0.7093183000106364,False,28,1
AC-K-24K24S2,1303,experiment,99,↓,no_key,no_letter,-1.0,False,28,1
AC-K-24K24S2,1304,experiment,76,→,right,→,0.5374851999804378,True,28,1
AC-K-24K24S2,1305,experiment,78,→,right,→,0.3758263001218438,True,28,1
AC-K-24K24S2,1306,experiment,108,←,left,←,0.3109423997811973,True,28,0
AC-K-24K24S2,1307,experiment,50,←,left,←,0.5045693998690695,True,28,0
AC-K-24K24S2,1308,experiment,73,↓,down,↓,0.40457690018229187,True,28,1
AC-K-24K24S2,1309,experiment,57,→,right,→,0.575730400159955,True,28,1
AC-K-24K24S2,1310,experiment,62,←,right,→,1.243732800008729,False,28,1
AC-K-24K24S2,1311,experiment,103,←,left,←,0.31700349994935095,True,28,1
AC-K-24K24S2,1312,experiment,65,↑,up,↑,0.48440470010973513,True,28,0
AC-K-24K24S2,1313,experiment,79,↓,down,↓,0.5902211000211537,True,28,1
AC-K-24K24S2,1314,experiment,106,→,right,→,0.611455500125885,True,28,1
AC-K-24K24S2,1315,experiment,60,↑,up,↑,0.3254706000443548,True,28,1
AC-K-24K24S2,1316,experiment,51,↓,down,↓,0.6080169000197202,True,28,0
AC-K-24K24S2,1317,experiment,59,↓,down,↓,0.4599570999853313,True,28,1
AC-K-24K24S2,1318,experiment,82,↓,down,↓,0.7819435999263078,True,28,1
AC-K-24K24S2,1319,experiment,89,↑,up,↑,0.5286731000524014,True,28,1
AC-K-24K24S2,1320,experiment,87,→,right,→,0.43001209991052747,True,28,1
AC-K-24K24S2,1321,experiment,83,←,left,←,0.3675804000813514,True,28,1
AC-K-24K24S2,1322,experiment,49,↑,up,↑,0.40139380004256964,True,28,0
AC-K-24K24S2,1323,experiment,88,↓,down,↓,0.467636400135234,True,28,0
AC-K-24K24S2,1324,experiment,86,→,right,→,0.3752911000046879,True,28,1
AC-K-24K24S2,1325,experiment,67,↓,down,↓,0.4857198998797685,True,28,0
AC-K-24K24S2,1326,experiment,54,↓,down,↓,0.7523624000605196,True,28,1
AC-K-24K24S2,1327,experiment,56,↑,up,↑,0.423303899820894,True,28,1
AC-K-24K24S2,1328,experiment,92,→,no_key,no_letter,-1.0,False,28,1
AC-K-24K24S2,1329,experiment,96,→,right,→,0.3511561001650989,True,28,1
AC-K-24K24S2,1330,experiment,74,←,left,←,0.4355969000607729,True,28,0
AC-K-24K24S2,1331,experiment,91,↓,down,↓,0.43534129997715354,True,28,1
AC-K-24K24S2,1332,experiment,70,→,right,→,0.4029246000573039,True,28,1
AC-K-24K24S2,1333,experiment,52,↓,down,↓,0.6164905000478029,True,28,0
AC-K-24K24S2,1334,experiment,55,→,right,→,0.38360639987513423,True,28,1
AC-K-24K24S2,1335,experiment,93,→,right,→,0.4785058998968452,True,28,0
AC-K-24K24S2,1336,experiment,94,↑,up,↑,0.35948750004172325,True,28,1
AC-K-24K24S2,1337,experiment,98,→,right,→,1.6521060999948531,True,28,1
AC-K-24K24S2,1338,experiment,66,↑,up,↑,0.5237812001723796,True,28,1
AC-K-24K24S2,1339,experiment,102,←,left,←,0.36724249995313585,True,28,1
AC-K-24K24S2,1340,experiment,61,↑,right,→,0.6489432000089437,False,28,0
AC-K-24K24S2,1341,experiment,107,←,left,←,0.3586296997964382,True,28,1
AC-K-24K24S2,1342,experiment,71,→,right,→,1.3240311001427472,True,28,0
AC-K-24K24S2,1343,experiment,101,→,right,→,0.35040339990518987,True,28,1
AC-K-24K24S2,1344,experiment,53,→,right,→,0.47712930012494326,True,28,0
AC-K-24K24S2,1345,experiment,75,←,left,←,0.44876340008340776,True,28,1
AC-K-24K24S2,1346,experiment,69,→,right,→,0.6075468000490218,True,28,1
AC-K-24K24S2,1347,experiment,97,←,left,←,0.3679351999890059,True,28,1
AC-K-24K24S2,1348,experiment,105,←,left,←,0.6685975999571383,True,28,0
AC-K-24K24S2,1349,experiment,72,←,left,←,0.37632280006073415,True,28,1
AC-K-24K24S2,1350,experiment,85,↓,up,↑,0.6457735002040863,False,28,1
AC-K-24K24S2,1351,experiment,80,→,right,→,0.5205842000432312,True,28,1
AC-K-24K24S2,1352,experiment,95,↓,down,↓,0.6275647999718785,True,28,1
AC-K-24K24S2,1353,experiment,104,↑,up,↑,0.37653620005585253,True,28,1
AC-K-24K24S2,1354,experiment,81,→,right,→,0.518027100013569,True,28,1
AC-K-24K24S2,1355,experiment,63,←,left,←,0.49922039988450706,True,28,1
AC-K-24K24S2,1356,experiment,100,←,left,←,0.5015659001655877,True,28,1
AC-K-24K24S2,1357,experiment,64,←,right,→,0.6119101999793202,False,28,1
AC-K-24K24S2,1358,experiment,77,←,left,←,0.5053673000074923,True,28,1
AC-K-24K24S2,1359,experiment,68,↓,down,↓,0.598227399867028,True,28,1
AC-K-24K24S2,1360,experiment,84,↓,down,↓,0.546071199933067,True,28,1
AC-K-24K24S2,1361,experiment,48,↓,down,↓,0.48338739993050694,True,28,1
AC-K-24K24S2,1362,experiment,58,→,right,→,0.5965853000525385,True,28,1
AC-K-24K24S2,1363,experiment,90,↓,down,↓,0.4144233998376876,True,28,1
AC-K-24K24S2,1364,training,101,↑,up,↑,0.5101258000358939,True,28,0
AC-K-24K24S2,1365,training,99,↓,down,↓,0.5685724001377821,True,28,1
AC-K-24K24S2,1366,experiment,82,→,right,→,0.47810600022785366,True,28,1
AC-K-24K24S2,1367,experiment,91,←,left,←,0.572668899782002,True,28,1
AC-K-24K24S2,1368,experiment,79,↓,down,↓,0.6350062999408692,True,28,1
AC-K-24K24S2,1369,experiment,67,→,right,→,0.5391667000949383,True,28,1
AC-K-24K24S2,1370,experiment,49,↓,down,↓,0.41267540003173053,True,28,1
AC-K-24K24S2,1371,experiment,96,↓,down,↓,0.40504140011034906,True,28,1
AC-K-24K24S2,1372,experiment,80,↑,up,↑,0.5449628999922425,True,28,0
AC-K-24K24S2,1373,experiment,55,←,left,←,0.4089115997776389,True,28,1
AC-K-24K24S2,1374,experiment,68,↓,down,↓,0.5850076999049634,True,28,1
AC-K-24K24S2,1375,experiment,62,→,right,→,0.42051760014146566,True,28,1
AC-K-24K24S2,1376,experiment,56,→,right,→,1.4086230001412332,True,28,1
AC-K-24K24S2,1377,experiment,86,→,right,→,0.5231399999465793,True,28,1
AC-K-24K24S2,1378,experiment,57,→,right,→,0.45917119993828237,True,28,1
AC-K-24K24S2,1379,experiment,103,←,left,←,0.3172379999887198,True,28,1
AC-K-24K24S2,1380,experiment,65,→,right,→,0.4193955999799073,True,28,0
AC-K-24K24S2,1381,experiment,76,↑,up,↑,0.35945999994874,True,28,1
AC-K-24K24S2,1382,experiment,50,↓,down,↓,0.41741480003111064,True,28,1
AC-K-24K24S2,1383,experiment,53,↑,down,↓,1.8463902999646962,False,28,1
AC-K-24K24S2,1384,experiment,69,↑,up,↑,0.37556540011428297,True,28,1
AC-K-24K24S2,1385,experiment,48,↑,up,↑,0.5179508000146598,True,28,0
AC-K-24K24S2,1386,experiment,73,→,right,→,0.5604726001620293,True,28,1
AC-K-24K24S2,1387,experiment,93,←,left,←,0.555027199909091,True,28,1
AC-K-24K24S2,1388,experiment,78,↓,down,↓,0.6583260998595506,True,28,1
AC-K-24K24S2,1389,experiment,83,↓,down,↓,0.47609489993192255,True,28,1
AC-K-24K24S2,1390,experiment,106,→,no_key,no_letter,-1.0,False,28,1
AC-K-24K24S2,1391,experiment,64,→,right,→,0.3762672001030296,True,28,1
AC-K-24K24S2,1392,experiment,87,←,left,←,0.33416850003413856,True,28,1
AC-K-24K24S2,1393,experiment,102,→,right,→,0.32788969995453954,True,28,0
AC-K-24K24S2,1394,experiment,63,←,left,←,0.3421769000124186,True,28,0
AC-K-24K24S2,1395,experiment,98,→,right,→,0.4773506000638008,True,28,0
AC-K-24K24S2,1396,experiment,66,↓,up,↑,0.9722380999010056,False,28,1
AC-K-24K24S2,1397,experiment,97,↓,down,↓,0.4443739999551326,True,28,1
AC-K-24K24S2,1398,experiment,104,↑,up,↑,0.6558070001192391,True,28,1
AC-K-24K24S2,1399,experiment,89,↑,up,↑,0.7035326000768691,True,28,1
AC-K-24K24S2,1400,experiment,100,↑,up,↑,0.8015062001068145,True,28,1
AC-K-24K24S2,1401,experiment,108,↓,up,↑,0.8854110999964178,False,28,1
AC-K-24K24S2,1402,experiment,75,↓,down,↓,1.872703299857676,True,28,1
AC-K-24K24S2,1403,experiment,94,↓,down,↓,0.4298590999096632,True,28,1
AC-K-24K24S2,1404,experiment,60,←,left,←,0.6324970000423491,True,28,1
AC-K-24K24S2,1405,experiment,77,←,left,←,1.8049191001337022,True,28,1
AC-K-24K24S2,1406,experiment,58,↑,up,↑,0.4969880001153797,True,28,1
AC-K-24K24S2,1407,experiment,54,←,right,→,0.7226843999233097,False,28,1
AC-K-24K24S2,1408,experiment,92,↑,up,↑,0.5025319000706077,True,28,1
AC-K-24K24S2,1409,experiment,74,↓,down,↓,0.44944749982096255,True,28,1
AC-K-24K24S2,1410,experiment,51,↓,down,↓,0.9661270000506192,True,28,1
AC-K-24K24S2,1411,experiment,95,→,right,→,0.4235702999867499,True,28,1
AC-K-24K24S2,1412,experiment,61,↑,up,↑,0.5058530000969768,True,28,1
AC-K-24K24S2,1413,experiment,85,↓,down,↓,0.3673781999386847,True,28,1
AC-K-24K24S2,1414,experiment,99,←,left,←,0.3776287999935448,True,28,0
AC-K-24K24S2,1415,experiment,90,→,right,→,0.49874280020594597,True,28,0
AC-K-24K24S2,1416,experiment,72,↑,up,↑,0.4944827000144869,True,28,1
AC-K-24K24S2,1417,experiment,88,↑,up,↑,0.4371710999403149,True,28,1
AC-K-24K24S2,1418,experiment,105,↑,up,↑,0.552250900072977,True,28,1
AC-K-24K24S2,1419,experiment,84,→,right,→,0.37591669987887144,True,28,1
AC-K-24K24S2,1420,experiment,81,←,left,←,0.43547850009053946,True,28,1
AC-K-24K24S2,1421,experiment,101,→,right,→,0.6479476999957114,True,28,1
AC-K-24K24S2,1422,experiment,71,→,up,↑,1.3418574000243098,False,28,1
