PART_ID,Trial_no,Trial_type,CSI,Stim_letter,Key_pressed,letter_choose,Rt,Corr,Stimulus Time,nDropped
AC-K-26K26S1,1,training,120,←,no_key,no_letter,-1.0,False,60,1
AC-K-26K26S1,2,training,120,↓,down,↓,0.9668727000243962,True,60,0
AC-K-26K26S1,3,training,120,↓,no_key,no_letter,-1.0,False,60,0
AC-K-26K26S1,4,training,120,←,left,←,1.2790646000066772,True,60,0
AC-K-26K26S1,5,training,120,←,right,→,1.0667219999013469,False,60,0
AC-K-26K26S1,6,training,120,↑,up,↑,1.0948689000215381,True,60,0
AC-K-26K26S1,7,training,120,↓,down,↓,0.841895200079307,True,60,0
AC-K-26K26S1,8,training,120,↑,up,↑,0.8871214999817312,True,60,0
AC-K-26K26S1,9,training,120,→,left,←,1.0186490999767557,False,60,0
AC-K-26K26S1,10,training,120,↑,up,↑,0.8327600999036804,True,60,0
AC-K-26K26S1,11,training,120,↑,up,↑,0.9744886999251321,True,60,0
AC-K-26K26S1,12,training,120,↓,down,↓,0.8387289999518543,True,60,0
AC-K-26K26S1,13,training,120,↑,up,↑,0.692161799990572,True,60,0
AC-K-26K26S1,14,training,120,→,right,→,1.0633444000268355,True,60,0
AC-K-26K26S1,15,training,120,→,right,→,0.8996793999103829,True,60,0
AC-K-26K26S1,16,training,120,→,left,←,0.7030417999485508,False,60,0
AC-K-26K26S1,17,training,120,←,left,←,0.8177072000689805,True,60,0
AC-K-26K26S1,18,training,120,↓,down,↓,0.8398404000326991,True,60,0
AC-K-26K26S1,19,training,120,←,left,←,0.717209400027059,True,60,0
AC-K-26K26S1,20,training,120,←,left,←,0.9194761000107974,True,60,0
AC-K-26K26S1,21,no_adaptation,120,←,left,←,0.8308479000115767,True,36,0
AC-K-26K26S1,22,no_adaptation,120,→,right,→,0.95664620003663,True,36,0
AC-K-26K26S1,23,no_adaptation,120,↓,left,←,1.133402300067246,False,36,0
AC-K-26K26S1,24,no_adaptation,120,→,left,←,1.1671274000545964,False,36,0
AC-K-26K26S1,25,no_adaptation,120,↑,up,↑,0.8794525000266731,True,36,0
AC-K-26K26S1,26,no_adaptation,120,↓,up,↑,1.4594216999830678,False,36,0
AC-K-26K26S1,27,no_adaptation,120,↓,up,↑,0.8158720000647008,False,36,0
AC-K-26K26S1,28,no_adaptation,120,→,right,→,1.1824487999547273,True,36,0
AC-K-26K26S1,29,no_adaptation,120,→,right,→,1.1419686999870464,True,36,0
AC-K-26K26S1,30,no_adaptation,120,←,left,←,0.9593186000129208,True,36,0
AC-K-26K26S1,31,no_adaptation,120,↓,down,↓,0.9919796000467613,True,36,0
AC-K-26K26S1,32,no_adaptation,120,→,right,→,0.9510375000536442,True,36,0
AC-K-26K26S1,33,no_adaptation,120,→,left,←,0.7837634000461549,False,36,0
AC-K-26K26S1,34,no_adaptation,120,↓,down,↓,0.9354768999619409,True,36,0
AC-K-26K26S1,35,no_adaptation,120,↓,down,↓,0.8409332999726757,True,36,0
AC-K-26K26S1,36,no_adaptation,120,←,left,←,0.9023874000413343,True,36,0
AC-K-26K26S1,37,no_adaptation,120,←,left,←,0.8091363999992609,True,36,0
AC-K-26K26S1,38,no_adaptation,120,↓,down,↓,0.8957166000036523,True,36,0
AC-K-26K26S1,39,no_adaptation,120,↓,up,↑,1.5546497000614181,False,36,0
AC-K-26K26S1,40,no_adaptation,120,↓,down,↓,0.8754976999480277,True,36,0
AC-K-26K26S1,41,training,50,←,left,←,1.189716099994257,True,36,0
AC-K-26K26S1,42,training,53,↑,up,↑,0.9722100999206305,True,36,1
AC-K-26K26S1,43,experiment,66,↓,down,↓,1.334736100048758,True,36,1
AC-K-26K26S1,44,experiment,76,↑,up,↑,0.7838750999653712,True,36,1
AC-K-26K26S1,45,experiment,91,←,left,←,1.0736028999090195,True,36,1
AC-K-26K26S1,46,experiment,98,←,left,←,1.389695700025186,True,36,1
AC-K-26K26S1,47,experiment,106,←,left,←,0.8262534000677988,True,36,1
AC-K-26K26S1,48,experiment,70,↓,down,↓,1.1295912000350654,True,36,1
AC-K-26K26S1,49,experiment,65,↓,down,↓,1.1669185000937432,True,36,1
AC-K-26K26S1,50,experiment,85,↑,up,↑,0.8433621000731364,True,36,1
AC-K-26K26S1,51,experiment,73,↓,up,↑,0.9049476999789476,False,36,1
AC-K-26K26S1,52,experiment,60,↑,up,↑,0.8323400999652222,True,36,1
AC-K-26K26S1,53,experiment,108,↓,down,↓,0.9146320999134332,True,36,1
AC-K-26K26S1,54,experiment,94,→,down,↓,1.7505313999718055,False,36,1
AC-K-26K26S1,55,experiment,95,↑,up,↑,1.1921762999845669,True,36,1
AC-K-26K26S1,56,experiment,105,↓,down,↓,1.0052680999506265,True,36,1
AC-K-26K26S1,57,experiment,88,←,left,←,1.1430748000275344,True,36,1
AC-K-26K26S1,58,experiment,67,←,left,←,1.0425924999872223,True,36,1
AC-K-26K26S1,59,experiment,57,↓,down,↓,1.0379046000307426,True,36,1
AC-K-26K26S1,60,experiment,59,←,no_key,no_letter,-1.0,False,36,1
AC-K-26K26S1,61,experiment,64,→,right,→,0.9958063999656588,True,36,1
AC-K-26K26S1,62,experiment,89,→,right,→,1.0136748999357224,True,36,1
AC-K-26K26S1,63,experiment,79,↑,up,↑,0.9543531000381336,True,36,1
AC-K-26K26S1,64,experiment,104,→,right,→,1.0248326000291854,True,36,1
AC-K-26K26S1,65,experiment,61,←,left,←,1.1073380000889301,True,36,1
AC-K-26K26S1,66,experiment,99,←,no_key,no_letter,-1.0,False,36,1
AC-K-26K26S1,67,experiment,58,↑,up,↑,0.843016600003466,True,36,1
AC-K-26K26S1,68,experiment,74,↑,up,↑,1.4326185999670997,True,36,1
AC-K-26K26S1,69,experiment,53,←,left,←,0.9971754999132827,True,36,1
AC-K-26K26S1,70,experiment,56,↓,up,↑,0.8342825999716297,False,36,1
AC-K-26K26S1,71,experiment,48,→,left,←,0.8565839000511914,False,36,1
AC-K-26K26S1,72,experiment,51,→,right,→,1.212812300072983,True,36,1
AC-K-26K26S1,73,experiment,97,←,left,←,1.075679300003685,True,36,1
AC-K-26K26S1,74,experiment,93,↓,up,↑,1.257579099969007,False,36,1
AC-K-26K26S1,75,experiment,103,↑,up,↑,0.8121141999727115,True,36,1
AC-K-26K26S1,76,experiment,72,→,left,←,0.9792365001048893,False,36,1
AC-K-26K26S1,77,experiment,50,→,right,→,0.9470882999012247,True,36,1
AC-K-26K26S1,78,experiment,78,↓,up,↑,0.7306267999811098,False,36,1
AC-K-26K26S1,79,experiment,96,→,left,←,0.829074600012973,False,36,1
AC-K-26K26S1,80,experiment,55,↓,no_key,no_letter,-1.0,False,36,1
AC-K-26K26S1,81,experiment,52,↓,down,↓,0.8487950999988243,True,36,1
AC-K-26K26S1,82,experiment,86,←,left,←,0.8975060998927802,True,36,1
AC-K-26K26S1,83,experiment,54,↓,down,↓,0.8993502999655902,True,36,1
AC-K-26K26S1,84,experiment,82,←,left,←,0.9079503000248224,True,36,1
AC-K-26K26S1,85,experiment,87,↑,up,↑,0.9458320999983698,True,36,1
AC-K-26K26S1,86,experiment,68,↓,down,↓,0.9169794000918046,True,36,1
AC-K-26K26S1,87,experiment,101,←,left,←,0.9183040999341756,True,36,1
AC-K-26K26S1,88,experiment,62,→,no_key,no_letter,-1.0,False,36,1
AC-K-26K26S1,89,experiment,84,←,left,←,0.6970958000747487,True,36,1
AC-K-26K26S1,90,experiment,102,↓,down,↓,1.2027144000167027,True,36,1
AC-K-26K26S1,91,experiment,71,↓,no_key,no_letter,-1.0,False,36,1
AC-K-26K26S1,92,experiment,83,↑,up,↑,1.3441061000339687,True,36,1
AC-K-26K26S1,93,experiment,77,↓,down,↓,0.9124081999761984,True,36,1
AC-K-26K26S1,94,experiment,49,↑,up,↑,0.6989836000138894,True,36,1
AC-K-26K26S1,95,experiment,80,←,left,←,0.7169629000127316,True,36,1
AC-K-26K26S1,96,experiment,107,←,left,←,0.7153526999754831,True,36,1
AC-K-26K26S1,97,experiment,92,↓,up,↑,1.8958175000734627,False,36,1
AC-K-26K26S1,98,experiment,90,↑,up,↑,0.805355399963446,True,36,1
AC-K-26K26S1,99,experiment,75,↓,up,↑,1.6916248999768868,False,36,1
AC-K-26K26S1,100,experiment,69,←,right,→,1.2405947999795899,False,36,1
AC-K-26K26S1,101,experiment,100,↓,down,↓,1.7333581000566483,True,36,1
AC-K-26K26S1,102,experiment,81,→,left,←,0.8844294999726117,False,36,1
AC-K-26K26S1,103,experiment,63,←,left,←,1.2677800999954343,True,36,1
AC-K-26K26S1,104,training,57,→,left,←,0.7797122000483796,False,36,0
AC-K-26K26S1,105,training,56,→,left,←,0.7057962999679148,False,36,1
AC-K-26K26S1,106,experiment,69,↑,up,↑,0.9342407999793068,True,36,1
AC-K-26K26S1,107,experiment,103,←,left,←,0.9502457999624312,True,36,1
AC-K-26K26S1,108,experiment,83,←,left,←,0.748122499906458,True,36,1
AC-K-26K26S1,109,experiment,64,←,left,←,0.7044690999900922,True,36,1
AC-K-26K26S1,110,experiment,61,↑,up,↑,0.8396499999798834,True,36,1
AC-K-26K26S1,111,experiment,94,↓,up,↑,0.99832990008872,False,36,1
AC-K-26K26S1,112,experiment,97,←,left,←,0.6614275999600068,True,36,1
AC-K-26K26S1,113,experiment,82,→,right,→,0.9917156998999417,True,36,1
AC-K-26K26S1,114,experiment,100,←,left,←,0.7502044000430033,True,36,1
AC-K-26K26S1,115,experiment,105,←,left,←,0.6449826000025496,True,36,1
AC-K-26K26S1,116,experiment,75,←,no_key,no_letter,-1.0,False,36,1
AC-K-26K26S1,117,experiment,65,→,right,→,0.917269799974747,True,36,1
AC-K-26K26S1,118,experiment,88,←,left,←,0.7947511000093073,True,36,1
AC-K-26K26S1,119,experiment,62,←,left,←,1.9262210000306368,True,36,1
AC-K-26K26S1,120,experiment,102,↓,down,↓,1.038636300014332,True,36,1
AC-K-26K26S1,121,experiment,63,↓,down,↓,1.2237059000181034,True,36,1
AC-K-26K26S1,122,experiment,54,→,no_key,no_letter,-1.0,False,36,1
AC-K-26K26S1,123,experiment,84,←,left,←,1.1051744000287727,True,36,1
AC-K-26K26S1,124,experiment,96,↑,up,↑,0.8605300999479368,True,36,1
AC-K-26K26S1,125,experiment,86,↓,down,↓,0.8773509999737144,True,36,1
AC-K-26K26S1,126,experiment,87,↓,up,↑,0.9009678000584245,False,36,1
AC-K-26K26S1,127,experiment,106,↓,down,↓,0.885145700071007,True,36,1
AC-K-26K26S1,128,experiment,107,→,right,→,0.9818839998915792,True,36,1
AC-K-26K26S1,129,experiment,90,↑,up,↑,1.1121573999989778,True,36,1
AC-K-26K26S1,130,experiment,78,↓,down,↓,0.9691043000202626,True,36,1
AC-K-26K26S1,131,experiment,66,↑,up,↑,0.8601472000591457,True,36,1
AC-K-26K26S1,132,experiment,55,↑,down,↓,1.327694799983874,False,36,1
AC-K-26K26S1,133,experiment,77,↓,down,↓,0.9679346000775695,True,36,1
AC-K-26K26S1,134,experiment,68,↑,no_key,no_letter,-1.0,False,36,1
AC-K-26K26S1,135,experiment,70,→,right,→,0.7957897000014782,True,36,1
AC-K-26K26S1,136,experiment,67,→,left,←,1.3011520000873134,False,36,1
AC-K-26K26S1,137,experiment,72,→,no_key,no_letter,-1.0,False,36,1
AC-K-26K26S1,138,experiment,59,↓,down,↓,0.910030800034292,True,36,1
AC-K-26K26S1,139,experiment,53,↑,up,↑,0.9596500999759883,True,36,1
AC-K-26K26S1,140,experiment,80,↑,up,↑,0.5586782000027597,True,36,1
AC-K-26K26S1,141,experiment,108,←,left,←,1.331788400071673,True,36,1
AC-K-26K26S1,142,experiment,51,←,left,←,0.7811063999542966,True,36,1
AC-K-26K26S1,143,experiment,89,→,left,←,0.8396690000081435,False,36,1
AC-K-26K26S1,144,experiment,73,←,left,←,1.309350199997425,True,36,1
AC-K-26K26S1,145,experiment,52,↓,no_key,no_letter,-1.0,False,36,1
AC-K-26K26S1,146,experiment,104,↑,up,↑,0.9733293000608683,True,36,1
AC-K-26K26S1,147,experiment,85,→,right,→,1.0259471000172198,True,36,1
AC-K-26K26S1,148,experiment,49,←,left,←,0.792259999900125,True,36,1
AC-K-26K26S1,149,experiment,48,→,no_key,no_letter,-1.0,False,36,1
AC-K-26K26S1,150,experiment,60,↓,down,↓,0.9096254999749362,True,36,1
AC-K-26K26S1,151,experiment,76,↑,up,↑,0.7749459999613464,True,36,1
AC-K-26K26S1,152,experiment,99,→,left,←,0.8388546999776736,False,36,1
AC-K-26K26S1,153,experiment,92,←,left,←,0.8701738000381738,True,36,1
AC-K-26K26S1,154,experiment,98,↑,up,↑,0.8423178000375628,True,36,1
AC-K-26K26S1,155,experiment,95,↑,up,↑,0.7764358000131324,True,36,1
AC-K-26K26S1,156,experiment,101,←,left,←,0.895715199992992,True,36,1
AC-K-26K26S1,157,experiment,57,↓,down,↓,1.0402470000553876,True,36,1
AC-K-26K26S1,158,experiment,91,↑,up,↑,1.5998420000541955,True,36,1
AC-K-26K26S1,159,experiment,71,↓,no_key,no_letter,-1.0,False,36,1
AC-K-26K26S1,160,experiment,58,↓,down,↓,0.9093142999336123,True,36,1
AC-K-26K26S1,161,experiment,50,↓,down,↓,0.9441023000981659,True,36,1
AC-K-26K26S1,162,experiment,79,↑,up,↑,1.5997441000072286,True,36,1
AC-K-26K26S1,163,experiment,93,↓,up,↑,1.0244726999662817,False,36,1
AC-K-26K26S1,164,experiment,56,→,right,→,1.0524127000244334,True,36,1
AC-K-26K26S1,165,experiment,74,↓,down,↓,1.2736464999616146,True,36,1
AC-K-26K26S1,166,experiment,81,↓,down,↓,0.8750491999089718,True,36,1
AC-K-26K26S1,167,training,49,↑,up,↑,0.7427692000055686,True,36,0
AC-K-26K26S1,168,training,87,↓,down,↓,0.8118063999572769,True,36,1
AC-K-26K26S1,169,experiment,94,↓,down,↓,0.627539400011301,True,36,1
AC-K-26K26S1,170,experiment,103,↓,up,↑,0.9598009999608621,False,36,1
AC-K-26K26S1,171,experiment,107,←,left,←,0.7655993000371382,True,36,1
AC-K-26K26S1,172,experiment,85,↑,up,↑,1.0183138999855146,True,36,1
AC-K-26K26S1,173,experiment,61,→,no_key,no_letter,-1.0,False,36,1
AC-K-26K26S1,174,experiment,93,→,right,→,0.8868617999833077,True,36,1
AC-K-26K26S1,175,experiment,73,→,up,↑,1.2024403000250459,False,36,1
AC-K-26K26S1,176,experiment,51,↓,down,↓,0.8651481999550015,True,36,1
AC-K-26K26S1,177,experiment,106,→,no_key,no_letter,-1.0,False,36,1
AC-K-26K26S1,178,experiment,63,↓,down,↓,0.8788243000162765,True,36,1
AC-K-26K26S1,179,experiment,53,←,left,←,1.1133679999038577,True,36,1
AC-K-26K26S1,180,experiment,101,↓,no_key,no_letter,-1.0,False,36,1
AC-K-26K26S1,181,experiment,58,→,no_key,no_letter,-1.0,False,36,1
AC-K-26K26S1,182,experiment,79,↓,down,↓,0.8068579999962822,True,36,1
AC-K-26K26S1,183,experiment,86,←,left,←,0.8575074000982568,True,36,1
AC-K-26K26S1,184,experiment,77,←,left,←,0.9412748999893665,True,36,1
AC-K-26K26S1,185,experiment,50,↓,down,↓,0.8304407999385148,True,36,1
AC-K-26K26S1,186,experiment,88,←,left,←,1.031449200003408,True,36,1
AC-K-26K26S1,187,experiment,92,←,no_key,no_letter,-1.0,False,36,1
AC-K-26K26S1,188,experiment,66,←,left,←,0.8983994999434799,True,36,1
AC-K-26K26S1,189,experiment,75,←,no_key,no_letter,-1.0,False,36,1
AC-K-26K26S1,190,experiment,102,←,left,←,0.5796178999589756,True,36,1
AC-K-26K26S1,191,experiment,59,↑,no_key,no_letter,-1.0,False,36,1
AC-K-26K26S1,192,experiment,76,←,left,←,0.5598938999464735,True,36,1
AC-K-26K26S1,193,experiment,70,←,no_key,no_letter,-1.0,False,36,1
AC-K-26K26S1,194,experiment,71,↓,down,↓,0.9470069999806583,True,36,1
AC-K-26K26S1,195,experiment,83,↓,up,↑,0.993118799990043,False,36,1
AC-K-26K26S1,196,experiment,84,→,left,←,1.0928219000343233,False,36,1
AC-K-26K26S1,197,experiment,68,←,no_key,no_letter,-1.0,False,36,1
AC-K-26K26S1,198,experiment,57,←,left,←,0.7520023999968544,True,36,1
AC-K-26K26S1,199,experiment,64,→,no_key,no_letter,-1.0,False,36,1
AC-K-26K26S1,200,experiment,67,←,left,←,0.6465909000253305,True,36,1
AC-K-26K26S1,201,experiment,91,→,right,→,0.949870300013572,True,36,1
AC-K-26K26S1,202,experiment,54,↑,no_key,no_letter,-1.0,False,36,1
AC-K-26K26S1,203,experiment,69,→,left,←,0.8155663000652567,False,36,1
AC-K-26K26S1,204,experiment,99,→,left,←,0.7973068000283092,False,36,1
AC-K-26K26S1,205,experiment,48,↓,no_key,no_letter,-1.0,False,36,1
AC-K-26K26S1,206,experiment,97,←,left,←,0.6935506999725476,True,36,1
AC-K-26K26S1,207,experiment,105,←,left,←,0.8308114999672398,True,36,1
AC-K-26K26S1,208,experiment,104,↑,up,↑,0.7623840000014752,True,36,1
AC-K-26K26S1,209,experiment,100,←,left,←,0.746090600034222,True,36,1
AC-K-26K26S1,210,experiment,72,→,left,←,1.3077154998900369,False,36,1
AC-K-26K26S1,211,experiment,65,←,left,←,0.6733840999659151,True,36,1
AC-K-26K26S1,212,experiment,95,←,no_key,no_letter,-1.0,False,36,1
AC-K-26K26S1,213,experiment,82,↓,down,↓,0.9239813999738544,True,36,1
AC-K-26K26S1,214,experiment,74,←,down,↓,1.2460193999577314,False,36,1
AC-K-26K26S1,215,experiment,78,←,left,←,0.866008699988015,True,36,1
AC-K-26K26S1,216,experiment,52,↑,up,↑,0.965648099896498,True,36,1
AC-K-26K26S1,217,experiment,55,↓,down,↓,0.8367847000481561,True,36,1
AC-K-26K26S1,218,experiment,96,→,no_key,no_letter,-1.0,False,36,1
AC-K-26K26S1,219,experiment,49,↑,left,←,0.60321080009453,False,36,1
AC-K-26K26S1,220,experiment,90,↓,up,↑,1.6045529000693932,False,36,1
AC-K-26K26S1,221,experiment,81,↑,up,↑,0.7528893999988213,True,36,1
AC-K-26K26S1,222,experiment,60,↓,down,↓,0.9504638999933377,True,36,1
AC-K-26K26S1,223,experiment,80,→,right,→,1.0374637000495568,True,36,1
AC-K-26K26S1,224,experiment,56,↓,down,↓,0.8973287999397144,True,36,1
AC-K-26K26S1,225,experiment,87,→,right,→,1.151747400057502,True,36,1
AC-K-26K26S1,226,experiment,89,↓,down,↓,0.9550817999988794,True,36,1
AC-K-26K26S1,227,experiment,62,↑,up,↑,1.7439971000421792,True,36,1
AC-K-26K26S1,228,experiment,108,↑,up,↑,0.9418655000627041,True,36,1
AC-K-26K26S1,229,experiment,98,→,no_key,no_letter,-1.0,False,36,1
AC-K-26K26S1,230,training,71,↓,down,↓,0.8539498000172898,True,37,0
AC-K-26K26S1,231,training,80,→,up,↑,0.8564053999725729,False,37,1
AC-K-26K26S1,232,experiment,64,→,right,→,0.8165465999627486,True,37,1
AC-K-26K26S1,233,experiment,88,←,left,←,0.8501437000231817,True,37,1
AC-K-26K26S1,234,experiment,77,→,right,→,0.838196000084281,True,37,1
AC-K-26K26S1,235,experiment,60,↓,down,↓,0.7525330000789836,True,37,1
AC-K-26K26S1,236,experiment,80,↓,down,↓,0.7272896999493241,True,37,1
AC-K-26K26S1,237,experiment,87,↑,up,↑,0.8689584999810904,True,37,1
AC-K-26K26S1,238,experiment,72,↓,down,↓,0.7216155999340117,True,37,1
AC-K-26K26S1,239,experiment,68,↑,up,↑,1.3739812999265268,True,37,1
AC-K-26K26S1,240,experiment,85,→,right,→,0.7939514999743551,True,37,1
AC-K-26K26S1,241,experiment,104,↓,down,↓,0.7189748999662697,True,37,1
AC-K-26K26S1,242,experiment,86,↓,down,↓,0.7734011000720784,True,37,1
AC-K-26K26S1,243,experiment,56,↓,down,↓,0.779271199950017,True,37,1
AC-K-26K26S1,244,experiment,67,↑,up,↑,0.7093812000239268,True,37,1
AC-K-26K26S1,245,experiment,89,↑,up,↑,1.7631065999157727,True,37,1
AC-K-26K26S1,246,experiment,97,↓,down,↓,0.8515780000016093,True,37,1
AC-K-26K26S1,247,experiment,103,↓,up,↑,1.0790128000080585,False,37,1
AC-K-26K26S1,248,experiment,51,←,left,←,0.7864943000022322,True,37,1
AC-K-26K26S1,249,experiment,79,↓,left,←,1.3204793999902904,False,37,1
AC-K-26K26S1,250,experiment,58,↓,down,↓,0.8636952999513596,True,37,1
AC-K-26K26S1,251,experiment,59,←,left,←,0.8571493999334052,True,37,1
AC-K-26K26S1,252,experiment,92,→,right,→,0.8878186999354511,True,37,1
AC-K-26K26S1,253,experiment,91,←,left,←,0.837392000015825,True,37,1
AC-K-26K26S1,254,experiment,69,↓,down,↓,0.8925183999817818,True,37,1
AC-K-26K26S1,255,experiment,74,→,left,←,0.8797638000687584,False,37,1
AC-K-26K26S1,256,experiment,102,↑,up,↑,0.7620950000127777,True,37,1
AC-K-26K26S1,257,experiment,63,→,right,→,0.9421960999025032,True,37,1
AC-K-26K26S1,258,experiment,61,↑,up,↑,0.8439291999675333,True,37,1
AC-K-26K26S1,259,experiment,94,→,right,→,0.8743821999523789,True,37,1
AC-K-26K26S1,260,experiment,65,→,right,→,1.1613022999372333,True,37,1
AC-K-26K26S1,261,experiment,76,↑,up,↑,0.761190399993211,True,37,1
AC-K-26K26S1,262,experiment,90,→,right,→,0.8444665999850258,True,37,1
AC-K-26K26S1,263,experiment,82,↑,up,↑,0.7189360000193119,True,37,1
AC-K-26K26S1,264,experiment,98,↓,down,↓,0.8733672000234947,True,37,1
AC-K-26K26S1,265,experiment,54,↑,up,↑,0.827987700002268,True,37,1
AC-K-26K26S1,266,experiment,75,↓,up,↑,1.3137260000221431,False,37,1
AC-K-26K26S1,267,experiment,100,→,right,→,0.7792057999176905,True,37,1
AC-K-26K26S1,268,experiment,73,→,right,→,0.7152506998972967,True,37,1
AC-K-26K26S1,269,experiment,48,←,left,←,0.7503186999820173,True,37,1
AC-K-26K26S1,270,experiment,57,↑,up,↑,0.7811627000337467,True,37,1
AC-K-26K26S1,271,experiment,95,↓,down,↓,0.8537411999423057,True,37,1
AC-K-26K26S1,272,experiment,49,←,left,←,0.7232206000480801,True,37,1
AC-K-26K26S1,273,experiment,84,↓,no_key,no_letter,-1.0,False,37,1
AC-K-26K26S1,274,experiment,71,→,right,→,0.930764599936083,True,37,1
AC-K-26K26S1,275,experiment,81,↑,up,↑,0.5941478000022471,True,37,1
AC-K-26K26S1,276,experiment,66,←,left,←,0.700154299964197,True,37,1
AC-K-26K26S1,277,experiment,78,↓,up,↑,0.7419413999887183,False,37,1
AC-K-26K26S1,278,experiment,107,→,no_key,no_letter,-1.0,False,37,1
AC-K-26K26S1,279,experiment,99,←,left,←,0.7078226000303403,True,37,1
AC-K-26K26S1,280,experiment,52,→,right,→,0.9416570999892429,True,37,1
AC-K-26K26S1,281,experiment,83,→,right,→,0.7720689000561833,True,37,1
AC-K-26K26S1,282,experiment,50,↑,up,↑,0.6921186000108719,True,37,1
AC-K-26K26S1,283,experiment,93,→,right,→,0.8651060999836773,True,37,1
AC-K-26K26S1,284,experiment,96,↓,down,↓,0.7264071999816224,True,37,1
AC-K-26K26S1,285,experiment,101,↑,no_key,no_letter,-1.0,False,37,1
AC-K-26K26S1,286,experiment,62,←,down,↓,1.1552567000035197,False,37,1
AC-K-26K26S1,287,experiment,105,→,right,→,0.9614588000113145,True,37,1
AC-K-26K26S1,288,experiment,55,→,right,→,0.7924121000105515,True,37,1
AC-K-26K26S1,289,experiment,106,→,right,→,0.7492244000313804,True,37,1
AC-K-26K26S1,290,experiment,108,↓,down,↓,0.7312317999312654,True,37,1
AC-K-26K26S1,291,experiment,53,←,left,←,1.475403800024651,True,37,1
AC-K-26K26S1,292,experiment,70,←,left,←,0.9048648999305442,True,37,1
AC-K-26K26S1,293,training,83,↑,up,↑,0.9474227000027895,True,37,0
AC-K-26K26S1,294,training,81,→,right,→,0.8502769999904558,True,37,1
AC-K-26K26S1,295,experiment,102,↑,up,↑,0.6699553999351338,True,37,1
AC-K-26K26S1,296,experiment,95,→,right,→,0.682858300046064,True,37,1
AC-K-26K26S1,297,experiment,64,→,right,→,0.7379264000337571,True,37,1
AC-K-26K26S1,298,experiment,69,→,right,→,0.5973008000291884,True,37,1
AC-K-26K26S1,299,experiment,94,→,right,→,0.8135397000005469,True,37,1
AC-K-26K26S1,300,experiment,70,↑,up,↑,0.7091278999578208,True,37,1
AC-K-26K26S1,301,experiment,59,↓,down,↓,0.7807160000083968,True,37,1
AC-K-26K26S1,302,experiment,53,↓,up,↑,0.9315238000126556,False,37,1
AC-K-26K26S1,303,experiment,99,↑,up,↑,0.692821400007233,True,37,1
AC-K-26K26S1,304,experiment,101,←,left,←,0.8872898999834433,True,37,1
AC-K-26K26S1,305,experiment,71,↑,up,↑,0.6676047999644652,True,37,1
AC-K-26K26S1,306,experiment,81,→,right,→,0.805699500022456,True,37,1
AC-K-26K26S1,307,experiment,86,←,left,←,0.8322851000120863,True,37,1
AC-K-26K26S1,308,experiment,92,→,right,→,0.8160299999872223,True,37,1
AC-K-26K26S1,309,experiment,57,←,left,←,0.804229800007306,True,37,1
AC-K-26K26S1,310,experiment,63,←,left,←,0.5905486999545246,True,37,1
AC-K-26K26S1,311,experiment,65,↑,up,↑,0.6647989000193775,True,37,1
AC-K-26K26S1,312,experiment,91,↑,up,↑,0.663672300055623,True,37,1
AC-K-26K26S1,313,experiment,75,↑,up,↑,0.6756043001078069,True,37,1
AC-K-26K26S1,314,experiment,88,↓,no_key,no_letter,-1.0,False,37,1
AC-K-26K26S1,315,experiment,49,↓,down,↓,0.8993547999998555,True,37,1
AC-K-26K26S1,316,experiment,51,↑,up,↑,0.5660141999833286,True,37,1
AC-K-26K26S1,317,experiment,48,←,left,←,0.7431435000617057,True,37,1
AC-K-26K26S1,318,experiment,52,↑,up,↑,0.6398324000183493,True,37,1
AC-K-26K26S1,319,experiment,56,←,left,←,1.6672744000097737,True,37,1
AC-K-26K26S1,320,experiment,85,←,left,←,0.6675306999823079,True,37,1
AC-K-26K26S1,321,experiment,90,↑,left,←,0.6987382000079378,False,37,1
AC-K-26K26S1,322,experiment,108,→,left,←,1.0904019000008702,False,37,1
AC-K-26K26S1,323,experiment,74,←,left,←,0.5657413000008091,True,37,1
AC-K-26K26S1,324,experiment,100,←,left,←,0.725476699997671,True,37,1
AC-K-26K26S1,325,experiment,78,←,left,←,0.6621291000628844,True,37,1
AC-K-26K26S1,326,experiment,106,←,no_key,no_letter,-1.0,False,37,1
AC-K-26K26S1,327,experiment,104,←,left,←,0.67011300008744,True,37,1
AC-K-26K26S1,328,experiment,82,→,left,←,0.13583779998589307,False,37,1
AC-K-26K26S1,329,experiment,67,→,left,←,0.7883840999566019,False,37,0
AC-K-26K26S1,330,experiment,76,→,left,←,0.747096800012514,False,37,1
AC-K-26K26S1,331,experiment,55,←,left,←,0.7306914000073448,True,37,1
AC-K-26K26S1,332,experiment,58,→,left,←,0.5699887999799103,False,37,1
AC-K-26K26S1,333,experiment,93,↑,up,↑,0.8117148000746965,True,37,1
AC-K-26K26S1,334,experiment,77,↓,down,↓,1.0649815000360832,True,37,1
AC-K-26K26S1,335,experiment,107,↓,down,↓,0.8264751000097021,True,37,1
AC-K-26K26S1,336,experiment,84,→,right,→,0.8689477000152692,True,37,1
AC-K-26K26S1,337,experiment,89,→,left,←,0.8124059999827296,False,37,1
AC-K-26K26S1,338,experiment,61,→,right,→,0.9754354000324383,True,37,1
AC-K-26K26S1,339,experiment,62,↑,up,↑,0.6834060000255704,True,37,1
AC-K-26K26S1,340,experiment,68,↓,down,↓,0.8812310999492183,True,37,1
AC-K-26K26S1,341,experiment,79,↓,down,↓,0.7791222999803722,True,37,1
AC-K-26K26S1,342,experiment,103,↓,down,↓,0.7455541999079287,True,37,1
AC-K-26K26S1,343,experiment,83,↓,down,↓,0.7595957999583334,True,37,1
AC-K-26K26S1,344,experiment,60,↑,up,↑,0.6448817999335006,True,37,1
AC-K-26K26S1,345,experiment,105,→,right,→,0.7120933999540284,True,37,1
AC-K-26K26S1,346,experiment,54,→,right,→,0.7531316999811679,True,37,1
AC-K-26K26S1,347,experiment,98,←,left,←,0.9700738000683486,True,37,1
AC-K-26K26S1,348,experiment,96,↓,down,↓,0.7711042000446469,True,37,1
AC-K-26K26S1,349,experiment,80,↑,up,↑,0.5768695999868214,True,37,1
AC-K-26K26S1,350,experiment,66,→,right,→,0.7479124999372289,True,37,1
AC-K-26K26S1,351,experiment,97,←,left,←,0.9733073000097647,True,37,1
AC-K-26K26S1,352,experiment,87,↑,up,↑,0.6809100999962538,True,37,1
AC-K-26K26S1,353,experiment,50,←,left,←,0.716460199910216,True,37,1
AC-K-26K26S1,354,experiment,72,→,right,→,1.015457500005141,True,37,1
AC-K-26K26S1,355,experiment,73,↓,down,↓,0.8141773999668658,True,37,1
AC-K-26K26S1,356,training,50,↓,down,↓,0.8122516000876203,True,37,0
AC-K-26K26S1,357,training,66,→,right,→,0.7251856999937445,True,37,1
AC-K-26K26S1,358,experiment,61,→,left,←,0.8676430999767035,False,37,1
AC-K-26K26S1,359,experiment,79,↑,up,↑,0.5343453000532463,True,37,1
AC-K-26K26S1,360,experiment,71,↓,up,↑,0.9134114999324083,False,37,1
AC-K-26K26S1,361,experiment,72,↑,up,↑,0.6440694999182597,True,37,1
AC-K-26K26S1,362,experiment,53,←,no_key,no_letter,-1.0,False,37,1
AC-K-26K26S1,363,experiment,99,↓,down,↓,0.7838017001049593,True,37,1
AC-K-26K26S1,364,experiment,49,←,left,←,0.744104899931699,True,37,1
AC-K-26K26S1,365,experiment,67,↑,up,↑,0.6597439999459311,True,37,1
AC-K-26K26S1,366,experiment,102,→,left,←,1.9430917999707162,False,37,1
AC-K-26K26S1,367,experiment,95,↑,up,↑,0.6570495000341907,True,37,1
AC-K-26K26S1,368,experiment,100,↑,up,↑,0.5333666000515223,True,37,1
AC-K-26K26S1,369,experiment,75,↑,up,↑,0.6066275999182835,True,37,1
AC-K-26K26S1,370,experiment,62,←,left,←,0.7453488999744877,True,37,1
AC-K-26K26S1,371,experiment,68,↑,up,↑,0.9085291000083089,True,37,1
AC-K-26K26S1,372,experiment,52,→,left,←,0.9586745999986306,False,37,1
AC-K-26K26S1,373,experiment,48,↑,up,↑,0.5358894999371842,True,37,1
AC-K-26K26S1,374,experiment,59,↓,up,↑,0.7106543999398127,False,37,1
AC-K-26K26S1,375,experiment,103,↓,down,↓,0.839528699987568,True,37,1
AC-K-26K26S1,376,experiment,94,↑,up,↑,0.6224481000099331,True,37,1
AC-K-26K26S1,377,experiment,66,→,right,→,0.8630224000662565,True,37,1
AC-K-26K26S1,378,experiment,50,←,left,←,0.9075936999870464,True,37,1
AC-K-26K26S1,379,experiment,65,←,left,←,0.7370828000130132,True,37,1
AC-K-26K26S1,380,experiment,81,↑,up,↑,0.9365103000309318,True,37,1
AC-K-26K26S1,381,experiment,73,→,right,→,0.9465173999778926,True,37,1
AC-K-26K26S1,382,experiment,55,↓,down,↓,0.833986800047569,True,37,1
AC-K-26K26S1,383,experiment,85,↓,down,↓,0.7558875000104308,True,37,1
AC-K-26K26S1,384,experiment,60,↓,down,↓,0.9296342000598088,True,37,1
AC-K-26K26S1,385,experiment,106,←,left,←,0.6564684000331908,True,37,1
AC-K-26K26S1,386,experiment,91,↑,left,←,0.8953720999415964,False,37,1
AC-K-26K26S1,387,experiment,98,←,left,←,0.8345510000362992,True,37,1
AC-K-26K26S1,388,experiment,56,→,left,←,0.7260046999435872,False,37,1
AC-K-26K26S1,389,experiment,51,↓,up,↑,0.7517367999535054,False,37,1
AC-K-26K26S1,390,experiment,57,↓,down,↓,0.7746468000113964,True,37,1
AC-K-26K26S1,391,experiment,89,→,right,→,0.7616250000428408,True,37,1
AC-K-26K26S1,392,experiment,58,→,right,→,0.8636275999015197,True,37,1
AC-K-26K26S1,393,experiment,97,↑,up,↑,0.5961894999491051,True,37,1
AC-K-26K26S1,394,experiment,69,←,left,←,1.037032900028862,True,37,1
AC-K-26K26S1,395,experiment,90,←,left,←,0.7013406000332907,True,37,1
AC-K-26K26S1,396,experiment,92,↑,up,↑,0.6905393999768421,True,37,1
AC-K-26K26S1,397,experiment,82,↑,up,↑,0.699179399991408,True,37,1
AC-K-26K26S1,398,experiment,77,↑,up,↑,0.6290265000425279,True,37,1
AC-K-26K26S1,399,experiment,76,→,right,→,0.9300977999810129,True,37,1
AC-K-26K26S1,400,experiment,63,↑,up,↑,0.6074199000140652,True,37,1
AC-K-26K26S1,401,experiment,83,→,right,→,0.8993382999906316,True,37,1
AC-K-26K26S1,402,experiment,54,←,right,→,1.5010409000096843,False,37,1
AC-K-26K26S1,403,experiment,105,→,right,→,0.8053763000061736,True,37,1
AC-K-26K26S1,404,experiment,74,←,left,←,0.7562654999783263,True,37,1
AC-K-26K26S1,405,experiment,78,↓,down,↓,0.8516045999713242,True,37,1
AC-K-26K26S1,406,experiment,101,↑,up,↑,0.6395035000750795,True,37,1
AC-K-26K26S1,407,experiment,104,↑,up,↑,0.6828363999957219,True,37,1
AC-K-26K26S1,408,experiment,87,↑,up,↑,0.5384091000305489,True,37,1
AC-K-26K26S1,409,experiment,86,↑,up,↑,1.9197735999478027,True,37,1
AC-K-26K26S1,410,experiment,96,←,right,→,0.9225362000288442,False,37,1
AC-K-26K26S1,411,experiment,107,←,left,←,0.7857792000286281,True,37,1
AC-K-26K26S1,412,experiment,108,←,left,←,1.0458609000779688,True,37,1
AC-K-26K26S1,413,experiment,88,↑,up,↑,0.6222279999637976,True,37,1
AC-K-26K26S1,414,experiment,84,←,left,←,0.80093550006859,True,37,1
AC-K-26K26S1,415,experiment,70,→,right,→,0.7932748000603169,True,37,1
AC-K-26K26S1,416,experiment,64,←,left,←,0.7479324999731034,True,37,1
AC-K-26K26S1,417,experiment,93,↑,up,↑,0.7026952999876812,True,37,1
AC-K-26K26S1,418,experiment,80,↑,up,↑,0.671766999992542,True,37,1
AC-K-26K26S1,419,training,89,→,right,→,0.8155052999500185,True,37,0
AC-K-26K26S1,420,training,103,↓,up,↑,0.6119729999918491,False,37,1
AC-K-26K26S1,421,experiment,76,↑,up,↑,0.5296758000040427,True,37,1
AC-K-26K26S1,422,experiment,105,→,up,↑,0.8571643000468612,False,37,1
AC-K-26K26S1,423,experiment,102,←,left,←,0.7725434999447316,True,37,1
AC-K-26K26S1,424,experiment,62,→,right,→,0.80056100001093,True,37,1
AC-K-26K26S1,425,experiment,88,↑,up,↑,0.6108812999445945,True,37,1
AC-K-26K26S1,426,experiment,94,←,left,←,0.8828187000472099,True,37,1
AC-K-26K26S1,427,experiment,57,←,left,←,0.6281509000109509,True,37,1
AC-K-26K26S1,428,experiment,81,←,left,←,0.7200991000281647,True,37,1
AC-K-26K26S1,429,experiment,84,→,right,→,0.7830476000672206,True,37,1
AC-K-26K26S1,430,experiment,82,→,right,→,0.8360352000454441,True,37,1
AC-K-26K26S1,431,experiment,70,→,right,→,0.9550556999165565,True,37,1
AC-K-26K26S1,432,experiment,80,←,left,←,0.6097479000454769,True,37,1
AC-K-26K26S1,433,experiment,85,↓,down,↓,0.7806736000347883,True,37,1
AC-K-26K26S1,434,experiment,98,←,left,←,0.7164321000454947,True,37,1
AC-K-26K26S1,435,experiment,67,→,right,→,0.7612858999054879,True,37,1
AC-K-26K26S1,436,experiment,73,↑,up,↑,0.5619898999575526,True,37,1
AC-K-26K26S1,437,experiment,51,←,left,←,0.7298995999153703,True,37,1
AC-K-26K26S1,438,experiment,100,←,left,←,0.69116699998267,True,37,1
AC-K-26K26S1,439,experiment,66,←,no_key,no_letter,-1.0,False,37,1
AC-K-26K26S1,440,experiment,97,←,left,←,0.6813570999074727,True,37,1
AC-K-26K26S1,441,experiment,53,→,left,←,0.852063599973917,False,37,1
AC-K-26K26S1,442,experiment,52,→,right,→,0.8884334999602288,True,37,1
AC-K-26K26S1,443,experiment,50,→,right,→,0.8677461999468505,True,37,1
AC-K-26K26S1,444,experiment,58,↑,up,↑,0.6534761000657454,True,37,1
AC-K-26K26S1,445,experiment,78,→,right,→,0.9287191000767052,True,37,1
AC-K-26K26S1,446,experiment,48,↑,no_key,no_letter,-1.0,False,37,1
AC-K-26K26S1,447,experiment,86,←,left,←,0.6558190999785438,True,37,1
AC-K-26K26S1,448,experiment,103,↑,up,↑,0.8104674000060186,True,37,1
AC-K-26K26S1,449,experiment,54,↓,down,↓,0.9117355000926182,True,37,1
AC-K-26K26S1,450,experiment,74,↑,up,↑,0.6825319000054151,True,37,1
AC-K-26K26S1,451,experiment,101,↑,up,↑,0.7253050000872463,True,37,1
AC-K-26K26S1,452,experiment,63,←,up,↑,1.2032453999854624,False,37,1
AC-K-26K26S1,453,experiment,49,←,left,←,1.0422105999896303,True,37,1
AC-K-26K26S1,454,experiment,89,↑,up,↑,0.66650680010207,True,37,1
AC-K-26K26S1,455,experiment,72,←,left,←,0.9355715999845415,True,37,1
AC-K-26K26S1,456,experiment,75,↑,up,↑,0.5849927999079227,True,37,1
AC-K-26K26S1,457,experiment,79,→,left,←,1.1187243000604212,False,37,1
AC-K-26K26S1,458,experiment,93,↑,up,↑,0.8987560999812558,True,37,1
AC-K-26K26S1,459,experiment,83,↑,up,↑,0.6668128999881446,True,37,1
AC-K-26K26S1,460,experiment,104,↑,up,↑,0.820961800054647,True,37,1
AC-K-26K26S1,461,experiment,96,↑,up,↑,0.5720717000076547,True,37,1
AC-K-26K26S1,462,experiment,56,↓,down,↓,1.1061399999307469,True,37,1
AC-K-26K26S1,463,experiment,61,←,left,←,1.225152499973774,True,37,1
AC-K-26K26S1,464,experiment,91,←,left,←,0.7055379999801517,True,37,1
AC-K-26K26S1,465,experiment,107,←,left,←,0.6811934999423102,True,37,1
AC-K-26K26S1,466,experiment,71,→,right,→,0.8776864000828937,True,37,1
AC-K-26K26S1,467,experiment,90,→,right,→,0.7804523999802768,True,37,1
AC-K-26K26S1,468,experiment,55,←,left,←,0.6585619000252336,True,37,1
AC-K-26K26S1,469,experiment,99,→,right,→,0.9667282999726012,True,37,1
AC-K-26K26S1,470,experiment,108,↓,down,↓,0.8039150000549853,True,37,1
AC-K-26K26S1,471,experiment,60,←,left,←,0.7513651000335813,True,37,1
AC-K-26K26S1,472,experiment,92,→,right,→,0.8342319000512362,True,37,1
AC-K-26K26S1,473,experiment,69,←,left,←,0.6495902999304235,True,37,1
AC-K-26K26S1,474,experiment,65,↑,up,↑,1.441493900027126,True,37,1
AC-K-26K26S1,475,experiment,77,↑,up,↑,0.6380583000136539,True,37,1
AC-K-26K26S1,476,experiment,64,↑,up,↑,0.6150491000153124,True,37,1
AC-K-26K26S1,477,experiment,95,→,right,→,0.8304560000542551,True,37,1
AC-K-26K26S1,478,experiment,106,↑,up,↑,0.8333765999414027,True,37,1
AC-K-26K26S1,479,experiment,59,↓,down,↓,0.8200993000064045,True,37,1
AC-K-26K26S1,480,experiment,68,←,left,←,0.7965139000443742,True,37,1
AC-K-26K26S1,481,experiment,87,←,left,←,0.559863599948585,True,37,1
AC-K-26K26S1,482,training,84,→,right,→,0.7430645999265835,True,36,0
AC-K-26K26S1,483,training,56,←,left,←,0.9743642000248656,True,36,1
AC-K-26K26S1,484,experiment,71,↓,down,↓,0.7833141000010073,True,36,1
AC-K-26K26S1,485,experiment,52,↓,down,↓,0.8224351999815553,True,36,1
AC-K-26K26S1,486,experiment,89,→,left,←,0.9274385999888182,False,36,1
AC-K-26K26S1,487,experiment,104,↑,up,↑,0.6551552000455558,True,36,1
AC-K-26K26S1,488,experiment,59,↑,up,↑,0.5369187999749556,True,36,1
AC-K-26K26S1,489,experiment,69,→,right,→,0.9719374000560492,True,36,1
AC-K-26K26S1,490,experiment,98,↓,down,↓,0.6919030999997631,True,36,1
AC-K-26K26S1,491,experiment,94,↓,down,↓,0.7366173999616876,True,36,1
AC-K-26K26S1,492,experiment,90,←,left,←,0.6452191999414936,True,36,1
AC-K-26K26S1,493,experiment,80,↑,up,↑,0.648169600055553,True,36,1
AC-K-26K26S1,494,experiment,99,↓,down,↓,0.860757099930197,True,36,1
AC-K-26K26S1,495,experiment,96,→,right,→,0.7061134999385104,True,36,1
AC-K-26K26S1,496,experiment,74,↑,up,↑,0.7086054000537843,True,36,1
AC-K-26K26S1,497,experiment,82,→,right,→,0.8448206000030041,True,36,1
AC-K-26K26S1,498,experiment,85,←,left,←,0.6625583999557421,True,36,1
AC-K-26K26S1,499,experiment,58,↑,up,↑,0.7441745999967679,True,36,1
AC-K-26K26S1,500,experiment,79,↓,down,↓,0.7761201000539586,True,36,1
AC-K-26K26S1,501,experiment,57,↓,down,↓,0.7414975999854505,True,36,1
AC-K-26K26S1,502,experiment,56,↑,up,↑,0.6770426000002772,True,36,1
AC-K-26K26S1,503,experiment,95,←,left,←,0.7379936999641359,True,36,1
AC-K-26K26S1,504,experiment,84,→,right,→,0.9199619001010433,True,36,1
AC-K-26K26S1,505,experiment,86,←,left,←,0.742203600006178,True,36,1
AC-K-26K26S1,506,experiment,61,↓,down,↓,0.803751099971123,True,36,1
AC-K-26K26S1,507,experiment,63,←,left,←,0.7021835000487044,True,36,1
AC-K-26K26S1,508,experiment,76,↓,down,↓,0.8002219999907538,True,36,1
AC-K-26K26S1,509,experiment,72,←,left,←,0.6079474000725895,True,36,1
AC-K-26K26S1,510,experiment,97,↑,up,↑,0.7348122000694275,True,36,1
AC-K-26K26S1,511,experiment,87,↑,up,↑,0.5082788999425247,True,36,1
AC-K-26K26S1,512,experiment,48,→,no_key,no_letter,-1.0,False,36,1
AC-K-26K26S1,513,experiment,93,↓,down,↓,0.7856408000225201,True,36,1
AC-K-26K26S1,514,experiment,70,←,left,←,0.7063464999664575,True,36,1
AC-K-26K26S1,515,experiment,66,↓,down,↓,0.7517562999855727,True,36,1
AC-K-26K26S1,516,experiment,49,↓,down,↓,0.7370399000355974,True,36,1
AC-K-26K26S1,517,experiment,92,↓,down,↓,0.6765320000704378,True,36,1
AC-K-26K26S1,518,experiment,60,↑,up,↑,0.7251447000307962,True,36,1
AC-K-26K26S1,519,experiment,67,↓,down,↓,0.857644599978812,True,36,1
AC-K-26K26S1,520,experiment,88,↑,up,↑,0.6576720000011846,True,36,1
AC-K-26K26S1,521,experiment,55,↓,down,↓,1.1726502999663353,True,36,1
AC-K-26K26S1,522,experiment,65,→,right,→,0.7596497000195086,True,36,1
AC-K-26K26S1,523,experiment,53,↑,up,↑,0.8311784999677911,True,36,1
AC-K-26K26S1,524,experiment,108,←,left,←,0.7217964999144897,True,36,1
AC-K-26K26S1,525,experiment,73,↑,up,↑,0.7240144000388682,True,36,1
AC-K-26K26S1,526,experiment,81,↓,down,↓,0.675723799970001,True,36,1
AC-K-26K26S1,527,experiment,54,←,left,←,0.5425032000057399,True,36,1
AC-K-26K26S1,528,experiment,106,→,right,→,0.901132500031963,True,36,1
AC-K-26K26S1,529,experiment,102,↓,up,↑,0.8149039999116212,False,36,1
AC-K-26K26S1,530,experiment,105,↓,up,↑,0.5949737000046298,False,36,1
AC-K-26K26S1,531,experiment,77,↑,up,↑,0.5612112000817433,True,36,1
AC-K-26K26S1,532,experiment,101,↑,up,↑,0.44257810001727194,True,36,1
AC-K-26K26S1,533,experiment,50,←,right,→,0.9260563000570983,False,36,1
AC-K-26K26S1,534,experiment,68,↑,up,↑,0.666165699949488,True,36,1
AC-K-26K26S1,535,experiment,91,↓,down,↓,0.736912599997595,True,36,1
AC-K-26K26S1,536,experiment,75,↑,up,↑,1.4902242999523878,True,36,1
AC-K-26K26S1,537,experiment,51,↓,down,↓,0.8052671999903396,True,36,1
AC-K-26K26S1,538,experiment,83,←,left,←,0.7446790999965742,True,36,1
AC-K-26K26S1,539,experiment,78,↑,up,↑,0.728769600042142,True,36,1
AC-K-26K26S1,540,experiment,100,↓,down,↓,0.8339194000000134,True,36,1
AC-K-26K26S1,541,experiment,64,←,left,←,0.9709813999943435,True,36,1
AC-K-26K26S1,542,experiment,103,→,left,←,0.8981228000484407,False,36,1
AC-K-26K26S1,543,experiment,62,→,right,→,0.9923655999591574,True,36,1
AC-K-26K26S1,544,experiment,107,↓,down,↓,0.740591200068593,True,36,1
AC-K-26K26S1,545,training,76,←,left,←,0.7045369000406936,True,35,0
AC-K-26K26S1,546,training,65,↓,down,↓,0.7023331999080256,True,35,1
AC-K-26K26S1,547,experiment,52,↑,down,↓,0.6561794000444934,False,35,1
AC-K-26K26S1,548,experiment,88,↑,up,↑,0.5924189999932423,True,35,1
AC-K-26K26S1,549,experiment,80,→,right,→,0.8537128999596462,True,35,1
AC-K-26K26S1,550,experiment,106,→,up,↑,0.8321209000423551,False,35,1
AC-K-26K26S1,551,experiment,75,←,right,→,0.9413268000353128,False,35,1
AC-K-26K26S1,552,experiment,100,↓,down,↓,0.7017105000559241,True,35,1
AC-K-26K26S1,553,experiment,62,←,right,→,0.8528519000392407,False,35,1
AC-K-26K26S1,554,experiment,61,→,right,→,0.7181251000147313,True,35,1
AC-K-26K26S1,555,experiment,107,←,left,←,0.7734490999719128,True,35,1
AC-K-26K26S1,556,experiment,69,→,left,←,0.5433510999428108,False,35,1
AC-K-26K26S1,557,experiment,97,→,right,→,0.7528518000617623,True,35,1
AC-K-26K26S1,558,experiment,72,→,right,→,0.6267151000211015,True,35,1
AC-K-26K26S1,559,experiment,78,→,right,→,0.7032590999733657,True,35,1
AC-K-26K26S1,560,experiment,59,←,left,←,0.6951439999975264,True,35,1
AC-K-26K26S1,561,experiment,68,↑,up,↑,0.6927934000268579,True,35,1
AC-K-26K26S1,562,experiment,71,→,right,→,0.7291445999871939,True,35,1
AC-K-26K26S1,563,experiment,76,→,right,→,0.6108101999852806,True,35,1
AC-K-26K26S1,564,experiment,70,↑,right,→,0.9226512999739498,False,35,1
AC-K-26K26S1,565,experiment,99,↓,down,↓,0.8444039999740198,True,35,1
AC-K-26K26S1,566,experiment,81,↓,down,↓,0.7913445000303909,True,35,1
AC-K-26K26S1,567,experiment,87,←,left,←,0.7863696001004428,True,35,1
AC-K-26K26S1,568,experiment,93,↑,up,↑,0.611301299999468,True,35,1
AC-K-26K26S1,569,experiment,51,→,up,↑,1.729792399914004,False,35,1
AC-K-26K26S1,570,experiment,91,←,left,←,0.6857500999467447,True,35,1
AC-K-26K26S1,571,experiment,74,↓,left,←,1.8970422999700531,False,35,1
AC-K-26K26S1,572,experiment,48,↑,up,↑,0.6445395000046119,True,35,1
AC-K-26K26S1,573,experiment,77,→,up,↑,0.8409874000353739,False,35,1
AC-K-26K26S1,574,experiment,108,→,up,↑,0.8511051000095904,False,35,1
AC-K-26K26S1,575,experiment,63,↑,up,↑,0.6996691999956965,True,35,1
AC-K-26K26S1,576,experiment,96,↑,up,↑,0.8232379000401124,True,35,1
AC-K-26K26S1,577,experiment,55,↑,up,↑,0.6517844999907538,True,35,1
AC-K-26K26S1,578,experiment,66,←,left,←,0.8514179000630975,True,35,1
AC-K-26K26S1,579,experiment,49,↓,down,↓,0.9607641999609768,True,35,1
AC-K-26K26S1,580,experiment,85,↑,up,↑,1.0455100999679416,True,35,1
AC-K-26K26S1,581,experiment,82,←,no_key,no_letter,-1.0,False,35,1
AC-K-26K26S1,582,experiment,90,↓,down,↓,0.9630689000478014,True,35,1
AC-K-26K26S1,583,experiment,104,↓,down,↓,0.6254422999918461,True,35,1
AC-K-26K26S1,584,experiment,92,↑,up,↑,0.6733112999936566,True,35,1
AC-K-26K26S1,585,experiment,105,←,left,←,0.6589815000770614,True,35,1
AC-K-26K26S1,586,experiment,57,→,no_key,no_letter,-1.0,False,35,1
AC-K-26K26S1,587,experiment,101,→,right,→,1.276985100004822,True,35,1
AC-K-26K26S1,588,experiment,79,↓,down,↓,0.75927529996261,True,35,1
AC-K-26K26S1,589,experiment,64,↑,up,↑,0.883217699942179,True,35,1
AC-K-26K26S1,590,experiment,98,←,left,←,0.7913248999975622,True,35,1
AC-K-26K26S1,591,experiment,83,↓,down,↓,0.683343300013803,True,35,1
AC-K-26K26S1,592,experiment,86,↓,up,↑,0.9630414000712335,False,35,1
AC-K-26K26S1,593,experiment,89,↓,down,↓,0.7986222000326961,True,35,1
AC-K-26K26S1,594,experiment,54,←,down,↓,1.1803555999649689,False,35,1
AC-K-26K26S1,595,experiment,84,↑,up,↑,0.6404888000106439,True,35,1
AC-K-26K26S1,596,experiment,73,→,right,→,0.7585003999993205,True,35,1
AC-K-26K26S1,597,experiment,50,↑,up,↑,0.6149757000384852,True,35,1
AC-K-26K26S1,598,experiment,95,→,right,→,0.9104466000571847,True,35,1
AC-K-26K26S1,599,experiment,56,↑,up,↑,0.6232183000538498,True,35,1
AC-K-26K26S1,600,experiment,53,←,left,←,0.7723480999702588,True,35,1
AC-K-26K26S1,601,experiment,67,→,right,→,1.014712999924086,True,35,1
AC-K-26K26S1,602,experiment,102,↑,up,↑,0.5957419000333175,True,35,1
AC-K-26K26S1,603,experiment,65,→,right,→,0.7256633000215515,True,35,1
AC-K-26K26S1,604,experiment,58,→,right,→,0.829110800055787,True,35,1
AC-K-26K26S1,605,experiment,60,↑,up,↑,0.7277044000802562,True,35,1
AC-K-26K26S1,606,experiment,103,←,left,←,0.9918179999804124,True,35,1
AC-K-26K26S1,607,experiment,94,↓,down,↓,0.9444567000027746,True,35,1
AC-K-26K26S1,608,training,85,←,left,←,0.6867328999796882,True,35,0
AC-K-26K26S1,609,training,101,↑,up,↑,0.6329215998994187,True,35,1
AC-K-26K26S1,610,experiment,78,↓,down,↓,0.7976097000064328,True,35,1
AC-K-26K26S1,611,experiment,58,←,left,←,0.6497046001022682,True,35,1
AC-K-26K26S1,612,experiment,94,↑,up,↑,0.7201008000411093,True,35,1
AC-K-26K26S1,613,experiment,83,←,left,←,0.7353259999072179,True,35,1
AC-K-26K26S1,614,experiment,63,↑,up,↑,0.780635500093922,True,35,1
AC-K-26K26S1,615,experiment,80,↑,up,↑,0.8102599000558257,True,35,1
AC-K-26K26S1,616,experiment,74,←,left,←,0.7610539000015706,True,35,1
AC-K-26K26S1,617,experiment,76,←,left,←,0.5689061000011861,True,35,1
AC-K-26K26S1,618,experiment,100,↑,up,↑,0.8244590000249445,True,35,1
AC-K-26K26S1,619,experiment,93,↓,down,↓,0.8401864999905229,True,35,1
AC-K-26K26S1,620,experiment,95,↓,down,↓,0.7103642000583932,True,35,1
AC-K-26K26S1,621,experiment,96,↑,up,↑,0.7856979999924079,True,35,1
AC-K-26K26S1,622,experiment,81,↑,up,↑,0.5590812999289483,True,35,1
AC-K-26K26S1,623,experiment,98,←,right,→,0.8958439999260008,False,35,1
AC-K-26K26S1,624,experiment,50,↓,down,↓,0.7388394000008702,True,35,1
AC-K-26K26S1,625,experiment,49,↓,up,↑,0.8445166000165045,False,35,1
AC-K-26K26S1,626,experiment,55,→,right,→,0.7605048000114039,True,35,1
AC-K-26K26S1,627,experiment,84,→,right,→,0.877780899987556,True,35,1
AC-K-26K26S1,628,experiment,69,←,left,←,0.5631544999778271,True,35,1
AC-K-26K26S1,629,experiment,86,←,left,←,0.5437623000470921,True,35,1
AC-K-26K26S1,630,experiment,79,→,right,→,0.695536799961701,True,35,1
AC-K-26K26S1,631,experiment,97,→,right,→,0.6427914000814781,True,35,1
AC-K-26K26S1,632,experiment,73,↓,down,↓,0.8005955000407994,True,35,1
AC-K-26K26S1,633,experiment,108,↓,down,↓,0.7243991000577807,True,35,1
AC-K-26K26S1,634,experiment,61,←,left,←,0.6345818000845611,True,35,1
AC-K-26K26S1,635,experiment,77,↑,up,↑,0.7033147000474855,True,35,1
AC-K-26K26S1,636,experiment,89,←,left,←,0.6856017999816686,True,35,1
AC-K-26K26S1,637,experiment,60,←,left,←,0.5659285000292584,True,35,1
AC-K-26K26S1,638,experiment,48,↑,up,↑,0.670984199969098,True,35,1
AC-K-26K26S1,639,experiment,106,←,left,←,0.8321995999431238,True,35,1
AC-K-26K26S1,640,experiment,85,↓,down,↓,0.8906041999580339,True,35,1
AC-K-26K26S1,641,experiment,51,→,right,→,0.8852202000562102,True,35,1
AC-K-26K26S1,642,experiment,90,↓,up,↑,0.8836987999966368,False,35,1
AC-K-26K26S1,643,experiment,104,←,left,←,0.6372865000739694,True,35,1
AC-K-26K26S1,644,experiment,53,←,left,←,0.7699706999119371,True,35,1
AC-K-26K26S1,645,experiment,99,↓,down,↓,1.1222852000501007,True,35,1
AC-K-26K26S1,646,experiment,54,→,right,→,0.8346781999571249,True,35,1
AC-K-26K26S1,647,experiment,59,→,right,→,0.8774014000082389,True,35,1
AC-K-26K26S1,648,experiment,75,↓,down,↓,0.8011202000780031,True,35,1
AC-K-26K26S1,649,experiment,57,←,left,←,0.7498617999954149,True,35,1
AC-K-26K26S1,650,experiment,82,→,right,→,0.8361978000029922,True,35,1
AC-K-26K26S1,651,experiment,67,↓,down,↓,0.6923523000441492,True,35,1
AC-K-26K26S1,652,experiment,71,↓,down,↓,0.736684100003913,True,35,1
AC-K-26K26S1,653,experiment,103,↑,up,↑,0.7046682999935001,True,35,1
AC-K-26K26S1,654,experiment,56,→,right,→,0.8253283000085503,True,35,1
AC-K-26K26S1,655,experiment,70,↑,up,↑,0.6247908000368625,True,35,1
AC-K-26K26S1,656,experiment,105,→,right,→,0.8365030999993905,True,35,1
AC-K-26K26S1,657,experiment,62,←,left,←,1.9261694999877363,True,35,1
AC-K-26K26S1,658,experiment,87,→,right,→,0.8677804000908509,True,35,1
AC-K-26K26S1,659,experiment,102,→,right,→,0.7666618999792263,True,35,1
AC-K-26K26S1,660,experiment,66,←,left,←,0.7299620000412688,True,35,1
AC-K-26K26S1,661,experiment,65,→,right,→,0.7902941000647843,True,35,1
AC-K-26K26S1,662,experiment,68,↓,down,↓,0.7037651999853551,True,35,1
AC-K-26K26S1,663,experiment,101,→,right,→,0.8895890000276268,True,35,1
AC-K-26K26S1,664,experiment,52,→,no_key,no_letter,-1.0,False,35,1
AC-K-26K26S1,665,experiment,72,↓,down,↓,0.7013053999980912,True,35,1
AC-K-26K26S1,666,experiment,92,↑,up,↑,0.7384566999971867,True,35,1
AC-K-26K26S1,667,experiment,91,↑,up,↑,0.6141533000627533,True,35,1
AC-K-26K26S1,668,experiment,88,→,down,↓,1.7600906000006944,False,35,1
AC-K-26K26S1,669,experiment,64,→,right,→,0.715660999994725,True,35,1
AC-K-26K26S1,670,experiment,107,←,left,←,0.6760470999870449,True,35,1
AC-K-26K26S1,671,training,96,→,right,→,0.7247093999758363,True,34,0
AC-K-26K26S1,672,training,78,→,right,→,0.6531215000431985,True,34,1
AC-K-26K26S1,673,experiment,82,←,left,←,0.5193114000139758,True,34,1
AC-K-26K26S1,674,experiment,60,↑,up,↑,0.6943239000393078,True,34,1
AC-K-26K26S1,675,experiment,84,←,left,←,0.558165300055407,True,34,1
AC-K-26K26S1,676,experiment,80,→,right,→,0.7171069999458268,True,34,1
AC-K-26K26S1,677,experiment,64,←,left,←,0.6347888000309467,True,34,1
AC-K-26K26S1,678,experiment,81,→,right,→,0.6701292999787256,True,34,1
AC-K-26K26S1,679,experiment,85,→,down,↓,0.8304104000562802,False,34,1
AC-K-26K26S1,680,experiment,105,↑,up,↑,0.8578277999768034,True,34,1
AC-K-26K26S1,681,experiment,56,↓,down,↓,0.6923821999225765,True,34,1
AC-K-26K26S1,682,experiment,75,↓,down,↓,0.6715635000728071,True,34,1
AC-K-26K26S1,683,experiment,102,↓,up,↑,0.7945784999756142,False,34,1
AC-K-26K26S1,684,experiment,106,↑,up,↑,0.9907333999872208,True,34,1
AC-K-26K26S1,685,experiment,107,←,left,←,0.8273163000121713,True,34,1
AC-K-26K26S1,686,experiment,99,↑,up,↑,0.6008835999527946,True,34,1
AC-K-26K26S1,687,experiment,70,→,down,↓,1.5052665000548586,False,34,1
AC-K-26K26S1,688,experiment,50,→,right,→,0.8679427999304608,True,34,1
AC-K-26K26S1,689,experiment,79,←,left,←,0.806455000070855,True,34,1
AC-K-26K26S1,690,experiment,68,↓,up,↑,0.5752962999977171,False,34,1
AC-K-26K26S1,691,experiment,98,↑,up,↑,0.567264899960719,True,34,1
AC-K-26K26S1,692,experiment,73,→,right,→,0.7840132999699563,True,34,1
AC-K-26K26S1,693,experiment,62,←,no_key,no_letter,-1.0,False,34,1
AC-K-26K26S1,694,experiment,77,→,up,↑,0.6755413999781013,False,34,1
AC-K-26K26S1,695,experiment,97,↓,down,↓,0.6880507000023499,True,34,1
AC-K-26K26S1,696,experiment,86,↓,down,↓,0.6476065999595448,True,34,1
AC-K-26K26S1,697,experiment,53,↑,up,↑,0.5718221000861377,True,34,1
AC-K-26K26S1,698,experiment,103,←,up,↑,0.5463176000630483,False,34,1
AC-K-26K26S1,699,experiment,58,←,left,←,0.59288559993729,True,34,1
AC-K-26K26S1,700,experiment,74,→,left,←,0.5287829999579117,False,34,1
AC-K-26K26S1,701,experiment,100,←,left,←,0.5615862000267953,True,34,1
AC-K-26K26S1,702,experiment,67,↑,no_key,no_letter,-1.0,False,34,1
AC-K-26K26S1,703,experiment,72,←,left,←,0.5423530999105424,True,34,1
AC-K-26K26S1,704,experiment,61,→,no_key,no_letter,-1.0,False,34,1
AC-K-26K26S1,705,experiment,49,→,right,→,0.7652986999601126,True,34,1
AC-K-26K26S1,706,experiment,87,←,left,←,0.6892385999672115,True,34,1
AC-K-26K26S1,707,experiment,104,↑,no_key,no_letter,-1.0,False,34,1
AC-K-26K26S1,708,experiment,59,→,right,→,0.776611499954015,True,34,1
AC-K-26K26S1,709,experiment,66,↑,up,↑,0.7233604999491945,True,34,1
AC-K-26K26S1,710,experiment,65,↑,up,↑,0.5763908000662923,True,34,1
AC-K-26K26S1,711,experiment,94,↑,up,↑,0.48963999992702156,True,34,1
AC-K-26K26S1,712,experiment,48,→,right,→,0.7577971999999136,True,34,1
AC-K-26K26S1,713,experiment,88,↑,up,↑,0.5777999999700114,True,34,1
AC-K-26K26S1,714,experiment,71,←,left,←,0.714875299949199,True,34,1
AC-K-26K26S1,715,experiment,95,↓,down,↓,0.8622330999933183,True,34,1
AC-K-26K26S1,716,experiment,108,↓,down,↓,0.7515318000223488,True,34,1
AC-K-26K26S1,717,experiment,69,↑,up,↑,0.5383092999691144,True,34,1
AC-K-26K26S1,718,experiment,93,←,left,←,0.6052601999836043,True,34,1
AC-K-26K26S1,719,experiment,101,↓,down,↓,0.6910768001107499,True,34,1
AC-K-26K26S1,720,experiment,52,→,left,←,0.7256650000344962,False,34,1
AC-K-26K26S1,721,experiment,57,→,right,→,0.8214072999544442,True,34,1
AC-K-26K26S1,722,experiment,90,←,left,←,0.6624293000204489,True,34,1
AC-K-26K26S1,723,experiment,83,↑,up,↑,0.5915424999548122,True,34,1
AC-K-26K26S1,724,experiment,92,↓,down,↓,0.8809320000000298,True,34,1
AC-K-26K26S1,725,experiment,54,←,left,←,0.7232009000144899,True,34,1
AC-K-26K26S1,726,experiment,55,→,right,→,0.8839406999759376,True,34,1
AC-K-26K26S1,727,experiment,51,←,no_key,no_letter,-1.0,False,34,1
AC-K-26K26S1,728,experiment,63,→,right,→,0.7636884999228641,True,34,1
AC-K-26K26S1,729,experiment,78,→,left,←,0.8426593000767753,False,34,1
AC-K-26K26S1,730,experiment,76,↓,down,↓,0.7113215000135824,True,34,1
AC-K-26K26S1,731,experiment,96,↓,down,↓,0.6588373999111354,True,34,1
AC-K-26K26S1,732,experiment,91,←,left,←,0.8895813999697566,True,34,1
AC-K-26K26S1,733,experiment,89,↑,up,↑,0.7280446999939159,True,34,1
AC-K-26K26S1,734,training,104,→,right,→,0.6937060999916866,True,34,0
AC-K-26K26S1,735,training,63,←,left,←,0.7803150999825448,True,34,1
AC-K-26K26S1,736,experiment,62,←,left,←,0.49612000002525747,True,34,1
AC-K-26K26S1,737,experiment,106,↑,up,↑,0.6645913999527693,True,34,1
AC-K-26K26S1,738,experiment,57,→,right,→,0.666514000040479,True,34,1
AC-K-26K26S1,739,experiment,54,↑,up,↑,0.5336951999925077,True,34,1
AC-K-26K26S1,740,experiment,92,→,right,→,0.5933489999733865,True,34,1
AC-K-26K26S1,741,experiment,78,←,left,←,0.6789020000724122,True,34,1
AC-K-26K26S1,742,experiment,85,←,left,←,0.5114495999878272,True,34,1
AC-K-26K26S1,743,experiment,58,→,right,→,0.6794776000315323,True,34,1
AC-K-26K26S1,744,experiment,66,→,right,→,0.9017639000667259,True,34,1
AC-K-26K26S1,745,experiment,102,→,right,→,0.807664499967359,True,34,1
AC-K-26K26S1,746,experiment,71,→,right,→,0.647376999957487,True,34,1
AC-K-26K26S1,747,experiment,55,←,right,→,0.5786105999723077,False,34,1
AC-K-26K26S1,748,experiment,99,←,left,←,0.6584503999911249,True,34,1
AC-K-26K26S1,749,experiment,67,↓,down,↓,0.7693684999831021,True,34,1
AC-K-26K26S1,750,experiment,76,↓,down,↓,0.689261700026691,True,34,1
AC-K-26K26S1,751,experiment,72,←,left,←,0.5891210000263527,True,34,1
AC-K-26K26S1,752,experiment,68,→,left,←,0.5186103000305593,False,34,1
AC-K-26K26S1,753,experiment,98,←,left,←,0.5448085999814793,True,34,1
AC-K-26K26S1,754,experiment,52,↓,down,↓,0.6973981999326497,True,34,1
AC-K-26K26S1,755,experiment,108,↑,up,↑,0.5770485999528319,True,34,1
AC-K-26K26S1,756,experiment,104,↓,down,↓,0.8070848999777809,True,34,1
AC-K-26K26S1,757,experiment,64,↓,down,↓,0.7052570000523701,True,34,1
AC-K-26K26S1,758,experiment,59,←,left,←,0.6168972000014037,True,34,1
AC-K-26K26S1,759,experiment,86,↓,down,↓,0.6834136999677867,True,34,1
AC-K-26K26S1,760,experiment,95,→,left,←,0.655930700013414,False,34,1
AC-K-26K26S1,761,experiment,61,↑,up,↑,0.7130700000561774,True,34,1
AC-K-26K26S1,762,experiment,91,←,left,←,0.6218357000034302,True,34,1
AC-K-26K26S1,763,experiment,100,←,left,←,0.531144000007771,True,34,1
AC-K-26K26S1,764,experiment,79,→,right,→,0.7392100000288337,True,34,1
AC-K-26K26S1,765,experiment,105,←,left,←,0.5780483999988064,True,34,1
AC-K-26K26S1,766,experiment,50,↑,up,↑,0.7703816000139341,True,34,1
AC-K-26K26S1,767,experiment,97,←,left,←,0.5469711000332609,True,34,1
AC-K-26K26S1,768,experiment,88,↓,no_key,no_letter,-1.0,False,34,1
AC-K-26K26S1,769,experiment,84,↓,down,↓,0.8286912000039592,True,34,1
AC-K-26K26S1,770,experiment,90,←,left,←,0.6370649000164121,True,34,1
AC-K-26K26S1,771,experiment,60,↑,up,↑,0.6073378999717534,True,34,1
AC-K-26K26S1,772,experiment,101,↓,down,↓,0.7249518000753596,True,34,1
AC-K-26K26S1,773,experiment,107,←,left,←,0.5080068000825122,True,34,1
AC-K-26K26S1,774,experiment,56,↓,no_key,no_letter,-1.0,False,34,1
AC-K-26K26S1,775,experiment,93,↓,down,↓,0.863346700090915,True,34,1
AC-K-26K26S1,776,experiment,83,↑,up,↑,0.5285755000077188,True,34,1
AC-K-26K26S1,777,experiment,87,↑,up,↑,0.49392190005164593,True,34,1
AC-K-26K26S1,778,experiment,74,←,left,←,0.633355800062418,True,34,1
AC-K-26K26S1,779,experiment,51,→,right,→,0.8548087000381202,True,34,1
AC-K-26K26S1,780,experiment,77,→,right,→,0.49054430006071925,True,34,1
AC-K-26K26S1,781,experiment,94,↓,up,↑,1.3273072000592947,False,34,1
AC-K-26K26S1,782,experiment,53,↑,up,↑,0.5281636000145227,True,34,1
AC-K-26K26S1,783,experiment,63,↓,down,↓,0.6296683999244124,True,34,1
AC-K-26K26S1,784,experiment,48,←,left,←,0.6439276000019163,True,34,1
AC-K-26K26S1,785,experiment,73,↓,down,↓,0.801728899939917,True,34,1
AC-K-26K26S1,786,experiment,80,↑,up,↑,0.5346742999972776,True,34,1
AC-K-26K26S1,787,experiment,96,↓,up,↑,0.5848740000510588,False,34,1
AC-K-26K26S1,788,experiment,65,→,right,→,0.7396283999551088,True,34,1
AC-K-26K26S1,789,experiment,82,→,right,→,0.5783189999638125,True,34,1
AC-K-26K26S1,790,experiment,81,↓,up,↑,0.5359987000701949,False,34,1
AC-K-26K26S1,791,experiment,89,↑,left,←,1.3887471000198275,False,34,1
AC-K-26K26S1,792,experiment,75,↓,down,↓,0.8598029999993742,True,34,1
AC-K-26K26S1,793,experiment,49,←,left,←,0.5847476999042556,True,34,1
AC-K-26K26S1,794,experiment,69,←,no_key,no_letter,-1.0,False,34,1
AC-K-26K26S1,795,experiment,103,↓,down,↓,0.6332624000497162,True,34,1
AC-K-26K26S1,796,experiment,70,↓,down,↓,0.6004105000756681,True,34,1
AC-K-26K26S1,797,training,85,←,left,←,0.5866871000034735,True,34,0
AC-K-26K26S1,798,training,96,→,right,→,1.27469749993179,True,34,1
AC-K-26K26S1,799,experiment,90,←,left,←,0.5771660000318661,True,34,1
AC-K-26K26S1,800,experiment,56,←,left,←,0.471253199968487,True,34,1
AC-K-26K26S1,801,experiment,70,↓,down,↓,0.7408625000389293,True,34,1
AC-K-26K26S1,802,experiment,100,←,left,←,0.8055158000206575,True,34,1
AC-K-26K26S1,803,experiment,83,→,left,←,1.8330331000033766,False,34,1
AC-K-26K26S1,804,experiment,108,→,right,→,1.139314299914986,True,34,1
AC-K-26K26S1,805,experiment,104,↓,down,↓,0.7146196000976488,True,34,1
AC-K-26K26S1,806,experiment,52,↑,up,↑,0.6042713000206277,True,34,1
AC-K-26K26S1,807,experiment,98,→,right,→,0.8430301999906078,True,34,1
AC-K-26K26S1,808,experiment,107,↓,down,↓,0.7736310999607667,True,34,1
AC-K-26K26S1,809,experiment,68,↑,up,↑,0.6634014999726787,True,34,1
AC-K-26K26S1,810,experiment,57,↑,up,↑,0.46552329999394715,True,34,1
AC-K-26K26S1,811,experiment,73,↑,down,↓,0.7821201001061127,False,34,1
AC-K-26K26S1,812,experiment,101,→,right,→,0.9807537000160664,True,34,1
AC-K-26K26S1,813,experiment,95,↑,up,↑,0.517635100055486,True,34,1
AC-K-26K26S1,814,experiment,69,↑,up,↑,0.633618799969554,True,34,1
AC-K-26K26S1,815,experiment,75,→,right,→,0.7108946999069303,True,34,1
AC-K-26K26S1,816,experiment,67,←,left,←,0.5960378999589011,True,34,1
AC-K-26K26S1,817,experiment,51,→,right,→,0.7387527000391856,True,34,1
AC-K-26K26S1,818,experiment,49,←,left,←,0.5723819000413641,True,34,1
AC-K-26K26S1,819,experiment,99,↑,up,↑,0.5484462999738753,True,34,1
AC-K-26K26S1,820,experiment,74,→,right,→,0.701234900043346,True,34,1
AC-K-26K26S1,821,experiment,64,←,left,←,0.6276522999396548,True,34,1
AC-K-26K26S1,822,experiment,60,←,left,←,0.662508999928832,True,34,1
AC-K-26K26S1,823,experiment,58,→,right,→,0.7124327999772504,True,34,1
AC-K-26K26S1,824,experiment,93,↓,down,↓,0.8282962000230327,True,34,1
AC-K-26K26S1,825,experiment,66,←,left,←,0.5969028000254184,True,34,1
AC-K-26K26S1,826,experiment,48,→,right,→,1.7807628000155091,True,34,1
AC-K-26K26S1,827,experiment,65,→,right,→,0.663329100003466,True,34,1
AC-K-26K26S1,828,experiment,72,↓,down,↓,0.7482582000084221,True,34,1
AC-K-26K26S1,829,experiment,59,→,right,→,0.7146597999380901,True,34,1
AC-K-26K26S1,830,experiment,76,↓,down,↓,0.7161969000007957,True,34,1
AC-K-26K26S1,831,experiment,78,←,left,←,0.6932030000025406,True,34,1
AC-K-26K26S1,832,experiment,85,←,left,←,0.6851494000293314,True,34,1
AC-K-26K26S1,833,experiment,102,→,right,→,0.8553161000600085,True,34,1
AC-K-26K26S1,834,experiment,53,↑,up,↑,0.603030199999921,True,34,1
AC-K-26K26S1,835,experiment,89,→,left,←,0.588685900089331,False,34,1
AC-K-26K26S1,836,experiment,61,→,right,→,0.872360699926503,True,34,1
AC-K-26K26S1,837,experiment,84,↓,down,↓,0.7531269999453798,True,34,1
AC-K-26K26S1,838,experiment,94,→,right,→,0.8909648999106139,True,34,1
AC-K-26K26S1,839,experiment,96,↓,down,↓,0.6550456000259146,True,34,1
AC-K-26K26S1,840,experiment,55,←,left,←,0.682206799974665,True,34,1
AC-K-26K26S1,841,experiment,91,←,left,←,0.9200536999851465,True,34,1
AC-K-26K26S1,842,experiment,50,→,no_key,no_letter,-1.0,False,34,1
AC-K-26K26S1,843,experiment,63,←,left,←,0.49540240003261715,True,34,1
AC-K-26K26S1,844,experiment,105,←,left,←,0.527953999931924,True,34,1
AC-K-26K26S1,845,experiment,87,→,no_key,no_letter,-1.0,False,34,1
AC-K-26K26S1,846,experiment,86,↑,down,↓,0.8264684000751004,False,34,1
AC-K-26K26S1,847,experiment,106,↓,down,↓,0.6776933999499306,True,34,1
AC-K-26K26S1,848,experiment,81,→,right,→,0.703461299999617,True,34,1
AC-K-26K26S1,849,experiment,88,↑,down,↓,0.8216007999144495,False,34,1
AC-K-26K26S1,850,experiment,82,←,left,←,0.6012047999538481,True,34,1
AC-K-26K26S1,851,experiment,97,↑,up,↑,0.6085270000621676,True,34,1
AC-K-26K26S1,852,experiment,71,↓,down,↓,0.688297399901785,True,34,1
AC-K-26K26S1,853,experiment,80,→,right,→,0.689806199981831,True,34,1
AC-K-26K26S1,854,experiment,92,↓,down,↓,0.6629074999364093,True,34,1
AC-K-26K26S1,855,experiment,54,←,left,←,0.7619867000030354,True,34,1
AC-K-26K26S1,856,experiment,77,→,right,→,0.7853552999440581,True,34,1
AC-K-26K26S1,857,experiment,62,↑,up,↑,0.5652093000244349,True,34,1
AC-K-26K26S1,858,experiment,79,→,right,→,0.907962099998258,True,34,1
AC-K-26K26S1,859,experiment,103,←,left,←,0.6130443000001833,True,34,1
AC-K-26K26S1,860,training,92,←,left,←,0.6490082000382245,True,34,0
AC-K-26K26S1,861,training,76,↑,up,↑,0.5492028999142349,True,34,1
AC-K-26K26S1,862,experiment,48,→,right,→,0.7109778999583796,True,34,1
AC-K-26K26S1,863,experiment,51,→,right,→,0.6413777000270784,True,34,1
AC-K-26K26S1,864,experiment,56,↑,up,↑,0.6050854000495747,True,34,1
AC-K-26K26S1,865,experiment,64,↓,down,↓,0.7992087000748143,True,34,1
AC-K-26K26S1,866,experiment,92,↓,down,↓,0.6720651999348775,True,34,1
AC-K-26K26S1,867,experiment,83,↑,up,↑,0.5530924999620765,True,34,1
AC-K-26K26S1,868,experiment,73,↓,down,↓,0.7221894999966025,True,34,1
AC-K-26K26S1,869,experiment,94,↑,up,↑,0.6052884999662638,True,34,1
AC-K-26K26S1,870,experiment,100,↑,up,↑,0.5153587999520823,True,34,1
AC-K-26K26S1,871,experiment,70,←,left,←,0.6794354000594467,True,34,1
AC-K-26K26S1,872,experiment,61,↑,up,↑,0.4558976999251172,True,34,1
AC-K-26K26S1,873,experiment,90,↓,down,↓,0.8147243000566959,True,34,1
AC-K-26K26S1,874,experiment,101,←,right,→,0.811841499991715,False,34,1
AC-K-26K26S1,875,experiment,97,→,right,→,0.7550912000006065,True,34,1
AC-K-26K26S1,876,experiment,54,→,right,→,0.7623701000120491,True,34,1
AC-K-26K26S1,877,experiment,66,↑,right,→,0.6858407000545412,False,34,1
AC-K-26K26S1,878,experiment,71,←,right,→,0.858222300070338,False,34,1
AC-K-26K26S1,879,experiment,108,↓,down,↓,0.8035085999872535,True,34,1
AC-K-26K26S1,880,experiment,96,→,right,→,0.7388106000144035,True,34,1
AC-K-26K26S1,881,experiment,77,↑,up,↑,0.5714185999240726,True,34,1
AC-K-26K26S1,882,experiment,69,→,right,→,0.7170311999507248,True,34,1
AC-K-26K26S1,883,experiment,68,←,left,←,0.817269999999553,True,34,1
AC-K-26K26S1,884,experiment,50,↑,up,↑,0.8878124000038952,True,34,1
AC-K-26K26S1,885,experiment,57,↑,up,↑,0.6811518000904471,True,34,1
AC-K-26K26S1,886,experiment,75,←,left,←,0.7168206999776885,True,34,1
AC-K-26K26S1,887,experiment,79,↓,down,↓,0.8454159999964759,True,34,1
AC-K-26K26S1,888,experiment,58,↑,down,↓,0.8160354000283405,False,34,1
AC-K-26K26S1,889,experiment,106,↑,up,↑,0.6357140999753028,True,34,1
AC-K-26K26S1,890,experiment,95,←,left,←,0.6901958999224007,True,34,1
AC-K-26K26S1,891,experiment,104,←,left,←,0.7394977000076324,True,34,1
AC-K-26K26S1,892,experiment,99,↑,left,←,0.4005313999950886,False,34,1
AC-K-26K26S1,893,experiment,86,←,left,←,0.5993690000614151,True,34,0
AC-K-26K26S1,894,experiment,74,↓,left,←,0.5583443999057636,False,34,1
AC-K-26K26S1,895,experiment,102,↑,up,↑,0.6538558000465855,True,34,1
AC-K-26K26S1,896,experiment,53,↑,up,↑,1.0097711000125855,True,34,1
AC-K-26K26S1,897,experiment,84,→,left,←,0.6772486000554636,False,34,1
AC-K-26K26S1,898,experiment,76,↓,down,↓,0.9123853999190032,True,34,1
AC-K-26K26S1,899,experiment,60,→,right,→,0.6872890999075025,True,34,1
AC-K-26K26S1,900,experiment,81,←,left,←,0.6162565000122413,True,34,1
AC-K-26K26S1,901,experiment,59,←,left,←,0.5557098999852315,True,34,1
AC-K-26K26S1,902,experiment,91,↓,down,↓,0.9108036999823526,True,34,1
AC-K-26K26S1,903,experiment,78,←,left,←,0.5522747999057174,True,34,1
AC-K-26K26S1,904,experiment,103,↑,up,↑,0.48727280006278306,True,34,1
AC-K-26K26S1,905,experiment,67,←,left,←,0.5890013999305665,True,34,1
AC-K-26K26S1,906,experiment,63,↓,down,↓,0.8001685999333858,True,34,1
AC-K-26K26S1,907,experiment,87,←,left,←,0.6267663999460638,True,34,1
AC-K-26K26S1,908,experiment,49,←,left,←,0.4890182000817731,True,34,1
AC-K-26K26S1,909,experiment,82,→,left,←,1.36985639994964,False,34,1
AC-K-26K26S1,910,experiment,98,→,left,←,0.5698781000683084,False,34,1
AC-K-26K26S1,911,experiment,107,←,left,←,0.535171200055629,True,34,1
AC-K-26K26S1,912,experiment,89,↓,down,↓,0.8358023000182584,True,34,1
AC-K-26K26S1,913,experiment,85,←,left,←,0.8536774999229237,True,34,1
AC-K-26K26S1,914,experiment,62,↓,down,↓,0.7026118999347091,True,34,1
AC-K-26K26S1,915,experiment,52,↑,up,↑,0.6009846000233665,True,34,1
AC-K-26K26S1,916,experiment,105,←,left,←,0.6617300000507385,True,34,1
AC-K-26K26S1,917,experiment,88,←,left,←,0.5257443999871612,True,34,1
AC-K-26K26S1,918,experiment,80,↑,up,↑,0.5816702999873087,True,34,1
AC-K-26K26S1,919,experiment,72,↓,down,↓,0.7824980000732467,True,34,1
AC-K-26K26S1,920,experiment,55,↓,down,↓,0.6602991000982001,True,34,1
AC-K-26K26S1,921,experiment,93,↑,up,↑,0.45120620005764067,True,34,1
AC-K-26K26S1,922,experiment,65,↑,up,↑,0.6183572999434546,True,34,0
AC-K-26K26S1,923,training,82,↑,up,↑,0.6253672000020742,True,34,0
AC-K-26K26S1,924,training,67,→,left,←,0.5777840000810102,False,34,1
AC-K-26K26S1,925,experiment,91,→,right,→,0.8842187999980524,True,34,1
AC-K-26K26S1,926,experiment,97,↑,up,↑,0.6001521999714896,True,34,1
AC-K-26K26S1,927,experiment,103,↑,down,↓,0.8052638999652117,False,34,1
AC-K-26K26S1,928,experiment,104,→,right,→,0.9700898000737652,True,34,1
AC-K-26K26S1,929,experiment,60,←,right,→,0.6869942999910563,False,34,1
AC-K-26K26S1,930,experiment,106,↑,up,↑,0.7921002000803128,True,34,1
AC-K-26K26S1,931,experiment,84,↑,up,↑,0.5242510000243783,True,34,1
AC-K-26K26S1,932,experiment,94,↓,down,↓,0.7275371999712661,True,34,1
AC-K-26K26S1,933,experiment,52,←,right,→,0.7209455000702292,False,34,1
AC-K-26K26S1,934,experiment,89,←,up,↑,0.6618604999966919,False,34,1
AC-K-26K26S1,935,experiment,65,→,left,←,0.9415827998891473,False,34,1
AC-K-26K26S1,936,experiment,96,↓,down,↓,0.7597142000449821,True,34,1
AC-K-26K26S1,937,experiment,73,→,right,→,0.7446786999935284,True,34,1
AC-K-26K26S1,938,experiment,90,↑,up,↑,0.7084987999405712,True,34,1
AC-K-26K26S1,939,experiment,70,↑,up,↑,0.5047798999585211,True,34,1
AC-K-26K26S1,940,experiment,66,↑,up,↑,0.5260965001070872,True,34,1
AC-K-26K26S1,941,experiment,62,↑,up,↑,0.4926137999864295,True,34,1
AC-K-26K26S1,942,experiment,85,↓,down,↓,0.7642489999998361,True,34,1
AC-K-26K26S1,943,experiment,54,→,right,→,0.8111115000210702,True,34,1
AC-K-26K26S1,944,experiment,108,←,left,←,0.7103504999540746,True,34,1
AC-K-26K26S1,945,experiment,93,←,left,←,0.6428095999872312,True,34,1
AC-K-26K26S1,946,experiment,56,→,right,→,0.7181375999934971,True,34,1
AC-K-26K26S1,947,experiment,61,↑,up,↑,0.8055997000774369,True,34,1
AC-K-26K26S1,948,experiment,55,→,right,→,0.7703577000647783,True,34,1
AC-K-26K26S1,949,experiment,48,↑,up,↑,0.6987559000262991,True,34,1
AC-K-26K26S1,950,experiment,99,↓,up,↑,0.5972071998985484,False,34,1
AC-K-26K26S1,951,experiment,72,←,left,←,0.7491535000735894,True,34,1
AC-K-26K26S1,952,experiment,87,↑,up,↑,0.5697684000479057,True,34,1
AC-K-26K26S1,953,experiment,78,→,left,←,0.6968625999288633,False,34,1
AC-K-26K26S1,954,experiment,98,→,right,→,0.9317983000073582,True,34,1
AC-K-26K26S1,955,experiment,80,→,right,→,0.899516399949789,True,34,1
AC-K-26K26S1,956,experiment,102,→,left,←,0.5971195000456646,False,34,1
AC-K-26K26S1,957,experiment,74,↓,left,←,0.5561791000654921,False,34,1
AC-K-26K26S1,958,experiment,57,→,right,→,0.8187366999918595,True,34,1
AC-K-26K26S1,959,experiment,76,↑,down,↓,1.1522230000700802,False,34,1
AC-K-26K26S1,960,experiment,68,↓,down,↓,0.715342800016515,True,34,1
AC-K-26K26S1,961,experiment,82,↓,down,↓,0.7469712001038715,True,34,1
AC-K-26K26S1,962,experiment,79,↓,down,↓,0.5707724000094458,True,34,1
AC-K-26K26S1,963,experiment,63,↓,down,↓,0.6624834999674931,True,34,1
AC-K-26K26S1,964,experiment,92,↑,up,↑,0.7169758999953046,True,34,1
AC-K-26K26S1,965,experiment,64,←,left,←,0.8266358999535441,True,34,1
AC-K-26K26S1,966,experiment,81,↑,up,↑,0.6461820000549778,True,34,1
AC-K-26K26S1,967,experiment,67,→,right,→,0.8220228999853134,True,34,1
AC-K-26K26S1,968,experiment,86,↑,up,↑,0.703661400009878,True,34,1
AC-K-26K26S1,969,experiment,107,↑,up,↑,0.5517458999529481,True,34,1
AC-K-26K26S1,970,experiment,69,↓,down,↓,0.6502970000728965,True,34,1
AC-K-26K26S1,971,experiment,58,→,left,←,0.812399800051935,False,34,1
AC-K-26K26S1,972,experiment,75,←,left,←,0.6427690999116749,True,34,1
AC-K-26K26S1,973,experiment,95,↑,up,↑,1.4569213999202475,True,34,1
AC-K-26K26S1,974,experiment,88,↑,up,↑,0.6649541000369936,True,34,1
AC-K-26K26S1,975,experiment,53,←,left,←,0.7322570000542328,True,34,1
AC-K-26K26S1,976,experiment,50,←,left,←,0.6539122000103816,True,34,1
AC-K-26K26S1,977,experiment,77,↑,up,↑,0.7778176999418065,True,34,1
AC-K-26K26S1,978,experiment,83,→,left,←,1.4466428000014275,False,34,1
AC-K-26K26S1,979,experiment,105,←,left,←,0.6333101999480277,True,34,1
AC-K-26K26S1,980,experiment,59,↓,up,↑,0.62806689995341,False,34,1
AC-K-26K26S1,981,experiment,100,↓,down,↓,0.7214568000053987,True,34,1
AC-K-26K26S1,982,experiment,71,→,left,←,0.8764694000128657,False,34,1
AC-K-26K26S1,983,experiment,49,→,right,→,0.8088546000653878,True,34,1
AC-K-26K26S1,984,experiment,51,←,left,←,0.5993683999404311,True,34,1
AC-K-26K26S1,985,experiment,101,→,left,←,0.6291514999466017,False,34,1
AC-K-26K26S1,986,training,88,→,right,→,0.8107842999743298,True,34,0
AC-K-26K26S1,987,training,82,←,right,→,0.654748099972494,False,34,1
AC-K-26K26S1,988,experiment,97,↑,down,↓,0.8517569999676198,False,34,1
AC-K-26K26S1,989,experiment,84,↑,up,↑,0.6137921999907121,True,34,1
AC-K-26K26S1,990,experiment,61,→,right,→,0.7681577999610454,True,34,1
AC-K-26K26S1,991,experiment,50,↑,up,↑,0.5762520999414846,True,34,1
AC-K-26K26S1,992,experiment,60,←,left,←,0.5811349999858066,True,34,1
AC-K-26K26S1,993,experiment,66,←,left,←,0.48742440005298704,True,34,1
AC-K-26K26S1,994,experiment,75,↓,up,↑,0.6184592000208795,False,34,1
AC-K-26K26S1,995,experiment,55,←,left,←,0.6553780999965966,True,34,1
AC-K-26K26S1,996,experiment,52,↓,up,↑,0.5312685000244528,False,34,1
AC-K-26K26S1,997,experiment,56,↓,down,↓,0.5951712999958545,True,34,1
AC-K-26K26S1,998,experiment,54,↓,down,↓,0.69717849988956,True,34,1
AC-K-26K26S1,999,experiment,90,←,left,←,0.6391279000090435,True,34,1
AC-K-26K26S1,1000,experiment,78,↓,down,↓,0.6430682999780402,True,34,1
AC-K-26K26S1,1001,experiment,48,→,right,→,0.8649942999472842,True,34,1
AC-K-26K26S1,1002,experiment,49,←,right,→,0.8536471000406891,False,34,1
AC-K-26K26S1,1003,experiment,107,←,right,→,0.7434926999267191,False,34,1
AC-K-26K26S1,1004,experiment,74,←,left,←,0.5848318999633193,True,34,1
AC-K-26K26S1,1005,experiment,100,→,left,←,0.591748800012283,False,34,1
AC-K-26K26S1,1006,experiment,80,←,left,←,0.6293268000008538,True,34,1
AC-K-26K26S1,1007,experiment,101,←,left,←,0.5141499999444932,True,34,1
AC-K-26K26S1,1008,experiment,103,↑,up,↑,0.7307929999660701,True,34,1
AC-K-26K26S1,1009,experiment,106,↑,up,↑,0.5618684999644756,True,34,1
AC-K-26K26S1,1010,experiment,94,←,left,←,0.6675856999354437,True,34,1
AC-K-26K26S1,1011,experiment,108,↑,down,↓,0.8368467000545934,False,34,1
AC-K-26K26S1,1012,experiment,81,→,no_key,no_letter,-1.0,False,34,1
AC-K-26K26S1,1013,experiment,98,↑,up,↑,0.6966085999738425,True,34,1
AC-K-26K26S1,1014,experiment,82,↑,up,↑,0.5848190999822691,True,34,1
AC-K-26K26S1,1015,experiment,93,↑,up,↑,0.5061592999845743,True,34,1
AC-K-26K26S1,1016,experiment,96,←,left,←,0.6696872999891639,True,34,1
AC-K-26K26S1,1017,experiment,83,↓,down,↓,0.7031005000462756,True,34,1
AC-K-26K26S1,1018,experiment,53,←,left,←,0.6650050000753254,True,34,1
AC-K-26K26S1,1019,experiment,73,↓,down,↓,0.6614491000073031,True,34,1
AC-K-26K26S1,1020,experiment,57,→,left,←,0.696023799944669,False,34,1
AC-K-26K26S1,1021,experiment,85,↓,down,↓,0.671294100000523,True,34,1
AC-K-26K26S1,1022,experiment,86,↑,up,↑,0.49527150008361787,True,34,1
AC-K-26K26S1,1023,experiment,104,→,right,→,0.7527716999175027,True,34,1
AC-K-26K26S1,1024,experiment,67,↓,down,↓,0.6678043999709189,True,34,1
AC-K-26K26S1,1025,experiment,105,↑,up,↑,0.7656749000307173,True,34,1
AC-K-26K26S1,1026,experiment,99,→,left,←,0.7096891000401229,False,34,1
AC-K-26K26S1,1027,experiment,51,↑,up,↑,0.7602124999975786,True,34,1
AC-K-26K26S1,1028,experiment,88,←,left,←,0.5961841000244021,True,34,1
AC-K-26K26S1,1029,experiment,65,↓,down,↓,0.7263229000382125,True,34,1
AC-K-26K26S1,1030,experiment,102,→,right,→,0.9110450999578461,True,34,1
AC-K-26K26S1,1031,experiment,92,↑,down,↓,1.0274717999855056,False,34,1
AC-K-26K26S1,1032,experiment,64,→,right,→,0.6929388000862673,True,34,1
AC-K-26K26S1,1033,experiment,79,→,right,→,0.6866588999982923,True,34,1
AC-K-26K26S1,1034,experiment,95,↓,down,↓,0.611502300016582,True,34,1
AC-K-26K26S1,1035,experiment,69,↓,down,↓,0.5157766999909654,True,34,1
AC-K-26K26S1,1036,experiment,87,↑,down,↓,0.5940205999650061,False,34,1
AC-K-26K26S1,1037,experiment,70,←,no_key,no_letter,-1.0,False,34,1
AC-K-26K26S1,1038,experiment,71,↑,up,↑,0.6603797000134364,True,34,1
AC-K-26K26S1,1039,experiment,72,←,no_key,no_letter,-1.0,False,34,1
AC-K-26K26S1,1040,experiment,62,→,up,↑,0.8145210000220686,False,34,1
AC-K-26K26S1,1041,experiment,68,↓,no_key,no_letter,-1.0,False,34,1
AC-K-26K26S1,1042,experiment,77,→,right,→,0.7746185000287369,True,34,1
AC-K-26K26S1,1043,experiment,76,←,left,←,0.5979401000076905,True,34,1
AC-K-26K26S1,1044,experiment,59,→,right,→,0.6900913999415934,True,34,1
AC-K-26K26S1,1045,experiment,58,←,left,←,1.1389396999729797,True,34,1
AC-K-26K26S1,1046,experiment,91,←,left,←,0.6065850999439135,True,34,1
AC-K-26K26S1,1047,experiment,63,←,left,←,0.5207975000375882,True,34,1
AC-K-26K26S1,1048,experiment,89,↓,down,↓,0.8298763000639156,True,34,1
AC-K-26K26S1,1049,training,66,↓,down,↓,0.7736037001013756,True,34,0
AC-K-26K26S1,1050,training,80,↓,down,↓,0.5638599999947473,True,34,1
AC-K-26K26S1,1051,experiment,85,↓,down,↓,0.8164190000388771,True,34,1
AC-K-26K26S1,1052,experiment,61,←,left,←,0.5230062999762595,True,34,1
AC-K-26K26S1,1053,experiment,105,←,left,←,0.547239699983038,True,34,1
AC-K-26K26S1,1054,experiment,53,→,right,→,0.7869330999674276,True,34,1
AC-K-26K26S1,1055,experiment,84,↓,down,↓,0.8629195000976324,True,34,1
AC-K-26K26S1,1056,experiment,71,→,right,→,0.8921848000027239,True,34,1
AC-K-26K26S1,1057,experiment,48,→,right,→,0.6246359000215307,True,34,1
AC-K-26K26S1,1058,experiment,97,←,left,←,0.726527199964039,True,34,1
AC-K-26K26S1,1059,experiment,50,↑,down,↓,0.9926859999541193,False,34,1
AC-K-26K26S1,1060,experiment,99,→,right,→,0.7437498000217602,True,34,1
AC-K-26K26S1,1061,experiment,92,↓,down,↓,0.6351282999385148,True,34,1
AC-K-26K26S1,1062,experiment,66,←,left,←,0.675529700005427,True,34,1
AC-K-26K26S1,1063,experiment,57,↓,down,↓,0.5813264000462368,True,34,1
AC-K-26K26S1,1064,experiment,86,←,left,←,0.6250823999289423,True,34,1
AC-K-26K26S1,1065,experiment,52,←,right,→,1.4624059000052512,False,34,1
AC-K-26K26S1,1066,experiment,73,↓,down,↓,0.6191286999965087,True,34,1
AC-K-26K26S1,1067,experiment,100,←,left,←,0.7846355000510812,True,34,1
AC-K-26K26S1,1068,experiment,70,→,right,→,0.7778734000166878,True,34,1
AC-K-26K26S1,1069,experiment,94,↑,up,↑,0.6349168999586254,True,34,1
AC-K-26K26S1,1070,experiment,78,↓,up,↑,0.6230863999808207,False,34,1
AC-K-26K26S1,1071,experiment,65,↓,down,↓,0.6961096000159159,True,34,1
AC-K-26K26S1,1072,experiment,90,↓,down,↓,0.5660441999789327,True,34,1
AC-K-26K26S1,1073,experiment,77,↓,down,↓,0.6932278999593109,True,34,1
AC-K-26K26S1,1074,experiment,96,↑,up,↑,0.5932781000155956,True,34,1
AC-K-26K26S1,1075,experiment,95,↑,up,↑,0.865758900064975,True,34,1
AC-K-26K26S1,1076,experiment,72,↑,up,↑,0.6226301999995485,True,34,1
AC-K-26K26S1,1077,experiment,56,↓,down,↓,0.7072690000059083,True,34,1
AC-K-26K26S1,1078,experiment,98,←,no_key,no_letter,-1.0,False,34,1
AC-K-26K26S1,1079,experiment,55,←,left,←,0.7166968999663368,True,34,1
AC-K-26K26S1,1080,experiment,62,↓,down,↓,0.6591432999121025,True,34,1
AC-K-26K26S1,1081,experiment,91,↓,down,↓,0.7781177000142634,True,34,1
AC-K-26K26S1,1082,experiment,81,←,left,←,0.7358430000022054,True,34,1
AC-K-26K26S1,1083,experiment,101,→,no_key,no_letter,-1.0,False,34,1
AC-K-26K26S1,1084,experiment,107,↓,down,↓,0.8061830999795347,True,34,1
AC-K-26K26S1,1085,experiment,67,←,no_key,no_letter,-1.0,False,34,1
AC-K-26K26S1,1086,experiment,93,→,right,→,1.009761100052856,True,34,1
AC-K-26K26S1,1087,experiment,87,←,left,←,0.5641503999941051,True,34,1
AC-K-26K26S1,1088,experiment,104,↑,up,↑,0.6346635000081733,True,34,1
AC-K-26K26S1,1089,experiment,64,→,left,←,1.5235510999336839,False,34,1
AC-K-26K26S1,1090,experiment,63,↓,down,↓,0.6733403999824077,True,34,1
AC-K-26K26S1,1091,experiment,79,→,right,→,0.6436376000056043,True,34,1
AC-K-26K26S1,1092,experiment,80,↑,up,↑,0.6308662999654189,True,34,1
AC-K-26K26S1,1093,experiment,76,←,right,→,1.092011599917896,False,34,1
AC-K-26K26S1,1094,experiment,106,←,no_key,no_letter,-1.0,False,34,1
AC-K-26K26S1,1095,experiment,69,←,left,←,0.5032486000563949,True,34,1
AC-K-26K26S1,1096,experiment,54,→,no_key,no_letter,-1.0,False,34,1
AC-K-26K26S1,1097,experiment,60,←,right,→,0.6860850000521168,False,34,1
AC-K-26K26S1,1098,experiment,102,→,left,←,0.8886278999270871,False,34,1
AC-K-26K26S1,1099,experiment,82,↑,up,↑,0.713217300013639,True,34,1
AC-K-26K26S1,1100,experiment,108,→,right,→,0.7040870999917388,True,34,1
AC-K-26K26S1,1101,experiment,68,↓,no_key,no_letter,-1.0,False,34,1
AC-K-26K26S1,1102,experiment,89,←,left,←,0.6967224999098107,True,34,1
AC-K-26K26S1,1103,experiment,88,←,left,←,0.5109705999493599,True,34,1
AC-K-26K26S1,1104,experiment,59,←,no_key,no_letter,-1.0,False,34,1
AC-K-26K26S1,1105,experiment,58,↓,down,↓,0.7811736000003293,True,34,1
AC-K-26K26S1,1106,experiment,49,→,no_key,no_letter,-1.0,False,34,1
AC-K-26K26S1,1107,experiment,51,←,left,←,0.5817977000260726,True,34,1
AC-K-26K26S1,1108,experiment,74,←,no_key,no_letter,-1.0,False,34,1
AC-K-26K26S1,1109,experiment,103,←,left,←,0.6286663999781013,True,34,1
AC-K-26K26S1,1110,experiment,83,↑,no_key,no_letter,-1.0,False,34,1
AC-K-26K26S1,1111,experiment,75,→,left,←,0.5518406999763101,False,34,1
AC-K-26K26S1,1112,training,66,↓,down,↓,0.6333582000806928,True,34,0
AC-K-26K26S1,1113,training,105,→,right,→,0.6285951999016106,True,34,1
AC-K-26K26S1,1114,experiment,97,↑,down,↓,0.682767599937506,False,34,1
AC-K-26K26S1,1115,experiment,79,↓,down,↓,0.6208377999719232,True,34,1
AC-K-26K26S1,1116,experiment,108,→,right,→,0.6315159999066964,True,34,1
AC-K-26K26S1,1117,experiment,89,←,left,←,0.7520529999164864,True,34,1
AC-K-26K26S1,1118,experiment,60,←,left,←,0.5978953000158072,True,34,1
AC-K-26K26S1,1119,experiment,71,↓,down,↓,0.5900601999601349,True,34,1
AC-K-26K26S1,1120,experiment,74,←,left,←,0.629574800026603,True,34,1
AC-K-26K26S1,1121,experiment,65,↑,up,↑,0.597984499996528,True,34,1
AC-K-26K26S1,1122,experiment,73,→,left,←,0.7413302999921143,False,34,1
AC-K-26K26S1,1123,experiment,62,↓,down,↓,0.6028072000481188,True,34,1
AC-K-26K26S1,1124,experiment,78,↓,down,↓,0.6246000000974163,True,34,1
AC-K-26K26S1,1125,experiment,85,↓,no_key,no_letter,-1.0,False,34,1
AC-K-26K26S1,1126,experiment,105,↓,down,↓,0.6094312000786886,True,34,1
AC-K-26K26S1,1127,experiment,95,↑,no_key,no_letter,-1.0,False,34,1
AC-K-26K26S1,1128,experiment,104,←,down,↓,0.9039985999697819,False,34,1
AC-K-26K26S1,1129,experiment,88,↓,down,↓,0.7260368000715971,True,34,1
AC-K-26K26S1,1130,experiment,75,↑,up,↑,0.6317121000029147,True,34,1
AC-K-26K26S1,1131,experiment,59,→,right,→,0.882583300000988,True,34,1
AC-K-26K26S1,1132,experiment,77,←,left,←,0.7971458999672905,True,34,1
AC-K-26K26S1,1133,experiment,87,↓,down,↓,0.6238628000719473,True,34,1
AC-K-26K26S1,1134,experiment,91,←,down,↓,0.9121507999952883,False,34,1
AC-K-26K26S1,1135,experiment,49,↑,up,↑,0.6429610000923276,True,34,1
AC-K-26K26S1,1136,experiment,99,←,left,←,0.6238585999235511,True,34,1
AC-K-26K26S1,1137,experiment,102,→,no_key,no_letter,-1.0,False,34,1
AC-K-26K26S1,1138,experiment,67,←,left,←,0.8636591000249609,True,34,1
AC-K-26K26S1,1139,experiment,52,↓,down,↓,0.755552800022997,True,34,1
AC-K-26K26S1,1140,experiment,48,←,left,←,0.724916199920699,True,34,1
AC-K-26K26S1,1141,experiment,106,↓,down,↓,0.868524800054729,True,34,1
AC-K-26K26S1,1142,experiment,107,↓,down,↓,0.5895917000016198,True,34,1
AC-K-26K26S1,1143,experiment,57,→,right,→,0.9226977999787778,True,34,1
AC-K-26K26S1,1144,experiment,61,↑,up,↑,0.561078800004907,True,34,1
AC-K-26K26S1,1145,experiment,90,←,left,←,0.4687807000009343,True,34,1
AC-K-26K26S1,1146,experiment,68,→,right,→,0.6909918999299407,True,34,1
AC-K-26K26S1,1147,experiment,82,↑,up,↑,0.6675394999329001,True,34,1
AC-K-26K26S1,1148,experiment,86,←,left,←,0.5481315000215545,True,34,1
AC-K-26K26S1,1149,experiment,93,←,left,←,0.582605000003241,True,34,1
AC-K-26K26S1,1150,experiment,58,↑,up,↑,0.6038772000465542,True,34,1
AC-K-26K26S1,1151,experiment,81,→,up,↑,0.784126800019294,False,34,1
AC-K-26K26S1,1152,experiment,50,←,left,←,0.5837444999488071,True,34,1
AC-K-26K26S1,1153,experiment,76,←,left,←,0.6788995999377221,True,34,1
AC-K-26K26S1,1154,experiment,69,↓,down,↓,0.636426700046286,True,34,1
AC-K-26K26S1,1155,experiment,100,←,right,→,0.7453860999085009,False,34,1
AC-K-26K26S1,1156,experiment,72,→,right,→,0.6109873000532389,True,34,1
AC-K-26K26S1,1157,experiment,56,↓,down,↓,0.6316065000137314,True,34,1
AC-K-26K26S1,1158,experiment,92,←,left,←,0.5676071000052616,True,34,1
AC-K-26K26S1,1159,experiment,64,↑,left,←,0.40948649996425956,False,34,1
AC-K-26K26S1,1160,experiment,98,↑,up,↑,0.513694699970074,True,34,0
AC-K-26K26S1,1161,experiment,66,→,right,→,0.7745015999535099,True,34,1
AC-K-26K26S1,1162,experiment,80,↓,down,↓,0.9566704999888316,True,34,1
AC-K-26K26S1,1163,experiment,83,↑,up,↑,0.6424440999981016,True,34,1
AC-K-26K26S1,1164,experiment,101,↓,up,↑,0.6548265001038089,False,34,1
AC-K-26K26S1,1165,experiment,96,→,right,→,0.9160336999921128,True,34,1
AC-K-26K26S1,1166,experiment,94,↓,down,↓,0.7117731999605894,True,34,1
AC-K-26K26S1,1167,experiment,70,←,left,←,0.8438538999762386,True,34,1
AC-K-26K26S1,1168,experiment,51,↓,down,↓,0.6164515999844298,True,34,1
AC-K-26K26S1,1169,experiment,54,←,up,↑,0.6136917000403628,False,34,1
AC-K-26K26S1,1170,experiment,53,←,left,←,0.6033031999832019,True,34,1
AC-K-26K26S1,1171,experiment,63,←,left,←,0.613504899898544,True,34,1
AC-K-26K26S1,1172,experiment,55,→,right,→,0.8822941000107676,True,34,1
AC-K-26K26S1,1173,experiment,103,←,left,←,0.5319629999576136,True,34,1
AC-K-26K26S1,1174,experiment,84,→,right,→,0.6266826000064611,True,34,1
AC-K-26K26S1,1175,training,90,→,right,→,0.717565800063312,True,34,0
AC-K-26K26S1,1176,training,58,↑,up,↑,0.6374196000397205,True,34,1
AC-K-26K26S1,1177,experiment,103,→,right,→,0.5289609000319615,True,34,1
AC-K-26K26S1,1178,experiment,57,↑,up,↑,0.48836399998981506,True,34,1
AC-K-26K26S1,1179,experiment,65,↑,down,↓,0.6867306000785902,False,34,1
AC-K-26K26S1,1180,experiment,91,↑,up,↑,0.5724693000083789,True,34,1
AC-K-26K26S1,1181,experiment,78,←,left,←,0.4993345000548288,True,34,1
AC-K-26K26S1,1182,experiment,69,→,right,→,0.6241052000550553,True,34,1
AC-K-26K26S1,1183,experiment,79,←,left,←,0.4765031000133604,True,34,1
AC-K-26K26S1,1184,experiment,108,→,right,→,0.6690638000145555,True,34,1
AC-K-26K26S1,1185,experiment,60,↓,down,↓,0.6461881999857724,True,34,1
AC-K-26K26S1,1186,experiment,83,←,left,←,0.5123422000324354,True,34,1
AC-K-26K26S1,1187,experiment,82,↑,up,↑,0.5680214000167325,True,34,1
AC-K-26K26S1,1188,experiment,107,↓,down,↓,0.6613789999391884,True,34,1
AC-K-26K26S1,1189,experiment,97,↓,down,↓,0.657890300033614,True,34,1
AC-K-26K26S1,1190,experiment,70,→,up,↑,0.5761201001005247,False,34,1
AC-K-26K26S1,1191,experiment,55,↓,down,↓,0.6224237999413162,True,34,1
AC-K-26K26S1,1192,experiment,66,→,right,→,0.6233658000128344,True,34,1
AC-K-26K26S1,1193,experiment,88,←,left,←,0.8244324999395758,True,34,1
AC-K-26K26S1,1194,experiment,59,←,left,←,0.8277950999327004,True,34,1
AC-K-26K26S1,1195,experiment,106,←,left,←,0.6869146999670193,True,34,1
AC-K-26K26S1,1196,experiment,96,→,left,←,0.5873453000094742,False,34,1
AC-K-26K26S1,1197,experiment,92,↓,down,↓,0.7010865999618545,True,34,1
AC-K-26K26S1,1198,experiment,104,↓,down,↓,0.6140306000597775,True,34,1
AC-K-26K26S1,1199,experiment,85,↓,down,↓,0.6088341999566182,True,34,1
AC-K-26K26S1,1200,experiment,105,↑,up,↑,0.8454402999486774,True,34,1
AC-K-26K26S1,1201,experiment,80,↑,up,↑,1.6561930000316352,True,34,1
AC-K-26K26S1,1202,experiment,77,→,right,→,0.9314892999827862,True,34,1
AC-K-26K26S1,1203,experiment,99,←,no_key,no_letter,-1.0,False,34,1
AC-K-26K26S1,1204,experiment,95,↓,down,↓,0.6230758000165224,True,34,1
AC-K-26K26S1,1205,experiment,48,←,left,←,0.6456025999505073,True,34,1
AC-K-26K26S1,1206,experiment,62,↑,up,↑,0.6147041000658646,True,34,1
AC-K-26K26S1,1207,experiment,74,→,right,→,0.8131073000840843,True,34,1
AC-K-26K26S1,1208,experiment,64,↑,up,↑,0.6546849000733346,True,34,1
AC-K-26K26S1,1209,experiment,94,↓,down,↓,0.7730593999149278,True,34,1
AC-K-26K26S1,1210,experiment,98,↓,down,↓,0.7649595000548288,True,34,1
AC-K-26K26S1,1211,experiment,86,→,down,↓,0.7376398999476805,False,34,1
AC-K-26K26S1,1212,experiment,50,↓,down,↓,0.6025639999425039,True,34,1
AC-K-26K26S1,1213,experiment,71,→,right,→,0.7064418999943882,True,34,1
AC-K-26K26S1,1214,experiment,87,↓,down,↓,0.6887430000351742,True,34,1
AC-K-26K26S1,1215,experiment,101,↓,down,↓,0.5631827999604866,True,34,1
AC-K-26K26S1,1216,experiment,100,↑,up,↑,0.5550139000406489,True,34,1
AC-K-26K26S1,1217,experiment,90,→,up,↑,0.8300462999613956,False,34,1
AC-K-26K26S1,1218,experiment,73,↓,down,↓,0.6522711999714375,True,34,1
AC-K-26K26S1,1219,experiment,84,→,right,→,0.7017545999260619,True,34,1
AC-K-26K26S1,1220,experiment,63,↓,down,↓,0.6923943000147119,True,34,1
AC-K-26K26S1,1221,experiment,68,→,right,→,0.7299621000420302,True,34,1
AC-K-26K26S1,1222,experiment,52,→,no_key,no_letter,-1.0,False,34,1
AC-K-26K26S1,1223,experiment,58,↓,down,↓,0.6409716999623924,True,34,1
AC-K-26K26S1,1224,experiment,61,←,left,←,0.8986844000173733,True,34,1
AC-K-26K26S1,1225,experiment,75,↓,right,→,0.8213575000409037,False,34,1
AC-K-26K26S1,1226,experiment,67,→,right,→,0.8136458999942988,True,34,1
AC-K-26K26S1,1227,experiment,93,↓,down,↓,0.6379640999948606,True,34,1
AC-K-26K26S1,1228,experiment,76,↑,up,↑,0.5946587000507861,True,34,1
AC-K-26K26S1,1229,experiment,72,←,left,←,0.7866639000130817,True,34,1
AC-K-26K26S1,1230,experiment,102,←,left,←,0.47281579999253154,True,34,1
AC-K-26K26S1,1231,experiment,81,↓,up,↑,1.1148245999356732,False,34,1
AC-K-26K26S1,1232,experiment,56,↓,down,↓,0.6351556000299752,True,34,1
AC-K-26K26S1,1233,experiment,89,↑,no_key,no_letter,-1.0,False,34,1
AC-K-26K26S1,1234,experiment,49,↓,down,↓,0.7410324000520632,True,34,1
AC-K-26K26S1,1235,experiment,53,↑,no_key,no_letter,-1.0,False,34,1
AC-K-26K26S1,1236,experiment,51,←,no_key,no_letter,-1.0,False,34,1
AC-K-26K26S1,1237,experiment,54,↑,up,↑,0.7018215000862256,True,34,1
AC-K-26K26S1,1238,training,55,→,right,→,0.8882006000494584,True,34,0
AC-K-26K26S1,1239,training,92,↓,down,↓,0.7334683000808582,True,34,1
AC-K-26K26S1,1240,experiment,56,↓,down,↓,0.5650752999354154,True,34,1
AC-K-26K26S1,1241,experiment,50,↑,up,↑,0.5014542000135407,True,34,1
AC-K-26K26S1,1242,experiment,62,→,right,→,0.7166116998996586,True,34,1
AC-K-26K26S1,1243,experiment,102,↓,down,↓,0.677615600056015,True,34,1
AC-K-26K26S1,1244,experiment,90,→,right,→,0.9403978000627831,True,34,1
AC-K-26K26S1,1245,experiment,108,←,left,←,0.5543579000514001,True,34,1
AC-K-26K26S1,1246,experiment,71,←,left,←,0.5399936999892816,True,34,1
AC-K-26K26S1,1247,experiment,88,↑,up,↑,0.9207513000583276,True,34,1
AC-K-26K26S1,1248,experiment,89,↑,up,↑,0.6780891999369487,True,34,1
AC-K-26K26S1,1249,experiment,84,→,right,→,0.8945403000107035,True,34,1
AC-K-26K26S1,1250,experiment,52,↓,down,↓,0.7052820000099018,True,34,1
AC-K-26K26S1,1251,experiment,107,↑,up,↑,0.7369163000257686,True,34,1
AC-K-26K26S1,1252,experiment,57,↑,up,↑,0.5278998001012951,True,34,1
AC-K-26K26S1,1253,experiment,55,→,right,→,0.7044984000967816,True,34,1
AC-K-26K26S1,1254,experiment,100,↓,up,↑,0.6663684999803081,False,34,1
AC-K-26K26S1,1255,experiment,103,↓,up,↑,0.7410334000596777,False,34,1
AC-K-26K26S1,1256,experiment,87,←,left,←,0.7700632000342011,True,34,1
AC-K-26K26S1,1257,experiment,61,←,left,←,0.5188647001050413,True,34,1
AC-K-26K26S1,1258,experiment,73,←,right,→,0.8095934999873862,False,34,1
AC-K-26K26S1,1259,experiment,104,↑,left,←,1.6224017000058666,False,34,1
AC-K-26K26S1,1260,experiment,70,←,left,←,0.45464780007023364,True,34,1
AC-K-26K26S1,1261,experiment,54,↑,up,↑,0.5925457000266761,True,34,1
AC-K-26K26S1,1262,experiment,66,→,right,→,0.6904923999682069,True,34,1
AC-K-26K26S1,1263,experiment,74,→,right,→,0.822183100041002,True,34,1
AC-K-26K26S1,1264,experiment,83,←,right,→,0.7289665999123827,False,34,1
AC-K-26K26S1,1265,experiment,105,↓,up,↑,0.6483013000106439,False,34,1
AC-K-26K26S1,1266,experiment,78,↓,no_key,no_letter,-1.0,False,34,1
AC-K-26K26S1,1267,experiment,77,→,up,↑,0.9080321000656113,False,34,1
AC-K-26K26S1,1268,experiment,72,→,right,→,0.8553262000204995,True,34,1
AC-K-26K26S1,1269,experiment,68,↓,up,↑,0.5740249000955373,False,34,1
AC-K-26K26S1,1270,experiment,60,↓,down,↓,0.706913800095208,True,34,1
AC-K-26K26S1,1271,experiment,51,↑,up,↑,0.7329975999891758,True,34,1
AC-K-26K26S1,1272,experiment,86,↓,down,↓,0.6268478999845684,True,34,1
AC-K-26K26S1,1273,experiment,106,←,no_key,no_letter,-1.0,False,34,1
AC-K-26K26S1,1274,experiment,53,↑,up,↑,0.5495423999382183,True,34,1
AC-K-26K26S1,1275,experiment,98,↑,no_key,no_letter,-1.0,False,34,1
AC-K-26K26S1,1276,experiment,96,←,left,←,0.6004753999877721,True,34,1
AC-K-26K26S1,1277,experiment,97,↑,up,↑,0.6557751999935135,True,34,1
AC-K-26K26S1,1278,experiment,101,→,no_key,no_letter,-1.0,False,34,1
AC-K-26K26S1,1279,experiment,99,←,left,←,0.5959592000581324,True,34,1
AC-K-26K26S1,1280,experiment,79,↓,no_key,no_letter,-1.0,False,34,1
AC-K-26K26S1,1281,experiment,92,←,left,←,0.6122004999779165,True,34,1
AC-K-26K26S1,1282,experiment,65,↓,no_key,no_letter,-1.0,False,34,1
AC-K-26K26S1,1283,experiment,91,↑,up,↑,0.6247167000547051,True,34,1
AC-K-26K26S1,1284,experiment,85,↓,down,↓,0.8992096999427304,True,34,1
AC-K-26K26S1,1285,experiment,95,→,no_key,no_letter,-1.0,False,34,1
AC-K-26K26S1,1286,experiment,81,↓,down,↓,0.629453600035049,True,34,1
AC-K-26K26S1,1287,experiment,67,→,right,→,0.8215696000261232,True,34,1
AC-K-26K26S1,1288,experiment,75,←,left,←,0.6995026000076905,True,34,1
AC-K-26K26S1,1289,experiment,82,↓,up,↑,0.7078119000652805,False,34,1
AC-K-26K26S1,1290,experiment,58,↑,no_key,no_letter,-1.0,False,34,1
AC-K-26K26S1,1291,experiment,48,→,up,↑,0.6213552999543026,False,34,1
AC-K-26K26S1,1292,experiment,93,↓,down,↓,0.6449863000307232,True,34,1
AC-K-26K26S1,1293,experiment,94,←,up,↑,0.6038740000221878,False,34,1
AC-K-26K26S1,1294,experiment,69,←,left,←,0.6281702000414953,True,34,1
AC-K-26K26S1,1295,experiment,64,←,left,←,0.6776697000022978,True,34,1
AC-K-26K26S1,1296,experiment,59,←,left,←,0.5908314000116661,True,34,1
AC-K-26K26S1,1297,experiment,80,←,left,←,0.4680728999665007,True,34,1
AC-K-26K26S1,1298,experiment,63,→,left,←,0.5721990999300033,False,34,1
AC-K-26K26S1,1299,experiment,49,↑,up,↑,0.7884367000078782,True,34,1
AC-K-26K26S1,1300,experiment,76,↓,down,↓,0.7713357999455184,True,34,1
AC-K-26K26S1,1301,training,69,←,left,←,1.6822023999411613,True,34,0
AC-K-26K26S1,1302,training,81,←,left,←,0.6516236999304965,True,34,1
AC-K-26K26S1,1303,experiment,73,←,no_key,no_letter,-1.0,False,34,1
AC-K-26K26S1,1304,experiment,102,↓,down,↓,0.7125181999290362,True,34,1
AC-K-26K26S1,1305,experiment,77,←,left,←,0.6178905999986455,True,34,1
AC-K-26K26S1,1306,experiment,98,→,right,→,0.6084196000592783,True,34,1
AC-K-26K26S1,1307,experiment,58,→,right,→,0.5964750000275671,True,34,1
AC-K-26K26S1,1308,experiment,86,→,left,←,0.5117349000647664,False,34,1
AC-K-26K26S1,1309,experiment,107,←,left,←,0.6551335999974981,True,34,1
AC-K-26K26S1,1310,experiment,88,↑,up,↑,0.5272823000559583,True,34,1
AC-K-26K26S1,1311,experiment,52,↑,up,↑,0.6648852999787778,True,34,1
AC-K-26K26S1,1312,experiment,69,→,right,→,0.7027435000054538,True,34,1
AC-K-26K26S1,1313,experiment,51,↑,up,↑,0.513437099987641,True,34,1
AC-K-26K26S1,1314,experiment,55,→,up,↑,0.47438040003180504,False,34,1
AC-K-26K26S1,1315,experiment,95,→,up,↑,0.49523570004384965,False,34,1
AC-K-26K26S1,1316,experiment,84,↑,up,↑,0.5434246999211609,True,34,1
AC-K-26K26S1,1317,experiment,63,↑,up,↑,0.516570599982515,True,34,1
AC-K-26K26S1,1318,experiment,105,↑,up,↑,0.5725150000071153,True,34,1
AC-K-26K26S1,1319,experiment,99,←,up,↑,0.5640277001075447,False,34,1
AC-K-26K26S1,1320,experiment,76,←,left,←,0.6918398999841884,True,34,1
AC-K-26K26S1,1321,experiment,70,→,right,→,0.8407445999328047,True,34,1
AC-K-26K26S1,1322,experiment,65,↓,up,↑,0.8249793999129906,False,34,1
AC-K-26K26S1,1323,experiment,67,←,left,←,0.6733624999178573,True,34,1
AC-K-26K26S1,1324,experiment,61,←,left,←,0.7937183000613004,True,34,1
AC-K-26K26S1,1325,experiment,48,→,right,→,0.6739412000169978,True,34,1
AC-K-26K26S1,1326,experiment,108,→,right,→,0.7066001000348479,True,34,1
AC-K-26K26S1,1327,experiment,81,↓,down,↓,0.666927200043574,True,34,1
AC-K-26K26S1,1328,experiment,82,↑,up,↑,0.5485914000310004,True,34,1
AC-K-26K26S1,1329,experiment,62,→,right,→,0.6898317000595853,True,34,1
AC-K-26K26S1,1330,experiment,78,↓,no_key,no_letter,-1.0,False,34,1
AC-K-26K26S1,1331,experiment,53,↑,up,↑,0.6755939000286162,True,34,1
AC-K-26K26S1,1332,experiment,60,↑,up,↑,0.5162174999713898,True,34,1
AC-K-26K26S1,1333,experiment,64,←,left,←,0.48210959997959435,True,34,1
AC-K-26K26S1,1334,experiment,57,→,right,→,0.75555370002985,True,34,1
AC-K-26K26S1,1335,experiment,103,→,right,→,0.9386567999608815,True,34,1
AC-K-26K26S1,1336,experiment,100,↑,up,↑,0.6994033999508247,True,34,1
AC-K-26K26S1,1337,experiment,49,↑,no_key,no_letter,-1.0,False,34,1
AC-K-26K26S1,1338,experiment,80,←,left,←,0.653644899954088,True,34,1
AC-K-26K26S1,1339,experiment,79,↓,down,↓,0.7124884000513703,True,34,1
AC-K-26K26S1,1340,experiment,93,→,right,→,0.7804768000496551,True,34,1
AC-K-26K26S1,1341,experiment,50,←,no_key,no_letter,-1.0,False,34,1
AC-K-26K26S1,1342,experiment,68,←,left,←,0.5272289999993518,True,34,1
AC-K-26K26S1,1343,experiment,94,→,no_key,no_letter,-1.0,False,34,1
AC-K-26K26S1,1344,experiment,74,→,left,←,0.6995052000274882,False,34,1
AC-K-26K26S1,1345,experiment,92,↓,down,↓,0.920512399985455,True,34,1
AC-K-26K26S1,1346,experiment,71,←,no_key,no_letter,-1.0,False,34,1
AC-K-26K26S1,1347,experiment,59,→,right,→,0.8094551999820396,True,34,1
AC-K-26K26S1,1348,experiment,72,↓,no_key,no_letter,-1.0,False,34,1
AC-K-26K26S1,1349,experiment,75,↓,down,↓,0.673140799975954,True,34,1
AC-K-26K26S1,1350,experiment,101,↑,up,↑,0.5882310000015423,True,34,1
AC-K-26K26S1,1351,experiment,97,↓,down,↓,0.6360204999800771,True,34,1
AC-K-26K26S1,1352,experiment,89,→,right,→,0.7245584999909624,True,34,1
AC-K-26K26S1,1353,experiment,66,↑,no_key,no_letter,-1.0,False,34,1
AC-K-26K26S1,1354,experiment,85,↑,up,↑,0.7025938000297174,True,34,1
AC-K-26K26S1,1355,experiment,104,→,right,→,1.1755242999643087,True,34,1
AC-K-26K26S1,1356,experiment,91,←,left,←,0.7217653000261635,True,34,1
AC-K-26K26S1,1357,experiment,54,→,right,→,0.6593595000449568,True,34,1
AC-K-26K26S1,1358,experiment,90,←,left,←,0.7540978000033647,True,34,1
AC-K-26K26S1,1359,experiment,96,←,no_key,no_letter,-1.0,False,34,1
AC-K-26K26S1,1360,experiment,56,←,left,←,0.5146480000112206,True,34,1
AC-K-26K26S1,1361,experiment,87,←,left,←,0.5846141999354586,True,34,1
AC-K-26K26S1,1362,experiment,106,↓,down,↓,0.7896309000207111,True,34,1
AC-K-26K26S1,1363,experiment,83,↓,down,↓,0.5380327999591827,True,34,1
AC-K-26K26S1,1364,training,94,→,right,→,0.6470460999989882,True,34,0
AC-K-26K26S1,1365,training,59,↓,down,↓,0.7370596000691876,True,34,1
AC-K-26K26S1,1366,experiment,80,→,right,→,0.5684483000077307,True,34,1
AC-K-26K26S1,1367,experiment,63,←,right,→,0.5964383999817073,False,34,1
AC-K-26K26S1,1368,experiment,62,→,right,→,0.719583599944599,True,34,1
AC-K-26K26S1,1369,experiment,101,↓,no_key,no_letter,-1.0,False,34,1
AC-K-26K26S1,1370,experiment,56,→,left,←,0.9032610000576824,False,34,1
AC-K-26K26S1,1371,experiment,69,←,left,←,0.5159310000017285,True,34,1
AC-K-26K26S1,1372,experiment,86,←,left,←,0.5465947999618948,True,34,1
AC-K-26K26S1,1373,experiment,84,←,left,←,0.5843570999568328,True,34,1
AC-K-26K26S1,1374,experiment,57,→,right,→,0.8379565000068396,True,34,1
AC-K-26K26S1,1375,experiment,74,↓,down,↓,0.603150499984622,True,34,1
AC-K-26K26S1,1376,experiment,94,←,up,↑,0.6833217999665067,False,34,1
AC-K-26K26S1,1377,experiment,58,↓,up,↑,0.548390100011602,False,34,1
AC-K-26K26S1,1378,experiment,51,→,up,↑,0.47727649996522814,False,34,1
AC-K-26K26S1,1379,experiment,59,↑,up,↑,0.5422843999695033,True,34,1
AC-K-26K26S1,1380,experiment,88,←,up,↑,0.35028340003918856,False,34,1
AC-K-26K26S1,1381,experiment,52,↓,up,↑,0.5952371000312269,False,34,0
AC-K-26K26S1,1382,experiment,100,←,left,←,0.7538745999336243,True,34,1
AC-K-26K26S1,1383,experiment,85,↑,up,↑,0.7348109999438748,True,34,1
AC-K-26K26S1,1384,experiment,102,←,left,←,0.6631530000595376,True,34,1
AC-K-26K26S1,1385,experiment,64,↑,up,↑,0.6069021000294015,True,34,1
AC-K-26K26S1,1386,experiment,108,↓,down,↓,0.8507075998932123,True,34,1
AC-K-26K26S1,1387,experiment,66,→,up,↑,0.6741728000342846,False,34,1
AC-K-26K26S1,1388,experiment,90,←,left,←,0.5847013999009505,True,34,1
AC-K-26K26S1,1389,experiment,77,←,left,←,0.711568999919109,True,34,1
AC-K-26K26S1,1390,experiment,105,↓,down,↓,0.7355283999349922,True,34,1
AC-K-26K26S1,1391,experiment,55,↑,up,↑,0.6635984999593347,True,34,1
AC-K-26K26S1,1392,experiment,107,↑,up,↑,0.5609169999370351,True,34,1
AC-K-26K26S1,1393,experiment,65,→,right,→,0.7162089999765158,True,34,1
AC-K-26K26S1,1394,experiment,70,↑,up,↑,0.5039177999133244,True,34,1
AC-K-26K26S1,1395,experiment,99,↓,down,↓,0.6343112000031397,True,34,1
AC-K-26K26S1,1396,experiment,54,↑,up,↑,0.40022760001011193,True,34,1
AC-K-26K26S1,1397,experiment,49,→,right,→,0.6458732000319287,True,34,0
AC-K-26K26S1,1398,experiment,106,←,up,↑,0.624267700011842,False,34,1
AC-K-26K26S1,1399,experiment,48,↑,up,↑,0.5510384999215603,True,34,1
AC-K-26K26S1,1400,experiment,83,→,no_key,no_letter,-1.0,False,34,1
AC-K-26K26S1,1401,experiment,97,↓,down,↓,0.7582568000070751,True,34,1
AC-K-26K26S1,1402,experiment,50,←,left,←,0.7030115999514237,True,34,1
AC-K-26K26S1,1403,experiment,73,↑,up,↑,0.6504656999604777,True,34,1
AC-K-26K26S1,1404,experiment,67,←,left,←,0.7456166999181733,True,34,1
AC-K-26K26S1,1405,experiment,75,↓,down,↓,0.6348170000128448,True,34,1
AC-K-26K26S1,1406,experiment,76,↓,up,↑,0.7834112000418827,False,34,1
AC-K-26K26S1,1407,experiment,92,↓,down,↓,0.67327629995998,True,34,1
AC-K-26K26S1,1408,experiment,72,↑,up,↑,0.5579578999895602,True,34,1
AC-K-26K26S1,1409,experiment,68,←,left,←,0.6966307000257075,True,34,1
AC-K-26K26S1,1410,experiment,103,↑,up,↑,0.5141360000707209,True,34,1
AC-K-26K26S1,1411,experiment,91,↓,up,↑,0.5347828000085428,False,34,1
AC-K-26K26S1,1412,experiment,53,←,up,↑,1.679544399958104,False,34,1
AC-K-26K26S1,1413,experiment,87,→,right,→,0.742732199956663,True,34,1
AC-K-26K26S1,1414,experiment,104,↓,down,↓,1.1020568000385538,True,34,1
AC-K-26K26S1,1415,experiment,89,→,right,→,0.8841321999207139,True,34,1
AC-K-26K26S1,1416,experiment,79,←,left,←,0.5420268999878317,True,34,1
AC-K-26K26S1,1417,experiment,93,↓,right,→,1.065534400055185,False,34,1
AC-K-26K26S1,1418,experiment,95,↓,up,↑,0.6223393999971449,False,34,1
AC-K-26K26S1,1419,experiment,78,↓,no_key,no_letter,-1.0,False,34,1
AC-K-26K26S1,1420,experiment,82,←,up,↑,0.5933608000632375,False,34,1
AC-K-26K26S1,1421,experiment,61,←,no_key,no_letter,-1.0,False,34,1
AC-K-26K26S1,1422,experiment,96,→,no_key,no_letter,-1.0,False,34,1
AC-K-26K26S1,1423,experiment,71,↑,up,↑,0.5765362000092864,True,34,1
AC-K-26K26S1,1424,experiment,60,↑,up,↑,0.4931156999664381,True,34,1
AC-K-26K26S1,1425,experiment,98,→,right,→,0.7445899000158533,True,34,1
AC-K-26K26S1,1426,experiment,81,←,left,←,0.5752254999242723,True,34,1
AC-K-26K26S1,1427,training,94,↑,up,↑,1.1203642999753356,True,34,0
AC-K-26K26S1,1428,training,90,→,right,→,0.6688924999907613,True,34,1
AC-K-26K26S1,1429,experiment,65,→,right,→,0.7483993000350893,True,34,1
AC-K-26K26S1,1430,experiment,107,→,right,→,0.658480399986729,True,34,1
