PART_ID,Trial_no,Trial_type,CSI,Stim_letter,Key_pressed,letter_choose,Rt,Corr,Stimulus Time,nDropped
AC-K-26K26S2,1,training,120,↓,up,↑,0.964315399993211,False,60,0
AC-K-26K26S2,2,training,120,↓,down,↓,0.9004146999213845,True,60,0
AC-K-26K26S2,3,training,120,↓,up,↑,0.887231000000611,False,60,0
AC-K-26K26S2,4,training,120,↑,up,↑,0.7148947999812663,True,60,0
AC-K-26K26S2,5,training,120,↑,up,↑,0.6856056000106037,True,60,0
AC-K-26K26S2,6,training,120,←,left,←,0.8409535000100732,True,60,0
AC-K-26K26S2,7,training,120,←,left,←,0.8703999000135809,True,60,0
AC-K-26K26S2,8,training,120,↓,down,↓,0.8266284998971969,True,60,0
AC-K-26K26S2,9,training,120,←,left,←,0.6968450997956097,True,60,0
AC-K-26K26S2,10,training,120,←,left,←,1.1877422998659313,True,60,0
AC-K-26K26S2,11,training,120,←,left,←,0.7313016001135111,True,60,0
AC-K-26K26S2,12,training,120,↓,down,↓,0.8212915998883545,True,60,0
AC-K-26K26S2,13,training,120,↑,up,↑,0.5843126000836492,True,60,0
AC-K-26K26S2,14,training,120,→,left,←,0.492679099785164,False,60,0
AC-K-26K26S2,15,training,120,↓,up,↑,0.68596430006437,False,60,0
AC-K-26K26S2,16,training,120,↓,down,↓,0.841214899905026,True,60,0
AC-K-26K26S2,17,training,120,↓,up,↑,0.575840599834919,False,60,0
AC-K-26K26S2,18,training,120,↓,no_key,no_letter,-1.0,False,60,0
AC-K-26K26S2,19,training,120,→,left,←,0.6260154999326915,False,60,0
AC-K-26K26S2,20,training,120,→,right,→,1.2604679001960903,True,60,0
AC-K-26K26S2,21,no_adaptation,120,←,left,←,0.5123138998169452,True,36,0
AC-K-26K26S2,22,no_adaptation,120,↓,down,↓,0.85880700009875,True,36,0
AC-K-26K26S2,23,no_adaptation,120,↓,down,↓,0.8953272998332977,True,36,0
AC-K-26K26S2,24,no_adaptation,120,↓,down,↓,0.6984222999308258,True,36,0
AC-K-26K26S2,25,no_adaptation,120,→,right,→,0.8777904000598937,True,36,0
AC-K-26K26S2,26,no_adaptation,120,→,right,→,0.7614070998970419,True,36,0
AC-K-26K26S2,27,no_adaptation,120,→,right,→,0.7219978999346495,True,36,0
AC-K-26K26S2,28,no_adaptation,120,←,right,→,0.7005322999320924,False,36,0
AC-K-26K26S2,29,no_adaptation,120,↑,up,↑,0.6232662999536842,True,36,0
AC-K-26K26S2,30,no_adaptation,120,↓,up,↑,0.7174658998847008,False,36,0
AC-K-26K26S2,31,no_adaptation,120,→,right,→,0.8399704000912607,True,36,0
AC-K-26K26S2,32,no_adaptation,120,↑,up,↑,0.7096382000017911,True,36,0
AC-K-26K26S2,33,no_adaptation,120,↑,up,↑,0.5763832000084221,True,36,0
AC-K-26K26S2,34,no_adaptation,120,→,left,←,0.8084990999195725,False,36,0
AC-K-26K26S2,35,no_adaptation,120,↓,down,↓,0.7913798000663519,True,36,0
AC-K-26K26S2,36,no_adaptation,120,←,left,←,0.6548280999995768,True,36,0
AC-K-26K26S2,37,no_adaptation,120,→,right,→,0.80407529999502,True,36,0
AC-K-26K26S2,38,no_adaptation,120,↓,down,↓,0.6506410001311451,True,36,0
AC-K-26K26S2,39,no_adaptation,120,←,left,←,0.719766299938783,True,36,0
AC-K-26K26S2,40,no_adaptation,120,↑,up,↑,0.577747399918735,True,36,0
AC-K-26K26S2,41,training,93,↓,up,↑,0.6612335999961942,False,36,0
AC-K-26K26S2,42,training,95,↑,up,↑,0.6587859999854118,True,36,1
AC-K-26K26S2,43,experiment,54,→,right,→,0.8220863998867571,True,36,1
AC-K-26K26S2,44,experiment,100,→,right,→,0.5876519000157714,True,36,1
AC-K-26K26S2,45,experiment,77,←,left,←,0.5780290998518467,True,36,1
AC-K-26K26S2,46,experiment,57,→,right,→,0.6478042001836002,True,36,1
AC-K-26K26S2,47,experiment,93,←,left,←,0.5903439000248909,True,36,1
AC-K-26K26S2,48,experiment,69,→,left,←,0.8152632000856102,False,36,1
AC-K-26K26S2,49,experiment,62,↑,up,↑,0.6258371002040803,True,36,1
AC-K-26K26S2,50,experiment,72,↓,up,↑,0.7525487998500466,False,36,1
AC-K-26K26S2,51,experiment,102,↑,up,↑,0.5206757001578808,True,36,1
AC-K-26K26S2,52,experiment,86,→,right,→,0.7105543999932706,True,36,1
AC-K-26K26S2,53,experiment,83,←,left,←,0.6064575000200421,True,36,1
AC-K-26K26S2,54,experiment,98,←,left,←,0.5971309000160545,True,36,1
AC-K-26K26S2,55,experiment,92,→,right,→,0.6220349001232535,True,36,1
AC-K-26K26S2,56,experiment,87,←,left,←,0.5038868999108672,True,36,1
AC-K-26K26S2,57,experiment,90,←,left,←,0.48598119989037514,True,36,1
AC-K-26K26S2,58,experiment,84,→,left,←,0.5095424999017268,False,36,1
AC-K-26K26S2,59,experiment,75,↑,up,↑,0.6319701001048088,True,36,1
AC-K-26K26S2,60,experiment,89,→,right,→,0.7367136999964714,True,36,1
AC-K-26K26S2,61,experiment,58,↓,down,↓,0.8398925000801682,True,36,1
AC-K-26K26S2,62,experiment,79,↓,up,↑,0.6354331001639366,False,36,1
AC-K-26K26S2,63,experiment,94,↑,up,↑,1.1544341000262648,True,36,1
AC-K-26K26S2,64,experiment,53,←,left,←,0.5941876000724733,True,36,1
AC-K-26K26S2,65,experiment,105,→,right,→,0.6391371998470277,True,36,1
AC-K-26K26S2,66,experiment,104,↓,up,↑,0.7224465999752283,False,36,1
AC-K-26K26S2,67,experiment,101,↑,up,↑,0.6357328000012785,True,36,1
AC-K-26K26S2,68,experiment,68,→,right,→,0.8274349002167583,True,36,1
AC-K-26K26S2,69,experiment,99,→,right,→,0.6648629999253899,True,36,1
AC-K-26K26S2,70,experiment,61,←,left,←,0.6417062000837177,True,36,1
AC-K-26K26S2,71,experiment,63,↑,up,↑,0.586720900144428,True,36,1
AC-K-26K26S2,72,experiment,60,→,left,←,0.6713862000033259,False,36,1
AC-K-26K26S2,73,experiment,85,↑,up,↑,0.6554022999480367,True,36,1
AC-K-26K26S2,74,experiment,73,←,left,←,0.6047298000194132,True,36,1
AC-K-26K26S2,75,experiment,50,→,right,→,0.8593599000014365,True,36,1
AC-K-26K26S2,76,experiment,65,←,left,←,0.6429842000361532,True,36,1
AC-K-26K26S2,77,experiment,107,↑,up,↑,0.7333017999771982,True,36,1
AC-K-26K26S2,78,experiment,106,←,left,←,0.5323705000337213,True,36,1
AC-K-26K26S2,79,experiment,97,↑,up,↑,0.8302752000745386,True,36,1
AC-K-26K26S2,80,experiment,103,↓,down,↓,0.7864147000946105,True,36,1
AC-K-26K26S2,81,experiment,59,↓,up,↑,0.7909918001387268,False,36,1
AC-K-26K26S2,82,experiment,108,→,right,→,0.6351592999417335,True,36,1
AC-K-26K26S2,83,experiment,64,→,right,→,0.7482326000463217,True,36,1
AC-K-26K26S2,84,experiment,49,→,right,→,0.8455423999112099,True,36,1
AC-K-26K26S2,85,experiment,67,→,right,→,0.7819674001075327,True,36,1
AC-K-26K26S2,86,experiment,81,←,left,←,0.6106591999996454,True,36,1
AC-K-26K26S2,87,experiment,82,↑,up,↑,0.6707712998613715,True,36,1
AC-K-26K26S2,88,experiment,71,↓,up,↑,0.6757628000341356,False,36,1
AC-K-26K26S2,89,experiment,95,←,left,←,0.7929004000034183,True,36,1
AC-K-26K26S2,90,experiment,52,↓,down,↓,0.9277830999344587,True,36,1
AC-K-26K26S2,91,experiment,76,↓,down,↓,0.7771139999385923,True,36,1
AC-K-26K26S2,92,experiment,96,↑,up,↑,0.6415473998058587,True,36,1
AC-K-26K26S2,93,experiment,74,→,right,→,0.7991017999593168,True,36,1
AC-K-26K26S2,94,experiment,66,→,right,→,0.6728598000481725,True,36,1
AC-K-26K26S2,95,experiment,78,←,right,→,1.1315981999505311,False,36,1
AC-K-26K26S2,96,experiment,88,→,right,→,0.6323611000552773,True,36,1
AC-K-26K26S2,97,experiment,80,←,left,←,0.5240599000826478,True,36,1
AC-K-26K26S2,98,experiment,51,←,left,←,0.541805500164628,True,36,1
AC-K-26K26S2,99,experiment,56,↓,down,↓,0.6772217000834644,True,36,1
AC-K-26K26S2,100,experiment,48,→,left,←,0.6182361000683159,False,36,1
AC-K-26K26S2,101,experiment,55,↑,up,↑,0.5587416000198573,True,36,1
AC-K-26K26S2,102,experiment,91,→,right,→,0.8660323000513017,True,36,1
AC-K-26K26S2,103,experiment,70,↓,down,↓,0.711559500079602,True,36,1
AC-K-26K26S2,104,training,67,↓,down,↓,0.6289337000343949,True,36,0
AC-K-26K26S2,105,training,64,↓,down,↓,0.7504932000301778,True,36,1
AC-K-26K26S2,106,experiment,58,←,left,←,0.564708299934864,True,36,1
AC-K-26K26S2,107,experiment,79,↑,up,↑,0.5877197999507189,True,36,1
AC-K-26K26S2,108,experiment,77,↑,up,↑,0.6348935000132769,True,36,1
AC-K-26K26S2,109,experiment,87,←,left,←,0.6116832999978215,True,36,1
AC-K-26K26S2,110,experiment,105,→,left,←,0.5679907999001443,False,36,1
AC-K-26K26S2,111,experiment,74,→,left,←,0.6004337999038398,False,36,1
AC-K-26K26S2,112,experiment,83,←,left,←,0.5966610999312252,True,36,1
AC-K-26K26S2,113,experiment,70,↓,down,↓,0.8527984002139419,True,36,1
AC-K-26K26S2,114,experiment,67,←,up,↑,1.028244299814105,False,36,1
AC-K-26K26S2,115,experiment,50,←,left,←,0.5865114000625908,True,36,1
AC-K-26K26S2,116,experiment,62,↑,up,↑,0.5425568998325616,True,36,1
AC-K-26K26S2,117,experiment,96,→,up,↑,0.5522161999251693,False,36,1
AC-K-26K26S2,118,experiment,65,↓,down,↓,0.764184899860993,True,36,1
AC-K-26K26S2,119,experiment,95,↑,up,↑,0.5333805999252945,True,36,1
AC-K-26K26S2,120,experiment,68,←,left,←,0.7214782000519335,True,36,1
AC-K-26K26S2,121,experiment,93,↓,down,↓,0.684954899828881,True,36,1
AC-K-26K26S2,122,experiment,82,←,left,←,0.678093200083822,True,36,1
AC-K-26K26S2,123,experiment,53,↓,down,↓,0.7290376999881119,True,36,1
AC-K-26K26S2,124,experiment,57,→,right,→,0.6329218000173569,True,36,1
AC-K-26K26S2,125,experiment,56,↑,up,↑,0.5006454000249505,True,36,1
AC-K-26K26S2,126,experiment,66,↑,up,↑,0.5943204001523554,True,36,1
AC-K-26K26S2,127,experiment,90,→,right,→,0.7082014000043273,True,36,1
AC-K-26K26S2,128,experiment,91,→,right,→,0.6574996998533607,True,36,1
AC-K-26K26S2,129,experiment,81,→,right,→,0.6838972999248654,True,36,1
AC-K-26K26S2,130,experiment,99,→,right,→,0.8950984999537468,True,36,1
AC-K-26K26S2,131,experiment,76,↑,up,↑,0.5377131002023816,True,36,1
AC-K-26K26S2,132,experiment,107,↑,up,↑,0.6647362001240253,True,36,1
AC-K-26K26S2,133,experiment,48,↑,up,↑,0.509567900095135,True,36,1
AC-K-26K26S2,134,experiment,69,→,right,→,0.594010200118646,True,36,1
AC-K-26K26S2,135,experiment,102,→,right,→,0.7281415001489222,True,36,1
AC-K-26K26S2,136,experiment,55,→,right,→,0.6244167999830097,True,36,1
AC-K-26K26S2,137,experiment,54,←,left,←,0.5572844999842346,True,36,1
AC-K-26K26S2,138,experiment,71,→,right,→,1.0551481998991221,True,36,1
AC-K-26K26S2,139,experiment,51,↑,up,↑,0.5712127999868244,True,36,1
AC-K-26K26S2,140,experiment,101,↓,down,↓,0.7784484000876546,True,36,1
AC-K-26K26S2,141,experiment,61,↓,down,↓,0.6146788999903947,True,36,1
AC-K-26K26S2,142,experiment,92,↑,up,↑,0.7029164000414312,True,36,1
AC-K-26K26S2,143,experiment,84,←,left,←,0.7587299000006169,True,36,1
AC-K-26K26S2,144,experiment,88,→,right,→,0.7787448999006301,True,36,1
AC-K-26K26S2,145,experiment,75,→,left,←,0.8586667999625206,False,36,1
AC-K-26K26S2,146,experiment,73,→,left,←,0.6955952001735568,False,36,1
AC-K-26K26S2,147,experiment,108,↑,up,↑,0.6236729000229388,True,36,1
AC-K-26K26S2,148,experiment,104,↑,up,↑,0.6036296000238508,True,36,1
AC-K-26K26S2,149,experiment,86,→,right,→,0.7588295000605285,True,36,1
AC-K-26K26S2,150,experiment,63,→,right,→,0.9149120999500155,True,36,1
AC-K-26K26S2,151,experiment,52,→,right,→,0.8128750999458134,True,36,1
AC-K-26K26S2,152,experiment,97,→,right,→,0.6438529000151902,True,36,1
AC-K-26K26S2,153,experiment,103,←,left,←,0.6233600000850856,True,36,1
AC-K-26K26S2,154,experiment,59,↑,up,↑,0.6823204001411796,True,36,1
AC-K-26K26S2,155,experiment,89,→,right,→,0.6731121998745948,True,36,1
AC-K-26K26S2,156,experiment,100,↑,up,↑,0.5485543999820948,True,36,1
AC-K-26K26S2,157,experiment,78,↓,down,↓,0.8205057999584824,True,36,1
AC-K-26K26S2,158,experiment,106,←,left,←,0.5678067000117153,True,36,1
AC-K-26K26S2,159,experiment,94,↑,up,↑,0.5775448000058532,True,36,1
AC-K-26K26S2,160,experiment,80,←,left,←,0.5836720000952482,True,36,1
AC-K-26K26S2,161,experiment,98,←,left,←,0.47981239994987845,True,36,1
AC-K-26K26S2,162,experiment,60,↓,down,↓,0.65583990002051,True,36,1
AC-K-26K26S2,163,experiment,85,←,left,←,0.5689206998795271,True,36,1
AC-K-26K26S2,164,experiment,72,→,right,→,0.8579535000026226,True,36,1
AC-K-26K26S2,165,experiment,64,↑,up,↑,0.6340295998379588,True,36,1
AC-K-26K26S2,166,experiment,49,↑,up,↑,0.6160729001276195,True,36,1
AC-K-26K26S2,167,training,95,→,right,→,0.8839569999836385,True,35,0
AC-K-26K26S2,168,training,96,←,left,←,0.5123189000878483,True,35,1
AC-K-26K26S2,169,experiment,91,→,right,→,0.7167783998884261,True,35,1
AC-K-26K26S2,170,experiment,89,↑,up,↑,0.5064014999661595,True,35,1
AC-K-26K26S2,171,experiment,52,↓,down,↓,0.7485313999932259,True,35,1
AC-K-26K26S2,172,experiment,61,→,right,→,0.897922899806872,True,35,1
AC-K-26K26S2,173,experiment,81,↑,up,↑,0.6504834000952542,True,35,1
AC-K-26K26S2,174,experiment,107,→,right,→,0.7567102999892086,True,35,1
AC-K-26K26S2,175,experiment,54,→,right,→,0.676032500108704,True,35,1
AC-K-26K26S2,176,experiment,93,↓,down,↓,0.8014477998949587,True,35,1
AC-K-26K26S2,177,experiment,59,↓,down,↓,0.6938249000813812,True,35,1
AC-K-26K26S2,178,experiment,66,→,right,→,0.8675490999594331,True,35,1
AC-K-26K26S2,179,experiment,76,↓,down,↓,0.6554952999576926,True,35,1
AC-K-26K26S2,180,experiment,105,←,left,←,0.7058355999179184,True,35,1
AC-K-26K26S2,181,experiment,55,↑,up,↑,0.6831797000486404,True,35,1
AC-K-26K26S2,182,experiment,48,←,left,←,0.6631725998595357,True,35,1
AC-K-26K26S2,183,experiment,70,→,right,→,0.7410124999005347,True,35,1
AC-K-26K26S2,184,experiment,79,↑,up,↑,0.6367909999098629,True,35,1
AC-K-26K26S2,185,experiment,63,←,left,←,0.574248000048101,True,35,1
AC-K-26K26S2,186,experiment,88,↑,up,↑,0.6494818998035043,True,35,1
AC-K-26K26S2,187,experiment,102,↑,up,↑,0.5491180000826716,True,35,1
AC-K-26K26S2,188,experiment,50,→,right,→,1.0862881001085043,True,35,1
AC-K-26K26S2,189,experiment,80,→,left,←,0.599873699946329,False,35,1
AC-K-26K26S2,190,experiment,108,↓,down,↓,0.7715965998359025,True,35,1
AC-K-26K26S2,191,experiment,75,→,left,←,0.6277610999532044,False,35,1
AC-K-26K26S2,192,experiment,106,←,left,←,0.542844999814406,True,35,1
AC-K-26K26S2,193,experiment,56,↓,down,↓,0.9981054000090808,True,35,1
AC-K-26K26S2,194,experiment,58,↓,up,↑,0.6745508001185954,False,35,1
AC-K-26K26S2,195,experiment,86,↑,up,↑,0.5706223000306636,True,35,1
AC-K-26K26S2,196,experiment,71,→,left,←,0.7560293998103589,False,35,1
AC-K-26K26S2,197,experiment,67,→,right,→,0.8227672001812607,True,35,1
AC-K-26K26S2,198,experiment,95,↓,down,↓,0.7497310999315232,True,35,1
AC-K-26K26S2,199,experiment,77,↓,down,↓,0.7421303999144584,True,35,1
AC-K-26K26S2,200,experiment,85,←,left,←,0.595847399905324,True,35,1
AC-K-26K26S2,201,experiment,100,↑,up,↑,0.6739328999537975,True,35,1
AC-K-26K26S2,202,experiment,103,→,right,→,0.8364797001704574,True,35,1
AC-K-26K26S2,203,experiment,97,↑,up,↑,0.7063168999738991,True,35,1
AC-K-26K26S2,204,experiment,82,↑,up,↑,0.5063289001118392,True,35,1
AC-K-26K26S2,205,experiment,83,←,left,←,0.5863248000387102,True,35,1
AC-K-26K26S2,206,experiment,84,↓,down,↓,0.7425497001968324,True,35,1
AC-K-26K26S2,207,experiment,78,↓,up,↑,0.6147787000518292,False,35,1
AC-K-26K26S2,208,experiment,98,↑,up,↑,0.47699619992636144,True,35,1
AC-K-26K26S2,209,experiment,104,↑,up,↑,0.6070203001145273,True,35,1
AC-K-26K26S2,210,experiment,92,↓,down,↓,0.775706100044772,True,35,1
AC-K-26K26S2,211,experiment,60,↓,down,↓,0.708547699963674,True,35,1
AC-K-26K26S2,212,experiment,57,→,right,→,0.645404800074175,True,35,1
AC-K-26K26S2,213,experiment,94,←,left,←,0.6433614999987185,True,35,1
AC-K-26K26S2,214,experiment,87,←,left,←,0.5245636999607086,True,35,1
AC-K-26K26S2,215,experiment,96,↑,up,↑,0.5753010998014361,True,35,1
AC-K-26K26S2,216,experiment,64,→,right,→,0.8908385999966413,True,35,1
AC-K-26K26S2,217,experiment,49,←,left,←,0.5504881998058408,True,35,1
AC-K-26K26S2,218,experiment,53,↓,down,↓,0.6624308000318706,True,35,1
AC-K-26K26S2,219,experiment,73,↓,down,↓,0.7079479000531137,True,35,1
AC-K-26K26S2,220,experiment,101,↑,up,↑,0.6053132999222726,True,35,1
AC-K-26K26S2,221,experiment,74,↓,up,↑,0.6279799998737872,False,35,1
AC-K-26K26S2,222,experiment,65,→,right,→,0.604972300119698,True,35,1
AC-K-26K26S2,223,experiment,62,↑,up,↑,0.5837981000076979,True,35,1
AC-K-26K26S2,224,experiment,51,←,left,←,0.8632536001969129,True,35,1
AC-K-26K26S2,225,experiment,99,→,right,→,0.6752004998270422,True,35,1
AC-K-26K26S2,226,experiment,68,→,right,→,0.8494804999791086,True,35,1
AC-K-26K26S2,227,experiment,90,←,left,←,0.6093717000912875,True,35,1
AC-K-26K26S2,228,experiment,72,→,left,←,0.8241213001310825,False,35,1
AC-K-26K26S2,229,experiment,69,←,left,←,0.44227060000412166,True,35,1
AC-K-26K26S2,230,training,73,←,left,←,0.48793730000033975,True,35,0
AC-K-26K26S2,231,training,68,→,right,→,0.6057619999628514,True,35,1
AC-K-26K26S2,232,experiment,88,→,left,←,0.5352229999843985,False,35,1
AC-K-26K26S2,233,experiment,79,↑,left,←,0.3675853998865932,False,35,1
AC-K-26K26S2,234,experiment,49,↓,up,↑,0.9199747000820935,False,35,0
AC-K-26K26S2,235,experiment,90,↓,down,↓,0.7007790000643581,True,35,1
AC-K-26K26S2,236,experiment,73,←,left,←,0.6882962000090629,True,35,1
AC-K-26K26S2,237,experiment,61,→,right,→,0.6482840999960899,True,35,1
AC-K-26K26S2,238,experiment,82,←,left,←,0.7302484000101686,True,35,1
AC-K-26K26S2,239,experiment,106,←,left,←,0.5615266999229789,True,35,1
AC-K-26K26S2,240,experiment,97,↑,up,↑,0.6503235001582652,True,35,1
AC-K-26K26S2,241,experiment,60,↓,down,↓,0.8362865999806672,True,35,1
AC-K-26K26S2,242,experiment,63,↑,up,↑,0.6053265000227839,True,35,1
AC-K-26K26S2,243,experiment,87,←,left,←,0.8078399999067187,True,35,1
AC-K-26K26S2,244,experiment,75,←,left,←,0.7024272000417113,True,35,1
AC-K-26K26S2,245,experiment,65,→,left,←,0.5965668999124318,False,35,1
AC-K-26K26S2,246,experiment,69,→,right,→,0.6693249000236392,True,35,1
AC-K-26K26S2,247,experiment,50,↑,up,↑,0.6098068000283092,True,35,1
AC-K-26K26S2,248,experiment,100,←,left,←,0.7196233998984098,True,35,1
AC-K-26K26S2,249,experiment,57,→,right,→,0.6643505999818444,True,35,1
AC-K-26K26S2,250,experiment,58,←,left,←,0.5858249999582767,True,35,1
AC-K-26K26S2,251,experiment,80,→,right,→,0.6233238000422716,True,35,1
AC-K-26K26S2,252,experiment,91,↓,down,↓,0.8638703001197428,True,35,1
AC-K-26K26S2,253,experiment,104,←,left,←,0.6180861000902951,True,35,1
AC-K-26K26S2,254,experiment,92,←,left,←,0.5464619998820126,True,35,1
AC-K-26K26S2,255,experiment,62,↓,down,↓,0.8955451999790967,True,35,1
AC-K-26K26S2,256,experiment,52,←,left,←,0.5778039998840541,True,35,1
AC-K-26K26S2,257,experiment,98,←,left,←,0.4900998000521213,True,35,1
AC-K-26K26S2,258,experiment,71,→,right,→,0.7903819000348449,True,35,1
AC-K-26K26S2,259,experiment,84,←,left,←,0.5543376998975873,True,35,1
AC-K-26K26S2,260,experiment,93,←,left,←,0.6530657999683172,True,35,1
AC-K-26K26S2,261,experiment,85,↑,up,↑,0.7104228001553565,True,35,1
AC-K-26K26S2,262,experiment,107,←,left,←,0.5582667998969555,True,35,1
AC-K-26K26S2,263,experiment,81,↓,down,↓,0.8045475999824703,True,35,1
AC-K-26K26S2,264,experiment,76,↓,down,↓,0.8108776998706162,True,35,1
AC-K-26K26S2,265,experiment,101,→,right,→,0.712770399870351,True,35,1
AC-K-26K26S2,266,experiment,74,←,left,←,0.6348636001348495,True,35,1
AC-K-26K26S2,267,experiment,51,↑,up,↑,0.6404994998592883,True,35,1
AC-K-26K26S2,268,experiment,108,↑,up,↑,0.5864208000712097,True,35,1
AC-K-26K26S2,269,experiment,89,←,left,←,0.6292326000984758,True,35,1
AC-K-26K26S2,270,experiment,66,↓,down,↓,0.8375030001625419,True,35,1
AC-K-26K26S2,271,experiment,95,↑,up,↑,0.5076454000081867,True,35,1
AC-K-26K26S2,272,experiment,86,←,left,←,0.6105979001149535,True,35,1
AC-K-26K26S2,273,experiment,54,↑,up,↑,0.6800400998909026,True,35,1
AC-K-26K26S2,274,experiment,68,→,right,→,0.7337073001544923,True,35,1
AC-K-26K26S2,275,experiment,94,↑,up,↑,0.6087315001059324,True,35,1
AC-K-26K26S2,276,experiment,103,←,left,←,0.6056780000217259,True,35,1
AC-K-26K26S2,277,experiment,55,→,right,→,0.7707922998815775,True,35,1
AC-K-26K26S2,278,experiment,96,↓,down,↓,0.7156124000903219,True,35,1
AC-K-26K26S2,279,experiment,64,←,left,←,0.56937519996427,True,35,1
AC-K-26K26S2,280,experiment,105,→,right,→,0.7353730998001993,True,35,1
AC-K-26K26S2,281,experiment,70,←,left,←,0.4983337000012398,True,35,1
AC-K-26K26S2,282,experiment,53,↑,up,↑,0.5564298001118004,True,35,1
AC-K-26K26S2,283,experiment,48,→,right,→,0.6220032998826355,True,35,1
AC-K-26K26S2,284,experiment,56,←,left,←,0.602095500100404,True,35,1
AC-K-26K26S2,285,experiment,59,↓,down,↓,0.6940940001513809,True,35,1
AC-K-26K26S2,286,experiment,83,↓,down,↓,0.6705412000883371,True,35,1
AC-K-26K26S2,287,experiment,102,↑,up,↑,0.43425669986754656,True,35,1
AC-K-26K26S2,288,experiment,99,↓,down,↓,0.7265937000047415,True,35,0
AC-K-26K26S2,289,experiment,67,→,left,←,1.1710578999482095,False,35,1
AC-K-26K26S2,290,experiment,72,↓,down,↓,0.6835218998603523,True,35,1
AC-K-26K26S2,291,experiment,78,←,left,←,0.6779328000266105,True,35,1
AC-K-26K26S2,292,experiment,77,↓,down,↓,0.7371439000125974,True,35,1
AC-K-26K26S2,293,training,105,←,left,←,0.5282239001244307,True,34,0
AC-K-26K26S2,294,training,107,↑,up,↑,0.607094099977985,True,34,1
AC-K-26K26S2,295,experiment,58,↑,up,↑,0.5714346000459045,True,34,1
AC-K-26K26S2,296,experiment,84,→,left,←,0.6324157998897135,False,34,1
AC-K-26K26S2,297,experiment,90,←,left,←,0.5445805999916047,True,34,1
AC-K-26K26S2,298,experiment,60,→,right,→,1.0464661999139935,True,34,1
AC-K-26K26S2,299,experiment,49,←,left,←,0.619723099982366,True,34,1
AC-K-26K26S2,300,experiment,71,↑,up,↑,0.6431726000737399,True,34,1
AC-K-26K26S2,301,experiment,57,↓,down,↓,0.7585217000450939,True,34,1
AC-K-26K26S2,302,experiment,73,→,right,→,0.7115831999108195,True,34,1
AC-K-26K26S2,303,experiment,56,↑,up,↑,0.705141199985519,True,34,1
AC-K-26K26S2,304,experiment,98,↑,up,↑,0.5472959000617266,True,34,1
AC-K-26K26S2,305,experiment,63,↑,up,↑,0.5275652999989688,True,34,1
AC-K-26K26S2,306,experiment,99,→,right,→,0.8096447000280023,True,34,1
AC-K-26K26S2,307,experiment,107,←,left,←,0.5494826000649482,True,34,1
AC-K-26K26S2,308,experiment,54,↑,up,↑,0.6450803999323398,True,34,1
AC-K-26K26S2,309,experiment,50,→,right,→,0.7709860000759363,True,34,1
AC-K-26K26S2,310,experiment,76,↓,down,↓,0.7141555999405682,True,34,1
AC-K-26K26S2,311,experiment,53,←,left,←,0.6355479001067579,True,34,1
AC-K-26K26S2,312,experiment,108,↑,up,↑,0.6298096000682563,True,34,1
AC-K-26K26S2,313,experiment,106,↑,up,↑,0.569569000042975,True,34,1
AC-K-26K26S2,314,experiment,62,↓,down,↓,0.6853445000015199,True,34,1
AC-K-26K26S2,315,experiment,81,←,up,↑,0.550707699963823,False,34,1
AC-K-26K26S2,316,experiment,86,↑,up,↑,0.5317260001320392,True,34,1
AC-K-26K26S2,317,experiment,93,←,left,←,0.5430886000394821,True,34,1
AC-K-26K26S2,318,experiment,75,↑,no_key,no_letter,-1.0,False,34,1
AC-K-26K26S2,319,experiment,91,→,right,→,0.763259100029245,True,34,1
AC-K-26K26S2,320,experiment,74,↓,down,↓,0.6279132000636309,True,34,1
AC-K-26K26S2,321,experiment,51,↑,up,↑,0.6334963000845164,True,34,1
AC-K-26K26S2,322,experiment,67,↓,up,↑,0.8416007000487298,False,34,1
AC-K-26K26S2,323,experiment,104,←,left,←,0.5650088000111282,True,34,1
AC-K-26K26S2,324,experiment,66,↓,down,↓,0.8001306999940425,True,34,1
AC-K-26K26S2,325,experiment,55,↑,down,↓,0.7175717998761684,False,34,1
AC-K-26K26S2,326,experiment,48,↑,no_key,no_letter,-1.0,False,34,1
AC-K-26K26S2,327,experiment,85,→,right,→,0.8695973001886159,True,34,1
AC-K-26K26S2,328,experiment,96,←,left,←,0.6908858001697809,True,34,1
AC-K-26K26S2,329,experiment,80,↓,down,↓,0.7800739998929203,True,34,1
AC-K-26K26S2,330,experiment,69,←,left,←,0.5653210000600666,True,34,1
AC-K-26K26S2,331,experiment,59,←,left,←,0.49097569985315204,True,34,1
AC-K-26K26S2,332,experiment,82,→,right,→,0.8436558998655528,True,34,1
AC-K-26K26S2,333,experiment,92,→,left,←,0.49094250006601214,False,34,1
AC-K-26K26S2,334,experiment,72,↓,down,↓,0.6789644998498261,True,34,1
AC-K-26K26S2,335,experiment,64,↑,up,↑,0.6059377000201494,True,34,1
AC-K-26K26S2,336,experiment,65,←,left,←,0.6078361000400037,True,34,1
AC-K-26K26S2,337,experiment,88,↑,up,↑,0.5937982001341879,True,34,1
AC-K-26K26S2,338,experiment,102,↓,down,↓,0.7277267999015749,True,34,1
AC-K-26K26S2,339,experiment,79,→,left,←,0.6722262999974191,False,34,1
AC-K-26K26S2,340,experiment,87,↓,down,↓,0.7119853999465704,True,34,1
AC-K-26K26S2,341,experiment,83,↑,up,↑,0.7676119999960065,True,34,1
AC-K-26K26S2,342,experiment,105,↑,up,↑,0.4936654001940042,True,34,1
AC-K-26K26S2,343,experiment,95,↑,up,↑,0.5461140000261366,True,34,1
AC-K-26K26S2,344,experiment,70,↑,up,↑,0.5647305999882519,True,34,1
AC-K-26K26S2,345,experiment,78,↓,down,↓,0.6999367999378592,True,34,1
AC-K-26K26S2,346,experiment,68,↓,down,↓,0.6488273001741618,True,34,1
AC-K-26K26S2,347,experiment,61,↓,down,↓,0.6903841998428106,True,34,1
AC-K-26K26S2,348,experiment,103,←,left,←,0.5884638999123126,True,34,1
AC-K-26K26S2,349,experiment,77,→,left,←,0.586373999947682,False,34,1
AC-K-26K26S2,350,experiment,97,↓,down,↓,0.8985653999261558,True,34,1
AC-K-26K26S2,351,experiment,100,↑,up,↑,0.6444622999988496,True,34,1
AC-K-26K26S2,352,experiment,89,→,right,→,0.6452518000733107,True,34,1
AC-K-26K26S2,353,experiment,101,→,right,→,0.7134199999272823,True,34,1
AC-K-26K26S2,354,experiment,52,→,right,→,0.6032022000290453,True,34,1
AC-K-26K26S2,355,experiment,94,↑,up,↑,0.6196668001357466,True,34,1
AC-K-26K26S2,356,training,52,←,left,←,0.5689156998414546,True,34,0
AC-K-26K26S2,357,training,76,↓,down,↓,0.8965062000788748,True,34,1
AC-K-26K26S2,358,experiment,73,↑,up,↑,0.5637589001562446,True,34,1
AC-K-26K26S2,359,experiment,72,↑,up,↑,0.5807477999478579,True,34,1
AC-K-26K26S2,360,experiment,99,←,left,←,0.5406575999222696,True,34,1
AC-K-26K26S2,361,experiment,60,←,no_key,no_letter,-1.0,False,34,1
AC-K-26K26S2,362,experiment,54,↑,up,↑,0.6661352999508381,True,34,1
AC-K-26K26S2,363,experiment,104,←,left,←,0.6681421999819577,True,34,1
AC-K-26K26S2,364,experiment,87,→,left,←,0.53225740022026,False,34,1
AC-K-26K26S2,365,experiment,69,→,left,←,0.7755481000058353,False,34,1
AC-K-26K26S2,366,experiment,66,↑,up,↑,0.6103237001225352,True,34,1
AC-K-26K26S2,367,experiment,81,↓,down,↓,0.6227672998793423,True,34,1
AC-K-26K26S2,368,experiment,59,←,left,←,0.6897783000022173,True,34,1
AC-K-26K26S2,369,experiment,71,↓,right,→,0.734128599986434,False,34,1
AC-K-26K26S2,370,experiment,53,←,left,←,0.6630498000886291,True,34,1
AC-K-26K26S2,371,experiment,58,↓,down,↓,0.6408709001261741,True,34,1
AC-K-26K26S2,372,experiment,103,→,up,↑,0.4688182999379933,False,34,1
AC-K-26K26S2,373,experiment,88,→,right,→,0.5402055999729782,True,34,1
AC-K-26K26S2,374,experiment,52,→,left,←,0.5490133999846876,False,34,1
AC-K-26K26S2,375,experiment,98,↓,down,↓,0.6059833997860551,True,34,1
AC-K-26K26S2,376,experiment,90,↓,down,↓,0.6313547000754625,True,34,1
AC-K-26K26S2,377,experiment,76,↓,down,↓,0.5804800000041723,True,34,1
AC-K-26K26S2,378,experiment,51,←,left,←,0.6039680000394583,True,34,1
AC-K-26K26S2,379,experiment,49,↑,up,↑,0.6511860999744385,True,34,1
AC-K-26K26S2,380,experiment,56,↓,down,↓,0.5822294000536203,True,34,1
AC-K-26K26S2,381,experiment,106,←,left,←,0.5712263998575509,True,34,1
AC-K-26K26S2,382,experiment,89,↑,up,↑,0.49441729998216033,True,34,1
AC-K-26K26S2,383,experiment,86,←,left,←,0.5259491999167949,True,34,1
AC-K-26K26S2,384,experiment,70,↑,up,↑,0.457772099878639,True,34,1
AC-K-26K26S2,385,experiment,57,←,left,←,0.5397002999670804,True,34,1
AC-K-26K26S2,386,experiment,95,→,left,←,0.49400960002094507,False,34,1
AC-K-26K26S2,387,experiment,64,↑,up,↑,0.7089128999505192,True,34,1
AC-K-26K26S2,388,experiment,107,↓,left,←,0.8044140001293272,False,34,1
AC-K-26K26S2,389,experiment,79,↑,up,↑,0.4976484999060631,True,34,1
AC-K-26K26S2,390,experiment,48,→,right,→,0.7492658002302051,True,34,1
AC-K-26K26S2,391,experiment,96,→,left,←,0.5829086999874562,False,34,1
AC-K-26K26S2,392,experiment,94,→,right,→,0.8160372001584619,True,34,1
AC-K-26K26S2,393,experiment,50,→,right,→,0.5183568000793457,True,34,1
AC-K-26K26S2,394,experiment,80,↑,up,↑,0.7588293000590056,True,34,1
AC-K-26K26S2,395,experiment,74,↑,up,↑,0.5195975999813527,True,34,1
AC-K-26K26S2,396,experiment,78,→,right,→,0.656589699909091,True,34,1
AC-K-26K26S2,397,experiment,67,↑,down,↓,0.7115379001479596,False,34,1
AC-K-26K26S2,398,experiment,91,↑,up,↑,0.49264960014261305,True,34,1
AC-K-26K26S2,399,experiment,65,←,right,→,0.49898959998972714,False,34,1
AC-K-26K26S2,400,experiment,84,→,right,→,0.8668057001195848,True,34,1
AC-K-26K26S2,401,experiment,102,↑,up,↑,0.5419320000801235,True,34,1
AC-K-26K26S2,402,experiment,93,→,left,←,1.2494182998780161,False,34,1
AC-K-26K26S2,403,experiment,83,←,left,←,0.4672536998987198,True,34,1
AC-K-26K26S2,404,experiment,68,↑,up,↑,0.6651378001552075,True,34,1
AC-K-26K26S2,405,experiment,97,←,left,←,0.6624372999649495,True,34,1
AC-K-26K26S2,406,experiment,75,↑,left,←,0.6745388000272214,False,34,1
AC-K-26K26S2,407,experiment,108,↓,down,↓,0.9150819000788033,True,34,1
AC-K-26K26S2,408,experiment,63,↑,up,↑,0.4730929001234472,True,34,1
AC-K-26K26S2,409,experiment,55,→,right,→,0.6593889999203384,True,34,1
AC-K-26K26S2,410,experiment,85,↓,down,↓,0.6924770001787692,True,34,1
AC-K-26K26S2,411,experiment,100,←,left,←,0.49514719983562827,True,34,1
AC-K-26K26S2,412,experiment,61,→,left,←,1.1748779998160899,False,34,1
AC-K-26K26S2,413,experiment,82,→,right,→,0.6601311999838799,True,34,1
AC-K-26K26S2,414,experiment,101,←,left,←,0.5358869000338018,True,34,1
AC-K-26K26S2,415,experiment,105,←,left,←,0.4872576000634581,True,34,1
AC-K-26K26S2,416,experiment,62,→,left,←,0.558667300036177,False,34,1
AC-K-26K26S2,417,experiment,77,→,no_key,no_letter,-1.0,False,34,1
AC-K-26K26S2,418,experiment,92,↓,down,↓,0.8493352001532912,True,34,1
AC-K-26K26S2,419,training,58,↓,down,↓,1.1398839000612497,True,34,0
AC-K-26K26S2,420,training,106,→,right,→,1.63464289996773,True,34,1
AC-K-26K26S2,421,experiment,93,←,left,←,0.6497629000805318,True,34,1
AC-K-26K26S2,422,experiment,60,←,left,←,0.49156049988232553,True,34,1
AC-K-26K26S2,423,experiment,106,↓,down,↓,0.7963561001233757,True,34,1
AC-K-26K26S2,424,experiment,97,←,left,←,0.5234801999758929,True,34,1
AC-K-26K26S2,425,experiment,75,←,left,←,0.5252192001789808,True,34,1
AC-K-26K26S2,426,experiment,83,←,left,←,0.5247700999025255,True,34,1
AC-K-26K26S2,427,experiment,64,→,right,→,0.7136349999345839,True,34,1
AC-K-26K26S2,428,experiment,50,↑,up,↑,0.7402755999937654,True,34,1
AC-K-26K26S2,429,experiment,74,↓,down,↓,0.6137534999288619,True,34,1
AC-K-26K26S2,430,experiment,90,→,right,→,0.6066916000563651,True,34,1
AC-K-26K26S2,431,experiment,77,↑,up,↑,0.46903689997270703,True,34,1
AC-K-26K26S2,432,experiment,107,↓,up,↑,0.6377397999167442,False,34,1
AC-K-26K26S2,433,experiment,72,→,right,→,0.6199566000141203,True,34,1
AC-K-26K26S2,434,experiment,58,←,left,←,0.5915789001155645,True,34,1
AC-K-26K26S2,435,experiment,48,↑,no_key,no_letter,-1.0,False,34,1
AC-K-26K26S2,436,experiment,61,←,left,←,0.7010559998452663,True,34,1
AC-K-26K26S2,437,experiment,66,→,right,→,0.6105556001421064,True,34,1
AC-K-26K26S2,438,experiment,88,←,left,←,0.572635899996385,True,34,1
AC-K-26K26S2,439,experiment,108,→,right,→,0.8012232999317348,True,34,1
AC-K-26K26S2,440,experiment,89,↑,up,↑,0.5152285001240671,True,34,1
AC-K-26K26S2,441,experiment,76,→,right,→,0.7331119000446051,True,34,1
AC-K-26K26S2,442,experiment,69,→,right,→,0.6086223998572677,True,34,1
AC-K-26K26S2,443,experiment,81,←,down,↓,0.6289707999676466,False,34,1
AC-K-26K26S2,444,experiment,73,↑,up,↑,0.6348826999310404,True,34,1
AC-K-26K26S2,445,experiment,68,↑,up,↑,0.9148510999511927,True,34,1
AC-K-26K26S2,446,experiment,78,→,right,→,0.7877601000946015,True,34,1
AC-K-26K26S2,447,experiment,51,←,left,←,0.6905618999153376,True,34,1
AC-K-26K26S2,448,experiment,100,↓,down,↓,0.8052493000868708,True,34,1
AC-K-26K26S2,449,experiment,99,↓,down,↓,0.7156878998503089,True,34,1
AC-K-26K26S2,450,experiment,84,↑,down,↓,0.6587593001313508,False,34,1
AC-K-26K26S2,451,experiment,87,→,right,→,0.6748793998267502,True,34,1
AC-K-26K26S2,452,experiment,79,↓,up,↑,1.2694741999730468,False,34,1
AC-K-26K26S2,453,experiment,96,←,left,←,0.6982702000532299,True,34,1
AC-K-26K26S2,454,experiment,105,←,left,←,0.5070619999896735,True,34,1
AC-K-26K26S2,455,experiment,71,↑,no_key,no_letter,-1.0,False,34,1
AC-K-26K26S2,456,experiment,95,←,left,←,1.5527067000512034,True,34,1
AC-K-26K26S2,457,experiment,57,←,down,↓,0.799521500011906,False,34,1
AC-K-26K26S2,458,experiment,98,↑,up,↑,1.166183500085026,True,34,1
AC-K-26K26S2,459,experiment,85,↓,down,↓,0.6995073000434786,True,34,1
AC-K-26K26S2,460,experiment,91,↑,up,↑,0.544436400057748,True,34,1
AC-K-26K26S2,461,experiment,63,↓,down,↓,0.8611506000161171,True,34,1
AC-K-26K26S2,462,experiment,52,↑,up,↑,0.5374326999299228,True,34,1
AC-K-26K26S2,463,experiment,53,←,left,←,0.5621930998750031,True,34,1
AC-K-26K26S2,464,experiment,59,→,right,→,0.895871700020507,True,34,1
AC-K-26K26S2,465,experiment,94,↓,down,↓,0.7645110001321882,True,34,1
AC-K-26K26S2,466,experiment,80,→,right,→,0.7229331000708044,True,34,1
AC-K-26K26S2,467,experiment,67,←,left,←,0.56738690007478,True,34,1
AC-K-26K26S2,468,experiment,102,↓,down,↓,0.6780824998859316,True,34,1
AC-K-26K26S2,469,experiment,86,←,left,←,0.6462805999908596,True,34,1
AC-K-26K26S2,470,experiment,92,→,right,→,0.8115338999778032,True,34,1
AC-K-26K26S2,471,experiment,55,←,left,←,0.5848138001747429,True,34,1
AC-K-26K26S2,472,experiment,101,←,left,←,1.0475749999750406,True,34,1
AC-K-26K26S2,473,experiment,54,←,left,←,0.539163599954918,True,34,1
AC-K-26K26S2,474,experiment,82,→,right,→,0.8418763999361545,True,34,1
AC-K-26K26S2,475,experiment,70,↑,up,↑,0.7926337001845241,True,34,1
AC-K-26K26S2,476,experiment,62,↓,up,↑,0.5642082002013922,False,34,1
AC-K-26K26S2,477,experiment,56,↑,up,↑,0.5463507999666035,True,34,1
AC-K-26K26S2,478,experiment,104,→,right,→,0.7537072999402881,True,34,1
AC-K-26K26S2,479,experiment,49,→,right,→,0.6591441000346094,True,34,1
AC-K-26K26S2,480,experiment,65,↑,up,↑,0.514398300088942,True,34,1
AC-K-26K26S2,481,experiment,103,→,right,→,0.6912088000681251,True,34,1
AC-K-26K26S2,482,training,87,↓,up,↑,0.5575353000313044,False,34,0
AC-K-26K26S2,483,training,60,→,no_key,no_letter,-1.0,False,34,1
AC-K-26K26S2,484,experiment,63,↓,down,↓,0.8470191000960767,True,34,1
AC-K-26K26S2,485,experiment,100,↓,up,↑,0.5391020998358727,False,34,1
AC-K-26K26S2,486,experiment,103,→,right,→,0.8107880000025034,True,34,1
AC-K-26K26S2,487,experiment,53,↓,down,↓,0.7286793999373913,True,34,1
AC-K-26K26S2,488,experiment,99,↑,up,↑,0.6021577999927104,True,34,1
AC-K-26K26S2,489,experiment,86,→,left,←,0.5333013001363724,False,34,1
AC-K-26K26S2,490,experiment,78,←,left,←,0.7896393002010882,True,34,1
AC-K-26K26S2,491,experiment,69,↑,up,↑,0.5587633000686765,True,34,1
AC-K-26K26S2,492,experiment,68,←,left,←,0.5853862001094967,True,34,1
AC-K-26K26S2,493,experiment,95,→,right,→,0.650154700037092,True,34,1
AC-K-26K26S2,494,experiment,88,↓,down,↓,0.6906798998825252,True,34,1
AC-K-26K26S2,495,experiment,104,→,left,←,0.8759545001666993,False,34,1
AC-K-26K26S2,496,experiment,58,→,right,→,0.6854866000358015,True,34,1
AC-K-26K26S2,497,experiment,72,↑,up,↑,0.7617709001060575,True,34,1
AC-K-26K26S2,498,experiment,97,←,left,←,0.7226537999231368,True,34,1
AC-K-26K26S2,499,experiment,89,→,right,→,0.7118744000326842,True,34,1
AC-K-26K26S2,500,experiment,98,↑,up,↑,0.5384770999662578,True,34,1
AC-K-26K26S2,501,experiment,82,↓,down,↓,0.6410481999628246,True,34,1
AC-K-26K26S2,502,experiment,101,↓,down,↓,0.6456891999114305,True,34,1
AC-K-26K26S2,503,experiment,76,←,left,←,0.5539080000016838,True,34,1
AC-K-26K26S2,504,experiment,55,←,left,←,0.5775194999296218,True,34,1
AC-K-26K26S2,505,experiment,51,↓,down,↓,0.7052476999815553,True,34,1
AC-K-26K26S2,506,experiment,52,↑,up,↑,0.5631055999547243,True,34,1
AC-K-26K26S2,507,experiment,61,↓,down,↓,0.7440410000272095,True,34,1
AC-K-26K26S2,508,experiment,91,↓,down,↓,0.6595428001601249,True,34,1
AC-K-26K26S2,509,experiment,93,↓,down,↓,0.6338971999939531,True,34,1
AC-K-26K26S2,510,experiment,90,↓,down,↓,0.6582869999110699,True,34,1
AC-K-26K26S2,511,experiment,92,←,left,←,0.577286799903959,True,34,1
AC-K-26K26S2,512,experiment,56,↓,no_key,no_letter,-1.0,False,34,1
AC-K-26K26S2,513,experiment,65,←,left,←,0.6351282000541687,True,34,1
AC-K-26K26S2,514,experiment,67,↓,down,↓,0.7630209000781178,True,34,1
AC-K-26K26S2,515,experiment,74,↓,down,↓,0.6197154000401497,True,34,1
AC-K-26K26S2,516,experiment,50,←,left,←,0.6101701001171023,True,34,1
AC-K-26K26S2,517,experiment,75,↓,down,↓,0.6644667000509799,True,34,1
AC-K-26K26S2,518,experiment,80,→,right,→,0.7708823001012206,True,34,1
AC-K-26K26S2,519,experiment,64,↑,up,↑,0.558311800006777,True,34,1
AC-K-26K26S2,520,experiment,102,↑,up,↑,0.5658415998332202,True,34,1
AC-K-26K26S2,521,experiment,48,→,right,→,0.7827278000768274,True,34,1
AC-K-26K26S2,522,experiment,87,←,left,←,0.5702047999948263,True,34,1
AC-K-26K26S2,523,experiment,96,↑,up,↑,0.627436300041154,True,34,1
AC-K-26K26S2,524,experiment,49,↓,up,↑,0.4896390999201685,False,34,1
AC-K-26K26S2,525,experiment,81,↓,up,↑,0.4670591000467539,False,34,1
AC-K-26K26S2,526,experiment,77,↓,down,↓,0.7581507000140846,True,34,1
AC-K-26K26S2,527,experiment,71,←,left,←,0.7199007999151945,True,34,1
AC-K-26K26S2,528,experiment,57,←,left,←,0.4722308998461813,True,34,1
AC-K-26K26S2,529,experiment,108,←,left,←,0.5363684000913054,True,34,1
AC-K-26K26S2,530,experiment,105,←,left,←,0.43406410003080964,True,34,1
AC-K-26K26S2,531,experiment,79,→,right,→,0.883843099931255,True,34,0
AC-K-26K26S2,532,experiment,54,→,right,→,0.7580877998843789,True,34,1
AC-K-26K26S2,533,experiment,107,↑,up,↑,0.5958028000313789,True,34,1
AC-K-26K26S2,534,experiment,60,→,left,←,0.6476805999409407,False,34,1
AC-K-26K26S2,535,experiment,84,←,left,←,0.5370443998835981,True,34,1
AC-K-26K26S2,536,experiment,106,→,right,→,0.7924925000406802,True,34,1
AC-K-26K26S2,537,experiment,70,→,left,←,0.48921200004406273,False,34,1
AC-K-26K26S2,538,experiment,62,→,right,→,1.0644064000807703,True,34,1
AC-K-26K26S2,539,experiment,85,↓,left,←,0.6889673001132905,False,34,1
AC-K-26K26S2,540,experiment,94,→,left,←,0.493730999995023,False,34,1
AC-K-26K26S2,541,experiment,59,↑,up,↑,0.6623064000159502,True,34,1
AC-K-26K26S2,542,experiment,66,←,left,←,0.6215369000565261,True,34,1
AC-K-26K26S2,543,experiment,83,↑,up,↑,0.6004900000989437,True,34,1
AC-K-26K26S2,544,experiment,73,←,left,←,0.5444440001156181,True,34,1
AC-K-26K26S2,545,training,56,↓,no_key,no_letter,-1.0,False,34,0
AC-K-26K26S2,546,training,97,↓,left,←,0.4335137000307441,False,34,1
AC-K-26K26S2,547,experiment,95,↑,up,↑,0.6252516999375075,True,34,0
AC-K-26K26S2,548,experiment,105,↓,down,↓,0.6202231000643224,True,34,1
AC-K-26K26S2,549,experiment,96,↓,down,↓,0.5634411999490112,True,34,1
AC-K-26K26S2,550,experiment,88,↓,down,↓,0.5591225998941809,True,34,1
AC-K-26K26S2,551,experiment,68,↑,down,↓,0.5058993001002818,False,34,1
AC-K-26K26S2,552,experiment,82,↓,down,↓,0.7059969999827445,True,34,1
AC-K-26K26S2,553,experiment,74,↓,down,↓,0.6686904998496175,True,34,1
AC-K-26K26S2,554,experiment,103,↑,up,↑,0.60734250000678,True,34,1
AC-K-26K26S2,555,experiment,75,←,left,←,0.7177536999806762,True,34,1
AC-K-26K26S2,556,experiment,106,←,left,←,0.4334843000397086,True,34,1
AC-K-26K26S2,557,experiment,51,→,right,→,0.8349633999168873,True,34,0
AC-K-26K26S2,558,experiment,62,↑,up,↑,0.5961325999815017,True,34,1
AC-K-26K26S2,559,experiment,92,←,left,←,0.6771668000146747,True,34,1
AC-K-26K26S2,560,experiment,48,←,left,←,0.6018654000945389,True,34,1
AC-K-26K26S2,561,experiment,77,←,left,←,0.5126605001278222,True,34,1
AC-K-26K26S2,562,experiment,53,→,right,→,0.8817473000381142,True,34,1
AC-K-26K26S2,563,experiment,71,→,right,→,0.8387531000189483,True,34,1
AC-K-26K26S2,564,experiment,52,→,right,→,0.7313171999994665,True,34,1
AC-K-26K26S2,565,experiment,85,↓,up,↑,0.6172698999289423,False,34,1
AC-K-26K26S2,566,experiment,84,→,right,→,0.8685612000990659,True,34,1
AC-K-26K26S2,567,experiment,99,→,right,→,0.7925777998752892,True,34,1
AC-K-26K26S2,568,experiment,79,→,right,→,0.7340921999420971,True,34,1
AC-K-26K26S2,569,experiment,57,↓,up,↑,0.7174094999209046,False,34,1
AC-K-26K26S2,570,experiment,108,↓,down,↓,0.6204047000501305,True,34,1
AC-K-26K26S2,571,experiment,91,↓,down,↓,0.6213557000737637,True,34,1
AC-K-26K26S2,572,experiment,69,←,left,←,0.5330619998276234,True,34,1
AC-K-26K26S2,573,experiment,64,→,right,→,0.6738875999581069,True,34,1
AC-K-26K26S2,574,experiment,65,←,left,←,0.5130386999808252,True,34,1
AC-K-26K26S2,575,experiment,61,→,right,→,0.6236310999374837,True,34,1
AC-K-26K26S2,576,experiment,81,→,right,→,0.7555494999978691,True,34,1
AC-K-26K26S2,577,experiment,73,↑,up,↑,0.6447652000933886,True,34,1
AC-K-26K26S2,578,experiment,58,→,right,→,0.7757864000741392,True,34,1
AC-K-26K26S2,579,experiment,93,↓,down,↓,1.0410094000399113,True,34,1
AC-K-26K26S2,580,experiment,56,↓,down,↓,0.6683154001366347,True,34,1
AC-K-26K26S2,581,experiment,50,↑,up,↑,0.5607958000618964,True,34,1
AC-K-26K26S2,582,experiment,86,→,left,←,0.6775128000881523,False,34,1
AC-K-26K26S2,583,experiment,70,↑,up,↑,0.794810299994424,True,34,1
AC-K-26K26S2,584,experiment,78,←,left,←,0.5287995999678969,True,34,1
AC-K-26K26S2,585,experiment,55,↓,up,↑,0.6653563000727445,False,34,1
AC-K-26K26S2,586,experiment,89,←,left,←,0.6327676000073552,True,34,1
AC-K-26K26S2,587,experiment,90,↑,up,↑,0.6251128001604229,True,34,1
AC-K-26K26S2,588,experiment,107,↑,up,↑,0.5721603999845684,True,34,1
AC-K-26K26S2,589,experiment,101,←,left,←,0.7150600000750273,True,34,1
AC-K-26K26S2,590,experiment,104,↓,down,↓,0.9154770998284221,True,34,1
AC-K-26K26S2,591,experiment,76,←,left,←,0.581691199913621,True,34,1
AC-K-26K26S2,592,experiment,100,↑,up,↑,0.5963392001576722,True,34,1
AC-K-26K26S2,593,experiment,87,↓,down,↓,0.6709842998534441,True,34,1
AC-K-26K26S2,594,experiment,67,↑,up,↑,0.5657186000607908,True,34,1
AC-K-26K26S2,595,experiment,54,←,no_key,no_letter,-1.0,False,34,1
AC-K-26K26S2,596,experiment,66,→,left,←,0.7119903999846429,False,34,1
AC-K-26K26S2,597,experiment,49,↑,up,↑,0.7310166000388563,True,34,1
AC-K-26K26S2,598,experiment,63,↓,up,↑,0.936344200046733,False,34,1
AC-K-26K26S2,599,experiment,83,↑,up,↑,0.5750708000268787,True,34,1
AC-K-26K26S2,600,experiment,60,↑,up,↑,0.595871499972418,True,34,1
AC-K-26K26S2,601,experiment,97,↑,up,↑,0.47559659997932613,True,34,1
AC-K-26K26S2,602,experiment,94,↓,down,↓,0.7528582999948412,True,34,1
AC-K-26K26S2,603,experiment,72,←,left,←,0.6747882000636309,True,34,1
AC-K-26K26S2,604,experiment,102,↑,up,↑,0.5974954999983311,True,34,1
AC-K-26K26S2,605,experiment,98,←,left,←,0.5565669999923557,True,34,1
AC-K-26K26S2,606,experiment,80,↓,down,↓,0.7231103999074548,True,34,1
AC-K-26K26S2,607,experiment,59,←,left,←,0.57034119986929,True,34,1
AC-K-26K26S2,608,training,66,↓,down,↓,0.6860911999829113,True,34,0
AC-K-26K26S2,609,training,99,→,right,→,0.6659979000687599,True,34,1
AC-K-26K26S2,610,experiment,98,→,left,←,0.5337493000552058,False,34,1
AC-K-26K26S2,611,experiment,48,↓,down,↓,0.6481305998750031,True,34,1
AC-K-26K26S2,612,experiment,97,←,left,←,0.5815886999480426,True,34,1
AC-K-26K26S2,613,experiment,66,↑,up,↑,0.6799652001354843,True,34,1
AC-K-26K26S2,614,experiment,88,↓,down,↓,0.7351259000133723,True,34,1
AC-K-26K26S2,615,experiment,95,→,right,→,0.7298924000933766,True,34,1
AC-K-26K26S2,616,experiment,70,↑,down,↓,0.7088580999989063,False,34,1
AC-K-26K26S2,617,experiment,49,↑,down,↓,0.7281312001869082,False,34,1
AC-K-26K26S2,618,experiment,50,↓,down,↓,0.7300156001001596,True,34,1
AC-K-26K26S2,619,experiment,90,←,left,←,0.6462756998371333,True,34,1
AC-K-26K26S2,620,experiment,52,↓,up,↑,0.7066303000319749,False,34,1
AC-K-26K26S2,621,experiment,57,→,right,→,0.8191581000573933,True,34,1
AC-K-26K26S2,622,experiment,51,←,left,←,0.7374360000248998,True,34,1
AC-K-26K26S2,623,experiment,82,↓,down,↓,0.7288447001483291,True,34,1
AC-K-26K26S2,624,experiment,56,↑,up,↑,0.6002289999742061,True,34,1
AC-K-26K26S2,625,experiment,80,→,right,→,0.6292969998903573,True,34,1
AC-K-26K26S2,626,experiment,73,←,left,←,0.5553269998636097,True,34,1
AC-K-26K26S2,627,experiment,85,←,left,←,0.49645650014281273,True,34,1
AC-K-26K26S2,628,experiment,63,↓,down,↓,0.7113528999034315,True,34,1
AC-K-26K26S2,629,experiment,89,↑,down,↓,0.612869800068438,False,34,1
AC-K-26K26S2,630,experiment,61,↓,down,↓,0.5841888999566436,True,34,1
AC-K-26K26S2,631,experiment,100,↑,up,↑,0.6305939999874681,True,34,1
AC-K-26K26S2,632,experiment,106,→,right,→,0.8176168999634683,True,34,1
AC-K-26K26S2,633,experiment,96,→,right,→,0.5606275999452919,True,34,1
AC-K-26K26S2,634,experiment,93,↑,left,←,0.5071945001836866,False,34,1
AC-K-26K26S2,635,experiment,72,→,right,→,0.6704903999343514,True,34,1
AC-K-26K26S2,636,experiment,94,←,left,←,0.5720647000707686,True,34,1
AC-K-26K26S2,637,experiment,92,↓,down,↓,0.6700971000827849,True,34,1
AC-K-26K26S2,638,experiment,81,↓,down,↓,0.7524472000077367,True,34,1
AC-K-26K26S2,639,experiment,64,↓,down,↓,0.7326013999991119,True,34,1
AC-K-26K26S2,640,experiment,74,←,left,←,0.7505689000245184,True,34,1
AC-K-26K26S2,641,experiment,101,↓,down,↓,0.7023305001202971,True,34,1
AC-K-26K26S2,642,experiment,65,↑,up,↑,0.6126190000213683,True,34,1
AC-K-26K26S2,643,experiment,75,→,right,→,0.826244099996984,True,34,1
AC-K-26K26S2,644,experiment,58,→,right,→,0.6860122000798583,True,34,1
AC-K-26K26S2,645,experiment,104,→,right,→,0.6552424000110477,True,34,1
AC-K-26K26S2,646,experiment,60,↑,up,↑,0.6649894001893699,True,34,1
AC-K-26K26S2,647,experiment,105,↓,up,↑,0.5309377000667155,False,34,1
AC-K-26K26S2,648,experiment,84,→,right,→,0.6574742998927832,True,34,1
AC-K-26K26S2,649,experiment,99,←,left,←,0.5818097000010312,True,34,1
AC-K-26K26S2,650,experiment,83,↓,down,↓,0.7623974001035094,True,34,1
AC-K-26K26S2,651,experiment,55,↑,up,↑,0.6251504998654127,True,34,1
AC-K-26K26S2,652,experiment,62,↑,up,↑,0.5314534001518041,True,34,1
AC-K-26K26S2,653,experiment,77,↓,down,↓,0.6441144999116659,True,34,1
AC-K-26K26S2,654,experiment,107,↓,down,↓,0.6304673999547958,True,34,1
AC-K-26K26S2,655,experiment,91,↓,up,↑,0.6303401999175549,False,34,1
AC-K-26K26S2,656,experiment,103,→,right,→,0.7382336999289691,True,34,1
AC-K-26K26S2,657,experiment,68,↑,up,↑,0.5819322001188993,True,34,1
AC-K-26K26S2,658,experiment,53,→,left,←,0.7005386999808252,False,34,1
AC-K-26K26S2,659,experiment,78,↓,down,↓,0.7019821000285447,True,34,1
AC-K-26K26S2,660,experiment,59,↑,up,↑,0.638214600039646,True,34,1
AC-K-26K26S2,661,experiment,87,←,left,←,0.5838937999214977,True,34,1
AC-K-26K26S2,662,experiment,86,→,right,→,0.7312390999868512,True,34,1
AC-K-26K26S2,663,experiment,71,→,left,←,0.5665007000789046,False,34,1
AC-K-26K26S2,664,experiment,76,↑,up,↑,0.6135309999808669,True,34,1
AC-K-26K26S2,665,experiment,108,↑,up,↑,0.6247032999526709,True,34,1
AC-K-26K26S2,666,experiment,54,→,right,→,0.6853809000458568,True,34,1
AC-K-26K26S2,667,experiment,79,→,left,←,0.5995335001498461,False,34,1
AC-K-26K26S2,668,experiment,102,↑,up,↑,0.6289862000849098,True,34,1
AC-K-26K26S2,669,experiment,69,↑,up,↑,0.5007227000314742,True,34,1
AC-K-26K26S2,670,experiment,67,↑,no_key,no_letter,-1.0,False,34,1
AC-K-26K26S2,671,training,105,↑,down,↓,0.7955648000352085,False,34,0
AC-K-26K26S2,672,training,53,↓,down,↓,0.8092525000683963,True,34,1
AC-K-26K26S2,673,experiment,99,→,right,→,0.7998672001995146,True,34,1
AC-K-26K26S2,674,experiment,103,←,left,←,0.5091260999906808,True,34,1
AC-K-26K26S2,675,experiment,93,→,right,→,0.5614428000990301,True,34,1
AC-K-26K26S2,676,experiment,94,→,right,→,0.6915111001580954,True,34,1
AC-K-26K26S2,677,experiment,85,←,right,→,0.7873811000026762,False,34,1
AC-K-26K26S2,678,experiment,59,←,right,→,0.5280627999454737,False,34,1
AC-K-26K26S2,679,experiment,97,←,left,←,0.4746149000711739,True,34,1
AC-K-26K26S2,680,experiment,81,↓,down,↓,0.6841736000496894,True,34,1
AC-K-26K26S2,681,experiment,75,↓,down,↓,0.7834596000611782,True,34,1
AC-K-26K26S2,682,experiment,88,↓,down,↓,0.6026694998145103,True,34,1
AC-K-26K26S2,683,experiment,51,←,left,←,0.6652747998014092,True,34,1
AC-K-26K26S2,684,experiment,82,↑,up,↑,0.6593985001090914,True,34,1
AC-K-26K26S2,685,experiment,74,↑,up,↑,0.6633976998273283,True,34,1
AC-K-26K26S2,686,experiment,70,←,left,←,0.6534055001102388,True,34,1
AC-K-26K26S2,687,experiment,98,↓,down,↓,0.6904647001065314,True,34,1
AC-K-26K26S2,688,experiment,72,↑,up,↑,0.6384620999451727,True,34,1
AC-K-26K26S2,689,experiment,101,↑,up,↑,0.6506858000066131,True,34,1
AC-K-26K26S2,690,experiment,49,↑,up,↑,0.5523524999152869,True,34,1
AC-K-26K26S2,691,experiment,108,←,left,←,0.6699747999664396,True,34,1
AC-K-26K26S2,692,experiment,64,←,left,←,0.5581667998339981,True,34,1
AC-K-26K26S2,693,experiment,80,↓,up,↑,0.6442247000522912,False,34,1
AC-K-26K26S2,694,experiment,100,→,right,→,0.7770458001177758,True,34,1
AC-K-26K26S2,695,experiment,52,↑,up,↑,0.6804156999569386,True,34,1
AC-K-26K26S2,696,experiment,79,↑,up,↑,0.6185792000032961,True,34,1
AC-K-26K26S2,697,experiment,61,↓,up,↑,0.5331862999591976,False,34,1
AC-K-26K26S2,698,experiment,66,↓,down,↓,0.7858695001341403,True,34,1
AC-K-26K26S2,699,experiment,107,←,left,←,0.6543793000746518,True,34,1
AC-K-26K26S2,700,experiment,95,←,left,←,0.6126139999832958,True,34,1
AC-K-26K26S2,701,experiment,58,↑,up,↑,0.5522099998779595,True,34,1
AC-K-26K26S2,702,experiment,63,↑,up,↑,0.6048731999471784,True,34,1
AC-K-26K26S2,703,experiment,89,→,right,→,0.8308083999436349,True,34,1
AC-K-26K26S2,704,experiment,69,↑,up,↑,0.5660159001126885,True,34,1
AC-K-26K26S2,705,experiment,104,↓,down,↓,0.7325444999150932,True,34,1
AC-K-26K26S2,706,experiment,87,←,left,←,0.577651800122112,True,34,1
AC-K-26K26S2,707,experiment,76,←,left,←,0.5610547000542283,True,34,1
AC-K-26K26S2,708,experiment,86,→,left,←,0.4781106000300497,False,34,1
AC-K-26K26S2,709,experiment,53,←,left,←,0.5364681000355631,True,34,1
AC-K-26K26S2,710,experiment,62,↑,up,↑,0.7023877999745309,True,34,1
AC-K-26K26S2,711,experiment,67,←,left,←,0.6197653000708669,True,34,1
AC-K-26K26S2,712,experiment,68,←,left,←,0.48414920014329255,True,34,1
AC-K-26K26S2,713,experiment,78,←,left,←,0.4945867001079023,True,34,1
AC-K-26K26S2,714,experiment,106,↓,down,↓,0.7911514998413622,True,34,1
AC-K-26K26S2,715,experiment,77,→,left,←,0.5095889000222087,False,34,1
AC-K-26K26S2,716,experiment,55,↓,down,↓,0.6068273999262601,True,34,1
AC-K-26K26S2,717,experiment,90,←,left,←,0.536262399982661,True,34,1
AC-K-26K26S2,718,experiment,56,→,left,←,0.623813500162214,False,34,1
AC-K-26K26S2,719,experiment,54,→,left,←,0.45330499997362494,False,34,1
AC-K-26K26S2,720,experiment,83,↑,up,↑,0.6543833001051098,True,34,1
AC-K-26K26S2,721,experiment,105,↑,no_key,no_letter,-1.0,False,34,1
AC-K-26K26S2,722,experiment,91,↑,up,↑,0.484495900105685,True,34,1
AC-K-26K26S2,723,experiment,92,↓,down,↓,0.7538989998865873,True,34,1
AC-K-26K26S2,724,experiment,73,→,right,→,0.8589198999106884,True,34,1
AC-K-26K26S2,725,experiment,84,↓,down,↓,0.7084548999555409,True,34,1
AC-K-26K26S2,726,experiment,65,←,left,←,0.6500792000442743,True,34,1
AC-K-26K26S2,727,experiment,57,↓,down,↓,0.6527855000458658,True,34,1
AC-K-26K26S2,728,experiment,102,↓,down,↓,0.664598299888894,True,34,1
AC-K-26K26S2,729,experiment,96,→,right,→,0.6855223998427391,True,34,1
AC-K-26K26S2,730,experiment,60,↓,down,↓,1.0859062999952585,True,34,1
AC-K-26K26S2,731,experiment,50,↓,down,↓,0.5613190000876784,True,34,1
AC-K-26K26S2,732,experiment,48,←,left,←,0.563051600009203,True,34,1
AC-K-26K26S2,733,experiment,71,↑,up,↑,0.6443570000119507,True,34,1
AC-K-26K26S2,734,training,56,←,left,←,0.4944213000126183,True,34,0
AC-K-26K26S2,735,training,54,↓,down,↓,0.696575399953872,True,34,1
AC-K-26K26S2,736,experiment,53,↑,up,↑,0.5065366998314857,True,34,1
AC-K-26K26S2,737,experiment,73,←,left,←,0.45418639993295074,True,34,1
AC-K-26K26S2,738,experiment,61,↓,down,↓,0.6550302000250667,True,34,1
AC-K-26K26S2,739,experiment,64,←,right,→,0.6629037000238895,False,34,1
AC-K-26K26S2,740,experiment,87,↑,up,↑,0.6390343999955803,True,34,1
AC-K-26K26S2,741,experiment,101,↑,up,↑,0.5632194001227617,True,34,1
AC-K-26K26S2,742,experiment,58,↑,up,↑,0.6736047000158578,True,34,1
AC-K-26K26S2,743,experiment,75,↑,up,↑,0.5251241000369191,True,34,1
AC-K-26K26S2,744,experiment,81,→,right,→,0.7329845000058413,True,34,1
AC-K-26K26S2,745,experiment,72,←,left,←,0.5510927999857813,True,34,1
AC-K-26K26S2,746,experiment,67,→,right,→,0.6586831000167876,True,34,1
AC-K-26K26S2,747,experiment,96,↓,down,↓,1.1518916001077741,True,34,1
AC-K-26K26S2,748,experiment,49,↑,up,↑,0.5774630999658257,True,34,1
AC-K-26K26S2,749,experiment,107,→,right,→,0.6701431998517364,True,34,1
AC-K-26K26S2,750,experiment,100,→,right,→,0.5862847999669611,True,34,1
AC-K-26K26S2,751,experiment,76,↓,down,↓,0.6172684000339359,True,34,1
AC-K-26K26S2,752,experiment,69,→,right,→,0.5773509999271482,True,34,1
AC-K-26K26S2,753,experiment,50,↑,up,↑,0.47338809981010854,True,34,1
AC-K-26K26S2,754,experiment,85,↓,down,↓,0.7136625000275671,True,34,1
AC-K-26K26S2,755,experiment,88,↓,down,↓,0.5754537000320852,True,34,1
AC-K-26K26S2,756,experiment,94,↓,up,↑,0.6887475999537855,False,34,1
AC-K-26K26S2,757,experiment,95,←,left,←,0.5571405000519007,True,34,1
AC-K-26K26S2,758,experiment,86,←,left,←,0.3998420999851078,True,34,1
AC-K-26K26S2,759,experiment,77,←,left,←,0.6717671998776495,True,34,0
AC-K-26K26S2,760,experiment,79,↓,down,↓,0.8178791000973433,True,34,1
AC-K-26K26S2,761,experiment,89,↓,down,↓,0.8595042999368161,True,34,1
AC-K-26K26S2,762,experiment,83,↓,down,↓,0.5969267999753356,True,34,1
AC-K-26K26S2,763,experiment,82,→,right,→,0.7453734001610428,True,34,1
AC-K-26K26S2,764,experiment,56,→,no_key,no_letter,-1.0,False,34,1
AC-K-26K26S2,765,experiment,71,←,left,←,0.5466457998845726,True,34,1
AC-K-26K26S2,766,experiment,51,←,left,←,0.6675619001034647,True,34,1
AC-K-26K26S2,767,experiment,99,↑,up,↑,0.7435840000398457,True,34,1
AC-K-26K26S2,768,experiment,93,↓,down,↓,0.6104518000502139,True,34,1
AC-K-26K26S2,769,experiment,63,←,left,←,0.5410126000642776,True,34,1
AC-K-26K26S2,770,experiment,92,↑,up,↑,0.6721994001418352,True,34,1
AC-K-26K26S2,771,experiment,108,↓,down,↓,0.6408865000121295,True,34,1
AC-K-26K26S2,772,experiment,105,↑,up,↑,0.587993900058791,True,34,1
AC-K-26K26S2,773,experiment,106,←,left,←,0.9046760001219809,True,34,1
AC-K-26K26S2,774,experiment,104,→,left,←,0.601505900034681,False,34,1
AC-K-26K26S2,775,experiment,55,←,left,←,0.4632617000024766,True,34,1
AC-K-26K26S2,776,experiment,70,↓,down,↓,0.6364112000446767,True,34,1
AC-K-26K26S2,777,experiment,74,↓,down,↓,0.7620754998642951,True,34,1
AC-K-26K26S2,778,experiment,91,←,left,←,0.49313839990645647,True,34,1
AC-K-26K26S2,779,experiment,57,↓,down,↓,0.7022635999601334,True,34,1
AC-K-26K26S2,780,experiment,103,→,right,→,0.8956587000284344,True,34,1
AC-K-26K26S2,781,experiment,62,↑,up,↑,0.6307706998195499,True,34,1
AC-K-26K26S2,782,experiment,65,↑,up,↑,0.5193562000058591,True,34,1
AC-K-26K26S2,783,experiment,84,↓,down,↓,0.7346145999617875,True,34,1
AC-K-26K26S2,784,experiment,68,↓,up,↑,0.5702223000116646,False,34,1
AC-K-26K26S2,785,experiment,60,↓,down,↓,0.591321799904108,True,34,1
AC-K-26K26S2,786,experiment,98,↑,up,↑,0.6226456000003964,True,34,1
AC-K-26K26S2,787,experiment,97,↑,up,↑,0.5408298999536783,True,34,1
AC-K-26K26S2,788,experiment,102,→,left,←,0.5810575000941753,False,34,1
AC-K-26K26S2,789,experiment,66,←,left,←,0.7354126998689026,True,34,1
AC-K-26K26S2,790,experiment,90,→,left,←,0.5398717999923974,False,34,1
AC-K-26K26S2,791,experiment,80,→,right,→,0.859237200114876,True,34,1
AC-K-26K26S2,792,experiment,52,←,left,←,0.5992952999658883,True,34,1
AC-K-26K26S2,793,experiment,59,→,right,→,0.8193979000207037,True,34,1
AC-K-26K26S2,794,experiment,54,→,right,→,0.5763892999384552,True,34,1
AC-K-26K26S2,795,experiment,48,←,left,←,0.5531796000432223,True,34,1
AC-K-26K26S2,796,experiment,78,↓,down,↓,0.7288754000328481,True,34,1
AC-K-26K26S2,797,training,96,←,left,←,0.525231400039047,True,34,0
AC-K-26K26S2,798,training,99,↑,up,↑,0.5906679001636803,True,34,1
AC-K-26K26S2,799,experiment,63,→,left,←,0.514360100030899,False,34,1
AC-K-26K26S2,800,experiment,66,→,left,←,0.5510852001607418,False,34,1
AC-K-26K26S2,801,experiment,65,←,left,←,0.4909458998590708,True,34,1
AC-K-26K26S2,802,experiment,76,↑,up,↑,0.5899077001959085,True,34,1
AC-K-26K26S2,803,experiment,99,←,left,←,0.5649906999897212,True,34,1
AC-K-26K26S2,804,experiment,86,←,left,←,0.529060399858281,True,34,1
AC-K-26K26S2,805,experiment,96,↓,down,↓,0.6914043000433594,True,34,1
AC-K-26K26S2,806,experiment,94,←,left,←,0.49617079994641244,True,34,1
AC-K-26K26S2,807,experiment,74,→,left,←,0.5158983999863267,False,34,1
AC-K-26K26S2,808,experiment,75,↑,up,↑,0.7172725000418723,True,34,1
AC-K-26K26S2,809,experiment,55,→,left,←,0.5179983000271022,False,34,1
AC-K-26K26S2,810,experiment,91,↓,left,←,0.5148767998907715,False,34,1
AC-K-26K26S2,811,experiment,82,↑,up,↑,0.5304761999286711,True,34,1
AC-K-26K26S2,812,experiment,57,←,left,←,0.5461469998117536,True,34,1
AC-K-26K26S2,813,experiment,56,←,left,←,0.5053344999905676,True,34,1
AC-K-26K26S2,814,experiment,81,→,left,←,0.5138473000843078,False,34,1
AC-K-26K26S2,815,experiment,108,→,right,→,0.8169581999536604,True,34,1
AC-K-26K26S2,816,experiment,71,→,right,→,0.9761190998833627,True,34,1
AC-K-26K26S2,817,experiment,62,↑,up,↑,0.6041780000086874,True,34,1
AC-K-26K26S2,818,experiment,87,→,left,←,0.542509000049904,False,34,1
AC-K-26K26S2,819,experiment,100,↑,up,↑,0.6072913000825793,True,34,1
AC-K-26K26S2,820,experiment,106,↓,down,↓,0.7952868000138551,True,34,1
AC-K-26K26S2,821,experiment,102,↓,down,↓,0.5932863999623805,True,34,1
AC-K-26K26S2,822,experiment,80,←,left,←,0.6386928998399526,True,34,1
AC-K-26K26S2,823,experiment,50,↓,down,↓,0.7720693999435753,True,34,1
AC-K-26K26S2,824,experiment,53,→,right,→,0.7311631001066417,True,34,1
AC-K-26K26S2,825,experiment,104,→,right,→,0.7629255000501871,True,34,1
AC-K-26K26S2,826,experiment,73,←,left,←,0.8599139000289142,True,34,1
AC-K-26K26S2,827,experiment,95,←,left,←,0.6094432999379933,True,34,1
AC-K-26K26S2,828,experiment,83,←,left,←,0.47707609995268285,True,34,1
AC-K-26K26S2,829,experiment,70,←,left,←,0.48278189986012876,True,34,1
AC-K-26K26S2,830,experiment,61,→,right,→,0.8106974998954684,True,34,1
AC-K-26K26S2,831,experiment,98,←,left,←,0.5773056000471115,True,34,1
AC-K-26K26S2,832,experiment,78,→,right,→,0.60779959987849,True,34,1
AC-K-26K26S2,833,experiment,52,↑,up,↑,0.6136817000806332,True,34,1
AC-K-26K26S2,834,experiment,54,↓,up,↑,0.77907619997859,False,34,1
AC-K-26K26S2,835,experiment,51,→,right,→,0.698645900003612,True,34,1
AC-K-26K26S2,836,experiment,101,→,left,←,0.6444239998236299,False,34,1
AC-K-26K26S2,837,experiment,93,↓,up,↑,0.6434991999994963,False,34,1
AC-K-26K26S2,838,experiment,60,→,right,→,0.5898200999945402,True,34,1
AC-K-26K26S2,839,experiment,48,←,left,←,0.7255356998648494,True,34,1
AC-K-26K26S2,840,experiment,58,←,left,←,0.5810984000563622,True,34,1
AC-K-26K26S2,841,experiment,72,↓,down,↓,0.7494901001919061,True,34,1
AC-K-26K26S2,842,experiment,67,←,left,←,0.6088670999743044,True,34,1
AC-K-26K26S2,843,experiment,64,←,left,←,0.47528439993038774,True,34,1
AC-K-26K26S2,844,experiment,107,↑,left,←,0.8518791000824422,False,34,1
AC-K-26K26S2,845,experiment,79,↑,up,↑,0.7753272999543697,True,34,1
AC-K-26K26S2,846,experiment,68,←,left,←,0.5450933000538498,True,34,1
AC-K-26K26S2,847,experiment,97,↓,left,←,0.45974119985476136,False,34,1
AC-K-26K26S2,848,experiment,69,↓,down,↓,0.5855137000326067,True,34,1
AC-K-26K26S2,849,experiment,49,←,left,←,0.5937198000028729,True,34,1
AC-K-26K26S2,850,experiment,103,↓,down,↓,0.727305999957025,True,34,1
AC-K-26K26S2,851,experiment,89,↑,down,↓,0.6283507000189275,False,34,1
AC-K-26K26S2,852,experiment,85,↑,up,↑,0.6308979999739677,True,34,1
AC-K-26K26S2,853,experiment,90,↓,down,↓,0.6472716999705881,True,34,1
AC-K-26K26S2,854,experiment,88,→,right,→,0.679683999856934,True,34,1
AC-K-26K26S2,855,experiment,92,↑,up,↑,0.7093096000608057,True,34,1
AC-K-26K26S2,856,experiment,59,↑,up,↑,0.5008884000126272,True,34,1
AC-K-26K26S2,857,experiment,84,→,left,←,0.7165742998477072,False,34,1
AC-K-26K26S2,858,experiment,105,→,left,←,0.7246321998536587,False,34,1
AC-K-26K26S2,859,experiment,77,↓,down,↓,0.7337086000479758,True,34,1
AC-K-26K26S2,860,training,69,↑,up,↑,0.5657126000151038,True,34,0
AC-K-26K26S2,861,training,63,←,left,←,0.761796000180766,True,34,1
AC-K-26K26S2,862,experiment,96,↑,up,↑,0.5711454001720995,True,34,1
AC-K-26K26S2,863,experiment,56,←,left,←,0.5054419001098722,True,34,1
AC-K-26K26S2,864,experiment,65,←,left,←,0.574951299931854,True,34,1
AC-K-26K26S2,865,experiment,89,↓,down,↓,0.7220264000352472,True,34,1
AC-K-26K26S2,866,experiment,97,↓,down,↓,0.7162986001931131,True,34,1
AC-K-26K26S2,867,experiment,76,→,right,→,0.8783026000019163,True,34,1
AC-K-26K26S2,868,experiment,49,↑,up,↑,0.6744637000374496,True,34,1
AC-K-26K26S2,869,experiment,103,↓,down,↓,0.7410506000742316,True,34,1
AC-K-26K26S2,870,experiment,77,←,left,←,0.533005699981004,True,34,1
AC-K-26K26S2,871,experiment,62,↑,up,↑,0.6270614999812096,True,34,1
AC-K-26K26S2,872,experiment,87,←,left,←,0.5648645998444408,True,34,1
AC-K-26K26S2,873,experiment,73,←,left,←,0.5255946998950094,True,34,1
AC-K-26K26S2,874,experiment,101,↓,down,↓,0.7984341999981552,True,34,1
AC-K-26K26S2,875,experiment,81,↓,down,↓,0.8592278000432998,True,34,1
AC-K-26K26S2,876,experiment,50,←,left,←,0.8398794999811798,True,34,1
AC-K-26K26S2,877,experiment,100,←,left,←,0.588389600161463,True,34,1
AC-K-26K26S2,878,experiment,107,←,left,←,0.5050794000271708,True,34,1
AC-K-26K26S2,879,experiment,61,←,left,←,0.4726740999612957,True,34,1
AC-K-26K26S2,880,experiment,83,↓,down,↓,0.7690324999857694,True,34,1
AC-K-26K26S2,881,experiment,75,→,right,→,0.8011836998630315,True,34,1
AC-K-26K26S2,882,experiment,71,→,left,←,0.505081000039354,False,34,1
AC-K-26K26S2,883,experiment,68,→,left,←,0.5821517000440508,False,34,1
AC-K-26K26S2,884,experiment,95,↓,down,↓,0.7428858999628574,True,34,1
AC-K-26K26S2,885,experiment,85,↑,up,↑,0.7005342999473214,True,34,1
AC-K-26K26S2,886,experiment,99,↓,up,↑,0.6472070999443531,False,34,1
AC-K-26K26S2,887,experiment,64,→,left,←,0.7282926000189036,False,34,1
AC-K-26K26S2,888,experiment,59,↓,down,↓,0.6786435998510569,True,34,1
AC-K-26K26S2,889,experiment,84,←,left,←,0.6715253000147641,True,34,1
AC-K-26K26S2,890,experiment,104,↑,up,↑,0.6897634000051767,True,34,1
AC-K-26K26S2,891,experiment,52,→,left,←,0.7161705999169499,False,34,1
AC-K-26K26S2,892,experiment,90,↑,up,↑,0.5613055999856442,True,34,1
AC-K-26K26S2,893,experiment,98,↓,up,↑,0.537977300118655,False,34,1
AC-K-26K26S2,894,experiment,69,←,left,←,0.524843200109899,True,34,1
AC-K-26K26S2,895,experiment,70,→,left,←,0.43405520007945597,False,34,1
AC-K-26K26S2,896,experiment,48,↓,no_key,no_letter,-1.0,False,34,0
AC-K-26K26S2,897,experiment,74,←,no_key,no_letter,-1.0,False,34,1
AC-K-26K26S2,898,experiment,78,↑,up,↑,0.5749976998195052,True,34,1
AC-K-26K26S2,899,experiment,94,←,left,←,0.47254839981906116,True,34,1
AC-K-26K26S2,900,experiment,55,↑,up,↑,0.6027584001421928,True,34,1
AC-K-26K26S2,901,experiment,60,→,left,←,0.5185914998874068,False,34,1
AC-K-26K26S2,902,experiment,82,↓,left,←,0.8543620998971164,False,34,1
AC-K-26K26S2,903,experiment,53,↓,down,↓,0.9385341999586672,True,34,1
AC-K-26K26S2,904,experiment,66,→,right,→,0.7583759999834001,True,34,1
AC-K-26K26S2,905,experiment,105,↓,down,↓,0.9568894000258297,True,34,1
AC-K-26K26S2,906,experiment,54,→,right,→,0.612151499837637,True,34,1
AC-K-26K26S2,907,experiment,63,←,left,←,0.5266374999191612,True,34,1
AC-K-26K26S2,908,experiment,58,↑,up,↑,0.6455802000127733,True,34,1
AC-K-26K26S2,909,experiment,80,↓,down,↓,0.6089063000399619,True,34,1
AC-K-26K26S2,910,experiment,67,←,left,←,0.5939527000300586,True,34,1
AC-K-26K26S2,911,experiment,79,↑,up,↑,0.6558729000389576,True,34,1
AC-K-26K26S2,912,experiment,91,↑,up,↑,0.4868881998118013,True,34,1
AC-K-26K26S2,913,experiment,93,←,left,←,0.5077896001748741,True,34,1
AC-K-26K26S2,914,experiment,72,←,no_key,no_letter,-1.0,False,34,1
AC-K-26K26S2,915,experiment,108,↑,up,↑,0.6127400000113994,True,34,1
AC-K-26K26S2,916,experiment,92,↓,down,↓,0.8450560998171568,True,34,1
AC-K-26K26S2,917,experiment,86,←,left,←,0.49447040003724396,True,34,1
AC-K-26K26S2,918,experiment,57,→,right,→,0.6715647000819445,True,34,1
AC-K-26K26S2,919,experiment,102,←,left,←,0.5143091001082212,True,34,1
AC-K-26K26S2,920,experiment,88,↑,up,↑,0.6080928000155836,True,34,1
AC-K-26K26S2,921,experiment,51,↓,down,↓,0.782605999847874,True,34,1
AC-K-26K26S2,922,experiment,106,↓,down,↓,0.6916627997998148,True,34,1
AC-K-26K26S2,923,training,102,↓,no_key,no_letter,-1.0,False,34,3
AC-K-26K26S2,924,training,104,→,no_key,no_letter,-1.0,False,34,1
AC-K-26K26S2,925,experiment,55,→,right,→,1.2195753001142293,True,34,1
AC-K-26K26S2,926,experiment,92,←,left,←,0.5874930999707431,True,34,1
AC-K-26K26S2,927,experiment,54,→,right,→,0.5467795999720693,True,34,1
AC-K-26K26S2,928,experiment,74,↓,up,↑,0.47498450009152293,False,34,1
AC-K-26K26S2,929,experiment,82,↓,down,↓,0.6604198000859469,True,34,1
AC-K-26K26S2,930,experiment,52,↓,down,↓,0.6243445000145584,True,34,1
AC-K-26K26S2,931,experiment,62,↓,down,↓,0.6023516000714153,True,34,1
AC-K-26K26S2,932,experiment,70,↓,down,↓,0.5789957998786122,True,34,1
AC-K-26K26S2,933,experiment,104,↓,down,↓,0.6330053999554366,True,34,1
AC-K-26K26S2,934,experiment,99,↑,up,↑,0.47037649992853403,True,34,1
AC-K-26K26S2,935,experiment,79,↑,up,↑,0.4183179000392556,True,34,1
AC-K-26K26S2,936,experiment,60,↑,up,↑,0.43405540008097887,True,34,0
AC-K-26K26S2,937,experiment,59,←,left,←,0.6541485998313874,True,34,0
AC-K-26K26S2,938,experiment,97,↑,up,↑,0.42575379996560514,True,34,1
AC-K-26K26S2,939,experiment,76,↓,up,↑,0.4568719998933375,False,34,0
AC-K-26K26S2,940,experiment,78,→,up,↑,0.6675875000655651,False,34,1
AC-K-26K26S2,941,experiment,58,←,left,←,0.6614292999729514,True,34,1
AC-K-26K26S2,942,experiment,53,→,left,←,0.5450838000979275,False,34,1
AC-K-26K26S2,943,experiment,96,←,left,←,0.5393477000761777,True,34,1
AC-K-26K26S2,944,experiment,100,←,left,←,0.46074020001105964,True,34,1
AC-K-26K26S2,945,experiment,95,↑,up,↑,0.5852129999548197,True,34,1
AC-K-26K26S2,946,experiment,63,↓,up,↑,0.5567229001317173,False,34,1
AC-K-26K26S2,947,experiment,66,↓,down,↓,0.6641375999897718,True,34,1
AC-K-26K26S2,948,experiment,69,←,right,→,0.6143633001483977,False,34,1
AC-K-26K26S2,949,experiment,102,←,left,←,0.6113315001130104,True,34,1
AC-K-26K26S2,950,experiment,106,←,left,←,0.5513510000891984,True,34,1
AC-K-26K26S2,951,experiment,48,→,right,→,0.9371873999480158,True,34,1
AC-K-26K26S2,952,experiment,50,↓,down,↓,0.6588063999079168,True,34,1
AC-K-26K26S2,953,experiment,75,↑,up,↑,0.5033422999549657,True,34,1
AC-K-26K26S2,954,experiment,94,↑,up,↑,0.49946389999240637,True,34,1
AC-K-26K26S2,955,experiment,56,↓,down,↓,0.7805806000251323,True,34,1
AC-K-26K26S2,956,experiment,90,→,left,←,0.6711532000917941,False,34,1
AC-K-26K26S2,957,experiment,93,↓,up,↑,0.748630499932915,False,34,1
AC-K-26K26S2,958,experiment,87,←,left,←,0.5692582000046968,True,34,1
AC-K-26K26S2,959,experiment,73,↑,up,↑,0.4981843999121338,True,34,1
AC-K-26K26S2,960,experiment,68,←,left,←,0.6391770998016,True,34,1
AC-K-26K26S2,961,experiment,64,←,left,←,0.6398195000365376,True,34,1
AC-K-26K26S2,962,experiment,80,←,left,←,0.5154133001342416,True,34,1
AC-K-26K26S2,963,experiment,88,←,left,←,0.513167800148949,True,34,1
AC-K-26K26S2,964,experiment,105,↑,up,↑,0.6654741000384092,True,34,1
AC-K-26K26S2,965,experiment,57,↓,down,↓,0.6829529998358339,True,34,1
AC-K-26K26S2,966,experiment,98,←,left,←,0.5669801000040025,True,34,1
AC-K-26K26S2,967,experiment,89,→,left,←,0.5781651998404413,False,34,1
AC-K-26K26S2,968,experiment,108,←,left,←,0.5271380001213402,True,34,1
AC-K-26K26S2,969,experiment,85,→,right,→,0.7256060999352485,True,34,1
AC-K-26K26S2,970,experiment,51,→,right,→,0.5351770999841392,True,34,1
AC-K-26K26S2,971,experiment,65,↑,up,↑,0.5719389000441879,True,34,1
AC-K-26K26S2,972,experiment,83,↑,up,↑,0.4808863999787718,True,34,1
AC-K-26K26S2,973,experiment,103,→,right,→,0.674974599853158,True,34,1
AC-K-26K26S2,974,experiment,61,↓,down,↓,0.6912288998719305,True,34,1
AC-K-26K26S2,975,experiment,77,→,right,→,0.6536395000293851,True,34,1
AC-K-26K26S2,976,experiment,67,←,left,←,0.7010337000247091,True,34,1
AC-K-26K26S2,977,experiment,101,→,left,←,0.6472355998121202,False,34,1
AC-K-26K26S2,978,experiment,91,↓,down,↓,0.8303676000796258,True,34,1
AC-K-26K26S2,979,experiment,86,↑,up,↑,0.5839670000132173,True,34,1
AC-K-26K26S2,980,experiment,72,↓,down,↓,0.6327168999705464,True,34,1
AC-K-26K26S2,981,experiment,84,↓,down,↓,0.794824399985373,True,34,1
AC-K-26K26S2,982,experiment,49,↑,up,↑,0.6186118999030441,True,34,1
AC-K-26K26S2,983,experiment,71,←,left,←,0.6261926000006497,True,34,1
AC-K-26K26S2,984,experiment,107,←,left,←,0.6370053000282496,True,34,1
AC-K-26K26S2,985,experiment,81,→,left,←,0.49657049984671175,False,34,1
AC-K-26K26S2,986,training,67,↑,no_key,no_letter,-1.0,False,34,0
AC-K-26K26S2,987,training,51,→,right,→,1.6624880000017583,True,34,1
AC-K-26K26S2,988,experiment,69,→,right,→,0.8126525999978185,True,34,1
AC-K-26K26S2,989,experiment,98,←,left,←,0.6187745002098382,True,34,1
AC-K-26K26S2,990,experiment,57,→,left,←,0.4872027998790145,False,34,1
AC-K-26K26S2,991,experiment,77,↓,left,←,0.7052872001659125,False,34,1
AC-K-26K26S2,992,experiment,52,←,left,←,0.6593377999961376,True,34,1
AC-K-26K26S2,993,experiment,96,↑,up,↑,0.600849200040102,True,34,1
AC-K-26K26S2,994,experiment,83,←,left,←,0.6767129998188466,True,34,1
AC-K-26K26S2,995,experiment,101,↓,down,↓,0.6637569000013173,True,34,1
AC-K-26K26S2,996,experiment,60,↓,down,↓,0.5930124998558313,True,34,1
AC-K-26K26S2,997,experiment,103,→,right,→,0.6707061999477446,True,34,1
AC-K-26K26S2,998,experiment,97,↓,down,↓,0.6591319001745433,True,34,1
AC-K-26K26S2,999,experiment,100,←,left,←,0.5828499000053853,True,34,1
AC-K-26K26S2,1000,experiment,66,↑,up,↑,0.5614241000730544,True,34,1
AC-K-26K26S2,1001,experiment,81,↑,up,↑,0.47221660008654,True,34,1
AC-K-26K26S2,1002,experiment,99,↓,up,↑,0.5237023001536727,False,34,1
AC-K-26K26S2,1003,experiment,54,↓,down,↓,0.5643003999721259,True,34,1
AC-K-26K26S2,1004,experiment,51,←,left,←,0.48459080001339316,True,34,1
AC-K-26K26S2,1005,experiment,76,←,left,←,0.5353598000947386,True,34,1
AC-K-26K26S2,1006,experiment,92,←,left,←,0.5311259001027793,True,34,1
AC-K-26K26S2,1007,experiment,78,↑,up,↑,0.5155364000238478,True,34,1
AC-K-26K26S2,1008,experiment,59,→,right,→,0.6429909998551011,True,34,1
AC-K-26K26S2,1009,experiment,68,↓,down,↓,0.7148847000207752,True,34,1
AC-K-26K26S2,1010,experiment,71,←,left,←,0.573861800134182,True,34,1
AC-K-26K26S2,1011,experiment,94,↓,down,↓,0.6394948000088334,True,34,1
AC-K-26K26S2,1012,experiment,80,←,left,←,0.5623739999718964,True,34,1
AC-K-26K26S2,1013,experiment,106,↓,down,↓,0.7283285998273641,True,34,1
AC-K-26K26S2,1014,experiment,95,→,right,→,0.6671329999808222,True,34,1
AC-K-26K26S2,1015,experiment,73,→,right,→,0.7359068000223488,True,34,1
AC-K-26K26S2,1016,experiment,86,↓,down,↓,0.661541499895975,True,34,1
AC-K-26K26S2,1017,experiment,70,↓,down,↓,0.4998133999761194,True,34,1
AC-K-26K26S2,1018,experiment,74,←,left,←,0.5029041999951005,True,34,1
AC-K-26K26S2,1019,experiment,87,↓,down,↓,0.621442599920556,True,34,1
AC-K-26K26S2,1020,experiment,79,→,right,→,0.5940423000138253,True,34,1
AC-K-26K26S2,1021,experiment,84,↓,down,↓,0.6461881001014262,True,34,1
AC-K-26K26S2,1022,experiment,102,→,right,→,0.7934802998788655,True,34,1
AC-K-26K26S2,1023,experiment,89,↑,up,↑,0.5321570001542568,True,34,1
AC-K-26K26S2,1024,experiment,75,↓,up,↑,0.8536188998259604,False,34,1
AC-K-26K26S2,1025,experiment,65,→,right,→,0.7497066999785602,True,34,1
AC-K-26K26S2,1026,experiment,90,↑,up,↑,0.47304149996489286,True,34,1
AC-K-26K26S2,1027,experiment,93,↑,up,↑,0.49547150009311736,True,34,1
AC-K-26K26S2,1028,experiment,49,↑,up,↑,0.5467774998396635,True,34,1
AC-K-26K26S2,1029,experiment,53,←,no_key,no_letter,-1.0,False,34,1
AC-K-26K26S2,1030,experiment,48,↑,up,↑,0.5006162000354379,True,34,1
AC-K-26K26S2,1031,experiment,91,↓,down,↓,0.8576503000222147,True,34,1
AC-K-26K26S2,1032,experiment,63,←,no_key,no_letter,-1.0,False,34,1
AC-K-26K26S2,1033,experiment,67,↓,down,↓,0.5572244999930263,True,34,1
AC-K-26K26S2,1034,experiment,56,↑,up,↑,0.9961918001063168,True,34,1
AC-K-26K26S2,1035,experiment,105,↑,up,↑,0.4343065998982638,True,34,1
AC-K-26K26S2,1036,experiment,64,←,left,←,0.5297341998666525,True,34,0
AC-K-26K26S2,1037,experiment,104,↓,up,↑,0.5374004999175668,False,34,1
AC-K-26K26S2,1038,experiment,61,→,right,→,0.6311838999390602,True,34,1
AC-K-26K26S2,1039,experiment,82,←,left,←,0.5064533001277596,True,34,1
AC-K-26K26S2,1040,experiment,88,↑,up,↑,0.4650747999548912,True,34,1
AC-K-26K26S2,1041,experiment,72,↓,up,↑,0.5013524999376386,False,34,1
AC-K-26K26S2,1042,experiment,62,←,left,←,0.5486316001042724,True,34,1
AC-K-26K26S2,1043,experiment,108,↓,down,↓,0.6263174000196159,True,34,1
AC-K-26K26S2,1044,experiment,55,→,right,→,0.9348527998663485,True,34,1
AC-K-26K26S2,1045,experiment,107,↓,down,↓,0.6374038001522422,True,34,1
AC-K-26K26S2,1046,experiment,50,↑,up,↑,0.8189255001489073,True,34,1
AC-K-26K26S2,1047,experiment,58,←,left,←,0.6710412001702935,True,34,1
AC-K-26K26S2,1048,experiment,85,←,left,←,0.5035670001525432,True,34,1
AC-K-26K26S2,1049,training,74,←,left,←,0.8712981001008302,True,34,0
AC-K-26K26S2,1050,training,79,↑,up,↑,0.46559489984065294,True,34,1
AC-K-26K26S2,1051,experiment,52,↑,down,↓,0.6691602000501007,False,34,1
AC-K-26K26S2,1052,experiment,106,↑,down,↓,0.6870831998530775,False,34,1
AC-K-26K26S2,1053,experiment,86,↓,down,↓,0.7025753001216799,True,34,1
AC-K-26K26S2,1054,experiment,50,↓,down,↓,0.6659003000240773,True,34,1
AC-K-26K26S2,1055,experiment,85,←,left,←,0.562631499953568,True,34,1
AC-K-26K26S2,1056,experiment,103,↓,down,↓,0.6575728000607342,True,34,1
AC-K-26K26S2,1057,experiment,93,→,right,→,0.7837068000808358,True,34,1
AC-K-26K26S2,1058,experiment,72,→,right,→,0.71985559980385,True,34,1
AC-K-26K26S2,1059,experiment,100,↑,up,↑,0.5216153000947088,True,34,1
AC-K-26K26S2,1060,experiment,59,←,left,←,0.5926220999099314,True,34,1
AC-K-26K26S2,1061,experiment,51,↓,down,↓,0.6395974999759346,True,34,1
AC-K-26K26S2,1062,experiment,56,←,left,←,0.6673761999700218,True,34,1
AC-K-26K26S2,1063,experiment,63,↑,up,↑,0.45178850018419325,True,34,1
AC-K-26K26S2,1064,experiment,49,←,left,←,0.5282479000743479,True,34,0
AC-K-26K26S2,1065,experiment,70,→,right,→,0.6517569001298398,True,34,1
AC-K-26K26S2,1066,experiment,87,↓,down,↓,0.5803463000338525,True,34,1
AC-K-26K26S2,1067,experiment,88,↑,no_key,no_letter,-1.0,False,34,1
AC-K-26K26S2,1068,experiment,99,↑,up,↑,0.6001393001060933,True,34,1
AC-K-26K26S2,1069,experiment,75,←,left,←,0.6548868999816477,True,34,1
AC-K-26K26S2,1070,experiment,95,↑,up,↑,0.5883063001092523,True,34,1
AC-K-26K26S2,1071,experiment,79,←,up,↑,0.7065896999556571,False,34,1
AC-K-26K26S2,1072,experiment,80,↑,up,↑,0.5308271998073906,True,34,1
AC-K-26K26S2,1073,experiment,90,↑,up,↑,0.5594446000177413,True,34,1
AC-K-26K26S2,1074,experiment,107,↓,up,↑,0.4854592001065612,False,34,1
AC-K-26K26S2,1075,experiment,91,→,right,→,0.5948958999942988,True,34,1
AC-K-26K26S2,1076,experiment,48,↑,up,↑,0.5550814000889659,True,34,1
AC-K-26K26S2,1077,experiment,104,↑,up,↑,0.489678299985826,True,34,1
AC-K-26K26S2,1078,experiment,73,→,left,←,0.5175675000064075,False,34,1
AC-K-26K26S2,1079,experiment,57,→,left,←,0.5734457999933511,False,34,1
AC-K-26K26S2,1080,experiment,76,↑,left,←,0.35081940004602075,False,34,1
AC-K-26K26S2,1081,experiment,53,→,right,→,0.8049393000546843,True,34,0
AC-K-26K26S2,1082,experiment,65,→,left,←,0.5908806999213994,False,34,1
AC-K-26K26S2,1083,experiment,69,←,left,←,0.6000911998562515,True,34,1
AC-K-26K26S2,1084,experiment,77,↑,up,↑,0.5418702999595553,True,34,1
AC-K-26K26S2,1085,experiment,67,→,right,→,0.8177074000705034,True,34,1
AC-K-26K26S2,1086,experiment,64,↓,down,↓,0.6434011000674218,True,34,1
AC-K-26K26S2,1087,experiment,62,↓,up,↑,0.6367917000316083,False,34,1
AC-K-26K26S2,1088,experiment,98,←,left,←,0.5864729001186788,True,34,1
AC-K-26K26S2,1089,experiment,71,↓,down,↓,0.6432819999754429,True,34,1
AC-K-26K26S2,1090,experiment,84,↑,up,↑,0.5176361999474466,True,34,1
AC-K-26K26S2,1091,experiment,96,↑,up,↑,0.48857820010744035,True,34,1
AC-K-26K26S2,1092,experiment,78,→,right,→,0.594516399782151,True,34,1
AC-K-26K26S2,1093,experiment,66,←,left,←,0.5244851999450475,True,34,1
AC-K-26K26S2,1094,experiment,101,→,right,→,0.6219615000300109,True,34,1
AC-K-26K26S2,1095,experiment,94,←,left,←,0.5491706999018788,True,34,1
AC-K-26K26S2,1096,experiment,68,↑,up,↑,0.520061600022018,True,34,1
AC-K-26K26S2,1097,experiment,108,←,right,→,0.6231100999284536,False,34,1
AC-K-26K26S2,1098,experiment,102,→,left,←,0.595718199852854,False,34,1
AC-K-26K26S2,1099,experiment,105,←,left,←,0.47293960000388324,True,34,1
AC-K-26K26S2,1100,experiment,54,→,left,←,0.5077428000513464,False,34,1
AC-K-26K26S2,1101,experiment,82,→,right,→,0.6757487000431865,True,34,1
AC-K-26K26S2,1102,experiment,55,↓,up,↑,0.5341263001319021,False,34,1
AC-K-26K26S2,1103,experiment,58,→,right,→,0.6211822000332177,True,34,1
AC-K-26K26S2,1104,experiment,60,→,right,→,0.760219199815765,True,34,1
AC-K-26K26S2,1105,experiment,92,↑,right,→,0.3090810999274254,False,34,1
AC-K-26K26S2,1106,experiment,81,←,right,→,0.5872247000224888,False,34,0
AC-K-26K26S2,1107,experiment,61,↓,down,↓,0.6391688999719918,True,34,1
AC-K-26K26S2,1108,experiment,97,←,left,←,0.6767114999238402,True,34,1
AC-K-26K26S2,1109,experiment,83,↑,up,↑,0.5179513001348823,True,34,1
AC-K-26K26S2,1110,experiment,74,→,left,←,0.6562040999997407,False,34,1
AC-K-26K26S2,1111,experiment,89,←,left,←,0.5362269999459386,True,34,1
AC-K-26K26S2,1112,training,54,↑,down,↓,0.8915631999261677,False,34,0
AC-K-26K26S2,1113,training,79,→,right,→,0.6692736998666078,True,34,1
AC-K-26K26S2,1114,experiment,91,↓,down,↓,0.6917491999920458,True,34,1
AC-K-26K26S2,1115,experiment,55,↓,down,↓,0.61420280020684,True,34,1
AC-K-26K26S2,1116,experiment,73,↓,down,↓,0.9084127999376506,True,34,1
AC-K-26K26S2,1117,experiment,56,→,left,←,0.6369324999395758,False,34,1
AC-K-26K26S2,1118,experiment,97,↓,down,↓,1.0670246998779476,True,34,1
AC-K-26K26S2,1119,experiment,50,←,left,←,0.7836972000077367,True,34,1
AC-K-26K26S2,1120,experiment,85,→,left,←,0.4995282001327723,False,34,1
AC-K-26K26S2,1121,experiment,58,↓,down,↓,0.7482087998650968,True,34,1
AC-K-26K26S2,1122,experiment,84,←,left,←,0.5055477998685092,True,34,1
AC-K-26K26S2,1123,experiment,48,←,left,←,0.5731628998182714,True,34,1
AC-K-26K26S2,1124,experiment,107,↓,down,↓,0.8098824999760836,True,34,1
AC-K-26K26S2,1125,experiment,108,↓,down,↓,0.6456372998654842,True,34,1
AC-K-26K26S2,1126,experiment,72,↑,up,↑,0.4679037998430431,True,34,1
AC-K-26K26S2,1127,experiment,57,↑,up,↑,0.41739200009033084,True,34,1
AC-K-26K26S2,1128,experiment,61,↑,up,↑,0.4564958999399096,True,34,0
AC-K-26K26S2,1129,experiment,65,→,right,→,0.5753264999948442,True,34,1
AC-K-26K26S2,1130,experiment,60,→,right,→,0.6601404999382794,True,34,1
AC-K-26K26S2,1131,experiment,62,→,right,→,0.5728937999811023,True,34,1
AC-K-26K26S2,1132,experiment,89,↑,up,↑,0.551899200072512,True,34,1
AC-K-26K26S2,1133,experiment,102,←,left,←,0.5516355999279767,True,34,1
AC-K-26K26S2,1134,experiment,105,↑,up,↑,0.5103412999305874,True,34,1
AC-K-26K26S2,1135,experiment,106,↓,up,↑,0.46236010012216866,False,34,1
AC-K-26K26S2,1136,experiment,92,↓,down,↓,0.7890652997884899,True,34,1
AC-K-26K26S2,1137,experiment,63,→,right,→,1.3201118998695165,True,34,1
AC-K-26K26S2,1138,experiment,86,←,down,↓,0.5905859000049531,False,34,1
AC-K-26K26S2,1139,experiment,68,↓,down,↓,0.736219699960202,True,34,1
AC-K-26K26S2,1140,experiment,79,→,right,→,0.7280739999841899,True,34,1
AC-K-26K26S2,1141,experiment,69,↓,down,↓,0.699597500031814,True,34,1
AC-K-26K26S2,1142,experiment,100,↓,down,↓,0.4548194999806583,True,34,1
AC-K-26K26S2,1143,experiment,78,↑,up,↑,0.5375196998938918,True,34,1
AC-K-26K26S2,1144,experiment,93,→,left,←,0.7965754999313504,False,34,1
AC-K-26K26S2,1145,experiment,71,←,left,←,0.5483667000662535,True,34,1
AC-K-26K26S2,1146,experiment,67,↓,down,↓,0.6480101000051945,True,34,1
AC-K-26K26S2,1147,experiment,94,↑,down,↓,0.7343255002051592,False,34,1
AC-K-26K26S2,1148,experiment,87,↑,up,↑,0.5955972999799997,True,34,1
AC-K-26K26S2,1149,experiment,95,↑,up,↑,0.5078890998847783,True,34,1
AC-K-26K26S2,1150,experiment,98,←,left,←,0.734795399941504,True,34,1
AC-K-26K26S2,1151,experiment,77,←,left,←,0.4169503999873996,True,34,1
AC-K-26K26S2,1152,experiment,74,↑,up,↑,0.5095647000707686,True,34,0
AC-K-26K26S2,1153,experiment,70,←,left,←,0.6255032999906689,True,34,1
AC-K-26K26S2,1154,experiment,49,↑,up,↑,0.5278547999914736,True,34,1
AC-K-26K26S2,1155,experiment,64,←,left,←,0.629442699952051,True,34,1
AC-K-26K26S2,1156,experiment,96,←,left,←,0.8526316999923438,True,34,1
AC-K-26K26S2,1157,experiment,76,→,right,→,0.8005138000007719,True,34,1
AC-K-26K26S2,1158,experiment,82,↑,up,↑,0.5967896999791265,True,34,1
AC-K-26K26S2,1159,experiment,80,↑,up,↑,0.47418510005809367,True,34,1
AC-K-26K26S2,1160,experiment,99,↓,down,↓,0.7813538000918925,True,34,1
AC-K-26K26S2,1161,experiment,81,↑,up,↑,0.4757133999373764,True,34,1
AC-K-26K26S2,1162,experiment,54,→,right,→,0.8379834999796003,True,34,1
AC-K-26K26S2,1163,experiment,83,→,left,←,0.5764043000526726,False,34,1
AC-K-26K26S2,1164,experiment,66,→,right,→,0.5631337000522763,True,34,1
AC-K-26K26S2,1165,experiment,88,↑,up,↑,0.511002300074324,True,34,1
AC-K-26K26S2,1166,experiment,103,→,right,→,0.7280629000160843,True,34,1
AC-K-26K26S2,1167,experiment,104,←,right,→,0.719857000047341,False,34,1
AC-K-26K26S2,1168,experiment,90,→,right,→,0.5809453001711518,True,34,1
AC-K-26K26S2,1169,experiment,51,↓,down,↓,0.7723075998947024,True,34,1
AC-K-26K26S2,1170,experiment,59,→,right,→,0.6735207000747323,True,34,1
AC-K-26K26S2,1171,experiment,52,←,left,←,0.5333300998900086,True,34,1
AC-K-26K26S2,1172,experiment,101,→,right,→,0.5493963998742402,True,34,1
AC-K-26K26S2,1173,experiment,53,→,right,→,0.4697960000485182,True,34,1
AC-K-26K26S2,1174,experiment,75,←,left,←,0.5213159001432359,True,34,1
AC-K-26K26S2,1175,training,103,←,left,←,0.48874180018901825,True,34,0
AC-K-26K26S2,1176,training,94,↑,up,↑,0.48585239984095097,True,34,1
AC-K-26K26S2,1177,experiment,52,↓,down,↓,0.8408144998829812,True,34,1
AC-K-26K26S2,1178,experiment,85,↓,up,↑,0.8105166000314057,False,34,1
AC-K-26K26S2,1179,experiment,86,↑,up,↑,0.557509999955073,True,34,1
AC-K-26K26S2,1180,experiment,48,←,right,→,0.6144391000270844,False,34,1
AC-K-26K26S2,1181,experiment,107,↓,down,↓,0.6582782999612391,True,34,1
AC-K-26K26S2,1182,experiment,108,↑,up,↑,0.4516847999766469,True,34,1
AC-K-26K26S2,1183,experiment,106,→,right,→,0.5813114000484347,True,34,0
AC-K-26K26S2,1184,experiment,103,←,left,←,0.6514415999408811,True,34,1
AC-K-26K26S2,1185,experiment,99,↓,up,↑,0.5681986999697983,False,34,1
AC-K-26K26S2,1186,experiment,50,←,left,←,0.49638460017740726,True,34,1
AC-K-26K26S2,1187,experiment,65,↓,down,↓,0.8470171000808477,True,34,1
AC-K-26K26S2,1188,experiment,76,↓,down,↓,0.866975300014019,True,34,1
AC-K-26K26S2,1189,experiment,53,←,left,←,0.5341827999800444,True,34,1
AC-K-26K26S2,1190,experiment,90,↓,down,↓,0.587196100037545,True,34,1
AC-K-26K26S2,1191,experiment,94,↓,down,↓,0.5558303000871092,True,34,1
AC-K-26K26S2,1192,experiment,73,↓,down,↓,0.6129119999241084,True,34,1
AC-K-26K26S2,1193,experiment,83,→,right,→,0.6482048998586833,True,34,1
AC-K-26K26S2,1194,experiment,97,←,left,←,1.173445399850607,True,34,1
AC-K-26K26S2,1195,experiment,93,→,right,→,0.7270645999815315,True,34,1
AC-K-26K26S2,1196,experiment,63,←,left,←,0.5725833000615239,True,34,1
AC-K-26K26S2,1197,experiment,100,→,right,→,0.8683619000948966,True,34,1
AC-K-26K26S2,1198,experiment,98,←,left,←,0.5526785000693053,True,34,1
AC-K-26K26S2,1199,experiment,87,↑,down,↓,0.9014312999788672,False,34,1
AC-K-26K26S2,1200,experiment,72,→,right,→,0.6488039998803288,True,34,1
AC-K-26K26S2,1201,experiment,77,←,left,←,0.6694674999453127,True,34,1
AC-K-26K26S2,1202,experiment,49,↑,up,↑,0.6737532999832183,True,34,1
AC-K-26K26S2,1203,experiment,101,→,right,→,0.6689766000490636,True,34,1
AC-K-26K26S2,1204,experiment,56,→,right,→,0.6070699000265449,True,34,1
AC-K-26K26S2,1205,experiment,102,↓,down,↓,0.73256879998371,True,34,1
AC-K-26K26S2,1206,experiment,74,→,right,→,0.7982548999134451,True,34,1
AC-K-26K26S2,1207,experiment,70,↑,up,↑,0.5985583001747727,True,34,1
AC-K-26K26S2,1208,experiment,54,↓,down,↓,0.6288525001145899,True,34,1
AC-K-26K26S2,1209,experiment,67,→,left,←,0.9007621000055224,False,34,1
AC-K-26K26S2,1210,experiment,57,←,right,→,0.629580199951306,False,34,1
AC-K-26K26S2,1211,experiment,104,←,left,←,0.4975403998978436,True,34,1
AC-K-26K26S2,1212,experiment,81,←,left,←,0.5946174999698997,True,34,1
AC-K-26K26S2,1213,experiment,62,↓,down,↓,0.6217702000867575,True,34,1
AC-K-26K26S2,1214,experiment,95,↑,up,↑,0.4925764000508934,True,34,1
AC-K-26K26S2,1215,experiment,55,→,right,→,0.542416000040248,True,34,1
AC-K-26K26S2,1216,experiment,71,↑,up,↑,0.39258669991977513,True,34,1
AC-K-26K26S2,1217,experiment,75,→,right,→,0.5596962999552488,True,34,0
AC-K-26K26S2,1218,experiment,60,←,left,←,0.5009153999853879,True,34,1
AC-K-26K26S2,1219,experiment,105,↓,down,↓,0.661709199892357,True,34,1
AC-K-26K26S2,1220,experiment,59,→,right,→,0.6796438999008387,True,34,1
AC-K-26K26S2,1221,experiment,91,→,right,→,0.5660361000336707,True,34,1
AC-K-26K26S2,1222,experiment,88,↑,up,↑,0.4980327000375837,True,34,1
AC-K-26K26S2,1223,experiment,51,→,right,→,0.5805371999740601,True,34,1
AC-K-26K26S2,1224,experiment,80,↓,up,↑,0.5462301999796182,False,34,1
AC-K-26K26S2,1225,experiment,89,↑,up,↑,0.4172654999420047,True,34,1
AC-K-26K26S2,1226,experiment,61,↑,no_key,no_letter,-1.0,False,34,0
AC-K-26K26S2,1227,experiment,79,↑,up,↑,0.4636752000078559,True,34,1
AC-K-26K26S2,1228,experiment,78,→,right,→,0.5309888001065701,True,34,1
AC-K-26K26S2,1229,experiment,64,←,left,←,0.6798915998078883,True,34,1
AC-K-26K26S2,1230,experiment,92,→,right,→,0.637602899922058,True,34,1
AC-K-26K26S2,1231,experiment,69,←,left,←,0.48515320010483265,True,34,1
AC-K-26K26S2,1232,experiment,58,←,left,←,0.581700700102374,True,34,1
AC-K-26K26S2,1233,experiment,66,→,right,→,0.6641861998941749,True,34,1
AC-K-26K26S2,1234,experiment,68,↑,up,↑,0.4708992000669241,True,34,1
AC-K-26K26S2,1235,experiment,82,←,right,→,0.5358540001325309,False,34,1
AC-K-26K26S2,1236,experiment,96,↑,up,↑,0.6105439001694322,True,34,1
AC-K-26K26S2,1237,experiment,84,↑,up,↑,0.3844598000869155,True,34,1
AC-K-26K26S2,1238,training,94,←,left,←,1.350829100003466,True,34,0
AC-K-26K26S2,1239,training,82,←,no_key,no_letter,-1.0,False,34,1
AC-K-26K26S2,1240,experiment,73,↑,up,↑,0.5185285999905318,True,34,1
AC-K-26K26S2,1241,experiment,61,←,right,→,0.5732301000971347,False,34,1
AC-K-26K26S2,1242,experiment,93,↓,down,↓,0.6869999999180436,True,34,1
AC-K-26K26S2,1243,experiment,88,←,left,←,0.48604279989376664,True,34,1
AC-K-26K26S2,1244,experiment,104,↓,down,↓,0.7919506998732686,True,34,1
AC-K-26K26S2,1245,experiment,50,↑,up,↑,0.5508365998975933,True,34,1
AC-K-26K26S2,1246,experiment,60,↓,up,↑,0.7807632000185549,False,34,1
AC-K-26K26S2,1247,experiment,89,↑,up,↑,0.5193263997789472,True,34,1
AC-K-26K26S2,1248,experiment,82,←,left,←,0.5992954999674112,True,34,1
AC-K-26K26S2,1249,experiment,77,↓,down,↓,0.7571342000737786,True,34,1
AC-K-26K26S2,1250,experiment,99,↑,up,↑,0.5976418000645936,True,34,1
AC-K-26K26S2,1251,experiment,58,↓,up,↑,0.5620936998166144,False,34,1
AC-K-26K26S2,1252,experiment,65,↓,down,↓,0.7016929001547396,True,34,1
AC-K-26K26S2,1253,experiment,55,↑,up,↑,0.4552372999023646,True,34,1
AC-K-26K26S2,1254,experiment,103,←,left,←,0.5702339999843389,True,34,0
AC-K-26K26S2,1255,experiment,86,↑,up,↑,0.5425694000441581,True,34,1
AC-K-26K26S2,1256,experiment,51,↑,up,↑,0.4875743999145925,True,34,1
AC-K-26K26S2,1257,experiment,102,↑,up,↑,0.4979409999214113,True,34,1
AC-K-26K26S2,1258,experiment,52,↑,up,↑,0.4684532000683248,True,34,1
AC-K-26K26S2,1259,experiment,57,↑,up,↑,0.41718959994614124,True,34,1
AC-K-26K26S2,1260,experiment,62,←,left,←,0.6646679001860321,True,34,0
AC-K-26K26S2,1261,experiment,91,↑,up,↑,0.4795492000412196,True,34,1
AC-K-26K26S2,1262,experiment,106,←,left,←,0.5206029999535531,True,34,1
AC-K-26K26S2,1263,experiment,69,↓,down,↓,0.6521594000514597,True,34,1
AC-K-26K26S2,1264,experiment,97,←,right,→,0.7054115999490023,False,34,1
AC-K-26K26S2,1265,experiment,78,↑,up,↑,0.47511360002681613,True,34,1
AC-K-26K26S2,1266,experiment,79,←,left,←,0.5335099999792874,True,34,1
AC-K-26K26S2,1267,experiment,94,↓,up,↑,0.45685479999519885,False,34,1
AC-K-26K26S2,1268,experiment,75,←,left,←,0.492397699970752,True,34,1
AC-K-26K26S2,1269,experiment,92,→,right,→,0.6496542999520898,True,34,1
AC-K-26K26S2,1270,experiment,63,←,left,←,0.4590212998446077,True,34,1
AC-K-26K26S2,1271,experiment,96,→,right,→,0.7282707002013922,True,34,1
AC-K-26K26S2,1272,experiment,101,←,left,←,0.5044746999628842,True,34,1
AC-K-26K26S2,1273,experiment,76,←,left,←,0.5551509000360966,True,34,1
AC-K-26K26S2,1274,experiment,83,↓,left,←,0.7927597998641431,False,34,1
AC-K-26K26S2,1275,experiment,71,↓,down,↓,0.6334598001558334,True,34,1
AC-K-26K26S2,1276,experiment,80,↑,up,↑,0.45314339990727603,True,34,1
AC-K-26K26S2,1277,experiment,105,↓,down,↓,0.6715951999649405,True,34,0
AC-K-26K26S2,1278,experiment,54,↓,up,↑,0.7539723000954837,False,34,1
AC-K-26K26S2,1279,experiment,84,↓,down,↓,0.7515438001137227,True,34,1
AC-K-26K26S2,1280,experiment,48,↑,up,↑,0.6013976000249386,True,34,1
AC-K-26K26S2,1281,experiment,85,←,left,←,0.6927513000555336,True,34,1
AC-K-26K26S2,1282,experiment,100,↑,up,↑,0.5193876998964697,True,34,1
AC-K-26K26S2,1283,experiment,90,↑,up,↑,0.4845740001183003,True,34,1
AC-K-26K26S2,1284,experiment,98,→,right,→,0.7282000000122935,True,34,1
AC-K-26K26S2,1285,experiment,87,→,right,→,0.6698580998927355,True,34,1
AC-K-26K26S2,1286,experiment,68,←,left,←,0.7403281999286264,True,34,1
AC-K-26K26S2,1287,experiment,107,↑,up,↑,0.53069580020383,True,34,1
AC-K-26K26S2,1288,experiment,67,↑,up,↑,0.6708989001344889,True,34,1
AC-K-26K26S2,1289,experiment,95,↓,up,↑,0.4599957999307662,False,34,1
AC-K-26K26S2,1290,experiment,108,↓,no_key,no_letter,-1.0,False,34,1
AC-K-26K26S2,1291,experiment,49,→,right,→,0.7825285999570042,True,34,1
AC-K-26K26S2,1292,experiment,74,→,right,→,0.5502641999628395,True,34,1
AC-K-26K26S2,1293,experiment,70,↑,up,↑,0.5046431000810117,True,34,1
AC-K-26K26S2,1294,experiment,59,↑,up,↑,0.5048316000029445,True,34,1
AC-K-26K26S2,1295,experiment,56,→,up,↑,0.39220759994350374,False,34,1
AC-K-26K26S2,1296,experiment,81,←,left,←,0.6225097998976707,True,34,0
AC-K-26K26S2,1297,experiment,72,↑,up,↑,0.4533200999721885,True,34,1
AC-K-26K26S2,1298,experiment,64,←,left,←,0.7250641998834908,True,34,0
AC-K-26K26S2,1299,experiment,53,→,left,←,0.5739927999675274,False,34,1
AC-K-26K26S2,1300,experiment,66,→,left,←,0.5365569000132382,False,34,1
AC-K-26K26S2,1301,training,95,→,right,→,0.6062553999945521,True,34,0
AC-K-26K26S2,1302,training,57,←,left,←,0.4827843001112342,True,34,1
AC-K-26K26S2,1303,experiment,74,←,left,←,0.47839419986121356,True,34,1
AC-K-26K26S2,1304,experiment,64,→,right,→,0.5897057000547647,True,34,1
AC-K-26K26S2,1305,experiment,66,↑,up,↑,0.5360961998812854,True,34,1
AC-K-26K26S2,1306,experiment,65,→,right,→,0.8365925999823958,True,34,1
AC-K-26K26S2,1307,experiment,67,←,left,←,0.6047080000862479,True,34,1
AC-K-26K26S2,1308,experiment,89,↑,up,↑,0.5745985999237746,True,34,1
AC-K-26K26S2,1309,experiment,79,↓,up,↑,0.5168093000538647,False,34,1
AC-K-26K26S2,1310,experiment,48,→,left,←,0.6717809000983834,False,34,1
AC-K-26K26S2,1311,experiment,54,↓,up,↑,0.49859279999509454,False,34,1
AC-K-26K26S2,1312,experiment,97,↓,up,↑,0.41777130006812513,False,34,1
AC-K-26K26S2,1313,experiment,77,↑,up,↑,0.41655700001865625,True,34,0
AC-K-26K26S2,1314,experiment,81,↑,no_key,no_letter,-1.0,False,34,0
AC-K-26K26S2,1315,experiment,85,↑,up,↑,0.5322855999693274,True,34,1
AC-K-26K26S2,1316,experiment,73,←,left,←,0.614256399916485,True,34,1
AC-K-26K26S2,1317,experiment,60,→,right,→,0.7213383000344038,True,34,1
AC-K-26K26S2,1318,experiment,53,↓,up,↑,0.5542644001543522,False,34,1
AC-K-26K26S2,1319,experiment,70,↓,down,↓,0.6768048000521958,True,34,1
AC-K-26K26S2,1320,experiment,106,←,left,←,0.5581799000501633,True,34,1
AC-K-26K26S2,1321,experiment,56,→,right,→,0.9087153000291437,True,34,1
AC-K-26K26S2,1322,experiment,94,↑,up,↑,0.48902179999276996,True,34,1
AC-K-26K26S2,1323,experiment,69,→,left,←,0.5500343001913279,False,34,1
AC-K-26K26S2,1324,experiment,104,↓,up,↑,0.5169224999845028,False,34,1
AC-K-26K26S2,1325,experiment,100,↑,up,↑,0.45502149988897145,True,34,1
AC-K-26K26S2,1326,experiment,80,→,left,←,0.6172207000199705,False,34,1
AC-K-26K26S2,1327,experiment,51,←,left,←,0.5433977998327464,True,34,1
AC-K-26K26S2,1328,experiment,52,↑,up,↑,0.46481579984538257,True,34,1
AC-K-26K26S2,1329,experiment,92,→,right,→,0.7507648000027984,True,34,1
AC-K-26K26S2,1330,experiment,61,←,left,←,0.5486141999717802,True,34,1
AC-K-26K26S2,1331,experiment,90,←,up,↑,0.6079111001454294,False,34,1
AC-K-26K26S2,1332,experiment,71,↓,up,↑,0.5273793002124876,False,34,1
AC-K-26K26S2,1333,experiment,68,←,right,→,0.6357185000088066,False,34,1
AC-K-26K26S2,1334,experiment,76,↑,up,↑,0.472928199917078,True,34,1
AC-K-26K26S2,1335,experiment,108,↓,down,↓,0.721249399939552,True,34,1
AC-K-26K26S2,1336,experiment,102,↑,up,↑,0.5380541998893023,True,34,1
AC-K-26K26S2,1337,experiment,107,↓,down,↓,0.672767800046131,True,34,1
AC-K-26K26S2,1338,experiment,63,↓,up,↑,0.5923019000329077,False,34,1
AC-K-26K26S2,1339,experiment,62,←,left,←,0.5799809000454843,True,34,1
AC-K-26K26S2,1340,experiment,55,←,left,←,0.4257319001480937,True,34,1
AC-K-26K26S2,1341,experiment,103,↑,up,↑,0.5260778998490423,True,34,0
AC-K-26K26S2,1342,experiment,86,↓,down,↓,0.6760335001163185,True,34,1
AC-K-26K26S2,1343,experiment,83,←,left,←,0.6452701999805868,True,34,1
AC-K-26K26S2,1344,experiment,101,←,left,←,0.4815260998439044,True,34,1
AC-K-26K26S2,1345,experiment,98,↑,no_key,no_letter,-1.0,False,34,1
AC-K-26K26S2,1346,experiment,50,→,right,→,0.7659398000687361,True,34,1
AC-K-26K26S2,1347,experiment,96,↑,up,↑,0.5109978001564741,True,34,1
AC-K-26K26S2,1348,experiment,75,↓,down,↓,0.6013475998770446,True,34,1
AC-K-26K26S2,1349,experiment,95,↓,down,↓,0.5774771000724286,True,34,1
AC-K-26K26S2,1350,experiment,78,→,right,→,0.8160981999244541,True,34,1
AC-K-26K26S2,1351,experiment,58,↑,up,↑,0.4921887000091374,True,34,1
AC-K-26K26S2,1352,experiment,87,↑,up,↑,0.6429435999598354,True,34,1
AC-K-26K26S2,1353,experiment,82,→,left,←,0.5736975998152047,False,34,1
AC-K-26K26S2,1354,experiment,84,↑,up,↑,0.4509411999024451,True,34,1
AC-K-26K26S2,1355,experiment,57,←,left,←,0.6693710000254214,True,34,0
AC-K-26K26S2,1356,experiment,88,↑,up,↑,0.5486844000406563,True,34,1
AC-K-26K26S2,1357,experiment,93,↑,up,↑,0.5112670999951661,True,34,1
AC-K-26K26S2,1358,experiment,99,→,left,←,0.6097537998575717,False,34,1
AC-K-26K26S2,1359,experiment,59,↓,down,↓,0.6534343999810517,True,34,1
AC-K-26K26S2,1360,experiment,49,←,left,←,0.6110244998708367,True,34,1
AC-K-26K26S2,1361,experiment,105,↑,up,↑,0.5434288000687957,True,34,1
AC-K-26K26S2,1362,experiment,91,↓,down,↓,0.7548541000578552,True,34,1
AC-K-26K26S2,1363,experiment,72,→,right,→,0.9002688000909984,True,34,1
AC-K-26K26S2,1364,training,73,↓,up,↑,0.8786297999322414,False,34,0
AC-K-26K26S2,1365,training,49,←,left,←,0.5307410999666899,True,34,1
AC-K-26K26S2,1366,experiment,80,→,right,→,0.610503800213337,True,34,1
AC-K-26K26S2,1367,experiment,91,↓,down,↓,0.7075269999913871,True,34,1
AC-K-26K26S2,1368,experiment,69,↑,up,↑,0.47222750005312264,True,34,1
AC-K-26K26S2,1369,experiment,73,←,left,←,0.5482087000273168,True,34,1
AC-K-26K26S2,1370,experiment,79,←,left,←,0.46776059991680086,True,34,1
AC-K-26K26S2,1371,experiment,101,←,no_key,no_letter,-1.0,False,34,1
AC-K-26K26S2,1372,experiment,75,↓,down,↓,0.7519347998313606,True,34,1
AC-K-26K26S2,1373,experiment,102,↑,up,↑,0.775384500157088,True,34,1
AC-K-26K26S2,1374,experiment,72,←,up,↑,0.9521087999455631,False,34,1
AC-K-26K26S2,1375,experiment,105,←,left,←,0.5987084999214858,True,34,1
AC-K-26K26S2,1376,experiment,99,↑,up,↑,0.6693927999585867,True,34,1
AC-K-26K26S2,1377,experiment,94,←,left,←,0.46021080017089844,True,34,1
AC-K-26K26S2,1378,experiment,49,→,right,→,0.6960638000164181,True,34,1
AC-K-26K26S2,1379,experiment,93,←,left,←,0.4258455000817776,True,34,1
AC-K-26K26S2,1380,experiment,58,↓,left,←,0.3678577998653054,False,34,0
AC-K-26K26S2,1381,experiment,98,←,left,←,0.6401734000537544,True,34,0
AC-K-26K26S2,1382,experiment,108,↑,up,↑,0.5541865001432598,True,34,1
AC-K-26K26S2,1383,experiment,100,←,left,←,0.6423403001390398,True,34,1
AC-K-26K26S2,1384,experiment,59,→,right,→,0.8366285001393408,True,34,1
AC-K-26K26S2,1385,experiment,70,↓,down,↓,0.6838296998757869,True,34,1
AC-K-26K26S2,1386,experiment,107,↑,up,↑,0.564613200025633,True,34,1
AC-K-26K26S2,1387,experiment,51,↑,up,↑,0.6045407999772578,True,34,1
AC-K-26K26S2,1388,experiment,48,↑,up,↑,0.4999846999999136,True,34,1
AC-K-26K26S2,1389,experiment,62,↑,no_key,no_letter,-1.0,False,34,1
AC-K-26K26S2,1390,experiment,63,←,left,←,0.5357684001792222,True,34,1
AC-K-26K26S2,1391,experiment,84,→,right,→,0.7744772001169622,True,34,1
AC-K-26K26S2,1392,experiment,74,↓,down,↓,0.7261999999172986,True,34,1
AC-K-26K26S2,1393,experiment,57,→,right,→,0.6064774000551552,True,34,1
AC-K-26K26S2,1394,experiment,81,↓,left,←,0.5465875999070704,False,34,1
AC-K-26K26S2,1395,experiment,52,↓,down,↓,0.6829944998025894,True,34,1
AC-K-26K26S2,1396,experiment,55,←,left,←,0.5012444001622498,True,34,1
AC-K-26K26S2,1397,experiment,65,→,right,→,0.5714223999530077,True,34,1
AC-K-26K26S2,1398,experiment,104,←,left,←,0.5133352000266314,True,34,1
AC-K-26K26S2,1399,experiment,86,↑,up,↑,0.6399284999351948,True,34,1
AC-K-26K26S2,1400,experiment,95,←,left,←,0.4942497001029551,True,34,1
AC-K-26K26S2,1401,experiment,83,←,left,←,0.48669870011508465,True,34,1
AC-K-26K26S2,1402,experiment,60,→,left,←,0.4869087999686599,False,34,1
AC-K-26K26S2,1403,experiment,53,→,no_key,no_letter,-1.0,False,34,1
AC-K-26K26S2,1404,experiment,56,↑,up,↑,0.5369176000822335,True,34,1
AC-K-26K26S2,1405,experiment,76,↓,up,↑,0.5056175000499934,False,34,1
AC-K-26K26S2,1406,experiment,54,↑,up,↑,0.49178249994292855,True,34,1
AC-K-26K26S2,1407,experiment,71,↓,up,↑,0.45650149998255074,False,34,1
AC-K-26K26S2,1408,experiment,77,↓,up,↑,0.5153397000394762,False,34,0
AC-K-26K26S2,1409,experiment,85,←,left,←,0.6419879999011755,True,34,1
AC-K-26K26S2,1410,experiment,68,↓,down,↓,0.6493080998770893,True,34,1
AC-K-26K26S2,1411,experiment,87,→,right,→,0.6742311001289636,True,34,1
AC-K-26K26S2,1412,experiment,106,→,right,→,0.5634518000297248,True,34,1
AC-K-26K26S2,1413,experiment,64,↑,up,↑,0.4551268999930471,True,34,1
AC-K-26K26S2,1414,experiment,88,↑,up,↑,0.5355061998125166,True,34,0
AC-K-26K26S2,1415,experiment,50,→,right,→,0.6570027000270784,True,34,1
AC-K-26K26S2,1416,experiment,103,↓,up,↑,0.6439619001466781,False,34,1
AC-K-26K26S2,1417,experiment,67,↓,up,↑,0.6196299998555332,False,34,1
AC-K-26K26S2,1418,experiment,97,↓,up,↑,0.49857069994322956,False,34,1
AC-K-26K26S2,1419,experiment,61,←,left,←,0.5700700001325458,True,34,1
AC-K-26K26S2,1420,experiment,82,←,right,→,0.8235872001387179,False,34,1
AC-K-26K26S2,1421,experiment,66,←,right,→,0.9522743998095393,False,34,1
AC-K-26K26S2,1422,experiment,89,→,right,→,0.6924807999748737,True,34,1
AC-K-26K26S2,1423,experiment,92,↑,up,↑,0.8656492999289185,True,34,1
AC-K-26K26S2,1424,experiment,96,→,right,→,0.6948128999210894,True,34,1
AC-K-26K26S2,1425,experiment,78,↓,right,→,0.9127422000747174,False,34,1
AC-K-26K26S2,1426,experiment,90,↑,up,↑,0.501676700077951,True,34,1
AC-K-26K26S2,1427,training,50,↓,up,↑,0.7423601001501083,False,34,0
