PART_ID,Trial_no,Trial_type,CSI,Stim_letter,Key_pressed,letter_choose,Rt,Corr,Stimulus Time,nDropped
AK-K-23K23S1,1,training,120,←,right,→,0.7484476999961771,False,60,1
AK-K-23K23S1,2,training,120,↑,left,←,0.4019783000112511,False,60,0
AK-K-23K23S1,3,training,120,←,up,↑,0.46884269994916394,False,60,0
AK-K-23K23S1,4,training,120,←,left,←,0.9316122999880463,True,60,0
AK-K-23K23S1,5,training,120,→,left,←,0.9409543999936432,False,60,0
AK-K-23K23S1,6,training,120,→,right,→,0.5926005000364967,True,60,0
AK-K-23K23S1,7,training,120,↑,up,↑,0.5673391000018455,True,60,0
AK-K-23K23S1,8,training,120,→,right,→,0.8053065999993123,True,60,0
AK-K-23K23S1,9,training,120,↑,up,↑,0.7719996999949217,True,60,0
AK-K-23K23S1,10,training,120,↑,up,↑,0.7242818999802694,True,60,0
AK-K-23K23S1,11,training,120,→,right,→,0.5594786999863572,True,60,0
AK-K-23K23S1,12,training,120,↑,left,←,0.319201200036332,False,60,0
AK-K-23K23S1,13,training,120,→,right,→,0.4924571000155993,True,60,0
AK-K-23K23S1,14,training,120,←,right,→,0.5338378000305966,False,60,0
AK-K-23K23S1,15,training,120,→,right,→,0.4849905999726616,True,60,0
AK-K-23K23S1,16,training,120,↑,up,↑,0.5588082999456674,True,60,0
AK-K-23K23S1,17,training,120,→,right,→,0.5003867999766953,True,60,0
AK-K-23K23S1,18,training,120,←,right,→,0.35984069999540225,False,60,0
AK-K-23K23S1,19,training,120,↑,up,↑,0.42684299999382347,True,60,0
AK-K-23K23S1,20,training,120,→,right,→,0.44361070002196357,True,60,0
AK-K-23K23S1,21,no_adaptation,120,→,right,→,0.7294872000347823,True,36,0
AK-K-23K23S1,22,no_adaptation,120,↑,up,↑,0.49924279999686405,True,36,0
AK-K-23K23S1,23,no_adaptation,120,↓,up,↑,0.43396790005499497,False,36,0
AK-K-23K23S1,24,no_adaptation,120,←,right,→,0.1691825999878347,False,36,0
AK-K-23K23S1,25,no_adaptation,120,→,right,→,0.5113273999886587,True,36,0
AK-K-23K23S1,26,no_adaptation,120,↑,up,↑,0.4110950999893248,True,36,0
AK-K-23K23S1,27,no_adaptation,120,←,right,→,0.5112395999603905,False,36,0
AK-K-23K23S1,28,no_adaptation,120,←,right,→,0.4276374999899417,False,36,0
AK-K-23K23S1,29,no_adaptation,120,→,no_key,no_letter,-1.0,False,36,0
AK-K-23K23S1,30,no_adaptation,120,←,left,←,0.268429699994158,True,36,0
AK-K-23K23S1,31,no_adaptation,120,↑,up,↑,0.6184431999572553,True,36,0
AK-K-23K23S1,32,no_adaptation,120,↑,no_key,no_letter,-1.0,False,36,0
AK-K-23K23S1,33,no_adaptation,120,→,right,→,0.4809569999924861,True,36,0
AK-K-23K23S1,34,no_adaptation,120,←,left,←,0.5478945000213571,True,36,0
AK-K-23K23S1,35,no_adaptation,120,→,no_key,no_letter,-1.0,False,36,0
AK-K-23K23S1,36,no_adaptation,120,↓,no_key,no_letter,-1.0,False,36,0
AK-K-23K23S1,37,no_adaptation,120,→,right,→,0.7495808000094257,True,36,0
AK-K-23K23S1,38,no_adaptation,120,↑,up,↑,0.42607530002715066,True,36,0
AK-K-23K23S1,39,no_adaptation,120,↓,up,↑,0.4845357000012882,False,36,0
AK-K-23K23S1,40,no_adaptation,120,↓,up,↑,1.0719689999823458,False,36,0
AK-K-23K23S1,41,training,76,→,right,→,0.6560825999476947,True,36,0
AK-K-23K23S1,42,training,51,↑,up,↑,0.4692205999745056,True,36,1
AK-K-23K23S1,43,experiment,88,←,left,←,0.5642460000235587,True,36,0
AK-K-23K23S1,44,experiment,59,→,right,→,0.4733129999949597,True,36,1
AK-K-23K23S1,45,experiment,53,↓,up,↑,0.8683520999620669,False,36,0
AK-K-23K23S1,46,experiment,101,↓,down,↓,0.6557837000000291,True,36,1
AK-K-23K23S1,47,experiment,66,←,left,←,0.53518319997238,True,36,1
AK-K-23K23S1,48,experiment,107,↓,down,↓,0.5418863000231795,True,36,1
AK-K-23K23S1,49,experiment,70,↑,up,↑,0.5285460000159219,True,36,1
AK-K-23K23S1,50,experiment,106,↑,up,↑,0.7835630000336096,True,36,1
AK-K-23K23S1,51,experiment,87,↓,down,↓,0.6589488000026904,True,36,1
AK-K-23K23S1,52,experiment,72,↓,down,↓,0.6805307000176981,True,36,1
AK-K-23K23S1,53,experiment,89,↑,up,↑,0.35968570003751665,True,36,1
AK-K-23K23S1,54,experiment,102,↑,up,↑,0.47800240002106875,True,36,0
AK-K-23K23S1,55,experiment,94,↑,down,↓,0.5552652000333183,False,36,1
AK-K-23K23S1,56,experiment,85,←,no_key,no_letter,-1.0,False,36,1
AK-K-23K23S1,57,experiment,97,→,left,←,0.6167730999877676,False,36,1
AK-K-23K23S1,58,experiment,83,→,right,→,0.596243100007996,True,36,1
AK-K-23K23S1,59,experiment,54,↑,left,←,0.43468060001032427,False,36,1
AK-K-23K23S1,60,experiment,56,↑,up,↑,0.4699036999954842,True,36,0
AK-K-23K23S1,61,experiment,103,↓,up,↑,0.5679645999916829,False,36,0
AK-K-23K23S1,62,experiment,81,↓,down,↓,0.5176598000107333,True,36,1
AK-K-23K23S1,63,experiment,79,↓,down,↓,0.5265742000192404,True,36,1
AK-K-23K23S1,64,experiment,96,→,right,→,0.561290799989365,True,36,1
AK-K-23K23S1,65,experiment,84,↓,down,↓,0.5262531000189483,True,36,1
AK-K-23K23S1,66,experiment,65,↑,up,↑,0.4364079000079073,True,36,1
AK-K-23K23S1,67,experiment,58,↓,down,↓,0.5018195000011474,True,36,0
AK-K-23K23S1,68,experiment,73,↑,up,↑,0.5371966000529937,True,36,1
AK-K-23K23S1,69,experiment,68,↑,up,↑,0.6529641000088304,True,36,1
AK-K-23K23S1,70,experiment,67,→,right,→,0.5724441000493243,True,36,1
AK-K-23K23S1,71,experiment,82,→,right,→,0.537937100045383,True,36,1
AK-K-23K23S1,72,experiment,95,→,right,→,0.5564101000200026,True,36,1
AK-K-23K23S1,73,experiment,61,↑,right,→,0.6576018999912776,False,36,1
AK-K-23K23S1,74,experiment,64,←,no_key,no_letter,-1.0,False,36,1
AK-K-23K23S1,75,experiment,62,↓,down,↓,0.6858939999947324,True,36,1
AK-K-23K23S1,76,experiment,108,→,right,→,0.5982626000186428,True,36,1
AK-K-23K23S1,77,experiment,99,→,right,→,0.580835200031288,True,36,1
AK-K-23K23S1,78,experiment,86,←,left,←,0.49652260000584647,True,36,1
AK-K-23K23S1,79,experiment,92,↓,down,↓,0.5415547000011429,True,36,1
AK-K-23K23S1,80,experiment,98,←,left,←,0.5029959999956191,True,36,1
AK-K-23K23S1,81,experiment,63,→,right,→,0.5738360999966972,True,36,1
AK-K-23K23S1,82,experiment,90,↓,down,↓,0.4509317000047304,True,36,1
AK-K-23K23S1,83,experiment,80,↓,down,↓,0.5953180000069551,True,36,0
AK-K-23K23S1,84,experiment,71,↓,down,↓,0.548312500002794,True,36,1
AK-K-23K23S1,85,experiment,52,→,right,→,0.5721185999573208,True,36,1
AK-K-23K23S1,86,experiment,49,↑,up,↑,0.4769776999601163,True,36,1
AK-K-23K23S1,87,experiment,93,←,down,↓,0.6659955000504851,False,36,1
AK-K-23K23S1,88,experiment,74,←,right,→,0.5583601000253111,False,36,1
AK-K-23K23S1,89,experiment,51,↑,down,↓,0.8466141999815591,False,36,1
AK-K-23K23S1,90,experiment,75,→,right,→,0.5555317000253126,True,36,1
AK-K-23K23S1,91,experiment,91,↓,down,↓,0.6386885999818332,True,36,1
AK-K-23K23S1,92,experiment,48,↓,down,↓,0.6925753999967128,True,36,1
AK-K-23K23S1,93,experiment,60,↓,down,↓,0.5246104000252672,True,36,1
AK-K-23K23S1,94,experiment,50,→,right,→,0.5587225999915972,True,36,1
AK-K-23K23S1,95,experiment,57,↓,down,↓,0.4779786000144668,True,36,1
AK-K-23K23S1,96,experiment,105,→,right,→,0.47136150003643706,True,36,1
AK-K-23K23S1,97,experiment,77,↓,down,↓,0.4192798999720253,True,36,0
AK-K-23K23S1,98,experiment,78,↓,down,↓,0.5340383999864571,True,36,0
AK-K-23K23S1,99,experiment,104,↑,up,↑,0.7177598999696784,True,36,1
AK-K-23K23S1,100,experiment,69,←,left,←,0.3921699000056833,True,36,1
AK-K-23K23S1,101,experiment,76,←,no_key,no_letter,-1.0,False,36,0
AK-K-23K23S1,102,experiment,55,↑,up,↑,0.5270494999713264,True,36,1
AK-K-23K23S1,103,experiment,100,↓,down,↓,0.43428380001569167,True,36,1
AK-K-23K23S1,104,training,51,←,left,←,0.5350416000001132,True,36,0
AK-K-23K23S1,105,training,86,→,right,→,0.4337541999993846,True,36,1
AK-K-23K23S1,106,experiment,86,↓,left,←,0.4864012000034563,False,36,0
AK-K-23K23S1,107,experiment,61,←,right,→,0.5258584999828599,False,36,1
AK-K-23K23S1,108,experiment,83,↑,up,↑,0.644931800023187,True,36,1
AK-K-23K23S1,109,experiment,85,↓,down,↓,0.5907895999844186,True,36,1
AK-K-23K23S1,110,experiment,57,↑,no_key,no_letter,-1.0,False,36,1
AK-K-23K23S1,111,experiment,106,↓,left,←,0.8810800000210293,False,36,1
AK-K-23K23S1,112,experiment,60,↓,down,↓,0.45117049996042624,True,36,1
AK-K-23K23S1,113,experiment,100,↓,no_key,no_letter,-1.0,False,36,0
AK-K-23K23S1,114,experiment,56,←,right,→,0.5957435999880545,False,36,1
AK-K-23K23S1,115,experiment,51,↑,up,↑,0.4828119999729097,True,36,1
AK-K-23K23S1,116,experiment,49,→,no_key,no_letter,-1.0,False,36,1
AK-K-23K23S1,117,experiment,108,←,left,←,0.43482379999477416,True,36,1
AK-K-23K23S1,118,experiment,74,←,left,←,0.6089982999837957,True,36,0
AK-K-23K23S1,119,experiment,68,↑,down,↓,0.7777368999668397,False,36,1
AK-K-23K23S1,120,experiment,73,↑,up,↑,0.7220825999975204,True,36,1
AK-K-23K23S1,121,experiment,105,↓,up,↑,0.55361320002703,False,36,1
AK-K-23K23S1,122,experiment,67,↓,no_key,no_letter,-1.0,False,36,1
AK-K-23K23S1,123,experiment,59,→,no_key,no_letter,-1.0,False,36,1
AK-K-23K23S1,124,experiment,52,↑,right,→,0.9137190000037663,False,36,1
AK-K-23K23S1,125,experiment,76,↓,no_key,no_letter,-1.0,False,36,1
AK-K-23K23S1,126,experiment,71,↓,down,↓,0.7565112999873236,True,36,1
AK-K-23K23S1,127,experiment,103,←,left,←,0.4262942000059411,True,36,1
AK-K-23K23S1,128,experiment,64,←,left,←,0.4260418000048958,True,36,0
AK-K-23K23S1,129,experiment,48,↓,down,↓,0.6430808000150137,True,36,1
AK-K-23K23S1,130,experiment,91,↓,down,↓,0.49084390001371503,True,36,1
AK-K-23K23S1,131,experiment,102,←,left,←,0.5166895000147633,True,36,1
AK-K-23K23S1,132,experiment,101,←,left,←,0.35091550002107397,True,36,1
AK-K-23K23S1,133,experiment,54,↑,up,↑,0.442486000014469,True,36,0
AK-K-23K23S1,134,experiment,99,↓,up,↑,0.8503522000391968,False,36,0
AK-K-23K23S1,135,experiment,55,↓,down,↓,0.36670610000146553,True,36,1
AK-K-23K23S1,136,experiment,62,←,left,←,0.36695130000589415,True,36,0
AK-K-23K23S1,137,experiment,87,←,left,←,0.41732050001155585,True,36,0
AK-K-23K23S1,138,experiment,89,←,right,→,0.7905328999622725,False,36,0
AK-K-23K23S1,139,experiment,90,→,right,→,0.4509505000314675,True,36,1
AK-K-23K23S1,140,experiment,53,↓,down,↓,0.46866219997173175,True,36,1
AK-K-23K23S1,141,experiment,79,↑,left,←,1.1587400000425987,False,36,0
AK-K-23K23S1,142,experiment,98,←,left,←,0.4086416999925859,True,36,1
AK-K-23K23S1,143,experiment,66,←,right,→,0.6727635000133887,False,36,0
AK-K-23K23S1,144,experiment,97,→,right,→,0.6848964000237174,True,36,1
AK-K-23K23S1,145,experiment,80,←,left,←,0.5667386999703012,True,36,1
AK-K-23K23S1,146,experiment,81,↑,up,↑,0.4341936999699101,True,36,1
AK-K-23K23S1,147,experiment,82,→,right,→,0.6393836999777704,True,36,0
AK-K-23K23S1,148,experiment,96,→,no_key,no_letter,-1.0,False,36,1
AK-K-23K23S1,149,experiment,69,↑,up,↑,0.3998747000005096,True,36,1
AK-K-23K23S1,150,experiment,84,→,right,→,0.3676696000038646,True,36,0
AK-K-23K23S1,151,experiment,65,↑,up,↑,0.6455158999888226,True,36,0
AK-K-23K23S1,152,experiment,77,↓,down,↓,0.5779695000383072,True,36,1
AK-K-23K23S1,153,experiment,107,↑,up,↑,0.4095600000000559,True,36,1
AK-K-23K23S1,154,experiment,50,↓,down,↓,0.41721980000147596,True,36,1
AK-K-23K23S1,155,experiment,78,↑,up,↑,0.40291140001500025,True,36,0
AK-K-23K23S1,156,experiment,63,↓,down,↓,0.627718800038565,True,36,0
AK-K-23K23S1,157,experiment,75,→,right,→,0.5616725999861956,True,36,1
AK-K-23K23S1,158,experiment,104,←,no_key,no_letter,-1.0,False,36,1
AK-K-23K23S1,159,experiment,88,↓,no_key,no_letter,-1.0,False,36,1
AK-K-23K23S1,160,experiment,92,↑,up,↑,0.42609010002342984,True,36,1
AK-K-23K23S1,161,experiment,95,←,right,→,0.5327957000117749,False,36,0
AK-K-23K23S1,162,experiment,72,←,no_key,no_letter,-1.0,False,36,1
AK-K-23K23S1,163,experiment,93,↑,up,↑,0.45085060002747923,True,36,1
AK-K-23K23S1,164,experiment,58,←,left,←,0.427891900006216,True,36,0
AK-K-23K23S1,165,experiment,94,←,right,→,0.5620037000044249,False,36,0
AK-K-23K23S1,166,experiment,70,→,no_key,no_letter,-1.0,False,36,1
AK-K-23K23S1,167,training,85,↓,down,↓,0.6317608999670483,True,36,0
AK-K-23K23S1,168,training,74,↑,up,↑,0.6784062000224367,True,36,1
AK-K-23K23S1,169,experiment,62,→,no_key,no_letter,-1.0,False,36,1
AK-K-23K23S1,170,experiment,56,↑,up,↑,0.5317493999609724,True,36,1
AK-K-23K23S1,171,experiment,48,↑,up,↑,0.5902853999868967,True,36,1
AK-K-23K23S1,172,experiment,106,→,right,→,0.6349029000266455,True,36,1
AK-K-23K23S1,173,experiment,107,↓,down,↓,0.4419454999733716,True,36,1
AK-K-23K23S1,174,experiment,81,↑,up,↑,0.3774482000153512,True,36,0
AK-K-23K23S1,175,experiment,105,→,right,→,0.40106559998821467,True,36,0
AK-K-23K23S1,176,experiment,60,↓,up,↑,0.6566950000124052,False,36,1
AK-K-23K23S1,177,experiment,87,←,left,←,0.375536400009878,True,36,1
AK-K-23K23S1,178,experiment,63,↑,up,↑,0.5245876000262797,True,36,0
AK-K-23K23S1,179,experiment,93,←,right,→,0.568412900029216,False,36,1
AK-K-23K23S1,180,experiment,78,←,left,←,0.44205440004589036,True,36,1
AK-K-23K23S1,181,experiment,101,←,left,←,0.5556227000197396,True,36,0
AK-K-23K23S1,182,experiment,53,↓,down,↓,0.7233378000091761,True,36,1
AK-K-23K23S1,183,experiment,108,↓,down,↓,0.593951900023967,True,36,1
AK-K-23K23S1,184,experiment,69,→,right,→,0.5550953999627382,True,36,1
AK-K-23K23S1,185,experiment,83,←,right,→,0.48086710000643507,False,36,1
AK-K-23K23S1,186,experiment,91,↑,up,↑,0.5908399000181817,True,36,1
AK-K-23K23S1,187,experiment,80,→,right,→,0.6921493000118062,True,36,1
AK-K-23K23S1,188,experiment,86,←,left,←,0.5474954000092112,True,36,1
AK-K-23K23S1,189,experiment,99,↓,down,↓,0.476616500003729,True,36,1
AK-K-23K23S1,190,experiment,58,←,left,←,0.44290010002441704,True,36,1
AK-K-23K23S1,191,experiment,57,↓,down,↓,0.417148900043685,True,36,1
AK-K-23K23S1,192,experiment,85,↓,down,↓,0.7544534999760799,True,36,0
AK-K-23K23S1,193,experiment,89,←,left,←,0.6142388000153005,True,36,1
AK-K-23K23S1,194,experiment,103,→,left,←,0.6189852000097744,False,36,1
AK-K-23K23S1,195,experiment,77,↑,no_key,no_letter,-1.0,False,36,1
AK-K-23K23S1,196,experiment,98,↑,up,↑,0.48050100001273677,True,36,1
AK-K-23K23S1,197,experiment,50,→,right,→,0.48442790005356073,True,36,1
AK-K-23K23S1,198,experiment,52,↓,down,↓,0.6394750999752432,True,36,1
AK-K-23K23S1,199,experiment,55,↓,left,←,0.579180600005202,False,36,1
AK-K-23K23S1,200,experiment,49,↓,down,↓,0.4262163999956101,True,36,1
AK-K-23K23S1,201,experiment,97,↓,down,↓,0.4973100000061095,True,36,0
AK-K-23K23S1,202,experiment,73,↓,down,↓,0.5086921999463812,True,36,1
AK-K-23K23S1,203,experiment,70,↓,down,↓,0.36769440001808107,True,36,1
AK-K-23K23S1,204,experiment,82,↓,down,↓,0.5263091000379063,True,36,0
AK-K-23K23S1,205,experiment,72,↑,up,↑,0.5209257999667898,True,36,1
AK-K-23K23S1,206,experiment,59,→,right,→,0.40963800001190975,True,36,1
AK-K-23K23S1,207,experiment,75,↑,up,↑,0.6542636000085622,True,36,1
AK-K-23K23S1,208,experiment,96,↑,down,↓,0.595764700032305,False,36,1
AK-K-23K23S1,209,experiment,61,←,no_key,no_letter,-1.0,False,36,1
AK-K-23K23S1,210,experiment,66,↓,down,↓,0.6820860000443645,True,36,1
AK-K-23K23S1,211,experiment,95,←,left,←,0.5346749000018463,True,36,1
AK-K-23K23S1,212,experiment,65,→,right,→,0.4995381999760866,True,36,1
AK-K-23K23S1,213,experiment,76,←,left,←,0.3929525999701582,True,36,1
AK-K-23K23S1,214,experiment,94,→,right,→,0.40122579998569563,True,36,1
AK-K-23K23S1,215,experiment,92,↑,left,←,0.45135589997516945,False,36,0
AK-K-23K23S1,216,experiment,54,←,left,←,0.6104802999761887,True,36,1
AK-K-23K23S1,217,experiment,79,↑,up,↑,0.5517925000167452,True,36,1
AK-K-23K23S1,218,experiment,64,←,left,←,0.4171545999706723,True,36,1
AK-K-23K23S1,219,experiment,84,↓,down,↓,0.4706984999938868,True,36,0
AK-K-23K23S1,220,experiment,71,↓,down,↓,0.6037765000364743,True,36,0
AK-K-23K23S1,221,experiment,67,→,left,←,0.46923040004912764,False,36,1
AK-K-23K23S1,222,experiment,102,→,right,→,0.42596110003069043,True,36,0
AK-K-23K23S1,223,experiment,104,←,left,←,0.4176298000384122,True,36,1
AK-K-23K23S1,224,experiment,68,→,left,←,0.747424500004854,False,36,0
AK-K-23K23S1,225,experiment,51,←,left,←,0.4263372999848798,True,36,1
AK-K-23K23S1,226,experiment,100,→,right,→,0.4263077999930829,True,36,1
AK-K-23K23S1,227,experiment,90,→,right,→,0.5296303000068292,True,36,0
AK-K-23K23S1,228,experiment,74,↓,down,↓,0.7474800999625586,True,36,1
AK-K-23K23S1,229,experiment,88,←,left,←,0.5516248000203632,True,36,1
AK-K-23K23S1,230,training,85,→,right,→,0.6399519999977201,True,36,0
AK-K-23K23S1,231,training,97,↓,down,↓,0.46985490003135055,True,36,1
AK-K-23K23S1,232,experiment,95,↓,down,↓,0.4275326000060886,True,36,0
AK-K-23K23S1,233,experiment,65,↓,down,↓,0.642906499968376,True,36,0
AK-K-23K23S1,234,experiment,76,←,left,←,0.5276471999823116,True,36,1
AK-K-23K23S1,235,experiment,80,↓,down,↓,0.5197164999553934,True,36,1
AK-K-23K23S1,236,experiment,56,←,left,←,0.4251850000000559,True,36,1
AK-K-23K23S1,237,experiment,61,←,left,←,0.4821751000126824,True,36,0
AK-K-23K23S1,238,experiment,52,→,right,→,0.4692740000318736,True,36,1
AK-K-23K23S1,239,experiment,82,↓,down,↓,0.5343936000135727,True,36,0
AK-K-23K23S1,240,experiment,85,↓,left,←,0.4254892999888398,False,36,1
AK-K-23K23S1,241,experiment,60,→,left,←,0.8548202000092715,False,36,0
AK-K-23K23S1,242,experiment,101,→,right,→,0.7866178000112996,True,36,1
AK-K-23K23S1,243,experiment,83,←,left,←,0.6154173000250012,True,36,1
AK-K-23K23S1,244,experiment,103,↓,down,↓,0.516039899957832,True,36,1
AK-K-23K23S1,245,experiment,99,←,left,←,0.534063300001435,True,36,1
AK-K-23K23S1,246,experiment,100,↑,up,↑,0.6311258000205271,True,36,1
AK-K-23K23S1,247,experiment,54,↓,up,↑,0.5954475000035018,False,36,1
AK-K-23K23S1,248,experiment,90,←,left,←,0.4169184999773279,True,36,1
AK-K-23K23S1,249,experiment,108,→,right,→,0.799812400015071,True,36,0
AK-K-23K23S1,250,experiment,74,↑,up,↑,0.4511888999841176,True,36,1
AK-K-23K23S1,251,experiment,53,↓,down,↓,0.45150780002586544,True,36,1
AK-K-23K23S1,252,experiment,67,↑,up,↑,0.6659227999625728,True,36,0
AK-K-23K23S1,253,experiment,81,↑,up,↑,0.41768319997936487,True,36,1
AK-K-23K23S1,254,experiment,88,←,left,←,0.613293899979908,True,36,0
AK-K-23K23S1,255,experiment,71,↑,no_key,no_letter,-1.0,False,36,1
AK-K-23K23S1,256,experiment,77,→,right,→,0.5805616999859922,True,36,1
AK-K-23K23S1,257,experiment,59,←,left,←,0.375586399983149,True,36,1
AK-K-23K23S1,258,experiment,57,↓,left,←,0.35058010002830997,False,36,0
AK-K-23K23S1,259,experiment,94,↓,left,←,0.6160994000383653,False,36,0
AK-K-23K23S1,260,experiment,49,→,right,→,0.4710390999680385,True,36,1
AK-K-23K23S1,261,experiment,51,→,right,→,0.5787089000223204,True,36,0
AK-K-23K23S1,262,experiment,98,←,left,←,0.3671965000103228,True,36,1
AK-K-23K23S1,263,experiment,55,↑,up,↑,0.481154199980665,True,36,0
AK-K-23K23S1,264,experiment,87,→,right,→,0.4806895999936387,True,36,1
AK-K-23K23S1,265,experiment,92,↑,up,↑,0.4423864000127651,True,36,1
AK-K-23K23S1,266,experiment,73,←,left,←,0.37555980001343414,True,36,0
AK-K-23K23S1,267,experiment,75,↑,up,↑,0.6913185999728739,True,36,0
AK-K-23K23S1,268,experiment,68,↑,up,↑,0.5365320999990217,True,36,1
AK-K-23K23S1,269,experiment,78,↓,down,↓,0.44259509997209534,True,36,1
AK-K-23K23S1,270,experiment,64,→,right,→,0.6811144000384957,True,36,0
AK-K-23K23S1,271,experiment,97,↓,down,↓,0.4177979999803938,True,36,1
AK-K-23K23S1,272,experiment,62,↓,down,↓,0.5750638999743387,True,36,0
AK-K-23K23S1,273,experiment,70,↓,no_key,no_letter,-1.0,False,36,1
AK-K-23K23S1,274,experiment,50,↓,down,↓,0.47302949998993427,True,36,1
AK-K-23K23S1,275,experiment,91,←,no_key,no_letter,-1.0,False,36,1
AK-K-23K23S1,276,experiment,102,↑,no_key,no_letter,-1.0,False,36,1
AK-K-23K23S1,277,experiment,93,←,no_key,no_letter,-1.0,False,36,1
AK-K-23K23S1,278,experiment,106,↑,up,↑,0.6212709000101313,True,36,1
AK-K-23K23S1,279,experiment,48,→,right,→,0.4429263999918476,True,36,1
AK-K-23K23S1,280,experiment,89,→,right,→,0.7963378999847919,True,36,0
AK-K-23K23S1,281,experiment,72,↓,left,←,0.6677946000127122,False,36,1
AK-K-23K23S1,282,experiment,69,↑,up,↑,0.43372219998855144,True,36,1
AK-K-23K23S1,283,experiment,79,↑,up,↑,0.41689579997910187,True,36,0
AK-K-23K23S1,284,experiment,63,↑,up,↑,0.4505986000294797,True,36,0
AK-K-23K23S1,285,experiment,96,←,left,←,0.532765899959486,True,36,0
AK-K-23K23S1,286,experiment,107,←,left,←,0.3671831999672577,True,36,1
AK-K-23K23S1,287,experiment,104,←,left,←,0.5296873999759555,True,36,0
AK-K-23K23S1,288,experiment,66,←,left,←,0.3593086000182666,True,36,1
AK-K-23K23S1,289,experiment,86,→,no_key,no_letter,-1.0,False,36,0
AK-K-23K23S1,290,experiment,58,↓,down,↓,0.6244017000426538,True,36,1
AK-K-23K23S1,291,experiment,84,←,left,←,0.3754705999745056,True,36,1
AK-K-23K23S1,292,experiment,105,←,left,←,0.3590056999819353,True,36,0
AK-K-23K23S1,293,training,50,↓,up,↑,0.5160957000334747,False,36,0
AK-K-23K23S1,294,training,108,→,right,→,0.42613330000313,True,36,1
AK-K-23K23S1,295,experiment,76,↓,down,↓,0.5205727000138722,True,36,0
AK-K-23K23S1,296,experiment,69,→,right,→,0.3926631999784149,True,36,1
AK-K-23K23S1,297,experiment,106,→,right,→,0.4016750999726355,True,36,0
AK-K-23K23S1,298,experiment,57,←,no_key,no_letter,-1.0,False,36,0
AK-K-23K23S1,299,experiment,63,←,left,←,0.3759845000458881,True,36,1
AK-K-23K23S1,300,experiment,92,↑,up,↑,0.602719500020612,True,36,0
AK-K-23K23S1,301,experiment,50,→,left,←,0.5138706999714486,False,36,1
AK-K-23K23S1,302,experiment,52,←,left,←,0.3337822999455966,True,36,1
AK-K-23K23S1,303,experiment,67,←,right,→,0.4872124000103213,False,36,0
AK-K-23K23S1,304,experiment,56,←,left,←,0.35965540003962815,True,36,1
AK-K-23K23S1,305,experiment,102,↓,down,↓,0.39262280002003536,True,36,1
AK-K-23K23S1,306,experiment,88,↑,up,↑,0.4358366000233218,True,36,0
AK-K-23K23S1,307,experiment,105,→,right,→,0.6851390000083484,True,36,0
AK-K-23K23S1,308,experiment,54,←,left,←,0.40108219999819994,True,36,1
AK-K-23K23S1,309,experiment,58,↓,down,↓,0.667848100012634,True,36,0
AK-K-23K23S1,310,experiment,51,↓,down,↓,0.3763367999927141,True,36,1
AK-K-23K23S1,311,experiment,103,→,right,→,0.5654091000324115,True,36,0
AK-K-23K23S1,312,experiment,72,←,left,←,0.4175834999768995,True,36,1
AK-K-23K23S1,313,experiment,98,→,right,→,0.4693816000362858,True,36,0
AK-K-23K23S1,314,experiment,100,↓,down,↓,0.3849476000177674,True,36,1
AK-K-23K23S1,315,experiment,93,↑,up,↑,0.5686989999958314,True,36,0
AK-K-23K23S1,316,experiment,80,→,right,→,0.48741960001643747,True,36,1
AK-K-23K23S1,317,experiment,74,↑,no_key,no_letter,-1.0,False,36,1
AK-K-23K23S1,318,experiment,90,→,right,→,0.589438599999994,True,36,1
AK-K-23K23S1,319,experiment,48,→,left,←,0.43431219999911264,False,36,1
AK-K-23K23S1,320,experiment,61,↑,up,↑,0.711375999962911,True,36,1
AK-K-23K23S1,321,experiment,68,↑,up,↑,0.5559711999958381,True,36,1
AK-K-23K23S1,322,experiment,62,←,left,←,0.6247696000500582,True,36,1
AK-K-23K23S1,323,experiment,70,↓,down,↓,0.5040323000284843,True,36,1
AK-K-23K23S1,324,experiment,84,←,left,←,0.40921489999163896,True,36,1
AK-K-23K23S1,325,experiment,65,↓,left,←,0.7768243000027724,False,36,1
AK-K-23K23S1,326,experiment,82,←,left,←,0.3759176000021398,True,36,1
AK-K-23K23S1,327,experiment,53,↓,up,↑,0.7568417000002228,False,36,0
AK-K-23K23S1,328,experiment,91,↑,up,↑,0.7597947000176646,True,36,1
AK-K-23K23S1,329,experiment,87,↑,up,↑,0.5960888999979943,True,36,1
AK-K-23K23S1,330,experiment,86,↓,down,↓,0.583436899993103,True,36,1
AK-K-23K23S1,331,experiment,85,↑,up,↑,0.49136970000108704,True,36,1
AK-K-23K23S1,332,experiment,97,←,up,↑,0.6552046000142582,False,36,1
AK-K-23K23S1,333,experiment,89,→,up,↑,0.4002279000123963,False,36,1
AK-K-23K23S1,334,experiment,73,↑,up,↑,0.4429468000307679,True,36,0
AK-K-23K23S1,335,experiment,59,↑,up,↑,0.45023220003349707,True,36,0
AK-K-23K23S1,336,experiment,77,→,right,→,0.5476606000447646,True,36,0
AK-K-23K23S1,337,experiment,79,→,right,→,0.4911261000088416,True,36,1
AK-K-23K23S1,338,experiment,95,↓,down,↓,0.59956040000543,True,36,1
AK-K-23K23S1,339,experiment,96,→,right,→,0.5192522000288591,True,36,1
AK-K-23K23S1,340,experiment,64,←,left,←,0.6529016999993473,True,36,1
AK-K-23K23S1,341,experiment,60,↑,up,↑,0.4089900000253692,True,36,1
AK-K-23K23S1,342,experiment,107,←,right,→,0.521657699951902,False,36,0
AK-K-23K23S1,343,experiment,75,←,left,←,0.35125799995148554,True,36,1
AK-K-23K23S1,344,experiment,81,↓,down,↓,0.451329400006216,True,36,0
AK-K-23K23S1,345,experiment,108,←,left,←,0.4095214999979362,True,36,0
AK-K-23K23S1,346,experiment,101,↓,down,↓,0.6724157999851741,True,36,1
AK-K-23K23S1,347,experiment,104,↓,down,↓,0.5146355999750085,True,36,1
AK-K-23K23S1,348,experiment,71,→,right,→,0.4343333000433631,True,36,1
AK-K-23K23S1,349,experiment,99,↓,down,↓,0.49104749999241903,True,36,0
AK-K-23K23S1,350,experiment,78,↓,down,↓,0.5972676000092179,True,36,1
AK-K-23K23S1,351,experiment,49,↑,up,↑,0.4422162999981083,True,36,1
AK-K-23K23S1,352,experiment,83,↓,down,↓,0.49482950003584847,True,36,0
AK-K-23K23S1,353,experiment,66,↓,down,↓,0.5323526000138372,True,36,1
AK-K-23K23S1,354,experiment,55,→,right,→,0.4843516999972053,True,36,1
AK-K-23K23S1,355,experiment,94,↓,down,↓,0.4818402999662794,True,36,1
AK-K-23K23S1,356,training,69,↑,up,↑,0.5180834000348113,True,36,0
AK-K-23K23S1,357,training,62,↓,down,↓,0.6604978999821469,True,36,1
AK-K-23K23S1,358,experiment,69,←,left,←,0.6027968999696895,True,36,1
AK-K-23K23S1,359,experiment,50,↓,down,↓,0.4263988999882713,True,36,1
AK-K-23K23S1,360,experiment,82,↓,down,↓,0.516617400047835,True,36,0
AK-K-23K23S1,361,experiment,93,↓,down,↓,0.34197349997702986,True,36,1
AK-K-23K23S1,362,experiment,79,↓,down,↓,0.36700719996588305,True,36,0
AK-K-23K23S1,363,experiment,84,→,right,→,0.48475110001163557,True,36,0
AK-K-23K23S1,364,experiment,89,→,right,→,0.44211170001653954,True,36,1
AK-K-23K23S1,365,experiment,57,→,right,→,0.4701445999671705,True,36,0
AK-K-23K23S1,366,experiment,96,↓,down,↓,0.4261041000136174,True,36,0
AK-K-23K23S1,367,experiment,102,←,left,←,0.5755252999952063,True,36,0
AK-K-23K23S1,368,experiment,104,→,right,→,0.42573339998489246,True,36,1
AK-K-23K23S1,369,experiment,68,→,left,←,0.4690427000168711,False,36,0
AK-K-23K23S1,370,experiment,78,→,right,→,0.6240876000374556,True,36,0
AK-K-23K23S1,371,experiment,92,↑,up,↑,0.6241362000000663,True,36,1
AK-K-23K23S1,372,experiment,61,→,left,←,0.7143848999985494,False,36,1
AK-K-23K23S1,373,experiment,53,↓,down,↓,0.5719021999975666,True,36,1
AK-K-23K23S1,374,experiment,48,↑,up,↑,0.4771718999836594,True,36,1
AK-K-23K23S1,375,experiment,80,↓,down,↓,0.43451019999338314,True,36,1
AK-K-23K23S1,376,experiment,85,↓,down,↓,0.6321386999916285,True,36,0
AK-K-23K23S1,377,experiment,74,↓,down,↓,0.33419069997034967,True,36,1
AK-K-23K23S1,378,experiment,91,→,right,→,0.5376019999966957,True,36,0
AK-K-23K23S1,379,experiment,67,←,left,←,0.6373165000113659,True,36,1
AK-K-23K23S1,380,experiment,70,←,left,←,0.7240738999680616,True,36,1
AK-K-23K23S1,381,experiment,66,↓,down,↓,0.45089929999085143,True,36,1
AK-K-23K23S1,382,experiment,88,→,right,→,0.5769014999968931,True,36,1
AK-K-23K23S1,383,experiment,73,↑,up,↑,0.42608339997241274,True,36,1
AK-K-23K23S1,384,experiment,64,→,right,→,0.5385430000023916,True,36,0
AK-K-23K23S1,385,experiment,56,↓,down,↓,0.34236790001159534,True,36,1
AK-K-23K23S1,386,experiment,100,←,right,→,0.49822349997702986,False,36,0
AK-K-23K23S1,387,experiment,97,↓,down,↓,0.5974326999858022,True,36,1
AK-K-23K23S1,388,experiment,71,↑,up,↑,0.6619316999567673,True,36,1
AK-K-23K23S1,389,experiment,60,↑,up,↑,0.5188860999769531,True,36,1
AK-K-23K23S1,390,experiment,59,↑,up,↑,0.6701710000052117,True,36,1
AK-K-23K23S1,391,experiment,108,→,right,→,0.5910755000077188,True,36,1
AK-K-23K23S1,392,experiment,63,↓,down,↓,0.41946300002746284,True,36,1
AK-K-23K23S1,393,experiment,52,←,left,←,0.551398399984464,True,36,0
AK-K-23K23S1,394,experiment,98,←,left,←,0.4259115000022575,True,36,1
AK-K-23K23S1,395,experiment,94,↑,up,↑,0.42554219998419285,True,36,0
AK-K-23K23S1,396,experiment,101,←,left,←,0.5401830000337213,True,36,0
AK-K-23K23S1,397,experiment,81,↓,down,↓,0.5550627999473363,True,36,1
AK-K-23K23S1,398,experiment,75,↑,up,↑,0.5557700999779627,True,36,1
AK-K-23K23S1,399,experiment,51,→,right,→,0.40092420001747087,True,36,1
AK-K-23K23S1,400,experiment,107,↓,down,↓,0.3843361000181176,True,36,1
AK-K-23K23S1,401,experiment,72,←,left,←,0.37656950001837686,True,36,0
AK-K-23K23S1,402,experiment,83,→,left,←,0.5082955000107177,False,36,0
AK-K-23K23S1,403,experiment,54,↓,down,↓,0.5016509999986738,True,36,1
AK-K-23K23S1,404,experiment,65,↓,no_key,no_letter,-1.0,False,36,1
AK-K-23K23S1,405,experiment,55,↑,up,↑,0.6344501000130549,True,36,1
AK-K-23K23S1,406,experiment,105,→,left,←,0.38385589997051284,False,36,1
AK-K-23K23S1,407,experiment,95,←,left,←,0.5421336999861524,True,36,0
AK-K-23K23S1,408,experiment,76,←,left,←,0.6070757000125013,True,36,1
AK-K-23K23S1,409,experiment,106,←,left,←,0.4011450999532826,True,36,1
AK-K-23K23S1,410,experiment,49,←,left,←,0.4270812000031583,True,36,0
AK-K-23K23S1,411,experiment,86,←,left,←,0.8353528000297956,True,36,0
AK-K-23K23S1,412,experiment,103,↑,up,↑,0.6075207000249065,True,36,1
AK-K-23K23S1,413,experiment,87,←,left,←,0.6655846000066958,True,36,1
AK-K-23K23S1,414,experiment,90,↑,left,←,0.7447717000031844,False,36,1
AK-K-23K23S1,415,experiment,77,→,right,→,0.4738437000196427,True,36,1
AK-K-23K23S1,416,experiment,62,↑,up,↑,0.5612740999786183,True,36,1
AK-K-23K23S1,417,experiment,58,←,left,←,0.38401059998432174,True,36,1
AK-K-23K23S1,418,experiment,99,↓,no_key,no_letter,-1.0,False,36,0
AK-K-23K23S1,419,training,97,→,right,→,0.5417280999827199,True,36,0
AK-K-23K23S1,420,training,58,→,right,→,0.38358620001235977,True,36,1
AK-K-23K23S1,421,experiment,72,→,right,→,0.42554639995796606,True,36,0
AK-K-23K23S1,422,experiment,58,→,right,→,0.7516494000446983,True,36,0
AK-K-23K23S1,423,experiment,52,←,left,←,0.5921668999944814,True,36,1
AK-K-23K23S1,424,experiment,55,↓,left,←,0.7019753999775276,False,36,1
AK-K-23K23S1,425,experiment,97,→,right,→,0.6173870000056922,True,36,1
AK-K-23K23S1,426,experiment,51,→,right,→,0.41762459999881685,True,36,1
AK-K-23K23S1,427,experiment,78,→,right,→,0.3755483999848366,True,36,0
AK-K-23K23S1,428,experiment,102,→,right,→,0.44336750003276393,True,36,0
AK-K-23K23S1,429,experiment,101,↓,down,↓,0.48650180001277477,True,36,0
AK-K-23K23S1,430,experiment,57,←,left,←,0.3684120000107214,True,36,1
AK-K-23K23S1,431,experiment,82,→,left,←,0.3844816000200808,False,36,0
AK-K-23K23S1,432,experiment,67,→,right,→,0.9027054000180215,True,36,0
AK-K-23K23S1,433,experiment,74,←,right,→,0.6018673999933526,False,36,1
AK-K-23K23S1,434,experiment,95,↓,down,↓,0.4898517999681644,True,36,1
AK-K-23K23S1,435,experiment,88,↑,up,↑,0.4341454000095837,True,36,1
AK-K-23K23S1,436,experiment,66,→,no_key,no_letter,-1.0,False,36,1
AK-K-23K23S1,437,experiment,76,→,right,→,0.48827969998819754,True,36,1
AK-K-23K23S1,438,experiment,70,↑,up,↑,0.41786420001881197,True,36,1
AK-K-23K23S1,439,experiment,81,↑,up,↑,0.6088205000269227,True,36,0
AK-K-23K23S1,440,experiment,85,↓,down,↓,0.42573270003777,True,36,1
AK-K-23K23S1,441,experiment,59,←,left,←,0.43421000003581867,True,36,0
AK-K-23K23S1,442,experiment,98,←,left,←,0.4011630999739282,True,36,0
AK-K-23K23S1,443,experiment,63,↓,down,↓,0.5022297999821603,True,36,0
AK-K-23K23S1,444,experiment,61,←,left,←,0.7656520000309683,True,36,1
AK-K-23K23S1,445,experiment,107,→,left,←,0.6271639000042342,False,36,1
AK-K-23K23S1,446,experiment,48,↓,down,↓,0.5377344999578781,True,36,1
AK-K-23K23S1,447,experiment,68,↓,down,↓,0.6533463000087067,True,36,1
AK-K-23K23S1,448,experiment,79,↑,up,↑,0.40941369999200106,True,36,1
AK-K-23K23S1,449,experiment,92,↑,up,↑,0.7689997999696061,True,36,0
AK-K-23K23S1,450,experiment,69,↓,down,↓,0.6430987999774516,True,36,1
AK-K-23K23S1,451,experiment,96,→,no_key,no_letter,-1.0,False,36,1
AK-K-23K23S1,452,experiment,53,↑,up,↑,0.5523464999860153,True,36,1
AK-K-23K23S1,453,experiment,84,←,left,←,0.5982647000346333,True,36,1
AK-K-23K23S1,454,experiment,104,→,right,→,0.40057649998925626,True,36,1
AK-K-23K23S1,455,experiment,90,←,left,←,0.5564396000117995,True,36,0
AK-K-23K23S1,456,experiment,65,↓,down,↓,0.5203678999678232,True,36,1
AK-K-23K23S1,457,experiment,89,←,left,←,0.5255650000181049,True,36,1
AK-K-23K23S1,458,experiment,50,↓,down,↓,0.7037275999900885,True,36,1
AK-K-23K23S1,459,experiment,93,↓,down,↓,0.5325376999680884,True,36,1
AK-K-23K23S1,460,experiment,77,↓,down,↓,0.5332305000047199,True,36,1
AK-K-23K23S1,461,experiment,49,↓,down,↓,0.7112695999676362,True,36,1
AK-K-23K23S1,462,experiment,105,←,left,←,0.6716423999750987,True,36,1
AK-K-23K23S1,463,experiment,60,↓,down,↓,0.4426677000010386,True,36,1
AK-K-23K23S1,464,experiment,103,↓,down,↓,0.6198661999660544,True,36,0
AK-K-23K23S1,465,experiment,75,→,right,→,0.4514662000001408,True,36,1
AK-K-23K23S1,466,experiment,91,↑,up,↑,0.6008279999950901,True,36,0
AK-K-23K23S1,467,experiment,73,↓,down,↓,0.5603070000070147,True,36,1
AK-K-23K23S1,468,experiment,83,↑,down,↓,0.5259095000219531,False,36,1
AK-K-23K23S1,469,experiment,99,↑,up,↑,0.5275520999566652,True,36,1
AK-K-23K23S1,470,experiment,64,→,right,→,0.6529082999913953,True,36,1
AK-K-23K23S1,471,experiment,86,←,right,→,0.7739055000129156,False,36,1
AK-K-23K23S1,472,experiment,94,↑,up,↑,0.6468264000141062,True,36,1
AK-K-23K23S1,473,experiment,108,→,right,→,0.4424639000208117,True,36,1
AK-K-23K23S1,474,experiment,106,↓,down,↓,0.34216970001580194,True,36,0
AK-K-23K23S1,475,experiment,54,↑,no_key,no_letter,-1.0,False,36,0
AK-K-23K23S1,476,experiment,100,→,right,→,0.6262622000067495,True,36,1
AK-K-23K23S1,477,experiment,87,↑,up,↑,0.3923223000019789,True,36,1
AK-K-23K23S1,478,experiment,62,↑,no_key,no_letter,-1.0,False,36,0
AK-K-23K23S1,479,experiment,56,↓,up,↑,0.8053651999798603,False,36,1
AK-K-23K23S1,480,experiment,80,↓,down,↓,0.6258531999774277,True,36,1
AK-K-23K23S1,481,experiment,71,↓,down,↓,0.451007199997548,True,36,1
AK-K-23K23S1,482,training,106,↓,up,↑,0.7582996999844909,False,36,0
AK-K-23K23S1,483,training,86,↑,up,↑,1.0351022999966517,True,36,1
AK-K-23K23S1,484,experiment,106,→,right,→,0.6301497000386007,True,36,1
AK-K-23K23S1,485,experiment,61,→,right,→,0.4335222999798134,True,36,1
AK-K-23K23S1,486,experiment,88,→,right,→,0.5368469000095502,True,36,0
AK-K-23K23S1,487,experiment,108,→,right,→,0.5273440000019036,True,36,1
AK-K-23K23S1,488,experiment,93,↓,down,↓,0.7386650999542326,True,36,1
AK-K-23K23S1,489,experiment,105,←,left,←,0.5856817999738269,True,36,1
AK-K-23K23S1,490,experiment,78,↓,down,↓,0.568047899985686,True,36,1
AK-K-23K23S1,491,experiment,89,↑,up,↑,0.4911601999774575,True,36,1
AK-K-23K23S1,492,experiment,79,→,right,→,0.5252156999777071,True,36,1
AK-K-23K23S1,493,experiment,85,←,left,←,0.5477080999989994,True,36,1
AK-K-23K23S1,494,experiment,100,↑,up,↑,0.5001220999984071,True,36,1
AK-K-23K23S1,495,experiment,63,←,left,←,0.5627317000180483,True,36,1
AK-K-23K23S1,496,experiment,51,→,right,→,0.5465508000343107,True,36,1
AK-K-23K23S1,497,experiment,77,↑,up,↑,0.4422451999853365,True,36,1
AK-K-23K23S1,498,experiment,76,↓,down,↓,0.4715802999562584,True,36,0
AK-K-23K23S1,499,experiment,107,↓,down,↓,0.5362998999771662,True,36,0
AK-K-23K23S1,500,experiment,56,←,left,←,0.5841395999887027,True,36,1
AK-K-23K23S1,501,experiment,60,←,left,←,0.42620159999933094,True,36,1
AK-K-23K23S1,502,experiment,92,→,right,→,0.43450319999828935,True,36,0
AK-K-23K23S1,503,experiment,70,↓,down,↓,0.5947183999815024,True,36,1
AK-K-23K23S1,504,experiment,54,↑,no_key,no_letter,-1.0,False,36,1
AK-K-23K23S1,505,experiment,49,↑,up,↑,0.48131970001850277,True,36,1
AK-K-23K23S1,506,experiment,81,↓,down,↓,0.5386641000513919,True,36,1
AK-K-23K23S1,507,experiment,65,←,no_key,no_letter,-1.0,False,36,1
AK-K-23K23S1,508,experiment,69,↑,up,↑,0.5049474999541417,True,36,1
AK-K-23K23S1,509,experiment,83,↑,no_key,no_letter,-1.0,False,36,1
AK-K-23K23S1,510,experiment,52,↑,up,↑,0.4729289000388235,True,36,1
AK-K-23K23S1,511,experiment,66,↑,up,↑,0.4950139000429772,True,36,0
AK-K-23K23S1,512,experiment,103,←,left,←,0.4260333999991417,True,36,1
AK-K-23K23S1,513,experiment,50,↓,down,↓,0.48671219998504966,True,36,0
AK-K-23K23S1,514,experiment,104,↓,no_key,no_letter,-1.0,False,36,1
AK-K-23K23S1,515,experiment,90,→,left,←,0.5781011000508443,False,36,1
AK-K-23K23S1,516,experiment,72,→,right,→,0.4908994999714196,True,36,1
AK-K-23K23S1,517,experiment,75,↓,down,↓,0.4345433000125922,True,36,1
AK-K-23K23S1,518,experiment,91,↓,down,↓,0.3927489999914542,True,36,0
AK-K-23K23S1,519,experiment,99,←,left,←,0.3593937999685295,True,36,1
AK-K-23K23S1,520,experiment,57,←,left,←,0.6664547999971546,True,36,0
AK-K-23K23S1,521,experiment,80,↓,down,↓,0.5088535000104457,True,36,1
AK-K-23K23S1,522,experiment,94,←,left,←,0.351097300008405,True,36,1
AK-K-23K23S1,523,experiment,102,↓,left,←,0.6162293999805115,False,36,1
AK-K-23K23S1,524,experiment,86,↓,down,↓,0.5707735999603756,True,36,1
AK-K-23K23S1,525,experiment,101,↓,down,↓,0.48998189996927977,True,36,1
AK-K-23K23S1,526,experiment,95,↑,up,↑,0.45144899998558685,True,36,1
AK-K-23K23S1,527,experiment,68,↑,up,↑,0.44275350001407787,True,36,0
AK-K-23K23S1,528,experiment,82,↑,no_key,no_letter,-1.0,False,36,0
AK-K-23K23S1,529,experiment,97,→,right,→,0.45069510000757873,True,36,1
AK-K-23K23S1,530,experiment,64,→,left,←,0.6483843000023626,False,36,0
AK-K-23K23S1,531,experiment,96,↑,up,↑,0.4706237000063993,True,36,1
AK-K-23K23S1,532,experiment,53,→,right,→,0.5209917000029236,True,36,0
AK-K-23K23S1,533,experiment,58,→,down,↓,0.6162914999877103,False,36,1
AK-K-23K23S1,534,experiment,98,←,left,←,0.5268332000123337,True,36,1
AK-K-23K23S1,535,experiment,87,↑,up,↑,0.40148619998944923,True,36,1
AK-K-23K23S1,536,experiment,62,↓,down,↓,0.4506845999858342,True,36,1
AK-K-23K23S1,537,experiment,67,→,right,→,0.5663834999431856,True,36,0
AK-K-23K23S1,538,experiment,59,↓,down,↓,0.5078811999992467,True,36,1
AK-K-23K23S1,539,experiment,84,↓,down,↓,0.4094987999997102,True,36,1
AK-K-23K23S1,540,experiment,71,↓,down,↓,0.5549596999771893,True,36,0
AK-K-23K23S1,541,experiment,73,↑,up,↑,0.4422707000048831,True,36,1
AK-K-23K23S1,542,experiment,55,→,right,→,0.8233206999721006,True,36,0
AK-K-23K23S1,543,experiment,48,←,right,→,0.7018090000492521,False,36,1
AK-K-23K23S1,544,experiment,74,←,right,→,0.512864799995441,False,36,1
AK-K-23K23S1,545,training,87,↑,up,↑,0.47930070001166314,True,36,0
AK-K-23K23S1,546,training,101,→,right,→,0.4972876999527216,True,36,1
AK-K-23K23S1,547,experiment,59,↑,up,↑,0.3948501999839209,True,36,1
AK-K-23K23S1,548,experiment,62,↑,up,↑,0.37624870002036914,True,36,0
AK-K-23K23S1,549,experiment,68,↓,down,↓,0.4345672999625094,True,36,1
AK-K-23K23S1,550,experiment,77,↑,up,↑,0.6421645000227727,True,36,1
AK-K-23K23S1,551,experiment,71,↑,up,↑,0.5924788999836892,True,36,1
AK-K-23K23S1,552,experiment,53,↑,up,↑,0.47124619997339323,True,36,1
AK-K-23K23S1,553,experiment,55,↑,up,↑,0.41844229999696836,True,36,0
AK-K-23K23S1,554,experiment,97,↓,no_key,no_letter,-1.0,False,36,1
AK-K-23K23S1,555,experiment,48,↑,up,↑,0.5526628999505192,True,36,1
AK-K-23K23S1,556,experiment,57,→,no_key,no_letter,-1.0,False,36,1
AK-K-23K23S1,557,experiment,49,←,left,←,0.5841362000210211,True,36,1
AK-K-23K23S1,558,experiment,88,←,left,←,0.4012268999940716,True,36,1
AK-K-23K23S1,559,experiment,104,←,left,←,0.6078850000048988,True,36,0
AK-K-23K23S1,560,experiment,64,←,left,←,0.3678048000438139,True,36,1
AK-K-23K23S1,561,experiment,92,↓,down,↓,0.4758317000232637,True,36,0
AK-K-23K23S1,562,experiment,63,←,left,←,0.38433979998808354,True,36,1
AK-K-23K23S1,563,experiment,69,→,right,→,0.7006900000269525,True,36,0
AK-K-23K23S1,564,experiment,76,→,right,→,0.703087100002449,True,36,1
AK-K-23K23S1,565,experiment,101,↑,up,↑,0.39426560001447797,True,36,1
AK-K-23K23S1,566,experiment,60,→,right,→,0.4178807000280358,True,36,0
AK-K-23K23S1,567,experiment,91,→,right,→,0.6291187999886461,True,36,0
AK-K-23K23S1,568,experiment,70,←,left,←,0.5720531999832019,True,36,1
AK-K-23K23S1,569,experiment,50,←,left,←,0.58014799997909,True,36,1
AK-K-23K23S1,570,experiment,98,→,right,→,0.43457179999677464,True,36,1
AK-K-23K23S1,571,experiment,81,←,left,←,0.40069199999561533,True,36,0
AK-K-23K23S1,572,experiment,58,↑,up,↑,0.4435863000107929,True,36,0
AK-K-23K23S1,573,experiment,107,↓,no_key,no_letter,-1.0,False,36,0
AK-K-23K23S1,574,experiment,89,→,right,→,0.7121840000036173,True,36,1
AK-K-23K23S1,575,experiment,108,↑,no_key,no_letter,-1.0,False,36,1
AK-K-23K23S1,576,experiment,86,↑,up,↑,0.47549109999090433,True,36,1
AK-K-23K23S1,577,experiment,72,↓,down,↓,0.695445200020913,True,36,1
AK-K-23K23S1,578,experiment,85,↓,down,↓,0.6068155000102706,True,36,1
AK-K-23K23S1,579,experiment,87,↓,down,↓,0.40048539999406785,True,36,1
AK-K-23K23S1,580,experiment,83,←,left,←,0.36677689995849505,True,36,0
AK-K-23K23S1,581,experiment,95,↑,up,↑,0.40940569998929277,True,36,0
AK-K-23K23S1,582,experiment,90,↓,down,↓,0.3845584999653511,True,36,1
AK-K-23K23S1,583,experiment,74,←,left,←,0.40089290001196787,True,36,0
AK-K-23K23S1,584,experiment,61,←,left,←,0.41901339998003095,True,36,0
AK-K-23K23S1,585,experiment,54,→,no_key,no_letter,-1.0,False,36,0
AK-K-23K23S1,586,experiment,52,↓,down,↓,0.861698399996385,True,36,1
AK-K-23K23S1,587,experiment,82,↑,up,↑,0.5514978999854065,True,36,1
AK-K-23K23S1,588,experiment,65,→,right,→,0.5231900000362657,True,36,1
AK-K-23K23S1,589,experiment,80,↓,down,↓,0.587540699983947,True,36,1
AK-K-23K23S1,590,experiment,56,←,left,←,0.38607330003287643,True,36,1
AK-K-23K23S1,591,experiment,96,←,left,←,0.5526542000006884,True,36,0
AK-K-23K23S1,592,experiment,99,→,right,→,0.6415091999806464,True,36,1
AK-K-23K23S1,593,experiment,51,↓,down,↓,0.5505505999899469,True,36,1
AK-K-23K23S1,594,experiment,103,↑,up,↑,0.4861344999517314,True,36,1
AK-K-23K23S1,595,experiment,73,↑,up,↑,0.6660346999997273,True,36,1
AK-K-23K23S1,596,experiment,67,↓,down,↓,0.44196679996093735,True,36,1
AK-K-23K23S1,597,experiment,75,↑,no_key,no_letter,-1.0,False,36,0
AK-K-23K23S1,598,experiment,84,↑,up,↑,0.6022402999806218,True,36,1
AK-K-23K23S1,599,experiment,78,←,left,←,0.3928269000025466,True,36,1
AK-K-23K23S1,600,experiment,105,↑,up,↑,0.5248081000172533,True,36,0
AK-K-23K23S1,601,experiment,93,←,left,←,0.5363245999906212,True,36,1
AK-K-23K23S1,602,experiment,79,↑,up,↑,0.4426210999954492,True,36,1
AK-K-23K23S1,603,experiment,66,↓,down,↓,0.5924430000013672,True,36,1
AK-K-23K23S1,604,experiment,100,←,left,←,0.4948510999674909,True,36,1
AK-K-23K23S1,605,experiment,102,↓,down,↓,0.4336479000048712,True,36,1
AK-K-23K23S1,606,experiment,94,↑,up,↑,0.4009850000147708,True,36,0
AK-K-23K23S1,607,experiment,106,↓,up,↑,0.7313661999651231,False,36,0
AK-K-23K23S1,608,training,50,↑,up,↑,0.4511306999484077,True,36,0
AK-K-23K23S1,609,training,102,↓,down,↓,0.5545853999792598,True,36,0
AK-K-23K23S1,610,experiment,74,↑,down,↓,0.4834761000238359,False,36,1
AK-K-23K23S1,611,experiment,96,↑,up,↑,0.5117422000039369,True,36,1
AK-K-23K23S1,612,experiment,68,→,up,↑,0.6843910000170581,False,36,1
AK-K-23K23S1,613,experiment,86,←,left,←,0.43461400002706796,True,36,1
AK-K-23K23S1,614,experiment,92,↑,up,↑,0.5794710000045598,True,36,0
AK-K-23K23S1,615,experiment,62,→,right,→,0.5673530999920331,True,36,1
AK-K-23K23S1,616,experiment,82,↑,up,↑,0.612792800005991,True,36,1
AK-K-23K23S1,617,experiment,49,↓,down,↓,0.5956257000216283,True,36,1
AK-K-23K23S1,618,experiment,52,←,right,→,0.6981498000095598,False,36,1
AK-K-23K23S1,619,experiment,58,←,left,←,0.4827584999729879,True,36,1
AK-K-23K23S1,620,experiment,70,→,left,←,0.5757543999934569,False,36,1
AK-K-23K23S1,621,experiment,89,→,right,→,0.7706704000011086,True,36,1
AK-K-23K23S1,622,experiment,76,↓,down,↓,0.6020790000329725,True,36,1
AK-K-23K23S1,623,experiment,91,↓,down,↓,0.3839637999772094,True,36,1
AK-K-23K23S1,624,experiment,66,→,right,→,0.669687999994494,True,36,0
AK-K-23K23S1,625,experiment,78,→,no_key,no_letter,-1.0,False,36,1
AK-K-23K23S1,626,experiment,50,↓,down,↓,0.6169317000312731,True,36,1
AK-K-23K23S1,627,experiment,90,↑,no_key,no_letter,-1.0,False,36,1
AK-K-23K23S1,628,experiment,65,↑,up,↑,0.4427299000089988,True,36,1
AK-K-23K23S1,629,experiment,83,↑,up,↑,0.6311856000102125,True,36,0
AK-K-23K23S1,630,experiment,57,↑,up,↑,0.451281999994535,True,36,1
AK-K-23K23S1,631,experiment,51,↓,down,↓,0.4869669000036083,True,36,0
AK-K-23K23S1,632,experiment,102,↓,down,↓,0.6571966999908909,True,36,1
AK-K-23K23S1,633,experiment,98,↑,up,↑,0.5817595000262372,True,36,1
AK-K-23K23S1,634,experiment,94,↑,up,↑,0.4340793000301346,True,36,1
AK-K-23K23S1,635,experiment,54,↓,down,↓,0.6268568999948911,True,36,0
AK-K-23K23S1,636,experiment,72,←,left,←,0.36798899999121204,True,36,1
AK-K-23K23S1,637,experiment,105,↓,down,↓,0.43455449998145923,True,36,1
AK-K-23K23S1,638,experiment,93,↑,up,↑,0.6224860000074841,True,36,1
AK-K-23K23S1,639,experiment,73,↑,up,↑,0.4259732000064105,True,36,1
AK-K-23K23S1,640,experiment,53,→,right,→,0.5775248999707401,True,36,0
AK-K-23K23S1,641,experiment,97,↓,down,↓,0.5778283000108786,True,36,1
AK-K-23K23S1,642,experiment,103,←,left,←,0.5119427000172436,True,36,1
AK-K-23K23S1,643,experiment,59,→,right,→,0.5357640999718569,True,36,1
AK-K-23K23S1,644,experiment,95,→,right,→,0.4984959999565035,True,36,1
AK-K-23K23S1,645,experiment,71,→,right,→,0.6386730000376701,True,36,1
AK-K-23K23S1,646,experiment,100,→,right,→,0.4342454000143334,True,36,1
AK-K-23K23S1,647,experiment,67,←,right,→,0.6590124000213109,False,36,0
AK-K-23K23S1,648,experiment,87,↑,no_key,no_letter,-1.0,False,36,1
AK-K-23K23S1,649,experiment,61,←,left,←,0.40906039997935295,True,36,1
AK-K-23K23S1,650,experiment,79,←,left,←,1.076633699995,True,36,0
AK-K-23K23S1,651,experiment,88,←,left,←,0.3927442000131123,True,36,1
AK-K-23K23S1,652,experiment,69,←,left,←,0.6368010000442155,True,36,0
AK-K-23K23S1,653,experiment,85,→,left,←,0.47883809998165816,False,36,1
AK-K-23K23S1,654,experiment,75,↑,up,↑,0.5379659000318497,True,36,1
AK-K-23K23S1,655,experiment,101,↑,up,↑,0.4985719999531284,True,36,1
AK-K-23K23S1,656,experiment,56,←,left,←,0.5722526000463404,True,36,1
AK-K-23K23S1,657,experiment,99,↑,up,↑,0.7316739000380039,True,36,1
AK-K-23K23S1,658,experiment,77,↑,up,↑,0.507947200036142,True,36,1
AK-K-23K23S1,659,experiment,107,↑,up,↑,0.5159170999540947,True,36,1
AK-K-23K23S1,660,experiment,81,←,left,←,0.40949340001679957,True,36,1
AK-K-23K23S1,661,experiment,84,←,no_key,no_letter,-1.0,False,36,0
AK-K-23K23S1,662,experiment,55,↓,up,↑,0.6371961999684572,False,36,1
AK-K-23K23S1,663,experiment,108,↓,up,↑,0.5595485999947414,False,36,1
AK-K-23K23S1,664,experiment,104,→,right,→,0.6063958999584429,True,36,1
AK-K-23K23S1,665,experiment,48,→,left,←,0.6376279999967664,False,36,1
AK-K-23K23S1,666,experiment,60,←,left,←,0.4799512999597937,True,36,1
AK-K-23K23S1,667,experiment,80,↑,up,↑,0.5374302000273019,True,36,1
AK-K-23K23S1,668,experiment,63,↓,down,↓,0.4513621000223793,True,36,1
AK-K-23K23S1,669,experiment,64,→,right,→,0.5987282999558374,True,36,1
AK-K-23K23S1,670,experiment,106,←,left,←,0.6110093999886885,True,36,1
AK-K-23K23S1,671,training,85,→,right,→,0.5047230000491254,True,36,0
AK-K-23K23S1,672,training,84,←,left,←,0.3847091000061482,True,36,1
AK-K-23K23S1,673,experiment,58,↑,up,↑,0.3847402000101283,True,36,0
AK-K-23K23S1,674,experiment,100,←,left,←,0.5394238000153564,True,36,1
AK-K-23K23S1,675,experiment,51,↓,no_key,no_letter,-1.0,False,36,1
AK-K-23K23S1,676,experiment,62,↑,up,↑,0.42611520003993064,True,36,1
AK-K-23K23S1,677,experiment,70,←,left,←,0.3506797999725677,True,36,0
AK-K-23K23S1,678,experiment,79,→,right,→,0.5105441999621689,True,36,0
AK-K-23K23S1,679,experiment,54,↓,down,↓,0.7040947999921627,True,36,1
AK-K-23K23S1,680,experiment,87,↓,down,↓,0.4092265000217594,True,36,1
AK-K-23K23S1,681,experiment,48,↓,down,↓,0.39228789997287095,True,36,0
AK-K-23K23S1,682,experiment,71,↑,up,↑,0.43447020003804937,True,36,0
AK-K-23K23S1,683,experiment,53,←,left,←,0.5782480000052601,True,36,0
AK-K-23K23S1,684,experiment,96,←,left,←,0.49093939998419955,True,36,1
AK-K-23K23S1,685,experiment,92,→,right,→,0.6002879000152461,True,36,1
AK-K-23K23S1,686,experiment,76,←,left,←,0.5105198000092059,True,36,1
AK-K-23K23S1,687,experiment,90,→,right,→,0.7080344000132754,True,36,1
AK-K-23K23S1,688,experiment,80,↓,down,↓,0.5969226000015624,True,36,1
AK-K-23K23S1,689,experiment,72,↑,up,↑,0.40960890002315864,True,36,1
AK-K-23K23S1,690,experiment,64,←,left,←,0.3920755999861285,True,36,1
AK-K-23K23S1,691,experiment,86,↑,up,↑,0.44287540001096204,True,36,0
AK-K-23K23S1,692,experiment,55,↑,up,↑,0.39282700000330806,True,36,0
AK-K-23K23S1,693,experiment,97,→,right,→,0.4180429999832995,True,36,1
AK-K-23K23S1,694,experiment,52,↑,up,↑,0.5694895000196993,True,36,1
AK-K-23K23S1,695,experiment,106,→,left,←,0.49489139998331666,False,36,1
AK-K-23K23S1,696,experiment,108,↓,down,↓,0.3919622999965213,True,36,1
AK-K-23K23S1,697,experiment,57,↑,up,↑,0.6354332999908365,True,36,0
AK-K-23K23S1,698,experiment,98,←,left,←,0.6248246000031941,True,36,1
AK-K-23K23S1,699,experiment,68,↓,down,↓,0.6409568999661133,True,36,1
AK-K-23K23S1,700,experiment,105,←,left,←,0.4181605000048876,True,36,1
AK-K-23K23S1,701,experiment,73,↓,down,↓,0.4347237999900244,True,36,1
AK-K-23K23S1,702,experiment,88,→,right,→,0.4012722999905236,True,36,0
AK-K-23K23S1,703,experiment,107,↑,up,↑,0.6384686999954283,True,36,1
AK-K-23K23S1,704,experiment,60,↓,down,↓,0.3778893999988213,True,36,1
AK-K-23K23S1,705,experiment,82,→,right,→,0.40879379998659715,True,36,1
AK-K-23K23S1,706,experiment,83,↓,down,↓,0.6087205000221729,True,36,0
AK-K-23K23S1,707,experiment,66,↑,up,↑,0.42789149994496256,True,36,1
AK-K-23K23S1,708,experiment,77,↑,up,↑,0.42571360000874847,True,36,0
AK-K-23K23S1,709,experiment,104,↓,down,↓,0.5863835000200197,True,36,0
AK-K-23K23S1,710,experiment,67,←,left,←,0.375871800002642,True,36,1
AK-K-23K23S1,711,experiment,99,→,no_key,no_letter,-1.0,False,36,0
AK-K-23K23S1,712,experiment,65,↑,up,↑,0.5906294999876991,True,36,1
AK-K-23K23S1,713,experiment,59,↑,up,↑,0.4361646000179462,True,36,1
AK-K-23K23S1,714,experiment,50,→,right,→,0.42621850001160055,True,36,1
AK-K-23K23S1,715,experiment,103,←,left,←,0.4175091999932192,True,36,0
AK-K-23K23S1,716,experiment,78,←,left,←,0.3592248999630101,True,36,0
AK-K-23K23S1,717,experiment,61,→,right,→,0.5977698999922723,True,36,0
AK-K-23K23S1,718,experiment,75,→,right,→,0.45112650003284216,True,36,1
AK-K-23K23S1,719,experiment,74,←,left,←,0.5690849000238813,True,36,1
AK-K-23K23S1,720,experiment,102,→,no_key,no_letter,-1.0,False,36,1
AK-K-23K23S1,721,experiment,95,→,right,→,0.673419600003399,True,36,1
AK-K-23K23S1,722,experiment,91,↑,up,↑,0.5678585999994539,True,36,1
AK-K-23K23S1,723,experiment,85,←,no_key,no_letter,-1.0,False,36,1
AK-K-23K23S1,724,experiment,84,→,right,→,0.9053435999667272,True,36,1
AK-K-23K23S1,725,experiment,56,↓,down,↓,0.4191548000089824,True,36,1
AK-K-23K23S1,726,experiment,63,↓,no_key,no_letter,-1.0,False,36,0
AK-K-23K23S1,727,experiment,93,↑,up,↑,0.5812922000186518,True,36,1
AK-K-23K23S1,728,experiment,89,←,left,←,0.5521022999892011,True,36,1
AK-K-23K23S1,729,experiment,101,→,right,→,0.41757970000617206,True,36,1
AK-K-23K23S1,730,experiment,49,↑,up,↑,0.5826422999962233,True,36,0
AK-K-23K23S1,731,experiment,81,→,right,→,0.43461280001793057,True,36,1
AK-K-23K23S1,732,experiment,94,←,left,←,0.5388006000430323,True,36,0
AK-K-23K23S1,733,experiment,69,←,left,←,0.36695370002416894,True,36,1
AK-K-23K23S1,734,training,49,↑,up,↑,0.38579039997421205,True,35,0
AK-K-23K23S1,735,training,56,→,no_key,no_letter,-1.0,False,35,0
AK-K-23K23S1,736,experiment,61,←,left,←,0.49044630001299083,True,35,1
AK-K-23K23S1,737,experiment,81,↓,no_key,no_letter,-1.0,False,35,1
AK-K-23K23S1,738,experiment,85,↓,down,↓,0.47255519998725504,True,35,1
AK-K-23K23S1,739,experiment,75,↑,up,↑,0.4004328000009991,True,35,1
AK-K-23K23S1,740,experiment,48,↑,up,↑,0.5955784999532625,True,35,0
AK-K-23K23S1,741,experiment,74,↓,down,↓,0.6027180000091903,True,35,1
AK-K-23K23S1,742,experiment,106,←,left,←,0.3524403999908827,True,35,1
AK-K-23K23S1,743,experiment,72,→,right,→,0.592069200007245,True,35,1
AK-K-23K23S1,744,experiment,63,↑,up,↑,0.47533299995120615,True,35,1
AK-K-23K23S1,745,experiment,89,↑,up,↑,0.7541022999794222,True,35,1
AK-K-23K23S1,746,experiment,80,↓,down,↓,0.4178183000185527,True,35,1
AK-K-23K23S1,747,experiment,60,→,right,→,0.39292070001829416,True,35,1
AK-K-23K23S1,748,experiment,65,↓,down,↓,0.46973449998768046,True,35,1
AK-K-23K23S1,749,experiment,67,↓,no_key,no_letter,-1.0,False,35,1
AK-K-23K23S1,750,experiment,50,↑,up,↑,0.5168036000104621,True,35,1
AK-K-23K23S1,751,experiment,53,↓,down,↓,0.5742638999945484,True,35,1
AK-K-23K23S1,752,experiment,90,↑,up,↑,0.5210992000065744,True,35,1
AK-K-23K23S1,753,experiment,78,→,right,→,0.7216391999972984,True,35,1
AK-K-23K23S1,754,experiment,56,←,left,←,0.39283259998774156,True,35,1
AK-K-23K23S1,755,experiment,51,↑,up,↑,0.40129359997808933,True,35,1
AK-K-23K23S1,756,experiment,71,←,left,←,0.6483091000118293,True,35,1
AK-K-23K23S1,757,experiment,52,↑,up,↑,0.5886252999771386,True,35,1
AK-K-23K23S1,758,experiment,59,↓,down,↓,0.4729277000296861,True,35,1
AK-K-23K23S1,759,experiment,107,↑,up,↑,0.40051989996572956,True,35,1
AK-K-23K23S1,760,experiment,68,←,left,←,0.37558250001166016,True,35,0
AK-K-23K23S1,761,experiment,102,↓,down,↓,0.48941919999197125,True,35,0
AK-K-23K23S1,762,experiment,101,↑,up,↑,0.42564309999579564,True,35,1
AK-K-23K23S1,763,experiment,57,←,left,←,0.6792286999989301,True,35,0
AK-K-23K23S1,764,experiment,105,←,left,←,0.488416199979838,True,35,1
AK-K-23K23S1,765,experiment,70,→,no_key,no_letter,-1.0,False,35,1
AK-K-23K23S1,766,experiment,95,→,right,→,0.5667271999991499,True,35,1
AK-K-23K23S1,767,experiment,108,→,right,→,0.3838800999801606,True,35,1
AK-K-23K23S1,768,experiment,55,→,right,→,0.4737048000097275,True,35,0
AK-K-23K23S1,769,experiment,83,↓,no_key,no_letter,-1.0,False,35,1
AK-K-23K23S1,770,experiment,100,←,left,←,0.37606829998549074,True,35,1
AK-K-23K23S1,771,experiment,58,→,left,←,0.7435695999884047,False,35,0
AK-K-23K23S1,772,experiment,93,↑,up,↑,0.40057090000482276,True,35,1
AK-K-23K23S1,773,experiment,79,←,left,←,0.5033366000279784,True,35,0
AK-K-23K23S1,774,experiment,92,→,right,→,0.4429105999879539,True,35,1
AK-K-23K23S1,775,experiment,66,←,left,←,0.460422899981495,True,35,1
AK-K-23K23S1,776,experiment,94,↑,up,↑,0.3594831000082195,True,35,0
AK-K-23K23S1,777,experiment,88,→,left,←,0.5255330000072718,False,35,0
AK-K-23K23S1,778,experiment,69,↓,down,↓,0.6813429000321776,True,35,1
AK-K-23K23S1,779,experiment,49,←,left,←,0.5254351000185125,True,35,1
AK-K-23K23S1,780,experiment,73,←,left,←,0.4958500000066124,True,35,1
AK-K-23K23S1,781,experiment,98,↓,down,↓,0.498975700000301,True,35,1
AK-K-23K23S1,782,experiment,96,→,no_key,no_letter,-1.0,False,35,1
AK-K-23K23S1,783,experiment,103,→,left,←,0.7494748000171967,False,35,1
AK-K-23K23S1,784,experiment,82,←,left,←,0.6517276999657042,True,35,1
AK-K-23K23S1,785,experiment,86,↑,up,↑,0.6766395000158809,True,35,1
AK-K-23K23S1,786,experiment,99,←,left,←,0.488358500006143,True,35,1
AK-K-23K23S1,787,experiment,91,↓,down,↓,0.6458920000004582,True,35,1
AK-K-23K23S1,788,experiment,84,←,left,←,0.38435070001287386,True,35,1
AK-K-23K23S1,789,experiment,54,←,left,←,0.5815830999636091,True,35,0
AK-K-23K23S1,790,experiment,104,→,no_key,no_letter,-1.0,False,35,1
AK-K-23K23S1,791,experiment,64,←,left,←,0.4428838000167161,True,35,1
AK-K-23K23S1,792,experiment,76,↓,down,↓,0.4604276000172831,True,35,0
AK-K-23K23S1,793,experiment,77,↓,down,↓,0.5114434999995865,True,35,0
AK-K-23K23S1,794,experiment,62,↓,down,↓,0.5499788000015542,True,35,1
AK-K-23K23S1,795,experiment,97,↓,down,↓,0.4010357999941334,True,35,1
AK-K-23K23S1,796,experiment,87,→,right,→,0.5218187000136822,True,35,1
AK-K-23K23S1,797,training,63,←,left,←,0.4428180000395514,True,35,0
AK-K-23K23S1,798,training,63,→,right,→,0.4261926999897696,True,35,0
AK-K-23K23S1,799,experiment,103,↑,up,↑,0.5705213000182994,True,35,0
AK-K-23K23S1,800,experiment,57,↑,up,↑,0.39314209995791316,True,35,1
AK-K-23K23S1,801,experiment,56,→,right,→,0.41710210003657266,True,35,0
AK-K-23K23S1,802,experiment,60,←,left,←,0.37798680004198104,True,35,0
AK-K-23K23S1,803,experiment,59,←,left,←,0.604693999979645,True,35,0
AK-K-23K23S1,804,experiment,50,←,left,←,0.6197742000222206,True,35,1
AK-K-23K23S1,805,experiment,87,→,no_key,no_letter,-1.0,False,35,1
AK-K-23K23S1,806,experiment,77,→,right,→,0.6614321999950334,True,35,1
AK-K-23K23S1,807,experiment,89,→,right,→,0.5569985000183806,True,35,1
AK-K-23K23S1,808,experiment,94,→,right,→,0.40025649999734014,True,35,1
AK-K-23K23S1,809,experiment,104,↑,up,↑,0.43454560003010556,True,35,0
AK-K-23K23S1,810,experiment,62,↑,up,↑,0.40128479996928945,True,35,0
AK-K-23K23S1,811,experiment,81,↑,up,↑,0.49765819997992367,True,35,0
AK-K-23K23S1,812,experiment,88,↓,down,↓,0.48010809998959303,True,35,1
AK-K-23K23S1,813,experiment,61,←,left,←,0.38474279997171834,True,35,1
AK-K-23K23S1,814,experiment,74,↑,up,↑,0.5433690000209026,True,35,0
AK-K-23K23S1,815,experiment,91,↓,down,↓,0.5949204000062309,True,35,1
AK-K-23K23S1,816,experiment,73,↓,down,↓,0.4987183000193909,True,35,1
AK-K-23K23S1,817,experiment,54,↑,up,↑,0.4179063999908976,True,35,1
AK-K-23K23S1,818,experiment,90,→,no_key,no_letter,-1.0,False,35,1
AK-K-23K23S1,819,experiment,105,→,right,→,0.7073194000404328,True,35,1
AK-K-23K23S1,820,experiment,55,↓,down,↓,0.4345162999816239,True,35,1
AK-K-23K23S1,821,experiment,72,↑,down,↓,0.474579099973198,False,35,1
AK-K-23K23S1,822,experiment,84,↑,up,↑,0.41789320000680164,True,35,1
AK-K-23K23S1,823,experiment,71,←,left,←,0.3671438000164926,True,35,1
AK-K-23K23S1,824,experiment,79,←,left,←,0.600688100035768,True,35,0
AK-K-23K23S1,825,experiment,102,↓,down,↓,0.43437540001468733,True,35,1
AK-K-23K23S1,826,experiment,98,→,right,→,0.5238694000290707,True,35,1
AK-K-23K23S1,827,experiment,65,↓,down,↓,0.6808670999598689,True,35,1
AK-K-23K23S1,828,experiment,68,↓,down,↓,0.4177227999898605,True,35,1
AK-K-23K23S1,829,experiment,97,↑,up,↑,0.5491876000305638,True,35,0
AK-K-23K23S1,830,experiment,75,↓,down,↓,0.41745830001309514,True,35,1
AK-K-23K23S1,831,experiment,86,→,right,→,0.6077857000054792,True,35,0
AK-K-23K23S1,832,experiment,93,→,right,→,0.5041318999719806,True,35,1
AK-K-23K23S1,833,experiment,82,↑,up,↑,0.4261374999769032,True,35,1
AK-K-23K23S1,834,experiment,85,↑,up,↑,0.6103345999727026,True,35,0
AK-K-23K23S1,835,experiment,58,→,no_key,no_letter,-1.0,False,35,1
AK-K-23K23S1,836,experiment,78,↑,up,↑,0.469910699990578,True,35,1
AK-K-23K23S1,837,experiment,76,↑,up,↑,0.44266449997667223,True,35,1
AK-K-23K23S1,838,experiment,83,→,right,→,0.49107079999521375,True,35,0
AK-K-23K23S1,839,experiment,106,←,no_key,no_letter,-1.0,False,35,1
AK-K-23K23S1,840,experiment,101,←,left,←,0.4832789999782108,True,35,1
AK-K-23K23S1,841,experiment,107,↑,up,↑,0.4341716000344604,True,35,1
AK-K-23K23S1,842,experiment,48,→,right,→,0.5221851999522187,True,35,0
AK-K-23K23S1,843,experiment,99,↑,up,↑,0.6198781999992207,True,35,1
AK-K-23K23S1,844,experiment,69,↑,up,↑,0.5479086000123061,True,35,1
AK-K-23K23S1,845,experiment,100,↓,no_key,no_letter,-1.0,False,35,1
AK-K-23K23S1,846,experiment,52,←,left,←,0.4999930000049062,True,35,1
AK-K-23K23S1,847,experiment,53,←,left,←,0.4004842000431381,True,35,1
AK-K-23K23S1,848,experiment,67,↓,down,↓,0.5749902999959886,True,35,0
AK-K-23K23S1,849,experiment,80,←,left,←,0.3681569999898784,True,35,1
AK-K-23K23S1,850,experiment,70,←,down,↓,0.5666188000468537,False,35,0
AK-K-23K23S1,851,experiment,95,↓,down,↓,0.7279495999682695,True,35,1
AK-K-23K23S1,852,experiment,66,↑,up,↑,0.4684539000154473,True,35,1
AK-K-23K23S1,853,experiment,92,→,right,→,0.6024827000219375,True,35,1
AK-K-23K23S1,854,experiment,49,↑,up,↑,0.6256735000060871,True,35,1
AK-K-23K23S1,855,experiment,63,→,right,→,0.6195700000389479,True,35,1
AK-K-23K23S1,856,experiment,51,↑,up,↑,0.6017910999944434,True,35,1
AK-K-23K23S1,857,experiment,96,↑,up,↑,0.5614790000254288,True,35,1
AK-K-23K23S1,858,experiment,64,→,no_key,no_letter,-1.0,False,35,1
AK-K-23K23S1,859,experiment,108,↓,down,↓,0.7222659999970347,True,35,1
AK-K-23K23S1,860,training,94,→,right,→,0.4428216000087559,True,35,0
AK-K-23K23S1,861,training,61,↓,no_key,no_letter,-1.0,False,35,0
AK-K-23K23S1,862,experiment,99,↓,no_key,no_letter,-1.0,False,35,1
AK-K-23K23S1,863,experiment,86,↑,up,↑,0.46372850000625476,True,35,1
AK-K-23K23S1,864,experiment,108,→,right,→,0.5207831999869086,True,35,0
AK-K-23K23S1,865,experiment,67,↑,up,↑,0.5330241000046954,True,35,1
AK-K-23K23S1,866,experiment,64,↓,down,↓,0.514285099983681,True,35,1
AK-K-23K23S1,867,experiment,107,→,no_key,no_letter,-1.0,False,35,1
AK-K-23K23S1,868,experiment,88,↑,up,↑,0.3844421000103466,True,35,1
AK-K-23K23S1,869,experiment,58,↑,up,↑,0.4430878999992274,True,35,0
AK-K-23K23S1,870,experiment,100,↑,up,↑,0.4095932000200264,True,35,0
AK-K-23K23S1,871,experiment,103,→,right,→,0.40905219997512177,True,35,1
AK-K-23K23S1,872,experiment,70,↓,down,↓,0.6431731999618933,True,35,0
AK-K-23K23S1,873,experiment,102,↓,down,↓,0.5512114000157453,True,35,1
AK-K-23K23S1,874,experiment,53,↑,up,↑,0.5671800999552943,True,35,1
AK-K-23K23S1,875,experiment,83,↓,down,↓,0.6287374999956228,True,35,1
AK-K-23K23S1,876,experiment,78,↓,down,↓,0.49716169998282567,True,35,1
AK-K-23K23S1,877,experiment,62,←,left,←,0.5601647000294179,True,35,1
AK-K-23K23S1,878,experiment,105,↓,down,↓,0.4864780000061728,True,35,1
AK-K-23K23S1,879,experiment,61,↓,down,↓,0.4003746000234969,True,35,1
AK-K-23K23S1,880,experiment,60,↓,down,↓,0.6496451999992132,True,35,0
AK-K-23K23S1,881,experiment,73,↓,down,↓,0.47150270000565797,True,35,1
AK-K-23K23S1,882,experiment,82,↓,down,↓,0.5284908000030555,True,35,1
AK-K-23K23S1,883,experiment,98,↓,down,↓,0.41730610001832247,True,35,1
AK-K-23K23S1,884,experiment,65,←,left,←,0.5958412999752909,True,35,0
AK-K-23K23S1,885,experiment,95,→,right,→,0.46032909996574745,True,35,1
AK-K-23K23S1,886,experiment,96,↑,up,↑,0.6007435999927111,True,35,0
AK-K-23K23S1,887,experiment,72,↓,down,↓,0.49628370004938915,True,35,1
AK-K-23K23S1,888,experiment,77,↓,down,↓,0.5466253000195138,True,35,1
AK-K-23K23S1,889,experiment,55,←,no_key,no_letter,-1.0,False,35,1
AK-K-23K23S1,890,experiment,93,→,no_key,no_letter,-1.0,False,35,1
AK-K-23K23S1,891,experiment,94,↓,down,↓,0.5340221000369638,True,35,1
AK-K-23K23S1,892,experiment,52,↑,down,↓,0.5110227000550367,False,35,1
AK-K-23K23S1,893,experiment,85,↓,down,↓,0.4427961999899708,True,35,1
AK-K-23K23S1,894,experiment,48,←,left,←,0.5077575000468642,True,35,1
AK-K-23K23S1,895,experiment,74,→,right,→,0.710728999983985,True,35,1
AK-K-23K23S1,896,experiment,106,↓,down,↓,0.5109235999989323,True,35,1
AK-K-23K23S1,897,experiment,81,↓,down,↓,0.4092331000138074,True,35,1
AK-K-23K23S1,898,experiment,54,↓,down,↓,0.4843147999490611,True,35,0
AK-K-23K23S1,899,experiment,51,←,left,←,0.4428196999942884,True,35,1
AK-K-23K23S1,900,experiment,66,↑,down,↓,0.44293399999151006,False,35,1
AK-K-23K23S1,901,experiment,84,↓,down,↓,0.49713400000473484,True,35,1
AK-K-23K23S1,902,experiment,90,↑,up,↑,0.5347664000000805,True,35,1
AK-K-23K23S1,903,experiment,104,←,left,←,0.6626086999895051,True,35,1
AK-K-23K23S1,904,experiment,71,←,left,←,0.5881826999830082,True,35,1
AK-K-23K23S1,905,experiment,56,→,right,→,0.5297803999856114,True,35,1
AK-K-23K23S1,906,experiment,87,→,left,←,0.5591172000276856,False,35,1
AK-K-23K23S1,907,experiment,76,↑,up,↑,0.551080200006254,True,35,1
AK-K-23K23S1,908,experiment,80,↓,up,↑,0.5501387000549585,False,35,1
AK-K-23K23S1,909,experiment,79,↑,up,↑,0.5016091999714263,True,35,1
AK-K-23K23S1,910,experiment,57,←,left,←,0.5984371000085957,True,35,1
AK-K-23K23S1,911,experiment,97,↓,down,↓,0.6297776999999769,True,35,1
AK-K-23K23S1,912,experiment,92,→,right,→,0.5493568999809213,True,35,1
AK-K-23K23S1,913,experiment,89,↑,up,↑,0.4976007000077516,True,35,1
AK-K-23K23S1,914,experiment,91,→,left,←,0.5107641000067815,False,35,1
AK-K-23K23S1,915,experiment,49,↓,up,↑,0.5935688999597915,False,35,1
AK-K-23K23S1,916,experiment,63,→,right,→,0.5327645000070333,True,35,1
AK-K-23K23S1,917,experiment,50,↑,up,↑,0.5264652000041679,True,35,1
AK-K-23K23S1,918,experiment,68,→,no_key,no_letter,-1.0,False,35,1
AK-K-23K23S1,919,experiment,101,←,left,←,0.5062314999522641,True,35,1
AK-K-23K23S1,920,experiment,59,↑,up,↑,0.5458882999955676,True,35,1
AK-K-23K23S1,921,experiment,75,↓,up,↑,0.9707365999929607,False,35,1
AK-K-23K23S1,922,experiment,69,↓,no_key,no_letter,-1.0,False,35,1
AK-K-23K23S1,923,training,91,←,left,←,0.4691356999683194,True,35,0
AK-K-23K23S1,924,training,52,←,left,←,0.5599374999874271,True,35,1
AK-K-23K23S1,925,experiment,104,←,right,→,0.5667048000032082,False,35,1
AK-K-23K23S1,926,experiment,75,←,left,←,0.5268534000497311,True,35,1
AK-K-23K23S1,927,experiment,64,↓,down,↓,0.6359844000544399,True,35,1
AK-K-23K23S1,928,experiment,81,→,left,←,0.4635967999929562,False,35,1
AK-K-23K23S1,929,experiment,91,↑,down,↓,0.7900678000296466,False,35,0
AK-K-23K23S1,930,experiment,96,→,left,←,0.48604180000256747,False,35,1
AK-K-23K23S1,931,experiment,54,←,left,←,0.5840292999637313,True,35,1
AK-K-23K23S1,932,experiment,56,←,left,←,0.525901300017722,True,35,1
AK-K-23K23S1,933,experiment,49,←,left,←,0.3931072000414133,True,35,1
AK-K-23K23S1,934,experiment,70,←,left,←,0.3609414999955334,True,35,0
AK-K-23K23S1,935,experiment,66,↑,down,↓,0.5470574999926612,False,35,0
AK-K-23K23S1,936,experiment,94,↓,down,↓,0.5175963999936357,True,35,1
AK-K-23K23S1,937,experiment,83,↑,down,↓,0.660773599985987,False,35,1
AK-K-23K23S1,938,experiment,65,↓,down,↓,0.628609300008975,True,35,1
AK-K-23K23S1,939,experiment,108,↓,down,↓,0.5271924000116996,True,35,1
AK-K-23K23S1,940,experiment,88,←,left,←,0.5725714000291191,True,35,1
AK-K-23K23S1,941,experiment,78,↑,down,↓,0.5632071999716572,False,35,1
AK-K-23K23S1,942,experiment,62,→,left,←,0.575543100014329,False,35,1
AK-K-23K23S1,943,experiment,53,↓,down,↓,0.6387346000410616,True,35,1
AK-K-23K23S1,944,experiment,51,→,right,→,0.46816230000695214,True,35,1
AK-K-23K23S1,945,experiment,107,↑,up,↑,0.5005746000097133,True,35,1
AK-K-23K23S1,946,experiment,67,←,left,←,0.35983829997712746,True,35,1
AK-K-23K23S1,947,experiment,105,→,right,→,0.6323207999812439,True,35,0
AK-K-23K23S1,948,experiment,61,↑,down,↓,0.8103985000052489,False,35,1
AK-K-23K23S1,949,experiment,84,→,right,→,0.47772590001113713,True,35,1
AK-K-23K23S1,950,experiment,76,↓,no_key,no_letter,-1.0,False,35,1
AK-K-23K23S1,951,experiment,55,←,left,←,0.6392741999588907,True,35,1
AK-K-23K23S1,952,experiment,85,→,right,→,0.47325919999275357,True,35,1
AK-K-23K23S1,953,experiment,60,↓,no_key,no_letter,-1.0,False,35,1
AK-K-23K23S1,954,experiment,48,←,left,←,0.4749572000000626,True,35,1
AK-K-23K23S1,955,experiment,103,→,right,→,0.6694076000130735,True,35,1
AK-K-23K23S1,956,experiment,80,←,left,←,0.5835361999925226,True,35,1
AK-K-23K23S1,957,experiment,57,→,right,→,0.5890924999839626,True,35,1
AK-K-23K23S1,958,experiment,73,←,left,←,0.4769609000068158,True,35,1
AK-K-23K23S1,959,experiment,82,←,left,←,0.5983829000033438,True,35,1
AK-K-23K23S1,960,experiment,99,↓,down,↓,0.46916240005521104,True,35,1
AK-K-23K23S1,961,experiment,100,←,right,→,0.5052307000150904,False,35,1
AK-K-23K23S1,962,experiment,74,←,right,→,0.7311534000327811,False,35,1
AK-K-23K23S1,963,experiment,93,←,right,→,0.798431699979119,False,35,1
AK-K-23K23S1,964,experiment,71,→,right,→,0.48645540000870824,True,35,1
AK-K-23K23S1,965,experiment,50,↑,up,↑,0.7141335000051185,True,35,1
AK-K-23K23S1,966,experiment,92,↑,up,↑,0.5747366999858059,True,35,1
AK-K-23K23S1,967,experiment,95,↓,down,↓,0.7114042000030167,True,35,1
AK-K-23K23S1,968,experiment,106,↑,up,↑,0.5034213000326417,True,35,1
AK-K-23K23S1,969,experiment,79,←,left,←,0.6564856999902986,True,35,1
AK-K-23K23S1,970,experiment,68,↓,down,↓,0.4090614999877289,True,35,1
AK-K-23K23S1,971,experiment,63,↑,up,↑,0.5852814000099897,True,35,1
AK-K-23K23S1,972,experiment,72,→,left,←,0.7213286000187509,False,35,1
AK-K-23K23S1,973,experiment,97,←,right,→,0.5877516999607906,False,35,1
AK-K-23K23S1,974,experiment,102,→,left,←,0.4024120999965817,False,35,1
AK-K-23K23S1,975,experiment,86,←,left,←,0.5160593999898992,True,35,0
AK-K-23K23S1,976,experiment,87,↑,up,↑,0.6102341000223532,True,35,1
AK-K-23K23S1,977,experiment,90,←,left,←,0.40886670001782477,True,35,1
AK-K-23K23S1,978,experiment,69,←,left,←,0.595745500002522,True,35,0
AK-K-23K23S1,979,experiment,89,→,right,→,0.6535434999968857,True,35,1
AK-K-23K23S1,980,experiment,52,↑,up,↑,0.43404219998046756,True,35,1
AK-K-23K23S1,981,experiment,58,↓,up,↑,0.5485679999692366,False,35,0
AK-K-23K23S1,982,experiment,77,←,left,←,0.40122770000016317,True,35,1
AK-K-23K23S1,983,experiment,98,←,left,←,0.5393602999974973,True,35,0
AK-K-23K23S1,984,experiment,101,↑,up,↑,0.4015588000183925,True,35,1
AK-K-23K23S1,985,experiment,59,→,right,→,0.4256102000363171,True,35,1
AK-K-23K23S1,986,training,62,↑,left,←,1.2017772999824956,False,35,0
AK-K-23K23S1,987,training,72,↓,down,↓,0.5214079999714158,True,35,1
AK-K-23K23S1,988,experiment,78,→,right,→,0.570219499990344,True,35,1
AK-K-23K23S1,989,experiment,60,↓,down,↓,0.5109691000543535,True,35,1
AK-K-23K23S1,990,experiment,85,←,left,←,0.3753646000404842,True,35,1
AK-K-23K23S1,991,experiment,58,↓,down,↓,0.6270347000099719,True,35,0
AK-K-23K23S1,992,experiment,76,←,left,←,0.4803192999679595,True,35,1
AK-K-23K23S1,993,experiment,82,→,left,←,0.8093874999904074,False,35,1
AK-K-23K23S1,994,experiment,48,←,no_key,no_letter,-1.0,False,35,1
AK-K-23K23S1,995,experiment,83,↑,up,↑,0.46217989997239783,True,35,1
AK-K-23K23S1,996,experiment,86,←,left,←,0.5667296000174247,True,35,0
AK-K-23K23S1,997,experiment,49,←,left,←,0.4954229000140913,True,35,1
AK-K-23K23S1,998,experiment,103,↑,up,↑,0.4967136000050232,True,35,1
AK-K-23K23S1,999,experiment,74,→,right,→,0.5159223999944516,True,35,1
AK-K-23K23S1,1000,experiment,108,←,left,←,0.392489799996838,True,35,1
AK-K-23K23S1,1001,experiment,64,↑,up,↑,0.41716279997490346,True,35,0
AK-K-23K23S1,1002,experiment,73,↑,up,↑,0.635681800020393,True,35,0
AK-K-23K23S1,1003,experiment,99,↑,up,↑,0.55307649995666,True,35,1
AK-K-23K23S1,1004,experiment,50,→,right,→,0.7222477000323124,True,35,1
AK-K-23K23S1,1005,experiment,87,↓,down,↓,0.6158483999897726,True,35,1
AK-K-23K23S1,1006,experiment,55,↓,down,↓,0.7004710999899544,True,35,1
AK-K-23K23S1,1007,experiment,51,↑,down,↓,0.6473819999955595,False,35,1
AK-K-23K23S1,1008,experiment,67,↓,down,↓,0.6628137000370771,True,35,1
AK-K-23K23S1,1009,experiment,81,←,left,←,0.39302620000671595,True,35,1
AK-K-23K23S1,1010,experiment,101,←,left,←,0.37613129999954253,True,35,0
AK-K-23K23S1,1011,experiment,68,←,left,←,0.37750159995630383,True,35,0
AK-K-23K23S1,1012,experiment,63,←,up,↑,0.7715352000086568,False,35,0
AK-K-23K23S1,1013,experiment,96,→,right,→,0.564008500019554,True,35,1
AK-K-23K23S1,1014,experiment,102,←,left,←,0.3594266999862157,True,35,1
AK-K-23K23S1,1015,experiment,52,↓,down,↓,0.40883189998567104,True,35,0
AK-K-23K23S1,1016,experiment,107,↓,down,↓,0.4784489999874495,True,35,0
AK-K-23K23S1,1017,experiment,80,←,left,←,0.3774926000041887,True,35,1
AK-K-23K23S1,1018,experiment,65,↓,down,↓,0.6825970000354573,True,35,0
AK-K-23K23S1,1019,experiment,54,→,right,→,0.6368258000002243,True,35,1
AK-K-23K23S1,1020,experiment,95,←,left,←,0.417927399976179,True,35,1
AK-K-23K23S1,1021,experiment,57,↑,up,↑,0.5191284000175074,True,35,0
AK-K-23K23S1,1022,experiment,100,↓,down,↓,0.3757359000155702,True,35,1
AK-K-23K23S1,1023,experiment,94,↓,down,↓,0.641886199999135,True,35,0
AK-K-23K23S1,1024,experiment,89,→,right,→,0.5861712999758311,True,35,1
AK-K-23K23S1,1025,experiment,71,←,left,←,0.539097800035961,True,35,1
AK-K-23K23S1,1026,experiment,91,↓,down,↓,0.6145351000013761,True,35,1
AK-K-23K23S1,1027,experiment,77,↓,down,↓,0.5401463999878615,True,35,1
AK-K-23K23S1,1028,experiment,70,↑,up,↑,0.5268643999588676,True,35,1
AK-K-23K23S1,1029,experiment,104,→,right,→,0.5024245999520645,True,35,1
AK-K-23K23S1,1030,experiment,72,↓,down,↓,0.5463539999909699,True,35,1
AK-K-23K23S1,1031,experiment,53,→,right,→,0.43595510005252436,True,35,1
AK-K-23K23S1,1032,experiment,106,↓,down,↓,0.3755760999629274,True,35,0
AK-K-23K23S1,1033,experiment,69,←,right,→,0.5821223999955691,False,35,0
AK-K-23K23S1,1034,experiment,84,→,right,→,0.3929727000067942,True,35,1
AK-K-23K23S1,1035,experiment,93,↑,up,↑,0.4096024999744259,True,35,1
AK-K-23K23S1,1036,experiment,98,←,left,←,0.38470280001638457,True,35,1
AK-K-23K23S1,1037,experiment,59,↓,down,↓,0.35120829998049885,True,35,0
AK-K-23K23S1,1038,experiment,62,↓,down,↓,0.6268869999912567,True,35,0
AK-K-23K23S1,1039,experiment,56,↑,up,↑,0.4344789000460878,True,35,1
AK-K-23K23S1,1040,experiment,79,←,right,→,0.562849499983713,False,35,1
AK-K-23K23S1,1041,experiment,105,↑,no_key,no_letter,-1.0,False,35,1
AK-K-23K23S1,1042,experiment,90,→,right,→,0.4606523999827914,True,35,1
AK-K-23K23S1,1043,experiment,75,↑,up,↑,0.5198819999932311,True,35,0
AK-K-23K23S1,1044,experiment,61,→,left,←,0.5025190000305884,False,35,1
AK-K-23K23S1,1045,experiment,88,↑,up,↑,0.532767100026831,True,35,1
AK-K-23K23S1,1046,experiment,92,→,left,←,0.4727798000094481,False,35,1
AK-K-23K23S1,1047,experiment,66,↑,up,↑,0.7033104000147432,True,35,1
AK-K-23K23S1,1048,experiment,97,↓,down,↓,0.36713059997418895,True,35,1
AK-K-23K23S1,1049,training,97,←,right,→,0.6861416999599896,False,35,0
AK-K-23K23S1,1050,training,72,←,right,→,0.4668064000434242,False,35,1
AK-K-23K23S1,1051,experiment,101,←,left,←,0.6456359000294469,True,35,0
AK-K-23K23S1,1052,experiment,63,↑,up,↑,0.5026264000334777,True,35,1
AK-K-23K23S1,1053,experiment,92,↑,no_key,no_letter,-1.0,False,35,1
AK-K-23K23S1,1054,experiment,72,←,left,←,0.4928217999986373,True,35,1
AK-K-23K23S1,1055,experiment,54,→,right,→,0.47884809999959543,True,35,1
AK-K-23K23S1,1056,experiment,61,←,no_key,no_letter,-1.0,False,35,1
AK-K-23K23S1,1057,experiment,77,→,right,→,0.6705862000235356,True,35,1
AK-K-23K23S1,1058,experiment,104,↑,up,↑,0.6405710000544786,True,35,1
AK-K-23K23S1,1059,experiment,102,↑,up,↑,0.5646333000040613,True,35,1
AK-K-23K23S1,1060,experiment,62,←,left,←,0.41781829996034503,True,35,1
AK-K-23K23S1,1061,experiment,95,↓,no_key,no_letter,-1.0,False,35,1
AK-K-23K23S1,1062,experiment,74,↓,up,↑,0.6807330000447109,False,35,1
AK-K-23K23S1,1063,experiment,56,→,right,→,0.674465499992948,True,35,1
AK-K-23K23S1,1064,experiment,57,↓,down,↓,0.5640611000126228,True,35,1
AK-K-23K23S1,1065,experiment,81,↑,down,↓,0.5702514000004157,False,35,1
AK-K-23K23S1,1066,experiment,75,←,left,←,0.5305537999956869,True,35,1
AK-K-23K23S1,1067,experiment,97,←,left,←,0.6843680000165477,True,35,1
AK-K-23K23S1,1068,experiment,50,→,left,←,0.6399510999908671,False,35,1
AK-K-23K23S1,1069,experiment,84,→,left,←,0.47442820004653186,False,35,1
AK-K-23K23S1,1070,experiment,82,←,left,←,0.409265200025402,True,35,1
AK-K-23K23S1,1071,experiment,68,↑,up,↑,0.5398419999983162,True,35,0
AK-K-23K23S1,1072,experiment,59,↑,up,↑,0.49829189997399226,True,35,1
AK-K-23K23S1,1073,experiment,90,←,left,←,0.7760361999971792,True,35,1
AK-K-23K23S1,1074,experiment,105,↑,up,↑,0.6136770999873988,True,35,1
AK-K-23K23S1,1075,experiment,94,↑,up,↑,0.6693744999938644,True,35,1
AK-K-23K23S1,1076,experiment,87,→,left,←,0.5093982999678701,False,35,1
AK-K-23K23S1,1077,experiment,103,↑,up,↑,0.4705956000252627,True,35,1
AK-K-23K23S1,1078,experiment,91,↓,up,↑,0.4769069000030868,False,35,1
AK-K-23K23S1,1079,experiment,79,↓,down,↓,0.7193818999803625,True,35,1
AK-K-23K23S1,1080,experiment,107,↓,up,↑,0.7106095000053756,False,35,1
AK-K-23K23S1,1081,experiment,66,→,right,→,0.6840039000380784,True,35,1
AK-K-23K23S1,1082,experiment,53,→,right,→,0.6548427999950945,True,35,1
AK-K-23K23S1,1083,experiment,93,→,right,→,0.5651517999940552,True,35,1
AK-K-23K23S1,1084,experiment,71,→,right,→,0.4345666999579407,True,35,1
AK-K-23K23S1,1085,experiment,69,↑,up,↑,0.5175889999954961,True,35,1
AK-K-23K23S1,1086,experiment,85,↑,up,↑,0.5003429999924265,True,35,1
AK-K-23K23S1,1087,experiment,65,→,no_key,no_letter,-1.0,False,35,1
AK-K-23K23S1,1088,experiment,48,→,no_key,no_letter,-1.0,False,35,1
AK-K-23K23S1,1089,experiment,99,→,right,→,0.434287799987942,True,35,1
AK-K-23K23S1,1090,experiment,106,←,right,→,0.5029822000069544,False,35,0
AK-K-23K23S1,1091,experiment,88,↑,up,↑,0.36763429996790364,True,35,1
AK-K-23K23S1,1092,experiment,98,←,no_key,no_letter,-1.0,False,35,1
AK-K-23K23S1,1093,experiment,80,→,left,←,0.4914784000138752,False,35,1
AK-K-23K23S1,1094,experiment,70,↓,down,↓,0.4803941000136547,True,35,1
AK-K-23K23S1,1095,experiment,86,←,no_key,no_letter,-1.0,False,35,1
AK-K-23K23S1,1096,experiment,52,←,left,←,0.6801241000066511,True,35,1
AK-K-23K23S1,1097,experiment,58,↑,up,↑,0.3943145999801345,True,35,1
AK-K-23K23S1,1098,experiment,55,→,left,←,0.4860964000108652,False,35,1
AK-K-23K23S1,1099,experiment,78,↓,down,↓,0.3768121000030078,True,35,1
AK-K-23K23S1,1100,experiment,49,↓,down,↓,0.5200536000193097,True,35,0
AK-K-23K23S1,1101,experiment,76,→,right,→,0.5697620999999344,True,35,1
AK-K-23K23S1,1102,experiment,89,→,right,→,0.4693509999779053,True,35,1
AK-K-23K23S1,1103,experiment,96,↑,up,↑,0.5536620000493713,True,35,1
AK-K-23K23S1,1104,experiment,64,↓,down,↓,0.605961200024467,True,35,1
AK-K-23K23S1,1105,experiment,100,→,right,→,0.5719769999850541,True,35,1
AK-K-23K23S1,1106,experiment,108,←,left,←,0.3774455999955535,True,35,1
AK-K-23K23S1,1107,experiment,51,↓,down,↓,0.5917997000506148,True,35,0
AK-K-23K23S1,1108,experiment,83,↓,down,↓,0.4013678000192158,True,35,1
AK-K-23K23S1,1109,experiment,60,→,left,←,1.2316833999939263,False,35,0
AK-K-23K23S1,1110,experiment,67,↓,down,↓,0.409296199970413,True,35,1
AK-K-23K23S1,1111,experiment,73,←,left,←,0.6066107000224292,True,35,0
AK-K-23K23S1,1112,training,85,↑,up,↑,0.40969969995785505,True,35,0
AK-K-23K23S1,1113,training,87,↓,down,↓,0.3836862000171095,True,35,0
AK-K-23K23S1,1114,experiment,91,↑,up,↑,0.47865249996539205,True,35,0
AK-K-23K23S1,1115,experiment,61,←,left,←,0.3593628000235185,True,35,1
AK-K-23K23S1,1116,experiment,80,→,right,→,0.4171734000556171,True,35,0
AK-K-23K23S1,1117,experiment,90,↑,up,↑,0.35072690004017204,True,35,0
AK-K-23K23S1,1118,experiment,104,←,left,←,0.30875020002713427,True,35,0
AK-K-23K23S1,1119,experiment,98,↓,down,↓,0.6228950000368059,True,35,0
AK-K-23K23S1,1120,experiment,63,↓,down,↓,0.36920820001978427,True,35,1
AK-K-23K23S1,1121,experiment,66,→,right,→,0.5230350000201724,True,35,0
AK-K-23K23S1,1122,experiment,106,↓,down,↓,0.5946463000145741,True,35,1
AK-K-23K23S1,1123,experiment,83,←,left,←,0.3589372999849729,True,35,1
AK-K-23K23S1,1124,experiment,69,→,no_key,no_letter,-1.0,False,35,0
AK-K-23K23S1,1125,experiment,51,←,left,←,0.592821600032039,True,35,1
AK-K-23K23S1,1126,experiment,64,←,right,→,0.49953510001068935,False,35,1
AK-K-23K23S1,1127,experiment,93,↑,up,↑,0.4426509999902919,True,35,1
AK-K-23K23S1,1128,experiment,65,↑,up,↑,0.40954550000606105,True,35,0
AK-K-23K23S1,1129,experiment,48,←,left,←,0.42587050003930926,True,35,0
AK-K-23K23S1,1130,experiment,81,↑,up,↑,0.38399029994616285,True,35,1
AK-K-23K23S1,1131,experiment,62,↑,up,↑,0.6705440999940038,True,35,0
AK-K-23K23S1,1132,experiment,77,→,right,→,0.40998779999790713,True,35,1
AK-K-23K23S1,1133,experiment,97,↑,up,↑,0.40925750002497807,True,35,0
AK-K-23K23S1,1134,experiment,85,←,left,←,0.4673313000239432,True,35,0
AK-K-23K23S1,1135,experiment,101,↓,down,↓,0.5818136999732815,True,35,1
AK-K-23K23S1,1136,experiment,95,→,left,←,0.5104284000117332,False,35,1
AK-K-23K23S1,1137,experiment,78,→,right,→,0.5837720999843441,True,35,1
AK-K-23K23S1,1138,experiment,92,←,left,←,0.6654925000038929,True,35,1
AK-K-23K23S1,1139,experiment,55,↑,down,↓,0.6126982999849133,False,35,1
AK-K-23K23S1,1140,experiment,79,←,left,←,0.5450465000467375,True,35,1
AK-K-23K23S1,1141,experiment,89,↑,up,↑,0.6690513999783434,True,35,1
AK-K-23K23S1,1142,experiment,73,←,left,←,0.4822324000415392,True,35,1
AK-K-23K23S1,1143,experiment,52,→,right,→,0.5009174000006169,True,35,1
AK-K-23K23S1,1144,experiment,67,→,right,→,0.6582237999537028,True,35,1
AK-K-23K23S1,1145,experiment,103,↓,down,↓,0.5893690999946557,True,35,1
AK-K-23K23S1,1146,experiment,88,←,left,←,0.5601439999882132,True,35,1
AK-K-23K23S1,1147,experiment,71,→,right,→,0.6179548999643885,True,35,1
AK-K-23K23S1,1148,experiment,94,↑,up,↑,0.38465640001231804,True,35,1
AK-K-23K23S1,1149,experiment,75,↑,up,↑,0.5447386999730952,True,35,0
AK-K-23K23S1,1150,experiment,72,↓,no_key,no_letter,-1.0,False,35,1
AK-K-23K23S1,1151,experiment,105,↓,down,↓,0.5847748999949545,True,35,1
AK-K-23K23S1,1152,experiment,53,→,right,→,0.599662599968724,True,35,1
AK-K-23K23S1,1153,experiment,107,↓,down,↓,0.579669600003399,True,35,1
AK-K-23K23S1,1154,experiment,57,↓,down,↓,0.6256271000020206,True,35,1
AK-K-23K23S1,1155,experiment,87,↑,up,↑,0.42628150002565235,True,35,1
AK-K-23K23S1,1156,experiment,59,←,left,←,0.581830799987074,True,35,1
AK-K-23K23S1,1157,experiment,102,↑,up,↑,0.4005184000125155,True,35,1
AK-K-23K23S1,1158,experiment,74,→,right,→,0.5629402999766171,True,35,0
AK-K-23K23S1,1159,experiment,68,←,left,←,0.3502873999532312,True,35,1
AK-K-23K23S1,1160,experiment,86,←,left,←,0.5542425999883562,True,35,0
AK-K-23K23S1,1161,experiment,100,↓,down,↓,0.42586020001908764,True,35,1
AK-K-23K23S1,1162,experiment,70,↑,up,↑,0.3427707999944687,True,35,0
AK-K-23K23S1,1163,experiment,56,↑,up,↑,0.5923261999851093,True,35,0
AK-K-23K23S1,1164,experiment,96,→,right,→,0.5524042999604717,True,35,1
AK-K-23K23S1,1165,experiment,49,↓,up,↑,0.5855927999946289,False,35,1
AK-K-23K23S1,1166,experiment,50,→,right,→,0.5532791999867186,True,35,1
AK-K-23K23S1,1167,experiment,58,→,right,→,0.5277732000104152,True,35,1
AK-K-23K23S1,1168,experiment,84,↑,up,↑,0.35951330000534654,True,35,1
AK-K-23K23S1,1169,experiment,99,↓,down,↓,0.6060201000072993,True,35,0
AK-K-23K23S1,1170,experiment,54,↓,down,↓,0.5474750999710523,True,35,1
AK-K-23K23S1,1171,experiment,82,↑,up,↑,0.48213969997595996,True,35,1
AK-K-23K23S1,1172,experiment,60,↑,up,↑,0.4172693999717012,True,35,1
AK-K-23K23S1,1173,experiment,76,←,left,←,0.39266449998831376,True,35,0
AK-K-23K23S1,1174,experiment,108,↑,up,↑,0.49947809998411685,True,35,0
AK-K-23K23S1,1175,training,101,←,left,←,0.6243277000030503,True,34,0
AK-K-23K23S1,1176,training,74,↑,up,↑,0.35125730000436306,True,34,1
AK-K-23K23S1,1177,experiment,68,←,left,←,0.47283050004625693,True,34,1
AK-K-23K23S1,1178,experiment,50,↑,left,←,0.46915960003389046,False,34,1
AK-K-23K23S1,1179,experiment,65,↑,up,↑,0.4524142000009306,True,34,1
AK-K-23K23S1,1180,experiment,77,↑,up,↑,0.5442938000196591,True,34,0
AK-K-23K23S1,1181,experiment,56,↑,up,↑,0.4560487000271678,True,34,1
AK-K-23K23S1,1182,experiment,58,→,right,→,0.48988470004405826,True,34,0
AK-K-23K23S1,1183,experiment,54,↓,up,↑,0.5319027999648824,False,34,1
AK-K-23K23S1,1184,experiment,51,↓,up,↑,0.47733040002640337,False,34,1
AK-K-23K23S1,1185,experiment,95,←,no_key,no_letter,-1.0,False,34,1
AK-K-23K23S1,1186,experiment,61,↑,up,↑,0.48733059997903183,True,34,1
AK-K-23K23S1,1187,experiment,96,↓,up,↑,0.483296699996572,False,34,1
AK-K-23K23S1,1188,experiment,91,↑,up,↑,0.47333419998176396,True,34,1
AK-K-23K23S1,1189,experiment,82,→,no_key,no_letter,-1.0,False,34,1
AK-K-23K23S1,1190,experiment,62,↑,up,↑,0.7356685999548063,True,34,1
AK-K-23K23S1,1191,experiment,94,→,right,→,0.5466516999877058,True,34,1
AK-K-23K23S1,1192,experiment,102,↑,up,↑,0.4743296999949962,True,34,1
AK-K-23K23S1,1193,experiment,52,→,right,→,0.6299256999627687,True,34,1
AK-K-23K23S1,1194,experiment,76,←,no_key,no_letter,-1.0,False,34,1
AK-K-23K23S1,1195,experiment,74,→,right,→,0.5557816000073217,True,34,1
AK-K-23K23S1,1196,experiment,86,↑,up,↑,0.4008493999717757,True,34,1
AK-K-23K23S1,1197,experiment,57,↑,up,↑,0.4004681999795139,True,34,0
AK-K-23K23S1,1198,experiment,81,←,left,←,0.561497800052166,True,34,0
AK-K-23K23S1,1199,experiment,69,↓,left,←,0.8677386000053957,False,34,1
AK-K-23K23S1,1200,experiment,93,←,left,←,0.5298282000003383,True,34,1
AK-K-23K23S1,1201,experiment,67,←,left,←,0.4858138000126928,True,34,1
AK-K-23K23S1,1202,experiment,60,→,left,←,0.4624818000011146,False,34,1
AK-K-23K23S1,1203,experiment,108,←,left,←,0.5034875000128523,True,34,1
AK-K-23K23S1,1204,experiment,75,↓,left,←,0.8896767999976873,False,34,1
AK-K-23K23S1,1205,experiment,107,↑,up,↑,0.4110322999767959,True,34,1
AK-K-23K23S1,1206,experiment,80,→,right,→,0.5820469000027515,True,34,0
AK-K-23K23S1,1207,experiment,53,→,left,←,0.5409268000512384,False,34,1
AK-K-23K23S1,1208,experiment,63,←,left,←,0.37583360000280663,True,34,1
AK-K-23K23S1,1209,experiment,85,↓,up,↑,0.7419831000152044,False,34,1
AK-K-23K23S1,1210,experiment,79,↓,up,↑,0.9659536000108346,False,34,1
AK-K-23K23S1,1211,experiment,89,→,right,→,0.6011036999989301,True,34,1
AK-K-23K23S1,1212,experiment,105,↑,up,↑,0.4255974000552669,True,34,1
AK-K-23K23S1,1213,experiment,78,↑,up,↑,0.4276769999996759,True,34,0
AK-K-23K23S1,1214,experiment,71,↑,up,↑,0.3671155999763869,True,34,0
AK-K-23K23S1,1215,experiment,100,→,right,→,0.6400303000118583,True,34,0
AK-K-23K23S1,1216,experiment,72,↓,down,↓,0.5181875000125729,True,34,1
AK-K-23K23S1,1217,experiment,87,↓,down,↓,0.40940250002313405,True,34,1
AK-K-23K23S1,1218,experiment,84,↓,down,↓,0.33440660004271194,True,34,0
AK-K-23K23S1,1219,experiment,92,↑,up,↑,0.6906973000150174,True,34,0
AK-K-23K23S1,1220,experiment,97,→,right,→,0.6064185000141151,True,34,1
AK-K-23K23S1,1221,experiment,101,↓,down,↓,0.42627390002598986,True,34,1
AK-K-23K23S1,1222,experiment,90,←,left,←,0.433909900020808,True,34,1
AK-K-23K23S1,1223,experiment,73,↑,up,↑,0.6023256999906152,True,34,0
AK-K-23K23S1,1224,experiment,83,←,left,←,0.6066325000138022,True,34,1
AK-K-23K23S1,1225,experiment,104,→,right,→,0.5628170000272803,True,34,1
AK-K-23K23S1,1226,experiment,98,→,right,→,0.43455740000354126,True,34,1
AK-K-23K23S1,1227,experiment,106,↑,up,↑,0.6462963999947533,True,34,1
AK-K-23K23S1,1228,experiment,59,↓,down,↓,0.6245417000027373,True,34,1
AK-K-23K23S1,1229,experiment,70,→,right,→,0.41765679995296523,True,34,1
AK-K-23K23S1,1230,experiment,64,↓,down,↓,0.4182973999995738,True,34,1
AK-K-23K23S1,1231,experiment,49,↓,down,↓,0.5597234999877401,True,34,0
AK-K-23K23S1,1232,experiment,103,↓,down,↓,0.5186926999595016,True,34,1
AK-K-23K23S1,1233,experiment,66,←,left,←,0.5478802000288852,True,34,1
AK-K-23K23S1,1234,experiment,55,↓,down,↓,0.4594290000386536,True,34,1
AK-K-23K23S1,1235,experiment,48,→,right,→,0.5687510999850929,True,34,1
AK-K-23K23S1,1236,experiment,99,←,left,←,0.401390100014396,True,34,1
AK-K-23K23S1,1237,experiment,88,←,left,←,0.3845416999538429,True,34,0
AK-K-23K23S1,1238,training,89,↓,down,↓,0.5342332000145689,True,34,0
AK-K-23K23S1,1239,training,68,→,right,→,0.6417919000377879,True,34,1
AK-K-23K23S1,1240,experiment,98,↑,up,↑,0.4173108999966644,True,34,1
AK-K-23K23S1,1241,experiment,58,↓,down,↓,0.38385340000968426,True,34,0
AK-K-23K23S1,1242,experiment,106,→,right,→,0.6152357999817468,True,34,0
AK-K-23K23S1,1243,experiment,95,→,right,→,0.5428179000155069,True,34,1
AK-K-23K23S1,1244,experiment,101,→,right,→,0.5031610999722034,True,34,1
AK-K-23K23S1,1245,experiment,69,→,right,→,0.4177722000167705,True,34,1
AK-K-23K23S1,1246,experiment,100,↑,up,↑,0.6013409000006504,True,34,1
AK-K-23K23S1,1247,experiment,65,↑,up,↑,0.42613799998071045,True,34,1
AK-K-23K23S1,1248,experiment,79,↑,up,↑,0.3837626000167802,True,34,0
AK-K-23K23S1,1249,experiment,74,↑,up,↑,0.3761522999848239,True,34,0
AK-K-23K23S1,1250,experiment,51,↑,up,↑,0.7102290000184439,True,34,0
AK-K-23K23S1,1251,experiment,81,←,left,←,0.36785459995735437,True,34,1
AK-K-23K23S1,1252,experiment,94,↑,up,↑,0.3775463000056334,True,34,0
AK-K-23K23S1,1253,experiment,68,↓,down,↓,0.4815797000192106,True,34,0
AK-K-23K23S1,1254,experiment,57,↓,down,↓,0.7308377999579534,True,34,1
AK-K-23K23S1,1255,experiment,80,←,left,←,0.3931180000072345,True,34,1
AK-K-23K23S1,1256,experiment,107,↑,up,↑,0.3255646000034176,True,34,1
AK-K-23K23S1,1257,experiment,91,←,left,←,0.6188870999612845,True,34,0
AK-K-23K23S1,1258,experiment,53,→,right,→,0.6238968999823555,True,34,1
AK-K-23K23S1,1259,experiment,67,←,left,←,1.0487135999719612,True,34,1
AK-K-23K23S1,1260,experiment,48,↑,up,↑,0.5099271999788471,True,34,1
AK-K-23K23S1,1261,experiment,78,→,right,→,0.5592154000187293,True,34,1
AK-K-23K23S1,1262,experiment,72,↓,no_key,no_letter,-1.0,False,34,1
AK-K-23K23S1,1263,experiment,96,↓,up,↑,0.5622502999613062,False,34,1
AK-K-23K23S1,1264,experiment,85,→,right,→,0.6307902000262402,True,34,1
AK-K-23K23S1,1265,experiment,77,←,left,←,0.40047220000997186,True,34,1
AK-K-23K23S1,1266,experiment,71,↓,left,←,0.39197599998442456,False,34,0
AK-K-23K23S1,1267,experiment,56,→,right,→,0.4965976999956183,True,34,0
AK-K-23K23S1,1268,experiment,83,↓,down,↓,0.5926541999797337,True,34,1
AK-K-23K23S1,1269,experiment,73,←,left,←,0.5523194000124931,True,34,1
AK-K-23K23S1,1270,experiment,82,→,right,→,0.5262090999749489,True,34,1
AK-K-23K23S1,1271,experiment,76,←,left,←,0.49568180000642315,True,34,1
AK-K-23K23S1,1272,experiment,55,↓,up,↑,0.5533306999714114,False,34,1
AK-K-23K23S1,1273,experiment,52,↑,up,↑,0.7854000999941491,True,34,1
AK-K-23K23S1,1274,experiment,62,→,right,→,0.4609911000006832,True,34,1
AK-K-23K23S1,1275,experiment,104,→,right,→,0.647990999976173,True,34,1
AK-K-23K23S1,1276,experiment,86,→,right,→,0.5366227999911644,True,34,1
AK-K-23K23S1,1277,experiment,108,←,left,←,0.3930971000227146,True,34,1
AK-K-23K23S1,1278,experiment,93,↑,up,↑,0.5360510000027716,True,34,0
AK-K-23K23S1,1279,experiment,75,↓,up,↑,0.5609245999949053,False,34,1
AK-K-23K23S1,1280,experiment,66,↑,up,↑,0.7085574999800883,True,34,1
AK-K-23K23S1,1281,experiment,84,↑,no_key,no_letter,-1.0,False,34,1
AK-K-23K23S1,1282,experiment,64,↑,up,↑,0.5600753999897279,True,34,1
AK-K-23K23S1,1283,experiment,90,→,right,→,0.4259670000174083,True,34,1
AK-K-23K23S1,1284,experiment,59,↑,up,↑,0.3842000000295229,True,34,1
AK-K-23K23S1,1285,experiment,99,↑,up,↑,0.40096790000097826,True,34,0
AK-K-23K23S1,1286,experiment,89,↑,up,↑,0.5907852999516763,True,34,0
AK-K-23K23S1,1287,experiment,49,←,right,→,0.5267301999847405,False,34,1
AK-K-23K23S1,1288,experiment,54,←,left,←,0.4713983999681659,True,34,1
AK-K-23K23S1,1289,experiment,60,←,left,←,0.3938609999604523,True,34,1
AK-K-23K23S1,1290,experiment,92,↓,up,↑,0.5136744999908842,False,34,1
AK-K-23K23S1,1291,experiment,63,↑,up,↑,0.6634507999988273,True,34,1
AK-K-23K23S1,1292,experiment,61,→,right,→,0.46408440003870055,True,34,1
AK-K-23K23S1,1293,experiment,88,→,right,→,0.43424319999758154,True,34,1
AK-K-23K23S1,1294,experiment,70,↓,down,↓,0.6464183000498451,True,34,1
AK-K-23K23S1,1295,experiment,102,→,right,→,0.4093777000089176,True,34,1
AK-K-23K23S1,1296,experiment,87,↑,up,↑,0.6283764999825507,True,34,1
AK-K-23K23S1,1297,experiment,97,↓,down,↓,0.5942793999565765,True,34,1
AK-K-23K23S1,1298,experiment,50,↓,down,↓,0.5937951999949291,True,34,1
AK-K-23K23S1,1299,experiment,105,↓,down,↓,0.5751724000438116,True,34,1
AK-K-23K23S1,1300,experiment,103,→,right,→,0.7012487000320107,True,34,1
AK-K-23K23S1,1301,training,94,↑,up,↑,0.5059699999983422,True,34,0
AK-K-23K23S1,1302,training,65,↑,up,↑,0.34445459995185956,True,34,1
AK-K-23K23S1,1303,experiment,57,↓,down,↓,0.4338465000037104,True,34,0
AK-K-23K23S1,1304,experiment,59,←,right,→,0.4804166000103578,False,34,0
AK-K-23K23S1,1305,experiment,54,←,left,←,0.5066533000208437,True,34,1
AK-K-23K23S1,1306,experiment,97,←,left,←,0.38425340002868325,True,34,1
AK-K-23K23S1,1307,experiment,67,←,left,←,0.34231580002233386,True,34,0
AK-K-23K23S1,1308,experiment,72,→,right,→,0.49726000003283843,True,34,0
AK-K-23K23S1,1309,experiment,86,↑,up,↑,0.5044583999551833,True,34,1
AK-K-23K23S1,1310,experiment,65,→,left,←,0.5262252999818884,False,34,1
AK-K-23K23S1,1311,experiment,73,↑,up,↑,0.576554799976293,True,34,1
AK-K-23K23S1,1312,experiment,106,←,left,←,0.6539300999720581,True,34,1
AK-K-23K23S1,1313,experiment,48,↑,up,↑,0.4832301000133157,True,34,1
AK-K-23K23S1,1314,experiment,68,←,left,←,0.3863250999711454,True,34,1
AK-K-23K23S1,1315,experiment,77,↑,up,↑,0.38462630001595244,True,34,0
AK-K-23K23S1,1316,experiment,53,↓,down,↓,0.6295607999782078,True,34,1
AK-K-23K23S1,1317,experiment,105,↑,up,↑,0.5689632000285201,True,34,1
AK-K-23K23S1,1318,experiment,100,↑,up,↑,0.5687056999886408,True,34,1
AK-K-23K23S1,1319,experiment,79,↑,up,↑,0.47141880000708625,True,34,1
AK-K-23K23S1,1320,experiment,62,→,right,→,0.4874365999712609,True,34,1
AK-K-23K23S1,1321,experiment,82,↓,down,↓,0.5682404999970458,True,34,1
AK-K-23K23S1,1322,experiment,91,←,left,←,0.5629859999753535,True,34,1
AK-K-23K23S1,1323,experiment,60,↑,up,↑,0.40899379999609664,True,34,1
AK-K-23K23S1,1324,experiment,50,→,right,→,0.5586042000213638,True,34,0
AK-K-23K23S1,1325,experiment,58,→,right,→,0.5166501000057906,True,34,1
AK-K-23K23S1,1326,experiment,63,↑,no_key,no_letter,-1.0,False,34,1
AK-K-23K23S1,1327,experiment,64,←,left,←,0.5587385999970138,True,34,1
AK-K-23K23S1,1328,experiment,76,→,right,→,0.6629765999969095,True,34,1
AK-K-23K23S1,1329,experiment,94,←,left,←,0.40118460002122447,True,34,1
AK-K-23K23S1,1330,experiment,69,→,no_key,no_letter,-1.0,False,34,1
AK-K-23K23S1,1331,experiment,101,↑,up,↑,0.41769939998630434,True,34,1
AK-K-23K23S1,1332,experiment,74,←,left,←,0.36777900002198294,True,34,0
AK-K-23K23S1,1333,experiment,108,↓,left,←,0.7597645000205375,False,34,1
AK-K-23K23S1,1334,experiment,81,↓,up,↑,0.5104132000124082,False,34,1
AK-K-23K23S1,1335,experiment,104,↓,down,↓,0.6388394999667071,True,34,1
AK-K-23K23S1,1336,experiment,66,→,left,←,0.46283829997992143,False,34,1
AK-K-23K23S1,1337,experiment,98,←,left,←,0.40067060000728816,True,34,1
AK-K-23K23S1,1338,experiment,99,↑,up,↑,0.40863940003328025,True,34,0
AK-K-23K23S1,1339,experiment,71,↑,up,↑,0.8010174999944866,True,34,0
AK-K-23K23S1,1340,experiment,56,←,left,←,0.5342145999893546,True,34,1
AK-K-23K23S1,1341,experiment,92,→,right,→,0.5137694000150077,True,34,1
AK-K-23K23S1,1342,experiment,78,↓,down,↓,0.5948672000085935,True,34,1
AK-K-23K23S1,1343,experiment,107,↑,up,↑,0.4343941999832168,True,34,1
AK-K-23K23S1,1344,experiment,95,→,right,→,0.5415981999831274,True,34,0
AK-K-23K23S1,1345,experiment,87,→,left,←,0.4674076999654062,False,34,1
AK-K-23K23S1,1346,experiment,103,←,left,←,0.47751749999588355,True,34,1
AK-K-23K23S1,1347,experiment,51,→,right,→,0.6255119999987073,True,34,1
AK-K-23K23S1,1348,experiment,102,→,right,→,0.4546690999995917,True,34,1
AK-K-23K23S1,1349,experiment,49,←,no_key,no_letter,-1.0,False,34,1
AK-K-23K23S1,1350,experiment,61,↑,up,↑,0.3858557000057772,True,34,1
AK-K-23K23S1,1351,experiment,90,→,right,→,0.7140449000289664,True,34,0
AK-K-23K23S1,1352,experiment,93,↓,down,↓,0.3842430000077002,True,34,1
AK-K-23K23S1,1353,experiment,52,←,left,←,0.7887813000124879,True,34,0
AK-K-23K23S1,1354,experiment,55,↓,down,↓,0.5384395000291988,True,34,1
AK-K-23K23S1,1355,experiment,84,↓,down,↓,0.4261187000083737,True,34,1
AK-K-23K23S1,1356,experiment,80,→,right,→,0.40114580001682043,True,34,1
AK-K-23K23S1,1357,experiment,96,↑,up,↑,0.4252838999964297,True,34,1
AK-K-23K23S1,1358,experiment,89,←,left,←,0.376136300037615,True,34,0
AK-K-23K23S1,1359,experiment,85,↑,up,↑,0.6974792000255547,True,34,1
AK-K-23K23S1,1360,experiment,70,↑,up,↑,0.43450400000438094,True,34,1
AK-K-23K23S1,1361,experiment,83,↓,down,↓,0.5513766999938525,True,34,1
AK-K-23K23S1,1362,experiment,75,→,right,→,0.5839747000136413,True,34,1
AK-K-23K23S1,1363,experiment,88,↑,up,↑,0.5552199999801815,True,34,1
AK-K-23K23S1,1364,training,100,↓,down,↓,0.5238419999950565,True,34,0
AK-K-23K23S1,1365,training,58,←,left,←,0.3680291000055149,True,34,1
AK-K-23K23S1,1366,experiment,74,←,left,←,0.5395591999986209,True,34,0
AK-K-23K23S1,1367,experiment,49,↓,down,↓,0.4539712999830954,True,34,1
AK-K-23K23S1,1368,experiment,86,↑,up,↑,0.5500376999843866,True,34,0
AK-K-23K23S1,1369,experiment,64,←,left,←,0.3171509000239894,True,34,1
AK-K-23K23S1,1370,experiment,63,↑,up,↑,0.36916690005455166,True,34,0
AK-K-23K23S1,1371,experiment,58,←,left,←,0.6051976999733597,True,34,0
AK-K-23K23S1,1372,experiment,60,←,left,←,0.36760159995174035,True,34,1
AK-K-23K23S1,1373,experiment,95,←,left,←,0.3340115000028163,True,34,0
AK-K-23K23S1,1374,experiment,79,↑,up,↑,0.505653300031554,True,34,0
AK-K-23K23S1,1375,experiment,72,↓,down,↓,0.5649098000139929,True,34,1
AK-K-23K23S1,1376,experiment,107,→,right,→,1.4663961000042036,True,34,1
AK-K-23K23S1,1377,experiment,104,←,left,←,0.4011855999706313,True,34,1
AK-K-23K23S1,1378,experiment,57,←,left,←,0.4173416999983601,True,34,0
AK-K-23K23S1,1379,experiment,89,↑,up,↑,0.37547969998558983,True,34,0
AK-K-23K23S1,1380,experiment,53,←,left,←,0.40959910000674427,True,34,0
AK-K-23K23S1,1381,experiment,97,→,right,→,0.4955708999768831,True,34,0
AK-K-23K23S1,1382,experiment,70,←,left,←,0.36714250000659376,True,34,1
AK-K-23K23S1,1383,experiment,48,←,left,←,0.4094012000132352,True,34,0
AK-K-23K23S1,1384,experiment,100,↑,up,↑,0.41134500002954155,True,34,1
AK-K-23K23S1,1385,experiment,88,←,left,←,0.603960599983111,True,34,0
AK-K-23K23S1,1386,experiment,61,←,left,←,0.4002898999606259,True,34,1
AK-K-23K23S1,1387,experiment,75,↑,up,↑,0.37543830001959577,True,34,0
AK-K-23K23S1,1388,experiment,65,↑,up,↑,0.3504858000087552,True,34,0
AK-K-23K23S1,1389,experiment,91,↑,up,↑,0.9232313000247814,True,34,0
AK-K-23K23S1,1390,experiment,94,↑,left,←,0.9588132000062615,False,34,1
AK-K-23K23S1,1391,experiment,56,↓,up,↑,0.7491871999809518,False,34,1
AK-K-23K23S1,1392,experiment,84,→,right,→,0.6428002999746241,True,34,1
AK-K-23K23S1,1393,experiment,67,←,left,←,0.408857700007502,True,34,1
AK-K-23K23S1,1394,experiment,103,→,left,←,0.9352641999721527,False,34,0
AK-K-23K23S1,1395,experiment,101,→,right,→,0.6960859000100754,True,34,1
AK-K-23K23S1,1396,experiment,50,→,right,→,0.4831485999748111,True,34,1
AK-K-23K23S1,1397,experiment,59,→,no_key,no_letter,-1.0,False,34,1
AK-K-23K23S1,1398,experiment,96,↓,down,↓,0.5892707000020891,True,34,1
AK-K-23K23S1,1399,experiment,82,←,left,←,0.5700547999585979,True,34,1
AK-K-23K23S1,1400,experiment,102,→,left,←,0.5051878999802284,False,34,1
AK-K-23K23S1,1401,experiment,90,←,left,←,0.4554800000041723,True,34,1
AK-K-23K23S1,1402,experiment,81,↑,up,↑,0.5606364000122994,True,34,1
AK-K-23K23S1,1403,experiment,80,↑,down,↓,0.5193436000263318,False,34,1
AK-K-23K23S1,1404,experiment,85,↑,up,↑,0.40057990001514554,True,34,1
AK-K-23K23S1,1405,experiment,106,↓,down,↓,0.466810500016436,True,34,0
