PART_ID,Trial_no,Trial_type,CSI,Stim_letter,Key_pressed,letter_choose,Rt,Corr,Stimulus Time,nDropped
AK-K-19K19S2,1,training,120,↑,up,↑,0.7804453999269754,True,60,0
AK-K-19K19S2,2,training,120,↑,up,↑,0.5339021000545472,True,60,0
AK-K-19K19S2,3,training,120,↑,up,↑,0.46838320000097156,True,60,0
AK-K-19K19S2,4,training,120,↓,down,↓,0.5849948001559824,True,60,0
AK-K-19K19S2,5,training,120,→,right,→,0.47695980011485517,True,60,0
AK-K-19K19S2,6,training,120,↓,down,↓,0.7624760000035167,True,60,0
AK-K-19K19S2,7,training,120,→,right,→,0.5924480999819934,True,60,0
AK-K-19K19S2,8,training,120,↓,down,↓,0.6743571001570672,True,60,0
AK-K-19K19S2,9,training,120,→,right,→,0.8858696999959648,True,60,0
AK-K-19K19S2,10,training,120,→,right,→,0.8813108999747783,True,60,0
AK-K-19K19S2,11,training,120,←,left,←,0.7172896999400109,True,60,0
AK-K-19K19S2,12,training,120,←,left,←,0.7033114999067038,True,60,0
AK-K-19K19S2,13,training,120,←,left,←,0.7459369001444429,True,60,0
AK-K-19K19S2,14,training,120,→,right,→,0.617413500091061,True,60,0
AK-K-19K19S2,15,training,120,↓,down,↓,0.5591569999232888,True,60,0
AK-K-19K19S2,16,training,120,←,left,←,0.7377271000295877,True,60,0
AK-K-19K19S2,17,training,120,↑,up,↑,0.5001429999247193,True,60,0
AK-K-19K19S2,18,training,120,←,left,←,0.44370920001529157,True,60,0
AK-K-19K19S2,19,training,120,→,right,→,0.6182154999114573,True,60,0
AK-K-19K19S2,20,training,120,←,left,←,0.5500390001107007,True,60,0
AK-K-19K19S2,21,no_adaptation,120,↑,up,↑,0.5067208998370916,True,36,0
AK-K-19K19S2,22,no_adaptation,120,←,left,←,0.5812335000373423,True,36,0
AK-K-19K19S2,23,no_adaptation,120,↑,up,↑,0.5011195000261068,True,36,0
AK-K-19K19S2,24,no_adaptation,120,↓,down,↓,0.6402268998790532,True,36,0
AK-K-19K19S2,25,no_adaptation,120,←,left,←,0.557637199992314,True,36,0
AK-K-19K19S2,26,no_adaptation,120,↓,down,↓,0.7664359000045806,True,36,0
AK-K-19K19S2,27,no_adaptation,120,→,right,→,0.7267903001047671,True,36,0
AK-K-19K19S2,28,no_adaptation,120,→,right,→,0.5525155998766422,True,36,0
AK-K-19K19S2,29,no_adaptation,120,↓,down,↓,0.665551400044933,True,36,0
AK-K-19K19S2,30,no_adaptation,120,↑,up,↑,0.678261699853465,True,36,0
AK-K-19K19S2,31,no_adaptation,120,→,right,→,0.5459815999493003,True,36,0
AK-K-19K19S2,32,no_adaptation,120,↑,up,↑,0.4757859001401812,True,36,0
AK-K-19K19S2,33,no_adaptation,120,↓,up,↑,0.8149474000092596,False,36,0
AK-K-19K19S2,34,no_adaptation,120,↑,up,↑,0.6374212000519037,True,36,0
AK-K-19K19S2,35,no_adaptation,120,↑,up,↑,0.6507810999173671,True,36,0
AK-K-19K19S2,36,no_adaptation,120,←,left,←,0.5277388000395149,True,36,0
AK-K-19K19S2,37,no_adaptation,120,↓,down,↓,0.8655834000092,True,36,0
AK-K-19K19S2,38,no_adaptation,120,←,left,←,0.6140693000052124,True,36,0
AK-K-19K19S2,39,no_adaptation,120,↓,down,↓,0.772538100136444,True,36,0
AK-K-19K19S2,40,no_adaptation,120,↓,down,↓,0.6526407001074404,True,36,0
AK-K-19K19S2,41,training,83,↓,down,↓,0.5139602001290768,True,36,0
AK-K-19K19S2,42,training,58,←,left,←,0.6020416000392288,True,36,1
AK-K-19K19S2,43,experiment,83,←,left,←,0.5016228000167757,True,36,1
AK-K-19K19S2,44,experiment,62,↓,down,↓,0.4694453999400139,True,36,1
AK-K-19K19S2,45,experiment,90,←,left,←,0.5078108999878168,True,36,0
AK-K-19K19S2,46,experiment,59,↑,up,↑,0.5235344001557678,True,36,1
AK-K-19K19S2,47,experiment,76,→,right,→,0.5167792001739144,True,36,1
AK-K-19K19S2,48,experiment,54,←,left,←,0.4511438999325037,True,36,1
AK-K-19K19S2,49,experiment,107,↓,down,↓,0.6076553000602871,True,36,0
AK-K-19K19S2,50,experiment,85,↑,up,↑,0.5787394000217319,True,36,1
AK-K-19K19S2,51,experiment,67,→,right,→,0.5168375999201089,True,36,1
AK-K-19K19S2,52,experiment,81,↑,up,↑,0.469178699888289,True,36,1
AK-K-19K19S2,53,experiment,71,←,left,←,0.5938982998486608,True,36,0
AK-K-19K19S2,54,experiment,84,↑,up,↑,0.4707996998913586,True,36,1
AK-K-19K19S2,55,experiment,66,→,right,→,0.41725339996628463,True,36,0
AK-K-19K19S2,56,experiment,88,↓,down,↓,0.5505466999020427,True,36,0
AK-K-19K19S2,57,experiment,96,←,left,←,0.5527207998093218,True,36,1
AK-K-19K19S2,58,experiment,73,↓,down,↓,0.6813605001661927,True,36,1
AK-K-19K19S2,59,experiment,106,↑,up,↑,0.5543427001684904,True,36,1
AK-K-19K19S2,60,experiment,56,↑,up,↑,0.6412567000370473,True,36,1
AK-K-19K19S2,61,experiment,92,↓,down,↓,0.5291274001356214,True,36,1
AK-K-19K19S2,62,experiment,65,↓,down,↓,0.589491399936378,True,36,1
AK-K-19K19S2,63,experiment,53,→,right,→,0.8520386000163853,True,36,1
AK-K-19K19S2,64,experiment,108,↓,up,↑,1.6375710000284016,False,36,1
AK-K-19K19S2,65,experiment,91,↓,down,↓,0.6292777000926435,True,36,1
AK-K-19K19S2,66,experiment,105,←,left,←,0.5366475000046194,True,36,1
AK-K-19K19S2,67,experiment,68,↑,up,↑,1.5000625001266599,True,36,1
AK-K-19K19S2,68,experiment,61,→,right,→,0.49961599987000227,True,36,1
AK-K-19K19S2,69,experiment,63,↑,up,↑,0.5063031001482159,True,36,1
AK-K-19K19S2,70,experiment,50,→,right,→,0.5174205000512302,True,36,1
AK-K-19K19S2,71,experiment,78,↓,down,↓,0.7580072998534888,True,36,1
AK-K-19K19S2,72,experiment,80,↓,down,↓,0.6928453000728041,True,36,1
AK-K-19K19S2,73,experiment,69,←,left,←,0.5300441000144929,True,36,1
AK-K-19K19S2,74,experiment,82,↑,up,↑,0.5290369999129325,True,36,1
AK-K-19K19S2,75,experiment,94,↑,up,↑,0.6840913000050932,True,36,1
AK-K-19K19S2,76,experiment,87,↓,down,↓,0.6835965998470783,True,36,1
AK-K-19K19S2,77,experiment,60,←,left,←,0.5881242998875678,True,36,1
AK-K-19K19S2,78,experiment,102,↑,up,↑,0.5861732000485063,True,36,1
AK-K-19K19S2,79,experiment,98,↓,down,↓,0.7138493999373168,True,36,1
AK-K-19K19S2,80,experiment,86,→,right,→,0.4806957000400871,True,36,1
AK-K-19K19S2,81,experiment,79,↓,down,↓,0.5863948999904096,True,36,1
AK-K-19K19S2,82,experiment,49,↓,down,↓,0.7463781998958439,True,36,1
AK-K-19K19S2,83,experiment,72,→,right,→,0.4846101999282837,True,36,1
AK-K-19K19S2,84,experiment,75,←,left,←,0.5676842001266778,True,36,1
AK-K-19K19S2,85,experiment,100,→,right,→,0.5191718998830765,True,36,1
AK-K-19K19S2,86,experiment,64,←,left,←,0.6046325999777764,True,36,1
AK-K-19K19S2,87,experiment,57,→,right,→,0.48112370003946126,True,36,1
AK-K-19K19S2,88,experiment,58,→,right,→,0.506248899968341,True,36,1
AK-K-19K19S2,89,experiment,89,←,right,→,0.5360197999980301,False,36,1
AK-K-19K19S2,90,experiment,77,↑,up,↑,1.296638999832794,True,36,1
AK-K-19K19S2,91,experiment,97,↓,down,↓,0.6518532000482082,True,36,1
AK-K-19K19S2,92,experiment,95,←,left,←,0.5536140000913292,True,36,1
AK-K-19K19S2,93,experiment,104,↑,up,↑,0.5128741001244634,True,36,1
AK-K-19K19S2,94,experiment,52,↓,down,↓,0.6024701001588255,True,36,1
AK-K-19K19S2,95,experiment,48,←,left,←,0.9218381000682712,True,36,1
AK-K-19K19S2,96,experiment,51,←,left,←,0.4261966999620199,True,36,1
AK-K-19K19S2,97,experiment,103,←,left,←,0.5034035998396575,True,36,0
AK-K-19K19S2,98,experiment,70,→,right,→,0.6115715999621898,True,36,1
AK-K-19K19S2,99,experiment,74,↑,up,↑,0.4908440001308918,True,36,1
AK-K-19K19S2,100,experiment,101,→,right,→,0.6126361999195069,True,36,1
AK-K-19K19S2,101,experiment,93,↓,down,↓,0.6769161999691278,True,36,1
AK-K-19K19S2,102,experiment,55,→,right,→,0.5113144000060856,True,36,1
AK-K-19K19S2,103,experiment,99,←,left,←,0.5295276998076588,True,36,1
AK-K-19K19S2,104,training,68,↑,up,↑,0.4342772997915745,True,35,0
AK-K-19K19S2,105,training,98,↓,down,↓,0.568789399927482,True,35,1
AK-K-19K19S2,106,experiment,57,←,left,←,0.47939500003121793,True,35,1
AK-K-19K19S2,107,experiment,61,↑,up,↑,0.46366040012799203,True,35,1
AK-K-19K19S2,108,experiment,83,↓,down,↓,0.5998625999782234,True,35,1
AK-K-19K19S2,109,experiment,82,↑,up,↑,0.5801849998533726,True,35,1
AK-K-19K19S2,110,experiment,100,↑,up,↑,0.723214800003916,True,35,1
AK-K-19K19S2,111,experiment,95,↑,up,↑,0.41706729982979596,True,35,1
AK-K-19K19S2,112,experiment,66,←,left,←,0.36811919999308884,True,35,0
AK-K-19K19S2,113,experiment,52,→,right,→,0.4789821000304073,True,35,0
AK-K-19K19S2,114,experiment,62,↑,up,↑,0.5743259000591934,True,35,1
AK-K-19K19S2,115,experiment,59,←,left,←,0.3926847002003342,True,35,1
AK-K-19K19S2,116,experiment,80,↑,up,↑,0.3858689998742193,True,35,0
AK-K-19K19S2,117,experiment,81,←,no_key,no_letter,-1.0,False,35,0
AK-K-19K19S2,118,experiment,107,↑,up,↑,0.4275386000517756,True,35,1
AK-K-19K19S2,119,experiment,69,←,left,←,0.36736420006491244,True,35,0
AK-K-19K19S2,120,experiment,51,↓,down,↓,0.6577582000754774,True,35,0
AK-K-19K19S2,121,experiment,88,↑,up,↑,0.48977510002441704,True,35,1
AK-K-19K19S2,122,experiment,97,↑,up,↑,1.1413348999340087,True,35,1
AK-K-19K19S2,123,experiment,49,←,left,←,0.5192976000253111,True,35,1
AK-K-19K19S2,124,experiment,58,↓,down,↓,0.6389897000044584,True,35,1
AK-K-19K19S2,125,experiment,78,←,left,←,0.555134000023827,True,35,1
AK-K-19K19S2,126,experiment,106,↑,up,↑,0.5528460999485105,True,35,1
AK-K-19K19S2,127,experiment,50,→,right,→,0.9378696999046952,True,35,1
AK-K-19K19S2,128,experiment,76,→,right,→,0.914456999860704,True,35,1
AK-K-19K19S2,129,experiment,91,→,right,→,0.4090456000994891,True,35,1
AK-K-19K19S2,130,experiment,68,←,left,←,0.37730689998716116,True,35,0
AK-K-19K19S2,131,experiment,74,↓,down,↓,0.6793396999128163,True,35,0
AK-K-19K19S2,132,experiment,75,←,left,←,0.6026153999846429,True,35,1
AK-K-19K19S2,133,experiment,89,↓,down,↓,0.6446871000807732,True,35,1
AK-K-19K19S2,134,experiment,104,↓,down,↓,0.5596434001345187,True,35,1
AK-K-19K19S2,135,experiment,90,→,right,→,0.5790836999658495,True,35,1
AK-K-19K19S2,136,experiment,92,↑,up,↑,0.6292484998703003,True,35,1
AK-K-19K19S2,137,experiment,93,→,right,→,0.5481820001732558,True,35,1
AK-K-19K19S2,138,experiment,86,←,left,←,0.5932338999118656,True,35,1
AK-K-19K19S2,139,experiment,102,↑,up,↑,0.4005259000696242,True,35,1
AK-K-19K19S2,140,experiment,98,↓,down,↓,1.1097096998710185,True,35,0
AK-K-19K19S2,141,experiment,70,→,right,→,0.49811619985848665,True,35,1
AK-K-19K19S2,142,experiment,64,→,right,→,0.41796049987897277,True,35,1
AK-K-19K19S2,143,experiment,53,←,left,←,0.39278330001980066,True,35,1
AK-K-19K19S2,144,experiment,85,↓,up,↑,0.3939280000049621,False,35,1
AK-K-19K19S2,145,experiment,67,←,right,→,1.426022500032559,False,35,0
AK-K-19K19S2,146,experiment,73,↑,up,↑,0.7444970000069588,True,35,1
AK-K-19K19S2,147,experiment,87,↑,up,↑,0.6933864001184702,True,35,1
AK-K-19K19S2,148,experiment,77,←,left,←,0.4876931000035256,True,35,1
AK-K-19K19S2,149,experiment,103,↓,up,↑,0.9694719000253826,False,35,1
AK-K-19K19S2,150,experiment,48,←,left,←,0.7143725000787526,True,35,1
AK-K-19K19S2,151,experiment,101,↓,down,↓,0.5877437999006361,True,35,1
AK-K-19K19S2,152,experiment,99,→,right,→,0.506874900078401,True,35,1
AK-K-19K19S2,153,experiment,55,←,left,←,0.5960732998792082,True,35,1
AK-K-19K19S2,154,experiment,96,↑,up,↑,0.6280364999547601,True,35,1
AK-K-19K19S2,155,experiment,63,→,right,→,0.59701729984954,True,35,1
AK-K-19K19S2,156,experiment,108,←,left,←,0.6808092999272048,True,35,1
AK-K-19K19S2,157,experiment,105,↑,up,↑,0.5222372999414802,True,35,1
AK-K-19K19S2,158,experiment,60,←,left,←,0.6168217998929322,True,35,1
AK-K-19K19S2,159,experiment,71,←,left,←,0.5122988999355584,True,35,1
AK-K-19K19S2,160,experiment,94,←,left,←,0.652306699892506,True,35,1
AK-K-19K19S2,161,experiment,84,↓,down,↓,0.7335031998809427,True,35,1
AK-K-19K19S2,162,experiment,65,↓,down,↓,0.594620699994266,True,35,1
AK-K-19K19S2,163,experiment,79,↓,down,↓,0.6240218000020832,True,35,1
AK-K-19K19S2,164,experiment,56,↓,down,↓,0.4681851000059396,True,35,1
AK-K-19K19S2,165,experiment,54,↑,up,↑,0.5032931000459939,True,35,1
AK-K-19K19S2,166,experiment,72,←,left,←,0.707131200004369,True,35,1
AK-K-19K19S2,167,training,107,↓,down,↓,0.6476742001250386,True,34,0
AK-K-19K19S2,168,training,85,←,left,←,0.6089242999441922,True,34,1
AK-K-19K19S2,169,experiment,65,↓,down,↓,0.6586116999387741,True,34,1
AK-K-19K19S2,170,experiment,61,↓,down,↓,0.5635494999587536,True,34,1
AK-K-19K19S2,171,experiment,82,←,left,←,0.40164380008354783,True,34,1
AK-K-19K19S2,172,experiment,107,↑,up,↑,0.612688499968499,True,34,0
AK-K-19K19S2,173,experiment,52,→,right,→,1.1464881000574678,True,34,1
AK-K-19K19S2,174,experiment,90,↑,up,↑,0.614134700037539,True,34,1
AK-K-19K19S2,175,experiment,96,↓,down,↓,0.6531311001162976,True,34,1
AK-K-19K19S2,176,experiment,57,→,right,→,0.5915824000257999,True,34,1
AK-K-19K19S2,177,experiment,68,↓,down,↓,0.7129650998394936,True,34,1
AK-K-19K19S2,178,experiment,88,→,right,→,0.6066328999586403,True,34,1
AK-K-19K19S2,179,experiment,97,↑,up,↑,0.6378004001453519,True,34,1
AK-K-19K19S2,180,experiment,62,↓,down,↓,0.583109499886632,True,34,1
AK-K-19K19S2,181,experiment,86,←,left,←,0.4911227999255061,True,34,1
AK-K-19K19S2,182,experiment,91,↑,up,↑,0.5927166999317706,True,34,1
AK-K-19K19S2,183,experiment,105,↑,up,↑,0.45443030004389584,True,34,1
AK-K-19K19S2,184,experiment,103,←,left,←,0.6562631998676807,True,34,1
AK-K-19K19S2,185,experiment,87,↑,up,↑,0.5206283000297844,True,34,1
AK-K-19K19S2,186,experiment,80,←,left,←,0.5927071999758482,True,34,1
AK-K-19K19S2,187,experiment,83,→,right,→,0.581238399958238,True,34,1
AK-K-19K19S2,188,experiment,78,→,right,→,0.5796091000083834,True,34,1
AK-K-19K19S2,189,experiment,59,→,right,→,0.608498299960047,True,34,1
AK-K-19K19S2,190,experiment,106,↑,up,↑,0.4532226000446826,True,34,1
AK-K-19K19S2,191,experiment,95,↓,down,↓,0.6504357999656349,True,34,0
AK-K-19K19S2,192,experiment,79,→,right,→,0.5657860999926925,True,34,1
AK-K-19K19S2,193,experiment,104,↓,down,↓,0.5562159998808056,True,34,1
AK-K-19K19S2,194,experiment,56,→,right,→,0.48285809997469187,True,34,1
AK-K-19K19S2,195,experiment,76,↑,up,↑,0.518019099952653,True,34,1
AK-K-19K19S2,196,experiment,72,↓,down,↓,0.46499510016292334,True,34,1
AK-K-19K19S2,197,experiment,51,↓,down,↓,0.6212311999406666,True,34,1
AK-K-19K19S2,198,experiment,48,←,left,←,0.4919781000353396,True,34,1
AK-K-19K19S2,199,experiment,108,↑,up,↑,0.6518550000619143,True,34,1
AK-K-19K19S2,200,experiment,50,→,right,→,0.6088308000471443,True,34,1
AK-K-19K19S2,201,experiment,53,→,right,→,0.5983166000805795,True,34,1
AK-K-19K19S2,202,experiment,73,→,right,→,0.5578439999371767,True,34,1
AK-K-19K19S2,203,experiment,64,←,left,←,0.49815150001086295,True,34,1
AK-K-19K19S2,204,experiment,77,→,right,→,0.4526015999726951,True,34,1
AK-K-19K19S2,205,experiment,102,→,right,→,0.6872362000867724,True,34,0
AK-K-19K19S2,206,experiment,99,↓,down,↓,0.7786291998345405,True,34,1
AK-K-19K19S2,207,experiment,94,↓,down,↓,0.6117586998734623,True,34,1
AK-K-19K19S2,208,experiment,81,→,right,→,0.5442109000869095,True,34,1
AK-K-19K19S2,209,experiment,89,→,right,→,0.6124982999172062,True,34,1
AK-K-19K19S2,210,experiment,71,↑,up,↑,0.5401464998722076,True,34,1
AK-K-19K19S2,211,experiment,98,↑,up,↑,0.7014824999496341,True,34,1
AK-K-19K19S2,212,experiment,58,→,right,→,0.573795999865979,True,34,1
AK-K-19K19S2,213,experiment,63,→,right,→,0.38382270000874996,True,34,1
AK-K-19K19S2,214,experiment,93,↓,down,↓,0.7065125999506563,True,34,0
AK-K-19K19S2,215,experiment,60,→,right,→,0.4274472000543028,True,34,1
AK-K-19K19S2,216,experiment,75,↑,up,↑,0.4790864000096917,True,34,0
AK-K-19K19S2,217,experiment,74,→,right,→,0.36799659999087453,True,34,1
AK-K-19K19S2,218,experiment,100,↑,up,↑,0.6422183001413941,True,34,1
AK-K-19K19S2,219,experiment,54,→,right,→,0.4548174999654293,True,34,1
AK-K-19K19S2,220,experiment,92,↓,down,↓,0.7728917999193072,True,34,0
AK-K-19K19S2,221,experiment,55,↑,up,↑,0.6913280999287963,True,34,1
AK-K-19K19S2,222,experiment,49,←,left,←,0.6391277001239359,True,34,1
AK-K-19K19S2,223,experiment,66,→,right,→,0.5111977001652122,True,34,1
AK-K-19K19S2,224,experiment,101,↓,down,↓,0.6885999999940395,True,34,1
AK-K-19K19S2,225,experiment,84,←,left,←,0.6006821000482887,True,34,1
AK-K-19K19S2,226,experiment,70,←,left,←,0.593141800025478,True,34,1
AK-K-19K19S2,227,experiment,67,←,left,←,0.690817299997434,True,34,1
AK-K-19K19S2,228,experiment,69,←,left,←,0.4957155999727547,True,34,1
AK-K-19K19S2,229,experiment,85,←,left,←,0.42587979999370873,True,34,1
AK-K-19K19S2,230,training,48,↓,down,↓,0.683736499864608,True,33,0
AK-K-19K19S2,231,training,57,→,right,→,0.5811120001599193,True,33,1
AK-K-19K19S2,232,experiment,80,→,right,→,1.0749911998864263,True,33,1
AK-K-19K19S2,233,experiment,79,←,left,←,0.4853739000391215,True,33,1
AK-K-19K19S2,234,experiment,57,→,right,→,0.3678111000917852,True,33,1
AK-K-19K19S2,235,experiment,60,↓,down,↓,0.5874188998714089,True,33,1
AK-K-19K19S2,236,experiment,106,↑,up,↑,0.6003545001149178,True,33,1
AK-K-19K19S2,237,experiment,63,←,left,←,0.5710717001929879,True,33,1
AK-K-19K19S2,238,experiment,72,←,left,←,0.612393100047484,True,33,1
AK-K-19K19S2,239,experiment,107,→,right,→,0.4791516000404954,True,33,1
AK-K-19K19S2,240,experiment,95,←,left,←,0.5400310000404716,True,33,1
AK-K-19K19S2,241,experiment,51,↑,up,↑,0.5810775000136346,True,33,1
AK-K-19K19S2,242,experiment,97,↑,up,↑,0.5492906998842955,True,33,1
AK-K-19K19S2,243,experiment,96,↑,up,↑,0.46313440008088946,True,33,1
AK-K-19K19S2,244,experiment,104,→,right,→,0.5693884000647813,True,33,1
AK-K-19K19S2,245,experiment,53,↑,up,↑,0.5363457999192178,True,33,1
AK-K-19K19S2,246,experiment,102,→,right,→,0.5365611000452191,True,33,1
AK-K-19K19S2,247,experiment,64,→,right,→,0.3277908000163734,True,33,1
AK-K-19K19S2,248,experiment,66,←,left,←,0.5059970999136567,True,33,1
AK-K-19K19S2,249,experiment,68,←,left,←,0.5427091000601649,True,33,1
AK-K-19K19S2,250,experiment,101,→,right,→,0.607045300072059,True,33,1
AK-K-19K19S2,251,experiment,98,↓,down,↓,0.629594000056386,True,33,1
AK-K-19K19S2,252,experiment,67,←,left,←,0.5337832001969218,True,33,1
AK-K-19K19S2,253,experiment,87,↓,down,↓,0.8272879000287503,True,33,1
AK-K-19K19S2,254,experiment,93,↑,up,↑,0.5386409000493586,True,33,1
AK-K-19K19S2,255,experiment,49,↓,down,↓,0.6443278999067843,True,33,1
AK-K-19K19S2,256,experiment,105,↓,down,↓,0.6551991000305861,True,33,1
AK-K-19K19S2,257,experiment,91,↑,up,↑,0.605980799999088,True,33,1
AK-K-19K19S2,258,experiment,56,←,left,←,0.49110109987668693,True,33,1
AK-K-19K19S2,259,experiment,94,←,left,←,1.6635135000105947,True,33,1
AK-K-19K19S2,260,experiment,55,→,right,→,0.5784318998921663,True,33,1
AK-K-19K19S2,261,experiment,65,↓,down,↓,0.5734091999474913,True,33,1
AK-K-19K19S2,262,experiment,86,→,right,→,0.48161479993723333,True,33,1
AK-K-19K19S2,263,experiment,103,↓,down,↓,0.6754592000506818,True,33,1
AK-K-19K19S2,264,experiment,76,↓,down,↓,0.4476855001412332,True,33,1
AK-K-19K19S2,265,experiment,92,→,right,→,0.5501502000261098,True,33,1
AK-K-19K19S2,266,experiment,61,←,left,←,0.619351499946788,True,33,1
AK-K-19K19S2,267,experiment,75,↓,down,↓,0.6814300001133233,True,33,1
AK-K-19K19S2,268,experiment,69,←,left,←,0.6468807999044657,True,33,1
AK-K-19K19S2,269,experiment,108,←,left,←,0.7045260998420417,True,33,1
AK-K-19K19S2,270,experiment,54,→,right,→,0.6258135000243783,True,33,1
AK-K-19K19S2,271,experiment,100,↓,down,↓,0.5675411999691278,True,33,1
AK-K-19K19S2,272,experiment,77,↑,up,↑,0.6551540000364184,True,33,1
AK-K-19K19S2,273,experiment,99,→,left,←,1.211155799916014,False,33,1
AK-K-19K19S2,274,experiment,81,←,left,←,0.6873022001236677,True,33,1
AK-K-19K19S2,275,experiment,59,→,right,→,0.41774699999950826,True,33,1
AK-K-19K19S2,276,experiment,85,↓,down,↓,0.6422949000261724,True,33,0
AK-K-19K19S2,277,experiment,50,←,left,←,0.6556698000058532,True,33,1
AK-K-19K19S2,278,experiment,90,↑,up,↑,0.6310272000264376,True,33,1
AK-K-19K19S2,279,experiment,52,←,left,←,0.5961078000254929,True,33,1
AK-K-19K19S2,280,experiment,84,→,right,→,0.7198838000185788,True,33,1
AK-K-19K19S2,281,experiment,88,↑,up,↑,0.9492289000190794,True,33,1
AK-K-19K19S2,282,experiment,82,↓,down,↓,0.6758189001120627,True,33,1
AK-K-19K19S2,283,experiment,74,→,right,→,0.6316017999779433,True,33,1
AK-K-19K19S2,284,experiment,48,←,left,←,0.5900191001128405,True,33,1
AK-K-19K19S2,285,experiment,71,↓,down,↓,0.5023499999660999,True,33,1
AK-K-19K19S2,286,experiment,70,←,left,←,0.5626446001697332,True,33,1
AK-K-19K19S2,287,experiment,58,↑,up,↑,0.7286117000039667,True,33,1
AK-K-19K19S2,288,experiment,62,↑,up,↑,0.5586128002032638,True,33,1
AK-K-19K19S2,289,experiment,78,←,left,←,0.6780348001047969,True,33,1
AK-K-19K19S2,290,experiment,83,↑,up,↑,0.6867799998726696,True,33,1
AK-K-19K19S2,291,experiment,89,←,left,←,0.7254488999024034,True,33,1
AK-K-19K19S2,292,experiment,73,→,right,→,0.6398570998571813,True,33,1
AK-K-19K19S2,293,training,52,↓,down,↓,0.7247428998816758,True,32,0
AK-K-19K19S2,294,training,104,←,left,←,0.5729249999858439,True,32,1
AK-K-19K19S2,295,experiment,63,↓,down,↓,0.5366330000106245,True,32,1
AK-K-19K19S2,296,experiment,97,↓,down,↓,0.442724599968642,True,32,1
AK-K-19K19S2,297,experiment,57,←,left,←,0.6289653999265283,True,32,1
AK-K-19K19S2,298,experiment,66,↓,down,↓,0.5095841002184898,True,32,1
AK-K-19K19S2,299,experiment,70,↑,up,↑,0.6419123997911811,True,32,1
AK-K-19K19S2,300,experiment,58,↑,up,↑,0.4522474000696093,True,32,1
AK-K-19K19S2,301,experiment,64,←,left,←,0.36705080000683665,True,32,1
AK-K-19K19S2,302,experiment,56,↑,up,↑,0.49077220004983246,True,32,0
AK-K-19K19S2,303,experiment,77,↓,down,↓,0.6931576000060886,True,32,1
AK-K-19K19S2,304,experiment,105,←,left,←,0.5502573000267148,True,32,1
AK-K-19K19S2,305,experiment,71,←,left,←,0.36928740004077554,True,32,1
AK-K-19K19S2,306,experiment,52,→,right,→,0.4957965000066906,True,32,0
AK-K-19K19S2,307,experiment,86,↑,up,↑,0.5584802001249045,True,32,1
AK-K-19K19S2,308,experiment,101,↑,up,↑,0.4941676000598818,True,32,1
AK-K-19K19S2,309,experiment,68,↓,down,↓,0.6354948999360204,True,32,1
AK-K-19K19S2,310,experiment,59,→,right,→,0.6946172001771629,True,32,1
AK-K-19K19S2,311,experiment,106,→,right,→,0.6150634000077844,True,32,1
AK-K-19K19S2,312,experiment,83,←,left,←,0.6903019999153912,True,32,1
AK-K-19K19S2,313,experiment,90,↑,up,↑,0.6404496999457479,True,32,1
AK-K-19K19S2,314,experiment,88,↓,down,↓,0.6813264999072999,True,32,1
AK-K-19K19S2,315,experiment,104,←,left,←,0.6267611000221223,True,32,1
AK-K-19K19S2,316,experiment,94,→,right,→,0.6023961999453604,True,32,1
AK-K-19K19S2,317,experiment,96,→,right,→,0.5939017001073807,True,32,1
AK-K-19K19S2,318,experiment,103,→,left,←,0.5755255999974906,False,32,1
AK-K-19K19S2,319,experiment,53,→,right,→,0.49462919984944165,True,32,1
AK-K-19K19S2,320,experiment,108,↓,down,↓,0.7343241001944989,True,32,1
AK-K-19K19S2,321,experiment,79,↑,up,↑,0.4384415000677109,True,32,1
AK-K-19K19S2,322,experiment,91,↑,up,↑,0.6063298999797553,True,32,0
AK-K-19K19S2,323,experiment,55,→,right,→,0.4752015999983996,True,32,1
AK-K-19K19S2,324,experiment,65,←,left,←,0.5944364999886602,True,32,1
AK-K-19K19S2,325,experiment,61,↓,down,↓,0.6620598998852074,True,32,1
AK-K-19K19S2,326,experiment,76,↓,down,↓,0.6897988000418991,True,32,1
AK-K-19K19S2,327,experiment,49,↓,down,↓,0.645655799889937,True,32,1
AK-K-19K19S2,328,experiment,80,→,right,→,0.5527111000847071,True,32,1
AK-K-19K19S2,329,experiment,74,←,left,←,0.5534697000402957,True,32,1
AK-K-19K19S2,330,experiment,84,↓,down,↓,0.6551405000500381,True,32,1
AK-K-19K19S2,331,experiment,78,↓,down,↓,0.6903751001227647,True,32,1
AK-K-19K19S2,332,experiment,51,↑,up,↑,0.5095834999810904,True,32,1
AK-K-19K19S2,333,experiment,50,→,right,→,0.49617709987796843,True,32,1
AK-K-19K19S2,334,experiment,60,↓,down,↓,0.664008499821648,True,32,1
AK-K-19K19S2,335,experiment,92,↑,up,↑,0.5664749999996275,True,32,1
AK-K-19K19S2,336,experiment,67,↑,up,↑,0.5132637999486178,True,32,1
AK-K-19K19S2,337,experiment,100,↑,up,↑,0.75500230002217,True,32,1
AK-K-19K19S2,338,experiment,75,↑,up,↑,0.6352361000608653,True,32,1
AK-K-19K19S2,339,experiment,81,←,left,←,0.7107541998848319,True,32,1
AK-K-19K19S2,340,experiment,82,↑,up,↑,0.5346724002156407,True,32,1
AK-K-19K19S2,341,experiment,107,↑,up,↑,1.0131106001790613,True,32,1
AK-K-19K19S2,342,experiment,102,→,right,→,0.4093649999704212,True,32,1
AK-K-19K19S2,343,experiment,89,←,left,←,0.635711699957028,True,32,0
AK-K-19K19S2,344,experiment,54,↓,down,↓,0.6798467999324203,True,32,1
AK-K-19K19S2,345,experiment,98,↓,down,↓,0.8597564999945462,True,32,1
AK-K-19K19S2,346,experiment,95,→,right,→,0.5132456000428647,True,32,1
AK-K-19K19S2,347,experiment,87,↑,up,↑,0.6391632000450045,True,32,1
AK-K-19K19S2,348,experiment,73,←,left,←,0.5730491001158953,True,32,1
AK-K-19K19S2,349,experiment,99,←,left,←,0.6447165999561548,True,32,1
AK-K-19K19S2,350,experiment,85,↑,up,↑,0.5100690999533981,True,32,1
AK-K-19K19S2,351,experiment,93,→,right,→,0.6025109000038356,True,32,1
AK-K-19K19S2,352,experiment,72,←,left,←,0.6340126001741737,True,32,1
AK-K-19K19S2,353,experiment,69,↑,up,↑,0.6495997998863459,True,32,1
AK-K-19K19S2,354,experiment,62,→,right,→,0.45890070009045303,True,32,1
AK-K-19K19S2,355,experiment,48,↓,down,↓,0.6882895000744611,True,32,1
AK-K-19K19S2,356,training,84,→,left,←,0.43890270008705556,False,31,0
AK-K-19K19S2,357,training,67,↑,up,↑,0.48703459999524057,True,31,1
AK-K-19K19S2,358,experiment,83,→,right,→,0.4476310000754893,True,31,1
AK-K-19K19S2,359,experiment,55,→,right,→,0.47478499985300004,True,31,1
AK-K-19K19S2,360,experiment,99,↓,down,↓,0.6865459999535233,True,31,1
AK-K-19K19S2,361,experiment,57,→,right,→,0.4479447000194341,True,31,1
AK-K-19K19S2,362,experiment,95,↓,down,↓,0.7257145999465138,True,31,1
AK-K-19K19S2,363,experiment,81,←,left,←,0.5817360000219196,True,31,1
AK-K-19K19S2,364,experiment,58,↓,down,↓,0.5789525997824967,True,31,1
AK-K-19K19S2,365,experiment,49,←,left,←,0.451031600125134,True,31,1
AK-K-19K19S2,366,experiment,84,→,right,→,0.5725384000688791,True,31,1
AK-K-19K19S2,367,experiment,105,↓,down,↓,0.6183539000339806,True,31,1
AK-K-19K19S2,368,experiment,86,↑,up,↑,0.6606318999547511,True,31,1
AK-K-19K19S2,369,experiment,65,↑,up,↑,0.4764628999400884,True,31,1
AK-K-19K19S2,370,experiment,102,↑,up,↑,0.6312518999911845,True,31,1
AK-K-19K19S2,371,experiment,87,←,left,←,1.0483826999552548,True,31,1
AK-K-19K19S2,372,experiment,59,←,left,←,0.6024418000597507,True,31,1
AK-K-19K19S2,373,experiment,88,↑,up,↑,0.4768918000627309,True,31,1
AK-K-19K19S2,374,experiment,98,↓,down,↓,0.6649567000567913,True,31,1
AK-K-19K19S2,375,experiment,76,←,left,←,0.5327765999827534,True,31,1
AK-K-19K19S2,376,experiment,85,→,right,→,0.5307100000791252,True,31,1
AK-K-19K19S2,377,experiment,69,←,left,←,0.6060665999539196,True,31,1
AK-K-19K19S2,378,experiment,71,→,right,→,0.517746499972418,True,31,1
AK-K-19K19S2,379,experiment,90,↓,down,↓,0.7149543999694288,True,31,1
AK-K-19K19S2,380,experiment,67,↓,down,↓,0.623668699990958,True,31,1
AK-K-19K19S2,381,experiment,97,↑,up,↑,0.9019582998007536,True,31,1
AK-K-19K19S2,382,experiment,82,←,left,←,0.8864740000572056,True,31,1
AK-K-19K19S2,383,experiment,96,↑,up,↑,0.4903714000247419,True,31,1
AK-K-19K19S2,384,experiment,60,→,right,→,0.49053319985978305,True,31,1
AK-K-19K19S2,385,experiment,73,→,right,→,0.6302685001865029,True,31,1
AK-K-19K19S2,386,experiment,101,←,left,←,0.5069208999630064,True,31,1
AK-K-19K19S2,387,experiment,70,→,right,→,0.43117680004797876,True,31,1
AK-K-19K19S2,388,experiment,51,↑,up,↑,0.4367041999939829,True,31,0
AK-K-19K19S2,389,experiment,92,↑,up,↑,0.4758010001387447,True,31,1
AK-K-19K19S2,390,experiment,108,↑,up,↑,0.5406253000255674,True,31,1
AK-K-19K19S2,391,experiment,100,→,right,→,0.517291400115937,True,31,1
AK-K-19K19S2,392,experiment,63,↑,up,↑,0.611313900211826,True,31,1
AK-K-19K19S2,393,experiment,68,→,right,→,0.9560706000775099,True,31,1
AK-K-19K19S2,394,experiment,94,←,left,←,0.6860854001715779,True,31,1
AK-K-19K19S2,395,experiment,56,←,left,←,0.6396836000494659,True,31,1
AK-K-19K19S2,396,experiment,62,→,right,→,0.5292760001029819,True,31,1
AK-K-19K19S2,397,experiment,54,↑,up,↑,0.6260917000472546,True,31,1
AK-K-19K19S2,398,experiment,48,→,right,→,0.6163759999908507,True,31,1
AK-K-19K19S2,399,experiment,78,↓,down,↓,0.8935924000106752,True,31,1
AK-K-19K19S2,400,experiment,75,↑,up,↑,0.6326276999898255,True,31,1
AK-K-19K19S2,401,experiment,107,↑,up,↑,0.5391037999652326,True,31,1
AK-K-19K19S2,402,experiment,79,←,left,←,0.6276813999284059,True,31,1
AK-K-19K19S2,403,experiment,80,↑,down,↓,1.0790900001302361,False,31,1
AK-K-19K19S2,404,experiment,64,↓,down,↓,0.7418496999889612,True,31,1
AK-K-19K19S2,405,experiment,74,↑,up,↑,0.7595814999658614,True,31,1
AK-K-19K19S2,406,experiment,103,←,left,←,0.5742967000696808,True,31,1
AK-K-19K19S2,407,experiment,91,←,left,←,0.6646424999926239,True,31,1
AK-K-19K19S2,408,experiment,104,↓,down,↓,0.7550114998593926,True,31,1
AK-K-19K19S2,409,experiment,89,↓,down,↓,0.7510378998704255,True,31,1
AK-K-19K19S2,410,experiment,106,→,right,→,0.6131474999710917,True,31,1
AK-K-19K19S2,411,experiment,61,↑,up,↑,0.7198406001552939,True,31,1
AK-K-19K19S2,412,experiment,66,←,left,←,0.6128913001157343,True,31,1
AK-K-19K19S2,413,experiment,50,↑,up,↑,0.723293999908492,True,31,1
AK-K-19K19S2,414,experiment,53,↑,up,↑,0.7084818000439554,True,31,1
AK-K-19K19S2,415,experiment,93,↑,up,↑,1.4890324999578297,True,31,1
AK-K-19K19S2,416,experiment,77,↓,down,↓,0.882933999877423,True,31,1
AK-K-19K19S2,417,experiment,52,↓,down,↓,0.566158999921754,True,31,1
AK-K-19K19S2,418,experiment,72,←,left,←,0.6552065000869334,True,31,1
AK-K-19K19S2,419,training,104,→,right,→,0.5081827999092638,True,30,0
AK-K-19K19S2,420,training,78,↑,up,↑,0.5097250000108033,True,30,1
AK-K-19K19S2,421,experiment,103,←,left,←,0.5428556001279503,True,30,1
AK-K-19K19S2,422,experiment,105,↑,up,↑,0.5578036000952125,True,30,1
AK-K-19K19S2,423,experiment,53,→,right,→,0.6615226999856532,True,30,1
AK-K-19K19S2,424,experiment,81,↓,down,↓,0.6639022999443114,True,30,1
AK-K-19K19S2,425,experiment,68,↓,down,↓,0.5263076000846922,True,30,1
AK-K-19K19S2,426,experiment,91,←,left,←,0.5942545998841524,True,30,1
AK-K-19K19S2,427,experiment,55,↓,down,↓,0.49608150008134544,True,30,1
AK-K-19K19S2,428,experiment,107,↓,down,↓,0.45647770003415644,True,30,1
AK-K-19K19S2,429,experiment,106,↑,up,↑,0.9066542000509799,True,30,1
AK-K-19K19S2,430,experiment,93,↑,up,↑,0.5027937998529524,True,30,1
AK-K-19K19S2,431,experiment,79,→,right,→,0.46405990002676845,True,30,1
AK-K-19K19S2,432,experiment,100,↓,down,↓,0.9798848999198526,True,30,1
AK-K-19K19S2,433,experiment,50,←,left,←,0.8276372998952866,True,30,1
AK-K-19K19S2,434,experiment,51,→,right,→,0.545351600041613,True,30,1
AK-K-19K19S2,435,experiment,99,↓,down,↓,0.5700840000063181,True,30,1
AK-K-19K19S2,436,experiment,73,↑,up,↑,0.5790164000354707,True,30,1
AK-K-19K19S2,437,experiment,80,←,left,←,0.5925839999690652,True,30,1
AK-K-19K19S2,438,experiment,85,↑,up,↑,0.5562288002111018,True,30,1
AK-K-19K19S2,439,experiment,87,↓,down,↓,0.7847051999997348,True,30,1
AK-K-19K19S2,440,experiment,63,→,right,→,0.39199629984796047,True,30,1
AK-K-19K19S2,441,experiment,72,→,right,→,0.611847500083968,True,30,0
AK-K-19K19S2,442,experiment,101,↓,down,↓,0.809505500132218,True,30,1
AK-K-19K19S2,443,experiment,54,→,right,→,1.0469428999349475,True,30,1
AK-K-19K19S2,444,experiment,75,↑,down,↓,1.1714697999414057,False,30,1
AK-K-19K19S2,445,experiment,52,↓,down,↓,0.7948695998638868,True,30,1
AK-K-19K19S2,446,experiment,88,→,right,→,0.533419799990952,True,30,1
AK-K-19K19S2,447,experiment,59,↓,down,↓,0.7242813999764621,True,30,1
AK-K-19K19S2,448,experiment,74,↑,down,↓,1.1824459000490606,False,30,1
AK-K-19K19S2,449,experiment,102,↑,up,↑,0.6769022999797016,True,30,1
AK-K-19K19S2,450,experiment,57,→,right,→,0.6143359998241067,True,30,1
AK-K-19K19S2,451,experiment,97,↓,down,↓,0.8371224000584334,True,30,1
AK-K-19K19S2,452,experiment,49,↑,up,↑,0.5868609000463039,True,30,1
AK-K-19K19S2,453,experiment,92,↑,down,↓,1.180094299837947,False,30,1
AK-K-19K19S2,454,experiment,66,←,left,←,0.6865294000599533,True,30,1
AK-K-19K19S2,455,experiment,82,↓,down,↓,0.815441400045529,True,30,1
AK-K-19K19S2,456,experiment,89,↑,up,↑,0.5048744000960141,True,30,1
AK-K-19K19S2,457,experiment,70,↓,down,↓,0.7408805000595748,True,30,1
AK-K-19K19S2,458,experiment,60,↑,up,↑,0.8110420000739396,True,30,1
AK-K-19K19S2,459,experiment,108,→,right,→,0.47805979987606406,True,30,1
AK-K-19K19S2,460,experiment,78,←,left,←,0.7127073998562992,True,30,1
AK-K-19K19S2,461,experiment,62,→,right,→,0.6471535000018775,True,30,1
AK-K-19K19S2,462,experiment,76,←,left,←,0.6915724000427872,True,30,1
AK-K-19K19S2,463,experiment,98,←,left,←,0.8549015000462532,True,30,1
AK-K-19K19S2,464,experiment,67,→,right,→,0.6938877999782562,True,30,1
AK-K-19K19S2,465,experiment,56,↑,up,↑,0.8708081000950187,True,30,1
AK-K-19K19S2,466,experiment,65,→,right,→,0.734035300090909,True,30,1
AK-K-19K19S2,467,experiment,64,←,left,←,0.659026299836114,True,30,1
AK-K-19K19S2,468,experiment,71,↑,up,↑,0.5449250999372452,True,30,1
AK-K-19K19S2,469,experiment,77,←,left,←,0.7292486999649554,True,30,1
AK-K-19K19S2,470,experiment,84,↑,up,↑,0.5515264000277966,True,30,1
AK-K-19K19S2,471,experiment,104,→,right,→,0.5427067999262363,True,30,1
AK-K-19K19S2,472,experiment,95,←,left,←,0.5930639998987317,True,30,1
AK-K-19K19S2,473,experiment,61,←,left,←,0.6846872000023723,True,30,1
AK-K-19K19S2,474,experiment,58,→,right,→,0.549804599955678,True,30,1
AK-K-19K19S2,475,experiment,96,←,left,←,0.4475211000535637,True,30,1
AK-K-19K19S2,476,experiment,86,↓,down,↓,1.0406414000317454,True,30,1
AK-K-19K19S2,477,experiment,94,→,right,→,0.6233043000102043,True,30,1
AK-K-19K19S2,478,experiment,69,↑,up,↑,0.655082699842751,True,30,1
AK-K-19K19S2,479,experiment,83,↑,up,↑,0.5685525999870151,True,30,1
AK-K-19K19S2,480,experiment,48,←,left,←,0.6414783999789506,True,30,1
AK-K-19K19S2,481,experiment,90,↓,down,↓,0.8975792999844998,True,30,1
AK-K-19K19S2,482,training,60,↓,down,↓,0.7190437999088317,True,29,0
AK-K-19K19S2,483,training,107,↑,down,↓,0.8702491000294685,False,29,1
AK-K-19K19S2,484,experiment,72,↓,down,↓,0.6352040998172015,True,29,1
AK-K-19K19S2,485,experiment,61,↓,down,↓,0.6532304999418557,True,29,1
AK-K-19K19S2,486,experiment,59,↓,down,↓,0.6789720999076962,True,29,1
AK-K-19K19S2,487,experiment,101,↑,up,↑,0.5698611999396235,True,29,1
AK-K-19K19S2,488,experiment,67,↑,up,↑,0.5003871000371873,True,29,1
AK-K-19K19S2,489,experiment,53,←,left,←,0.5826256999280304,True,29,1
AK-K-19K19S2,490,experiment,48,↓,down,↓,0.614845999982208,True,29,1
AK-K-19K19S2,491,experiment,80,↓,down,↓,0.6833009999245405,True,29,1
AK-K-19K19S2,492,experiment,96,↑,down,↓,1.0638043999206275,False,29,1
AK-K-19K19S2,493,experiment,99,↓,down,↓,0.7078853000421077,True,29,1
AK-K-19K19S2,494,experiment,63,←,left,←,0.5860567998606712,True,29,1
AK-K-19K19S2,495,experiment,108,←,left,←,0.5425889000762254,True,29,1
AK-K-19K19S2,496,experiment,102,↑,up,↑,0.5505159001331776,True,29,1
AK-K-19K19S2,497,experiment,49,↓,down,↓,0.6642756001092494,True,29,1
AK-K-19K19S2,498,experiment,78,→,right,→,0.5228943000547588,True,29,1
AK-K-19K19S2,499,experiment,70,←,left,←,0.6623383001424372,True,29,1
AK-K-19K19S2,500,experiment,68,↓,down,↓,0.7968016001395881,True,29,1
AK-K-19K19S2,501,experiment,83,↑,up,↑,0.6248959999065846,True,29,1
AK-K-19K19S2,502,experiment,84,↓,down,↓,0.6274377000518143,True,29,1
AK-K-19K19S2,503,experiment,89,←,left,←,0.5245863001327962,True,29,1
AK-K-19K19S2,504,experiment,100,↑,down,↓,1.158003699965775,False,29,1
AK-K-19K19S2,505,experiment,103,↓,down,↓,0.6608263999223709,True,29,1
AK-K-19K19S2,506,experiment,56,↑,up,↑,0.5597102001775056,True,29,1
AK-K-19K19S2,507,experiment,52,←,left,←,0.6795705000404269,True,29,1
AK-K-19K19S2,508,experiment,77,↑,up,↑,1.1867813998833299,True,29,1
AK-K-19K19S2,509,experiment,57,→,right,→,0.5358965999912471,True,29,1
AK-K-19K19S2,510,experiment,106,←,left,←,0.6783338999375701,True,29,1
AK-K-19K19S2,511,experiment,91,→,right,→,0.701308700023219,True,29,1
AK-K-19K19S2,512,experiment,92,↑,up,↑,0.5859437000472099,True,29,1
AK-K-19K19S2,513,experiment,79,→,right,→,0.5594955999404192,True,29,1
AK-K-19K19S2,514,experiment,97,→,right,→,0.6885346001945436,True,29,1
AK-K-19K19S2,515,experiment,87,←,left,←,0.655506799928844,True,29,1
AK-K-19K19S2,516,experiment,107,←,left,←,0.9457895001396537,True,29,1
AK-K-19K19S2,517,experiment,76,↑,up,↑,0.6495499999728054,True,29,1
AK-K-19K19S2,518,experiment,73,←,left,←,0.7591341999359429,True,29,1
AK-K-19K19S2,519,experiment,50,↑,up,↑,0.7438636000733823,True,29,1
AK-K-19K19S2,520,experiment,71,↑,up,↑,0.6903808999340981,True,29,1
AK-K-19K19S2,521,experiment,65,←,left,←,0.6725920001044869,True,29,1
AK-K-19K19S2,522,experiment,66,←,left,←,0.6953373998403549,True,29,1
AK-K-19K19S2,523,experiment,69,↑,up,↑,0.6124229999259114,True,29,1
AK-K-19K19S2,524,experiment,98,←,left,←,0.6746590998955071,True,29,1
AK-K-19K19S2,525,experiment,104,←,left,←,0.6447070001158863,True,29,1
AK-K-19K19S2,526,experiment,54,↓,down,↓,0.7209452998358756,True,29,1
AK-K-19K19S2,527,experiment,60,↓,down,↓,0.6559631999116391,True,29,1
AK-K-19K19S2,528,experiment,75,↓,down,↓,0.6365473000332713,True,29,1
AK-K-19K19S2,529,experiment,82,↓,down,↓,0.6554257001262158,True,29,1
AK-K-19K19S2,530,experiment,86,↓,down,↓,0.7202702001668513,True,29,1
AK-K-19K19S2,531,experiment,74,↓,down,↓,0.7301000999286771,True,29,1
AK-K-19K19S2,532,experiment,90,↓,down,↓,0.6464732000604272,True,29,1
AK-K-19K19S2,533,experiment,88,←,left,←,0.7348221000283957,True,29,1
AK-K-19K19S2,534,experiment,62,↓,down,↓,0.7724794999230653,True,29,1
AK-K-19K19S2,535,experiment,55,→,right,→,0.5229841999243945,True,29,1
AK-K-19K19S2,536,experiment,94,→,left,←,0.8462713998742402,False,29,1
AK-K-19K19S2,537,experiment,93,←,left,←,0.6848780999425799,True,29,1
AK-K-19K19S2,538,experiment,85,→,right,→,0.637107300106436,True,29,1
AK-K-19K19S2,539,experiment,51,→,right,→,0.7544027999974787,True,29,1
AK-K-19K19S2,540,experiment,64,↑,up,↑,0.6141922001261264,True,29,1
AK-K-19K19S2,541,experiment,95,↑,up,↑,0.6295294999144971,True,29,1
AK-K-19K19S2,542,experiment,81,↑,up,↑,0.7607074999250472,True,29,1
AK-K-19K19S2,543,experiment,105,←,left,←,0.6393734000157565,True,29,1
AK-K-19K19S2,544,experiment,58,↓,down,↓,0.7699862001463771,True,29,1
AK-K-19K19S2,545,training,79,↓,down,↓,0.683241100050509,True,28,0
AK-K-19K19S2,546,training,102,←,left,←,0.5177413001656532,True,28,1
AK-K-19K19S2,547,experiment,62,↓,down,↓,0.8442017000634223,True,28,1
AK-K-19K19S2,548,experiment,78,↓,down,↓,0.6162340000737458,True,28,1
AK-K-19K19S2,549,experiment,53,←,down,↓,0.8936683000065386,False,28,1
AK-K-19K19S2,550,experiment,108,↑,up,↑,0.6454872000031173,True,28,1
AK-K-19K19S2,551,experiment,70,←,left,←,0.5720035000704229,True,28,1
AK-K-19K19S2,552,experiment,85,↑,up,↑,0.6882152000907809,True,28,1
AK-K-19K19S2,553,experiment,100,←,left,←,0.5230085998773575,True,28,1
AK-K-19K19S2,554,experiment,67,←,left,←,0.663189799990505,True,28,1
AK-K-19K19S2,555,experiment,66,↑,down,↓,1.1027784999459982,False,28,1
AK-K-19K19S2,556,experiment,81,↓,down,↓,0.6950683000031859,True,28,1
AK-K-19K19S2,557,experiment,90,←,left,←,0.36706870002672076,True,28,1
AK-K-19K19S2,558,experiment,102,→,right,→,0.5874491999857128,True,28,0
AK-K-19K19S2,559,experiment,74,↑,up,↑,0.5310011000838131,True,28,1
AK-K-19K19S2,560,experiment,92,↑,down,↓,0.7745383000001311,False,28,1
AK-K-19K19S2,561,experiment,79,←,left,←,0.5728965001180768,True,28,1
AK-K-19K19S2,562,experiment,80,→,right,→,0.5711215999908745,True,28,1
AK-K-19K19S2,563,experiment,93,↑,up,↑,0.5807979998644441,True,28,1
AK-K-19K19S2,564,experiment,106,←,left,←,0.6257913000881672,True,28,1
AK-K-19K19S2,565,experiment,60,←,left,←,0.6684584999457002,True,28,1
AK-K-19K19S2,566,experiment,82,↑,down,↓,1.462012000149116,False,28,1
AK-K-19K19S2,567,experiment,52,↓,down,↓,0.7214941999409348,True,28,1
AK-K-19K19S2,568,experiment,84,↓,down,↓,0.7121588001027703,True,28,1
AK-K-19K19S2,569,experiment,83,↓,down,↓,0.6477904000785202,True,28,1
AK-K-19K19S2,570,experiment,69,→,right,→,0.678617199882865,True,28,1
AK-K-19K19S2,571,experiment,87,↑,up,↑,0.5341155000496656,True,28,1
AK-K-19K19S2,572,experiment,54,↓,down,↓,0.6466240999288857,True,28,1
AK-K-19K19S2,573,experiment,68,←,left,←,0.6532761000562459,True,28,1
AK-K-19K19S2,574,experiment,104,↑,up,↑,0.5526453999336809,True,28,1
AK-K-19K19S2,575,experiment,105,↓,down,↓,0.6629107999615371,True,28,1
AK-K-19K19S2,576,experiment,49,↓,down,↓,0.5319124001543969,True,28,1
AK-K-19K19S2,577,experiment,94,↑,up,↑,0.5350536999758333,True,28,1
AK-K-19K19S2,578,experiment,76,↑,up,↑,0.8800900999922305,True,28,1
AK-K-19K19S2,579,experiment,97,→,right,→,0.5561132000293583,True,28,1
AK-K-19K19S2,580,experiment,56,↑,up,↑,1.7628705999813974,True,28,1
AK-K-19K19S2,581,experiment,101,←,left,←,0.5781851001083851,True,28,1
AK-K-19K19S2,582,experiment,59,↑,up,↑,0.4551083000842482,True,28,1
AK-K-19K19S2,583,experiment,96,↓,down,↓,0.6285095999483019,True,28,1
AK-K-19K19S2,584,experiment,50,↓,down,↓,0.6824139999225736,True,28,1
AK-K-19K19S2,585,experiment,77,→,right,→,0.604975099908188,True,28,1
AK-K-19K19S2,586,experiment,107,→,right,→,0.6007388997823,True,28,1
AK-K-19K19S2,587,experiment,98,→,right,→,0.535856100032106,True,28,1
AK-K-19K19S2,588,experiment,89,→,right,→,1.0204210998490453,True,28,1
AK-K-19K19S2,589,experiment,58,↑,up,↑,0.7438350999727845,True,28,1
AK-K-19K19S2,590,experiment,55,↑,up,↑,0.7755759998690337,True,28,1
AK-K-19K19S2,591,experiment,61,←,left,←,0.8759921998716891,True,28,1
AK-K-19K19S2,592,experiment,75,→,right,→,0.6558022999670357,True,28,1
AK-K-19K19S2,593,experiment,48,←,left,←,0.7328107000794262,True,28,1
AK-K-19K19S2,594,experiment,71,↑,up,↑,0.7837437000125647,True,28,1
AK-K-19K19S2,595,experiment,95,↑,up,↑,0.7523908000439405,True,28,1
AK-K-19K19S2,596,experiment,86,↑,up,↑,0.685491600073874,True,28,1
AK-K-19K19S2,597,experiment,63,↑,up,↑,0.8207973998505622,True,28,1
AK-K-19K19S2,598,experiment,73,←,left,←,0.7472218000330031,True,28,1
AK-K-19K19S2,599,experiment,64,↓,down,↓,0.7515912000089884,True,28,1
AK-K-19K19S2,600,experiment,91,↓,down,↓,0.7390518998727202,True,28,1
AK-K-19K19S2,601,experiment,51,↓,down,↓,0.6360714000184089,True,28,1
AK-K-19K19S2,602,experiment,65,↑,up,↑,0.7163452000822872,True,28,1
AK-K-19K19S2,603,experiment,72,←,left,←,0.711374299833551,True,28,1
AK-K-19K19S2,604,experiment,103,↓,down,↓,0.5282034000847489,True,28,1
AK-K-19K19S2,605,experiment,88,←,left,←,0.6295926999300718,True,28,1
AK-K-19K19S2,606,experiment,57,↓,down,↓,0.5770531999878585,True,28,1
AK-K-19K19S2,607,experiment,99,↑,down,↓,1.4727070999797434,False,28,1
AK-K-19K19S2,608,training,81,→,right,→,0.5486454998608679,True,28,0
AK-K-19K19S2,609,training,78,↓,down,↓,0.684378300094977,True,28,1
AK-K-19K19S2,610,experiment,101,↓,down,↓,0.5590367000550032,True,28,1
AK-K-19K19S2,611,experiment,102,↑,up,↑,0.8705610001925379,True,28,1
AK-K-19K19S2,612,experiment,81,←,left,←,0.536207300145179,True,28,1
AK-K-19K19S2,613,experiment,64,↑,up,↑,0.653415200067684,True,28,1
AK-K-19K19S2,614,experiment,55,↓,down,↓,0.6722597000189126,True,28,1
AK-K-19K19S2,615,experiment,58,←,left,←,0.601727600209415,True,28,1
AK-K-19K19S2,616,experiment,93,→,left,←,0.5787250997964293,False,28,1
AK-K-19K19S2,617,experiment,82,→,right,→,0.743391599971801,True,28,1
AK-K-19K19S2,618,experiment,98,←,right,→,0.8731668000109494,False,28,1
AK-K-19K19S2,619,experiment,48,↑,up,↑,0.5655091998632997,True,28,1
AK-K-19K19S2,620,experiment,53,←,left,←,0.6130219001788646,True,28,1
AK-K-19K19S2,621,experiment,70,↑,up,↑,0.6608241000212729,True,28,1
AK-K-19K19S2,622,experiment,60,→,right,→,0.6062741000205278,True,28,1
AK-K-19K19S2,623,experiment,96,↓,down,↓,0.6455665999092162,True,28,1
AK-K-19K19S2,624,experiment,87,↓,down,↓,0.750567200127989,True,28,1
AK-K-19K19S2,625,experiment,65,↓,down,↓,0.6988194000441581,True,28,1
AK-K-19K19S2,626,experiment,100,→,left,←,0.7729156999848783,False,28,1
AK-K-19K19S2,627,experiment,106,→,right,→,0.7541739998850971,True,28,1
AK-K-19K19S2,628,experiment,71,↑,up,↑,0.5641258999239653,True,28,1
AK-K-19K19S2,629,experiment,61,↑,up,↑,0.7684003999456763,True,28,1
AK-K-19K19S2,630,experiment,49,→,right,→,0.6814013998955488,True,28,1
AK-K-19K19S2,631,experiment,104,↓,down,↓,0.7151613000314683,True,28,1
AK-K-19K19S2,632,experiment,73,↓,down,↓,0.8378103999421,True,28,1
AK-K-19K19S2,633,experiment,52,←,left,←,0.6746080999728292,True,28,1
AK-K-19K19S2,634,experiment,92,→,down,↓,1.2407236001454294,False,28,1
AK-K-19K19S2,635,experiment,63,↓,down,↓,0.7776019999291748,True,28,1
AK-K-19K19S2,636,experiment,86,→,right,→,0.5975901000201702,True,28,1
AK-K-19K19S2,637,experiment,108,↓,down,↓,0.6973496000282466,True,28,1
AK-K-19K19S2,638,experiment,79,←,left,←,0.5950589999556541,True,28,1
AK-K-19K19S2,639,experiment,84,→,right,→,0.6308291999157518,True,28,1
AK-K-19K19S2,640,experiment,90,→,left,←,1.1749864001758397,False,28,1
AK-K-19K19S2,641,experiment,54,→,right,→,0.6058449000120163,True,28,1
AK-K-19K19S2,642,experiment,76,←,left,←,0.651789000025019,True,28,1
AK-K-19K19S2,643,experiment,91,↓,down,↓,0.6113068000413477,True,28,1
AK-K-19K19S2,644,experiment,59,←,left,←,1.5107329001184553,True,28,1
AK-K-19K19S2,645,experiment,94,↓,down,↓,0.7224323998671025,True,28,1
AK-K-19K19S2,646,experiment,89,↓,down,↓,0.6554541001096368,True,28,1
AK-K-19K19S2,647,experiment,72,↑,up,↑,0.6368825999088585,True,28,1
AK-K-19K19S2,648,experiment,77,↑,up,↑,0.7616442998405546,True,28,1
AK-K-19K19S2,649,experiment,51,↑,up,↑,0.834163699997589,True,28,1
AK-K-19K19S2,650,experiment,95,←,left,←,0.6812255000695586,True,28,1
AK-K-19K19S2,651,experiment,62,↑,down,↓,1.7450470998883247,False,28,1
AK-K-19K19S2,652,experiment,97,↑,up,↑,0.6262744998093694,True,28,1
AK-K-19K19S2,653,experiment,57,←,left,←,0.6058547999709845,True,28,1
AK-K-19K19S2,654,experiment,85,↑,down,↓,1.072850099997595,False,28,1
AK-K-19K19S2,655,experiment,56,←,left,←,0.5469855000264943,True,28,1
AK-K-19K19S2,656,experiment,83,→,right,→,0.5848424001596868,True,28,1
AK-K-19K19S2,657,experiment,105,→,right,→,0.6302879999857396,True,28,1
AK-K-19K19S2,658,experiment,99,↓,down,↓,0.8595724999904633,True,28,1
AK-K-19K19S2,659,experiment,69,→,right,→,1.2499425997957587,True,28,1
AK-K-19K19S2,660,experiment,103,→,right,→,0.5732356000225991,True,28,1
AK-K-19K19S2,661,experiment,107,↑,up,↑,0.84236010001041,True,28,1
AK-K-19K19S2,662,experiment,67,↓,down,↓,0.6819392000325024,True,28,1
AK-K-19K19S2,663,experiment,75,↓,down,↓,0.6452581998892128,True,28,1
AK-K-19K19S2,664,experiment,74,→,right,→,0.6743870999198407,True,28,1
AK-K-19K19S2,665,experiment,66,→,right,→,0.4571118000894785,True,28,1
AK-K-19K19S2,666,experiment,68,↓,down,↓,0.6477097999304533,True,28,1
AK-K-19K19S2,667,experiment,78,←,left,←,0.6036247001029551,True,28,1
AK-K-19K19S2,668,experiment,50,→,right,→,0.6184466001577675,True,28,1
AK-K-19K19S2,669,experiment,88,→,right,→,0.7880469001829624,True,28,1
AK-K-19K19S2,670,experiment,80,↓,down,↓,0.7375295998062938,True,28,1
AK-K-19K19S2,671,training,91,→,right,→,0.5779744000174105,True,28,0
AK-K-19K19S2,672,training,79,↓,down,↓,0.6643568000290543,True,28,1
AK-K-19K19S2,673,experiment,108,→,right,→,0.4653569001238793,True,28,1
AK-K-19K19S2,674,experiment,91,↑,down,↓,1.0800878000445664,False,28,1
AK-K-19K19S2,675,experiment,89,↑,down,↓,1.5670054000802338,False,28,1
AK-K-19K19S2,676,experiment,72,↑,up,↑,0.7996546998620033,True,28,1
AK-K-19K19S2,677,experiment,61,↑,up,↑,0.8269921999890357,True,28,1
AK-K-19K19S2,678,experiment,58,→,right,→,0.6144337998703122,True,28,1
AK-K-19K19S2,679,experiment,97,↓,down,↓,0.7091510999016464,True,28,1
AK-K-19K19S2,680,experiment,78,→,right,→,0.7426444001030177,True,28,1
AK-K-19K19S2,681,experiment,90,↓,down,↓,0.6664143998641521,True,28,1
AK-K-19K19S2,682,experiment,82,↓,down,↓,0.6045067999511957,True,28,1
AK-K-19K19S2,683,experiment,71,←,left,←,0.6440318999812007,True,28,1
AK-K-19K19S2,684,experiment,68,↑,down,↓,1.0756551001686603,False,28,1
AK-K-19K19S2,685,experiment,106,→,right,→,0.5567191999871284,True,28,1
AK-K-19K19S2,686,experiment,74,↓,down,↓,0.581378199858591,True,28,1
AK-K-19K19S2,687,experiment,98,↓,down,↓,0.589340299833566,True,28,1
AK-K-19K19S2,688,experiment,101,↑,up,↑,0.7234004999045283,True,28,1
AK-K-19K19S2,689,experiment,86,↓,down,↓,0.9135959998238832,True,28,1
AK-K-19K19S2,690,experiment,63,↓,down,↓,0.7034728999715298,True,28,1
AK-K-19K19S2,691,experiment,54,→,right,→,0.6088612999301404,True,28,1
AK-K-19K19S2,692,experiment,95,←,right,→,0.672547800000757,False,28,1
AK-K-19K19S2,693,experiment,87,←,left,←,0.6724533999804407,True,28,1
AK-K-19K19S2,694,experiment,73,→,right,→,0.9325927998870611,True,28,1
AK-K-19K19S2,695,experiment,50,↓,down,↓,0.6304933000355959,True,28,1
AK-K-19K19S2,696,experiment,88,↑,down,↓,0.9755836999975145,False,28,1
AK-K-19K19S2,697,experiment,49,→,right,→,0.4478152000810951,True,28,1
AK-K-19K19S2,698,experiment,48,↓,down,↓,0.6534744999371469,True,28,1
AK-K-19K19S2,699,experiment,52,↓,down,↓,0.9941713002044708,True,28,1
AK-K-19K19S2,700,experiment,103,↑,down,↓,1.5598722998984158,False,28,1
AK-K-19K19S2,701,experiment,76,↓,down,↓,0.6557304000016302,True,28,1
AK-K-19K19S2,702,experiment,69,→,right,→,0.6220295999664813,True,28,1
AK-K-19K19S2,703,experiment,94,→,right,→,0.6213752999901772,True,28,1
AK-K-19K19S2,704,experiment,56,→,right,→,0.6415305000264198,True,28,1
AK-K-19K19S2,705,experiment,67,←,left,←,0.5451452000997961,True,28,1
AK-K-19K19S2,706,experiment,79,→,right,→,0.6248194999061525,True,28,1
AK-K-19K19S2,707,experiment,85,↓,down,↓,0.8832211000844836,True,28,1
AK-K-19K19S2,708,experiment,81,→,right,→,0.6448507001623511,True,28,1
AK-K-19K19S2,709,experiment,65,↑,down,↓,1.5731905999127775,False,28,1
AK-K-19K19S2,710,experiment,105,↓,down,↓,0.7065872000530362,True,28,1
AK-K-19K19S2,711,experiment,70,↓,down,↓,0.718447299906984,True,28,1
AK-K-19K19S2,712,experiment,80,→,right,→,0.75898990011774,True,28,1
AK-K-19K19S2,713,experiment,104,←,left,←,1.125728900078684,True,28,1
AK-K-19K19S2,714,experiment,92,↓,down,↓,0.7297376000788063,True,28,1
AK-K-19K19S2,715,experiment,66,↑,down,↓,1.6461195000447333,False,28,1
AK-K-19K19S2,716,experiment,100,↓,down,↓,0.6183078999165446,True,28,1
AK-K-19K19S2,717,experiment,53,↑,up,↑,0.8556426998693496,True,28,1
AK-K-19K19S2,718,experiment,57,↓,down,↓,0.6824116001371294,True,28,1
AK-K-19K19S2,719,experiment,55,↑,up,↑,1.1720918000210077,True,28,1
AK-K-19K19S2,720,experiment,93,→,right,→,0.4457497999537736,True,28,1
AK-K-19K19S2,721,experiment,75,↑,down,↓,1.1067889002151787,False,28,1
AK-K-19K19S2,722,experiment,99,→,right,→,0.47685690014623106,True,28,1
AK-K-19K19S2,723,experiment,60,↓,down,↓,0.6859801998361945,True,28,1
AK-K-19K19S2,724,experiment,102,←,left,←,0.6400749001186341,True,28,1
AK-K-19K19S2,725,experiment,83,↓,down,↓,0.9385179998353124,True,28,1
AK-K-19K19S2,726,experiment,62,↓,down,↓,0.6160477001685649,True,28,1
AK-K-19K19S2,727,experiment,77,→,right,→,0.7175992999691516,True,28,1
AK-K-19K19S2,728,experiment,64,↓,down,↓,0.563002300215885,True,28,1
AK-K-19K19S2,729,experiment,59,↑,up,↑,0.6485766000114381,True,28,1
AK-K-19K19S2,730,experiment,84,→,right,→,0.5303291000891477,True,28,1
AK-K-19K19S2,731,experiment,51,↓,down,↓,0.6757527999579906,True,28,1
AK-K-19K19S2,732,experiment,96,→,right,→,1.6244834999088198,True,28,1
AK-K-19K19S2,733,experiment,107,↑,down,↓,1.2513452998828143,False,28,1
AK-K-19K19S2,734,training,49,↑,up,↑,1.1690330998972058,True,28,0
AK-K-19K19S2,735,training,94,→,right,→,0.44264860008843243,True,28,1
AK-K-19K19S2,736,experiment,81,→,right,→,0.7256506001576781,True,28,1
AK-K-19K19S2,737,experiment,103,↑,up,↑,0.9099062001332641,True,28,1
AK-K-19K19S2,738,experiment,82,←,left,←,0.5100666999351233,True,28,1
AK-K-19K19S2,739,experiment,77,↑,up,↑,0.6557541999500245,True,28,1
AK-K-19K19S2,740,experiment,98,←,left,←,0.5644638000521809,True,28,1
AK-K-19K19S2,741,experiment,60,↓,down,↓,0.5935200999956578,True,28,1
AK-K-19K19S2,742,experiment,92,↑,up,↑,0.6671643999870867,True,28,1
AK-K-19K19S2,743,experiment,91,↑,left,←,1.0734876999631524,False,28,1
AK-K-19K19S2,744,experiment,85,→,right,→,0.8738639999646693,True,28,1
AK-K-19K19S2,745,experiment,64,↑,down,↓,1.2094733000267297,False,28,1
AK-K-19K19S2,746,experiment,67,→,right,→,0.5866368999704719,True,28,1
AK-K-19K19S2,747,experiment,104,←,left,←,0.6001118998974562,True,28,1
AK-K-19K19S2,748,experiment,57,↓,down,↓,0.660700400127098,True,28,1
AK-K-19K19S2,749,experiment,50,↓,down,↓,0.6256633000448346,True,28,1
AK-K-19K19S2,750,experiment,63,↑,up,↑,1.0831501998472959,True,28,1
AK-K-19K19S2,751,experiment,49,↑,left,←,1.1671610998455435,False,28,1
AK-K-19K19S2,752,experiment,97,←,left,←,0.6798425000160933,True,28,1
AK-K-19K19S2,753,experiment,61,→,right,→,0.7276635998860002,True,28,1
AK-K-19K19S2,754,experiment,80,←,left,←,0.503983800066635,True,28,1
AK-K-19K19S2,755,experiment,55,←,left,←,0.6171583000104874,True,28,1
AK-K-19K19S2,756,experiment,53,↑,down,↓,0.8865002999082208,False,28,1
AK-K-19K19S2,757,experiment,66,→,right,→,0.6206744001246989,True,28,1
AK-K-19K19S2,758,experiment,58,↑,up,↑,0.8561797998845577,True,28,1
AK-K-19K19S2,759,experiment,52,↓,down,↓,0.7321452999021858,True,28,1
AK-K-19K19S2,760,experiment,69,→,right,→,0.6237584999762475,True,28,1
AK-K-19K19S2,761,experiment,72,↑,up,↑,0.7104462999850512,True,28,1
AK-K-19K19S2,762,experiment,59,→,right,→,0.5743041001260281,True,28,1
AK-K-19K19S2,763,experiment,87,↑,up,↑,0.6419561000075191,True,28,1
AK-K-19K19S2,764,experiment,95,↑,down,↓,1.408522899961099,False,28,1
AK-K-19K19S2,765,experiment,93,↑,up,↑,0.600441699847579,True,28,1
AK-K-19K19S2,766,experiment,86,←,left,←,0.5155721001792699,True,28,1
AK-K-19K19S2,767,experiment,101,↑,down,↓,1.036912800045684,False,28,1
AK-K-19K19S2,768,experiment,74,↓,down,↓,0.5864611999131739,True,28,1
AK-K-19K19S2,769,experiment,90,↑,up,↑,0.7006606999784708,True,28,1
AK-K-19K19S2,770,experiment,75,→,right,→,0.6152790999040008,True,28,1
AK-K-19K19S2,771,experiment,51,↑,down,↓,1.157354800030589,False,28,1
AK-K-19K19S2,772,experiment,83,←,left,←,0.5153631998691708,True,28,1
AK-K-19K19S2,773,experiment,105,↓,down,↓,0.6030844999477267,True,28,1
AK-K-19K19S2,774,experiment,78,↑,down,↓,0.9288591998629272,False,28,1
AK-K-19K19S2,775,experiment,76,→,right,→,0.5139445001259446,True,28,1
AK-K-19K19S2,776,experiment,79,↑,up,↑,0.5871600001119077,True,28,1
AK-K-19K19S2,777,experiment,108,←,left,←,0.5509816000703722,True,28,1
AK-K-19K19S2,778,experiment,56,↓,down,↓,1.2141450999770314,True,28,1
AK-K-19K19S2,779,experiment,62,←,left,←,0.5844209000933915,True,28,1
AK-K-19K19S2,780,experiment,100,←,left,←,0.6474663999397308,True,28,1
AK-K-19K19S2,781,experiment,96,←,left,←,0.9812215999700129,True,28,1
AK-K-19K19S2,782,experiment,65,↑,down,↓,0.7038411998655647,False,28,1
AK-K-19K19S2,783,experiment,106,←,left,←,0.6636274999473244,True,28,1
AK-K-19K19S2,784,experiment,54,←,left,←,0.6109007000923157,True,28,1
AK-K-19K19S2,785,experiment,48,←,left,←,0.47425420000217855,True,28,1
AK-K-19K19S2,786,experiment,71,↓,down,↓,0.7433436000719666,True,28,1
AK-K-19K19S2,787,experiment,73,↑,up,↑,0.6330413001123816,True,28,1
AK-K-19K19S2,788,experiment,99,←,left,←,0.4070738998707384,True,28,1
AK-K-19K19S2,789,experiment,70,←,left,←,0.7024822998791933,True,28,0
AK-K-19K19S2,790,experiment,94,→,right,→,0.498858799925074,True,28,1
AK-K-19K19S2,791,experiment,89,←,left,←,0.6808801000006497,True,28,1
AK-K-19K19S2,792,experiment,107,→,right,→,0.6254745998885483,True,28,1
AK-K-19K19S2,793,experiment,102,↑,up,↑,0.5663087998982519,True,28,1
AK-K-19K19S2,794,experiment,88,→,right,→,0.7382633001543581,True,28,1
AK-K-19K19S2,795,experiment,68,←,left,←,0.5575136998668313,True,28,1
AK-K-19K19S2,796,experiment,84,→,right,→,0.41075649997219443,True,28,1
AK-K-19K19S2,797,training,88,→,right,→,0.4973563998937607,True,28,0
AK-K-19K19S2,798,training,60,→,right,→,0.5532413998153061,True,28,1
AK-K-19K19S2,799,experiment,100,←,left,←,0.5695065998006612,True,28,1
AK-K-19K19S2,800,experiment,59,→,right,→,0.5744070999789983,True,28,1
AK-K-19K19S2,801,experiment,71,←,left,←,0.599576500011608,True,28,1
AK-K-19K19S2,802,experiment,107,↓,down,↓,0.915601700078696,True,28,1
AK-K-19K19S2,803,experiment,94,←,left,←,0.5273509998805821,True,28,1
AK-K-19K19S2,804,experiment,90,←,left,←,0.5000867000781,True,28,1
AK-K-19K19S2,805,experiment,64,→,right,→,0.6984324001241475,True,28,1
AK-K-19K19S2,806,experiment,92,→,right,→,0.4956058000680059,True,28,1
AK-K-19K19S2,807,experiment,57,↑,up,↑,0.6723663997836411,True,28,1
AK-K-19K19S2,808,experiment,86,↓,down,↓,0.6562280999496579,True,28,1
AK-K-19K19S2,809,experiment,68,←,left,←,0.5908947999123484,True,28,1
AK-K-19K19S2,810,experiment,97,↑,up,↑,0.5027576999273151,True,28,1
AK-K-19K19S2,811,experiment,65,↓,down,↓,0.6289383999537677,True,28,1
AK-K-19K19S2,812,experiment,84,←,left,←,0.49510889989323914,True,28,1
AK-K-19K19S2,813,experiment,56,↑,up,↑,0.6486055999994278,True,28,1
AK-K-19K19S2,814,experiment,63,↑,up,↑,0.7215438999701291,True,28,1
AK-K-19K19S2,815,experiment,76,←,left,←,1.0107158001046628,True,28,1
AK-K-19K19S2,816,experiment,74,→,right,→,0.7614617000799626,True,28,1
AK-K-19K19S2,817,experiment,91,←,left,←,0.6203364999964833,True,28,1
AK-K-19K19S2,818,experiment,62,↓,down,↓,0.5744580999016762,True,28,1
AK-K-19K19S2,819,experiment,108,→,right,→,0.651142599992454,True,28,1
AK-K-19K19S2,820,experiment,81,→,right,→,0.5576919999439269,True,28,1
AK-K-19K19S2,821,experiment,75,←,left,←,0.566247200127691,True,28,1
AK-K-19K19S2,822,experiment,55,←,left,←,0.6050994999241084,True,28,1
AK-K-19K19S2,823,experiment,104,→,right,→,0.6018167999573052,True,28,1
AK-K-19K19S2,824,experiment,96,↓,down,↓,0.6093649999238551,True,28,1
AK-K-19K19S2,825,experiment,54,↓,down,↓,0.5268872000742704,True,28,1
AK-K-19K19S2,826,experiment,78,↑,up,↑,0.5436755002010614,True,28,1
AK-K-19K19S2,827,experiment,66,→,right,→,0.6434680998791009,True,28,1
AK-K-19K19S2,828,experiment,105,←,left,←,0.614568900084123,True,28,1
AK-K-19K19S2,829,experiment,53,↑,up,↑,0.699771499959752,True,28,1
AK-K-19K19S2,830,experiment,82,↑,up,↑,0.5563688001129776,True,28,1
AK-K-19K19S2,831,experiment,79,←,left,←,0.5152978000696748,True,28,1
AK-K-19K19S2,832,experiment,52,←,left,←,0.6129944999702275,True,28,1
AK-K-19K19S2,833,experiment,77,←,left,←,0.5703654000535607,True,28,1
AK-K-19K19S2,834,experiment,58,↓,down,↓,0.5676889999303967,True,28,1
AK-K-19K19S2,835,experiment,95,→,right,→,0.5372121999971569,True,28,1
AK-K-19K19S2,836,experiment,101,↑,up,↑,0.6574758999049664,True,28,1
AK-K-19K19S2,837,experiment,49,→,right,→,0.6546082000713795,True,28,1
AK-K-19K19S2,838,experiment,98,↑,up,↑,0.7393708000890911,True,28,1
AK-K-19K19S2,839,experiment,70,↑,up,↑,0.5740839000791311,True,28,1
AK-K-19K19S2,840,experiment,80,↑,down,↓,1.004123300081119,False,28,1
AK-K-19K19S2,841,experiment,51,↑,down,↓,1.4345835999120027,False,28,1
AK-K-19K19S2,842,experiment,72,→,right,→,0.448981000110507,True,28,1
AK-K-19K19S2,843,experiment,85,←,left,←,0.5223182998597622,True,28,1
AK-K-19K19S2,844,experiment,48,→,right,→,0.653542899992317,True,28,1
AK-K-19K19S2,845,experiment,67,←,left,←,0.5323224999010563,True,28,1
AK-K-19K19S2,846,experiment,103,↑,up,↑,0.9083687998354435,True,28,1
AK-K-19K19S2,847,experiment,83,↑,up,↑,0.675941800000146,True,28,1
AK-K-19K19S2,848,experiment,93,→,right,→,0.6256941999308765,True,28,1
AK-K-19K19S2,849,experiment,73,↑,up,↑,0.7840162999927998,True,28,1
AK-K-19K19S2,850,experiment,61,→,right,→,0.6921514000277966,True,28,1
AK-K-19K19S2,851,experiment,60,→,right,→,0.6281604999676347,True,28,1
AK-K-19K19S2,852,experiment,50,→,right,→,1.0984563999809325,True,28,1
AK-K-19K19S2,853,experiment,69,←,left,←,0.5589719999115914,True,28,1
AK-K-19K19S2,854,experiment,99,←,left,←,0.6072994999121875,True,28,1
AK-K-19K19S2,855,experiment,87,←,left,←,1.0336562001612037,True,28,1
AK-K-19K19S2,856,experiment,89,↓,down,↓,0.6104539001826197,True,28,1
AK-K-19K19S2,857,experiment,106,←,left,←,1.4300381999928504,True,28,1
AK-K-19K19S2,858,experiment,88,←,left,←,0.7110295000020415,True,28,1
AK-K-19K19S2,859,experiment,102,↑,up,↑,1.2563143998850137,True,28,1
AK-K-19K19S2,860,training,69,→,right,→,0.5888372000772506,True,28,0
AK-K-19K19S2,861,training,99,↑,up,↑,0.636101400014013,True,28,1
AK-K-19K19S2,862,experiment,89,→,right,→,0.7324271001853049,True,28,1
AK-K-19K19S2,863,experiment,88,↑,up,↑,0.5454700000118464,True,28,1
AK-K-19K19S2,864,experiment,87,↑,up,↑,0.6786570998374373,True,28,1
AK-K-19K19S2,865,experiment,82,→,right,→,0.6719287000596523,True,28,1
AK-K-19K19S2,866,experiment,56,↓,down,↓,0.6580608999356627,True,28,1
AK-K-19K19S2,867,experiment,98,↓,down,↓,0.6227665999904275,True,28,1
AK-K-19K19S2,868,experiment,67,→,right,→,0.5113667000550777,True,28,1
AK-K-19K19S2,869,experiment,72,←,left,←,0.5462705998215824,True,28,1
AK-K-19K19S2,870,experiment,92,→,right,→,0.5735569000244141,True,28,1
AK-K-19K19S2,871,experiment,66,↑,down,↓,0.936019100015983,False,28,1
AK-K-19K19S2,872,experiment,60,↑,up,↑,0.6222934999968857,True,28,1
AK-K-19K19S2,873,experiment,105,↑,up,↑,0.5461309000384063,True,28,1
AK-K-19K19S2,874,experiment,97,↑,up,↑,0.4916205001063645,True,28,1
AK-K-19K19S2,875,experiment,106,→,right,→,0.6524475999176502,True,28,1
AK-K-19K19S2,876,experiment,54,↓,down,↓,0.6481800999026746,True,28,1
AK-K-19K19S2,877,experiment,94,↑,up,↑,0.5584894001949579,True,28,1
AK-K-19K19S2,878,experiment,51,→,right,→,0.5909597999416292,True,28,1
AK-K-19K19S2,879,experiment,102,→,right,→,0.5251044000033289,True,28,1
AK-K-19K19S2,880,experiment,61,↓,down,↓,0.7074444000609219,True,28,1
AK-K-19K19S2,881,experiment,76,←,left,←,0.589539899956435,True,28,1
AK-K-19K19S2,882,experiment,91,↓,down,↓,0.6150626998860389,True,28,1
AK-K-19K19S2,883,experiment,95,→,right,→,0.5346099999733269,True,28,1
AK-K-19K19S2,884,experiment,64,→,right,→,0.6356726000085473,True,28,1
AK-K-19K19S2,885,experiment,68,←,left,←,0.5794759998098016,True,28,1
AK-K-19K19S2,886,experiment,52,→,right,→,0.5066152000799775,True,28,1
AK-K-19K19S2,887,experiment,108,→,right,→,0.7779240000527352,True,28,1
AK-K-19K19S2,888,experiment,73,↓,down,↓,0.713947500102222,True,28,1
AK-K-19K19S2,889,experiment,58,↑,up,↑,0.5379101999569684,True,28,1
AK-K-19K19S2,890,experiment,84,←,left,←,0.4480189001187682,True,28,1
AK-K-19K19S2,891,experiment,79,→,right,→,0.5637489999644458,True,28,1
AK-K-19K19S2,892,experiment,69,↑,up,↑,0.5175739999394864,True,28,1
AK-K-19K19S2,893,experiment,104,↓,down,↓,0.6699497001245618,True,28,1
AK-K-19K19S2,894,experiment,77,↑,up,↑,1.0176174999214709,True,28,1
AK-K-19K19S2,895,experiment,70,↑,down,↓,1.1449792999774218,False,28,1
AK-K-19K19S2,896,experiment,71,↓,down,↓,0.5949275998864323,True,28,1
AK-K-19K19S2,897,experiment,99,↑,up,↑,0.46602319995872676,True,28,1
AK-K-19K19S2,898,experiment,85,↑,down,↓,1.0747175998985767,False,28,1
AK-K-19K19S2,899,experiment,65,↓,down,↓,1.0898430000524968,True,28,1
AK-K-19K19S2,900,experiment,101,↓,down,↓,0.6440413000527769,True,28,1
AK-K-19K19S2,901,experiment,63,←,left,←,0.5491662998683751,True,28,1
AK-K-19K19S2,902,experiment,78,→,right,→,0.7967262000311166,True,28,1
AK-K-19K19S2,903,experiment,50,↓,down,↓,0.69978930009529,True,28,1
AK-K-19K19S2,904,experiment,75,→,right,→,0.6066174998413771,True,28,1
AK-K-19K19S2,905,experiment,53,↑,down,↓,0.8844089999329299,False,28,1
AK-K-19K19S2,906,experiment,74,↑,up,↑,0.78410440008156,True,28,1
AK-K-19K19S2,907,experiment,55,↓,down,↓,0.6461117998696864,True,28,1
AK-K-19K19S2,908,experiment,49,↓,down,↓,0.5874568000435829,True,28,1
AK-K-19K19S2,909,experiment,57,↓,down,↓,0.5530260000377893,True,28,1
AK-K-19K19S2,910,experiment,83,↑,up,↑,0.5590482999105006,True,28,1
AK-K-19K19S2,911,experiment,103,↑,up,↑,0.42210129997693,True,28,1
AK-K-19K19S2,912,experiment,90,←,left,←,0.4867710000835359,True,28,1
AK-K-19K19S2,913,experiment,107,←,left,←,0.6077056999783963,True,28,1
AK-K-19K19S2,914,experiment,100,↓,down,↓,0.6214761000592262,True,28,1
AK-K-19K19S2,915,experiment,62,←,left,←,0.5276787001639605,True,28,1
AK-K-19K19S2,916,experiment,81,→,right,→,0.7672584000974894,True,28,1
AK-K-19K19S2,917,experiment,80,↑,up,↑,0.9736501001752913,True,28,1
AK-K-19K19S2,918,experiment,48,→,left,←,0.6625830999109894,False,28,1
AK-K-19K19S2,919,experiment,93,→,right,→,0.4448402998968959,True,28,1
AK-K-19K19S2,920,experiment,86,←,left,←,0.6137354001402855,True,28,1
AK-K-19K19S2,921,experiment,96,↓,down,↓,0.7089144000783563,True,28,1
AK-K-19K19S2,922,experiment,59,↓,down,↓,0.6366373000200838,True,28,1
AK-K-19K19S2,923,training,51,↓,down,↓,0.8037262000143528,True,28,0
AK-K-19K19S2,924,training,52,←,left,←,0.4337773001752794,True,28,1
AK-K-19K19S2,925,experiment,67,←,left,←,1.073857800103724,True,28,1
AK-K-19K19S2,926,experiment,102,↓,down,↓,0.5085610998794436,True,28,1
AK-K-19K19S2,927,experiment,59,←,left,←,0.5002311000134796,True,28,1
AK-K-19K19S2,928,experiment,99,→,right,→,0.6711401999928057,True,28,1
AK-K-19K19S2,929,experiment,74,←,left,←,0.6752094000112265,True,28,1
AK-K-19K19S2,930,experiment,84,↓,down,↓,0.5961672998964787,True,28,1
AK-K-19K19S2,931,experiment,93,↑,up,↑,0.676541900029406,True,28,1
AK-K-19K19S2,932,experiment,55,↓,down,↓,0.5750669999979436,True,28,1
AK-K-19K19S2,933,experiment,94,→,right,→,0.6325224000029266,True,28,1
AK-K-19K19S2,934,experiment,63,→,right,→,0.5698157998267561,True,28,1
AK-K-19K19S2,935,experiment,56,↑,up,↑,0.5678024000953883,True,28,1
AK-K-19K19S2,936,experiment,108,↑,up,↑,0.6610224000178277,True,28,1
AK-K-19K19S2,937,experiment,96,→,right,→,0.5622278000228107,True,28,1
AK-K-19K19S2,938,experiment,101,→,right,→,0.5136108000297099,True,28,1
AK-K-19K19S2,939,experiment,79,↓,down,↓,0.6264288001693785,True,28,1
AK-K-19K19S2,940,experiment,100,←,left,←,0.5680540998000652,True,28,1
AK-K-19K19S2,941,experiment,50,→,right,→,0.6799850000534207,True,28,1
AK-K-19K19S2,942,experiment,95,←,left,←,0.5887564001604915,True,28,1
AK-K-19K19S2,943,experiment,81,↓,down,↓,0.6421572000253946,True,28,1
AK-K-19K19S2,944,experiment,88,→,right,→,0.6584129999391735,True,28,1
AK-K-19K19S2,945,experiment,66,↓,down,↓,0.6258497999515384,True,28,1
AK-K-19K19S2,946,experiment,53,↑,up,↑,0.6871206001378596,True,28,1
AK-K-19K19S2,947,experiment,60,↓,down,↓,0.6710383999161422,True,28,1
AK-K-19K19S2,948,experiment,106,↑,up,↑,0.6405384999234229,True,28,1
AK-K-19K19S2,949,experiment,62,↓,down,↓,0.6498090999666601,True,28,1
AK-K-19K19S2,950,experiment,98,↓,down,↓,0.6310131000354886,True,28,1
AK-K-19K19S2,951,experiment,73,↑,up,↑,0.6770686998497695,True,28,1
AK-K-19K19S2,952,experiment,105,↑,up,↑,0.7665607999078929,True,28,1
AK-K-19K19S2,953,experiment,92,↑,up,↑,0.6809289997909218,True,28,1
AK-K-19K19S2,954,experiment,70,↑,up,↑,0.5824109001550823,True,28,1
AK-K-19K19S2,955,experiment,104,↓,down,↓,0.7159728000406176,True,28,1
AK-K-19K19S2,956,experiment,57,→,right,→,0.7480822999496013,True,28,1
AK-K-19K19S2,957,experiment,78,↑,down,↓,1.2834997999016196,False,28,1
AK-K-19K19S2,958,experiment,76,↓,down,↓,0.5505937999114394,True,28,1
AK-K-19K19S2,959,experiment,83,←,left,←,0.5646013000514358,True,28,1
AK-K-19K19S2,960,experiment,107,←,left,←,0.5539553000126034,True,28,1
AK-K-19K19S2,961,experiment,68,↓,down,↓,1.0365391001105309,True,28,1
AK-K-19K19S2,962,experiment,86,↓,down,↓,0.6460783998481929,True,28,1
AK-K-19K19S2,963,experiment,48,↑,up,↑,0.6518387000542134,True,28,1
AK-K-19K19S2,964,experiment,72,←,left,←,0.5532315999735147,True,28,1
AK-K-19K19S2,965,experiment,85,↑,down,↓,1.0545224999077618,False,28,1
AK-K-19K19S2,966,experiment,103,←,left,←,0.5451920998748392,True,28,1
AK-K-19K19S2,967,experiment,82,↑,up,↑,0.9279748001135886,True,28,1
AK-K-19K19S2,968,experiment,58,←,left,←,0.5748131999280304,True,28,1
AK-K-19K19S2,969,experiment,90,←,left,←,0.6417639998253435,True,28,1
AK-K-19K19S2,970,experiment,97,→,right,→,0.49545000004582107,True,28,1
AK-K-19K19S2,971,experiment,80,→,right,→,0.9521707999520004,True,28,1
AK-K-19K19S2,972,experiment,91,→,right,→,0.6357567000668496,True,28,1
AK-K-19K19S2,973,experiment,61,←,left,←,0.4457264000084251,True,28,1
AK-K-19K19S2,974,experiment,51,→,right,→,0.6106299001257867,True,28,1
AK-K-19K19S2,975,experiment,71,←,left,←,0.5783467998262495,True,28,1
AK-K-19K19S2,976,experiment,54,→,left,←,1.1130761001259089,False,28,1
AK-K-19K19S2,977,experiment,65,→,right,→,0.5263251001015306,True,28,1
AK-K-19K19S2,978,experiment,77,↓,down,↓,0.6473498998675495,True,28,1
AK-K-19K19S2,979,experiment,75,→,right,→,0.7003302001394331,True,28,1
AK-K-19K19S2,980,experiment,52,→,right,→,0.6065775000024587,True,28,1
AK-K-19K19S2,981,experiment,89,↓,down,↓,0.6962582000996917,True,28,1
AK-K-19K19S2,982,experiment,64,↑,up,↑,0.4627364999614656,True,28,1
AK-K-19K19S2,983,experiment,69,↑,up,↑,0.9333101001102477,True,28,1
AK-K-19K19S2,984,experiment,49,→,right,→,0.5267630000598729,True,28,1
AK-K-19K19S2,985,experiment,87,←,left,←,0.8845605999231339,True,28,1
AK-K-19K19S2,986,training,71,↑,up,↑,0.5526141000445932,True,28,0
AK-K-19K19S2,987,training,87,→,right,→,0.6133319998625666,True,28,1
AK-K-19K19S2,988,experiment,90,→,right,→,0.5263187000527978,True,28,1
AK-K-19K19S2,989,experiment,70,↓,down,↓,0.5136557000223547,True,28,1
AK-K-19K19S2,990,experiment,71,↑,up,↑,0.8291269999463111,True,28,1
AK-K-19K19S2,991,experiment,77,←,left,←,0.4497313001193106,True,28,1
AK-K-19K19S2,992,experiment,75,←,left,←,0.5664947000332177,True,28,1
AK-K-19K19S2,993,experiment,48,↓,down,↓,0.4635077998973429,True,28,1
AK-K-19K19S2,994,experiment,62,↑,up,↑,0.6001650998368859,True,28,1
AK-K-19K19S2,995,experiment,95,←,left,←,0.5280824000947177,True,28,1
AK-K-19K19S2,996,experiment,52,↑,up,↑,0.7776591998990625,True,28,1
AK-K-19K19S2,997,experiment,107,↑,up,↑,0.6625748998485506,True,28,1
AK-K-19K19S2,998,experiment,59,↑,up,↑,0.6243400999810547,True,28,1
AK-K-19K19S2,999,experiment,67,←,left,←,0.5923805001657456,True,28,1
AK-K-19K19S2,1000,experiment,65,↓,down,↓,0.5068089000415057,True,28,1
AK-K-19K19S2,1001,experiment,63,→,right,→,0.42520210007205606,True,28,1
AK-K-19K19S2,1002,experiment,78,↓,down,↓,0.5498861998785287,True,28,1
AK-K-19K19S2,1003,experiment,79,→,left,←,0.829331599874422,False,28,1
AK-K-19K19S2,1004,experiment,87,→,right,→,0.5188665001187474,True,28,1
AK-K-19K19S2,1005,experiment,57,↑,down,↓,0.7027050000615418,False,28,1
AK-K-19K19S2,1006,experiment,94,←,left,←,0.587063399842009,True,28,1
AK-K-19K19S2,1007,experiment,56,→,right,→,0.6806281001772732,True,28,1
AK-K-19K19S2,1008,experiment,98,←,left,←,0.6283664000220597,True,28,1
AK-K-19K19S2,1009,experiment,73,←,left,←,0.6742096000816673,True,28,1
AK-K-19K19S2,1010,experiment,66,←,left,←,0.6009613000787795,True,28,1
AK-K-19K19S2,1011,experiment,108,←,left,←,0.6127842001151294,True,28,1
AK-K-19K19S2,1012,experiment,81,↓,down,↓,0.7769852001219988,True,28,1
AK-K-19K19S2,1013,experiment,64,↓,down,↓,0.5321238001342863,True,28,1
AK-K-19K19S2,1014,experiment,55,→,right,→,0.6763281999155879,True,28,1
AK-K-19K19S2,1015,experiment,102,↓,down,↓,0.6311884000897408,True,28,1
AK-K-19K19S2,1016,experiment,96,←,left,←,0.4933128000702709,True,28,1
AK-K-19K19S2,1017,experiment,103,↓,down,↓,0.6071208999492228,True,28,1
AK-K-19K19S2,1018,experiment,49,→,right,→,0.9981362000107765,True,28,1
AK-K-19K19S2,1019,experiment,91,←,left,←,0.6392981999088079,True,28,1
AK-K-19K19S2,1020,experiment,93,←,left,←,0.7103379000909626,True,28,1
AK-K-19K19S2,1021,experiment,100,↑,up,↑,0.6802174998447299,True,28,1
AK-K-19K19S2,1022,experiment,58,→,left,←,0.7053086999803782,False,28,1
AK-K-19K19S2,1023,experiment,72,↑,up,↑,0.8765543999616057,True,28,1
AK-K-19K19S2,1024,experiment,83,↓,down,↓,0.6375381001271307,True,28,1
AK-K-19K19S2,1025,experiment,99,→,right,→,0.5706414999440312,True,28,1
AK-K-19K19S2,1026,experiment,89,→,right,→,1.0218701001722366,True,28,1
AK-K-19K19S2,1027,experiment,76,↓,down,↓,0.5392698999494314,True,28,1
AK-K-19K19S2,1028,experiment,84,↓,down,↓,0.6814079000614583,True,28,1
AK-K-19K19S2,1029,experiment,106,↓,down,↓,0.6024698000401258,True,28,1
AK-K-19K19S2,1030,experiment,60,←,left,←,0.573815899901092,True,28,1
AK-K-19K19S2,1031,experiment,92,←,left,←,0.7439606001134962,True,28,1
AK-K-19K19S2,1032,experiment,104,↓,down,↓,0.6472070999443531,True,28,1
AK-K-19K19S2,1033,experiment,51,←,left,←,0.7160259999800473,True,28,1
AK-K-19K19S2,1034,experiment,88,↓,down,↓,0.5615441000554711,True,28,1
AK-K-19K19S2,1035,experiment,101,←,left,←,0.5214700000360608,True,28,1
AK-K-19K19S2,1036,experiment,53,→,right,→,0.7146081998944283,True,28,1
AK-K-19K19S2,1037,experiment,61,↓,down,↓,0.5851535999681801,True,28,1
AK-K-19K19S2,1038,experiment,69,↑,up,↑,0.6425898999441415,True,28,1
AK-K-19K19S2,1039,experiment,97,←,left,←,0.4882095998618752,True,28,1
AK-K-19K19S2,1040,experiment,85,→,right,→,0.44789660000242293,True,28,1
AK-K-19K19S2,1041,experiment,86,↓,down,↓,0.44901320012286305,True,28,1
AK-K-19K19S2,1042,experiment,82,←,left,←,0.6034585000015795,True,28,1
AK-K-19K19S2,1043,experiment,50,→,right,→,0.35082200006581843,True,28,1
AK-K-19K19S2,1044,experiment,68,↓,down,↓,0.5410384999122471,True,28,0
AK-K-19K19S2,1045,experiment,105,→,right,→,0.8520283000543714,True,28,1
AK-K-19K19S2,1046,experiment,54,←,right,→,0.9199227001518011,False,28,1
AK-K-19K19S2,1047,experiment,74,←,left,←,0.650122799910605,True,28,1
AK-K-19K19S2,1048,experiment,80,→,right,→,0.5571077999193221,True,28,1
AK-K-19K19S2,1049,training,56,→,right,→,0.5272690001875162,True,28,0
AK-K-19K19S2,1050,training,87,↑,up,↑,0.6688620999921113,True,28,1
AK-K-19K19S2,1051,experiment,57,↓,down,↓,0.5425887999590486,True,28,1
AK-K-19K19S2,1052,experiment,54,↓,down,↓,0.5907733999192715,True,28,1
AK-K-19K19S2,1053,experiment,49,↑,up,↑,0.6544896000996232,True,28,1
AK-K-19K19S2,1054,experiment,108,→,left,←,0.6558778001926839,False,28,1
AK-K-19K19S2,1055,experiment,106,↑,up,↑,0.4737916998565197,True,28,1
AK-K-19K19S2,1056,experiment,67,↓,down,↓,0.6562283001840115,True,28,1
AK-K-19K19S2,1057,experiment,69,←,left,←,0.43055370007641613,True,28,1
AK-K-19K19S2,1058,experiment,76,←,left,←,0.4357445000205189,True,28,1
AK-K-19K19S2,1059,experiment,58,↓,down,↓,0.542959000216797,True,28,1
AK-K-19K19S2,1060,experiment,87,↓,down,↓,0.47605070006102324,True,28,1
AK-K-19K19S2,1061,experiment,99,←,left,←,0.5116626999806613,True,28,1
AK-K-19K19S2,1062,experiment,56,↓,down,↓,0.5523751000873744,True,28,1
AK-K-19K19S2,1063,experiment,66,←,left,←,0.4121427999343723,True,28,1
AK-K-19K19S2,1064,experiment,107,↓,down,↓,0.5511992999818176,True,28,1
AK-K-19K19S2,1065,experiment,59,→,right,→,0.5732589999679476,True,28,1
AK-K-19K19S2,1066,experiment,88,↑,up,↑,0.9286885999608785,True,28,1
AK-K-19K19S2,1067,experiment,70,→,right,→,1.2680319999344647,True,28,1
AK-K-19K19S2,1068,experiment,62,↓,down,↓,0.5563962999731302,True,28,1
AK-K-19K19S2,1069,experiment,97,↑,up,↑,0.5572454000357538,True,28,1
AK-K-19K19S2,1070,experiment,68,→,right,→,0.6801110999658704,True,28,1
AK-K-19K19S2,1071,experiment,78,↑,up,↑,0.46644479990936816,True,28,1
AK-K-19K19S2,1072,experiment,55,→,right,→,0.5332333000842482,True,28,1
AK-K-19K19S2,1073,experiment,71,→,right,→,0.6561610999051481,True,28,1
AK-K-19K19S2,1074,experiment,52,↓,down,↓,0.6440784998703748,True,28,1
AK-K-19K19S2,1075,experiment,60,↓,down,↓,0.5983841998968273,True,28,1
AK-K-19K19S2,1076,experiment,83,→,right,→,0.4903432000428438,True,28,1
AK-K-19K19S2,1077,experiment,51,←,left,←,0.573356700129807,True,28,1
AK-K-19K19S2,1078,experiment,89,←,left,←,0.6005242001265287,True,28,1
AK-K-19K19S2,1079,experiment,79,↑,up,↑,0.58995829988271,True,28,1
AK-K-19K19S2,1080,experiment,80,↑,up,↑,0.6351407000329345,True,28,1
AK-K-19K19S2,1081,experiment,82,↑,up,↑,0.6622536999639124,True,28,1
AK-K-19K19S2,1082,experiment,50,←,left,←,0.6906489001121372,True,28,1
AK-K-19K19S2,1083,experiment,98,←,left,←,0.5900245001539588,True,28,1
AK-K-19K19S2,1084,experiment,95,←,left,←,0.49439219990745187,True,28,1
AK-K-19K19S2,1085,experiment,72,↓,down,↓,0.706474999897182,True,28,1
AK-K-19K19S2,1086,experiment,101,←,left,←,0.5561027999501675,True,28,1
AK-K-19K19S2,1087,experiment,92,↑,up,↑,0.5988741999026388,True,28,1
AK-K-19K19S2,1088,experiment,104,↓,down,↓,0.6038816999644041,True,28,1
AK-K-19K19S2,1089,experiment,93,→,right,→,0.5562242001760751,True,28,1
AK-K-19K19S2,1090,experiment,63,←,left,←,0.4887190000154078,True,28,1
AK-K-19K19S2,1091,experiment,85,←,left,←,0.6482543000020087,True,28,1
AK-K-19K19S2,1092,experiment,103,→,right,→,0.7557436001952738,True,28,1
AK-K-19K19S2,1093,experiment,102,→,left,←,0.5631617999169976,False,28,1
AK-K-19K19S2,1094,experiment,65,←,left,←,0.5024319998919964,True,28,1
AK-K-19K19S2,1095,experiment,48,↓,down,↓,0.562218900071457,True,28,1
AK-K-19K19S2,1096,experiment,91,→,right,→,0.5811936999671161,True,28,1
AK-K-19K19S2,1097,experiment,105,↓,down,↓,0.6424823999404907,True,28,1
AK-K-19K19S2,1098,experiment,61,↓,left,←,0.955989999929443,False,28,1
AK-K-19K19S2,1099,experiment,77,↓,right,→,1.4997906999196857,False,28,1
AK-K-19K19S2,1100,experiment,86,→,right,→,0.4989805999211967,True,28,1
AK-K-19K19S2,1101,experiment,96,↓,down,↓,0.5185195000376552,True,28,1
AK-K-19K19S2,1102,experiment,84,←,left,←,0.7811757999006659,True,28,1
AK-K-19K19S2,1103,experiment,53,↓,down,↓,0.555911700008437,True,28,1
AK-K-19K19S2,1104,experiment,73,→,right,→,0.596935800043866,True,28,1
AK-K-19K19S2,1105,experiment,64,↑,up,↑,0.4632562999613583,True,28,1
AK-K-19K19S2,1106,experiment,74,↑,up,↑,0.6118584000505507,True,28,1
AK-K-19K19S2,1107,experiment,94,↓,down,↓,0.7318206999916583,True,28,1
AK-K-19K19S2,1108,experiment,100,↓,down,↓,0.4529160000383854,True,28,1
AK-K-19K19S2,1109,experiment,81,←,left,←,0.5115444001276046,True,28,1
AK-K-19K19S2,1110,experiment,90,→,right,→,0.5171139999292791,True,28,1
AK-K-19K19S2,1111,experiment,75,→,right,→,0.4309788001701236,True,28,1
AK-K-19K19S2,1112,training,74,→,right,→,0.5526356999762356,True,28,0
AK-K-19K19S2,1113,training,65,↓,down,↓,0.6127406000159681,True,28,1
AK-K-19K19S2,1114,experiment,83,→,right,→,0.5440222001634538,True,28,1
AK-K-19K19S2,1115,experiment,90,←,left,←,0.5641765000764281,True,28,1
AK-K-19K19S2,1116,experiment,81,↑,up,↑,0.6262573001440614,True,28,1
AK-K-19K19S2,1117,experiment,63,→,right,→,0.604017699835822,True,28,1
AK-K-19K19S2,1118,experiment,82,→,right,→,0.6962292001117021,True,28,1
AK-K-19K19S2,1119,experiment,79,←,left,←,0.43358150008134544,True,28,1
AK-K-19K19S2,1120,experiment,99,←,left,←,0.503226799890399,True,28,1
AK-K-19K19S2,1121,experiment,106,←,left,←,0.5195820999797434,True,28,1
AK-K-19K19S2,1122,experiment,74,↑,up,↑,0.48202100000344217,True,28,1
AK-K-19K19S2,1123,experiment,77,→,right,→,0.44469380006194115,True,28,1
AK-K-19K19S2,1124,experiment,86,←,left,←,0.5739953999873251,True,28,1
AK-K-19K19S2,1125,experiment,101,→,right,→,0.6289463001303375,True,28,1
AK-K-19K19S2,1126,experiment,94,→,right,→,0.4280279001686722,True,28,1
AK-K-19K19S2,1127,experiment,93,↓,down,↓,0.5798722000326961,True,28,1
AK-K-19K19S2,1128,experiment,100,↓,down,↓,0.6109953001141548,True,28,1
AK-K-19K19S2,1129,experiment,70,→,right,→,0.37536259996704757,True,28,1
AK-K-19K19S2,1130,experiment,65,←,left,←,0.6214073000010103,True,28,0
AK-K-19K19S2,1131,experiment,66,↑,up,↑,0.4223189000040293,True,28,1
AK-K-19K19S2,1132,experiment,48,→,right,→,0.5728244001511484,True,28,1
AK-K-19K19S2,1133,experiment,52,↓,down,↓,0.620159599930048,True,28,1
AK-K-19K19S2,1134,experiment,98,←,left,←,0.8742484000977129,True,28,1
AK-K-19K19S2,1135,experiment,95,↓,down,↓,0.6392421999480575,True,28,1
AK-K-19K19S2,1136,experiment,72,→,right,→,0.5094248000532389,True,28,1
AK-K-19K19S2,1137,experiment,96,→,right,→,0.5048280998598784,True,28,1
AK-K-19K19S2,1138,experiment,55,→,right,→,0.5058026001788676,True,28,1
AK-K-19K19S2,1139,experiment,87,↑,up,↑,0.5605584001168609,True,28,1
AK-K-19K19S2,1140,experiment,53,→,up,↑,0.920054400106892,False,28,1
AK-K-19K19S2,1141,experiment,78,↓,down,↓,0.5927293000277132,True,28,1
AK-K-19K19S2,1142,experiment,84,↑,up,↑,0.5652491999790072,True,28,1
AK-K-19K19S2,1143,experiment,68,→,right,→,0.6711489998269826,True,28,1
AK-K-19K19S2,1144,experiment,59,↑,up,↑,0.6403213001322001,True,28,1
AK-K-19K19S2,1145,experiment,64,↑,up,↑,0.9849815999623388,True,28,1
AK-K-19K19S2,1146,experiment,104,→,right,→,0.6386949999723583,True,28,1
AK-K-19K19S2,1147,experiment,88,↑,up,↑,0.5433832001872361,True,28,1
AK-K-19K19S2,1148,experiment,85,↑,up,↑,0.6448481001425534,True,28,1
AK-K-19K19S2,1149,experiment,91,↑,down,↓,0.6687816998455673,False,28,1
AK-K-19K19S2,1150,experiment,61,↑,up,↑,0.5576465001795441,True,28,1
AK-K-19K19S2,1151,experiment,57,↑,down,↓,0.9637025000993162,False,28,1
AK-K-19K19S2,1152,experiment,92,←,left,←,0.5101079000160098,True,28,1
AK-K-19K19S2,1153,experiment,69,↓,down,↓,0.5146190000232309,True,28,1
AK-K-19K19S2,1154,experiment,54,←,left,←,0.40369289997033775,True,28,1
AK-K-19K19S2,1155,experiment,80,↓,down,↓,0.5285618000198156,True,28,0
AK-K-19K19S2,1156,experiment,60,←,left,←,0.5028816999401897,True,28,1
AK-K-19K19S2,1157,experiment,75,↑,up,↑,0.6257583000697196,True,28,1
AK-K-19K19S2,1158,experiment,56,←,left,←,0.5658178001176566,True,28,1
AK-K-19K19S2,1159,experiment,108,↑,up,↑,0.4347230999264866,True,28,1
AK-K-19K19S2,1160,experiment,62,↑,up,↑,0.7404811999294907,True,28,1
AK-K-19K19S2,1161,experiment,50,↑,up,↑,0.5739947000984102,True,28,1
AK-K-19K19S2,1162,experiment,105,→,right,→,0.5316774998791516,True,28,1
AK-K-19K19S2,1163,experiment,76,↑,left,←,1.2527215001173317,False,28,1
AK-K-19K19S2,1164,experiment,97,←,left,←,0.6900166000705212,True,28,1
AK-K-19K19S2,1165,experiment,73,→,right,→,0.5177945999894291,True,28,1
AK-K-19K19S2,1166,experiment,49,←,left,←,0.4645962999202311,True,28,1
AK-K-19K19S2,1167,experiment,102,→,right,→,0.43551960005424917,True,28,1
AK-K-19K19S2,1168,experiment,58,→,right,→,0.4385776000563055,True,28,1
AK-K-19K19S2,1169,experiment,51,↑,up,↑,0.5797528999391943,True,28,1
AK-K-19K19S2,1170,experiment,103,↓,down,↓,0.930091300047934,True,28,1
AK-K-19K19S2,1171,experiment,89,←,left,←,0.43840999994426966,True,28,1
AK-K-19K19S2,1172,experiment,71,→,right,→,0.4928853998426348,True,28,1
AK-K-19K19S2,1173,experiment,67,↓,down,↓,0.6346818001475185,True,28,1
AK-K-19K19S2,1174,experiment,107,←,right,→,0.7172446998301893,False,28,1
AK-K-19K19S2,1175,training,86,↓,down,↓,0.5554638998582959,True,28,0
AK-K-19K19S2,1176,training,86,↓,down,↓,0.5681273001246154,True,28,1
AK-K-19K19S2,1177,experiment,61,→,right,→,0.5488479000050575,True,28,1
AK-K-19K19S2,1178,experiment,55,↑,up,↑,0.6762143999803811,True,28,1
AK-K-19K19S2,1179,experiment,76,↓,down,↓,0.5835557000245899,True,28,1
AK-K-19K19S2,1180,experiment,93,←,left,←,0.5610413998365402,True,28,1
AK-K-19K19S2,1181,experiment,66,↓,down,↓,0.47647599992342293,True,28,1
AK-K-19K19S2,1182,experiment,65,←,left,←,0.5077204999979585,True,28,1
AK-K-19K19S2,1183,experiment,94,↑,up,↑,0.40787759982049465,True,28,1
AK-K-19K19S2,1184,experiment,99,↑,up,↑,0.5578536000102758,True,28,0
AK-K-19K19S2,1185,experiment,52,↑,up,↑,0.6381731999572366,True,28,1
AK-K-19K19S2,1186,experiment,100,↓,down,↓,0.5787863000296056,True,28,1
AK-K-19K19S2,1187,experiment,79,↑,up,↑,0.424818400060758,True,28,1
AK-K-19K19S2,1188,experiment,101,→,right,→,0.5099129998125136,True,28,1
AK-K-19K19S2,1189,experiment,85,↓,down,↓,0.6690837999340147,True,28,1
AK-K-19K19S2,1190,experiment,69,←,left,←,0.5629732001107186,True,28,1
AK-K-19K19S2,1191,experiment,89,←,left,←,0.5188279999420047,True,28,1
AK-K-19K19S2,1192,experiment,91,←,left,←,0.38382690004073083,True,28,1
AK-K-19K19S2,1193,experiment,86,↓,down,↓,0.5669550998136401,True,28,0
AK-K-19K19S2,1194,experiment,84,→,right,→,0.43599420017562807,True,28,1
AK-K-19K19S2,1195,experiment,83,→,right,→,0.47031510015949607,True,28,1
AK-K-19K19S2,1196,experiment,63,↓,down,↓,0.6300683999434114,True,28,1
AK-K-19K19S2,1197,experiment,95,↓,down,↓,0.5168523997999728,True,28,1
AK-K-19K19S2,1198,experiment,97,→,right,→,0.4795683000702411,True,28,1
AK-K-19K19S2,1199,experiment,72,→,right,→,0.6363478999119252,True,28,1
AK-K-19K19S2,1200,experiment,54,→,down,↓,1.1606774001847953,False,28,1
AK-K-19K19S2,1201,experiment,48,↓,down,↓,0.6736122998408973,True,28,1
AK-K-19K19S2,1202,experiment,106,←,left,←,0.5312091999221593,True,28,1
AK-K-19K19S2,1203,experiment,53,↓,down,↓,0.6198849999345839,True,28,1
AK-K-19K19S2,1204,experiment,87,↓,down,↓,0.5894301000516862,True,28,1
AK-K-19K19S2,1205,experiment,67,↓,down,↓,1.1272744999732822,True,28,1
AK-K-19K19S2,1206,experiment,105,→,right,→,0.7109087998978794,True,28,1
AK-K-19K19S2,1207,experiment,77,←,left,←,0.4723487999290228,True,28,1
AK-K-19K19S2,1208,experiment,64,←,left,←,0.5596439000219107,True,28,1
AK-K-19K19S2,1209,experiment,104,↓,down,↓,0.7423648000694811,True,28,1
AK-K-19K19S2,1210,experiment,49,↑,down,↓,0.9202417000196874,False,28,1
AK-K-19K19S2,1211,experiment,70,↓,down,↓,0.8277837000787258,True,28,1
AK-K-19K19S2,1212,experiment,88,←,left,←,0.6292193001136184,True,28,1
AK-K-19K19S2,1213,experiment,81,→,right,→,0.8485495999921113,True,28,1
AK-K-19K19S2,1214,experiment,75,←,left,←,1.221196600003168,True,28,1
AK-K-19K19S2,1215,experiment,98,↑,up,↑,0.7711954999249429,True,28,1
AK-K-19K19S2,1216,experiment,74,←,left,←,0.4512585001066327,True,28,1
AK-K-19K19S2,1217,experiment,71,→,right,→,0.6652200999669731,True,28,1
AK-K-19K19S2,1218,experiment,107,→,right,→,0.43467619991861284,True,28,1
AK-K-19K19S2,1219,experiment,96,↑,up,↑,0.6008166000247002,True,28,1
AK-K-19K19S2,1220,experiment,58,↓,down,↓,0.6610496998764575,True,28,1
AK-K-19K19S2,1221,experiment,59,→,right,→,0.5747676999308169,True,28,1
AK-K-19K19S2,1222,experiment,80,←,left,←,0.6768274998757988,True,28,1
AK-K-19K19S2,1223,experiment,62,↑,up,↑,0.8210422000847757,True,28,1
AK-K-19K19S2,1224,experiment,90,→,left,←,0.701624299865216,False,28,1
AK-K-19K19S2,1225,experiment,57,→,right,→,0.5982623999007046,True,28,1
AK-K-19K19S2,1226,experiment,82,→,right,→,0.7149494998157024,True,28,1
AK-K-19K19S2,1227,experiment,68,→,right,→,0.4791314001195133,True,28,1
AK-K-19K19S2,1228,experiment,73,↓,down,↓,0.9953407000284642,True,28,1
AK-K-19K19S2,1229,experiment,108,↑,up,↑,0.7192432000301778,True,28,1
AK-K-19K19S2,1230,experiment,56,→,right,→,0.6475045001134276,True,28,1
AK-K-19K19S2,1231,experiment,50,→,left,←,0.7487509998027235,False,28,1
AK-K-19K19S2,1232,experiment,102,→,up,↑,0.9966013999655843,False,28,1
AK-K-19K19S2,1233,experiment,51,↑,up,↑,0.5389991998672485,True,28,1
AK-K-19K19S2,1234,experiment,78,↑,up,↑,0.5232927000615746,True,28,1
AK-K-19K19S2,1235,experiment,103,↓,down,↓,0.6435295999981463,True,28,1
AK-K-19K19S2,1236,experiment,92,↓,down,↓,0.8108283998444676,True,28,1
AK-K-19K19S2,1237,experiment,60,→,right,→,0.661941200029105,True,28,1
AK-K-19K19S2,1238,training,67,←,left,←,0.5396675998345017,True,28,0
AK-K-19K19S2,1239,training,97,→,right,→,0.7004451001994312,True,28,1
AK-K-19K19S2,1240,experiment,91,↑,up,↑,0.6579448999837041,True,28,1
AK-K-19K19S2,1241,experiment,105,←,left,←,0.5882712998427451,True,28,1
AK-K-19K19S2,1242,experiment,82,→,right,→,0.5851032000500709,True,28,1
AK-K-19K19S2,1243,experiment,70,→,right,→,0.5061796000227332,True,28,1
AK-K-19K19S2,1244,experiment,68,↓,down,↓,0.6788464998826385,True,28,1
AK-K-19K19S2,1245,experiment,81,↑,up,↑,0.5202883000019938,True,28,1
AK-K-19K19S2,1246,experiment,92,↓,down,↓,0.5806003999896348,True,28,1
AK-K-19K19S2,1247,experiment,74,↑,down,↓,0.9562993000727147,False,28,1
AK-K-19K19S2,1248,experiment,57,↓,down,↓,0.5625308998860419,True,28,1
AK-K-19K19S2,1249,experiment,100,↑,up,↑,1.0103638998698443,True,28,1
AK-K-19K19S2,1250,experiment,56,→,right,→,0.5828141001984477,True,28,1
AK-K-19K19S2,1251,experiment,78,↓,down,↓,0.6292043998837471,True,28,1
AK-K-19K19S2,1252,experiment,107,↑,up,↑,0.5041475999169052,True,28,1
AK-K-19K19S2,1253,experiment,58,↑,up,↑,0.6719031999818981,True,28,1
AK-K-19K19S2,1254,experiment,103,←,left,←,0.7304215999320149,True,28,1
AK-K-19K19S2,1255,experiment,98,→,right,→,0.7240281000267714,True,28,1
AK-K-19K19S2,1256,experiment,54,→,right,→,0.7087397000286728,True,28,1
AK-K-19K19S2,1257,experiment,66,↓,down,↓,0.7381573000457138,True,28,1
AK-K-19K19S2,1258,experiment,86,↓,down,↓,0.5834782000165433,True,28,1
AK-K-19K19S2,1259,experiment,85,↓,down,↓,0.6754783999640495,True,28,1
AK-K-19K19S2,1260,experiment,49,←,left,←,0.6880868999287486,True,28,1
AK-K-19K19S2,1261,experiment,94,←,left,←,0.6290055999998003,True,28,1
AK-K-19K19S2,1262,experiment,101,↑,up,↑,0.6097923999186605,True,28,1
AK-K-19K19S2,1263,experiment,53,↑,up,↑,1.1439835000783205,True,28,1
AK-K-19K19S2,1264,experiment,71,←,left,←,0.5778270999435335,True,28,1
AK-K-19K19S2,1265,experiment,104,←,left,←,0.6318487001117319,True,28,1
AK-K-19K19S2,1266,experiment,48,←,left,←,0.6141003998927772,True,28,1
AK-K-19K19S2,1267,experiment,99,←,left,←,0.6123577000107616,True,28,1
AK-K-19K19S2,1268,experiment,84,↓,down,↓,0.6711871000006795,True,28,1
AK-K-19K19S2,1269,experiment,95,←,left,←,0.5244231000542641,True,28,1
AK-K-19K19S2,1270,experiment,108,↓,down,↓,0.5869420000817627,True,28,1
AK-K-19K19S2,1271,experiment,67,←,left,←,0.6369134001433849,True,28,1
AK-K-19K19S2,1272,experiment,65,←,left,←,0.501492700073868,True,28,1
AK-K-19K19S2,1273,experiment,77,←,left,←,0.48756069992668927,True,28,1
AK-K-19K19S2,1274,experiment,93,←,left,←,0.5086531999986619,True,28,1
AK-K-19K19S2,1275,experiment,106,←,left,←,0.3845524999778718,True,28,1
AK-K-19K19S2,1276,experiment,72,↑,up,↑,0.5808576000854373,True,28,1
AK-K-19K19S2,1277,experiment,59,→,right,→,0.5695500001311302,True,28,1
AK-K-19K19S2,1278,experiment,73,←,left,←,0.4261547001078725,True,28,1
AK-K-19K19S2,1279,experiment,60,↓,down,↓,0.669038699939847,True,28,1
AK-K-19K19S2,1280,experiment,96,←,left,←,0.6576869999989867,True,28,1
AK-K-19K19S2,1281,experiment,63,→,right,→,0.5140400999225676,True,28,1
AK-K-19K19S2,1282,experiment,83,→,right,→,0.8413439998403192,True,28,1
AK-K-19K19S2,1283,experiment,75,↑,up,↑,0.6385331999044865,True,28,1
AK-K-19K19S2,1284,experiment,62,↓,down,↓,0.6399956000968814,True,28,1
AK-K-19K19S2,1285,experiment,61,↑,up,↑,0.47372540016658604,True,28,1
AK-K-19K19S2,1286,experiment,97,→,right,→,0.5261156999040395,True,28,1
AK-K-19K19S2,1287,experiment,64,↑,up,↑,0.5793157001025975,True,28,1
AK-K-19K19S2,1288,experiment,79,←,left,←,0.6497105001471937,True,28,1
AK-K-19K19S2,1289,experiment,87,←,left,←,0.6343514998443425,True,28,1
AK-K-19K19S2,1290,experiment,51,→,right,→,0.6236580000258982,True,28,1
AK-K-19K19S2,1291,experiment,88,↑,up,↑,1.0971429999917746,True,28,1
AK-K-19K19S2,1292,experiment,80,←,left,←,0.6259714001789689,True,28,1
AK-K-19K19S2,1293,experiment,90,←,left,←,0.450870499946177,True,28,1
AK-K-19K19S2,1294,experiment,52,←,left,←,0.6311745999846607,True,28,1
AK-K-19K19S2,1295,experiment,76,→,right,→,0.5563211000990123,True,28,1
AK-K-19K19S2,1296,experiment,50,→,right,→,0.7728796999435872,True,28,1
AK-K-19K19S2,1297,experiment,102,←,left,←,0.5796269001439214,True,28,1
AK-K-19K19S2,1298,experiment,55,↓,down,↓,0.6416557000484318,True,28,1
AK-K-19K19S2,1299,experiment,69,↓,down,↓,0.6813044000882655,True,28,1
AK-K-19K19S2,1300,experiment,89,↑,down,↓,1.3514870000071824,False,28,1
AK-K-19K19S2,1301,training,105,→,right,→,0.5317482000682503,True,28,0
AK-K-19K19S2,1302,training,53,↓,down,↓,0.5005452998448163,True,28,1
AK-K-19K19S2,1303,experiment,65,→,right,→,0.37542539997957647,True,28,1
AK-K-19K19S2,1304,experiment,75,↑,up,↑,0.5700526000000536,True,28,0
AK-K-19K19S2,1305,experiment,73,→,right,→,0.7145720000844449,True,28,1
AK-K-19K19S2,1306,experiment,96,←,left,←,0.406591999810189,True,28,1
AK-K-19K19S2,1307,experiment,87,←,left,←,0.4562381999567151,True,28,0
AK-K-19K19S2,1308,experiment,68,↓,down,↓,0.5669188001193106,True,28,1
AK-K-19K19S2,1309,experiment,98,→,right,→,0.4634065998252481,True,28,1
AK-K-19K19S2,1310,experiment,64,↓,down,↓,0.6790447998791933,True,28,1
AK-K-19K19S2,1311,experiment,85,↓,down,↓,0.5675009000115097,True,28,1
AK-K-19K19S2,1312,experiment,63,←,left,←,1.2512515000998974,True,28,1
AK-K-19K19S2,1313,experiment,50,→,right,→,0.3612468000501394,True,28,1
AK-K-19K19S2,1314,experiment,86,→,right,→,0.6685323999263346,True,28,0
AK-K-19K19S2,1315,experiment,57,←,left,←,1.1905119998846203,True,28,1
AK-K-19K19S2,1316,experiment,80,→,right,→,0.9877643999643624,True,28,1
AK-K-19K19S2,1317,experiment,52,↑,up,↑,0.5547197998967022,True,28,1
AK-K-19K19S2,1318,experiment,82,←,left,←,0.5606511000078171,True,28,1
AK-K-19K19S2,1319,experiment,70,→,right,→,0.4422428000252694,True,28,1
AK-K-19K19S2,1320,experiment,49,↑,down,↓,1.048337500076741,False,28,1
AK-K-19K19S2,1321,experiment,56,←,left,←,0.4432549998164177,True,28,1
AK-K-19K19S2,1322,experiment,107,↑,up,↑,0.4139727000147104,True,28,1
AK-K-19K19S2,1323,experiment,104,←,left,←,0.4821019000373781,True,28,1
AK-K-19K19S2,1324,experiment,77,↑,up,↑,0.41298100003041327,True,28,1
AK-K-19K19S2,1325,experiment,101,←,left,←,0.6581617000047117,True,28,1
AK-K-19K19S2,1326,experiment,69,←,left,←,0.48038970003835857,True,28,1
AK-K-19K19S2,1327,experiment,106,←,left,←,0.5380488999653608,True,28,1
AK-K-19K19S2,1328,experiment,91,↑,down,↓,1.1652530999854207,False,28,1
AK-K-19K19S2,1329,experiment,54,↓,down,↓,0.7481747998390347,True,28,1
AK-K-19K19S2,1330,experiment,105,↑,down,↓,0.7548553999513388,False,28,1
AK-K-19K19S2,1331,experiment,78,→,right,→,0.36740020010620356,True,28,1
AK-K-19K19S2,1332,experiment,93,↑,left,←,0.9959107001777738,False,28,0
AK-K-19K19S2,1333,experiment,88,↓,down,↓,0.5104036000557244,True,28,1
AK-K-19K19S2,1334,experiment,89,↑,up,↑,0.6197926998138428,True,28,1
AK-K-19K19S2,1335,experiment,90,↑,up,↑,0.7408965998329222,True,28,1
AK-K-19K19S2,1336,experiment,97,↑,up,↑,0.7345518998336047,True,28,1
AK-K-19K19S2,1337,experiment,95,↑,up,↑,0.8570878999307752,True,28,1
AK-K-19K19S2,1338,experiment,99,↑,up,↑,0.46953210001811385,True,28,1
AK-K-19K19S2,1339,experiment,55,←,left,←,0.648310299962759,True,28,1
AK-K-19K19S2,1340,experiment,102,←,left,←,0.5159609001129866,True,28,1
AK-K-19K19S2,1341,experiment,81,↑,up,↑,0.6758749999571592,True,28,1
AK-K-19K19S2,1342,experiment,66,→,right,→,0.40373410005122423,True,28,1
AK-K-19K19S2,1343,experiment,108,→,right,→,0.40628609992563725,True,28,0
AK-K-19K19S2,1344,experiment,71,↓,down,↓,0.6460633999668062,True,28,0
AK-K-19K19S2,1345,experiment,58,←,left,←,0.6164067999925464,True,28,1
AK-K-19K19S2,1346,experiment,59,→,up,↑,0.9397619999945164,False,28,1
AK-K-19K19S2,1347,experiment,61,↓,down,↓,0.6174297998659313,True,28,1
AK-K-19K19S2,1348,experiment,74,←,left,←,0.5679077000822872,True,28,1
AK-K-19K19S2,1349,experiment,48,→,right,→,0.5290551998186857,True,28,1
AK-K-19K19S2,1350,experiment,79,←,left,←,0.5451582001987845,True,28,1
AK-K-19K19S2,1351,experiment,100,→,right,→,0.6018809000961483,True,28,1
AK-K-19K19S2,1352,experiment,103,↓,down,↓,0.6307058001402766,True,28,1
AK-K-19K19S2,1353,experiment,94,→,left,←,0.5416576999705285,False,28,1
AK-K-19K19S2,1354,experiment,76,↓,down,↓,0.5586031000129879,True,28,1
AK-K-19K19S2,1355,experiment,84,←,left,←,0.5077596998307854,True,28,1
AK-K-19K19S2,1356,experiment,72,←,left,←,0.663361000129953,True,28,1
AK-K-19K19S2,1357,experiment,67,→,right,→,0.6220201998949051,True,28,1
AK-K-19K19S2,1358,experiment,62,→,right,→,0.7121828999370337,True,28,1
AK-K-19K19S2,1359,experiment,53,→,left,←,0.7697795999702066,False,28,1
AK-K-19K19S2,1360,experiment,92,↓,down,↓,0.5882555998396128,True,28,1
AK-K-19K19S2,1361,experiment,51,→,right,→,0.5793031000066549,True,28,1
AK-K-19K19S2,1362,experiment,60,→,right,→,0.5919660001527518,True,28,1
AK-K-19K19S2,1363,experiment,83,↑,down,↓,1.204377599991858,False,28,1
AK-K-19K19S2,1364,training,64,↑,up,↑,0.6641500999685377,True,28,0
AK-K-19K19S2,1365,training,50,→,right,→,0.7245436999946833,True,28,1
AK-K-19K19S2,1366,experiment,92,←,left,←,0.4087840002030134,True,28,1
AK-K-19K19S2,1367,experiment,52,←,left,←,0.46292770002037287,True,28,1
AK-K-19K19S2,1368,experiment,88,←,left,←,0.4627006999216974,True,28,1
AK-K-19K19S2,1369,experiment,48,↓,down,↓,0.5238874999340624,True,28,1
AK-K-19K19S2,1370,experiment,68,↓,down,↓,1.1920225000940263,True,28,1
AK-K-19K19S2,1371,experiment,104,←,left,←,0.3755035998765379,True,28,1
AK-K-19K19S2,1372,experiment,51,←,left,←,0.6926561000291258,True,28,0
AK-K-19K19S2,1373,experiment,77,→,no_key,no_letter,-1.0,False,28,1
AK-K-19K19S2,1374,experiment,93,→,right,→,0.6356218999717385,True,28,1
AK-K-19K19S2,1375,experiment,61,↑,up,↑,0.8697051999624819,True,28,1
AK-K-19K19S2,1376,experiment,49,↓,down,↓,0.5618466001469642,True,28,1
AK-K-19K19S2,1377,experiment,90,→,right,→,0.5414660000242293,True,28,1
AK-K-19K19S2,1378,experiment,67,↓,down,↓,0.7530481000430882,True,28,1
AK-K-19K19S2,1379,experiment,62,↑,up,↑,0.5096716999541968,True,28,1
AK-K-19K19S2,1380,experiment,74,↓,down,↓,0.552259499905631,True,28,1
AK-K-19K19S2,1381,experiment,57,→,left,←,0.6310417999047786,False,28,1
AK-K-19K19S2,1382,experiment,103,↓,down,↓,0.547248600050807,True,28,1
AK-K-19K19S2,1383,experiment,89,→,right,→,0.519114299910143,True,28,1
AK-K-19K19S2,1384,experiment,50,↓,down,↓,0.5215205000713468,True,28,1
AK-K-19K19S2,1385,experiment,97,→,right,→,0.8439927999861538,True,28,1
AK-K-19K19S2,1386,experiment,66,↓,down,↓,0.588002200005576,True,28,1
AK-K-19K19S2,1387,experiment,83,↑,up,↑,0.46448099985718727,True,28,1
AK-K-19K19S2,1388,experiment,85,↑,up,↑,0.43326870002783835,True,28,1
AK-K-19K19S2,1389,experiment,53,↓,down,↓,0.597871599951759,True,28,1
AK-K-19K19S2,1390,experiment,69,↓,down,↓,0.5266809000167996,True,28,1
AK-K-19K19S2,1391,experiment,91,↑,up,↑,0.6589964001905173,True,28,1
AK-K-19K19S2,1392,experiment,102,↑,up,↑,0.7343408998567611,True,28,1
AK-K-19K19S2,1393,experiment,100,↓,down,↓,0.5994341000914574,True,28,1
AK-K-19K19S2,1394,experiment,105,←,left,←,0.5643267999403179,True,28,1
AK-K-19K19S2,1395,experiment,78,↑,up,↑,0.7872829998377711,True,28,1
AK-K-19K19S2,1396,experiment,98,↓,down,↓,0.5705219998490065,True,28,1
AK-K-19K19S2,1397,experiment,73,↑,up,↑,0.5069588997866958,True,28,1
AK-K-19K19S2,1398,experiment,64,←,left,←,0.5771393999457359,True,28,1
AK-K-19K19S2,1399,experiment,71,↓,down,↓,0.5380597999319434,True,28,1
AK-K-19K19S2,1400,experiment,84,↑,up,↑,0.8000156998168677,True,28,1
AK-K-19K19S2,1401,experiment,60,→,right,→,0.5638700998388231,True,28,1
AK-K-19K19S2,1402,experiment,95,↓,down,↓,0.5333655001595616,True,28,1
AK-K-19K19S2,1403,experiment,63,←,left,←,0.43467109999619424,True,28,1
AK-K-19K19S2,1404,experiment,107,↓,down,↓,0.5255221999250352,True,28,1
AK-K-19K19S2,1405,experiment,96,→,right,→,0.3261583000421524,True,28,1
AK-K-19K19S2,1406,experiment,54,←,left,←,0.952482599997893,True,28,0
AK-K-19K19S2,1407,experiment,108,←,left,←,0.6061702000442892,True,28,1
AK-K-19K19S2,1408,experiment,106,←,left,←,0.42625669995322824,True,28,1
AK-K-19K19S2,1409,experiment,80,→,right,→,0.47801540000364184,True,28,1
AK-K-19K19S2,1410,experiment,82,↓,down,↓,0.5754370999056846,True,28,1
AK-K-19K19S2,1411,experiment,81,←,left,←,0.5010005000513047,True,28,1
AK-K-19K19S2,1412,experiment,86,↓,up,↑,0.4445060999132693,False,28,1
AK-K-19K19S2,1413,experiment,58,→,right,→,0.5029102000407875,True,28,1
AK-K-19K19S2,1414,experiment,76,↓,down,↓,0.45754249999299645,True,28,1
AK-K-19K19S2,1415,experiment,70,→,left,←,0.38382610003463924,False,28,1
AK-K-19K19S2,1416,experiment,55,↑,up,↑,1.3092873999848962,True,28,0
AK-K-19K19S2,1417,experiment,75,→,right,→,0.9753618000540882,True,28,1
AK-K-19K19S2,1418,experiment,56,→,right,→,0.605637300061062,True,28,1
AK-K-19K19S2,1419,experiment,87,↓,down,↓,0.5199092999100685,True,28,1
AK-K-19K19S2,1420,experiment,59,↑,down,↓,0.8152767999563366,False,28,1
AK-K-19K19S2,1421,experiment,65,↓,down,↓,0.7128089999314398,True,28,1
AK-K-19K19S2,1422,experiment,94,↓,down,↓,0.7085355999879539,True,28,1
AK-K-19K19S2,1423,experiment,72,→,right,→,0.6561081998515874,True,28,1
AK-K-19K19S2,1424,experiment,101,↓,down,↓,0.5877382000908256,True,28,1
AK-K-19K19S2,1425,experiment,99,→,right,→,0.4828843001741916,True,28,1
AK-K-19K19S2,1426,experiment,79,↓,down,↓,0.6049643000587821,True,28,1
AK-K-19K19S2,1427,training,90,←,down,↓,0.626014000037685,False,28,0
AK-K-19K19S2,1428,training,60,↑,no_key,no_letter,-1.0,False,28,1
AK-K-19K19S2,1429,experiment,101,↑,up,↑,0.4627117000054568,True,28,1
AK-K-19K19S2,1430,experiment,94,↓,left,←,1.0682347998954356,False,28,1
AK-K-19K19S2,1431,experiment,100,↓,down,↓,0.6398861000780016,True,28,1
AK-K-19K19S2,1432,experiment,48,↑,up,↑,0.5660286999773234,True,28,1
AK-K-19K19S2,1433,experiment,104,←,left,←,0.5323595001827925,True,28,1
AK-K-19K19S2,1434,experiment,72,↓,down,↓,0.646720000077039,True,28,1
AK-K-19K19S2,1435,experiment,52,←,left,←,0.5311745998915285,True,28,1
AK-K-19K19S2,1436,experiment,58,↑,up,↑,0.5303539999295026,True,28,1
AK-K-19K19S2,1437,experiment,74,←,left,←,0.4925156000535935,True,28,1
AK-K-19K19S2,1438,experiment,97,←,left,←,0.5439391999971122,True,28,1
AK-K-19K19S2,1439,experiment,67,↓,down,↓,0.5951135999057442,True,28,1
AK-K-19K19S2,1440,experiment,85,↓,down,↓,1.094958300003782,True,28,1
AK-K-19K19S2,1441,experiment,82,↑,up,↑,0.8155660000629723,True,28,1
AK-K-19K19S2,1442,experiment,54,↑,up,↑,0.8285795000847429,True,28,1
AK-K-19K19S2,1443,experiment,93,↑,up,↑,0.9402991000097245,True,28,1
AK-K-19K19S2,1444,experiment,69,←,left,←,0.5033494001254439,True,28,1
