PART_ID,Trial_no,Trial_type,CSI,Stim_letter,Key_pressed,letter_choose,Rt,Corr,Stimulus Time,nDropped
AK-K-23K23S2,1,training,120,←,left,←,0.6508818999864161,True,60,1
AK-K-23K23S2,2,training,120,↓,down,↓,0.4774809000082314,True,60,0
AK-K-23K23S2,3,training,120,←,left,←,0.575811899965629,True,60,0
AK-K-23K23S2,4,training,120,↓,down,↓,0.4348714000079781,True,60,0
AK-K-23K23S2,5,training,120,→,right,→,0.43487320002168417,True,60,0
AK-K-23K23S2,6,training,120,↑,up,↑,0.4016010001068935,True,60,0
AK-K-23K23S2,7,training,120,←,right,→,0.4852015000069514,False,60,0
AK-K-23K23S2,8,training,120,→,right,→,0.4356717000482604,True,60,0
AK-K-23K23S2,9,training,120,↑,up,↑,0.6087462999857962,True,60,0
AK-K-23K23S2,10,training,120,→,right,→,0.5756569999502972,True,60,0
AK-K-23K23S2,11,training,120,↑,up,↑,0.37653500004671514,True,60,0
AK-K-23K23S2,12,training,120,→,right,→,0.4684842999558896,True,60,0
AK-K-23K23S2,13,training,120,↓,left,←,0.6008464000187814,False,60,0
AK-K-23K23S2,14,training,120,↓,down,↓,0.42678789992351085,True,60,0
AK-K-23K23S2,15,training,120,←,left,←,0.5586076000472531,True,60,0
AK-K-23K23S2,16,training,120,←,left,←,0.3777016999665648,True,60,0
AK-K-23K23S2,17,training,120,→,right,→,0.6023951999377459,True,60,0
AK-K-23K23S2,18,training,120,←,left,←,0.6089709000661969,True,60,0
AK-K-23K23S2,19,training,120,←,left,←,0.5169182000681758,True,60,0
AK-K-23K23S2,20,training,120,→,right,→,0.4107485000276938,True,60,0
AK-K-23K23S2,21,no_adaptation,120,↑,up,↑,0.652298100059852,True,36,0
AK-K-23K23S2,22,no_adaptation,120,→,right,→,0.5065425999928266,True,36,0
AK-K-23K23S2,23,no_adaptation,120,↑,up,↑,0.3924115999834612,True,36,0
AK-K-23K23S2,24,no_adaptation,120,→,left,←,0.4509707000106573,False,36,0
AK-K-23K23S2,25,no_adaptation,120,↑,up,↑,0.44255310005974025,True,36,0
AK-K-23K23S2,26,no_adaptation,120,←,left,←,0.4170210000593215,True,36,0
AK-K-23K23S2,27,no_adaptation,120,→,left,←,0.5713324000826105,False,36,0
AK-K-23K23S2,28,no_adaptation,120,→,right,→,0.509344800026156,True,36,0
AK-K-23K23S2,29,no_adaptation,120,→,no_key,no_letter,-1.0,False,36,0
AK-K-23K23S2,30,no_adaptation,120,←,left,←,0.5476343999616802,True,36,0
AK-K-23K23S2,31,no_adaptation,120,←,left,←,0.38365090009756386,True,36,0
AK-K-23K23S2,32,no_adaptation,120,↑,up,↑,0.5432551000267267,True,36,0
AK-K-23K23S2,33,no_adaptation,120,↑,no_key,no_letter,-1.0,False,36,0
AK-K-23K23S2,34,no_adaptation,120,→,right,→,0.6361939000198618,True,36,0
AK-K-23K23S2,35,no_adaptation,120,↑,left,←,0.5712273000972345,False,36,0
AK-K-23K23S2,36,no_adaptation,120,→,right,→,0.6289505999302492,True,36,0
AK-K-23K23S2,37,no_adaptation,120,←,left,←,0.45100779994390905,True,36,0
AK-K-23K23S2,38,no_adaptation,120,←,left,←,0.3844293999718502,True,36,0
AK-K-23K23S2,39,no_adaptation,120,→,no_key,no_letter,-1.0,False,36,0
AK-K-23K23S2,40,no_adaptation,120,↑,up,↑,0.557429000036791,True,36,0
AK-K-23K23S2,41,training,97,←,left,←,0.5101989000104368,True,36,0
AK-K-23K23S2,42,training,52,↑,up,↑,0.617213899968192,True,36,1
AK-K-23K23S2,43,experiment,104,↓,down,↓,0.40078989998437464,True,36,1
AK-K-23K23S2,44,experiment,58,↓,down,↓,0.6193422999931499,True,36,0
AK-K-23K23S2,45,experiment,53,→,right,→,0.6176014000084251,True,36,1
AK-K-23K23S2,46,experiment,81,→,right,→,0.3836288000456989,True,36,1
AK-K-23K23S2,47,experiment,77,↓,down,↓,0.40860340010840446,True,36,0
AK-K-23K23S2,48,experiment,83,→,right,→,0.410872699925676,True,36,0
AK-K-23K23S2,49,experiment,100,↑,up,↑,0.5602558000246063,True,36,0
AK-K-23K23S2,50,experiment,78,↑,up,↑,0.4423018000088632,True,36,1
AK-K-23K23S2,51,experiment,75,→,right,→,0.4699334999313578,True,36,1
AK-K-23K23S2,52,experiment,55,↓,down,↓,0.4815779000055045,True,36,0
AK-K-23K23S2,53,experiment,71,→,right,→,0.47113700001500547,True,36,1
AK-K-23K23S2,54,experiment,56,→,right,→,0.4898181000025943,True,36,0
AK-K-23K23S2,55,experiment,60,→,right,→,0.4175470999907702,True,36,1
AK-K-23K23S2,56,experiment,103,↑,up,↑,0.4095172999659553,True,36,0
AK-K-23K23S2,57,experiment,92,↓,down,↓,0.6331789999967441,True,36,1
AK-K-23K23S2,58,experiment,95,↑,up,↑,0.6009284000610933,True,36,1
AK-K-23K23S2,59,experiment,87,↑,up,↑,0.4177790000103414,True,36,1
AK-K-23K23S2,60,experiment,70,←,no_key,no_letter,-1.0,False,36,1
AK-K-23K23S2,61,experiment,101,↑,up,↑,0.42543910001404583,True,36,1
AK-K-23K23S2,62,experiment,105,↓,up,↑,0.4744576000375673,False,36,0
AK-K-23K23S2,63,experiment,79,↑,up,↑,0.669170800014399,True,36,1
AK-K-23K23S2,64,experiment,73,↑,up,↑,0.5148912000004202,True,36,1
AK-K-23K23S2,65,experiment,51,←,left,←,0.6535079999594018,True,36,1
AK-K-23K23S2,66,experiment,89,↑,up,↑,0.40926059999037534,True,36,1
AK-K-23K23S2,67,experiment,67,→,right,→,0.6240833000047132,True,36,1
AK-K-23K23S2,68,experiment,93,→,right,→,0.4174208000767976,True,36,1
AK-K-23K23S2,69,experiment,50,↑,up,↑,0.39214869996067137,True,36,0
AK-K-23K23S2,70,experiment,108,←,left,←,0.38366920000407845,True,36,0
AK-K-23K23S2,71,experiment,68,↑,up,↑,0.40057219995651394,True,36,0
AK-K-23K23S2,72,experiment,106,↓,down,↓,0.5717293999623507,True,36,0
AK-K-23K23S2,73,experiment,63,↓,down,↓,0.4881449999520555,True,36,1
AK-K-23K23S2,74,experiment,54,→,right,→,0.4358170999912545,True,36,1
AK-K-23K23S2,75,experiment,76,←,right,→,0.47253449994605035,False,36,0
AK-K-23K23S2,76,experiment,98,↓,down,↓,0.4079223000444472,True,36,1
AK-K-23K23S2,77,experiment,65,↑,up,↑,0.5272378999507055,True,36,0
AK-K-23K23S2,78,experiment,86,↑,up,↑,0.43408509995788336,True,36,1
AK-K-23K23S2,79,experiment,57,←,left,←,0.506020300090313,True,36,1
AK-K-23K23S2,80,experiment,48,↓,down,↓,0.4260549999307841,True,36,1
AK-K-23K23S2,81,experiment,66,↓,down,↓,0.5673827000427991,True,36,0
AK-K-23K23S2,82,experiment,94,↑,up,↑,0.4191426000325009,True,36,1
AK-K-23K23S2,83,experiment,74,→,right,→,0.4341596000595018,True,36,0
AK-K-23K23S2,84,experiment,49,←,left,←,0.40067060000728816,True,36,1
AK-K-23K23S2,85,experiment,97,↑,up,↑,0.5510702999308705,True,36,0
AK-K-23K23S2,86,experiment,96,↑,down,↓,0.7856490999693051,False,36,1
AK-K-23K23S2,87,experiment,72,↓,down,↓,0.5389584999065846,True,36,1
AK-K-23K23S2,88,experiment,99,→,right,→,0.5491494999732822,True,36,1
AK-K-23K23S2,89,experiment,82,↓,down,↓,0.5323818000033498,True,36,1
AK-K-23K23S2,90,experiment,61,→,right,→,0.515063300030306,True,36,1
AK-K-23K23S2,91,experiment,62,↑,up,↑,0.49060189991723746,True,36,1
AK-K-23K23S2,92,experiment,90,→,no_key,no_letter,-1.0,False,36,1
AK-K-23K23S2,93,experiment,84,→,right,→,0.5197860000189394,True,36,1
AK-K-23K23S2,94,experiment,59,↑,up,↑,0.5121684999903664,True,36,1
AK-K-23K23S2,95,experiment,91,↑,up,↑,0.38387899997178465,True,36,1
AK-K-23K23S2,96,experiment,107,→,right,→,0.48332599992863834,True,36,0
AK-K-23K23S2,97,experiment,88,↑,no_key,no_letter,-1.0,False,36,1
AK-K-23K23S2,98,experiment,80,→,right,→,0.5863974000094458,True,36,1
AK-K-23K23S2,99,experiment,52,→,right,→,0.6262431000359356,True,36,1
AK-K-23K23S2,100,experiment,102,↑,up,↑,0.3763345000334084,True,36,1
AK-K-23K23S2,101,experiment,64,↓,up,↑,0.507394399959594,False,36,0
AK-K-23K23S2,102,experiment,69,→,right,→,0.4887622999958694,True,36,1
AK-K-23K23S2,103,experiment,85,↑,up,↑,0.4512613998958841,True,36,1
AK-K-23K23S2,104,training,103,→,right,→,0.5039116999832913,True,36,0
AK-K-23K23S2,105,training,79,←,left,←,0.3501192000694573,True,36,1
AK-K-23K23S2,106,experiment,50,→,no_key,no_letter,-1.0,False,36,0
AK-K-23K23S2,107,experiment,70,→,right,→,0.47853190009482205,True,36,1
AK-K-23K23S2,108,experiment,106,↓,down,↓,0.5766678000800312,True,36,1
AK-K-23K23S2,109,experiment,107,↓,down,↓,0.4175901999697089,True,36,1
AK-K-23K23S2,110,experiment,86,→,right,→,0.49737499991897494,True,36,1
AK-K-23K23S2,111,experiment,52,↑,up,↑,0.3843314000405371,True,36,1
AK-K-23K23S2,112,experiment,58,↑,up,↑,0.5860521000577137,True,36,0
AK-K-23K23S2,113,experiment,101,↑,up,↑,0.39249480003491044,True,36,1
AK-K-23K23S2,114,experiment,104,↓,up,↑,0.51137100008782,False,36,0
AK-K-23K23S2,115,experiment,72,→,right,→,0.41739429999142885,True,36,1
AK-K-23K23S2,116,experiment,78,↑,up,↑,0.48929739999584854,True,36,1
AK-K-23K23S2,117,experiment,108,←,left,←,0.554186400026083,True,36,1
AK-K-23K23S2,118,experiment,77,←,no_key,no_letter,-1.0,False,36,1
AK-K-23K23S2,119,experiment,87,↑,up,↑,0.48835460003465414,True,36,1
AK-K-23K23S2,120,experiment,73,↑,up,↑,0.4086204000050202,True,36,1
AK-K-23K23S2,121,experiment,84,↓,down,↓,0.4095701000187546,True,36,0
AK-K-23K23S2,122,experiment,75,↓,down,↓,0.5354761000489816,True,36,0
AK-K-23K23S2,123,experiment,63,↓,down,↓,0.5017515000654384,True,36,1
AK-K-23K23S2,124,experiment,49,↑,up,↑,0.4110233000246808,True,36,1
AK-K-23K23S2,125,experiment,65,→,right,→,0.4998203000286594,True,36,0
AK-K-23K23S2,126,experiment,51,←,right,→,0.5513741000322625,False,36,1
AK-K-23K23S2,127,experiment,71,↓,down,↓,0.5861956999870017,True,36,1
AK-K-23K23S2,128,experiment,62,→,right,→,0.39447369996923953,True,36,1
AK-K-23K23S2,129,experiment,91,↓,no_key,no_letter,-1.0,False,36,0
AK-K-23K23S2,130,experiment,48,←,left,←,0.4683081000111997,True,36,1
AK-K-23K23S2,131,experiment,92,←,left,←,0.4194433999946341,True,36,0
AK-K-23K23S2,132,experiment,54,↓,down,↓,0.47942899994086474,True,36,0
AK-K-23K23S2,133,experiment,61,→,down,↓,0.4724247999256477,False,36,1
AK-K-23K23S2,134,experiment,57,←,left,←,0.4179125999798998,True,36,0
AK-K-23K23S2,135,experiment,80,↓,no_key,no_letter,-1.0,False,36,1
AK-K-23K23S2,136,experiment,98,←,left,←,0.4741663000313565,True,36,1
AK-K-23K23S2,137,experiment,81,↓,down,↓,0.4088325999910012,True,36,1
AK-K-23K23S2,138,experiment,102,←,left,←,0.577905899961479,True,36,1
AK-K-23K23S2,139,experiment,66,←,left,←,0.4334798000054434,True,36,1
AK-K-23K23S2,140,experiment,69,↑,up,↑,0.41671450005378574,True,36,0
AK-K-23K23S2,141,experiment,64,→,right,→,0.5115563999861479,True,36,0
AK-K-23K23S2,142,experiment,90,↑,up,↑,0.38351009995676577,True,36,1
AK-K-23K23S2,143,experiment,105,→,right,→,0.48393949994351715,True,36,0
AK-K-23K23S2,144,experiment,68,↓,down,↓,0.36718579998705536,True,36,1
AK-K-23K23S2,145,experiment,55,↓,down,↓,0.5054737000027671,True,36,0
AK-K-23K23S2,146,experiment,96,↑,up,↑,0.5177628999808803,True,36,1
AK-K-23K23S2,147,experiment,60,←,left,←,0.3420432999264449,True,36,1
AK-K-23K23S2,148,experiment,85,→,right,→,0.3763764000032097,True,36,0
AK-K-23K23S2,149,experiment,56,↓,down,↓,0.6588157000951469,True,36,1
AK-K-23K23S2,150,experiment,94,↓,down,↓,0.5133066000416875,True,36,1
AK-K-23K23S2,151,experiment,99,↑,up,↑,0.5647808999055997,True,36,1
AK-K-23K23S2,152,experiment,89,→,no_key,no_letter,-1.0,False,36,1
AK-K-23K23S2,153,experiment,83,→,right,→,0.4170159000204876,True,36,1
AK-K-23K23S2,154,experiment,74,↓,right,→,0.40839590004179627,False,36,0
AK-K-23K23S2,155,experiment,103,↑,up,↑,0.596387599944137,True,36,0
AK-K-23K23S2,156,experiment,67,↓,down,↓,0.41751850000582635,True,36,1
AK-K-23K23S2,157,experiment,93,↑,up,↑,0.325320600066334,True,36,0
AK-K-23K23S2,158,experiment,53,↑,up,↑,0.4963713000761345,True,36,0
AK-K-23K23S2,159,experiment,97,↑,up,↑,0.564873700030148,True,36,1
AK-K-23K23S2,160,experiment,82,←,up,↑,0.5152651000535116,False,36,1
AK-K-23K23S2,161,experiment,100,↓,down,↓,0.5580029000993818,True,36,1
AK-K-23K23S2,162,experiment,95,↑,up,↑,0.47291520005092025,True,36,1
AK-K-23K23S2,163,experiment,88,→,left,←,0.5370635000290349,False,36,1
AK-K-23K23S2,164,experiment,79,↓,down,↓,0.5296086000744253,True,36,1
AK-K-23K23S2,165,experiment,59,←,left,←,0.3505341000854969,True,36,1
AK-K-23K23S2,166,experiment,76,→,right,→,0.41698570002336055,True,36,0
AK-K-23K23S2,167,training,101,←,left,←,0.6938172000227496,True,36,0
AK-K-23K23S2,168,training,62,↓,down,↓,0.40937300003133714,True,36,1
AK-K-23K23S2,169,experiment,84,←,left,←,0.3919852999970317,True,36,0
AK-K-23K23S2,170,experiment,103,↑,up,↑,0.5363020000513643,True,36,0
AK-K-23K23S2,171,experiment,85,↓,down,↓,0.38373220001813024,True,36,1
AK-K-23K23S2,172,experiment,63,→,right,→,0.4912455000448972,True,36,0
AK-K-23K23S2,173,experiment,105,→,right,→,0.40075150004122406,True,36,1
AK-K-23K23S2,174,experiment,61,→,right,→,0.35035470000002533,True,36,0
AK-K-23K23S2,175,experiment,79,↑,up,↑,0.409499500063248,True,36,0
AK-K-23K23S2,176,experiment,68,↑,up,↑,0.553654900053516,True,36,0
AK-K-23K23S2,177,experiment,86,→,left,←,0.5673486999003217,False,36,1
AK-K-23K23S2,178,experiment,69,↓,no_key,no_letter,-1.0,False,36,1
AK-K-23K23S2,179,experiment,54,→,right,→,0.4743980000494048,True,36,1
AK-K-23K23S2,180,experiment,74,←,right,→,0.4525062999455258,False,36,0
AK-K-23K23S2,181,experiment,70,↑,up,↑,0.5741416999371722,True,36,0
AK-K-23K23S2,182,experiment,55,→,right,→,0.5091909000184387,True,36,1
AK-K-23K23S2,183,experiment,88,→,left,←,0.4840982999885455,False,36,1
AK-K-23K23S2,184,experiment,89,→,right,→,0.49993809999432415,True,36,1
AK-K-23K23S2,185,experiment,48,←,left,←,0.5442995999474078,True,36,1
AK-K-23K23S2,186,experiment,91,↑,up,↑,0.6045642000390217,True,36,1
AK-K-23K23S2,187,experiment,62,↓,down,↓,0.6722731000045314,True,36,1
AK-K-23K23S2,188,experiment,97,←,left,←,0.44260399998165667,True,36,1
AK-K-23K23S2,189,experiment,65,→,right,→,0.5824611000716686,True,36,1
AK-K-23K23S2,190,experiment,108,→,right,→,0.40843449998646975,True,36,1
AK-K-23K23S2,191,experiment,93,→,right,→,0.45025869994424284,True,36,0
AK-K-23K23S2,192,experiment,50,←,left,←,0.5702531998977065,True,36,0
AK-K-23K23S2,193,experiment,58,↓,down,↓,0.5604904000647366,True,36,1
AK-K-23K23S2,194,experiment,76,↓,down,↓,0.48135889996774495,True,36,1
AK-K-23K23S2,195,experiment,100,↓,down,↓,0.3753501999890432,True,36,1
AK-K-23K23S2,196,experiment,106,↓,down,↓,0.3668325000908226,True,36,0
AK-K-23K23S2,197,experiment,78,↓,down,↓,0.35946579999290407,True,36,0
AK-K-23K23S2,198,experiment,82,←,left,←,0.4008262000279501,True,36,1
AK-K-23K23S2,199,experiment,80,←,left,←,0.5191983000840992,True,36,0
AK-K-23K23S2,200,experiment,49,↓,up,↑,0.7465226999484003,False,36,1
AK-K-23K23S2,201,experiment,95,↓,down,↓,0.3673121000174433,True,36,1
AK-K-23K23S2,202,experiment,83,↑,no_key,no_letter,-1.0,False,36,1
AK-K-23K23S2,203,experiment,60,↑,up,↑,0.48264199995901436,True,36,1
AK-K-23K23S2,204,experiment,66,↓,down,↓,0.40114830003585666,True,36,1
AK-K-23K23S2,205,experiment,96,↑,up,↑,0.41758330003358424,True,36,0
AK-K-23K23S2,206,experiment,75,←,left,←,0.5032292000250891,True,36,1
AK-K-23K23S2,207,experiment,104,↓,down,↓,0.5929105000104755,True,36,1
AK-K-23K23S2,208,experiment,67,↓,down,↓,0.4836349000688642,True,36,1
AK-K-23K23S2,209,experiment,101,←,left,←,0.5271037999773398,True,36,1
AK-K-23K23S2,210,experiment,72,↑,up,↑,0.3760727000189945,True,36,1
AK-K-23K23S2,211,experiment,87,→,right,→,0.3917848001001403,True,36,1
AK-K-23K23S2,212,experiment,90,→,left,←,0.33363810006994754,False,36,0
AK-K-23K23S2,213,experiment,53,↓,down,↓,0.5543128999415785,True,36,0
AK-K-23K23S2,214,experiment,52,←,left,←,0.38426780002191663,True,36,1
AK-K-23K23S2,215,experiment,99,←,left,←,0.6915271000470966,True,36,0
AK-K-23K23S2,216,experiment,102,↓,left,←,0.7822673000628129,False,36,1
AK-K-23K23S2,217,experiment,77,→,right,→,0.5979347999673337,True,36,1
AK-K-23K23S2,218,experiment,81,↑,up,↑,0.3928139000199735,True,36,1
AK-K-23K23S2,219,experiment,94,↑,up,↑,0.4927669999888167,True,36,0
AK-K-23K23S2,220,experiment,92,←,no_key,no_letter,-1.0,False,36,1
AK-K-23K23S2,221,experiment,51,→,no_key,no_letter,-1.0,False,36,1
AK-K-23K23S2,222,experiment,71,↑,up,↑,0.526717699947767,True,36,1
AK-K-23K23S2,223,experiment,107,↓,down,↓,0.7109076000051573,True,36,1
AK-K-23K23S2,224,experiment,73,↓,down,↓,0.546982100000605,True,36,1
AK-K-23K23S2,225,experiment,57,↓,down,↓,0.4441835000179708,True,36,1
AK-K-23K23S2,226,experiment,56,→,left,←,0.46990870009176433,False,36,0
AK-K-23K23S2,227,experiment,59,→,right,→,0.48771690006833524,True,36,0
AK-K-23K23S2,228,experiment,98,←,left,←,0.5879522999748588,True,36,1
AK-K-23K23S2,229,experiment,64,←,no_key,no_letter,-1.0,False,36,1
AK-K-23K23S2,230,training,93,←,left,←,0.3840517000062391,True,36,0
AK-K-23K23S2,231,training,73,→,left,←,0.5430152000626549,False,36,1
AK-K-23K23S2,232,experiment,99,↓,down,↓,0.5611849999986589,True,36,1
AK-K-23K23S2,233,experiment,62,←,left,←,0.5664813000475988,True,36,1
AK-K-23K23S2,234,experiment,64,←,left,←,0.5152292000129819,True,36,1
AK-K-23K23S2,235,experiment,69,←,left,←,0.32585810008458793,True,36,1
AK-K-23K23S2,236,experiment,107,↓,down,↓,0.5516881999792531,True,36,0
AK-K-23K23S2,237,experiment,52,↓,down,↓,0.3837775000138208,True,36,1
AK-K-23K23S2,238,experiment,92,↓,down,↓,0.3673725000116974,True,36,0
AK-K-23K23S2,239,experiment,60,←,left,←,0.3939467999152839,True,36,0
AK-K-23K23S2,240,experiment,84,→,right,→,0.604847599985078,True,36,0
AK-K-23K23S2,241,experiment,70,↑,up,↑,0.43399299995508045,True,36,1
AK-K-23K23S2,242,experiment,108,←,left,←,0.5608826000243425,True,36,1
AK-K-23K23S2,243,experiment,75,←,no_key,no_letter,-1.0,False,36,1
AK-K-23K23S2,244,experiment,105,↓,down,↓,0.545628699939698,True,36,1
AK-K-23K23S2,245,experiment,78,↓,down,↓,0.5385086999740452,True,36,1
AK-K-23K23S2,246,experiment,68,→,right,→,0.40889120008796453,True,36,1
AK-K-23K23S2,247,experiment,86,←,left,←,0.49800499994307756,True,36,0
AK-K-23K23S2,248,experiment,76,→,right,→,0.4342451000120491,True,36,1
AK-K-23K23S2,249,experiment,89,←,left,←,0.3590481000719592,True,36,1
AK-K-23K23S2,250,experiment,67,↓,down,↓,0.4003584000747651,True,36,0
AK-K-23K23S2,251,experiment,57,↑,up,↑,0.5271212999941781,True,36,0
AK-K-23K23S2,252,experiment,104,→,right,→,0.3763706999598071,True,36,1
AK-K-23K23S2,253,experiment,58,↑,up,↑,0.5573142999783158,True,36,0
AK-K-23K23S2,254,experiment,95,→,left,←,0.49606950010638684,False,36,1
AK-K-23K23S2,255,experiment,96,←,left,←,0.3925687000155449,True,36,1
AK-K-23K23S2,256,experiment,72,↓,down,↓,0.48554290004540235,True,36,0
AK-K-23K23S2,257,experiment,100,↓,down,↓,0.5051860000239685,True,36,1
AK-K-23K23S2,258,experiment,81,→,right,→,0.5544384999666363,True,36,1
AK-K-23K23S2,259,experiment,82,→,right,→,0.4740310999331996,True,36,1
AK-K-23K23S2,260,experiment,97,→,right,→,0.45031420001760125,True,36,0
AK-K-23K23S2,261,experiment,91,↑,up,↑,0.4008356999838725,True,36,0
AK-K-23K23S2,262,experiment,49,→,right,→,0.4947241999907419,True,36,1
AK-K-23K23S2,263,experiment,102,←,left,←,0.5456592000555247,True,36,1
AK-K-23K23S2,264,experiment,94,↓,down,↓,0.4089972000801936,True,36,1
AK-K-23K23S2,265,experiment,73,←,left,←,0.9165360999759287,True,36,0
AK-K-23K23S2,266,experiment,53,↑,up,↑,0.4511279999278486,True,36,1
AK-K-23K23S2,267,experiment,93,↓,down,↓,0.36773299996275455,True,36,1
AK-K-23K23S2,268,experiment,98,←,left,←,0.3753390000201762,True,36,1
AK-K-23K23S2,269,experiment,106,↑,up,↑,0.3842082000337541,True,36,0
AK-K-23K23S2,270,experiment,77,↑,up,↑,0.442897200002335,True,36,0
AK-K-23K23S2,271,experiment,79,↓,down,↓,0.5841848000418395,True,36,1
AK-K-23K23S2,272,experiment,66,→,right,→,0.4343136999523267,True,36,1
AK-K-23K23S2,273,experiment,85,↓,down,↓,0.5503238999517635,True,36,1
AK-K-23K23S2,274,experiment,63,→,no_key,no_letter,-1.0,False,36,1
AK-K-23K23S2,275,experiment,61,↑,up,↑,0.553701400058344,True,36,1
AK-K-23K23S2,276,experiment,51,→,right,→,0.38438820000737906,True,36,1
AK-K-23K23S2,277,experiment,80,←,left,←,0.3419912999961525,True,36,1
AK-K-23K23S2,278,experiment,103,→,right,→,0.5534286999609321,True,36,0
AK-K-23K23S2,279,experiment,50,→,right,→,0.4253392000682652,True,36,1
AK-K-23K23S2,280,experiment,83,↑,up,↑,0.5345579999266192,True,36,0
AK-K-23K23S2,281,experiment,88,↑,up,↑,0.5243112000171095,True,36,1
AK-K-23K23S2,282,experiment,71,↑,up,↑,0.504421400022693,True,36,1
AK-K-23K23S2,283,experiment,74,↑,up,↑,0.35070450010243803,True,36,1
AK-K-23K23S2,284,experiment,54,→,right,→,0.4425341000314802,True,36,0
AK-K-23K23S2,285,experiment,101,←,left,←,0.36771349993068725,True,36,1
AK-K-23K23S2,286,experiment,59,↑,up,↑,0.5032588000176474,True,36,1
AK-K-23K23S2,287,experiment,56,↑,up,↑,0.3941784999333322,True,36,1
AK-K-23K23S2,288,experiment,48,←,left,←,0.7532396999886259,True,36,1
AK-K-23K23S2,289,experiment,90,↓,down,↓,0.48593460000120103,True,36,1
AK-K-23K23S2,290,experiment,55,→,right,→,0.511882400023751,True,36,1
AK-K-23K23S2,291,experiment,87,←,left,←,0.3337008999660611,True,36,1
AK-K-23K23S2,292,experiment,65,↓,down,↓,0.6282840999774635,True,36,0
AK-K-23K23S2,293,training,82,↓,down,↓,0.4088004999794066,True,35,0
AK-K-23K23S2,294,training,55,↑,up,↑,0.39284300000872463,True,35,0
AK-K-23K23S2,295,experiment,80,→,down,↓,0.35121580003760755,False,35,0
AK-K-23K23S2,296,experiment,52,↑,up,↑,0.35181200003717095,True,35,1
AK-K-23K23S2,297,experiment,77,→,right,→,0.4260589999612421,True,35,0
AK-K-23K23S2,298,experiment,78,↓,down,↓,0.5321883999276906,True,35,1
AK-K-23K23S2,299,experiment,59,↑,up,↑,0.5637672999873757,True,35,1
AK-K-23K23S2,300,experiment,50,↑,up,↑,0.5168861000565812,True,35,1
AK-K-23K23S2,301,experiment,72,↓,down,↓,0.38362330000381917,True,35,1
AK-K-23K23S2,302,experiment,66,↑,up,↑,0.5638559999642894,True,35,0
AK-K-23K23S2,303,experiment,69,→,right,→,0.41699279996100813,True,35,1
AK-K-23K23S2,304,experiment,56,→,left,←,0.5074995999457315,False,35,0
AK-K-23K23S2,305,experiment,51,←,left,←,0.5586069000419229,True,35,1
AK-K-23K23S2,306,experiment,101,←,left,←,0.5113737999927253,True,35,1
AK-K-23K23S2,307,experiment,84,↓,down,↓,0.5357625000178814,True,35,1
AK-K-23K23S2,308,experiment,104,↑,up,↑,0.3772736999671906,True,35,1
AK-K-23K23S2,309,experiment,88,↓,down,↓,0.39277899998705834,True,35,0
AK-K-23K23S2,310,experiment,93,→,right,→,0.4010141999460757,True,35,1
AK-K-23K23S2,311,experiment,79,→,right,→,0.6354398999828845,True,35,0
AK-K-23K23S2,312,experiment,86,↑,up,↑,0.58177369995974,True,35,1
AK-K-23K23S2,313,experiment,54,↑,up,↑,0.5330449000466615,True,35,1
AK-K-23K23S2,314,experiment,97,←,left,←,0.43410110007971525,True,35,1
AK-K-23K23S2,315,experiment,105,↓,up,↑,0.7479125999379903,False,35,1
AK-K-23K23S2,316,experiment,76,←,left,←,0.4258487999904901,True,35,1
AK-K-23K23S2,317,experiment,81,↓,down,↓,0.43448779999744147,True,35,0
AK-K-23K23S2,318,experiment,70,←,left,←,0.6170444999588653,True,35,0
AK-K-23K23S2,319,experiment,67,↓,down,↓,0.5786931000184268,True,35,1
AK-K-23K23S2,320,experiment,100,↓,down,↓,0.579042199999094,True,35,1
AK-K-23K23S2,321,experiment,61,→,right,→,0.5439249000046402,True,35,1
AK-K-23K23S2,322,experiment,87,↑,up,↑,0.4424531999975443,True,35,1
AK-K-23K23S2,323,experiment,96,↓,no_key,no_letter,-1.0,False,35,0
AK-K-23K23S2,324,experiment,106,←,left,←,0.5635939999483526,True,35,1
AK-K-23K23S2,325,experiment,57,↑,up,↑,0.5943689000559971,True,35,1
AK-K-23K23S2,326,experiment,63,↓,down,↓,0.3917922000400722,True,35,1
AK-K-23K23S2,327,experiment,103,↓,down,↓,0.7488557999022305,True,35,0
AK-K-23K23S2,328,experiment,92,↑,up,↑,0.6086958999512717,True,35,1
AK-K-23K23S2,329,experiment,91,←,left,←,0.7229382999939844,True,35,1
AK-K-23K23S2,330,experiment,74,←,left,←,0.4425934999017045,True,35,1
AK-K-23K23S2,331,experiment,94,←,left,←,0.41699609998613596,True,35,0
AK-K-23K23S2,332,experiment,107,↑,up,↑,0.4731481000781059,True,35,0
AK-K-23K23S2,333,experiment,82,←,left,←,0.49126170005183667,True,35,1
AK-K-23K23S2,334,experiment,68,←,left,←,0.4896354000084102,True,35,1
AK-K-23K23S2,335,experiment,65,↓,left,←,0.6886738000903279,False,35,1
AK-K-23K23S2,336,experiment,95,←,left,←,0.35956739995162934,True,35,1
AK-K-23K23S2,337,experiment,90,↑,up,↑,0.489999599987641,True,35,1
AK-K-23K23S2,338,experiment,64,→,right,→,0.49782930000219494,True,35,1
AK-K-23K23S2,339,experiment,102,↑,up,↑,0.4343204000033438,True,35,1
AK-K-23K23S2,340,experiment,60,→,left,←,0.4630096999462694,False,35,1
AK-K-23K23S2,341,experiment,49,→,right,→,0.4684701000805944,True,35,0
AK-K-23K23S2,342,experiment,99,↑,up,↑,0.4190976000390947,True,35,1
AK-K-23K23S2,343,experiment,62,←,left,←,0.38362000009510666,True,35,0
AK-K-23K23S2,344,experiment,71,↑,up,↑,0.621162399998866,True,35,0
AK-K-23K23S2,345,experiment,108,↓,down,↓,0.6326734999893233,True,35,1
AK-K-23K23S2,346,experiment,48,↑,up,↑,0.3845100000035018,True,35,1
AK-K-23K23S2,347,experiment,58,↑,up,↑,0.3756071000825614,True,35,0
AK-K-23K23S2,348,experiment,83,↓,down,↓,0.4278031999710947,True,35,1
AK-K-23K23S2,349,experiment,85,→,no_key,no_letter,-1.0,False,35,1
AK-K-23K23S2,350,experiment,55,↑,up,↑,0.5337300999090075,True,35,1
AK-K-23K23S2,351,experiment,98,↑,left,←,0.36679589992854744,False,35,1
AK-K-23K23S2,352,experiment,53,←,left,←,0.5922481000889093,True,35,0
AK-K-23K23S2,353,experiment,89,←,left,←,0.6596950999228284,True,35,1
AK-K-23K23S2,354,experiment,75,←,left,←,0.38372080004774034,True,35,1
AK-K-23K23S2,355,experiment,73,←,left,←,0.4974621000001207,True,35,0
AK-K-23K23S2,356,training,89,←,left,←,0.48907929996494204,True,35,0
AK-K-23K23S2,357,training,50,→,right,→,0.44278849998954684,True,35,1
AK-K-23K23S2,358,experiment,80,→,right,→,0.6091972999274731,True,35,0
AK-K-23K23S2,359,experiment,57,→,right,→,0.5023037999635562,True,35,1
AK-K-23K23S2,360,experiment,60,←,left,←,0.36698409996461123,True,35,1
AK-K-23K23S2,361,experiment,106,→,right,→,0.4853907000506297,True,35,0
AK-K-23K23S2,362,experiment,94,↓,down,↓,0.5947315000230446,True,35,1
AK-K-23K23S2,363,experiment,95,↓,down,↓,0.4840282000368461,True,35,1
AK-K-23K23S2,364,experiment,76,↓,down,↓,0.4251998000545427,True,35,1
AK-K-23K23S2,365,experiment,62,↑,up,↑,0.419456799980253,True,35,0
AK-K-23K23S2,366,experiment,72,→,right,→,0.7375788000645116,True,35,0
AK-K-23K23S2,367,experiment,81,→,right,→,0.44307599996682256,True,35,1
AK-K-23K23S2,368,experiment,101,↓,no_key,no_letter,-1.0,False,35,0
AK-K-23K23S2,369,experiment,54,↓,left,←,0.40907560009509325,False,35,1
AK-K-23K23S2,370,experiment,79,→,right,→,0.5410960000008345,True,35,0
AK-K-23K23S2,371,experiment,52,→,right,→,0.5346149000106379,True,35,1
AK-K-23K23S2,372,experiment,96,↓,down,↓,0.5137729999842122,True,35,1
AK-K-23K23S2,373,experiment,107,←,left,←,0.40869120007846504,True,35,1
AK-K-23K23S2,374,experiment,83,←,left,←,0.376075999927707,True,35,0
AK-K-23K23S2,375,experiment,71,→,right,→,0.48779480007942766,True,35,1
AK-K-23K23S2,376,experiment,85,↑,up,↑,0.4093826999887824,True,35,1
AK-K-23K23S2,377,experiment,75,↑,up,↑,0.46389200002886355,True,35,0
AK-K-23K23S2,378,experiment,102,←,left,←,0.5713041999842972,True,35,1
AK-K-23K23S2,379,experiment,66,↑,up,↑,0.5747896999819204,True,35,1
AK-K-23K23S2,380,experiment,67,←,left,←,0.3843192000640556,True,35,1
AK-K-23K23S2,381,experiment,90,↑,up,↑,0.5330851000035182,True,35,1
AK-K-23K23S2,382,experiment,61,↓,down,↓,0.43351149989757687,True,35,1
AK-K-23K23S2,383,experiment,108,→,right,→,0.5428251000121236,True,35,0
AK-K-23K23S2,384,experiment,103,↑,up,↑,0.5600976999849081,True,35,1
AK-K-23K23S2,385,experiment,82,↑,up,↑,0.40874790004454553,True,35,1
AK-K-23K23S2,386,experiment,58,→,right,→,0.4590501000639051,True,35,0
AK-K-23K23S2,387,experiment,104,←,left,←,0.38411499990615994,True,35,0
AK-K-23K23S2,388,experiment,64,←,left,←,0.5699992999434471,True,35,0
AK-K-23K23S2,389,experiment,74,→,no_key,no_letter,-1.0,False,35,1
AK-K-23K23S2,390,experiment,51,↓,down,↓,0.46058189996983856,True,35,1
AK-K-23K23S2,391,experiment,63,↓,down,↓,0.541402900009416,True,35,0
AK-K-23K23S2,392,experiment,70,↑,up,↑,0.4260389000410214,True,35,1
AK-K-23K23S2,393,experiment,53,↑,up,↑,0.5743357000174001,True,35,0
AK-K-23K23S2,394,experiment,92,↑,up,↑,0.4263444999232888,True,35,1
AK-K-23K23S2,395,experiment,68,←,left,←,0.5379585999762639,True,35,0
AK-K-23K23S2,396,experiment,100,→,right,→,0.6514895999571308,True,35,1
AK-K-23K23S2,397,experiment,77,↓,down,↓,0.5447234000312164,True,35,1
AK-K-23K23S2,398,experiment,84,→,right,→,0.479501000023447,True,35,1
AK-K-23K23S2,399,experiment,78,←,left,←,0.35875000001396984,True,35,1
AK-K-23K23S2,400,experiment,89,→,right,→,0.4868899999419227,True,35,0
AK-K-23K23S2,401,experiment,59,↑,up,↑,0.5683211999712512,True,35,1
AK-K-23K23S2,402,experiment,49,↓,no_key,no_letter,-1.0,False,35,1
AK-K-23K23S2,403,experiment,48,←,left,←,0.4684503000462428,True,35,1
AK-K-23K23S2,404,experiment,91,→,right,→,0.4840482999570668,True,35,1
AK-K-23K23S2,405,experiment,105,↓,down,↓,0.5178329999325797,True,35,1
AK-K-23K23S2,406,experiment,87,←,left,←,0.556952300015837,True,35,1
AK-K-23K23S2,407,experiment,73,↑,up,↑,0.5349835999077186,True,35,1
AK-K-23K23S2,408,experiment,69,←,left,←,0.595116899930872,True,35,1
AK-K-23K23S2,409,experiment,86,→,right,→,0.4173620999790728,True,35,1
AK-K-23K23S2,410,experiment,97,→,right,→,0.5267768999328837,True,35,0
AK-K-23K23S2,411,experiment,98,↓,down,↓,0.41782730002887547,True,35,1
AK-K-23K23S2,412,experiment,93,↑,up,↑,0.5296117999823764,True,35,0
AK-K-23K23S2,413,experiment,99,←,left,←,0.532123800017871,True,35,1
AK-K-23K23S2,414,experiment,56,←,left,←,0.4169319999637082,True,35,1
AK-K-23K23S2,415,experiment,55,→,no_key,no_letter,-1.0,False,35,0
AK-K-23K23S2,416,experiment,50,←,left,←,0.36957180011086166,True,35,1
AK-K-23K23S2,417,experiment,88,→,right,→,0.5599005999974906,True,35,0
AK-K-23K23S2,418,experiment,65,←,left,←,0.48467670008540154,True,35,1
AK-K-23K23S2,419,training,58,↓,down,↓,0.4589945999905467,True,34,0
AK-K-23K23S2,420,training,51,←,left,←,0.39258730004075915,True,34,1
AK-K-23K23S2,421,experiment,74,↑,up,↑,0.3843323999317363,True,34,1
AK-K-23K23S2,422,experiment,107,↑,up,↑,0.5644390999805182,True,34,0
AK-K-23K23S2,423,experiment,61,↑,up,↑,0.5380693000042811,True,34,1
AK-K-23K23S2,424,experiment,59,←,left,←,0.35856259998399764,True,34,1
AK-K-23K23S2,425,experiment,54,↓,down,↓,0.5448663000715896,True,34,0
AK-K-23K23S2,426,experiment,86,←,left,←,0.35033909999765456,True,34,1
AK-K-23K23S2,427,experiment,93,→,right,→,0.5145466000540182,True,34,0
AK-K-23K23S2,428,experiment,97,←,left,←,0.4780458000022918,True,34,1
AK-K-23K23S2,429,experiment,108,→,right,→,0.5911971000023186,True,34,1
AK-K-23K23S2,430,experiment,99,←,left,←,0.3361193999880925,True,34,1
AK-K-23K23S2,431,experiment,76,→,right,→,0.4965907000005245,True,34,0
AK-K-23K23S2,432,experiment,101,→,right,→,0.43433289998210967,True,34,1
AK-K-23K23S2,433,experiment,105,→,right,→,0.4954304000129923,True,34,0
AK-K-23K23S2,434,experiment,85,←,left,←,0.36740490002557635,True,34,1
AK-K-23K23S2,435,experiment,48,→,right,→,0.7213960000080988,True,34,0
AK-K-23K23S2,436,experiment,71,↓,down,↓,0.5652535000117496,True,34,1
AK-K-23K23S2,437,experiment,58,→,right,→,0.5479654000373557,True,34,1
AK-K-23K23S2,438,experiment,63,↑,up,↑,0.40968589996919036,True,34,1
AK-K-23K23S2,439,experiment,53,→,right,→,0.5112919000675902,True,34,0
AK-K-23K23S2,440,experiment,106,↑,up,↑,0.4010198999894783,True,34,1
AK-K-23K23S2,441,experiment,89,↓,down,↓,0.5226271999999881,True,34,1
AK-K-23K23S2,442,experiment,103,←,left,←,0.5558621999807656,True,34,1
AK-K-23K23S2,443,experiment,87,←,left,←,0.3589415999595076,True,34,1
AK-K-23K23S2,444,experiment,104,↑,up,↑,0.3941521999659017,True,34,0
AK-K-23K23S2,445,experiment,52,↓,no_key,no_letter,-1.0,False,34,0
AK-K-23K23S2,446,experiment,78,↑,up,↑,0.417341300053522,True,34,1
AK-K-23K23S2,447,experiment,90,↑,up,↑,0.5459047999465838,True,34,0
AK-K-23K23S2,448,experiment,94,↓,down,↓,0.4691579999634996,True,34,1
AK-K-23K23S2,449,experiment,62,←,left,←,0.3351257999893278,True,34,1
AK-K-23K23S2,450,experiment,70,↓,down,↓,0.521377700031735,True,34,0
AK-K-23K23S2,451,experiment,50,→,right,→,0.3752195000415668,True,34,1
AK-K-23K23S2,452,experiment,67,↑,up,↑,0.5031543000368401,True,34,0
AK-K-23K23S2,453,experiment,96,→,down,↓,0.5156277000205591,False,34,1
AK-K-23K23S2,454,experiment,98,↑,up,↑,0.5510938999941573,True,34,1
AK-K-23K23S2,455,experiment,75,↑,up,↑,0.4563479999778792,True,34,1
AK-K-23K23S2,456,experiment,81,↓,down,↓,0.5237664000596851,True,34,0
AK-K-23K23S2,457,experiment,72,↑,up,↑,0.5913533000275493,True,34,1
AK-K-23K23S2,458,experiment,49,←,left,←,0.3591804000316188,True,34,1
AK-K-23K23S2,459,experiment,64,←,left,←,0.6045505000511184,True,34,0
AK-K-23K23S2,460,experiment,73,←,left,←,0.35097979998681694,True,34,1
AK-K-23K23S2,461,experiment,66,↑,up,↑,0.5369690000079572,True,34,1
AK-K-23K23S2,462,experiment,92,→,right,→,0.5174528000643477,True,34,1
AK-K-23K23S2,463,experiment,65,←,left,←,0.3760054000886157,True,34,1
AK-K-23K23S2,464,experiment,88,←,left,←,0.37627729994710535,True,34,0
AK-K-23K23S2,465,experiment,60,←,left,←,0.5722786000696942,True,34,0
AK-K-23K23S2,466,experiment,100,↑,no_key,no_letter,-1.0,False,34,1
AK-K-23K23S2,467,experiment,51,↑,up,↑,0.4941907998872921,True,34,1
AK-K-23K23S2,468,experiment,80,→,right,→,0.49621369992382824,True,34,1
AK-K-23K23S2,469,experiment,56,←,left,←,0.4169500001007691,True,34,1
AK-K-23K23S2,470,experiment,102,→,no_key,no_letter,-1.0,False,34,0
AK-K-23K23S2,471,experiment,79,→,right,→,0.40986939996946603,True,34,1
AK-K-23K23S2,472,experiment,91,↑,up,↑,0.4744090000167489,True,34,1
AK-K-23K23S2,473,experiment,95,↑,left,←,0.3339931999798864,False,34,1
AK-K-23K23S2,474,experiment,82,→,right,→,0.5198133999947459,True,34,0
AK-K-23K23S2,475,experiment,77,→,right,→,0.39270339999347925,True,34,1
AK-K-23K23S2,476,experiment,55,←,right,→,0.45654990000184625,False,34,1
AK-K-23K23S2,477,experiment,83,→,right,→,0.5549445999786258,True,34,1
AK-K-23K23S2,478,experiment,84,←,left,←,0.5934619000181556,True,34,1
AK-K-23K23S2,479,experiment,57,↓,down,↓,0.510620400076732,True,34,1
AK-K-23K23S2,480,experiment,68,←,left,←,0.5803910000249743,True,34,1
AK-K-23K23S2,481,experiment,69,→,left,←,0.4945755999069661,False,34,1
AK-K-23K23S2,482,training,73,↓,down,↓,0.6204692999599501,True,34,0
AK-K-23K23S2,483,training,66,↑,up,↑,0.5421102999243885,True,34,1
AK-K-23K23S2,484,experiment,66,↑,up,↑,0.5869550999486819,True,34,1
AK-K-23K23S2,485,experiment,52,→,right,→,0.4196049999445677,True,34,1
AK-K-23K23S2,486,experiment,58,→,right,→,0.3839680999517441,True,34,0
AK-K-23K23S2,487,experiment,53,←,left,←,0.48527480009943247,True,34,1
AK-K-23K23S2,488,experiment,72,↓,down,↓,0.3750282999826595,True,34,1
AK-K-23K23S2,489,experiment,55,←,left,←,0.5293196000857279,True,34,0
AK-K-23K23S2,490,experiment,77,→,left,←,0.4827057000948116,False,34,1
AK-K-23K23S2,491,experiment,90,→,right,→,0.5141904000192881,True,34,1
AK-K-23K23S2,492,experiment,88,↓,down,↓,0.584968600072898,True,34,1
AK-K-23K23S2,493,experiment,108,→,right,→,0.434241299983114,True,34,1
AK-K-23K23S2,494,experiment,85,↓,down,↓,0.40255840006284416,True,34,1
AK-K-23K23S2,495,experiment,83,↓,down,↓,0.3506599999964237,True,34,0
AK-K-23K23S2,496,experiment,57,↓,down,↓,0.6040353999705985,True,34,0
AK-K-23K23S2,497,experiment,89,↓,down,↓,0.38433999998960644,True,34,1
AK-K-23K23S2,498,experiment,48,↓,down,↓,0.5034430000232533,True,34,0
AK-K-23K23S2,499,experiment,86,↑,up,↑,0.5837640999816358,True,34,1
AK-K-23K23S2,500,experiment,80,↑,up,↑,0.3759305999847129,True,34,1
AK-K-23K23S2,501,experiment,99,→,right,→,0.5822715999092907,True,34,1
AK-K-23K23S2,502,experiment,102,↓,down,↓,0.42587919998914003,True,34,1
AK-K-23K23S2,503,experiment,82,↑,up,↑,0.5856612001080066,True,34,1
AK-K-23K23S2,504,experiment,100,↓,down,↓,0.481554500060156,True,34,1
AK-K-23K23S2,505,experiment,51,↓,up,↑,0.6377506999997422,False,34,1
AK-K-23K23S2,506,experiment,78,↑,up,↑,0.5788415001006797,True,34,1
AK-K-23K23S2,507,experiment,104,↑,up,↑,0.5458233000244945,True,34,1
AK-K-23K23S2,508,experiment,73,↓,down,↓,0.6599119999445975,True,34,1
AK-K-23K23S2,509,experiment,68,↓,down,↓,0.4171636999817565,True,34,1
AK-K-23K23S2,510,experiment,97,←,left,←,0.400449899956584,True,34,0
AK-K-23K23S2,511,experiment,50,↓,down,↓,0.6344544999301434,True,34,0
AK-K-23K23S2,512,experiment,79,↓,down,↓,0.8395961000351235,True,34,1
AK-K-23K23S2,513,experiment,69,→,right,→,0.4167132000438869,True,34,1
AK-K-23K23S2,514,experiment,49,→,left,←,0.4625328000402078,False,34,0
AK-K-23K23S2,515,experiment,76,→,no_key,no_letter,-1.0,False,34,1
AK-K-23K23S2,516,experiment,98,↑,no_key,no_letter,-1.0,False,34,1
AK-K-23K23S2,517,experiment,91,→,right,→,0.6343429000116885,True,34,1
AK-K-23K23S2,518,experiment,101,←,left,←,0.5119377999799326,True,34,1
AK-K-23K23S2,519,experiment,94,→,right,→,0.564697099965997,True,34,1
AK-K-23K23S2,520,experiment,103,↓,down,↓,0.6204788000322878,True,34,1
AK-K-23K23S2,521,experiment,95,←,left,←,0.5725438999943435,True,34,1
AK-K-23K23S2,522,experiment,75,↓,down,↓,0.5730235000373796,True,34,1
AK-K-23K23S2,523,experiment,67,↑,no_key,no_letter,-1.0,False,34,1
AK-K-23K23S2,524,experiment,59,↓,down,↓,0.4084840000141412,True,34,1
AK-K-23K23S2,525,experiment,71,→,right,→,0.385807599988766,True,34,0
AK-K-23K23S2,526,experiment,106,←,left,←,0.3919894000282511,True,34,0
AK-K-23K23S2,527,experiment,64,↓,down,↓,0.528270100010559,True,34,0
AK-K-23K23S2,528,experiment,93,→,left,←,0.4847177000483498,False,34,1
AK-K-23K23S2,529,experiment,61,↓,down,↓,0.4009305000072345,True,34,1
AK-K-23K23S2,530,experiment,87,→,right,→,0.4175460999831557,True,34,1
AK-K-23K23S2,531,experiment,92,→,right,→,0.40254929999355227,True,34,0
AK-K-23K23S2,532,experiment,96,↓,down,↓,0.3594156999606639,True,34,0
AK-K-23K23S2,533,experiment,70,←,left,←,0.409270100062713,True,34,0
AK-K-23K23S2,534,experiment,60,↓,down,↓,0.5116470999782905,True,34,0
AK-K-23K23S2,535,experiment,62,↑,up,↑,0.5671003999887034,True,34,1
AK-K-23K23S2,536,experiment,84,↓,down,↓,0.6210373999783769,True,34,1
AK-K-23K23S2,537,experiment,107,↓,down,↓,0.4891698999563232,True,34,1
AK-K-23K23S2,538,experiment,54,↓,down,↓,0.4680189999053255,True,34,1
AK-K-23K23S2,539,experiment,63,→,right,→,0.41755979997105896,True,34,1
AK-K-23K23S2,540,experiment,65,←,left,←,0.4000131000066176,True,34,0
AK-K-23K23S2,541,experiment,56,→,no_key,no_letter,-1.0,False,34,0
AK-K-23K23S2,542,experiment,81,↑,up,↑,0.4339839000022039,True,34,1
AK-K-23K23S2,543,experiment,74,←,left,←,0.4905488999793306,True,34,0
AK-K-23K23S2,544,experiment,105,←,left,←,0.32535990001633763,True,34,1
AK-K-23K23S2,545,training,60,←,left,←,0.40075799997430295,True,34,0
AK-K-23K23S2,546,training,76,↓,down,↓,0.6167341999243945,True,34,0
AK-K-23K23S2,547,experiment,60,↓,down,↓,0.5325959000037983,True,34,1
AK-K-23K23S2,548,experiment,72,↓,down,↓,0.4638550999807194,True,34,1
AK-K-23K23S2,549,experiment,107,↑,up,↑,0.5942628999473527,True,34,1
AK-K-23K23S2,550,experiment,85,→,left,←,0.33377030002884567,False,34,1
AK-K-23K23S2,551,experiment,93,←,no_key,no_letter,-1.0,False,34,0
AK-K-23K23S2,552,experiment,91,←,left,←,0.40846700000111014,True,34,1
AK-K-23K23S2,553,experiment,101,↓,down,↓,0.597759100026451,True,34,0
AK-K-23K23S2,554,experiment,59,←,left,←,0.6346602000994608,True,34,1
AK-K-23K23S2,555,experiment,71,←,left,←,0.3671968000708148,True,34,1
AK-K-23K23S2,556,experiment,78,→,no_key,no_letter,-1.0,False,34,0
AK-K-23K23S2,557,experiment,68,←,left,←,0.4259370999643579,True,34,1
AK-K-23K23S2,558,experiment,97,→,right,→,0.5411687000887468,True,34,1
AK-K-23K23S2,559,experiment,48,↓,no_key,no_letter,-1.0,False,34,1
AK-K-23K23S2,560,experiment,100,↓,down,↓,0.5695847000461072,True,34,1
AK-K-23K23S2,561,experiment,84,↓,down,↓,0.47135100001469254,True,34,1
AK-K-23K23S2,562,experiment,96,→,right,→,0.5650924999499694,True,34,1
AK-K-23K23S2,563,experiment,98,↓,left,←,0.5904281999683008,False,34,1
AK-K-23K23S2,564,experiment,66,↓,down,↓,0.48936350003350526,True,34,1
AK-K-23K23S2,565,experiment,102,↓,down,↓,0.41665679996367544,True,34,1
AK-K-23K23S2,566,experiment,86,↓,down,↓,0.36926529998891056,True,34,0
AK-K-23K23S2,567,experiment,70,↓,down,↓,0.3591766000026837,True,34,0
AK-K-23K23S2,568,experiment,75,→,right,→,0.5861245000269264,True,34,0
AK-K-23K23S2,569,experiment,63,←,right,→,0.49396810005418956,False,34,1
AK-K-23K23S2,570,experiment,54,→,right,→,0.6489633000455797,True,34,1
AK-K-23K23S2,571,experiment,94,→,right,→,0.4639294999651611,True,34,1
AK-K-23K23S2,572,experiment,58,←,left,←,0.594662299961783,True,34,1
AK-K-23K23S2,573,experiment,56,↑,up,↑,0.6489528999663889,True,34,1
AK-K-23K23S2,574,experiment,105,→,no_key,no_letter,-1.0,False,34,1
AK-K-23K23S2,575,experiment,106,↓,no_key,no_letter,-1.0,False,34,1
AK-K-23K23S2,576,experiment,51,→,right,→,0.598660699906759,True,34,1
AK-K-23K23S2,577,experiment,64,→,right,→,0.3941981999669224,True,34,1
AK-K-23K23S2,578,experiment,87,↑,up,↑,0.516845399979502,True,34,1
AK-K-23K23S2,579,experiment,53,↑,up,↑,0.3759856999386102,True,34,1
AK-K-23K23S2,580,experiment,79,→,right,→,0.4002824000781402,True,34,0
AK-K-23K23S2,581,experiment,67,→,right,→,0.5678681000135839,True,34,0
AK-K-23K23S2,582,experiment,77,↓,no_key,no_letter,-1.0,False,34,1
AK-K-23K23S2,583,experiment,99,↓,down,↓,0.46647420001681894,True,34,1
AK-K-23K23S2,584,experiment,92,←,left,←,0.5373070000205189,True,34,1
AK-K-23K23S2,585,experiment,103,←,left,←,0.4013162999181077,True,34,1
AK-K-23K23S2,586,experiment,83,↓,down,↓,0.4252622000640258,True,34,0
AK-K-23K23S2,587,experiment,108,→,right,→,0.5220788000151515,True,34,0
AK-K-23K23S2,588,experiment,73,←,left,←,0.5014426000416279,True,34,1
AK-K-23K23S2,589,experiment,50,↑,up,↑,0.5532156999688596,True,34,1
AK-K-23K23S2,590,experiment,80,→,right,→,0.5209111000876874,True,34,1
AK-K-23K23S2,591,experiment,90,→,right,→,0.4090556000592187,True,34,1
AK-K-23K23S2,592,experiment,62,←,no_key,no_letter,-1.0,False,34,0
AK-K-23K23S2,593,experiment,65,←,left,←,0.5594294000184163,True,34,1
AK-K-23K23S2,594,experiment,95,←,no_key,no_letter,-1.0,False,34,1
AK-K-23K23S2,595,experiment,69,←,no_key,no_letter,-1.0,False,34,1
AK-K-23K23S2,596,experiment,74,←,left,←,0.6245308000361547,True,34,1
AK-K-23K23S2,597,experiment,61,←,left,←,0.7157860998995602,True,34,1
AK-K-23K23S2,598,experiment,89,↑,up,↑,0.5221304999431595,True,34,1
AK-K-23K23S2,599,experiment,76,↓,down,↓,0.4177553999470547,True,34,1
AK-K-23K23S2,600,experiment,82,→,left,←,0.5287670999532565,False,34,1
AK-K-23K23S2,601,experiment,52,↑,up,↑,0.4279384999535978,True,34,1
AK-K-23K23S2,602,experiment,88,↑,up,↑,0.5000629000132903,True,34,0
AK-K-23K23S2,603,experiment,55,↓,up,↑,0.558334399946034,False,34,1
AK-K-23K23S2,604,experiment,104,↑,up,↑,0.3836585000390187,True,34,1
AK-K-23K23S2,605,experiment,81,→,right,→,0.5397972000064328,True,34,0
AK-K-23K23S2,606,experiment,57,→,no_key,no_letter,-1.0,False,34,1
AK-K-23K23S2,607,experiment,49,↓,down,↓,0.6704047999810427,True,34,1
AK-K-23K23S2,608,training,70,←,left,←,0.4910003999248147,True,34,0
AK-K-23K23S2,609,training,51,→,no_key,no_letter,-1.0,False,34,1
AK-K-23K23S2,610,experiment,108,↓,down,↓,0.5099208999890834,True,34,1
AK-K-23K23S2,611,experiment,62,↓,down,↓,0.46176920004654676,True,34,1
AK-K-23K23S2,612,experiment,54,←,left,←,0.3844152999809012,True,34,1
AK-K-23K23S2,613,experiment,89,↑,up,↑,0.3846395000582561,True,34,0
AK-K-23K23S2,614,experiment,68,↑,up,↑,0.4949304999317974,True,34,0
AK-K-23K23S2,615,experiment,49,→,right,→,0.49147879995871335,True,34,1
AK-K-23K23S2,616,experiment,85,↑,down,↓,0.452729000011459,False,34,1
AK-K-23K23S2,617,experiment,104,→,right,→,0.5432456999551505,True,34,1
AK-K-23K23S2,618,experiment,52,→,right,→,0.3939881999976933,True,34,1
AK-K-23K23S2,619,experiment,98,↑,up,↑,0.35044860001653433,True,34,0
AK-K-23K23S2,620,experiment,86,←,left,←,0.36696869996376336,True,34,0
AK-K-23K23S2,621,experiment,82,↓,down,↓,0.4008234000066295,True,34,0
AK-K-23K23S2,622,experiment,79,←,left,←,0.5219904000405222,True,34,1
AK-K-23K23S2,623,experiment,87,↑,no_key,no_letter,-1.0,False,34,1
AK-K-23K23S2,624,experiment,69,←,left,←,0.612932899966836,True,34,1
AK-K-23K23S2,625,experiment,65,↑,up,↑,0.4000302000204101,True,34,1
AK-K-23K23S2,626,experiment,99,↓,down,↓,0.35123000002931803,True,34,0
AK-K-23K23S2,627,experiment,95,→,right,→,0.4019950999645516,True,34,0
AK-K-23K23S2,628,experiment,101,←,left,←,0.360278100008145,True,34,0
AK-K-23K23S2,629,experiment,53,←,left,←,0.5192714999429882,True,34,0
AK-K-23K23S2,630,experiment,74,→,right,→,0.5702530998969451,True,34,1
AK-K-23K23S2,631,experiment,93,↓,no_key,no_letter,-1.0,False,34,1
AK-K-23K23S2,632,experiment,103,↑,up,↑,0.5098377000540495,True,34,1
AK-K-23K23S2,633,experiment,84,←,left,←,0.3676637999014929,True,34,1
AK-K-23K23S2,634,experiment,70,→,right,→,0.48014130000956357,True,34,1
AK-K-23K23S2,635,experiment,94,→,right,→,0.40118380007334054,True,34,1
AK-K-23K23S2,636,experiment,91,→,right,→,0.3761700000613928,True,34,0
AK-K-23K23S2,637,experiment,97,↓,down,↓,0.3753319999668747,True,34,0
AK-K-23K23S2,638,experiment,96,↑,up,↑,0.5941974999150261,True,34,0
AK-K-23K23S2,639,experiment,100,←,left,←,0.3919770000502467,True,34,1
AK-K-23K23S2,640,experiment,67,←,left,←,0.475925000035204,True,34,0
AK-K-23K23S2,641,experiment,90,←,left,←,0.46756869996897876,True,34,1
AK-K-23K23S2,642,experiment,107,↑,up,↑,0.35030000004917383,True,34,1
AK-K-23K23S2,643,experiment,73,↑,up,↑,0.4172532999655232,True,34,0
AK-K-23K23S2,644,experiment,60,↓,down,↓,0.4003025999991223,True,34,1
AK-K-23K23S2,645,experiment,63,↑,up,↑,0.4006243000039831,True,34,0
AK-K-23K23S2,646,experiment,57,←,left,←,0.507589100045152,True,34,0
AK-K-23K23S2,647,experiment,105,→,right,→,0.492723900009878,True,34,1
AK-K-23K23S2,648,experiment,64,←,left,←,0.5003351999912411,True,34,1
AK-K-23K23S2,649,experiment,61,←,left,←,0.4846128999488428,True,34,1
AK-K-23K23S2,650,experiment,72,←,left,←,0.35873680002987385,True,34,1
AK-K-23K23S2,651,experiment,83,←,left,←,0.4258362998953089,True,34,0
AK-K-23K23S2,652,experiment,66,←,left,←,0.4103736999677494,True,34,0
AK-K-23K23S2,653,experiment,71,↑,up,↑,0.38361959997564554,True,34,0
AK-K-23K23S2,654,experiment,50,→,right,→,0.392651499947533,True,34,0
AK-K-23K23S2,655,experiment,51,↑,up,↑,0.49673489993438125,True,34,1
AK-K-23K23S2,656,experiment,55,→,right,→,0.7470146999694407,True,34,1
AK-K-23K23S2,657,experiment,59,↑,up,↑,0.33384079998359084,True,34,1
AK-K-23K23S2,658,experiment,106,←,left,←,0.3754388999659568,True,34,0
AK-K-23K23S2,659,experiment,80,↓,down,↓,0.5759988001082093,True,34,0
AK-K-23K23S2,660,experiment,81,↑,up,↑,0.5187185000395402,True,34,1
AK-K-23K23S2,661,experiment,75,←,left,←,0.5217593000270426,True,34,1
AK-K-23K23S2,662,experiment,88,→,right,→,0.40051469998434186,True,34,1
AK-K-23K23S2,663,experiment,48,↓,down,↓,0.6000571999466047,True,34,0
AK-K-23K23S2,664,experiment,76,↑,up,↑,0.36006099998485297,True,34,1
AK-K-23K23S2,665,experiment,77,←,left,←,0.511334800045006,True,34,0
AK-K-23K23S2,666,experiment,92,↓,down,↓,0.5007418000604957,True,34,1
AK-K-23K23S2,667,experiment,56,←,no_key,no_letter,-1.0,False,34,1
AK-K-23K23S2,668,experiment,102,↑,up,↑,0.45604740001726896,True,34,1
AK-K-23K23S2,669,experiment,78,↓,no_key,no_letter,-1.0,False,34,1
AK-K-23K23S2,670,experiment,58,↓,down,↓,0.5075297999428585,True,34,1
AK-K-23K23S2,671,training,70,↑,up,↑,0.3772970999125391,True,33,0
AK-K-23K23S2,672,training,91,→,right,→,0.5949378999648616,True,33,0
AK-K-23K23S2,673,experiment,75,↓,down,↓,0.5147343999706209,True,33,1
AK-K-23K23S2,674,experiment,78,↓,down,↓,0.35006950004026294,True,33,1
AK-K-23K23S2,675,experiment,88,→,right,→,0.41082340001594275,True,33,0
AK-K-23K23S2,676,experiment,77,→,right,→,0.4795977999456227,True,33,0
AK-K-23K23S2,677,experiment,83,←,right,→,0.4025283999508247,False,33,1
AK-K-23K23S2,678,experiment,89,↑,left,←,0.4834293999010697,False,33,1
AK-K-23K23S2,679,experiment,52,↓,no_key,no_letter,-1.0,False,33,1
AK-K-23K23S2,680,experiment,82,↑,up,↑,0.4478263999335468,True,33,1
AK-K-23K23S2,681,experiment,80,←,left,←,0.6747851999243721,True,33,1
AK-K-23K23S2,682,experiment,92,↓,down,↓,0.48144879995379597,True,33,1
AK-K-23K23S2,683,experiment,86,↑,no_key,no_letter,-1.0,False,33,1
AK-K-23K23S2,684,experiment,97,↓,down,↓,0.5734882999677211,True,33,1
AK-K-23K23S2,685,experiment,90,↓,down,↓,0.6329272999428213,True,33,1
AK-K-23K23S2,686,experiment,85,→,right,→,0.40950249996967614,True,33,1
AK-K-23K23S2,687,experiment,68,←,left,←,0.5411323999287561,True,33,0
AK-K-23K23S2,688,experiment,79,→,no_key,no_letter,-1.0,False,33,1
AK-K-23K23S2,689,experiment,66,↑,up,↑,0.5075635000830516,True,33,1
AK-K-23K23S2,690,experiment,70,←,left,←,0.4559750999324024,True,33,1
AK-K-23K23S2,691,experiment,105,→,right,→,0.5312946001067758,True,33,1
AK-K-23K23S2,692,experiment,91,←,left,←,0.5443929000757635,True,33,1
AK-K-23K23S2,693,experiment,107,→,right,→,0.6476544999750331,True,33,1
AK-K-23K23S2,694,experiment,61,↓,down,↓,0.6340546000283211,True,33,1
AK-K-23K23S2,695,experiment,98,↑,up,↑,0.5288261000532657,True,33,1
AK-K-23K23S2,696,experiment,64,←,left,←,0.5025994000025094,True,33,1
AK-K-23K23S2,697,experiment,100,↑,up,↑,0.4188904999755323,True,33,1
AK-K-23K23S2,698,experiment,62,↑,no_key,no_letter,-1.0,False,33,0
AK-K-23K23S2,699,experiment,87,←,left,←,0.5548735000193119,True,33,1
AK-K-23K23S2,700,experiment,57,↑,up,↑,0.5381834999425337,True,33,1
AK-K-23K23S2,701,experiment,59,↓,down,↓,0.41862959996797144,True,33,1
AK-K-23K23S2,702,experiment,81,↓,no_key,no_letter,-1.0,False,33,0
AK-K-23K23S2,703,experiment,67,↑,up,↑,0.5226080999709666,True,33,1
AK-K-23K23S2,704,experiment,50,↑,up,↑,0.501362600014545,True,33,1
AK-K-23K23S2,705,experiment,53,→,right,→,0.4803326000692323,True,33,1
AK-K-23K23S2,706,experiment,99,←,left,←,0.33361420000437647,True,33,1
AK-K-23K23S2,707,experiment,95,↓,down,↓,0.5038331999676302,True,33,0
AK-K-23K23S2,708,experiment,63,↑,up,↑,0.5751101999776438,True,33,1
AK-K-23K23S2,709,experiment,74,←,left,←,0.5920459000626579,True,33,1
AK-K-23K23S2,710,experiment,58,↓,down,↓,0.42581499996595085,True,33,1
AK-K-23K23S2,711,experiment,101,←,down,↓,0.9712428000057116,False,33,1
AK-K-23K23S2,712,experiment,103,←,left,←,0.45339259994216263,True,33,1
AK-K-23K23S2,713,experiment,93,←,left,←,0.38377570000011474,True,33,1
AK-K-23K23S2,714,experiment,69,↓,down,↓,0.5958351000444964,True,33,0
AK-K-23K23S2,715,experiment,73,↓,down,↓,0.47658050002064556,True,33,1
AK-K-23K23S2,716,experiment,108,←,no_key,no_letter,-1.0,False,33,1
AK-K-23K23S2,717,experiment,55,→,right,→,0.5590123999863863,True,33,1
AK-K-23K23S2,718,experiment,96,→,right,→,0.5851007000310346,True,33,1
AK-K-23K23S2,719,experiment,51,↓,down,↓,0.38588269997853786,True,33,1
AK-K-23K23S2,720,experiment,76,←,left,←,0.47188910003751516,True,33,0
AK-K-23K23S2,721,experiment,71,↑,up,↑,0.40103990002535284,True,33,1
AK-K-23K23S2,722,experiment,72,←,left,←,0.5182468000566587,True,33,1
AK-K-23K23S2,723,experiment,54,↑,up,↑,0.4963911999948323,True,33,1
AK-K-23K23S2,724,experiment,60,←,left,←,0.39369920000899583,True,33,1
AK-K-23K23S2,725,experiment,48,→,right,→,0.616749000037089,True,33,0
AK-K-23K23S2,726,experiment,104,↑,up,↑,0.5662657000357285,True,33,1
AK-K-23K23S2,727,experiment,84,↑,up,↑,0.5402816999703646,True,33,1
AK-K-23K23S2,728,experiment,65,↑,up,↑,0.5615846000146121,True,33,1
AK-K-23K23S2,729,experiment,94,←,left,←,0.3756965999491513,True,33,1
AK-K-23K23S2,730,experiment,106,↓,down,↓,0.5061068999348208,True,33,1
AK-K-23K23S2,731,experiment,56,↑,up,↑,0.5315748000284657,True,33,1
AK-K-23K23S2,732,experiment,102,←,left,←,0.3836413000244647,True,33,1
AK-K-23K23S2,733,experiment,49,←,left,←,0.5653009000234306,True,33,0
AK-K-23K23S2,734,training,50,↓,down,↓,0.49290640000253916,True,33,0
AK-K-23K23S2,735,training,88,←,left,←,0.32547330006491393,True,33,1
AK-K-23K23S2,736,experiment,105,→,right,→,0.5727701999712735,True,33,0
AK-K-23K23S2,737,experiment,98,→,left,←,0.3424301999621093,False,33,1
AK-K-23K23S2,738,experiment,94,←,right,→,0.42570319992955774,False,33,0
AK-K-23K23S2,739,experiment,57,↑,up,↑,0.41788840002845973,True,33,0
AK-K-23K23S2,740,experiment,100,→,right,→,0.6115082000615075,True,33,1
AK-K-23K23S2,741,experiment,58,↑,up,↑,0.5363803999498487,True,33,1
AK-K-23K23S2,742,experiment,81,←,left,←,0.5607577000046149,True,33,1
AK-K-23K23S2,743,experiment,107,↑,up,↑,0.4006820999784395,True,33,1
AK-K-23K23S2,744,experiment,89,↓,down,↓,0.5535598000278696,True,33,0
AK-K-23K23S2,745,experiment,50,→,right,→,0.4672178999753669,True,33,1
AK-K-23K23S2,746,experiment,104,↓,down,↓,0.5102481000358239,True,33,1
AK-K-23K23S2,747,experiment,67,↓,down,↓,0.4999022000702098,True,33,1
AK-K-23K23S2,748,experiment,68,→,right,→,0.6179598000599071,True,33,1
AK-K-23K23S2,749,experiment,92,←,left,←,0.5553073000628501,True,33,1
AK-K-23K23S2,750,experiment,85,↓,down,↓,0.4197125000646338,True,33,1
AK-K-23K23S2,751,experiment,52,←,left,←,0.5190273000625893,True,33,0
AK-K-23K23S2,752,experiment,49,→,left,←,0.5862300000153482,False,33,1
AK-K-23K23S2,753,experiment,97,→,no_key,no_letter,-1.0,False,33,1
AK-K-23K23S2,754,experiment,75,↑,no_key,no_letter,-1.0,False,33,1
AK-K-23K23S2,755,experiment,80,→,right,→,0.4177395000588149,True,33,1
AK-K-23K23S2,756,experiment,66,↑,up,↑,0.5279249000595883,True,33,0
AK-K-23K23S2,757,experiment,83,↓,down,↓,0.4096530000679195,True,33,1
AK-K-23K23S2,758,experiment,71,→,right,→,0.44862859998829663,True,33,1
AK-K-23K23S2,759,experiment,64,↑,up,↑,0.5212730999337509,True,33,1
AK-K-23K23S2,760,experiment,87,↑,up,↑,0.48842209996655583,True,33,1
AK-K-23K23S2,761,experiment,86,→,right,→,0.5686489000217989,True,33,1
AK-K-23K23S2,762,experiment,95,←,left,←,0.39272839995101094,True,33,1
AK-K-23K23S2,763,experiment,101,→,right,→,0.48961229994893074,True,33,1
AK-K-23K23S2,764,experiment,62,→,right,→,0.5461587000172585,True,33,1
AK-K-23K23S2,765,experiment,55,←,left,←,0.3754465999081731,True,33,1
AK-K-23K23S2,766,experiment,82,→,right,→,0.4258618999738246,True,33,0
AK-K-23K23S2,767,experiment,76,↓,down,↓,0.6300323000177741,True,33,1
AK-K-23K23S2,768,experiment,61,→,right,→,0.5210217999992892,True,33,1
AK-K-23K23S2,769,experiment,102,→,right,→,0.3841988999629393,True,33,1
AK-K-23K23S2,770,experiment,54,↓,down,↓,0.6016376999905333,True,33,0
AK-K-23K23S2,771,experiment,74,↓,down,↓,0.5137712999712676,True,33,1
AK-K-23K23S2,772,experiment,99,↓,down,↓,0.47674880002159625,True,33,1
AK-K-23K23S2,773,experiment,56,↓,down,↓,0.4479981000768021,True,33,1
AK-K-23K23S2,774,experiment,79,→,right,→,0.40939679997973144,True,33,1
AK-K-23K23S2,775,experiment,69,←,left,←,0.5166069000260904,True,33,0
AK-K-23K23S2,776,experiment,65,←,left,←,0.4827692999970168,True,33,1
AK-K-23K23S2,777,experiment,51,↑,up,↑,0.5029934999765828,True,33,1
AK-K-23K23S2,778,experiment,59,↑,up,↑,0.4960232999874279,True,33,1
AK-K-23K23S2,779,experiment,63,↑,up,↑,0.42575669998768717,True,33,1
AK-K-23K23S2,780,experiment,93,↓,down,↓,0.47176730004139245,True,33,0
AK-K-23K23S2,781,experiment,70,↑,up,↑,0.35039250005502254,True,33,1
AK-K-23K23S2,782,experiment,84,↓,down,↓,0.5001497999764979,True,33,0
AK-K-23K23S2,783,experiment,77,↑,up,↑,0.5191925000399351,True,33,1
AK-K-23K23S2,784,experiment,60,↑,up,↑,0.4950825999258086,True,33,1
AK-K-23K23S2,785,experiment,103,→,right,→,0.5212868999224156,True,33,1
AK-K-23K23S2,786,experiment,90,↑,down,↓,0.4949722000164911,False,33,1
AK-K-23K23S2,787,experiment,88,←,up,↑,0.5185589999891818,False,33,1
AK-K-23K23S2,788,experiment,73,↑,up,↑,0.3923751999391243,True,33,1
AK-K-23K23S2,789,experiment,53,→,right,→,0.4494016000535339,True,33,0
AK-K-23K23S2,790,experiment,108,→,no_key,no_letter,-1.0,False,33,0
AK-K-23K23S2,791,experiment,48,→,right,→,0.48685039998963475,True,33,1
AK-K-23K23S2,792,experiment,106,↑,up,↑,0.5365989999845624,True,33,1
AK-K-23K23S2,793,experiment,72,←,left,←,0.3253244000952691,True,33,1
AK-K-23K23S2,794,experiment,78,↓,down,↓,0.4534888999769464,True,33,0
AK-K-23K23S2,795,experiment,96,→,right,→,0.683571600005962,True,33,1
AK-K-23K23S2,796,experiment,91,↓,down,↓,0.5702147999545559,True,33,1
AK-K-23K23S2,797,training,50,←,left,←,0.5564286999870092,True,33,0
AK-K-23K23S2,798,training,75,→,left,←,0.44566750002559274,False,33,1
AK-K-23K23S2,799,experiment,81,↑,up,↑,0.5214237000327557,True,33,1
AK-K-23K23S2,800,experiment,103,←,left,←,0.5226525999605656,True,33,1
AK-K-23K23S2,801,experiment,106,↑,up,↑,0.3845952999545261,True,33,1
AK-K-23K23S2,802,experiment,63,↓,down,↓,0.5506410000380129,True,33,1
AK-K-23K23S2,803,experiment,62,↓,down,↓,0.36754310003016144,True,33,1
AK-K-23K23S2,804,experiment,68,↓,down,↓,0.5273996000178158,True,33,0
AK-K-23K23S2,805,experiment,80,←,left,←,0.37773229996673763,True,33,1
AK-K-23K23S2,806,experiment,93,←,left,←,0.33412250003311783,True,33,0
AK-K-23K23S2,807,experiment,49,↑,up,↑,0.4452785999746993,True,33,0
AK-K-23K23S2,808,experiment,77,↓,down,↓,0.4086283000651747,True,33,0
AK-K-23K23S2,809,experiment,48,←,left,←,0.39425479993224144,True,33,0
AK-K-23K23S2,810,experiment,84,←,left,←,0.6297817999729887,True,33,0
AK-K-23K23S2,811,experiment,58,↑,up,↑,0.5296887999866158,True,33,1
AK-K-23K23S2,812,experiment,50,↑,up,↑,0.4524875999195501,True,33,1
AK-K-23K23S2,813,experiment,101,←,left,←,0.5609128000214696,True,33,1
AK-K-23K23S2,814,experiment,69,↑,up,↑,0.4093338999664411,True,33,1
AK-K-23K23S2,815,experiment,71,↓,down,↓,0.4762063999660313,True,33,1
AK-K-23K23S2,816,experiment,98,↓,down,↓,0.47300080000422895,True,33,1
AK-K-23K23S2,817,experiment,105,→,right,→,0.41701960004866123,True,33,1
AK-K-23K23S2,818,experiment,79,↑,up,↑,0.5051930999616161,True,33,0
AK-K-23K23S2,819,experiment,85,↑,up,↑,0.41759109997656196,True,33,1
AK-K-23K23S2,820,experiment,83,→,right,→,0.5406527000013739,True,33,0
AK-K-23K23S2,821,experiment,92,→,no_key,no_letter,-1.0,False,33,1
AK-K-23K23S2,822,experiment,108,←,left,←,0.37756459997035563,True,33,1
AK-K-23K23S2,823,experiment,96,↑,up,↑,0.4025546000339091,True,33,0
AK-K-23K23S2,824,experiment,107,↑,up,↑,0.3586545999860391,True,33,0
AK-K-23K23S2,825,experiment,86,↓,down,↓,0.40928869997151196,True,33,0
AK-K-23K23S2,826,experiment,82,↑,up,↑,0.47139739990234375,True,33,1
AK-K-23K23S2,827,experiment,95,←,left,←,0.5816067999694496,True,33,1
AK-K-23K23S2,828,experiment,76,↑,up,↑,0.4095922999549657,True,33,1
AK-K-23K23S2,829,experiment,88,→,right,→,0.48786170000676066,True,33,1
AK-K-23K23S2,830,experiment,91,↓,down,↓,0.4629188999533653,True,33,1
AK-K-23K23S2,831,experiment,74,→,right,→,0.739930099924095,True,33,1
AK-K-23K23S2,832,experiment,61,↑,up,↑,0.562531300005503,True,33,1
AK-K-23K23S2,833,experiment,52,←,left,←,0.4010577000444755,True,33,1
AK-K-23K23S2,834,experiment,55,↑,up,↑,0.5448831999674439,True,33,1
AK-K-23K23S2,835,experiment,67,↓,down,↓,0.46961889998055995,True,33,1
AK-K-23K23S2,836,experiment,89,↑,up,↑,0.37529200001154095,True,33,1
AK-K-23K23S2,837,experiment,78,↓,down,↓,0.564747600001283,True,33,0
AK-K-23K23S2,838,experiment,94,→,right,→,0.44778689998202026,True,33,1
AK-K-23K23S2,839,experiment,87,↓,down,↓,0.4169136000564322,True,33,1
AK-K-23K23S2,840,experiment,65,↑,no_key,no_letter,-1.0,False,33,0
AK-K-23K23S2,841,experiment,73,↓,down,↓,0.4257968000601977,True,33,1
AK-K-23K23S2,842,experiment,100,↑,up,↑,0.539928000071086,True,33,1
AK-K-23K23S2,843,experiment,104,←,left,←,0.540113199967891,True,33,1
AK-K-23K23S2,844,experiment,57,→,right,→,0.6599283000687137,True,33,1
AK-K-23K23S2,845,experiment,75,←,left,←,0.5209225999424234,True,33,1
AK-K-23K23S2,846,experiment,56,↓,no_key,no_letter,-1.0,False,33,1
AK-K-23K23S2,847,experiment,66,←,left,←,0.37562109995633364,True,33,1
AK-K-23K23S2,848,experiment,102,↓,down,↓,0.5904481000034139,True,33,0
AK-K-23K23S2,849,experiment,99,↑,up,↑,0.3840924999676645,True,33,1
AK-K-23K23S2,850,experiment,97,↑,up,↑,0.41074740001931787,True,33,0
AK-K-23K23S2,851,experiment,53,↓,down,↓,0.5890216000843793,True,33,0
AK-K-23K23S2,852,experiment,59,↑,up,↑,0.3667179000331089,True,33,1
AK-K-23K23S2,853,experiment,51,←,left,←,0.7229383999947459,True,33,0
AK-K-23K23S2,854,experiment,60,←,no_key,no_letter,-1.0,False,33,1
AK-K-23K23S2,855,experiment,64,↓,down,↓,0.4086160999722779,True,33,1
AK-K-23K23S2,856,experiment,90,←,left,←,0.5307113999733701,True,33,0
AK-K-23K23S2,857,experiment,72,↓,down,↓,0.5661044999724254,True,33,1
AK-K-23K23S2,858,experiment,70,→,right,→,0.5843359000282362,True,33,1
AK-K-23K23S2,859,experiment,54,↑,up,↑,0.40064259991049767,True,33,1
AK-K-23K23S2,860,training,52,→,right,→,0.457989800022915,True,32,0
AK-K-23K23S2,861,training,108,→,left,←,0.6282414000015706,False,32,1
AK-K-23K23S2,862,experiment,70,↓,down,↓,0.40055329992901534,True,32,1
AK-K-23K23S2,863,experiment,67,→,no_key,no_letter,-1.0,False,32,0
AK-K-23K23S2,864,experiment,53,←,left,←,0.7121896999888122,True,32,1
AK-K-23K23S2,865,experiment,66,→,right,→,0.4094251999631524,True,32,1
AK-K-23K23S2,866,experiment,92,↓,down,↓,0.6075895999092609,True,32,1
AK-K-23K23S2,867,experiment,105,↓,down,↓,0.3758988999761641,True,32,1
AK-K-23K23S2,868,experiment,75,↑,up,↑,0.41769679996650666,True,32,1
AK-K-23K23S2,869,experiment,104,↓,down,↓,0.5217489999486133,True,32,1
AK-K-23K23S2,870,experiment,93,↑,up,↑,0.5982318000169471,True,32,1
AK-K-23K23S2,871,experiment,78,↓,down,↓,0.5649352999171242,True,32,1
AK-K-23K23S2,872,experiment,51,↓,down,↓,0.5178183000534773,True,32,1
AK-K-23K23S2,873,experiment,48,↓,down,↓,0.4656593999825418,True,32,1
AK-K-23K23S2,874,experiment,102,↑,up,↑,0.3750207000412047,True,32,1
AK-K-23K23S2,875,experiment,54,↑,up,↑,0.41752989997621626,True,32,0
AK-K-23K23S2,876,experiment,98,←,left,←,0.507602300029248,True,32,1
AK-K-23K23S2,877,experiment,101,↑,up,↑,0.5342718000756577,True,32,1
AK-K-23K23S2,878,experiment,71,↑,up,↑,0.49000180000439286,True,32,1
AK-K-23K23S2,879,experiment,65,↓,down,↓,0.5215418000007048,True,32,1
AK-K-23K23S2,880,experiment,60,→,left,←,0.520409999997355,False,32,1
AK-K-23K23S2,881,experiment,106,↑,up,↑,0.5048007000004873,True,32,1
AK-K-23K23S2,882,experiment,86,←,no_key,no_letter,-1.0,False,32,1
AK-K-23K23S2,883,experiment,62,→,right,→,0.44761089992243797,True,32,1
AK-K-23K23S2,884,experiment,99,↑,up,↑,0.3922546999529004,True,32,1
AK-K-23K23S2,885,experiment,49,↓,down,↓,0.5893220000434667,True,32,0
AK-K-23K23S2,886,experiment,96,→,left,←,0.47810480010230094,False,32,1
AK-K-23K23S2,887,experiment,89,←,left,←,0.5816414000000805,True,32,1
AK-K-23K23S2,888,experiment,59,→,right,→,0.5074169000145048,True,32,1
AK-K-23K23S2,889,experiment,68,→,right,→,0.5130428000120446,True,32,1
AK-K-23K23S2,890,experiment,100,↑,up,↑,0.4093731000320986,True,32,1
AK-K-23K23S2,891,experiment,85,↑,up,↑,0.38432940002530813,True,32,0
AK-K-23K23S2,892,experiment,97,↓,down,↓,0.5196101000765339,True,32,0
AK-K-23K23S2,893,experiment,108,↓,down,↓,0.48760720004793257,True,32,1
AK-K-23K23S2,894,experiment,90,↓,down,↓,0.40903660003095865,True,32,1
AK-K-23K23S2,895,experiment,83,←,left,←,0.3925106000388041,True,32,1
AK-K-23K23S2,896,experiment,74,←,left,←,0.35886309994384646,True,32,0
AK-K-23K23S2,897,experiment,81,→,right,→,0.6180661999387667,True,32,0
AK-K-23K23S2,898,experiment,107,→,right,→,0.4943615000229329,True,32,1
AK-K-23K23S2,899,experiment,50,→,right,→,0.554507500026375,True,32,1
AK-K-23K23S2,900,experiment,94,→,right,→,0.5657852999866009,True,32,1
AK-K-23K23S2,901,experiment,87,↑,no_key,no_letter,-1.0,False,32,1
AK-K-23K23S2,902,experiment,82,→,right,→,0.45940100005827844,True,32,1
AK-K-23K23S2,903,experiment,64,→,right,→,0.5484279999509454,True,32,1
AK-K-23K23S2,904,experiment,103,↑,up,↑,0.5885802999837324,True,32,1
AK-K-23K23S2,905,experiment,55,←,left,←,0.4350438999244943,True,32,1
AK-K-23K23S2,906,experiment,56,↓,down,↓,0.5595969998976216,True,32,0
AK-K-23K23S2,907,experiment,84,↓,down,↓,0.49352290004026145,True,32,1
AK-K-23K23S2,908,experiment,76,→,right,→,0.49698449997231364,True,32,1
AK-K-23K23S2,909,experiment,58,→,no_key,no_letter,-1.0,False,32,1
AK-K-23K23S2,910,experiment,61,←,left,←,0.5612910999916494,True,32,1
AK-K-23K23S2,911,experiment,72,→,right,→,0.436323200003244,True,32,1
AK-K-23K23S2,912,experiment,95,→,right,→,0.546829600003548,True,32,0
AK-K-23K23S2,913,experiment,73,→,right,→,0.5015364000573754,True,32,1
AK-K-23K23S2,914,experiment,91,↑,up,↑,0.5555049000540748,True,32,1
AK-K-23K23S2,915,experiment,69,←,left,←,0.3760214999783784,True,32,1
AK-K-23K23S2,916,experiment,63,↑,up,↑,0.44288180000148714,True,32,0
AK-K-23K23S2,917,experiment,88,↑,up,↑,0.5252366999629885,True,32,1
AK-K-23K23S2,918,experiment,52,↑,up,↑,0.41745810001157224,True,32,1
AK-K-23K23S2,919,experiment,79,←,left,←,0.35098590003326535,True,32,1
AK-K-23K23S2,920,experiment,77,→,left,←,0.34172420005779713,False,32,1
AK-K-23K23S2,921,experiment,57,↓,down,↓,0.627730599953793,True,32,0
AK-K-23K23S2,922,experiment,80,↓,down,↓,0.394161400035955,True,32,1
AK-K-23K23S2,923,training,50,←,left,←,0.37570810003671795,True,32,0
AK-K-23K23S2,924,training,60,↑,up,↑,0.4093554000137374,True,32,0
AK-K-23K23S2,925,experiment,66,↑,up,↑,0.5572370999725536,True,32,0
AK-K-23K23S2,926,experiment,52,←,left,←,0.3503902000375092,True,32,1
AK-K-23K23S2,927,experiment,105,↓,down,↓,0.4009810999268666,True,32,0
AK-K-23K23S2,928,experiment,83,↑,up,↑,0.3336319000227377,True,32,1
AK-K-23K23S2,929,experiment,93,↓,down,↓,0.40863800002261996,True,32,0
AK-K-23K23S2,930,experiment,74,↓,down,↓,0.7330674000550061,True,32,0
AK-K-23K23S2,931,experiment,49,←,left,←,0.36673510004766285,True,32,1
AK-K-23K23S2,932,experiment,54,←,left,←,0.33373169996775687,True,32,0
AK-K-23K23S2,933,experiment,73,↑,up,↑,0.3938930999720469,True,32,0
AK-K-23K23S2,934,experiment,101,↓,down,↓,0.40959809999912977,True,32,1
AK-K-23K23S2,935,experiment,63,↓,down,↓,0.3925947999814525,True,32,0
AK-K-23K23S2,936,experiment,87,↑,up,↑,0.35123309993650764,True,32,1
AK-K-23K23S2,937,experiment,108,←,left,←,0.6532105000223964,True,32,0
AK-K-23K23S2,938,experiment,68,↑,up,↑,0.540883099893108,True,32,1
AK-K-23K23S2,939,experiment,89,→,right,→,0.5063039000378922,True,32,1
AK-K-23K23S2,940,experiment,70,↓,down,↓,0.4090915999840945,True,32,1
AK-K-23K23S2,941,experiment,96,→,right,→,0.503183800028637,True,32,0
AK-K-23K23S2,942,experiment,90,←,left,←,0.31775519996881485,True,32,1
AK-K-23K23S2,943,experiment,72,↓,down,↓,0.4495163999963552,True,32,0
AK-K-23K23S2,944,experiment,69,←,left,←,0.5527955000288785,True,32,1
AK-K-23K23S2,945,experiment,76,←,left,←,0.46591339993756264,True,32,1
AK-K-23K23S2,946,experiment,81,↓,down,↓,0.5333112999796867,True,32,1
AK-K-23K23S2,947,experiment,98,←,left,←,0.3686992999864742,True,32,1
AK-K-23K23S2,948,experiment,64,←,left,←,0.4755636000772938,True,32,0
AK-K-23K23S2,949,experiment,60,→,no_key,no_letter,-1.0,False,32,1
AK-K-23K23S2,950,experiment,107,↑,no_key,no_letter,-1.0,False,32,1
AK-K-23K23S2,951,experiment,104,↓,down,↓,0.38414549990557134,True,32,1
AK-K-23K23S2,952,experiment,97,←,left,←,0.5348910000175238,True,32,1
AK-K-23K23S2,953,experiment,85,↓,down,↓,0.3919670000905171,True,32,1
AK-K-23K23S2,954,experiment,50,←,left,←,0.5418771000113338,True,32,0
AK-K-23K23S2,955,experiment,65,→,right,→,0.46688950003590435,True,32,1
AK-K-23K23S2,956,experiment,75,←,left,←,0.35028320003766567,True,32,1
AK-K-23K23S2,957,experiment,94,↓,down,↓,0.41713570000138134,True,32,0
AK-K-23K23S2,958,experiment,91,↓,down,↓,0.5720749000320211,True,32,0
AK-K-23K23S2,959,experiment,51,←,left,←,0.37603559996932745,True,32,1
AK-K-23K23S2,960,experiment,100,←,left,←,0.4008853000123054,True,32,0
AK-K-23K23S2,961,experiment,99,←,left,←,0.3169814998982474,True,32,0
AK-K-23K23S2,962,experiment,95,↑,up,↑,0.5597013999940827,True,32,0
AK-K-23K23S2,963,experiment,57,↓,down,↓,0.37604619993362576,True,32,1
AK-K-23K23S2,964,experiment,61,↑,up,↑,0.4009213000535965,True,32,1
AK-K-23K23S2,965,experiment,92,→,right,→,0.4002903999062255,True,32,1
AK-K-23K23S2,966,experiment,67,↑,up,↑,0.3928510000696406,True,32,0
AK-K-23K23S2,967,experiment,77,→,right,→,0.6381580999586731,True,32,1
AK-K-23K23S2,968,experiment,56,←,left,←,0.5628875000402331,True,32,1
AK-K-23K23S2,969,experiment,78,→,right,→,0.5063941999105737,True,32,1
AK-K-23K23S2,970,experiment,106,↓,down,↓,0.5955972000956535,True,32,1
AK-K-23K23S2,971,experiment,103,↓,down,↓,0.4107443999964744,True,32,1
AK-K-23K23S2,972,experiment,88,↓,down,↓,0.44436429999768734,True,32,0
AK-K-23K23S2,973,experiment,59,→,right,→,0.4552822000114247,True,32,1
AK-K-23K23S2,974,experiment,62,←,left,←,0.4096797000383958,True,32,1
AK-K-23K23S2,975,experiment,53,↓,left,←,0.34419850003905594,False,32,0
AK-K-23K23S2,976,experiment,48,→,right,→,0.5370333000319079,True,32,0
AK-K-23K23S2,977,experiment,79,↑,up,↑,0.6100206000264734,True,32,1
AK-K-23K23S2,978,experiment,84,↓,down,↓,0.49431159999221563,True,32,1
AK-K-23K23S2,979,experiment,82,↑,up,↑,0.3925884999334812,True,32,1
AK-K-23K23S2,980,experiment,58,←,left,←,0.4177186000160873,True,32,0
AK-K-23K23S2,981,experiment,80,←,left,←,0.5696469000540674,True,32,0
AK-K-23K23S2,982,experiment,86,→,right,→,0.494593899929896,True,32,1
AK-K-23K23S2,983,experiment,102,←,left,←,0.38420279999263585,True,32,1
AK-K-23K23S2,984,experiment,55,↓,down,↓,0.6239459000062197,True,32,1
AK-K-23K23S2,985,experiment,71,↓,down,↓,0.6159526000265032,True,32,1
AK-K-23K23S2,986,training,80,↑,down,↓,0.4619883999694139,False,31,0
AK-K-23K23S2,987,training,51,↓,down,↓,0.6190131000475958,True,31,1
AK-K-23K23S2,988,experiment,55,↓,down,↓,0.6484945999691263,True,31,1
AK-K-23K23S2,989,experiment,90,←,left,←,0.3942071000346914,True,31,1
AK-K-23K23S2,990,experiment,78,←,left,←,0.3259695000015199,True,31,0
AK-K-23K23S2,991,experiment,83,↑,up,↑,0.5989040000131354,True,31,0
AK-K-23K23S2,992,experiment,68,→,right,→,0.5048073000507429,True,31,1
AK-K-23K23S2,993,experiment,67,↓,down,↓,0.3836625999538228,True,31,1
AK-K-23K23S2,994,experiment,103,↑,up,↑,0.38440930005162954,True,31,0
AK-K-23K23S2,995,experiment,79,↑,up,↑,0.5399678000248969,True,31,0
AK-K-23K23S2,996,experiment,60,↓,down,↓,0.3841517000691965,True,31,1
AK-K-23K23S2,997,experiment,74,↓,down,↓,0.523001000052318,True,31,0
AK-K-23K23S2,998,experiment,106,→,no_key,no_letter,-1.0,False,31,1
AK-K-23K23S2,999,experiment,77,↑,up,↑,0.38428570004180074,True,31,1
AK-K-23K23S2,1000,experiment,61,→,right,→,0.5781912000384182,True,31,1
AK-K-23K23S2,1001,experiment,86,↑,up,↑,0.37617200007662177,True,31,1
AK-K-23K23S2,1002,experiment,82,→,right,→,0.5255046000238508,True,31,1
AK-K-23K23S2,1003,experiment,73,→,right,→,0.4092085000593215,True,31,1
AK-K-23K23S2,1004,experiment,51,←,no_key,no_letter,-1.0,False,31,0
AK-K-23K23S2,1005,experiment,57,←,left,←,0.5605876999907196,True,31,1
AK-K-23K23S2,1006,experiment,75,↓,down,↓,0.6410074000013992,True,31,1
AK-K-23K23S2,1007,experiment,72,↓,down,↓,0.48025609995238483,True,31,1
AK-K-23K23S2,1008,experiment,84,↑,down,↓,0.4495817000279203,False,31,1
AK-K-23K23S2,1009,experiment,59,↑,up,↑,0.5483860999811441,True,31,1
AK-K-23K23S2,1010,experiment,64,←,left,←,0.5215272000059485,True,31,1
AK-K-23K23S2,1011,experiment,69,←,left,←,0.3342881000135094,True,31,1
AK-K-23K23S2,1012,experiment,95,↓,down,↓,0.5529896999942139,True,31,0
AK-K-23K23S2,1013,experiment,89,→,right,→,0.5177963000023738,True,31,1
AK-K-23K23S2,1014,experiment,97,→,right,→,0.4735587000614032,True,31,1
AK-K-23K23S2,1015,experiment,65,↑,no_key,no_letter,-1.0,False,31,1
AK-K-23K23S2,1016,experiment,58,→,right,→,0.64208260003943,True,31,1
AK-K-23K23S2,1017,experiment,70,→,right,→,0.4413658999837935,True,31,1
AK-K-23K23S2,1018,experiment,99,→,right,→,0.3426830000244081,True,31,1
AK-K-23K23S2,1019,experiment,93,→,right,→,0.3675241000019014,True,31,0
AK-K-23K23S2,1020,experiment,108,→,right,→,0.40030790003947914,True,31,0
AK-K-23K23S2,1021,experiment,80,→,right,→,0.4091515999753028,True,31,0
AK-K-23K23S2,1022,experiment,98,↓,down,↓,0.5897487999172881,True,31,0
AK-K-23K23S2,1023,experiment,81,↑,up,↑,0.7637265999801457,True,31,1
AK-K-23K23S2,1024,experiment,107,↓,down,↓,0.3761373000452295,True,31,1
AK-K-23K23S2,1025,experiment,63,↓,no_key,no_letter,-1.0,False,31,0
AK-K-23K23S2,1026,experiment,71,↓,down,↓,0.38346759998239577,True,31,1
AK-K-23K23S2,1027,experiment,100,↑,up,↑,0.5546882998896763,True,31,0
AK-K-23K23S2,1028,experiment,105,↑,up,↑,0.38403269997797906,True,31,1
AK-K-23K23S2,1029,experiment,76,↓,down,↓,0.529124699998647,True,31,0
AK-K-23K23S2,1030,experiment,87,↓,down,↓,0.34264510008506477,True,31,1
AK-K-23K23S2,1031,experiment,50,↓,down,↓,0.37598499993328005,True,31,0
AK-K-23K23S2,1032,experiment,96,↑,up,↑,0.4588087999727577,True,31,1
AK-K-23K23S2,1033,experiment,66,→,right,→,0.4280905000632629,True,31,1
AK-K-23K23S2,1034,experiment,92,→,right,→,0.5074944000225514,True,31,0
AK-K-23K23S2,1035,experiment,85,↓,no_key,no_letter,-1.0,False,31,1
AK-K-23K23S2,1036,experiment,94,↑,up,↑,0.5684948000125587,True,31,1
AK-K-23K23S2,1037,experiment,101,↑,up,↑,0.4970100000500679,True,31,1
AK-K-23K23S2,1038,experiment,56,↑,up,↑,0.39216169994324446,True,31,1
AK-K-23K23S2,1039,experiment,102,↑,up,↑,0.39451150002423674,True,31,0
AK-K-23K23S2,1040,experiment,49,→,right,→,0.4336321000009775,True,31,1
AK-K-23K23S2,1041,experiment,62,↓,down,↓,0.563191800029017,True,31,1
AK-K-23K23S2,1042,experiment,104,↓,down,↓,0.4428743999451399,True,31,1
AK-K-23K23S2,1043,experiment,54,↑,up,↑,0.43205619999207556,True,31,1
AK-K-23K23S2,1044,experiment,48,←,left,←,0.4003283000783995,True,31,1
AK-K-23K23S2,1045,experiment,88,←,left,←,0.6574599000159651,True,31,0
AK-K-23K23S2,1046,experiment,52,↓,down,↓,0.43038669996894896,True,31,1
AK-K-23K23S2,1047,experiment,53,↓,down,↓,0.5000280999811366,True,31,0
AK-K-23K23S2,1048,experiment,91,←,left,←,0.3755978000117466,True,31,1
AK-K-23K23S2,1049,training,65,←,left,←,0.4602244000416249,True,30,0
AK-K-23K23S2,1050,training,52,←,right,→,0.5050141999963671,False,30,1
AK-K-23K23S2,1051,experiment,54,←,left,←,0.375364699983038,True,30,1
AK-K-23K23S2,1052,experiment,73,←,left,←,0.5480438000522554,True,30,0
AK-K-23K23S2,1053,experiment,48,↑,left,←,0.3923174999654293,False,30,1
AK-K-23K23S2,1054,experiment,92,→,no_key,no_letter,-1.0,False,30,1
AK-K-23K23S2,1055,experiment,67,↓,down,↓,0.5102755000116304,True,30,1
AK-K-23K23S2,1056,experiment,80,↓,down,↓,0.4721983999479562,True,30,1
AK-K-23K23S2,1057,experiment,82,↓,down,↓,0.3420158999506384,True,30,1
AK-K-23K23S2,1058,experiment,60,↓,down,↓,0.4406451000832021,True,30,0
AK-K-23K23S2,1059,experiment,65,↓,down,↓,0.33363890007603914,True,30,1
AK-K-23K23S2,1060,experiment,94,→,right,→,0.5173087000148371,True,30,0
AK-K-23K23S2,1061,experiment,96,→,right,→,0.585361500037834,True,30,1
AK-K-23K23S2,1062,experiment,74,↓,down,↓,0.35877380007877946,True,30,1
AK-K-23K23S2,1063,experiment,76,↑,up,↑,0.6024864999344572,True,30,0
AK-K-23K23S2,1064,experiment,51,↑,up,↑,0.44211469998117536,True,30,1
AK-K-23K23S2,1065,experiment,103,→,right,→,0.43859490007162094,True,30,1
AK-K-23K23S2,1066,experiment,106,→,right,→,0.4586933000246063,True,30,1
AK-K-23K23S2,1067,experiment,85,←,left,←,0.37584310001693666,True,30,1
AK-K-23K23S2,1068,experiment,75,↑,up,↑,0.5001856000162661,True,30,1
AK-K-23K23S2,1069,experiment,49,←,left,←,0.6246465001022443,True,30,1
AK-K-23K23S2,1070,experiment,108,↑,up,↑,0.4364844999508932,True,30,1
AK-K-23K23S2,1071,experiment,105,→,right,→,0.44042889995034784,True,30,1
AK-K-23K23S2,1072,experiment,61,→,right,→,0.4910117000108585,True,30,1
AK-K-23K23S2,1073,experiment,71,←,left,←,0.4800954000093043,True,30,1
AK-K-23K23S2,1074,experiment,79,→,left,←,0.34292460000142455,False,30,1
AK-K-23K23S2,1075,experiment,62,←,left,←,0.4488073999527842,True,30,1
AK-K-23K23S2,1076,experiment,90,←,left,←,0.37614780000876635,True,30,1
AK-K-23K23S2,1077,experiment,102,↑,up,↑,0.5687406999059021,True,30,1
AK-K-23K23S2,1078,experiment,53,←,left,←,0.46500000008381903,True,30,1
AK-K-23K23S2,1079,experiment,87,→,right,→,0.4259404999902472,True,30,1
AK-K-23K23S2,1080,experiment,95,↓,down,↓,0.5698787999572232,True,30,1
AK-K-23K23S2,1081,experiment,69,←,left,←,0.4012009999714792,True,30,1
AK-K-23K23S2,1082,experiment,56,→,right,→,0.43419609998818487,True,30,1
AK-K-23K23S2,1083,experiment,97,→,up,↑,0.3921930999495089,False,30,1
AK-K-23K23S2,1084,experiment,86,←,left,←,0.35025350004434586,True,30,0
AK-K-23K23S2,1085,experiment,101,←,left,←,0.5018651999998838,True,30,0
AK-K-23K23S2,1086,experiment,55,←,left,←,0.37634740001522005,True,30,1
AK-K-23K23S2,1087,experiment,68,↑,up,↑,0.3585655000060797,True,30,0
AK-K-23K23S2,1088,experiment,78,←,left,←,0.5379080000566319,True,30,0
AK-K-23K23S2,1089,experiment,72,↑,up,↑,0.5089253999758512,True,30,1
AK-K-23K23S2,1090,experiment,66,→,right,→,0.531303400057368,True,30,1
AK-K-23K23S2,1091,experiment,88,↑,up,↑,0.3590007999446243,True,30,1
AK-K-23K23S2,1092,experiment,52,↑,no_key,no_letter,-1.0,False,30,0
AK-K-23K23S2,1093,experiment,91,↓,down,↓,0.5755761000327766,True,30,1
AK-K-23K23S2,1094,experiment,83,←,left,←,0.5336115000536665,True,30,1
AK-K-23K23S2,1095,experiment,100,↓,down,↓,0.4637323999777436,True,30,1
AK-K-23K23S2,1096,experiment,77,←,left,←,0.39203709992580116,True,30,1
AK-K-23K23S2,1097,experiment,58,↓,down,↓,0.385811600019224,True,30,0
AK-K-23K23S2,1098,experiment,50,←,no_key,no_letter,-1.0,False,30,0
AK-K-23K23S2,1099,experiment,57,→,no_key,no_letter,-1.0,False,30,1
AK-K-23K23S2,1100,experiment,84,↑,up,↑,0.5626336999703199,True,30,1
AK-K-23K23S2,1101,experiment,64,←,left,←,0.35176340001635253,True,30,1
AK-K-23K23S2,1102,experiment,99,→,right,→,0.6081871000351384,True,30,0
AK-K-23K23S2,1103,experiment,98,↓,left,←,0.3584499000571668,False,30,1
AK-K-23K23S2,1104,experiment,63,↑,up,↑,0.4446884000208229,True,30,0
AK-K-23K23S2,1105,experiment,70,↑,up,↑,0.596186300041154,True,30,1
AK-K-23K23S2,1106,experiment,59,↑,no_key,no_letter,-1.0,False,30,1
AK-K-23K23S2,1107,experiment,81,→,right,→,0.4825274999020621,True,30,1
AK-K-23K23S2,1108,experiment,93,↓,down,↓,0.3751210999907926,True,30,1
AK-K-23K23S2,1109,experiment,89,↑,up,↑,0.42849500000011176,True,30,0
AK-K-23K23S2,1110,experiment,104,→,right,→,0.529024500050582,True,30,1
AK-K-23K23S2,1111,experiment,107,↑,up,↑,0.7771026999689639,True,30,1
AK-K-23K23S2,1112,training,84,↓,down,↓,0.5084769000532106,True,30,0
AK-K-23K23S2,1113,training,61,←,left,←,0.3423168999142945,True,30,1
AK-K-23K23S2,1114,experiment,54,→,right,→,0.43648699996992946,True,30,0
AK-K-23K23S2,1115,experiment,74,→,right,→,0.45856249995995313,True,30,1
AK-K-23K23S2,1116,experiment,67,↑,up,↑,0.4010825000004843,True,30,1
AK-K-23K23S2,1117,experiment,96,↓,down,↓,0.5227985999081284,True,30,0
AK-K-23K23S2,1118,experiment,62,→,no_key,no_letter,-1.0,False,30,1
AK-K-23K23S2,1119,experiment,84,←,no_key,no_letter,-1.0,False,30,1
AK-K-23K23S2,1120,experiment,91,↑,up,↑,0.49620579998008907,True,30,1
AK-K-23K23S2,1121,experiment,97,→,no_key,no_letter,-1.0,False,30,1
AK-K-23K23S2,1122,experiment,56,↑,left,←,0.8062391000567004,False,30,1
AK-K-23K23S2,1123,experiment,50,↑,up,↑,0.5741777999792248,True,30,1
AK-K-23K23S2,1124,experiment,59,→,left,←,0.6997049999190494,False,30,1
AK-K-23K23S2,1125,experiment,55,←,left,←,0.549927799962461,True,30,1
AK-K-23K23S2,1126,experiment,93,↑,up,↑,0.4003704999340698,True,30,1
AK-K-23K23S2,1127,experiment,57,←,left,←,0.37580160005018115,True,30,0
AK-K-23K23S2,1128,experiment,82,↑,up,↑,0.35875549993943423,True,30,0
AK-K-23K23S2,1129,experiment,48,←,left,←,0.5984941999195144,True,30,0
AK-K-23K23S2,1130,experiment,89,↓,down,↓,0.6414472999749705,True,30,1
AK-K-23K23S2,1131,experiment,77,←,left,←,0.5027564999181777,True,30,1
AK-K-23K23S2,1132,experiment,88,↑,up,↑,0.6060374999651685,True,30,1
AK-K-23K23S2,1133,experiment,58,→,right,→,0.5470919000217691,True,30,1
AK-K-23K23S2,1134,experiment,94,↑,no_key,no_letter,-1.0,False,30,1
AK-K-23K23S2,1135,experiment,68,↑,up,↑,0.539989999961108,True,30,1
AK-K-23K23S2,1136,experiment,75,→,right,→,0.5580942999804392,True,30,1
AK-K-23K23S2,1137,experiment,85,↑,up,↑,0.4919316000305116,True,30,1
AK-K-23K23S2,1138,experiment,95,↑,up,↑,0.48928520001936704,True,30,1
AK-K-23K23S2,1139,experiment,83,←,left,←,0.3919802000746131,True,30,1
AK-K-23K23S2,1140,experiment,107,←,left,←,0.39287430001422763,True,30,0
AK-K-23K23S2,1141,experiment,98,→,right,→,0.5195227999938652,True,30,1
AK-K-23K23S2,1142,experiment,104,↓,down,↓,0.5523671000264585,True,30,1
AK-K-23K23S2,1143,experiment,73,←,left,←,0.35929399996530265,True,30,1
AK-K-23K23S2,1144,experiment,79,↑,up,↑,0.3511090000392869,True,30,0
AK-K-23K23S2,1145,experiment,76,↑,up,↑,0.39263709995429963,True,30,0
AK-K-23K23S2,1146,experiment,69,↑,up,↑,0.5166017999872565,True,30,0
AK-K-23K23S2,1147,experiment,102,↑,no_key,no_letter,-1.0,False,30,1
AK-K-23K23S2,1148,experiment,99,↑,up,↑,0.43406590004451573,True,30,1
AK-K-23K23S2,1149,experiment,60,→,right,→,0.36736280005425215,True,30,1
AK-K-23K23S2,1150,experiment,78,←,right,→,0.35984179994557053,False,30,1
AK-K-23K23S2,1151,experiment,108,↓,down,↓,0.5305780000053346,True,30,0
AK-K-23K23S2,1152,experiment,53,→,right,→,0.4009057000512257,True,30,1
AK-K-23K23S2,1153,experiment,66,↑,up,↑,0.5340729000745341,True,30,1
AK-K-23K23S2,1154,experiment,63,↑,up,↑,0.4683581000426784,True,30,1
AK-K-23K23S2,1155,experiment,90,↑,up,↑,0.4523748999927193,True,30,1
AK-K-23K23S2,1156,experiment,65,↓,up,↑,0.4369842999149114,False,30,1
AK-K-23K23S2,1157,experiment,71,→,right,→,0.4998607999878004,True,30,1
AK-K-23K23S2,1158,experiment,106,↑,up,↑,0.5415641999570653,True,30,1
AK-K-23K23S2,1159,experiment,80,↑,up,↑,0.5017882001120597,True,30,1
AK-K-23K23S2,1160,experiment,81,←,left,←,0.5350502000655979,True,30,1
AK-K-23K23S2,1161,experiment,100,↑,up,↑,0.38589670008514076,True,30,1
AK-K-23K23S2,1162,experiment,51,→,no_key,no_letter,-1.0,False,30,0
AK-K-23K23S2,1163,experiment,86,←,no_key,no_letter,-1.0,False,30,1
AK-K-23K23S2,1164,experiment,61,→,left,←,0.5443806999828666,False,30,1
AK-K-23K23S2,1165,experiment,64,←,left,←,0.549620300065726,True,30,1
AK-K-23K23S2,1166,experiment,72,←,left,←,0.3586746999062598,True,30,1
AK-K-23K23S2,1167,experiment,87,↓,down,↓,0.67735580005683,True,30,0
AK-K-23K23S2,1168,experiment,52,←,left,←,0.4651253999909386,True,30,1
AK-K-23K23S2,1169,experiment,103,→,right,→,0.4291357999900356,True,30,1
AK-K-23K23S2,1170,experiment,49,↑,up,↑,0.6036158000351861,True,30,1
AK-K-23K23S2,1171,experiment,101,→,left,←,0.5383491000393406,False,30,1
AK-K-23K23S2,1172,experiment,105,→,right,→,0.5384104000404477,True,30,1
AK-K-23K23S2,1173,experiment,92,↓,down,↓,0.6388725000433624,True,30,1
AK-K-23K23S2,1174,experiment,70,←,left,←,0.48612630006391555,True,30,1
AK-K-23K23S2,1175,training,87,→,right,→,0.5142665000166744,True,30,0
AK-K-23K23S2,1176,training,105,→,right,→,0.3751417000312358,True,30,1
AK-K-23K23S2,1177,experiment,67,↓,down,↓,0.4222898998996243,True,30,0
AK-K-23K23S2,1178,experiment,101,←,left,←,0.3759305999847129,True,30,0
AK-K-23K23S2,1179,experiment,57,→,right,→,0.4195421999320388,True,30,0
AK-K-23K23S2,1180,experiment,73,→,right,→,0.40025770000647753,True,30,0
AK-K-23K23S2,1181,experiment,92,↓,down,↓,0.5546678000828251,True,30,0
AK-K-23K23S2,1182,experiment,91,↓,down,↓,0.37590410001575947,True,30,1
AK-K-23K23S2,1183,experiment,103,↑,up,↑,0.7579436999512836,True,30,1
AK-K-23K23S2,1184,experiment,87,→,right,→,0.5234101000241935,True,30,1
AK-K-23K23S2,1185,experiment,95,↓,down,↓,0.5833259999053553,True,30,1
AK-K-23K23S2,1186,experiment,54,←,left,←,0.558601800003089,True,30,1
AK-K-23K23S2,1187,experiment,70,→,right,→,0.42632540001068264,True,30,1
AK-K-23K23S2,1188,experiment,84,←,left,←,0.4690287000266835,True,30,1
AK-K-23K23S2,1189,experiment,80,→,right,→,0.5996150000719354,True,30,1
AK-K-23K23S2,1190,experiment,50,↑,up,↑,0.4395422999514267,True,30,1
AK-K-23K23S2,1191,experiment,59,←,left,←,0.3925158000783995,True,30,1
AK-K-23K23S2,1192,experiment,105,↓,down,↓,0.6163122000871226,True,30,1
AK-K-23K23S2,1193,experiment,69,↓,down,↓,0.3678032000316307,True,30,1
AK-K-23K23S2,1194,experiment,72,↑,up,↑,0.41875970002729446,True,30,0
AK-K-23K23S2,1195,experiment,71,→,right,→,0.3676129999803379,True,30,0
AK-K-23K23S2,1196,experiment,81,↓,down,↓,0.48925550002604723,True,30,1
AK-K-23K23S2,1197,experiment,68,→,right,→,0.5514724000822753,True,30,1
AK-K-23K23S2,1198,experiment,64,→,right,→,0.39273530000355095,True,30,1
AK-K-23K23S2,1199,experiment,56,←,left,←,0.4424283999251202,True,30,0
AK-K-23K23S2,1200,experiment,93,→,right,→,0.4904649000382051,True,30,1
AK-K-23K23S2,1201,experiment,90,↓,down,↓,0.46523870003875345,True,30,1
AK-K-23K23S2,1202,experiment,52,→,right,→,0.7337167999939993,True,30,1
AK-K-23K23S2,1203,experiment,86,↓,down,↓,0.5886064000660554,True,30,1
AK-K-23K23S2,1204,experiment,75,→,right,→,0.5964687999803573,True,30,1
AK-K-23K23S2,1205,experiment,65,←,left,←,0.4553398999851197,True,30,1
AK-K-23K23S2,1206,experiment,85,↑,up,↑,0.593330999952741,True,30,1
AK-K-23K23S2,1207,experiment,99,↓,down,↓,0.5691059000091627,True,30,1
AK-K-23K23S2,1208,experiment,53,↑,no_key,no_letter,-1.0,False,30,1
AK-K-23K23S2,1209,experiment,78,↓,down,↓,0.5317493999609724,True,30,1
AK-K-23K23S2,1210,experiment,88,↑,up,↑,0.44182150007691234,True,30,1
AK-K-23K23S2,1211,experiment,108,↑,up,↑,0.6285905999829993,True,30,1
AK-K-23K23S2,1212,experiment,79,←,left,←,0.6336441000457853,True,30,1
AK-K-23K23S2,1213,experiment,83,↓,down,↓,0.46116770000662655,True,30,1
AK-K-23K23S2,1214,experiment,62,←,left,←,0.39238809992093593,True,30,1
AK-K-23K23S2,1215,experiment,106,→,right,→,0.4519467999925837,True,30,0
AK-K-23K23S2,1216,experiment,63,↓,down,↓,0.4212161999894306,True,30,1
AK-K-23K23S2,1217,experiment,89,→,right,→,0.4712149000260979,True,30,0
AK-K-23K23S2,1218,experiment,104,↑,up,↑,0.3844521000282839,True,30,1
AK-K-23K23S2,1219,experiment,97,→,right,→,0.6667409000219777,True,30,1
AK-K-23K23S2,1220,experiment,61,↓,left,←,0.34171040006913245,False,30,1
AK-K-23K23S2,1221,experiment,55,↓,left,←,0.35911389999091625,False,30,0
AK-K-23K23S2,1222,experiment,60,↑,up,↑,0.48250729998108,True,30,0
AK-K-23K23S2,1223,experiment,102,→,right,→,0.6697159999748692,True,30,1
AK-K-23K23S2,1224,experiment,82,↓,down,↓,0.6001831999747083,True,30,1
AK-K-23K23S2,1225,experiment,77,→,right,→,0.5433513999450952,True,30,1
AK-K-23K23S2,1226,experiment,94,←,left,←,0.3926968000596389,True,30,1
AK-K-23K23S2,1227,experiment,66,←,left,←,0.40025229996535927,True,30,0
AK-K-23K23S2,1228,experiment,51,←,left,←,0.4209636999294162,True,30,0
AK-K-23K23S2,1229,experiment,96,↑,up,↑,0.5318886000895873,True,30,0
AK-K-23K23S2,1230,experiment,98,↓,down,↓,0.43102169991470873,True,30,1
AK-K-23K23S2,1231,experiment,76,↓,down,↓,0.35822359996382147,True,30,1
AK-K-23K23S2,1232,experiment,100,→,right,→,0.661291699972935,True,30,0
AK-K-23K23S2,1233,experiment,74,↑,up,↑,0.41969659994356334,True,30,1
AK-K-23K23S2,1234,experiment,48,↓,down,↓,0.5544455000199378,True,30,1
AK-K-23K23S2,1235,experiment,49,←,left,←,0.3836917000589892,True,30,1
AK-K-23K23S2,1236,experiment,107,→,right,→,0.5937571000540629,True,30,0
AK-K-23K23S2,1237,experiment,58,←,right,→,0.4948968000244349,False,30,1
AK-K-23K23S2,1238,training,67,↑,up,↑,0.39268129994161427,True,29,0
AK-K-23K23S2,1239,training,93,→,no_key,no_letter,-1.0,False,29,0
AK-K-23K23S2,1240,experiment,55,↑,up,↑,0.43600009998772293,True,29,1
AK-K-23K23S2,1241,experiment,89,↑,up,↑,0.4375345000298694,True,29,1
AK-K-23K23S2,1242,experiment,62,→,no_key,no_letter,-1.0,False,29,1
AK-K-23K23S2,1243,experiment,81,→,right,→,0.5453653000295162,True,29,1
AK-K-23K23S2,1244,experiment,69,↓,down,↓,0.5570322000421584,True,29,1
AK-K-23K23S2,1245,experiment,96,←,left,←,0.5033919000998139,True,29,1
AK-K-23K23S2,1246,experiment,60,↑,up,↑,0.3692777999676764,True,29,1
AK-K-23K23S2,1247,experiment,102,↓,down,↓,0.5749420000938699,True,29,0
AK-K-23K23S2,1248,experiment,63,↑,up,↑,0.5474644999485463,True,29,1
AK-K-23K23S2,1249,experiment,76,←,left,←,0.37570610002148896,True,29,1
AK-K-23K23S2,1250,experiment,100,←,left,←,0.4525174000300467,True,29,0
AK-K-23K23S2,1251,experiment,75,↓,down,↓,0.4743351999204606,True,29,1
AK-K-23K23S2,1252,experiment,108,↓,down,↓,0.6199525999836624,True,29,1
AK-K-23K23S2,1253,experiment,58,↑,no_key,no_letter,-1.0,False,29,1
AK-K-23K23S2,1254,experiment,65,←,left,←,0.3691007000161335,True,29,1
AK-K-23K23S2,1255,experiment,97,→,no_key,no_letter,-1.0,False,29,0
AK-K-23K23S2,1256,experiment,67,↓,down,↓,0.5430864000227302,True,29,1
AK-K-23K23S2,1257,experiment,52,↓,down,↓,0.37731989996973425,True,29,1
AK-K-23K23S2,1258,experiment,94,↓,down,↓,0.5539915999397635,True,29,0
AK-K-23K23S2,1259,experiment,68,↓,down,↓,0.4217318999581039,True,29,1
AK-K-23K23S2,1260,experiment,106,→,right,→,0.4581041999626905,True,29,1
AK-K-23K23S2,1261,experiment,88,↓,down,↓,0.39260880008805543,True,29,1
AK-K-23K23S2,1262,experiment,57,→,right,→,0.43296180001925677,True,29,0
AK-K-23K23S2,1263,experiment,72,↑,down,↓,0.6559004000155255,False,29,1
AK-K-23K23S2,1264,experiment,91,→,right,→,0.5358073000097647,True,29,1
AK-K-23K23S2,1265,experiment,53,←,no_key,no_letter,-1.0,False,29,1
AK-K-23K23S2,1266,experiment,59,↑,up,↑,0.3842988000251353,True,29,1
AK-K-23K23S2,1267,experiment,83,↓,down,↓,0.3691231000702828,True,29,0
AK-K-23K23S2,1268,experiment,98,←,left,←,0.5443091000197455,True,29,0
AK-K-23K23S2,1269,experiment,71,→,left,←,0.7553854000288993,False,29,1
AK-K-23K23S2,1270,experiment,104,↑,no_key,no_letter,-1.0,False,29,1
AK-K-23K23S2,1271,experiment,90,↑,up,↑,0.4980465000262484,True,29,1
AK-K-23K23S2,1272,experiment,93,←,left,←,0.5754679999081418,True,29,1
AK-K-23K23S2,1273,experiment,70,→,no_key,no_letter,-1.0,False,29,1
AK-K-23K23S2,1274,experiment,54,↓,down,↓,0.41304660006426275,True,29,1
AK-K-23K23S2,1275,experiment,82,→,right,→,0.7293281999882311,True,29,0
AK-K-23K23S2,1276,experiment,48,↓,no_key,no_letter,-1.0,False,29,1
AK-K-23K23S2,1277,experiment,64,←,left,←,0.5556969000026584,True,29,1
AK-K-23K23S2,1278,experiment,87,↑,up,↑,0.3836662999819964,True,29,1
AK-K-23K23S2,1279,experiment,101,←,left,←,0.5682870999444276,True,29,0
AK-K-23K23S2,1280,experiment,61,→,right,→,0.6138653999660164,True,29,1
AK-K-23K23S2,1281,experiment,92,←,left,←,0.43111459992360324,True,29,1
AK-K-23K23S2,1282,experiment,86,↑,up,↑,0.37610730004962534,True,29,1
AK-K-23K23S2,1283,experiment,95,↑,left,←,0.6913753000553697,False,29,0
AK-K-23K23S2,1284,experiment,50,←,right,→,0.6160797000629827,False,29,1
AK-K-23K23S2,1285,experiment,99,↑,up,↑,0.5665603000670671,True,29,1
AK-K-23K23S2,1286,experiment,85,→,right,→,0.6364034001016989,True,29,1
AK-K-23K23S2,1287,experiment,79,↑,up,↑,0.4892657999880612,True,29,1
AK-K-23K23S2,1288,experiment,84,←,left,←,0.38432640000246465,True,29,1
AK-K-23K23S2,1289,experiment,73,→,right,→,0.5305625000037253,True,29,1
AK-K-23K23S2,1290,experiment,66,←,left,←,0.6560286999447271,True,29,1
AK-K-23K23S2,1291,experiment,56,↓,down,↓,0.47551999997813255,True,29,1
AK-K-23K23S2,1292,experiment,51,←,left,←,0.36065779998898506,True,29,1
AK-K-23K23S2,1293,experiment,103,→,right,→,0.5193690999876708,True,29,0
AK-K-23K23S2,1294,experiment,78,↓,down,↓,0.5849126999964938,True,29,1
AK-K-23K23S2,1295,experiment,49,↓,down,↓,0.521716000046581,True,29,1
AK-K-23K23S2,1296,experiment,105,→,right,→,0.5223210999974981,True,29,1
AK-K-23K23S2,1297,experiment,77,↓,down,↓,0.5323543000267819,True,29,1
AK-K-23K23S2,1298,experiment,80,↑,up,↑,0.5490847000619397,True,29,1
AK-K-23K23S2,1299,experiment,74,↑,up,↑,0.7589946000371128,True,29,1
AK-K-23K23S2,1300,experiment,107,←,left,←,0.5497976000187919,True,29,1
AK-K-23K23S2,1301,training,62,↑,up,↑,0.3418660999741405,True,29,0
AK-K-23K23S2,1302,training,69,←,left,←,0.5170194000238553,True,29,0
AK-K-23K23S2,1303,experiment,66,↑,up,↑,0.4428423000499606,True,29,1
AK-K-23K23S2,1304,experiment,75,←,left,←,0.4487338999751955,True,29,1
AK-K-23K23S2,1305,experiment,50,→,right,→,0.5825846999650821,True,29,1
AK-K-23K23S2,1306,experiment,65,→,right,→,0.4980620000278577,True,29,1
AK-K-23K23S2,1307,experiment,103,↓,down,↓,0.540458699921146,True,29,1
AK-K-23K23S2,1308,experiment,85,↓,down,↓,0.5231489000143483,True,29,1
AK-K-23K23S2,1309,experiment,92,←,left,←,0.5120789000065997,True,29,1
AK-K-23K23S2,1310,experiment,76,↑,up,↑,0.5388124999590218,True,29,1
AK-K-23K23S2,1311,experiment,56,↑,up,↑,0.5309471000218764,True,29,1
AK-K-23K23S2,1312,experiment,68,←,left,←,0.4633912000572309,True,29,1
AK-K-23K23S2,1313,experiment,78,←,left,←,0.3593333999160677,True,29,1
AK-K-23K23S2,1314,experiment,74,←,left,←,0.3591782000148669,True,29,0
AK-K-23K23S2,1315,experiment,60,↑,up,↑,0.5063034000340849,True,29,0
AK-K-23K23S2,1316,experiment,84,↓,down,↓,0.5705625999253243,True,29,1
AK-K-23K23S2,1317,experiment,104,↑,up,↑,0.3678475000197068,True,29,1
AK-K-23K23S2,1318,experiment,108,←,left,←,0.5755355000728741,True,29,1
AK-K-23K23S2,1319,experiment,86,→,right,→,0.588399300002493,True,29,1
AK-K-23K23S2,1320,experiment,96,←,left,←,0.5412072000326589,True,29,1
AK-K-23K23S2,1321,experiment,71,←,left,←,0.3690755000570789,True,29,1
AK-K-23K23S2,1322,experiment,67,↓,down,↓,0.5714067000662908,True,29,0
AK-K-23K23S2,1323,experiment,100,→,right,→,0.4917048999341205,True,29,1
AK-K-23K23S2,1324,experiment,89,←,left,←,0.5629654999356717,True,29,1
AK-K-23K23S2,1325,experiment,53,→,right,→,0.7071842000586912,True,29,1
AK-K-23K23S2,1326,experiment,80,↓,no_key,no_letter,-1.0,False,29,1
AK-K-23K23S2,1327,experiment,55,↑,up,↑,0.4156631000805646,True,29,1
AK-K-23K23S2,1328,experiment,98,←,left,←,0.3678301000036299,True,29,1
AK-K-23K23S2,1329,experiment,95,↓,no_key,no_letter,-1.0,False,29,1
AK-K-23K23S2,1330,experiment,107,→,right,→,0.6412883999291807,True,29,1
AK-K-23K23S2,1331,experiment,72,←,left,←,0.39309979998506606,True,29,1
AK-K-23K23S2,1332,experiment,73,↑,up,↑,0.5204165000468493,True,29,0
AK-K-23K23S2,1333,experiment,82,←,left,←,0.5927165999310091,True,29,1
AK-K-23K23S2,1334,experiment,105,→,right,→,0.5506923999637365,True,29,1
AK-K-23K23S2,1335,experiment,99,↓,down,↓,0.5044652000069618,True,29,1
AK-K-23K23S2,1336,experiment,59,→,right,→,0.5369466000702232,True,29,1
AK-K-23K23S2,1337,experiment,88,↓,down,↓,0.3925110000418499,True,29,1
AK-K-23K23S2,1338,experiment,64,↓,down,↓,0.4096265999833122,True,29,0
AK-K-23K23S2,1339,experiment,93,→,right,→,0.38424019992817193,True,29,0
AK-K-23K23S2,1340,experiment,63,←,left,←,0.49461759999394417,True,29,1
AK-K-23K23S2,1341,experiment,90,→,right,→,0.6055686000036076,True,29,1
AK-K-23K23S2,1342,experiment,79,↓,down,↓,0.3753427000483498,True,29,1
AK-K-23K23S2,1343,experiment,49,→,right,→,0.46847179997712374,True,29,0
AK-K-23K23S2,1344,experiment,57,←,left,←,0.41595289995893836,True,29,1
AK-K-23K23S2,1345,experiment,54,↑,no_key,no_letter,-1.0,False,29,1
AK-K-23K23S2,1346,experiment,91,→,right,→,0.4350257999030873,True,29,1
AK-K-23K23S2,1347,experiment,83,←,left,←,0.3838359999936074,True,29,1
AK-K-23K23S2,1348,experiment,77,↑,up,↑,0.3923426999244839,True,29,0
AK-K-23K23S2,1349,experiment,97,↑,up,↑,0.6462225000141189,True,29,0
AK-K-23K23S2,1350,experiment,69,↓,down,↓,0.637721800012514,True,29,1
AK-K-23K23S2,1351,experiment,101,←,left,←,0.5634408000623807,True,29,1
AK-K-23K23S2,1352,experiment,81,←,left,←,0.36757080000825226,True,29,1
AK-K-23K23S2,1353,experiment,58,→,right,→,0.5842218000907451,True,29,1
AK-K-23K23S2,1354,experiment,106,←,left,←,0.37528609996661544,True,29,1
AK-K-23K23S2,1355,experiment,52,↓,down,↓,0.5820454000495374,True,29,0
AK-K-23K23S2,1356,experiment,94,↑,up,↑,0.36854200006928295,True,29,1
AK-K-23K23S2,1357,experiment,70,←,left,←,0.538084700005129,True,29,0
AK-K-23K23S2,1358,experiment,61,→,right,→,0.6083907999563962,True,29,1
AK-K-23K23S2,1359,experiment,102,↓,down,↓,0.4234601999633014,True,29,1
AK-K-23K23S2,1360,experiment,51,↓,down,↓,0.5893689999356866,True,29,1
AK-K-23K23S2,1361,experiment,87,↓,down,↓,0.3764328999677673,True,29,1
AK-K-23K23S2,1362,experiment,48,←,left,←,0.5544180000433698,True,29,1
AK-K-23K23S2,1363,experiment,62,↑,no_key,no_letter,-1.0,False,29,1
AK-K-23K23S2,1364,training,104,→,right,→,0.6408709000097588,True,28,0
AK-K-23K23S2,1365,training,75,↓,down,↓,0.7668077000416815,True,28,1
AK-K-23K23S2,1366,experiment,63,↑,up,↑,0.3509898000629619,True,28,1
AK-K-23K23S2,1367,experiment,67,↑,up,↑,0.3605017999652773,True,28,0
AK-K-23K23S2,1368,experiment,98,→,right,→,0.4483757000416517,True,28,1
AK-K-23K23S2,1369,experiment,60,↓,down,↓,0.40342920005787164,True,28,1
AK-K-23K23S2,1370,experiment,96,↓,down,↓,0.3258881000801921,True,28,0
AK-K-23K23S2,1371,experiment,86,↑,up,↑,0.6254924000240862,True,28,1
AK-K-23K23S2,1372,experiment,108,←,left,←,0.35915530007332563,True,28,1
AK-K-23K23S2,1373,experiment,106,↓,down,↓,0.4436491000233218,True,28,1
AK-K-23K23S2,1374,experiment,89,→,right,→,0.5731339999474585,True,28,1
AK-K-23K23S2,1375,experiment,65,↑,up,↑,0.6970834999810904,True,28,1
AK-K-23K23S2,1376,experiment,74,↓,down,↓,0.5170263999607414,True,28,1
AK-K-23K23S2,1377,experiment,83,↑,up,↑,0.375574600067921,True,28,1
AK-K-23K23S2,1378,experiment,85,↓,down,↓,0.5142796000000089,True,28,0
AK-K-23K23S2,1379,experiment,88,↓,down,↓,0.46483740000985563,True,28,1
AK-K-23K23S2,1380,experiment,62,↓,no_key,no_letter,-1.0,False,28,1
AK-K-23K23S2,1381,experiment,48,↓,down,↓,0.5590352000435814,True,28,1
AK-K-23K23S2,1382,experiment,80,↓,down,↓,0.3441102000651881,True,28,1
AK-K-23K23S2,1383,experiment,52,←,left,←,0.4392589000053704,True,28,0
AK-K-23K23S2,1384,experiment,54,↓,down,↓,0.5003263000398874,True,28,1
AK-K-23K23S2,1385,experiment,71,←,left,←,0.35128549998626113,True,28,1
AK-K-23K23S2,1386,experiment,78,→,right,→,0.5133491000160575,True,28,1
AK-K-23K23S2,1387,experiment,100,↑,no_key,no_letter,-1.0,False,28,1
AK-K-23K23S2,1388,experiment,104,↑,up,↑,0.40727810002863407,True,28,1
AK-K-23K23S2,1389,experiment,61,←,right,→,0.5783742000348866,False,28,1
AK-K-23K23S2,1390,experiment,92,→,right,→,0.40556179999839514,True,28,1
AK-K-23K23S2,1391,experiment,79,→,right,→,0.5952004999853671,True,28,0
AK-K-23K23S2,1392,experiment,101,←,left,←,0.5543129000579938,True,28,1
AK-K-23K23S2,1393,experiment,69,↓,down,↓,0.453543100040406,True,28,1
AK-K-23K23S2,1394,experiment,53,↓,down,↓,0.4108611000701785,True,28,1
AK-K-23K23S2,1395,experiment,107,↑,up,↑,0.49455780000425875,True,28,1
AK-K-23K23S2,1396,experiment,50,←,no_key,no_letter,-1.0,False,28,1
AK-K-23K23S2,1397,experiment,55,↓,down,↓,0.5171589000383392,True,28,1
AK-K-23K23S2,1398,experiment,99,←,left,←,0.4800816000206396,True,28,1
AK-K-23K23S2,1399,experiment,70,←,left,←,0.5419248000252992,True,28,1
AK-K-23K23S2,1400,experiment,93,↑,up,↑,0.35123879997991025,True,28,1
AK-K-23K23S2,1401,experiment,95,→,no_key,no_letter,-1.0,False,28,0
AK-K-23K23S2,1402,experiment,77,↓,down,↓,0.5123982999939471,True,28,1
AK-K-23K23S2,1403,experiment,81,↓,down,↓,0.4012443000683561,True,28,1
AK-K-23K23S2,1404,experiment,103,→,right,→,0.647164799971506,True,28,0
AK-K-23K23S2,1405,experiment,91,↓,down,↓,0.4475605000043288,True,28,1
AK-K-23K23S2,1406,experiment,58,→,no_key,no_letter,-1.0,False,28,1
AK-K-23K23S2,1407,experiment,76,↓,down,↓,0.5507233000826091,True,28,1
AK-K-23K23S2,1408,experiment,49,←,left,←,0.520789899979718,True,28,1
AK-K-23K23S2,1409,experiment,72,→,right,→,0.5721796000143513,True,28,1
AK-K-23K23S2,1410,experiment,59,↑,no_key,no_letter,-1.0,False,28,1
AK-K-23K23S2,1411,experiment,57,↑,up,↑,0.692102300003171,True,28,1
AK-K-23K23S2,1412,experiment,73,↓,down,↓,0.6566979000344872,True,28,1
AK-K-23K23S2,1413,experiment,94,→,right,→,0.4477186999283731,True,28,1
AK-K-23K23S2,1414,experiment,64,↓,down,↓,0.5849975999444723,True,28,1
AK-K-23K23S2,1415,experiment,105,↓,down,↓,0.48716500005684793,True,28,1
AK-K-23K23S2,1416,experiment,51,←,down,↓,0.8432418000884354,False,28,1
AK-K-23K23S2,1417,experiment,68,←,left,←,0.5875251999823377,True,28,1
AK-K-23K23S2,1418,experiment,75,↓,down,↓,0.5874371000099927,True,28,1
AK-K-23K23S2,1419,experiment,97,↑,up,↑,0.4206746000563726,True,28,1
AK-K-23K23S2,1420,experiment,56,←,up,↑,0.6329516000114381,False,28,1
AK-K-23K23S2,1421,experiment,90,↓,down,↓,0.5383524000644684,True,28,1
AK-K-23K23S2,1422,experiment,66,↓,up,↑,0.5512970000272617,False,28,1
AK-K-23K23S2,1423,experiment,87,↓,down,↓,0.7885821999516338,True,28,1
AK-K-23K23S2,1424,experiment,84,↓,down,↓,0.4980113999918103,True,28,1
AK-K-23K23S2,1425,experiment,102,↓,down,↓,0.7005831999704242,True,28,1
