PART_ID,Trial_no,Trial_type,CSI,Stim_letter,Key_pressed,letter_choose,Rt,Corr,Stimulus Time,nDropped
AM-K-22K22S2,1,training,120,←,left,←,0.401201699860394,True,60,1
AM-K-22K22S2,2,training,120,↑,down,↓,0.6257189000025392,False,60,0
AM-K-22K22S2,3,training,120,←,left,←,0.43479149998165667,True,60,0
AM-K-22K22S2,4,training,120,↑,up,↑,0.5672706998884678,True,60,0
AM-K-22K22S2,5,training,120,→,right,→,0.5334002999588847,True,60,0
AM-K-22K22S2,6,training,120,↓,down,↓,0.7179300000425428,True,60,0
AM-K-22K22S2,7,training,120,↓,down,↓,0.768045499920845,True,60,0
AM-K-22K22S2,8,training,120,↓,down,↓,0.9601485000457615,True,60,0
AM-K-22K22S2,9,training,120,↑,up,↑,0.7527505999896675,True,60,0
AM-K-22K22S2,10,training,120,←,left,←,0.5755893001332879,True,60,0
AM-K-22K22S2,11,training,120,→,right,→,0.594664900097996,True,60,0
AM-K-22K22S2,12,training,120,↑,up,↑,0.5590592999942601,True,60,0
AM-K-22K22S2,13,training,120,→,right,→,0.8728596998844296,True,60,0
AM-K-22K22S2,14,training,120,←,left,←,0.48534310003742576,True,60,0
AM-K-22K22S2,15,training,120,↑,up,↑,0.5509410998784006,True,60,0
AM-K-22K22S2,16,training,120,→,right,→,0.45220730011351407,True,60,0
AM-K-22K22S2,17,training,120,↓,down,↓,0.7563182001467794,True,60,0
AM-K-22K22S2,18,training,120,←,left,←,0.6422667999286205,True,60,0
AM-K-22K22S2,19,training,120,→,right,→,0.4686374000739306,True,60,0
AM-K-22K22S2,20,training,120,←,left,←,0.3852631999179721,True,60,0
AM-K-22K22S2,21,no_adaptation,120,↓,down,↓,0.5774455999489874,True,36,0
AM-K-22K22S2,22,no_adaptation,120,→,right,→,0.5852981000207365,True,36,0
AM-K-22K22S2,23,no_adaptation,120,↓,down,↓,0.6008090998511761,True,36,0
AM-K-22K22S2,24,no_adaptation,120,→,right,→,0.567674099933356,True,36,0
AM-K-22K22S2,25,no_adaptation,120,↓,down,↓,0.5919466000050306,True,36,0
AM-K-22K22S2,26,no_adaptation,120,↓,down,↓,0.631585800088942,True,36,0
AM-K-22K22S2,27,no_adaptation,120,↑,left,←,0.9648921000771224,False,36,0
AM-K-22K22S2,28,no_adaptation,120,→,right,→,0.5492662000469863,True,36,0
AM-K-22K22S2,29,no_adaptation,120,→,right,→,0.68664940004237,True,36,0
AM-K-22K22S2,30,no_adaptation,120,→,left,←,0.44250450003892183,False,36,0
AM-K-22K22S2,31,no_adaptation,120,→,right,→,0.5355498001445085,True,36,0
AM-K-22K22S2,32,no_adaptation,120,↑,up,↑,0.4260909000877291,True,36,0
AM-K-22K22S2,33,no_adaptation,120,↑,up,↑,0.6227590998169035,True,36,0
AM-K-22K22S2,34,no_adaptation,120,→,right,→,0.5087890999857336,True,36,0
AM-K-22K22S2,35,no_adaptation,120,↓,down,↓,0.6479537999257445,True,36,0
AM-K-22K22S2,36,no_adaptation,120,→,right,→,0.5406625000759959,True,36,0
AM-K-22K22S2,37,no_adaptation,120,→,right,→,0.5502033000811934,True,36,0
AM-K-22K22S2,38,no_adaptation,120,←,left,←,0.7592574001755565,True,36,0
AM-K-22K22S2,39,no_adaptation,120,→,right,→,0.6074877998325974,True,36,0
AM-K-22K22S2,40,no_adaptation,120,↑,up,↑,0.6464335999917239,True,36,0
AM-K-22K22S2,41,training,62,↓,down,↓,0.5982766000088304,True,36,0
AM-K-22K22S2,42,training,102,→,right,→,0.4843341000378132,True,36,1
AM-K-22K22S2,43,experiment,98,→,left,←,0.6873384998179972,False,36,1
AM-K-22K22S2,44,experiment,50,→,right,→,0.6030713000800461,True,36,1
AM-K-22K22S2,45,experiment,62,→,right,→,1.870573100168258,True,36,1
AM-K-22K22S2,46,experiment,96,↓,down,↓,0.6427809000015259,True,36,1
AM-K-22K22S2,47,experiment,95,←,left,←,0.6410995998885483,True,36,1
AM-K-22K22S2,48,experiment,82,←,left,←,1.1796319000422955,True,36,1
AM-K-22K22S2,49,experiment,94,→,right,→,0.416943599935621,True,36,1
AM-K-22K22S2,50,experiment,73,↑,up,↑,0.5391466000583023,True,36,0
AM-K-22K22S2,51,experiment,89,↑,up,↑,0.37630639993585646,True,36,1
AM-K-22K22S2,52,experiment,84,←,left,←,0.4096859998535365,True,36,0
AM-K-22K22S2,53,experiment,103,→,right,→,0.2525883000344038,True,36,1
AM-K-22K22S2,54,experiment,56,↓,down,↓,0.6255590999498963,True,36,0
AM-K-22K22S2,55,experiment,52,←,left,←,0.551014999859035,True,36,1
AM-K-22K22S2,56,experiment,75,↑,up,↑,0.5759151000529528,True,36,1
AM-K-22K22S2,57,experiment,70,←,right,→,0.4018023998942226,False,36,1
AM-K-22K22S2,58,experiment,74,→,left,←,0.647526599932462,False,36,0
AM-K-22K22S2,59,experiment,92,↑,up,↑,0.6304545002058148,True,36,1
AM-K-22K22S2,60,experiment,88,→,right,→,0.5277533999178559,True,36,1
AM-K-22K22S2,61,experiment,57,↑,up,↑,0.5353506999090314,True,36,1
AM-K-22K22S2,62,experiment,85,↓,down,↓,0.5815739999525249,True,36,1
AM-K-22K22S2,63,experiment,104,↓,up,↑,0.4833128999453038,False,36,1
AM-K-22K22S2,64,experiment,86,→,right,→,0.4987927000038326,True,36,1
AM-K-22K22S2,65,experiment,100,↑,up,↑,0.43448389996774495,True,36,1
AM-K-22K22S2,66,experiment,58,←,left,←,0.5040299000684172,True,36,1
AM-K-22K22S2,67,experiment,102,←,left,←,0.5934067000634968,True,36,1
AM-K-22K22S2,68,experiment,97,→,right,→,0.4895471998024732,True,36,1
AM-K-22K22S2,69,experiment,55,↓,down,↓,0.48275299998931587,True,36,1
AM-K-22K22S2,70,experiment,67,↓,down,↓,0.3507116998080164,True,36,1
AM-K-22K22S2,71,experiment,99,↓,down,↓,0.49724950012750924,True,36,0
AM-K-22K22S2,72,experiment,64,←,left,←,0.31710350001230836,True,36,1
AM-K-22K22S2,73,experiment,49,↑,up,↑,0.5623261001892388,True,36,0
AM-K-22K22S2,74,experiment,60,↓,down,↓,0.4873409001156688,True,36,1
AM-K-22K22S2,75,experiment,78,→,right,→,0.41091630002483726,True,36,1
AM-K-22K22S2,76,experiment,90,↑,up,↑,0.4028526998590678,True,36,0
AM-K-22K22S2,77,experiment,87,←,right,→,0.3173507999163121,False,36,0
AM-K-22K22S2,78,experiment,93,↑,up,↑,0.45111389993689954,True,36,0
AM-K-22K22S2,79,experiment,65,↓,down,↓,0.6236763000488281,True,36,0
AM-K-22K22S2,80,experiment,105,↑,up,↑,0.43462030007503927,True,36,1
AM-K-22K22S2,81,experiment,63,↓,down,↓,0.4012279000598937,True,36,1
AM-K-22K22S2,82,experiment,91,→,right,→,0.38370699994266033,True,36,1
AM-K-22K22S2,83,experiment,48,←,left,←,0.549682900076732,True,36,0
AM-K-22K22S2,84,experiment,53,↓,up,↑,0.6537809998262674,False,36,1
AM-K-22K22S2,85,experiment,106,↓,down,↓,0.6318071000277996,True,36,1
AM-K-22K22S2,86,experiment,108,→,right,→,0.5141205999534577,True,36,1
AM-K-22K22S2,87,experiment,66,↑,up,↑,0.5674552000127733,True,36,1
AM-K-22K22S2,88,experiment,79,→,left,←,0.59004329983145,False,36,1
AM-K-22K22S2,89,experiment,107,→,right,→,0.4984138999134302,True,36,1
AM-K-22K22S2,90,experiment,71,↑,up,↑,1.1106857999693602,True,36,1
AM-K-22K22S2,91,experiment,80,↓,down,↓,0.574692799942568,True,36,1
AM-K-22K22S2,92,experiment,83,←,no_key,no_letter,-1.0,False,36,1
AM-K-22K22S2,93,experiment,51,↓,down,↓,0.6197792000602931,True,36,1
AM-K-22K22S2,94,experiment,61,→,right,→,1.3421630999073386,True,36,1
AM-K-22K22S2,95,experiment,54,↓,down,↓,0.5820192999672145,True,36,1
AM-K-22K22S2,96,experiment,77,←,left,←,0.5167032000608742,True,36,1
AM-K-22K22S2,97,experiment,72,→,right,→,1.1277279001660645,True,36,1
AM-K-22K22S2,98,experiment,69,↓,down,↓,0.5636046999134123,True,36,1
AM-K-22K22S2,99,experiment,68,↑,up,↑,0.5902750000823289,True,36,1
AM-K-22K22S2,100,experiment,81,→,right,→,0.5311284998897463,True,36,1
AM-K-22K22S2,101,experiment,76,→,right,→,0.4765940001234412,True,36,1
AM-K-22K22S2,102,experiment,101,↓,down,↓,0.7188130998983979,True,36,1
AM-K-22K22S2,103,experiment,59,←,left,←,0.49401100003160536,True,36,1
AM-K-22K22S2,104,training,84,→,left,←,0.48613630002364516,False,36,0
AM-K-22K22S2,105,training,68,↓,down,↓,0.5312387999147177,True,36,1
AM-K-22K22S2,106,experiment,90,↓,down,↓,0.5837909998372197,True,36,1
AM-K-22K22S2,107,experiment,77,←,left,←,0.3673316999338567,True,36,1
AM-K-22K22S2,108,experiment,69,↑,left,←,0.2921370998956263,False,36,0
AM-K-22K22S2,109,experiment,53,↓,up,↑,0.4442418999969959,False,36,0
AM-K-22K22S2,110,experiment,74,←,left,←,0.535347499884665,True,36,0
AM-K-22K22S2,111,experiment,97,↑,up,↑,0.3944172998890281,True,36,1
AM-K-22K22S2,112,experiment,72,←,right,→,0.48057260015048087,False,36,1
AM-K-22K22S2,113,experiment,104,↓,down,↓,0.6022836999036372,True,36,1
AM-K-22K22S2,114,experiment,59,→,right,→,0.7103391001001,True,36,1
AM-K-22K22S2,115,experiment,62,→,right,→,0.7169661999214441,True,36,1
AM-K-22K22S2,116,experiment,92,↑,up,↑,0.7056417998392135,True,36,1
AM-K-22K22S2,117,experiment,98,↓,down,↓,0.572159199975431,True,36,1
AM-K-22K22S2,118,experiment,107,←,left,←,0.6412043999880552,True,36,1
AM-K-22K22S2,119,experiment,103,↓,down,↓,0.516802900005132,True,36,1
AM-K-22K22S2,120,experiment,93,→,right,→,0.4345860998146236,True,36,1
AM-K-22K22S2,121,experiment,106,↑,up,↑,0.4764084001071751,True,36,0
AM-K-22K22S2,122,experiment,91,→,right,→,0.4739894999656826,True,36,1
AM-K-22K22S2,123,experiment,80,↑,up,↑,0.41774720000103116,True,36,1
AM-K-22K22S2,124,experiment,52,↑,up,↑,0.6651178000029176,True,36,0
AM-K-22K22S2,125,experiment,51,→,left,←,0.5334715999197215,False,36,1
AM-K-22K22S2,126,experiment,81,↓,down,↓,0.4767110999673605,True,36,1
AM-K-22K22S2,127,experiment,56,↓,down,↓,0.5348590998910367,True,36,1
AM-K-22K22S2,128,experiment,94,←,left,←,0.5858744999859482,True,36,1
AM-K-22K22S2,129,experiment,89,↓,down,↓,0.628616200061515,True,36,1
AM-K-22K22S2,130,experiment,65,←,left,←,0.3841391000896692,True,36,1
AM-K-22K22S2,131,experiment,78,←,left,←,0.3755132001824677,True,36,0
AM-K-22K22S2,132,experiment,99,↓,left,←,0.7070020998362452,False,36,0
AM-K-22K22S2,133,experiment,70,→,right,→,0.5270992000587285,True,36,1
AM-K-22K22S2,134,experiment,102,↑,up,↑,0.5915808000136167,True,36,1
AM-K-22K22S2,135,experiment,83,↑,up,↑,0.6600991999730468,True,36,1
AM-K-22K22S2,136,experiment,68,→,right,→,0.47490729996934533,True,36,1
AM-K-22K22S2,137,experiment,76,↓,down,↓,0.6138320998288691,True,36,1
AM-K-22K22S2,138,experiment,96,→,right,→,0.7412610999308527,True,36,1
AM-K-22K22S2,139,experiment,86,←,left,←,0.4194281999953091,True,36,1
AM-K-22K22S2,140,experiment,48,↓,down,↓,0.7447606001514941,True,36,0
AM-K-22K22S2,141,experiment,64,↓,down,↓,0.9173266999423504,True,36,1
AM-K-22K22S2,142,experiment,79,↓,down,↓,0.5500797000713646,True,36,1
AM-K-22K22S2,143,experiment,85,→,right,→,0.6514721000567079,True,36,1
AM-K-22K22S2,144,experiment,49,→,right,→,0.6329433999489993,True,36,1
AM-K-22K22S2,145,experiment,57,←,left,←,0.5243266001343727,True,36,1
AM-K-22K22S2,146,experiment,55,↑,up,↑,0.620648399926722,True,36,1
AM-K-22K22S2,147,experiment,101,↑,left,←,0.682039299979806,False,36,1
AM-K-22K22S2,148,experiment,75,→,up,↑,0.9257221999578178,False,36,1
AM-K-22K22S2,149,experiment,61,→,right,→,0.6035772999748588,True,36,1
AM-K-22K22S2,150,experiment,87,↓,left,←,0.6941953001078218,False,36,1
AM-K-22K22S2,151,experiment,88,↓,down,↓,0.7811493999324739,True,36,1
AM-K-22K22S2,152,experiment,108,↓,down,↓,0.7452390000689775,True,36,1
AM-K-22K22S2,153,experiment,95,→,right,→,0.7155525998678058,True,36,1
AM-K-22K22S2,154,experiment,71,↑,down,↓,0.6710136998444796,False,36,1
AM-K-22K22S2,155,experiment,100,↓,down,↓,0.5625054000411183,True,36,1
AM-K-22K22S2,156,experiment,73,↓,down,↓,0.7075096999760717,True,36,1
AM-K-22K22S2,157,experiment,105,→,right,→,0.5316705000586808,True,36,1
AM-K-22K22S2,158,experiment,60,↑,no_key,no_letter,-1.0,False,36,1
AM-K-22K22S2,159,experiment,54,↑,up,↑,0.6168819000013173,True,36,1
AM-K-22K22S2,160,experiment,82,→,right,→,0.3928427998907864,True,36,1
AM-K-22K22S2,161,experiment,50,↑,up,↑,0.5798729001544416,True,36,1
AM-K-22K22S2,162,experiment,67,←,left,←,0.443021799903363,True,36,1
AM-K-22K22S2,163,experiment,63,→,right,→,0.4094765998888761,True,36,0
AM-K-22K22S2,164,experiment,84,→,no_key,no_letter,-1.0,False,36,0
AM-K-22K22S2,165,experiment,66,↑,up,↑,0.58069509989582,True,36,1
AM-K-22K22S2,166,experiment,58,↑,up,↑,0.41919069993309677,True,36,1
AM-K-22K22S2,167,training,64,↑,left,←,0.6375822001136839,False,36,0
AM-K-22K22S2,168,training,89,↓,up,↑,0.20248279999941587,False,36,1
AM-K-22K22S2,169,experiment,76,↓,down,↓,0.800341899972409,True,36,0
AM-K-22K22S2,170,experiment,87,→,right,→,0.482918499968946,True,36,1
AM-K-22K22S2,171,experiment,104,←,right,→,0.42482930002734065,False,36,1
AM-K-22K22S2,172,experiment,63,→,right,→,0.5101405999157578,True,36,0
AM-K-22K22S2,173,experiment,105,↓,right,→,0.7504316000267863,False,36,1
AM-K-22K22S2,174,experiment,61,↓,up,↑,0.6599495999980718,False,36,1
AM-K-22K22S2,175,experiment,97,→,right,→,0.4731145999394357,True,36,1
AM-K-22K22S2,176,experiment,101,↑,left,←,0.7719176998361945,False,36,1
AM-K-22K22S2,177,experiment,51,→,right,→,0.4838938000611961,True,36,1
AM-K-22K22S2,178,experiment,85,←,left,←,0.5315860998816788,True,36,1
AM-K-22K22S2,179,experiment,82,↓,down,↓,0.6825993000529706,True,36,1
AM-K-22K22S2,180,experiment,83,←,left,←,0.4833474999759346,True,36,1
AM-K-22K22S2,181,experiment,71,←,no_key,no_letter,-1.0,False,36,1
AM-K-22K22S2,182,experiment,100,←,left,←,0.34401639993302524,True,36,1
AM-K-22K22S2,183,experiment,108,↓,down,↓,0.5248491000384092,True,36,0
AM-K-22K22S2,184,experiment,67,→,right,→,0.473536100005731,True,36,1
AM-K-22K22S2,185,experiment,68,↑,up,↑,0.40080820000730455,True,36,0
AM-K-22K22S2,186,experiment,55,↓,down,↓,0.6126967999152839,True,36,0
AM-K-22K22S2,187,experiment,90,↑,up,↑,0.6374848999548703,True,36,1
AM-K-22K22S2,188,experiment,54,↓,down,↓,0.4896827000193298,True,36,1
AM-K-22K22S2,189,experiment,84,←,left,←,0.6177099000196904,True,36,1
AM-K-22K22S2,190,experiment,81,↓,down,↓,0.4857623998541385,True,36,1
AM-K-22K22S2,191,experiment,94,↑,up,↑,0.44230679981410503,True,36,1
AM-K-22K22S2,192,experiment,88,↓,down,↓,0.4013243999797851,True,36,0
AM-K-22K22S2,193,experiment,106,←,left,←,0.40926240012049675,True,36,1
AM-K-22K22S2,194,experiment,49,↓,down,↓,0.5019843999762088,True,36,0
AM-K-22K22S2,195,experiment,91,↓,down,↓,0.3922507001552731,True,36,1
AM-K-22K22S2,196,experiment,79,↑,up,↑,0.49677069997414947,True,36,0
AM-K-22K22S2,197,experiment,96,→,right,→,0.5728646998759359,True,36,1
AM-K-22K22S2,198,experiment,75,↓,down,↓,0.43456199998036027,True,36,1
AM-K-22K22S2,199,experiment,65,→,left,←,0.3928865999914706,False,36,0
AM-K-22K22S2,200,experiment,58,→,right,→,0.5213154000230134,True,36,0
AM-K-22K22S2,201,experiment,99,←,left,←,0.5631295000202954,True,36,1
AM-K-22K22S2,202,experiment,74,←,left,←,0.499295299872756,True,36,1
AM-K-22K22S2,203,experiment,48,←,left,←,0.450932800071314,True,36,1
AM-K-22K22S2,204,experiment,69,←,left,←,0.5096442999783903,True,36,0
AM-K-22K22S2,205,experiment,98,→,right,→,0.5443621999584138,True,36,1
AM-K-22K22S2,206,experiment,60,↓,down,↓,0.6063214999157935,True,36,1
AM-K-22K22S2,207,experiment,103,↓,down,↓,0.739239800022915,True,36,1
AM-K-22K22S2,208,experiment,102,→,right,→,0.5313849002122879,True,36,1
AM-K-22K22S2,209,experiment,80,←,left,←,0.36791859986260533,True,36,1
AM-K-22K22S2,210,experiment,73,↑,down,↓,0.4834996999707073,False,36,0
AM-K-22K22S2,211,experiment,64,↓,down,↓,0.4444058001972735,True,36,1
AM-K-22K22S2,212,experiment,57,→,right,→,1.124657800188288,True,36,0
AM-K-22K22S2,213,experiment,78,←,left,←,0.5095733997877687,True,36,1
AM-K-22K22S2,214,experiment,50,↓,down,↓,0.9763495998922735,True,36,1
AM-K-22K22S2,215,experiment,52,↑,down,↓,0.4877935000695288,False,36,1
AM-K-22K22S2,216,experiment,107,↑,up,↑,0.39295080001465976,True,36,1
AM-K-22K22S2,217,experiment,86,↑,up,↑,0.39299040008336306,True,36,0
AM-K-22K22S2,218,experiment,66,↓,down,↓,0.525061400141567,True,36,1
AM-K-22K22S2,219,experiment,62,↓,down,↓,0.491172700189054,True,36,1
AM-K-22K22S2,220,experiment,92,↑,up,↑,0.4179812001530081,True,36,1
AM-K-22K22S2,221,experiment,93,↓,down,↓,0.4505545001011342,True,36,1
AM-K-22K22S2,222,experiment,72,↓,down,↓,0.517742799827829,True,36,0
AM-K-22K22S2,223,experiment,53,↓,down,↓,0.45034329988993704,True,36,1
AM-K-22K22S2,224,experiment,59,↓,down,↓,0.5453110998496413,True,36,0
AM-K-22K22S2,225,experiment,56,←,left,←,0.39312619995325804,True,36,1
AM-K-22K22S2,226,experiment,95,↓,down,↓,0.5120054001454264,True,36,0
AM-K-22K22S2,227,experiment,89,→,right,→,0.5176000997889787,True,36,1
AM-K-22K22S2,228,experiment,77,↓,down,↓,0.5507716001011431,True,36,1
AM-K-22K22S2,229,experiment,70,→,right,→,0.6573113000486046,True,36,1
AM-K-22K22S2,230,training,92,←,left,←,0.677673599915579,True,36,0
AM-K-22K22S2,231,training,55,↑,left,←,1.0481477999128401,False,36,1
AM-K-22K22S2,232,experiment,50,↓,down,↓,0.613369100028649,True,36,1
AM-K-22K22S2,233,experiment,96,↑,up,↑,0.5801250000949949,True,36,1
AM-K-22K22S2,234,experiment,62,→,right,→,0.39288690011017025,True,36,1
AM-K-22K22S2,235,experiment,64,→,right,→,0.6663015999365598,True,36,0
AM-K-22K22S2,236,experiment,99,↓,down,↓,0.47086940007284284,True,36,1
AM-K-22K22S2,237,experiment,101,→,right,→,0.4895130000077188,True,36,0
AM-K-22K22S2,238,experiment,94,↓,down,↓,0.5899017001502216,True,36,1
AM-K-22K22S2,239,experiment,87,→,right,→,0.6972028999589384,True,36,1
AM-K-22K22S2,240,experiment,57,↑,up,↑,0.6258817000780255,True,36,1
AM-K-22K22S2,241,experiment,56,↑,up,↑,0.5340277999639511,True,36,1
AM-K-22K22S2,242,experiment,92,↓,right,→,0.6815875999163836,False,36,1
AM-K-22K22S2,243,experiment,106,→,right,→,0.5149654999841005,True,36,1
AM-K-22K22S2,244,experiment,67,↑,up,↑,0.5675282999873161,True,36,1
AM-K-22K22S2,245,experiment,84,←,right,→,0.5242286999709904,False,36,1
AM-K-22K22S2,246,experiment,75,↓,left,←,0.5583287000190467,False,36,1
AM-K-22K22S2,247,experiment,93,←,right,→,0.5286286000628024,False,36,1
AM-K-22K22S2,248,experiment,55,↑,up,↑,0.6327865000348538,True,36,1
AM-K-22K22S2,249,experiment,104,↓,left,←,0.4848960000090301,False,36,1
AM-K-22K22S2,250,experiment,105,↑,up,↑,0.5496255001053214,True,36,1
AM-K-22K22S2,251,experiment,49,↓,down,↓,0.6308636001776904,True,36,1
AM-K-22K22S2,252,experiment,58,↑,up,↑,0.5061824000440538,True,36,1
AM-K-22K22S2,253,experiment,90,↓,down,↓,0.6555790998972952,True,36,1
AM-K-22K22S2,254,experiment,61,←,left,←,0.5285881999880075,True,36,1
AM-K-22K22S2,255,experiment,89,←,left,←,0.5734844000544399,True,36,1
AM-K-22K22S2,256,experiment,85,→,left,←,0.5298019000329077,False,36,1
AM-K-22K22S2,257,experiment,76,→,left,←,0.49910420016385615,False,36,1
AM-K-22K22S2,258,experiment,69,←,left,←,0.5358003000728786,True,36,1
AM-K-22K22S2,259,experiment,97,↓,down,↓,0.5696078001055866,True,36,1
AM-K-22K22S2,260,experiment,60,↑,up,↑,0.6226208000443876,True,36,1
AM-K-22K22S2,261,experiment,59,←,left,←,0.9535548000130802,True,36,1
AM-K-22K22S2,262,experiment,107,←,no_key,no_letter,-1.0,False,36,1
AM-K-22K22S2,263,experiment,78,↑,up,↑,0.7501780998427421,True,36,1
AM-K-22K22S2,264,experiment,79,↓,down,↓,0.5894742999225855,True,36,1
AM-K-22K22S2,265,experiment,88,←,left,←,0.47291240002959967,True,36,1
AM-K-22K22S2,266,experiment,81,→,right,→,0.6499226000159979,True,36,1
AM-K-22K22S2,267,experiment,103,←,left,←,0.4693809000309557,True,36,1
AM-K-22K22S2,268,experiment,83,→,right,→,1.1821290000807494,True,36,0
AM-K-22K22S2,269,experiment,66,↑,up,↑,0.5927375999744982,True,36,1
AM-K-22K22S2,270,experiment,63,↑,up,↑,0.619660000083968,True,36,1
AM-K-22K22S2,271,experiment,73,→,right,→,0.6339361998252571,True,36,1
AM-K-22K22S2,272,experiment,98,↓,down,↓,0.591873100027442,True,36,1
AM-K-22K22S2,273,experiment,80,↓,down,↓,0.6371194000821561,True,36,1
AM-K-22K22S2,274,experiment,74,←,left,←,1.0102498000487685,True,36,1
AM-K-22K22S2,275,experiment,70,↓,down,↓,0.7623647002037615,True,36,1
AM-K-22K22S2,276,experiment,52,↓,left,←,0.6426975999493152,False,36,1
AM-K-22K22S2,277,experiment,54,←,left,←,0.59078019997105,True,36,1
AM-K-22K22S2,278,experiment,71,↑,up,↑,0.5509799001738429,True,36,1
AM-K-22K22S2,279,experiment,68,↓,down,↓,0.5062467001844198,True,36,1
AM-K-22K22S2,280,experiment,100,↑,up,↑,0.41719480021856725,True,36,1
AM-K-22K22S2,281,experiment,82,↓,down,↓,0.5758152001071721,True,36,0
AM-K-22K22S2,282,experiment,86,↑,up,↑,0.4089432000182569,True,36,1
AM-K-22K22S2,283,experiment,91,←,right,→,0.5406156000681221,False,36,0
AM-K-22K22S2,284,experiment,51,→,right,→,0.5176327999215573,True,36,1
AM-K-22K22S2,285,experiment,72,←,left,←,0.40158060006797314,True,36,1
AM-K-22K22S2,286,experiment,102,←,left,←,0.5821750999893993,True,36,0
AM-K-22K22S2,287,experiment,77,↓,down,↓,0.6527823000214994,True,36,1
AM-K-22K22S2,288,experiment,95,↑,up,↑,1.0504748998209834,True,36,1
AM-K-22K22S2,289,experiment,48,←,left,←,0.4337753001600504,True,36,1
AM-K-22K22S2,290,experiment,108,↓,down,↓,0.8264306001365185,True,36,0
AM-K-22K22S2,291,experiment,65,↑,up,↑,0.4755895999260247,True,36,1
AM-K-22K22S2,292,experiment,53,↓,down,↓,0.5350189998280257,True,36,1
AM-K-22K22S2,293,training,95,←,left,←,0.6328237999696285,True,36,0
AM-K-22K22S2,294,training,58,↑,up,↑,0.4177391999401152,True,36,1
AM-K-22K22S2,295,experiment,53,↓,down,↓,0.4809142998419702,True,36,0
AM-K-22K22S2,296,experiment,65,↑,up,↑,0.3922969000414014,True,36,1
AM-K-22K22S2,297,experiment,93,↑,up,↑,0.39317800011485815,True,36,0
AM-K-22K22S2,298,experiment,105,←,left,←,0.341886900132522,True,36,1
AM-K-22K22S2,299,experiment,90,←,left,←,0.5764351999387145,True,36,0
AM-K-22K22S2,300,experiment,92,↑,up,↑,1.6747069000266492,True,36,1
AM-K-22K22S2,301,experiment,73,↑,up,↑,0.6386928001884371,True,36,1
AM-K-22K22S2,302,experiment,81,↓,up,↑,0.6498454001266509,False,36,1
AM-K-22K22S2,303,experiment,55,↓,down,↓,0.47745259990915656,True,36,1
AM-K-22K22S2,304,experiment,59,←,left,←,0.5580071001313627,True,36,1
AM-K-22K22S2,305,experiment,86,←,left,←,0.4668111000210047,True,36,1
AM-K-22K22S2,306,experiment,91,→,right,→,0.6173618000466377,True,36,0
AM-K-22K22S2,307,experiment,62,→,right,→,0.4423456999938935,True,36,1
AM-K-22K22S2,308,experiment,108,→,right,→,0.3836046000942588,True,36,0
AM-K-22K22S2,309,experiment,100,←,left,←,0.4178918998222798,True,36,0
AM-K-22K22S2,310,experiment,70,←,left,←,0.4177425999660045,True,36,0
AM-K-22K22S2,311,experiment,99,↓,down,↓,0.4970718000549823,True,36,1
AM-K-22K22S2,312,experiment,85,↑,up,↑,0.5844517000950873,True,36,1
AM-K-22K22S2,313,experiment,96,→,left,←,0.9127951001282781,False,36,1
AM-K-22K22S2,314,experiment,64,↑,left,←,0.6785180999431759,False,36,1
AM-K-22K22S2,315,experiment,52,←,left,←,0.505899399984628,True,36,1
AM-K-22K22S2,316,experiment,78,↑,left,←,0.8834917000494897,False,36,1
AM-K-22K22S2,317,experiment,77,↑,up,↑,0.5820418000221252,True,36,1
AM-K-22K22S2,318,experiment,67,←,left,←,0.4420799999497831,True,36,1
AM-K-22K22S2,319,experiment,97,↓,down,↓,0.7015250001568347,True,36,0
AM-K-22K22S2,320,experiment,98,←,left,←,0.40210489998571575,True,36,1
AM-K-22K22S2,321,experiment,60,←,left,←,0.5159861000720412,True,36,0
AM-K-22K22S2,322,experiment,58,→,right,→,0.627755300141871,True,36,1
AM-K-22K22S2,323,experiment,54,←,left,←,0.40945090004242957,True,36,1
AM-K-22K22S2,324,experiment,71,↓,down,↓,0.6240636999718845,True,36,0
AM-K-22K22S2,325,experiment,107,←,left,←,0.5868496000766754,True,36,1
AM-K-22K22S2,326,experiment,48,↑,up,↑,0.5793236000463367,True,36,1
AM-K-22K22S2,327,experiment,80,→,left,←,0.45096500008367,False,36,1
AM-K-22K22S2,328,experiment,83,←,left,←,0.5068372001405805,True,36,0
AM-K-22K22S2,329,experiment,102,→,right,→,0.426162299932912,True,36,1
AM-K-22K22S2,330,experiment,66,←,left,←,0.7247470000293106,True,36,1
AM-K-22K22S2,331,experiment,69,←,left,←,0.9283243999816477,True,36,1
AM-K-22K22S2,332,experiment,76,→,right,→,0.6976908999495208,True,36,1
AM-K-22K22S2,333,experiment,95,↓,up,↑,0.5814274000003934,False,36,1
AM-K-22K22S2,334,experiment,72,←,left,←,0.5501631000079215,True,36,1
AM-K-22K22S2,335,experiment,56,↑,up,↑,0.5012348999734968,True,36,1
AM-K-22K22S2,336,experiment,103,↑,up,↑,0.5508763999678195,True,36,1
AM-K-22K22S2,337,experiment,88,↓,down,↓,0.7070961000863463,True,36,1
AM-K-22K22S2,338,experiment,74,↓,down,↓,0.893639599904418,True,36,1
AM-K-22K22S2,339,experiment,61,↑,up,↑,0.6217479000333697,True,36,1
AM-K-22K22S2,340,experiment,79,↑,up,↑,0.5698683999944478,True,36,1
AM-K-22K22S2,341,experiment,89,↓,left,←,0.5171761999372393,False,36,1
AM-K-22K22S2,342,experiment,84,↓,down,↓,1.1159737999550998,True,36,1
AM-K-22K22S2,343,experiment,94,↓,down,↓,0.5278877001255751,True,36,1
AM-K-22K22S2,344,experiment,87,→,left,←,0.5815587998367846,False,36,1
AM-K-22K22S2,345,experiment,75,→,right,→,0.43383919983170927,True,36,1
AM-K-22K22S2,346,experiment,51,←,left,←,0.6822188999503851,True,36,0
AM-K-22K22S2,347,experiment,50,←,left,←,0.3926193998195231,True,36,1
AM-K-22K22S2,348,experiment,49,←,left,←,0.3256184998899698,True,36,0
AM-K-22K22S2,349,experiment,63,↑,up,↑,0.4747419999912381,True,36,0
AM-K-22K22S2,350,experiment,57,↓,down,↓,0.6365726999938488,True,36,0
AM-K-22K22S2,351,experiment,106,↑,left,←,0.7516175000928342,False,36,1
AM-K-22K22S2,352,experiment,68,→,left,←,0.36784330010414124,False,36,1
AM-K-22K22S2,353,experiment,101,↑,left,←,0.26909259986132383,False,36,0
AM-K-22K22S2,354,experiment,104,→,right,→,0.4340514000505209,True,36,0
AM-K-22K22S2,355,experiment,82,↓,up,↑,0.5572722998913378,False,36,0
AM-K-22K22S2,356,training,98,↑,left,←,0.2273323000408709,False,36,0
AM-K-22K22S2,357,training,105,→,right,→,0.3930498999543488,True,36,0
AM-K-22K22S2,358,experiment,53,↑,left,←,0.5176754000131041,False,36,1
AM-K-22K22S2,359,experiment,78,←,up,↑,0.6709904000163078,False,36,1
AM-K-22K22S2,360,experiment,67,→,right,→,0.44248159998096526,True,36,1
AM-K-22K22S2,361,experiment,101,→,left,←,0.4111391000915319,False,36,0
AM-K-22K22S2,362,experiment,88,↓,right,→,0.3339325999841094,False,36,0
AM-K-22K22S2,363,experiment,106,↑,up,↑,0.6175295999273658,True,36,0
AM-K-22K22S2,364,experiment,58,→,right,→,0.5651604000013322,True,36,1
AM-K-22K22S2,365,experiment,70,→,no_key,no_letter,-1.0,False,36,1
AM-K-22K22S2,366,experiment,59,↓,right,→,0.3006394000258297,False,36,1
AM-K-22K22S2,367,experiment,91,→,right,→,0.6252756000030786,True,36,0
AM-K-22K22S2,368,experiment,93,→,right,→,0.4171730999369174,True,36,1
AM-K-22K22S2,369,experiment,72,↑,up,↑,0.7518213998991996,True,36,0
AM-K-22K22S2,370,experiment,77,↓,left,←,0.7841711998917162,False,36,1
AM-K-22K22S2,371,experiment,104,←,no_key,no_letter,-1.0,False,36,1
AM-K-22K22S2,372,experiment,95,←,left,←,0.49461940000765026,True,36,1
AM-K-22K22S2,373,experiment,79,↑,left,←,0.688065400114283,False,36,1
AM-K-22K22S2,374,experiment,105,↑,left,←,0.5853750000242144,False,36,1
AM-K-22K22S2,375,experiment,74,→,no_key,no_letter,-1.0,False,36,1
AM-K-22K22S2,376,experiment,51,↓,down,↓,0.8010889999568462,True,36,1
AM-K-22K22S2,377,experiment,69,←,left,←,0.9535781999584287,True,36,1
AM-K-22K22S2,378,experiment,100,↑,no_key,no_letter,-1.0,False,36,1
AM-K-22K22S2,379,experiment,99,←,no_key,no_letter,-1.0,False,36,1
AM-K-22K22S2,380,experiment,87,↓,down,↓,0.781672100070864,True,36,1
AM-K-22K22S2,381,experiment,56,↓,down,↓,0.6195604999084026,True,36,1
AM-K-22K22S2,382,experiment,82,←,left,←,0.7907840998377651,True,36,1
AM-K-22K22S2,383,experiment,55,↑,no_key,no_letter,-1.0,False,36,1
AM-K-22K22S2,384,experiment,68,←,left,←,0.5506978000048548,True,36,1
AM-K-22K22S2,385,experiment,96,↓,no_key,no_letter,-1.0,False,36,1
AM-K-22K22S2,386,experiment,66,↓,down,↓,0.6273504998534918,True,36,1
AM-K-22K22S2,387,experiment,80,↑,left,←,0.6953480001538992,False,36,1
AM-K-22K22S2,388,experiment,76,←,left,←,0.3946372999344021,True,36,1
AM-K-22K22S2,389,experiment,102,↓,left,←,0.5031558000482619,False,36,0
AM-K-22K22S2,390,experiment,107,→,right,→,0.5672850001137704,True,36,1
AM-K-22K22S2,391,experiment,75,→,right,→,0.5110939999576658,True,36,1
AM-K-22K22S2,392,experiment,73,←,left,←,0.49825880001299083,True,36,1
AM-K-22K22S2,393,experiment,71,→,right,→,0.4176751999184489,True,36,1
AM-K-22K22S2,394,experiment,85,←,right,→,0.38589349994435906,False,36,0
AM-K-22K22S2,395,experiment,84,↑,up,↑,0.5406067001167685,True,36,0
AM-K-22K22S2,396,experiment,48,↓,down,↓,0.5907455000560731,True,36,1
AM-K-22K22S2,397,experiment,57,→,right,→,0.4339521999936551,True,36,1
AM-K-22K22S2,398,experiment,83,→,right,→,0.6941148999612778,True,36,0
AM-K-22K22S2,399,experiment,98,↑,up,↑,0.47405980015173554,True,36,1
AM-K-22K22S2,400,experiment,60,↑,up,↑,0.5541145999450237,True,36,1
AM-K-22K22S2,401,experiment,65,←,left,←,1.2939922998193651,True,36,1
AM-K-22K22S2,402,experiment,97,→,right,→,0.6976258000358939,True,36,1
AM-K-22K22S2,403,experiment,103,↓,left,←,0.6671923000831157,False,36,1
AM-K-22K22S2,404,experiment,52,←,left,←,0.7585919999983162,True,36,1
AM-K-22K22S2,405,experiment,94,→,left,←,0.408826099941507,False,36,1
AM-K-22K22S2,406,experiment,86,↑,left,←,1.3789537001866847,False,36,0
AM-K-22K22S2,407,experiment,49,↑,right,→,0.359479800099507,False,36,1
AM-K-22K22S2,408,experiment,81,↓,up,↑,0.6816398999653757,False,36,0
AM-K-22K22S2,409,experiment,54,←,left,←,0.3925876000430435,True,36,1
AM-K-22K22S2,410,experiment,92,↑,up,↑,0.5732223999220878,True,36,0
AM-K-22K22S2,411,experiment,61,←,left,←,0.4006527999881655,True,36,1
AM-K-22K22S2,412,experiment,50,↓,up,↑,0.44196399999782443,False,36,0
AM-K-22K22S2,413,experiment,64,→,left,←,0.4507602001540363,False,36,0
AM-K-22K22S2,414,experiment,89,→,right,→,0.45098319998942316,True,36,0
AM-K-22K22S2,415,experiment,62,↓,down,↓,0.8010980000253767,True,36,1
AM-K-22K22S2,416,experiment,63,←,left,←,0.4260933001060039,True,36,1
AM-K-22K22S2,417,experiment,90,↑,up,↑,0.764069200027734,True,36,1
AM-K-22K22S2,418,experiment,108,→,right,→,0.40953750000335276,True,36,1
AM-K-22K22S2,419,training,56,→,no_key,no_letter,-1.0,False,37,0
AM-K-22K22S2,420,training,79,↑,up,↑,0.6090531998779625,True,37,1
AM-K-22K22S2,421,experiment,53,→,right,→,0.6144828000105917,True,37,1
AM-K-22K22S2,422,experiment,107,↓,left,←,0.4087968999519944,False,37,1
AM-K-22K22S2,423,experiment,61,↓,down,↓,0.6686435001902282,True,37,0
AM-K-22K22S2,424,experiment,108,↓,down,↓,0.6615961999632418,True,37,1
AM-K-22K22S2,425,experiment,83,←,left,←,0.38401679997332394,True,37,1
AM-K-22K22S2,426,experiment,74,→,right,→,0.5424628001637757,True,37,0
AM-K-22K22S2,427,experiment,104,←,left,←,0.654334400082007,True,37,1
AM-K-22K22S2,428,experiment,58,←,left,←,0.5523039998952299,True,37,1
AM-K-22K22S2,429,experiment,89,↑,up,↑,0.5083209001459181,True,37,1
AM-K-22K22S2,430,experiment,103,↑,up,↑,0.6614604000933468,True,37,1
AM-K-22K22S2,431,experiment,90,↑,up,↑,0.5167054000776261,True,37,1
AM-K-22K22S2,432,experiment,92,↓,down,↓,0.5850836001336575,True,37,1
AM-K-22K22S2,433,experiment,85,↑,up,↑,0.41787340003065765,True,37,1
AM-K-22K22S2,434,experiment,50,←,left,←,0.7551750000566244,True,37,1
AM-K-22K22S2,435,experiment,51,←,left,←,0.6677969000302255,True,37,1
AM-K-22K22S2,436,experiment,54,↑,left,←,1.030832099961117,False,37,1
AM-K-22K22S2,437,experiment,81,↑,up,↑,0.522136899875477,True,37,1
AM-K-22K22S2,438,experiment,59,→,right,→,0.44288289989344776,True,37,1
AM-K-22K22S2,439,experiment,86,→,left,←,0.8665457000024617,False,37,0
AM-K-22K22S2,440,experiment,79,↑,up,↑,0.5089058999437839,True,37,1
AM-K-22K22S2,441,experiment,64,→,right,→,0.6431539000477642,True,37,1
AM-K-22K22S2,442,experiment,73,↑,up,↑,0.6247618000488728,True,37,1
AM-K-22K22S2,443,experiment,88,↑,up,↑,0.49834090005606413,True,37,1
AM-K-22K22S2,444,experiment,96,→,right,→,0.8059525000862777,True,37,1
AM-K-22K22S2,445,experiment,60,↑,up,↑,0.5771864000707865,True,37,1
AM-K-22K22S2,446,experiment,62,↓,down,↓,0.6613747999072075,True,37,1
AM-K-22K22S2,447,experiment,76,↑,up,↑,0.6894861999899149,True,37,1
AM-K-22K22S2,448,experiment,87,→,right,→,0.5524464000482112,True,37,1
AM-K-22K22S2,449,experiment,68,↑,up,↑,1.5554643000941724,True,37,1
AM-K-22K22S2,450,experiment,70,↓,down,↓,0.8615717999637127,True,37,1
AM-K-22K22S2,451,experiment,77,↓,down,↓,1.0167950000613928,True,37,1
AM-K-22K22S2,452,experiment,55,↓,down,↓,1.1255554999224842,True,37,1
AM-K-22K22S2,453,experiment,65,↑,no_key,no_letter,-1.0,False,37,1
AM-K-22K22S2,454,experiment,101,→,left,←,1.3613158999942243,False,37,1
AM-K-22K22S2,455,experiment,57,↑,up,↑,0.7116277001332492,True,37,1
AM-K-22K22S2,456,experiment,63,↑,up,↑,0.5101540999021381,True,37,1
AM-K-22K22S2,457,experiment,67,→,up,↑,0.7147246999666095,False,37,1
AM-K-22K22S2,458,experiment,98,↓,left,←,0.501009700121358,False,37,1
AM-K-22K22S2,459,experiment,52,←,left,←,0.5997673999518156,True,37,1
AM-K-22K22S2,460,experiment,106,→,right,→,0.4179088999517262,True,37,1
AM-K-22K22S2,461,experiment,100,→,right,→,0.5373484999872744,True,37,0
AM-K-22K22S2,462,experiment,97,↑,up,↑,0.6111158998683095,True,37,1
AM-K-22K22S2,463,experiment,56,↓,left,←,1.103506200015545,False,37,1
AM-K-22K22S2,464,experiment,49,→,right,→,0.6589262001216412,True,37,1
AM-K-22K22S2,465,experiment,80,↓,left,←,1.3654821999371052,False,37,1
AM-K-22K22S2,466,experiment,94,↑,up,↑,0.5991525000426918,True,37,1
AM-K-22K22S2,467,experiment,75,→,left,←,0.8217421998269856,False,37,1
AM-K-22K22S2,468,experiment,69,→,up,↑,1.0215320000424981,False,37,1
AM-K-22K22S2,469,experiment,102,↓,up,↑,0.4900990999303758,False,37,1
AM-K-22K22S2,470,experiment,82,↑,left,←,1.5227494998835027,False,37,1
AM-K-22K22S2,471,experiment,84,↑,up,↑,0.5776819998864084,True,37,1
AM-K-22K22S2,472,experiment,99,→,right,→,0.8487064000219107,True,37,1
AM-K-22K22S2,473,experiment,71,→,left,←,1.1270274000708014,False,37,1
AM-K-22K22S2,474,experiment,93,↓,no_key,no_letter,-1.0,False,37,1
AM-K-22K22S2,475,experiment,95,↑,left,←,0.9714903999119997,False,37,1
AM-K-22K22S2,476,experiment,66,→,left,←,0.7981527999509126,False,37,1
AM-K-22K22S2,477,experiment,91,←,right,→,0.5913204001262784,False,37,1
AM-K-22K22S2,478,experiment,48,→,left,←,0.39979610010050237,False,37,1
AM-K-22K22S2,479,experiment,78,→,left,←,0.4423044000286609,False,37,0
AM-K-22K22S2,480,experiment,105,←,left,←,0.4346203999593854,True,37,0
AM-K-22K22S2,481,experiment,72,↑,up,↑,0.43388960021547973,True,37,1
AM-K-22K22S2,482,training,75,↑,up,↑,0.39213890000246465,True,37,0
AM-K-22K22S2,483,training,100,↑,up,↑,0.47648780001327395,True,37,0
AM-K-22K22S2,484,experiment,108,→,right,→,0.4844674998894334,True,37,0
AM-K-22K22S2,485,experiment,83,↓,down,↓,0.725017299875617,True,37,1
AM-K-22K22S2,486,experiment,98,↓,down,↓,0.526918200077489,True,37,1
AM-K-22K22S2,487,experiment,104,↓,down,↓,0.5351175998803228,True,37,1
AM-K-22K22S2,488,experiment,106,←,left,←,0.5342451999895275,True,37,1
AM-K-22K22S2,489,experiment,51,→,right,→,0.719620699994266,True,37,1
AM-K-22K22S2,490,experiment,89,↑,up,↑,0.5245848998893052,True,37,1
AM-K-22K22S2,491,experiment,61,←,left,←,0.9229280999861658,True,37,1
AM-K-22K22S2,492,experiment,91,↓,down,↓,0.5032977999653667,True,37,1
AM-K-22K22S2,493,experiment,97,↓,down,↓,0.5063409998547286,True,37,1
AM-K-22K22S2,494,experiment,60,↓,down,↓,0.5457689000759274,True,37,1
AM-K-22K22S2,495,experiment,49,↑,up,↑,0.5951652000658214,True,37,1
AM-K-22K22S2,496,experiment,100,←,left,←,0.6577306999824941,True,37,1
AM-K-22K22S2,497,experiment,82,↑,up,↑,0.5796610999386758,True,37,1
AM-K-22K22S2,498,experiment,64,→,right,→,0.582917399937287,True,37,1
AM-K-22K22S2,499,experiment,87,←,left,←,0.5942446000408381,True,37,1
AM-K-22K22S2,500,experiment,68,→,right,→,1.355544599937275,True,37,1
AM-K-22K22S2,501,experiment,86,↑,up,↑,0.5280602001585066,True,37,1
AM-K-22K22S2,502,experiment,59,←,left,←,0.630866999970749,True,37,1
AM-K-22K22S2,503,experiment,75,↓,down,↓,0.7403400999028236,True,37,1
AM-K-22K22S2,504,experiment,77,↓,down,↓,0.8527326001785696,True,37,1
AM-K-22K22S2,505,experiment,80,←,left,←,0.48726910003460944,True,37,1
AM-K-22K22S2,506,experiment,69,←,left,←,0.5967759999912232,True,37,1
AM-K-22K22S2,507,experiment,48,↑,up,↑,0.6525499001145363,True,37,1
AM-K-22K22S2,508,experiment,84,↓,down,↓,0.7017339000012726,True,37,1
AM-K-22K22S2,509,experiment,85,↑,up,↑,0.7653590000700206,True,37,1
AM-K-22K22S2,510,experiment,66,↑,left,←,1.6801444001030177,False,37,1
AM-K-22K22S2,511,experiment,81,←,left,←,0.8576146000996232,True,37,1
AM-K-22K22S2,512,experiment,107,↓,down,↓,0.9472715998999774,True,37,1
AM-K-22K22S2,513,experiment,57,←,left,←,1.0741065999027342,True,37,1
AM-K-22K22S2,514,experiment,63,→,right,→,0.8177102999761701,True,37,1
AM-K-22K22S2,515,experiment,52,↑,left,←,1.6953378999605775,False,37,1
AM-K-22K22S2,516,experiment,54,↑,left,←,1.4012477998621762,False,37,1
AM-K-22K22S2,517,experiment,58,↑,up,↑,0.5254747001454234,True,37,1
AM-K-22K22S2,518,experiment,79,→,right,→,0.6859142000321299,True,37,1
AM-K-22K22S2,519,experiment,105,→,left,←,1.8153297998942435,False,37,1
AM-K-22K22S2,520,experiment,62,→,left,←,1.921515200054273,False,37,1
AM-K-22K22S2,521,experiment,103,→,right,→,0.4978765998966992,True,37,1
AM-K-22K22S2,522,experiment,74,→,no_key,no_letter,-1.0,False,37,1
AM-K-22K22S2,523,experiment,90,→,up,↑,0.010290800128132105,False,37,1
AM-K-22K22S2,524,experiment,72,↓,no_key,no_letter,-1.0,False,37,0
AM-K-22K22S2,525,experiment,93,←,right,→,1.2045972000341862,False,37,1
AM-K-22K22S2,526,experiment,56,→,left,←,0.8811874000821263,False,37,1
AM-K-22K22S2,527,experiment,71,←,left,←,0.5659137999173254,True,37,1
AM-K-22K22S2,528,experiment,76,↓,down,↓,0.6295765000395477,True,37,1
AM-K-22K22S2,529,experiment,55,↑,left,←,1.0175958999898285,False,37,1
AM-K-22K22S2,530,experiment,96,←,left,←,0.5926600999664515,True,37,1
AM-K-22K22S2,531,experiment,78,↑,left,←,1.206755799939856,False,37,1
AM-K-22K22S2,532,experiment,65,→,right,→,0.5285414999816567,True,37,1
AM-K-22K22S2,533,experiment,88,↑,up,↑,0.43411390017718077,True,37,1
AM-K-22K22S2,534,experiment,94,↓,down,↓,0.5886562999803573,True,37,0
AM-K-22K22S2,535,experiment,53,↓,down,↓,0.6110491000581533,True,37,1
AM-K-22K22S2,536,experiment,102,↑,up,↑,0.6243837000802159,True,37,1
AM-K-22K22S2,537,experiment,101,←,no_key,no_letter,-1.0,False,37,1
AM-K-22K22S2,538,experiment,50,↑,up,↑,0.4427396000828594,True,37,1
AM-K-22K22S2,539,experiment,95,→,right,→,0.5070061001460999,True,37,0
AM-K-22K22S2,540,experiment,70,↑,up,↑,0.5591078998986632,True,37,1
AM-K-22K22S2,541,experiment,67,←,left,←,0.39297739998437464,True,37,1
AM-K-22K22S2,542,experiment,99,↑,up,↑,1.9767281000968069,True,37,1
AM-K-22K22S2,543,experiment,92,↑,down,↓,0.5867944001220167,False,37,1
AM-K-22K22S2,544,experiment,73,↓,left,←,0.3168222999665886,False,37,1
AM-K-22K22S2,545,training,88,←,left,←,0.4505811999551952,True,37,0
AM-K-22K22S2,546,training,100,↓,down,↓,0.8923576998058707,True,37,0
AM-K-22K22S2,547,experiment,65,↓,down,↓,0.7706425001379102,True,37,1
AM-K-22K22S2,548,experiment,97,←,left,←,0.45975479995831847,True,37,1
AM-K-22K22S2,549,experiment,87,←,left,←,0.4427211000584066,True,37,0
AM-K-22K22S2,550,experiment,68,→,right,→,0.5862956999335438,True,37,0
AM-K-22K22S2,551,experiment,81,→,right,→,0.7274199998937547,True,37,1
AM-K-22K22S2,552,experiment,74,←,left,←,0.48176139988936484,True,37,1
AM-K-22K22S2,553,experiment,90,↑,down,↓,0.5519668001215905,False,37,1
AM-K-22K22S2,554,experiment,84,←,left,←,0.4345311000943184,True,37,1
AM-K-22K22S2,555,experiment,105,↑,no_key,no_letter,-1.0,False,37,0
AM-K-22K22S2,556,experiment,55,←,left,←,0.41784820007160306,True,37,1
AM-K-22K22S2,557,experiment,103,↑,up,↑,0.4093041999731213,True,37,0
AM-K-22K22S2,558,experiment,107,→,right,→,1.118567100027576,True,37,0
AM-K-22K22S2,559,experiment,91,←,left,←,0.4526672000065446,True,37,1
AM-K-22K22S2,560,experiment,57,→,right,→,0.44277180009521544,True,37,0
AM-K-22K22S2,561,experiment,49,←,left,←,0.4906407999806106,True,37,0
AM-K-22K22S2,562,experiment,60,←,left,←,0.3920794001314789,True,37,1
AM-K-22K22S2,563,experiment,98,←,left,←,0.3924457998946309,True,37,0
AM-K-22K22S2,564,experiment,108,↓,down,↓,0.6294656000100076,True,37,0
AM-K-22K22S2,565,experiment,104,↓,down,↓,0.8008171999827027,True,37,1
AM-K-22K22S2,566,experiment,106,↓,down,↓,0.5813829998951405,True,37,1
AM-K-22K22S2,567,experiment,83,←,left,←,0.4192582000978291,True,37,1
AM-K-22K22S2,568,experiment,62,←,left,←,0.40959110017865896,True,37,0
AM-K-22K22S2,569,experiment,69,→,left,←,0.4427598000038415,False,37,0
AM-K-22K22S2,570,experiment,67,↓,down,↓,0.5233662000391632,True,37,1
AM-K-22K22S2,571,experiment,72,↓,down,↓,0.45883450005203485,True,37,1
AM-K-22K22S2,572,experiment,100,→,right,→,0.6578628998249769,True,37,0
AM-K-22K22S2,573,experiment,77,↑,up,↑,0.6538114999420941,True,37,1
AM-K-22K22S2,574,experiment,82,↓,down,↓,0.5834935999009758,True,37,1
AM-K-22K22S2,575,experiment,96,↑,up,↑,0.5044146000873297,True,37,1
AM-K-22K22S2,576,experiment,86,→,up,↑,0.8148674999829382,False,37,1
AM-K-22K22S2,577,experiment,94,→,no_key,no_letter,-1.0,False,37,1
AM-K-22K22S2,578,experiment,92,←,left,←,0.4811333999969065,True,37,1
AM-K-22K22S2,579,experiment,59,→,right,→,0.5288098000455648,True,37,1
AM-K-22K22S2,580,experiment,51,↓,down,↓,0.6823623001109809,True,37,1
AM-K-22K22S2,581,experiment,88,↑,up,↑,0.5611409000121057,True,37,1
AM-K-22K22S2,582,experiment,56,→,right,→,0.5998837999068201,True,37,1
AM-K-22K22S2,583,experiment,71,↓,down,↓,0.6720793999265879,True,37,1
AM-K-22K22S2,584,experiment,63,↓,down,↓,0.6318516999017447,True,37,1
AM-K-22K22S2,585,experiment,79,→,right,→,0.45313140004873276,True,37,1
AM-K-22K22S2,586,experiment,70,→,right,→,0.5936668000649661,True,37,0
AM-K-22K22S2,587,experiment,52,↑,up,↑,0.6243672000709921,True,37,1
AM-K-22K22S2,588,experiment,53,↓,down,↓,0.5973073001950979,True,37,1
AM-K-22K22S2,589,experiment,78,↓,down,↓,0.6592238999437541,True,37,1
AM-K-22K22S2,590,experiment,101,↑,up,↑,0.4595961000304669,True,37,1
AM-K-22K22S2,591,experiment,54,↓,down,↓,0.5861329999752343,True,37,1
AM-K-22K22S2,592,experiment,64,←,left,←,0.4179523999337107,True,37,1
AM-K-22K22S2,593,experiment,58,↓,left,←,1.0800357998814434,False,37,0
AM-K-22K22S2,594,experiment,66,↑,up,↑,0.6383447998668998,True,37,1
AM-K-22K22S2,595,experiment,76,←,no_key,no_letter,-1.0,False,37,1
AM-K-22K22S2,596,experiment,80,↑,up,↑,0.4510896001011133,True,37,1
AM-K-22K22S2,597,experiment,61,↓,down,↓,0.7620969000272453,True,37,0
AM-K-22K22S2,598,experiment,75,←,left,←,0.4272965001873672,True,37,1
AM-K-22K22S2,599,experiment,102,→,right,→,1.334050599951297,True,37,0
AM-K-22K22S2,600,experiment,95,↓,down,↓,0.4970327999908477,True,37,1
AM-K-22K22S2,601,experiment,89,↑,up,↑,0.43396359984762967,True,37,1
AM-K-22K22S2,602,experiment,85,→,right,→,0.4089466999284923,True,37,0
AM-K-22K22S2,603,experiment,50,←,left,←,1.1029587001539767,True,37,0
AM-K-22K22S2,604,experiment,99,↑,up,↑,0.41069000004790723,True,37,1
AM-K-22K22S2,605,experiment,73,↑,up,↑,0.49619209999218583,True,37,0
AM-K-22K22S2,606,experiment,93,←,left,←,0.36714029987342656,True,37,1
AM-K-22K22S2,607,experiment,48,←,left,←,0.517556200036779,True,37,0
AM-K-22K22S2,608,training,80,↑,up,↑,0.44285380002111197,True,37,0
AM-K-22K22S2,609,training,74,↓,up,↑,0.5262208001222461,False,37,0
AM-K-22K22S2,610,experiment,51,↑,up,↑,0.4011895000003278,True,37,1
AM-K-22K22S2,611,experiment,93,←,left,←,0.30054239998571575,True,37,1
AM-K-22K22S2,612,experiment,60,↑,up,↑,0.4881595999468118,True,37,0
AM-K-22K22S2,613,experiment,97,↓,down,↓,0.7395375999622047,True,37,1
AM-K-22K22S2,614,experiment,103,↓,down,↓,0.7472641000058502,True,37,1
AM-K-22K22S2,615,experiment,99,↑,up,↑,0.4508722999598831,True,37,1
AM-K-22K22S2,616,experiment,102,←,left,←,0.7033297999296337,True,37,1
AM-K-22K22S2,617,experiment,67,↑,up,↑,0.4088858999311924,True,37,1
AM-K-22K22S2,618,experiment,70,→,left,←,0.4597920998930931,False,37,0
AM-K-22K22S2,619,experiment,64,→,right,→,0.644113700138405,True,37,0
AM-K-22K22S2,620,experiment,55,↓,down,↓,0.8560214000754058,True,37,1
AM-K-22K22S2,621,experiment,57,↑,up,↑,1.0265049999579787,True,37,1
AM-K-22K22S2,622,experiment,89,←,left,←,0.40893339994363487,True,37,1
AM-K-22K22S2,623,experiment,96,←,left,←,0.3760498999617994,True,37,0
AM-K-22K22S2,624,experiment,54,→,right,→,0.5370158997830003,True,37,1
AM-K-22K22S2,625,experiment,108,↓,down,↓,0.623650599969551,True,37,1
AM-K-22K22S2,626,experiment,62,↓,down,↓,0.6254354000557214,True,37,1
AM-K-22K22S2,627,experiment,61,→,right,→,0.8837998998351395,True,37,1
AM-K-22K22S2,628,experiment,52,←,left,←,0.5747583000920713,True,37,1
AM-K-22K22S2,629,experiment,76,←,left,←,0.5263761000242084,True,37,1
AM-K-22K22S2,630,experiment,83,→,right,→,0.6290841000154614,True,37,1
AM-K-22K22S2,631,experiment,49,←,left,←,1.0593044999986887,True,37,1
AM-K-22K22S2,632,experiment,65,↓,down,↓,0.8269678999204189,True,37,1
AM-K-22K22S2,633,experiment,56,←,left,←,1.2947245999239385,True,37,1
AM-K-22K22S2,634,experiment,66,↑,up,↑,0.5647186001297086,True,37,1
AM-K-22K22S2,635,experiment,90,→,right,→,0.6717125000432134,True,37,1
AM-K-22K22S2,636,experiment,100,←,left,←,0.45998200005851686,True,37,1
AM-K-22K22S2,637,experiment,101,→,left,←,0.5424094998743385,False,37,0
AM-K-22K22S2,638,experiment,84,↑,up,↑,0.6765509000979364,True,37,1
AM-K-22K22S2,639,experiment,105,→,right,→,0.4509566999040544,True,37,1
AM-K-22K22S2,640,experiment,107,↓,down,↓,0.6798062999732792,True,37,0
AM-K-22K22S2,641,experiment,78,↑,up,↑,0.5463753000367433,True,37,1
AM-K-22K22S2,642,experiment,104,→,right,→,0.7934193999972194,True,37,1
AM-K-22K22S2,643,experiment,69,→,left,←,0.722265100106597,False,37,1
AM-K-22K22S2,644,experiment,92,↓,down,↓,0.6143565999809653,True,37,1
AM-K-22K22S2,645,experiment,74,→,right,→,0.604766899952665,True,37,1
AM-K-22K22S2,646,experiment,82,↓,down,↓,0.48124300013296306,True,37,1
AM-K-22K22S2,647,experiment,50,↑,up,↑,0.5164918000809848,True,37,0
AM-K-22K22S2,648,experiment,79,→,right,→,0.7013777999673039,True,37,1
AM-K-22K22S2,649,experiment,73,←,right,→,0.4509278000332415,False,37,1
AM-K-22K22S2,650,experiment,48,↓,down,↓,0.910179500002414,True,37,0
AM-K-22K22S2,651,experiment,98,←,left,←,0.7765152999199927,True,37,1
AM-K-22K22S2,652,experiment,63,→,right,→,0.6842838998418301,True,37,1
AM-K-22K22S2,653,experiment,95,→,right,→,0.6009705998003483,True,37,1
AM-K-22K22S2,654,experiment,58,↑,right,→,0.8214624999091029,False,37,1
AM-K-22K22S2,655,experiment,77,←,left,←,0.49069290002807975,True,37,1
AM-K-22K22S2,656,experiment,68,←,left,←,0.45075309998355806,True,37,1
AM-K-22K22S2,657,experiment,59,←,left,←,0.5775074001867324,True,37,0
AM-K-22K22S2,658,experiment,91,↑,up,↑,0.6118484002072364,True,37,1
AM-K-22K22S2,659,experiment,53,↓,down,↓,0.4895548999775201,True,37,1
AM-K-22K22S2,660,experiment,80,↓,down,↓,1.4909073999151587,True,37,1
AM-K-22K22S2,661,experiment,106,↓,down,↓,0.6834396000485867,True,37,1
AM-K-22K22S2,662,experiment,94,↑,up,↑,0.4597088999580592,True,37,1
AM-K-22K22S2,663,experiment,88,↑,up,↑,0.5444370000623167,True,37,0
AM-K-22K22S2,664,experiment,71,←,no_key,no_letter,-1.0,False,37,1
AM-K-22K22S2,665,experiment,86,↑,up,↑,0.5429708999581635,True,37,1
AM-K-22K22S2,666,experiment,72,→,left,←,0.48130440013483167,False,37,1
AM-K-22K22S2,667,experiment,85,↑,up,↑,0.5450929999351501,True,37,1
AM-K-22K22S2,668,experiment,87,←,left,←,0.6539790998212993,True,37,1
AM-K-22K22S2,669,experiment,81,←,left,←,0.4092091000638902,True,37,1
AM-K-22K22S2,670,experiment,75,↑,up,↑,0.5503086000680923,True,37,0
AM-K-22K22S2,671,training,76,←,left,←,0.4260547000449151,True,37,0
AM-K-22K22S2,672,training,108,↑,up,↑,0.3927541999146342,True,37,0
AM-K-22K22S2,673,experiment,106,↓,down,↓,0.5457609000150114,True,37,1
AM-K-22K22S2,674,experiment,61,→,right,→,0.5432418000418693,True,37,1
AM-K-22K22S2,675,experiment,88,→,right,→,0.4345758000854403,True,37,1
AM-K-22K22S2,676,experiment,100,→,right,→,0.45123749994672835,True,37,0
AM-K-22K22S2,677,experiment,89,→,right,→,0.5439361000899225,True,37,0
AM-K-22K22S2,678,experiment,59,←,right,→,0.478176899952814,False,37,1
AM-K-22K22S2,679,experiment,67,←,left,←,0.4088691999204457,True,37,0
AM-K-22K22S2,680,experiment,94,←,left,←,1.2357665998861194,True,37,0
AM-K-22K22S2,681,experiment,75,↓,down,↓,0.5132024001795799,True,37,1
AM-K-22K22S2,682,experiment,74,→,right,→,0.40130110015161335,True,37,1
AM-K-22K22S2,683,experiment,58,←,left,←,0.5594047999475151,True,37,1
AM-K-22K22S2,684,experiment,92,↓,down,↓,0.5461700998712331,True,37,1
AM-K-22K22S2,685,experiment,62,←,right,→,0.5273261000402272,False,37,1
AM-K-22K22S2,686,experiment,56,↓,down,↓,0.49578780005685985,True,37,1
AM-K-22K22S2,687,experiment,66,←,left,←,1.1329771000891924,True,37,1
AM-K-22K22S2,688,experiment,60,←,left,←,0.4913306999951601,True,37,1
AM-K-22K22S2,689,experiment,83,↓,down,↓,1.3402159998659045,True,37,1
AM-K-22K22S2,690,experiment,49,↑,up,↑,0.4594672000966966,True,37,1
AM-K-22K22S2,691,experiment,82,↓,down,↓,0.7032226000446826,True,37,1
AM-K-22K22S2,692,experiment,102,↑,up,↑,0.4967904998920858,True,37,1
AM-K-22K22S2,693,experiment,54,↑,up,↑,0.3754813000559807,True,37,1
AM-K-22K22S2,694,experiment,90,←,left,←,0.4930426999926567,True,37,0
AM-K-22K22S2,695,experiment,108,←,left,←,0.4254982001148164,True,37,1
AM-K-22K22S2,696,experiment,52,←,left,←,0.3760887000244111,True,37,0
AM-K-22K22S2,697,experiment,68,←,left,←,0.40114199998788536,True,37,0
AM-K-22K22S2,698,experiment,73,↓,left,←,0.268156899837777,False,37,1
AM-K-22K22S2,699,experiment,50,↑,up,↑,0.6858453000895679,True,37,0
AM-K-22K22S2,700,experiment,55,↑,up,↑,0.42580780014395714,True,37,1
AM-K-22K22S2,701,experiment,107,→,right,→,0.6266793999820948,True,37,0
AM-K-22K22S2,702,experiment,51,↓,down,↓,0.6004264000803232,True,37,1
AM-K-22K22S2,703,experiment,78,←,left,←,0.5342870000749826,True,37,1
AM-K-22K22S2,704,experiment,79,↓,down,↓,0.5661196000874043,True,37,1
AM-K-22K22S2,705,experiment,105,←,left,←,0.40114809991791844,True,37,1
AM-K-22K22S2,706,experiment,98,↓,no_key,no_letter,-1.0,False,37,0
AM-K-22K22S2,707,experiment,99,↓,down,↓,0.5866144997999072,True,37,1
AM-K-22K22S2,708,experiment,104,↑,down,↓,0.9996744999662042,False,37,1
AM-K-22K22S2,709,experiment,80,↓,down,↓,0.5009928001090884,True,37,1
AM-K-22K22S2,710,experiment,64,↓,down,↓,0.6513759999070317,True,37,1
AM-K-22K22S2,711,experiment,65,↑,up,↑,0.6194619000889361,True,37,1
AM-K-22K22S2,712,experiment,77,→,right,→,0.6166807000990957,True,37,1
AM-K-22K22S2,713,experiment,71,↑,up,↑,0.5441205000970513,True,37,1
AM-K-22K22S2,714,experiment,84,←,left,←,0.5258146999403834,True,37,1
AM-K-22K22S2,715,experiment,86,↑,up,↑,0.5798462999518961,True,37,1
AM-K-22K22S2,716,experiment,96,↓,down,↓,0.5962108999956399,True,37,1
AM-K-22K22S2,717,experiment,93,↑,up,↑,0.49285099981352687,True,37,1
AM-K-22K22S2,718,experiment,95,←,left,←,0.45919579989276826,True,37,1
AM-K-22K22S2,719,experiment,97,↑,up,↑,0.5579818999394774,True,37,0
AM-K-22K22S2,720,experiment,91,←,left,←,0.5611462998203933,True,37,1
AM-K-22K22S2,721,experiment,81,→,right,→,0.6797872998286039,True,37,1
AM-K-22K22S2,722,experiment,48,←,left,←,0.6518999000545591,True,37,1
AM-K-22K22S2,723,experiment,57,→,right,→,0.6782496999949217,True,37,1
AM-K-22K22S2,724,experiment,70,←,left,←,0.5878469999879599,True,37,1
AM-K-22K22S2,725,experiment,53,↑,up,↑,0.8662499999627471,True,37,1
AM-K-22K22S2,726,experiment,72,↑,up,↑,0.6470786000136286,True,37,1
AM-K-22K22S2,727,experiment,87,→,right,→,0.527946799993515,True,37,1
AM-K-22K22S2,728,experiment,69,←,left,←,0.4428365998901427,True,37,1
AM-K-22K22S2,729,experiment,101,↓,down,↓,0.7597461999394,True,37,1
AM-K-22K22S2,730,experiment,63,↓,down,↓,0.588088900083676,True,37,1
AM-K-22K22S2,731,experiment,85,↓,down,↓,0.6078492000233382,True,37,1
AM-K-22K22S2,732,experiment,103,↑,up,↑,0.6528355001937598,True,37,1
AM-K-22K22S2,733,experiment,76,→,right,→,0.45925200008787215,True,37,1
AM-K-22K22S2,734,training,53,↑,up,↑,0.7354120998643339,True,36,0
AM-K-22K22S2,735,training,86,↑,up,↑,0.33387920004315674,True,36,1
AM-K-22K22S2,736,experiment,99,↓,down,↓,0.6141399000771344,True,36,0
AM-K-22K22S2,737,experiment,66,↑,up,↑,0.42637030011974275,True,36,1
AM-K-22K22S2,738,experiment,70,→,right,→,0.33491840003989637,True,36,1
AM-K-22K22S2,739,experiment,92,←,left,←,0.3338234000839293,True,36,0
AM-K-22K22S2,740,experiment,97,↑,up,↑,0.49924009991809726,True,36,0
AM-K-22K22S2,741,experiment,107,↓,down,↓,0.563249200116843,True,36,1
AM-K-22K22S2,742,experiment,105,←,left,←,0.42597940005362034,True,36,1
AM-K-22K22S2,743,experiment,60,←,down,↓,0.6354886000044644,False,36,0
AM-K-22K22S2,744,experiment,101,→,right,→,0.5198509998153895,True,36,1
AM-K-22K22S2,745,experiment,50,→,right,→,0.602760500041768,True,36,1
AM-K-22K22S2,746,experiment,102,←,left,←,0.40902050002478063,True,36,1
AM-K-22K22S2,747,experiment,106,↑,up,↑,0.4339743999298662,True,36,0
AM-K-22K22S2,748,experiment,75,↑,up,↑,0.5127748001832515,True,36,0
AM-K-22K22S2,749,experiment,72,↑,up,↑,0.36789479991421103,True,36,1
AM-K-22K22S2,750,experiment,77,←,up,↑,1.587372099980712,False,36,1
AM-K-22K22S2,751,experiment,94,↓,down,↓,0.7319905001204461,True,36,1
AM-K-22K22S2,752,experiment,108,←,right,→,0.48317130003124475,False,36,1
AM-K-22K22S2,753,experiment,89,↓,down,↓,0.5609412000048906,True,36,1
AM-K-22K22S2,754,experiment,63,↓,down,↓,0.5572465001605451,True,36,1
AM-K-22K22S2,755,experiment,83,↑,up,↑,0.5150523001793772,True,36,1
AM-K-22K22S2,756,experiment,68,←,left,←,0.5194956001359969,True,36,1
AM-K-22K22S2,757,experiment,98,→,right,→,0.43385499995201826,True,36,1
AM-K-22K22S2,758,experiment,74,↑,up,↑,0.6390241999179125,True,36,0
AM-K-22K22S2,759,experiment,64,↓,down,↓,0.5357838999480009,True,36,1
AM-K-22K22S2,760,experiment,54,↓,down,↓,0.4961800999008119,True,36,1
AM-K-22K22S2,761,experiment,55,↑,up,↑,0.6337470000144094,True,36,1
AM-K-22K22S2,762,experiment,69,→,right,→,0.5212223001290113,True,36,1
AM-K-22K22S2,763,experiment,91,←,left,←,0.7893572000321001,True,36,1
AM-K-22K22S2,764,experiment,62,←,left,←,0.26839490002021194,True,36,1
AM-K-22K22S2,765,experiment,79,↑,left,←,0.084235800197348,False,36,0
AM-K-22K22S2,766,experiment,86,←,left,←,0.4262379000429064,True,36,0
AM-K-22K22S2,767,experiment,100,←,left,←,0.3837609998881817,True,36,0
AM-K-22K22S2,768,experiment,48,↓,up,↑,0.5264576999470592,False,36,0
AM-K-22K22S2,769,experiment,82,↑,up,↑,0.4511575000360608,True,36,1
AM-K-22K22S2,770,experiment,85,←,left,←,0.4950033000204712,True,36,0
AM-K-22K22S2,771,experiment,67,→,left,←,0.4005544001702219,False,36,1
AM-K-22K22S2,772,experiment,96,←,up,↑,0.24437489989213645,False,36,0
AM-K-22K22S2,773,experiment,71,←,right,→,0.21930489991791546,False,36,0
AM-K-22K22S2,774,experiment,57,↓,left,←,0.33397319982759655,False,36,0
AM-K-22K22S2,775,experiment,103,←,up,↑,0.2862710999324918,False,36,0
AM-K-22K22S2,776,experiment,81,→,left,←,0.3838776999618858,False,36,0
AM-K-22K22S2,777,experiment,65,←,down,↓,0.12000499991700053,False,36,0
AM-K-22K22S2,778,experiment,59,←,left,←,0.24362130020745099,True,36,0
AM-K-22K22S2,779,experiment,53,←,left,←,0.4785928998608142,True,36,0
AM-K-22K22S2,780,experiment,58,→,left,←,0.6391225999686867,False,36,1
AM-K-22K22S2,781,experiment,49,↓,down,↓,0.5810656000394374,True,36,1
AM-K-22K22S2,782,experiment,87,↓,down,↓,0.5922198998741806,True,36,1
AM-K-22K22S2,783,experiment,104,←,left,←,0.5577450999990106,True,36,1
AM-K-22K22S2,784,experiment,52,↓,down,↓,0.9097016998566687,True,36,1
AM-K-22K22S2,785,experiment,90,↑,up,↑,0.5629667001776397,True,36,1
AM-K-22K22S2,786,experiment,78,←,left,←,0.5300098001025617,True,36,1
AM-K-22K22S2,787,experiment,80,↑,up,↑,0.4029469001106918,True,36,1
AM-K-22K22S2,788,experiment,61,↑,up,↑,0.5805197001900524,True,36,0
AM-K-22K22S2,789,experiment,93,↓,down,↓,0.45115290000103414,True,36,1
AM-K-22K22S2,790,experiment,51,→,left,←,0.5225048998836428,False,36,0
AM-K-22K22S2,791,experiment,95,↓,down,↓,0.49369970010593534,True,36,1
AM-K-22K22S2,792,experiment,73,↓,down,↓,0.5052157000172883,True,36,1
AM-K-22K22S2,793,experiment,88,→,left,←,0.5592547000851482,False,36,1
AM-K-22K22S2,794,experiment,84,↓,down,↓,0.5806073001585901,True,36,1
AM-K-22K22S2,795,experiment,76,↓,down,↓,0.3334577998612076,True,36,1
AM-K-22K22S2,796,experiment,56,↓,down,↓,0.3844832999166101,True,36,0
AM-K-22K22S2,797,training,91,↑,up,↑,0.43439589999616146,True,36,0
AM-K-22K22S2,798,training,60,↑,up,↑,1.1559854000806808,True,36,0
AM-K-22K22S2,799,experiment,93,↓,down,↓,0.6061074999161065,True,36,1
AM-K-22K22S2,800,experiment,52,←,left,←,0.6522458998952061,True,36,1
AM-K-22K22S2,801,experiment,103,↑,up,↑,0.4717337000183761,True,36,1
AM-K-22K22S2,802,experiment,56,←,left,←,0.4974529000464827,True,36,0
AM-K-22K22S2,803,experiment,77,↓,down,↓,0.4995202999562025,True,36,1
AM-K-22K22S2,804,experiment,48,↑,up,↑,1.1911127001512796,True,36,1
AM-K-22K22S2,805,experiment,65,←,left,←,0.4097990000154823,True,36,1
AM-K-22K22S2,806,experiment,76,←,left,←,0.5828466000966728,True,36,0
AM-K-22K22S2,807,experiment,64,→,left,←,0.4346024999395013,False,36,1
AM-K-22K22S2,808,experiment,90,↑,up,↑,0.4981641999911517,True,36,0
AM-K-22K22S2,809,experiment,57,↓,down,↓,0.5549249998293817,True,36,1
AM-K-22K22S2,810,experiment,102,↓,down,↓,0.7701163000892848,True,36,1
AM-K-22K22S2,811,experiment,71,↓,no_key,no_letter,-1.0,False,36,1
AM-K-22K22S2,812,experiment,107,→,right,→,0.5530652001034468,True,36,1
AM-K-22K22S2,813,experiment,60,↓,down,↓,0.5102192000485957,True,36,1
AM-K-22K22S2,814,experiment,92,←,left,←,0.5872078998945653,True,36,1
AM-K-22K22S2,815,experiment,84,↑,up,↑,0.4344675000756979,True,36,1
AM-K-22K22S2,816,experiment,63,→,right,→,0.5042922000866383,True,36,1
AM-K-22K22S2,817,experiment,97,→,right,→,0.46798150008544326,True,36,1
AM-K-22K22S2,818,experiment,85,↓,down,↓,0.5080087999813259,True,36,0
AM-K-22K22S2,819,experiment,69,→,right,→,0.6724081998690963,True,36,1
AM-K-22K22S2,820,experiment,72,↓,no_key,no_letter,-1.0,False,36,1
AM-K-22K22S2,821,experiment,70,←,left,←,0.5667625998612493,True,36,1
AM-K-22K22S2,822,experiment,62,↑,down,↓,0.5951759000308812,False,36,1
AM-K-22K22S2,823,experiment,91,↑,up,↑,0.501238500000909,True,36,1
AM-K-22K22S2,824,experiment,66,↓,down,↓,0.5628412000369281,True,36,1
AM-K-22K22S2,825,experiment,55,←,left,←,0.4423105001915246,True,36,1
AM-K-22K22S2,826,experiment,106,↑,up,↑,0.40061500016599894,True,36,0
AM-K-22K22S2,827,experiment,53,←,left,←,0.4346305998042226,True,36,0
AM-K-22K22S2,828,experiment,50,↑,up,↑,0.5346630001440644,True,36,0
AM-K-22K22S2,829,experiment,101,→,right,→,0.48000669991597533,True,36,1
AM-K-22K22S2,830,experiment,79,↓,down,↓,0.5215090001001954,True,36,1
AM-K-22K22S2,831,experiment,99,↓,down,↓,0.5311409998685122,True,36,1
AM-K-22K22S2,832,experiment,100,↓,down,↓,0.500272500095889,True,36,1
AM-K-22K22S2,833,experiment,98,↓,down,↓,0.3338860999792814,True,36,1
AM-K-22K22S2,834,experiment,59,↓,down,↓,0.5416566000785679,True,36,0
AM-K-22K22S2,835,experiment,83,↓,down,↓,0.6600532999727875,True,36,1
AM-K-22K22S2,836,experiment,86,↓,down,↓,0.6368642000015825,True,36,1
AM-K-22K22S2,837,experiment,80,←,left,←,0.47298089996911585,True,36,1
AM-K-22K22S2,838,experiment,54,←,left,←,0.531102699926123,True,36,0
AM-K-22K22S2,839,experiment,67,↓,down,↓,0.8630325000267476,True,36,1
AM-K-22K22S2,840,experiment,68,↑,up,↑,0.6214062001090497,True,36,1
AM-K-22K22S2,841,experiment,58,↓,down,↓,0.49691190011799335,True,36,1
AM-K-22K22S2,842,experiment,73,↓,down,↓,0.442142799962312,True,36,1
AM-K-22K22S2,843,experiment,105,↓,no_key,no_letter,-1.0,False,36,0
AM-K-22K22S2,844,experiment,108,→,right,→,0.6598657998256385,True,36,1
AM-K-22K22S2,845,experiment,74,←,left,←,0.434368799906224,True,36,1
AM-K-22K22S2,846,experiment,75,↓,down,↓,0.549600999802351,True,36,1
AM-K-22K22S2,847,experiment,61,→,left,←,0.5150321999099106,False,36,1
AM-K-22K22S2,848,experiment,82,←,left,←,0.6988907000049949,True,36,1
AM-K-22K22S2,849,experiment,87,↓,left,←,0.4511005999520421,False,36,1
AM-K-22K22S2,850,experiment,96,↑,up,↑,0.5828746000770479,True,36,0
AM-K-22K22S2,851,experiment,49,↓,left,←,0.7990393000654876,False,36,1
AM-K-22K22S2,852,experiment,81,←,left,←,0.6517155999317765,True,36,1
AM-K-22K22S2,853,experiment,89,→,right,→,0.5238795001059771,True,36,1
AM-K-22K22S2,854,experiment,95,↑,up,↑,0.6626420998945832,True,36,1
AM-K-22K22S2,855,experiment,104,→,right,→,0.6089745999779552,True,36,1
AM-K-22K22S2,856,experiment,94,↑,left,←,0.6811768999323249,False,36,1
AM-K-22K22S2,857,experiment,78,←,left,←,0.4753845001105219,True,36,1
AM-K-22K22S2,858,experiment,51,→,right,→,0.5833370999898762,True,36,1
AM-K-22K22S2,859,experiment,88,←,left,←,0.5863482998684049,True,36,1
AM-K-22K22S2,860,training,62,→,up,↑,1.7026572998147458,False,36,0
AM-K-22K22S2,861,training,88,↓,down,↓,0.6520010000094771,True,36,1
AM-K-22K22S2,862,experiment,64,→,up,↑,0.4925938001833856,False,36,1
AM-K-22K22S2,863,experiment,107,↑,up,↑,0.5890778000466526,True,36,1
AM-K-22K22S2,864,experiment,85,↓,no_key,no_letter,-1.0,False,36,1
AM-K-22K22S2,865,experiment,94,←,left,←,0.5303321999963373,True,36,1
AM-K-22K22S2,866,experiment,84,↑,up,↑,0.5765505000017583,True,36,1
AM-K-22K22S2,867,experiment,88,←,left,←,0.36713490006513894,True,36,1
AM-K-22K22S2,868,experiment,56,↑,up,↑,0.5541286000516266,True,36,0
AM-K-22K22S2,869,experiment,75,→,right,→,0.626856500050053,True,36,1
AM-K-22K22S2,870,experiment,76,↓,down,↓,0.44267049990594387,True,36,1
AM-K-22K22S2,871,experiment,103,↑,up,↑,0.3924681998323649,True,36,1
AM-K-22K22S2,872,experiment,87,→,right,→,0.5421806001104414,True,36,0
AM-K-22K22S2,873,experiment,52,→,right,→,1.0150230000726879,True,36,1
AM-K-22K22S2,874,experiment,97,↑,up,↑,0.4936154999304563,True,36,1
AM-K-22K22S2,875,experiment,93,↑,up,↑,0.4515073001384735,True,36,1
AM-K-22K22S2,876,experiment,62,→,left,←,0.9392416998744011,False,36,1
AM-K-22K22S2,877,experiment,81,←,left,←,0.634372100001201,True,36,1
AM-K-22K22S2,878,experiment,86,↑,up,↑,0.5079027998726815,True,36,1
AM-K-22K22S2,879,experiment,50,↓,down,↓,1.3425666000694036,True,36,1
AM-K-22K22S2,880,experiment,90,→,right,→,0.40972979995422065,True,36,1
AM-K-22K22S2,881,experiment,101,↓,down,↓,1.4160694000311196,True,36,1
AM-K-22K22S2,882,experiment,77,↓,down,↓,0.4257185000460595,True,36,1
AM-K-22K22S2,883,experiment,102,↓,down,↓,0.39476090017706156,True,36,0
AM-K-22K22S2,884,experiment,54,→,left,←,0.47168150008656085,False,36,0
AM-K-22K22S2,885,experiment,99,↑,no_key,no_letter,-1.0,False,36,1
AM-K-22K22S2,886,experiment,100,↓,up,↑,1.7703094000462443,False,36,1
AM-K-22K22S2,887,experiment,91,↑,up,↑,0.7490352001041174,True,36,1
AM-K-22K22S2,888,experiment,73,→,right,→,0.5342596000991762,True,36,1
AM-K-22K22S2,889,experiment,79,←,left,←,0.5825211000628769,True,36,1
AM-K-22K22S2,890,experiment,80,→,right,→,0.5882250000722706,True,36,1
AM-K-22K22S2,891,experiment,59,↑,up,↑,0.6326092998497188,True,36,1
AM-K-22K22S2,892,experiment,49,→,left,←,0.8865238998550922,False,36,1
AM-K-22K22S2,893,experiment,74,→,left,←,0.41956060007214546,False,36,1
AM-K-22K22S2,894,experiment,83,↑,up,↑,0.5969066999386996,True,36,1
AM-K-22K22S2,895,experiment,96,↑,left,←,0.3255844998639077,False,36,1
AM-K-22K22S2,896,experiment,65,↓,down,↓,0.6095284000039101,True,36,0
AM-K-22K22S2,897,experiment,63,↑,up,↑,0.5159859000705183,True,36,1
AM-K-22K22S2,898,experiment,82,↓,left,←,0.6436495999805629,False,36,1
AM-K-22K22S2,899,experiment,72,↓,down,↓,0.8016539001837373,True,36,1
AM-K-22K22S2,900,experiment,57,↓,left,←,0.7663620000239462,False,36,1
AM-K-22K22S2,901,experiment,48,←,down,↓,1.7836251999251544,False,36,1
AM-K-22K22S2,902,experiment,55,←,down,↓,1.9255389000754803,False,36,1
AM-K-22K22S2,903,experiment,106,→,left,←,0.5566635997965932,False,36,1
AM-K-22K22S2,904,experiment,78,←,down,↓,0.788068599998951,False,36,1
AM-K-22K22S2,905,experiment,67,↑,no_key,no_letter,-1.0,False,36,1
AM-K-22K22S2,906,experiment,70,←,left,←,1.839185900054872,True,36,1
AM-K-22K22S2,907,experiment,95,↓,down,↓,0.5174140001181513,True,36,1
AM-K-22K22S2,908,experiment,53,→,left,←,0.47933529992587864,False,36,1
AM-K-22K22S2,909,experiment,104,←,left,←,0.3778150000143796,True,36,1
AM-K-22K22S2,910,experiment,92,↓,down,↓,0.5780996000394225,True,36,0
AM-K-22K22S2,911,experiment,58,↑,up,↑,0.6155557001475245,True,36,1
AM-K-22K22S2,912,experiment,68,→,right,→,0.6317522001918405,True,36,1
AM-K-22K22S2,913,experiment,60,←,left,←,0.3587474001105875,True,36,1
AM-K-22K22S2,914,experiment,89,↑,no_key,no_letter,-1.0,False,36,0
AM-K-22K22S2,915,experiment,66,↓,down,↓,0.16081749997101724,True,36,1
AM-K-22K22S2,916,experiment,61,↓,down,↓,0.6239374000579119,True,36,0
AM-K-22K22S2,917,experiment,105,↓,down,↓,0.66751529998146,True,36,1
AM-K-22K22S2,918,experiment,98,↓,down,↓,0.8160357000306249,True,36,1
AM-K-22K22S2,919,experiment,69,←,no_key,no_letter,-1.0,False,36,1
AM-K-22K22S2,920,experiment,108,→,right,→,0.4689784999936819,True,36,1
AM-K-22K22S2,921,experiment,71,↓,down,↓,0.4513686001300812,True,36,0
AM-K-22K22S2,922,experiment,51,→,right,→,0.4944889999460429,True,36,0
AM-K-22K22S2,923,training,74,↓,down,↓,0.5398993000853807,True,36,0
AM-K-22K22S2,924,training,82,→,down,↓,0.6185520999133587,False,36,1
AM-K-22K22S2,925,experiment,57,↓,down,↓,0.7746500000357628,True,36,1
AM-K-22K22S2,926,experiment,91,←,left,←,0.3504927000030875,True,36,1
AM-K-22K22S2,927,experiment,62,↓,down,↓,0.6778370998799801,True,36,0
AM-K-22K22S2,928,experiment,72,→,right,→,0.5386206998955458,True,36,1
AM-K-22K22S2,929,experiment,58,←,left,←,0.4427166001405567,True,36,1
AM-K-22K22S2,930,experiment,66,→,right,→,0.4175448000896722,True,36,1
AM-K-22K22S2,931,experiment,70,→,right,→,0.584472400136292,True,36,0
AM-K-22K22S2,932,experiment,56,↑,up,↑,0.5343892001546919,True,36,1
AM-K-22K22S2,933,experiment,79,←,left,←,0.5662229999434203,True,36,1
AM-K-22K22S2,934,experiment,94,→,right,→,0.5921022000256926,True,36,1
AM-K-22K22S2,935,experiment,65,↑,up,↑,0.5465444999281317,True,36,1
AM-K-22K22S2,936,experiment,82,↑,up,↑,0.3922164000105113,True,36,1
AM-K-22K22S2,937,experiment,54,←,left,←,0.478532699868083,True,36,0
AM-K-22K22S2,938,experiment,60,←,left,←,0.47172500006854534,True,36,1
AM-K-22K22S2,939,experiment,67,↓,down,↓,0.8058404000476003,True,36,1
AM-K-22K22S2,940,experiment,103,←,left,←,0.4751414000056684,True,36,1
AM-K-22K22S2,941,experiment,76,→,right,→,0.5660450998693705,True,36,1
AM-K-22K22S2,942,experiment,52,→,right,→,0.7101179000455886,True,36,1
AM-K-22K22S2,943,experiment,85,↓,down,↓,0.6290568001568317,True,36,1
AM-K-22K22S2,944,experiment,51,←,left,←,0.6744564999826252,True,36,1
AM-K-22K22S2,945,experiment,64,↓,down,↓,0.6017857000697404,True,36,1
AM-K-22K22S2,946,experiment,101,↑,up,↑,0.7678405998740345,True,36,1
AM-K-22K22S2,947,experiment,71,↑,up,↑,0.7692183000035584,True,36,1
AM-K-22K22S2,948,experiment,61,↑,up,↑,0.5341231999918818,True,36,1
AM-K-22K22S2,949,experiment,63,↑,up,↑,0.7074933000840247,True,36,1
AM-K-22K22S2,950,experiment,48,↑,right,→,1.7585110999643803,False,36,1
AM-K-22K22S2,951,experiment,81,→,right,→,0.6852462999522686,True,36,1
AM-K-22K22S2,952,experiment,102,↓,left,←,1.1273954999633133,False,36,1
AM-K-22K22S2,953,experiment,50,↓,down,↓,0.5374535999726504,True,36,1
AM-K-22K22S2,954,experiment,97,←,left,←,0.6193586001172662,True,36,1
AM-K-22K22S2,955,experiment,99,→,no_key,no_letter,-1.0,False,36,1
AM-K-22K22S2,956,experiment,98,←,left,←,0.5451847000513226,True,36,1
AM-K-22K22S2,957,experiment,49,↑,up,↑,0.5146877998486161,True,36,1
AM-K-22K22S2,958,experiment,74,↓,left,←,0.5410650998819619,False,36,1
AM-K-22K22S2,959,experiment,53,↑,up,↑,0.7096744000446051,True,36,1
AM-K-22K22S2,960,experiment,68,↓,left,←,0.6662929998710752,False,36,1
AM-K-22K22S2,961,experiment,88,↑,up,↑,0.5538888000883162,True,36,1
AM-K-22K22S2,962,experiment,93,→,right,→,0.596388400066644,True,36,1
AM-K-22K22S2,963,experiment,80,←,left,←,0.8654750999994576,True,36,1
AM-K-22K22S2,964,experiment,69,↓,down,↓,0.5676174000836909,True,36,1
AM-K-22K22S2,965,experiment,59,↓,down,↓,0.42664350010454655,True,36,1
AM-K-22K22S2,966,experiment,78,←,down,↓,1.0255634000059217,False,36,1
AM-K-22K22S2,967,experiment,108,←,left,←,0.4088130001910031,True,36,1
AM-K-22K22S2,968,experiment,104,↑,left,←,0.15206240001134574,False,36,0
AM-K-22K22S2,969,experiment,89,←,down,↓,0.2861581000033766,False,36,0
AM-K-22K22S2,970,experiment,95,↑,up,↑,0.36790050007402897,True,36,0
AM-K-22K22S2,971,experiment,90,→,right,→,0.5010605999268591,True,36,1
AM-K-22K22S2,972,experiment,107,←,left,←,0.5973304000217468,True,36,1
AM-K-22K22S2,973,experiment,92,→,right,→,0.47058279998600483,True,36,1
AM-K-22K22S2,974,experiment,96,↑,down,↓,1.4590439999010414,False,36,0
AM-K-22K22S2,975,experiment,86,↑,left,←,0.9478125001769513,False,36,1
AM-K-22K22S2,976,experiment,73,↓,left,←,0.9894952001050115,False,36,1
AM-K-22K22S2,977,experiment,87,↓,down,↓,0.4960549999959767,True,36,1
AM-K-22K22S2,978,experiment,100,↑,up,↑,0.3672511999029666,True,36,1
AM-K-22K22S2,979,experiment,75,→,right,→,0.48236009990796447,True,36,0
AM-K-22K22S2,980,experiment,84,→,right,→,0.5544678000733256,True,36,1
AM-K-22K22S2,981,experiment,55,→,left,←,0.47390169999562204,False,36,1
AM-K-22K22S2,982,experiment,83,→,right,→,0.3921282000374049,True,36,0
AM-K-22K22S2,983,experiment,106,→,right,→,0.36728250002488494,True,36,0
AM-K-22K22S2,984,experiment,105,→,left,←,0.5008151000365615,False,36,0
AM-K-22K22S2,985,experiment,77,↑,up,↑,0.5105748998466879,True,36,1
AM-K-22K22S2,986,training,96,←,left,←,0.43427570001222193,True,36,0
AM-K-22K22S2,987,training,101,↓,up,↑,0.5049552000127733,False,36,0
AM-K-22K22S2,988,experiment,98,←,left,←,0.4347004001028836,True,36,1
AM-K-22K22S2,989,experiment,100,↓,down,↓,0.5524701999966055,True,36,1
AM-K-22K22S2,990,experiment,103,↑,up,↑,0.7433934002183378,True,36,1
AM-K-22K22S2,991,experiment,67,←,left,←,0.4443977999035269,True,36,1
AM-K-22K22S2,992,experiment,76,↑,up,↑,0.5592956999316812,True,36,0
AM-K-22K22S2,993,experiment,54,←,left,←,0.5266868998296559,True,36,1
AM-K-22K22S2,994,experiment,95,↓,down,↓,0.5457611000165343,True,36,1
AM-K-22K22S2,995,experiment,50,→,right,→,0.6109957001172006,True,36,1
AM-K-22K22S2,996,experiment,102,↑,up,↑,0.5199609999544919,True,36,1
AM-K-22K22S2,997,experiment,80,←,left,←,0.5362757998518646,True,36,1
AM-K-22K22S2,998,experiment,70,↓,down,↓,0.7152543999254704,True,36,1
AM-K-22K22S2,999,experiment,77,→,right,→,0.4255061000585556,True,36,1
AM-K-22K22S2,1000,experiment,87,←,left,←,0.4862650001887232,True,36,0
AM-K-22K22S2,1001,experiment,82,↑,no_key,no_letter,-1.0,False,36,1
AM-K-22K22S2,1002,experiment,83,←,left,←,0.5158795998431742,True,36,1
AM-K-22K22S2,1003,experiment,97,←,left,←,0.4341803998686373,True,36,1
AM-K-22K22S2,1004,experiment,71,↑,up,↑,0.5411455000285059,True,36,0
AM-K-22K22S2,1005,experiment,72,→,no_key,no_letter,-1.0,False,36,1
AM-K-22K22S2,1006,experiment,96,↓,left,←,0.8321250998415053,False,36,1
AM-K-22K22S2,1007,experiment,85,↑,up,↑,0.5703968999441713,True,36,1
AM-K-22K22S2,1008,experiment,66,↑,up,↑,0.8448048999998719,True,36,1
AM-K-22K22S2,1009,experiment,48,←,left,←,0.5229561000596732,True,36,1
AM-K-22K22S2,1010,experiment,74,↑,up,↑,0.8210984000470489,True,36,1
AM-K-22K22S2,1011,experiment,93,↑,up,↑,0.5645109999459237,True,36,1
AM-K-22K22S2,1012,experiment,88,↓,down,↓,0.7685498001519591,True,36,1
AM-K-22K22S2,1013,experiment,108,↓,down,↓,0.4702566000632942,True,36,1
AM-K-22K22S2,1014,experiment,104,←,left,←,0.36847270000725985,True,36,1
AM-K-22K22S2,1015,experiment,99,→,right,→,0.48731979983858764,True,36,0
AM-K-22K22S2,1016,experiment,58,↓,down,↓,0.5360377999022603,True,36,1
AM-K-22K22S2,1017,experiment,79,↑,up,↑,0.44189779995940626,True,36,1
AM-K-22K22S2,1018,experiment,106,→,right,→,0.451183799887076,True,36,0
AM-K-22K22S2,1019,experiment,69,←,left,←,0.6565144001506269,True,36,1
AM-K-22K22S2,1020,experiment,57,←,left,←,0.4907521998975426,True,36,1
AM-K-22K22S2,1021,experiment,73,→,no_key,no_letter,-1.0,False,36,1
AM-K-22K22S2,1022,experiment,64,→,left,←,0.4980788000393659,False,36,1
AM-K-22K22S2,1023,experiment,56,↓,left,←,0.8193897001910955,False,36,1
AM-K-22K22S2,1024,experiment,86,↓,down,↓,0.5336498999968171,True,36,1
AM-K-22K22S2,1025,experiment,55,↓,down,↓,0.8137610000558197,True,36,1
AM-K-22K22S2,1026,experiment,90,↑,up,↑,0.6387756997719407,True,36,1
AM-K-22K22S2,1027,experiment,60,↑,down,↓,0.656791300047189,False,36,1
AM-K-22K22S2,1028,experiment,107,←,left,←,0.47422610013745725,True,36,1
AM-K-22K22S2,1029,experiment,78,↓,left,←,0.8773288000375032,False,36,1
AM-K-22K22S2,1030,experiment,65,→,right,→,0.4923111000098288,True,36,1
AM-K-22K22S2,1031,experiment,61,↑,no_key,no_letter,-1.0,False,36,1
AM-K-22K22S2,1032,experiment,92,↓,down,↓,0.9422974002081901,True,36,1
AM-K-22K22S2,1033,experiment,94,→,right,→,0.5049427000340074,True,36,1
AM-K-22K22S2,1034,experiment,59,→,right,→,0.6085920000914484,True,36,1
AM-K-22K22S2,1035,experiment,53,↓,down,↓,0.654383199987933,True,36,1
AM-K-22K22S2,1036,experiment,49,←,left,←,0.731489900033921,True,36,1
AM-K-22K22S2,1037,experiment,84,↑,up,↑,0.9297184001188725,True,36,1
AM-K-22K22S2,1038,experiment,89,↑,up,↑,0.6064610001631081,True,36,1
AM-K-22K22S2,1039,experiment,105,↓,down,↓,0.5067438001278788,True,36,1
AM-K-22K22S2,1040,experiment,63,←,left,←,0.43445800011977553,True,36,1
AM-K-22K22S2,1041,experiment,51,↑,up,↑,0.49436859996058047,True,36,0
AM-K-22K22S2,1042,experiment,75,→,right,→,0.4182619999628514,True,36,1
AM-K-22K22S2,1043,experiment,91,↓,down,↓,0.47379660001024604,True,36,0
AM-K-22K22S2,1044,experiment,81,←,left,←,0.40877219988033175,True,36,1
AM-K-22K22S2,1045,experiment,101,↑,up,↑,0.5290731999557465,True,36,0
AM-K-22K22S2,1046,experiment,62,←,left,←,0.5105748001951724,True,36,1
AM-K-22K22S2,1047,experiment,52,↑,up,↑,0.42662829998880625,True,36,1
AM-K-22K22S2,1048,experiment,68,↓,down,↓,0.6962731999810785,True,36,0
AM-K-22K22S2,1049,training,99,→,right,→,0.4178105997852981,True,36,0
AM-K-22K22S2,1050,training,108,←,left,←,0.3753538001328707,True,36,1
AM-K-22K22S2,1051,experiment,89,↑,up,↑,0.4172458001412451,True,36,0
AM-K-22K22S2,1052,experiment,70,↓,left,←,0.4276525001041591,False,36,0
AM-K-22K22S2,1053,experiment,73,↑,up,↑,0.44262779993005097,True,36,1
AM-K-22K22S2,1054,experiment,104,←,left,←,0.5798831998836249,True,36,1
AM-K-22K22S2,1055,experiment,69,→,right,→,0.733221200061962,True,36,1
AM-K-22K22S2,1056,experiment,103,↑,up,↑,0.4004364002030343,True,36,1
AM-K-22K22S2,1057,experiment,50,→,left,←,0.4427708999719471,False,36,0
AM-K-22K22S2,1058,experiment,88,←,left,←,0.26838359981775284,True,36,1
AM-K-22K22S2,1059,experiment,85,↓,down,↓,0.6358247001189739,True,36,0
AM-K-22K22S2,1060,experiment,99,←,left,←,0.3421656000427902,True,36,1
AM-K-22K22S2,1061,experiment,74,→,right,→,0.4094014000147581,True,36,0
AM-K-22K22S2,1062,experiment,83,←,up,↑,0.37589469994418323,False,36,0
AM-K-22K22S2,1063,experiment,66,↓,down,↓,0.6001522999722511,True,36,1
AM-K-22K22S2,1064,experiment,57,←,left,←,0.35919370013289154,True,36,1
AM-K-22K22S2,1065,experiment,96,↑,up,↑,0.11117920000106096,True,36,0
AM-K-22K22S2,1066,experiment,94,↑,left,←,0.35908700013533235,False,36,0
AM-K-22K22S2,1067,experiment,54,↓,left,←,0.7216443000361323,False,36,0
AM-K-22K22S2,1068,experiment,101,↓,right,→,0.42559440014883876,False,36,1
AM-K-22K22S2,1069,experiment,68,↑,up,↑,1.0263777000363916,True,36,0
AM-K-22K22S2,1070,experiment,60,→,right,→,0.5490268999710679,True,36,1
AM-K-22K22S2,1071,experiment,77,←,left,←,0.37524419999681413,True,36,1
AM-K-22K22S2,1072,experiment,90,←,right,→,0.40913960011675954,False,36,0
AM-K-22K22S2,1073,experiment,48,↑,up,↑,0.5584281999617815,True,36,0
AM-K-22K22S2,1074,experiment,80,←,left,←,0.442825400037691,True,36,1
AM-K-22K22S2,1075,experiment,105,↓,down,↓,0.5998994999099523,True,36,1
AM-K-22K22S2,1076,experiment,52,←,left,←,0.47047629998996854,True,36,1
AM-K-22K22S2,1077,experiment,82,↓,down,↓,0.5198963999282569,True,36,1
AM-K-22K22S2,1078,experiment,98,→,right,→,0.4824443000834435,True,36,1
AM-K-22K22S2,1079,experiment,95,←,left,←,0.5589368001092225,True,36,1
AM-K-22K22S2,1080,experiment,67,↓,down,↓,0.6021522998344153,True,36,1
AM-K-22K22S2,1081,experiment,86,←,left,←,0.4005650000181049,True,36,1
AM-K-22K22S2,1082,experiment,71,→,right,→,0.8048618000466377,True,36,0
AM-K-22K22S2,1083,experiment,56,↑,up,↑,0.5695178001187742,True,36,1
AM-K-22K22S2,1084,experiment,58,↑,up,↑,0.6631052000448108,True,36,1
AM-K-22K22S2,1085,experiment,65,↑,up,↑,0.5270699001848698,True,36,1
AM-K-22K22S2,1086,experiment,59,→,right,→,0.5738621999043971,True,36,1
AM-K-22K22S2,1087,experiment,106,→,right,→,0.5633173000533134,True,36,1
AM-K-22K22S2,1088,experiment,107,←,left,←,0.6165346999187022,True,36,1
AM-K-22K22S2,1089,experiment,102,→,right,→,0.5014795998577029,True,36,1
AM-K-22K22S2,1090,experiment,72,→,right,→,0.7691765001509339,True,36,1
AM-K-22K22S2,1091,experiment,63,↓,down,↓,0.5812905998900533,True,36,1
AM-K-22K22S2,1092,experiment,49,←,left,←,0.5895822001621127,True,36,1
AM-K-22K22S2,1093,experiment,55,→,left,←,0.47520209988579154,False,36,1
AM-K-22K22S2,1094,experiment,100,↓,down,↓,0.6627132000867277,True,36,1
AM-K-22K22S2,1095,experiment,78,↓,down,↓,0.481713900109753,True,36,1
AM-K-22K22S2,1096,experiment,87,↓,down,↓,0.5453890000935644,True,36,1
AM-K-22K22S2,1097,experiment,51,→,right,→,0.6502491999417543,True,36,1
AM-K-22K22S2,1098,experiment,64,↓,left,←,0.7385826001409441,False,36,1
AM-K-22K22S2,1099,experiment,84,↓,down,↓,0.5365107001271099,True,36,1
AM-K-22K22S2,1100,experiment,62,↓,left,←,0.43447720003314316,False,36,1
AM-K-22K22S2,1101,experiment,91,↓,down,↓,0.35910720005631447,True,36,0
AM-K-22K22S2,1102,experiment,81,↑,up,↑,0.6760785998776555,True,36,0
AM-K-22K22S2,1103,experiment,75,↑,up,↑,0.42546900012530386,True,36,1
AM-K-22K22S2,1104,experiment,93,→,right,→,0.47936960007064044,True,36,0
AM-K-22K22S2,1105,experiment,108,→,right,→,1.407584099797532,True,36,1
AM-K-22K22S2,1106,experiment,61,←,left,←,0.41773479990661144,True,36,1
AM-K-22K22S2,1107,experiment,92,↑,left,←,0.3838567000348121,False,36,0
AM-K-22K22S2,1108,experiment,79,←,up,↑,0.2347994998563081,False,36,0
AM-K-22K22S2,1109,experiment,97,↓,left,←,0.2024779999628663,False,36,0
AM-K-22K22S2,1110,experiment,53,↓,down,↓,0.40108589990995824,True,36,0
AM-K-22K22S2,1111,experiment,76,↓,down,↓,0.47615260002203286,True,36,0
AM-K-22K22S2,1112,training,95,←,left,←,0.2437384999357164,True,36,0
AM-K-22K22S2,1113,training,54,↑,left,←,0.30863970005884767,False,36,0
AM-K-22K22S2,1114,experiment,66,→,left,←,0.40149830002337694,False,36,0
AM-K-22K22S2,1115,experiment,105,←,right,→,0.38380170008167624,False,36,0
AM-K-22K22S2,1116,experiment,94,→,left,←,0.33481799997389317,False,36,0
AM-K-22K22S2,1117,experiment,83,↓,down,↓,0.5800244999118149,True,36,0
AM-K-22K22S2,1118,experiment,108,→,right,→,0.4804243999533355,True,36,1
AM-K-22K22S2,1119,experiment,89,→,right,→,0.48717830004170537,True,36,1
AM-K-22K22S2,1120,experiment,65,←,left,←,0.6296093999408185,True,36,1
AM-K-22K22S2,1121,experiment,90,↑,up,↑,0.5659155999310315,True,36,1
AM-K-22K22S2,1122,experiment,92,↑,up,↑,0.7361904999706894,True,36,1
AM-K-22K22S2,1123,experiment,74,↑,up,↑,0.36742609995417297,True,36,1
AM-K-22K22S2,1124,experiment,51,↓,down,↓,0.8739737998694181,True,36,0
AM-K-22K22S2,1125,experiment,59,↑,up,↑,0.5548245999962091,True,36,1
AM-K-22K22S2,1126,experiment,103,→,right,→,0.40115520008839667,True,36,1
AM-K-22K22S2,1127,experiment,91,←,right,→,0.7786671000067145,False,36,0
AM-K-22K22S2,1128,experiment,67,→,right,→,0.6448846999555826,True,36,1
AM-K-22K22S2,1129,experiment,93,↑,up,↑,0.36737729981541634,True,36,1
AM-K-22K22S2,1130,experiment,106,↑,up,↑,0.41799740004353225,True,36,0
AM-K-22K22S2,1131,experiment,60,↓,down,↓,0.5957440999336541,True,36,0
AM-K-22K22S2,1132,experiment,100,↓,down,↓,0.5069083000998944,True,36,1
AM-K-22K22S2,1133,experiment,99,→,right,→,0.4506952001247555,True,36,1
AM-K-22K22S2,1134,experiment,62,↓,down,↓,0.4936240999959409,True,36,0
AM-K-22K22S2,1135,experiment,61,←,left,←,0.4512529999483377,True,36,1
AM-K-22K22S2,1136,experiment,76,↑,right,→,0.3254746999591589,False,36,0
AM-K-22K22S2,1137,experiment,70,←,left,←,0.6048229997977614,True,36,0
AM-K-22K22S2,1138,experiment,102,↑,up,↑,0.4180857001338154,True,36,1
AM-K-22K22S2,1139,experiment,87,↓,up,↑,0.667487199883908,False,36,0
AM-K-22K22S2,1140,experiment,73,↑,up,↑,0.3693109001033008,True,36,1
AM-K-22K22S2,1141,experiment,88,↓,down,↓,0.715773900039494,True,36,0
AM-K-22K22S2,1142,experiment,84,←,left,←,0.6102003999985754,True,36,1
AM-K-22K22S2,1143,experiment,75,↑,up,↑,0.6643982001114637,True,36,1
AM-K-22K22S2,1144,experiment,52,→,right,→,0.620167100103572,True,36,1
AM-K-22K22S2,1145,experiment,97,→,right,→,0.4431032999418676,True,36,1
AM-K-22K22S2,1146,experiment,64,→,right,→,0.6109098999295384,True,36,0
AM-K-22K22S2,1147,experiment,107,↓,down,↓,0.5346704002004117,True,36,1
AM-K-22K22S2,1148,experiment,71,↓,left,←,0.4507065999787301,False,36,1
AM-K-22K22S2,1149,experiment,77,↓,down,↓,0.40851740003563464,True,36,0
AM-K-22K22S2,1150,experiment,81,↑,up,↑,0.4029045000206679,True,36,0
AM-K-22K22S2,1151,experiment,98,→,right,→,0.4176052000839263,True,36,0
AM-K-22K22S2,1152,experiment,69,↑,up,↑,0.41755550005473197,True,36,0
AM-K-22K22S2,1153,experiment,85,↑,up,↑,0.3596695999149233,True,36,0
AM-K-22K22S2,1154,experiment,72,→,right,→,0.6108149997889996,True,36,0
AM-K-22K22S2,1155,experiment,50,↓,down,↓,0.6972640999592841,True,36,1
AM-K-22K22S2,1156,experiment,86,→,left,←,0.584329699864611,False,36,1
AM-K-22K22S2,1157,experiment,80,↑,down,↓,0.557936699828133,False,36,1
AM-K-22K22S2,1158,experiment,55,←,left,←,0.48500690003857017,True,36,1
AM-K-22K22S2,1159,experiment,82,↑,up,↑,0.478291500126943,True,36,1
AM-K-22K22S2,1160,experiment,53,↓,up,↑,0.6969948001205921,False,36,1
AM-K-22K22S2,1161,experiment,104,→,right,→,0.4513174998573959,True,36,1
AM-K-22K22S2,1162,experiment,56,→,up,↑,0.6287348999176174,False,36,0
AM-K-22K22S2,1163,experiment,58,→,right,→,0.42591310013085604,True,36,1
AM-K-22K22S2,1164,experiment,78,↓,down,↓,1.1725228000432253,True,36,1
AM-K-22K22S2,1165,experiment,57,↑,up,↑,0.4110963998828083,True,36,1
AM-K-22K22S2,1166,experiment,95,→,right,→,0.9133148000109941,True,36,1
AM-K-22K22S2,1167,experiment,54,↓,right,→,1.2264831999782473,False,36,1
AM-K-22K22S2,1168,experiment,96,↑,up,↑,0.50488690007478,True,36,1
AM-K-22K22S2,1169,experiment,48,←,left,←,0.4007119999732822,True,36,1
AM-K-22K22S2,1170,experiment,49,↑,up,↑,0.42790649994276464,True,36,0
AM-K-22K22S2,1171,experiment,63,↑,up,↑,0.5167817999608815,True,36,0
AM-K-22K22S2,1172,experiment,79,→,left,←,0.4700410000514239,False,36,1
AM-K-22K22S2,1173,experiment,101,↓,down,↓,0.6087796001229435,True,36,0
AM-K-22K22S2,1174,experiment,68,→,right,→,0.5054698998574167,True,36,1
AM-K-22K22S2,1175,training,103,↓,left,←,0.1603469999972731,False,36,0
AM-K-22K22S2,1176,training,76,←,left,←,0.5221371001098305,True,36,0
AM-K-22K22S2,1177,experiment,60,←,left,←,0.37562039983458817,True,36,1
AM-K-22K22S2,1178,experiment,49,←,left,←,0.31737340008839965,True,36,0
AM-K-22K22S2,1179,experiment,81,↓,left,←,0.20268319989554584,False,36,0
AM-K-22K22S2,1180,experiment,68,→,right,→,0.3592396997846663,True,36,0
AM-K-22K22S2,1181,experiment,53,←,left,←,0.3668062000069767,True,36,0
AM-K-22K22S2,1182,experiment,82,←,left,←,0.31734029995277524,True,36,0
AM-K-22K22S2,1183,experiment,97,←,left,←,0.47758119995705783,True,36,0
AM-K-22K22S2,1184,experiment,83,↓,left,←,0.06925459997728467,False,36,1
AM-K-22K22S2,1185,experiment,104,→,left,←,0.24428709992207587,False,36,0
AM-K-22K22S2,1186,experiment,90,→,down,↓,0.2025702998507768,False,36,0
AM-K-22K22S2,1187,experiment,61,↑,up,↑,0.40851460001431406,True,36,0
AM-K-22K22S2,1188,experiment,52,↑,up,↑,0.4510504000354558,True,36,0
AM-K-22K22S2,1189,experiment,77,←,left,←,0.48551889997906983,True,36,0
AM-K-22K22S2,1190,experiment,106,↑,left,←,0.1518433999735862,False,36,1
AM-K-22K22S2,1191,experiment,98,←,right,→,-0.0041161999106407166,False,36,0
AM-K-22K22S2,1192,experiment,94,←,left,←,0.1433328001294285,True,36,0
AM-K-22K22S2,1193,experiment,80,↓,left,←,0.13495310000143945,False,36,0
AM-K-22K22S2,1194,experiment,100,↑,up,↑,0.15280749998055398,True,36,0
AM-K-22K22S2,1195,experiment,96,↑,left,←,0.3002623999491334,False,36,0
AM-K-22K22S2,1196,experiment,70,↑,up,↑,0.47385980002582073,True,36,0
AM-K-22K22S2,1197,experiment,89,↑,up,↑,0.3257420000154525,True,36,0
AM-K-22K22S2,1198,experiment,74,←,left,←,0.451682599959895,True,36,0
AM-K-22K22S2,1199,experiment,78,↓,down,↓,0.4860642000567168,True,36,1
AM-K-22K22S2,1200,experiment,88,↑,up,↑,0.3421382000669837,True,36,1
AM-K-22K22S2,1201,experiment,65,↑,up,↑,0.409542900044471,True,36,0
AM-K-22K22S2,1202,experiment,67,→,left,←,0.4817260999698192,False,36,1
AM-K-22K22S2,1203,experiment,92,↑,up,↑,0.3172422000207007,True,36,1
AM-K-22K22S2,1204,experiment,75,↑,up,↑,0.5128245998639613,True,36,0
AM-K-22K22S2,1205,experiment,54,↑,up,↑,0.5304480001796037,True,36,1
AM-K-22K22S2,1206,experiment,107,↑,up,↑,0.26918449997901917,True,36,1
AM-K-22K22S2,1207,experiment,86,↓,down,↓,0.5121553000062704,True,36,0
AM-K-22K22S2,1208,experiment,56,←,left,←,0.40951690007932484,True,36,1
AM-K-22K22S2,1209,experiment,64,↑,up,↑,0.49794799997471273,True,36,0
AM-K-22K22S2,1210,experiment,51,↑,up,↑,0.7408773000352085,True,36,1
AM-K-22K22S2,1211,experiment,76,←,left,←,0.5175999000202864,True,36,1
AM-K-22K22S2,1212,experiment,93,←,left,←,0.5615931998472661,True,36,1
AM-K-22K22S2,1213,experiment,59,→,right,→,0.6791984001174569,True,36,1
AM-K-22K22S2,1214,experiment,71,→,no_key,no_letter,-1.0,False,36,1
AM-K-22K22S2,1215,experiment,50,→,left,←,0.4693849999457598,False,36,1
AM-K-22K22S2,1216,experiment,79,→,right,→,0.5669966000132263,True,36,0
AM-K-22K22S2,1217,experiment,69,→,right,→,0.4342692999634892,True,36,1
AM-K-22K22S2,1218,experiment,84,→,right,→,0.675198300043121,True,36,0
AM-K-22K22S2,1219,experiment,85,←,left,←,0.4836212999653071,True,36,1
AM-K-22K22S2,1220,experiment,62,↓,down,↓,0.6271118998993188,True,36,1
AM-K-22K22S2,1221,experiment,103,←,left,←,0.17864190018735826,True,36,1
AM-K-22K22S2,1222,experiment,108,←,left,←,0.32554310001432896,True,36,0
AM-K-22K22S2,1223,experiment,55,↓,left,←,0.26860120007768273,False,36,0
AM-K-22K22S2,1224,experiment,102,↓,down,↓,0.496799600077793,True,36,0
AM-K-22K22S2,1225,experiment,72,→,right,→,0.6126976001542062,True,36,1
AM-K-22K22S2,1226,experiment,95,←,left,←,0.39278450002893806,True,36,1
AM-K-22K22S2,1227,experiment,91,→,right,→,0.5575908999890089,True,36,1
AM-K-22K22S2,1228,experiment,58,→,right,→,0.4359833998605609,True,36,1
AM-K-22K22S2,1229,experiment,66,←,left,←,0.5953651999589056,True,36,0
AM-K-22K22S2,1230,experiment,105,↑,left,←,0.21047140005975962,False,36,1
AM-K-22K22S2,1231,experiment,48,←,left,←,0.4093129001557827,True,36,0
AM-K-22K22S2,1232,experiment,73,↑,up,↑,0.3588556000031531,True,36,1
AM-K-22K22S2,1233,experiment,57,↑,up,↑,0.3338313000276685,True,36,0
AM-K-22K22S2,1234,experiment,63,↓,down,↓,0.5580058998893946,True,36,0
AM-K-22K22S2,1235,experiment,99,←,left,←,0.566104399971664,True,36,1
AM-K-22K22S2,1236,experiment,87,←,left,←,0.29213730012997985,True,36,1
AM-K-22K22S2,1237,experiment,101,↓,down,↓,0.46855109999887645,True,36,0
AM-K-22K22S2,1238,training,102,←,left,←,0.4094509999267757,True,36,0
AM-K-22K22S2,1239,training,58,↓,left,←,0.30047270003706217,False,36,0
AM-K-22K22S2,1240,experiment,89,↑,down,↓,0.10257210000418127,False,36,0
AM-K-22K22S2,1241,experiment,81,↑,up,↑,0.32536099990829825,True,36,0
AM-K-22K22S2,1242,experiment,88,↑,left,←,0.10177320009097457,False,36,0
AM-K-22K22S2,1243,experiment,77,←,down,↓,0.09411750012077391,False,36,0
AM-K-22K22S2,1244,experiment,49,→,left,←,0.2851998000405729,False,36,0
AM-K-22K22S2,1245,experiment,60,↑,right,→,0.30946749984286726,False,36,0
AM-K-22K22S2,1246,experiment,102,↑,up,↑,0.31806900002993643,True,36,0
AM-K-22K22S2,1247,experiment,64,↓,down,↓,0.5949785001575947,True,36,0
AM-K-22K22S2,1248,experiment,70,←,left,←,1.339374499861151,True,36,1
AM-K-22K22S2,1249,experiment,95,↓,down,↓,1.1094426999334246,True,36,1
AM-K-22K22S2,1250,experiment,61,←,left,←,0.48492929991334677,True,36,1
AM-K-22K22S2,1251,experiment,59,←,left,←,0.4856932000257075,True,36,1
AM-K-22K22S2,1252,experiment,52,←,left,←,0.33390179998241365,True,36,1
AM-K-22K22S2,1253,experiment,99,↑,up,↑,0.12034699996002018,True,36,0
AM-K-22K22S2,1254,experiment,108,→,right,→,0.27736960002221167,True,36,0
AM-K-22K22S2,1255,experiment,48,↑,up,↑,0.49336889991536736,True,36,0
AM-K-22K22S2,1256,experiment,97,↓,down,↓,0.544933200115338,True,36,1
AM-K-22K22S2,1257,experiment,87,→,right,→,0.40946960006840527,True,36,1
AM-K-22K22S2,1258,experiment,66,→,right,→,0.6548196999356151,True,36,0
AM-K-22K22S2,1259,experiment,90,↑,up,↑,0.4345311000943184,True,36,1
AM-K-22K22S2,1260,experiment,50,↓,down,↓,0.6114368999842554,True,36,1
AM-K-22K22S2,1261,experiment,63,↑,up,↑,0.30871449992991984,True,36,1
AM-K-22K22S2,1262,experiment,53,→,up,↑,0.3338864000979811,False,36,0
AM-K-22K22S2,1263,experiment,91,↑,left,←,-0.003955199848860502,False,36,0
AM-K-22K22S2,1264,experiment,80,→,up,↑,0.2352140999864787,False,36,0
AM-K-22K22S2,1265,experiment,86,→,right,→,0.29222190007567406,True,36,0
AM-K-22K22S2,1266,experiment,104,→,left,←,0.22777750017121434,False,36,0
AM-K-22K22S2,1267,experiment,68,→,right,→,0.30026619997806847,True,36,0
AM-K-22K22S2,1268,experiment,67,↓,right,→,0.3172621000558138,False,36,0
AM-K-22K22S2,1269,experiment,55,↓,up,↑,0.35056690010242164,False,36,0
AM-K-22K22S2,1270,experiment,105,→,up,↑,0.26003350014798343,False,36,0
AM-K-22K22S2,1271,experiment,94,→,right,→,0.3846102000679821,True,36,0
AM-K-22K22S2,1272,experiment,107,→,right,→,0.3347249999642372,True,36,0
AM-K-22K22S2,1273,experiment,101,↑,up,↑,0.05977430008351803,True,36,0
AM-K-22K22S2,1274,experiment,79,→,up,↑,0.35048949997872114,False,36,0
AM-K-22K22S2,1275,experiment,73,↓,right,→,0.3006522001232952,False,36,0
AM-K-22K22S2,1276,experiment,84,↓,down,↓,0.3843382000923157,True,36,0
AM-K-22K22S2,1277,experiment,78,→,right,→,0.5743420000653714,True,36,0
AM-K-22K22S2,1278,experiment,76,→,right,→,0.5095601000357419,True,36,1
AM-K-22K22S2,1279,experiment,75,←,right,→,0.4005070000421256,False,36,1
AM-K-22K22S2,1280,experiment,51,↑,up,↑,0.45111209992319345,True,36,0
AM-K-22K22S2,1281,experiment,82,←,down,↓,0.2275002000387758,False,36,0
AM-K-22K22S2,1282,experiment,58,→,right,→,0.3840856000315398,True,36,0
AM-K-22K22S2,1283,experiment,54,→,right,→,0.47898769984021783,True,36,0
AM-K-22K22S2,1284,experiment,71,↓,down,↓,0.6041470000054687,True,36,1
AM-K-22K22S2,1285,experiment,85,←,left,←,0.41712090000510216,True,36,1
AM-K-22K22S2,1286,experiment,96,↑,up,↑,0.35078429989516735,True,36,0
AM-K-22K22S2,1287,experiment,106,↓,left,←,0.4338650000281632,False,36,0
AM-K-22K22S2,1288,experiment,83,←,left,←,0.40886990004219115,True,36,0
AM-K-22K22S2,1289,experiment,56,→,right,→,0.5063958999235183,True,36,0
AM-K-22K22S2,1290,experiment,74,←,left,←,0.3927951999939978,True,36,1
AM-K-22K22S2,1291,experiment,69,↓,down,↓,0.5580219000112265,True,36,1
AM-K-22K22S2,1292,experiment,72,←,left,←,0.35991829982958734,True,36,1
AM-K-22K22S2,1293,experiment,92,↑,left,←,0.48162740003317595,False,36,0
AM-K-22K22S2,1294,experiment,93,←,left,←,0.3003390000667423,True,36,1
AM-K-22K22S2,1295,experiment,100,↑,up,↑,0.8490617999341339,True,36,0
AM-K-22K22S2,1296,experiment,65,↓,down,↓,0.5854146999772638,True,36,1
AM-K-22K22S2,1297,experiment,62,→,right,→,0.5807769999373704,True,36,1
AM-K-22K22S2,1298,experiment,98,→,right,→,0.6362435000482947,True,36,1
AM-K-22K22S2,1299,experiment,57,↑,up,↑,0.45054739993065596,True,36,1
AM-K-22K22S2,1300,experiment,103,←,left,←,0.4339006000664085,True,36,0
AM-K-22K22S2,1301,training,54,←,left,←,0.1690466001164168,True,36,0
AM-K-22K22S2,1302,training,84,↓,left,←,0.18514910014346242,False,36,0
AM-K-22K22S2,1303,experiment,74,←,left,←,0.49132189992815256,True,36,0
AM-K-22K22S2,1304,experiment,72,↑,up,↑,0.4092616999987513,True,36,1
AM-K-22K22S2,1305,experiment,75,↑,up,↑,0.35924050002358854,True,36,0
AM-K-22K22S2,1306,experiment,93,↓,down,↓,0.5755765000358224,True,36,0
AM-K-22K22S2,1307,experiment,60,←,left,←,1.868281199829653,True,36,1
AM-K-22K22S2,1308,experiment,50,↑,left,←,0.2853041999042034,False,36,1
AM-K-22K22S2,1309,experiment,63,↓,up,↑,0.29245489998720586,False,36,0
AM-K-22K22S2,1310,experiment,66,←,left,←,0.3590497998520732,True,36,0
AM-K-22K22S2,1311,experiment,77,←,left,←,0.6444739999715239,True,36,0
AM-K-22K22S2,1312,experiment,58,↓,left,←,0.15264470013789833,False,36,1
AM-K-22K22S2,1313,experiment,90,↓,down,↓,0.3590188999660313,True,36,0
AM-K-22K22S2,1314,experiment,108,↑,up,↑,0.5620833998546004,True,36,0
AM-K-22K22S2,1315,experiment,53,↑,up,↑,0.5219445999246091,True,36,1
AM-K-22K22S2,1316,experiment,73,←,left,←,0.5163936000317335,True,36,1
AM-K-22K22S2,1317,experiment,61,←,left,←,0.31712580006569624,True,36,1
AM-K-22K22S2,1318,experiment,94,←,right,→,0.2932792999781668,False,36,0
AM-K-22K22S2,1319,experiment,62,↑,up,↑,0.21011430001817644,True,36,0
AM-K-22K22S2,1320,experiment,70,↑,up,↑,0.3337928999681026,True,36,0
AM-K-22K22S2,1321,experiment,105,→,left,←,0.4731646999716759,False,36,0
AM-K-22K22S2,1322,experiment,56,→,right,→,0.39251490007154644,True,36,0
AM-K-22K22S2,1323,experiment,69,←,left,←,0.5319331998471171,True,36,0
AM-K-22K22S2,1324,experiment,79,→,right,→,0.5481334000360221,True,36,1
AM-K-22K22S2,1325,experiment,103,↑,up,↑,0.5715709999203682,True,36,1
AM-K-22K22S2,1326,experiment,83,←,left,←,0.5365664998535067,True,36,1
AM-K-22K22S2,1327,experiment,67,↓,no_key,no_letter,-1.0,False,36,1
AM-K-22K22S2,1328,experiment,104,↑,down,↓,0.21863660006783903,False,36,1
AM-K-22K22S2,1329,experiment,57,→,up,↑,0.6592798000201583,False,36,0
AM-K-22K22S2,1330,experiment,55,←,left,←,0.4013543000910431,True,36,1
AM-K-22K22S2,1331,experiment,81,↓,down,↓,0.7864941000007093,True,36,1
AM-K-22K22S2,1332,experiment,88,→,right,→,0.4089621000457555,True,36,1
AM-K-22K22S2,1333,experiment,92,↑,up,↑,0.4428919998463243,True,36,0
AM-K-22K22S2,1334,experiment,96,←,left,←,0.42579420004040003,True,36,0
AM-K-22K22S2,1335,experiment,85,↑,up,↑,0.5418576998636127,True,36,0
AM-K-22K22S2,1336,experiment,91,↑,up,↑,0.4090574001893401,True,36,1
AM-K-22K22S2,1337,experiment,99,↑,up,↑,0.3339964000042528,True,36,0
AM-K-22K22S2,1338,experiment,68,←,right,→,0.6030235001817346,False,36,0
AM-K-22K22S2,1339,experiment,97,↓,down,↓,0.5864741001278162,True,36,1
AM-K-22K22S2,1340,experiment,86,↑,up,↑,0.4711933999788016,True,36,1
AM-K-22K22S2,1341,experiment,98,↑,up,↑,0.39235109998844564,True,36,0
AM-K-22K22S2,1342,experiment,49,↑,up,↑,0.38399929995648563,True,36,0
AM-K-22K22S2,1343,experiment,84,←,left,←,0.4094452001154423,True,36,0
AM-K-22K22S2,1344,experiment,107,↑,up,↑,0.4811803000047803,True,36,1
AM-K-22K22S2,1345,experiment,64,↑,up,↑,0.5922405999153852,True,36,1
AM-K-22K22S2,1346,experiment,51,↑,up,↑,0.3508851998485625,True,36,1
AM-K-22K22S2,1347,experiment,106,←,left,←,0.39268389996141195,True,36,0
AM-K-22K22S2,1348,experiment,87,↑,left,←,0.3088036000262946,False,36,0
AM-K-22K22S2,1349,experiment,100,↑,up,↑,0.3754982999525964,True,36,0
AM-K-22K22S2,1350,experiment,89,↓,down,↓,0.46957760001532733,True,36,0
AM-K-22K22S2,1351,experiment,52,←,left,←,0.616209700005129,True,36,0
AM-K-22K22S2,1352,experiment,54,↓,left,←,0.3096783999353647,False,36,1
AM-K-22K22S2,1353,experiment,48,←,right,→,0.4877778000663966,False,36,0
AM-K-22K22S2,1354,experiment,65,←,left,←,0.2919744998216629,True,36,1
AM-K-22K22S2,1355,experiment,95,↓,down,↓,0.5463650999590755,True,36,0
AM-K-22K22S2,1356,experiment,80,→,right,→,0.4265028000809252,True,36,1
AM-K-22K22S2,1357,experiment,101,↑,up,↑,0.48673730017617345,True,36,0
AM-K-22K22S2,1358,experiment,102,↑,up,↑,0.6166489999741316,True,36,1
AM-K-22K22S2,1359,experiment,59,←,left,←,0.5880332998931408,True,36,1
AM-K-22K22S2,1360,experiment,78,↑,left,←,0.786098400130868,False,36,1
AM-K-22K22S2,1361,experiment,76,↑,no_key,no_letter,-1.0,False,36,1
AM-K-22K22S2,1362,experiment,71,↑,up,↑,0.5785009001847357,True,36,1
AM-K-22K22S2,1363,experiment,82,→,right,→,0.409215799998492,True,36,1
AM-K-22K22S2,1364,training,90,←,left,←,0.5250249998643994,True,36,0
AM-K-22K22S2,1365,training,104,↓,left,←,0.30933850002475083,False,36,1
AM-K-22K22S2,1366,experiment,102,→,right,→,0.47783630015328526,True,36,0
AM-K-22K22S2,1367,experiment,107,←,no_key,no_letter,-1.0,False,36,1
AM-K-22K22S2,1368,experiment,88,↓,down,↓,0.5218938998878002,True,36,1
AM-K-22K22S2,1369,experiment,73,↑,up,↑,0.6366431000642478,True,36,1
AM-K-22K22S2,1370,experiment,53,↑,up,↑,0.569124000146985,True,36,1
AM-K-22K22S2,1371,experiment,77,→,right,→,0.41739329998381436,True,36,1
AM-K-22K22S2,1372,experiment,57,←,left,←,0.3505392998922616,True,36,0
AM-K-22K22S2,1373,experiment,97,↑,up,↑,0.5014122000429779,True,36,0
AM-K-22K22S2,1374,experiment,76,↓,down,↓,0.7837342999409884,True,36,1
AM-K-22K22S2,1375,experiment,104,↓,down,↓,0.152629200136289,True,36,1
AM-K-22K22S2,1376,experiment,85,→,right,→,0.37562330020591617,True,36,0
AM-K-22K22S2,1377,experiment,67,↑,up,↑,0.4178144000470638,True,36,0
AM-K-22K22S2,1378,experiment,56,←,up,↑,0.2102124998345971,False,36,1
AM-K-22K22S2,1379,experiment,71,→,left,←,0.11985000013373792,False,36,0
AM-K-22K22S2,1380,experiment,98,←,down,↓,-0.003638099879026413,False,36,0
AM-K-22K22S2,1381,experiment,95,←,right,→,0.27773899980820715,False,36,0
AM-K-22K22S2,1382,experiment,99,→,left,←,0.24359369999729097,False,36,0
AM-K-22K22S2,1383,experiment,83,←,right,→,0.4027312002144754,False,36,0
AM-K-22K22S2,1384,experiment,48,↓,left,←,0.36719939997419715,False,36,0
AM-K-22K22S2,1385,experiment,106,↑,left,←,0.06231599999591708,False,36,0
AM-K-22K22S2,1386,experiment,66,↓,right,→,0.16941000008955598,False,36,0
AM-K-22K22S2,1387,experiment,51,↓,left,←,1.7024453999474645,False,36,0
AM-K-22K22S2,1388,experiment,63,→,right,→,0.5889232000336051,True,36,1
AM-K-22K22S2,1389,experiment,68,→,left,←,0.38363620010204613,False,36,1
AM-K-22K22S2,1390,experiment,80,←,right,→,0.4012012998573482,False,36,0
AM-K-22K22S2,1391,experiment,81,←,left,←,0.28461840003728867,True,36,0
AM-K-22K22S2,1392,experiment,90,→,right,→,0.35855349991470575,True,36,0
AM-K-22K22S2,1393,experiment,82,↑,up,↑,0.3505505998618901,True,36,0
AM-K-22K22S2,1394,experiment,62,←,left,←,0.4512318999040872,True,36,0
AM-K-22K22S2,1395,experiment,100,↑,left,←,0.4086670000106096,False,36,0
AM-K-22K22S2,1396,experiment,92,←,left,←,0.27725149993784726,True,36,0
AM-K-22K22S2,1397,experiment,89,↑,left,←,0.26872649998404086,False,36,0
AM-K-22K22S2,1398,experiment,74,↓,down,↓,0.6220401001628488,True,36,0
AM-K-22K22S2,1399,experiment,60,→,right,→,0.5048681998159736,True,36,1
AM-K-22K22S2,1400,experiment,94,↓,down,↓,0.5008537000976503,True,36,1
AM-K-22K22S2,1401,experiment,78,↓,left,←,0.35876249987632036,False,36,1
AM-K-22K22S2,1402,experiment,65,←,left,←,0.5701881998684257,True,36,0
AM-K-22K22S2,1403,experiment,105,→,right,→,0.48829469992779195,True,36,1
AM-K-22K22S2,1404,experiment,96,↑,up,↑,0.540318800136447,True,36,1
AM-K-22K22S2,1405,experiment,75,→,left,←,0.49324869993142784,False,36,1
AM-K-22K22S2,1406,experiment,84,←,left,←,1.221216700039804,True,36,1
AM-K-22K22S2,1407,experiment,52,←,left,←,0.3678501998074353,True,36,1
AM-K-22K22S2,1408,experiment,101,↑,up,↑,0.49027780001051724,True,36,0
AM-K-22K22S2,1409,experiment,64,→,left,←,0.49686399986967444,False,36,1
AM-K-22K22S2,1410,experiment,55,↑,up,↑,0.38392799999564886,True,36,1
AM-K-22K22S2,1411,experiment,91,↑,up,↑,0.40962360007688403,True,36,0
AM-K-22K22S2,1412,experiment,58,↑,up,↑,0.49572540004737675,True,36,0
AM-K-22K22S2,1413,experiment,86,→,up,↑,0.622840499971062,False,36,1
AM-K-22K22S2,1414,experiment,72,↓,up,↑,0.39276259997859597,False,36,1
AM-K-22K22S2,1415,experiment,61,→,right,→,0.4261157000437379,True,36,0
AM-K-22K22S2,1416,experiment,59,↓,down,↓,0.48391779977828264,True,36,1
AM-K-22K22S2,1417,experiment,79,→,right,→,0.35050739999860525,True,36,1
AM-K-22K22S2,1418,experiment,108,↑,up,↑,0.3171196000184864,True,36,0
AM-K-22K22S2,1419,experiment,50,↑,up,↑,0.43466370017267764,True,36,0
AM-K-22K22S2,1420,experiment,49,↓,down,↓,0.5227487999945879,True,36,1
AM-K-22K22S2,1421,experiment,93,↑,down,↓,0.5425371001474559,False,36,1
