PART_ID,Trial_no,Trial_type,CSI,Stim_letter,Key_pressed,letter_choose,Rt,Corr,Stimulus Time,nDropped
JK-K-21K21S1,1,training,120,↓,down,↓,1.7908556999173015,True,60,0
JK-K-21K21S1,2,training,120,↓,up,↑,1.2539991999510676,False,60,0
JK-K-21K21S1,3,training,120,→,right,→,1.0188699997961521,True,60,0
JK-K-21K21S1,4,training,120,←,left,←,1.072809600038454,True,60,0
JK-K-21K21S1,5,training,120,↑,up,↑,0.9810641999356449,True,60,0
JK-K-21K21S1,6,training,120,↓,down,↓,0.9329187001567334,True,60,0
JK-K-21K21S1,7,training,120,↓,down,↓,0.9505015001632273,True,60,0
JK-K-21K21S1,8,training,120,↓,down,↓,0.967832500115037,True,60,0
JK-K-21K21S1,9,training,120,→,right,→,0.8398869000375271,True,60,0
JK-K-21K21S1,10,training,120,↑,up,↑,1.013806500006467,True,60,0
JK-K-21K21S1,11,training,120,↓,down,↓,0.972115800017491,True,60,0
JK-K-21K21S1,12,training,120,→,right,→,1.5084333999548107,True,60,0
JK-K-21K21S1,13,training,120,↑,up,↑,0.9668829999864101,True,60,0
JK-K-21K21S1,14,training,120,→,right,→,0.8553416000213474,True,60,0
JK-K-21K21S1,15,training,120,→,right,→,1.2924450000282377,True,60,0
JK-K-21K21S1,16,training,120,↑,up,↑,0.9915968000423163,True,60,0
JK-K-21K21S1,17,training,120,←,left,←,1.0630765999667346,True,60,0
JK-K-21K21S1,18,training,120,→,right,→,0.9956543000880629,True,60,0
JK-K-21K21S1,19,training,120,→,right,→,0.9145557000301778,True,60,0
JK-K-21K21S1,20,training,120,←,left,←,1.3891956999432296,True,60,0
JK-K-21K21S1,21,no_adaptation,120,→,right,→,1.0212360001169145,True,36,0
JK-K-21K21S1,22,no_adaptation,120,↑,up,↑,0.7393074000719935,True,36,0
JK-K-21K21S1,23,no_adaptation,120,→,right,→,1.3966218999121338,True,36,0
JK-K-21K21S1,24,no_adaptation,120,↑,up,↑,0.8038014001213014,True,36,0
JK-K-21K21S1,25,no_adaptation,120,↑,up,↑,0.6192110001575202,True,36,0
JK-K-21K21S1,26,no_adaptation,120,↓,down,↓,0.673277199966833,True,36,0
JK-K-21K21S1,27,no_adaptation,120,↓,down,↓,0.7654127997811884,True,36,0
JK-K-21K21S1,28,no_adaptation,120,←,left,←,0.7021194999106228,True,36,0
JK-K-21K21S1,29,no_adaptation,120,→,right,→,0.6331308998633176,True,36,0
JK-K-21K21S1,30,no_adaptation,120,↓,down,↓,0.662613800028339,True,36,0
JK-K-21K21S1,31,no_adaptation,120,→,right,→,0.643332100007683,True,36,0
JK-K-21K21S1,32,no_adaptation,120,→,right,→,0.5687824999913573,True,36,0
JK-K-21K21S1,33,no_adaptation,120,↓,down,↓,0.5849490000400692,True,36,0
JK-K-21K21S1,34,no_adaptation,120,→,right,→,0.6807244000956416,True,36,0
JK-K-21K21S1,35,no_adaptation,120,←,left,←,1.068516300059855,True,36,0
JK-K-21K21S1,36,no_adaptation,120,↓,down,↓,0.6086235998664051,True,36,0
JK-K-21K21S1,37,no_adaptation,120,↑,down,↓,0.7193100000731647,False,36,0
JK-K-21K21S1,38,no_adaptation,120,↓,down,↓,0.7535699000582099,True,36,0
JK-K-21K21S1,39,no_adaptation,120,↓,down,↓,0.594446900067851,True,36,0
JK-K-21K21S1,40,no_adaptation,120,←,left,←,0.737653800053522,True,36,0
JK-K-21K21S1,41,training,93,↓,down,↓,0.6673381000291556,True,36,0
JK-K-21K21S1,42,training,80,←,left,←,0.6699326999951154,True,36,1
JK-K-21K21S1,43,experiment,72,→,right,→,0.5629753000102937,True,36,1
JK-K-21K21S1,44,experiment,71,←,left,←,0.6523457001894712,True,36,1
JK-K-21K21S1,45,experiment,73,←,left,←,0.569360600085929,True,36,1
JK-K-21K21S1,46,experiment,55,←,left,←,0.624793500173837,True,36,1
JK-K-21K21S1,47,experiment,103,←,left,←,0.604867999907583,True,36,1
JK-K-21K21S1,48,experiment,61,←,right,→,1.0800811999943107,False,36,1
JK-K-21K21S1,49,experiment,52,↑,up,↑,0.659088599961251,True,36,1
JK-K-21K21S1,50,experiment,75,↑,up,↑,0.6474651000462472,True,36,1
JK-K-21K21S1,51,experiment,102,←,left,←,0.6353026002179831,True,36,1
JK-K-21K21S1,52,experiment,101,→,right,→,0.8479602998122573,True,36,1
JK-K-21K21S1,53,experiment,76,→,right,→,1.7563934000208974,True,36,1
JK-K-21K21S1,54,experiment,105,↑,up,↑,0.6505424999631941,True,36,1
JK-K-21K21S1,55,experiment,66,↓,down,↓,0.6021710000932217,True,36,1
JK-K-21K21S1,56,experiment,97,↑,up,↑,0.5695028000045568,True,36,1
JK-K-21K21S1,57,experiment,99,↑,up,↑,0.7217904001008719,True,36,1
JK-K-21K21S1,58,experiment,59,←,right,→,0.7768805001396686,False,36,1
JK-K-21K21S1,59,experiment,86,←,left,←,0.684924699831754,True,36,1
JK-K-21K21S1,60,experiment,53,↑,up,↑,0.6794018000364304,True,36,1
JK-K-21K21S1,61,experiment,106,↓,down,↓,0.7603853000327945,True,36,1
JK-K-21K21S1,62,experiment,77,↓,down,↓,0.6881399000994861,True,36,1
JK-K-21K21S1,63,experiment,70,↓,down,↓,0.5494528000708669,True,36,1
JK-K-21K21S1,64,experiment,92,←,left,←,0.6643493000883609,True,36,1
JK-K-21K21S1,65,experiment,58,↓,left,←,0.7461065000388771,False,36,1
JK-K-21K21S1,66,experiment,49,↓,down,↓,0.5398145001381636,True,36,1
JK-K-21K21S1,67,experiment,84,→,right,→,0.7064610999077559,True,36,1
JK-K-21K21S1,68,experiment,104,←,left,←,0.8905139998532832,True,36,1
JK-K-21K21S1,69,experiment,50,→,right,→,0.8139598001725972,True,36,1
JK-K-21K21S1,70,experiment,68,←,left,←,0.5342039000242949,True,36,1
JK-K-21K21S1,71,experiment,81,←,left,←,0.6138054998591542,True,36,1
JK-K-21K21S1,72,experiment,93,↑,up,↑,0.6137828000355512,True,36,1
JK-K-21K21S1,73,experiment,63,→,right,→,0.5839721001684666,True,36,1
JK-K-21K21S1,74,experiment,79,→,right,→,0.6138255000114441,True,36,1
JK-K-21K21S1,75,experiment,56,↑,up,↑,0.7623638000804931,True,36,1
JK-K-21K21S1,76,experiment,78,→,right,→,1.1777289002202451,True,36,1
JK-K-21K21S1,77,experiment,51,↓,down,↓,0.6732911998406053,True,36,1
JK-K-21K21S1,78,experiment,96,↓,right,→,1.4937904998660088,False,36,1
JK-K-21K21S1,79,experiment,65,→,right,→,1.1161983001511544,True,36,1
JK-K-21K21S1,80,experiment,62,←,left,←,0.6906737999524921,True,36,1
JK-K-21K21S1,81,experiment,87,→,left,←,0.8657357001211494,False,36,1
JK-K-21K21S1,82,experiment,74,↓,left,←,1.7659893999807537,False,36,1
JK-K-21K21S1,83,experiment,69,↓,down,↓,0.7759209000505507,True,36,1
JK-K-21K21S1,84,experiment,98,←,left,←,0.6877627999056131,True,36,1
JK-K-21K21S1,85,experiment,100,←,left,←,0.62693090015091,True,36,1
JK-K-21K21S1,86,experiment,108,↓,down,↓,0.8855633998755366,True,36,1
JK-K-21K21S1,87,experiment,60,→,right,→,0.7500748999882489,True,36,1
JK-K-21K21S1,88,experiment,88,←,no_key,no_letter,-1.0,False,36,1
JK-K-21K21S1,89,experiment,57,↓,down,↓,1.0881074001081288,True,36,1
JK-K-21K21S1,90,experiment,67,→,right,→,0.6780095000285655,True,36,1
JK-K-21K21S1,91,experiment,85,←,left,←,0.5661877000238746,True,36,1
JK-K-21K21S1,92,experiment,83,↑,up,↑,0.6599602999631315,True,36,1
JK-K-21K21S1,93,experiment,80,←,left,←,0.662280400050804,True,36,1
JK-K-21K21S1,94,experiment,64,←,left,←,0.8144088999833912,True,36,1
JK-K-21K21S1,95,experiment,89,←,left,←,0.7678988999687135,True,36,1
JK-K-21K21S1,96,experiment,82,↑,up,↑,0.6533934001345187,True,36,1
JK-K-21K21S1,97,experiment,107,↓,down,↓,0.6474570999853313,True,36,1
JK-K-21K21S1,98,experiment,90,←,left,←,0.6790787000209093,True,36,1
JK-K-21K21S1,99,experiment,54,→,right,→,0.6817993000149727,True,36,1
JK-K-21K21S1,100,experiment,95,→,right,→,0.734251799993217,True,36,1
JK-K-21K21S1,101,experiment,48,↓,down,↓,0.6566920001059771,True,36,1
JK-K-21K21S1,102,experiment,91,←,left,←,0.7596523999236524,True,36,1
JK-K-21K21S1,103,experiment,94,↑,up,↑,0.5456395999062806,True,36,1
JK-K-21K21S1,104,training,65,↓,down,↓,0.9159720002207905,True,36,0
JK-K-21K21S1,105,training,88,←,left,←,0.7937578000128269,True,36,1
JK-K-21K21S1,106,experiment,79,↑,up,↑,0.7912947000004351,True,36,1
JK-K-21K21S1,107,experiment,96,↑,up,↑,0.5914992999751121,True,36,1
JK-K-21K21S1,108,experiment,76,↓,down,↓,0.6379215999040753,True,36,1
JK-K-21K21S1,109,experiment,62,↓,down,↓,0.49574310006573796,True,36,1
JK-K-21K21S1,110,experiment,98,←,left,←,0.6352347999345511,True,36,1
JK-K-21K21S1,111,experiment,48,←,left,←,0.6256730000022799,True,36,1
JK-K-21K21S1,112,experiment,52,↑,up,↑,0.6546912000048906,True,36,1
JK-K-21K21S1,113,experiment,77,←,left,←,0.5942616998218,True,36,1
JK-K-21K21S1,114,experiment,107,↑,up,↑,0.6227148999460042,True,36,1
JK-K-21K21S1,115,experiment,53,→,right,→,0.7637640000320971,True,36,1
JK-K-21K21S1,116,experiment,51,→,right,→,0.8040883000940084,True,36,1
JK-K-21K21S1,117,experiment,104,→,left,←,1.3450472000986338,False,36,1
JK-K-21K21S1,118,experiment,100,↓,down,↓,0.7298336999956518,True,36,1
JK-K-21K21S1,119,experiment,106,↑,up,↑,0.7445471999235451,True,36,1
JK-K-21K21S1,120,experiment,49,←,left,←,0.7301882000174373,True,36,1
JK-K-21K21S1,121,experiment,66,↑,up,↑,0.9188039000146091,True,36,1
JK-K-21K21S1,122,experiment,68,↑,up,↑,0.6911498999688774,True,36,1
JK-K-21K21S1,123,experiment,105,←,left,←,0.5960865998640656,True,36,1
JK-K-21K21S1,124,experiment,87,→,right,→,0.5827486999332905,True,36,1
JK-K-21K21S1,125,experiment,74,→,right,→,0.798464999999851,True,36,1
JK-K-21K21S1,126,experiment,70,←,left,←,0.5989397000521421,True,36,1
JK-K-21K21S1,127,experiment,67,←,left,←,0.5921807000413537,True,36,1
JK-K-21K21S1,128,experiment,80,←,right,→,0.685320399934426,False,36,1
JK-K-21K21S1,129,experiment,72,←,left,←,0.6178760000038892,True,36,1
JK-K-21K21S1,130,experiment,89,←,left,←,0.5074781000148505,True,36,1
JK-K-21K21S1,131,experiment,65,←,right,→,0.5530340999830514,False,36,1
JK-K-21K21S1,132,experiment,99,→,right,→,1.0658265000674874,True,36,1
JK-K-21K21S1,133,experiment,85,←,no_key,no_letter,-1.0,False,36,1
JK-K-21K21S1,134,experiment,97,↓,up,↑,1.0511171999387443,False,36,1
JK-K-21K21S1,135,experiment,61,↑,up,↑,0.700262599857524,True,36,1
JK-K-21K21S1,136,experiment,91,↓,up,↑,0.7935812999494374,False,36,1
JK-K-21K21S1,137,experiment,71,→,no_key,no_letter,-1.0,False,36,1
JK-K-21K21S1,138,experiment,63,←,left,←,0.7899204001296312,True,36,1
JK-K-21K21S1,139,experiment,55,↓,left,←,0.7556321998126805,False,36,1
JK-K-21K21S1,140,experiment,50,↑,up,↑,0.7003436000086367,True,36,1
JK-K-21K21S1,141,experiment,108,↑,up,↑,0.5484362998977304,True,36,1
JK-K-21K21S1,142,experiment,60,↓,down,↓,0.8177125998772681,True,36,1
JK-K-21K21S1,143,experiment,54,←,left,←,0.6787326000630856,True,36,1
JK-K-21K21S1,144,experiment,73,←,left,←,0.5790949000511318,True,36,1
JK-K-21K21S1,145,experiment,86,←,left,←,0.6873157999943942,True,36,1
JK-K-21K21S1,146,experiment,94,↓,down,↓,0.6199588000308722,True,36,1
JK-K-21K21S1,147,experiment,102,↑,up,↑,0.5850370000116527,True,36,1
JK-K-21K21S1,148,experiment,93,←,left,←,0.7545622999314219,True,36,1
JK-K-21K21S1,149,experiment,82,←,left,←,0.7687955999281257,True,36,1
JK-K-21K21S1,150,experiment,81,↓,down,↓,0.8547810998279601,True,36,1
JK-K-21K21S1,151,experiment,59,↓,down,↓,0.7768246999476105,True,36,1
JK-K-21K21S1,152,experiment,75,↑,up,↑,0.7126988000236452,True,36,1
JK-K-21K21S1,153,experiment,64,→,right,→,0.686253699939698,True,36,1
JK-K-21K21S1,154,experiment,57,←,left,←,0.6237885998561978,True,36,1
JK-K-21K21S1,155,experiment,95,↓,down,↓,0.7508620000444353,True,36,1
JK-K-21K21S1,156,experiment,101,↓,up,↑,1.5989451999776065,False,36,1
JK-K-21K21S1,157,experiment,103,←,left,←,0.5959697999060154,True,36,1
JK-K-21K21S1,158,experiment,90,→,right,→,0.4938401998952031,True,36,1
JK-K-21K21S1,159,experiment,84,←,left,←,0.6297283000312746,True,36,1
JK-K-21K21S1,160,experiment,58,←,left,←,0.5850325000938028,True,36,1
JK-K-21K21S1,161,experiment,78,←,left,←,0.5838641000445932,True,36,1
JK-K-21K21S1,162,experiment,88,←,left,←,0.5546778000425547,True,36,1
JK-K-21K21S1,163,experiment,92,↑,up,↑,0.49339249986223876,True,36,1
JK-K-21K21S1,164,experiment,69,↓,down,↓,0.6424946000333875,True,36,1
JK-K-21K21S1,165,experiment,83,↓,down,↓,0.5888681998476386,True,36,1
JK-K-21K21S1,166,experiment,56,↑,up,↑,0.6744602001272142,True,36,1
JK-K-21K21S1,167,training,75,←,left,←,0.4994578999467194,True,36,0
JK-K-21K21S1,168,training,93,↓,down,↓,0.4724880000576377,True,36,1
JK-K-21K21S1,169,experiment,58,↑,up,↑,0.48983710003085434,True,36,1
JK-K-21K21S1,170,experiment,66,↓,down,↓,0.409148900071159,True,36,1
JK-K-21K21S1,171,experiment,101,→,right,→,0.5409369000699371,True,36,0
JK-K-21K21S1,172,experiment,74,↑,up,↑,0.5981606000568718,True,36,1
JK-K-21K21S1,173,experiment,103,↑,up,↑,0.7716423999518156,True,36,1
JK-K-21K21S1,174,experiment,61,↓,down,↓,1.3841502000577748,True,36,1
JK-K-21K21S1,175,experiment,80,←,left,←,0.6455228000413626,True,36,1
JK-K-21K21S1,176,experiment,49,↑,up,↑,0.6113022998906672,True,36,1
JK-K-21K21S1,177,experiment,50,↑,up,↑,0.5460707999300212,True,36,1
JK-K-21K21S1,178,experiment,76,↓,down,↓,1.8663540000561625,True,36,1
JK-K-21K21S1,179,experiment,62,→,right,→,0.7946276001166552,True,36,1
JK-K-21K21S1,180,experiment,94,←,left,←,0.7155039000790566,True,36,1
JK-K-21K21S1,181,experiment,105,↑,up,↑,0.5873186998069286,True,36,1
JK-K-21K21S1,182,experiment,93,↑,up,↑,0.5967629998922348,True,36,1
JK-K-21K21S1,183,experiment,57,→,right,→,0.6494404000695795,True,36,1
JK-K-21K21S1,184,experiment,48,↑,up,↑,0.6232821000739932,True,36,1
JK-K-21K21S1,185,experiment,64,↑,up,↑,0.6963057999964803,True,36,1
JK-K-21K21S1,186,experiment,104,↓,up,↑,0.7136701000854373,False,36,1
JK-K-21K21S1,187,experiment,60,↓,down,↓,0.6807122000027448,True,36,1
JK-K-21K21S1,188,experiment,78,←,up,↑,0.7469983000773937,False,36,1
JK-K-21K21S1,189,experiment,69,↓,down,↓,0.6058327001519501,True,36,1
JK-K-21K21S1,190,experiment,86,←,left,←,0.7605318001005799,True,36,1
JK-K-21K21S1,191,experiment,52,←,left,←,0.6724715998861939,True,36,1
JK-K-21K21S1,192,experiment,55,→,right,→,0.6670357000548393,True,36,1
JK-K-21K21S1,193,experiment,68,↓,down,↓,0.6818814999423921,True,36,1
JK-K-21K21S1,194,experiment,100,←,left,←,0.5567553001455963,True,36,1
JK-K-21K21S1,195,experiment,99,→,right,→,0.7009685998782516,True,36,1
JK-K-21K21S1,196,experiment,89,←,left,←,0.7071402000728995,True,36,1
JK-K-21K21S1,197,experiment,51,↓,down,↓,0.797420599963516,True,36,1
JK-K-21K21S1,198,experiment,72,←,left,←,0.7330235000699759,True,36,1
JK-K-21K21S1,199,experiment,71,←,left,←,0.7356180001515895,True,36,1
JK-K-21K21S1,200,experiment,77,←,left,←,0.7201175999362022,True,36,1
JK-K-21K21S1,201,experiment,85,↑,up,↑,0.7190447000321001,True,36,1
JK-K-21K21S1,202,experiment,90,←,left,←,0.6277751999441534,True,36,1
JK-K-21K21S1,203,experiment,54,↓,down,↓,0.6966397000942379,True,36,1
JK-K-21K21S1,204,experiment,108,←,left,←,0.6005518999882042,True,36,1
JK-K-21K21S1,205,experiment,92,←,left,←,0.48990809987299144,True,36,1
JK-K-21K21S1,206,experiment,65,↑,up,↑,0.6803885998670012,True,36,1
JK-K-21K21S1,207,experiment,83,←,left,←,0.5766259001102298,True,36,1
JK-K-21K21S1,208,experiment,88,↑,up,↑,0.7560622999444604,True,36,1
JK-K-21K21S1,209,experiment,107,←,left,←,0.5619085000362247,True,36,1
JK-K-21K21S1,210,experiment,98,←,left,←,0.6190126000437886,True,36,1
JK-K-21K21S1,211,experiment,79,↓,down,↓,0.7517464000266045,True,36,1
JK-K-21K21S1,212,experiment,59,→,left,←,0.9650739000644535,False,36,1
JK-K-21K21S1,213,experiment,53,↓,down,↓,1.2846413000952452,True,36,1
JK-K-21K21S1,214,experiment,95,←,left,←,0.6578043000772595,True,36,1
JK-K-21K21S1,215,experiment,87,←,left,←,0.5613537000026554,True,36,1
JK-K-21K21S1,216,experiment,75,↑,up,↑,0.593994100112468,True,36,1
JK-K-21K21S1,217,experiment,102,↓,up,↑,0.6479688000399619,False,36,1
JK-K-21K21S1,218,experiment,81,↑,up,↑,0.5949284001253545,True,36,1
JK-K-21K21S1,219,experiment,67,←,left,←,0.8286050001624972,True,36,1
JK-K-21K21S1,220,experiment,63,←,left,←,0.5987966998945922,True,36,1
JK-K-21K21S1,221,experiment,84,↓,up,↑,0.5138372001238167,False,36,1
JK-K-21K21S1,222,experiment,56,↓,up,↑,1.6103016000706702,False,36,1
JK-K-21K21S1,223,experiment,97,→,down,↓,0.8171337000094354,False,36,1
JK-K-21K21S1,224,experiment,106,←,left,←,0.7570372000336647,True,36,1
JK-K-21K21S1,225,experiment,70,↑,up,↑,0.5429479000158608,True,36,1
JK-K-21K21S1,226,experiment,82,←,left,←,0.5980574998538941,True,36,1
JK-K-21K21S1,227,experiment,91,↑,up,↑,0.5914701998699456,True,36,1
JK-K-21K21S1,228,experiment,96,→,down,↓,0.9513736998196691,False,36,1
JK-K-21K21S1,229,experiment,73,←,left,←,0.5846281999256462,True,36,1
JK-K-21K21S1,230,training,51,←,left,←,0.9603258999995887,True,36,0
JK-K-21K21S1,231,training,96,↓,up,↑,0.6893142000772059,False,36,1
JK-K-21K21S1,232,experiment,84,↓,down,↓,0.633432799950242,True,36,1
JK-K-21K21S1,233,experiment,97,↑,up,↑,0.5913027001079172,True,36,1
JK-K-21K21S1,234,experiment,74,→,right,→,0.5749720998574048,True,36,1
JK-K-21K21S1,235,experiment,61,←,right,→,0.6269827999640256,False,36,1
JK-K-21K21S1,236,experiment,104,↓,down,↓,0.6152582999784499,True,36,1
JK-K-21K21S1,237,experiment,105,↑,up,↑,0.5716716002207249,True,36,1
JK-K-21K21S1,238,experiment,100,→,right,→,0.6667384998872876,True,36,1
JK-K-21K21S1,239,experiment,95,↑,no_key,no_letter,-1.0,False,36,1
JK-K-21K21S1,240,experiment,64,←,left,←,0.5637024000752717,True,36,1
JK-K-21K21S1,241,experiment,76,→,right,→,0.6354416999965906,True,36,1
JK-K-21K21S1,242,experiment,86,→,right,→,0.7728599000256509,True,36,1
JK-K-21K21S1,243,experiment,89,↑,up,↑,0.607888399856165,True,36,1
JK-K-21K21S1,244,experiment,65,←,left,←,0.889578899834305,True,36,1
JK-K-21K21S1,245,experiment,54,↑,up,↑,0.9638459999114275,True,36,1
JK-K-21K21S1,246,experiment,91,←,down,↓,0.9423152001108974,False,36,1
JK-K-21K21S1,247,experiment,62,↑,up,↑,0.7716379999183118,True,36,1
JK-K-21K21S1,248,experiment,56,↓,down,↓,0.7617879998870194,True,36,1
JK-K-21K21S1,249,experiment,75,→,right,→,0.9861419000662863,True,36,1
JK-K-21K21S1,250,experiment,92,↑,up,↑,0.7557928999885917,True,36,1
JK-K-21K21S1,251,experiment,96,↑,up,↑,0.7652378999628127,True,36,1
JK-K-21K21S1,252,experiment,66,↑,up,↑,1.5039713999722153,True,36,1
JK-K-21K21S1,253,experiment,78,←,left,←,0.7853876000735909,True,36,1
JK-K-21K21S1,254,experiment,94,↑,up,↑,0.7785918000154197,True,36,1
JK-K-21K21S1,255,experiment,103,→,right,→,0.7766788001172245,True,36,1
JK-K-21K21S1,256,experiment,79,→,right,→,0.686729600187391,True,36,1
JK-K-21K21S1,257,experiment,81,↓,down,↓,0.7041162999812514,True,36,1
JK-K-21K21S1,258,experiment,51,↓,down,↓,0.8429365998599678,True,36,1
JK-K-21K21S1,259,experiment,108,↑,up,↑,0.8609499000012875,True,36,1
JK-K-21K21S1,260,experiment,49,→,right,→,0.6260313999373466,True,36,1
JK-K-21K21S1,261,experiment,107,→,right,→,0.9168940000236034,True,36,1
JK-K-21K21S1,262,experiment,72,→,right,→,0.8079242000821978,True,36,1
JK-K-21K21S1,263,experiment,67,↓,down,↓,0.7851921999827027,True,36,1
JK-K-21K21S1,264,experiment,87,←,left,←,0.7964794000145048,True,36,1
JK-K-21K21S1,265,experiment,73,→,right,→,0.7397828998509794,True,36,1
JK-K-21K21S1,266,experiment,69,↑,up,↑,0.7108738999813795,True,36,1
JK-K-21K21S1,267,experiment,99,←,left,←,0.7770791999064386,True,36,1
JK-K-21K21S1,268,experiment,83,←,left,←,0.6862831001635641,True,36,1
JK-K-21K21S1,269,experiment,48,↓,down,↓,0.8036026998888701,True,36,1
JK-K-21K21S1,270,experiment,55,↓,left,←,1.7440454999450594,False,36,1
JK-K-21K21S1,271,experiment,93,→,right,→,0.8428929001092911,True,36,1
JK-K-21K21S1,272,experiment,70,↓,down,↓,0.8335279999300838,True,36,1
JK-K-21K21S1,273,experiment,90,→,right,→,0.7861171001568437,True,36,1
JK-K-21K21S1,274,experiment,77,←,left,←,0.7046323001850396,True,36,1
JK-K-21K21S1,275,experiment,68,←,left,←,0.7898601000197232,True,36,1
JK-K-21K21S1,276,experiment,57,→,right,→,0.7868481001351029,True,36,1
JK-K-21K21S1,277,experiment,88,→,right,→,0.7816445000935346,True,36,1
JK-K-21K21S1,278,experiment,82,→,right,→,0.7625239000190049,True,36,1
JK-K-21K21S1,279,experiment,60,→,right,→,1.1122844000346959,True,36,1
JK-K-21K21S1,280,experiment,102,←,left,←,0.7694812000263482,True,36,1
JK-K-21K21S1,281,experiment,59,←,left,←,0.7670079998206347,True,36,1
JK-K-21K21S1,282,experiment,101,↓,down,↓,1.253991900011897,True,36,1
JK-K-21K21S1,283,experiment,85,↑,up,↑,0.6955042001791298,True,36,1
JK-K-21K21S1,284,experiment,53,→,right,→,0.6415513998363167,True,36,1
JK-K-21K21S1,285,experiment,50,←,left,←,0.6870656998362392,True,36,1
JK-K-21K21S1,286,experiment,80,←,left,←,0.8248242000117898,True,36,1
JK-K-21K21S1,287,experiment,58,↓,down,↓,0.748284500092268,True,36,1
JK-K-21K21S1,288,experiment,52,↑,up,↑,0.6844545998610556,True,36,1
JK-K-21K21S1,289,experiment,106,↓,up,↑,1.261723600095138,False,36,1
JK-K-21K21S1,290,experiment,63,↓,down,↓,0.7019769998732954,True,36,1
JK-K-21K21S1,291,experiment,98,↓,down,↓,0.5687874001450837,True,36,1
JK-K-21K21S1,292,experiment,71,←,right,→,0.9864149000495672,False,36,1
JK-K-21K21S1,293,training,75,↓,down,↓,1.0282042999751866,True,35,0
JK-K-21K21S1,294,training,78,↑,up,↑,0.7606085001025349,True,35,1
JK-K-21K21S1,295,experiment,72,↑,up,↑,0.9540218999609351,True,35,1
JK-K-21K21S1,296,experiment,78,→,right,→,0.8334743001032621,True,35,1
JK-K-21K21S1,297,experiment,65,←,left,←,0.7941869001369923,True,35,1
JK-K-21K21S1,298,experiment,56,→,right,→,0.7115475998725742,True,35,1
JK-K-21K21S1,299,experiment,70,↑,up,↑,0.6996573999058455,True,35,1
JK-K-21K21S1,300,experiment,108,↑,up,↑,0.6830889000557363,True,35,1
JK-K-21K21S1,301,experiment,75,←,left,←,0.6545070998836309,True,35,1
JK-K-21K21S1,302,experiment,66,→,right,→,0.6457344000227749,True,35,1
JK-K-21K21S1,303,experiment,71,→,right,→,0.6763445001561195,True,35,1
JK-K-21K21S1,304,experiment,82,←,left,←,0.6776884999126196,True,35,1
JK-K-21K21S1,305,experiment,93,↑,up,↑,0.6752869000192732,True,35,1
JK-K-21K21S1,306,experiment,62,↑,up,↑,0.7955404999665916,True,35,1
JK-K-21K21S1,307,experiment,80,↓,down,↓,0.5769082999322563,True,35,1
JK-K-21K21S1,308,experiment,81,↑,up,↑,0.7025721999816597,True,35,1
JK-K-21K21S1,309,experiment,68,→,right,→,0.907809300115332,True,35,1
JK-K-21K21S1,310,experiment,61,↓,no_key,no_letter,-1.0,False,35,1
JK-K-21K21S1,311,experiment,51,←,left,←,0.6750664000865072,True,35,1
JK-K-21K21S1,312,experiment,94,↑,up,↑,0.7283095000311732,True,35,1
JK-K-21K21S1,313,experiment,64,←,right,→,0.7415768001228571,False,35,1
JK-K-21K21S1,314,experiment,52,←,left,←,0.5823910001199692,True,35,1
JK-K-21K21S1,315,experiment,92,→,right,→,0.6962490000296384,True,35,1
JK-K-21K21S1,316,experiment,63,↓,down,↓,0.7427902000490576,True,35,1
JK-K-21K21S1,317,experiment,98,←,right,→,1.7441075001843274,False,35,1
JK-K-21K21S1,318,experiment,57,↓,down,↓,1.0232646998483688,True,35,1
JK-K-21K21S1,319,experiment,96,↑,up,↑,0.6936256000772119,True,35,1
JK-K-21K21S1,320,experiment,106,←,left,←,0.726255499990657,True,35,1
JK-K-21K21S1,321,experiment,48,↑,up,↑,0.6891858000308275,True,35,1
JK-K-21K21S1,322,experiment,103,←,left,←,0.6107471000868827,True,35,1
JK-K-21K21S1,323,experiment,79,→,right,→,0.59201840008609,True,35,1
JK-K-21K21S1,324,experiment,54,→,right,→,0.8059839999768883,True,35,1
JK-K-21K21S1,325,experiment,90,→,right,→,0.7112839999608696,True,35,1
JK-K-21K21S1,326,experiment,89,↑,up,↑,0.6209677001461387,True,35,1
JK-K-21K21S1,327,experiment,105,↓,down,↓,0.5765213000122458,True,35,1
JK-K-21K21S1,328,experiment,67,←,left,←,1.6831119998823851,True,35,1
JK-K-21K21S1,329,experiment,73,→,right,→,0.6231430000625551,True,35,1
JK-K-21K21S1,330,experiment,59,←,left,←,0.6342738000676036,True,35,1
JK-K-21K21S1,331,experiment,74,↑,up,↑,0.7277283000294119,True,35,1
JK-K-21K21S1,332,experiment,101,↓,down,↓,0.5847948999144137,True,35,1
JK-K-21K21S1,333,experiment,84,→,right,→,0.6694803000427783,True,35,1
JK-K-21K21S1,334,experiment,88,↑,down,↓,1.437277500052005,False,35,1
JK-K-21K21S1,335,experiment,97,↑,left,←,0.9789620998781174,False,35,1
JK-K-21K21S1,336,experiment,104,→,right,→,0.7369053000584245,True,35,1
JK-K-21K21S1,337,experiment,53,→,right,→,0.7934747999534011,True,35,1
JK-K-21K21S1,338,experiment,49,↓,down,↓,0.6496560999657959,True,35,1
JK-K-21K21S1,339,experiment,55,←,left,←,0.6846988000907004,True,35,1
JK-K-21K21S1,340,experiment,83,←,left,←,0.6296036001294851,True,35,1
JK-K-21K21S1,341,experiment,95,↓,down,↓,0.7243234999477863,True,35,1
JK-K-21K21S1,342,experiment,86,←,left,←,0.594120099907741,True,35,1
JK-K-21K21S1,343,experiment,87,↓,down,↓,0.677196400007233,True,35,1
JK-K-21K21S1,344,experiment,77,↑,up,↑,1.0643259000498801,True,35,1
JK-K-21K21S1,345,experiment,76,←,left,←,0.6838440001010895,True,35,1
JK-K-21K21S1,346,experiment,60,↑,no_key,no_letter,-1.0,False,35,1
JK-K-21K21S1,347,experiment,107,↑,down,↓,1.025958999991417,False,35,1
JK-K-21K21S1,348,experiment,91,→,right,→,0.6342256001662463,True,35,1
JK-K-21K21S1,349,experiment,100,↑,no_key,no_letter,-1.0,False,35,1
JK-K-21K21S1,350,experiment,69,←,left,←,0.7294463000725955,True,35,1
JK-K-21K21S1,351,experiment,50,→,right,→,0.867041900055483,True,35,1
JK-K-21K21S1,352,experiment,85,↑,up,↑,0.7238949001766741,True,35,1
JK-K-21K21S1,353,experiment,102,←,left,←,0.8125219000503421,True,35,1
JK-K-21K21S1,354,experiment,58,→,right,→,0.8880922999233007,True,35,1
JK-K-21K21S1,355,experiment,99,→,no_key,no_letter,-1.0,False,35,1
JK-K-21K21S1,356,training,94,↓,down,↓,1.0025469998363405,True,35,0
JK-K-21K21S1,357,training,98,→,right,→,0.6333474998828024,True,35,1
JK-K-21K21S1,358,experiment,79,←,left,←,1.2454669999424368,True,35,1
JK-K-21K21S1,359,experiment,88,←,left,←,0.549863199936226,True,35,1
JK-K-21K21S1,360,experiment,106,↓,down,↓,0.7482479000464082,True,35,1
JK-K-21K21S1,361,experiment,86,→,right,→,0.745302899973467,True,35,1
JK-K-21K21S1,362,experiment,81,←,left,←,0.6323183001950383,True,35,1
JK-K-21K21S1,363,experiment,82,→,left,←,1.2116235999856144,False,35,1
JK-K-21K21S1,364,experiment,65,↑,down,↓,0.7090024000499398,False,35,1
JK-K-21K21S1,365,experiment,105,←,left,←,0.5893654001411051,True,35,1
JK-K-21K21S1,366,experiment,55,↓,down,↓,0.7232333000283688,True,35,1
JK-K-21K21S1,367,experiment,63,↑,up,↑,0.79285699990578,True,35,1
JK-K-21K21S1,368,experiment,48,←,left,←,0.728831599932164,True,35,1
JK-K-21K21S1,369,experiment,89,→,left,←,0.6461422999855131,False,35,1
JK-K-21K21S1,370,experiment,107,→,right,→,0.6882545999251306,True,35,1
JK-K-21K21S1,371,experiment,108,↓,down,↓,0.6001363000832498,True,35,1
JK-K-21K21S1,372,experiment,75,←,left,←,0.8871061000972986,True,35,1
JK-K-21K21S1,373,experiment,68,↓,down,↓,1.0928693001624197,True,35,1
JK-K-21K21S1,374,experiment,62,←,left,←,0.8762238000053912,True,35,1
JK-K-21K21S1,375,experiment,80,→,right,→,0.6465248998720199,True,35,1
JK-K-21K21S1,376,experiment,70,↓,down,↓,0.7483816999010742,True,35,1
JK-K-21K21S1,377,experiment,87,←,left,←,0.7851245999336243,True,35,1
JK-K-21K21S1,378,experiment,74,↓,down,↓,0.7127660000696778,True,35,1
JK-K-21K21S1,379,experiment,96,←,left,←,0.7559313999954611,True,35,1
JK-K-21K21S1,380,experiment,84,↑,up,↑,0.6498173999134451,True,35,1
JK-K-21K21S1,381,experiment,59,←,left,←,0.6192171000875533,True,35,1
JK-K-21K21S1,382,experiment,64,↑,up,↑,0.7490805999841541,True,35,1
JK-K-21K21S1,383,experiment,92,↑,up,↑,0.7600873000919819,True,35,1
JK-K-21K21S1,384,experiment,98,→,right,→,0.7287522999104112,True,35,1
JK-K-21K21S1,385,experiment,54,↓,up,↑,0.8976183000486344,False,35,1
JK-K-21K21S1,386,experiment,94,→,right,→,0.661797400098294,True,35,1
JK-K-21K21S1,387,experiment,67,←,left,←,0.484961099922657,True,35,1
JK-K-21K21S1,388,experiment,52,→,left,←,0.7518978998996317,False,35,1
JK-K-21K21S1,389,experiment,104,←,left,←,0.6309744999743998,True,35,1
JK-K-21K21S1,390,experiment,83,↓,down,↓,0.7300946998875588,True,35,1
JK-K-21K21S1,391,experiment,60,↓,down,↓,0.6405925001017749,True,35,1
JK-K-21K21S1,392,experiment,56,↓,down,↓,0.659955200040713,True,35,1
JK-K-21K21S1,393,experiment,85,→,right,→,0.5091117999982089,True,35,1
JK-K-21K21S1,394,experiment,61,↓,down,↓,0.6284806001931429,True,35,1
JK-K-21K21S1,395,experiment,95,↓,down,↓,0.8031079000793397,True,35,1
JK-K-21K21S1,396,experiment,78,→,right,→,0.5683236999902874,True,35,1
JK-K-21K21S1,397,experiment,101,↓,down,↓,0.5677330000326037,True,35,1
JK-K-21K21S1,398,experiment,53,→,right,→,0.6392049000132829,True,35,1
JK-K-21K21S1,399,experiment,69,↓,down,↓,0.44220719998702407,True,35,1
JK-K-21K21S1,400,experiment,77,←,left,←,0.5700757000595331,True,35,0
JK-K-21K21S1,401,experiment,49,→,right,→,0.8192191999405622,True,35,1
JK-K-21K21S1,402,experiment,103,→,right,→,0.6717262000311166,True,35,1
JK-K-21K21S1,403,experiment,97,↓,down,↓,0.6843570999335498,True,35,1
JK-K-21K21S1,404,experiment,99,↓,down,↓,0.5754082999192178,True,35,1
JK-K-21K21S1,405,experiment,102,↓,down,↓,0.6781703000888228,True,35,1
JK-K-21K21S1,406,experiment,76,↓,down,↓,0.6575825000181794,True,35,1
JK-K-21K21S1,407,experiment,91,→,down,↓,0.7047439999878407,False,35,1
JK-K-21K21S1,408,experiment,51,→,right,→,0.5555493999272585,True,35,1
JK-K-21K21S1,409,experiment,93,→,left,←,0.7577200999949127,False,35,1
JK-K-21K21S1,410,experiment,50,↓,down,↓,0.6144642001017928,True,35,1
JK-K-21K21S1,411,experiment,57,↓,down,↓,0.6025366999674588,True,35,1
JK-K-21K21S1,412,experiment,71,↑,up,↑,0.6585435001179576,True,35,1
JK-K-21K21S1,413,experiment,73,↑,up,↑,0.7282458997797221,True,35,1
JK-K-21K21S1,414,experiment,72,←,left,←,0.5946120000444353,True,35,1
JK-K-21K21S1,415,experiment,66,↑,up,↑,0.5006713001057506,True,35,1
JK-K-21K21S1,416,experiment,100,←,left,←,1.3749873000197113,True,35,1
JK-K-21K21S1,417,experiment,90,↓,down,↓,0.6575650000013411,True,35,1
JK-K-21K21S1,418,experiment,58,↑,up,↑,0.7235795999877155,True,35,1
JK-K-21K21S1,419,training,75,↑,up,↑,1.6025308999232948,True,35,0
JK-K-21K21S1,420,training,92,←,left,←,0.571496699936688,True,35,1
JK-K-21K21S1,421,experiment,88,←,left,←,0.6151526998728514,True,35,1
JK-K-21K21S1,422,experiment,85,←,left,←,0.5061474000103772,True,35,1
JK-K-21K21S1,423,experiment,106,→,no_key,no_letter,-1.0,False,35,1
JK-K-21K21S1,424,experiment,77,↑,up,↑,0.5777016000356525,True,35,1
JK-K-21K21S1,425,experiment,84,→,right,→,0.6940861002076417,True,35,1
JK-K-21K21S1,426,experiment,107,→,right,→,0.5751633001491427,True,35,1
JK-K-21K21S1,427,experiment,105,↓,down,↓,0.6443197999615222,True,35,1
JK-K-21K21S1,428,experiment,93,↓,down,↓,0.5792591001372784,True,35,1
JK-K-21K21S1,429,experiment,56,↑,up,↑,0.5129995001479983,True,35,1
JK-K-21K21S1,430,experiment,55,↓,down,↓,0.6738608998712152,True,35,1
JK-K-21K21S1,431,experiment,62,↑,up,↑,0.7298584000673145,True,35,1
JK-K-21K21S1,432,experiment,89,↓,down,↓,0.7025043999310583,True,35,1
JK-K-21K21S1,433,experiment,82,→,right,→,0.7110010997857898,True,35,1
JK-K-21K21S1,434,experiment,53,←,left,←,0.6488661000039428,True,35,1
JK-K-21K21S1,435,experiment,92,↓,down,↓,0.6156651000492275,True,35,1
JK-K-21K21S1,436,experiment,61,←,right,→,0.5545220000203699,False,35,1
JK-K-21K21S1,437,experiment,50,↓,down,↓,0.5794053999707103,True,35,1
JK-K-21K21S1,438,experiment,87,→,right,→,0.9025184002239257,True,35,1
JK-K-21K21S1,439,experiment,48,↓,down,↓,0.6744359999429435,True,35,1
JK-K-21K21S1,440,experiment,104,→,right,→,0.6767479998525232,True,35,1
JK-K-21K21S1,441,experiment,78,↓,right,→,1.247024199925363,False,35,1
JK-K-21K21S1,442,experiment,67,←,right,→,0.7903424000833184,False,35,1
JK-K-21K21S1,443,experiment,79,→,right,→,1.3480771000031382,True,35,1
JK-K-21K21S1,444,experiment,101,↓,down,↓,1.5321316998451948,True,35,1
JK-K-21K21S1,445,experiment,94,→,right,→,0.6469190998468548,True,35,1
JK-K-21K21S1,446,experiment,70,→,right,→,0.6291269999928772,True,35,1
JK-K-21K21S1,447,experiment,99,→,right,→,0.6108607000205666,True,35,1
JK-K-21K21S1,448,experiment,102,→,right,→,0.544345100177452,True,35,1
JK-K-21K21S1,449,experiment,52,→,right,→,0.5690931000281125,True,35,1
JK-K-21K21S1,450,experiment,103,↑,up,↑,0.5197760998271406,True,35,1
JK-K-21K21S1,451,experiment,76,→,right,→,0.5536948000080884,True,35,1
JK-K-21K21S1,452,experiment,100,↑,down,↓,0.8578047999180853,False,35,1
JK-K-21K21S1,453,experiment,63,↓,down,↓,0.6262229999992996,True,35,1
JK-K-21K21S1,454,experiment,57,↑,down,↓,1.0299915000796318,False,35,1
JK-K-21K21S1,455,experiment,91,←,left,←,0.725970899919048,True,35,1
JK-K-21K21S1,456,experiment,54,←,left,←,0.6226731000933796,True,35,1
JK-K-21K21S1,457,experiment,73,↑,up,↑,1.8929107000585645,True,35,1
JK-K-21K21S1,458,experiment,81,→,left,←,1.3098385001067072,False,35,1
JK-K-21K21S1,459,experiment,75,→,right,→,0.6243207000661641,True,35,1
JK-K-21K21S1,460,experiment,49,↓,down,↓,0.5350643000565469,True,35,1
JK-K-21K21S1,461,experiment,95,→,right,→,1.0174341001547873,True,35,1
JK-K-21K21S1,462,experiment,51,←,left,←,0.6952713998034596,True,35,1
JK-K-21K21S1,463,experiment,64,→,right,→,0.670192199992016,True,35,1
JK-K-21K21S1,464,experiment,108,←,left,←,0.663181200157851,True,35,1
JK-K-21K21S1,465,experiment,74,↓,down,↓,0.6995106998365372,True,35,1
JK-K-21K21S1,466,experiment,68,↑,up,↑,0.40128490002825856,True,35,1
JK-K-21K21S1,467,experiment,90,→,down,↓,1.4336675000377,False,35,0
JK-K-21K21S1,468,experiment,86,↑,up,↑,0.4756540001835674,True,35,1
JK-K-21K21S1,469,experiment,80,→,right,→,0.6613950999453664,True,35,1
JK-K-21K21S1,470,experiment,71,→,right,→,0.619154600193724,True,35,1
JK-K-21K21S1,471,experiment,58,→,right,→,0.5668231998570263,True,35,1
JK-K-21K21S1,472,experiment,83,↑,up,↑,0.580131100025028,True,35,1
JK-K-21K21S1,473,experiment,98,↑,up,↑,0.6603749999776483,True,35,1
JK-K-21K21S1,474,experiment,69,↓,down,↓,0.6662437999621034,True,35,1
JK-K-21K21S1,475,experiment,97,↓,down,↓,0.743040599860251,True,35,1
JK-K-21K21S1,476,experiment,59,↓,down,↓,1.029360800050199,True,35,1
JK-K-21K21S1,477,experiment,60,→,right,→,0.6397651999723166,True,35,1
JK-K-21K21S1,478,experiment,65,↓,down,↓,0.6561112999916077,True,35,1
JK-K-21K21S1,479,experiment,96,↓,down,↓,0.7175241999793798,True,35,1
JK-K-21K21S1,480,experiment,66,↑,up,↑,0.9470391999930143,True,35,1
JK-K-21K21S1,481,experiment,72,→,right,→,0.748181999893859,True,35,1
JK-K-21K21S1,482,training,57,↑,down,↓,1.475321999983862,False,35,0
JK-K-21K21S1,483,training,65,→,right,→,0.6005273000337183,True,35,1
JK-K-21K21S1,484,experiment,58,←,left,←,0.6045667000580579,True,35,1
JK-K-21K21S1,485,experiment,74,↑,up,↑,0.6594666999299079,True,35,1
JK-K-21K21S1,486,experiment,106,→,right,→,0.6055461999494582,True,35,1
JK-K-21K21S1,487,experiment,83,↑,up,↑,0.5933687000069767,True,35,1
JK-K-21K21S1,488,experiment,66,↓,up,↑,0.7310372998472303,False,35,1
JK-K-21K21S1,489,experiment,96,↑,up,↑,0.6455269001889974,True,35,1
JK-K-21K21S1,490,experiment,93,←,left,←,0.8122979998588562,True,35,1
JK-K-21K21S1,491,experiment,90,←,left,←,0.6940776000265032,True,35,1
JK-K-21K21S1,492,experiment,62,→,left,←,0.8132797998841852,False,35,1
JK-K-21K21S1,493,experiment,105,↑,up,↑,0.6254832001868635,True,35,1
JK-K-21K21S1,494,experiment,50,→,right,→,0.5513133001513779,True,35,1
JK-K-21K21S1,495,experiment,94,←,left,←,0.64954650006257,True,35,1
JK-K-21K21S1,496,experiment,84,↓,up,↑,0.6275232001207769,False,35,1
JK-K-21K21S1,497,experiment,82,↑,up,↑,0.5425440000835806,True,35,1
JK-K-21K21S1,498,experiment,61,←,left,←,0.5968218001071364,True,35,1
JK-K-21K21S1,499,experiment,73,↑,up,↑,0.49208230013027787,True,35,1
JK-K-21K21S1,500,experiment,103,↑,up,↑,0.6698133999016136,True,35,1
JK-K-21K21S1,501,experiment,72,↓,down,↓,0.6347775000613183,True,35,1
JK-K-21K21S1,502,experiment,101,←,left,←,0.7353982001077384,True,35,1
JK-K-21K21S1,503,experiment,104,←,left,←,0.5831287999171764,True,35,1
JK-K-21K21S1,504,experiment,92,→,right,→,0.6247850998770446,True,35,1
JK-K-21K21S1,505,experiment,56,↓,down,↓,0.5890259000007063,True,35,1
JK-K-21K21S1,506,experiment,65,↓,up,↑,1.6792989000678062,False,35,1
JK-K-21K21S1,507,experiment,108,↓,down,↓,0.5678650999907404,True,35,1
JK-K-21K21S1,508,experiment,53,↑,up,↑,0.6877539998386055,True,35,1
JK-K-21K21S1,509,experiment,89,→,left,←,0.5415052999742329,False,35,1
JK-K-21K21S1,510,experiment,49,↑,up,↑,0.607358800014481,True,35,1
JK-K-21K21S1,511,experiment,81,↑,up,↑,0.6277532000094652,True,35,1
JK-K-21K21S1,512,experiment,77,↓,down,↓,0.7610619000624865,True,35,1
JK-K-21K21S1,513,experiment,68,→,right,→,0.6595201999880373,True,35,1
JK-K-21K21S1,514,experiment,79,↓,down,↓,0.6945764999836683,True,35,1
JK-K-21K21S1,515,experiment,91,↓,down,↓,0.5725078000687063,True,35,1
JK-K-21K21S1,516,experiment,100,↑,up,↑,0.5956853998359293,True,35,1
JK-K-21K21S1,517,experiment,64,←,left,←,0.742432399885729,True,35,1
JK-K-21K21S1,518,experiment,99,↓,down,↓,0.6555683000478894,True,35,1
JK-K-21K21S1,519,experiment,52,→,right,→,0.6916002999059856,True,35,1
JK-K-21K21S1,520,experiment,85,↑,down,↓,0.811039200052619,False,35,1
JK-K-21K21S1,521,experiment,54,↑,up,↑,0.6805672000627965,True,35,1
JK-K-21K21S1,522,experiment,48,←,left,←,0.6209268001839519,True,35,1
JK-K-21K21S1,523,experiment,102,↓,down,↓,0.5615771999582648,True,35,1
JK-K-21K21S1,524,experiment,57,→,right,→,0.6801135998684913,True,35,1
JK-K-21K21S1,525,experiment,88,↑,up,↑,0.647239999845624,True,35,1
JK-K-21K21S1,526,experiment,87,↓,down,↓,0.5758249999489635,True,35,1
JK-K-21K21S1,527,experiment,80,→,right,→,0.6619943000841886,True,35,1
JK-K-21K21S1,528,experiment,86,↓,down,↓,0.5346788000315428,True,35,1
JK-K-21K21S1,529,experiment,67,↓,down,↓,0.8186126998625696,True,35,1
JK-K-21K21S1,530,experiment,69,←,left,←,0.626681299880147,True,35,1
JK-K-21K21S1,531,experiment,97,→,up,↑,1.7853598000947386,False,35,1
JK-K-21K21S1,532,experiment,107,↑,up,↑,0.8458324000239372,True,35,1
JK-K-21K21S1,533,experiment,76,↑,up,↑,0.6184161000419408,True,35,1
JK-K-21K21S1,534,experiment,63,→,right,→,0.6844663000665605,True,35,1
JK-K-21K21S1,535,experiment,59,↓,down,↓,0.7330847999546677,True,35,1
JK-K-21K21S1,536,experiment,75,↑,up,↑,0.5825570998713374,True,35,1
JK-K-21K21S1,537,experiment,98,↑,up,↑,0.6142967999912798,True,35,1
JK-K-21K21S1,538,experiment,60,↑,down,↓,1.0094981999136508,False,35,1
JK-K-21K21S1,539,experiment,70,↑,up,↑,0.737303800182417,True,35,1
JK-K-21K21S1,540,experiment,51,↓,up,↑,0.699401100166142,False,35,1
JK-K-21K21S1,541,experiment,71,→,right,→,1.9267125998158008,True,35,1
JK-K-21K21S1,542,experiment,55,←,left,←,0.48710409994237125,True,35,1
JK-K-21K21S1,543,experiment,95,→,right,→,0.6360541000030935,True,35,1
JK-K-21K21S1,544,experiment,78,↓,up,↑,0.6477397999260575,False,35,1
JK-K-21K21S1,545,training,99,→,right,→,0.5730830000247806,True,35,0
JK-K-21K21S1,546,training,94,↑,up,↑,0.7666359001304954,True,35,1
JK-K-21K21S1,547,experiment,62,↓,down,↓,0.8428449998609722,True,35,1
JK-K-21K21S1,548,experiment,73,↓,down,↓,0.8404313998762518,True,35,1
JK-K-21K21S1,549,experiment,53,→,right,→,1.3171159999910742,True,35,1
JK-K-21K21S1,550,experiment,81,←,left,←,0.60504120006226,True,35,1
JK-K-21K21S1,551,experiment,64,→,left,←,1.0069912998005748,False,35,1
JK-K-21K21S1,552,experiment,85,↑,up,↑,0.5936602998990566,True,35,1
JK-K-21K21S1,553,experiment,106,→,right,→,0.7106069000437856,True,35,1
JK-K-21K21S1,554,experiment,78,↑,up,↑,0.5999638999346644,True,35,1
JK-K-21K21S1,555,experiment,49,↑,up,↑,0.7194046000950038,True,35,1
JK-K-21K21S1,556,experiment,98,↑,up,↑,0.6177242998965085,True,35,1
JK-K-21K21S1,557,experiment,52,→,right,→,0.6475993001367897,True,35,1
JK-K-21K21S1,558,experiment,102,↓,down,↓,0.691326699918136,True,35,1
JK-K-21K21S1,559,experiment,95,↓,down,↓,0.9677691999822855,True,35,1
JK-K-21K21S1,560,experiment,96,→,right,→,0.6167158999014646,True,35,1
JK-K-21K21S1,561,experiment,91,↓,down,↓,0.6092858999036252,True,35,1
JK-K-21K21S1,562,experiment,56,→,right,→,0.7660113999154419,True,35,1
JK-K-21K21S1,563,experiment,107,←,left,←,0.7475000000558794,True,35,1
JK-K-21K21S1,564,experiment,99,↓,down,↓,0.7241994999349117,True,35,1
JK-K-21K21S1,565,experiment,77,←,left,←,0.7569860999938101,True,35,1
JK-K-21K21S1,566,experiment,50,↓,down,↓,0.573764800094068,True,35,1
JK-K-21K21S1,567,experiment,83,↑,down,↓,0.8989987999666482,False,35,1
JK-K-21K21S1,568,experiment,58,←,left,←,0.7318271000403911,True,35,1
JK-K-21K21S1,569,experiment,69,→,right,→,0.6947921998798847,True,35,1
JK-K-21K21S1,570,experiment,93,↓,down,↓,0.6596858000848442,True,35,1
JK-K-21K21S1,571,experiment,103,↑,down,↓,0.7586842998862267,False,35,1
JK-K-21K21S1,572,experiment,54,↑,up,↑,0.6939600999467075,True,35,1
JK-K-21K21S1,573,experiment,59,↑,up,↑,0.7824441001284868,True,35,1
JK-K-21K21S1,574,experiment,57,←,left,←,0.6919373997952789,True,35,1
JK-K-21K21S1,575,experiment,87,←,left,←,0.5309502000454813,True,35,1
JK-K-21K21S1,576,experiment,97,↑,up,↑,0.653110499959439,True,35,1
JK-K-21K21S1,577,experiment,60,→,right,→,0.7667984000872821,True,35,1
JK-K-21K21S1,578,experiment,74,→,right,→,0.7191339998971671,True,35,1
JK-K-21K21S1,579,experiment,101,↑,up,↑,0.5603380999527872,True,35,1
JK-K-21K21S1,580,experiment,76,←,right,→,1.4168426000978798,False,35,1
JK-K-21K21S1,581,experiment,51,↓,down,↓,0.6064991999883205,True,35,1
JK-K-21K21S1,582,experiment,92,→,right,→,0.9831743000540882,True,35,1
JK-K-21K21S1,583,experiment,105,↓,down,↓,0.49272939981892705,True,35,1
JK-K-21K21S1,584,experiment,55,←,left,←,0.7023907999973744,True,35,1
JK-K-21K21S1,585,experiment,72,→,right,→,0.6818379000760615,True,35,1
JK-K-21K21S1,586,experiment,71,←,left,←,0.5503949001431465,True,35,1
JK-K-21K21S1,587,experiment,90,→,right,→,0.7063688000198454,True,35,1
JK-K-21K21S1,588,experiment,65,↑,up,↑,0.4962122000288218,True,35,1
JK-K-21K21S1,589,experiment,86,←,left,←,0.567223499994725,True,35,1
JK-K-21K21S1,590,experiment,61,↑,up,↑,0.6118623001966625,True,35,1
JK-K-21K21S1,591,experiment,70,↓,down,↓,0.6921238000504673,True,35,1
JK-K-21K21S1,592,experiment,63,→,left,←,0.5230841001030058,False,35,1
JK-K-21K21S1,593,experiment,82,↑,up,↑,1.682376699987799,True,35,1
JK-K-21K21S1,594,experiment,104,↑,up,↑,0.6441571998875588,True,35,1
JK-K-21K21S1,595,experiment,94,↑,down,↓,0.6585900001227856,False,35,1
JK-K-21K21S1,596,experiment,108,↓,down,↓,0.588064500130713,True,35,1
JK-K-21K21S1,597,experiment,84,↑,up,↑,0.7200828001368791,True,35,1
JK-K-21K21S1,598,experiment,68,↑,up,↑,1.2364131000358611,True,35,1
JK-K-21K21S1,599,experiment,89,↓,down,↓,0.7011812999844551,True,35,1
JK-K-21K21S1,600,experiment,48,←,left,←,0.5368569998536259,True,35,1
JK-K-21K21S1,601,experiment,75,→,right,→,0.610413399990648,True,35,1
JK-K-21K21S1,602,experiment,66,↑,up,↑,1.4118371000513434,True,35,1
JK-K-21K21S1,603,experiment,100,↑,up,↑,0.4976580999791622,True,35,1
JK-K-21K21S1,604,experiment,80,↓,down,↓,0.698375100037083,True,35,1
JK-K-21K21S1,605,experiment,67,↓,down,↓,0.5202430000063032,True,35,1
JK-K-21K21S1,606,experiment,79,↑,up,↑,0.5053675000090152,True,35,1
JK-K-21K21S1,607,experiment,88,↑,up,↑,0.9432971000205725,True,35,1
JK-K-21K21S1,608,training,88,←,left,←,1.036819700151682,True,34,0
JK-K-21K21S1,609,training,95,↑,up,↑,0.5396370999515057,True,34,1
JK-K-21K21S1,610,experiment,49,↑,up,↑,0.47730859997682273,True,34,1
JK-K-21K21S1,611,experiment,100,↓,down,↓,0.632693599909544,True,34,1
JK-K-21K21S1,612,experiment,99,↓,down,↓,0.6939418998081237,True,34,1
JK-K-21K21S1,613,experiment,48,←,left,←,0.78619429981336,True,34,1
JK-K-21K21S1,614,experiment,61,←,left,←,0.7343296001199633,True,34,1
JK-K-21K21S1,615,experiment,105,↑,up,↑,0.6136151000391692,True,34,1
JK-K-21K21S1,616,experiment,51,↓,down,↓,0.6677530000451952,True,34,1
JK-K-21K21S1,617,experiment,84,→,right,→,1.060546200023964,True,34,1
JK-K-21K21S1,618,experiment,65,→,right,→,0.5725616000127047,True,34,1
JK-K-21K21S1,619,experiment,85,→,right,→,0.4892056998796761,True,34,1
JK-K-21K21S1,620,experiment,59,↑,up,↑,0.57710440014489,True,34,1
JK-K-21K21S1,621,experiment,91,↑,down,↓,0.6034067999571562,False,34,1
JK-K-21K21S1,622,experiment,72,←,right,→,0.8911548999603838,False,34,1
JK-K-21K21S1,623,experiment,97,↑,up,↑,0.6389861998613924,True,34,1
JK-K-21K21S1,624,experiment,107,→,right,→,1.1451309998519719,True,34,1
JK-K-21K21S1,625,experiment,90,↓,down,↓,0.5491893000435084,True,34,1
JK-K-21K21S1,626,experiment,56,→,right,→,0.6602148001547903,True,34,1
JK-K-21K21S1,627,experiment,50,←,right,→,0.6649929999839514,False,34,1
JK-K-21K21S1,628,experiment,87,↑,up,↑,0.6410920999478549,True,34,1
JK-K-21K21S1,629,experiment,104,↑,up,↑,0.5483945000451058,True,34,1
JK-K-21K21S1,630,experiment,64,↓,down,↓,0.7048839998897165,True,34,1
JK-K-21K21S1,631,experiment,60,↓,down,↓,0.5285295997746289,True,34,1
JK-K-21K21S1,632,experiment,89,↓,down,↓,0.5735806999728084,True,34,1
JK-K-21K21S1,633,experiment,52,→,right,→,0.4854590999893844,True,34,1
JK-K-21K21S1,634,experiment,92,←,left,←,0.4667950998991728,True,34,1
JK-K-21K21S1,635,experiment,86,←,left,←,0.8271665000356734,True,34,1
JK-K-21K21S1,636,experiment,94,↑,up,↑,0.6187251000665128,True,34,1
JK-K-21K21S1,637,experiment,101,↓,down,↓,0.6960660999175161,True,34,1
JK-K-21K21S1,638,experiment,66,↓,down,↓,0.5422271001152694,True,34,1
JK-K-21K21S1,639,experiment,62,←,right,→,0.5950972998980433,False,34,1
JK-K-21K21S1,640,experiment,70,←,left,←,0.6521622999571264,True,34,1
JK-K-21K21S1,641,experiment,106,↓,down,↓,0.5663745000492781,True,34,1
JK-K-21K21S1,642,experiment,71,↓,down,↓,0.6637635000515729,True,34,1
JK-K-21K21S1,643,experiment,53,→,left,←,0.7631953998934478,False,34,1
JK-K-21K21S1,644,experiment,75,→,right,→,0.6434094000142068,True,34,1
JK-K-21K21S1,645,experiment,74,→,right,→,0.6566074998117983,True,34,1
JK-K-21K21S1,646,experiment,80,↑,up,↑,0.6273902000393718,True,34,1
JK-K-21K21S1,647,experiment,88,←,left,←,0.5490042997989804,True,34,1
JK-K-21K21S1,648,experiment,58,→,left,←,0.5230771000497043,False,34,1
JK-K-21K21S1,649,experiment,79,→,right,→,0.6676365998573601,True,34,1
JK-K-21K21S1,650,experiment,93,→,right,→,0.5618639001622796,True,34,1
JK-K-21K21S1,651,experiment,67,→,left,←,0.7567994999699295,False,34,1
JK-K-21K21S1,652,experiment,57,←,left,←,0.515016800025478,True,34,1
JK-K-21K21S1,653,experiment,68,←,left,←,0.671745500061661,True,34,1
JK-K-21K21S1,654,experiment,98,↓,down,↓,1.2675585001707077,True,34,1
JK-K-21K21S1,655,experiment,102,→,right,→,0.8383954998571426,True,34,1
JK-K-21K21S1,656,experiment,103,↓,up,↑,0.5942255998961627,False,34,1
JK-K-21K21S1,657,experiment,77,→,right,→,0.680477799847722,True,34,1
JK-K-21K21S1,658,experiment,96,→,right,→,0.5568368998356164,True,34,1
JK-K-21K21S1,659,experiment,63,→,right,→,0.6731608000118285,True,34,1
JK-K-21K21S1,660,experiment,55,↓,up,↑,0.7080075000412762,False,34,1
JK-K-21K21S1,661,experiment,83,←,left,←,0.6356454999186099,True,34,1
JK-K-21K21S1,662,experiment,76,↑,up,↑,0.6244804998859763,True,34,1
JK-K-21K21S1,663,experiment,81,↓,down,↓,0.6680995000060648,True,34,1
JK-K-21K21S1,664,experiment,108,←,left,←,0.6051761000417173,True,34,1
JK-K-21K21S1,665,experiment,82,→,right,→,0.6012566999997944,True,34,1
JK-K-21K21S1,666,experiment,78,↑,up,↑,0.5671522000338882,True,34,1
JK-K-21K21S1,667,experiment,73,→,left,←,0.4957578999456018,False,34,1
JK-K-21K21S1,668,experiment,69,↓,down,↓,0.6763655999675393,True,34,1
JK-K-21K21S1,669,experiment,54,↓,down,↓,0.559415299911052,True,34,1
JK-K-21K21S1,670,experiment,95,↑,up,↑,0.4575139000080526,True,34,1
JK-K-21K21S1,671,training,51,↓,down,↓,1.0462130999658257,True,34,0
JK-K-21K21S1,672,training,100,←,left,←,0.7066513998433948,True,34,1
JK-K-21K21S1,673,experiment,60,←,left,←,0.481995299924165,True,34,1
JK-K-21K21S1,674,experiment,89,→,right,→,0.6568036999087781,True,34,1
JK-K-21K21S1,675,experiment,74,↑,up,↑,0.5175401999149472,True,34,1
JK-K-21K21S1,676,experiment,67,→,right,→,0.6821956001222134,True,34,1
JK-K-21K21S1,677,experiment,82,↓,down,↓,0.4992596001829952,True,34,1
JK-K-21K21S1,678,experiment,79,→,right,→,0.5647291000932455,True,34,1
JK-K-21K21S1,679,experiment,101,→,right,→,0.4683304999489337,True,34,1
JK-K-21K21S1,680,experiment,102,↓,down,↓,0.6066645001992583,True,34,1
JK-K-21K21S1,681,experiment,94,→,right,→,0.6229681000113487,True,34,1
JK-K-21K21S1,682,experiment,85,←,right,→,0.4738054999615997,False,34,1
JK-K-21K21S1,683,experiment,91,←,left,←,0.7115406999364495,True,34,1
JK-K-21K21S1,684,experiment,95,→,right,→,0.5632847999222577,True,34,1
JK-K-21K21S1,685,experiment,93,←,left,←,0.6615021000616252,True,34,1
JK-K-21K21S1,686,experiment,92,←,left,←,0.5479957000352442,True,34,1
JK-K-21K21S1,687,experiment,73,→,left,←,0.9574873000383377,False,34,1
JK-K-21K21S1,688,experiment,97,↑,down,↓,0.8145770002156496,False,34,1
JK-K-21K21S1,689,experiment,70,↓,down,↓,0.606041599996388,True,34,1
JK-K-21K21S1,690,experiment,80,↓,down,↓,0.5707167000509799,True,34,1
JK-K-21K21S1,691,experiment,52,←,left,←,0.6262032999657094,True,34,1
JK-K-21K21S1,692,experiment,69,↓,down,↓,0.6097566999960691,True,34,1
JK-K-21K21S1,693,experiment,49,↑,up,↑,0.7130117998458445,True,34,1
JK-K-21K21S1,694,experiment,106,→,left,←,0.6486563000362366,False,34,1
JK-K-21K21S1,695,experiment,54,↓,down,↓,0.8684952999465168,True,34,1
JK-K-21K21S1,696,experiment,81,→,right,→,0.7026888001710176,True,34,1
JK-K-21K21S1,697,experiment,88,→,right,→,0.6450239000841975,True,34,1
JK-K-21K21S1,698,experiment,50,→,right,→,0.5782472998835146,True,34,1
JK-K-21K21S1,699,experiment,108,↓,down,↓,0.5828439998440444,True,34,1
JK-K-21K21S1,700,experiment,51,↑,up,↑,0.7104504001326859,True,34,1
JK-K-21K21S1,701,experiment,53,←,left,←,0.5680484001059085,True,34,1
JK-K-21K21S1,702,experiment,71,↑,up,↑,0.5857430999167264,True,34,1
JK-K-21K21S1,703,experiment,64,↑,up,↑,0.5805738000199199,True,34,1
JK-K-21K21S1,704,experiment,61,←,left,←,0.52069570007734,True,34,1
JK-K-21K21S1,705,experiment,104,→,right,→,0.6326552999671549,True,34,1
JK-K-21K21S1,706,experiment,77,↓,up,↑,0.7174377001356333,False,34,1
JK-K-21K21S1,707,experiment,58,↑,up,↑,0.6372105001937598,True,34,1
JK-K-21K21S1,708,experiment,56,↑,up,↑,0.5529059998225421,True,34,1
JK-K-21K21S1,709,experiment,98,→,right,→,0.9701612999197096,True,34,1
JK-K-21K21S1,710,experiment,78,↓,down,↓,0.6887258000206202,True,34,1
JK-K-21K21S1,711,experiment,86,→,right,→,0.7044986998662353,True,34,1
JK-K-21K21S1,712,experiment,48,←,left,←,0.6196451999712735,True,34,1
JK-K-21K21S1,713,experiment,57,↑,up,↑,0.5198488000314683,True,34,1
JK-K-21K21S1,714,experiment,72,↓,down,↓,0.7307808001060039,True,34,1
JK-K-21K21S1,715,experiment,99,↓,down,↓,0.6280980000738055,True,34,1
JK-K-21K21S1,716,experiment,75,←,left,←,0.7541443998925388,True,34,1
JK-K-21K21S1,717,experiment,90,↓,down,↓,0.63769769994542,True,34,1
JK-K-21K21S1,718,experiment,84,↑,up,↑,0.5837692997884005,True,34,1
JK-K-21K21S1,719,experiment,63,↑,up,↑,0.4612557999789715,True,34,1
JK-K-21K21S1,720,experiment,59,←,left,←,0.5245586999226362,True,34,1
JK-K-21K21S1,721,experiment,100,↑,up,↑,0.39364110003225505,True,34,1
JK-K-21K21S1,722,experiment,76,→,right,→,0.5965811000205576,True,34,0
JK-K-21K21S1,723,experiment,66,→,left,←,0.5663578999228776,False,34,1
JK-K-21K21S1,724,experiment,68,↑,up,↑,0.6575454999692738,True,34,1
JK-K-21K21S1,725,experiment,103,↓,down,↓,0.7002186998724937,True,34,1
JK-K-21K21S1,726,experiment,96,←,right,→,0.5037726999726146,False,34,1
JK-K-21K21S1,727,experiment,62,→,right,→,0.6866071000695229,True,34,1
JK-K-21K21S1,728,experiment,107,↑,up,↑,0.6873149999883026,True,34,1
JK-K-21K21S1,729,experiment,105,↓,down,↓,0.5523653998970985,True,34,1
JK-K-21K21S1,730,experiment,65,←,left,←,0.47663319995626807,True,34,1
JK-K-21K21S1,731,experiment,87,←,left,←,0.6441365000791848,True,34,1
JK-K-21K21S1,732,experiment,55,←,left,←,0.5918218998704106,True,34,1
JK-K-21K21S1,733,experiment,83,→,right,→,0.6763379999902099,True,34,1
JK-K-21K21S1,734,training,86,→,right,→,0.949571399949491,True,34,0
JK-K-21K21S1,735,training,86,→,right,→,0.562783099943772,True,34,1
JK-K-21K21S1,736,experiment,77,↓,down,↓,0.6420561000704765,True,34,1
JK-K-21K21S1,737,experiment,93,→,right,→,0.4650713000446558,True,34,1
JK-K-21K21S1,738,experiment,60,←,left,←,1.4340723999775946,True,34,1
JK-K-21K21S1,739,experiment,85,→,right,→,0.7162033000495285,True,34,1
JK-K-21K21S1,740,experiment,71,↓,down,↓,0.6875350000336766,True,34,1
JK-K-21K21S1,741,experiment,106,→,right,→,0.5209281002171338,True,34,1
JK-K-21K21S1,742,experiment,86,↑,up,↑,0.5581388000864536,True,34,1
JK-K-21K21S1,743,experiment,92,↑,up,↑,0.5289310000371188,True,34,1
JK-K-21K21S1,744,experiment,100,←,left,←,0.6104172999039292,True,34,1
JK-K-21K21S1,745,experiment,87,↑,up,↑,0.5488312998786569,True,34,1
JK-K-21K21S1,746,experiment,108,↓,down,↓,0.6582433001603931,True,34,1
JK-K-21K21S1,747,experiment,94,←,left,←,0.512508399784565,True,34,1
JK-K-21K21S1,748,experiment,66,←,left,←,0.7184263998642564,True,34,1
JK-K-21K21S1,749,experiment,65,↓,down,↓,0.6191965998150408,True,34,1
JK-K-21K21S1,750,experiment,48,↓,up,↑,0.714436300098896,False,34,1
JK-K-21K21S1,751,experiment,75,→,up,↑,0.7563353001605719,False,34,1
JK-K-21K21S1,752,experiment,69,↓,down,↓,0.7267028000205755,True,34,1
JK-K-21K21S1,753,experiment,62,→,right,→,0.6845774999819696,True,34,1
JK-K-21K21S1,754,experiment,83,↑,up,↑,0.597532199928537,True,34,1
JK-K-21K21S1,755,experiment,74,←,left,←,0.5005530999042094,True,34,1
JK-K-21K21S1,756,experiment,67,↑,up,↑,0.7379165000747889,True,34,1
JK-K-21K21S1,757,experiment,59,→,left,←,1.0483057999517769,False,34,1
JK-K-21K21S1,758,experiment,52,←,left,←,0.5090155999641865,True,34,1
JK-K-21K21S1,759,experiment,72,↑,up,↑,0.5601834000553936,True,34,1
JK-K-21K21S1,760,experiment,54,←,left,←,0.527552800020203,True,34,1
JK-K-21K21S1,761,experiment,73,←,left,←,0.521952599985525,True,34,1
JK-K-21K21S1,762,experiment,84,←,left,←,0.5205842999275774,True,34,1
JK-K-21K21S1,763,experiment,82,↓,down,↓,0.6004686001688242,True,34,1
JK-K-21K21S1,764,experiment,81,↑,up,↑,0.5491516999900341,True,34,1
JK-K-21K21S1,765,experiment,101,↓,down,↓,0.6529655000194907,True,34,1
JK-K-21K21S1,766,experiment,80,↓,down,↓,0.6488897001836449,True,34,1
JK-K-21K21S1,767,experiment,78,↑,up,↑,0.787971300072968,True,34,1
JK-K-21K21S1,768,experiment,99,↓,down,↓,0.6351209001149982,True,34,1
JK-K-21K21S1,769,experiment,95,←,left,←,0.513857499929145,True,34,1
JK-K-21K21S1,770,experiment,107,←,left,←,0.5450206000823528,True,34,1
JK-K-21K21S1,771,experiment,104,→,right,→,0.6245367000810802,True,34,1
JK-K-21K21S1,772,experiment,70,↑,up,↑,0.48017910006456077,True,34,1
JK-K-21K21S1,773,experiment,56,→,right,→,0.6575639001093805,True,34,1
JK-K-21K21S1,774,experiment,49,↑,up,↑,0.5026835999451578,True,34,1
JK-K-21K21S1,775,experiment,103,↓,left,←,0.6641911999322474,False,34,1
JK-K-21K21S1,776,experiment,61,↑,up,↑,1.112710600020364,True,34,1
JK-K-21K21S1,777,experiment,55,→,right,→,0.5456126001663506,True,34,1
JK-K-21K21S1,778,experiment,68,↓,down,↓,0.6846475000493228,True,34,1
JK-K-21K21S1,779,experiment,90,→,right,→,0.571425500093028,True,34,1
JK-K-21K21S1,780,experiment,79,←,left,←,0.6253941999748349,True,34,1
JK-K-21K21S1,781,experiment,102,←,left,←,0.6302805000450462,True,34,1
JK-K-21K21S1,782,experiment,63,→,right,→,0.6158636000473052,True,34,1
JK-K-21K21S1,783,experiment,58,↑,up,↑,0.6033656999934465,True,34,1
JK-K-21K21S1,784,experiment,51,←,left,←,0.5146133999805897,True,34,1
JK-K-21K21S1,785,experiment,89,↓,down,↓,0.7517568999901414,True,34,1
JK-K-21K21S1,786,experiment,91,←,right,→,0.7791165998205543,False,34,1
JK-K-21K21S1,787,experiment,98,↓,down,↓,0.6430183001793921,True,34,1
JK-K-21K21S1,788,experiment,64,↑,up,↑,0.5558308998588473,True,34,1
JK-K-21K21S1,789,experiment,88,→,right,→,0.543764199828729,True,34,1
JK-K-21K21S1,790,experiment,76,←,right,→,1.3284977998118848,False,34,1
JK-K-21K21S1,791,experiment,50,↑,up,↑,0.4746618999633938,True,34,1
JK-K-21K21S1,792,experiment,105,↑,up,↑,0.9404249999206513,True,34,1
JK-K-21K21S1,793,experiment,96,↑,up,↑,0.702331299893558,True,34,1
JK-K-21K21S1,794,experiment,53,↑,up,↑,0.7203609999269247,True,34,1
JK-K-21K21S1,795,experiment,97,↓,down,↓,0.5551239000633359,True,34,1
JK-K-21K21S1,796,experiment,57,↑,up,↑,0.5296127998735756,True,34,1
JK-K-21K21S1,797,training,89,→,right,→,1.3296518998686224,True,33,0
JK-K-21K21S1,798,training,82,↑,up,↑,0.9203455001115799,True,33,1
JK-K-21K21S1,799,experiment,98,↓,down,↓,0.6505233000498265,True,33,1
JK-K-21K21S1,800,experiment,76,↑,up,↑,0.4790658999700099,True,33,1
JK-K-21K21S1,801,experiment,85,↑,up,↑,0.4008641999680549,True,33,1
JK-K-21K21S1,802,experiment,68,→,left,←,0.38491919985972345,False,33,0
JK-K-21K21S1,803,experiment,61,↓,down,↓,0.5237277001142502,True,33,0
JK-K-21K21S1,804,experiment,72,→,right,→,0.4864673998672515,True,33,1
JK-K-21K21S1,805,experiment,96,→,right,→,0.7554252000991255,True,33,1
JK-K-21K21S1,806,experiment,67,→,right,→,0.7024163999594748,True,33,1
JK-K-21K21S1,807,experiment,94,↑,up,↑,0.49874589988030493,True,33,1
JK-K-21K21S1,808,experiment,48,↓,down,↓,0.4943123001139611,True,33,1
JK-K-21K21S1,809,experiment,102,↓,down,↓,0.544569400139153,True,33,1
JK-K-21K21S1,810,experiment,88,→,right,→,0.5892959001939744,True,33,1
JK-K-21K21S1,811,experiment,78,↓,down,↓,0.5071733000222594,True,33,1
JK-K-21K21S1,812,experiment,93,→,right,→,0.479651500005275,True,33,1
JK-K-21K21S1,813,experiment,105,←,left,←,0.5049206998664886,True,33,1
JK-K-21K21S1,814,experiment,80,↓,down,↓,0.6015236999373883,True,33,1
JK-K-21K21S1,815,experiment,82,→,right,→,0.5102733001112938,True,33,1
JK-K-21K21S1,816,experiment,65,←,left,←,0.49183840001933277,True,33,1
JK-K-21K21S1,817,experiment,63,↑,down,↓,0.643081699963659,False,33,1
JK-K-21K21S1,818,experiment,90,←,left,←,0.5790740998927504,True,33,1
JK-K-21K21S1,819,experiment,50,↓,down,↓,0.6751023000106215,True,33,1
JK-K-21K21S1,820,experiment,108,→,right,→,0.4757411000318825,True,33,1
JK-K-21K21S1,821,experiment,95,↓,down,↓,0.5849732998758554,True,33,1
JK-K-21K21S1,822,experiment,71,↑,up,↑,0.47359440010041,True,33,1
JK-K-21K21S1,823,experiment,62,→,right,→,0.5295957000926137,True,33,1
JK-K-21K21S1,824,experiment,83,→,right,→,0.5207353997975588,True,33,1
JK-K-21K21S1,825,experiment,53,→,right,→,0.4902896999847144,True,33,1
JK-K-21K21S1,826,experiment,69,←,left,←,0.7113652999978513,True,33,1
JK-K-21K21S1,827,experiment,59,←,left,←,0.5588879000861198,True,33,1
JK-K-21K21S1,828,experiment,74,↑,up,↑,0.6157249000389129,True,33,1
JK-K-21K21S1,829,experiment,70,→,right,→,0.49543499993160367,True,33,1
JK-K-21K21S1,830,experiment,75,↓,down,↓,0.4903858001343906,True,33,1
JK-K-21K21S1,831,experiment,86,↑,up,↑,0.7137804999947548,True,33,1
JK-K-21K21S1,832,experiment,107,↓,down,↓,0.6248198000248522,True,33,1
JK-K-21K21S1,833,experiment,79,←,left,←,0.4541251000482589,True,33,1
JK-K-21K21S1,834,experiment,101,↓,down,↓,0.6330003999173641,True,33,1
JK-K-21K21S1,835,experiment,64,↑,up,↑,1.9219672000035644,True,33,1
JK-K-21K21S1,836,experiment,99,↑,up,↑,0.5481039001606405,True,33,1
JK-K-21K21S1,837,experiment,84,↓,down,↓,0.6016581000294536,True,33,1
JK-K-21K21S1,838,experiment,49,↓,up,↑,0.6492383000440896,False,33,1
JK-K-21K21S1,839,experiment,81,↓,down,↓,0.5480017000809312,True,33,1
JK-K-21K21S1,840,experiment,104,↑,up,↑,0.5387720998842269,True,33,1
JK-K-21K21S1,841,experiment,51,↓,down,↓,0.5319310000631958,True,33,1
JK-K-21K21S1,842,experiment,73,↑,up,↑,0.42576440004631877,True,33,1
JK-K-21K21S1,843,experiment,55,↓,down,↓,0.5622596000321209,True,33,0
JK-K-21K21S1,844,experiment,52,↓,down,↓,0.6581578999757767,True,33,1
JK-K-21K21S1,845,experiment,103,↓,down,↓,0.5652380001265556,True,33,1
JK-K-21K21S1,846,experiment,57,↑,up,↑,0.4757425000425428,True,33,1
JK-K-21K21S1,847,experiment,87,←,left,←,0.6587540998589247,True,33,1
JK-K-21K21S1,848,experiment,60,←,left,←,0.5324303000234067,True,33,1
JK-K-21K21S1,849,experiment,54,→,right,→,0.45362940011546016,True,33,1
JK-K-21K21S1,850,experiment,91,←,left,←,0.47597719985060394,True,33,1
JK-K-21K21S1,851,experiment,92,↓,down,↓,0.5299976000096649,True,33,1
JK-K-21K21S1,852,experiment,66,↓,down,↓,0.7026692999061197,True,33,1
JK-K-21K21S1,853,experiment,89,↓,up,↑,0.692649699980393,False,33,1
JK-K-21K21S1,854,experiment,106,↓,left,←,0.4176305001601577,False,33,1
JK-K-21K21S1,855,experiment,100,↓,down,↓,0.626828599954024,True,33,0
JK-K-21K21S1,856,experiment,97,←,left,←,0.4972002999857068,True,33,1
JK-K-21K21S1,857,experiment,58,↑,up,↑,0.6096707000397146,True,33,1
JK-K-21K21S1,858,experiment,77,↓,down,↓,0.7833634000271559,True,33,1
JK-K-21K21S1,859,experiment,56,↓,up,↑,0.7012555000837892,False,33,1
JK-K-21K21S1,860,training,65,↑,up,↑,1.0802493998780847,True,32,0
JK-K-21K21S1,861,training,105,↑,down,↓,0.6576420001219958,False,32,1
JK-K-21K21S1,862,experiment,91,↑,up,↑,0.5285229000728577,True,32,1
JK-K-21K21S1,863,experiment,57,→,right,→,0.552483499981463,True,32,1
JK-K-21K21S1,864,experiment,76,←,left,←,0.5766106999944896,True,32,1
JK-K-21K21S1,865,experiment,87,↓,down,↓,0.46063499990850687,True,32,1
JK-K-21K21S1,866,experiment,81,→,right,→,0.5429932998958975,True,32,1
JK-K-21K21S1,867,experiment,50,→,right,→,0.6882048000115901,True,32,1
JK-K-21K21S1,868,experiment,90,↓,down,↓,0.5745411000680178,True,32,1
JK-K-21K21S1,869,experiment,63,←,left,←,0.586238999851048,True,32,1
JK-K-21K21S1,870,experiment,60,←,right,→,0.5429201999213547,False,32,1
JK-K-21K21S1,871,experiment,55,↑,up,↑,0.5186785999685526,True,32,1
JK-K-21K21S1,872,experiment,67,←,left,←,0.409084000159055,True,32,1
JK-K-21K21S1,873,experiment,48,→,right,→,0.8980286000296474,True,32,1
JK-K-21K21S1,874,experiment,58,↑,up,↑,0.48250539996661246,True,32,1
JK-K-21K21S1,875,experiment,61,→,left,←,0.6182738998904824,False,32,1
JK-K-21K21S1,876,experiment,65,→,right,→,0.4599965000525117,True,32,1
JK-K-21K21S1,877,experiment,56,↓,down,↓,0.5026642999146134,True,32,1
JK-K-21K21S1,878,experiment,69,↑,up,↑,0.7155075999908149,True,32,1
JK-K-21K21S1,879,experiment,93,↑,up,↑,0.6241931000258774,True,32,1
JK-K-21K21S1,880,experiment,97,↑,up,↑,0.5585052999667823,True,32,1
JK-K-21K21S1,881,experiment,98,←,left,←,0.47882300009950995,True,32,1
JK-K-21K21S1,882,experiment,80,→,right,→,0.488235600059852,True,32,1
JK-K-21K21S1,883,experiment,72,→,right,→,0.6123540999833494,True,32,1
JK-K-21K21S1,884,experiment,102,←,left,←,0.7213434998411685,True,32,1
JK-K-21K21S1,885,experiment,71,→,left,←,0.6522661000490189,False,32,1
JK-K-21K21S1,886,experiment,79,↑,up,↑,0.4720266000367701,True,32,1
JK-K-21K21S1,887,experiment,83,↑,up,↑,0.48088870011270046,True,32,1
JK-K-21K21S1,888,experiment,92,↑,up,↑,0.5748297998216003,True,32,1
JK-K-21K21S1,889,experiment,95,←,left,←,0.45588600006885827,True,32,1
JK-K-21K21S1,890,experiment,100,←,left,←,0.5236550997942686,True,32,1
JK-K-21K21S1,891,experiment,53,→,right,→,0.6613318000454456,True,32,1
JK-K-21K21S1,892,experiment,54,←,left,←,0.7680457998067141,True,32,1
JK-K-21K21S1,893,experiment,78,←,left,←,0.5674914000555873,True,32,1
JK-K-21K21S1,894,experiment,51,→,right,→,1.3113767998293042,True,32,1
JK-K-21K21S1,895,experiment,84,↓,down,↓,0.7748335998039693,True,32,1
JK-K-21K21S1,896,experiment,52,↓,down,↓,0.5266617999877781,True,32,1
JK-K-21K21S1,897,experiment,59,←,left,←,0.5492561999708414,True,32,1
JK-K-21K21S1,898,experiment,96,←,left,←,0.7509235998149961,True,32,1
JK-K-21K21S1,899,experiment,101,←,left,←,0.4948927001096308,True,32,1
JK-K-21K21S1,900,experiment,88,→,left,←,0.813669899944216,False,32,1
JK-K-21K21S1,901,experiment,74,←,left,←,0.5959658999927342,True,32,1
JK-K-21K21S1,902,experiment,70,→,left,←,0.7890085000544786,False,32,1
JK-K-21K21S1,903,experiment,108,↓,down,↓,0.6963752000592649,True,32,1
JK-K-21K21S1,904,experiment,49,↑,up,↑,0.779732899973169,True,32,1
JK-K-21K21S1,905,experiment,89,→,right,→,0.8385258999187499,True,32,1
JK-K-21K21S1,906,experiment,104,↑,up,↑,0.5056274998933077,True,32,1
JK-K-21K21S1,907,experiment,86,←,left,←,1.8644526000134647,True,32,1
JK-K-21K21S1,908,experiment,99,↓,down,↓,0.5084157001692802,True,32,1
JK-K-21K21S1,909,experiment,107,→,right,→,0.5160729000344872,True,32,1
JK-K-21K21S1,910,experiment,77,↑,up,↑,0.5976753002032638,True,32,1
JK-K-21K21S1,911,experiment,75,↑,up,↑,0.5242723999544978,True,32,1
JK-K-21K21S1,912,experiment,62,↓,down,↓,0.5704187001101673,True,32,1
JK-K-21K21S1,913,experiment,66,←,left,←,0.7578163999132812,True,32,1
JK-K-21K21S1,914,experiment,85,→,right,→,0.5225792999844998,True,32,1
JK-K-21K21S1,915,experiment,64,←,no_key,no_letter,-1.0,False,32,1
JK-K-21K21S1,916,experiment,73,→,left,←,0.6338959999848157,False,32,1
JK-K-21K21S1,917,experiment,82,→,right,→,0.7007863998878747,True,32,1
JK-K-21K21S1,918,experiment,94,→,right,→,0.601112199947238,True,32,1
JK-K-21K21S1,919,experiment,106,↑,up,↑,0.6054722999688238,True,32,1
JK-K-21K21S1,920,experiment,105,→,right,→,0.6258185000624508,True,32,1
JK-K-21K21S1,921,experiment,68,←,left,←,0.48993430007249117,True,32,1
JK-K-21K21S1,922,experiment,103,↑,up,↑,0.443655600072816,True,32,1
JK-K-21K21S1,923,training,74,←,left,←,1.0160586000420153,True,32,0
JK-K-21K21S1,924,training,64,←,left,←,0.44234189996495843,True,32,1
JK-K-21K21S1,925,experiment,84,→,right,→,0.7154759999830276,True,32,1
JK-K-21K21S1,926,experiment,59,↑,left,←,0.8188066000584513,False,32,1
JK-K-21K21S1,927,experiment,96,↓,down,↓,0.6256663000676781,True,32,1
JK-K-21K21S1,928,experiment,55,←,left,←,0.4466987999621779,True,32,1
JK-K-21K21S1,929,experiment,65,←,left,←,0.4781275999266654,True,32,1
JK-K-21K21S1,930,experiment,98,↓,down,↓,0.5622761000413448,True,32,1
JK-K-21K21S1,931,experiment,100,↑,up,↑,0.6743598999455571,True,32,1
JK-K-21K21S1,932,experiment,54,↑,up,↑,0.6696643999312073,True,32,1
JK-K-21K21S1,933,experiment,95,↓,down,↓,0.49869779986329377,True,32,1
JK-K-21K21S1,934,experiment,99,↑,up,↑,0.4693671001587063,True,32,1
JK-K-21K21S1,935,experiment,90,←,left,←,0.5801913999021053,True,32,1
JK-K-21K21S1,936,experiment,79,←,left,←,0.5864270001184195,True,32,1
JK-K-21K21S1,937,experiment,76,→,right,→,0.6334919000510126,True,32,1
JK-K-21K21S1,938,experiment,73,↓,up,↑,0.727595099946484,False,32,1
JK-K-21K21S1,939,experiment,78,←,left,←,0.5363671998493373,True,32,1
JK-K-21K21S1,940,experiment,71,↑,up,↑,0.5629139000084251,True,32,1
JK-K-21K21S1,941,experiment,105,→,right,→,0.48888860014267266,True,32,1
JK-K-21K21S1,942,experiment,60,←,right,→,0.7449491999577731,False,32,1
JK-K-21K21S1,943,experiment,83,↑,up,↑,0.5114609999582171,True,32,1
JK-K-21K21S1,944,experiment,101,↑,up,↑,0.5933077998925,True,32,1
JK-K-21K21S1,945,experiment,102,↓,down,↓,0.8310438001062721,True,32,1
JK-K-21K21S1,946,experiment,92,→,right,→,0.510996300028637,True,32,1
JK-K-21K21S1,947,experiment,82,←,left,←,0.5827901000156999,True,32,1
JK-K-21K21S1,948,experiment,104,←,left,←,0.5964724000077695,True,32,1
JK-K-21K21S1,949,experiment,93,→,right,→,0.5731282001361251,True,32,1
JK-K-21K21S1,950,experiment,66,←,right,→,0.7039882999379188,False,32,1
JK-K-21K21S1,951,experiment,85,↑,no_key,no_letter,-1.0,False,32,1
JK-K-21K21S1,952,experiment,88,←,left,←,0.7320609998423606,True,32,1
JK-K-21K21S1,953,experiment,67,↑,up,↑,0.5518495000433177,True,32,1
JK-K-21K21S1,954,experiment,48,→,right,→,0.6417617001570761,True,32,1
JK-K-21K21S1,955,experiment,91,↓,down,↓,0.5053431000560522,True,32,1
JK-K-21K21S1,956,experiment,69,←,left,←,0.5659235999919474,True,32,1
JK-K-21K21S1,957,experiment,51,↓,down,↓,0.6140970999840647,True,32,1
JK-K-21K21S1,958,experiment,62,←,left,←,0.5282183999661356,True,32,1
JK-K-21K21S1,959,experiment,108,↓,down,↓,0.566956700058654,True,32,1
JK-K-21K21S1,960,experiment,57,↓,down,↓,0.5331853998359293,True,32,1
JK-K-21K21S1,961,experiment,58,↑,up,↑,0.524354699999094,True,32,1
JK-K-21K21S1,962,experiment,89,↓,down,↓,0.48925390001386404,True,32,1
JK-K-21K21S1,963,experiment,103,↓,down,↓,0.5391162000596523,True,32,1
JK-K-21K21S1,964,experiment,81,↓,down,↓,0.5702031999826431,True,32,1
JK-K-21K21S1,965,experiment,52,↑,up,↑,0.4739930999930948,True,32,1
JK-K-21K21S1,966,experiment,94,←,left,←,0.519128399901092,True,32,1
JK-K-21K21S1,967,experiment,68,←,left,←,0.611583000048995,True,32,1
JK-K-21K21S1,968,experiment,61,↓,down,↓,0.48680520011112094,True,32,1
JK-K-21K21S1,969,experiment,97,→,right,→,0.6027500000782311,True,32,1
JK-K-21K21S1,970,experiment,56,→,right,→,0.7599774999544024,True,32,1
JK-K-21K21S1,971,experiment,70,↓,right,→,0.7859516001772135,False,32,1
JK-K-21K21S1,972,experiment,86,→,right,→,0.4775501999538392,True,32,1
JK-K-21K21S1,973,experiment,106,↑,up,↑,0.4709214000031352,True,32,1
JK-K-21K21S1,974,experiment,107,→,right,→,0.6160921999253333,True,32,1
JK-K-21K21S1,975,experiment,50,→,right,→,0.5023582999128848,True,32,1
JK-K-21K21S1,976,experiment,53,↑,right,→,0.6883771000429988,False,32,1
JK-K-21K21S1,977,experiment,75,→,right,→,0.5474766998086125,True,32,1
JK-K-21K21S1,978,experiment,80,→,right,→,0.44310760009102523,True,32,1
JK-K-21K21S1,979,experiment,87,→,left,←,0.6598342000506818,False,32,1
JK-K-21K21S1,980,experiment,72,↑,up,↑,0.513119800016284,True,32,1
JK-K-21K21S1,981,experiment,74,↑,up,↑,0.46792379999533296,True,32,1
JK-K-21K21S1,982,experiment,77,→,right,→,0.5432576998136938,True,32,1
JK-K-21K21S1,983,experiment,49,→,right,→,0.5209733999799937,True,32,1
JK-K-21K21S1,984,experiment,63,↑,left,←,0.3922365999314934,False,32,1
JK-K-21K21S1,985,experiment,64,←,left,←,0.5773116999771446,True,32,0
JK-K-21K21S1,986,training,56,↑,up,↑,0.9517709999345243,True,32,0
JK-K-21K21S1,987,training,71,→,right,→,0.5056703998707235,True,32,1
JK-K-21K21S1,988,experiment,77,→,right,→,0.49932279996573925,True,32,1
JK-K-21K21S1,989,experiment,106,→,right,→,0.6195902999024838,True,32,1
JK-K-21K21S1,990,experiment,81,→,right,→,0.6237512000370771,True,32,1
JK-K-21K21S1,991,experiment,76,→,right,→,0.47775560012087226,True,32,1
JK-K-21K21S1,992,experiment,84,↑,up,↑,0.5259227000642568,True,32,1
JK-K-21K21S1,993,experiment,79,↓,down,↓,0.6619657999835908,True,32,1
JK-K-21K21S1,994,experiment,104,↑,up,↑,0.48058420000597835,True,32,1
JK-K-21K21S1,995,experiment,52,→,right,→,0.523722100071609,True,32,1
JK-K-21K21S1,996,experiment,108,→,right,→,0.5382997998967767,True,32,1
JK-K-21K21S1,997,experiment,51,↓,up,↑,0.49946550000458956,False,32,1
JK-K-21K21S1,998,experiment,87,←,left,←,0.5062531000003219,True,32,1
JK-K-21K21S1,999,experiment,67,↓,down,↓,0.4634272998664528,True,32,1
JK-K-21K21S1,1000,experiment,56,←,left,←,0.4739121999591589,True,32,1
JK-K-21K21S1,1001,experiment,93,↓,down,↓,0.6552670001983643,True,32,1
JK-K-21K21S1,1002,experiment,65,↓,down,↓,0.5272288999985904,True,32,1
JK-K-21K21S1,1003,experiment,55,↑,up,↑,0.4719150001183152,True,32,1
JK-K-21K21S1,1004,experiment,96,→,right,→,0.5169612001627684,True,32,1
JK-K-21K21S1,1005,experiment,95,→,right,→,0.631875499850139,True,32,1
JK-K-21K21S1,1006,experiment,71,←,left,←,0.838463099906221,True,32,1
JK-K-21K21S1,1007,experiment,59,↑,up,↑,0.5129871000535786,True,32,1
JK-K-21K21S1,1008,experiment,90,↑,up,↑,0.4625181001611054,True,32,1
JK-K-21K21S1,1009,experiment,107,↓,down,↓,0.4174295000266284,True,32,1
JK-K-21K21S1,1010,experiment,98,↑,down,↓,0.7255777001846582,False,32,0
JK-K-21K21S1,1011,experiment,64,↑,up,↑,0.6672276998870075,True,32,1
JK-K-21K21S1,1012,experiment,70,→,right,→,0.4967849999666214,True,32,1
JK-K-21K21S1,1013,experiment,68,↓,down,↓,0.4937633001245558,True,32,1
JK-K-21K21S1,1014,experiment,92,←,left,←,0.7792864998336881,True,32,1
JK-K-21K21S1,1015,experiment,102,↓,down,↓,0.4975987998768687,True,32,1
JK-K-21K21S1,1016,experiment,78,↓,down,↓,0.7072503999806941,True,32,1
JK-K-21K21S1,1017,experiment,75,↓,down,↓,0.5255352999083698,True,32,1
JK-K-21K21S1,1018,experiment,66,←,left,←,0.8823831998743117,True,32,1
JK-K-21K21S1,1019,experiment,86,→,left,←,0.650512200081721,False,32,1
JK-K-21K21S1,1020,experiment,72,→,left,←,0.5918397998902947,False,32,1
JK-K-21K21S1,1021,experiment,54,←,left,←,0.5819786000065506,True,32,1
JK-K-21K21S1,1022,experiment,82,↓,down,↓,0.6190566001459956,True,32,1
JK-K-21K21S1,1023,experiment,97,↑,down,↓,0.7696599001064897,False,32,1
JK-K-21K21S1,1024,experiment,58,↓,down,↓,0.54342220001854,True,32,1
JK-K-21K21S1,1025,experiment,48,↑,up,↑,0.6736601998563856,True,32,1
JK-K-21K21S1,1026,experiment,53,→,right,→,0.6125360000878572,True,32,1
JK-K-21K21S1,1027,experiment,85,↓,down,↓,0.6155361998826265,True,32,1
JK-K-21K21S1,1028,experiment,62,←,left,←,0.5538117999676615,True,32,1
JK-K-21K21S1,1029,experiment,103,→,right,→,0.6650749000255018,True,32,1
JK-K-21K21S1,1030,experiment,88,←,left,←,0.6167907998897135,True,32,1
JK-K-21K21S1,1031,experiment,105,→,right,→,0.5168210999108851,True,32,1
JK-K-21K21S1,1032,experiment,91,↓,up,↑,0.7617104998789728,False,32,1
JK-K-21K21S1,1033,experiment,83,↓,down,↓,0.5591324002016336,True,32,1
JK-K-21K21S1,1034,experiment,94,→,right,→,0.48131840000860393,True,32,1
JK-K-21K21S1,1035,experiment,63,←,left,←,0.5129231000319123,True,32,1
JK-K-21K21S1,1036,experiment,99,↓,down,↓,0.5467138001695275,True,32,1
JK-K-21K21S1,1037,experiment,49,←,right,→,0.5881795000750571,False,32,1
JK-K-21K21S1,1038,experiment,89,→,right,→,0.5187121001072228,True,32,1
JK-K-21K21S1,1039,experiment,74,↑,up,↑,1.6248688001651317,True,32,1
JK-K-21K21S1,1040,experiment,60,→,right,→,0.45985740004107356,True,32,1
JK-K-21K21S1,1041,experiment,100,↓,up,↑,0.5360838999040425,False,32,1
JK-K-21K21S1,1042,experiment,73,←,no_key,no_letter,-1.0,False,32,1
JK-K-21K21S1,1043,experiment,57,→,right,→,0.6729142998810858,True,32,1
JK-K-21K21S1,1044,experiment,69,←,left,←,0.5425682000350207,True,32,1
JK-K-21K21S1,1045,experiment,50,→,left,←,0.5126136001199484,False,32,1
JK-K-21K21S1,1046,experiment,61,←,left,←,0.4171659001149237,True,32,1
JK-K-21K21S1,1047,experiment,101,↑,up,↑,0.5800022000912577,True,32,0
JK-K-21K21S1,1048,experiment,80,→,right,→,0.4818951999768615,True,32,1
JK-K-21K21S1,1049,training,79,↑,up,↑,0.5819520999211818,True,32,0
JK-K-21K21S1,1050,training,73,↑,up,↑,0.6462125000543892,True,32,1
JK-K-21K21S1,1051,experiment,65,←,left,←,0.518168400041759,True,32,1
JK-K-21K21S1,1052,experiment,104,←,left,←,0.6465010000392795,True,32,1
JK-K-21K21S1,1053,experiment,77,←,left,←,1.3949248001445085,True,32,1
JK-K-21K21S1,1054,experiment,83,↑,up,↑,0.5672054002061486,True,32,1
JK-K-21K21S1,1055,experiment,89,↓,down,↓,0.5066296998411417,True,32,1
JK-K-21K21S1,1056,experiment,72,↑,up,↑,0.48582389997318387,True,32,1
JK-K-21K21S1,1057,experiment,81,←,left,←,0.496096899965778,True,32,1
JK-K-21K21S1,1058,experiment,106,↑,up,↑,0.47171069984324276,True,32,1
JK-K-21K21S1,1059,experiment,107,↑,up,↑,0.4013253999873996,True,32,1
JK-K-21K21S1,1060,experiment,70,→,right,→,0.6885221998672932,True,32,0
JK-K-21K21S1,1061,experiment,63,↓,up,↑,0.6716541999485344,False,32,1
JK-K-21K21S1,1062,experiment,88,↓,up,↑,0.623329599853605,False,32,1
JK-K-21K21S1,1063,experiment,68,→,right,→,0.559358999831602,True,32,1
JK-K-21K21S1,1064,experiment,105,→,right,→,0.47001329995691776,True,32,1
JK-K-21K21S1,1065,experiment,78,↑,up,↑,0.60078309988603,True,32,1
JK-K-21K21S1,1066,experiment,84,←,left,←,0.7247124998830259,True,32,1
JK-K-21K21S1,1067,experiment,86,↓,down,↓,1.1786940000019968,True,32,1
JK-K-21K21S1,1068,experiment,102,←,left,←,0.6492118998430669,True,32,1
JK-K-21K21S1,1069,experiment,74,→,no_key,no_letter,-1.0,False,32,1
JK-K-21K21S1,1070,experiment,50,→,right,→,0.4720137999393046,True,32,1
JK-K-21K21S1,1071,experiment,66,↑,up,↑,0.56657709996216,True,32,1
JK-K-21K21S1,1072,experiment,97,↓,left,←,0.6074163001030684,False,32,1
JK-K-21K21S1,1073,experiment,96,↑,up,↑,0.6145579000003636,True,32,1
JK-K-21K21S1,1074,experiment,64,↓,up,↑,0.6003569001331925,False,32,1
JK-K-21K21S1,1075,experiment,55,→,right,→,0.5176154000218958,True,32,1
JK-K-21K21S1,1076,experiment,100,↑,up,↑,0.40072689997032285,True,32,1
JK-K-21K21S1,1077,experiment,58,↑,up,↑,0.6358311998192221,True,32,0
JK-K-21K21S1,1078,experiment,93,↓,down,↓,0.5949244000948966,True,32,1
JK-K-21K21S1,1079,experiment,79,→,right,→,0.4808566998690367,True,32,1
JK-K-21K21S1,1080,experiment,59,↑,up,↑,0.4095765999518335,True,32,1
JK-K-21K21S1,1081,experiment,90,→,right,→,0.666571700014174,True,32,0
JK-K-21K21S1,1082,experiment,87,←,right,→,0.5305882000830024,False,32,1
JK-K-21K21S1,1083,experiment,85,→,no_key,no_letter,-1.0,False,32,1
JK-K-21K21S1,1084,experiment,61,→,right,→,0.5427123999688774,True,32,1
JK-K-21K21S1,1085,experiment,108,↓,down,↓,0.7404493999201804,True,32,1
JK-K-21K21S1,1086,experiment,95,↑,down,↓,0.7270134999416769,False,32,1
JK-K-21K21S1,1087,experiment,91,↓,down,↓,0.4750763000920415,True,32,1
JK-K-21K21S1,1088,experiment,69,↓,down,↓,0.737005400005728,True,32,1
JK-K-21K21S1,1089,experiment,76,↑,up,↑,0.6900512999854982,True,32,1
JK-K-21K21S1,1090,experiment,57,↑,up,↑,0.579347399994731,True,32,1
JK-K-21K21S1,1091,experiment,92,←,left,←,0.5568568999879062,True,32,1
JK-K-21K21S1,1092,experiment,82,→,right,→,0.5229209999088198,True,32,1
JK-K-21K21S1,1093,experiment,52,→,right,→,0.5323423000518233,True,32,1
JK-K-21K21S1,1094,experiment,53,←,left,←,0.5330511999782175,True,32,1
JK-K-21K21S1,1095,experiment,62,↓,down,↓,0.7228019000031054,True,32,1
JK-K-21K21S1,1096,experiment,75,↑,up,↑,1.2363950998988003,True,32,1
JK-K-21K21S1,1097,experiment,48,→,right,→,0.6348501997999847,True,32,1
JK-K-21K21S1,1098,experiment,56,→,right,→,0.4706465001218021,True,32,1
JK-K-21K21S1,1099,experiment,67,←,left,←,0.45340620004571974,True,32,1
JK-K-21K21S1,1100,experiment,60,←,left,←,0.5267882000189275,True,32,1
JK-K-21K21S1,1101,experiment,71,↑,up,↑,0.6898761999327689,True,32,1
JK-K-21K21S1,1102,experiment,80,→,left,←,0.48376269987784326,False,32,1
JK-K-21K21S1,1103,experiment,73,↓,down,↓,0.6153315999545157,True,32,1
JK-K-21K21S1,1104,experiment,103,→,right,→,0.5639673999976367,True,32,1
JK-K-21K21S1,1105,experiment,101,↑,right,→,0.5636468001175672,False,32,1
JK-K-21K21S1,1106,experiment,98,←,left,←,0.5478028000798076,True,32,1
JK-K-21K21S1,1107,experiment,54,↑,up,↑,0.6436318000778556,True,32,1
JK-K-21K21S1,1108,experiment,51,←,left,←,0.5526693998835981,True,32,1
JK-K-21K21S1,1109,experiment,94,←,left,←,0.4088775999844074,True,32,1
JK-K-21K21S1,1110,experiment,49,↓,up,↑,0.6737677999772131,False,32,0
JK-K-21K21S1,1111,experiment,99,↓,down,↓,0.7417379000689834,True,32,1
JK-K-21K21S1,1112,training,69,↓,down,↓,0.9103586000856012,True,32,0
JK-K-21K21S1,1113,training,50,←,right,→,0.7135664999950677,False,32,1
JK-K-21K21S1,1114,experiment,92,←,left,←,0.4539554000366479,True,32,1
JK-K-21K21S1,1115,experiment,64,←,left,←,0.6545454999431968,True,32,1
JK-K-21K21S1,1116,experiment,99,↓,down,↓,0.46660150005482137,True,32,1
JK-K-21K21S1,1117,experiment,88,↑,up,↑,0.3931752999778837,True,32,1
JK-K-21K21S1,1118,experiment,78,→,right,→,0.504020299995318,True,32,0
JK-K-21K21S1,1119,experiment,60,↓,up,↑,0.5838089000899345,False,32,1
JK-K-21K21S1,1120,experiment,61,↓,up,↑,0.5076320997904986,False,32,1
JK-K-21K21S1,1121,experiment,53,↓,down,↓,0.8773758001625538,True,32,1
JK-K-21K21S1,1122,experiment,108,↓,up,↑,0.5099503002129495,False,32,1
JK-K-21K21S1,1123,experiment,82,→,right,→,0.5662231000605971,True,32,1
JK-K-21K21S1,1124,experiment,105,↓,down,↓,0.5800095000304282,True,32,1
JK-K-21K21S1,1125,experiment,100,←,left,←,0.4913270999677479,True,32,1
JK-K-21K21S1,1126,experiment,89,↓,down,↓,0.5215747999027371,True,32,1
JK-K-21K21S1,1127,experiment,48,→,right,→,0.6044522000011057,True,32,1
JK-K-21K21S1,1128,experiment,96,↓,down,↓,0.4757256999146193,True,32,1
JK-K-21K21S1,1129,experiment,97,←,left,←,0.5680603000801057,True,32,1
JK-K-21K21S1,1130,experiment,93,←,left,←,0.5862245999742299,True,32,1
JK-K-21K21S1,1131,experiment,52,→,right,→,0.6174622001126409,True,32,1
JK-K-21K21S1,1132,experiment,62,→,right,→,0.715565700083971,True,32,1
JK-K-21K21S1,1133,experiment,85,↓,down,↓,0.6502298000268638,True,32,1
JK-K-21K21S1,1134,experiment,103,→,right,→,0.4778585000894964,True,32,1
JK-K-21K21S1,1135,experiment,80,→,right,→,0.5837216000072658,True,32,1
JK-K-21K21S1,1136,experiment,81,→,left,←,0.6452824000734836,False,32,1
JK-K-21K21S1,1137,experiment,65,←,left,←,1.2459009001031518,True,32,1
JK-K-21K21S1,1138,experiment,90,←,left,←,0.6134545998647809,True,32,1
JK-K-21K21S1,1139,experiment,83,←,left,←,0.5209071999415755,True,32,1
JK-K-21K21S1,1140,experiment,67,←,left,←,0.5336893000639975,True,32,1
JK-K-21K21S1,1141,experiment,98,↓,down,↓,0.4957491001114249,True,32,1
JK-K-21K21S1,1142,experiment,95,→,right,→,0.8678612001240253,True,32,1
JK-K-21K21S1,1143,experiment,58,←,left,←,0.4934974000789225,True,32,1
JK-K-21K21S1,1144,experiment,66,↓,down,↓,0.5717132999561727,True,32,1
JK-K-21K21S1,1145,experiment,86,←,left,←,0.5597055000253022,True,32,1
JK-K-21K21S1,1146,experiment,72,↑,up,↑,0.5611356000881642,True,32,1
JK-K-21K21S1,1147,experiment,54,↓,up,↑,0.7444253999274224,False,32,1
JK-K-21K21S1,1148,experiment,50,→,right,→,0.5298553998582065,True,32,1
JK-K-21K21S1,1149,experiment,49,←,left,←,0.6118675998877734,True,32,1
JK-K-21K21S1,1150,experiment,63,→,right,→,0.662138800136745,True,32,1
JK-K-21K21S1,1151,experiment,57,↑,up,↑,0.5288611999712884,True,32,1
JK-K-21K21S1,1152,experiment,106,↑,up,↑,0.6002048999071121,True,32,1
JK-K-21K21S1,1153,experiment,87,↓,up,↑,0.5550543998833746,False,32,1
JK-K-21K21S1,1154,experiment,91,↓,down,↓,1.3663946001324803,True,32,1
JK-K-21K21S1,1155,experiment,101,↑,up,↑,0.5413886997848749,True,32,1
JK-K-21K21S1,1156,experiment,51,←,left,←,0.6145241998601705,True,32,1
JK-K-21K21S1,1157,experiment,77,→,right,→,0.5399289999622852,True,32,1
JK-K-21K21S1,1158,experiment,94,←,left,←,0.48684590007178485,True,32,1
JK-K-21K21S1,1159,experiment,59,↓,down,↓,0.455527100013569,True,32,1
JK-K-21K21S1,1160,experiment,55,→,right,→,0.5467687000054866,True,32,1
JK-K-21K21S1,1161,experiment,70,←,left,←,0.45345499995164573,True,32,1
JK-K-21K21S1,1162,experiment,79,→,right,→,0.624004399869591,True,32,1
JK-K-21K21S1,1163,experiment,102,→,left,←,0.6046602001879364,False,32,1
JK-K-21K21S1,1164,experiment,71,←,left,←,1.3005013999063522,True,32,1
JK-K-21K21S1,1165,experiment,74,→,right,→,0.5114360000006855,True,32,1
JK-K-21K21S1,1166,experiment,56,←,left,←,0.41716319997794926,True,32,1
JK-K-21K21S1,1167,experiment,69,←,left,←,1.2798823001794517,True,32,0
JK-K-21K21S1,1168,experiment,104,←,left,←,0.5298186000436544,True,32,1
JK-K-21K21S1,1169,experiment,76,↓,right,→,0.5469664002303034,False,32,1
JK-K-21K21S1,1170,experiment,75,→,right,→,0.6038320998195559,True,32,1
JK-K-21K21S1,1171,experiment,84,←,left,←,1.0873447998892516,True,32,1
JK-K-21K21S1,1172,experiment,68,↓,left,←,0.7489891999866813,False,32,1
JK-K-21K21S1,1173,experiment,73,↑,up,↑,0.5585610999260098,True,32,1
JK-K-21K21S1,1174,experiment,107,↑,up,↑,0.8681646999903023,True,32,1
JK-K-21K21S1,1175,training,62,↑,up,↑,0.9114228999242187,True,32,0
JK-K-21K21S1,1176,training,97,←,left,←,0.5864880001172423,True,32,1
JK-K-21K21S1,1177,experiment,69,←,left,←,0.6519010001793504,True,32,1
JK-K-21K21S1,1178,experiment,55,↑,up,↑,0.5032114000059664,True,32,1
JK-K-21K21S1,1179,experiment,96,→,right,→,0.6668923001270741,True,32,1
JK-K-21K21S1,1180,experiment,104,←,left,←,0.9974082999397069,True,32,1
JK-K-21K21S1,1181,experiment,105,←,left,←,0.450046599842608,True,32,1
JK-K-21K21S1,1182,experiment,85,→,right,→,0.4752850001677871,True,32,1
JK-K-21K21S1,1183,experiment,68,→,right,→,0.601594400126487,True,32,1
JK-K-21K21S1,1184,experiment,59,←,left,←,0.541399999987334,True,32,1
JK-K-21K21S1,1185,experiment,72,→,left,←,0.5515451000537723,False,32,1
JK-K-21K21S1,1186,experiment,107,↑,up,↑,0.4007629998959601,True,32,1
JK-K-21K21S1,1187,experiment,74,↑,right,→,1.148771099979058,False,32,0
JK-K-21K21S1,1188,experiment,71,↑,up,↑,1.3102621000725776,True,32,1
JK-K-21K21S1,1189,experiment,87,→,right,→,0.5732542998157442,True,32,1
JK-K-21K21S1,1190,experiment,79,↑,up,↑,0.4672010999638587,True,32,1
JK-K-21K21S1,1191,experiment,77,↓,down,↓,0.6305816997773945,True,32,1
JK-K-21K21S1,1192,experiment,97,↑,up,↑,0.580448399996385,True,32,1
JK-K-21K21S1,1193,experiment,60,↑,up,↑,0.4007596999872476,True,32,1
JK-K-21K21S1,1194,experiment,56,↑,up,↑,0.4174167001619935,True,32,0
JK-K-21K21S1,1195,experiment,102,→,right,→,0.5062915999442339,True,32,0
JK-K-21K21S1,1196,experiment,89,→,right,→,0.5120842999313027,True,32,1
JK-K-21K21S1,1197,experiment,54,→,right,→,0.5856709000654519,True,32,1
JK-K-21K21S1,1198,experiment,57,←,left,←,0.7349264000076801,True,32,1
JK-K-21K21S1,1199,experiment,80,↑,up,↑,0.702436099993065,True,32,1
JK-K-21K21S1,1200,experiment,52,↑,up,↑,0.46535709989257157,True,32,1
JK-K-21K21S1,1201,experiment,66,←,left,←,0.7360660000704229,True,32,1
JK-K-21K21S1,1202,experiment,67,←,left,←,0.5883561999071389,True,32,1
JK-K-21K21S1,1203,experiment,73,←,up,↑,0.4762478000484407,False,32,1
JK-K-21K21S1,1204,experiment,86,↓,down,↓,0.6365245999768376,True,32,1
JK-K-21K21S1,1205,experiment,64,→,right,→,0.5498162000440061,True,32,1
JK-K-21K21S1,1206,experiment,84,→,left,←,0.6433189001400024,False,32,1
JK-K-21K21S1,1207,experiment,61,↓,left,←,1.613419699948281,False,32,1
JK-K-21K21S1,1208,experiment,63,→,left,←,0.5988179999403656,False,32,1
JK-K-21K21S1,1209,experiment,100,↑,up,↑,0.6211222000420094,True,32,1
JK-K-21K21S1,1210,experiment,95,←,left,←,0.5321899000555277,True,32,1
JK-K-21K21S1,1211,experiment,90,←,left,←,0.7126625999808311,True,32,1
JK-K-21K21S1,1212,experiment,48,↓,down,↓,0.6356456999201328,True,32,1
JK-K-21K21S1,1213,experiment,94,←,left,←,0.4986672999802977,True,32,1
JK-K-21K21S1,1214,experiment,75,←,left,←,0.6134323999285698,True,32,1
JK-K-21K21S1,1215,experiment,103,→,right,→,0.8101395999547094,True,32,1
JK-K-21K21S1,1216,experiment,65,←,left,←,0.7078478999901563,True,32,1
JK-K-21K21S1,1217,experiment,93,→,right,→,0.5443643999751657,True,32,1
JK-K-21K21S1,1218,experiment,82,←,left,←,0.6230792000424117,True,32,1
JK-K-21K21S1,1219,experiment,92,↓,down,↓,0.6631247000768781,True,32,1
JK-K-21K21S1,1220,experiment,53,↑,up,↑,0.7066150000318885,True,32,1
JK-K-21K21S1,1221,experiment,78,↓,down,↓,0.5638609000016004,True,32,1
JK-K-21K21S1,1222,experiment,49,→,right,→,0.6444550000596792,True,32,1
JK-K-21K21S1,1223,experiment,50,←,left,←,0.6736989000346512,True,32,1
JK-K-21K21S1,1224,experiment,70,→,right,→,0.5513798999600112,True,32,1
JK-K-21K21S1,1225,experiment,108,→,down,↓,0.74096759990789,False,32,1
JK-K-21K21S1,1226,experiment,76,→,left,←,0.5337801999412477,False,32,1
JK-K-21K21S1,1227,experiment,91,→,right,→,0.79383679991588,True,32,1
JK-K-21K21S1,1228,experiment,99,←,left,←,0.4647989000659436,True,32,1
JK-K-21K21S1,1229,experiment,101,↑,up,↑,0.46031720004975796,True,32,1
JK-K-21K21S1,1230,experiment,81,←,left,←,0.6464486999902874,True,32,1
JK-K-21K21S1,1231,experiment,106,↓,down,↓,0.6328565001022071,True,32,1
JK-K-21K21S1,1232,experiment,98,←,left,←,0.5106722998898476,True,32,1
JK-K-21K21S1,1233,experiment,62,→,left,←,0.6536948999855667,False,32,1
JK-K-21K21S1,1234,experiment,88,↑,up,↑,0.6704205998685211,True,32,1
JK-K-21K21S1,1235,experiment,83,↑,down,↓,0.5592853000853211,False,32,1
JK-K-21K21S1,1236,experiment,58,←,left,←,0.6131682998966426,True,32,1
JK-K-21K21S1,1237,experiment,51,→,right,→,0.6912599999923259,True,32,1
JK-K-21K21S1,1238,training,52,↑,up,↑,0.840515999821946,True,32,0
JK-K-21K21S1,1239,training,57,↑,up,↑,0.5077064000070095,True,32,1
JK-K-21K21S1,1240,experiment,105,↑,up,↑,0.5479187997989357,True,32,1
JK-K-21K21S1,1241,experiment,49,↓,down,↓,0.9012422999367118,True,32,1
JK-K-21K21S1,1242,experiment,81,↓,down,↓,0.669953600037843,True,32,1
JK-K-21K21S1,1243,experiment,103,↓,down,↓,0.5449186000041664,True,32,1
JK-K-21K21S1,1244,experiment,96,→,right,→,0.6347703000064939,True,32,1
JK-K-21K21S1,1245,experiment,79,↑,up,↑,0.542824000120163,True,32,1
JK-K-21K21S1,1246,experiment,84,↑,up,↑,0.5329725001938641,True,32,1
JK-K-21K21S1,1247,experiment,73,↑,up,↑,0.448162600165233,True,32,1
JK-K-21K21S1,1248,experiment,67,↑,up,↑,0.5663026000838727,True,32,1
JK-K-21K21S1,1249,experiment,64,←,left,←,0.6980693999212235,True,32,1
JK-K-21K21S1,1250,experiment,83,↓,left,←,0.6341164000332355,False,32,1
JK-K-21K21S1,1251,experiment,58,←,left,←,0.5174257000908256,True,32,1
JK-K-21K21S1,1252,experiment,78,↑,up,↑,0.4784318001475185,True,32,1
JK-K-21K21S1,1253,experiment,82,↓,up,↑,0.6397739998064935,False,32,1
JK-K-21K21S1,1254,experiment,90,↓,down,↓,0.7117035000119358,True,32,1
JK-K-21K21S1,1255,experiment,57,↑,up,↑,0.6242541000247002,True,32,1
JK-K-21K21S1,1256,experiment,59,←,left,←,0.4597380000632256,True,32,1
JK-K-21K21S1,1257,experiment,66,↑,up,↑,0.44321119994856417,True,32,1
JK-K-21K21S1,1258,experiment,68,↑,up,↑,0.5462798001244664,True,32,1
JK-K-21K21S1,1259,experiment,97,←,left,←,0.5236428000498563,True,32,1
JK-K-21K21S1,1260,experiment,98,↓,down,↓,0.5015650999266654,True,32,1
JK-K-21K21S1,1261,experiment,101,→,left,←,0.6643595001660287,False,32,1
JK-K-21K21S1,1262,experiment,87,↓,down,↓,0.5437048999592662,True,32,1
JK-K-21K21S1,1263,experiment,80,←,left,←,0.5111746001057327,True,32,1
JK-K-21K21S1,1264,experiment,100,←,left,←,0.5769911999814212,True,32,1
JK-K-21K21S1,1265,experiment,48,←,left,←,0.7297798998188227,True,32,1
JK-K-21K21S1,1266,experiment,53,→,right,→,0.6027695001102984,True,32,1
JK-K-21K21S1,1267,experiment,75,→,left,←,0.7054807001259178,False,32,1
JK-K-21K21S1,1268,experiment,51,→,right,→,0.5716764000244439,True,32,1
JK-K-21K21S1,1269,experiment,102,→,left,←,0.7302409999538213,False,32,1
JK-K-21K21S1,1270,experiment,93,→,right,→,0.533849700121209,True,32,1
JK-K-21K21S1,1271,experiment,74,←,left,←,0.5114857000298798,True,32,1
JK-K-21K21S1,1272,experiment,61,↑,up,↑,0.526595699833706,True,32,1
JK-K-21K21S1,1273,experiment,62,↓,down,↓,0.5166619999799877,True,32,1
JK-K-21K21S1,1274,experiment,60,↑,up,↑,0.5560814999043941,True,32,1
JK-K-21K21S1,1275,experiment,104,↑,down,↓,0.6663891000207514,False,32,1
JK-K-21K21S1,1276,experiment,107,↑,up,↑,0.5317182000726461,True,32,1
JK-K-21K21S1,1277,experiment,108,↓,down,↓,0.5141714999917895,True,32,1
JK-K-21K21S1,1278,experiment,56,←,right,→,0.6745889000594616,False,32,1
JK-K-21K21S1,1279,experiment,86,↑,up,↑,0.5147828999906778,True,32,1
JK-K-21K21S1,1280,experiment,89,→,right,→,0.6799427999649197,True,32,1
JK-K-21K21S1,1281,experiment,95,→,right,→,0.6531151998788118,True,32,1
JK-K-21K21S1,1282,experiment,65,←,down,↓,1.4931804998777807,False,32,1
JK-K-21K21S1,1283,experiment,77,↑,up,↑,0.5518266998697072,True,32,1
JK-K-21K21S1,1284,experiment,94,↓,down,↓,0.569953499827534,True,32,1
JK-K-21K21S1,1285,experiment,91,↑,down,↓,0.7082578002009541,False,32,1
JK-K-21K21S1,1286,experiment,92,→,left,←,0.6812152001075447,False,32,1
JK-K-21K21S1,1287,experiment,88,←,left,←,0.6321082001086324,True,32,1
JK-K-21K21S1,1288,experiment,50,↑,down,↓,1.398090099915862,False,32,1
JK-K-21K21S1,1289,experiment,72,←,left,←,0.45357419992797077,True,32,1
JK-K-21K21S1,1290,experiment,52,↑,no_key,no_letter,-1.0,False,32,1
JK-K-21K21S1,1291,experiment,76,→,right,→,0.5944308000616729,True,32,1
JK-K-21K21S1,1292,experiment,70,→,right,→,0.4358334999997169,True,32,1
JK-K-21K21S1,1293,experiment,99,←,left,←,0.6083056998904794,True,32,0
JK-K-21K21S1,1294,experiment,85,↑,up,↑,0.6115761999972165,True,32,1
JK-K-21K21S1,1295,experiment,55,↑,no_key,no_letter,-1.0,False,32,1
JK-K-21K21S1,1296,experiment,71,↑,up,↑,0.5469870001543313,True,32,1
JK-K-21K21S1,1297,experiment,69,↓,down,↓,0.5177148999646306,True,32,1
JK-K-21K21S1,1298,experiment,54,↑,up,↑,0.5030968999490142,True,32,1
JK-K-21K21S1,1299,experiment,63,↑,up,↑,0.5173957999795675,True,32,1
JK-K-21K21S1,1300,experiment,106,→,right,→,0.629619900137186,True,32,1
JK-K-21K21S1,1301,training,104,↓,down,↓,0.6905019001569599,True,32,0
JK-K-21K21S1,1302,training,50,←,left,←,0.7017880000639707,True,32,1
JK-K-21K21S1,1303,experiment,99,←,left,←,0.6003441999200732,True,32,1
JK-K-21K21S1,1304,experiment,48,↓,down,↓,0.49611530010588467,True,32,1
JK-K-21K21S1,1305,experiment,56,↓,down,↓,0.6095348000526428,True,32,1
JK-K-21K21S1,1306,experiment,95,←,right,→,0.6812378000468016,False,32,1
JK-K-21K21S1,1307,experiment,92,↓,down,↓,0.534755100030452,True,32,1
JK-K-21K21S1,1308,experiment,91,←,left,←,0.4992015000898391,True,32,1
JK-K-21K21S1,1309,experiment,54,←,left,←,0.5408951002173126,True,32,1
JK-K-21K21S1,1310,experiment,75,↓,down,↓,0.6301253000274301,True,32,1
JK-K-21K21S1,1311,experiment,70,↓,down,↓,0.5568696002010256,True,32,1
JK-K-21K21S1,1312,experiment,87,↑,up,↑,0.6253168000839651,True,32,1
JK-K-21K21S1,1313,experiment,100,↓,down,↓,0.5908648001495749,True,32,1
JK-K-21K21S1,1314,experiment,77,→,right,→,0.5813905000686646,True,32,1
JK-K-21K21S1,1315,experiment,88,↑,up,↑,0.680101300124079,True,32,1
JK-K-21K21S1,1316,experiment,66,↓,down,↓,0.6705442999955267,True,32,1
JK-K-21K21S1,1317,experiment,68,↑,down,↓,0.7808073000051081,False,32,1
JK-K-21K21S1,1318,experiment,57,↑,up,↑,0.5624486999586225,True,32,1
JK-K-21K21S1,1319,experiment,55,←,left,←,0.649075899971649,True,32,1
JK-K-21K21S1,1320,experiment,65,↑,up,↑,0.5453213001601398,True,32,1
JK-K-21K21S1,1321,experiment,51,→,left,←,0.6902284999378026,False,32,1
JK-K-21K21S1,1322,experiment,74,→,left,←,0.8138481001369655,False,32,1
JK-K-21K21S1,1323,experiment,89,←,left,←,0.5029408999253064,True,32,1
JK-K-21K21S1,1324,experiment,69,↑,left,←,1.6917274000588804,False,32,1
JK-K-21K21S1,1325,experiment,78,↑,up,↑,0.509729899931699,True,32,1
JK-K-21K21S1,1326,experiment,105,↓,down,↓,0.4861486000008881,True,32,1
JK-K-21K21S1,1327,experiment,72,↑,up,↑,0.6423891000449657,True,32,1
JK-K-21K21S1,1328,experiment,49,→,right,→,0.5361470999196172,True,32,1
JK-K-21K21S1,1329,experiment,80,↓,up,↑,0.7278432999737561,False,32,1
JK-K-21K21S1,1330,experiment,63,↓,down,↓,0.6695354001130909,True,32,1
JK-K-21K21S1,1331,experiment,107,↑,up,↑,0.6309498001355678,True,32,1
JK-K-21K21S1,1332,experiment,93,↓,down,↓,0.7022982998751104,True,32,1
JK-K-21K21S1,1333,experiment,67,↑,up,↑,0.6117132999934256,True,32,1
JK-K-21K21S1,1334,experiment,94,↑,up,↑,1.5876953001134098,True,32,1
JK-K-21K21S1,1335,experiment,60,↓,down,↓,0.7037488999776542,True,32,1
JK-K-21K21S1,1336,experiment,81,↑,up,↑,0.7928944998420775,True,32,1
JK-K-21K21S1,1337,experiment,90,→,right,→,0.5385831000749022,True,32,1
JK-K-21K21S1,1338,experiment,108,←,left,←,0.5924398000352085,True,32,1
JK-K-21K21S1,1339,experiment,86,←,left,←,0.6441050998400897,True,32,1
JK-K-21K21S1,1340,experiment,61,↑,up,↑,0.5655111998785287,True,32,1
JK-K-21K21S1,1341,experiment,82,→,right,→,0.5954018000047654,True,32,1
JK-K-21K21S1,1342,experiment,52,↑,up,↑,0.5460300999693573,True,32,1
JK-K-21K21S1,1343,experiment,58,←,left,←,0.6644537001848221,True,32,1
JK-K-21K21S1,1344,experiment,62,→,right,→,0.6328438001219183,True,32,1
JK-K-21K21S1,1345,experiment,53,↑,right,→,0.6136908000335097,False,32,1
JK-K-21K21S1,1346,experiment,106,↑,left,←,0.8172538001090288,False,32,1
JK-K-21K21S1,1347,experiment,73,↑,up,↑,1.5762724000960588,True,32,1
JK-K-21K21S1,1348,experiment,101,↑,up,↑,0.5909998000133783,True,32,1
JK-K-21K21S1,1349,experiment,79,↓,down,↓,0.7167080999352038,True,32,1
JK-K-21K21S1,1350,experiment,59,←,left,←,0.7800149000249803,True,32,1
JK-K-21K21S1,1351,experiment,84,→,right,→,0.512630800018087,True,32,1
JK-K-21K21S1,1352,experiment,85,→,right,→,0.6556039999704808,True,32,1
JK-K-21K21S1,1353,experiment,103,←,left,←,0.5224917000159621,True,32,1
JK-K-21K21S1,1354,experiment,50,←,left,←,0.44500019983388484,True,32,1
JK-K-21K21S1,1355,experiment,104,→,right,→,0.5036750000435859,True,32,1
JK-K-21K21S1,1356,experiment,71,↓,right,→,0.6117371001746505,False,32,1
JK-K-21K21S1,1357,experiment,96,↓,down,↓,0.5071372999809682,True,32,1
JK-K-21K21S1,1358,experiment,83,←,left,←,0.49880439997650683,True,32,1
JK-K-21K21S1,1359,experiment,98,↑,up,↑,1.3337539001367986,True,32,1
JK-K-21K21S1,1360,experiment,102,←,left,←,0.5021424000151455,True,32,1
JK-K-21K21S1,1361,experiment,64,↓,down,↓,0.660753499949351,True,32,1
JK-K-21K21S1,1362,experiment,97,↓,down,↓,0.5382643998600543,True,32,1
JK-K-21K21S1,1363,experiment,76,→,right,→,0.5464916999917477,True,32,1
JK-K-21K21S1,1364,training,77,←,left,←,0.43807170004583895,True,32,0
JK-K-21K21S1,1365,training,55,↑,up,↑,0.40071389987133443,True,32,0
JK-K-21K21S1,1366,experiment,65,←,left,←,0.5869760999921709,True,32,0
JK-K-21K21S1,1367,experiment,74,↓,down,↓,0.4666601000353694,True,32,1
JK-K-21K21S1,1368,experiment,81,↑,up,↑,0.628971999976784,True,32,1
JK-K-21K21S1,1369,experiment,101,←,left,←,0.4503101999871433,True,32,1
JK-K-21K21S1,1370,experiment,99,↓,down,↓,0.6152812000364065,True,32,1
JK-K-21K21S1,1371,experiment,62,↓,up,↑,0.375569999916479,False,32,1
JK-K-21K21S1,1372,experiment,56,→,right,→,0.550786399981007,True,32,0
JK-K-21K21S1,1373,experiment,107,↑,up,↑,0.4768115000333637,True,32,1
JK-K-21K21S1,1374,experiment,95,←,left,←,0.5136886001564562,True,32,1
JK-K-21K21S1,1375,experiment,90,→,right,→,0.5749615000095218,True,32,1
JK-K-21K21S1,1376,experiment,55,↑,up,↑,0.45348899997770786,True,32,1
JK-K-21K21S1,1377,experiment,75,↓,up,↑,0.6975841999519616,False,32,1
JK-K-21K21S1,1378,experiment,87,↑,up,↑,0.5524699999950826,True,32,1
JK-K-21K21S1,1379,experiment,93,→,right,→,0.43570459983311594,True,32,1
JK-K-21K21S1,1380,experiment,91,→,right,→,0.44353169994428754,True,32,0
JK-K-21K21S1,1381,experiment,72,←,left,←,0.4807109998073429,True,32,1
JK-K-21K21S1,1382,experiment,58,→,right,→,0.6497565999161452,True,32,1
JK-K-21K21S1,1383,experiment,66,↓,down,↓,0.7697093000169843,True,32,1
JK-K-21K21S1,1384,experiment,57,↑,up,↑,0.55155049986206,True,32,1
JK-K-21K21S1,1385,experiment,80,↑,up,↑,0.5746071999892592,True,32,1
JK-K-21K21S1,1386,experiment,51,↓,down,↓,0.5104467000346631,True,32,1
JK-K-21K21S1,1387,experiment,92,↑,up,↑,0.43544820020906627,True,32,1
JK-K-21K21S1,1388,experiment,106,←,left,←,0.5818898999132216,True,32,0
JK-K-21K21S1,1389,experiment,102,↓,down,↓,0.4683712001424283,True,32,1
JK-K-21K21S1,1390,experiment,104,←,right,→,0.5425987998023629,False,32,1
JK-K-21K21S1,1391,experiment,103,↓,down,↓,0.43880550004541874,True,32,1
JK-K-21K21S1,1392,experiment,73,↓,down,↓,0.44501849985681474,True,32,0
JK-K-21K21S1,1393,experiment,77,→,right,→,0.543953699991107,True,32,1
JK-K-21K21S1,1394,experiment,85,↓,down,↓,1.4136824000161141,True,32,1
JK-K-21K21S1,1395,experiment,67,←,left,←,0.4388592999894172,True,32,1
JK-K-21K21S1,1396,experiment,49,↓,down,↓,0.5164016999769956,True,32,1
JK-K-21K21S1,1397,experiment,54,←,left,←,0.5653336001560092,True,32,1
JK-K-21K21S1,1398,experiment,97,→,right,→,0.630242699990049,True,32,1
JK-K-21K21S1,1399,experiment,84,→,right,→,0.7604255999904126,True,32,1
JK-K-21K21S1,1400,experiment,96,↑,no_key,no_letter,-1.0,False,32,1
JK-K-21K21S1,1401,experiment,79,↓,down,↓,1.697736700065434,True,32,1
JK-K-21K21S1,1402,experiment,63,↓,down,↓,0.5841919998638332,True,32,1
JK-K-21K21S1,1403,experiment,82,→,right,→,0.621226399904117,True,32,1
JK-K-21K21S1,1404,experiment,94,←,right,→,0.788656200049445,False,32,1
JK-K-21K21S1,1405,experiment,88,↑,up,↑,0.4483776001725346,True,32,1
JK-K-21K21S1,1406,experiment,53,←,left,←,0.4675551999825984,True,32,1
JK-K-21K21S1,1407,experiment,108,→,left,←,0.7404466001316905,False,32,1
JK-K-21K21S1,1408,experiment,105,←,left,←,0.5875862000975758,True,32,1
JK-K-21K21S1,1409,experiment,86,→,right,→,0.5428878001403064,True,32,1
JK-K-21K21S1,1410,experiment,100,↓,down,↓,0.4401938000228256,True,32,1
JK-K-21K21S1,1411,experiment,59,←,left,←,0.46621139999479055,True,32,1
JK-K-21K21S1,1412,experiment,69,↓,down,↓,0.6243179000448436,True,32,1
JK-K-21K21S1,1413,experiment,50,←,right,→,0.5342063999269158,False,32,1
JK-K-21K21S1,1414,experiment,98,↓,down,↓,0.6879018000327051,True,32,1
JK-K-21K21S1,1415,experiment,64,←,left,←,0.6066004000604153,True,32,1
JK-K-21K21S1,1416,experiment,78,→,right,→,0.5638882000930607,True,32,1
JK-K-21K21S1,1417,experiment,89,↑,up,↑,0.5274614000227302,True,32,1
JK-K-21K21S1,1418,experiment,61,↑,up,↑,0.6539948999416083,True,32,1
JK-K-21K21S1,1419,experiment,48,↑,up,↑,0.5394840000662953,True,32,1
JK-K-21K21S1,1420,experiment,83,↓,down,↓,0.5541179999709129,True,32,1
JK-K-21K21S1,1421,experiment,68,→,right,→,0.5728842997923493,True,32,1
JK-K-21K21S1,1422,experiment,71,↓,down,↓,0.4545301999896765,True,32,1
JK-K-21K21S1,1423,experiment,60,↓,down,↓,0.5040893000550568,True,32,1
JK-K-21K21S1,1424,experiment,52,→,right,→,0.4585169998463243,True,32,1
JK-K-21K21S1,1425,experiment,70,→,right,→,0.4965858000796288,True,32,1
