PART_ID,Trial_no,Trial_type,CSI,Stim_letter,Key_pressed,letter_choose,Rt,Corr,Stimulus Time,nDropped
JK-K-21K21S2,1,training,120,→,right,→,0.8824994000606239,True,60,1
JK-K-21K21S2,2,training,120,→,right,→,0.8219971000216901,True,60,0
JK-K-21K21S2,3,training,120,→,right,→,0.7961615000385791,True,60,0
JK-K-21K21S2,4,training,120,←,left,←,0.7635212000459433,True,60,0
JK-K-21K21S2,5,training,120,↑,up,↑,0.7797383000142872,True,60,0
JK-K-21K21S2,6,training,120,→,right,→,0.7481470999773592,True,60,0
JK-K-21K21S2,7,training,120,←,left,←,0.6768064999487251,True,60,0
JK-K-21K21S2,8,training,120,↓,down,↓,0.6505531000439078,True,60,0
JK-K-21K21S2,9,training,120,↑,up,↑,0.4684218999464065,True,60,0
JK-K-21K21S2,10,training,120,→,right,→,1.6572485999204218,True,60,0
JK-K-21K21S2,11,training,120,→,right,→,0.550119899911806,True,60,0
JK-K-21K21S2,12,training,120,←,down,↓,1.352833200013265,False,60,5
JK-K-21K21S2,13,training,120,↑,up,↑,0.7292200000956655,True,60,0
JK-K-21K21S2,14,training,120,↓,down,↓,0.6832791001070291,True,60,0
JK-K-21K21S2,15,training,120,↓,down,↓,0.4997894000262022,True,60,0
JK-K-21K21S2,16,training,120,↓,down,↓,0.6733361000660807,True,60,0
JK-K-21K21S2,17,training,120,→,right,→,0.5919794000219554,True,60,0
JK-K-21K21S2,18,training,120,→,right,→,0.4852489000186324,True,60,0
JK-K-21K21S2,19,training,120,←,left,←,0.5757003999315202,True,60,0
JK-K-21K21S2,20,training,120,→,right,→,0.5342772998847067,True,60,0
JK-K-21K21S2,21,no_adaptation,120,↑,up,↑,0.8964062999002635,True,36,0
JK-K-21K21S2,22,no_adaptation,120,↑,up,↑,0.5711862000171095,True,36,0
JK-K-21K21S2,23,no_adaptation,120,→,right,→,0.6597364998888224,True,36,0
JK-K-21K21S2,24,no_adaptation,120,→,right,→,0.5365124999079853,True,36,0
JK-K-21K21S2,25,no_adaptation,120,→,right,→,0.4502328000962734,True,36,0
JK-K-21K21S2,26,no_adaptation,120,←,left,←,0.5667963000014424,True,36,0
JK-K-21K21S2,27,no_adaptation,120,←,left,←,0.5436018998734653,True,36,0
JK-K-21K21S2,28,no_adaptation,120,→,right,→,0.5283260999713093,True,36,0
JK-K-21K21S2,29,no_adaptation,120,←,left,←,0.44316550018265843,True,36,0
JK-K-21K21S2,30,no_adaptation,120,←,left,←,0.3928661998361349,True,36,0
JK-K-21K21S2,31,no_adaptation,120,←,left,←,0.40943640004843473,True,36,0
JK-K-21K21S2,32,no_adaptation,120,←,left,←,0.36634379997849464,True,36,0
JK-K-21K21S2,33,no_adaptation,120,→,right,→,0.5890744999051094,True,36,0
JK-K-21K21S2,34,no_adaptation,120,←,right,→,0.43443919997662306,False,36,0
JK-K-21K21S2,35,no_adaptation,120,↑,up,↑,0.5135527001693845,True,36,0
JK-K-21K21S2,36,no_adaptation,120,→,right,→,0.5400378000922501,True,36,0
JK-K-21K21S2,37,no_adaptation,120,↑,up,↑,0.4776936999987811,True,36,0
JK-K-21K21S2,38,no_adaptation,120,←,left,←,0.39974569994956255,True,36,0
JK-K-21K21S2,39,no_adaptation,120,↑,up,↑,0.4184920000843704,True,36,0
JK-K-21K21S2,40,no_adaptation,120,←,left,←,0.5265720998868346,True,36,0
JK-K-21K21S2,41,training,63,←,left,←,0.5099671999923885,True,36,0
JK-K-21K21S2,42,training,72,↑,up,↑,0.5215576998889446,True,36,1
JK-K-21K21S2,43,experiment,52,→,right,→,0.4667306998744607,True,36,1
JK-K-21K21S2,44,experiment,72,←,left,←,0.6314502998720855,True,36,0
JK-K-21K21S2,45,experiment,89,↑,up,↑,0.4808080999646336,True,36,1
JK-K-21K21S2,46,experiment,53,→,right,→,0.5555935997981578,True,36,1
JK-K-21K21S2,47,experiment,76,←,left,←,1.1877389000728726,True,36,1
JK-K-21K21S2,48,experiment,75,←,left,←,0.6109110999386758,True,36,1
JK-K-21K21S2,49,experiment,90,←,left,←,0.3754380000755191,True,36,1
JK-K-21K21S2,50,experiment,104,←,left,←,0.5700744001660496,True,36,0
JK-K-21K21S2,51,experiment,78,←,left,←,0.6569797999691218,True,36,1
JK-K-21K21S2,52,experiment,85,↓,down,↓,0.6981755001470447,True,36,1
JK-K-21K21S2,53,experiment,49,↑,up,↑,0.5334759000688791,True,36,1
JK-K-21K21S2,54,experiment,74,↑,up,↑,0.5112844000104815,True,36,1
JK-K-21K21S2,55,experiment,62,↓,down,↓,0.7741322999354452,True,36,1
JK-K-21K21S2,56,experiment,108,→,right,→,0.5143150000367314,True,36,1
JK-K-21K21S2,57,experiment,66,↓,down,↓,0.6074431999586523,True,36,1
JK-K-21K21S2,58,experiment,97,↑,down,↓,0.574724700069055,False,36,1
JK-K-21K21S2,59,experiment,56,→,right,→,0.5809619999490678,True,36,1
JK-K-21K21S2,60,experiment,68,↓,down,↓,0.550089499913156,True,36,1
JK-K-21K21S2,61,experiment,79,←,left,←,0.49410389992408454,True,36,1
JK-K-21K21S2,62,experiment,105,→,down,↓,0.8471873998641968,False,36,1
JK-K-21K21S2,63,experiment,102,→,right,→,0.6191620000172406,True,36,1
JK-K-21K21S2,64,experiment,77,←,down,↓,0.6480859001167119,False,36,1
JK-K-21K21S2,65,experiment,88,↓,down,↓,0.5843513000290841,True,36,1
JK-K-21K21S2,66,experiment,60,↑,up,↑,0.6213364000432193,True,36,1
JK-K-21K21S2,67,experiment,61,↑,up,↑,0.6396409999579191,True,36,1
JK-K-21K21S2,68,experiment,54,→,right,→,0.5397248000372201,True,36,1
JK-K-21K21S2,69,experiment,96,←,right,→,0.6854689000174403,False,36,1
JK-K-21K21S2,70,experiment,83,←,left,←,0.5589646999724209,True,36,1
JK-K-21K21S2,71,experiment,93,←,left,←,0.5048964999150485,True,36,1
JK-K-21K21S2,72,experiment,57,↓,down,↓,0.6254944000393152,True,36,1
JK-K-21K21S2,73,experiment,103,↓,down,↓,0.43347420007921755,True,36,1
JK-K-21K21S2,74,experiment,98,→,right,→,0.6432535999920219,True,36,0
JK-K-21K21S2,75,experiment,70,←,left,←,0.5780094000510871,True,36,1
JK-K-21K21S2,76,experiment,91,↑,up,↑,0.5405162998940796,True,36,1
JK-K-21K21S2,77,experiment,99,↑,up,↑,0.49359879991970956,True,36,1
JK-K-21K21S2,78,experiment,94,→,right,→,0.4255575002171099,True,36,1
JK-K-21K21S2,79,experiment,55,←,left,←,0.6461789000313729,True,36,0
JK-K-21K21S2,80,experiment,63,→,left,←,0.8550587999634445,False,36,1
JK-K-21K21S2,81,experiment,67,→,right,→,0.48650339990854263,True,36,1
JK-K-21K21S2,82,experiment,59,↑,up,↑,0.3922997999470681,True,36,1
JK-K-21K21S2,83,experiment,65,→,right,→,0.5289700999855995,True,36,0
JK-K-21K21S2,84,experiment,95,↓,up,↑,0.7639166000299156,False,36,1
JK-K-21K21S2,85,experiment,69,↑,up,↑,0.6220339999999851,True,36,1
JK-K-21K21S2,86,experiment,101,↓,down,↓,0.6508522999938577,True,36,1
JK-K-21K21S2,87,experiment,81,↑,up,↑,0.517847100039944,True,36,1
JK-K-21K21S2,88,experiment,92,↑,up,↑,0.47469389997422695,True,36,1
JK-K-21K21S2,89,experiment,73,→,right,→,0.4870173002127558,True,36,1
JK-K-21K21S2,90,experiment,80,↑,up,↑,0.4257502001710236,True,36,1
JK-K-21K21S2,91,experiment,64,↓,down,↓,0.6253041999880224,True,36,0
JK-K-21K21S2,92,experiment,48,↓,down,↓,0.48064949992112815,True,36,1
JK-K-21K21S2,93,experiment,100,→,right,→,0.5315551999956369,True,36,1
JK-K-21K21S2,94,experiment,50,↓,down,↓,0.5168862000573426,True,36,1
JK-K-21K21S2,95,experiment,51,↓,up,↑,0.6310551001224667,False,36,1
JK-K-21K21S2,96,experiment,107,↓,down,↓,0.4349728000815958,True,36,1
JK-K-21K21S2,97,experiment,106,↓,down,↓,0.5886852000840008,True,36,0
JK-K-21K21S2,98,experiment,58,→,right,→,0.48913990007713437,True,36,1
JK-K-21K21S2,99,experiment,84,→,up,↑,0.5209789001382887,False,36,1
JK-K-21K21S2,100,experiment,71,←,left,←,0.5325400000438094,True,36,1
JK-K-21K21S2,101,experiment,82,←,left,←,0.36686350009404123,True,36,1
JK-K-21K21S2,102,experiment,87,←,left,←,0.37574639986269176,True,36,0
JK-K-21K21S2,103,experiment,86,↓,down,↓,0.5547387001570314,True,36,0
JK-K-21K21S2,104,training,69,↑,up,↑,0.507519899867475,True,36,0
JK-K-21K21S2,105,training,77,→,right,→,0.6531984000466764,True,36,1
JK-K-21K21S2,106,experiment,98,→,right,→,0.6264623999595642,True,36,1
JK-K-21K21S2,107,experiment,93,←,left,←,0.4419660000130534,True,36,1
JK-K-21K21S2,108,experiment,50,↑,up,↑,0.5671163001097739,True,36,0
JK-K-21K21S2,109,experiment,89,↑,up,↑,0.4501736001111567,True,36,1
JK-K-21K21S2,110,experiment,67,←,left,←,0.44195950007997453,True,36,0
JK-K-21K21S2,111,experiment,53,→,right,→,0.5735935000702739,True,36,0
JK-K-21K21S2,112,experiment,83,→,right,→,0.42560600000433624,True,36,1
JK-K-21K21S2,113,experiment,71,←,left,←,0.5695043001323938,True,36,0
JK-K-21K21S2,114,experiment,94,→,right,→,1.1954154002014548,True,36,1
JK-K-21K21S2,115,experiment,106,↓,down,↓,0.5917127998545766,True,36,1
JK-K-21K21S2,116,experiment,55,←,left,←,0.40072240005247295,True,36,1
JK-K-21K21S2,117,experiment,100,←,left,←,0.5313743997830898,True,36,0
JK-K-21K21S2,118,experiment,92,↑,up,↑,0.39259260008111596,True,36,1
JK-K-21K21S2,119,experiment,77,←,left,←,0.351394500117749,True,36,0
JK-K-21K21S2,120,experiment,78,↓,down,↓,0.4775981998536736,True,36,0
JK-K-21K21S2,121,experiment,91,←,left,←,0.40932630002498627,True,36,1
JK-K-21K21S2,122,experiment,95,→,right,→,0.5621616998687387,True,36,0
JK-K-21K21S2,123,experiment,104,←,left,←,0.31679449998773634,True,36,1
JK-K-21K21S2,124,experiment,103,→,right,→,0.5611846998799592,True,36,0
JK-K-21K21S2,125,experiment,68,↓,down,↓,0.49214650015346706,True,36,1
JK-K-21K21S2,126,experiment,73,←,right,→,0.6316468000877649,False,36,1
JK-K-21K21S2,127,experiment,105,→,right,→,0.5469835998956114,True,36,1
JK-K-21K21S2,128,experiment,60,↓,down,↓,0.5768169001676142,True,36,1
JK-K-21K21S2,129,experiment,52,←,left,←,0.5122343001421541,True,36,1
JK-K-21K21S2,130,experiment,102,↓,down,↓,0.6174804999027401,True,36,1
JK-K-21K21S2,131,experiment,58,→,right,→,0.6449851000215858,True,36,1
JK-K-21K21S2,132,experiment,72,←,left,←,1.187174400081858,True,36,1
JK-K-21K21S2,133,experiment,82,↑,up,↑,0.7121110998559743,True,36,1
JK-K-21K21S2,134,experiment,61,↑,up,↑,0.47985779982991517,True,36,1
JK-K-21K21S2,135,experiment,87,→,right,→,0.5825795000419021,True,36,1
JK-K-21K21S2,136,experiment,51,←,right,→,0.6141146998852491,False,36,1
JK-K-21K21S2,137,experiment,84,←,left,←,0.4341646998655051,True,36,1
JK-K-21K21S2,138,experiment,56,↓,down,↓,0.524427599972114,True,36,0
JK-K-21K21S2,139,experiment,75,←,left,←,0.4788117001298815,True,36,1
JK-K-21K21S2,140,experiment,49,↓,down,↓,0.5782042997889221,True,36,1
JK-K-21K21S2,141,experiment,69,↑,up,↑,1.1720348000526428,True,36,1
JK-K-21K21S2,142,experiment,79,↑,up,↑,0.6345597000326961,True,36,1
JK-K-21K21S2,143,experiment,97,←,left,←,0.5523453000932932,True,36,1
JK-K-21K21S2,144,experiment,107,←,left,←,0.606298099970445,True,36,1
JK-K-21K21S2,145,experiment,66,→,right,→,0.5838663000613451,True,36,1
JK-K-21K21S2,146,experiment,48,↑,up,↑,0.6643548000138253,True,36,1
JK-K-21K21S2,147,experiment,76,←,left,←,0.49241569987498224,True,36,1
JK-K-21K21S2,148,experiment,63,↑,up,↑,0.4908341998234391,True,36,1
JK-K-21K21S2,149,experiment,86,←,left,←,0.4341198999900371,True,36,1
JK-K-21K21S2,150,experiment,101,→,right,→,0.4872594000771642,True,36,0
JK-K-21K21S2,151,experiment,57,↑,up,↑,0.5121534999925643,True,36,1
JK-K-21K21S2,152,experiment,85,↓,down,↓,0.6386584998108447,True,36,1
JK-K-21K21S2,153,experiment,74,↓,down,↓,0.6523113998118788,True,36,1
JK-K-21K21S2,154,experiment,65,→,right,→,0.5802885999437422,True,36,1
JK-K-21K21S2,155,experiment,54,←,left,←,0.4422719001304358,True,36,1
JK-K-21K21S2,156,experiment,59,↑,up,↑,0.5966171000618488,True,36,0
JK-K-21K21S2,157,experiment,108,→,right,→,0.5364594999700785,True,36,1
JK-K-21K21S2,158,experiment,80,↑,up,↑,1.0803911001421511,True,36,1
JK-K-21K21S2,159,experiment,81,→,right,→,0.6892099000979215,True,36,1
JK-K-21K21S2,160,experiment,88,↓,down,↓,0.6000128998421133,True,36,1
JK-K-21K21S2,161,experiment,64,→,right,→,0.506896800128743,True,36,1
JK-K-21K21S2,162,experiment,99,←,left,←,0.6848508000839502,True,36,1
JK-K-21K21S2,163,experiment,62,↓,down,↓,0.5646222000941634,True,36,1
JK-K-21K21S2,164,experiment,70,→,right,→,1.1343145000282675,True,36,1
JK-K-21K21S2,165,experiment,96,↓,down,↓,0.67284099990502,True,36,1
JK-K-21K21S2,166,experiment,90,↑,up,↑,0.575547399930656,True,36,1
JK-K-21K21S2,167,training,66,↓,down,↓,0.6996647999621928,True,35,0
JK-K-21K21S2,168,training,104,→,right,→,0.5245415999088436,True,35,1
JK-K-21K21S2,169,experiment,70,←,left,←,0.7443540999665856,True,35,1
JK-K-21K21S2,170,experiment,82,←,left,←,0.582533799810335,True,35,1
JK-K-21K21S2,171,experiment,56,→,right,→,0.6205460999626666,True,35,1
JK-K-21K21S2,172,experiment,89,←,left,←,0.5016052999999374,True,35,1
JK-K-21K21S2,173,experiment,72,↓,down,↓,0.5535913000348955,True,35,1
JK-K-21K21S2,174,experiment,107,→,right,→,0.6636125999502838,True,35,1
JK-K-21K21S2,175,experiment,61,↑,up,↑,0.5523828000295907,True,35,1
JK-K-21K21S2,176,experiment,105,→,right,→,0.6390172000974417,True,35,1
JK-K-21K21S2,177,experiment,78,→,right,→,0.6509181000292301,True,35,1
JK-K-21K21S2,178,experiment,57,←,left,←,0.6217303001321852,True,35,1
JK-K-21K21S2,179,experiment,92,←,left,←,0.5418446999974549,True,35,1
JK-K-21K21S2,180,experiment,53,↑,up,↑,0.5827019000425935,True,35,1
JK-K-21K21S2,181,experiment,93,→,right,→,0.5514553000684828,True,35,1
JK-K-21K21S2,182,experiment,73,↓,down,↓,0.5772907000500709,True,35,1
JK-K-21K21S2,183,experiment,69,←,left,←,0.6509748001117259,True,35,1
JK-K-21K21S2,184,experiment,71,→,right,→,0.6333230999298394,True,35,1
JK-K-21K21S2,185,experiment,97,↑,up,↑,0.5430678999982774,True,35,1
JK-K-21K21S2,186,experiment,108,←,left,←,0.49308649986051023,True,35,1
JK-K-21K21S2,187,experiment,68,↓,down,↓,0.6824163999408484,True,35,1
JK-K-21K21S2,188,experiment,67,←,left,←,0.5125172999687493,True,35,1
JK-K-21K21S2,189,experiment,74,←,left,←,0.5633964999578893,True,35,1
JK-K-21K21S2,190,experiment,102,↓,down,↓,0.5301582000683993,True,35,1
JK-K-21K21S2,191,experiment,99,→,right,→,0.5475061000324786,True,35,1
JK-K-21K21S2,192,experiment,86,↓,down,↓,0.5127870000433177,True,35,1
JK-K-21K21S2,193,experiment,90,←,left,←,0.6136440001428127,True,35,1
JK-K-21K21S2,194,experiment,49,↑,up,↑,0.7248033999931067,True,35,1
JK-K-21K21S2,195,experiment,94,↑,up,↑,0.6879240998532623,True,35,1
JK-K-21K21S2,196,experiment,54,←,left,←,0.7858469998463988,True,35,1
JK-K-21K21S2,197,experiment,80,→,right,→,0.6317561999894679,True,35,1
JK-K-21K21S2,198,experiment,91,→,right,→,0.6236030000727624,True,35,1
JK-K-21K21S2,199,experiment,59,←,left,←,0.6587153000291437,True,35,1
JK-K-21K21S2,200,experiment,98,↑,up,↑,0.5119932000525296,True,35,1
JK-K-21K21S2,201,experiment,48,←,left,←,0.5468451997730881,True,35,1
JK-K-21K21S2,202,experiment,81,↓,down,↓,0.6895534000359476,True,35,1
JK-K-21K21S2,203,experiment,55,↑,up,↑,0.5159197000321001,True,35,1
JK-K-21K21S2,204,experiment,75,←,left,←,0.40059880004264414,True,35,1
JK-K-21K21S2,205,experiment,83,←,left,←,0.42585120000876486,True,35,0
JK-K-21K21S2,206,experiment,95,→,right,→,0.6480288000311702,True,35,0
JK-K-21K21S2,207,experiment,103,←,left,←,0.5712916001211852,True,35,1
JK-K-21K21S2,208,experiment,58,→,right,→,0.624697599792853,True,35,1
JK-K-21K21S2,209,experiment,66,↑,up,↑,0.4653583001345396,True,35,1
JK-K-21K21S2,210,experiment,104,↓,down,↓,0.47573970002122223,True,35,0
JK-K-21K21S2,211,experiment,84,↑,up,↑,0.4688536999747157,True,35,1
JK-K-21K21S2,212,experiment,50,→,right,→,0.49660880002193153,True,35,1
JK-K-21K21S2,213,experiment,101,↓,down,↓,0.6345440000295639,True,35,1
JK-K-21K21S2,214,experiment,76,←,left,←,0.5838357000611722,True,35,1
JK-K-21K21S2,215,experiment,77,→,right,→,0.40085559990257025,True,35,1
JK-K-21K21S2,216,experiment,79,←,left,←,1.2114200999494642,True,35,0
JK-K-21K21S2,217,experiment,65,↓,down,↓,0.5492116000968963,True,35,1
JK-K-21K21S2,218,experiment,87,↓,down,↓,0.5219978000968695,True,35,1
JK-K-21K21S2,219,experiment,96,↓,down,↓,0.5244700000621378,True,35,1
JK-K-21K21S2,220,experiment,100,→,right,→,0.5418652000371367,True,35,1
JK-K-21K21S2,221,experiment,64,→,right,→,0.6266036999877542,True,35,1
JK-K-21K21S2,222,experiment,52,→,right,→,0.5763243997935206,True,35,1
JK-K-21K21S2,223,experiment,60,↑,up,↑,1.2847303000744432,True,35,1
JK-K-21K21S2,224,experiment,88,↓,down,↓,0.5557732998859137,True,35,1
JK-K-21K21S2,225,experiment,106,↓,down,↓,0.6179184999782592,True,35,1
JK-K-21K21S2,226,experiment,63,→,right,→,0.5802366998977959,True,35,1
JK-K-21K21S2,227,experiment,85,↑,up,↑,0.4730765998829156,True,35,1
JK-K-21K21S2,228,experiment,51,←,left,←,0.6756732000503689,True,35,1
JK-K-21K21S2,229,experiment,62,↑,up,↑,0.6037906999699771,True,35,1
JK-K-21K21S2,230,training,65,↑,up,↑,0.5199721998069435,True,34,0
JK-K-21K21S2,231,training,74,→,right,→,0.5544213999528438,True,34,1
JK-K-21K21S2,232,experiment,92,↓,down,↓,0.5331276999786496,True,34,1
JK-K-21K21S2,233,experiment,73,→,right,→,0.4557334000710398,True,34,1
JK-K-21K21S2,234,experiment,51,↓,down,↓,0.5239752000197768,True,34,0
JK-K-21K21S2,235,experiment,58,↑,up,↑,0.4990980001166463,True,34,1
JK-K-21K21S2,236,experiment,74,→,right,→,0.5181118999607861,True,34,1
JK-K-21K21S2,237,experiment,57,↑,up,↑,0.47044620011001825,True,34,1
JK-K-21K21S2,238,experiment,88,↑,up,↑,0.5661611999385059,True,34,1
JK-K-21K21S2,239,experiment,102,↑,up,↑,0.3507676001172513,True,34,1
JK-K-21K21S2,240,experiment,93,←,left,←,0.5193729000166059,True,34,0
JK-K-21K21S2,241,experiment,75,↓,down,↓,0.7136955000460148,True,34,1
JK-K-21K21S2,242,experiment,67,←,left,←,0.4703884001355618,True,34,1
JK-K-21K21S2,243,experiment,97,↓,up,↑,0.7791827998589724,False,34,1
JK-K-21K21S2,244,experiment,49,↓,down,↓,0.4993358999490738,True,34,1
JK-K-21K21S2,245,experiment,72,↓,down,↓,0.4713438998442143,True,34,1
JK-K-21K21S2,246,experiment,62,←,left,←,0.4871712999884039,True,34,1
JK-K-21K21S2,247,experiment,83,↑,up,↑,1.1996013999450952,True,34,1
JK-K-21K21S2,248,experiment,59,→,right,→,0.5322610000148416,True,34,1
JK-K-21K21S2,249,experiment,52,↓,down,↓,0.5327043000143021,True,34,1
JK-K-21K21S2,250,experiment,54,↑,up,↑,1.109067500103265,True,34,1
JK-K-21K21S2,251,experiment,105,↑,up,↑,0.501589999999851,True,34,1
JK-K-21K21S2,252,experiment,79,→,right,→,0.5346246000844985,True,34,1
JK-K-21K21S2,253,experiment,100,↑,left,←,0.6478563998825848,False,34,1
JK-K-21K21S2,254,experiment,96,↑,up,↑,0.6457345001399517,True,34,1
JK-K-21K21S2,255,experiment,99,←,left,←,0.530451999977231,True,34,1
JK-K-21K21S2,256,experiment,56,↓,down,↓,0.7543505001813173,True,34,1
JK-K-21K21S2,257,experiment,95,→,right,→,0.6360015999525785,True,34,1
JK-K-21K21S2,258,experiment,69,↑,up,↑,0.7074368000030518,True,34,1
JK-K-21K21S2,259,experiment,101,↓,down,↓,0.5732996000442654,True,34,1
JK-K-21K21S2,260,experiment,94,↓,down,↓,0.9024022000376135,True,34,1
JK-K-21K21S2,261,experiment,81,↓,down,↓,0.6952482999768108,True,34,1
JK-K-21K21S2,262,experiment,63,↑,up,↑,0.7579334999900311,True,34,1
JK-K-21K21S2,263,experiment,55,←,left,←,0.6532909998204559,True,34,1
JK-K-21K21S2,264,experiment,106,↑,up,↑,0.5997458000201732,True,34,1
JK-K-21K21S2,265,experiment,98,↑,up,↑,0.6948452999349684,True,34,1
JK-K-21K21S2,266,experiment,65,←,left,←,0.725247599883005,True,34,1
JK-K-21K21S2,267,experiment,108,↑,up,↑,0.5556956001091748,True,34,1
JK-K-21K21S2,268,experiment,76,↑,up,↑,0.6598386999685317,True,34,1
JK-K-21K21S2,269,experiment,60,↓,right,→,0.9971346999518573,False,34,1
JK-K-21K21S2,270,experiment,53,←,left,←,0.6111216000281274,True,34,1
JK-K-21K21S2,271,experiment,50,↓,down,↓,0.6339386999607086,True,34,1
JK-K-21K21S2,272,experiment,78,↑,up,↑,0.5585435999091715,True,34,1
JK-K-21K21S2,273,experiment,77,←,left,←,0.5500491999555379,True,34,1
JK-K-21K21S2,274,experiment,89,↓,down,↓,0.6580497999675572,True,34,1
JK-K-21K21S2,275,experiment,84,↑,up,↑,0.627541899913922,True,34,1
JK-K-21K21S2,276,experiment,48,↑,up,↑,0.7863811999559402,True,34,1
JK-K-21K21S2,277,experiment,68,→,right,→,0.6441073999740183,True,34,1
JK-K-21K21S2,278,experiment,70,→,right,→,0.882695100037381,True,34,1
JK-K-21K21S2,279,experiment,66,↑,up,↑,0.6251763000618666,True,34,1
JK-K-21K21S2,280,experiment,86,↑,up,↑,0.4751804999541491,True,34,1
JK-K-21K21S2,281,experiment,107,↑,up,↑,0.5482357000000775,True,34,1
JK-K-21K21S2,282,experiment,90,↓,down,↓,0.7277596001513302,True,34,1
JK-K-21K21S2,283,experiment,61,←,left,←,0.5102643999271095,True,34,1
JK-K-21K21S2,284,experiment,87,←,left,←,0.6847488000057638,True,34,1
JK-K-21K21S2,285,experiment,64,↑,up,↑,0.5638128998689353,True,34,1
JK-K-21K21S2,286,experiment,82,↓,down,↓,1.0654686999041587,True,34,1
JK-K-21K21S2,287,experiment,104,←,left,←,0.6518143001012504,True,34,1
JK-K-21K21S2,288,experiment,103,←,left,←,0.671313000144437,True,34,1
JK-K-21K21S2,289,experiment,71,↓,up,↑,0.8362726999912411,False,34,1
JK-K-21K21S2,290,experiment,80,↑,up,↑,0.5518542998470366,True,34,1
JK-K-21K21S2,291,experiment,85,↑,up,↑,0.6933052001986653,True,34,1
JK-K-21K21S2,292,experiment,91,↓,down,↓,0.6507645000237972,True,34,1
JK-K-21K21S2,293,training,69,↑,up,↑,0.5608904999680817,True,33,0
JK-K-21K21S2,294,training,61,←,left,←,0.5017998998519033,True,33,1
JK-K-21K21S2,295,experiment,51,←,left,←,0.576740900054574,True,33,1
JK-K-21K21S2,296,experiment,103,←,left,←,0.5270327001344413,True,33,1
JK-K-21K21S2,297,experiment,74,↓,down,↓,0.6410349998623133,True,33,1
JK-K-21K21S2,298,experiment,85,↑,up,↑,0.5869450999889523,True,33,1
JK-K-21K21S2,299,experiment,105,↓,down,↓,0.5602140999399126,True,33,1
JK-K-21K21S2,300,experiment,52,↑,up,↑,0.5760829001665115,True,33,1
JK-K-21K21S2,301,experiment,59,→,right,→,0.5653888999950141,True,33,1
JK-K-21K21S2,302,experiment,77,↓,down,↓,0.6606334999669343,True,33,1
JK-K-21K21S2,303,experiment,82,↑,up,↑,0.5185966000426561,True,33,1
JK-K-21K21S2,304,experiment,89,→,right,→,0.5081535000354052,True,33,1
JK-K-21K21S2,305,experiment,98,↑,up,↑,0.5347136999480426,True,33,1
JK-K-21K21S2,306,experiment,104,→,right,→,0.5184140999335796,True,33,1
JK-K-21K21S2,307,experiment,84,→,right,→,0.6216021000873297,True,33,1
JK-K-21K21S2,308,experiment,91,→,right,→,0.5904500000178814,True,33,1
JK-K-21K21S2,309,experiment,107,↑,up,↑,0.5466257000807673,True,33,1
JK-K-21K21S2,310,experiment,65,←,left,←,0.6627517999149859,True,33,1
JK-K-21K21S2,311,experiment,58,↑,up,↑,0.6164378998801112,True,33,1
JK-K-21K21S2,312,experiment,60,→,right,→,0.5717412000522017,True,33,1
JK-K-21K21S2,313,experiment,71,↑,up,↑,0.5725211000535637,True,33,1
JK-K-21K21S2,314,experiment,63,→,right,→,0.5364041000138968,True,33,1
JK-K-21K21S2,315,experiment,90,←,left,←,0.48472269997000694,True,33,1
JK-K-21K21S2,316,experiment,96,←,left,←,0.4890304999426007,True,33,1
JK-K-21K21S2,317,experiment,87,←,left,←,0.456751000136137,True,33,1
JK-K-21K21S2,318,experiment,54,↓,down,↓,0.5158107001334429,True,33,1
JK-K-21K21S2,319,experiment,57,←,left,←,0.4444294001441449,True,33,1
JK-K-21K21S2,320,experiment,93,←,left,←,0.4257376999594271,True,33,0
JK-K-21K21S2,321,experiment,97,→,right,→,1.2485444000922143,True,33,0
JK-K-21K21S2,322,experiment,64,→,right,→,0.6888246000744402,True,33,1
JK-K-21K21S2,323,experiment,79,←,left,←,0.3841313999146223,True,33,1
JK-K-21K21S2,324,experiment,72,←,left,←,0.5226773000322282,True,33,0
JK-K-21K21S2,325,experiment,48,↓,down,↓,0.7335053998976946,True,33,1
JK-K-21K21S2,326,experiment,83,←,left,←,0.7083193999715149,True,33,1
JK-K-21K21S2,327,experiment,53,→,right,→,0.6777508999221027,True,33,1
JK-K-21K21S2,328,experiment,70,→,right,→,0.6193874999880791,True,33,1
JK-K-21K21S2,329,experiment,94,↓,down,↓,0.6430237998720258,True,33,1
JK-K-21K21S2,330,experiment,73,←,left,←,0.6966899998951703,True,33,1
JK-K-21K21S2,331,experiment,67,→,right,→,0.4258840000256896,True,33,1
JK-K-21K21S2,332,experiment,86,↑,up,↑,0.49622830003499985,True,33,0
JK-K-21K21S2,333,experiment,55,←,left,←,0.6093854999635369,True,33,1
JK-K-21K21S2,334,experiment,108,←,left,←,0.5646283000241965,True,33,1
JK-K-21K21S2,335,experiment,106,↓,down,↓,0.6344371000304818,True,33,1
JK-K-21K21S2,336,experiment,50,→,right,→,0.6483000000007451,True,33,1
JK-K-21K21S2,337,experiment,49,↓,down,↓,0.7254536999389529,True,33,1
JK-K-21K21S2,338,experiment,99,→,right,→,0.5753486999310553,True,33,1
JK-K-21K21S2,339,experiment,92,↑,up,↑,0.6173989998642355,True,33,1
JK-K-21K21S2,340,experiment,69,↑,up,↑,0.5934029000345618,True,33,1
JK-K-21K21S2,341,experiment,95,↓,down,↓,0.5302585000172257,True,33,1
JK-K-21K21S2,342,experiment,102,↑,up,↑,0.48997980006970465,True,33,1
JK-K-21K21S2,343,experiment,68,←,left,←,0.5753576001152396,True,33,1
JK-K-21K21S2,344,experiment,76,→,right,→,0.45555260009132326,True,33,1
JK-K-21K21S2,345,experiment,75,←,left,←,0.5791964000090957,True,33,1
JK-K-21K21S2,346,experiment,78,↓,down,↓,0.5060586999170482,True,33,1
JK-K-21K21S2,347,experiment,66,↓,down,↓,0.5194347000215203,True,33,1
JK-K-21K21S2,348,experiment,101,←,left,←,0.6569244998972863,True,33,1
JK-K-21K21S2,349,experiment,88,↓,down,↓,0.6170387999154627,True,33,1
JK-K-21K21S2,350,experiment,80,↑,up,↑,0.6128273999784142,True,33,1
JK-K-21K21S2,351,experiment,61,↓,up,↑,0.6718439001124352,False,33,1
JK-K-21K21S2,352,experiment,81,↓,down,↓,0.5055924998596311,True,33,1
JK-K-21K21S2,353,experiment,100,↑,up,↑,0.5717845000326633,True,33,1
JK-K-21K21S2,354,experiment,56,←,left,←,0.5460339998826385,True,33,1
JK-K-21K21S2,355,experiment,62,↓,down,↓,0.5911642001010478,True,33,1
JK-K-21K21S2,356,training,105,→,right,→,0.5941030001267791,True,32,0
JK-K-21K21S2,357,training,56,→,right,→,0.47180810011923313,True,32,1
JK-K-21K21S2,358,experiment,98,→,right,→,0.5878762998618186,True,32,1
JK-K-21K21S2,359,experiment,51,←,left,←,0.6671949999872595,True,32,1
JK-K-21K21S2,360,experiment,108,↑,up,↑,0.5962290000170469,True,32,1
JK-K-21K21S2,361,experiment,56,←,left,←,0.561385199893266,True,32,1
JK-K-21K21S2,362,experiment,68,↓,down,↓,0.6116656998638064,True,32,1
JK-K-21K21S2,363,experiment,64,←,left,←,0.6137053999118507,True,32,1
JK-K-21K21S2,364,experiment,91,→,right,→,0.6388493000995368,True,32,1
JK-K-21K21S2,365,experiment,79,↓,down,↓,0.58620800008066,True,32,1
JK-K-21K21S2,366,experiment,87,→,left,←,0.9257708999793977,False,32,1
JK-K-21K21S2,367,experiment,100,→,right,→,0.9107171997893602,True,32,1
JK-K-21K21S2,368,experiment,77,↓,down,↓,0.5443673001136631,True,32,1
JK-K-21K21S2,369,experiment,88,→,right,→,0.637495799921453,True,32,1
JK-K-21K21S2,370,experiment,84,←,left,←,0.6799576000776142,True,32,1
JK-K-21K21S2,371,experiment,83,→,right,→,0.6321938999462873,True,32,1
JK-K-21K21S2,372,experiment,66,→,right,→,0.6165581999812275,True,32,1
JK-K-21K21S2,373,experiment,85,→,right,→,0.5874258000403643,True,32,1
JK-K-21K21S2,374,experiment,70,←,left,←,0.5324375999625772,True,32,1
JK-K-21K21S2,375,experiment,102,←,left,←,0.6606427000369877,True,32,1
JK-K-21K21S2,376,experiment,59,←,left,←,0.5743760999757797,True,32,1
JK-K-21K21S2,377,experiment,94,→,right,→,0.5278431000187993,True,32,1
JK-K-21K21S2,378,experiment,96,→,left,←,0.6345905000343919,False,32,1
JK-K-21K21S2,379,experiment,81,↓,down,↓,0.6539773000404239,True,32,1
JK-K-21K21S2,380,experiment,74,←,left,←,0.7788273000624031,True,32,1
JK-K-21K21S2,381,experiment,89,↓,down,↓,0.6057274998165667,True,32,1
JK-K-21K21S2,382,experiment,49,←,left,←,0.7085520999971777,True,32,1
JK-K-21K21S2,383,experiment,63,→,right,→,0.5551551000680774,True,32,1
JK-K-21K21S2,384,experiment,72,←,left,←,0.5806827999185771,True,32,1
JK-K-21K21S2,385,experiment,62,→,right,→,0.520263500045985,True,32,1
JK-K-21K21S2,386,experiment,107,↑,up,↑,0.5355221999343485,True,32,1
JK-K-21K21S2,387,experiment,54,↑,up,↑,0.600124099990353,True,32,1
JK-K-21K21S2,388,experiment,97,↑,up,↑,0.39243469992652535,True,32,1
JK-K-21K21S2,389,experiment,80,→,right,→,0.48514169990085065,True,32,0
JK-K-21K21S2,390,experiment,52,←,left,←,0.44833289994858205,True,32,1
JK-K-21K21S2,391,experiment,106,←,left,←,0.5060904999263585,True,32,1
JK-K-21K21S2,392,experiment,73,→,right,→,0.3758757000323385,True,32,1
JK-K-21K21S2,393,experiment,60,↓,down,↓,0.4896034998819232,True,32,0
JK-K-21K21S2,394,experiment,90,→,right,→,0.6397798999678344,True,32,1
JK-K-21K21S2,395,experiment,75,→,right,→,0.5889639998786151,True,32,1
JK-K-21K21S2,396,experiment,48,↑,up,↑,0.4009999001864344,True,32,1
JK-K-21K21S2,397,experiment,65,↓,up,↑,0.6064933999441564,False,32,0
JK-K-21K21S2,398,experiment,76,←,left,←,0.5166220997925848,True,32,1
JK-K-21K21S2,399,experiment,104,↑,up,↑,0.5329966999124736,True,32,1
JK-K-21K21S2,400,experiment,92,→,right,→,0.5447719998192042,True,32,1
JK-K-21K21S2,401,experiment,99,↓,down,↓,0.6257116000633687,True,32,1
JK-K-21K21S2,402,experiment,101,↑,up,↑,0.43941069999709725,True,32,1
JK-K-21K21S2,403,experiment,82,←,left,←,0.44946469995193183,True,32,1
JK-K-21K21S2,404,experiment,61,→,right,→,0.5709281999152154,True,32,1
JK-K-21K21S2,405,experiment,93,←,left,←,0.45317370002157986,True,32,1
JK-K-21K21S2,406,experiment,57,↑,up,↑,0.4177157001104206,True,32,1
JK-K-21K21S2,407,experiment,58,→,right,→,0.6029299001675099,True,32,0
JK-K-21K21S2,408,experiment,69,↓,down,↓,0.5072236000560224,True,32,1
JK-K-21K21S2,409,experiment,105,←,left,←,0.45983810001052916,True,32,1
JK-K-21K21S2,410,experiment,67,←,left,←,0.45115619990974665,True,32,1
JK-K-21K21S2,411,experiment,71,↑,up,↑,0.608484199969098,True,32,1
JK-K-21K21S2,412,experiment,103,←,left,←,0.5656463000923395,True,32,1
JK-K-21K21S2,413,experiment,53,↑,up,↑,0.6769804998766631,True,32,1
JK-K-21K21S2,414,experiment,86,→,right,→,0.5970088001340628,True,32,1
JK-K-21K21S2,415,experiment,50,←,left,←,0.6600617000367492,True,32,1
JK-K-21K21S2,416,experiment,95,→,right,→,0.5300179999321699,True,32,1
JK-K-21K21S2,417,experiment,78,→,right,→,0.5465547000057995,True,32,1
JK-K-21K21S2,418,experiment,55,←,left,←,0.7219136001076549,True,32,1
JK-K-21K21S2,419,training,59,↓,down,↓,0.8191581000573933,True,31,0
JK-K-21K21S2,420,training,107,←,left,←,0.6146228001452982,True,31,1
JK-K-21K21S2,421,experiment,52,↑,up,↑,0.5561879000160843,True,31,1
JK-K-21K21S2,422,experiment,92,↑,up,↑,0.5670229000970721,True,31,1
JK-K-21K21S2,423,experiment,62,←,left,←,0.6112744999118149,True,31,1
JK-K-21K21S2,424,experiment,56,↓,down,↓,0.5361264001112431,True,31,1
JK-K-21K21S2,425,experiment,74,←,left,←,0.45793580007739365,True,31,1
JK-K-21K21S2,426,experiment,58,↑,up,↑,1.6760414000600576,True,31,1
JK-K-21K21S2,427,experiment,59,↑,up,↑,1.1729051999282092,True,31,1
JK-K-21K21S2,428,experiment,106,→,right,→,0.6262357998639345,True,31,1
JK-K-21K21S2,429,experiment,85,←,left,←,0.6286088000051677,True,31,1
JK-K-21K21S2,430,experiment,90,←,left,←,0.557493600063026,True,31,1
JK-K-21K21S2,431,experiment,89,→,right,→,0.6088992999866605,True,31,1
JK-K-21K21S2,432,experiment,57,←,left,←,0.5254224999807775,True,31,1
JK-K-21K21S2,433,experiment,69,↑,up,↑,0.577189699979499,True,31,1
JK-K-21K21S2,434,experiment,54,→,right,→,0.4404357001185417,True,31,1
JK-K-21K21S2,435,experiment,66,↓,down,↓,0.544250899925828,True,31,1
JK-K-21K21S2,436,experiment,75,↑,up,↑,0.5049393000081182,True,31,1
JK-K-21K21S2,437,experiment,102,↑,up,↑,0.5308085998985916,True,31,1
JK-K-21K21S2,438,experiment,84,↑,up,↑,0.593176000053063,True,31,1
JK-K-21K21S2,439,experiment,98,↑,up,↑,0.5768214000854641,True,31,1
JK-K-21K21S2,440,experiment,64,→,right,→,0.5320458000060171,True,31,1
JK-K-21K21S2,441,experiment,78,↓,down,↓,0.6124050000216812,True,31,1
JK-K-21K21S2,442,experiment,91,↓,down,↓,0.5974924999754876,True,31,1
JK-K-21K21S2,443,experiment,70,←,right,→,0.741875900188461,False,31,1
JK-K-21K21S2,444,experiment,96,↓,down,↓,0.6399024999700487,True,31,1
JK-K-21K21S2,445,experiment,94,↓,down,↓,0.5665619999635965,True,31,1
JK-K-21K21S2,446,experiment,68,↓,down,↓,0.6250950000248849,True,31,1
JK-K-21K21S2,447,experiment,86,↓,down,↓,0.5789524000138044,True,31,1
JK-K-21K21S2,448,experiment,48,←,left,←,0.5556948999874294,True,31,1
JK-K-21K21S2,449,experiment,103,↑,up,↑,0.6106984000653028,True,31,1
JK-K-21K21S2,450,experiment,51,↑,up,↑,0.5531709999777377,True,31,1
JK-K-21K21S2,451,experiment,81,←,left,←,0.48009160021319985,True,31,1
JK-K-21K21S2,452,experiment,76,→,right,→,0.5950007000938058,True,31,1
JK-K-21K21S2,453,experiment,107,←,left,←,1.2473057999741286,True,31,1
JK-K-21K21S2,454,experiment,93,↑,up,↑,0.5500036000739783,True,31,1
JK-K-21K21S2,455,experiment,83,→,right,→,0.532221999950707,True,31,1
JK-K-21K21S2,456,experiment,55,←,left,←,0.7562336998526007,True,31,1
JK-K-21K21S2,457,experiment,53,→,right,→,0.763970399973914,True,31,1
JK-K-21K21S2,458,experiment,104,↑,up,↑,0.5786617000121623,True,31,1
JK-K-21K21S2,459,experiment,50,←,right,→,0.7543238000944257,False,31,1
JK-K-21K21S2,460,experiment,82,↓,down,↓,0.5524667999707162,True,31,1
JK-K-21K21S2,461,experiment,77,←,left,←,0.6005857000127435,True,31,1
JK-K-21K21S2,462,experiment,99,←,left,←,0.5033102000597864,True,31,1
JK-K-21K21S2,463,experiment,101,↑,up,↑,0.6013897999655455,True,31,1
JK-K-21K21S2,464,experiment,73,←,left,←,0.5045174001716077,True,31,1
JK-K-21K21S2,465,experiment,80,←,left,←,0.5378310999367386,True,31,1
JK-K-21K21S2,466,experiment,100,↑,up,↑,0.47449119994416833,True,31,1
JK-K-21K21S2,467,experiment,79,→,right,→,0.5966569997835904,True,31,1
JK-K-21K21S2,468,experiment,63,↑,up,↑,0.46376909990794957,True,31,1
JK-K-21K21S2,469,experiment,72,↓,up,↑,0.5247738999314606,False,31,1
JK-K-21K21S2,470,experiment,108,←,left,←,0.8912176999729127,True,31,1
JK-K-21K21S2,471,experiment,105,↓,down,↓,0.5166859000455588,True,31,1
JK-K-21K21S2,472,experiment,87,↑,up,↑,0.42711619986221194,True,31,1
JK-K-21K21S2,473,experiment,61,→,right,→,0.43460309994407,True,31,1
JK-K-21K21S2,474,experiment,97,←,left,←,0.5677535999566317,True,31,1
JK-K-21K21S2,475,experiment,65,↓,down,↓,0.49923680000938475,True,31,1
JK-K-21K21S2,476,experiment,60,↓,down,↓,0.7229333000723273,True,31,1
JK-K-21K21S2,477,experiment,49,↑,up,↑,0.5816126000136137,True,31,1
JK-K-21K21S2,478,experiment,67,↓,down,↓,0.6801413001958281,True,31,1
JK-K-21K21S2,479,experiment,95,→,right,→,0.596105600008741,True,31,1
JK-K-21K21S2,480,experiment,88,←,left,←,0.4318706002086401,True,31,1
JK-K-21K21S2,481,experiment,71,↑,up,↑,0.4293949999846518,True,31,1
JK-K-21K21S2,482,training,88,←,left,←,0.44311860017478466,True,30,0
JK-K-21K21S2,483,training,94,→,right,→,0.42606219998560846,True,30,1
JK-K-21K21S2,484,experiment,90,↑,up,↑,0.3843077998608351,True,30,1
JK-K-21K21S2,485,experiment,60,→,right,→,0.42263539996929467,True,30,0
JK-K-21K21S2,486,experiment,88,↓,down,↓,0.5914320000447333,True,30,1
JK-K-21K21S2,487,experiment,48,←,left,←,1.1032354000490159,True,30,1
JK-K-21K21S2,488,experiment,77,↓,down,↓,0.6172396000474691,True,30,1
JK-K-21K21S2,489,experiment,96,↑,up,↑,0.5362328998744488,True,30,1
JK-K-21K21S2,490,experiment,68,→,right,→,0.5482761999592185,True,30,1
JK-K-21K21S2,491,experiment,65,↓,down,↓,0.4242721002083272,True,30,1
JK-K-21K21S2,492,experiment,95,→,right,→,0.5192352999001741,True,30,0
JK-K-21K21S2,493,experiment,59,↑,up,↑,0.4947971999645233,True,30,1
JK-K-21K21S2,494,experiment,61,↑,up,↑,0.5905345999635756,True,30,1
JK-K-21K21S2,495,experiment,70,←,left,←,0.5998778000939637,True,30,1
JK-K-21K21S2,496,experiment,80,←,left,←,0.604308299953118,True,30,1
JK-K-21K21S2,497,experiment,94,↓,down,↓,0.5962434001266956,True,30,1
JK-K-21K21S2,498,experiment,52,↑,up,↑,0.5389632999431342,True,30,1
JK-K-21K21S2,499,experiment,76,→,right,→,0.4354598999489099,True,30,1
JK-K-21K21S2,500,experiment,82,↑,up,↑,0.47857700008898973,True,30,1
JK-K-21K21S2,501,experiment,72,←,left,←,1.0674668999854475,True,30,1
JK-K-21K21S2,502,experiment,69,↓,down,↓,0.617360700154677,True,30,1
JK-K-21K21S2,503,experiment,62,←,left,←,0.5238564000464976,True,30,1
JK-K-21K21S2,504,experiment,63,→,right,→,0.5855977998580784,True,30,1
JK-K-21K21S2,505,experiment,56,↑,up,↑,0.5991674000397325,True,30,1
JK-K-21K21S2,506,experiment,101,←,left,←,0.68528370000422,True,30,1
JK-K-21K21S2,507,experiment,58,←,left,←,0.6783611001446843,True,30,1
JK-K-21K21S2,508,experiment,84,←,left,←,1.174947300227359,True,30,1
JK-K-21K21S2,509,experiment,104,↓,down,↓,0.49309560004621744,True,30,1
JK-K-21K21S2,510,experiment,81,↓,down,↓,0.5824285000562668,True,30,1
JK-K-21K21S2,511,experiment,86,→,right,→,0.71436160011217,True,30,1
JK-K-21K21S2,512,experiment,91,↓,down,↓,0.5827013000380248,True,30,1
JK-K-21K21S2,513,experiment,49,←,left,←,0.766726299887523,True,30,1
JK-K-21K21S2,514,experiment,89,↑,up,↑,0.561742499936372,True,30,1
JK-K-21K21S2,515,experiment,105,↓,down,↓,0.5202880001161247,True,30,1
JK-K-21K21S2,516,experiment,79,←,left,←,0.5289958000648767,True,30,1
JK-K-21K21S2,517,experiment,50,←,left,←,0.6994056000839919,True,30,1
JK-K-21K21S2,518,experiment,99,↑,up,↑,0.4779754998162389,True,30,1
JK-K-21K21S2,519,experiment,100,↓,up,↑,0.5933908999431878,False,30,1
JK-K-21K21S2,520,experiment,103,←,left,←,0.39300159993581474,True,30,1
JK-K-21K21S2,521,experiment,97,→,right,→,0.502238699933514,True,30,0
JK-K-21K21S2,522,experiment,93,↑,up,↑,0.4992092000320554,True,30,1
JK-K-21K21S2,523,experiment,64,→,right,→,0.5456515999976546,True,30,1
JK-K-21K21S2,524,experiment,55,↓,down,↓,0.5770424001384526,True,30,1
JK-K-21K21S2,525,experiment,78,←,left,←,0.5837512998841703,True,30,1
JK-K-21K21S2,526,experiment,106,↓,down,↓,0.4766208999790251,True,30,1
JK-K-21K21S2,527,experiment,85,↓,down,↓,0.46893079997971654,True,30,1
JK-K-21K21S2,528,experiment,67,→,right,→,0.6041973000392318,True,30,1
JK-K-21K21S2,529,experiment,98,←,left,←,0.5069593000225723,True,30,1
JK-K-21K21S2,530,experiment,74,→,right,→,0.5975217998493463,True,30,1
JK-K-21K21S2,531,experiment,73,→,left,←,0.8931720999535173,False,30,1
JK-K-21K21S2,532,experiment,102,←,left,←,0.5749353000428528,True,30,1
JK-K-21K21S2,533,experiment,83,→,right,→,0.6681907998863608,True,30,1
JK-K-21K21S2,534,experiment,54,↓,down,↓,0.6153108000289649,True,30,1
JK-K-21K21S2,535,experiment,107,↑,up,↑,0.5864079999737442,True,30,1
JK-K-21K21S2,536,experiment,57,↓,down,↓,0.5840030999388546,True,30,1
JK-K-21K21S2,537,experiment,75,→,right,→,0.45530119980685413,True,30,1
JK-K-21K21S2,538,experiment,53,←,left,←,0.5470793999265879,True,30,1
JK-K-21K21S2,539,experiment,66,→,right,→,0.5189708000980318,True,30,1
JK-K-21K21S2,540,experiment,51,↓,up,↑,0.7210727001074702,False,30,1
JK-K-21K21S2,541,experiment,87,←,left,←,0.6308041999582201,True,30,1
JK-K-21K21S2,542,experiment,71,→,right,→,0.6052651000209153,True,30,1
JK-K-21K21S2,543,experiment,92,↑,up,↑,0.46998580009676516,True,30,1
JK-K-21K21S2,544,experiment,108,↓,down,↓,0.6312599000521004,True,30,1
JK-K-21K21S2,545,training,71,↑,up,↑,0.5289666000753641,True,29,0
JK-K-21K21S2,546,training,80,↑,up,↑,0.5691378000192344,True,29,1
JK-K-21K21S2,547,experiment,55,↓,down,↓,0.6079545000102371,True,29,1
JK-K-21K21S2,548,experiment,105,→,right,→,0.46803310001268983,True,29,1
JK-K-21K21S2,549,experiment,99,←,right,→,0.6563069999683648,False,29,1
JK-K-21K21S2,550,experiment,106,→,right,→,0.5380015000700951,True,29,1
JK-K-21K21S2,551,experiment,80,→,right,→,0.4105500001460314,True,29,1
JK-K-21K21S2,552,experiment,91,↑,up,↑,0.5306144999340177,True,29,0
JK-K-21K21S2,553,experiment,70,↓,down,↓,0.605710499919951,True,29,1
JK-K-21K21S2,554,experiment,94,↓,down,↓,0.5176828999537975,True,29,1
JK-K-21K21S2,555,experiment,97,→,right,→,0.6084935998078436,True,29,1
JK-K-21K21S2,556,experiment,59,→,right,→,0.7084108998533338,True,29,1
JK-K-21K21S2,557,experiment,74,→,right,→,0.42333030002191663,True,29,1
JK-K-21K21S2,558,experiment,103,←,left,←,0.5713301000650972,True,29,1
JK-K-21K21S2,559,experiment,96,↓,down,↓,0.5079954999964684,True,29,1
JK-K-21K21S2,560,experiment,76,↑,down,↓,0.5340314998757094,False,29,1
JK-K-21K21S2,561,experiment,50,↓,down,↓,0.6319320001639426,True,29,1
JK-K-21K21S2,562,experiment,67,→,down,↓,0.9759498999919742,False,29,1
JK-K-21K21S2,563,experiment,85,↑,up,↑,0.5564726002048701,True,29,1
JK-K-21K21S2,564,experiment,75,↓,down,↓,0.7166516999714077,True,29,1
JK-K-21K21S2,565,experiment,66,←,left,←,0.6901706999633461,True,29,1
JK-K-21K21S2,566,experiment,60,←,left,←,0.6419671000912786,True,29,1
JK-K-21K21S2,567,experiment,86,→,right,→,0.6352059000637382,True,29,1
JK-K-21K21S2,568,experiment,87,→,right,→,0.6207506998907775,True,29,1
JK-K-21K21S2,569,experiment,81,↑,up,↑,0.5367113000247627,True,29,1
JK-K-21K21S2,570,experiment,54,↓,down,↓,0.6009670998901129,True,29,1
JK-K-21K21S2,571,experiment,93,↓,down,↓,0.6017082000616938,True,29,1
JK-K-21K21S2,572,experiment,98,→,right,→,0.6087635001167655,True,29,1
JK-K-21K21S2,573,experiment,104,→,left,←,0.7974845001008362,False,29,1
JK-K-21K21S2,574,experiment,72,→,right,→,0.6611744000110775,True,29,1
JK-K-21K21S2,575,experiment,56,↓,down,↓,0.7198757000733167,True,29,1
JK-K-21K21S2,576,experiment,83,→,right,→,0.703458399977535,True,29,1
JK-K-21K21S2,577,experiment,52,→,up,↑,1.505695299943909,False,29,1
JK-K-21K21S2,578,experiment,51,←,left,←,0.5480372000019997,True,29,1
JK-K-21K21S2,579,experiment,95,→,right,→,0.5819892999716103,True,29,1
JK-K-21K21S2,580,experiment,61,↓,down,↓,0.4900424999650568,True,29,1
JK-K-21K21S2,581,experiment,65,→,up,↑,0.8406354999169707,False,29,1
JK-K-21K21S2,582,experiment,89,↓,down,↓,0.6010954999364913,True,29,1
JK-K-21K21S2,583,experiment,63,←,left,←,0.5878230999223888,True,29,1
JK-K-21K21S2,584,experiment,107,↑,up,↑,0.6481122998520732,True,29,1
JK-K-21K21S2,585,experiment,53,←,left,←,0.6202674000523984,True,29,1
JK-K-21K21S2,586,experiment,58,←,left,←,0.6878088000230491,True,29,1
JK-K-21K21S2,587,experiment,69,↓,down,↓,0.5729014000389725,True,29,1
JK-K-21K21S2,588,experiment,108,↓,down,↓,0.5136295999400318,True,29,1
JK-K-21K21S2,589,experiment,102,←,left,←,0.5067467999178916,True,29,1
JK-K-21K21S2,590,experiment,49,←,left,←,0.6297106000129133,True,29,1
JK-K-21K21S2,591,experiment,48,↓,down,↓,0.5641640999820083,True,29,1
JK-K-21K21S2,592,experiment,62,→,right,→,0.5607245999854058,True,29,1
JK-K-21K21S2,593,experiment,68,↑,down,↓,0.5554368000011891,False,29,1
JK-K-21K21S2,594,experiment,77,←,left,←,0.5634729000739753,True,29,1
JK-K-21K21S2,595,experiment,84,↓,down,↓,0.44017950003035367,True,29,1
JK-K-21K21S2,596,experiment,71,↑,up,↑,0.5586083999369293,True,29,1
JK-K-21K21S2,597,experiment,64,↑,up,↑,0.6025396001059562,True,29,1
JK-K-21K21S2,598,experiment,90,←,left,←,0.5320498999208212,True,29,1
JK-K-21K21S2,599,experiment,78,↑,up,↑,0.46871370007283986,True,29,1
JK-K-21K21S2,600,experiment,73,←,left,←,0.6096111999358982,True,29,1
JK-K-21K21S2,601,experiment,101,←,left,←,0.5673962999135256,True,29,1
JK-K-21K21S2,602,experiment,82,↑,up,↑,0.5649025999009609,True,29,1
JK-K-21K21S2,603,experiment,92,→,right,→,0.575405600015074,True,29,1
JK-K-21K21S2,604,experiment,57,←,left,←,0.5572060002014041,True,29,1
JK-K-21K21S2,605,experiment,100,↑,up,↑,0.5092273999471217,True,29,1
JK-K-21K21S2,606,experiment,79,→,up,↑,0.5341578000225127,False,29,1
JK-K-21K21S2,607,experiment,88,↓,up,↑,0.6832075000274926,False,29,1
JK-K-21K21S2,608,training,72,→,right,→,0.593349999981001,True,29,0
JK-K-21K21S2,609,training,87,↑,up,↑,0.7404225000645965,True,29,1
JK-K-21K21S2,610,experiment,98,↑,up,↑,0.5815590999554843,True,29,1
JK-K-21K21S2,611,experiment,82,→,right,→,0.562618900090456,True,29,1
JK-K-21K21S2,612,experiment,81,←,left,←,0.54465870000422,True,29,1
JK-K-21K21S2,613,experiment,74,↓,down,↓,0.5943072999361902,True,29,1
JK-K-21K21S2,614,experiment,66,↑,up,↑,0.564104599878192,True,29,1
JK-K-21K21S2,615,experiment,72,↓,down,↓,0.5496428001206368,True,29,1
JK-K-21K21S2,616,experiment,101,↓,down,↓,0.5493052999954671,True,29,1
JK-K-21K21S2,617,experiment,83,→,right,→,0.595519799971953,True,29,1
JK-K-21K21S2,618,experiment,50,↓,down,↓,0.6187494001351297,True,29,1
JK-K-21K21S2,619,experiment,69,→,right,→,0.4908779999241233,True,29,1
JK-K-21K21S2,620,experiment,104,←,left,←,0.5161973999347538,True,29,1
JK-K-21K21S2,621,experiment,91,↓,down,↓,0.5209877998568118,True,29,1
JK-K-21K21S2,622,experiment,89,→,right,→,0.5739792000968009,True,29,1
JK-K-21K21S2,623,experiment,105,↑,down,↓,0.6838129998650402,False,29,1
JK-K-21K21S2,624,experiment,62,→,right,→,0.4756463000085205,True,29,1
JK-K-21K21S2,625,experiment,84,↓,down,↓,0.5081895999610424,True,29,1
JK-K-21K21S2,626,experiment,108,↑,up,↑,0.4836466000415385,True,29,1
JK-K-21K21S2,627,experiment,103,→,right,→,0.5022537000477314,True,29,1
JK-K-21K21S2,628,experiment,53,←,right,→,0.5279151001013815,False,29,1
JK-K-21K21S2,629,experiment,75,↑,up,↑,0.4174082998652011,True,29,1
JK-K-21K21S2,630,experiment,54,↓,down,↓,0.46271640015766025,True,29,1
JK-K-21K21S2,631,experiment,64,←,right,→,0.5662599999923259,False,29,1
JK-K-21K21S2,632,experiment,87,←,left,←,0.5464567998424172,True,29,1
JK-K-21K21S2,633,experiment,59,↓,down,↓,0.576468399958685,True,29,1
JK-K-21K21S2,634,experiment,90,↑,up,↑,0.42727650003507733,True,29,1
JK-K-21K21S2,635,experiment,100,↓,down,↓,0.6005268001463264,True,29,1
JK-K-21K21S2,636,experiment,106,↑,up,↑,0.4136636999901384,True,29,1
JK-K-21K21S2,637,experiment,52,←,left,←,0.5146236000582576,True,29,1
JK-K-21K21S2,638,experiment,58,↑,up,↑,0.4110711000394076,True,29,1
JK-K-21K21S2,639,experiment,57,←,left,←,1.1030556000769138,True,29,0
JK-K-21K21S2,640,experiment,56,→,right,→,0.5118380000349134,True,29,1
JK-K-21K21S2,641,experiment,86,←,left,←,0.5184780000708997,True,29,1
JK-K-21K21S2,642,experiment,60,←,left,←,0.5654203998856246,True,29,1
JK-K-21K21S2,643,experiment,48,→,right,→,0.5827128000091761,True,29,1
JK-K-21K21S2,644,experiment,97,↑,down,↓,0.6147237999830395,False,29,1
JK-K-21K21S2,645,experiment,92,↓,down,↓,0.6071099999826401,True,29,1
JK-K-21K21S2,646,experiment,51,←,left,←,0.5974618999753147,True,29,1
JK-K-21K21S2,647,experiment,73,↓,down,↓,0.6129606999456882,True,29,1
JK-K-21K21S2,648,experiment,55,←,left,←,0.697926000226289,True,29,1
JK-K-21K21S2,649,experiment,63,↓,down,↓,0.6001506000757217,True,29,1
JK-K-21K21S2,650,experiment,96,←,left,←,0.7039142998401076,True,29,1
JK-K-21K21S2,651,experiment,67,↑,up,↑,0.6209577999543399,True,29,1
JK-K-21K21S2,652,experiment,93,←,left,←,0.4606447999831289,True,29,1
JK-K-21K21S2,653,experiment,61,↑,down,↓,0.7177519998513162,False,29,1
JK-K-21K21S2,654,experiment,65,↑,down,↓,0.6672656999435276,False,29,1
JK-K-21K21S2,655,experiment,102,→,right,→,0.5259395998436958,True,29,1
JK-K-21K21S2,656,experiment,49,←,left,←,0.7607431998476386,True,29,1
JK-K-21K21S2,657,experiment,70,→,right,→,0.5865767998620868,True,29,1
JK-K-21K21S2,658,experiment,68,↑,up,↑,0.4525184999220073,True,29,1
JK-K-21K21S2,659,experiment,77,↑,up,↑,0.5044388000387698,True,29,1
JK-K-21K21S2,660,experiment,80,↑,up,↑,0.4415359999984503,True,29,1
JK-K-21K21S2,661,experiment,94,→,right,→,0.7762615000829101,True,29,1
JK-K-21K21S2,662,experiment,99,→,right,→,0.46398100000806153,True,29,1
JK-K-21K21S2,663,experiment,71,←,left,←,0.5176385999657214,True,29,1
JK-K-21K21S2,664,experiment,107,↓,down,↓,0.49306730017997324,True,29,1
JK-K-21K21S2,665,experiment,76,←,left,←,0.49529189988970757,True,29,1
JK-K-21K21S2,666,experiment,95,↓,down,↓,0.6358573001343757,True,29,1
JK-K-21K21S2,667,experiment,85,↓,up,↑,0.7341277000959963,False,29,1
JK-K-21K21S2,668,experiment,79,↑,up,↑,0.6299368999898434,True,29,1
JK-K-21K21S2,669,experiment,88,↓,down,↓,0.5669572001788765,True,29,1
JK-K-21K21S2,670,experiment,78,→,right,→,0.5822709000203758,True,29,1
JK-K-21K21S2,671,training,69,↓,down,↓,0.5466462001204491,True,29,0
JK-K-21K21S2,672,training,58,→,right,→,0.48118590004742146,True,29,1
JK-K-21K21S2,673,experiment,82,→,up,↑,0.6262881001457572,False,29,1
JK-K-21K21S2,674,experiment,102,↓,down,↓,0.7030249999370426,True,29,1
JK-K-21K21S2,675,experiment,98,←,left,←,0.4423885000869632,True,29,1
JK-K-21K21S2,676,experiment,97,←,left,←,0.671567500103265,True,29,1
JK-K-21K21S2,677,experiment,96,↑,up,↑,0.4761636999901384,True,29,1
JK-K-21K21S2,678,experiment,84,↑,up,↑,0.508890800178051,True,29,1
JK-K-21K21S2,679,experiment,76,↑,up,↑,0.4471756999846548,True,29,1
JK-K-21K21S2,680,experiment,81,←,left,←,0.441744799958542,True,29,1
JK-K-21K21S2,681,experiment,101,↑,up,↑,0.52629469987005,True,29,1
JK-K-21K21S2,682,experiment,58,↑,up,↑,1.1495292000472546,True,29,1
JK-K-21K21S2,683,experiment,52,←,left,←,0.6779364000540227,True,29,1
JK-K-21K21S2,684,experiment,86,→,right,→,0.5182368999812752,True,29,1
JK-K-21K21S2,685,experiment,57,↑,up,↑,0.5660532000474632,True,29,1
JK-K-21K21S2,686,experiment,71,→,right,→,0.5597016999963671,True,29,1
JK-K-21K21S2,687,experiment,56,←,left,←,0.582161899888888,True,29,1
JK-K-21K21S2,688,experiment,50,↓,up,↑,0.6380576000083238,False,29,1
JK-K-21K21S2,689,experiment,92,→,left,←,0.6212106000166386,False,29,1
JK-K-21K21S2,690,experiment,104,↓,down,↓,0.6013433001935482,True,29,1
JK-K-21K21S2,691,experiment,79,↓,down,↓,0.5668639000505209,True,29,1
JK-K-21K21S2,692,experiment,83,→,left,←,0.5802899999544024,False,29,1
JK-K-21K21S2,693,experiment,77,→,right,→,0.5791444000788033,True,29,1
JK-K-21K21S2,694,experiment,89,→,right,→,0.5180176999419928,True,29,1
JK-K-21K21S2,695,experiment,69,←,right,→,0.4900238998234272,False,29,1
JK-K-21K21S2,696,experiment,70,→,right,→,0.7109886000398546,True,29,1
JK-K-21K21S2,697,experiment,68,↑,up,↑,0.451563699869439,True,29,1
JK-K-21K21S2,698,experiment,59,↓,down,↓,0.47757599991746247,True,29,1
JK-K-21K21S2,699,experiment,80,→,right,→,0.5516209001652896,True,29,1
JK-K-21K21S2,700,experiment,64,←,left,←,0.44411140005104244,True,29,1
JK-K-21K21S2,701,experiment,55,↑,right,→,0.6799794998951256,False,29,1
JK-K-21K21S2,702,experiment,51,→,right,→,0.39258189988322556,True,29,1
JK-K-21K21S2,703,experiment,105,↑,up,↑,0.42452050000429153,True,29,0
JK-K-21K21S2,704,experiment,73,←,left,←,0.5263845000881702,True,29,1
JK-K-21K21S2,705,experiment,93,↓,down,↓,0.570763299940154,True,29,1
JK-K-21K21S2,706,experiment,72,↓,down,↓,0.5632730999495834,True,29,1
JK-K-21K21S2,707,experiment,48,↓,up,↑,0.4847504000645131,False,29,1
JK-K-21K21S2,708,experiment,90,→,right,→,0.6272511000279337,True,29,1
JK-K-21K21S2,709,experiment,53,↓,down,↓,0.7763618000317365,True,29,1
JK-K-21K21S2,710,experiment,108,→,right,→,0.9168287999927998,True,29,1
JK-K-21K21S2,711,experiment,54,↓,down,↓,0.5018315000925213,True,29,1
JK-K-21K21S2,712,experiment,100,←,left,←,0.7202596000861377,True,29,1
JK-K-21K21S2,713,experiment,94,↓,left,←,0.836076800012961,False,29,1
JK-K-21K21S2,714,experiment,106,↑,up,↑,0.6068832001183182,True,29,1
JK-K-21K21S2,715,experiment,67,←,left,←,0.600651899818331,True,29,1
JK-K-21K21S2,716,experiment,99,↓,down,↓,0.5906587999779731,True,29,1
JK-K-21K21S2,717,experiment,60,↓,down,↓,0.6027573000174016,True,29,1
JK-K-21K21S2,718,experiment,74,→,right,→,0.5699587999843061,True,29,1
JK-K-21K21S2,719,experiment,75,↑,up,↑,0.8498502001166344,True,29,1
JK-K-21K21S2,720,experiment,61,←,left,←,0.6431639997754246,True,29,1
JK-K-21K21S2,721,experiment,63,↓,down,↓,0.6123226000927389,True,29,1
JK-K-21K21S2,722,experiment,103,↓,down,↓,0.609354899963364,True,29,1
JK-K-21K21S2,723,experiment,85,→,right,→,0.5485167999286205,True,29,1
JK-K-21K21S2,724,experiment,78,→,right,→,0.41276429989375174,True,29,1
JK-K-21K21S2,725,experiment,107,↓,down,↓,0.5113011000212282,True,29,0
JK-K-21K21S2,726,experiment,66,←,right,→,0.8689987999387085,False,29,1
JK-K-21K21S2,727,experiment,91,↓,down,↓,0.5396211000625044,True,29,1
JK-K-21K21S2,728,experiment,49,↓,down,↓,0.6614358001388609,True,29,1
JK-K-21K21S2,729,experiment,88,↓,down,↓,0.37555769993923604,True,29,1
JK-K-21K21S2,730,experiment,87,↑,up,↑,0.6012256001122296,True,29,0
JK-K-21K21S2,731,experiment,95,↑,up,↑,0.48893430014140904,True,29,1
JK-K-21K21S2,732,experiment,62,↓,down,↓,0.632323500001803,True,29,1
JK-K-21K21S2,733,experiment,65,↓,down,↓,0.4570650001987815,True,29,1
JK-K-21K21S2,734,training,82,↓,down,↓,0.9385981999803334,True,29,0
JK-K-21K21S2,735,training,100,→,right,→,0.5794029000680894,True,29,1
JK-K-21K21S2,736,experiment,99,→,right,→,0.5788722999859601,True,29,1
JK-K-21K21S2,737,experiment,72,←,left,←,0.5393635998480022,True,29,1
JK-K-21K21S2,738,experiment,102,↑,up,↑,0.4278273999225348,True,29,1
JK-K-21K21S2,739,experiment,48,←,left,←,0.49755049985833466,True,29,1
JK-K-21K21S2,740,experiment,98,←,left,←,0.4215717001352459,True,29,1
JK-K-21K21S2,741,experiment,75,↓,down,↓,0.48246410000137985,True,29,1
JK-K-21K21S2,742,experiment,49,↓,up,↑,0.5746979999821633,False,29,1
JK-K-21K21S2,743,experiment,86,↑,up,↑,0.4829429998062551,True,29,1
JK-K-21K21S2,744,experiment,68,→,right,→,0.6487348000518978,True,29,1
JK-K-21K21S2,745,experiment,65,↑,up,↑,0.544567700009793,True,29,1
JK-K-21K21S2,746,experiment,66,↑,up,↑,0.5886878999881446,True,29,1
JK-K-21K21S2,747,experiment,69,↑,up,↑,0.5343945999629796,True,29,1
JK-K-21K21S2,748,experiment,82,↑,up,↑,0.6686207000166178,True,29,1
JK-K-21K21S2,749,experiment,79,↓,down,↓,0.6077878999058157,True,29,1
JK-K-21K21S2,750,experiment,106,←,left,←,0.5875610001385212,True,29,1
JK-K-21K21S2,751,experiment,93,↓,down,↓,0.4605173000600189,True,29,1
JK-K-21K21S2,752,experiment,107,←,left,←,0.5185533999465406,True,29,1
JK-K-21K21S2,753,experiment,100,↓,up,↑,0.6321634999476373,False,29,1
JK-K-21K21S2,754,experiment,97,←,left,←,0.6463679000735283,True,29,1
JK-K-21K21S2,755,experiment,77,↓,down,↓,0.6020628002006561,True,29,1
JK-K-21K21S2,756,experiment,92,→,right,→,0.587210200028494,True,29,1
JK-K-21K21S2,757,experiment,61,↓,down,↓,0.6074314001016319,True,29,1
JK-K-21K21S2,758,experiment,57,→,right,→,0.6117120000999421,True,29,1
JK-K-21K21S2,759,experiment,71,↓,down,↓,0.7554021999239922,True,29,1
JK-K-21K21S2,760,experiment,52,↑,up,↑,0.6435754999984056,True,29,1
JK-K-21K21S2,761,experiment,53,↓,left,←,0.855643100105226,False,29,1
JK-K-21K21S2,762,experiment,95,↑,up,↑,0.6132284000050277,True,29,1
JK-K-21K21S2,763,experiment,108,↑,up,↑,0.5684934000018984,True,29,1
JK-K-21K21S2,764,experiment,83,↑,up,↑,0.5421282001771033,True,29,1
JK-K-21K21S2,765,experiment,85,→,right,→,0.8595741998869926,True,29,1
JK-K-21K21S2,766,experiment,84,←,left,←,0.6769354999996722,True,29,1
JK-K-21K21S2,767,experiment,101,↑,up,↑,0.4878874998539686,True,29,1
JK-K-21K21S2,768,experiment,80,→,left,←,0.8250631999690086,False,29,1
JK-K-21K21S2,769,experiment,70,↑,up,↑,0.4564427000004798,True,29,1
JK-K-21K21S2,770,experiment,89,↓,down,↓,0.5601512999273837,True,29,1
JK-K-21K21S2,771,experiment,63,↑,left,←,1.2606408998835832,False,29,1
JK-K-21K21S2,772,experiment,50,←,left,←,0.641441100044176,True,29,1
JK-K-21K21S2,773,experiment,55,→,right,→,0.5810078999493271,True,29,1
JK-K-21K21S2,774,experiment,62,→,right,→,0.8409035000950098,True,29,1
JK-K-21K21S2,775,experiment,60,↓,down,↓,0.6828034999780357,True,29,1
JK-K-21K21S2,776,experiment,56,→,right,→,0.5965525000356138,True,29,1
JK-K-21K21S2,777,experiment,54,↓,down,↓,0.7782791000790894,True,29,1
JK-K-21K21S2,778,experiment,104,→,right,→,0.5122787000145763,True,29,1
JK-K-21K21S2,779,experiment,94,↓,down,↓,0.5722020999528468,True,29,1
JK-K-21K21S2,780,experiment,91,↓,down,↓,0.5902664999011904,True,29,1
JK-K-21K21S2,781,experiment,96,←,left,←,0.5104538998566568,True,29,1
JK-K-21K21S2,782,experiment,59,↓,down,↓,0.5662177999038249,True,29,1
JK-K-21K21S2,783,experiment,90,→,right,→,0.46537210000678897,True,29,1
JK-K-21K21S2,784,experiment,88,←,right,→,0.857027200050652,False,29,1
JK-K-21K21S2,785,experiment,81,↓,down,↓,0.4675324000418186,True,29,1
JK-K-21K21S2,786,experiment,73,↓,down,↓,0.48807820002548397,True,29,1
JK-K-21K21S2,787,experiment,103,←,left,←,0.43401590012945235,True,29,1
JK-K-21K21S2,788,experiment,64,↑,up,↑,0.6189216999337077,True,29,1
JK-K-21K21S2,789,experiment,58,→,right,→,0.4627159000374377,True,29,1
JK-K-21K21S2,790,experiment,76,↑,up,↑,0.5465417001396418,True,29,1
JK-K-21K21S2,791,experiment,67,↓,down,↓,0.4541051001287997,True,29,1
JK-K-21K21S2,792,experiment,87,↑,up,↑,0.6308899000287056,True,29,1
JK-K-21K21S2,793,experiment,105,←,left,←,0.49768350017257035,True,29,1
JK-K-21K21S2,794,experiment,78,←,left,←,0.5072824000380933,True,29,1
JK-K-21K21S2,795,experiment,51,→,right,→,0.5739279999397695,True,29,1
JK-K-21K21S2,796,experiment,74,↑,up,↑,0.5660482000093907,True,29,1
JK-K-21K21S2,797,training,108,←,left,←,1.0819419000763446,True,28,0
JK-K-21K21S2,798,training,73,→,right,→,0.5898030998650938,True,28,1
JK-K-21K21S2,799,experiment,79,→,right,→,0.5394308001268655,True,28,1
JK-K-21K21S2,800,experiment,63,→,right,→,0.5369132000487298,True,28,1
JK-K-21K21S2,801,experiment,86,↓,down,↓,0.47031670017167926,True,28,1
JK-K-21K21S2,802,experiment,68,↑,up,↑,0.5649262999650091,True,28,1
JK-K-21K21S2,803,experiment,100,↑,up,↑,0.4604055001400411,True,28,1
JK-K-21K21S2,804,experiment,74,↓,down,↓,0.4572376001160592,True,28,1
JK-K-21K21S2,805,experiment,60,↓,down,↓,0.5466245000716299,True,28,1
JK-K-21K21S2,806,experiment,85,↓,down,↓,0.5281541999429464,True,28,1
JK-K-21K21S2,807,experiment,62,→,right,→,0.574286200106144,True,28,1
JK-K-21K21S2,808,experiment,93,←,left,←,0.4957556000445038,True,28,1
JK-K-21K21S2,809,experiment,103,←,left,←,0.5935414999257773,True,28,1
JK-K-21K21S2,810,experiment,99,←,left,←,0.40920610004104674,True,28,1
JK-K-21K21S2,811,experiment,64,→,left,←,0.5701584001071751,False,28,1
JK-K-21K21S2,812,experiment,83,→,right,→,0.49574779998511076,True,28,1
JK-K-21K21S2,813,experiment,77,↓,down,↓,0.4578295999672264,True,28,1
JK-K-21K21S2,814,experiment,69,←,left,←,0.4244717999827117,True,28,1
JK-K-21K21S2,815,experiment,49,↑,up,↑,0.37573210010305047,True,28,1
JK-K-21K21S2,816,experiment,105,→,right,→,0.49189249984920025,True,28,0
JK-K-21K21S2,817,experiment,67,↑,up,↑,0.5136951000895351,True,28,1
JK-K-21K21S2,818,experiment,92,→,right,→,0.5743217000272125,True,28,1
JK-K-21K21S2,819,experiment,102,↑,up,↑,0.525007399963215,True,28,1
JK-K-21K21S2,820,experiment,51,←,right,→,0.7265524000395089,False,28,1
JK-K-21K21S2,821,experiment,56,←,left,←,0.41473700013011694,True,28,1
JK-K-21K21S2,822,experiment,50,→,right,→,0.653360900003463,True,28,1
JK-K-21K21S2,823,experiment,97,←,left,←,0.667393600102514,True,28,1
JK-K-21K21S2,824,experiment,71,→,right,→,0.4240522999316454,True,28,1
JK-K-21K21S2,825,experiment,73,→,right,→,0.5985226000193506,True,28,1
JK-K-21K21S2,826,experiment,81,←,left,←,0.6350843999534845,True,28,1
JK-K-21K21S2,827,experiment,72,←,left,←,0.4814512000884861,True,28,1
JK-K-21K21S2,828,experiment,57,→,right,→,0.5629199999384582,True,28,1
JK-K-21K21S2,829,experiment,89,↑,up,↑,0.4063095999881625,True,28,1
JK-K-21K21S2,830,experiment,58,←,left,←,0.4826585999689996,True,28,0
JK-K-21K21S2,831,experiment,104,↓,down,↓,0.5327496000099927,True,28,1
JK-K-21K21S2,832,experiment,75,↓,down,↓,0.6937082000076771,True,28,1
JK-K-21K21S2,833,experiment,108,→,right,→,0.44558479986153543,True,28,1
JK-K-21K21S2,834,experiment,98,←,left,←,0.5068241998087615,True,28,1
JK-K-21K21S2,835,experiment,52,→,right,→,0.49274190003052354,True,28,1
JK-K-21K21S2,836,experiment,70,↑,up,↑,0.4654914999846369,True,28,1
JK-K-21K21S2,837,experiment,82,→,right,→,0.491275800159201,True,28,1
JK-K-21K21S2,838,experiment,59,↓,up,↑,0.6516503000166267,False,28,1
JK-K-21K21S2,839,experiment,84,→,right,→,0.493455900112167,True,28,1
JK-K-21K21S2,840,experiment,76,←,left,←,0.47275219997391105,True,28,1
JK-K-21K21S2,841,experiment,61,↑,up,↑,0.5284784999676049,True,28,1
JK-K-21K21S2,842,experiment,94,↑,up,↑,0.5879383001010865,True,28,1
JK-K-21K21S2,843,experiment,101,←,left,←,0.5702795998658985,True,28,1
JK-K-21K21S2,844,experiment,88,↓,up,↑,0.5901349000632763,False,28,1
JK-K-21K21S2,845,experiment,95,→,right,→,0.5348747000098228,True,28,1
JK-K-21K21S2,846,experiment,106,←,left,←,0.4538291001226753,True,28,1
JK-K-21K21S2,847,experiment,107,←,left,←,0.535321099916473,True,28,1
JK-K-21K21S2,848,experiment,65,↑,left,←,0.7562738000415266,False,28,1
JK-K-21K21S2,849,experiment,53,←,left,←,0.5080977999605238,True,28,1
JK-K-21K21S2,850,experiment,78,↓,down,↓,0.5893747999798506,True,28,1
JK-K-21K21S2,851,experiment,55,↓,down,↓,0.507088600192219,True,28,1
JK-K-21K21S2,852,experiment,80,←,left,←,0.532022199826315,True,28,1
JK-K-21K21S2,853,experiment,96,↓,down,↓,0.47012289986014366,True,28,1
JK-K-21K21S2,854,experiment,54,↑,up,↑,0.449498999863863,True,28,1
JK-K-21K21S2,855,experiment,66,←,left,←,0.4649108999874443,True,28,1
JK-K-21K21S2,856,experiment,90,→,right,→,0.5201455999631435,True,28,1
JK-K-21K21S2,857,experiment,91,↑,up,↑,0.5088646998628974,True,28,1
JK-K-21K21S2,858,experiment,87,↓,down,↓,0.4912034999579191,True,28,1
JK-K-21K21S2,859,experiment,48,→,left,←,0.6715561000164598,False,28,1
JK-K-21K21S2,860,training,62,↓,down,↓,0.5668347000610083,True,28,0
JK-K-21K21S2,861,training,97,→,right,→,0.5596660000737756,True,28,1
JK-K-21K21S2,862,experiment,64,←,left,←,0.483601100044325,True,28,1
JK-K-21K21S2,863,experiment,53,→,left,←,0.6785589000210166,False,28,1
JK-K-21K21S2,864,experiment,51,↓,down,↓,0.498052200069651,True,28,1
JK-K-21K21S2,865,experiment,48,↑,up,↑,0.48590900003910065,True,28,1
JK-K-21K21S2,866,experiment,75,↓,down,↓,0.45733719994314015,True,28,1
JK-K-21K21S2,867,experiment,87,↑,up,↑,0.45766170020215213,True,28,1
JK-K-21K21S2,868,experiment,74,←,left,←,0.5826336001046002,True,28,1
JK-K-21K21S2,869,experiment,72,←,left,←,0.46305230003781617,True,28,1
JK-K-21K21S2,870,experiment,82,→,right,→,0.6724314999300987,True,28,1
JK-K-21K21S2,871,experiment,68,←,left,←,0.5266217000316828,True,28,1
JK-K-21K21S2,872,experiment,86,←,left,←,0.45260820002295077,True,28,1
JK-K-21K21S2,873,experiment,105,↓,up,↑,0.5833870000205934,False,28,1
JK-K-21K21S2,874,experiment,99,→,right,→,0.5827897998970002,True,28,1
JK-K-21K21S2,875,experiment,63,↓,right,→,0.8587575999554247,False,28,1
JK-K-21K21S2,876,experiment,76,↑,up,↑,0.5262168999761343,True,28,1
JK-K-21K21S2,877,experiment,98,↑,up,↑,0.5764971000608057,True,28,1
JK-K-21K21S2,878,experiment,94,←,left,←,0.5058301000390202,True,28,1
JK-K-21K21S2,879,experiment,52,←,left,←,0.4996873000636697,True,28,1
JK-K-21K21S2,880,experiment,108,←,left,←,0.5232478000689298,True,28,1
JK-K-21K21S2,881,experiment,85,↓,up,↑,0.8899485000874847,False,28,1
JK-K-21K21S2,882,experiment,55,↓,up,↑,0.6042250001337379,False,28,1
JK-K-21K21S2,883,experiment,59,→,right,→,0.4240838000550866,True,28,1
JK-K-21K21S2,884,experiment,60,↑,up,↑,0.5144261000677943,True,28,1
JK-K-21K21S2,885,experiment,84,←,right,→,0.6495060999877751,False,28,1
JK-K-21K21S2,886,experiment,95,←,left,←,0.3672456999775022,True,28,1
JK-K-21K21S2,887,experiment,102,←,right,→,0.5184041000902653,False,28,0
JK-K-21K21S2,888,experiment,79,→,right,→,0.4791925000026822,True,28,1
JK-K-21K21S2,889,experiment,91,↓,down,↓,0.6050884001888335,True,28,1
JK-K-21K21S2,890,experiment,104,↓,down,↓,0.5137912998907268,True,28,1
JK-K-21K21S2,891,experiment,67,↑,up,↑,0.5906687998212874,True,28,1
JK-K-21K21S2,892,experiment,89,→,right,→,0.43286580010317266,True,28,1
JK-K-21K21S2,893,experiment,81,→,right,→,0.484433599980548,True,28,1
JK-K-21K21S2,894,experiment,92,←,left,←,0.4343298999592662,True,28,1
JK-K-21K21S2,895,experiment,83,↓,down,↓,0.676806999836117,True,28,1
JK-K-21K21S2,896,experiment,101,↓,down,↓,0.6476944999303669,True,28,1
JK-K-21K21S2,897,experiment,61,↓,down,↓,0.5293427999131382,True,28,1
JK-K-21K21S2,898,experiment,96,←,left,←,0.4757133999373764,True,28,1
JK-K-21K21S2,899,experiment,71,↓,down,↓,0.5848461999557912,True,28,1
JK-K-21K21S2,900,experiment,97,↓,down,↓,0.6406895001418889,True,28,1
JK-K-21K21S2,901,experiment,65,←,left,←,0.4411182999610901,True,28,1
JK-K-21K21S2,902,experiment,90,←,left,←,0.4334928998723626,True,28,1
JK-K-21K21S2,903,experiment,93,↑,up,↑,0.4727467999327928,True,28,1
JK-K-21K21S2,904,experiment,103,←,left,←,0.4508247000630945,True,28,1
JK-K-21K21S2,905,experiment,66,↑,up,↑,0.5069056001957506,True,28,1
JK-K-21K21S2,906,experiment,106,→,right,→,0.43483879999257624,True,28,1
JK-K-21K21S2,907,experiment,88,←,left,←,0.4200857998803258,True,28,1
JK-K-21K21S2,908,experiment,56,↑,up,↑,0.4322664998471737,True,28,1
JK-K-21K21S2,909,experiment,78,←,left,←,0.4526223000138998,True,28,1
JK-K-21K21S2,910,experiment,107,↑,up,↑,0.6310580000281334,True,28,1
JK-K-21K21S2,911,experiment,49,↑,up,↑,0.5094682001508772,True,28,1
JK-K-21K21S2,912,experiment,58,←,left,←,0.9248056001961231,True,28,1
JK-K-21K21S2,913,experiment,54,→,right,→,0.5416879998520017,True,28,1
JK-K-21K21S2,914,experiment,100,↑,up,↑,0.7102718001697212,True,28,1
JK-K-21K21S2,915,experiment,57,↓,down,↓,0.5906838001683354,True,28,1
JK-K-21K21S2,916,experiment,69,↓,up,↑,1.1120201000012457,False,28,1
JK-K-21K21S2,917,experiment,62,↑,up,↑,0.43042839993722737,True,28,1
JK-K-21K21S2,918,experiment,70,←,left,←,1.5256255997810513,True,28,1
JK-K-21K21S2,919,experiment,73,→,right,→,0.567857600050047,True,28,1
JK-K-21K21S2,920,experiment,50,↓,down,↓,0.6162596000358462,True,28,1
JK-K-21K21S2,921,experiment,77,←,left,←,0.48568050004541874,True,28,1
JK-K-21K21S2,922,experiment,80,←,left,←,0.4955556998029351,True,28,1
JK-K-21K21S2,923,training,54,→,right,→,0.4328469999600202,True,28,0
JK-K-21K21S2,924,training,71,→,left,←,0.5593800998758525,False,28,1
JK-K-21K21S2,925,experiment,89,←,left,←,0.5230528998654336,True,28,1
JK-K-21K21S2,926,experiment,70,←,left,←,0.46262929984368384,True,28,1
JK-K-21K21S2,927,experiment,92,↓,down,↓,0.5332478999625891,True,28,1
JK-K-21K21S2,928,experiment,67,↑,left,←,0.7454671999439597,False,28,1
JK-K-21K21S2,929,experiment,91,↓,down,↓,0.5167737000156194,True,28,1
JK-K-21K21S2,930,experiment,51,←,down,↓,0.6471098000183702,False,28,1
JK-K-21K21S2,931,experiment,107,↑,up,↑,0.5211425002198666,True,28,1
JK-K-21K21S2,932,experiment,106,→,right,→,0.6325681998860091,True,28,1
JK-K-21K21S2,933,experiment,69,↑,up,↑,0.6320000998675823,True,28,1
JK-K-21K21S2,934,experiment,57,↑,left,←,0.6912656999193132,False,28,1
JK-K-21K21S2,935,experiment,50,→,right,→,0.5028760998975486,True,28,1
JK-K-21K21S2,936,experiment,100,↓,down,↓,0.5531761001329869,True,28,1
JK-K-21K21S2,937,experiment,49,→,right,→,0.6187662000302225,True,28,1
JK-K-21K21S2,938,experiment,71,→,right,→,0.5139405000954866,True,28,1
JK-K-21K21S2,939,experiment,65,↑,up,↑,0.6234023999422789,True,28,1
JK-K-21K21S2,940,experiment,64,→,right,→,0.5447184999939054,True,28,1
JK-K-21K21S2,941,experiment,77,↓,down,↓,0.5291854999959469,True,28,1
JK-K-21K21S2,942,experiment,97,→,right,→,0.47545880009420216,True,28,1
JK-K-21K21S2,943,experiment,104,→,right,→,0.5012523999903351,True,28,1
JK-K-21K21S2,944,experiment,94,←,left,←,0.48962790006771684,True,28,1
JK-K-21K21S2,945,experiment,79,↑,up,↑,0.5473398000467569,True,28,1
JK-K-21K21S2,946,experiment,72,↓,down,↓,0.509153300197795,True,28,1
JK-K-21K21S2,947,experiment,58,↑,up,↑,0.6774022998288274,True,28,1
JK-K-21K21S2,948,experiment,75,→,right,→,0.45670300000347197,True,28,1
JK-K-21K21S2,949,experiment,103,→,right,→,0.4281346998177469,True,28,1
JK-K-21K21S2,950,experiment,83,↓,down,↓,0.5193614999298006,True,28,1
JK-K-21K21S2,951,experiment,102,←,right,→,0.9036930999718606,False,28,1
JK-K-21K21S2,952,experiment,48,→,left,←,0.5954855000600219,False,28,1
JK-K-21K21S2,953,experiment,108,↓,down,↓,0.5196344999130815,True,28,1
JK-K-21K21S2,954,experiment,78,←,down,↓,0.5925759000238031,False,28,1
JK-K-21K21S2,955,experiment,86,→,right,→,0.5799597001168877,True,28,1
JK-K-21K21S2,956,experiment,82,→,right,→,0.4489137998316437,True,28,1
JK-K-21K21S2,957,experiment,99,↓,down,↓,0.5737127000465989,True,28,1
JK-K-21K21S2,958,experiment,63,↑,right,→,0.8178780998568982,False,28,1
JK-K-21K21S2,959,experiment,87,↓,right,→,0.6996828999835998,False,28,1
JK-K-21K21S2,960,experiment,59,←,left,←,0.4763464001007378,True,28,1
JK-K-21K21S2,961,experiment,73,↓,down,↓,0.463967900024727,True,28,1
JK-K-21K21S2,962,experiment,105,↓,down,↓,0.5380461998283863,True,28,1
JK-K-21K21S2,963,experiment,66,↓,down,↓,0.550622700015083,True,28,1
JK-K-21K21S2,964,experiment,52,→,right,→,0.44705389998853207,True,28,1
JK-K-21K21S2,965,experiment,98,←,left,←,0.49987250007689,True,28,1
JK-K-21K21S2,966,experiment,85,→,right,→,0.45109419990330935,True,28,1
JK-K-21K21S2,967,experiment,93,↓,down,↓,0.9782686999533325,True,28,1
JK-K-21K21S2,968,experiment,101,→,right,→,0.4097376000136137,True,28,1
JK-K-21K21S2,969,experiment,95,→,no_key,no_letter,-1.0,False,28,1
JK-K-21K21S2,970,experiment,68,→,right,→,0.5574913001619279,True,28,1
JK-K-21K21S2,971,experiment,80,→,right,→,0.4207532999571413,True,28,1
JK-K-21K21S2,972,experiment,54,↑,up,↑,0.5293686999939382,True,28,1
JK-K-21K21S2,973,experiment,55,→,right,→,0.537541399942711,True,28,1
JK-K-21K21S2,974,experiment,61,↑,up,↑,0.6630257000215352,True,28,1
JK-K-21K21S2,975,experiment,88,↓,down,↓,0.5186900000553578,True,28,1
JK-K-21K21S2,976,experiment,90,←,right,→,0.6837955999653786,False,28,1
JK-K-21K21S2,977,experiment,74,↓,down,↓,0.6234734999015927,True,28,1
JK-K-21K21S2,978,experiment,56,→,right,→,0.5878070001490414,True,28,1
JK-K-21K21S2,979,experiment,76,←,left,←,0.6743059000000358,True,28,1
JK-K-21K21S2,980,experiment,81,→,right,→,0.5321782999671996,True,28,1
JK-K-21K21S2,981,experiment,62,←,left,←,0.4496099001262337,True,28,1
JK-K-21K21S2,982,experiment,53,↓,down,↓,0.5659167999401689,True,28,1
JK-K-21K21S2,983,experiment,96,→,right,→,0.45485279988497496,True,28,1
JK-K-21K21S2,984,experiment,84,↑,up,↑,0.6083484999835491,True,28,1
JK-K-21K21S2,985,experiment,60,→,right,→,0.46779310004785657,True,28,1
JK-K-21K21S2,986,training,55,↓,left,←,1.3499880000017583,False,28,0
JK-K-21K21S2,987,training,91,←,left,←,0.5451634000055492,True,28,1
JK-K-21K21S2,988,experiment,57,←,left,←,0.5283077999483794,True,28,1
JK-K-21K21S2,989,experiment,63,↓,left,←,1.1662538000382483,False,28,1
JK-K-21K21S2,990,experiment,90,↑,down,↓,1.5931249998975545,False,28,1
JK-K-21K21S2,991,experiment,97,↓,down,↓,0.6246539999265224,True,28,1
JK-K-21K21S2,992,experiment,50,↑,up,↑,0.5505769001320004,True,28,1
JK-K-21K21S2,993,experiment,92,←,right,→,0.8824288998730481,False,28,1
JK-K-21K21S2,994,experiment,102,↑,right,→,1.2759903001133353,False,28,1
JK-K-21K21S2,995,experiment,73,↓,down,↓,0.5842867000028491,True,28,1
JK-K-21K21S2,996,experiment,104,↑,up,↑,0.5180790999438614,True,28,1
JK-K-21K21S2,997,experiment,103,↑,down,↓,0.5828219999093562,False,28,1
JK-K-21K21S2,998,experiment,70,↓,up,↑,0.6078286000993103,False,28,1
JK-K-21K21S2,999,experiment,96,→,right,→,0.5511355998460203,True,28,1
JK-K-21K21S2,1000,experiment,60,↑,left,←,0.5890846999827772,False,28,1
JK-K-21K21S2,1001,experiment,49,↑,left,←,0.6766919998917729,False,28,1
JK-K-21K21S2,1002,experiment,87,←,right,→,0.6525510000064969,False,28,1
JK-K-21K21S2,1003,experiment,78,↑,up,↑,0.4562885998748243,True,28,1
JK-K-21K21S2,1004,experiment,86,→,right,→,0.45698009990155697,True,28,1
JK-K-21K21S2,1005,experiment,99,←,left,←,0.5732515999116004,True,28,1
JK-K-21K21S2,1006,experiment,106,←,left,←,0.5066147998441011,True,28,1
JK-K-21K21S2,1007,experiment,66,↑,up,↑,0.6560452999547124,True,28,1
JK-K-21K21S2,1008,experiment,64,↓,down,↓,0.520211199996993,True,28,1
JK-K-21K21S2,1009,experiment,77,←,left,←,0.4022041999269277,True,28,1
JK-K-21K21S2,1010,experiment,94,→,right,→,0.4576196998823434,True,28,0
JK-K-21K21S2,1011,experiment,58,↑,up,↑,0.5317621999420226,True,28,1
JK-K-21K21S2,1012,experiment,72,↓,down,↓,0.470172300003469,True,28,1
JK-K-21K21S2,1013,experiment,88,↓,down,↓,0.46976829995401204,True,28,1
JK-K-21K21S2,1014,experiment,95,↓,down,↓,0.5871681000571698,True,28,1
JK-K-21K21S2,1015,experiment,62,↓,up,↑,0.5029533999040723,False,28,1
JK-K-21K21S2,1016,experiment,55,→,right,→,0.4404702000319958,True,28,1
JK-K-21K21S2,1017,experiment,101,↑,up,↑,0.4367718000430614,True,28,1
JK-K-21K21S2,1018,experiment,53,↑,up,↑,0.4023125998210162,True,28,1
JK-K-21K21S2,1019,experiment,93,→,right,→,0.4098175000399351,True,28,0
JK-K-21K21S2,1020,experiment,48,→,right,→,0.7934249001555145,True,28,0
JK-K-21K21S2,1021,experiment,65,←,right,→,0.5557657999452204,False,28,1
JK-K-21K21S2,1022,experiment,67,↓,up,↑,0.4953215999994427,False,28,1
JK-K-21K21S2,1023,experiment,52,↓,up,↑,0.7778388999868184,False,28,1
JK-K-21K21S2,1024,experiment,89,←,right,→,0.5006416998803616,False,28,1
JK-K-21K21S2,1025,experiment,56,↓,down,↓,0.4938127000350505,True,28,1
JK-K-21K21S2,1026,experiment,75,→,right,→,0.5688481000252068,True,28,1
JK-K-21K21S2,1027,experiment,76,→,right,→,0.4405326000414789,True,28,1
JK-K-21K21S2,1028,experiment,69,↓,down,↓,0.5280291000381112,True,28,1
JK-K-21K21S2,1029,experiment,107,→,right,→,0.47090520011261106,True,28,1
JK-K-21K21S2,1030,experiment,61,↓,down,↓,0.4795795998070389,True,28,1
JK-K-21K21S2,1031,experiment,85,↑,up,↑,0.5994449998252094,True,28,1
JK-K-21K21S2,1032,experiment,71,→,right,→,0.6079259999096394,True,28,1
JK-K-21K21S2,1033,experiment,98,→,right,→,0.5185112999752164,True,28,1
JK-K-21K21S2,1034,experiment,100,↑,up,↑,0.4960370999760926,True,28,1
JK-K-21K21S2,1035,experiment,59,↑,up,↑,0.4170872999820858,True,28,1
JK-K-21K21S2,1036,experiment,108,→,right,→,0.6035098999273032,True,28,1
JK-K-21K21S2,1037,experiment,84,←,left,←,0.5191307000350207,True,28,1
JK-K-21K21S2,1038,experiment,74,↑,up,↑,0.5300348999444395,True,28,1
JK-K-21K21S2,1039,experiment,51,→,right,→,0.4990791999734938,True,28,1
JK-K-21K21S2,1040,experiment,68,↓,down,↓,0.5040228001307696,True,28,1
JK-K-21K21S2,1041,experiment,83,↓,down,↓,0.6168657001107931,True,28,1
JK-K-21K21S2,1042,experiment,54,↓,up,↑,0.8211900999303907,False,28,1
JK-K-21K21S2,1043,experiment,80,→,right,→,0.5053051998838782,True,28,1
JK-K-21K21S2,1044,experiment,79,←,left,←,0.5224280001129955,True,28,1
JK-K-21K21S2,1045,experiment,82,→,left,←,0.5936368000693619,False,28,1
JK-K-21K21S2,1046,experiment,81,←,left,←,0.40755559992976487,True,28,1
JK-K-21K21S2,1047,experiment,105,←,left,←,0.5713849000167102,True,28,0
JK-K-21K21S2,1048,experiment,91,←,left,←,0.6219325999263674,True,28,1
JK-K-21K21S2,1049,training,88,←,left,←,0.961147699970752,True,28,0
JK-K-21K21S2,1050,training,88,↓,down,↓,0.453064400004223,True,28,1
JK-K-21K21S2,1051,experiment,61,→,left,←,0.5908433999866247,False,28,1
JK-K-21K21S2,1052,experiment,84,↑,up,↑,1.2185188001021743,True,28,1
JK-K-21K21S2,1053,experiment,71,←,left,←,0.5779335999395698,True,28,1
JK-K-21K21S2,1054,experiment,103,↑,up,↑,0.4323352000210434,True,28,1
JK-K-21K21S2,1055,experiment,67,→,right,→,0.44031819980591536,True,28,1
JK-K-21K21S2,1056,experiment,78,←,left,←,0.476431000046432,True,28,1
JK-K-21K21S2,1057,experiment,101,→,right,→,0.607296200003475,True,28,1
JK-K-21K21S2,1058,experiment,94,→,right,→,0.5757766000460833,True,28,1
JK-K-21K21S2,1059,experiment,107,←,left,←,0.6204759001266211,True,28,1
JK-K-21K21S2,1060,experiment,80,↓,down,↓,0.6810838999226689,True,28,1
JK-K-21K21S2,1061,experiment,55,↑,up,↑,0.4509091000072658,True,28,1
JK-K-21K21S2,1062,experiment,73,↑,up,↑,0.576620299834758,True,28,1
JK-K-21K21S2,1063,experiment,88,↓,down,↓,0.6757912000175565,True,28,1
JK-K-21K21S2,1064,experiment,50,→,right,→,0.47989449999295175,True,28,1
JK-K-21K21S2,1065,experiment,74,↓,down,↓,0.6278661999385804,True,28,1
JK-K-21K21S2,1066,experiment,66,↑,up,↑,0.532560900086537,True,28,1
JK-K-21K21S2,1067,experiment,100,←,left,←,0.4692408998962492,True,28,1
JK-K-21K21S2,1068,experiment,82,→,right,→,0.4233975000679493,True,28,1
JK-K-21K21S2,1069,experiment,95,←,left,←,0.5263394000940025,True,28,1
JK-K-21K21S2,1070,experiment,51,→,right,→,0.5520305999089032,True,28,1
JK-K-21K21S2,1071,experiment,70,→,left,←,0.5941982001531869,False,28,1
JK-K-21K21S2,1072,experiment,57,↑,up,↑,0.5596821999642998,True,28,1
JK-K-21K21S2,1073,experiment,108,↓,down,↓,0.7007421001326293,True,28,1
JK-K-21K21S2,1074,experiment,91,→,left,←,0.6100556999444962,False,28,1
JK-K-21K21S2,1075,experiment,92,←,left,←,0.49890140001662076,True,28,1
JK-K-21K21S2,1076,experiment,96,←,left,←,0.5986244000960141,True,28,1
JK-K-21K21S2,1077,experiment,89,↑,up,↑,0.5126900998875499,True,28,1
JK-K-21K21S2,1078,experiment,58,→,right,→,0.48857519985176623,True,28,1
JK-K-21K21S2,1079,experiment,79,→,right,→,0.442270299885422,True,28,1
JK-K-21K21S2,1080,experiment,54,→,right,→,0.47045559994876385,True,28,1
JK-K-21K21S2,1081,experiment,97,↑,up,↑,0.458897199947387,True,28,1
JK-K-21K21S2,1082,experiment,72,←,left,←,0.40108369989320636,True,28,1
JK-K-21K21S2,1083,experiment,76,→,right,→,0.44654840021394193,True,28,0
JK-K-21K21S2,1084,experiment,63,↓,down,↓,0.6073482998181134,True,28,1
JK-K-21K21S2,1085,experiment,86,→,right,→,0.4660720999818295,True,28,1
JK-K-21K21S2,1086,experiment,98,↓,down,↓,0.47857540007680655,True,28,1
JK-K-21K21S2,1087,experiment,59,←,left,←,0.4472805999685079,True,28,1
JK-K-21K21S2,1088,experiment,60,↑,up,↑,0.4021342999767512,True,28,1
JK-K-21K21S2,1089,experiment,104,→,right,→,0.45408800011500716,True,28,0
JK-K-21K21S2,1090,experiment,105,↑,down,↓,0.6563260001130402,False,28,1
JK-K-21K21S2,1091,experiment,106,←,left,←,0.43438889994286,True,28,1
JK-K-21K21S2,1092,experiment,56,→,right,→,0.5823389000725001,True,28,1
JK-K-21K21S2,1093,experiment,83,↑,up,↑,0.4670434999279678,True,28,1
JK-K-21K21S2,1094,experiment,85,→,right,→,0.4996544001623988,True,28,1
JK-K-21K21S2,1095,experiment,75,↓,down,↓,0.6703311000019312,True,28,1
JK-K-21K21S2,1096,experiment,49,↓,down,↓,0.5151579999364913,True,28,1
JK-K-21K21S2,1097,experiment,102,↑,up,↑,0.5080619999207556,True,28,1
JK-K-21K21S2,1098,experiment,52,→,up,↑,0.7584214999806136,False,28,1
JK-K-21K21S2,1099,experiment,69,←,left,←,0.520649699959904,True,28,1
JK-K-21K21S2,1100,experiment,77,↓,down,↓,0.489581499947235,True,28,1
JK-K-21K21S2,1101,experiment,93,←,left,←,0.6227945999708027,True,28,1
JK-K-21K21S2,1102,experiment,48,→,right,→,0.4695902999956161,True,28,1
JK-K-21K21S2,1103,experiment,90,→,right,→,0.43664940004236996,True,28,1
JK-K-21K21S2,1104,experiment,65,←,left,←,0.48536809999495745,True,28,1
JK-K-21K21S2,1105,experiment,53,↑,up,↑,0.4960263001266867,True,28,1
JK-K-21K21S2,1106,experiment,87,←,right,→,0.5267630000598729,False,28,1
JK-K-21K21S2,1107,experiment,64,→,right,→,0.4445646000094712,True,28,1
JK-K-21K21S2,1108,experiment,68,↓,down,↓,0.42779939994215965,True,28,1
JK-K-21K21S2,1109,experiment,62,→,right,→,0.4138702000491321,True,28,1
JK-K-21K21S2,1110,experiment,99,↑,up,↑,0.5000630000140518,True,28,1
JK-K-21K21S2,1111,experiment,81,↑,up,↑,0.49266169988550246,True,28,1
JK-K-21K21S2,1112,training,53,↓,up,↑,0.5383056001737714,False,28,0
JK-K-21K21S2,1113,training,68,↑,up,↑,0.44613970001228154,True,28,1
JK-K-21K21S2,1114,experiment,94,↓,down,↓,0.5079810998868197,True,28,1
JK-K-21K21S2,1115,experiment,58,→,right,→,0.5001767999492586,True,28,1
JK-K-21K21S2,1116,experiment,80,↓,down,↓,0.541222200030461,True,28,1
JK-K-21K21S2,1117,experiment,93,↓,down,↓,0.45621369988657534,True,28,1
JK-K-21K21S2,1118,experiment,82,→,right,→,0.4027176999952644,True,28,1
JK-K-21K21S2,1119,experiment,79,↑,down,↓,0.6875554998405278,False,28,0
JK-K-21K21S2,1120,experiment,105,↑,up,↑,1.2726919997949153,True,28,1
JK-K-21K21S2,1121,experiment,50,←,no_key,no_letter,-1.0,False,28,1
JK-K-21K21S2,1122,experiment,95,→,right,→,0.43291070009581745,True,28,1
JK-K-21K21S2,1123,experiment,76,→,right,→,0.42186050000600517,True,28,1
JK-K-21K21S2,1124,experiment,56,→,right,→,0.4587191001046449,True,28,1
JK-K-21K21S2,1125,experiment,48,↓,down,↓,0.5514861999545246,True,28,1
JK-K-21K21S2,1126,experiment,88,↑,up,↑,0.4045457001775503,True,28,1
JK-K-21K21S2,1127,experiment,81,→,right,→,0.6083992999047041,True,28,0
JK-K-21K21S2,1128,experiment,85,↓,down,↓,0.4834192998241633,True,28,1
JK-K-21K21S2,1129,experiment,98,↑,up,↑,0.44728620001114905,True,28,1
JK-K-21K21S2,1130,experiment,101,←,left,←,0.4671796001493931,True,28,1
JK-K-21K21S2,1131,experiment,66,→,right,→,0.530310699949041,True,28,1
JK-K-21K21S2,1132,experiment,70,←,right,→,0.7253215999808162,False,28,1
JK-K-21K21S2,1133,experiment,91,→,right,→,0.4818696998991072,True,28,1
JK-K-21K21S2,1134,experiment,64,→,right,→,0.6408100000116974,True,28,1
JK-K-21K21S2,1135,experiment,83,↓,down,↓,0.45924309990368783,True,28,1
JK-K-21K21S2,1136,experiment,92,↓,down,↓,0.562089400133118,True,28,1
JK-K-21K21S2,1137,experiment,55,↓,up,↑,0.6011794998776168,False,28,1
JK-K-21K21S2,1138,experiment,69,←,left,←,0.513738099951297,True,28,1
JK-K-21K21S2,1139,experiment,67,↓,down,↓,0.49514090013690293,True,28,1
JK-K-21K21S2,1140,experiment,104,→,right,→,0.48010080005042255,True,28,1
JK-K-21K21S2,1141,experiment,49,↓,down,↓,0.5959483999758959,True,28,1
JK-K-21K21S2,1142,experiment,90,↑,up,↑,1.605725099798292,True,28,1
JK-K-21K21S2,1143,experiment,52,→,right,→,0.5077287999447435,True,28,1
JK-K-21K21S2,1144,experiment,61,↓,down,↓,0.442540000192821,True,28,1
JK-K-21K21S2,1145,experiment,60,←,left,←,0.5327594999689609,True,28,1
JK-K-21K21S2,1146,experiment,59,←,left,←,0.5155929999891669,True,28,1
JK-K-21K21S2,1147,experiment,74,←,right,→,0.5819643998984247,False,28,1
JK-K-21K21S2,1148,experiment,84,→,right,→,0.578591600060463,True,28,1
JK-K-21K21S2,1149,experiment,78,↓,down,↓,0.5291047999635339,True,28,1
JK-K-21K21S2,1150,experiment,62,↓,down,↓,0.567447799956426,True,28,1
JK-K-21K21S2,1151,experiment,106,↑,up,↑,0.5088696999009699,True,28,1
JK-K-21K21S2,1152,experiment,51,→,right,→,0.43938360013999045,True,28,1
JK-K-21K21S2,1153,experiment,99,←,left,←,0.4683473000768572,True,28,1
JK-K-21K21S2,1154,experiment,73,→,right,→,0.48131319996900856,True,28,1
JK-K-21K21S2,1155,experiment,86,↑,up,↑,0.5208781999535859,True,28,1
JK-K-21K21S2,1156,experiment,72,→,left,←,0.6114471999462694,False,28,1
JK-K-21K21S2,1157,experiment,100,↓,down,↓,0.42566880001686513,True,28,1
JK-K-21K21S2,1158,experiment,57,←,left,←,0.46939029986970127,True,28,1
JK-K-21K21S2,1159,experiment,77,→,right,→,0.44895830005407333,True,28,1
JK-K-21K21S2,1160,experiment,54,↑,up,↑,0.7005658000707626,True,28,1
JK-K-21K21S2,1161,experiment,97,↓,down,↓,0.680161900119856,True,28,1
JK-K-21K21S2,1162,experiment,102,←,left,←,0.610492100007832,True,28,1
JK-K-21K21S2,1163,experiment,53,→,right,→,0.5282901998143643,True,28,1
JK-K-21K21S2,1164,experiment,107,↑,up,↑,0.5193690001033247,True,28,1
JK-K-21K21S2,1165,experiment,103,↑,up,↑,1.1116998998913914,True,28,1
JK-K-21K21S2,1166,experiment,108,←,left,←,0.5511310999281704,True,28,1
JK-K-21K21S2,1167,experiment,87,↑,up,↑,0.4127648000139743,True,28,1
JK-K-21K21S2,1168,experiment,65,→,right,→,0.5254470999352634,True,28,1
JK-K-21K21S2,1169,experiment,63,↓,up,↑,0.48342929990030825,False,28,1
JK-K-21K21S2,1170,experiment,68,→,right,→,0.5928096000570804,True,28,1
JK-K-21K21S2,1171,experiment,89,←,left,←,0.6192052001133561,True,28,1
JK-K-21K21S2,1172,experiment,96,→,right,→,0.45032149995677173,True,28,1
JK-K-21K21S2,1173,experiment,75,←,left,←,1.0148804001510143,True,28,1
JK-K-21K21S2,1174,experiment,71,↑,up,↑,0.526288399938494,True,28,1
JK-K-21K21S2,1175,training,60,↓,down,↓,0.7248547000344843,True,28,0
JK-K-21K21S2,1176,training,58,↓,down,↓,0.6683282000012696,True,28,1
JK-K-21K21S2,1177,experiment,62,↓,down,↓,0.9485017999541014,True,28,1
JK-K-21K21S2,1178,experiment,68,←,left,←,0.8397935000248253,True,28,1
JK-K-21K21S2,1179,experiment,87,→,right,→,0.6004579998552799,True,28,1
JK-K-21K21S2,1180,experiment,108,↓,down,↓,0.5642673000693321,True,28,1
JK-K-21K21S2,1181,experiment,55,↑,up,↑,0.6268953999970108,True,28,1
JK-K-21K21S2,1182,experiment,107,↓,up,↑,0.6859911999199539,False,28,1
JK-K-21K21S2,1183,experiment,91,↑,down,↓,0.6845649001188576,False,28,1
JK-K-21K21S2,1184,experiment,92,↓,down,↓,0.5056632000487298,True,28,1
JK-K-21K21S2,1185,experiment,56,↓,down,↓,0.5864232999738306,True,28,1
JK-K-21K21S2,1186,experiment,99,↑,up,↑,0.45006170007400215,True,28,1
JK-K-21K21S2,1187,experiment,83,↓,down,↓,0.6999015000183135,True,28,1
JK-K-21K21S2,1188,experiment,64,↓,up,↑,0.7545147000346333,False,28,1
JK-K-21K21S2,1189,experiment,105,↓,down,↓,0.41739959991537035,True,28,1
JK-K-21K21S2,1190,experiment,90,←,left,←,0.5780837000347674,True,28,1
JK-K-21K21S2,1191,experiment,67,←,left,←,0.5166054000146687,True,28,1
JK-K-21K21S2,1192,experiment,86,←,left,←,0.6189065999351442,True,28,1
JK-K-21K21S2,1193,experiment,48,←,left,←,0.41075209993869066,True,28,1
JK-K-21K21S2,1194,experiment,52,↓,down,↓,0.543713100021705,True,28,1
JK-K-21K21S2,1195,experiment,76,←,left,←,0.424626300111413,True,28,1
JK-K-21K21S2,1196,experiment,75,←,left,←,0.35154900001361966,True,28,1
JK-K-21K21S2,1197,experiment,95,↑,up,↑,0.4082557000219822,True,28,0
JK-K-21K21S2,1198,experiment,59,↑,up,↑,0.7714139001909643,True,28,1
JK-K-21K21S2,1199,experiment,104,←,left,←,0.5453802000265568,True,28,1
JK-K-21K21S2,1200,experiment,88,→,right,→,0.6461099002044648,True,28,1
JK-K-21K21S2,1201,experiment,78,→,right,→,0.5941588999703526,True,28,1
JK-K-21K21S2,1202,experiment,102,→,right,→,0.4321825001388788,True,28,1
JK-K-21K21S2,1203,experiment,85,↓,down,↓,0.7384303000289947,True,28,1
JK-K-21K21S2,1204,experiment,72,←,left,←,0.43659389996901155,True,28,1
JK-K-21K21S2,1205,experiment,51,↑,up,↑,0.4738119998946786,True,28,1
JK-K-21K21S2,1206,experiment,50,→,right,→,0.5180688998661935,True,28,1
JK-K-21K21S2,1207,experiment,101,→,right,→,0.38410480017773807,True,28,1
JK-K-21K21S2,1208,experiment,66,↑,up,↑,0.657328899949789,True,28,0
JK-K-21K21S2,1209,experiment,61,↓,down,↓,0.5064624999649823,True,28,1
JK-K-21K21S2,1210,experiment,80,→,right,→,0.5709834999870509,True,28,1
JK-K-21K21S2,1211,experiment,79,↑,up,↑,0.5702728000469506,True,28,1
JK-K-21K21S2,1212,experiment,69,↑,up,↑,0.4199400001671165,True,28,1
JK-K-21K21S2,1213,experiment,82,↓,up,↑,0.5270330000203103,False,28,1
JK-K-21K21S2,1214,experiment,77,→,right,→,0.512273000087589,True,28,1
JK-K-21K21S2,1215,experiment,60,→,right,→,0.5278868000023067,True,28,1
JK-K-21K21S2,1216,experiment,53,↓,down,↓,0.5366899000946432,True,28,1
JK-K-21K21S2,1217,experiment,57,→,right,→,0.5517202999908477,True,28,1
JK-K-21K21S2,1218,experiment,84,↓,no_key,no_letter,-1.0,False,28,1
JK-K-21K21S2,1219,experiment,96,→,right,→,0.608855800004676,True,28,1
JK-K-21K21S2,1220,experiment,63,↓,down,↓,0.4833860001526773,True,28,1
JK-K-21K21S2,1221,experiment,98,↑,up,↑,0.454949899809435,True,28,1
JK-K-21K21S2,1222,experiment,54,→,right,→,0.4188622999936342,True,28,1
JK-K-21K21S2,1223,experiment,81,→,right,→,0.4305959001649171,True,28,1
JK-K-21K21S2,1224,experiment,100,←,left,←,0.44393259985372424,True,28,1
JK-K-21K21S2,1225,experiment,94,↑,up,↑,1.1146078000310808,True,28,1
JK-K-21K21S2,1226,experiment,65,↓,down,↓,0.4879461999516934,True,28,1
JK-K-21K21S2,1227,experiment,106,←,left,←,0.5685015001799911,True,28,1
JK-K-21K21S2,1228,experiment,73,→,right,→,0.40196019993163645,True,28,1
JK-K-21K21S2,1229,experiment,93,↓,down,↓,0.4818229000084102,True,28,0
JK-K-21K21S2,1230,experiment,71,↑,down,↓,0.5743756999727339,False,28,1
JK-K-21K21S2,1231,experiment,103,↑,up,↑,0.5807662999723107,True,28,1
JK-K-21K21S2,1232,experiment,97,↑,up,↑,0.38400850002653897,True,28,1
JK-K-21K21S2,1233,experiment,58,←,left,←,0.4416114001069218,True,28,0
JK-K-21K21S2,1234,experiment,70,←,left,←,0.4010685000102967,True,28,1
JK-K-21K21S2,1235,experiment,89,↓,down,↓,0.49805929977446795,True,28,0
JK-K-21K21S2,1236,experiment,74,←,left,←,0.4212992999237031,True,28,1
JK-K-21K21S2,1237,experiment,49,→,right,→,0.4597306000068784,True,28,1
JK-K-21K21S2,1238,training,86,→,right,→,1.2253711000084877,True,28,0
JK-K-21K21S2,1239,training,56,←,left,←,0.5013949999120086,True,28,1
JK-K-21K21S2,1240,experiment,64,↓,up,↑,0.6519075999967754,False,28,1
JK-K-21K21S2,1241,experiment,95,↑,up,↑,0.4500971999950707,True,28,1
JK-K-21K21S2,1242,experiment,50,←,left,←,0.687023299979046,True,28,1
JK-K-21K21S2,1243,experiment,61,↓,up,↑,0.5830955000128597,False,28,1
JK-K-21K21S2,1244,experiment,49,←,left,←,0.5912162999156862,True,28,1
JK-K-21K21S2,1245,experiment,108,←,left,←,0.659458699868992,True,28,1
JK-K-21K21S2,1246,experiment,63,↑,up,↑,0.47572529991157353,True,28,1
JK-K-21K21S2,1247,experiment,87,←,left,←,0.42742349999025464,True,28,1
JK-K-21K21S2,1248,experiment,104,↓,down,↓,0.5114123001694679,True,28,1
JK-K-21K21S2,1249,experiment,107,↑,up,↑,0.3842447998467833,True,28,1
JK-K-21K21S2,1250,experiment,105,↑,up,↑,0.4521435999777168,True,28,0
JK-K-21K21S2,1251,experiment,58,↑,up,↑,0.5906105998437852,True,28,1
JK-K-21K21S2,1252,experiment,97,←,left,←,0.42278150003403425,True,28,1
JK-K-21K21S2,1253,experiment,77,↑,up,↑,0.4753729000221938,True,28,1
JK-K-21K21S2,1254,experiment,55,←,left,←,0.42241529980674386,True,28,1
JK-K-21K21S2,1255,experiment,57,↑,up,↑,0.4655061000958085,True,28,1
JK-K-21K21S2,1256,experiment,88,↑,up,↑,1.3534956998191774,True,28,1
JK-K-21K21S2,1257,experiment,90,→,right,→,0.5489584999158978,True,28,1
JK-K-21K21S2,1258,experiment,69,↓,up,↑,0.5598480999469757,False,28,1
JK-K-21K21S2,1259,experiment,72,→,right,→,0.54518590006046,True,28,1
JK-K-21K21S2,1260,experiment,51,←,left,←,0.6023673999588937,True,28,1
JK-K-21K21S2,1261,experiment,62,→,right,→,0.43736919993534684,True,28,1
JK-K-21K21S2,1262,experiment,81,→,right,→,0.4567868001759052,True,28,1
JK-K-21K21S2,1263,experiment,74,→,right,→,0.5493765999563038,True,28,1
JK-K-21K21S2,1264,experiment,85,↓,up,↑,0.6987451000604779,False,28,1
JK-K-21K21S2,1265,experiment,56,→,right,→,0.4838774998206645,True,28,1
JK-K-21K21S2,1266,experiment,93,↓,down,↓,0.5613772999495268,True,28,1
JK-K-21K21S2,1267,experiment,91,→,right,→,0.4443355000112206,True,28,1
JK-K-21K21S2,1268,experiment,78,→,right,→,0.5764303000178188,True,28,1
JK-K-21K21S2,1269,experiment,52,↓,down,↓,0.5120265998411924,True,28,1
JK-K-21K21S2,1270,experiment,83,←,left,←,0.5118290001992136,True,28,1
JK-K-21K21S2,1271,experiment,98,←,right,→,0.5702661001123488,False,28,1
JK-K-21K21S2,1272,experiment,89,↓,down,↓,0.6296703000552952,True,28,1
JK-K-21K21S2,1273,experiment,66,↓,down,↓,0.6224622998852283,True,28,1
JK-K-21K21S2,1274,experiment,92,↑,up,↑,0.6384479999542236,True,28,1
JK-K-21K21S2,1275,experiment,86,↑,up,↑,0.48773910012096167,True,28,1
JK-K-21K21S2,1276,experiment,79,→,right,→,0.8575726000126451,True,28,1
JK-K-21K21S2,1277,experiment,68,←,left,←,0.48842499987222254,True,28,1
JK-K-21K21S2,1278,experiment,102,←,left,←,0.47475729999132454,True,28,1
JK-K-21K21S2,1279,experiment,106,→,left,←,0.5565025000832975,False,28,1
JK-K-21K21S2,1280,experiment,59,←,left,←,0.44979469990357757,True,28,1
JK-K-21K21S2,1281,experiment,82,↑,up,↑,0.46826669992879033,True,28,1
JK-K-21K21S2,1282,experiment,73,↓,down,↓,0.6488588000647724,True,28,1
JK-K-21K21S2,1283,experiment,60,↑,up,↑,0.41141750011593103,True,28,1
JK-K-21K21S2,1284,experiment,94,→,left,←,0.6184616999235004,False,28,1
JK-K-21K21S2,1285,experiment,67,→,right,→,0.4117429999168962,True,28,1
JK-K-21K21S2,1286,experiment,75,←,left,←,0.4098665998317301,True,28,1
JK-K-21K21S2,1287,experiment,103,↓,up,↑,0.5339293999131769,False,28,1
JK-K-21K21S2,1288,experiment,101,↑,up,↑,0.4788625000510365,True,28,1
JK-K-21K21S2,1289,experiment,71,↓,down,↓,0.48374149994924664,True,28,1
JK-K-21K21S2,1290,experiment,70,→,right,→,0.44086390011943877,True,28,1
JK-K-21K21S2,1291,experiment,65,→,right,→,0.6573018999770284,True,28,1
JK-K-21K21S2,1292,experiment,76,→,right,→,0.5015124999918044,True,28,1
JK-K-21K21S2,1293,experiment,100,→,right,→,0.5197190998587757,True,28,1
JK-K-21K21S2,1294,experiment,53,↓,down,↓,0.5691306998487562,True,28,1
JK-K-21K21S2,1295,experiment,96,→,right,→,0.41856989986263216,True,28,1
JK-K-21K21S2,1296,experiment,84,↑,up,↑,0.40527540002949536,True,28,1
JK-K-21K21S2,1297,experiment,80,↓,down,↓,0.457992099924013,True,28,0
JK-K-21K21S2,1298,experiment,99,↓,down,↓,0.6303159000817686,True,28,1
JK-K-21K21S2,1299,experiment,54,←,left,←,0.45865319995209575,True,28,1
JK-K-21K21S2,1300,experiment,48,←,left,←,0.4643063999246806,True,28,1
JK-K-21K21S2,1301,training,101,→,left,←,0.4375126000959426,False,28,0
JK-K-21K21S2,1302,training,89,↑,up,↑,0.4225240000523627,True,28,1
JK-K-21K21S2,1303,experiment,70,→,right,→,0.4216251000761986,True,28,1
JK-K-21K21S2,1304,experiment,50,←,left,←,0.9717202999163419,True,28,1
JK-K-21K21S2,1305,experiment,63,→,right,→,0.615423500072211,True,28,1
JK-K-21K21S2,1306,experiment,58,↓,down,↓,0.47500550001859665,True,28,1
JK-K-21K21S2,1307,experiment,71,↓,down,↓,0.49606569996103644,True,28,1
JK-K-21K21S2,1308,experiment,105,↓,down,↓,0.6410392001271248,True,28,1
JK-K-21K21S2,1309,experiment,74,↑,up,↑,1.262345999944955,True,28,1
JK-K-21K21S2,1310,experiment,76,↓,down,↓,0.4343890000600368,True,28,1
JK-K-21K21S2,1311,experiment,84,↓,down,↓,0.7244749998208135,True,28,1
JK-K-21K21S2,1312,experiment,59,↑,up,↑,0.43569989991374314,True,28,1
JK-K-21K21S2,1313,experiment,82,→,right,→,0.5107891999650747,True,28,1
JK-K-21K21S2,1314,experiment,88,↓,up,↑,0.7169108001980931,False,28,1
JK-K-21K21S2,1315,experiment,89,→,right,→,0.5142930001020432,True,28,1
JK-K-21K21S2,1316,experiment,107,↓,down,↓,0.5536355001386255,True,28,1
JK-K-21K21S2,1317,experiment,103,↓,down,↓,0.4567223999183625,True,28,1
JK-K-21K21S2,1318,experiment,87,↑,up,↑,0.577213300159201,True,28,1
JK-K-21K21S2,1319,experiment,68,→,right,→,0.5313017000444233,True,28,1
JK-K-21K21S2,1320,experiment,60,←,left,←,0.41825009998865426,True,28,1
JK-K-21K21S2,1321,experiment,52,←,right,→,0.5354063999839127,False,28,1
JK-K-21K21S2,1322,experiment,92,→,right,→,0.45136839989572763,True,28,1
JK-K-21K21S2,1323,experiment,55,←,left,←,0.48686790000647306,True,28,1
JK-K-21K21S2,1324,experiment,61,←,left,←,0.3504965000320226,True,28,1
JK-K-21K21S2,1325,experiment,101,←,left,←,0.36741400021128356,True,28,0
JK-K-21K21S2,1326,experiment,102,↑,up,↑,1.3331815998535603,True,28,0
JK-K-21K21S2,1327,experiment,54,→,right,→,0.5657041999511421,True,28,1
JK-K-21K21S2,1328,experiment,56,←,right,→,0.5319874999113381,False,28,1
JK-K-21K21S2,1329,experiment,53,←,left,←,0.358936500037089,True,28,1
JK-K-21K21S2,1330,experiment,108,↑,up,↑,0.50566739984788,True,28,0
JK-K-21K21S2,1331,experiment,96,↓,down,↓,0.7411599999759346,True,28,1
JK-K-21K21S2,1332,experiment,94,←,left,←,0.4959285999648273,True,28,1
JK-K-21K21S2,1333,experiment,67,↑,up,↑,0.42907759989611804,True,28,1
JK-K-21K21S2,1334,experiment,90,↑,up,↑,0.5658855999354273,True,28,1
JK-K-21K21S2,1335,experiment,85,→,right,→,0.514889599988237,True,28,1
JK-K-21K21S2,1336,experiment,98,↓,down,↓,0.5090397000312805,True,28,1
JK-K-21K21S2,1337,experiment,64,↑,up,↑,0.4363557000178844,True,28,1
JK-K-21K21S2,1338,experiment,78,→,left,←,0.5916051999665797,False,28,1
JK-K-21K21S2,1339,experiment,100,←,right,→,0.5505341999232769,False,28,1
JK-K-21K21S2,1340,experiment,75,↑,up,↑,1.0709492999594659,True,28,1
JK-K-21K21S2,1341,experiment,73,←,left,←,0.43564909999258816,True,28,1
JK-K-21K21S2,1342,experiment,99,↑,up,↑,0.36726019997149706,True,28,1
JK-K-21K21S2,1343,experiment,93,→,right,→,0.4986143000423908,True,28,0
JK-K-21K21S2,1344,experiment,69,←,left,←,0.49542299984022975,True,28,1
JK-K-21K21S2,1345,experiment,83,→,left,←,0.5436817000154406,False,28,1
JK-K-21K21S2,1346,experiment,48,→,right,→,0.4258842000272125,True,28,1
JK-K-21K21S2,1347,experiment,91,↓,up,↑,0.46609000000171363,False,28,1
JK-K-21K21S2,1348,experiment,80,←,left,←,0.43656990001909435,True,28,1
JK-K-21K21S2,1349,experiment,95,→,right,→,0.48332699993625283,True,28,1
JK-K-21K21S2,1350,experiment,86,↓,down,↓,0.4830571999773383,True,28,1
JK-K-21K21S2,1351,experiment,66,→,right,→,0.4737235000357032,True,28,1
JK-K-21K21S2,1352,experiment,49,↓,down,↓,0.4778984000440687,True,28,1
JK-K-21K21S2,1353,experiment,72,←,left,←,1.170713699888438,True,28,1
JK-K-21K21S2,1354,experiment,77,←,right,→,0.5140172999817878,False,28,1
JK-K-21K21S2,1355,experiment,51,→,left,←,0.33400829997844994,False,28,1
JK-K-21K21S2,1356,experiment,81,→,right,→,0.5153845001477748,True,28,0
JK-K-21K21S2,1357,experiment,57,↑,up,↑,0.6034874999895692,True,28,1
JK-K-21K21S2,1358,experiment,104,←,left,←,0.5525351001415402,True,28,1
JK-K-21K21S2,1359,experiment,62,↑,up,↑,0.4535908999387175,True,28,1
JK-K-21K21S2,1360,experiment,65,↑,up,↑,0.5335366001818329,True,28,1
JK-K-21K21S2,1361,experiment,97,→,right,→,0.4396903000306338,True,28,1
JK-K-21K21S2,1362,experiment,106,→,right,→,0.5543993997853249,True,28,1
JK-K-21K21S2,1363,experiment,79,→,right,→,0.593650900060311,True,28,1
JK-K-21K21S2,1364,training,60,→,right,→,0.49460980016738176,True,28,0
JK-K-21K21S2,1365,training,101,→,right,→,0.4571580998599529,True,28,1
JK-K-21K21S2,1366,experiment,49,↓,down,↓,0.8782192999497056,True,28,1
JK-K-21K21S2,1367,experiment,85,↓,down,↓,0.49408579990267754,True,28,1
JK-K-21K21S2,1368,experiment,58,←,down,↓,0.631638600025326,False,28,1
JK-K-21K21S2,1369,experiment,59,↓,down,↓,0.6178729999810457,True,28,1
JK-K-21K21S2,1370,experiment,74,←,left,←,0.5763642000965774,True,28,1
JK-K-21K21S2,1371,experiment,67,→,left,←,0.7069020001217723,False,28,1
JK-K-21K21S2,1372,experiment,56,↑,up,↑,0.5233239999506623,True,28,1
JK-K-21K21S2,1373,experiment,95,←,up,↑,0.6865157000720501,False,28,1
JK-K-21K21S2,1374,experiment,66,→,right,→,0.508937899954617,True,28,1
JK-K-21K21S2,1375,experiment,104,↓,down,↓,0.7017842000350356,True,28,1
JK-K-21K21S2,1376,experiment,60,→,right,→,0.5973479000385851,True,28,1
JK-K-21K21S2,1377,experiment,73,↓,up,↑,0.9087243999820203,False,28,1
JK-K-21K21S2,1378,experiment,107,←,left,←,0.47639389988034964,True,28,1
JK-K-21K21S2,1379,experiment,71,↓,down,↓,0.6255492998752743,True,28,1
JK-K-21K21S2,1380,experiment,89,→,right,→,0.618472300004214,True,28,1
JK-K-21K21S2,1381,experiment,80,↑,up,↑,0.3836515999864787,True,28,1
JK-K-21K21S2,1382,experiment,52,↓,down,↓,0.5096654000226408,True,28,0
JK-K-21K21S2,1383,experiment,84,↑,up,↑,0.4770267999265343,True,28,1
JK-K-21K21S2,1384,experiment,63,→,right,→,0.45290779997594655,True,28,1
JK-K-21K21S2,1385,experiment,81,→,left,←,0.7037514001131058,False,28,1
JK-K-21K21S2,1386,experiment,86,↑,up,↑,0.5348782001528889,True,28,1
JK-K-21K21S2,1387,experiment,99,↓,up,↑,0.49604279990307987,False,28,1
JK-K-21K21S2,1388,experiment,108,→,left,←,0.6879217999521643,False,28,1
JK-K-21K21S2,1389,experiment,78,↓,down,↓,0.4497628000099212,True,28,1
JK-K-21K21S2,1390,experiment,88,↑,up,↑,0.666298900032416,True,28,1
JK-K-21K21S2,1391,experiment,57,↓,down,↓,0.4601652999408543,True,28,1
JK-K-21K21S2,1392,experiment,102,↑,up,↑,0.6077006999403238,True,28,1
JK-K-21K21S2,1393,experiment,62,→,right,→,0.4030126000288874,True,28,1
JK-K-21K21S2,1394,experiment,50,↓,down,↓,0.6572460001334548,True,28,0
JK-K-21K21S2,1395,experiment,94,↑,up,↑,0.5511660999618471,True,28,1
JK-K-21K21S2,1396,experiment,87,↑,up,↑,0.5159793999046087,True,28,1
JK-K-21K21S2,1397,experiment,83,↓,up,↑,0.5312634001020342,False,28,1
JK-K-21K21S2,1398,experiment,68,↑,up,↑,0.36838450003415346,True,28,1
JK-K-21K21S2,1399,experiment,48,←,right,→,0.8077046000398695,False,28,0
JK-K-21K21S2,1400,experiment,97,↓,down,↓,0.6946789999492466,True,28,1
JK-K-21K21S2,1401,experiment,96,←,left,←,0.5225253000389785,True,28,1
JK-K-21K21S2,1402,experiment,82,↑,up,↑,0.545969899976626,True,28,1
JK-K-21K21S2,1403,experiment,103,→,right,→,0.45748049998655915,True,28,1
JK-K-21K21S2,1404,experiment,79,↓,up,↑,0.6843735999427736,False,28,1
JK-K-21K21S2,1405,experiment,69,↑,up,↑,0.5217132000252604,True,28,1
JK-K-21K21S2,1406,experiment,61,↑,left,←,1.6162713998928666,False,28,1
JK-K-21K21S2,1407,experiment,91,←,left,←,1.016982499975711,True,28,1
JK-K-21K21S2,1408,experiment,65,←,left,←,0.5461166000459343,True,28,1
JK-K-21K21S2,1409,experiment,51,↑,left,←,0.7066608001478016,False,28,1
JK-K-21K21S2,1410,experiment,105,→,right,→,0.6034160000272095,True,28,1
JK-K-21K21S2,1411,experiment,100,↑,up,↑,0.6497168999630958,True,28,1
JK-K-21K21S2,1412,experiment,72,↑,up,↑,0.5035706001799554,True,28,1
JK-K-21K21S2,1413,experiment,92,→,right,→,0.6363691999576986,True,28,1
JK-K-21K21S2,1414,experiment,106,↓,down,↓,0.5033784999977797,True,28,1
JK-K-21K21S2,1415,experiment,93,↑,up,↑,0.5162752999458462,True,28,1
JK-K-21K21S2,1416,experiment,77,↓,down,↓,0.581651900196448,True,28,1
JK-K-21K21S2,1417,experiment,54,↓,down,↓,0.5479056001640856,True,28,1
JK-K-21K21S2,1418,experiment,70,↑,up,↑,0.5505315000191331,True,28,1
JK-K-21K21S2,1419,experiment,101,↓,down,↓,0.7584974998608232,True,28,1
JK-K-21K21S2,1420,experiment,76,↓,down,↓,0.5584545000456274,True,28,1
JK-K-21K21S2,1421,experiment,98,←,left,←,0.3759532000403851,True,28,1
JK-K-21K21S2,1422,experiment,53,→,left,←,0.44614199991337955,False,28,0
