PART_ID,Trial_no,Trial_type,CSI,Stim_letter,Key_pressed,letter_choose,Rt,Corr,Stimulus Time,nDropped
JL-K-20K20S1,1,training,120,←,right,→,0.5085484000010183,False,60,0
JL-K-20K20S1,2,training,120,→,left,←,0.6918718999950215,False,60,0
JL-K-20K20S1,3,training,120,↓,left,←,0.9126499999983935,False,60,0
JL-K-20K20S1,4,training,120,→,right,→,1.164925699995365,True,60,0
JL-K-20K20S1,5,training,120,↑,up,↑,1.015051800000947,True,60,0
JL-K-20K20S1,6,training,120,↑,up,↑,0.6720316999999341,True,60,0
JL-K-20K20S1,7,training,120,↓,down,↓,0.772621900003287,True,60,0
JL-K-20K20S1,8,training,120,↓,down,↓,0.7105390000069747,True,60,0
JL-K-20K20S1,9,training,120,←,left,←,0.6831858999939868,True,60,0
JL-K-20K20S1,10,training,120,←,right,→,0.5172348000050988,False,60,0
JL-K-20K20S1,11,training,120,→,left,←,0.5339855000056559,False,60,0
JL-K-20K20S1,12,training,120,↓,down,↓,0.8625383000035072,True,60,0
JL-K-20K20S1,13,training,120,←,left,←,0.7724548999976832,True,60,0
JL-K-20K20S1,14,training,120,↑,up,↑,0.7025794000073802,True,60,0
JL-K-20K20S1,15,training,120,←,left,←,0.6504453000088688,True,60,0
JL-K-20K20S1,16,training,120,↓,down,↓,0.8013944999984233,True,60,0
JL-K-20K20S1,17,training,120,→,right,→,0.7219033000001218,True,60,0
JL-K-20K20S1,18,training,120,←,left,←,0.6781000000046333,True,60,0
JL-K-20K20S1,19,training,120,←,left,←,0.5922239999927115,True,60,0
JL-K-20K20S1,20,training,120,↑,up,↑,0.8117219999985537,True,60,0
JL-K-20K20S1,21,no_adaptation,120,↓,up,↑,1.4894969000015408,False,36,0
JL-K-20K20S1,22,no_adaptation,120,↑,up,↑,0.7671035999956075,True,36,0
JL-K-20K20S1,23,no_adaptation,120,↓,down,↓,0.7205786000122316,True,36,0
JL-K-20K20S1,24,no_adaptation,120,←,left,←,0.7884570000023814,True,36,0
JL-K-20K20S1,25,no_adaptation,120,↓,down,↓,0.6778437000029953,True,36,0
JL-K-20K20S1,26,no_adaptation,120,→,left,←,0.7071417999977712,False,36,0
JL-K-20K20S1,27,no_adaptation,120,←,left,←,0.6394697999930941,True,36,0
JL-K-20K20S1,28,no_adaptation,120,←,left,←,0.6228579000016907,True,36,0
JL-K-20K20S1,29,no_adaptation,120,↓,down,↓,0.734610999992583,True,36,0
JL-K-20K20S1,30,no_adaptation,120,↑,up,↑,1.0975067000108538,True,36,0
JL-K-20K20S1,31,no_adaptation,120,↑,up,↑,0.7346237000019755,True,36,0
JL-K-20K20S1,32,no_adaptation,120,←,left,←,0.78553649999958,True,36,0
JL-K-20K20S1,33,no_adaptation,120,←,left,←,0.6908188000088558,True,36,0
JL-K-20K20S1,34,no_adaptation,120,→,right,→,0.9677559999981895,True,36,0
JL-K-20K20S1,35,no_adaptation,120,→,right,→,0.6579713000101037,True,36,0
JL-K-20K20S1,36,no_adaptation,120,←,left,←,0.7286773000087123,True,36,0
JL-K-20K20S1,37,no_adaptation,120,↓,down,↓,0.7320659999968484,True,36,0
JL-K-20K20S1,38,no_adaptation,120,↑,up,↑,0.7914365000033285,True,36,0
JL-K-20K20S1,39,no_adaptation,120,↑,down,↓,1.504520100002992,False,36,0
JL-K-20K20S1,40,no_adaptation,120,↓,down,↓,0.8531825000100071,True,36,0
JL-K-20K20S1,41,training,58,←,left,←,0.7357835000002524,True,36,0
JL-K-20K20S1,42,training,95,↓,down,↓,0.8355920000030892,True,36,1
JL-K-20K20S1,43,experiment,54,↑,up,↑,1.1209044999995967,True,36,1
JL-K-20K20S1,44,experiment,82,↑,up,↑,0.9374050999904284,True,36,1
JL-K-20K20S1,45,experiment,87,→,right,→,0.7438411999901291,True,36,1
JL-K-20K20S1,46,experiment,50,↓,down,↓,0.7381662999978289,True,36,1
JL-K-20K20S1,47,experiment,59,←,left,←,0.6733460000104969,True,36,1
JL-K-20K20S1,48,experiment,98,↑,up,↑,0.7181238000048324,True,36,1
JL-K-20K20S1,49,experiment,89,↓,down,↓,0.6771377000113716,True,36,1
JL-K-20K20S1,50,experiment,68,←,left,←,0.6596026999905007,True,36,1
JL-K-20K20S1,51,experiment,83,↑,up,↑,0.5902787999948487,True,36,1
JL-K-20K20S1,52,experiment,62,↑,up,↑,0.5542067999922438,True,36,1
JL-K-20K20S1,53,experiment,93,↑,up,↑,0.6301158999995096,True,36,1
JL-K-20K20S1,54,experiment,88,→,right,→,0.5521420000004582,True,36,1
JL-K-20K20S1,55,experiment,108,↑,up,↑,0.6948616000008769,True,36,1
JL-K-20K20S1,56,experiment,107,→,right,→,0.7444303000083892,True,36,1
JL-K-20K20S1,57,experiment,86,→,right,→,0.7667899999942165,True,36,1
JL-K-20K20S1,58,experiment,100,↓,down,↓,0.8152505999896675,True,36,1
JL-K-20K20S1,59,experiment,103,→,right,→,0.653745199990226,True,36,1
JL-K-20K20S1,60,experiment,96,↓,down,↓,0.6761643999925582,True,36,1
JL-K-20K20S1,61,experiment,48,→,up,↑,1.089428900013445,False,36,1
JL-K-20K20S1,62,experiment,65,←,left,←,0.7289094000007026,True,36,1
JL-K-20K20S1,63,experiment,76,↑,up,↑,1.0106560999993235,True,36,1
JL-K-20K20S1,64,experiment,67,↑,up,↑,1.0611345000070287,True,36,1
JL-K-20K20S1,65,experiment,99,→,right,→,0.6983141999953659,True,36,1
JL-K-20K20S1,66,experiment,94,←,left,←,0.6717586000013398,True,36,1
JL-K-20K20S1,67,experiment,106,↓,down,↓,1.2901375999936135,True,36,1
JL-K-20K20S1,68,experiment,56,↓,down,↓,0.7806798999954481,True,36,1
JL-K-20K20S1,69,experiment,72,↓,down,↓,1.1260762000019895,True,36,1
JL-K-20K20S1,70,experiment,63,→,right,→,0.7246454999985872,True,36,1
JL-K-20K20S1,71,experiment,69,←,left,←,0.7372886000084691,True,36,1
JL-K-20K20S1,72,experiment,97,→,right,→,0.9960712999891257,True,36,1
JL-K-20K20S1,73,experiment,51,←,left,←,0.8039233000017703,True,36,1
JL-K-20K20S1,74,experiment,57,↑,up,↑,0.9689527999871643,True,36,1
JL-K-20K20S1,75,experiment,52,←,left,←,0.681697299994994,True,36,1
JL-K-20K20S1,76,experiment,70,↑,up,↑,1.1278134000021964,True,36,1
JL-K-20K20S1,77,experiment,49,←,left,←,1.891145499990671,True,36,1
JL-K-20K20S1,78,experiment,90,→,right,→,0.8506692000082694,True,36,1
JL-K-20K20S1,79,experiment,75,→,right,→,0.768328099991777,True,36,1
JL-K-20K20S1,80,experiment,79,←,left,←,0.7998854000034044,True,36,1
JL-K-20K20S1,81,experiment,61,→,right,→,0.7881280000001425,True,36,1
JL-K-20K20S1,82,experiment,81,←,left,←,0.6581117000023369,True,36,1
JL-K-20K20S1,83,experiment,91,↓,down,↓,0.8982245000079274,True,36,1
JL-K-20K20S1,84,experiment,55,↓,down,↓,0.9166779999941355,True,36,1
JL-K-20K20S1,85,experiment,74,↓,down,↓,0.7597895999933826,True,36,1
JL-K-20K20S1,86,experiment,95,←,left,←,0.7232373000006191,True,36,1
JL-K-20K20S1,87,experiment,92,→,right,→,0.6956165000010515,True,36,1
JL-K-20K20S1,88,experiment,60,↓,down,↓,0.6803581999993185,True,36,1
JL-K-20K20S1,89,experiment,105,↑,up,↑,0.7386869000038132,True,36,1
JL-K-20K20S1,90,experiment,102,↑,up,↑,1.0280076999915764,True,36,1
JL-K-20K20S1,91,experiment,85,←,left,←,0.64725300000282,True,36,1
JL-K-20K20S1,92,experiment,64,↓,down,↓,0.9044155000010505,True,36,1
JL-K-20K20S1,93,experiment,80,↓,down,↓,0.8584547999926144,True,36,1
JL-K-20K20S1,94,experiment,71,→,left,←,1.0731996999966213,False,36,1
JL-K-20K20S1,95,experiment,84,→,right,→,0.6991163999919081,True,36,1
JL-K-20K20S1,96,experiment,66,↑,up,↑,1.0500401000026613,True,36,1
JL-K-20K20S1,97,experiment,101,→,right,→,0.7429646000091452,True,36,1
JL-K-20K20S1,98,experiment,104,↓,down,↓,0.9113846999971429,True,36,1
JL-K-20K20S1,99,experiment,53,→,right,→,0.7939572000032058,True,36,1
JL-K-20K20S1,100,experiment,73,→,right,→,0.6264393999881577,True,36,1
JL-K-20K20S1,101,experiment,58,↑,up,↑,0.7908922999922652,True,36,1
JL-K-20K20S1,102,experiment,77,↑,up,↑,0.6621059000026435,True,36,1
JL-K-20K20S1,103,experiment,78,→,right,→,0.6020222999941325,True,36,1
JL-K-20K20S1,104,training,71,↓,down,↓,0.7495473000017228,True,35,0
JL-K-20K20S1,105,training,104,↓,down,↓,0.6373208000004524,True,35,1
JL-K-20K20S1,106,experiment,105,←,left,←,0.7371854000084568,True,35,1
JL-K-20K20S1,107,experiment,58,↓,down,↓,0.7208052000059979,True,35,1
JL-K-20K20S1,108,experiment,84,↑,up,↑,0.760474200011231,True,35,1
JL-K-20K20S1,109,experiment,101,→,right,→,0.6732587000005879,True,35,1
JL-K-20K20S1,110,experiment,54,→,left,←,1.581191500008572,False,35,1
JL-K-20K20S1,111,experiment,72,↓,down,↓,0.7905394999979762,True,35,1
JL-K-20K20S1,112,experiment,100,←,left,←,0.6941223000030732,True,35,1
JL-K-20K20S1,113,experiment,81,←,left,←,0.6808929999970132,True,35,1
JL-K-20K20S1,114,experiment,67,↑,up,↑,0.7911788999917917,True,35,1
JL-K-20K20S1,115,experiment,56,←,left,←,0.7495482999947853,True,35,1
JL-K-20K20S1,116,experiment,49,↑,up,↑,0.7997396999999182,True,35,1
JL-K-20K20S1,117,experiment,76,↓,down,↓,0.6950916999921901,True,35,1
JL-K-20K20S1,118,experiment,48,↑,up,↑,0.6917351000010967,True,35,1
JL-K-20K20S1,119,experiment,92,←,left,←,0.7859350999933667,True,35,1
JL-K-20K20S1,120,experiment,50,↓,down,↓,0.6988607999956002,True,35,1
JL-K-20K20S1,121,experiment,51,←,left,←,0.6862158000003546,True,35,1
JL-K-20K20S1,122,experiment,69,←,left,←,0.6604769000114175,True,35,1
JL-K-20K20S1,123,experiment,73,←,left,←,0.8026078999973834,True,35,1
JL-K-20K20S1,124,experiment,96,↓,down,↓,0.699176099995384,True,35,1
JL-K-20K20S1,125,experiment,55,←,left,←,0.5974806000012904,True,35,1
JL-K-20K20S1,126,experiment,59,→,left,←,1.0665614000026835,False,35,1
JL-K-20K20S1,127,experiment,98,←,left,←,1.02401930000633,True,35,1
JL-K-20K20S1,128,experiment,75,→,left,←,1.0305895999917993,False,35,1
JL-K-20K20S1,129,experiment,64,←,left,←,1.0485997999930987,True,35,1
JL-K-20K20S1,130,experiment,89,←,right,→,1.2098476999963168,False,35,1
JL-K-20K20S1,131,experiment,108,→,left,←,1.2144808000011835,False,35,1
JL-K-20K20S1,132,experiment,95,↓,down,↓,0.9271526000084123,True,35,1
JL-K-20K20S1,133,experiment,86,←,left,←,0.6705140999983996,True,35,1
JL-K-20K20S1,134,experiment,99,←,left,←,0.651290699999663,True,35,1
JL-K-20K20S1,135,experiment,80,→,right,→,0.7992437000066275,True,35,1
JL-K-20K20S1,136,experiment,74,↑,up,↑,0.8870079999906011,True,35,1
JL-K-20K20S1,137,experiment,53,←,right,→,1.6022418000065954,False,35,1
JL-K-20K20S1,138,experiment,63,←,left,←,1.4143610000028275,True,35,1
JL-K-20K20S1,139,experiment,107,↑,up,↑,0.9709715000062715,True,35,1
JL-K-20K20S1,140,experiment,94,↑,up,↑,0.8057361999963177,True,35,1
JL-K-20K20S1,141,experiment,68,→,right,→,1.039332000000286,True,35,1
JL-K-20K20S1,142,experiment,87,↓,down,↓,0.9854027999972459,True,35,1
JL-K-20K20S1,143,experiment,104,↑,no_key,no_letter,-1.0,False,35,1
JL-K-20K20S1,144,experiment,70,↑,up,↑,1.1637787999934517,True,35,1
JL-K-20K20S1,145,experiment,78,↓,down,↓,0.8120374999998603,True,35,1
JL-K-20K20S1,146,experiment,90,→,right,→,0.7420772000041325,True,35,1
JL-K-20K20S1,147,experiment,66,↓,down,↓,0.7950841000129003,True,35,1
JL-K-20K20S1,148,experiment,77,↓,down,↓,0.7462827000126708,True,35,1
JL-K-20K20S1,149,experiment,106,↑,up,↑,1.1458215999882668,True,35,1
JL-K-20K20S1,150,experiment,93,←,left,←,1.0774103000003379,True,35,1
JL-K-20K20S1,151,experiment,103,←,left,←,0.7532417000038549,True,35,1
JL-K-20K20S1,152,experiment,52,→,right,→,0.9229054999887012,True,35,1
JL-K-20K20S1,153,experiment,97,←,left,←,1.0457041999907233,True,35,1
JL-K-20K20S1,154,experiment,83,↑,up,↑,1.1131794000102673,True,35,1
JL-K-20K20S1,155,experiment,71,←,left,←,0.9656045000010636,True,35,1
JL-K-20K20S1,156,experiment,61,↑,up,↑,1.4916404999967199,True,35,1
JL-K-20K20S1,157,experiment,88,→,right,→,0.6910052000021096,True,35,1
JL-K-20K20S1,158,experiment,82,→,right,→,1.0212800000008428,True,35,1
JL-K-20K20S1,159,experiment,91,→,right,→,0.7911657000076957,True,35,1
JL-K-20K20S1,160,experiment,65,→,right,→,0.753907899998012,True,35,1
JL-K-20K20S1,161,experiment,60,↓,down,↓,0.9684492999949725,True,35,1
JL-K-20K20S1,162,experiment,62,↓,no_key,no_letter,-1.0,False,35,1
JL-K-20K20S1,163,experiment,79,→,right,→,0.9103322000009939,True,35,1
JL-K-20K20S1,164,experiment,102,↑,up,↑,0.8728307999990648,True,35,1
JL-K-20K20S1,165,experiment,85,→,right,→,0.7541919999930542,True,35,1
JL-K-20K20S1,166,experiment,57,↑,up,↑,0.6654131999966921,True,35,1
JL-K-20K20S1,167,training,73,↓,down,↓,0.8968670000031125,True,35,0
JL-K-20K20S1,168,training,91,→,right,→,0.6236311000102432,True,35,1
JL-K-20K20S1,169,experiment,62,↑,up,↑,0.7702152999991085,True,35,1
JL-K-20K20S1,170,experiment,67,↑,up,↑,0.7256037000042852,True,35,1
JL-K-20K20S1,171,experiment,98,↓,down,↓,0.8245984999957727,True,35,1
JL-K-20K20S1,172,experiment,100,↓,down,↓,0.7031872000079602,True,35,1
JL-K-20K20S1,173,experiment,58,↑,up,↑,0.6165346000052523,True,35,1
JL-K-20K20S1,174,experiment,56,←,left,←,0.6697716000053333,True,35,1
JL-K-20K20S1,175,experiment,85,↓,down,↓,0.7353379999985918,True,35,1
JL-K-20K20S1,176,experiment,65,→,right,→,0.7491043999907561,True,35,1
JL-K-20K20S1,177,experiment,70,↓,down,↓,0.8401870999950916,True,35,1
JL-K-20K20S1,178,experiment,106,↓,down,↓,0.8120293999963906,True,35,1
JL-K-20K20S1,179,experiment,80,←,left,←,1.4573640000016894,True,35,1
JL-K-20K20S1,180,experiment,76,↑,up,↑,0.8627133999980288,True,35,1
JL-K-20K20S1,181,experiment,60,←,left,←,0.7207136999932118,True,35,1
JL-K-20K20S1,182,experiment,87,↑,up,↑,0.7835306999913882,True,35,1
JL-K-20K20S1,183,experiment,90,↑,up,↑,0.9227546999900369,True,35,1
JL-K-20K20S1,184,experiment,95,←,left,←,1.1030538999912096,True,35,1
JL-K-20K20S1,185,experiment,107,↑,up,↑,0.7840276999922935,True,35,1
JL-K-20K20S1,186,experiment,102,→,no_key,no_letter,-1.0,False,35,1
JL-K-20K20S1,187,experiment,81,←,left,←,0.8558577000076184,True,35,1
JL-K-20K20S1,188,experiment,83,↑,up,↑,0.7461482999933651,True,35,1
JL-K-20K20S1,189,experiment,101,←,left,←,0.7313549000100465,True,35,1
JL-K-20K20S1,190,experiment,104,←,left,←,0.8199645999993663,True,35,1
JL-K-20K20S1,191,experiment,71,↓,down,↓,0.9480661999987205,True,35,1
JL-K-20K20S1,192,experiment,53,↑,up,↑,0.9891358000022592,True,35,1
JL-K-20K20S1,193,experiment,93,↑,up,↑,1.4632762999972329,True,35,1
JL-K-20K20S1,194,experiment,96,←,left,←,0.845530399994459,True,35,1
JL-K-20K20S1,195,experiment,61,←,left,←,0.8884374000044772,True,35,1
JL-K-20K20S1,196,experiment,49,→,left,←,1.8850552000076277,False,35,1
JL-K-20K20S1,197,experiment,73,→,right,→,1.074409699998796,True,35,1
JL-K-20K20S1,198,experiment,66,↑,up,↑,0.7620098000043072,True,35,1
JL-K-20K20S1,199,experiment,78,←,left,←,0.9699783000105526,True,35,1
JL-K-20K20S1,200,experiment,82,→,right,→,0.7286950999987312,True,35,1
JL-K-20K20S1,201,experiment,64,←,left,←,0.6946748000045773,True,35,1
JL-K-20K20S1,202,experiment,86,↓,down,↓,0.7837220999936108,True,35,1
JL-K-20K20S1,203,experiment,50,←,left,←,0.6718176000140375,True,35,1
JL-K-20K20S1,204,experiment,77,↓,down,↓,1.5160989000141853,True,35,1
JL-K-20K20S1,205,experiment,108,↑,up,↑,1.1967107999953441,True,35,1
JL-K-20K20S1,206,experiment,54,↑,no_key,no_letter,-1.0,False,35,1
JL-K-20K20S1,207,experiment,94,←,left,←,0.742819299994153,True,35,1
JL-K-20K20S1,208,experiment,105,↑,up,↑,0.8465959000022849,True,35,1
JL-K-20K20S1,209,experiment,59,→,right,→,0.9217265000042971,True,35,1
JL-K-20K20S1,210,experiment,79,↑,up,↑,1.259022800004459,True,35,1
JL-K-20K20S1,211,experiment,91,→,right,→,0.7072646000015084,True,35,1
JL-K-20K20S1,212,experiment,92,↑,up,↑,0.8249195999960648,True,35,1
JL-K-20K20S1,213,experiment,89,→,left,←,1.8909536999999546,False,35,1
JL-K-20K20S1,214,experiment,99,→,right,→,0.8393835999886505,True,35,1
JL-K-20K20S1,215,experiment,97,↑,up,↑,0.9022602000040933,True,35,1
JL-K-20K20S1,216,experiment,74,→,right,→,1.5384057000046596,True,35,1
JL-K-20K20S1,217,experiment,48,↑,up,↑,0.8774329000007128,True,35,1
JL-K-20K20S1,218,experiment,57,→,right,→,0.7362732000037795,True,35,1
JL-K-20K20S1,219,experiment,88,→,right,→,0.8301240000000689,True,35,1
JL-K-20K20S1,220,experiment,84,↓,down,↓,0.8096965000004275,True,35,1
JL-K-20K20S1,221,experiment,55,↑,up,↑,0.911465600001975,True,35,1
JL-K-20K20S1,222,experiment,72,↓,down,↓,1.2041076000023168,True,35,1
JL-K-20K20S1,223,experiment,103,→,right,→,1.9460824000125285,True,35,1
JL-K-20K20S1,224,experiment,69,↓,down,↓,0.718121500001871,True,35,1
JL-K-20K20S1,225,experiment,63,↑,up,↑,0.765139299997827,True,35,1
JL-K-20K20S1,226,experiment,75,←,left,←,0.9901075000088895,True,35,1
JL-K-20K20S1,227,experiment,68,↓,down,↓,0.7124423999921419,True,35,1
JL-K-20K20S1,228,experiment,51,→,right,→,0.7235974000068381,True,35,1
JL-K-20K20S1,229,experiment,52,↑,up,↑,0.8534702999895671,True,35,1
JL-K-20K20S1,230,training,85,↓,down,↓,0.7339566000009654,True,34,0
JL-K-20K20S1,231,training,106,↑,down,↓,1.3818213999911677,False,34,1
JL-K-20K20S1,232,experiment,80,↓,down,↓,0.7567367000010563,True,34,1
JL-K-20K20S1,233,experiment,66,→,right,→,0.7129089000081876,True,34,1
JL-K-20K20S1,234,experiment,52,→,right,→,0.8595570000034058,True,34,1
JL-K-20K20S1,235,experiment,95,→,right,→,0.8583068000007188,True,34,1
JL-K-20K20S1,236,experiment,72,↓,down,↓,0.8646605999965686,True,34,1
JL-K-20K20S1,237,experiment,101,→,right,→,0.6451903999986826,True,34,1
JL-K-20K20S1,238,experiment,88,←,left,←,0.7107644000061555,True,34,1
JL-K-20K20S1,239,experiment,85,↓,down,↓,0.6229587000125321,True,34,1
JL-K-20K20S1,240,experiment,70,←,right,→,1.1190313999977661,False,34,1
JL-K-20K20S1,241,experiment,87,←,left,←,0.6463472000032198,True,34,1
JL-K-20K20S1,242,experiment,92,→,right,→,0.7584391999989748,True,34,1
JL-K-20K20S1,243,experiment,99,→,right,→,0.7276554999989457,True,34,1
JL-K-20K20S1,244,experiment,58,↑,up,↑,1.0639241000026232,True,34,1
JL-K-20K20S1,245,experiment,97,↓,down,↓,0.8297670000029029,True,34,1
JL-K-20K20S1,246,experiment,50,→,right,→,0.668769700001576,True,34,1
JL-K-20K20S1,247,experiment,102,→,right,→,0.7126148999959696,True,34,1
JL-K-20K20S1,248,experiment,76,↓,down,↓,0.7790671000111615,True,34,1
JL-K-20K20S1,249,experiment,65,↑,up,↑,0.6466635999968275,True,34,1
JL-K-20K20S1,250,experiment,49,↑,up,↑,0.7970462000084808,True,34,1
JL-K-20K20S1,251,experiment,48,↓,down,↓,0.7895349000027636,True,34,1
JL-K-20K20S1,252,experiment,98,→,right,→,0.7420080000010785,True,34,1
JL-K-20K20S1,253,experiment,59,←,left,←,0.6213013999949908,True,34,1
JL-K-20K20S1,254,experiment,100,→,right,→,0.6676772000064375,True,34,1
JL-K-20K20S1,255,experiment,60,→,right,→,0.525693899995531,True,34,1
JL-K-20K20S1,256,experiment,73,→,right,→,0.6648373000061838,True,34,1
JL-K-20K20S1,257,experiment,54,→,right,→,0.6605560000025434,True,34,1
JL-K-20K20S1,258,experiment,75,→,right,→,0.6340564999991329,True,34,1
JL-K-20K20S1,259,experiment,96,↑,up,↑,0.7454495999991195,True,34,1
JL-K-20K20S1,260,experiment,89,↑,up,↑,0.9026448999939021,True,34,1
JL-K-20K20S1,261,experiment,77,↓,down,↓,0.825758399994811,True,34,1
JL-K-20K20S1,262,experiment,53,↑,down,↓,1.7117723999981536,False,34,1
JL-K-20K20S1,263,experiment,69,↑,up,↑,0.5656327000033343,True,34,1
JL-K-20K20S1,264,experiment,62,→,right,→,0.7705987000081223,True,34,1
JL-K-20K20S1,265,experiment,78,↑,up,↑,0.6583079999982147,True,34,1
JL-K-20K20S1,266,experiment,67,↑,up,↑,0.8024060000025202,True,34,1
JL-K-20K20S1,267,experiment,90,↓,up,↑,1.253106399992248,False,34,1
JL-K-20K20S1,268,experiment,103,→,right,→,0.6894093000009889,True,34,1
JL-K-20K20S1,269,experiment,83,→,right,→,0.9710046999971382,True,34,1
JL-K-20K20S1,270,experiment,74,↓,down,↓,0.8519202000024961,True,34,1
JL-K-20K20S1,271,experiment,79,↓,down,↓,0.7043513000098756,True,34,1
JL-K-20K20S1,272,experiment,104,↑,no_key,no_letter,-1.0,False,34,1
JL-K-20K20S1,273,experiment,105,←,down,↓,0.9784091000037733,False,34,1
JL-K-20K20S1,274,experiment,93,←,left,←,0.7889969999960158,True,34,1
JL-K-20K20S1,275,experiment,61,→,right,→,0.7456897999945795,True,34,1
JL-K-20K20S1,276,experiment,108,↓,down,↓,0.9924669999891194,True,34,1
JL-K-20K20S1,277,experiment,64,←,left,←,0.6601470000023255,True,34,1
JL-K-20K20S1,278,experiment,71,↓,down,↓,0.6111327999969944,True,34,1
JL-K-20K20S1,279,experiment,63,↓,down,↓,1.6543808999995235,True,34,1
JL-K-20K20S1,280,experiment,68,→,right,→,0.7020055999892065,True,34,1
JL-K-20K20S1,281,experiment,82,→,left,←,1.0074949999980163,False,34,1
JL-K-20K20S1,282,experiment,91,←,left,←,0.5933759000035934,True,34,1
JL-K-20K20S1,283,experiment,55,↑,up,↑,1.416178300001775,True,34,1
JL-K-20K20S1,284,experiment,107,↑,up,↑,0.7648812999977963,True,34,1
JL-K-20K20S1,285,experiment,51,→,right,→,0.757526900008088,True,34,1
JL-K-20K20S1,286,experiment,57,↑,up,↑,0.8368384999921545,True,34,1
JL-K-20K20S1,287,experiment,94,←,left,←,0.7729225999937626,True,34,1
JL-K-20K20S1,288,experiment,81,→,left,←,1.0917780000017956,False,34,1
JL-K-20K20S1,289,experiment,86,→,right,→,0.8281432999938261,True,34,1
JL-K-20K20S1,290,experiment,84,↑,up,↑,0.7037872999935644,True,34,1
JL-K-20K20S1,291,experiment,106,↓,down,↓,0.737093100004131,True,34,1
JL-K-20K20S1,292,experiment,56,↑,up,↑,0.5291476999991573,True,34,1
JL-K-20K20S1,293,training,102,→,right,→,0.5474713000003248,True,34,0
JL-K-20K20S1,294,training,75,↑,up,↑,0.5730755999975372,True,34,1
JL-K-20K20S1,295,experiment,107,↑,up,↑,0.7872003000084078,True,34,1
JL-K-20K20S1,296,experiment,95,↓,down,↓,0.636566800007131,True,34,1
JL-K-20K20S1,297,experiment,65,←,left,←,0.5021010999917053,True,34,1
JL-K-20K20S1,298,experiment,87,←,left,←,0.573873100001947,True,34,1
JL-K-20K20S1,299,experiment,67,↓,down,↓,0.6648525000055088,True,34,1
JL-K-20K20S1,300,experiment,76,←,left,←,0.7975671999884071,True,34,1
JL-K-20K20S1,301,experiment,58,↓,down,↓,0.570935499999905,True,34,1
JL-K-20K20S1,302,experiment,64,↓,down,↓,0.7916511000075843,True,34,1
JL-K-20K20S1,303,experiment,69,→,right,→,0.7535173000069335,True,34,1
JL-K-20K20S1,304,experiment,78,↑,up,↑,0.906214300004649,True,34,1
JL-K-20K20S1,305,experiment,59,↓,down,↓,0.7948950999998488,True,34,1
JL-K-20K20S1,306,experiment,100,↓,down,↓,0.9463665000075707,True,34,1
JL-K-20K20S1,307,experiment,92,→,right,→,0.6067382999899564,True,34,1
JL-K-20K20S1,308,experiment,52,↑,down,↓,1.6697522000031313,False,34,1
JL-K-20K20S1,309,experiment,60,←,left,←,0.6638787999982014,True,34,1
JL-K-20K20S1,310,experiment,77,↑,up,↑,0.9882333999994444,True,34,1
JL-K-20K20S1,311,experiment,66,←,left,←,0.8314097999973455,True,34,1
JL-K-20K20S1,312,experiment,56,→,right,→,0.9558327999984613,True,34,1
JL-K-20K20S1,313,experiment,96,←,left,←,0.7025295000057667,True,34,1
JL-K-20K20S1,314,experiment,104,↓,down,↓,1.464421399999992,True,34,1
JL-K-20K20S1,315,experiment,93,→,right,→,0.816440100010368,True,34,1
JL-K-20K20S1,316,experiment,74,↓,down,↓,0.7591836000065086,True,34,1
JL-K-20K20S1,317,experiment,101,↑,no_key,no_letter,-1.0,False,34,1
JL-K-20K20S1,318,experiment,83,←,no_key,no_letter,-1.0,False,34,1
JL-K-20K20S1,319,experiment,63,←,left,←,1.5332752999966033,True,34,1
JL-K-20K20S1,320,experiment,90,←,left,←,1.6590719999949215,True,34,1
JL-K-20K20S1,321,experiment,103,→,right,→,0.7673513000045205,True,34,1
JL-K-20K20S1,322,experiment,48,↑,down,↓,1.7453673999989405,False,34,1
JL-K-20K20S1,323,experiment,105,↑,up,↑,1.5216674999974202,True,34,1
JL-K-20K20S1,324,experiment,49,↑,up,↑,0.9651375000103144,True,34,1
JL-K-20K20S1,325,experiment,99,↑,up,↑,1.1504990000103135,True,34,1
JL-K-20K20S1,326,experiment,94,→,right,→,0.7698699999891687,True,34,1
JL-K-20K20S1,327,experiment,84,↓,down,↓,0.7759746999945492,True,34,1
JL-K-20K20S1,328,experiment,50,↓,down,↓,0.7366745000035735,True,34,1
JL-K-20K20S1,329,experiment,68,↑,up,↑,0.7734742000029655,True,34,1
JL-K-20K20S1,330,experiment,89,←,left,←,0.7615408999990905,True,34,1
JL-K-20K20S1,331,experiment,70,←,left,←,0.7004796999972314,True,34,1
JL-K-20K20S1,332,experiment,102,↑,up,↑,0.8073207999987062,True,34,1
JL-K-20K20S1,333,experiment,79,→,right,→,0.7331979000009596,True,34,1
JL-K-20K20S1,334,experiment,88,←,left,←,0.6273834000021452,True,34,1
JL-K-20K20S1,335,experiment,61,↑,up,↑,0.7666606999991927,True,34,1
JL-K-20K20S1,336,experiment,81,↑,up,↑,0.7979657999967458,True,34,1
JL-K-20K20S1,337,experiment,82,→,right,→,0.666859699995257,True,34,1
JL-K-20K20S1,338,experiment,51,↓,down,↓,0.8478662999987137,True,34,1
JL-K-20K20S1,339,experiment,62,→,right,→,0.8818032999988645,True,34,1
JL-K-20K20S1,340,experiment,71,↑,up,↑,0.6794149999914225,True,34,1
JL-K-20K20S1,341,experiment,85,↓,down,↓,0.6322929000016302,True,34,1
JL-K-20K20S1,342,experiment,75,↑,down,↓,1.0947876999998698,False,34,1
JL-K-20K20S1,343,experiment,73,↓,down,↓,0.6355665000010049,True,34,1
JL-K-20K20S1,344,experiment,72,←,left,←,0.6268297999922652,True,34,1
JL-K-20K20S1,345,experiment,98,→,right,→,0.5696916000015335,True,34,1
JL-K-20K20S1,346,experiment,106,↓,down,↓,0.8164587000064785,True,34,1
JL-K-20K20S1,347,experiment,54,→,right,→,0.7745284999982687,True,34,1
JL-K-20K20S1,348,experiment,53,↑,up,↑,1.2224029000062728,True,34,1
JL-K-20K20S1,349,experiment,55,↓,down,↓,0.6040262999886181,True,34,1
JL-K-20K20S1,350,experiment,86,↑,up,↑,0.7676320000027772,True,34,1
JL-K-20K20S1,351,experiment,80,←,left,←,0.606637300006696,True,34,1
JL-K-20K20S1,352,experiment,57,←,left,←,0.5162638000037987,True,34,1
JL-K-20K20S1,353,experiment,97,↑,up,↑,0.7040217999892775,True,34,1
JL-K-20K20S1,354,experiment,91,↓,down,↓,0.6379426999919815,True,34,1
JL-K-20K20S1,355,experiment,108,↑,no_key,no_letter,-1.0,False,34,1
JL-K-20K20S1,356,training,75,↑,up,↑,0.6323572999972384,True,33,0
JL-K-20K20S1,357,training,76,→,right,→,0.742376999987755,True,33,1
JL-K-20K20S1,358,experiment,92,←,right,→,0.6906715000077384,False,33,1
JL-K-20K20S1,359,experiment,52,←,left,←,1.0468888000032166,True,33,1
JL-K-20K20S1,360,experiment,90,↓,down,↓,0.791039699994144,True,33,1
JL-K-20K20S1,361,experiment,76,↑,up,↑,1.4630112000013469,True,33,1
JL-K-20K20S1,362,experiment,67,←,left,←,0.7747399000072619,True,33,1
JL-K-20K20S1,363,experiment,57,↓,down,↓,0.9333292999945115,True,33,1
JL-K-20K20S1,364,experiment,100,←,left,←,1.0793509999930393,True,33,1
JL-K-20K20S1,365,experiment,94,→,right,→,0.9257693000108702,True,33,1
JL-K-20K20S1,366,experiment,96,→,right,→,0.657346799998777,True,33,1
JL-K-20K20S1,367,experiment,84,↑,up,↑,0.7558131999976467,True,33,1
JL-K-20K20S1,368,experiment,56,↓,down,↓,0.6913174999936018,True,33,1
JL-K-20K20S1,369,experiment,73,←,left,←,0.8077546000131406,True,33,1
JL-K-20K20S1,370,experiment,71,↓,down,↓,0.7206243999971775,True,33,1
JL-K-20K20S1,371,experiment,55,←,left,←,0.6901287999935448,True,33,1
JL-K-20K20S1,372,experiment,87,→,right,→,1.0898957000026712,True,33,1
JL-K-20K20S1,373,experiment,97,↓,down,↓,0.6708675000118092,True,33,1
JL-K-20K20S1,374,experiment,106,←,left,←,0.8571832999878097,True,33,1
JL-K-20K20S1,375,experiment,93,→,right,→,0.7527545000048121,True,33,1
JL-K-20K20S1,376,experiment,104,↓,down,↓,0.6886253999982728,True,33,1
JL-K-20K20S1,377,experiment,61,↓,down,↓,0.6251975000050152,True,33,1
JL-K-20K20S1,378,experiment,86,↑,down,↓,0.7481275999889476,False,33,1
JL-K-20K20S1,379,experiment,66,↓,down,↓,0.7208562000014354,True,33,1
JL-K-20K20S1,380,experiment,83,↑,down,↓,1.184910800002399,False,33,1
JL-K-20K20S1,381,experiment,95,↑,up,↑,0.6747348999924725,True,33,1
JL-K-20K20S1,382,experiment,91,↓,down,↓,0.802079600005527,True,33,1
JL-K-20K20S1,383,experiment,85,←,left,←,0.7664451000018744,True,33,1
JL-K-20K20S1,384,experiment,59,→,right,→,0.7009782999957679,True,33,1
JL-K-20K20S1,385,experiment,80,↓,down,↓,0.6307747999962885,True,33,1
JL-K-20K20S1,386,experiment,72,←,left,←,1.638247800001409,True,33,1
JL-K-20K20S1,387,experiment,58,←,left,←,0.7380076999979792,True,33,1
JL-K-20K20S1,388,experiment,101,↓,down,↓,0.7553466999961529,True,33,1
JL-K-20K20S1,389,experiment,108,↑,up,↑,0.8179800000070827,True,33,1
JL-K-20K20S1,390,experiment,107,↑,up,↑,0.7262245000019902,True,33,1
JL-K-20K20S1,391,experiment,62,→,right,→,0.8530391000094824,True,33,1
JL-K-20K20S1,392,experiment,102,→,right,→,0.8821273999928962,True,33,1
JL-K-20K20S1,393,experiment,63,↓,down,↓,0.9385685999877751,True,33,1
JL-K-20K20S1,394,experiment,64,↓,down,↓,0.6239762999903178,True,33,1
JL-K-20K20S1,395,experiment,50,←,left,←,0.9588659000000916,True,33,1
JL-K-20K20S1,396,experiment,77,→,left,←,0.9275995999923907,False,33,1
JL-K-20K20S1,397,experiment,79,→,right,→,0.6891704000008758,True,33,1
JL-K-20K20S1,398,experiment,49,←,left,←,0.6695604999986244,True,33,1
JL-K-20K20S1,399,experiment,78,↓,no_key,no_letter,-1.0,False,33,1
JL-K-20K20S1,400,experiment,70,↑,up,↑,0.7495723999891197,True,33,1
JL-K-20K20S1,401,experiment,74,→,right,→,1.343820299996878,True,33,1
JL-K-20K20S1,402,experiment,105,→,right,→,1.0238920999981929,True,33,1
JL-K-20K20S1,403,experiment,98,←,left,←,0.6153163999988465,True,33,1
JL-K-20K20S1,404,experiment,51,↓,down,↓,1.2621451000013622,True,33,1
JL-K-20K20S1,405,experiment,53,←,left,←,1.050421699997969,True,33,1
JL-K-20K20S1,406,experiment,68,↓,down,↓,0.7947696999908658,True,33,1
JL-K-20K20S1,407,experiment,88,←,left,←,0.6303606000001309,True,33,1
JL-K-20K20S1,408,experiment,48,→,right,→,0.6293486999929883,True,33,1
JL-K-20K20S1,409,experiment,60,←,left,←,0.6406706999987364,True,33,1
JL-K-20K20S1,410,experiment,99,↑,up,↑,0.718725099999574,True,33,1
JL-K-20K20S1,411,experiment,81,↓,down,↓,0.8557543000060832,True,33,1
JL-K-20K20S1,412,experiment,82,↓,down,↓,1.5148183999990579,True,33,1
JL-K-20K20S1,413,experiment,65,↓,down,↓,0.6252688000095077,True,33,1
JL-K-20K20S1,414,experiment,103,↑,up,↑,0.8947248999902513,True,33,1
JL-K-20K20S1,415,experiment,89,→,right,→,0.7341373000090243,True,33,1
JL-K-20K20S1,416,experiment,75,↓,down,↓,0.7126737999933539,True,33,1
JL-K-20K20S1,417,experiment,54,→,down,↓,1.242263300009654,False,33,1
JL-K-20K20S1,418,experiment,69,→,right,→,0.642597800004296,True,33,1
JL-K-20K20S1,419,training,103,↑,up,↑,0.8344760000036331,True,32,0
JL-K-20K20S1,420,training,56,→,right,→,0.5029381000058493,True,32,1
JL-K-20K20S1,421,experiment,60,→,right,→,0.5756374000047799,True,32,1
JL-K-20K20S1,422,experiment,64,↓,down,↓,0.8274344000092242,True,32,1
JL-K-20K20S1,423,experiment,80,←,left,←,1.0329398999892874,True,32,1
JL-K-20K20S1,424,experiment,94,←,left,←,0.6408664999908069,True,32,1
JL-K-20K20S1,425,experiment,82,→,right,→,0.8604406999947969,True,32,1
JL-K-20K20S1,426,experiment,55,↑,up,↑,0.8485822999937227,True,32,1
JL-K-20K20S1,427,experiment,66,→,right,→,0.7371150999970268,True,32,1
JL-K-20K20S1,428,experiment,76,←,left,←,0.6670059000025503,True,32,1
JL-K-20K20S1,429,experiment,83,↑,up,↑,1.565071100005298,True,32,1
JL-K-20K20S1,430,experiment,68,→,right,→,0.6727581000013743,True,32,1
JL-K-20K20S1,431,experiment,74,→,right,→,0.5416839999961667,True,32,1
JL-K-20K20S1,432,experiment,106,←,left,←,0.7254072999930941,True,32,1
JL-K-20K20S1,433,experiment,52,←,left,←,0.9598346999991918,True,32,1
JL-K-20K20S1,434,experiment,105,↑,up,↑,0.7836875000066357,True,32,1
JL-K-20K20S1,435,experiment,62,→,right,→,0.6677055999898585,True,32,1
JL-K-20K20S1,436,experiment,100,←,right,→,1.080585700008669,False,32,1
JL-K-20K20S1,437,experiment,54,↑,up,↑,0.8279739999998128,True,32,1
JL-K-20K20S1,438,experiment,99,→,right,→,0.6668030000000726,True,32,1
JL-K-20K20S1,439,experiment,102,←,left,←,0.8544247999961954,True,32,1
JL-K-20K20S1,440,experiment,78,←,left,←,0.5558505000080913,True,32,1
JL-K-20K20S1,441,experiment,61,→,right,→,0.5452384000091115,True,32,1
JL-K-20K20S1,442,experiment,70,↑,up,↑,0.5568218999978853,True,32,1
JL-K-20K20S1,443,experiment,72,←,left,←,0.6153696000110358,True,32,1
JL-K-20K20S1,444,experiment,93,↑,up,↑,0.6081244000088191,True,32,1
JL-K-20K20S1,445,experiment,58,↓,up,↑,0.8055702000128804,False,32,1
JL-K-20K20S1,446,experiment,88,→,right,→,0.688165299987304,True,32,1
JL-K-20K20S1,447,experiment,65,→,right,→,0.599450000008801,True,32,1
JL-K-20K20S1,448,experiment,85,→,right,→,0.48370369999611285,True,32,1
JL-K-20K20S1,449,experiment,86,←,left,←,0.5403274999989662,True,32,1
JL-K-20K20S1,450,experiment,67,↓,down,↓,0.697049499998684,True,32,1
JL-K-20K20S1,451,experiment,104,←,left,←,0.8110625999979675,True,32,1
JL-K-20K20S1,452,experiment,89,↓,down,↓,0.8456326000014087,True,32,1
JL-K-20K20S1,453,experiment,91,←,left,←,0.7900137999968138,True,32,1
JL-K-20K20S1,454,experiment,63,→,right,→,0.5220466000027955,True,32,1
JL-K-20K20S1,455,experiment,57,→,left,←,1.0105019000038737,False,32,1
JL-K-20K20S1,456,experiment,107,→,right,→,1.0955174999980954,True,32,1
JL-K-20K20S1,457,experiment,50,↓,down,↓,0.8435538000048837,True,32,1
JL-K-20K20S1,458,experiment,84,↓,down,↓,0.6226855999993859,True,32,1
JL-K-20K20S1,459,experiment,108,←,left,←,0.6662779999896884,True,32,1
JL-K-20K20S1,460,experiment,75,←,left,←,0.9194200000056298,True,32,1
JL-K-20K20S1,461,experiment,69,→,right,→,0.5962849999923492,True,32,1
JL-K-20K20S1,462,experiment,96,→,right,→,0.5172789000062039,True,32,1
JL-K-20K20S1,463,experiment,92,↓,down,↓,0.7065403999877162,True,32,1
JL-K-20K20S1,464,experiment,98,←,left,←,0.6862754000030691,True,32,1
JL-K-20K20S1,465,experiment,77,↑,up,↑,0.7940715000004275,True,32,1
JL-K-20K20S1,466,experiment,56,↑,down,↓,1.152236100009759,False,32,1
JL-K-20K20S1,467,experiment,97,↑,up,↑,0.8987918999919202,True,32,1
JL-K-20K20S1,468,experiment,53,↓,down,↓,0.6939214000012726,True,32,1
JL-K-20K20S1,469,experiment,90,↓,down,↓,0.6527982999978121,True,32,1
JL-K-20K20S1,470,experiment,48,↓,down,↓,0.7472491000080481,True,32,1
JL-K-20K20S1,471,experiment,81,↑,down,↓,1.177703699999256,False,32,1
JL-K-20K20S1,472,experiment,51,↓,down,↓,0.9384407999896212,True,32,1
JL-K-20K20S1,473,experiment,95,→,right,→,0.5500931999995373,True,32,1
JL-K-20K20S1,474,experiment,103,↓,down,↓,0.7581129000027431,True,32,1
JL-K-20K20S1,475,experiment,87,↓,down,↓,1.0038289000076475,True,32,1
JL-K-20K20S1,476,experiment,79,←,left,←,0.5857003999990411,True,32,1
JL-K-20K20S1,477,experiment,49,→,right,→,0.6105550000065705,True,32,1
JL-K-20K20S1,478,experiment,101,←,left,←,0.7772617000009632,True,32,1
JL-K-20K20S1,479,experiment,73,↑,up,↑,0.8664611999993213,True,32,1
JL-K-20K20S1,480,experiment,71,←,left,←,0.680955299991183,True,32,1
JL-K-20K20S1,481,experiment,59,↓,no_key,no_letter,-1.0,False,32,1
JL-K-20K20S1,482,training,76,←,down,↓,0.8547035999945365,False,31,0
JL-K-20K20S1,483,training,92,↓,down,↓,0.7502667000080692,True,31,1
JL-K-20K20S1,484,experiment,53,↓,down,↓,0.5671731000038562,True,31,1
JL-K-20K20S1,485,experiment,74,←,left,←,0.6324873999983538,True,31,1
JL-K-20K20S1,486,experiment,65,↑,up,↑,0.7221544999920297,True,31,1
JL-K-20K20S1,487,experiment,72,↓,down,↓,0.781908699995256,True,31,1
JL-K-20K20S1,488,experiment,57,→,left,←,1.0041073000029428,False,31,1
JL-K-20K20S1,489,experiment,87,↓,down,↓,0.887429800000973,True,31,1
JL-K-20K20S1,490,experiment,67,↑,up,↑,0.7021481999981916,True,31,1
JL-K-20K20S1,491,experiment,75,↑,up,↑,1.0179760000028182,True,31,1
JL-K-20K20S1,492,experiment,55,→,right,→,0.7514756000018679,True,31,1
JL-K-20K20S1,493,experiment,52,←,left,←,0.8408150000032037,True,31,1
JL-K-20K20S1,494,experiment,95,↓,up,↑,1.0081270999944536,False,31,1
JL-K-20K20S1,495,experiment,49,→,left,←,1.6161572999990312,False,31,1
JL-K-20K20S1,496,experiment,63,↓,no_key,no_letter,-1.0,False,31,1
JL-K-20K20S1,497,experiment,103,↓,down,↓,1.029439399993862,True,31,1
JL-K-20K20S1,498,experiment,77,←,left,←,0.6192255999922054,True,31,1
JL-K-20K20S1,499,experiment,93,→,right,→,0.9004934999975376,True,31,1
JL-K-20K20S1,500,experiment,106,↓,up,↑,1.5576015000115149,False,31,1
JL-K-20K20S1,501,experiment,107,↑,up,↑,0.6047381999960635,True,31,1
JL-K-20K20S1,502,experiment,73,↓,down,↓,0.5964849000010872,True,31,1
JL-K-20K20S1,503,experiment,108,↓,down,↓,0.7138138999871444,True,31,1
JL-K-20K20S1,504,experiment,51,→,down,↓,1.4360012999968603,False,31,1
JL-K-20K20S1,505,experiment,48,←,no_key,no_letter,-1.0,False,31,1
JL-K-20K20S1,506,experiment,97,↑,down,↓,1.1754925999994157,False,31,1
JL-K-20K20S1,507,experiment,61,↓,down,↓,0.9967471999989357,True,31,1
JL-K-20K20S1,508,experiment,89,→,right,→,0.6399299000040628,True,31,1
JL-K-20K20S1,509,experiment,86,↑,up,↑,0.994464200004586,True,31,1
JL-K-20K20S1,510,experiment,68,←,left,←,0.5888108999934047,True,31,1
JL-K-20K20S1,511,experiment,80,→,right,→,1.1630898000003072,True,31,1
JL-K-20K20S1,512,experiment,85,↑,up,↑,0.7769640000042273,True,31,1
JL-K-20K20S1,513,experiment,92,→,right,→,0.6280167999939295,True,31,1
JL-K-20K20S1,514,experiment,59,↑,up,↑,1.5996527999959653,True,31,1
JL-K-20K20S1,515,experiment,104,↑,no_key,no_letter,-1.0,False,31,1
JL-K-20K20S1,516,experiment,62,←,left,←,1.4857868999970378,True,31,1
JL-K-20K20S1,517,experiment,101,→,left,←,1.3457690000068396,False,31,1
JL-K-20K20S1,518,experiment,79,←,left,←,1.4582526000012876,True,31,1
JL-K-20K20S1,519,experiment,84,↑,up,↑,0.7967628000042168,True,31,1
JL-K-20K20S1,520,experiment,96,↑,up,↑,0.6932768000115175,True,31,1
JL-K-20K20S1,521,experiment,54,↑,up,↑,0.8005219000042416,True,31,1
JL-K-20K20S1,522,experiment,78,↓,no_key,no_letter,-1.0,False,31,1
JL-K-20K20S1,523,experiment,100,↓,no_key,no_letter,-1.0,False,31,1
JL-K-20K20S1,524,experiment,88,↑,up,↑,1.000427300008596,True,31,1
JL-K-20K20S1,525,experiment,76,↑,up,↑,0.6639976000005845,True,31,1
JL-K-20K20S1,526,experiment,69,↓,down,↓,0.9748917999968398,True,31,1
JL-K-20K20S1,527,experiment,71,↑,down,↓,1.1288621999992756,False,31,1
JL-K-20K20S1,528,experiment,98,←,left,←,0.604009100003168,True,31,1
JL-K-20K20S1,529,experiment,82,←,left,←,0.6732778000005055,True,31,1
JL-K-20K20S1,530,experiment,102,↑,right,→,1.4529908999975305,False,31,1
JL-K-20K20S1,531,experiment,90,↓,down,↓,0.6377906999987317,True,31,1
JL-K-20K20S1,532,experiment,81,↓,down,↓,0.6664804999891203,True,31,1
JL-K-20K20S1,533,experiment,58,↓,down,↓,0.5726154000003589,True,31,1
JL-K-20K20S1,534,experiment,64,↓,down,↓,0.600946099992143,True,31,1
JL-K-20K20S1,535,experiment,50,→,right,→,0.5847689999936847,True,31,1
JL-K-20K20S1,536,experiment,70,←,right,→,0.7226771999994526,False,31,1
JL-K-20K20S1,537,experiment,99,→,right,→,0.645550600005663,True,31,1
JL-K-20K20S1,538,experiment,91,←,no_key,no_letter,-1.0,False,31,1
JL-K-20K20S1,539,experiment,83,↓,down,↓,0.8943188000121154,True,31,1
JL-K-20K20S1,540,experiment,105,↑,up,↑,1.5362866999930702,True,31,1
JL-K-20K20S1,541,experiment,56,←,left,←,0.5852121000061743,True,31,1
JL-K-20K20S1,542,experiment,60,↑,up,↑,0.9184383999963757,True,31,1
JL-K-20K20S1,543,experiment,66,↑,down,↓,1.0444770000030985,False,31,1
JL-K-20K20S1,544,experiment,94,←,left,←,0.6285289999941597,True,31,1
JL-K-20K20S1,545,training,85,→,left,←,0.6031956000078935,False,31,0
JL-K-20K20S1,546,training,78,→,left,←,0.6816163999901619,False,31,1
JL-K-20K20S1,547,experiment,103,↑,up,↑,0.5968757999944501,True,31,1
JL-K-20K20S1,548,experiment,63,↓,down,↓,0.6490807999944082,True,31,1
JL-K-20K20S1,549,experiment,99,←,left,←,0.6140677999937907,True,31,1
JL-K-20K20S1,550,experiment,77,→,right,→,0.5484441000007791,True,31,1
JL-K-20K20S1,551,experiment,81,←,left,←,0.6921323999995366,True,31,1
JL-K-20K20S1,552,experiment,82,↓,down,↓,0.693741900002351,True,31,1
JL-K-20K20S1,553,experiment,58,←,left,←,0.583344999991823,True,31,1
JL-K-20K20S1,554,experiment,62,←,down,↓,0.611954699998023,False,31,1
JL-K-20K20S1,555,experiment,60,→,right,→,0.7523010000004433,True,31,1
JL-K-20K20S1,556,experiment,84,↓,down,↓,0.638799199994537,True,31,1
JL-K-20K20S1,557,experiment,68,↑,up,↑,0.6630951999977697,True,31,1
JL-K-20K20S1,558,experiment,88,↑,up,↑,0.5756895999948028,True,31,1
JL-K-20K20S1,559,experiment,49,↑,up,↑,0.6569375999970362,True,31,1
JL-K-20K20S1,560,experiment,92,↓,down,↓,0.6806757000013022,True,31,1
JL-K-20K20S1,561,experiment,79,↓,down,↓,0.620236599992495,True,31,1
JL-K-20K20S1,562,experiment,98,↑,up,↑,0.5875022999971407,True,31,1
JL-K-20K20S1,563,experiment,78,→,right,→,0.7140798000036739,True,31,1
JL-K-20K20S1,564,experiment,94,↓,down,↓,0.6066321999969659,True,31,1
JL-K-20K20S1,565,experiment,74,↓,down,↓,0.5744521000015084,True,31,1
JL-K-20K20S1,566,experiment,66,→,right,→,0.7300333999883151,True,31,1
JL-K-20K20S1,567,experiment,70,→,right,→,0.6139018999965629,True,31,1
JL-K-20K20S1,568,experiment,96,↓,down,↓,0.7098257000034209,True,31,1
JL-K-20K20S1,569,experiment,100,←,left,←,0.6329291000001831,True,31,1
JL-K-20K20S1,570,experiment,101,→,right,→,0.6625152000051457,True,31,1
JL-K-20K20S1,571,experiment,73,↓,down,↓,0.7241860999929486,True,31,1
JL-K-20K20S1,572,experiment,67,↑,up,↑,0.7537779999984195,True,31,1
JL-K-20K20S1,573,experiment,75,↓,down,↓,0.7073334999877261,True,31,1
JL-K-20K20S1,574,experiment,50,↑,up,↑,0.5822420000040438,True,31,1
JL-K-20K20S1,575,experiment,52,↓,down,↓,0.7102868999936618,True,31,1
JL-K-20K20S1,576,experiment,69,←,left,←,0.46766400001069997,True,31,1
JL-K-20K20S1,577,experiment,97,↑,up,↑,0.5613443999900483,True,31,1
JL-K-20K20S1,578,experiment,86,↓,down,↓,0.5189707999961684,True,31,1
JL-K-20K20S1,579,experiment,87,↑,up,↑,0.7018156999984058,True,31,1
JL-K-20K20S1,580,experiment,106,↓,up,↑,1.0554471000068588,False,31,1
JL-K-20K20S1,581,experiment,95,↓,down,↓,0.7338466999935918,True,31,1
JL-K-20K20S1,582,experiment,80,↑,up,↑,0.5108828000084031,True,31,1
JL-K-20K20S1,583,experiment,56,←,left,←,1.6083187000040198,True,31,1
JL-K-20K20S1,584,experiment,64,↑,up,↑,0.5555824000039138,True,31,1
JL-K-20K20S1,585,experiment,48,→,left,←,0.853856799993082,False,31,1
JL-K-20K20S1,586,experiment,91,↓,down,↓,0.6697773999912897,True,31,1
JL-K-20K20S1,587,experiment,105,←,left,←,0.4569135999918217,True,31,1
JL-K-20K20S1,588,experiment,93,↑,up,↑,0.48838789999717847,True,31,1
JL-K-20K20S1,589,experiment,102,↓,down,↓,0.5634500000014668,True,31,1
JL-K-20K20S1,590,experiment,65,←,left,←,0.6234456000092905,True,31,1
JL-K-20K20S1,591,experiment,76,←,left,←,0.6376574000023538,True,31,1
JL-K-20K20S1,592,experiment,83,↑,down,↓,1.1849338000029093,False,31,1
JL-K-20K20S1,593,experiment,51,←,left,←,0.7135995999997249,True,31,1
JL-K-20K20S1,594,experiment,72,↓,left,←,0.8775575000036042,False,31,1
JL-K-20K20S1,595,experiment,53,←,left,←,0.8333397999958834,True,31,1
JL-K-20K20S1,596,experiment,108,←,left,←,0.7808285999926738,True,31,1
JL-K-20K20S1,597,experiment,54,←,right,→,0.9561014000064461,False,31,1
JL-K-20K20S1,598,experiment,107,↓,down,↓,0.6669216000009328,True,31,1
JL-K-20K20S1,599,experiment,85,↑,up,↑,0.6125437000009697,True,31,1
JL-K-20K20S1,600,experiment,71,↓,down,↓,0.8528494000056526,True,31,1
JL-K-20K20S1,601,experiment,59,↓,down,↓,0.7198882999946363,True,31,1
JL-K-20K20S1,602,experiment,61,↓,down,↓,0.5036169000086375,True,31,1
JL-K-20K20S1,603,experiment,57,←,left,←,0.5371134000015445,True,31,1
JL-K-20K20S1,604,experiment,89,↑,no_key,no_letter,-1.0,False,31,1
JL-K-20K20S1,605,experiment,55,←,left,←,0.7843080000020564,True,31,1
JL-K-20K20S1,606,experiment,90,←,left,←,0.6358872999990126,True,31,1
JL-K-20K20S1,607,experiment,104,↓,down,↓,1.0725797999912174,True,31,1
JL-K-20K20S1,608,training,57,↓,down,↓,0.7516554000030737,True,31,0
JL-K-20K20S1,609,training,66,←,left,←,0.4843517000117572,True,31,1
JL-K-20K20S1,610,experiment,92,↓,down,↓,0.6828808999998728,True,31,1
JL-K-20K20S1,611,experiment,60,↑,down,↓,0.8280955999944126,False,31,1
JL-K-20K20S1,612,experiment,102,→,right,→,0.6098314999981085,True,31,1
JL-K-20K20S1,613,experiment,95,↑,up,↑,0.7303074999945238,True,31,1
JL-K-20K20S1,614,experiment,107,→,right,→,0.5943075999966823,True,31,1
JL-K-20K20S1,615,experiment,74,→,right,→,0.5064953999972204,True,31,1
JL-K-20K20S1,616,experiment,84,→,right,→,0.5469087999954354,True,31,1
JL-K-20K20S1,617,experiment,65,←,left,←,0.4958716999972239,True,31,1
JL-K-20K20S1,618,experiment,94,→,left,←,0.6692506999970647,False,31,1
JL-K-20K20S1,619,experiment,87,↑,up,↑,0.5820655000134138,True,31,1
JL-K-20K20S1,620,experiment,66,→,right,→,0.7372168000001693,True,31,1
JL-K-20K20S1,621,experiment,69,↓,down,↓,0.565384500005166,True,31,1
JL-K-20K20S1,622,experiment,63,←,left,←,0.49053120000462513,True,31,1
JL-K-20K20S1,623,experiment,51,→,right,→,0.5339055999938864,True,31,1
JL-K-20K20S1,624,experiment,89,←,left,←,0.8915839999972377,True,31,1
JL-K-20K20S1,625,experiment,91,←,left,←,0.4984429999894928,True,31,1
JL-K-20K20S1,626,experiment,96,↓,left,←,0.9830263000039849,False,31,1
JL-K-20K20S1,627,experiment,73,→,right,→,0.5121851000003517,True,31,1
JL-K-20K20S1,628,experiment,58,←,left,←,0.6166031000029761,True,31,1
JL-K-20K20S1,629,experiment,81,←,left,←,0.6536862999928417,True,31,1
JL-K-20K20S1,630,experiment,82,↑,up,↑,0.8646372999937739,True,31,1
JL-K-20K20S1,631,experiment,108,↑,up,↑,0.5228992999909678,True,31,1
JL-K-20K20S1,632,experiment,50,→,right,→,0.5175698999955785,True,31,1
JL-K-20K20S1,633,experiment,55,↓,down,↓,0.9749379999993835,True,31,1
JL-K-20K20S1,634,experiment,105,↑,up,↑,0.7019242999958806,True,31,1
JL-K-20K20S1,635,experiment,62,→,right,→,0.5663497000059579,True,31,1
JL-K-20K20S1,636,experiment,86,→,right,→,0.5952251999988221,True,31,1
JL-K-20K20S1,637,experiment,56,→,right,→,0.5855887000070652,True,31,1
JL-K-20K20S1,638,experiment,64,→,right,→,0.48535989999072626,True,31,1
JL-K-20K20S1,639,experiment,49,↓,down,↓,0.8823943999886978,True,31,1
JL-K-20K20S1,640,experiment,93,←,left,←,0.6565743999963161,True,31,1
JL-K-20K20S1,641,experiment,78,↑,down,↓,0.8691488000040408,False,31,1
JL-K-20K20S1,642,experiment,57,→,left,←,0.6639457999990555,False,31,1
JL-K-20K20S1,643,experiment,48,↓,down,↓,0.6218091999908211,True,31,1
JL-K-20K20S1,644,experiment,77,←,left,←,0.6918900000018766,True,31,1
JL-K-20K20S1,645,experiment,98,↑,up,↑,0.6401308000058634,True,31,1
JL-K-20K20S1,646,experiment,90,→,down,↓,0.8653456000029109,False,31,1
JL-K-20K20S1,647,experiment,99,↑,up,↑,0.654390899988357,True,31,1
JL-K-20K20S1,648,experiment,101,↑,no_key,no_letter,-1.0,False,31,1
JL-K-20K20S1,649,experiment,59,↓,down,↓,0.6834243000048446,True,31,1
JL-K-20K20S1,650,experiment,79,←,left,←,0.9905371000058949,True,31,1
JL-K-20K20S1,651,experiment,71,→,left,←,0.6962483999959659,False,31,1
JL-K-20K20S1,652,experiment,70,↓,no_key,no_letter,-1.0,False,31,1
JL-K-20K20S1,653,experiment,68,←,left,←,1.306726000009803,True,31,1
JL-K-20K20S1,654,experiment,104,↓,down,↓,0.8845969999965746,True,31,1
JL-K-20K20S1,655,experiment,83,→,right,→,0.6223864999919897,True,31,1
JL-K-20K20S1,656,experiment,72,←,left,←,0.701964300009422,True,31,1
JL-K-20K20S1,657,experiment,103,↓,down,↓,0.6564451000012923,True,31,1
JL-K-20K20S1,658,experiment,106,↑,down,↓,1.2196202999912202,False,31,1
JL-K-20K20S1,659,experiment,53,↑,up,↑,1.5698772000032477,True,31,1
JL-K-20K20S1,660,experiment,88,←,left,←,0.5989447000029031,True,31,1
JL-K-20K20S1,661,experiment,100,↓,down,↓,1.2061833000043407,True,31,1
JL-K-20K20S1,662,experiment,85,↑,down,↓,1.0105720999999903,False,31,1
JL-K-20K20S1,663,experiment,75,↑,down,↓,0.8737510000064503,False,31,1
JL-K-20K20S1,664,experiment,61,→,right,→,0.6671500999946147,True,31,1
JL-K-20K20S1,665,experiment,80,↑,down,↓,0.7345721999881789,False,31,1
JL-K-20K20S1,666,experiment,54,→,right,→,0.5118630999932066,True,31,1
JL-K-20K20S1,667,experiment,97,→,right,→,0.5877447000093525,True,31,1
JL-K-20K20S1,668,experiment,67,↑,up,↑,0.7104919999983395,True,31,1
JL-K-20K20S1,669,experiment,52,↓,down,↓,1.4494750000012573,True,31,1
JL-K-20K20S1,670,experiment,76,↓,down,↓,0.6067212000052677,True,31,1
JL-K-20K20S1,671,training,49,→,right,→,0.6489997000026051,True,31,0
JL-K-20K20S1,672,training,100,↓,down,↓,0.7421640000102343,True,31,1
JL-K-20K20S1,673,experiment,81,←,left,←,0.6541349999897648,True,31,1
JL-K-20K20S1,674,experiment,107,↑,up,↑,0.6810006000014255,True,31,1
JL-K-20K20S1,675,experiment,94,↑,up,↑,0.5828255999949761,True,31,1
JL-K-20K20S1,676,experiment,84,→,up,↑,0.7723054000089178,False,31,1
JL-K-20K20S1,677,experiment,99,↑,up,↑,1.2450610999949276,True,31,1
JL-K-20K20S1,678,experiment,73,←,left,←,0.6514979000057792,True,31,1
JL-K-20K20S1,679,experiment,59,→,right,→,0.6707085000089137,True,31,1
JL-K-20K20S1,680,experiment,74,↑,up,↑,0.5957787999941502,True,31,1
JL-K-20K20S1,681,experiment,60,↓,up,↑,0.6083424999960698,False,31,1
JL-K-20K20S1,682,experiment,75,←,left,←,1.1755040999996709,True,31,1
JL-K-20K20S1,683,experiment,51,↓,right,→,0.8324629999988247,False,31,1
JL-K-20K20S1,684,experiment,53,↓,down,↓,0.8297845000051893,True,31,1
JL-K-20K20S1,685,experiment,63,→,right,→,0.6881658000056632,True,31,1
JL-K-20K20S1,686,experiment,93,←,left,←,0.7662694000027841,True,31,1
JL-K-20K20S1,687,experiment,102,→,right,→,1.4465082000097027,True,31,1
JL-K-20K20S1,688,experiment,66,↓,down,↓,0.7831357999966713,True,31,1
JL-K-20K20S1,689,experiment,96,↑,up,↑,0.5525095999910263,True,31,1
JL-K-20K20S1,690,experiment,101,←,right,→,1.0414325000019744,False,31,1
JL-K-20K20S1,691,experiment,67,←,left,←,0.658456400007708,True,31,1
JL-K-20K20S1,692,experiment,77,↑,right,→,1.1671121999970637,False,31,1
JL-K-20K20S1,693,experiment,91,→,right,→,0.5148396000004141,True,31,1
JL-K-20K20S1,694,experiment,83,↑,up,↑,0.851104800007306,True,31,1
JL-K-20K20S1,695,experiment,48,→,left,←,0.8577825999964261,False,31,1
JL-K-20K20S1,696,experiment,85,↓,up,↑,0.8919765000027837,False,31,1
JL-K-20K20S1,697,experiment,89,↓,down,↓,0.56347249999817,True,31,1
JL-K-20K20S1,698,experiment,49,↑,up,↑,1.3166969000012614,True,31,1
JL-K-20K20S1,699,experiment,71,↓,up,↑,1.3454138999950374,False,31,1
JL-K-20K20S1,700,experiment,106,←,left,←,0.8569149999966612,True,31,1
JL-K-20K20S1,701,experiment,79,←,left,←,0.6769103999977233,True,31,1
JL-K-20K20S1,702,experiment,61,→,right,→,0.8379092999966815,True,31,1
JL-K-20K20S1,703,experiment,78,←,left,←,0.5390935000032187,True,31,1
JL-K-20K20S1,704,experiment,86,↑,left,←,0.8494941999961156,False,31,1
JL-K-20K20S1,705,experiment,108,→,right,→,1.1242566000000807,True,31,1
JL-K-20K20S1,706,experiment,90,↓,down,↓,0.7940431000024546,True,31,1
JL-K-20K20S1,707,experiment,88,↑,down,↓,0.8456647999992128,False,31,1
JL-K-20K20S1,708,experiment,104,↑,left,←,1.4024757000006502,False,31,1
JL-K-20K20S1,709,experiment,58,↑,down,↓,0.7199704999948153,False,31,1
JL-K-20K20S1,710,experiment,64,↑,left,←,0.7982113999896683,False,31,1
JL-K-20K20S1,711,experiment,105,→,left,←,0.6602351999899838,False,31,1
JL-K-20K20S1,712,experiment,95,→,left,←,0.6427832999906968,False,31,1
JL-K-20K20S1,713,experiment,57,→,right,→,0.702735799990478,True,31,1
JL-K-20K20S1,714,experiment,52,↑,down,↓,0.7382540999969933,False,31,1
JL-K-20K20S1,715,experiment,62,→,right,→,0.7287563000136288,True,31,1
JL-K-20K20S1,716,experiment,56,↑,up,↑,0.6572771000064677,True,31,1
JL-K-20K20S1,717,experiment,80,↑,up,↑,0.7410067000018898,True,31,1
JL-K-20K20S1,718,experiment,72,←,no_key,no_letter,-1.0,False,31,1
JL-K-20K20S1,719,experiment,87,→,up,↑,0.9831284000101732,False,31,1
JL-K-20K20S1,720,experiment,69,↓,down,↓,0.7054573000059463,True,31,1
JL-K-20K20S1,721,experiment,70,→,right,→,0.5825760000006994,True,31,1
JL-K-20K20S1,722,experiment,76,→,right,→,0.6143928000092274,True,31,1
JL-K-20K20S1,723,experiment,92,→,right,→,0.6715999000007287,True,31,1
JL-K-20K20S1,724,experiment,55,↑,up,↑,0.9468613999924855,True,31,1
JL-K-20K20S1,725,experiment,65,→,right,→,0.6801847999886377,True,31,1
JL-K-20K20S1,726,experiment,82,←,right,→,0.6018919999914942,False,31,1
JL-K-20K20S1,727,experiment,68,→,right,→,0.48399890000291634,True,31,1
JL-K-20K20S1,728,experiment,103,←,left,←,0.6949961999926018,True,31,1
JL-K-20K20S1,729,experiment,97,→,left,←,0.931591299988213,False,31,1
JL-K-20K20S1,730,experiment,98,↑,left,←,1.054629999998724,False,31,1
JL-K-20K20S1,731,experiment,100,↑,left,←,1.3237384999956703,False,31,1
JL-K-20K20S1,732,experiment,54,↓,down,↓,0.6456611000030534,True,31,1
JL-K-20K20S1,733,experiment,50,→,down,↓,1.0035309000086272,False,31,1
JL-K-20K20S1,734,training,69,←,left,←,0.42930810000689235,True,31,0
JL-K-20K20S1,735,training,82,↓,down,↓,0.5684862000052817,True,31,1
JL-K-20K20S1,736,experiment,89,↓,down,↓,0.4690631999983452,True,31,1
JL-K-20K20S1,737,experiment,50,←,left,←,0.497823800003971,True,31,1
JL-K-20K20S1,738,experiment,77,←,left,←,0.3758176999981515,True,31,1
JL-K-20K20S1,739,experiment,91,↑,up,↑,0.511893599992618,True,31,0
JL-K-20K20S1,740,experiment,70,↑,down,↓,0.828594399994472,False,31,1
JL-K-20K20S1,741,experiment,57,←,right,→,0.6888133000029484,False,31,1
JL-K-20K20S1,742,experiment,83,←,left,←,0.5864453000103822,True,31,1
JL-K-20K20S1,743,experiment,100,→,left,←,0.8262059999979101,False,31,1
JL-K-20K20S1,744,experiment,90,→,right,→,0.644041700012167,True,31,1
JL-K-20K20S1,745,experiment,52,↓,down,↓,0.865565100000822,True,31,1
JL-K-20K20S1,746,experiment,74,→,right,→,0.5589567999995779,True,31,1
JL-K-20K20S1,747,experiment,95,↓,down,↓,0.5536446999904001,True,31,1
JL-K-20K20S1,748,experiment,66,←,left,←,0.6621557000034954,True,31,1
JL-K-20K20S1,749,experiment,84,↓,down,↓,0.46444230001361575,True,31,1
JL-K-20K20S1,750,experiment,69,↑,down,↓,0.7191989000129979,False,31,1
JL-K-20K20S1,751,experiment,61,↑,up,↑,0.5827025000035064,True,31,1
JL-K-20K20S1,752,experiment,76,←,left,←,0.5188342000037665,True,31,1
JL-K-20K20S1,753,experiment,75,↑,down,↓,0.6337404000078095,False,31,1
JL-K-20K20S1,754,experiment,81,↑,up,↑,0.5498765999946045,True,31,1
JL-K-20K20S1,755,experiment,96,←,left,←,0.43316349999804515,True,31,1
JL-K-20K20S1,756,experiment,55,↑,up,↑,0.533022899995558,True,31,1
JL-K-20K20S1,757,experiment,82,←,left,←,1.1009962999960408,True,31,1
JL-K-20K20S1,758,experiment,64,←,left,←,0.6763596000091638,True,31,1
JL-K-20K20S1,759,experiment,88,→,right,→,0.5249347000062698,True,31,1
JL-K-20K20S1,760,experiment,71,↑,up,↑,0.7606585000030464,True,31,1
JL-K-20K20S1,761,experiment,51,←,left,←,0.49809690000256523,True,31,1
JL-K-20K20S1,762,experiment,104,←,left,←,0.7243111999996472,True,31,1
JL-K-20K20S1,763,experiment,58,↑,up,↑,0.5484098000015365,True,31,1
JL-K-20K20S1,764,experiment,101,↓,down,↓,0.5972156000061659,True,31,1
JL-K-20K20S1,765,experiment,102,↑,up,↑,0.7318660000019008,True,31,1
JL-K-20K20S1,766,experiment,48,←,left,←,0.527185200000531,True,31,1
JL-K-20K20S1,767,experiment,62,→,left,←,0.8059937999933027,False,31,1
JL-K-20K20S1,768,experiment,79,↓,down,↓,0.6599506000056863,True,31,1
JL-K-20K20S1,769,experiment,97,↑,down,↓,0.714089300003252,False,31,1
JL-K-20K20S1,770,experiment,85,→,left,←,0.6018347000062931,False,31,1
JL-K-20K20S1,771,experiment,72,↓,down,↓,0.6503943000134313,True,31,1
JL-K-20K20S1,772,experiment,98,→,right,→,0.712436699992395,True,31,1
JL-K-20K20S1,773,experiment,93,↑,up,↑,0.6133172000118066,True,31,1
JL-K-20K20S1,774,experiment,67,←,right,→,0.8151060999953188,False,31,1
JL-K-20K20S1,775,experiment,86,→,right,→,0.5704404000134673,True,31,1
JL-K-20K20S1,776,experiment,65,↓,down,↓,0.6143404000031296,True,31,1
JL-K-20K20S1,777,experiment,63,↓,down,↓,0.5612678999896161,True,31,1
JL-K-20K20S1,778,experiment,60,→,down,↓,0.6393937999964692,False,31,1
JL-K-20K20S1,779,experiment,54,↑,up,↑,0.5723798999970313,True,31,1
JL-K-20K20S1,780,experiment,53,→,right,→,1.028273400006583,True,31,1
JL-K-20K20S1,781,experiment,68,←,left,←,0.5732878999988316,True,31,1
JL-K-20K20S1,782,experiment,92,←,left,←,0.9923755999916466,True,31,1
JL-K-20K20S1,783,experiment,56,←,left,←,0.80663320000167,True,31,1
JL-K-20K20S1,784,experiment,107,↑,up,↑,0.6594577000068966,True,31,1
JL-K-20K20S1,785,experiment,106,↑,up,↑,0.9986546000000089,True,31,1
JL-K-20K20S1,786,experiment,87,↓,right,→,0.9540757999930065,False,31,1
JL-K-20K20S1,787,experiment,108,←,left,←,0.8167914999939967,True,31,1
JL-K-20K20S1,788,experiment,103,←,left,←,0.8306966000091052,True,31,1
JL-K-20K20S1,789,experiment,94,↑,up,↑,0.6706551000097534,True,31,1
JL-K-20K20S1,790,experiment,73,↓,down,↓,0.5719962999864947,True,31,1
JL-K-20K20S1,791,experiment,49,↑,right,→,1.181154100006097,False,31,1
JL-K-20K20S1,792,experiment,80,→,right,→,0.49994019999576267,True,31,1
JL-K-20K20S1,793,experiment,59,→,right,→,0.4373465000098804,True,31,1
JL-K-20K20S1,794,experiment,99,→,left,←,0.7547873000003165,False,31,1
JL-K-20K20S1,795,experiment,105,→,right,→,0.4504451999964658,True,31,1
JL-K-20K20S1,796,experiment,78,↑,up,↑,0.5110056999983499,True,31,1
JL-K-20K20S1,797,training,90,→,right,→,0.5499351000034949,True,31,0
JL-K-20K20S1,798,training,62,↑,up,↑,0.5076915000099689,True,31,1
JL-K-20K20S1,799,experiment,108,→,right,→,0.4368893999926513,True,31,1
JL-K-20K20S1,800,experiment,82,↑,up,↑,0.5116107000067132,True,31,1
JL-K-20K20S1,801,experiment,60,→,right,→,0.5918406999990111,True,31,1
JL-K-20K20S1,802,experiment,57,↑,up,↑,0.46963039999536704,True,31,1
JL-K-20K20S1,803,experiment,88,↓,down,↓,0.6300951000011992,True,31,1
JL-K-20K20S1,804,experiment,105,↑,up,↑,0.5948298000002978,True,31,1
JL-K-20K20S1,805,experiment,49,↓,down,↓,0.46784779999870807,True,31,1
JL-K-20K20S1,806,experiment,68,↑,up,↑,0.46641220001038164,True,31,1
JL-K-20K20S1,807,experiment,76,↓,down,↓,0.5270156000042334,True,31,1
JL-K-20K20S1,808,experiment,87,←,left,←,0.4089267999952426,True,31,1
JL-K-20K20S1,809,experiment,78,↓,down,↓,0.5875424000114435,True,31,0
JL-K-20K20S1,810,experiment,84,←,down,↓,0.6324401999881957,False,31,1
JL-K-20K20S1,811,experiment,79,←,down,↓,0.5575810000009369,False,31,1
JL-K-20K20S1,812,experiment,50,→,right,→,0.5909510000055889,True,31,1
JL-K-20K20S1,813,experiment,53,↓,down,↓,0.5743827999976929,True,31,1
JL-K-20K20S1,814,experiment,48,→,right,→,0.5037838999996893,True,31,1
JL-K-20K20S1,815,experiment,62,→,right,→,0.5283052000013413,True,31,1
JL-K-20K20S1,816,experiment,95,→,right,→,0.5555756999965524,True,31,1
JL-K-20K20S1,817,experiment,90,↑,up,↑,0.799901200007298,True,31,1
JL-K-20K20S1,818,experiment,89,↑,up,↑,0.5071157000056701,True,31,1
JL-K-20K20S1,819,experiment,77,↓,down,↓,0.7815776000061305,True,31,1
JL-K-20K20S1,820,experiment,72,↓,down,↓,0.6550400999985868,True,31,1
JL-K-20K20S1,821,experiment,104,↑,up,↑,0.7546805000019958,True,31,1
JL-K-20K20S1,822,experiment,83,→,right,→,0.4974383999942802,True,31,1
JL-K-20K20S1,823,experiment,74,↑,down,↓,0.5572064000007231,False,31,1
JL-K-20K20S1,824,experiment,102,←,left,←,0.6294845999946119,True,31,1
JL-K-20K20S1,825,experiment,99,↓,down,↓,0.8278410000057193,True,31,1
JL-K-20K20S1,826,experiment,80,↑,down,↓,0.6488508000038564,False,31,1
JL-K-20K20S1,827,experiment,52,↓,up,↑,0.9026043999911053,False,31,1
JL-K-20K20S1,828,experiment,55,←,left,←,0.5206347000057576,True,31,1
JL-K-20K20S1,829,experiment,92,↓,down,↓,0.7097110000031535,True,31,1
JL-K-20K20S1,830,experiment,61,←,left,←,0.5816123999975389,True,31,1
JL-K-20K20S1,831,experiment,91,→,right,→,0.5529431000031764,True,31,1
JL-K-20K20S1,832,experiment,59,→,right,→,0.59183760000451,True,31,1
JL-K-20K20S1,833,experiment,66,→,right,→,0.4271506999939447,True,31,1
JL-K-20K20S1,834,experiment,58,→,right,→,0.4312150999903679,True,31,0
JL-K-20K20S1,835,experiment,71,←,right,→,0.7019858999992721,False,31,1
JL-K-20K20S1,836,experiment,69,↓,down,↓,0.6756125999963842,True,31,1
JL-K-20K20S1,837,experiment,65,←,left,←,0.731718600000022,True,31,1
JL-K-20K20S1,838,experiment,67,←,left,←,0.4487440999946557,True,31,1
JL-K-20K20S1,839,experiment,64,←,no_key,no_letter,-1.0,False,31,1
JL-K-20K20S1,840,experiment,97,↑,right,→,0.7413728999963496,False,31,1
JL-K-20K20S1,841,experiment,100,←,right,→,0.5992281000071671,False,31,1
JL-K-20K20S1,842,experiment,106,↑,up,↑,0.7807389999943553,True,31,1
JL-K-20K20S1,843,experiment,98,→,left,←,0.6533480000070995,False,31,1
JL-K-20K20S1,844,experiment,75,↓,left,←,0.7789515999902505,False,31,1
JL-K-20K20S1,845,experiment,51,↑,left,←,0.9072699999960605,False,31,1
JL-K-20K20S1,846,experiment,70,→,right,→,0.6004737000039313,True,31,1
JL-K-20K20S1,847,experiment,54,↑,up,↑,0.5510021999944001,True,31,1
JL-K-20K20S1,848,experiment,63,←,left,←,0.516405099988333,True,31,1
JL-K-20K20S1,849,experiment,93,↑,up,↑,0.4973145999974804,True,31,1
JL-K-20K20S1,850,experiment,101,↑,up,↑,0.8283279000024777,True,31,1
JL-K-20K20S1,851,experiment,85,↓,down,↓,0.567765399988275,True,31,1
JL-K-20K20S1,852,experiment,81,↑,up,↑,0.510818399998243,True,31,1
JL-K-20K20S1,853,experiment,94,→,right,→,0.5716422999976203,True,31,1
JL-K-20K20S1,854,experiment,86,→,right,→,0.6166284999926575,True,31,1
JL-K-20K20S1,855,experiment,73,↓,down,↓,0.5924341000063578,True,31,1
JL-K-20K20S1,856,experiment,103,↓,down,↓,0.5829953999927966,True,31,1
JL-K-20K20S1,857,experiment,96,→,right,→,0.6482759000064107,True,31,1
JL-K-20K20S1,858,experiment,107,↓,down,↓,0.6033610000013141,True,31,1
JL-K-20K20S1,859,experiment,56,↑,down,↓,0.6250406000035582,False,31,1
JL-K-20K20S1,860,training,98,←,left,←,0.5094380999944406,True,31,0
JL-K-20K20S1,861,training,68,↑,up,↑,0.78690039999492,True,31,1
JL-K-20K20S1,862,experiment,86,→,right,→,0.46340419999614824,True,31,1
JL-K-20K20S1,863,experiment,94,↑,up,↑,0.6859373999905074,True,31,1
JL-K-20K20S1,864,experiment,74,↓,down,↓,0.50663460000942,True,31,1
JL-K-20K20S1,865,experiment,83,↑,up,↑,0.531811499997275,True,31,1
JL-K-20K20S1,866,experiment,75,↑,up,↑,0.7494974000001093,True,31,1
JL-K-20K20S1,867,experiment,76,↓,down,↓,0.7587681000004523,True,31,1
JL-K-20K20S1,868,experiment,87,↓,down,↓,0.492421100003412,True,31,1
JL-K-20K20S1,869,experiment,90,→,right,→,0.6833418000023812,True,31,1
JL-K-20K20S1,870,experiment,100,↑,down,↓,0.7591208999947412,False,31,1
JL-K-20K20S1,871,experiment,72,↓,down,↓,0.5057357999903616,True,31,1
JL-K-20K20S1,872,experiment,78,↓,down,↓,0.42840000000433065,True,31,1
JL-K-20K20S1,873,experiment,61,↑,down,↓,0.7425839000061387,False,31,0
JL-K-20K20S1,874,experiment,53,↑,up,↑,0.7521357000077842,True,31,1
JL-K-20K20S1,875,experiment,98,↓,down,↓,0.786181299990858,True,31,1
JL-K-20K20S1,876,experiment,60,←,left,←,0.4953616000129841,True,31,1
JL-K-20K20S1,877,experiment,85,↓,down,↓,0.5124045999982627,True,31,1
JL-K-20K20S1,878,experiment,55,←,left,←,0.5130707999924198,True,31,1
JL-K-20K20S1,879,experiment,92,↑,down,↓,0.8785349999961909,False,31,1
JL-K-20K20S1,880,experiment,49,←,down,↓,0.7312696999870241,False,31,1
JL-K-20K20S1,881,experiment,69,↑,up,↑,0.7117039000004297,True,31,1
JL-K-20K20S1,882,experiment,58,→,right,→,0.5687157999927877,True,31,1
JL-K-20K20S1,883,experiment,104,←,left,←,0.4561917999963043,True,31,1
JL-K-20K20S1,884,experiment,68,↑,up,↑,1.1438666000030935,True,31,1
JL-K-20K20S1,885,experiment,51,→,right,→,0.7215525999927195,True,31,1
JL-K-20K20S1,886,experiment,50,↓,down,↓,0.8284629999980098,True,31,1
JL-K-20K20S1,887,experiment,65,↓,up,↑,1.0385341999935918,False,31,1
JL-K-20K20S1,888,experiment,95,←,left,←,0.518436299986206,True,31,1
JL-K-20K20S1,889,experiment,91,↓,down,↓,0.5634807000024011,True,31,1
JL-K-20K20S1,890,experiment,57,↓,down,↓,0.7464114000031259,True,31,1
JL-K-20K20S1,891,experiment,102,→,right,→,0.6432847000105539,True,31,1
JL-K-20K20S1,892,experiment,64,↓,down,↓,0.6128886999940732,True,31,1
JL-K-20K20S1,893,experiment,79,↓,down,↓,0.5070112999965204,True,31,1
JL-K-20K20S1,894,experiment,105,↑,down,↓,0.5161427999992156,False,31,1
JL-K-20K20S1,895,experiment,77,→,down,↓,0.5741386000008788,False,31,1
JL-K-20K20S1,896,experiment,96,↑,down,↓,0.9040750999993179,False,31,1
JL-K-20K20S1,897,experiment,81,↑,down,↓,0.91375639999751,False,31,1
JL-K-20K20S1,898,experiment,93,↓,down,↓,0.7749349000077927,True,31,1
JL-K-20K20S1,899,experiment,97,←,left,←,0.48858810000820085,True,31,1
JL-K-20K20S1,900,experiment,103,→,left,←,0.6994315000047209,False,31,1
JL-K-20K20S1,901,experiment,101,↑,up,↑,0.5500731999927666,True,31,1
JL-K-20K20S1,902,experiment,52,↓,down,↓,1.1434164000093006,True,31,1
JL-K-20K20S1,903,experiment,54,↑,down,↓,1.192272200001753,False,31,1
JL-K-20K20S1,904,experiment,73,↑,up,↑,0.5532470999896759,True,31,1
JL-K-20K20S1,905,experiment,99,↑,right,→,1.1627882000029786,False,31,1
JL-K-20K20S1,906,experiment,71,←,left,←,0.6773013999918476,True,31,1
JL-K-20K20S1,907,experiment,89,↑,up,↑,0.5172901000041747,True,31,1
JL-K-20K20S1,908,experiment,80,→,right,→,0.46247879999282304,True,31,1
JL-K-20K20S1,909,experiment,66,↓,down,↓,0.7663364000036381,True,31,1
JL-K-20K20S1,910,experiment,67,→,right,→,0.5540524999960326,True,31,1
JL-K-20K20S1,911,experiment,108,→,right,→,0.5128704999951879,True,31,1
JL-K-20K20S1,912,experiment,106,↓,up,↑,0.7933757999999216,False,31,1
JL-K-20K20S1,913,experiment,59,↑,up,↑,0.47092130000237375,True,31,1
JL-K-20K20S1,914,experiment,84,←,left,←,0.5444655000028433,True,31,1
JL-K-20K20S1,915,experiment,63,→,right,→,0.47027400000661146,True,31,1
JL-K-20K20S1,916,experiment,56,→,right,→,0.46545160000096075,True,31,1
JL-K-20K20S1,917,experiment,48,←,left,←,0.3682548999931896,True,31,1
JL-K-20K20S1,918,experiment,88,←,right,→,0.491017299995292,False,31,0
JL-K-20K20S1,919,experiment,70,↑,up,↑,0.5126740999985486,True,31,1
JL-K-20K20S1,920,experiment,107,←,left,←,0.4733711000008043,True,31,1
JL-K-20K20S1,921,experiment,82,↓,down,↓,0.8354135999979917,True,31,1
JL-K-20K20S1,922,experiment,62,↓,down,↓,0.4938843999989331,True,31,1
JL-K-20K20S1,923,training,100,←,left,←,0.5407348000007914,True,31,0
JL-K-20K20S1,924,training,48,↓,down,↓,0.6074965000007069,True,31,1
JL-K-20K20S1,925,experiment,57,↑,up,↑,0.5166947999969125,True,31,1
JL-K-20K20S1,926,experiment,66,←,left,←,0.5066440999944462,True,31,1
JL-K-20K20S1,927,experiment,87,→,right,→,0.6819169999944279,True,31,1
JL-K-20K20S1,928,experiment,95,→,right,→,0.4323512999981176,True,31,1
JL-K-20K20S1,929,experiment,98,↑,up,↑,0.4860358999867458,True,31,1
JL-K-20K20S1,930,experiment,53,↓,up,↑,0.9693392999906791,False,31,1
JL-K-20K20S1,931,experiment,107,↓,down,↓,0.5680360999976983,True,31,1
JL-K-20K20S1,932,experiment,55,↑,down,↓,0.7354661999997916,False,31,1
JL-K-20K20S1,933,experiment,62,↑,up,↑,0.5260927000053925,True,31,1
JL-K-20K20S1,934,experiment,60,↑,up,↑,0.46977110000443645,True,31,1
JL-K-20K20S1,935,experiment,102,→,right,→,0.5857553000096232,True,31,1
JL-K-20K20S1,936,experiment,56,→,right,→,0.45626599999377504,True,31,1
JL-K-20K20S1,937,experiment,70,↓,left,←,0.7830490000051213,False,31,1
JL-K-20K20S1,938,experiment,68,←,left,←,0.497612899998785,True,31,1
JL-K-20K20S1,939,experiment,52,↓,up,↑,0.6849481999961426,False,31,1
JL-K-20K20S1,940,experiment,81,←,left,←,0.8791974999912782,True,31,1
JL-K-20K20S1,941,experiment,76,←,left,←,0.6435594000067795,True,31,1
JL-K-20K20S1,942,experiment,80,↓,down,↓,0.6319042999966769,True,31,1
JL-K-20K20S1,943,experiment,104,→,right,→,0.508605399998487,True,31,1
JL-K-20K20S1,944,experiment,93,↑,down,↓,0.7538410999986809,False,31,1
JL-K-20K20S1,945,experiment,106,↓,down,↓,0.937043799989624,True,31,1
JL-K-20K20S1,946,experiment,108,→,right,→,0.6721997999993619,True,31,1
JL-K-20K20S1,947,experiment,54,→,right,→,0.6517262999986997,True,31,1
JL-K-20K20S1,948,experiment,103,←,left,←,0.6640772000100696,True,31,1
JL-K-20K20S1,949,experiment,99,←,left,←,0.6133800999959931,True,31,1
JL-K-20K20S1,950,experiment,75,↓,down,↓,0.7401397999929031,True,31,1
JL-K-20K20S1,951,experiment,59,←,left,←,0.44389870000304654,True,31,1
JL-K-20K20S1,952,experiment,73,→,right,→,0.5299242000037339,True,31,1
JL-K-20K20S1,953,experiment,94,←,left,←,0.6135479000076884,True,31,1
JL-K-20K20S1,954,experiment,90,↑,down,↓,0.7275829999998678,False,31,1
JL-K-20K20S1,955,experiment,82,↓,down,↓,0.6800221000012243,True,31,1
JL-K-20K20S1,956,experiment,48,↑,up,↑,0.7572369999979855,True,31,1
JL-K-20K20S1,957,experiment,91,←,left,←,0.5854112000088207,True,31,1
JL-K-20K20S1,958,experiment,67,↑,up,↑,0.627933399999165,True,31,1
JL-K-20K20S1,959,experiment,71,←,left,←,0.6119401000032667,True,31,1
JL-K-20K20S1,960,experiment,92,↓,down,↓,0.5494660000113072,True,31,1
JL-K-20K20S1,961,experiment,79,←,left,←,0.6377377000026172,True,31,1
JL-K-20K20S1,962,experiment,77,←,no_key,no_letter,-1.0,False,31,1
JL-K-20K20S1,963,experiment,85,→,left,←,0.5631343999993987,False,31,1
JL-K-20K20S1,964,experiment,84,↑,down,↓,0.9611460000014631,False,31,1
JL-K-20K20S1,965,experiment,78,←,left,←,0.35036569999647327,True,31,1
JL-K-20K20S1,966,experiment,101,↓,down,↓,0.5940740999940317,True,31,0
JL-K-20K20S1,967,experiment,65,↑,down,↓,0.6453143999970052,False,31,1
JL-K-20K20S1,968,experiment,69,→,right,→,0.501062000010279,True,31,1
JL-K-20K20S1,969,experiment,72,→,right,→,0.5135864000039874,True,31,1
JL-K-20K20S1,970,experiment,89,↓,down,↓,0.4720166000042809,True,31,1
JL-K-20K20S1,971,experiment,97,↑,down,↓,0.5891310000006342,False,31,1
JL-K-20K20S1,972,experiment,88,↑,down,↓,0.7046888000040781,False,31,1
JL-K-20K20S1,973,experiment,86,→,right,→,0.48847810000006575,True,31,1
JL-K-20K20S1,974,experiment,64,↑,up,↑,0.6240089000057196,True,31,1
JL-K-20K20S1,975,experiment,58,←,left,←,0.524295199997141,True,31,1
JL-K-20K20S1,976,experiment,96,↓,down,↓,0.6481820000044536,True,31,1
JL-K-20K20S1,977,experiment,51,↓,down,↓,0.5814781000080984,True,31,1
JL-K-20K20S1,978,experiment,63,↓,down,↓,0.6658729999908246,True,31,1
JL-K-20K20S1,979,experiment,83,↓,down,↓,0.5482116999919526,True,31,1
JL-K-20K20S1,980,experiment,50,→,right,→,0.7020663000002969,True,31,1
JL-K-20K20S1,981,experiment,74,→,right,→,0.5298971000011079,True,31,1
JL-K-20K20S1,982,experiment,49,→,right,→,0.4527871000027517,True,31,1
JL-K-20K20S1,983,experiment,105,→,right,→,0.5044046999973943,True,31,1
JL-K-20K20S1,984,experiment,100,↓,right,→,0.739656499994453,False,31,1
JL-K-20K20S1,985,experiment,61,→,right,→,0.5379471999913221,True,31,1
JL-K-20K20S1,986,training,63,←,left,←,0.43208810000214726,True,31,0
JL-K-20K20S1,987,training,94,↓,down,↓,0.5755303000041749,True,31,1
JL-K-20K20S1,988,experiment,64,↑,down,↓,0.4283627999975579,False,31,1
JL-K-20K20S1,989,experiment,63,↑,down,↓,0.5421033000020543,False,31,0
JL-K-20K20S1,990,experiment,107,↑,up,↑,0.6137421000021277,True,31,1
JL-K-20K20S1,991,experiment,87,←,left,←,0.6802609000005759,True,31,1
JL-K-20K20S1,992,experiment,66,↓,down,↓,0.4636333999951603,True,31,1
JL-K-20K20S1,993,experiment,50,→,down,↓,0.5487592999998014,False,31,1
JL-K-20K20S1,994,experiment,60,←,left,←,0.3419669000140857,True,31,1
JL-K-20K20S1,995,experiment,96,↑,up,↑,0.629908399991109,True,31,0
JL-K-20K20S1,996,experiment,89,↑,down,↓,0.5597109999944223,False,31,1
JL-K-20K20S1,997,experiment,86,↑,up,↑,0.733084699997562,True,31,1
JL-K-20K20S1,998,experiment,73,→,right,→,0.672186399999191,True,31,1
JL-K-20K20S1,999,experiment,80,→,right,→,0.5953981999919051,True,31,1
JL-K-20K20S1,1000,experiment,101,↑,up,↑,0.506771000000299,True,31,1
JL-K-20K20S1,1001,experiment,85,→,right,→,0.6665257999993628,True,31,1
JL-K-20K20S1,1002,experiment,104,↑,up,↑,0.4698978999949759,True,31,1
JL-K-20K20S1,1003,experiment,81,←,left,←,0.7050031000107992,True,31,1
JL-K-20K20S1,1004,experiment,61,↑,up,↑,0.5044966999994358,True,31,1
JL-K-20K20S1,1005,experiment,82,↓,down,↓,0.7535886999976356,True,31,1
JL-K-20K20S1,1006,experiment,55,→,right,→,0.6181938000081573,True,31,1
JL-K-20K20S1,1007,experiment,69,←,right,→,0.6028628000058234,False,31,1
JL-K-20K20S1,1008,experiment,105,↓,down,↓,0.5605286999925738,True,31,1
JL-K-20K20S1,1009,experiment,52,↓,down,↓,0.7375283000001218,True,31,1
JL-K-20K20S1,1010,experiment,62,↑,up,↑,0.5919840999995358,True,31,1
JL-K-20K20S1,1011,experiment,100,↓,down,↓,0.5436207999882754,True,31,1
JL-K-20K20S1,1012,experiment,83,→,right,→,0.47891360000357963,True,31,1
JL-K-20K20S1,1013,experiment,79,→,right,→,0.4423252999986289,True,31,1
JL-K-20K20S1,1014,experiment,54,←,right,→,0.4708247999951709,False,31,1
JL-K-20K20S1,1015,experiment,49,↓,down,↓,0.69990069999767,True,31,1
JL-K-20K20S1,1016,experiment,106,↓,down,↓,0.4933958000037819,True,31,1
JL-K-20K20S1,1017,experiment,76,↓,down,↓,0.624926400007098,True,31,1
JL-K-20K20S1,1018,experiment,92,↓,down,↓,0.4979304000007687,True,31,1
JL-K-20K20S1,1019,experiment,91,→,right,→,0.47233829999458976,True,31,1
JL-K-20K20S1,1020,experiment,103,↑,up,↑,0.523544600000605,True,31,1
JL-K-20K20S1,1021,experiment,58,→,right,→,0.6277372999902582,True,31,1
JL-K-20K20S1,1022,experiment,72,←,left,←,0.6352490999997826,True,31,1
JL-K-20K20S1,1023,experiment,84,←,left,←,0.4313594999985071,True,31,1
JL-K-20K20S1,1024,experiment,90,←,left,←,0.6640763999894261,True,31,0
JL-K-20K20S1,1025,experiment,93,←,left,←,0.6070197000080952,True,31,1
JL-K-20K20S1,1026,experiment,74,→,right,→,0.5989135000127135,True,31,1
JL-K-20K20S1,1027,experiment,59,←,right,→,0.8916708000033395,False,31,1
JL-K-20K20S1,1028,experiment,108,↑,up,↑,0.524847700013197,True,31,1
JL-K-20K20S1,1029,experiment,67,↑,up,↑,0.6739664000051562,True,31,1
JL-K-20K20S1,1030,experiment,53,→,right,→,0.5178332999930717,True,31,1
JL-K-20K20S1,1031,experiment,56,→,no_key,no_letter,-1.0,False,31,1
JL-K-20K20S1,1032,experiment,57,→,right,→,0.528021499994793,True,31,1
JL-K-20K20S1,1033,experiment,51,↓,up,↑,0.722585399998934,False,31,1
JL-K-20K20S1,1034,experiment,77,↑,up,↑,0.8125050999951782,True,31,1
JL-K-20K20S1,1035,experiment,70,↑,up,↑,0.7175379999971483,True,31,1
JL-K-20K20S1,1036,experiment,68,↓,down,↓,0.8909100000018952,True,31,1
JL-K-20K20S1,1037,experiment,78,←,left,←,0.46999599999981,True,31,1
JL-K-20K20S1,1038,experiment,97,↑,up,↑,0.6197511000063969,True,31,1
JL-K-20K20S1,1039,experiment,48,↓,down,↓,0.5233416999981273,True,31,1
JL-K-20K20S1,1040,experiment,75,←,left,←,0.6301782000082312,True,31,1
JL-K-20K20S1,1041,experiment,98,↑,up,↑,0.6925110000011045,True,31,1
JL-K-20K20S1,1042,experiment,99,→,right,→,0.6168389000085881,True,31,1
JL-K-20K20S1,1043,experiment,71,↓,left,←,0.6890703000099165,False,31,1
JL-K-20K20S1,1044,experiment,95,↑,up,↑,0.6306068000121741,True,31,1
JL-K-20K20S1,1045,experiment,65,↓,down,↓,0.791813000003458,True,31,1
JL-K-20K20S1,1046,experiment,102,←,left,←,0.4551772999984678,True,31,1
JL-K-20K20S1,1047,experiment,94,→,right,→,0.5820977999974275,True,31,1
JL-K-20K20S1,1048,experiment,88,←,left,←,0.3422599000041373,True,31,1
JL-K-20K20S1,1049,training,63,→,left,←,0.4571689000003971,False,31,0
JL-K-20K20S1,1050,training,56,→,right,→,0.43709380000655074,True,31,1
JL-K-20K20S1,1051,experiment,72,↑,right,→,0.5476357000006828,False,31,1
JL-K-20K20S1,1052,experiment,81,←,right,→,0.4671126000030199,False,31,1
JL-K-20K20S1,1053,experiment,67,←,right,→,0.4428654000075767,False,31,1
JL-K-20K20S1,1054,experiment,86,←,left,←,0.6451545000018086,True,31,1
JL-K-20K20S1,1055,experiment,54,↑,up,↑,0.45007439999608323,True,31,1
JL-K-20K20S1,1056,experiment,91,↑,up,↑,0.5142400999902748,True,31,1
JL-K-20K20S1,1057,experiment,55,↓,down,↓,0.5718339000013657,True,31,1
JL-K-20K20S1,1058,experiment,97,→,right,→,0.501369200006593,True,31,1
JL-K-20K20S1,1059,experiment,57,→,right,→,0.5904859000002034,True,31,1
JL-K-20K20S1,1060,experiment,96,↓,down,↓,0.4955389000097057,True,31,1
JL-K-20K20S1,1061,experiment,63,↓,down,↓,0.4555538999993587,True,31,1
JL-K-20K20S1,1062,experiment,88,↓,down,↓,0.6562023000005865,True,31,1
JL-K-20K20S1,1063,experiment,93,↓,down,↓,0.6317010999919148,True,31,1
JL-K-20K20S1,1064,experiment,102,←,left,←,0.6050547000049846,True,31,1
JL-K-20K20S1,1065,experiment,76,↓,down,↓,0.7001912999985507,True,31,1
JL-K-20K20S1,1066,experiment,48,←,left,←,0.4964527999982238,True,31,1
JL-K-20K20S1,1067,experiment,58,↑,down,↓,0.5781924999901094,False,31,1
JL-K-20K20S1,1068,experiment,73,↓,left,←,1.0432533999992302,False,31,1
JL-K-20K20S1,1069,experiment,99,↓,down,↓,0.8652847000048496,True,31,1
JL-K-20K20S1,1070,experiment,95,←,right,→,0.8315984999935608,False,31,1
JL-K-20K20S1,1071,experiment,106,↑,up,↑,0.6199246999894967,True,31,1
JL-K-20K20S1,1072,experiment,66,←,up,↑,0.6455680999933975,False,31,1
JL-K-20K20S1,1073,experiment,108,↑,up,↑,0.4723239000013564,True,31,1
JL-K-20K20S1,1074,experiment,101,→,right,→,0.46049569999740925,True,31,1
JL-K-20K20S1,1075,experiment,80,→,right,→,0.7198692999954801,True,31,1
JL-K-20K20S1,1076,experiment,79,↑,up,↑,0.8177901999879396,True,31,1
JL-K-20K20S1,1077,experiment,83,→,left,←,0.7900683999905596,False,31,1
JL-K-20K20S1,1078,experiment,49,↑,up,↑,0.7186553000065032,True,31,1
JL-K-20K20S1,1079,experiment,71,↑,right,→,0.8751147000002675,False,31,1
JL-K-20K20S1,1080,experiment,70,↑,up,↑,0.5372505000123056,True,31,1
JL-K-20K20S1,1081,experiment,51,→,right,→,0.5151226000016322,True,31,1
JL-K-20K20S1,1082,experiment,105,←,left,←,0.5081063999969047,True,31,1
JL-K-20K20S1,1083,experiment,84,→,right,→,0.5083602999948198,True,31,1
JL-K-20K20S1,1084,experiment,56,↑,up,↑,0.6699872000026517,True,31,1
JL-K-20K20S1,1085,experiment,104,↑,down,↓,0.7133176999923307,False,31,1
JL-K-20K20S1,1086,experiment,75,←,left,←,0.42865960000199266,True,31,1
JL-K-20K20S1,1087,experiment,50,↑,up,↑,0.5387667999893893,True,31,1
JL-K-20K20S1,1088,experiment,107,→,right,→,0.5621761000074912,True,31,1
JL-K-20K20S1,1089,experiment,100,↑,up,↑,0.5791043000062928,True,31,1
JL-K-20K20S1,1090,experiment,52,↑,down,↓,0.8034533000027295,False,31,1
JL-K-20K20S1,1091,experiment,74,→,right,→,0.4753735999984201,True,31,1
JL-K-20K20S1,1092,experiment,94,↓,down,↓,0.5057732999994187,True,31,1
JL-K-20K20S1,1093,experiment,103,↓,down,↓,0.43628419999731705,True,31,1
JL-K-20K20S1,1094,experiment,61,→,right,→,0.47037989999807905,True,31,1
JL-K-20K20S1,1095,experiment,65,→,right,→,0.6865320000069914,True,31,1
JL-K-20K20S1,1096,experiment,85,←,right,→,0.4799466999975266,False,31,1
JL-K-20K20S1,1097,experiment,98,→,right,→,0.532645200000843,True,31,1
JL-K-20K20S1,1098,experiment,89,←,right,→,0.641900100003113,False,31,1
JL-K-20K20S1,1099,experiment,87,↑,up,↑,0.540313999998034,True,31,1
JL-K-20K20S1,1100,experiment,78,↑,up,↑,0.6771566999959759,True,31,1
JL-K-20K20S1,1101,experiment,53,↑,up,↑,0.6412082999886479,True,31,1
JL-K-20K20S1,1102,experiment,60,↑,up,↑,0.47611100001086015,True,31,1
JL-K-20K20S1,1103,experiment,92,→,right,→,0.7630968000012217,True,31,1
JL-K-20K20S1,1104,experiment,82,←,left,←,0.4489927999966312,True,31,1
JL-K-20K20S1,1105,experiment,68,↓,left,←,0.745047299991711,False,31,1
JL-K-20K20S1,1106,experiment,64,←,left,←,0.7191768999909982,True,31,1
JL-K-20K20S1,1107,experiment,69,←,left,←,0.46782220000750385,True,31,1
JL-K-20K20S1,1108,experiment,90,→,right,→,0.851723600004334,True,31,1
JL-K-20K20S1,1109,experiment,59,←,left,←,0.44722669999464415,True,31,1
JL-K-20K20S1,1110,experiment,62,→,right,→,0.5284593000105815,True,31,1
JL-K-20K20S1,1111,experiment,77,↓,down,↓,0.5627093000075547,True,31,1
JL-K-20K20S1,1112,training,88,←,left,←,0.7272665000054985,True,31,0
JL-K-20K20S1,1113,training,55,←,left,←,0.3852813999983482,True,31,1
JL-K-20K20S1,1114,experiment,105,←,left,←,0.3094707999989623,True,31,0
JL-K-20K20S1,1115,experiment,53,←,left,←,0.3917327000090154,True,31,0
JL-K-20K20S1,1116,experiment,85,←,left,←,0.6205333999969298,True,31,0
JL-K-20K20S1,1117,experiment,50,←,left,←,0.46728929999517277,True,31,1
JL-K-20K20S1,1118,experiment,63,↑,up,↑,0.5081502999964869,True,31,1
JL-K-20K20S1,1119,experiment,68,↑,up,↑,0.5615541000006488,True,31,1
JL-K-20K20S1,1120,experiment,92,→,right,→,0.6211232000059681,True,31,1
JL-K-20K20S1,1121,experiment,64,←,left,←,0.5839574000128778,True,31,1
JL-K-20K20S1,1122,experiment,82,↓,down,↓,0.654062999994494,True,31,1
JL-K-20K20S1,1123,experiment,86,←,left,←,0.6077497999940533,True,31,1
JL-K-20K20S1,1124,experiment,94,↓,down,↓,0.5127504999982193,True,31,1
JL-K-20K20S1,1125,experiment,73,↓,down,↓,0.5081990000035148,True,31,1
JL-K-20K20S1,1126,experiment,52,↓,down,↓,0.6710975999885704,True,31,1
JL-K-20K20S1,1127,experiment,93,←,left,←,0.6381225000077393,True,31,1
JL-K-20K20S1,1128,experiment,100,↓,down,↓,0.5637756999931298,True,31,1
JL-K-20K20S1,1129,experiment,91,↑,up,↑,0.6231751000013901,True,31,1
JL-K-20K20S1,1130,experiment,58,↓,down,↓,0.45937789999879897,True,31,1
JL-K-20K20S1,1131,experiment,84,↓,left,←,0.7898954999982379,False,31,1
JL-K-20K20S1,1132,experiment,77,↑,up,↑,0.5411621999955969,True,31,1
JL-K-20K20S1,1133,experiment,103,→,right,→,0.5898537999892142,True,31,1
JL-K-20K20S1,1134,experiment,71,↓,left,←,0.7272684000054142,False,31,1
JL-K-20K20S1,1135,experiment,101,→,left,←,0.9371757000044454,False,31,1
JL-K-20K20S1,1136,experiment,59,↓,down,↓,0.6642778999957955,True,31,1
JL-K-20K20S1,1137,experiment,65,→,right,→,0.6727960999996867,True,31,1
JL-K-20K20S1,1138,experiment,89,↑,up,↑,0.8166720000008354,True,31,1
JL-K-20K20S1,1139,experiment,62,↓,up,↑,0.6041914999950677,False,31,1
JL-K-20K20S1,1140,experiment,75,→,right,→,0.5631744999991497,True,31,1
JL-K-20K20S1,1141,experiment,106,→,right,→,0.6179839999967953,True,31,1
JL-K-20K20S1,1142,experiment,99,→,right,→,0.5290430000022752,True,31,1
JL-K-20K20S1,1143,experiment,60,→,right,→,0.4564296999888029,True,31,1
JL-K-20K20S1,1144,experiment,98,↑,up,↑,0.838148299997556,True,31,1
JL-K-20K20S1,1145,experiment,61,↓,down,↓,0.5692899999994552,True,31,1
JL-K-20K20S1,1146,experiment,81,→,right,→,0.6159539999935078,True,31,1
JL-K-20K20S1,1147,experiment,104,↓,down,↓,0.7971526999899652,True,31,1
JL-K-20K20S1,1148,experiment,55,↑,up,↑,0.6836809999949764,True,31,1
JL-K-20K20S1,1149,experiment,51,↑,up,↑,0.4877755000052275,True,31,1
JL-K-20K20S1,1150,experiment,79,→,right,→,0.5462793999904534,True,31,1
JL-K-20K20S1,1151,experiment,78,→,right,→,0.6028805000096327,True,31,1
JL-K-20K20S1,1152,experiment,90,←,left,←,0.6696746000088751,True,31,1
JL-K-20K20S1,1153,experiment,48,↓,left,←,0.7395150999946054,False,31,1
JL-K-20K20S1,1154,experiment,70,↓,down,↓,0.7271330000075977,True,31,1
JL-K-20K20S1,1155,experiment,87,↓,down,↓,1.1341832000034628,True,31,1
JL-K-20K20S1,1156,experiment,96,→,right,→,0.5374548999971012,True,31,1
JL-K-20K20S1,1157,experiment,107,→,right,→,0.5291204999957699,True,31,1
JL-K-20K20S1,1158,experiment,76,→,no_key,no_letter,-1.0,False,31,1
JL-K-20K20S1,1159,experiment,83,↑,right,→,0.8358399999997346,False,31,1
JL-K-20K20S1,1160,experiment,95,↓,down,↓,0.6274630000116304,True,31,1
JL-K-20K20S1,1161,experiment,88,↓,down,↓,0.5976647000061348,True,31,1
JL-K-20K20S1,1162,experiment,102,↑,right,→,1.0044383999920683,False,31,1
JL-K-20K20S1,1163,experiment,67,→,right,→,0.4786249000026146,True,31,1
JL-K-20K20S1,1164,experiment,56,↑,down,↓,1.0017557000101078,False,31,1
JL-K-20K20S1,1165,experiment,80,←,right,→,0.5272439999971539,False,31,1
JL-K-20K20S1,1166,experiment,97,→,right,→,0.5468124000035459,True,31,1
JL-K-20K20S1,1167,experiment,57,↓,down,↓,0.5464693999965675,True,31,1
JL-K-20K20S1,1168,experiment,72,→,right,→,0.5489097999961814,True,31,1
JL-K-20K20S1,1169,experiment,74,→,right,→,0.46302970001124777,True,31,1
JL-K-20K20S1,1170,experiment,108,↓,down,↓,0.728782099991804,True,31,1
JL-K-20K20S1,1171,experiment,66,↓,down,↓,0.5188016000029165,True,31,1
JL-K-20K20S1,1172,experiment,54,→,down,↓,0.7764247999875806,False,31,1
JL-K-20K20S1,1173,experiment,69,→,down,↓,0.7709050999983447,False,31,1
JL-K-20K20S1,1174,experiment,49,↑,down,↓,0.9485101999889594,False,31,1
JL-K-20K20S1,1175,training,65,→,right,→,0.4602602999948431,True,31,0
JL-K-20K20S1,1176,training,80,↑,up,↑,0.559566799987806,True,31,1
JL-K-20K20S1,1177,experiment,48,←,left,←,0.4264396999933524,True,31,1
JL-K-20K20S1,1178,experiment,59,→,left,←,0.5175422000029357,False,31,0
JL-K-20K20S1,1179,experiment,61,←,left,←,0.42958729999372736,True,31,1
JL-K-20K20S1,1180,experiment,67,←,left,←,0.485936999990372,True,31,0
JL-K-20K20S1,1181,experiment,82,↑,up,↑,0.40861289999156725,True,31,1
JL-K-20K20S1,1182,experiment,63,←,left,←,0.45102290000068024,True,31,0
JL-K-20K20S1,1183,experiment,56,←,left,←,0.3838709999981802,True,31,1
JL-K-20K20S1,1184,experiment,103,→,left,←,0.6610668999928748,False,31,0
JL-K-20K20S1,1185,experiment,65,↑,left,←,0.733683900005417,False,31,1
JL-K-20K20S1,1186,experiment,70,←,left,←,0.48976240000047255,True,31,1
JL-K-20K20S1,1187,experiment,52,↑,up,↑,0.5892772000079276,True,31,1
JL-K-20K20S1,1188,experiment,106,→,right,→,0.5948919999937061,True,31,1
JL-K-20K20S1,1189,experiment,60,↓,up,↑,0.6640618999954313,False,31,1
JL-K-20K20S1,1190,experiment,92,→,right,→,0.6074767999962205,True,31,1
JL-K-20K20S1,1191,experiment,69,↑,up,↑,0.6725882000027923,True,31,1
JL-K-20K20S1,1192,experiment,83,←,left,←,0.5384312999958638,True,31,1
JL-K-20K20S1,1193,experiment,54,→,left,←,0.6913337000005413,False,31,1
JL-K-20K20S1,1194,experiment,71,→,right,→,0.5367379999952391,True,31,1
JL-K-20K20S1,1195,experiment,62,→,left,←,0.5432066999928793,False,31,1
JL-K-20K20S1,1196,experiment,51,←,left,←,0.7290232999948785,True,31,1
JL-K-20K20S1,1197,experiment,74,→,right,→,0.5397188000060851,True,31,1
JL-K-20K20S1,1198,experiment,68,→,right,→,0.7041491999989375,True,31,1
JL-K-20K20S1,1199,experiment,107,→,right,→,0.5929545999970287,True,31,1
JL-K-20K20S1,1200,experiment,50,↑,up,↑,0.6890588999958709,True,31,1
JL-K-20K20S1,1201,experiment,104,←,left,←,0.8595811999985017,True,31,1
JL-K-20K20S1,1202,experiment,75,↑,up,↑,0.48102819999621715,True,31,1
JL-K-20K20S1,1203,experiment,105,→,right,→,0.6912451000098372,True,31,1
JL-K-20K20S1,1204,experiment,66,↑,right,→,0.7702954999986105,False,31,1
JL-K-20K20S1,1205,experiment,57,↓,down,↓,0.5928916999982903,True,31,1
JL-K-20K20S1,1206,experiment,108,↓,down,↓,0.5740515000070445,True,31,1
JL-K-20K20S1,1207,experiment,88,←,down,↓,0.5461310000100639,False,31,1
JL-K-20K20S1,1208,experiment,97,↓,down,↓,0.5170680000010179,True,31,1
JL-K-20K20S1,1209,experiment,100,←,left,←,0.4006967000022996,True,31,1
JL-K-20K20S1,1210,experiment,91,↑,up,↑,0.5054445999994641,True,31,0
JL-K-20K20S1,1211,experiment,90,→,right,→,0.4713033999869367,True,31,1
JL-K-20K20S1,1212,experiment,79,→,right,→,0.48266780000994913,True,31,1
JL-K-20K20S1,1213,experiment,95,↓,down,↓,0.624521999998251,True,31,1
JL-K-20K20S1,1214,experiment,80,↓,down,↓,0.6372940000001108,True,31,1
JL-K-20K20S1,1215,experiment,73,←,down,↓,0.6280281000072137,False,31,1
JL-K-20K20S1,1216,experiment,76,↓,down,↓,0.3921600000030594,True,31,1
JL-K-20K20S1,1217,experiment,89,↑,up,↑,0.5730981999950018,True,31,0
JL-K-20K20S1,1218,experiment,49,↑,up,↑,0.5823918000096455,True,31,1
JL-K-20K20S1,1219,experiment,55,↓,down,↓,0.8932463000091957,True,31,1
JL-K-20K20S1,1220,experiment,98,↓,down,↓,0.7058471999916947,True,31,1
JL-K-20K20S1,1221,experiment,72,↓,down,↓,0.6940421000035712,True,31,1
JL-K-20K20S1,1222,experiment,86,↓,down,↓,0.5423420000006445,True,31,1
JL-K-20K20S1,1223,experiment,93,→,right,→,0.35070129999076016,True,31,1
JL-K-20K20S1,1224,experiment,96,→,no_key,no_letter,-1.0,False,31,0
JL-K-20K20S1,1225,experiment,78,↓,down,↓,0.5666104999982053,True,31,1
JL-K-20K20S1,1226,experiment,81,↑,down,↓,0.9656539999996312,False,31,1
JL-K-20K20S1,1227,experiment,99,↓,down,↓,0.5588949999946635,True,31,1
JL-K-20K20S1,1228,experiment,64,←,no_key,no_letter,-1.0,False,31,1
JL-K-20K20S1,1229,experiment,101,↓,down,↓,0.5021564999915427,True,31,1
JL-K-20K20S1,1230,experiment,58,←,left,←,0.44748789998993743,True,31,1
JL-K-20K20S1,1231,experiment,87,→,right,→,0.45723939999879804,True,31,1
JL-K-20K20S1,1232,experiment,85,→,left,←,0.7230734999902779,False,31,1
JL-K-20K20S1,1233,experiment,84,↑,up,↑,0.8024415000109002,True,31,1
JL-K-20K20S1,1234,experiment,102,→,left,←,0.5852056000003358,False,31,1
JL-K-20K20S1,1235,experiment,53,→,right,→,0.6409830000047805,True,31,1
JL-K-20K20S1,1236,experiment,94,↑,left,←,0.7603084000002127,False,31,1
JL-K-20K20S1,1237,experiment,77,←,left,←,0.5692369000025792,True,31,1
JL-K-20K20S1,1238,training,108,↑,up,↑,0.6408707000082359,True,31,0
JL-K-20K20S1,1239,training,90,←,left,←,0.529554199994891,True,31,1
JL-K-20K20S1,1240,experiment,73,↑,up,↑,0.40890650000073947,True,31,1
JL-K-20K20S1,1241,experiment,99,↓,left,←,0.38365620000695344,False,31,0
JL-K-20K20S1,1242,experiment,79,→,down,↓,0.6499845000071218,False,31,0
JL-K-20K20S1,1243,experiment,95,←,left,←,0.5292373000120278,True,31,1
JL-K-20K20S1,1244,experiment,94,←,left,←,0.35872879999806173,True,31,1
JL-K-20K20S1,1245,experiment,52,←,left,←,0.5338470999995479,True,31,0
JL-K-20K20S1,1246,experiment,76,↑,up,↑,0.5277556000073673,True,31,1
JL-K-20K20S1,1247,experiment,87,→,left,←,0.6223621999961324,False,31,1
JL-K-20K20S1,1248,experiment,91,→,left,←,1.2718983000086155,False,31,1
JL-K-20K20S1,1249,experiment,105,↑,up,↑,0.5389012999949045,True,31,1
JL-K-20K20S1,1250,experiment,83,↓,up,↑,0.7700724000023911,False,31,1
JL-K-20K20S1,1251,experiment,77,↑,up,↑,0.6502570999873569,True,31,1
JL-K-20K20S1,1252,experiment,104,←,left,←,0.7822714000067208,True,31,1
JL-K-20K20S1,1253,experiment,58,←,left,←,0.8603371999925002,True,31,1
JL-K-20K20S1,1254,experiment,97,←,left,←,0.7464739000133704,True,31,1
JL-K-20K20S1,1255,experiment,61,→,left,←,0.6326799999951618,False,31,1
JL-K-20K20S1,1256,experiment,90,↑,up,↑,0.4981353000039235,True,31,1
JL-K-20K20S1,1257,experiment,70,→,right,→,0.5033015999943018,True,31,1
JL-K-20K20S1,1258,experiment,100,↓,down,↓,0.4008672000054503,True,31,1
JL-K-20K20S1,1259,experiment,57,↓,no_key,no_letter,-1.0,False,31,0
JL-K-20K20S1,1260,experiment,56,↓,down,↓,0.5452595999959158,True,31,1
JL-K-20K20S1,1261,experiment,108,↑,up,↑,0.6080412000010256,True,31,1
JL-K-20K20S1,1262,experiment,81,←,right,→,0.8215734999976121,False,31,1
JL-K-20K20S1,1263,experiment,82,→,right,→,0.6335802999965381,True,31,1
JL-K-20K20S1,1264,experiment,103,←,left,←,0.6308355000073789,True,31,1
JL-K-20K20S1,1265,experiment,63,↓,down,↓,0.6971024999947986,True,31,1
JL-K-20K20S1,1266,experiment,92,↑,down,↓,0.711488000000827,False,31,1
JL-K-20K20S1,1267,experiment,48,←,left,←,0.6434689000016078,True,31,1
JL-K-20K20S1,1268,experiment,98,↓,down,↓,0.5936995999945793,True,31,1
JL-K-20K20S1,1269,experiment,102,←,left,←,0.7207558999944013,True,31,1
JL-K-20K20S1,1270,experiment,72,↑,up,↑,0.5325753000070108,True,31,1
JL-K-20K20S1,1271,experiment,59,←,left,←,0.4385375000128988,True,31,1
JL-K-20K20S1,1272,experiment,80,←,left,←,0.38396340000326745,True,31,1
JL-K-20K20S1,1273,experiment,101,↑,up,↑,0.7994539999926928,True,31,0
JL-K-20K20S1,1274,experiment,106,→,right,→,0.5171207999956096,True,31,1
JL-K-20K20S1,1275,experiment,85,→,right,→,0.5004098000063095,True,31,1
JL-K-20K20S1,1276,experiment,96,→,right,→,0.4971399000060046,True,31,1
JL-K-20K20S1,1277,experiment,78,→,no_key,no_letter,-1.0,False,31,1
JL-K-20K20S1,1278,experiment,49,↓,left,←,0.7916359000082593,False,31,1
JL-K-20K20S1,1279,experiment,53,↑,up,↑,0.6945850000047358,True,31,1
JL-K-20K20S1,1280,experiment,68,←,no_key,no_letter,-1.0,False,31,1
JL-K-20K20S1,1281,experiment,93,←,left,←,0.5701220000046305,True,31,1
JL-K-20K20S1,1282,experiment,65,↑,up,↑,0.5107325999997556,True,31,1
JL-K-20K20S1,1283,experiment,54,↓,up,↑,0.7446322000032524,False,31,1
JL-K-20K20S1,1284,experiment,75,→,right,→,0.6105201000027591,True,31,1
JL-K-20K20S1,1285,experiment,50,→,right,→,0.4821132000070065,True,31,1
JL-K-20K20S1,1286,experiment,60,↓,down,↓,0.7713779000041541,True,31,1
JL-K-20K20S1,1287,experiment,86,↓,down,↓,0.560520799990627,True,31,1
JL-K-20K20S1,1288,experiment,69,↓,down,↓,0.7075369999947725,True,31,1
JL-K-20K20S1,1289,experiment,74,↓,down,↓,0.5113375000073574,True,31,1
JL-K-20K20S1,1290,experiment,62,←,right,→,0.5588036999979522,False,31,1
JL-K-20K20S1,1291,experiment,88,→,right,→,0.4518342999945162,True,31,1
JL-K-20K20S1,1292,experiment,64,↑,up,↑,0.5969813999981852,True,31,1
JL-K-20K20S1,1293,experiment,84,↓,down,↓,0.6657221000059508,True,31,1
JL-K-20K20S1,1294,experiment,107,↑,up,↑,0.5400014000042574,True,31,1
JL-K-20K20S1,1295,experiment,89,←,left,←,0.4259750999917742,True,31,1
JL-K-20K20S1,1296,experiment,71,↓,down,↓,0.6009791999968002,True,31,0
JL-K-20K20S1,1297,experiment,66,↑,up,↑,0.42795420000038575,True,31,1
JL-K-20K20S1,1298,experiment,67,↑,up,↑,0.5004754999972647,True,31,0
JL-K-20K20S1,1299,experiment,51,↓,down,↓,0.6638160000002244,True,31,1
JL-K-20K20S1,1300,experiment,55,↓,down,↓,0.5153444000025047,True,31,1
JL-K-20K20S1,1301,training,72,←,left,←,0.3756483000033768,True,31,0
JL-K-20K20S1,1302,training,53,→,left,←,0.30085140001028776,False,31,0
JL-K-20K20S1,1303,experiment,94,↑,up,↑,0.6172682000033092,True,31,0
JL-K-20K20S1,1304,experiment,95,→,right,→,0.4653378000075463,True,31,1
JL-K-20K20S1,1305,experiment,82,↓,down,↓,0.5958574999967823,True,31,1
JL-K-20K20S1,1306,experiment,70,↑,down,↓,0.5812850000074832,False,31,1
JL-K-20K20S1,1307,experiment,68,→,left,←,0.5197882000065874,False,31,1
JL-K-20K20S1,1308,experiment,56,↓,down,↓,0.4729881999955978,True,31,1
JL-K-20K20S1,1309,experiment,63,←,right,→,0.8655858999991324,False,31,1
JL-K-20K20S1,1310,experiment,48,↑,up,↑,0.495523299992783,True,31,1
JL-K-20K20S1,1311,experiment,49,←,right,→,0.7396227999997791,False,31,1
JL-K-20K20S1,1312,experiment,80,←,left,←,0.6040365999942878,True,31,1
JL-K-20K20S1,1313,experiment,57,↓,down,↓,0.5372131000040099,True,31,1
JL-K-20K20S1,1314,experiment,89,↓,down,↓,0.5028957999893464,True,31,1
JL-K-20K20S1,1315,experiment,59,↓,down,↓,0.4797924000013154,True,31,1
JL-K-20K20S1,1316,experiment,73,↓,left,←,0.7806732000026386,False,31,1
JL-K-20K20S1,1317,experiment,90,↓,down,↓,0.5360433000023477,True,31,1
JL-K-20K20S1,1318,experiment,66,↑,left,←,0.49350029999914113,False,31,1
JL-K-20K20S1,1319,experiment,84,↑,up,↑,0.5582314000057522,True,31,1
JL-K-20K20S1,1320,experiment,69,↑,up,↑,0.4734870999964187,True,31,1
JL-K-20K20S1,1321,experiment,102,→,right,→,0.49309570000332315,True,31,1
JL-K-20K20S1,1322,experiment,86,←,left,←,0.9093298999941908,True,31,1
JL-K-20K20S1,1323,experiment,75,↓,down,↓,0.4887784000020474,True,31,1
JL-K-20K20S1,1324,experiment,93,←,left,←,0.558937199995853,True,31,1
JL-K-20K20S1,1325,experiment,76,↑,up,↑,0.6956559999962337,True,31,1
JL-K-20K20S1,1326,experiment,79,↓,right,→,0.49000530000193976,False,31,1
JL-K-20K20S1,1327,experiment,54,↑,up,↑,0.47703619999811053,True,31,1
JL-K-20K20S1,1328,experiment,55,←,no_key,no_letter,-1.0,False,31,1
JL-K-20K20S1,1329,experiment,50,←,left,←,0.5953449999942677,True,31,1
JL-K-20K20S1,1330,experiment,64,↑,up,↑,0.6707596000051126,True,31,1
JL-K-20K20S1,1331,experiment,105,←,left,←,0.5136449999990873,True,31,1
JL-K-20K20S1,1332,experiment,77,←,left,←,0.5161179999995511,True,31,1
JL-K-20K20S1,1333,experiment,104,↓,down,↓,0.5892776999971829,True,31,1
JL-K-20K20S1,1334,experiment,74,←,left,←,0.4463136999984272,True,31,1
JL-K-20K20S1,1335,experiment,58,←,down,↓,0.5611892999877455,False,31,1
JL-K-20K20S1,1336,experiment,61,←,left,←,0.40052559999458026,True,31,1
JL-K-20K20S1,1337,experiment,92,→,no_key,no_letter,-1.0,False,31,0
JL-K-20K20S1,1338,experiment,85,→,right,→,0.576319700005115,True,31,1
JL-K-20K20S1,1339,experiment,106,→,right,→,0.5668421000009403,True,31,1
JL-K-20K20S1,1340,experiment,78,↓,down,↓,0.534753300002194,True,31,1
JL-K-20K20S1,1341,experiment,91,↑,up,↑,0.47560710000107065,True,31,1
JL-K-20K20S1,1342,experiment,87,↑,up,↑,0.5082576999993762,True,31,1
JL-K-20K20S1,1343,experiment,51,↑,up,↑,0.5117444000061369,True,31,1
JL-K-20K20S1,1344,experiment,99,↓,down,↓,0.5786690000095405,True,31,1
JL-K-20K20S1,1345,experiment,72,↓,down,↓,0.5882906000042567,True,31,1
JL-K-20K20S1,1346,experiment,60,→,right,→,0.48927840001124423,True,31,1
JL-K-20K20S1,1347,experiment,108,↓,down,↓,0.5703920999949332,True,31,1
JL-K-20K20S1,1348,experiment,97,↓,down,↓,0.5399430999968899,True,31,1
JL-K-20K20S1,1349,experiment,52,↑,down,↓,0.5653724000003422,False,31,1
JL-K-20K20S1,1350,experiment,62,←,left,←,0.45874990000447724,True,31,1
JL-K-20K20S1,1351,experiment,83,↑,down,↓,0.5413157000002684,False,31,1
JL-K-20K20S1,1352,experiment,107,↑,no_key,no_letter,-1.0,False,31,1
JL-K-20K20S1,1353,experiment,103,→,right,→,0.5184246000135317,True,31,1
JL-K-20K20S1,1354,experiment,100,→,right,→,0.6012289000063902,True,31,1
JL-K-20K20S1,1355,experiment,65,→,right,→,0.47600940000847913,True,31,1
JL-K-20K20S1,1356,experiment,71,→,right,→,0.5859441000065999,True,31,1
JL-K-20K20S1,1357,experiment,88,↑,down,↓,0.5659791000070982,False,31,1
JL-K-20K20S1,1358,experiment,81,↓,down,↓,0.43721680001181085,True,31,1
JL-K-20K20S1,1359,experiment,96,↑,up,↑,0.515979600007995,True,31,1
JL-K-20K20S1,1360,experiment,98,↑,no_key,no_letter,-1.0,False,31,1
JL-K-20K20S1,1361,experiment,101,←,right,→,0.7536836000072071,False,31,1
JL-K-20K20S1,1362,experiment,67,↑,down,↓,1.3979219999891939,False,31,1
JL-K-20K20S1,1363,experiment,53,→,left,←,0.5811426999862306,False,31,1
JL-K-20K20S1,1364,training,68,↑,up,↑,0.6356665000057546,True,31,0
JL-K-20K20S1,1365,training,71,→,right,→,0.6036307000031229,True,31,1
JL-K-20K20S1,1366,experiment,93,←,left,←,0.4295008000044618,True,31,1
JL-K-20K20S1,1367,experiment,65,↓,down,↓,0.494369199994253,True,31,1
JL-K-20K20S1,1368,experiment,56,↓,down,↓,0.6087507999909576,True,31,1
JL-K-20K20S1,1369,experiment,84,↓,down,↓,0.6689029000117444,True,31,1
JL-K-20K20S1,1370,experiment,80,↓,down,↓,0.7363812999974471,True,31,1
JL-K-20K20S1,1371,experiment,77,→,right,→,0.7538641999999527,True,31,1
JL-K-20K20S1,1372,experiment,85,↑,down,↓,0.6559010000055423,False,31,1
JL-K-20K20S1,1373,experiment,98,←,left,←,0.6456365999911213,True,31,1
JL-K-20K20S1,1374,experiment,91,↑,left,←,0.5980599999893457,False,31,1
JL-K-20K20S1,1375,experiment,100,↓,down,↓,0.557194699998945,True,31,1
JL-K-20K20S1,1376,experiment,107,←,right,→,0.620017099994584,False,31,1
JL-K-20K20S1,1377,experiment,57,↑,up,↑,0.4334770999994362,True,31,1
JL-K-20K20S1,1378,experiment,101,↓,up,↑,0.8224224000005051,False,31,1
JL-K-20K20S1,1379,experiment,86,↑,up,↑,0.5211333000042941,True,31,1
JL-K-20K20S1,1380,experiment,89,←,down,↓,0.910817700001644,False,31,1
JL-K-20K20S1,1381,experiment,55,↓,right,→,0.665447999999742,False,31,1
JL-K-20K20S1,1382,experiment,92,↑,up,↑,0.680725899990648,True,31,1
JL-K-20K20S1,1383,experiment,48,↓,down,↓,0.7578510000021197,True,31,1
JL-K-20K20S1,1384,experiment,104,→,right,→,0.501755300007062,True,31,1
JL-K-20K20S1,1385,experiment,90,↑,up,↑,0.48434380000981037,True,31,1
JL-K-20K20S1,1386,experiment,105,↑,up,↑,0.47069219998957124,True,31,1
JL-K-20K20S1,1387,experiment,102,←,right,→,0.6662323000055039,False,31,1
JL-K-20K20S1,1388,experiment,76,↓,down,↓,0.5108367999928305,True,31,1
JL-K-20K20S1,1389,experiment,108,←,left,←,0.4791739999927813,True,31,1
JL-K-20K20S1,1390,experiment,69,←,left,←,0.5578980999998748,True,31,1
JL-K-20K20S1,1391,experiment,61,↓,down,↓,0.5154765000042971,True,31,1
JL-K-20K20S1,1392,experiment,52,↓,down,↓,0.638200000001234,True,31,1
JL-K-20K20S1,1393,experiment,88,↑,left,←,0.8638360999902943,False,31,1
JL-K-20K20S1,1394,experiment,83,↑,up,↑,0.5221638000075473,True,31,1
JL-K-20K20S1,1395,experiment,70,↓,left,←,0.8308514000091236,False,31,1
JL-K-20K20S1,1396,experiment,53,↓,down,↓,0.6360552000114694,True,31,1
JL-K-20K20S1,1397,experiment,58,↓,down,↓,0.5999861000018427,True,31,1
JL-K-20K20S1,1398,experiment,51,↑,right,→,0.6637158000085037,False,31,1
JL-K-20K20S1,1399,experiment,71,←,left,←,0.36745829999563284,True,31,1
JL-K-20K20S1,1400,experiment,97,↑,up,↑,0.6950794000003953,True,31,0
JL-K-20K20S1,1401,experiment,81,↓,down,↓,0.5531437000026926,True,31,1
JL-K-20K20S1,1402,experiment,73,↓,down,↓,0.5633682999905432,True,31,1
JL-K-20K20S1,1403,experiment,78,→,right,→,0.5554948000062723,True,31,1
JL-K-20K20S1,1404,experiment,66,←,left,←,0.35913240000081714,True,31,1
JL-K-20K20S1,1405,experiment,50,↓,up,↑,0.6086534000060055,False,31,0
JL-K-20K20S1,1406,experiment,54,→,right,→,0.6949582999950508,True,31,1
JL-K-20K20S1,1407,experiment,96,←,right,→,0.5799035999953048,False,31,1
JL-K-20K20S1,1408,experiment,74,←,left,←,0.4763340999925276,True,31,1
JL-K-20K20S1,1409,experiment,72,↓,down,↓,0.6820680999953765,True,31,1
JL-K-20K20S1,1410,experiment,60,→,right,→,0.44397330000356305,True,31,1
JL-K-20K20S1,1411,experiment,82,↓,down,↓,0.45480099999986123,True,31,1
JL-K-20K20S1,1412,experiment,62,↑,down,↓,0.728041199996369,False,31,1
JL-K-20K20S1,1413,experiment,63,↑,no_key,no_letter,-1.0,False,31,1
JL-K-20K20S1,1414,experiment,106,↑,down,↓,1.0396618000086164,False,31,1
JL-K-20K20S1,1415,experiment,64,↓,down,↓,0.45738179999170825,True,31,1
JL-K-20K20S1,1416,experiment,95,←,left,←,0.6640692999935709,True,31,1
JL-K-20K20S1,1417,experiment,75,→,right,→,0.5728984000015771,True,31,1
JL-K-20K20S1,1418,experiment,67,↑,up,↑,0.44838760000129696,True,31,1
JL-K-20K20S1,1419,experiment,103,→,right,→,0.5885579000023426,True,31,1
JL-K-20K20S1,1420,experiment,68,→,right,→,0.49493669999355916,True,31,1
JL-K-20K20S1,1421,experiment,59,←,left,←,0.720057700003963,True,31,1
JL-K-20K20S1,1422,experiment,99,↑,up,↑,0.47493589999794494,True,31,1
JL-K-20K20S1,1423,experiment,49,↑,up,↑,0.7602382000040961,True,31,1
