PART_ID,Trial_no,Trial_type,CSI,Stim_letter,Key_pressed,letter_choose,Rt,Corr,Stimulus Time,nDropped
JL-K-20K20S2,1,training,120,←,left,←,0.5594218999613076,True,60,1
JL-K-20K20S2,2,training,120,→,left,←,0.4109791999217123,False,60,0
JL-K-20K20S2,3,training,120,↓,down,↓,0.5597063000313938,True,60,0
JL-K-20K20S2,4,training,120,↑,up,↑,0.751645400072448,True,60,0
JL-K-20K20S2,5,training,120,←,left,←,0.9283485000487417,True,60,0
JL-K-20K20S2,6,training,120,↓,down,↓,0.6820796999381855,True,60,0
JL-K-20K20S2,7,training,120,←,left,←,0.5348426999989897,True,60,0
JL-K-20K20S2,8,training,120,↑,up,↑,0.5676342999795452,True,60,0
JL-K-20K20S2,9,training,120,→,right,→,0.55145409994293,True,60,0
JL-K-20K20S2,10,training,120,↑,no_key,no_letter,-1.0,False,60,0
JL-K-20K20S2,11,training,120,↓,down,↓,0.703746399958618,True,60,0
JL-K-20K20S2,12,training,120,→,right,→,0.6338778999634087,True,60,0
JL-K-20K20S2,13,training,120,←,left,←,0.6729807999217883,True,60,0
JL-K-20K20S2,14,training,120,←,left,←,0.6431412999518216,True,60,0
JL-K-20K20S2,15,training,120,→,right,→,0.7689627000363544,True,60,0
JL-K-20K20S2,16,training,120,←,left,←,0.4517194000072777,True,60,0
JL-K-20K20S2,17,training,120,↑,up,↑,0.7323128000134602,True,60,0
JL-K-20K20S2,18,training,120,↑,up,↑,0.6344404000556096,True,60,0
JL-K-20K20S2,19,training,120,↓,down,↓,0.7074221998918802,True,60,0
JL-K-20K20S2,20,training,120,←,left,←,0.5004502999363467,True,60,0
JL-K-20K20S2,21,no_adaptation,120,↑,up,↑,0.6609535999596119,True,36,0
JL-K-20K20S2,22,no_adaptation,120,←,left,←,0.4738523999694735,True,36,0
JL-K-20K20S2,23,no_adaptation,120,←,left,←,0.4512887999881059,True,36,0
JL-K-20K20S2,24,no_adaptation,120,→,right,→,0.5300899000139907,True,36,0
JL-K-20K20S2,25,no_adaptation,120,←,left,←,0.5478704000124708,True,36,0
JL-K-20K20S2,26,no_adaptation,120,↓,down,↓,0.7969342999858782,True,36,0
JL-K-20K20S2,27,no_adaptation,120,↑,up,↑,0.6841185999801382,True,36,0
JL-K-20K20S2,28,no_adaptation,120,↓,down,↓,0.7196822999976575,True,36,0
JL-K-20K20S2,29,no_adaptation,120,→,right,→,0.5938532000873238,True,36,0
JL-K-20K20S2,30,no_adaptation,120,↑,up,↑,0.7289878000738099,True,36,0
JL-K-20K20S2,31,no_adaptation,120,↑,up,↑,0.5627763000084087,True,36,0
JL-K-20K20S2,32,no_adaptation,120,←,left,←,0.5154425000073388,True,36,0
JL-K-20K20S2,33,no_adaptation,120,↑,up,↑,0.6618976999307051,True,36,0
JL-K-20K20S2,34,no_adaptation,120,↓,down,↓,0.4749147000256926,True,36,0
JL-K-20K20S2,35,no_adaptation,120,↓,down,↓,0.5024947000201792,True,36,0
JL-K-20K20S2,36,no_adaptation,120,←,left,←,0.545149999903515,True,36,0
JL-K-20K20S2,37,no_adaptation,120,↑,up,↑,0.5543483999790624,True,36,0
JL-K-20K20S2,38,no_adaptation,120,→,right,→,0.49937199999112636,True,36,0
JL-K-20K20S2,39,no_adaptation,120,←,left,←,0.7264456999255344,True,36,0
JL-K-20K20S2,40,no_adaptation,120,↑,right,→,0.4727925999322906,False,36,0
JL-K-20K20S2,41,training,60,→,right,→,0.6781068999553099,True,36,0
JL-K-20K20S2,42,training,70,↑,up,↑,0.8033424000022933,True,36,1
JL-K-20K20S2,43,experiment,83,↑,up,↑,0.47225559991784394,True,36,1
JL-K-20K20S2,44,experiment,65,↑,up,↑,0.4708809000439942,True,36,0
JL-K-20K20S2,45,experiment,77,↓,down,↓,0.7534761000424623,True,36,0
JL-K-20K20S2,46,experiment,100,←,left,←,0.5697203000308946,True,36,1
JL-K-20K20S2,47,experiment,82,←,left,←,0.479863699991256,True,36,1
JL-K-20K20S2,48,experiment,99,↑,up,↑,0.6348462000023574,True,36,1
JL-K-20K20S2,49,experiment,70,↓,down,↓,0.6741059001069516,True,36,1
JL-K-20K20S2,50,experiment,92,←,left,←,0.6881134000141174,True,36,1
JL-K-20K20S2,51,experiment,85,↓,down,↓,0.6477314000949264,True,36,1
JL-K-20K20S2,52,experiment,87,↓,down,↓,0.5285345000447705,True,36,1
JL-K-20K20S2,53,experiment,57,↑,up,↑,0.7518387999152765,True,36,1
JL-K-20K20S2,54,experiment,89,←,left,←,0.4428198999958113,True,36,1
JL-K-20K20S2,55,experiment,64,↑,up,↑,0.6444870000705123,True,36,0
JL-K-20K20S2,56,experiment,105,→,right,→,0.49510230007581413,True,36,1
JL-K-20K20S2,57,experiment,69,↓,down,↓,0.5560613999841735,True,36,1
JL-K-20K20S2,58,experiment,108,←,left,←,0.7535681999288499,True,36,1
JL-K-20K20S2,59,experiment,52,←,left,←,0.5215012000408024,True,36,1
JL-K-20K20S2,60,experiment,86,↓,down,↓,0.6078845000592992,True,36,1
JL-K-20K20S2,61,experiment,53,←,no_key,no_letter,-1.0,False,36,1
JL-K-20K20S2,62,experiment,101,→,right,→,0.48462110001128167,True,36,1
JL-K-20K20S2,63,experiment,73,↑,up,↑,0.6407498000189662,True,36,1
JL-K-20K20S2,64,experiment,56,→,right,→,0.724142000079155,True,36,1
JL-K-20K20S2,65,experiment,93,→,right,→,0.503669900004752,True,36,1
JL-K-20K20S2,66,experiment,61,↓,down,↓,0.6465744999004528,True,36,1
JL-K-20K20S2,67,experiment,66,↓,down,↓,0.6143862000899389,True,36,1
JL-K-20K20S2,68,experiment,51,←,left,←,0.5727527000708506,True,36,1
JL-K-20K20S2,69,experiment,62,↑,up,↑,0.5927500000689179,True,36,1
JL-K-20K20S2,70,experiment,98,→,right,→,0.38470649998635054,True,36,1
JL-K-20K20S2,71,experiment,48,←,left,←,0.5918144000461325,True,36,0
JL-K-20K20S2,72,experiment,78,↑,up,↑,0.4777937999460846,True,36,1
JL-K-20K20S2,73,experiment,94,↓,down,↓,0.6032633000286296,True,36,1
JL-K-20K20S2,74,experiment,59,←,left,←,0.5350282000144944,True,36,1
JL-K-20K20S2,75,experiment,107,←,no_key,no_letter,-1.0,False,36,1
JL-K-20K20S2,76,experiment,79,↑,up,↑,0.5322738999966532,True,36,1
JL-K-20K20S2,77,experiment,96,→,right,→,0.503032400039956,True,36,1
JL-K-20K20S2,78,experiment,84,←,left,←,0.4863874999573454,True,36,1
JL-K-20K20S2,79,experiment,88,→,right,→,0.7170847000088543,True,36,1
JL-K-20K20S2,80,experiment,91,↓,down,↓,0.7698367000557482,True,36,1
JL-K-20K20S2,81,experiment,95,↓,down,↓,0.6111963000148535,True,36,1
JL-K-20K20S2,82,experiment,75,↓,down,↓,0.5377349000191316,True,36,1
JL-K-20K20S2,83,experiment,68,↓,down,↓,0.6209531999193132,True,36,1
JL-K-20K20S2,84,experiment,72,↓,no_key,no_letter,-1.0,False,36,1
JL-K-20K20S2,85,experiment,90,↓,down,↓,0.6627766999881715,True,36,1
JL-K-20K20S2,86,experiment,97,↑,up,↑,0.7954674999928102,True,36,1
JL-K-20K20S2,87,experiment,63,←,left,←,0.6311970000388101,True,36,1
JL-K-20K20S2,88,experiment,50,↑,up,↑,0.5560506000183523,True,36,1
JL-K-20K20S2,89,experiment,104,→,right,→,0.6506906000431627,True,36,1
JL-K-20K20S2,90,experiment,71,↓,down,↓,0.6727483998984098,True,36,1
JL-K-20K20S2,91,experiment,106,↑,up,↑,0.6101222999859601,True,36,1
JL-K-20K20S2,92,experiment,103,←,left,←,0.4950925000011921,True,36,1
JL-K-20K20S2,93,experiment,74,←,left,←,0.5627310000127181,True,36,1
JL-K-20K20S2,94,experiment,55,↑,up,↑,0.4812701999908313,True,36,1
JL-K-20K20S2,95,experiment,60,→,right,→,0.5057092999340966,True,36,1
JL-K-20K20S2,96,experiment,49,←,left,←,0.7009255000157282,True,36,1
JL-K-20K20S2,97,experiment,67,↑,up,↑,0.5783301999326795,True,36,1
JL-K-20K20S2,98,experiment,54,→,right,→,0.5608811000129208,True,36,1
JL-K-20K20S2,99,experiment,76,↓,down,↓,0.6007710000267252,True,36,1
JL-K-20K20S2,100,experiment,81,→,right,→,0.5653916000155732,True,36,1
JL-K-20K20S2,101,experiment,80,↑,up,↑,0.42556880007032305,True,36,1
JL-K-20K20S2,102,experiment,102,→,right,→,0.4729657000862062,True,36,0
JL-K-20K20S2,103,experiment,58,←,left,←,0.4339355999836698,True,36,1
JL-K-20K20S2,104,training,53,↑,up,↑,0.6705051999306306,True,35,0
JL-K-20K20S2,105,training,80,←,left,←,0.6248916999902576,True,35,1
JL-K-20K20S2,106,experiment,63,↓,down,↓,0.650849899975583,True,35,1
JL-K-20K20S2,107,experiment,85,↑,up,↑,0.6439151000231504,True,35,1
JL-K-20K20S2,108,experiment,49,←,left,←,0.49765489995479584,True,35,1
JL-K-20K20S2,109,experiment,96,→,right,→,0.47766620002221316,True,35,1
JL-K-20K20S2,110,experiment,68,↓,down,↓,0.6833793000550941,True,35,1
JL-K-20K20S2,111,experiment,80,↓,down,↓,0.4767208000412211,True,35,1
JL-K-20K20S2,112,experiment,65,→,right,→,0.5000061000464484,True,35,1
JL-K-20K20S2,113,experiment,73,←,left,←,0.575436900020577,True,35,1
JL-K-20K20S2,114,experiment,64,↓,down,↓,0.5309046000475064,True,35,1
JL-K-20K20S2,115,experiment,50,↓,down,↓,0.5965229000430554,True,35,1
JL-K-20K20S2,116,experiment,81,↓,down,↓,0.5134020000696182,True,35,1
JL-K-20K20S2,117,experiment,78,←,left,←,0.5066057000076398,True,35,1
JL-K-20K20S2,118,experiment,100,→,no_key,no_letter,-1.0,False,35,1
JL-K-20K20S2,119,experiment,75,↑,up,↑,0.5643245000392199,True,35,1
JL-K-20K20S2,120,experiment,89,←,left,←,0.3928508999524638,True,35,1
JL-K-20K20S2,121,experiment,52,↑,up,↑,0.5741943999892101,True,35,1
JL-K-20K20S2,122,experiment,77,→,right,→,0.48503069998696446,True,35,1
JL-K-20K20S2,123,experiment,107,→,right,→,0.47048869996797293,True,35,1
JL-K-20K20S2,124,experiment,69,←,left,←,0.5156710000010207,True,35,1
JL-K-20K20S2,125,experiment,92,→,right,→,0.4423018000088632,True,35,1
JL-K-20K20S2,126,experiment,93,↓,down,↓,0.6387451000045985,True,35,0
JL-K-20K20S2,127,experiment,102,↓,down,↓,0.5148960000369698,True,35,1
JL-K-20K20S2,128,experiment,53,→,right,→,0.7162149000214413,True,35,1
JL-K-20K20S2,129,experiment,98,→,right,→,0.5185447999974713,True,35,1
JL-K-20K20S2,130,experiment,106,↓,down,↓,0.6141069999430329,True,35,1
JL-K-20K20S2,131,experiment,101,←,left,←,0.49166430009063333,True,35,1
JL-K-20K20S2,132,experiment,90,←,left,←,0.5460686000296846,True,35,1
JL-K-20K20S2,133,experiment,99,↓,down,↓,0.5554865000303835,True,35,1
JL-K-20K20S2,134,experiment,105,←,left,←,0.5687805000925437,True,35,1
JL-K-20K20S2,135,experiment,74,→,right,→,0.6491394999902695,True,35,1
JL-K-20K20S2,136,experiment,91,→,right,→,0.6965543000260368,True,35,1
JL-K-20K20S2,137,experiment,48,←,left,←,0.6445091998903081,True,35,1
JL-K-20K20S2,138,experiment,61,↑,up,↑,0.6141318998998031,True,35,1
JL-K-20K20S2,139,experiment,58,↑,up,↑,0.6258246999932453,True,35,1
JL-K-20K20S2,140,experiment,76,↓,down,↓,0.6792311000172049,True,35,1
JL-K-20K20S2,141,experiment,87,←,left,←,0.5344706000760198,True,35,1
JL-K-20K20S2,142,experiment,57,↑,up,↑,0.702102999901399,True,35,1
JL-K-20K20S2,143,experiment,59,↓,down,↓,0.581655399990268,True,35,1
JL-K-20K20S2,144,experiment,83,→,right,→,0.6103072999976575,True,35,1
JL-K-20K20S2,145,experiment,84,↓,down,↓,0.6457602999871597,True,35,1
JL-K-20K20S2,146,experiment,108,→,right,→,0.5114882999332622,True,35,1
JL-K-20K20S2,147,experiment,94,←,left,←,0.4914846000028774,True,35,1
JL-K-20K20S2,148,experiment,62,←,left,←,0.5150015000253916,True,35,1
JL-K-20K20S2,149,experiment,51,←,left,←,0.7090579000068828,True,35,1
JL-K-20K20S2,150,experiment,67,↑,up,↑,0.5622384999878705,True,35,1
JL-K-20K20S2,151,experiment,103,↓,down,↓,0.6012107999995351,True,35,1
JL-K-20K20S2,152,experiment,97,→,right,→,0.5682675000280142,True,35,1
JL-K-20K20S2,153,experiment,56,↓,down,↓,0.5906271999701858,True,35,1
JL-K-20K20S2,154,experiment,55,→,right,→,0.59646310005337,True,35,1
JL-K-20K20S2,155,experiment,88,←,left,←,0.6388120000483468,True,35,1
JL-K-20K20S2,156,experiment,72,←,left,←,0.40889149997383356,True,35,1
JL-K-20K20S2,157,experiment,54,↓,down,↓,0.5059559000656009,True,35,0
JL-K-20K20S2,158,experiment,95,→,right,→,0.4434216999216005,True,35,1
JL-K-20K20S2,159,experiment,70,↑,up,↑,0.5321591000538319,True,35,1
JL-K-20K20S2,160,experiment,79,←,left,←,0.39225949998945,True,35,1
JL-K-20K20S2,161,experiment,104,↑,up,↑,0.6250567999668419,True,35,0
JL-K-20K20S2,162,experiment,60,←,left,←,0.6281590000726283,True,35,1
JL-K-20K20S2,163,experiment,66,←,left,←,0.5647823000326753,True,35,1
JL-K-20K20S2,164,experiment,86,↑,up,↑,0.6249968999763951,True,35,1
JL-K-20K20S2,165,experiment,71,→,no_key,no_letter,-1.0,False,35,1
JL-K-20K20S2,166,experiment,82,↑,up,↑,0.6458651999710128,True,35,1
JL-K-20K20S2,167,training,54,→,left,←,0.48181600007228553,False,34,0
JL-K-20K20S2,168,training,48,↓,down,↓,0.6143473999109119,True,34,1
JL-K-20K20S2,169,experiment,94,↑,up,↑,0.7419708000961691,True,34,1
JL-K-20K20S2,170,experiment,76,↓,down,↓,0.6147245999891311,True,34,1
JL-K-20K20S2,171,experiment,82,←,left,←,0.6902975999983028,True,34,1
JL-K-20K20S2,172,experiment,99,↑,up,↑,0.5975095999892801,True,34,1
JL-K-20K20S2,173,experiment,79,←,left,←,0.5868004999356344,True,34,1
JL-K-20K20S2,174,experiment,88,↓,down,↓,0.5498695999849588,True,34,1
JL-K-20K20S2,175,experiment,66,↓,down,↓,0.5855772999348119,True,34,1
JL-K-20K20S2,176,experiment,78,↓,down,↓,0.6319586000172421,True,34,1
JL-K-20K20S2,177,experiment,68,→,right,→,0.4259683999698609,True,34,1
JL-K-20K20S2,178,experiment,96,↑,up,↑,0.4780958000337705,True,34,1
JL-K-20K20S2,179,experiment,81,↓,down,↓,0.5115173999220133,True,34,1
JL-K-20K20S2,180,experiment,100,→,right,→,0.47363519994542,True,34,1
JL-K-20K20S2,181,experiment,75,↑,up,↑,0.49332939996384084,True,34,1
JL-K-20K20S2,182,experiment,74,←,no_key,no_letter,-1.0,False,34,1
JL-K-20K20S2,183,experiment,106,←,no_key,no_letter,-1.0,False,34,1
JL-K-20K20S2,184,experiment,93,→,right,→,0.5855025999480858,True,34,1
JL-K-20K20S2,185,experiment,55,↓,down,↓,0.5992566000204533,True,34,1
JL-K-20K20S2,186,experiment,92,←,left,←,0.592162900022231,True,34,1
JL-K-20K20S2,187,experiment,71,←,left,←,0.5605366000672802,True,34,1
JL-K-20K20S2,188,experiment,59,←,left,←,0.40950229996815324,True,34,1
JL-K-20K20S2,189,experiment,85,↑,up,↑,0.4261271998984739,True,34,0
JL-K-20K20S2,190,experiment,104,←,left,←,0.5169101000064984,True,34,0
JL-K-20K20S2,191,experiment,107,←,left,←,0.5005955999949947,True,34,1
JL-K-20K20S2,192,experiment,91,←,left,←,0.5216009999858215,True,34,1
JL-K-20K20S2,193,experiment,53,↓,down,↓,0.5707739000208676,True,34,1
JL-K-20K20S2,194,experiment,62,↓,down,↓,0.5109707000665367,True,34,1
JL-K-20K20S2,195,experiment,60,↑,up,↑,0.6222861000569537,True,34,1
JL-K-20K20S2,196,experiment,108,→,right,→,0.7770777000114322,True,34,1
JL-K-20K20S2,197,experiment,48,↓,up,↑,0.9776367000304163,False,34,1
JL-K-20K20S2,198,experiment,50,→,right,→,0.6976214000023901,True,34,1
JL-K-20K20S2,199,experiment,63,←,left,←,0.5844283000333235,True,34,1
JL-K-20K20S2,200,experiment,64,→,right,→,0.6275925999507308,True,34,1
JL-K-20K20S2,201,experiment,52,↑,up,↑,0.5448650999460369,True,34,1
JL-K-20K20S2,202,experiment,49,→,right,→,0.7547499000793323,True,34,1
JL-K-20K20S2,203,experiment,97,↑,up,↑,0.49155479995533824,True,34,1
JL-K-20K20S2,204,experiment,90,↓,down,↓,0.6099602999165654,True,34,1
JL-K-20K20S2,205,experiment,87,↑,up,↑,0.6762110999552533,True,34,1
JL-K-20K20S2,206,experiment,83,→,right,→,0.46128659998066723,True,34,1
JL-K-20K20S2,207,experiment,67,↑,up,↑,0.4917660999344662,True,34,1
JL-K-20K20S2,208,experiment,80,←,left,←,0.5574517999775708,True,34,1
JL-K-20K20S2,209,experiment,57,←,no_key,no_letter,-1.0,False,34,1
JL-K-20K20S2,210,experiment,54,↓,down,↓,0.6834597999695688,True,34,1
JL-K-20K20S2,211,experiment,73,↑,up,↑,0.6394770999904722,True,34,1
JL-K-20K20S2,212,experiment,103,↑,up,↑,0.4990783999674022,True,34,1
JL-K-20K20S2,213,experiment,58,→,right,→,0.4525200999341905,True,34,1
JL-K-20K20S2,214,experiment,72,→,right,→,0.6329138999572024,True,34,0
JL-K-20K20S2,215,experiment,65,↑,no_key,no_letter,-1.0,False,34,1
JL-K-20K20S2,216,experiment,69,←,left,←,0.6042206999845803,True,34,1
JL-K-20K20S2,217,experiment,105,←,no_key,no_letter,-1.0,False,34,1
JL-K-20K20S2,218,experiment,101,↑,up,↑,0.512693400029093,True,34,1
JL-K-20K20S2,219,experiment,102,↑,no_key,no_letter,-1.0,False,34,1
JL-K-20K20S2,220,experiment,56,↓,down,↓,0.46492629998829216,True,34,1
JL-K-20K20S2,221,experiment,77,←,left,←,0.572349900030531,True,34,1
JL-K-20K20S2,222,experiment,95,↓,down,↓,0.5175389000214636,True,34,1
JL-K-20K20S2,223,experiment,70,↓,down,↓,0.4890468999510631,True,34,1
JL-K-20K20S2,224,experiment,89,→,right,→,0.7358262999914587,True,34,1
JL-K-20K20S2,225,experiment,51,→,right,→,0.4889820000389591,True,34,1
JL-K-20K20S2,226,experiment,86,↓,down,↓,0.6163375000469387,True,34,1
JL-K-20K20S2,227,experiment,61,→,right,→,0.6829841999569908,True,34,1
JL-K-20K20S2,228,experiment,84,↑,up,↑,0.6356261000037193,True,34,1
JL-K-20K20S2,229,experiment,98,→,right,→,0.49700529989786446,True,34,1
JL-K-20K20S2,230,training,106,↑,up,↑,0.6812737000873312,True,34,0
JL-K-20K20S2,231,training,105,←,left,←,0.6186897000297904,True,34,1
JL-K-20K20S2,232,experiment,53,→,right,→,0.4565601999638602,True,34,1
JL-K-20K20S2,233,experiment,105,←,left,←,0.49010689998976886,True,34,1
JL-K-20K20S2,234,experiment,94,→,right,→,0.6869896999560297,True,34,1
JL-K-20K20S2,235,experiment,99,→,right,→,0.4822421999415383,True,34,1
JL-K-20K20S2,236,experiment,59,←,no_key,no_letter,-1.0,False,34,1
JL-K-20K20S2,237,experiment,71,↓,down,↓,0.5730442999629304,True,34,1
JL-K-20K20S2,238,experiment,83,↑,up,↑,0.5138704000273719,True,34,1
JL-K-20K20S2,239,experiment,77,←,left,←,0.611695499974303,True,34,1
JL-K-20K20S2,240,experiment,52,→,right,→,0.4259421000024304,True,34,1
JL-K-20K20S2,241,experiment,101,↑,up,↑,0.7180103999562562,True,34,0
JL-K-20K20S2,242,experiment,96,↑,up,↑,0.5931927999481559,True,34,1
JL-K-20K20S2,243,experiment,80,↓,down,↓,0.5665604999521747,True,34,1
JL-K-20K20S2,244,experiment,107,→,left,←,0.6678872000193223,False,34,1
JL-K-20K20S2,245,experiment,66,→,right,→,0.5229077999247238,True,34,1
JL-K-20K20S2,246,experiment,57,↓,down,↓,0.4747480000369251,True,34,1
JL-K-20K20S2,247,experiment,104,←,left,←,0.5249956001061946,True,34,1
JL-K-20K20S2,248,experiment,81,←,left,←,0.5645686000352725,True,34,1
JL-K-20K20S2,249,experiment,60,↑,up,↑,0.5376013000495732,True,34,1
JL-K-20K20S2,250,experiment,61,↑,up,↑,0.7200285000726581,True,34,1
JL-K-20K20S2,251,experiment,55,←,left,←,0.5518910998944193,True,34,1
JL-K-20K20S2,252,experiment,103,↑,up,↑,0.4566134000197053,True,34,1
JL-K-20K20S2,253,experiment,70,↓,down,↓,0.6374999999534339,True,34,1
JL-K-20K20S2,254,experiment,51,←,left,←,0.42770529992412776,True,34,1
JL-K-20K20S2,255,experiment,88,↑,up,↑,0.6114391000010073,True,34,0
JL-K-20K20S2,256,experiment,108,↓,down,↓,0.5828509000129998,True,34,1
JL-K-20K20S2,257,experiment,72,→,right,→,0.5110780999530107,True,34,1
JL-K-20K20S2,258,experiment,100,↓,down,↓,0.5692043999442831,True,34,1
JL-K-20K20S2,259,experiment,69,↓,down,↓,0.5392645000247285,True,34,1
JL-K-20K20S2,260,experiment,98,→,right,→,0.6285956000210717,True,34,1
JL-K-20K20S2,261,experiment,95,←,left,←,0.6116744000464678,True,34,1
JL-K-20K20S2,262,experiment,86,→,right,→,0.4864130999194458,True,34,1
JL-K-20K20S2,263,experiment,62,→,right,→,0.46192839997820556,True,34,1
JL-K-20K20S2,264,experiment,64,↓,down,↓,0.5335402999771759,True,34,1
JL-K-20K20S2,265,experiment,63,←,left,←,0.5230202000821009,True,34,1
JL-K-20K20S2,266,experiment,76,→,right,→,0.5483986999606714,True,34,1
JL-K-20K20S2,267,experiment,68,←,left,←,0.663429900072515,True,34,1
JL-K-20K20S2,268,experiment,102,↑,up,↑,0.59455119993072,True,34,1
JL-K-20K20S2,269,experiment,75,↑,up,↑,0.49760430003516376,True,34,1
JL-K-20K20S2,270,experiment,78,↓,down,↓,0.4674220000160858,True,34,1
JL-K-20K20S2,271,experiment,91,↑,up,↑,0.5060976000968367,True,34,1
JL-K-20K20S2,272,experiment,82,↑,up,↑,0.7141465999884531,True,34,1
JL-K-20K20S2,273,experiment,58,↓,down,↓,0.6817952999845147,True,34,1
JL-K-20K20S2,274,experiment,73,↓,down,↓,0.6618709999602288,True,34,1
JL-K-20K20S2,275,experiment,50,→,right,→,0.6182081999722868,True,34,1
JL-K-20K20S2,276,experiment,56,↓,down,↓,0.49470779998227954,True,34,1
JL-K-20K20S2,277,experiment,87,→,right,→,0.581625199993141,True,34,1
JL-K-20K20S2,278,experiment,93,↓,down,↓,0.5271322999615222,True,34,1
JL-K-20K20S2,279,experiment,92,↓,down,↓,0.507131600053981,True,34,1
JL-K-20K20S2,280,experiment,84,↓,down,↓,0.5625564999645576,True,34,1
JL-K-20K20S2,281,experiment,90,←,no_key,no_letter,-1.0,False,34,1
JL-K-20K20S2,282,experiment,54,↓,down,↓,0.5012450999347493,True,34,1
JL-K-20K20S2,283,experiment,74,←,left,←,1.216305600013584,True,34,1
JL-K-20K20S2,284,experiment,106,↓,down,↓,0.547793100005947,True,34,1
JL-K-20K20S2,285,experiment,48,↓,down,↓,0.5097714000148699,True,34,1
JL-K-20K20S2,286,experiment,85,→,right,→,0.5807086999993771,True,34,1
JL-K-20K20S2,287,experiment,89,→,right,→,0.5274911999003962,True,34,1
JL-K-20K20S2,288,experiment,79,↑,up,↑,0.5597444999730214,True,34,1
JL-K-20K20S2,289,experiment,67,←,left,←,0.4828249999554828,True,34,1
JL-K-20K20S2,290,experiment,49,←,left,←,0.5189025000436231,True,34,1
JL-K-20K20S2,291,experiment,97,←,left,←,0.5937577999429777,True,34,1
JL-K-20K20S2,292,experiment,65,↑,up,↑,0.6603059000335634,True,34,1
JL-K-20K20S2,293,training,106,↓,down,↓,0.6229286999441683,True,33,0
JL-K-20K20S2,294,training,58,←,left,←,0.6023049000650644,True,33,1
JL-K-20K20S2,295,experiment,101,↓,down,↓,0.6323043999727815,True,33,1
JL-K-20K20S2,296,experiment,75,↑,up,↑,0.45415450003929436,True,33,1
JL-K-20K20S2,297,experiment,77,→,right,→,0.44981030002236366,True,33,1
JL-K-20K20S2,298,experiment,81,↑,up,↑,0.6762534000445157,True,33,1
JL-K-20K20S2,299,experiment,83,→,right,→,0.42632359999697655,True,33,1
JL-K-20K20S2,300,experiment,97,↑,up,↑,0.44399030006024987,True,33,1
JL-K-20K20S2,301,experiment,96,↓,down,↓,0.6330338000552729,True,33,0
JL-K-20K20S2,302,experiment,86,↓,down,↓,0.5546468000393361,True,33,1
JL-K-20K20S2,303,experiment,80,→,right,→,0.5775460998993367,True,33,1
JL-K-20K20S2,304,experiment,91,→,right,→,0.6199871000135317,True,33,1
JL-K-20K20S2,305,experiment,56,↓,down,↓,0.5039443999994546,True,33,1
JL-K-20K20S2,306,experiment,66,→,no_key,no_letter,-1.0,False,33,1
JL-K-20K20S2,307,experiment,78,←,left,←,0.7093074999283999,True,33,1
JL-K-20K20S2,308,experiment,89,←,no_key,no_letter,-1.0,False,33,1
JL-K-20K20S2,309,experiment,60,↑,up,↑,0.5929734000237659,True,33,1
JL-K-20K20S2,310,experiment,68,↓,down,↓,1.010208599967882,True,33,1
JL-K-20K20S2,311,experiment,55,↑,up,↑,0.5750001000706106,True,33,1
JL-K-20K20S2,312,experiment,104,←,left,←,0.6210365000879392,True,33,1
JL-K-20K20S2,313,experiment,69,→,right,→,0.453386600012891,True,33,1
JL-K-20K20S2,314,experiment,90,↑,up,↑,0.4759961999952793,True,33,1
JL-K-20K20S2,315,experiment,102,↓,down,↓,0.6707600000081584,True,33,1
JL-K-20K20S2,316,experiment,95,↑,up,↑,0.5078451000154018,True,33,1
JL-K-20K20S2,317,experiment,103,↑,up,↑,0.4687900999560952,True,33,1
JL-K-20K20S2,318,experiment,73,↑,up,↑,0.5536250000586733,True,33,1
JL-K-20K20S2,319,experiment,100,↑,up,↑,0.46600670006591827,True,33,1
JL-K-20K20S2,320,experiment,74,↓,down,↓,0.4864069999894127,True,33,1
JL-K-20K20S2,321,experiment,107,↑,up,↑,0.49514749995432794,True,33,1
JL-K-20K20S2,322,experiment,108,↓,down,↓,0.6232968000695109,True,33,1
JL-K-20K20S2,323,experiment,84,←,left,←,0.593963099992834,True,33,1
JL-K-20K20S2,324,experiment,99,→,right,→,0.7209041999885812,True,33,1
JL-K-20K20S2,325,experiment,87,→,right,→,0.6229246000293642,True,33,1
JL-K-20K20S2,326,experiment,79,→,right,→,0.4261097999988124,True,33,1
JL-K-20K20S2,327,experiment,59,←,left,←,0.5582217000192031,True,33,1
JL-K-20K20S2,328,experiment,64,←,left,←,0.5462821999099106,True,33,1
JL-K-20K20S2,329,experiment,106,↓,down,↓,0.6405318999895826,True,33,1
JL-K-20K20S2,330,experiment,65,↑,up,↑,0.472942000022158,True,33,1
JL-K-20K20S2,331,experiment,48,←,left,←,0.653638800024055,True,33,1
JL-K-20K20S2,332,experiment,67,→,right,→,0.5327772999880835,True,33,1
JL-K-20K20S2,333,experiment,51,←,left,←,0.6142812999896705,True,33,1
JL-K-20K20S2,334,experiment,92,→,right,→,0.6146827000193298,True,33,1
JL-K-20K20S2,335,experiment,94,↓,down,↓,0.5422885000007227,True,33,1
JL-K-20K20S2,336,experiment,93,→,right,→,0.46544790000189096,True,33,1
JL-K-20K20S2,337,experiment,63,↓,down,↓,0.48950680007692426,True,33,1
JL-K-20K20S2,338,experiment,54,↓,down,↓,0.4914324999554083,True,33,1
JL-K-20K20S2,339,experiment,82,←,left,←,0.5723910999950022,True,33,1
JL-K-20K20S2,340,experiment,70,→,right,→,0.6776680999901146,True,33,1
JL-K-20K20S2,341,experiment,72,←,left,←,0.7060037999181077,True,33,1
JL-K-20K20S2,342,experiment,58,↑,up,↑,0.7542188999941573,True,33,1
JL-K-20K20S2,343,experiment,105,↓,down,↓,0.4805607000598684,True,33,1
JL-K-20K20S2,344,experiment,53,→,right,→,0.5072358000325039,True,33,1
JL-K-20K20S2,345,experiment,88,←,left,←,0.5054146000184119,True,33,1
JL-K-20K20S2,346,experiment,71,→,right,→,0.4260794000001624,True,33,1
JL-K-20K20S2,347,experiment,85,←,left,←,0.47921899997163564,True,33,1
JL-K-20K20S2,348,experiment,52,←,left,←,0.6508096000179648,True,33,1
JL-K-20K20S2,349,experiment,50,↓,down,↓,0.6957077999832109,True,33,1
JL-K-20K20S2,350,experiment,98,→,left,←,0.7387633000034839,False,33,1
JL-K-20K20S2,351,experiment,76,↓,down,↓,0.49152819998562336,True,33,1
JL-K-20K20S2,352,experiment,62,↑,up,↑,0.6269100999925286,True,33,1
JL-K-20K20S2,353,experiment,61,←,left,←,0.5410015999805182,True,33,1
JL-K-20K20S2,354,experiment,49,←,left,←,0.574531799997203,True,33,1
JL-K-20K20S2,355,experiment,57,↑,up,↑,0.6763338999589905,True,33,1
JL-K-20K20S2,356,training,97,↓,down,↓,1.1326253999723122,True,32,0
JL-K-20K20S2,357,training,81,←,left,←,0.4364116000942886,True,32,1
JL-K-20K20S2,358,experiment,55,↑,up,↑,0.6157261000480503,True,32,0
JL-K-20K20S2,359,experiment,108,←,left,←,0.5467977999942377,True,32,1
JL-K-20K20S2,360,experiment,91,→,right,→,0.5102024000370875,True,32,1
JL-K-20K20S2,361,experiment,59,↓,down,↓,0.6058084999676794,True,32,1
JL-K-20K20S2,362,experiment,67,←,left,←,0.4550481999758631,True,32,1
JL-K-20K20S2,363,experiment,53,↑,up,↑,0.7149254999822006,True,32,1
JL-K-20K20S2,364,experiment,88,↓,down,↓,0.4802535999333486,True,32,1
JL-K-20K20S2,365,experiment,87,↓,down,↓,0.5037335999077186,True,32,1
JL-K-20K20S2,366,experiment,71,←,left,←,0.49153220001608133,True,32,1
JL-K-20K20S2,367,experiment,102,↓,down,↓,0.5655569999944419,True,32,1
JL-K-20K20S2,368,experiment,105,→,right,→,0.6276352000422776,True,32,1
JL-K-20K20S2,369,experiment,95,↑,up,↑,0.5225764999631792,True,32,1
JL-K-20K20S2,370,experiment,64,↑,up,↑,0.5039244999643415,True,32,1
JL-K-20K20S2,371,experiment,52,←,left,←,0.4424149999395013,True,32,1
JL-K-20K20S2,372,experiment,97,→,right,→,0.5194581999676302,True,32,1
JL-K-20K20S2,373,experiment,85,←,no_key,no_letter,-1.0,False,32,1
JL-K-20K20S2,374,experiment,62,↑,up,↑,0.49974829994607717,True,32,1
JL-K-20K20S2,375,experiment,86,←,left,←,0.5950026999926195,True,32,1
JL-K-20K20S2,376,experiment,74,→,right,→,0.7783101999666542,True,32,1
JL-K-20K20S2,377,experiment,49,←,no_key,no_letter,-1.0,False,32,1
JL-K-20K20S2,378,experiment,60,↓,down,↓,0.6965673000086099,True,32,1
JL-K-20K20S2,379,experiment,51,→,right,→,0.619425900047645,True,32,1
JL-K-20K20S2,380,experiment,81,→,right,→,0.6072371000191197,True,32,1
JL-K-20K20S2,381,experiment,101,↑,up,↑,0.5893458999926224,True,32,1
JL-K-20K20S2,382,experiment,92,→,right,→,0.7424047000240535,True,32,1
JL-K-20K20S2,383,experiment,90,←,left,←,0.4668971999781206,True,32,1
JL-K-20K20S2,384,experiment,58,←,left,←,0.676339800003916,True,32,1
JL-K-20K20S2,385,experiment,83,↑,up,↑,0.6773052000207826,True,32,1
JL-K-20K20S2,386,experiment,78,→,right,→,0.45579060004092753,True,32,1
JL-K-20K20S2,387,experiment,72,↑,up,↑,0.7256402999628335,True,32,1
JL-K-20K20S2,388,experiment,84,→,right,→,0.44432669994421303,True,32,1
JL-K-20K20S2,389,experiment,66,→,right,→,0.5155724000651389,True,32,1
JL-K-20K20S2,390,experiment,75,←,left,←,0.5576374999945983,True,32,1
JL-K-20K20S2,391,experiment,76,↑,up,↑,0.493674699915573,True,32,1
JL-K-20K20S2,392,experiment,99,←,left,←,0.7130235999356955,True,32,1
JL-K-20K20S2,393,experiment,48,↓,down,↓,0.7798539000796154,True,32,1
JL-K-20K20S2,394,experiment,73,←,left,←,0.5877312000375241,True,32,1
JL-K-20K20S2,395,experiment,89,↓,down,↓,0.5981951999710873,True,32,1
JL-K-20K20S2,396,experiment,104,↓,down,↓,0.5315992999821901,True,32,1
JL-K-20K20S2,397,experiment,65,→,right,→,0.504187099984847,True,32,1
JL-K-20K20S2,398,experiment,63,↑,up,↑,0.6784265000605956,True,32,1
JL-K-20K20S2,399,experiment,94,↓,down,↓,0.45160110003780574,True,32,1
JL-K-20K20S2,400,experiment,96,→,right,→,0.6495992999989539,True,32,1
JL-K-20K20S2,401,experiment,77,←,left,←,0.4011662999400869,True,32,1
JL-K-20K20S2,402,experiment,69,↑,up,↑,0.5656884999480098,True,32,1
JL-K-20K20S2,403,experiment,100,↑,up,↑,0.6777532999403775,True,32,1
JL-K-20K20S2,404,experiment,107,↑,up,↑,0.7986225999193266,True,32,1
JL-K-20K20S2,405,experiment,106,↓,down,↓,0.4826628000009805,True,32,1
JL-K-20K20S2,406,experiment,79,←,left,←,0.7409563000546768,True,32,1
JL-K-20K20S2,407,experiment,70,→,right,→,0.711526499944739,True,32,1
JL-K-20K20S2,408,experiment,93,←,left,←,0.6114016999490559,True,32,1
JL-K-20K20S2,409,experiment,56,←,left,←,0.7123798999236897,True,32,1
JL-K-20K20S2,410,experiment,50,↓,down,↓,0.6028398999478668,True,32,1
JL-K-20K20S2,411,experiment,61,→,right,→,0.4697504999348894,True,32,1
JL-K-20K20S2,412,experiment,98,→,right,→,0.48201180004980415,True,32,1
JL-K-20K20S2,413,experiment,80,↓,down,↓,0.5078383999643847,True,32,1
JL-K-20K20S2,414,experiment,68,↓,down,↓,0.6567131000338122,True,32,1
JL-K-20K20S2,415,experiment,82,↓,down,↓,0.5789422000525519,True,32,1
JL-K-20K20S2,416,experiment,54,←,left,←,0.6971444999799132,True,32,1
JL-K-20K20S2,417,experiment,103,↑,up,↑,0.6265292000025511,True,32,1
JL-K-20K20S2,418,experiment,57,↑,down,↓,0.726135200005956,False,32,1
JL-K-20K20S2,419,training,83,↓,down,↓,0.4868506999919191,True,31,0
JL-K-20K20S2,420,training,58,→,right,→,0.5674948999658227,True,31,1
JL-K-20K20S2,421,experiment,64,↑,up,↑,0.4357412999961525,True,31,1
JL-K-20K20S2,422,experiment,99,↓,up,↑,0.7922258999897167,False,31,1
JL-K-20K20S2,423,experiment,74,←,left,←,0.4477824999485165,True,31,1
JL-K-20K20S2,424,experiment,108,↑,up,↑,0.6573703999165446,True,31,1
JL-K-20K20S2,425,experiment,94,→,right,→,0.5434301999630406,True,31,1
JL-K-20K20S2,426,experiment,71,↓,down,↓,0.49754309991840273,True,31,1
JL-K-20K20S2,427,experiment,102,←,left,←,0.5792073999764398,True,31,1
JL-K-20K20S2,428,experiment,72,→,right,→,0.683382699964568,True,31,1
JL-K-20K20S2,429,experiment,80,←,left,←,0.5171452999347821,True,31,1
JL-K-20K20S2,430,experiment,54,←,left,←,0.408732800045982,True,31,1
JL-K-20K20S2,431,experiment,77,↓,down,↓,0.8356451999861747,True,31,0
JL-K-20K20S2,432,experiment,103,→,right,→,0.43947759992443025,True,31,1
JL-K-20K20S2,433,experiment,70,→,left,←,0.7422456999775022,False,31,1
JL-K-20K20S2,434,experiment,63,↑,up,↑,0.5154253999935463,True,31,1
JL-K-20K20S2,435,experiment,50,←,left,←,0.5020273000700399,True,31,1
JL-K-20K20S2,436,experiment,69,→,right,→,0.6584992000134662,True,31,1
JL-K-20K20S2,437,experiment,106,↑,up,↑,0.8123714999528602,True,31,1
JL-K-20K20S2,438,experiment,65,→,right,→,0.4937365000369027,True,31,1
JL-K-20K20S2,439,experiment,86,↑,up,↑,0.7331751000601798,True,31,1
JL-K-20K20S2,440,experiment,73,←,left,←,0.8874343000352383,True,31,1
JL-K-20K20S2,441,experiment,91,↑,up,↑,0.5249073000159115,True,31,1
JL-K-20K20S2,442,experiment,62,→,right,→,0.48308959999121726,True,31,1
JL-K-20K20S2,443,experiment,57,↑,up,↑,0.6766427999828011,True,31,1
JL-K-20K20S2,444,experiment,52,→,right,→,0.4480579999508336,True,31,1
JL-K-20K20S2,445,experiment,56,↑,up,↑,0.6908770999871194,True,31,1
JL-K-20K20S2,446,experiment,67,↑,up,↑,0.5845942000159994,True,31,1
JL-K-20K20S2,447,experiment,107,↓,down,↓,0.6773199999006465,True,31,1
JL-K-20K20S2,448,experiment,96,↓,down,↓,0.6261660000309348,True,31,1
JL-K-20K20S2,449,experiment,82,→,right,→,0.5015419999836013,True,31,1
JL-K-20K20S2,450,experiment,85,←,left,←,0.4848914999747649,True,31,1
JL-K-20K20S2,451,experiment,78,↑,down,↓,0.6313622000161558,False,31,1
JL-K-20K20S2,452,experiment,60,↓,down,↓,0.64980320003815,True,31,1
JL-K-20K20S2,453,experiment,75,→,right,→,0.6545230000047013,True,31,1
JL-K-20K20S2,454,experiment,51,→,left,←,0.7232115999795496,False,31,1
JL-K-20K20S2,455,experiment,68,→,right,→,0.7992468000156805,True,31,1
JL-K-20K20S2,456,experiment,97,→,right,→,0.5187341999262571,True,31,1
JL-K-20K20S2,457,experiment,81,↓,down,↓,0.5827412999933586,True,31,1
JL-K-20K20S2,458,experiment,66,←,left,←,0.5770406000083312,True,31,1
JL-K-20K20S2,459,experiment,89,→,right,→,0.6198425999609753,True,31,1
JL-K-20K20S2,460,experiment,59,↑,up,↑,0.6872977999737486,True,31,1
JL-K-20K20S2,461,experiment,95,↓,down,↓,0.4916100000264123,True,31,1
JL-K-20K20S2,462,experiment,92,→,right,→,0.4970732999499887,True,31,1
JL-K-20K20S2,463,experiment,76,↑,down,↓,0.6673318999819458,False,31,1
JL-K-20K20S2,464,experiment,88,←,left,←,0.5470962999388576,True,31,1
JL-K-20K20S2,465,experiment,84,←,left,←,0.44884879991877824,True,31,1
JL-K-20K20S2,466,experiment,104,↑,up,↑,0.787944299983792,True,31,1
JL-K-20K20S2,467,experiment,105,↑,up,↑,0.7771212999941781,True,31,1
JL-K-20K20S2,468,experiment,100,←,left,←,0.5200979999499395,True,31,1
JL-K-20K20S2,469,experiment,87,↑,up,↑,0.7258944000350311,True,31,1
JL-K-20K20S2,470,experiment,90,←,left,←,0.49877960002049804,True,31,1
JL-K-20K20S2,471,experiment,49,↓,down,↓,0.7419838999630883,True,31,1
JL-K-20K20S2,472,experiment,55,↓,down,↓,0.6698219999670982,True,31,1
JL-K-20K20S2,473,experiment,98,↑,up,↑,0.674314699950628,True,31,1
JL-K-20K20S2,474,experiment,61,↑,up,↑,0.6107381000183523,True,31,1
JL-K-20K20S2,475,experiment,101,↑,up,↑,0.5280744000338018,True,31,1
JL-K-20K20S2,476,experiment,58,←,left,←,0.5355737999780104,True,31,1
JL-K-20K20S2,477,experiment,79,←,left,←,0.6715968999778852,True,31,1
JL-K-20K20S2,478,experiment,48,↓,down,↓,0.524476999999024,True,31,1
JL-K-20K20S2,479,experiment,93,→,right,→,0.504293299978599,True,31,1
JL-K-20K20S2,480,experiment,53,→,left,←,0.7780836999882013,False,31,1
JL-K-20K20S2,481,experiment,83,←,left,←,0.431088300072588,True,31,1
JL-K-20K20S2,482,training,84,→,right,→,0.46723830001428723,True,30,0
JL-K-20K20S2,483,training,66,←,no_key,no_letter,-1.0,False,30,1
JL-K-20K20S2,484,experiment,52,→,right,→,0.4598244000226259,True,30,1
JL-K-20K20S2,485,experiment,89,↓,down,↓,0.627732599969022,True,30,1
JL-K-20K20S2,486,experiment,75,→,left,←,0.7210449000122026,False,30,1
JL-K-20K20S2,487,experiment,96,↑,up,↑,0.7957602000096813,True,30,1
JL-K-20K20S2,488,experiment,59,↓,down,↓,0.623865699977614,True,30,1
JL-K-20K20S2,489,experiment,82,↑,down,↓,1.3790841998998076,False,30,1
JL-K-20K20S2,490,experiment,69,←,right,→,0.5163264999864623,False,30,1
JL-K-20K20S2,491,experiment,101,←,left,←,0.39270700002089143,True,30,1
JL-K-20K20S2,492,experiment,86,↑,up,↑,0.7367965000448748,True,30,0
JL-K-20K20S2,493,experiment,55,←,left,←,0.5208823999855667,True,30,1
JL-K-20K20S2,494,experiment,49,↓,down,↓,0.5154971999581903,True,30,1
JL-K-20K20S2,495,experiment,102,↓,down,↓,0.5402717998949811,True,30,1
JL-K-20K20S2,496,experiment,54,↑,up,↑,0.5724853000137955,True,30,1
JL-K-20K20S2,497,experiment,62,↓,down,↓,0.4725643000565469,True,30,1
JL-K-20K20S2,498,experiment,108,↑,up,↑,1.2652981999563053,True,30,1
JL-K-20K20S2,499,experiment,73,↑,up,↑,0.6379204998956993,True,30,1
JL-K-20K20S2,500,experiment,72,↑,up,↑,0.7007970999693498,True,30,1
JL-K-20K20S2,501,experiment,57,↑,up,↑,0.7649839000077918,True,30,1
JL-K-20K20S2,502,experiment,92,↓,down,↓,0.6474276999942958,True,30,1
JL-K-20K20S2,503,experiment,103,←,left,←,0.6427906999597326,True,30,1
JL-K-20K20S2,504,experiment,91,↓,down,↓,0.5462881000712514,True,30,1
JL-K-20K20S2,505,experiment,71,→,right,→,0.5967651000246406,True,30,1
JL-K-20K20S2,506,experiment,98,↑,up,↑,0.5796122000319883,True,30,1
JL-K-20K20S2,507,experiment,77,←,left,←,0.6261448999866843,True,30,1
JL-K-20K20S2,508,experiment,83,↑,up,↑,0.4933543000370264,True,30,1
JL-K-20K20S2,509,experiment,84,↓,down,↓,0.6374576999805868,True,30,1
JL-K-20K20S2,510,experiment,87,→,right,→,0.47053669998422265,True,30,1
JL-K-20K20S2,511,experiment,65,←,no_key,no_letter,-1.0,False,30,1
JL-K-20K20S2,512,experiment,90,←,no_key,no_letter,-1.0,False,30,1
JL-K-20K20S2,513,experiment,95,↓,down,↓,0.661924900021404,True,30,1
JL-K-20K20S2,514,experiment,78,→,left,←,0.7453143999446183,False,30,1
JL-K-20K20S2,515,experiment,100,←,left,←,0.5541024999693036,True,30,1
JL-K-20K20S2,516,experiment,66,←,left,←,0.44538229994941503,True,30,1
JL-K-20K20S2,517,experiment,53,↑,up,↑,0.7854038999648765,True,30,1
JL-K-20K20S2,518,experiment,85,↑,up,↑,0.6934708000626415,True,30,1
JL-K-20K20S2,519,experiment,60,↑,up,↑,0.6694937000283971,True,30,1
JL-K-20K20S2,520,experiment,79,→,right,→,0.6481159999966621,True,30,1
JL-K-20K20S2,521,experiment,105,↓,down,↓,0.8511922999750823,True,30,1
JL-K-20K20S2,522,experiment,51,↑,up,↑,0.7199738000053912,True,30,1
JL-K-20K20S2,523,experiment,97,↓,up,↑,0.6585658999392763,False,30,1
JL-K-20K20S2,524,experiment,56,←,left,←,0.5492182000307366,True,30,1
JL-K-20K20S2,525,experiment,64,→,left,←,0.6015183000126854,False,30,1
JL-K-20K20S2,526,experiment,107,↓,down,↓,0.5576759000541642,True,30,1
JL-K-20K20S2,527,experiment,93,↓,down,↓,0.6240640999749303,True,30,1
JL-K-20K20S2,528,experiment,104,→,right,→,0.4919973999494687,True,30,1
JL-K-20K20S2,529,experiment,80,→,right,→,0.509287100052461,True,30,1
JL-K-20K20S2,530,experiment,76,←,left,←,0.4713289000792429,True,30,1
JL-K-20K20S2,531,experiment,106,↑,up,↑,0.528829799965024,True,30,1
JL-K-20K20S2,532,experiment,74,→,right,→,0.5705322999274358,True,30,1
JL-K-20K20S2,533,experiment,50,↓,down,↓,0.754702299949713,True,30,1
JL-K-20K20S2,534,experiment,68,←,left,←,0.4614332999335602,True,30,1
JL-K-20K20S2,535,experiment,48,↓,down,↓,0.6187958000227809,True,30,1
JL-K-20K20S2,536,experiment,67,→,right,→,0.4915518999332562,True,30,1
JL-K-20K20S2,537,experiment,61,↓,down,↓,0.5073752000462264,True,30,1
JL-K-20K20S2,538,experiment,99,→,right,→,0.6857140000211075,True,30,1
JL-K-20K20S2,539,experiment,63,↓,down,↓,0.4612330000381917,True,30,1
JL-K-20K20S2,540,experiment,70,↓,down,↓,0.47524570010136813,True,30,1
JL-K-20K20S2,541,experiment,58,←,left,←,0.5645275000715628,True,30,1
JL-K-20K20S2,542,experiment,94,↑,up,↑,0.5423771999776363,True,30,1
JL-K-20K20S2,543,experiment,88,→,right,→,0.49927279993426055,True,30,1
JL-K-20K20S2,544,experiment,81,→,right,→,0.4359851999906823,True,30,1
JL-K-20K20S2,545,training,96,↓,down,↓,0.5558646999998018,True,30,0
JL-K-20K20S2,546,training,90,↑,up,↑,0.6154241000767797,True,30,1
JL-K-20K20S2,547,experiment,53,↑,down,↓,0.564593099988997,False,30,1
JL-K-20K20S2,548,experiment,92,→,right,→,0.535281699965708,True,30,1
JL-K-20K20S2,549,experiment,59,↓,up,↑,0.7414781999541447,False,30,1
JL-K-20K20S2,550,experiment,51,↑,up,↑,0.5346768000163138,True,30,1
JL-K-20K20S2,551,experiment,63,→,right,→,0.4439999000169337,True,30,1
JL-K-20K20S2,552,experiment,62,↓,down,↓,0.5572077999822795,True,30,1
JL-K-20K20S2,553,experiment,107,←,no_key,no_letter,-1.0,False,30,1
JL-K-20K20S2,554,experiment,93,→,right,→,0.47084990004077554,True,30,1
JL-K-20K20S2,555,experiment,69,↓,down,↓,0.7564058999996632,True,30,1
JL-K-20K20S2,556,experiment,102,←,left,←,0.4597154000075534,True,30,1
JL-K-20K20S2,557,experiment,88,→,right,→,0.4279828000580892,True,30,1
JL-K-20K20S2,558,experiment,67,→,right,→,0.4839859999483451,True,30,1
JL-K-20K20S2,559,experiment,85,↑,up,↑,0.6598614000249654,True,30,1
JL-K-20K20S2,560,experiment,75,↑,up,↑,0.6967619999777526,True,30,1
JL-K-20K20S2,561,experiment,84,↓,down,↓,0.4962899999227375,True,30,1
JL-K-20K20S2,562,experiment,65,↑,down,↓,0.8382415999658406,False,30,1
JL-K-20K20S2,563,experiment,74,→,right,→,0.5395041999872774,True,30,1
JL-K-20K20S2,564,experiment,72,↓,down,↓,0.5657352999551222,True,30,1
JL-K-20K20S2,565,experiment,94,↑,up,↑,0.6312546000117436,True,30,1
JL-K-20K20S2,566,experiment,108,↓,down,↓,0.6017659999197349,True,30,1
JL-K-20K20S2,567,experiment,58,↑,up,↑,0.5180803000694141,True,30,1
JL-K-20K20S2,568,experiment,56,↓,down,↓,0.5025673999916762,True,30,1
JL-K-20K20S2,569,experiment,86,↓,down,↓,0.5255087000550702,True,30,1
JL-K-20K20S2,570,experiment,52,↑,down,↓,0.9748782999813557,False,30,1
JL-K-20K20S2,571,experiment,89,←,left,←,0.5865409000543877,True,30,1
JL-K-20K20S2,572,experiment,99,↑,up,↑,0.7853573999600485,True,30,1
JL-K-20K20S2,573,experiment,73,↑,down,↓,0.625569999916479,False,30,1
JL-K-20K20S2,574,experiment,55,↑,up,↑,0.5498604999156669,True,30,1
JL-K-20K20S2,575,experiment,87,↓,down,↓,0.5146003999980167,True,30,1
JL-K-20K20S2,576,experiment,78,↓,down,↓,0.46760420000646263,True,30,1
JL-K-20K20S2,577,experiment,97,↑,down,↓,0.7283178999787197,False,30,1
JL-K-20K20S2,578,experiment,50,↓,down,↓,0.6344313999870792,True,30,1
JL-K-20K20S2,579,experiment,82,→,right,→,0.47767309995833784,True,30,1
JL-K-20K20S2,580,experiment,61,↑,up,↑,0.9497543999459594,True,30,1
JL-K-20K20S2,581,experiment,64,↑,up,↑,0.6663104000035673,True,30,1
JL-K-20K20S2,582,experiment,79,↑,up,↑,0.7571534001035616,True,30,1
JL-K-20K20S2,583,experiment,91,↑,up,↑,0.7200595000758767,True,30,1
JL-K-20K20S2,584,experiment,76,↑,up,↑,0.5697263000765815,True,30,1
JL-K-20K20S2,585,experiment,83,←,left,←,0.7266947999596596,True,30,1
JL-K-20K20S2,586,experiment,57,→,right,→,0.4864303999347612,True,30,1
JL-K-20K20S2,587,experiment,103,←,no_key,no_letter,-1.0,False,30,1
JL-K-20K20S2,588,experiment,100,→,right,→,0.5220698000630364,True,30,1
JL-K-20K20S2,589,experiment,105,↓,down,↓,0.6898164000594988,True,30,1
JL-K-20K20S2,590,experiment,70,→,right,→,0.6704461000626907,True,30,1
JL-K-20K20S2,591,experiment,71,↑,up,↑,0.7233567000366747,True,30,1
JL-K-20K20S2,592,experiment,90,↓,down,↓,0.5122114999685436,True,30,1
JL-K-20K20S2,593,experiment,96,↑,up,↑,0.6113612999906763,True,30,1
JL-K-20K20S2,594,experiment,104,←,left,←,0.7438626000657678,True,30,1
JL-K-20K20S2,595,experiment,48,↓,no_key,no_letter,-1.0,False,30,1
JL-K-20K20S2,596,experiment,106,→,right,→,0.6252615000121295,True,30,1
JL-K-20K20S2,597,experiment,49,↑,up,↑,0.7357836000155658,True,30,1
JL-K-20K20S2,598,experiment,80,←,right,→,0.711426499998197,False,30,1
JL-K-20K20S2,599,experiment,77,↓,down,↓,0.5769869000650942,True,30,1
JL-K-20K20S2,600,experiment,101,→,right,→,0.5436712000519037,True,30,1
JL-K-20K20S2,601,experiment,54,↑,up,↑,0.6159761999733746,True,30,1
JL-K-20K20S2,602,experiment,95,↑,up,↑,0.7034164000069723,True,30,1
JL-K-20K20S2,603,experiment,98,↓,down,↓,0.5299301000777632,True,30,1
JL-K-20K20S2,604,experiment,60,↓,down,↓,0.5763455000706017,True,30,1
JL-K-20K20S2,605,experiment,66,→,right,→,0.43525820004288107,True,30,1
JL-K-20K20S2,606,experiment,68,→,right,→,0.45873469999060035,True,30,1
JL-K-20K20S2,607,experiment,81,↑,up,↑,0.5096108999568969,True,30,1
JL-K-20K20S2,608,training,85,←,left,←,0.6421440999256447,True,30,0
JL-K-20K20S2,609,training,82,→,right,→,0.42101569997612387,True,30,1
JL-K-20K20S2,610,experiment,55,↓,down,↓,0.5213858999777585,True,30,0
JL-K-20K20S2,611,experiment,70,↑,up,↑,0.46871449996251613,True,30,1
JL-K-20K20S2,612,experiment,101,←,left,←,0.4718627999536693,True,30,1
JL-K-20K20S2,613,experiment,64,←,left,←,0.49541749991476536,True,30,1
JL-K-20K20S2,614,experiment,72,↓,down,↓,0.7312423000112176,True,30,1
JL-K-20K20S2,615,experiment,48,←,left,←,0.4377430999884382,True,30,1
JL-K-20K20S2,616,experiment,91,←,left,←,0.5256342000793666,True,30,1
JL-K-20K20S2,617,experiment,98,→,left,←,0.8636414000065997,False,30,1
JL-K-20K20S2,618,experiment,96,←,left,←,0.4284973000176251,True,30,1
JL-K-20K20S2,619,experiment,73,↓,down,↓,0.5552814999828115,True,30,1
JL-K-20K20S2,620,experiment,82,←,left,←,0.6571288000559434,True,30,1
JL-K-20K20S2,621,experiment,83,←,left,←,0.45877570006996393,True,30,1
JL-K-20K20S2,622,experiment,62,↓,down,↓,0.6115165000082925,True,30,1
JL-K-20K20S2,623,experiment,108,↓,down,↓,0.6630035999696702,True,30,1
JL-K-20K20S2,624,experiment,85,↑,up,↑,0.5197229000041261,True,30,1
JL-K-20K20S2,625,experiment,94,↓,down,↓,0.7952418000204489,True,30,1
JL-K-20K20S2,626,experiment,65,↓,down,↓,0.7259758999571204,True,30,1
JL-K-20K20S2,627,experiment,80,↓,right,→,0.9339184000855312,False,30,1
JL-K-20K20S2,628,experiment,76,→,right,→,0.543126399978064,True,30,1
JL-K-20K20S2,629,experiment,99,↑,up,↑,0.48803570005111396,True,30,1
JL-K-20K20S2,630,experiment,59,↑,up,↑,0.5683626000536606,True,30,1
JL-K-20K20S2,631,experiment,75,↑,up,↑,0.5524577000178397,True,30,1
JL-K-20K20S2,632,experiment,61,←,left,←,0.6219059999566525,True,30,1
JL-K-20K20S2,633,experiment,53,↓,down,↓,0.5470177000388503,True,30,1
JL-K-20K20S2,634,experiment,103,←,right,→,0.4823037999449298,False,30,1
JL-K-20K20S2,635,experiment,95,→,right,→,0.5031081000342965,True,30,1
JL-K-20K20S2,636,experiment,78,←,left,←,0.4883644999936223,True,30,1
JL-K-20K20S2,637,experiment,87,↓,down,↓,0.5514616000000387,True,30,1
JL-K-20K20S2,638,experiment,81,→,right,→,0.5261706999735907,True,30,1
JL-K-20K20S2,639,experiment,66,←,left,←,0.44304449995979667,True,30,1
JL-K-20K20S2,640,experiment,77,↑,up,↑,0.6713438999140635,True,30,1
JL-K-20K20S2,641,experiment,63,→,right,→,0.5350776000414044,True,30,1
JL-K-20K20S2,642,experiment,60,↓,down,↓,0.4934791000559926,True,30,1
JL-K-20K20S2,643,experiment,92,←,right,→,0.4668900000397116,False,30,1
JL-K-20K20S2,644,experiment,79,↑,up,↑,0.853667699964717,True,30,1
JL-K-20K20S2,645,experiment,69,→,right,→,0.40046549995895475,True,30,1
JL-K-20K20S2,646,experiment,86,↑,up,↑,0.5666967999422923,True,30,0
JL-K-20K20S2,647,experiment,104,→,right,→,0.5251933999825269,True,30,1
JL-K-20K20S2,648,experiment,68,→,right,→,0.42513139999937266,True,30,1
JL-K-20K20S2,649,experiment,107,→,right,→,0.47625120007433,True,30,0
JL-K-20K20S2,650,experiment,54,→,right,→,0.5029695999110118,True,30,1
JL-K-20K20S2,651,experiment,52,→,right,→,0.39437210001051426,True,30,1
JL-K-20K20S2,652,experiment,58,↑,up,↑,0.629352799966,True,30,0
JL-K-20K20S2,653,experiment,97,←,right,→,0.49929049995262176,False,30,1
JL-K-20K20S2,654,experiment,106,→,right,→,0.49164280004333705,True,30,1
JL-K-20K20S2,655,experiment,49,↑,down,↓,1.367382400087081,False,30,1
JL-K-20K20S2,656,experiment,51,↓,down,↓,0.535309899947606,True,30,1
JL-K-20K20S2,657,experiment,56,→,no_key,no_letter,-1.0,False,30,1
JL-K-20K20S2,658,experiment,74,→,right,→,0.38496309996116906,True,30,1
JL-K-20K20S2,659,experiment,100,↑,up,↑,0.6240623000776395,True,30,1
JL-K-20K20S2,660,experiment,93,←,left,←,0.6718865999719128,True,30,1
JL-K-20K20S2,661,experiment,89,←,left,←,0.6229004999622703,True,30,1
JL-K-20K20S2,662,experiment,57,↓,down,↓,0.6505979000357911,True,30,1
JL-K-20K20S2,663,experiment,88,↓,down,↓,0.5390487000113353,True,30,1
JL-K-20K20S2,664,experiment,50,↑,up,↑,0.5802844000281766,True,30,1
JL-K-20K20S2,665,experiment,67,↑,up,↑,0.5585118000162765,True,30,1
JL-K-20K20S2,666,experiment,84,←,left,←,0.44395570002961904,True,30,1
JL-K-20K20S2,667,experiment,71,↑,down,↓,0.9224220999749377,False,30,1
JL-K-20K20S2,668,experiment,105,←,left,←,0.521830499987118,True,30,1
JL-K-20K20S2,669,experiment,102,←,left,←,0.36712299997452646,True,30,1
JL-K-20K20S2,670,experiment,90,↑,left,←,0.7973781999899074,False,30,0
JL-K-20K20S2,671,training,105,↑,left,←,0.7353969999821857,False,30,0
JL-K-20K20S2,672,training,75,↑,up,↑,0.4969853999791667,True,30,1
JL-K-20K20S2,673,experiment,61,→,right,→,0.4722529000137001,True,30,1
JL-K-20K20S2,674,experiment,59,→,right,→,0.6173069999786094,True,30,1
JL-K-20K20S2,675,experiment,83,↑,up,↑,0.6206707999808714,True,30,1
JL-K-20K20S2,676,experiment,106,↓,down,↓,0.6801786000141874,True,30,1
JL-K-20K20S2,677,experiment,72,↓,down,↓,0.532448900048621,True,30,1
JL-K-20K20S2,678,experiment,75,←,left,←,0.45397499995306134,True,30,1
JL-K-20K20S2,679,experiment,99,←,left,←,0.5627357000485063,True,30,1
JL-K-20K20S2,680,experiment,89,↑,up,↑,0.5259669000515714,True,30,1
JL-K-20K20S2,681,experiment,55,↑,up,↑,0.6624048999510705,True,30,1
JL-K-20K20S2,682,experiment,102,←,left,←,0.43351180001627654,True,30,1
JL-K-20K20S2,683,experiment,93,→,left,←,0.6167376000666991,False,30,1
JL-K-20K20S2,684,experiment,101,↑,up,↑,0.590304399956949,True,30,1
JL-K-20K20S2,685,experiment,86,↓,down,↓,0.5456399000249803,True,30,1
JL-K-20K20S2,686,experiment,74,→,right,→,0.5547213000245392,True,30,1
JL-K-20K20S2,687,experiment,66,↓,down,↓,0.7180240999441594,True,30,1
JL-K-20K20S2,688,experiment,103,↓,down,↓,0.5108021999476478,True,30,1
JL-K-20K20S2,689,experiment,68,↓,down,↓,0.5795004999963567,True,30,1
JL-K-20K20S2,690,experiment,63,←,left,←,0.8147977000335231,True,30,1
JL-K-20K20S2,691,experiment,80,←,left,←,0.3929746000794694,True,30,1
JL-K-20K20S2,692,experiment,48,↓,down,↓,0.5550815999740735,True,30,1
JL-K-20K20S2,693,experiment,92,↓,down,↓,0.5981913999421522,True,30,1
JL-K-20K20S2,694,experiment,51,↑,down,↓,0.6125645999563858,False,30,1
JL-K-20K20S2,695,experiment,98,→,left,←,0.5629956000484526,False,30,1
JL-K-20K20S2,696,experiment,76,↑,up,↑,0.7306036999216303,True,30,1
JL-K-20K20S2,697,experiment,54,↓,down,↓,0.49128870002459735,True,30,1
JL-K-20K20S2,698,experiment,96,→,right,→,0.4870745000662282,True,30,1
JL-K-20K20S2,699,experiment,58,→,right,→,0.44017479999456555,True,30,1
JL-K-20K20S2,700,experiment,60,→,right,→,0.49004950001835823,True,30,1
JL-K-20K20S2,701,experiment,67,→,right,→,0.47170410002581775,True,30,1
JL-K-20K20S2,702,experiment,49,←,left,←,0.42844050005078316,True,30,1
JL-K-20K20S2,703,experiment,85,↓,down,↓,0.5343407000182196,True,30,1
JL-K-20K20S2,704,experiment,87,↓,down,↓,0.5796152000548318,True,30,1
JL-K-20K20S2,705,experiment,65,←,left,←,0.42260239995084703,True,30,1
JL-K-20K20S2,706,experiment,108,↓,down,↓,0.5211818000534549,True,30,0
JL-K-20K20S2,707,experiment,94,→,right,→,0.4603534999769181,True,30,1
JL-K-20K20S2,708,experiment,73,↓,down,↓,0.5383854999672621,True,30,1
JL-K-20K20S2,709,experiment,104,↑,up,↑,0.49649769999086857,True,30,1
JL-K-20K20S2,710,experiment,100,↑,left,←,0.826977499993518,False,30,1
JL-K-20K20S2,711,experiment,81,→,no_key,no_letter,-1.0,False,30,1
JL-K-20K20S2,712,experiment,57,←,left,←,0.43810440006200224,True,30,1
JL-K-20K20S2,713,experiment,95,←,left,←,0.468593200086616,True,30,1
JL-K-20K20S2,714,experiment,78,↑,up,↑,0.543460699962452,True,30,1
JL-K-20K20S2,715,experiment,88,→,right,→,0.5000900999875739,True,30,1
JL-K-20K20S2,716,experiment,50,→,right,→,0.4314318000106141,True,30,1
JL-K-20K20S2,717,experiment,105,↓,down,↓,0.6426861999789253,True,30,1
JL-K-20K20S2,718,experiment,53,→,right,→,0.47994999994989485,True,30,1
JL-K-20K20S2,719,experiment,71,→,no_key,no_letter,-1.0,False,30,1
JL-K-20K20S2,720,experiment,107,←,left,←,0.5708790000062436,True,30,1
JL-K-20K20S2,721,experiment,64,←,no_key,no_letter,-1.0,False,30,1
JL-K-20K20S2,722,experiment,97,←,left,←,0.5851953999372199,True,30,1
JL-K-20K20S2,723,experiment,62,↓,down,↓,0.5805504000745714,True,30,1
JL-K-20K20S2,724,experiment,82,→,right,→,0.537609999999404,True,30,1
JL-K-20K20S2,725,experiment,52,↑,up,↑,0.5542993999551982,True,30,1
JL-K-20K20S2,726,experiment,84,→,right,→,0.49588009994477034,True,30,1
JL-K-20K20S2,727,experiment,56,↓,down,↓,0.6167226999532431,True,30,1
JL-K-20K20S2,728,experiment,91,←,left,←,0.6735729000065476,True,30,1
JL-K-20K20S2,729,experiment,90,↓,down,↓,0.6723005999810994,True,30,1
JL-K-20K20S2,730,experiment,79,→,right,→,0.4748772999737412,True,30,1
JL-K-20K20S2,731,experiment,70,↑,down,↓,0.6800460000522435,False,30,1
JL-K-20K20S2,732,experiment,77,→,right,→,0.514888200093992,True,30,1
JL-K-20K20S2,733,experiment,69,←,left,←,0.5189798000501469,True,30,1
JL-K-20K20S2,734,training,51,↓,down,↓,0.6473017000826076,True,30,0
JL-K-20K20S2,735,training,73,→,right,→,0.4530879999510944,True,30,1
JL-K-20K20S2,736,experiment,101,→,right,→,0.4251699000597,True,30,1
JL-K-20K20S2,737,experiment,56,→,right,→,0.4011155000189319,True,30,0
JL-K-20K20S2,738,experiment,104,↓,down,↓,0.4976463000057265,True,30,1
JL-K-20K20S2,739,experiment,105,↑,up,↑,0.7144934000680223,True,30,1
JL-K-20K20S2,740,experiment,96,←,left,←,0.6132397999754176,True,30,1
JL-K-20K20S2,741,experiment,61,→,right,→,0.5599776998860762,True,30,1
JL-K-20K20S2,742,experiment,52,→,right,→,0.4561255000298843,True,30,1
JL-K-20K20S2,743,experiment,89,↑,up,↑,0.45590169995557517,True,30,1
JL-K-20K20S2,744,experiment,103,←,left,←,0.5790841000853106,True,30,1
JL-K-20K20S2,745,experiment,76,↑,up,↑,0.5380001999437809,True,30,1
JL-K-20K20S2,746,experiment,82,←,left,←,0.3855970000149682,True,30,1
JL-K-20K20S2,747,experiment,58,↑,up,↑,0.5810859999619424,True,30,0
JL-K-20K20S2,748,experiment,80,←,no_key,no_letter,-1.0,False,30,1
JL-K-20K20S2,749,experiment,65,↓,down,↓,0.5282520999899134,True,30,1
JL-K-20K20S2,750,experiment,91,↑,up,↑,0.47624280001036823,True,30,1
JL-K-20K20S2,751,experiment,54,→,right,→,0.51894340000581,True,30,1
JL-K-20K20S2,752,experiment,62,↓,down,↓,0.5654951999895275,True,30,1
JL-K-20K20S2,753,experiment,102,←,left,←,0.46037190000060946,True,30,1
JL-K-20K20S2,754,experiment,107,→,left,←,0.6941268999362364,False,30,1
JL-K-20K20S2,755,experiment,51,↑,up,↑,0.696936700027436,True,30,1
JL-K-20K20S2,756,experiment,63,↑,up,↑,0.4800447999732569,True,30,1
JL-K-20K20S2,757,experiment,97,→,right,→,0.43595379998441786,True,30,1
JL-K-20K20S2,758,experiment,106,↑,up,↑,0.6229649001033977,True,30,1
JL-K-20K20S2,759,experiment,79,←,left,←,0.6115139999892563,True,30,1
JL-K-20K20S2,760,experiment,108,↑,left,←,0.7029696999816224,False,30,1
JL-K-20K20S2,761,experiment,81,→,right,→,0.4874544000485912,True,30,1
JL-K-20K20S2,762,experiment,78,↑,up,↑,0.6575446000788361,True,30,1
JL-K-20K20S2,763,experiment,68,→,right,→,0.5205338000087067,True,30,1
JL-K-20K20S2,764,experiment,87,↓,down,↓,0.5422648000530899,True,30,1
JL-K-20K20S2,765,experiment,88,←,left,←,0.5312607999658212,True,30,1
JL-K-20K20S2,766,experiment,57,↓,down,↓,0.6665092000039294,True,30,1
JL-K-20K20S2,767,experiment,49,↑,up,↑,0.7352774000028148,True,30,1
JL-K-20K20S2,768,experiment,71,←,left,←,0.44205429998692125,True,30,1
JL-K-20K20S2,769,experiment,75,↑,up,↑,0.4631719999015331,True,30,1
JL-K-20K20S2,770,experiment,64,↑,up,↑,0.4469285999657586,True,30,1
JL-K-20K20S2,771,experiment,98,→,right,→,0.5079228000249714,True,30,1
JL-K-20K20S2,772,experiment,94,↑,up,↑,0.47201839997433126,True,30,1
JL-K-20K20S2,773,experiment,95,←,left,←,0.661127100000158,True,30,1
JL-K-20K20S2,774,experiment,67,↓,down,↓,0.4995893999002874,True,30,1
JL-K-20K20S2,775,experiment,84,↑,up,↑,0.6195107999956235,True,30,1
JL-K-20K20S2,776,experiment,99,↑,up,↑,0.4656328000128269,True,30,1
JL-K-20K20S2,777,experiment,77,←,left,←,0.5410251000430435,True,30,1
JL-K-20K20S2,778,experiment,72,←,left,←,0.5509671999607235,True,30,1
JL-K-20K20S2,779,experiment,69,←,left,←,0.3941930999280885,True,30,1
JL-K-20K20S2,780,experiment,73,↑,up,↑,0.5767951000016183,True,30,0
JL-K-20K20S2,781,experiment,53,↓,down,↓,0.4880069999489933,True,30,1
JL-K-20K20S2,782,experiment,83,→,right,→,0.43263200006913394,True,30,1
JL-K-20K20S2,783,experiment,74,→,right,→,0.4002094999887049,True,30,1
JL-K-20K20S2,784,experiment,66,↓,down,↓,0.48772099998313934,True,30,0
JL-K-20K20S2,785,experiment,86,↑,up,↑,0.6790747999912128,True,30,1
JL-K-20K20S2,786,experiment,92,→,right,→,0.5085759999928996,True,30,1
JL-K-20K20S2,787,experiment,100,↓,down,↓,0.6145690000848845,True,30,1
JL-K-20K20S2,788,experiment,60,↓,down,↓,0.4976425999775529,True,30,1
JL-K-20K20S2,789,experiment,50,→,right,→,0.4687477999832481,True,30,1
JL-K-20K20S2,790,experiment,70,←,left,←,0.37607789994217455,True,30,1
JL-K-20K20S2,791,experiment,55,→,right,→,0.4565616000909358,True,30,1
JL-K-20K20S2,792,experiment,93,→,left,←,0.6471304000588134,False,30,1
JL-K-20K20S2,793,experiment,85,←,left,←,0.43269769998732954,True,30,1
JL-K-20K20S2,794,experiment,59,→,right,→,0.4593967000255361,True,30,1
JL-K-20K20S2,795,experiment,48,↑,up,↑,0.5287342000519857,True,30,1
JL-K-20K20S2,796,experiment,90,↑,up,↑,0.5895787000190467,True,30,1
JL-K-20K20S2,797,training,75,→,right,→,0.41167920001316816,True,29,0
JL-K-20K20S2,798,training,101,→,right,→,0.3858374999836087,True,29,0
JL-K-20K20S2,799,experiment,98,→,right,→,0.49586689996067435,True,29,0
JL-K-20K20S2,800,experiment,56,←,no_key,no_letter,-1.0,False,29,1
JL-K-20K20S2,801,experiment,74,↑,up,↑,0.5790140000171959,True,29,1
JL-K-20K20S2,802,experiment,78,←,left,←,0.4894962999969721,True,29,1
JL-K-20K20S2,803,experiment,63,↓,down,↓,0.5128694999730214,True,29,1
JL-K-20K20S2,804,experiment,64,↓,down,↓,0.494167200056836,True,29,1
JL-K-20K20S2,805,experiment,65,←,left,←,0.6046867999248207,True,29,1
JL-K-20K20S2,806,experiment,61,↑,up,↑,0.7038462000200525,True,29,1
JL-K-20K20S2,807,experiment,104,↓,down,↓,0.4804535999428481,True,29,1
JL-K-20K20S2,808,experiment,93,←,left,←,0.3752406999701634,True,29,1
JL-K-20K20S2,809,experiment,99,↓,down,↓,0.5734292999841273,True,29,0
JL-K-20K20S2,810,experiment,51,↓,down,↓,0.5490739999804646,True,29,1
JL-K-20K20S2,811,experiment,94,↑,up,↑,0.5834954000310972,True,29,1
JL-K-20K20S2,812,experiment,76,→,left,←,0.6145338999340311,False,29,1
JL-K-20K20S2,813,experiment,50,←,left,←,0.5008587999036536,True,29,1
JL-K-20K20S2,814,experiment,88,↓,down,↓,0.5873903000028804,True,29,1
JL-K-20K20S2,815,experiment,95,→,right,→,0.611727699986659,True,29,1
JL-K-20K20S2,816,experiment,83,←,left,←,0.6711499000666663,True,29,1
JL-K-20K20S2,817,experiment,81,←,left,←,0.42526349995750934,True,29,1
JL-K-20K20S2,818,experiment,52,↓,down,↓,0.5827047999482602,True,29,1
JL-K-20K20S2,819,experiment,107,→,right,→,0.5872366999974474,True,29,1
JL-K-20K20S2,820,experiment,102,→,left,←,0.6896096999989823,False,29,1
JL-K-20K20S2,821,experiment,58,↓,down,↓,0.642313800053671,True,29,1
JL-K-20K20S2,822,experiment,71,←,left,←,0.5608138999668881,True,29,1
JL-K-20K20S2,823,experiment,69,↓,down,↓,0.554985599941574,True,29,1
JL-K-20K20S2,824,experiment,108,↑,up,↑,0.496332100010477,True,29,1
JL-K-20K20S2,825,experiment,77,↓,down,↓,0.6585808000527322,True,29,1
JL-K-20K20S2,826,experiment,103,↓,down,↓,0.525544699979946,True,29,1
JL-K-20K20S2,827,experiment,80,↓,down,↓,0.581659400020726,True,29,1
JL-K-20K20S2,828,experiment,55,↓,down,↓,0.9316773000173271,True,29,1
JL-K-20K20S2,829,experiment,70,→,right,→,0.4153745999792591,True,29,1
JL-K-20K20S2,830,experiment,49,←,left,←,0.7176373000256717,True,29,1
JL-K-20K20S2,831,experiment,90,→,left,←,0.5465087000047788,False,29,1
JL-K-20K20S2,832,experiment,97,↓,down,↓,0.643908999976702,True,29,1
JL-K-20K20S2,833,experiment,89,↓,down,↓,0.5883254000218585,True,29,1
JL-K-20K20S2,834,experiment,59,→,right,→,0.49674500001128763,True,29,1
JL-K-20K20S2,835,experiment,75,→,right,→,0.6115905999904498,True,29,1
JL-K-20K20S2,836,experiment,62,↑,up,↑,0.6303480999777094,True,29,1
JL-K-20K20S2,837,experiment,67,←,left,←,0.5023004000540823,True,29,1
JL-K-20K20S2,838,experiment,105,↓,down,↓,0.5189981999574229,True,29,1
JL-K-20K20S2,839,experiment,92,→,right,→,0.4834056000690907,True,29,1
JL-K-20K20S2,840,experiment,73,←,left,←,0.8075011000037193,True,29,1
JL-K-20K20S2,841,experiment,66,→,right,→,0.4250531999859959,True,29,1
JL-K-20K20S2,842,experiment,53,→,right,→,0.7022774000652134,True,29,1
JL-K-20K20S2,843,experiment,100,↑,up,↑,0.735997200012207,True,29,1
JL-K-20K20S2,844,experiment,96,←,right,→,0.6343274000100791,False,29,1
JL-K-20K20S2,845,experiment,87,↓,down,↓,0.6357070000376552,True,29,1
JL-K-20K20S2,846,experiment,101,←,left,←,0.42454979999456555,True,29,1
JL-K-20K20S2,847,experiment,54,←,left,←,0.4528813000069931,True,29,1
JL-K-20K20S2,848,experiment,48,←,left,←,0.4110775999724865,True,29,1
JL-K-20K20S2,849,experiment,79,↓,down,↓,0.567263700067997,True,29,0
JL-K-20K20S2,850,experiment,106,↓,down,↓,0.5330557000124827,True,29,1
JL-K-20K20S2,851,experiment,72,←,left,←,0.7675010000821203,True,29,1
JL-K-20K20S2,852,experiment,60,←,left,←,0.39193749998230487,True,29,1
JL-K-20K20S2,853,experiment,91,←,left,←,0.5340838999254629,True,29,0
JL-K-20K20S2,854,experiment,57,↓,down,↓,0.6053397000068799,True,29,1
JL-K-20K20S2,855,experiment,68,←,left,←,0.4145604999503121,True,29,1
JL-K-20K20S2,856,experiment,82,↓,down,↓,0.6738634000066668,True,29,1
JL-K-20K20S2,857,experiment,85,→,right,→,0.5782962000230327,True,29,1
JL-K-20K20S2,858,experiment,84,→,left,←,0.5106234999839216,False,29,1
JL-K-20K20S2,859,experiment,86,←,left,←,0.5094974000239745,True,29,1
JL-K-20K20S2,860,training,95,→,right,→,0.6110674000810832,True,28,0
JL-K-20K20S2,861,training,52,↑,down,↓,0.560862599988468,False,28,1
JL-K-20K20S2,862,experiment,96,←,left,←,0.5701474000234157,True,28,1
JL-K-20K20S2,863,experiment,49,←,left,←,0.48294240003451705,True,28,1
JL-K-20K20S2,864,experiment,55,←,left,←,0.6209572000661865,True,28,1
JL-K-20K20S2,865,experiment,57,→,right,→,0.40862659993581474,True,28,1
JL-K-20K20S2,866,experiment,70,←,left,←,0.6088548999978229,True,28,1
JL-K-20K20S2,867,experiment,61,→,right,→,0.44393970002420247,True,28,1
JL-K-20K20S2,868,experiment,89,←,left,←,0.4127662999089807,True,28,1
JL-K-20K20S2,869,experiment,107,←,left,←,0.33440300007350743,True,28,1
JL-K-20K20S2,870,experiment,105,↓,down,↓,0.5109738999744877,True,28,1
JL-K-20K20S2,871,experiment,59,←,left,←,0.5586189000168815,True,28,1
JL-K-20K20S2,872,experiment,98,→,left,←,0.9352517999941483,False,28,1
JL-K-20K20S2,873,experiment,74,←,left,←,0.42452380002941936,True,28,1
JL-K-20K20S2,874,experiment,76,←,left,←,0.5261352000525221,True,28,1
JL-K-20K20S2,875,experiment,52,←,left,←,0.6073652999475598,True,28,1
JL-K-20K20S2,876,experiment,91,→,right,→,0.45650189998559654,True,28,1
JL-K-20K20S2,877,experiment,90,→,right,→,0.37634980003349483,True,28,1
JL-K-20K20S2,878,experiment,82,↓,down,↓,0.5407649999251589,True,28,0
JL-K-20K20S2,879,experiment,95,↑,up,↑,0.7671907000476494,True,28,1
JL-K-20K20S2,880,experiment,48,←,left,←,0.3777149999514222,True,28,1
JL-K-20K20S2,881,experiment,50,←,left,←,0.5675578999798745,True,28,0
JL-K-20K20S2,882,experiment,88,→,left,←,0.515239299973473,False,28,1
JL-K-20K20S2,883,experiment,63,←,left,←,0.3093903000699356,True,28,1
JL-K-20K20S2,884,experiment,65,←,left,←,0.7026919000782073,True,28,0
JL-K-20K20S2,885,experiment,73,↓,down,↓,0.5218611999880522,True,28,1
JL-K-20K20S2,886,experiment,103,→,right,→,0.6661100999917835,True,28,1
JL-K-20K20S2,887,experiment,79,←,left,←,0.5248849000781775,True,28,1
JL-K-20K20S2,888,experiment,108,→,left,←,0.739490200066939,False,28,1
JL-K-20K20S2,889,experiment,86,←,left,←,0.4580955000128597,True,28,1
JL-K-20K20S2,890,experiment,94,↑,up,↑,0.5992474000668153,True,28,1
JL-K-20K20S2,891,experiment,106,→,right,→,0.5634952000109479,True,28,1
JL-K-20K20S2,892,experiment,71,↓,up,↑,0.6689636999508366,False,28,1
JL-K-20K20S2,893,experiment,60,→,right,→,0.629887199960649,True,28,1
JL-K-20K20S2,894,experiment,85,→,right,→,0.49632180004846305,True,28,1
JL-K-20K20S2,895,experiment,101,↑,up,↑,0.6899400999536738,True,28,1
JL-K-20K20S2,896,experiment,54,→,right,→,0.5481471000239253,True,28,1
JL-K-20K20S2,897,experiment,84,↓,down,↓,0.6500294000143185,True,28,1
JL-K-20K20S2,898,experiment,68,→,right,→,0.640890600043349,True,28,1
JL-K-20K20S2,899,experiment,69,↑,up,↑,0.6799317999975756,True,28,1
JL-K-20K20S2,900,experiment,92,↓,down,↓,0.5737321999622509,True,28,1
JL-K-20K20S2,901,experiment,72,←,left,←,0.4785651999991387,True,28,1
JL-K-20K20S2,902,experiment,64,↑,up,↑,0.6456823999760672,True,28,1
JL-K-20K20S2,903,experiment,51,↑,left,←,0.7227486000629142,False,28,1
JL-K-20K20S2,904,experiment,67,←,left,←,0.4227832000469789,True,28,1
JL-K-20K20S2,905,experiment,56,↑,up,↑,0.4271341999992728,True,28,1
JL-K-20K20S2,906,experiment,80,↑,up,↑,0.7508890000171959,True,28,1
JL-K-20K20S2,907,experiment,75,↑,up,↑,0.7197410000953823,True,28,1
JL-K-20K20S2,908,experiment,93,→,right,→,0.45975860010366887,True,28,1
JL-K-20K20S2,909,experiment,53,→,right,→,0.4716883000219241,True,28,1
JL-K-20K20S2,910,experiment,83,→,right,→,0.4169876000378281,True,28,1
JL-K-20K20S2,911,experiment,99,↑,up,↑,0.5587357999756932,True,28,1
JL-K-20K20S2,912,experiment,77,→,right,→,0.5425127999624237,True,28,1
JL-K-20K20S2,913,experiment,102,↓,down,↓,0.5106411000015214,True,28,1
JL-K-20K20S2,914,experiment,81,↓,down,↓,1.17482650000602,True,28,1
JL-K-20K20S2,915,experiment,100,↓,down,↓,0.6623185001080856,True,28,1
JL-K-20K20S2,916,experiment,58,→,right,→,0.5679272999987006,True,28,1
JL-K-20K20S2,917,experiment,97,→,right,→,0.40877380000893027,True,28,1
JL-K-20K20S2,918,experiment,87,→,right,→,0.4115608000429347,True,28,1
JL-K-20K20S2,919,experiment,66,←,left,←,0.42807869997341186,True,28,1
JL-K-20K20S2,920,experiment,104,←,left,←,0.40897560003213584,True,28,1
JL-K-20K20S2,921,experiment,78,↓,left,←,0.6933302000397816,False,28,1
JL-K-20K20S2,922,experiment,62,↑,up,↑,0.6766512000467628,True,28,1
JL-K-20K20S2,923,training,72,↑,up,↑,0.46512449998408556,True,28,0
JL-K-20K20S2,924,training,61,↓,down,↓,0.6096164000919089,True,28,1
JL-K-20K20S2,925,experiment,73,←,left,←,0.33444189990404993,True,28,1
JL-K-20K20S2,926,experiment,101,↑,up,↑,0.42568979994393885,True,28,1
JL-K-20K20S2,927,experiment,48,←,left,←,0.5601732999784872,True,28,1
JL-K-20K20S2,928,experiment,95,↓,down,↓,0.521725400001742,True,28,1
JL-K-20K20S2,929,experiment,70,↓,down,↓,0.4614162999205291,True,28,1
JL-K-20K20S2,930,experiment,81,↑,up,↑,0.5274641999276355,True,28,1
JL-K-20K20S2,931,experiment,103,→,left,←,0.5037364000454545,False,28,1
JL-K-20K20S2,932,experiment,64,→,right,→,0.5420504999347031,True,28,1
JL-K-20K20S2,933,experiment,88,→,left,←,0.6987255999119952,False,28,1
JL-K-20K20S2,934,experiment,82,←,right,→,0.8993451000424102,False,28,1
JL-K-20K20S2,935,experiment,102,←,left,←,0.5009072000393644,True,28,1
JL-K-20K20S2,936,experiment,86,↑,down,↓,1.1958960000192747,False,28,1
JL-K-20K20S2,937,experiment,66,↑,up,↑,0.48591100005432963,True,28,1
JL-K-20K20S2,938,experiment,65,←,left,←,0.48471459990832955,True,28,1
JL-K-20K20S2,939,experiment,107,↓,down,↓,0.5255878999596462,True,28,1
JL-K-20K20S2,940,experiment,80,↓,down,↓,0.48502250004094094,True,28,1
JL-K-20K20S2,941,experiment,92,↓,down,↓,0.5312316999770701,True,28,1
JL-K-20K20S2,942,experiment,57,↓,down,↓,0.4984776999335736,True,28,1
JL-K-20K20S2,943,experiment,90,→,right,→,0.5121729999082163,True,28,1
JL-K-20K20S2,944,experiment,85,↓,down,↓,0.5432126999367028,True,28,1
JL-K-20K20S2,945,experiment,71,←,left,←,0.7054755999706686,True,28,1
JL-K-20K20S2,946,experiment,94,↓,down,↓,0.6533976000500843,True,28,1
JL-K-20K20S2,947,experiment,98,↓,down,↓,0.4745441999984905,True,28,1
JL-K-20K20S2,948,experiment,52,↑,up,↑,0.5820537999970838,True,28,1
JL-K-20K20S2,949,experiment,55,←,left,←,0.6680564999114722,True,28,1
JL-K-20K20S2,950,experiment,75,↑,up,↑,0.5680386000312865,True,28,1
JL-K-20K20S2,951,experiment,49,↓,down,↓,0.5050124999834225,True,28,1
JL-K-20K20S2,952,experiment,78,→,right,→,0.4502404999220744,True,28,1
JL-K-20K20S2,953,experiment,87,↓,down,↓,0.5071427000220865,True,28,1
JL-K-20K20S2,954,experiment,91,↓,down,↓,0.6079518999904394,True,28,1
JL-K-20K20S2,955,experiment,69,→,right,→,0.4403926999075338,True,28,1
JL-K-20K20S2,956,experiment,79,→,right,→,0.44409539992921054,True,28,1
JL-K-20K20S2,957,experiment,67,←,left,←,0.6038856999948621,True,28,1
JL-K-20K20S2,958,experiment,108,↑,up,↑,0.7194335999665782,True,28,1
JL-K-20K20S2,959,experiment,84,←,left,←,0.44623999996110797,True,28,1
JL-K-20K20S2,960,experiment,50,→,right,→,1.0116186999948695,True,28,1
JL-K-20K20S2,961,experiment,62,↑,down,↓,0.7660936999600381,False,28,1
JL-K-20K20S2,962,experiment,58,→,right,→,0.6597878999309614,True,28,1
JL-K-20K20S2,963,experiment,76,↓,down,↓,0.7435402000555769,True,28,1
JL-K-20K20S2,964,experiment,56,↑,up,↑,0.510938800056465,True,28,1
JL-K-20K20S2,965,experiment,68,↓,down,↓,0.6599152000853792,True,28,1
JL-K-20K20S2,966,experiment,89,↑,up,↑,0.42754770000465214,True,28,1
JL-K-20K20S2,967,experiment,97,↑,up,↑,0.4417654999997467,True,28,1
JL-K-20K20S2,968,experiment,59,↑,up,↑,0.5003294000634924,True,28,1
JL-K-20K20S2,969,experiment,53,←,right,→,0.6063698000507429,False,28,1
JL-K-20K20S2,970,experiment,72,↓,down,↓,0.6377970000030473,True,28,1
JL-K-20K20S2,971,experiment,96,↑,down,↓,0.5556841000216082,False,28,1
JL-K-20K20S2,972,experiment,51,↓,down,↓,0.5482790999813005,True,28,1
JL-K-20K20S2,973,experiment,100,↓,down,↓,0.5487244999967515,True,28,1
JL-K-20K20S2,974,experiment,99,←,left,←,0.5175330999772996,True,28,1
JL-K-20K20S2,975,experiment,60,→,left,←,0.5245181999634951,False,28,1
JL-K-20K20S2,976,experiment,77,→,right,→,0.5255766999907792,True,28,1
JL-K-20K20S2,977,experiment,54,←,left,←,0.4144279999891296,True,28,1
JL-K-20K20S2,978,experiment,83,←,left,←,0.5296750999987125,True,28,1
JL-K-20K20S2,979,experiment,63,↑,down,↓,0.5589890999253839,False,28,1
JL-K-20K20S2,980,experiment,105,↑,up,↑,0.5254499999573454,True,28,1
JL-K-20K20S2,981,experiment,104,↑,down,↓,0.6696163000306115,False,28,1
JL-K-20K20S2,982,experiment,74,↓,down,↓,0.6417834999738261,True,28,1
JL-K-20K20S2,983,experiment,106,↓,down,↓,0.5486275999573991,True,28,1
JL-K-20K20S2,984,experiment,93,←,right,→,0.5273088000249118,False,28,1
JL-K-20K20S2,985,experiment,61,←,left,←,0.7176870999392122,True,28,1
JL-K-20K20S2,986,training,72,→,right,→,0.6338405000278726,True,28,0
JL-K-20K20S2,987,training,65,↑,left,←,0.6426851999713108,False,28,1
JL-K-20K20S2,988,experiment,66,←,left,←,0.44288099999539554,True,28,1
JL-K-20K20S2,989,experiment,83,↑,up,↑,0.5649901999859139,True,28,1
JL-K-20K20S2,990,experiment,54,←,left,←,0.42809089994989336,True,28,1
JL-K-20K20S2,991,experiment,77,→,right,→,0.4731968999840319,True,28,1
JL-K-20K20S2,992,experiment,106,→,left,←,0.754584199981764,False,28,1
JL-K-20K20S2,993,experiment,52,→,right,→,0.41084479994606227,True,28,1
JL-K-20K20S2,994,experiment,79,↓,down,↓,0.5035841999342665,True,28,1
JL-K-20K20S2,995,experiment,58,←,left,←,0.4478516000090167,True,28,1
JL-K-20K20S2,996,experiment,86,←,left,←,0.4488892999943346,True,28,1
JL-K-20K20S2,997,experiment,55,←,left,←,0.588375800056383,True,28,1
JL-K-20K20S2,998,experiment,56,↓,down,↓,0.5859335999703035,True,28,1
JL-K-20K20S2,999,experiment,82,←,left,←,0.4067358000902459,True,28,1
JL-K-20K20S2,1000,experiment,92,→,right,→,0.45520520000718534,True,28,1
JL-K-20K20S2,1001,experiment,102,↑,up,↑,0.6426865999819711,True,28,1
JL-K-20K20S2,1002,experiment,84,←,left,←,0.49260270001832396,True,28,1
JL-K-20K20S2,1003,experiment,95,←,left,←,0.40948119992390275,True,28,1
JL-K-20K20S2,1004,experiment,60,↓,down,↓,0.6122560000512749,True,28,1
JL-K-20K20S2,1005,experiment,59,↑,up,↑,0.5198861000826582,True,28,1
JL-K-20K20S2,1006,experiment,63,↑,down,↓,0.7256970000453293,False,28,1
JL-K-20K20S2,1007,experiment,62,↑,up,↑,0.5477480000117794,True,28,1
JL-K-20K20S2,1008,experiment,90,←,left,←,0.64747670001816,True,28,1
JL-K-20K20S2,1009,experiment,87,↑,up,↑,1.0482106000417843,True,28,1
JL-K-20K20S2,1010,experiment,94,←,left,←,0.5425173999974504,True,28,1
JL-K-20K20S2,1011,experiment,64,↓,down,↓,0.731410100008361,True,28,1
JL-K-20K20S2,1012,experiment,101,←,left,←,0.539909299928695,True,28,1
JL-K-20K20S2,1013,experiment,105,←,left,←,0.36717260000295937,True,28,1
JL-K-20K20S2,1014,experiment,93,←,left,←,0.43659880000632256,True,28,0
JL-K-20K20S2,1015,experiment,89,↓,down,↓,0.5976210000226274,True,28,1
JL-K-20K20S2,1016,experiment,73,↑,down,↓,0.5727119999937713,False,28,1
JL-K-20K20S2,1017,experiment,61,←,left,←,0.47332969994749874,True,28,1
JL-K-20K20S2,1018,experiment,97,↑,up,↑,0.5576365999877453,True,28,1
JL-K-20K20S2,1019,experiment,80,→,right,→,0.596502700005658,True,28,1
JL-K-20K20S2,1020,experiment,67,↑,down,↓,0.6383417999604717,False,28,1
JL-K-20K20S2,1021,experiment,74,↑,left,←,0.325621800031513,False,28,1
JL-K-20K20S2,1022,experiment,103,←,left,←,0.4356974000111222,True,28,0
JL-K-20K20S2,1023,experiment,53,←,left,←,0.47237510001286864,True,28,1
JL-K-20K20S2,1024,experiment,78,↑,up,↑,0.49122119997628033,True,28,1
JL-K-20K20S2,1025,experiment,51,←,left,←,0.7581662000156939,True,28,1
JL-K-20K20S2,1026,experiment,69,←,left,←,0.3677354999817908,True,28,1
JL-K-20K20S2,1027,experiment,72,←,left,←,0.48940169997513294,True,28,0
JL-K-20K20S2,1028,experiment,98,↑,up,↑,0.6768171999137849,True,28,1
JL-K-20K20S2,1029,experiment,81,←,left,←,0.43841339997015893,True,28,1
JL-K-20K20S2,1030,experiment,99,→,right,→,0.42752699996344745,True,28,1
JL-K-20K20S2,1031,experiment,50,→,right,→,0.6816015000222251,True,28,1
JL-K-20K20S2,1032,experiment,49,←,left,←,0.5017709000967443,True,28,1
JL-K-20K20S2,1033,experiment,104,←,right,→,0.5346812000498176,False,28,1
JL-K-20K20S2,1034,experiment,96,↓,down,↓,0.5771380999358371,True,28,1
JL-K-20K20S2,1035,experiment,68,↓,down,↓,0.5232737000333145,True,28,1
JL-K-20K20S2,1036,experiment,107,↑,up,↑,0.5863370000151917,True,28,1
JL-K-20K20S2,1037,experiment,75,→,right,→,0.49788110004737973,True,28,1
JL-K-20K20S2,1038,experiment,76,→,right,→,0.40464439999777824,True,28,1
JL-K-20K20S2,1039,experiment,108,←,left,←,0.47953810007311404,True,28,0
JL-K-20K20S2,1040,experiment,70,→,right,→,0.6765293000498787,True,28,1
JL-K-20K20S2,1041,experiment,88,↓,up,↑,1.2918722000904381,False,28,1
JL-K-20K20S2,1042,experiment,57,←,left,←,0.6286304000532255,True,28,1
JL-K-20K20S2,1043,experiment,71,↑,up,↑,0.7081781000597402,True,28,1
JL-K-20K20S2,1044,experiment,85,↓,down,↓,0.7390381000004709,True,28,1
JL-K-20K20S2,1045,experiment,65,←,left,←,0.5993997000623494,True,28,1
JL-K-20K20S2,1046,experiment,91,→,left,←,0.5370068999473006,False,28,1
JL-K-20K20S2,1047,experiment,48,←,left,←,0.46679089998360723,True,28,1
JL-K-20K20S2,1048,experiment,100,↓,down,↓,0.726614199928008,True,28,1
JL-K-20K20S2,1049,training,68,→,right,→,0.6057905999477953,True,28,0
JL-K-20K20S2,1050,training,98,→,right,→,0.4845342000480741,True,28,1
JL-K-20K20S2,1051,experiment,100,↓,down,↓,0.4716171999461949,True,28,1
JL-K-20K20S2,1052,experiment,49,↑,down,↓,0.6520220000529662,False,28,1
JL-K-20K20S2,1053,experiment,52,↑,up,↑,0.4645194000331685,True,28,1
JL-K-20K20S2,1054,experiment,54,→,right,→,0.6434619000647217,True,28,1
JL-K-20K20S2,1055,experiment,74,←,left,←,0.42505740001797676,True,28,1
JL-K-20K20S2,1056,experiment,50,←,left,←,0.3840517000062391,True,28,1
JL-K-20K20S2,1057,experiment,101,→,right,→,0.42148780007846653,True,28,0
JL-K-20K20S2,1058,experiment,80,←,left,←,0.617529800045304,True,28,1
JL-K-20K20S2,1059,experiment,91,↑,up,↑,0.626362600014545,True,28,1
JL-K-20K20S2,1060,experiment,64,←,left,←,0.6198470999952406,True,28,1
JL-K-20K20S2,1061,experiment,99,→,left,←,0.5217712000012398,False,28,1
JL-K-20K20S2,1062,experiment,94,←,left,←,0.42121140006929636,True,28,1
JL-K-20K20S2,1063,experiment,82,↓,down,↓,0.48838899994734675,True,28,1
JL-K-20K20S2,1064,experiment,79,↓,down,↓,0.6342127999523655,True,28,1
JL-K-20K20S2,1065,experiment,71,←,left,←,0.5130237999837846,True,28,1
JL-K-20K20S2,1066,experiment,97,→,right,→,0.4276860000099987,True,28,1
JL-K-20K20S2,1067,experiment,65,→,left,←,0.5647361999144778,False,28,1
JL-K-20K20S2,1068,experiment,105,→,left,←,0.4988238000078127,False,28,1
JL-K-20K20S2,1069,experiment,55,→,right,→,0.49205790006089956,True,28,1
JL-K-20K20S2,1070,experiment,95,→,right,→,0.48873089998960495,True,28,1
JL-K-20K20S2,1071,experiment,85,↓,down,↓,0.6323372999904677,True,28,1
JL-K-20K20S2,1072,experiment,93,←,left,←,0.4161013000411913,True,28,1
JL-K-20K20S2,1073,experiment,56,↑,up,↑,0.556116999941878,True,28,1
JL-K-20K20S2,1074,experiment,89,↓,down,↓,0.48787529999390244,True,28,1
JL-K-20K20S2,1075,experiment,51,↓,down,↓,0.5394667000509799,True,28,1
JL-K-20K20S2,1076,experiment,76,←,right,→,0.836117499973625,False,28,1
JL-K-20K20S2,1077,experiment,103,↓,down,↓,0.5200959999347106,True,28,1
JL-K-20K20S2,1078,experiment,107,←,left,←,0.7670263999607414,True,28,1
JL-K-20K20S2,1079,experiment,98,←,up,↑,1.6314603000646457,False,28,1
JL-K-20K20S2,1080,experiment,78,↑,up,↑,0.619925000006333,True,28,1
JL-K-20K20S2,1081,experiment,104,→,left,←,0.7600997999543324,False,28,1
JL-K-20K20S2,1082,experiment,88,→,right,→,0.4042916999896988,True,28,1
JL-K-20K20S2,1083,experiment,62,↓,down,↓,0.5987613999750465,True,28,1
JL-K-20K20S2,1084,experiment,96,↓,down,↓,0.5343846000032499,True,28,1
JL-K-20K20S2,1085,experiment,75,←,left,←,0.46398020000196993,True,28,1
JL-K-20K20S2,1086,experiment,48,↑,up,↑,0.6451841000234708,True,28,1
JL-K-20K20S2,1087,experiment,108,→,right,→,0.47107309999410063,True,28,1
JL-K-20K20S2,1088,experiment,92,→,left,←,0.6934597999788821,False,28,1
JL-K-20K20S2,1089,experiment,77,←,left,←,0.44746709999162704,True,28,1
JL-K-20K20S2,1090,experiment,84,←,left,←,0.47327139996923506,True,28,1
JL-K-20K20S2,1091,experiment,63,↓,down,↓,0.6169551000930369,True,28,1
JL-K-20K20S2,1092,experiment,68,↓,down,↓,0.49738700001034886,True,28,1
JL-K-20K20S2,1093,experiment,73,←,left,←,0.4851615000516176,True,28,1
JL-K-20K20S2,1094,experiment,67,↑,up,↑,0.45100650005042553,True,28,1
JL-K-20K20S2,1095,experiment,58,←,right,→,0.6853654000442475,False,28,1
JL-K-20K20S2,1096,experiment,81,←,left,←,0.5827008000342175,True,28,1
JL-K-20K20S2,1097,experiment,61,↑,up,↑,0.5706723000621423,True,28,1
JL-K-20K20S2,1098,experiment,53,←,left,←,0.473862599930726,True,28,1
JL-K-20K20S2,1099,experiment,83,→,right,→,0.41118300007656217,True,28,1
JL-K-20K20S2,1100,experiment,72,→,no_key,no_letter,-1.0,False,28,1
JL-K-20K20S2,1101,experiment,87,↑,up,↑,0.7529567000456154,True,28,1
JL-K-20K20S2,1102,experiment,60,→,right,→,0.6307669999077916,True,28,1
JL-K-20K20S2,1103,experiment,69,←,left,←,0.4220343000488356,True,28,1
JL-K-20K20S2,1104,experiment,66,←,right,→,0.5750217000022531,False,28,1
JL-K-20K20S2,1105,experiment,102,↑,up,↑,0.6135003000963479,True,28,1
JL-K-20K20S2,1106,experiment,106,↑,left,←,0.7453059999970719,False,28,1
JL-K-20K20S2,1107,experiment,70,→,right,→,0.6354998999740928,True,28,1
JL-K-20K20S2,1108,experiment,90,↓,down,↓,0.5801537999650463,True,28,1
JL-K-20K20S2,1109,experiment,59,←,left,←,0.6725569000700489,True,28,1
JL-K-20K20S2,1110,experiment,57,←,left,←,0.5145293000387028,True,28,1
JL-K-20K20S2,1111,experiment,86,→,right,→,0.43283009994775057,True,28,1
JL-K-20K20S2,1112,training,103,↑,up,↑,0.4353267999831587,True,28,0
JL-K-20K20S2,1113,training,94,←,left,←,0.4180793999694288,True,28,1
JL-K-20K20S2,1114,experiment,79,↓,down,↓,0.4388650000328198,True,28,1
JL-K-20K20S2,1115,experiment,74,↑,up,↑,0.4363366999896243,True,28,1
JL-K-20K20S2,1116,experiment,83,↓,down,↓,0.6466259000590071,True,28,1
JL-K-20K20S2,1117,experiment,106,←,left,←,0.46503930003382266,True,28,1
JL-K-20K20S2,1118,experiment,58,→,left,←,0.5386235999176279,False,28,1
JL-K-20K20S2,1119,experiment,51,↑,up,↑,0.6600704999873415,True,28,1
JL-K-20K20S2,1120,experiment,73,↑,up,↑,0.5848154999548569,True,28,1
JL-K-20K20S2,1121,experiment,55,↑,down,↓,0.758886200026609,False,28,1
JL-K-20K20S2,1122,experiment,88,←,left,←,0.4350914000533521,True,28,1
JL-K-20K20S2,1123,experiment,98,↑,up,↑,0.6486741999397054,True,28,1
JL-K-20K20S2,1124,experiment,71,↓,down,↓,0.4786529999691993,True,28,1
JL-K-20K20S2,1125,experiment,69,←,left,←,0.5881918999366462,True,28,1
JL-K-20K20S2,1126,experiment,60,→,right,→,0.6642453001113608,True,28,1
JL-K-20K20S2,1127,experiment,87,↑,up,↑,0.48845850001089275,True,28,1
JL-K-20K20S2,1128,experiment,70,↑,up,↑,0.6210496000712737,True,28,1
JL-K-20K20S2,1129,experiment,81,↓,down,↓,0.4808938999194652,True,28,1
JL-K-20K20S2,1130,experiment,96,→,right,→,0.43714539997745305,True,28,1
JL-K-20K20S2,1131,experiment,99,←,left,←,0.7782733000349253,True,28,1
JL-K-20K20S2,1132,experiment,108,↓,down,↓,0.7030415000626817,True,28,1
JL-K-20K20S2,1133,experiment,77,←,left,←,0.43311360001098365,True,28,1
JL-K-20K20S2,1134,experiment,104,↑,up,↑,0.6207860999274999,True,28,1
JL-K-20K20S2,1135,experiment,59,↑,up,↑,0.6560338999843225,True,28,1
JL-K-20K20S2,1136,experiment,54,←,left,←,0.44346580002456903,True,28,1
JL-K-20K20S2,1137,experiment,95,↑,up,↑,0.48971359990537167,True,28,1
JL-K-20K20S2,1138,experiment,78,↑,left,←,0.5717006999766454,False,28,1
JL-K-20K20S2,1139,experiment,63,→,down,↓,0.7514449000591412,False,28,1
JL-K-20K20S2,1140,experiment,86,↓,down,↓,0.5803775999229401,True,28,1
JL-K-20K20S2,1141,experiment,90,→,right,→,0.5906372000463307,True,28,1
JL-K-20K20S2,1142,experiment,85,→,right,→,0.5145787000656128,True,28,1
JL-K-20K20S2,1143,experiment,66,←,left,←,0.6155833000084385,True,28,1
JL-K-20K20S2,1144,experiment,76,↑,up,↑,0.7255195000907406,True,28,1
JL-K-20K20S2,1145,experiment,94,←,left,←,0.504684199928306,True,28,1
JL-K-20K20S2,1146,experiment,105,↑,up,↑,0.6490668000187725,True,28,1
JL-K-20K20S2,1147,experiment,57,→,right,→,0.46772920002695173,True,28,1
JL-K-20K20S2,1148,experiment,72,↓,down,↓,0.5847681999439374,True,28,1
JL-K-20K20S2,1149,experiment,61,←,left,←,0.49317750008776784,True,28,1
JL-K-20K20S2,1150,experiment,56,↓,down,↓,0.6943115000613034,True,28,1
JL-K-20K20S2,1151,experiment,65,→,left,←,0.5486908999737352,False,28,1
JL-K-20K20S2,1152,experiment,49,↓,down,↓,0.542249699938111,True,28,1
JL-K-20K20S2,1153,experiment,92,↓,down,↓,0.5535088999895379,True,28,1
JL-K-20K20S2,1154,experiment,75,←,left,←,0.4186659000115469,True,28,1
JL-K-20K20S2,1155,experiment,80,←,left,←,0.5827853999799117,True,28,1
JL-K-20K20S2,1156,experiment,97,→,left,←,0.43068140000104904,False,28,1
JL-K-20K20S2,1157,experiment,89,↑,up,↑,0.4555354999611154,True,28,1
JL-K-20K20S2,1158,experiment,52,↓,down,↓,0.48384679993614554,True,28,1
JL-K-20K20S2,1159,experiment,100,→,right,→,0.43868479994125664,True,28,1
JL-K-20K20S2,1160,experiment,48,←,left,←,0.4691041000187397,True,28,1
JL-K-20K20S2,1161,experiment,93,↓,down,↓,0.626514200004749,True,28,1
JL-K-20K20S2,1162,experiment,62,↓,down,↓,0.5884824000531808,True,28,1
JL-K-20K20S2,1163,experiment,50,←,up,↑,0.8440869000041857,False,28,1
JL-K-20K20S2,1164,experiment,64,→,right,→,0.5084813999710605,True,28,1
JL-K-20K20S2,1165,experiment,82,→,right,→,0.5885990000097081,True,28,1
JL-K-20K20S2,1166,experiment,53,↓,down,↓,0.5868916000472382,True,28,1
JL-K-20K20S2,1167,experiment,67,↑,down,↓,0.6046766999643296,False,28,1
JL-K-20K20S2,1168,experiment,107,←,no_key,no_letter,-1.0,False,28,1
JL-K-20K20S2,1169,experiment,103,↓,down,↓,0.5774538000114262,True,28,1
JL-K-20K20S2,1170,experiment,102,←,left,←,0.46383609995245934,True,28,1
JL-K-20K20S2,1171,experiment,68,←,left,←,0.44631009991280735,True,28,1
JL-K-20K20S2,1172,experiment,91,↑,up,↑,0.6295364999677986,True,28,1
JL-K-20K20S2,1173,experiment,101,→,left,←,0.6343210000777617,False,28,1
JL-K-20K20S2,1174,experiment,84,↓,down,↓,0.53267029998824,True,28,1
JL-K-20K20S2,1175,training,88,↓,down,↓,0.564824300003238,True,28,0
JL-K-20K20S2,1176,training,77,↑,down,↓,0.5882208999246359,False,28,1
JL-K-20K20S2,1177,experiment,86,↑,up,↑,0.7197298000101,True,28,1
JL-K-20K20S2,1178,experiment,68,→,right,→,0.6279630999779329,True,28,1
JL-K-20K20S2,1179,experiment,79,↑,up,↑,0.4801027999492362,True,28,1
JL-K-20K20S2,1180,experiment,90,↑,down,↓,0.5904061000328511,False,28,1
JL-K-20K20S2,1181,experiment,49,←,left,←,0.4301536000566557,True,28,1
JL-K-20K20S2,1182,experiment,78,←,left,←,0.5626427000388503,True,28,1
JL-K-20K20S2,1183,experiment,76,↓,down,↓,0.4984638999449089,True,28,1
JL-K-20K20S2,1184,experiment,73,←,left,←,0.6378491999348626,True,28,1
JL-K-20K20S2,1185,experiment,98,→,left,←,0.7393218000652269,False,28,1
JL-K-20K20S2,1186,experiment,85,↓,down,↓,0.6570069000590593,True,28,1
JL-K-20K20S2,1187,experiment,87,←,left,←,0.96923990000505,True,28,1
JL-K-20K20S2,1188,experiment,103,→,left,←,0.6156010000267997,False,28,1
JL-K-20K20S2,1189,experiment,52,→,right,→,0.4931836000178009,True,28,1
JL-K-20K20S2,1190,experiment,83,↓,down,↓,0.49377210007514805,True,28,1
JL-K-20K20S2,1191,experiment,55,←,left,←,0.7270618000766262,True,28,1
JL-K-20K20S2,1192,experiment,63,←,no_key,no_letter,-1.0,False,28,1
JL-K-20K20S2,1193,experiment,74,↑,up,↑,0.5996941000921652,True,28,1
JL-K-20K20S2,1194,experiment,51,→,right,→,0.6548146000131965,True,28,1
JL-K-20K20S2,1195,experiment,69,←,left,←,0.7249143000226468,True,28,1
JL-K-20K20S2,1196,experiment,101,↑,right,→,0.9339238000102341,False,28,1
JL-K-20K20S2,1197,experiment,58,←,left,←,0.5007842000341043,True,28,1
JL-K-20K20S2,1198,experiment,89,↓,down,↓,0.49076219997368753,True,28,1
JL-K-20K20S2,1199,experiment,108,↑,up,↑,0.5552443000487983,True,28,1
JL-K-20K20S2,1200,experiment,62,↑,up,↑,0.720077299978584,True,28,1
JL-K-20K20S2,1201,experiment,56,→,right,→,0.4241825999924913,True,28,1
JL-K-20K20S2,1202,experiment,60,↑,up,↑,1.3308821999235079,True,28,1
JL-K-20K20S2,1203,experiment,64,←,right,→,0.5196913999971002,False,28,1
JL-K-20K20S2,1204,experiment,106,↑,up,↑,0.47958200005814433,True,28,1
JL-K-20K20S2,1205,experiment,59,→,right,→,0.4403609000146389,True,28,1
JL-K-20K20S2,1206,experiment,100,←,left,←,0.4050291000166908,True,28,1
JL-K-20K20S2,1207,experiment,107,←,left,←,0.32547600008547306,True,28,0
JL-K-20K20S2,1208,experiment,75,←,left,←,0.3847129999194294,True,28,0
JL-K-20K20S2,1209,experiment,77,↑,down,↓,0.7767236999934539,False,28,1
JL-K-20K20S2,1210,experiment,88,←,no_key,no_letter,-1.0,False,28,1
JL-K-20K20S2,1211,experiment,72,↓,down,↓,0.6235584999667481,True,28,1
JL-K-20K20S2,1212,experiment,82,→,right,→,0.4749292000196874,True,28,1
JL-K-20K20S2,1213,experiment,70,↑,down,↓,0.5524086999939755,False,28,1
JL-K-20K20S2,1214,experiment,61,→,right,→,0.5737898000515997,True,28,1
JL-K-20K20S2,1215,experiment,102,→,right,→,0.5164386000251397,True,28,1
JL-K-20K20S2,1216,experiment,54,↓,down,↓,0.5976942999986932,True,28,1
JL-K-20K20S2,1217,experiment,80,→,down,↓,0.6187737999716774,False,28,1
JL-K-20K20S2,1218,experiment,104,↑,down,↓,0.6708870999282226,False,28,1
JL-K-20K20S2,1219,experiment,71,→,right,→,0.45174500008579344,True,28,1
JL-K-20K20S2,1220,experiment,95,←,down,↓,0.7856655999785289,False,28,1
JL-K-20K20S2,1221,experiment,66,↓,down,↓,0.6197927999310195,True,28,1
JL-K-20K20S2,1222,experiment,67,↓,down,↓,0.4445665000239387,True,28,1
JL-K-20K20S2,1223,experiment,94,→,right,→,0.4194070000667125,True,28,1
JL-K-20K20S2,1224,experiment,97,↑,down,↓,0.5218253000639379,False,28,1
JL-K-20K20S2,1225,experiment,84,←,left,←,0.5843955999007449,True,28,1
JL-K-20K20S2,1226,experiment,96,↓,down,↓,0.624900099937804,True,28,1
JL-K-20K20S2,1227,experiment,91,↓,down,↓,0.657215700019151,True,28,1
JL-K-20K20S2,1228,experiment,48,↓,down,↓,0.6945466999895871,True,28,1
JL-K-20K20S2,1229,experiment,92,↓,down,↓,0.6199918000493199,True,28,1
JL-K-20K20S2,1230,experiment,99,→,right,→,0.7375198999652639,True,28,1
JL-K-20K20S2,1231,experiment,50,←,left,←,0.6354462000308558,True,28,1
JL-K-20K20S2,1232,experiment,65,↓,down,↓,0.5638980000512674,True,28,1
JL-K-20K20S2,1233,experiment,53,↑,up,↑,0.7071772000053898,True,28,1
JL-K-20K20S2,1234,experiment,93,→,right,→,0.5193844999885187,True,28,1
JL-K-20K20S2,1235,experiment,57,→,right,→,0.4316264999797568,True,28,1
JL-K-20K20S2,1236,experiment,81,↑,left,←,0.44309279997833073,False,28,1
JL-K-20K20S2,1237,experiment,105,↓,down,↓,0.47015129995997995,True,28,1
JL-K-20K20S2,1238,training,70,↓,down,↓,0.5044886000687256,True,28,0
JL-K-20K20S2,1239,training,94,↑,up,↑,0.5004367999499664,True,28,1
JL-K-20K20S2,1240,experiment,106,→,no_key,no_letter,-1.0,False,28,1
JL-K-20K20S2,1241,experiment,95,←,right,→,0.5288330999901518,False,28,1
JL-K-20K20S2,1242,experiment,88,→,right,→,0.384427500073798,True,28,1
JL-K-20K20S2,1243,experiment,74,↓,down,↓,0.4853259000228718,True,28,0
JL-K-20K20S2,1244,experiment,61,↑,down,↓,0.7573411000194028,False,28,1
JL-K-20K20S2,1245,experiment,87,↑,up,↑,0.48971250001341105,True,28,1
JL-K-20K20S2,1246,experiment,64,→,right,→,0.528532600030303,True,28,1
JL-K-20K20S2,1247,experiment,65,←,left,←,0.42164399998728186,True,28,1
JL-K-20K20S2,1248,experiment,75,↑,up,↑,0.41943820007145405,True,28,1
JL-K-20K20S2,1249,experiment,99,↑,down,↓,0.6014477000571787,False,28,1
JL-K-20K20S2,1250,experiment,97,↑,up,↑,0.6808132999576628,True,28,1
JL-K-20K20S2,1251,experiment,85,↓,down,↓,0.5609219999751076,True,28,1
JL-K-20K20S2,1252,experiment,96,←,left,←,0.5062840000027791,True,28,1
JL-K-20K20S2,1253,experiment,55,↑,left,←,0.7232980999397114,False,28,1
JL-K-20K20S2,1254,experiment,108,←,left,←,0.4183983000693843,True,28,1
JL-K-20K20S2,1255,experiment,58,→,left,←,0.4936177999479696,False,28,1
JL-K-20K20S2,1256,experiment,79,↑,down,↓,0.7272472999757156,False,28,1
JL-K-20K20S2,1257,experiment,89,→,left,←,0.483918699901551,False,28,1
JL-K-20K20S2,1258,experiment,94,↓,down,↓,0.5608158999821171,True,28,1
JL-K-20K20S2,1259,experiment,91,↑,down,↓,0.5799115999834612,False,28,1
JL-K-20K20S2,1260,experiment,73,↓,down,↓,0.5721161999972537,True,28,1
JL-K-20K20S2,1261,experiment,100,←,left,←,0.4833136999513954,True,28,1
JL-K-20K20S2,1262,experiment,48,←,left,←,0.743777499999851,True,28,1
JL-K-20K20S2,1263,experiment,62,↑,down,↓,0.6369123999029398,False,28,1
JL-K-20K20S2,1264,experiment,103,↑,up,↑,0.488832600065507,True,28,1
JL-K-20K20S2,1265,experiment,52,↑,up,↑,0.5476649000775069,True,28,1
JL-K-20K20S2,1266,experiment,82,→,no_key,no_letter,-1.0,False,28,1
JL-K-20K20S2,1267,experiment,78,→,right,→,0.45961550006177276,True,28,1
JL-K-20K20S2,1268,experiment,49,↓,left,←,1.8329347000690177,False,28,1
JL-K-20K20S2,1269,experiment,71,→,right,→,0.9192274000961334,True,28,1
JL-K-20K20S2,1270,experiment,105,↑,down,↓,0.5912855999777094,False,28,1
JL-K-20K20S2,1271,experiment,76,→,no_key,no_letter,-1.0,False,28,1
JL-K-20K20S2,1272,experiment,51,↓,down,↓,0.608373999944888,True,28,1
JL-K-20K20S2,1273,experiment,54,↑,up,↑,0.7095206999219954,True,28,1
JL-K-20K20S2,1274,experiment,86,↓,down,↓,0.46794570004567504,True,28,1
JL-K-20K20S2,1275,experiment,104,→,right,→,0.5106499999528751,True,28,1
JL-K-20K20S2,1276,experiment,67,→,right,→,0.4598536998964846,True,28,1
JL-K-20K20S2,1277,experiment,102,↑,up,↑,0.5591328999726102,True,28,1
JL-K-20K20S2,1278,experiment,68,←,left,←,0.46603430004324764,True,28,1
JL-K-20K20S2,1279,experiment,83,↑,up,↑,0.4911306001013145,True,28,1
JL-K-20K20S2,1280,experiment,98,←,right,→,0.6147708999924362,False,28,1
JL-K-20K20S2,1281,experiment,70,↓,up,↑,0.6544640000211075,False,28,1
JL-K-20K20S2,1282,experiment,90,←,left,←,0.8698293999768794,True,28,1
JL-K-20K20S2,1283,experiment,77,↑,up,↑,0.48109600006137043,True,28,1
JL-K-20K20S2,1284,experiment,56,→,left,←,0.6749169999966398,False,28,1
JL-K-20K20S2,1285,experiment,101,↓,down,↓,0.5420011000242084,True,28,1
JL-K-20K20S2,1286,experiment,92,←,left,←,0.6013845999259502,True,28,1
JL-K-20K20S2,1287,experiment,59,→,left,←,0.533457399928011,False,28,1
JL-K-20K20S2,1288,experiment,63,↓,down,↓,0.6508097000187263,True,28,1
JL-K-20K20S2,1289,experiment,50,→,right,→,0.5520068999612704,True,28,1
JL-K-20K20S2,1290,experiment,93,↑,up,↑,0.5702421000460163,True,28,1
JL-K-20K20S2,1291,experiment,69,→,left,←,0.5324412999907508,False,28,1
JL-K-20K20S2,1292,experiment,57,→,left,←,0.37606989999767393,False,28,1
JL-K-20K20S2,1293,experiment,80,←,left,←,0.6255529999034479,True,28,1
JL-K-20K20S2,1294,experiment,107,→,right,→,0.6125060999765992,True,28,1
JL-K-20K20S2,1295,experiment,66,←,left,←,0.49368029995821416,True,28,1
JL-K-20K20S2,1296,experiment,53,↓,down,↓,0.5596935000503436,True,28,1
JL-K-20K20S2,1297,experiment,84,↑,down,↓,0.6373488999670371,False,28,1
JL-K-20K20S2,1298,experiment,72,→,left,←,0.5794496999587864,False,28,1
JL-K-20K20S2,1299,experiment,60,↑,up,↑,0.4961616999935359,True,28,1
JL-K-20K20S2,1300,experiment,81,↓,down,↓,0.5047068999847397,True,28,1
JL-K-20K20S2,1301,training,56,↑,down,↓,0.5491521999938414,False,28,0
JL-K-20K20S2,1302,training,79,←,left,←,0.6925824000500143,True,28,1
JL-K-20K20S2,1303,experiment,74,↑,up,↑,0.471887500025332,True,28,1
JL-K-20K20S2,1304,experiment,82,→,right,→,0.45718779996968806,True,28,1
JL-K-20K20S2,1305,experiment,56,↑,down,↓,0.6198520999168977,False,28,1
JL-K-20K20S2,1306,experiment,99,↑,up,↑,0.5780058999080211,True,28,1
JL-K-20K20S2,1307,experiment,57,→,right,→,0.6160293000284582,True,28,1
JL-K-20K20S2,1308,experiment,67,←,left,←,0.4485539000015706,True,28,1
JL-K-20K20S2,1309,experiment,98,←,left,←,0.5415793999563903,True,28,1
JL-K-20K20S2,1310,experiment,69,↓,down,↓,0.4649128000019118,True,28,1
JL-K-20K20S2,1311,experiment,71,→,right,→,0.4380974000087008,True,28,1
JL-K-20K20S2,1312,experiment,55,←,right,→,0.6017593001015484,False,28,1
JL-K-20K20S2,1313,experiment,97,←,left,←,0.46527200005948544,True,28,1
JL-K-20K20S2,1314,experiment,51,←,left,←,0.46949659998063,True,28,1
JL-K-20K20S2,1315,experiment,53,↓,down,↓,0.544902199995704,True,28,1
JL-K-20K20S2,1316,experiment,73,←,left,←,0.3594794999808073,True,28,1
JL-K-20K20S2,1317,experiment,66,→,left,←,0.6456075999885798,False,28,0
JL-K-20K20S2,1318,experiment,106,←,left,←,0.35270199994556606,True,28,1
JL-K-20K20S2,1319,experiment,101,↓,down,↓,0.5514421999687329,True,28,0
JL-K-20K20S2,1320,experiment,70,→,right,→,0.5778193000005558,True,28,1
JL-K-20K20S2,1321,experiment,49,→,right,→,0.45841640001162887,True,28,1
JL-K-20K20S2,1322,experiment,92,→,right,→,0.49691539991181344,True,28,1
JL-K-20K20S2,1323,experiment,58,↑,up,↑,0.521553699974902,True,28,1
JL-K-20K20S2,1324,experiment,89,→,right,→,0.6064581999089569,True,28,1
JL-K-20K20S2,1325,experiment,93,↓,down,↓,0.5186246000230312,True,28,1
JL-K-20K20S2,1326,experiment,77,→,left,←,0.7918270999798551,False,28,1
JL-K-20K20S2,1327,experiment,75,←,left,←,0.3846161999972537,True,28,1
JL-K-20K20S2,1328,experiment,68,←,left,←,0.3589970999164507,True,28,0
JL-K-20K20S2,1329,experiment,96,↓,down,↓,0.6894761000294238,True,28,0
JL-K-20K20S2,1330,experiment,59,↑,up,↑,0.7298074999125674,True,28,1
JL-K-20K20S2,1331,experiment,90,↓,down,↓,0.6303235999075696,True,28,1
JL-K-20K20S2,1332,experiment,65,←,left,←,0.4632817000383511,True,28,1
JL-K-20K20S2,1333,experiment,50,↓,down,↓,0.5313882000045851,True,28,1
JL-K-20K20S2,1334,experiment,48,→,down,↓,0.6139309999998659,False,28,1
JL-K-20K20S2,1335,experiment,87,→,right,→,0.42383079999126494,True,28,1
JL-K-20K20S2,1336,experiment,103,→,right,→,0.6362034999765456,True,28,1
JL-K-20K20S2,1337,experiment,61,←,left,←,0.46243780001532286,True,28,1
JL-K-20K20S2,1338,experiment,91,↓,down,↓,0.565242699929513,True,28,1
JL-K-20K20S2,1339,experiment,108,→,right,→,0.4421343000140041,True,28,1
JL-K-20K20S2,1340,experiment,88,↓,down,↓,0.47470289992634207,True,28,1
JL-K-20K20S2,1341,experiment,79,↓,down,↓,0.4613930999767035,True,28,1
JL-K-20K20S2,1342,experiment,84,↑,up,↑,0.44650239998009056,True,28,1
JL-K-20K20S2,1343,experiment,104,→,right,→,0.4016264999518171,True,28,1
JL-K-20K20S2,1344,experiment,80,←,right,→,0.8224458999466151,False,28,0
JL-K-20K20S2,1345,experiment,105,→,left,←,0.5700784000800923,False,28,1
JL-K-20K20S2,1346,experiment,86,→,right,→,0.4706659000366926,True,28,1
JL-K-20K20S2,1347,experiment,72,↑,up,↑,0.5232248000102118,True,28,1
JL-K-20K20S2,1348,experiment,76,←,left,←,0.4208257000427693,True,28,1
JL-K-20K20S2,1349,experiment,102,←,left,←,0.41061360004823655,True,28,1
JL-K-20K20S2,1350,experiment,78,↓,down,↓,0.5268867000704631,True,28,1
JL-K-20K20S2,1351,experiment,83,↑,down,↓,0.7978541000047699,False,28,1
JL-K-20K20S2,1352,experiment,94,←,left,←,0.3595579999964684,True,28,1
JL-K-20K20S2,1353,experiment,100,↓,down,↓,0.5019672999624163,True,28,1
JL-K-20K20S2,1354,experiment,81,→,right,→,0.4466899000108242,True,28,1
JL-K-20K20S2,1355,experiment,95,←,left,←,0.6207019999856129,True,28,1
JL-K-20K20S2,1356,experiment,85,→,left,←,0.5273054999997839,False,28,1
JL-K-20K20S2,1357,experiment,60,→,no_key,no_letter,-1.0,False,28,1
JL-K-20K20S2,1358,experiment,63,→,right,→,0.7164016999304295,True,28,1
JL-K-20K20S2,1359,experiment,52,←,left,←,0.5342273999704048,True,28,1
JL-K-20K20S2,1360,experiment,54,←,left,←,0.43873159994836897,True,28,1
JL-K-20K20S2,1361,experiment,107,↑,up,↑,0.5529579999856651,True,28,1
JL-K-20K20S2,1362,experiment,62,↓,down,↓,0.4698133000638336,True,28,1
JL-K-20K20S2,1363,experiment,64,→,left,←,0.6055160999530926,False,28,1
JL-K-20K20S2,1364,training,80,↑,down,↓,0.5660632000071928,False,28,0
JL-K-20K20S2,1365,training,92,↓,down,↓,0.47247799998149276,True,28,1
JL-K-20K20S2,1366,experiment,95,←,left,←,0.525689100031741,True,28,1
JL-K-20K20S2,1367,experiment,56,↑,up,↑,0.4937682000454515,True,28,1
JL-K-20K20S2,1368,experiment,90,↑,up,↑,0.6837159000569955,True,28,1
JL-K-20K20S2,1369,experiment,55,↓,down,↓,0.717835700022988,True,28,1
JL-K-20K20S2,1370,experiment,84,↓,down,↓,0.4928377000615001,True,28,1
JL-K-20K20S2,1371,experiment,52,→,right,→,0.4475285999942571,True,28,1
JL-K-20K20S2,1372,experiment,88,→,right,→,0.42401680001057684,True,28,1
JL-K-20K20S2,1373,experiment,71,←,left,←,0.44717219995800406,True,28,1
JL-K-20K20S2,1374,experiment,65,←,left,←,0.5272799999220297,True,28,1
JL-K-20K20S2,1375,experiment,91,→,right,→,0.7315475000068545,True,28,1
JL-K-20K20S2,1376,experiment,70,←,left,←,0.4148095999844372,True,28,1
JL-K-20K20S2,1377,experiment,53,→,right,→,0.4841660000383854,True,28,1
JL-K-20K20S2,1378,experiment,60,↓,down,↓,0.6687195000704378,True,28,1
JL-K-20K20S2,1379,experiment,54,→,left,←,0.4715273000765592,False,28,1
JL-K-20K20S2,1380,experiment,66,→,right,→,0.6623777000932023,True,28,1
JL-K-20K20S2,1381,experiment,58,↑,right,→,0.6481583000859246,False,28,1
JL-K-20K20S2,1382,experiment,98,←,left,←,0.557029000017792,True,28,1
JL-K-20K20S2,1383,experiment,68,←,left,←,0.6238516999874264,True,28,1
JL-K-20K20S2,1384,experiment,104,↓,up,↑,0.7398488000035286,False,28,1
JL-K-20K20S2,1385,experiment,82,←,left,←,0.4185871999943629,True,28,1
JL-K-20K20S2,1386,experiment,78,↑,up,↑,0.43937939999159425,True,28,1
JL-K-20K20S2,1387,experiment,105,→,left,←,0.6105129000497982,False,28,1
JL-K-20K20S2,1388,experiment,92,↑,up,↑,0.6111460000975057,True,28,1
JL-K-20K20S2,1389,experiment,69,↑,left,←,0.6035965000046417,False,28,1
JL-K-20K20S2,1390,experiment,107,←,left,←,0.423489399952814,True,28,1
JL-K-20K20S2,1391,experiment,97,→,right,→,0.3759521999163553,True,28,1
JL-K-20K20S2,1392,experiment,102,↑,up,↑,0.7162191000534222,True,28,1
JL-K-20K20S2,1393,experiment,81,←,no_key,no_letter,-1.0,False,28,1
JL-K-20K20S2,1394,experiment,49,←,left,←,0.5516031000297517,True,28,1
JL-K-20K20S2,1395,experiment,73,↑,up,↑,0.46495940000750124,True,28,1
JL-K-20K20S2,1396,experiment,64,←,left,←,0.44081249996088445,True,28,1
JL-K-20K20S2,1397,experiment,75,→,left,←,0.5417412000242621,False,28,1
JL-K-20K20S2,1398,experiment,89,←,left,←,0.4661100000375882,True,28,1
JL-K-20K20S2,1399,experiment,77,↓,down,↓,0.5176483999239281,True,28,1
JL-K-20K20S2,1400,experiment,103,→,right,→,0.43027120002079755,True,28,1
JL-K-20K20S2,1401,experiment,108,→,right,→,0.48863899998832494,True,28,1
JL-K-20K20S2,1402,experiment,85,←,left,←,0.31722480000462383,True,28,1
JL-K-20K20S2,1403,experiment,72,←,left,←,0.38457420002669096,True,28,0
JL-K-20K20S2,1404,experiment,50,→,right,→,0.6267310000257567,True,28,1
JL-K-20K20S2,1405,experiment,106,↑,up,↑,0.4299650000175461,True,28,1
JL-K-20K20S2,1406,experiment,62,←,left,←,0.43993590003810823,True,28,1
JL-K-20K20S2,1407,experiment,93,↑,up,↑,0.6710470999823883,True,28,1
JL-K-20K20S2,1408,experiment,48,↓,down,↓,0.6765932999551296,True,28,1
JL-K-20K20S2,1409,experiment,99,↑,up,↑,0.4233499000547454,True,28,1
JL-K-20K20S2,1410,experiment,59,→,right,→,0.45033839996904135,True,28,1
JL-K-20K20S2,1411,experiment,94,↑,up,↑,0.45693810004740953,True,28,1
JL-K-20K20S2,1412,experiment,100,↓,down,↓,0.6128954999148846,True,28,1
JL-K-20K20S2,1413,experiment,76,→,no_key,no_letter,-1.0,False,28,1
JL-K-20K20S2,1414,experiment,74,←,left,←,0.6695347999921069,True,28,1
JL-K-20K20S2,1415,experiment,79,←,left,←,0.40810230001807213,True,28,1
JL-K-20K20S2,1416,experiment,57,↓,down,↓,0.5566050999332219,True,28,1
JL-K-20K20S2,1417,experiment,83,↑,down,↓,0.6666602999903262,False,28,1
JL-K-20K20S2,1418,experiment,80,←,left,←,0.3842570000560954,True,28,1
JL-K-20K20S2,1419,experiment,87,↑,up,↑,0.5837873999262229,True,28,0
JL-K-20K20S2,1420,experiment,51,↑,down,↓,0.6793190999887884,False,28,1
JL-K-20K20S2,1421,experiment,96,↓,down,↓,0.6194851000327617,True,28,1
JL-K-20K20S2,1422,experiment,101,↑,down,↓,0.672930600005202,False,28,1
JL-K-20K20S2,1423,experiment,86,←,left,←,0.5690449000103399,True,28,1
JL-K-20K20S2,1424,experiment,67,→,left,←,0.5637271000305191,False,28,1
JL-K-20K20S2,1425,experiment,63,↓,down,↓,0.6637530999723822,True,28,1
JL-K-20K20S2,1426,experiment,61,→,right,→,0.904555800021626,True,28,1
JL-K-20K20S2,1427,training,79,↓,down,↓,0.5282948999665678,True,28,0
JL-K-20K20S2,1428,training,91,→,no_key,no_letter,-1.0,False,28,1
JL-K-20K20S2,1429,experiment,90,↓,down,↓,0.5138620999641716,True,28,1
JL-K-20K20S2,1430,experiment,103,↑,up,↑,0.5545679000206292,True,28,1
JL-K-20K20S2,1431,experiment,62,←,left,←,0.5033278000773862,True,28,1
JL-K-20K20S2,1432,experiment,96,↑,up,↑,0.5147970999823883,True,28,1
JL-K-20K20S2,1433,experiment,56,←,right,→,0.5953196999616921,False,28,1
JL-K-20K20S2,1434,experiment,54,↓,down,↓,0.5927657000720501,True,28,1
JL-K-20K20S2,1435,experiment,55,↑,up,↑,0.4626660000067204,True,28,1
JL-K-20K20S2,1436,experiment,82,→,right,→,0.44042420003097504,True,28,1
JL-K-20K20S2,1437,experiment,75,→,no_key,no_letter,-1.0,False,28,1
JL-K-20K20S2,1438,experiment,70,↑,up,↑,0.6656448000576347,True,28,1
JL-K-20K20S2,1439,experiment,69,→,right,→,0.3847007000586018,True,28,1
JL-K-20K20S2,1440,experiment,88,←,left,←,0.4504604999674484,True,28,0
JL-K-20K20S2,1441,experiment,51,↑,up,↑,0.5671984000364318,True,28,1
JL-K-20K20S2,1442,experiment,91,→,right,→,0.40267350000794977,True,28,1
JL-K-20K20S2,1443,experiment,72,↑,up,↑,0.5136144000571221,True,28,0
