PART_ID,Trial_no,Trial_type,CSI,Stim_letter,Key_pressed,letter_choose,Rt,Corr,Stimulus Time,nDropped
JP-M-23M23S1,1,training,120,↓,right,→,0.9620695000048727,False,60,0
JP-M-23M23S1,2,training,120,↑,up,↑,0.7724713999778032,True,60,0
JP-M-23M23S1,3,training,120,→,right,→,0.726252399967052,True,60,0
JP-M-23M23S1,4,training,120,↓,right,→,0.6817799001000822,False,60,0
JP-M-23M23S1,5,training,120,←,left,←,0.6505469999974594,True,60,0
JP-M-23M23S1,6,training,120,→,right,→,0.592024700017646,True,60,0
JP-M-23M23S1,7,training,120,↑,no_key,no_letter,-1.0,False,60,0
JP-M-23M23S1,8,training,120,←,left,←,0.6012996999779716,True,60,0
JP-M-23M23S1,9,training,120,↑,up,↑,0.7362362000858411,True,60,0
JP-M-23M23S1,10,training,120,↓,down,↓,0.7395220000762492,True,60,0
JP-M-23M23S1,11,training,120,↓,left,←,0.42667100008111447,False,60,0
JP-M-23M23S1,12,training,120,←,left,←,0.763191300095059,True,60,0
JP-M-23M23S1,13,training,120,↑,up,↑,0.6701288999756798,True,60,0
JP-M-23M23S1,14,training,120,←,left,←,0.6254754000110552,True,60,0
JP-M-23M23S1,15,training,120,↑,up,↑,0.7460484999464825,True,60,0
JP-M-23M23S1,16,training,120,←,left,←,0.64232790004462,True,60,0
JP-M-23M23S1,17,training,120,↓,down,↓,0.7233885999303311,True,60,0
JP-M-23M23S1,18,training,120,↑,up,↑,0.7034210000419989,True,60,0
JP-M-23M23S1,19,training,120,↑,up,↑,0.6173030000645667,True,60,0
JP-M-23M23S1,20,training,120,↓,down,↓,0.7156217999290675,True,60,0
JP-M-23M23S1,21,no_adaptation,120,↓,down,↓,0.5656253000488505,True,36,0
JP-M-23M23S1,22,no_adaptation,120,←,left,←,0.6633054000558332,True,36,0
JP-M-23M23S1,23,no_adaptation,120,→,down,↓,0.7493845999706537,False,36,0
JP-M-23M23S1,24,no_adaptation,120,↑,no_key,no_letter,-1.0,False,36,0
JP-M-23M23S1,25,no_adaptation,120,↓,right,→,1.2278129999758676,False,36,0
JP-M-23M23S1,26,no_adaptation,120,→,right,→,0.7384065000806004,True,36,0
JP-M-23M23S1,27,no_adaptation,120,←,left,←,0.581440299982205,True,36,0
JP-M-23M23S1,28,no_adaptation,120,↓,down,↓,0.7830116000259295,True,36,0
JP-M-23M23S1,29,no_adaptation,120,↓,no_key,no_letter,-1.0,False,36,0
JP-M-23M23S1,30,no_adaptation,120,↑,down,↓,0.7625933000817895,False,36,0
JP-M-23M23S1,31,no_adaptation,120,→,left,←,0.8850795000325888,False,36,0
JP-M-23M23S1,32,no_adaptation,120,↓,down,↓,0.6421368999872357,True,36,0
JP-M-23M23S1,33,no_adaptation,120,←,left,←,0.5929745000321418,True,36,0
JP-M-23M23S1,34,no_adaptation,120,↓,down,↓,0.7699813999934122,True,36,0
JP-M-23M23S1,35,no_adaptation,120,↓,down,↓,0.6120833999011666,True,36,0
JP-M-23M23S1,36,no_adaptation,120,↓,down,↓,0.5637736999196932,True,36,0
JP-M-23M23S1,37,no_adaptation,120,←,left,←,0.7020529999863356,True,36,0
JP-M-23M23S1,38,no_adaptation,120,↑,down,↓,0.6504564000060782,False,36,0
JP-M-23M23S1,39,no_adaptation,120,→,right,→,0.6252514999359846,True,36,0
JP-M-23M23S1,40,no_adaptation,120,↑,up,↑,0.7289575999602675,True,36,0
JP-M-23M23S1,41,training,94,←,right,→,0.6070729000493884,False,36,0
JP-M-23M23S1,42,training,59,↓,down,↓,0.6834991000359878,True,36,1
JP-M-23M23S1,43,experiment,72,→,down,↓,0.7449410000117496,False,36,1
JP-M-23M23S1,44,experiment,64,→,right,→,0.9984215999720618,True,36,1
JP-M-23M23S1,45,experiment,49,↑,up,↑,0.6307451999746263,True,36,1
JP-M-23M23S1,46,experiment,83,→,right,→,0.6027416000142694,True,36,1
JP-M-23M23S1,47,experiment,68,→,right,→,0.6524287000065669,True,36,1
JP-M-23M23S1,48,experiment,102,→,right,→,0.5131549000507221,True,36,1
JP-M-23M23S1,49,experiment,101,↓,down,↓,0.6275108000263572,True,36,1
JP-M-23M23S1,50,experiment,52,→,right,→,0.6255891000619158,True,36,1
JP-M-23M23S1,51,experiment,81,↓,down,↓,0.4942530000116676,True,36,1
JP-M-23M23S1,52,experiment,69,←,right,→,0.5720548999961466,False,36,1
JP-M-23M23S1,53,experiment,87,→,right,→,0.7609297001035884,True,36,1
JP-M-23M23S1,54,experiment,59,→,left,←,0.7353089000098407,False,36,1
JP-M-23M23S1,55,experiment,88,←,left,←,0.6052903999807313,True,36,1
JP-M-23M23S1,56,experiment,53,←,left,←,0.5079699999187142,True,36,1
JP-M-23M23S1,57,experiment,50,→,right,→,0.5995714999735355,True,36,1
JP-M-23M23S1,58,experiment,75,←,left,←,0.6549892000621185,True,36,1
JP-M-23M23S1,59,experiment,90,←,left,←,0.7192295999266207,True,36,1
JP-M-23M23S1,60,experiment,62,←,left,←,0.7108049000380561,True,36,1
JP-M-23M23S1,61,experiment,97,↓,down,↓,0.5871171000180766,True,36,1
JP-M-23M23S1,62,experiment,55,↓,down,↓,0.6175992999924347,True,36,1
JP-M-23M23S1,63,experiment,108,←,left,←,0.6136200999608263,True,36,1
JP-M-23M23S1,64,experiment,63,↓,right,→,0.664585700025782,False,36,1
JP-M-23M23S1,65,experiment,92,↓,down,↓,0.7038952999282628,True,36,1
JP-M-23M23S1,66,experiment,78,←,left,←,0.554260200005956,True,36,1
JP-M-23M23S1,67,experiment,70,↑,up,↑,0.549178299959749,True,36,1
JP-M-23M23S1,68,experiment,71,→,right,→,1.6320208999095485,True,36,1
JP-M-23M23S1,69,experiment,80,→,left,←,0.8769514999585226,False,36,1
JP-M-23M23S1,70,experiment,85,↓,down,↓,0.7264308000449091,True,36,1
JP-M-23M23S1,71,experiment,79,↑,down,↓,0.7758231000043452,False,36,1
JP-M-23M23S1,72,experiment,61,↑,down,↓,0.9412794999079779,False,36,1
JP-M-23M23S1,73,experiment,103,→,right,→,0.6379879999440163,True,36,1
JP-M-23M23S1,74,experiment,95,←,right,→,0.7894694999558851,False,36,1
JP-M-23M23S1,75,experiment,96,↓,down,↓,0.7023946999106556,True,36,1
JP-M-23M23S1,76,experiment,58,←,left,←,0.6002598999766633,True,36,1
JP-M-23M23S1,77,experiment,60,→,right,→,0.508244700031355,True,36,1
JP-M-23M23S1,78,experiment,99,↓,down,↓,0.6076955000171438,True,36,1
JP-M-23M23S1,79,experiment,100,↑,up,↑,0.6384362999815494,True,36,1
JP-M-23M23S1,80,experiment,73,↑,up,↑,0.6450754000106826,True,36,1
JP-M-23M23S1,81,experiment,57,←,left,←,0.6732788999797776,True,36,1
JP-M-23M23S1,82,experiment,65,→,right,→,0.4814744999166578,True,36,1
JP-M-23M23S1,83,experiment,82,←,left,←,0.915074700023979,True,36,1
JP-M-23M23S1,84,experiment,56,←,left,←,0.5803001000313088,True,36,1
JP-M-23M23S1,85,experiment,94,↓,down,↓,0.5343920000595972,True,36,1
JP-M-23M23S1,86,experiment,98,→,right,→,0.5209242000710219,True,36,1
JP-M-23M23S1,87,experiment,67,↑,up,↑,0.6941154999658465,True,36,1
JP-M-23M23S1,88,experiment,86,↓,down,↓,0.6546969000482932,True,36,1
JP-M-23M23S1,89,experiment,48,→,right,→,0.4849750999128446,True,36,1
JP-M-23M23S1,90,experiment,84,↓,down,↓,0.5821209999267012,True,36,1
JP-M-23M23S1,91,experiment,54,→,right,→,0.44177330005913973,True,36,1
JP-M-23M23S1,92,experiment,77,←,left,←,0.5863311999710277,True,36,0
JP-M-23M23S1,93,experiment,105,→,left,←,0.5366617999970913,False,36,1
JP-M-23M23S1,94,experiment,51,←,right,→,0.5787101000314578,False,36,1
JP-M-23M23S1,95,experiment,93,→,right,→,0.5575586999766529,True,36,1
JP-M-23M23S1,96,experiment,104,↓,down,↓,0.6852254999103025,True,36,1
JP-M-23M23S1,97,experiment,76,↑,up,↑,0.7608057999750599,True,36,1
JP-M-23M23S1,98,experiment,106,←,left,←,0.6720585000002757,True,36,1
JP-M-23M23S1,99,experiment,66,←,left,←,0.5997337000444531,True,36,1
JP-M-23M23S1,100,experiment,89,→,right,→,0.6826738999225199,True,36,1
JP-M-23M23S1,101,experiment,107,→,left,←,0.8528985999291763,False,36,1
JP-M-23M23S1,102,experiment,91,↑,up,↑,0.7088356999447569,True,36,1
JP-M-23M23S1,103,experiment,74,↓,down,↓,0.6964940000325441,True,36,1
JP-M-23M23S1,104,training,56,→,left,←,0.58719300001394,False,36,0
JP-M-23M23S1,105,training,86,↓,down,↓,0.6714066999265924,True,36,1
JP-M-23M23S1,106,experiment,65,↓,down,↓,0.6239927998976782,True,36,1
JP-M-23M23S1,107,experiment,104,↑,up,↑,0.6927610000129789,True,36,1
JP-M-23M23S1,108,experiment,74,←,left,←,0.7208225000649691,True,36,1
JP-M-23M23S1,109,experiment,52,↑,up,↑,0.6191490999190137,True,36,1
JP-M-23M23S1,110,experiment,96,↑,up,↑,0.571161099942401,True,36,1
JP-M-23M23S1,111,experiment,102,←,left,←,0.6350224000634626,True,36,1
JP-M-23M23S1,112,experiment,92,→,right,→,0.6515281000174582,True,36,1
JP-M-23M23S1,113,experiment,100,↓,left,←,0.7528826000634581,False,36,1
JP-M-23M23S1,114,experiment,64,←,left,←,0.6701562999514863,True,36,1
JP-M-23M23S1,115,experiment,81,→,right,→,0.6412074000108987,True,36,1
JP-M-23M23S1,116,experiment,51,→,right,→,0.6388611999573186,True,36,1
JP-M-23M23S1,117,experiment,83,↑,up,↑,0.6503883999539539,True,36,1
JP-M-23M23S1,118,experiment,106,←,left,←,0.5417965999804437,True,36,1
JP-M-23M23S1,119,experiment,103,←,left,←,0.5824528000084683,True,36,1
JP-M-23M23S1,120,experiment,107,↑,up,↑,0.5401502000167966,True,36,1
JP-M-23M23S1,121,experiment,58,←,left,←,0.54770659992937,True,36,1
JP-M-23M23S1,122,experiment,63,→,right,→,0.721338800038211,True,36,1
JP-M-23M23S1,123,experiment,95,↑,down,↓,0.7015298999613151,False,36,1
JP-M-23M23S1,124,experiment,105,←,right,→,0.815282900002785,False,36,1
JP-M-23M23S1,125,experiment,72,↓,down,↓,0.7512568000238389,True,36,1
JP-M-23M23S1,126,experiment,84,←,left,←,0.6856198000023142,True,36,1
JP-M-23M23S1,127,experiment,89,→,left,←,0.6213638999033719,False,36,1
JP-M-23M23S1,128,experiment,69,←,left,←,0.6623187999939546,True,36,1
JP-M-23M23S1,129,experiment,50,←,left,←,0.4994997999165207,True,36,1
JP-M-23M23S1,130,experiment,56,←,right,→,0.5414925999939442,False,36,1
JP-M-23M23S1,131,experiment,77,↑,no_key,no_letter,-1.0,False,36,1
JP-M-23M23S1,132,experiment,97,↑,up,↑,0.5847530000610277,True,36,1
JP-M-23M23S1,133,experiment,55,↑,up,↑,0.43368119990918785,True,36,1
JP-M-23M23S1,134,experiment,49,←,left,←,0.5422744000097737,True,36,0
JP-M-23M23S1,135,experiment,93,↓,left,←,1.0743653000099584,False,36,1
JP-M-23M23S1,136,experiment,66,↑,up,↑,0.5781125000212342,True,36,1
JP-M-23M23S1,137,experiment,75,←,left,←,0.5704344999976456,True,36,1
JP-M-23M23S1,138,experiment,59,↓,down,↓,0.6407130999723449,True,36,1
JP-M-23M23S1,139,experiment,67,←,left,←,0.4818287000525743,True,36,1
JP-M-23M23S1,140,experiment,90,→,right,→,0.5605810000561178,True,36,1
JP-M-23M23S1,141,experiment,88,↑,up,↑,0.6454538999823853,True,36,1
JP-M-23M23S1,142,experiment,91,→,right,→,0.6295555999968201,True,36,1
JP-M-23M23S1,143,experiment,71,↓,down,↓,0.6772797000594437,True,36,1
JP-M-23M23S1,144,experiment,85,→,right,→,0.646683800034225,True,36,1
JP-M-23M23S1,145,experiment,80,↑,up,↑,0.594766000052914,True,36,1
JP-M-23M23S1,146,experiment,76,↓,down,↓,0.5621043000137433,True,36,1
JP-M-23M23S1,147,experiment,79,↓,down,↓,0.5782032000133768,True,36,1
JP-M-23M23S1,148,experiment,68,←,left,←,0.6050490000052378,True,36,1
JP-M-23M23S1,149,experiment,86,↓,down,↓,0.5449753999710083,True,36,1
JP-M-23M23S1,150,experiment,53,→,right,→,0.4339310999494046,True,36,1
JP-M-23M23S1,151,experiment,54,←,left,←,0.38366189994849265,True,36,0
JP-M-23M23S1,152,experiment,48,←,left,←,0.6233622999861836,True,36,0
JP-M-23M23S1,153,experiment,62,↓,down,↓,0.4910184999462217,True,36,1
JP-M-23M23S1,154,experiment,87,↓,down,↓,0.49866399995516986,True,36,1
JP-M-23M23S1,155,experiment,82,↓,no_key,no_letter,-1.0,False,36,1
JP-M-23M23S1,156,experiment,101,→,right,→,0.5086083998903632,True,36,1
JP-M-23M23S1,157,experiment,108,←,left,←,0.5810700999572873,True,36,1
JP-M-23M23S1,158,experiment,61,↓,left,←,0.7380285999970511,False,36,1
JP-M-23M23S1,159,experiment,73,↑,up,↑,0.7003946000477299,True,36,1
JP-M-23M23S1,160,experiment,94,→,left,←,0.7700096999760717,False,36,1
JP-M-23M23S1,161,experiment,98,↑,up,↑,0.53118849999737,True,36,1
JP-M-23M23S1,162,experiment,99,←,left,←,0.478224900085479,True,36,1
JP-M-23M23S1,163,experiment,70,←,left,←,0.3754171000327915,True,36,1
JP-M-23M23S1,164,experiment,78,↓,down,↓,0.5146961000282317,True,36,0
JP-M-23M23S1,165,experiment,60,↑,left,←,0.3914052000036463,False,36,1
JP-M-23M23S1,166,experiment,57,→,right,→,0.43355720001272857,True,36,0
JP-M-23M23S1,167,training,60,←,right,→,0.38450429996009916,False,36,0
JP-M-23M23S1,168,training,58,↑,up,↑,0.6626414000056684,True,36,0
JP-M-23M23S1,169,experiment,66,↓,down,↓,0.4791690999409184,True,36,1
JP-M-23M23S1,170,experiment,101,↑,right,→,0.8420389998937026,False,36,1
JP-M-23M23S1,171,experiment,98,↓,down,↓,0.5045317000476643,True,36,1
JP-M-23M23S1,172,experiment,72,→,left,←,0.5646676999749616,False,36,1
JP-M-23M23S1,173,experiment,79,←,left,←,0.5169997999910265,True,36,1
JP-M-23M23S1,174,experiment,70,→,right,→,0.5288188001140952,True,36,1
JP-M-23M23S1,175,experiment,91,→,right,→,0.5343665999826044,True,36,1
JP-M-23M23S1,176,experiment,82,↓,down,↓,0.5182443000376225,True,36,1
JP-M-23M23S1,177,experiment,92,←,right,→,0.5713111000368372,False,36,1
JP-M-23M23S1,178,experiment,62,←,left,←,0.4012741999467835,True,36,1
JP-M-23M23S1,179,experiment,52,←,left,←,0.5913133000722155,True,36,0
JP-M-23M23S1,180,experiment,64,↑,left,←,0.7948652999475598,False,36,1
JP-M-23M23S1,181,experiment,106,→,right,→,0.5527145999949425,True,36,1
JP-M-23M23S1,182,experiment,96,→,right,→,0.6116007000673562,True,36,1
JP-M-23M23S1,183,experiment,81,→,right,→,0.6164838999975473,True,36,1
JP-M-23M23S1,184,experiment,51,↓,down,↓,0.5592210000613704,True,36,1
JP-M-23M23S1,185,experiment,59,→,left,←,0.5339750000275671,False,36,1
JP-M-23M23S1,186,experiment,102,→,no_key,no_letter,-1.0,False,36,1
JP-M-23M23S1,187,experiment,55,←,left,←,0.4255576999858022,True,36,1
JP-M-23M23S1,188,experiment,54,←,left,←,0.35863010003231466,True,36,0
JP-M-23M23S1,189,experiment,107,←,left,←,0.5706889999564737,True,36,0
JP-M-23M23S1,190,experiment,69,↑,down,↓,0.6293876999989152,False,36,1
JP-M-23M23S1,191,experiment,108,↑,up,↑,0.5450005000457168,True,36,1
JP-M-23M23S1,192,experiment,93,→,right,→,0.5969330000225455,True,36,1
JP-M-23M23S1,193,experiment,75,↓,left,←,0.5247048999881372,False,36,1
JP-M-23M23S1,194,experiment,58,→,right,→,0.5408004999626428,True,36,1
JP-M-23M23S1,195,experiment,53,↓,down,↓,0.5821005000034347,True,36,1
JP-M-23M23S1,196,experiment,84,↓,down,↓,0.6112241999944672,True,36,1
JP-M-23M23S1,197,experiment,85,↑,up,↑,0.5913105000508949,True,36,1
JP-M-23M23S1,198,experiment,61,↑,up,↑,0.6440372000215575,True,36,1
JP-M-23M23S1,199,experiment,80,↓,down,↓,0.5281866999575868,True,36,1
JP-M-23M23S1,200,experiment,49,←,left,←,0.6195624000392854,True,36,1
JP-M-23M23S1,201,experiment,95,↓,down,↓,0.49962949997279793,True,36,1
JP-M-23M23S1,202,experiment,65,↑,up,↑,0.5786598999984562,True,36,1
JP-M-23M23S1,203,experiment,57,←,left,←,0.5293358999770135,True,36,1
JP-M-23M23S1,204,experiment,86,←,right,→,0.49621040001511574,False,36,1
JP-M-23M23S1,205,experiment,97,↓,up,↑,0.9244117999915034,False,36,1
JP-M-23M23S1,206,experiment,89,↓,up,↑,0.8425026000477374,False,36,1
JP-M-23M23S1,207,experiment,99,↓,down,↓,0.6324935000156984,True,36,1
JP-M-23M23S1,208,experiment,88,↑,up,↑,0.5787547000218183,True,36,1
JP-M-23M23S1,209,experiment,90,→,right,→,0.6542129000881687,True,36,1
JP-M-23M23S1,210,experiment,100,↑,up,↑,0.603113199933432,True,36,1
JP-M-23M23S1,211,experiment,68,↓,down,↓,0.5412476999917999,True,36,1
JP-M-23M23S1,212,experiment,63,→,left,←,0.4503283000085503,False,36,1
JP-M-23M23S1,213,experiment,103,←,left,←,0.7592517000157386,True,36,0
JP-M-23M23S1,214,experiment,76,↑,down,↓,0.8481384000042453,False,36,1
JP-M-23M23S1,215,experiment,78,↓,down,↓,0.5807812999701127,True,36,1
JP-M-23M23S1,216,experiment,50,→,right,→,0.5333225999493152,True,36,1
JP-M-23M23S1,217,experiment,67,↑,down,↓,0.586195099982433,False,36,1
JP-M-23M23S1,218,experiment,71,←,left,←,0.5958815000485629,True,36,1
JP-M-23M23S1,219,experiment,105,→,left,←,0.7696414000820369,False,36,1
JP-M-23M23S1,220,experiment,94,↓,down,↓,0.5483166999183595,True,36,1
JP-M-23M23S1,221,experiment,60,→,left,←,0.5388542000437155,False,36,1
JP-M-23M23S1,222,experiment,104,↑,down,↓,0.6271642000647262,False,36,1
JP-M-23M23S1,223,experiment,73,←,left,←,0.6424368000589311,True,36,1
JP-M-23M23S1,224,experiment,74,↓,down,↓,0.5127029999857768,True,36,1
JP-M-23M23S1,225,experiment,87,↑,down,↓,0.4957642999943346,False,36,1
JP-M-23M23S1,226,experiment,83,↓,down,↓,0.6407970000291243,True,36,1
JP-M-23M23S1,227,experiment,56,↓,down,↓,0.588864199933596,True,36,1
JP-M-23M23S1,228,experiment,77,↓,down,↓,0.4505244999891147,True,36,1
JP-M-23M23S1,229,experiment,48,↑,down,↓,0.49835479992907494,False,36,0
JP-M-23M23S1,230,training,52,←,left,←,0.6128971000434831,True,36,0
JP-M-23M23S1,231,training,71,↑,up,↑,0.6208329999353737,True,36,1
JP-M-23M23S1,232,experiment,98,→,right,→,0.5398104999912903,True,36,1
JP-M-23M23S1,233,experiment,70,↓,right,→,0.8312550999689847,False,36,1
JP-M-23M23S1,234,experiment,51,↓,down,↓,0.4505159999243915,True,36,1
JP-M-23M23S1,235,experiment,64,↑,up,↑,0.5665632000891492,True,36,0
JP-M-23M23S1,236,experiment,99,→,right,→,0.5355778000084683,True,36,1
JP-M-23M23S1,237,experiment,48,↑,up,↑,0.5145921999355778,True,36,1
JP-M-23M23S1,238,experiment,60,→,right,→,0.6027924000518396,True,36,1
JP-M-23M23S1,239,experiment,100,→,right,→,0.5301109000574797,True,36,1
JP-M-23M23S1,240,experiment,49,↓,down,↓,0.6849189000204206,True,36,1
JP-M-23M23S1,241,experiment,74,↑,down,↓,0.5614697000710294,False,36,1
JP-M-23M23S1,242,experiment,101,←,left,←,0.602099800016731,True,36,1
JP-M-23M23S1,243,experiment,88,→,right,→,0.6056322000222281,True,36,1
JP-M-23M23S1,244,experiment,75,↓,down,↓,0.5409744000062346,True,36,1
JP-M-23M23S1,245,experiment,58,→,right,→,0.6763370999833569,True,36,1
JP-M-23M23S1,246,experiment,106,→,right,→,0.5348599000135437,True,36,1
JP-M-23M23S1,247,experiment,81,→,left,←,0.5589638000819832,False,36,1
JP-M-23M23S1,248,experiment,63,↓,down,↓,0.5001187999732792,True,36,1
JP-M-23M23S1,249,experiment,91,↑,down,↓,0.5624930000631139,False,36,1
JP-M-23M23S1,250,experiment,90,↓,down,↓,0.6465975000755861,True,36,1
JP-M-23M23S1,251,experiment,71,→,right,→,0.5813934999750927,True,36,1
JP-M-23M23S1,252,experiment,50,↑,up,↑,0.573975200066343,True,36,1
JP-M-23M23S1,253,experiment,66,→,left,←,0.6975023999111727,False,36,1
JP-M-23M23S1,254,experiment,103,↓,down,↓,0.6519183999625966,True,36,1
JP-M-23M23S1,255,experiment,107,↓,down,↓,0.4873585000168532,True,36,1
JP-M-23M23S1,256,experiment,69,↓,down,↓,0.5092997999163345,True,36,1
JP-M-23M23S1,257,experiment,84,←,left,←,0.5654471999732777,True,36,1
JP-M-23M23S1,258,experiment,92,←,left,←,0.4255955000407994,True,36,1
JP-M-23M23S1,259,experiment,82,→,left,←,0.5007426999509335,False,36,0
JP-M-23M23S1,260,experiment,73,↓,down,↓,0.5288858000421897,True,36,1
JP-M-23M23S1,261,experiment,55,→,left,←,0.5058325999416411,False,36,1
JP-M-23M23S1,262,experiment,72,↑,up,↑,0.637847299920395,True,36,1
JP-M-23M23S1,263,experiment,97,↑,down,↓,0.7248556999256834,False,36,1
JP-M-23M23S1,264,experiment,102,↓,down,↓,0.6466682000318542,True,36,1
JP-M-23M23S1,265,experiment,96,↑,up,↑,0.4934002999216318,True,36,1
JP-M-23M23S1,266,experiment,83,↓,down,↓,0.5105507000116631,True,36,1
JP-M-23M23S1,267,experiment,95,↓,down,↓,0.563207000028342,True,36,1
JP-M-23M23S1,268,experiment,61,↓,down,↓,0.4338774000061676,True,36,1
JP-M-23M23S1,269,experiment,76,↓,no_key,no_letter,-1.0,False,36,0
JP-M-23M23S1,270,experiment,52,↑,down,↓,0.5357521999394521,False,36,1
JP-M-23M23S1,271,experiment,89,↓,no_key,no_letter,-1.0,False,36,1
JP-M-23M23S1,272,experiment,79,←,left,←,0.6450878999894485,True,36,1
JP-M-23M23S1,273,experiment,87,←,left,←,0.4949930999428034,True,36,1
JP-M-23M23S1,274,experiment,77,←,left,←,0.5301633999915794,True,36,1
JP-M-23M23S1,275,experiment,86,→,right,→,0.6407765001058578,True,36,1
JP-M-23M23S1,276,experiment,65,←,left,←,0.6820992999710143,True,36,1
JP-M-23M23S1,277,experiment,93,←,right,→,0.5605215999530628,False,36,1
JP-M-23M23S1,278,experiment,105,→,right,→,0.6157407999271527,True,36,1
JP-M-23M23S1,279,experiment,56,←,left,←,0.7090550999855623,True,36,1
JP-M-23M23S1,280,experiment,59,←,left,←,0.5495718999300152,True,36,1
JP-M-23M23S1,281,experiment,104,↓,down,↓,0.5417244000127539,True,36,1
JP-M-23M23S1,282,experiment,57,←,left,←,0.4859871999360621,True,36,1
JP-M-23M23S1,283,experiment,53,↓,no_key,no_letter,-1.0,False,36,1
JP-M-23M23S1,284,experiment,108,→,left,←,0.5271171999629587,False,36,1
JP-M-23M23S1,285,experiment,80,←,left,←,0.5362156999763101,True,36,1
JP-M-23M23S1,286,experiment,78,→,right,→,0.4821127000031993,True,36,1
JP-M-23M23S1,287,experiment,54,↓,down,↓,0.4422408000100404,True,36,1
JP-M-23M23S1,288,experiment,68,←,left,←,0.40067810006439686,True,36,0
JP-M-23M23S1,289,experiment,67,→,right,→,0.42534830002114177,True,36,0
JP-M-23M23S1,290,experiment,85,←,left,←,0.41819190001115203,True,36,0
JP-M-23M23S1,291,experiment,94,↑,up,↑,0.5132171999430284,True,36,0
JP-M-23M23S1,292,experiment,62,→,left,←,0.5444792000344023,False,36,1
JP-M-23M23S1,293,training,71,→,right,→,0.5024065000470728,True,36,0
JP-M-23M23S1,294,training,49,↓,no_key,no_letter,-1.0,False,36,1
JP-M-23M23S1,295,experiment,100,←,left,←,0.571783100022003,True,36,1
JP-M-23M23S1,296,experiment,71,↑,down,↓,0.5255339000141248,False,36,1
JP-M-23M23S1,297,experiment,104,↑,no_key,no_letter,-1.0,False,36,1
JP-M-23M23S1,298,experiment,106,←,left,←,0.5016690999036655,True,36,1
JP-M-23M23S1,299,experiment,60,←,left,←,0.7181544998893514,True,36,1
JP-M-23M23S1,300,experiment,49,→,left,←,0.5459919999120757,False,36,1
JP-M-23M23S1,301,experiment,66,←,left,←,0.6063372000353411,True,36,1
JP-M-23M23S1,302,experiment,98,→,right,→,0.5421004999661818,True,36,1
JP-M-23M23S1,303,experiment,54,→,no_key,no_letter,-1.0,False,36,1
JP-M-23M23S1,304,experiment,97,↑,up,↑,0.9132802000967786,True,36,1
JP-M-23M23S1,305,experiment,48,↑,up,↑,0.589212300023064,True,36,1
JP-M-23M23S1,306,experiment,78,→,right,→,0.5881742000347003,True,36,1
JP-M-23M23S1,307,experiment,85,↓,down,↓,0.520690199919045,True,36,1
JP-M-23M23S1,308,experiment,89,←,left,←,0.4785859000403434,True,36,1
JP-M-23M23S1,309,experiment,80,↓,up,↑,0.753550500026904,False,36,1
JP-M-23M23S1,310,experiment,53,↑,up,↑,0.4674301999621093,True,36,1
JP-M-23M23S1,311,experiment,63,→,right,→,0.46705700003076345,True,36,0
JP-M-23M23S1,312,experiment,74,↓,down,↓,0.42537209996953607,True,36,0
JP-M-23M23S1,313,experiment,91,↓,down,↓,0.4420271000126377,True,36,0
JP-M-23M23S1,314,experiment,107,→,right,→,0.5078565999865532,True,36,0
JP-M-23M23S1,315,experiment,61,←,right,→,0.49184979998972267,False,36,1
JP-M-23M23S1,316,experiment,62,↓,down,↓,0.6198962999042124,True,36,1
JP-M-23M23S1,317,experiment,72,↓,down,↓,0.4764729000162333,True,36,1
JP-M-23M23S1,318,experiment,68,↓,down,↓,0.3920622000005096,True,36,1
JP-M-23M23S1,319,experiment,76,←,left,←,0.6739883000263944,True,36,0
JP-M-23M23S1,320,experiment,95,←,left,←,0.42546940001193434,True,36,1
JP-M-23M23S1,321,experiment,84,↓,down,↓,0.7792867999523878,True,36,0
JP-M-23M23S1,322,experiment,105,↑,up,↑,1.153728500008583,True,36,1
JP-M-23M23S1,323,experiment,65,←,left,←,0.5267113000154495,True,36,1
JP-M-23M23S1,324,experiment,108,↓,down,↓,0.8065312000690028,True,36,1
JP-M-23M23S1,325,experiment,92,↓,down,↓,0.4338006000034511,True,36,1
JP-M-23M23S1,326,experiment,83,↑,up,↑,0.6113624999998137,True,36,0
JP-M-23M23S1,327,experiment,103,↑,up,↑,0.6092665999894962,True,36,1
JP-M-23M23S1,328,experiment,73,↑,up,↑,0.5851715999888256,True,36,1
JP-M-23M23S1,329,experiment,75,↑,up,↑,0.4089420000091195,True,36,1
JP-M-23M23S1,330,experiment,101,↓,down,↓,0.5922693000175059,True,36,0
JP-M-23M23S1,331,experiment,88,↓,down,↓,0.49172229995019734,True,36,1
JP-M-23M23S1,332,experiment,93,→,right,→,0.4005316999973729,True,36,1
JP-M-23M23S1,333,experiment,52,↑,up,↑,0.4800896999659017,True,36,0
JP-M-23M23S1,334,experiment,87,→,right,→,0.3923270999221131,True,36,1
JP-M-23M23S1,335,experiment,58,←,left,←,0.58154220005963,True,36,0
JP-M-23M23S1,336,experiment,96,→,right,→,0.3838866000296548,True,36,1
JP-M-23M23S1,337,experiment,55,↓,left,←,0.9094846000662073,False,36,0
JP-M-23M23S1,338,experiment,64,←,left,←,0.6045984000666067,True,36,1
JP-M-23M23S1,339,experiment,51,→,right,→,0.45028780004940927,True,36,1
JP-M-23M23S1,340,experiment,50,→,right,→,0.4003145999740809,True,36,0
JP-M-23M23S1,341,experiment,102,↓,up,↑,0.935536399949342,False,36,0
JP-M-23M23S1,342,experiment,59,↑,up,↑,0.47182590002194047,True,36,1
JP-M-23M23S1,343,experiment,57,←,left,←,0.5775546999648213,True,36,1
JP-M-23M23S1,344,experiment,86,↓,down,↓,0.6707486000377685,True,36,1
JP-M-23M23S1,345,experiment,81,↓,down,↓,0.42653659998904914,True,36,1
JP-M-23M23S1,346,experiment,69,↓,down,↓,0.6493888000259176,True,36,0
JP-M-23M23S1,347,experiment,82,↓,down,↓,0.4854372999398038,True,36,1
JP-M-23M23S1,348,experiment,99,↓,down,↓,0.4264255999587476,True,36,1
JP-M-23M23S1,349,experiment,79,←,left,←,0.7178572999546304,True,36,0
JP-M-23M23S1,350,experiment,56,↓,down,↓,0.4339252000208944,True,36,1
JP-M-23M23S1,351,experiment,77,↓,down,↓,0.4338611999992281,True,36,0
JP-M-23M23S1,352,experiment,94,→,left,←,0.5317982999840751,False,36,0
JP-M-23M23S1,353,experiment,90,↑,up,↑,0.5213034000480548,True,36,1
JP-M-23M23S1,354,experiment,67,↓,down,↓,0.5422999999718741,True,36,1
JP-M-23M23S1,355,experiment,70,↑,down,↓,0.49802389997057617,False,36,1
JP-M-23M23S1,356,training,92,←,left,←,0.4337892000330612,True,36,0
JP-M-23M23S1,357,training,57,↓,down,↓,0.41694080003071576,True,36,0
JP-M-23M23S1,358,experiment,48,↓,down,↓,0.3512971999589354,True,36,0
JP-M-23M23S1,359,experiment,83,↓,down,↓,0.5647952000144869,True,36,0
JP-M-23M23S1,360,experiment,71,→,right,→,0.6388425000477582,True,36,1
JP-M-23M23S1,361,experiment,64,←,left,←,0.5766589000122622,True,36,1
JP-M-23M23S1,362,experiment,73,↓,down,↓,0.5541769999545068,True,36,1
JP-M-23M23S1,363,experiment,56,→,right,→,0.6973521000472829,True,36,1
JP-M-23M23S1,364,experiment,50,↓,down,↓,0.5972105999244377,True,36,1
JP-M-23M23S1,365,experiment,58,→,right,→,0.6343652999494225,True,36,1
JP-M-23M23S1,366,experiment,69,→,right,→,0.4674746999517083,True,36,1
JP-M-23M23S1,367,experiment,89,↓,down,↓,0.4419758999720216,True,36,0
JP-M-23M23S1,368,experiment,96,→,right,→,0.8094181000487879,True,36,0
JP-M-23M23S1,369,experiment,68,↑,up,↑,0.6510731000453234,True,36,1
JP-M-23M23S1,370,experiment,108,←,left,←,0.5015572999836877,True,36,1
JP-M-23M23S1,371,experiment,103,↑,up,↑,0.7359546999214217,True,36,1
JP-M-23M23S1,372,experiment,52,→,right,→,0.5141830999637023,True,36,1
JP-M-23M23S1,373,experiment,107,→,right,→,0.5782905999803916,True,36,1
JP-M-23M23S1,374,experiment,57,↓,right,→,0.7128521000267938,False,36,1
JP-M-23M23S1,375,experiment,106,←,left,←,0.5696412000106648,True,36,1
JP-M-23M23S1,376,experiment,92,→,right,→,0.42531069996766746,True,36,1
JP-M-23M23S1,377,experiment,100,←,left,←,0.5550760000478476,True,36,0
JP-M-23M23S1,378,experiment,62,←,left,←,0.44199189997743815,True,36,1
JP-M-23M23S1,379,experiment,55,↑,right,→,0.7085748000536114,False,36,0
JP-M-23M23S1,380,experiment,95,↑,up,↑,0.5934773000190035,True,36,1
JP-M-23M23S1,381,experiment,94,←,left,←,0.5869752999860793,True,36,1
JP-M-23M23S1,382,experiment,78,↑,up,↑,0.6342274999478832,True,36,1
JP-M-23M23S1,383,experiment,98,↓,down,↓,0.7287926999852061,True,36,1
JP-M-23M23S1,384,experiment,102,→,right,→,0.5145294999238104,True,36,1
JP-M-23M23S1,385,experiment,70,↑,up,↑,0.47913460002746433,True,36,1
JP-M-23M23S1,386,experiment,99,↑,up,↑,0.57154209993314,True,36,1
JP-M-23M23S1,387,experiment,77,↓,down,↓,0.4993046000599861,True,36,1
JP-M-23M23S1,388,experiment,91,↑,up,↑,0.5539720000233501,True,36,1
JP-M-23M23S1,389,experiment,79,→,right,→,0.4430318999802694,True,36,1
JP-M-23M23S1,390,experiment,65,→,right,→,0.45002680004108697,True,36,0
JP-M-23M23S1,391,experiment,66,←,left,←,0.6505950998980552,True,36,0
JP-M-23M23S1,392,experiment,63,←,left,←,0.5240967000136152,True,36,1
JP-M-23M23S1,393,experiment,81,→,left,←,0.5326745000202209,False,36,1
JP-M-23M23S1,394,experiment,90,↓,down,↓,0.6902237000176683,True,36,1
JP-M-23M23S1,395,experiment,82,←,left,←,0.4423510000342503,True,36,1
JP-M-23M23S1,396,experiment,104,↓,down,↓,0.47989960003178567,True,36,0
JP-M-23M23S1,397,experiment,97,↑,up,↑,0.5485716999974102,True,36,1
JP-M-23M23S1,398,experiment,87,↑,no_key,no_letter,-1.0,False,36,1
JP-M-23M23S1,399,experiment,101,↓,down,↓,0.6109843000303954,True,36,1
JP-M-23M23S1,400,experiment,74,←,left,←,0.5946806999854743,True,36,1
JP-M-23M23S1,401,experiment,60,←,left,←,0.5357793000293896,True,36,1
JP-M-23M23S1,402,experiment,53,↑,up,↑,0.5532370000146329,True,36,1
JP-M-23M23S1,403,experiment,49,↑,up,↑,0.5632925999816507,True,36,1
JP-M-23M23S1,404,experiment,59,→,right,→,0.6661010000389069,True,36,1
JP-M-23M23S1,405,experiment,75,↓,down,↓,0.5986554999835789,True,36,1
JP-M-23M23S1,406,experiment,54,↑,down,↓,0.5252866999944672,False,36,1
JP-M-23M23S1,407,experiment,67,←,no_key,no_letter,-1.0,False,36,1
JP-M-23M23S1,408,experiment,72,→,left,←,0.6529113999567926,False,36,1
JP-M-23M23S1,409,experiment,80,←,left,←,0.42563960002735257,True,36,1
JP-M-23M23S1,410,experiment,93,→,right,→,0.4338371999328956,True,36,0
JP-M-23M23S1,411,experiment,51,↓,down,↓,0.598777599981986,True,36,0
JP-M-23M23S1,412,experiment,105,←,left,←,0.48489329998847097,True,36,1
JP-M-23M23S1,413,experiment,84,→,no_key,no_letter,-1.0,False,36,1
JP-M-23M23S1,414,experiment,61,→,left,←,0.6596447000047192,False,36,1
JP-M-23M23S1,415,experiment,85,↑,up,↑,0.5335886999964714,True,36,1
JP-M-23M23S1,416,experiment,86,→,left,←,0.44213769992347807,False,36,1
JP-M-23M23S1,417,experiment,88,←,no_key,no_letter,-1.0,False,36,0
JP-M-23M23S1,418,experiment,76,←,left,←,0.5824091000249609,True,36,1
JP-M-23M23S1,419,training,82,→,right,→,0.4338172000134364,True,36,0
JP-M-23M23S1,420,training,79,↑,up,↑,0.4744685998884961,True,36,0
JP-M-23M23S1,421,experiment,105,←,right,→,0.5164390000281855,False,36,1
JP-M-23M23S1,422,experiment,88,↑,up,↑,0.40885709994472563,True,36,1
JP-M-23M23S1,423,experiment,77,→,right,→,0.40981430001556873,True,36,0
JP-M-23M23S1,424,experiment,71,↑,up,↑,0.417334699886851,True,36,0
JP-M-23M23S1,425,experiment,84,→,right,→,0.628686900017783,True,36,0
JP-M-23M23S1,426,experiment,106,→,right,→,0.5849602000089362,True,36,1
JP-M-23M23S1,427,experiment,87,↑,up,↑,0.40859490004368126,True,36,1
JP-M-23M23S1,428,experiment,60,↑,no_key,no_letter,-1.0,False,36,0
JP-M-23M23S1,429,experiment,52,↓,down,↓,0.6341264999937266,True,36,1
JP-M-23M23S1,430,experiment,90,←,left,←,0.6117642000317574,True,36,1
JP-M-23M23S1,431,experiment,95,↑,up,↑,0.6122107000555843,True,36,1
JP-M-23M23S1,432,experiment,83,←,up,↑,0.4966932999668643,False,36,1
JP-M-23M23S1,433,experiment,93,↑,up,↑,0.6063490000087768,True,36,1
JP-M-23M23S1,434,experiment,65,←,left,←,0.5048220000462607,True,36,1
JP-M-23M23S1,435,experiment,78,→,right,→,0.6430269000120461,True,36,1
JP-M-23M23S1,436,experiment,72,→,left,←,0.4901386999990791,False,36,1
JP-M-23M23S1,437,experiment,100,→,right,→,0.4856768000172451,True,36,1
JP-M-23M23S1,438,experiment,61,→,right,→,0.4093184999655932,True,36,1
JP-M-23M23S1,439,experiment,67,↓,down,↓,0.6160151000367478,True,36,0
JP-M-23M23S1,440,experiment,66,↑,up,↑,0.5059969000285491,True,36,1
JP-M-23M23S1,441,experiment,97,↑,up,↑,0.5979335999581963,True,36,1
JP-M-23M23S1,442,experiment,94,↑,up,↑,0.503492199932225,True,36,1
JP-M-23M23S1,443,experiment,75,↑,down,↓,0.5390279999701306,False,36,1
JP-M-23M23S1,444,experiment,76,→,right,→,0.6206703999778256,True,36,1
JP-M-23M23S1,445,experiment,58,↑,down,↓,0.920687000034377,False,36,1
JP-M-23M23S1,446,experiment,68,↓,down,↓,0.6776783999521285,True,36,1
JP-M-23M23S1,447,experiment,55,←,left,←,0.569083399954252,True,36,1
JP-M-23M23S1,448,experiment,86,←,left,←,0.5983919000718743,True,36,1
JP-M-23M23S1,449,experiment,104,↓,down,↓,0.5724694000091404,True,36,1
JP-M-23M23S1,450,experiment,103,→,right,→,0.5876085000345483,True,36,1
JP-M-23M23S1,451,experiment,108,→,right,→,0.473736000014469,True,36,1
JP-M-23M23S1,452,experiment,85,←,left,←,0.5544414999894798,True,36,1
JP-M-23M23S1,453,experiment,56,←,left,←,0.4510329000186175,True,36,1
JP-M-23M23S1,454,experiment,53,↑,up,↑,0.494831099989824,True,36,0
JP-M-23M23S1,455,experiment,64,←,left,←,0.5020048000151291,True,36,1
JP-M-23M23S1,456,experiment,63,↓,no_key,no_letter,-1.0,False,36,1
JP-M-23M23S1,457,experiment,91,↓,down,↓,0.5053895000601187,True,36,1
JP-M-23M23S1,458,experiment,70,←,left,←,0.486962299910374,True,36,1
JP-M-23M23S1,459,experiment,50,↑,down,↓,0.5465193000854924,False,36,1
JP-M-23M23S1,460,experiment,57,→,right,→,0.9704051999142393,True,36,1
JP-M-23M23S1,461,experiment,73,→,right,→,0.4507021999452263,True,36,1
JP-M-23M23S1,462,experiment,51,↑,up,↑,0.585111299995333,True,36,0
JP-M-23M23S1,463,experiment,96,↑,up,↑,0.6270599999697879,True,36,1
JP-M-23M23S1,464,experiment,48,←,left,←,0.5062258000252768,True,36,1
JP-M-23M23S1,465,experiment,102,↑,up,↑,0.5244229999370873,True,36,1
JP-M-23M23S1,466,experiment,98,↑,up,↑,0.5912182000465691,True,36,1
JP-M-23M23S1,467,experiment,99,←,left,←,0.5355004000011832,True,36,1
JP-M-23M23S1,468,experiment,107,↓,down,↓,0.6789867000188679,True,36,1
JP-M-23M23S1,469,experiment,82,→,no_key,no_letter,-1.0,False,36,1
JP-M-23M23S1,470,experiment,80,↑,up,↑,0.5207300999900326,True,36,1
JP-M-23M23S1,471,experiment,101,→,right,→,0.6733857999788597,True,36,1
JP-M-23M23S1,472,experiment,79,↑,up,↑,0.5249207000015303,True,36,1
JP-M-23M23S1,473,experiment,81,↑,up,↑,0.4780703999567777,True,36,1
JP-M-23M23S1,474,experiment,59,←,left,←,0.5030260999919847,True,36,1
JP-M-23M23S1,475,experiment,49,→,right,→,0.5391033999621868,True,36,1
JP-M-23M23S1,476,experiment,62,↓,no_key,no_letter,-1.0,False,36,1
JP-M-23M23S1,477,experiment,74,→,no_key,no_letter,-1.0,False,36,1
JP-M-23M23S1,478,experiment,89,↓,down,↓,0.45097260002512485,True,36,1
JP-M-23M23S1,479,experiment,54,←,left,←,0.43363240000326186,True,36,0
JP-M-23M23S1,480,experiment,92,→,right,→,0.40843589999713004,True,36,0
JP-M-23M23S1,481,experiment,69,↓,down,↓,0.6291289000073448,True,36,0
JP-M-23M23S1,482,training,67,↑,right,→,0.8659709000494331,False,36,0
JP-M-23M23S1,483,training,100,↑,up,↑,0.5749321000184864,True,36,1
JP-M-23M23S1,484,experiment,84,↓,down,↓,0.5804606000892818,True,36,1
JP-M-23M23S1,485,experiment,76,←,left,←,0.6525627999799326,True,36,1
JP-M-23M23S1,486,experiment,103,↓,down,↓,0.5692238999763504,True,36,1
JP-M-23M23S1,487,experiment,83,↓,down,↓,0.4504537999164313,True,36,1
JP-M-23M23S1,488,experiment,105,↑,down,↓,0.5541094000218436,False,36,0
JP-M-23M23S1,489,experiment,85,↓,no_key,no_letter,-1.0,False,36,1
JP-M-23M23S1,490,experiment,72,↓,down,↓,0.4422341000754386,True,36,1
JP-M-23M23S1,491,experiment,91,→,right,→,0.4670120000373572,True,36,0
JP-M-23M23S1,492,experiment,80,→,right,→,0.4002998999785632,True,36,0
JP-M-23M23S1,493,experiment,101,↓,down,↓,0.4343274999409914,True,36,0
JP-M-23M23S1,494,experiment,70,←,left,←,0.4687029999913648,True,36,0
JP-M-23M23S1,495,experiment,102,↑,down,↓,0.4723871999885887,False,36,0
JP-M-23M23S1,496,experiment,68,←,left,←,0.5347526000114158,True,36,1
JP-M-23M23S1,497,experiment,100,←,left,←,0.44219660002272576,True,36,1
JP-M-23M23S1,498,experiment,99,→,right,→,0.47822030005045235,True,36,0
JP-M-23M23S1,499,experiment,48,↓,down,↓,0.4089663999620825,True,36,1
JP-M-23M23S1,500,experiment,55,↑,up,↑,0.6731429999927059,True,36,0
JP-M-23M23S1,501,experiment,54,←,left,←,0.49287959991488606,True,36,1
JP-M-23M23S1,502,experiment,88,↓,down,↓,0.4421692000469193,True,36,1
JP-M-23M23S1,503,experiment,57,↑,no_key,no_letter,-1.0,False,36,0
JP-M-23M23S1,504,experiment,49,↑,up,↑,0.5537882000207901,True,36,1
JP-M-23M23S1,505,experiment,52,←,left,←,0.522872900008224,True,36,1
JP-M-23M23S1,506,experiment,63,↑,up,↑,0.5055439999559894,True,36,1
JP-M-23M23S1,507,experiment,86,←,left,←,0.696803699946031,True,36,1
JP-M-23M23S1,508,experiment,104,↓,down,↓,0.6188393000047654,True,36,1
JP-M-23M23S1,509,experiment,53,←,left,←,0.505296399933286,True,36,1
JP-M-23M23S1,510,experiment,71,←,left,←,0.4941172000253573,True,36,1
JP-M-23M23S1,511,experiment,56,→,left,←,0.4960533999837935,False,36,1
JP-M-23M23S1,512,experiment,65,↑,up,↑,0.5668893000110984,True,36,1
JP-M-23M23S1,513,experiment,81,→,right,→,0.9098829999566078,True,36,1
JP-M-23M23S1,514,experiment,78,↑,up,↑,0.4505442000227049,True,36,1
JP-M-23M23S1,515,experiment,58,→,no_key,no_letter,-1.0,False,36,0
JP-M-23M23S1,516,experiment,69,↑,up,↑,0.6226774000097066,True,36,1
JP-M-23M23S1,517,experiment,79,→,right,→,0.4085406999802217,True,36,1
JP-M-23M23S1,518,experiment,61,←,left,←,0.4338341999100521,True,36,0
JP-M-23M23S1,519,experiment,51,→,right,→,0.42550520005170256,True,36,0
JP-M-23M23S1,520,experiment,98,↑,up,↑,0.6357429000781849,True,36,0
JP-M-23M23S1,521,experiment,67,↓,down,↓,0.6206196999410167,True,36,1
JP-M-23M23S1,522,experiment,89,←,left,←,0.43413019995205104,True,36,1
JP-M-23M23S1,523,experiment,87,←,left,←,0.42579910007771105,True,36,0
JP-M-23M23S1,524,experiment,82,→,right,→,0.6524762999033555,True,36,0
JP-M-23M23S1,525,experiment,95,↓,down,↓,0.5316877999575809,True,36,1
JP-M-23M23S1,526,experiment,62,→,right,→,0.49812209990341216,True,36,1
JP-M-23M23S1,527,experiment,107,←,left,←,0.43301929999142885,True,36,1
JP-M-23M23S1,528,experiment,92,↑,down,↓,0.5718247999902815,False,36,0
JP-M-23M23S1,529,experiment,97,↑,down,↓,0.4855017000809312,False,36,1
JP-M-23M23S1,530,experiment,90,↑,down,↓,0.41690740000922233,False,36,1
JP-M-23M23S1,531,experiment,77,→,right,→,0.4421200000215322,True,36,0
JP-M-23M23S1,532,experiment,74,↓,down,↓,0.4018964000279084,True,36,0
JP-M-23M23S1,533,experiment,106,←,left,←,0.5327004999853671,True,36,0
JP-M-23M23S1,534,experiment,50,←,left,←,0.4339821001049131,True,36,1
JP-M-23M23S1,535,experiment,108,↑,up,↑,0.6022794999880716,True,36,0
JP-M-23M23S1,536,experiment,75,←,left,←,0.40076330001465976,True,36,1
JP-M-23M23S1,537,experiment,64,↑,up,↑,0.3913356999401003,True,36,0
JP-M-23M23S1,538,experiment,66,←,left,←,0.40002259996253997,True,36,0
JP-M-23M23S1,539,experiment,59,←,left,←,0.5317843001103029,True,36,0
JP-M-23M23S1,540,experiment,94,←,left,←,0.4801924000494182,True,36,1
JP-M-23M23S1,541,experiment,73,↑,no_key,no_letter,-1.0,False,36,1
JP-M-23M23S1,542,experiment,96,←,left,←,0.4170861999737099,True,36,1
JP-M-23M23S1,543,experiment,93,→,left,←,0.4721633999142796,False,36,0
JP-M-23M23S1,544,experiment,60,←,left,←,0.39205479994416237,True,36,1
JP-M-23M23S1,545,training,54,↓,down,↓,0.5577385999495164,True,36,0
JP-M-23M23S1,546,training,101,↓,down,↓,0.5024407999590039,True,36,1
JP-M-23M23S1,547,experiment,61,←,right,→,0.5984831999521703,False,36,1
JP-M-23M23S1,548,experiment,78,↑,up,↑,0.6129123000428081,True,36,1
JP-M-23M23S1,549,experiment,70,↓,down,↓,0.42550440004561096,True,36,1
JP-M-23M23S1,550,experiment,66,↓,down,↓,0.4004380999831483,True,36,0
JP-M-23M23S1,551,experiment,88,↓,down,↓,0.383208499988541,True,36,0
JP-M-23M23S1,552,experiment,80,←,left,←,0.40905140002723783,True,36,0
JP-M-23M23S1,553,experiment,97,→,right,→,0.3763846999499947,True,36,0
JP-M-23M23S1,554,experiment,89,→,right,→,0.5228246999904513,True,36,0
JP-M-23M23S1,555,experiment,93,←,left,←,0.6153976999921724,True,36,1
JP-M-23M23S1,556,experiment,95,↓,down,↓,0.41731829999480397,True,36,1
JP-M-23M23S1,557,experiment,58,←,left,←,0.47638539993204176,True,36,0
JP-M-23M23S1,558,experiment,48,↓,down,↓,0.6094601000659168,True,36,1
JP-M-23M23S1,559,experiment,77,↓,down,↓,0.5281453999923542,True,36,1
JP-M-23M23S1,560,experiment,91,→,right,→,0.43387369997799397,True,36,1
JP-M-23M23S1,561,experiment,53,→,right,→,0.4003773999866098,True,36,0
JP-M-23M23S1,562,experiment,108,←,left,←,0.5108998999930918,True,36,0
JP-M-23M23S1,563,experiment,57,↑,down,↓,0.47986419999506325,False,36,1
JP-M-23M23S1,564,experiment,55,←,no_key,no_letter,-1.0,False,36,1
JP-M-23M23S1,565,experiment,74,→,right,→,0.43397120002191514,True,36,1
JP-M-23M23S1,566,experiment,54,↑,up,↑,0.4896049000089988,True,36,0
JP-M-23M23S1,567,experiment,76,↑,up,↑,0.47755049995612353,True,36,1
JP-M-23M23S1,568,experiment,101,↑,up,↑,0.35885349998716265,True,36,1
JP-M-23M23S1,569,experiment,100,←,left,←,0.5056142000248656,True,36,0
JP-M-23M23S1,570,experiment,69,→,left,←,0.5186355999903753,False,36,1
JP-M-23M23S1,571,experiment,82,↑,up,↑,0.5276685999706388,True,36,1
JP-M-23M23S1,572,experiment,103,←,left,←,0.4735582999419421,True,36,1
JP-M-23M23S1,573,experiment,104,↑,up,↑,0.42555619997438043,True,36,1
JP-M-23M23S1,574,experiment,56,↓,down,↓,0.6400337999220937,True,36,0
JP-M-23M23S1,575,experiment,94,←,left,←,0.36704000004101545,True,36,1
JP-M-23M23S1,576,experiment,90,↑,up,↑,0.4994021999882534,True,36,0
JP-M-23M23S1,577,experiment,86,↑,up,↑,0.5232136999256909,True,36,1
JP-M-23M23S1,578,experiment,59,→,no_key,no_letter,-1.0,False,36,1
JP-M-23M23S1,579,experiment,60,→,left,←,0.5614996000658721,False,36,1
JP-M-23M23S1,580,experiment,65,→,no_key,no_letter,-1.0,False,36,1
JP-M-23M23S1,581,experiment,105,↓,down,↓,0.6855024000396952,True,36,1
JP-M-23M23S1,582,experiment,72,→,right,→,0.4255839999532327,True,36,1
JP-M-23M23S1,583,experiment,52,↓,down,↓,0.41723369993269444,True,36,0
JP-M-23M23S1,584,experiment,96,↑,up,↑,0.6482695000013337,True,36,0
JP-M-23M23S1,585,experiment,50,→,right,→,0.40888030000496656,True,36,1
JP-M-23M23S1,586,experiment,73,↓,down,↓,0.4337859000079334,True,36,0
JP-M-23M23S1,587,experiment,68,↑,up,↑,0.5498811000725254,True,36,0
JP-M-23M23S1,588,experiment,102,↑,up,↑,0.5106187000637874,True,36,1
JP-M-23M23S1,589,experiment,62,↓,down,↓,0.47095079999417067,True,36,1
JP-M-23M23S1,590,experiment,107,→,right,→,0.6641608000500128,True,36,0
JP-M-23M23S1,591,experiment,81,↑,no_key,no_letter,-1.0,False,36,1
JP-M-23M23S1,592,experiment,83,←,left,←,0.5617537000216544,True,36,1
JP-M-23M23S1,593,experiment,75,←,left,←,0.5231217000400648,True,36,1
JP-M-23M23S1,594,experiment,106,→,right,→,0.4678283999674022,True,36,1
JP-M-23M23S1,595,experiment,79,↓,up,↑,0.5187668000580743,False,36,0
JP-M-23M23S1,596,experiment,85,←,left,←,0.5983175999717787,True,36,1
JP-M-23M23S1,597,experiment,51,↑,down,↓,0.6064331999514252,False,36,1
JP-M-23M23S1,598,experiment,67,←,left,←,0.5677386000752449,True,36,1
JP-M-23M23S1,599,experiment,64,←,right,→,0.8604182000271976,False,36,1
JP-M-23M23S1,600,experiment,99,↓,down,↓,0.6017215999308974,True,36,1
JP-M-23M23S1,601,experiment,87,←,left,←,0.5814478000393137,True,36,1
JP-M-23M23S1,602,experiment,92,←,left,←,0.5122644000221044,True,36,1
JP-M-23M23S1,603,experiment,71,↓,down,↓,0.6205424000509083,True,36,1
JP-M-23M23S1,604,experiment,63,↑,up,↑,0.5829419000074267,True,36,1
JP-M-23M23S1,605,experiment,98,↑,up,↑,0.5518403000896797,True,36,1
JP-M-23M23S1,606,experiment,49,↑,up,↑,0.6900210999883711,True,36,1
JP-M-23M23S1,607,experiment,84,→,left,←,0.5468391000758857,False,36,1
JP-M-23M23S1,608,training,51,↑,up,↑,0.5437033000634983,True,36,0
JP-M-23M23S1,609,training,105,↓,down,↓,0.71948969992809,True,36,1
JP-M-23M23S1,610,experiment,91,↓,up,↑,0.6851657000370324,False,36,1
JP-M-23M23S1,611,experiment,103,→,right,→,0.6644380999496207,True,36,1
JP-M-23M23S1,612,experiment,55,→,right,→,0.4255160999018699,True,36,1
JP-M-23M23S1,613,experiment,74,↓,down,↓,0.4432575999526307,True,36,0
JP-M-23M23S1,614,experiment,71,↓,down,↓,0.43408549996092916,True,36,0
JP-M-23M23S1,615,experiment,81,↑,down,↓,0.5248595000011846,False,36,0
JP-M-23M23S1,616,experiment,84,↑,up,↑,0.4504114000592381,True,36,1
JP-M-23M23S1,617,experiment,79,←,left,←,0.5445703000295907,True,36,0
JP-M-23M23S1,618,experiment,73,↓,down,↓,0.45073949999641627,True,36,1
JP-M-23M23S1,619,experiment,85,↓,down,↓,0.5488872999558225,True,36,0
JP-M-23M23S1,620,experiment,77,→,right,→,0.7579189999960363,True,36,1
JP-M-23M23S1,621,experiment,90,←,left,←,0.5382296000607312,True,36,1
JP-M-23M23S1,622,experiment,97,↓,down,↓,0.5568911000154912,True,36,1
JP-M-23M23S1,623,experiment,93,↓,down,↓,0.4418267000000924,True,36,1
JP-M-23M23S1,624,experiment,56,↓,down,↓,0.43318559997715056,True,36,0
JP-M-23M23S1,625,experiment,89,↑,up,↑,0.837299499893561,True,36,0
JP-M-23M23S1,626,experiment,102,↑,up,↑,0.730772600043565,True,36,1
JP-M-23M23S1,627,experiment,61,↓,down,↓,0.5537796999560669,True,36,1
JP-M-23M23S1,628,experiment,58,↓,down,↓,0.41827979998197407,True,36,1
JP-M-23M23S1,629,experiment,100,→,right,→,0.4340396999614313,True,36,0
JP-M-23M23S1,630,experiment,65,→,right,→,0.6400652000447735,True,36,0
JP-M-23M23S1,631,experiment,99,←,left,←,0.5263018000405282,True,36,1
JP-M-23M23S1,632,experiment,76,↑,up,↑,0.5603179999161512,True,36,1
JP-M-23M23S1,633,experiment,69,→,right,→,0.8918383000418544,True,36,1
JP-M-23M23S1,634,experiment,94,↑,up,↑,0.497501700068824,True,36,1
JP-M-23M23S1,635,experiment,78,↓,up,↑,0.7718460999894887,False,36,1
JP-M-23M23S1,636,experiment,67,←,left,←,0.5912985999602824,True,36,1
JP-M-23M23S1,637,experiment,72,↓,no_key,no_letter,-1.0,False,36,1
JP-M-23M23S1,638,experiment,107,←,left,←,0.5350070999702439,True,36,1
JP-M-23M23S1,639,experiment,70,←,left,←,0.468284499947913,True,36,1
JP-M-23M23S1,640,experiment,104,←,left,←,0.49412869999650866,True,36,0
JP-M-23M23S1,641,experiment,66,←,left,←,0.485173900029622,True,36,1
JP-M-23M23S1,642,experiment,59,→,right,→,0.42514990002382547,True,36,1
JP-M-23M23S1,643,experiment,106,↓,down,↓,0.43503599998075515,True,36,0
JP-M-23M23S1,644,experiment,75,→,right,→,0.400289100012742,True,36,0
JP-M-23M23S1,645,experiment,48,→,right,→,0.44152069999836385,True,36,0
JP-M-23M23S1,646,experiment,101,↓,down,↓,0.6127760999370366,True,36,0
JP-M-23M23S1,647,experiment,49,↑,up,↑,0.6521887000417337,True,36,1
JP-M-23M23S1,648,experiment,57,↓,down,↓,0.385104599990882,True,36,1
JP-M-23M23S1,649,experiment,98,→,right,→,0.4500553000252694,True,36,0
JP-M-23M23S1,650,experiment,64,←,left,←,0.520647699944675,True,36,0
JP-M-23M23S1,651,experiment,52,↑,up,↑,0.746883999905549,True,36,1
JP-M-23M23S1,652,experiment,68,↑,up,↑,0.43316669994965196,True,36,1
JP-M-23M23S1,653,experiment,96,→,no_key,no_letter,-1.0,False,36,0
JP-M-23M23S1,654,experiment,108,↑,up,↑,0.48435899999458343,True,36,1
JP-M-23M23S1,655,experiment,95,←,left,←,0.5219244000036269,True,36,1
JP-M-23M23S1,656,experiment,51,↓,down,↓,0.6124192998977378,True,36,1
JP-M-23M23S1,657,experiment,86,←,left,←,0.4008687000023201,True,36,1
JP-M-23M23S1,658,experiment,50,←,left,←,0.44196159997954965,True,36,0
JP-M-23M23S1,659,experiment,82,↑,up,↑,0.6264929000753909,True,36,0
JP-M-23M23S1,660,experiment,60,→,right,→,0.3920763999922201,True,36,1
JP-M-23M23S1,661,experiment,87,→,right,→,0.5378346999641508,True,36,0
JP-M-23M23S1,662,experiment,53,→,left,←,0.5631360999541357,False,36,1
JP-M-23M23S1,663,experiment,83,↓,down,↓,0.6576493999455124,True,36,1
JP-M-23M23S1,664,experiment,105,←,left,←,0.5328964999644086,True,36,1
JP-M-23M23S1,665,experiment,80,↑,up,↑,0.4422123999102041,True,36,1
JP-M-23M23S1,666,experiment,62,←,left,←,0.4793564999708906,True,36,0
JP-M-23M23S1,667,experiment,92,↑,down,↓,0.8060703999362886,False,36,1
JP-M-23M23S1,668,experiment,63,←,left,←,0.5134461999405175,True,36,1
JP-M-23M23S1,669,experiment,88,↓,down,↓,0.5360425999388099,True,36,1
JP-M-23M23S1,670,experiment,54,↓,down,↓,0.4338708999566734,True,36,1
JP-M-23M23S1,671,training,99,→,right,→,0.5074495999142528,True,36,0
JP-M-23M23S1,672,training,104,↑,no_key,no_letter,-1.0,False,36,1
JP-M-23M23S1,673,experiment,56,→,right,→,0.4692183999577537,True,36,1
JP-M-23M23S1,674,experiment,63,↓,down,↓,0.5574812000850216,True,36,0
JP-M-23M23S1,675,experiment,81,←,left,←,0.652684299973771,True,36,1
JP-M-23M23S1,676,experiment,82,↑,down,↓,0.5199784999713302,False,36,1
JP-M-23M23S1,677,experiment,50,→,right,→,0.44226489996071905,True,36,1
JP-M-23M23S1,678,experiment,62,←,right,→,0.47739019989967346,False,36,0
JP-M-23M23S1,679,experiment,84,↓,down,↓,0.4505709999939427,True,36,1
JP-M-23M23S1,680,experiment,78,↑,up,↑,0.546645800000988,True,36,0
JP-M-23M23S1,681,experiment,103,↓,down,↓,0.4421940000029281,True,36,1
JP-M-23M23S1,682,experiment,83,↑,up,↑,0.589611699921079,True,36,0
JP-M-23M23S1,683,experiment,75,←,no_key,no_letter,-1.0,False,36,1
JP-M-23M23S1,684,experiment,106,↑,up,↑,0.42552819999400526,True,36,1
JP-M-23M23S1,685,experiment,55,←,left,←,0.6575991000281647,True,36,0
JP-M-23M23S1,686,experiment,89,→,left,←,0.4901813000906259,False,36,1
JP-M-23M23S1,687,experiment,70,→,right,→,0.4879073000047356,True,36,1
JP-M-23M23S1,688,experiment,96,↓,down,↓,0.5807356999721378,True,36,1
JP-M-23M23S1,689,experiment,57,→,right,→,0.4672590000554919,True,36,1
JP-M-23M23S1,690,experiment,98,←,right,→,0.433642000076361,False,36,0
JP-M-23M23S1,691,experiment,60,→,right,→,0.44217440008651465,True,36,0
JP-M-23M23S1,692,experiment,65,→,right,→,0.4504014999838546,True,36,0
JP-M-23M23S1,693,experiment,91,←,left,←,0.42532710009254515,True,36,0
JP-M-23M23S1,694,experiment,88,↓,down,↓,0.5656783999875188,True,36,0
JP-M-23M23S1,695,experiment,74,→,right,→,0.45099699997808784,True,36,1
JP-M-23M23S1,696,experiment,52,↓,down,↓,0.5318854000652209,True,36,0
JP-M-23M23S1,697,experiment,77,←,left,←,0.5651655000401661,True,36,1
JP-M-23M23S1,698,experiment,68,←,left,←,0.4339890000410378,True,36,1
JP-M-23M23S1,699,experiment,94,↓,down,↓,0.4805330999661237,True,36,0
JP-M-23M23S1,700,experiment,76,↑,up,↑,0.8841668999521062,True,36,1
JP-M-23M23S1,701,experiment,86,↑,down,↓,0.5567803999874741,False,36,1
JP-M-23M23S1,702,experiment,69,↑,up,↑,0.5120822000317276,True,36,1
JP-M-23M23S1,703,experiment,79,←,left,←,0.6016388999996707,True,36,1
JP-M-23M23S1,704,experiment,97,↑,no_key,no_letter,-1.0,False,36,1
JP-M-23M23S1,705,experiment,54,←,left,←,0.47490950010251254,True,36,1
JP-M-23M23S1,706,experiment,59,↓,down,↓,0.4683625999605283,True,36,1
JP-M-23M23S1,707,experiment,104,↓,down,↓,0.44197640009224415,True,36,0
JP-M-23M23S1,708,experiment,61,→,right,→,0.6648656000616029,True,36,0
JP-M-23M23S1,709,experiment,66,↑,up,↑,0.5209996999474242,True,36,1
JP-M-23M23S1,710,experiment,72,→,right,→,0.652597599895671,True,36,1
JP-M-23M23S1,711,experiment,107,↓,down,↓,0.6556886000325903,True,36,1
JP-M-23M23S1,712,experiment,80,←,left,←,0.5234140999382362,True,36,1
JP-M-23M23S1,713,experiment,100,↓,down,↓,0.4775978000834584,True,36,1
JP-M-23M23S1,714,experiment,101,←,left,←,0.6415215999586508,True,36,1
JP-M-23M23S1,715,experiment,53,↓,down,↓,0.49496739997994155,True,36,1
JP-M-23M23S1,716,experiment,92,→,right,→,0.4929328999714926,True,36,1
JP-M-23M23S1,717,experiment,85,→,no_key,no_letter,-1.0,False,36,1
JP-M-23M23S1,718,experiment,73,←,left,←,0.503549600020051,True,36,1
JP-M-23M23S1,719,experiment,48,↓,down,↓,0.5475510000251234,True,36,1
JP-M-23M23S1,720,experiment,64,↑,down,↓,0.6329745999537408,False,36,1
JP-M-23M23S1,721,experiment,51,←,left,←,0.5672995999921113,True,36,1
JP-M-23M23S1,722,experiment,93,↓,down,↓,0.6020022999728099,True,36,1
JP-M-23M23S1,723,experiment,58,↓,down,↓,0.4956737000029534,True,36,1
JP-M-23M23S1,724,experiment,67,→,right,→,0.5495684000197798,True,36,1
JP-M-23M23S1,725,experiment,71,←,right,→,0.5206840999890119,False,36,1
JP-M-23M23S1,726,experiment,108,↓,down,↓,0.6241679000668228,True,36,1
JP-M-23M23S1,727,experiment,90,→,right,→,0.681922199903056,True,36,1
JP-M-23M23S1,728,experiment,99,←,left,←,0.6064486000686884,True,36,1
JP-M-23M23S1,729,experiment,49,→,right,→,0.6781038000481203,True,36,1
JP-M-23M23S1,730,experiment,95,↓,down,↓,0.5002853999612853,True,36,1
JP-M-23M23S1,731,experiment,87,↑,up,↑,0.5237282000016421,True,36,1
JP-M-23M23S1,732,experiment,102,↓,down,↓,0.6696037000510842,True,36,1
JP-M-23M23S1,733,experiment,105,↓,down,↓,0.5603846000740305,True,36,1
JP-M-23M23S1,734,training,94,→,right,→,0.47738099994603544,True,36,0
JP-M-23M23S1,735,training,66,→,left,←,0.5004618000239134,False,36,1
JP-M-23M23S1,736,experiment,70,↓,no_key,no_letter,-1.0,False,36,1
JP-M-23M23S1,737,experiment,73,←,left,←,0.6515916999196634,True,36,1
JP-M-23M23S1,738,experiment,101,←,left,←,0.5444845999591053,True,36,1
JP-M-23M23S1,739,experiment,108,↑,up,↑,0.5276176000479609,True,36,1
JP-M-23M23S1,740,experiment,98,←,right,→,0.7710676999995485,False,36,1
JP-M-23M23S1,741,experiment,51,→,right,→,0.5791495000012219,True,36,1
JP-M-23M23S1,742,experiment,62,↓,down,↓,0.5288167999824509,True,36,1
JP-M-23M23S1,743,experiment,104,↑,down,↓,0.7126365000149235,False,36,1
JP-M-23M23S1,744,experiment,80,↑,down,↓,0.530444800038822,False,36,1
JP-M-23M23S1,745,experiment,60,→,right,→,0.48994220001623034,True,36,1
JP-M-23M23S1,746,experiment,89,↑,up,↑,0.4505314000416547,True,36,1
JP-M-23M23S1,747,experiment,49,→,right,→,0.4946191000053659,True,36,0
JP-M-23M23S1,748,experiment,48,←,right,→,0.6195263999979943,False,36,1
JP-M-23M23S1,749,experiment,95,↑,up,↑,0.5800462999613956,True,36,1
JP-M-23M23S1,750,experiment,64,→,right,→,0.47238469996955246,True,36,1
JP-M-23M23S1,751,experiment,85,↑,up,↑,0.47378520003985614,True,36,1
JP-M-23M23S1,752,experiment,99,←,left,←,0.5895364000461996,True,36,1
JP-M-23M23S1,753,experiment,68,↑,up,↑,0.4722158999647945,True,36,1
JP-M-23M23S1,754,experiment,107,→,right,→,0.5298798000440001,True,36,1
JP-M-23M23S1,755,experiment,102,←,right,→,0.5069446999114007,False,36,1
JP-M-23M23S1,756,experiment,90,→,right,→,0.40054070006590337,True,36,1
JP-M-23M23S1,757,experiment,84,←,no_key,no_letter,-1.0,False,36,0
JP-M-23M23S1,758,experiment,87,←,left,←,0.7229722000192851,True,36,1
JP-M-23M23S1,759,experiment,63,←,no_key,no_letter,-1.0,False,36,1
JP-M-23M23S1,760,experiment,105,↓,down,↓,0.585067700012587,True,36,1
JP-M-23M23S1,761,experiment,77,→,right,→,0.6248997000511736,True,36,1
JP-M-23M23S1,762,experiment,55,→,no_key,no_letter,-1.0,False,36,1
JP-M-23M23S1,763,experiment,96,↑,up,↑,0.5126479999162257,True,36,1
JP-M-23M23S1,764,experiment,103,↓,no_key,no_letter,-1.0,False,36,1
JP-M-23M23S1,765,experiment,58,↓,down,↓,0.537091700010933,True,36,1
JP-M-23M23S1,766,experiment,100,→,right,→,0.6510953000979498,True,36,1
JP-M-23M23S1,767,experiment,61,→,no_key,no_letter,-1.0,False,36,1
JP-M-23M23S1,768,experiment,67,←,left,←,0.5135034000268206,True,36,1
JP-M-23M23S1,769,experiment,106,←,left,←,0.48251730005722493,True,36,1
JP-M-23M23S1,770,experiment,74,↑,up,↑,0.6466813998995349,True,36,1
JP-M-23M23S1,771,experiment,78,↓,down,↓,0.6833750999066979,True,36,1
JP-M-23M23S1,772,experiment,69,→,right,→,0.4416695999680087,True,36,1
JP-M-23M23S1,773,experiment,81,↓,down,↓,0.5811853000195697,True,36,0
JP-M-23M23S1,774,experiment,71,↑,up,↑,0.6468540999339893,True,36,1
JP-M-23M23S1,775,experiment,57,→,right,→,0.7142818999709561,True,36,1
JP-M-23M23S1,776,experiment,56,←,left,←,0.7074439000571147,True,36,1
JP-M-23M23S1,777,experiment,75,↓,no_key,no_letter,-1.0,False,36,1
JP-M-23M23S1,778,experiment,83,↑,down,↓,0.7339352000271901,False,36,1
JP-M-23M23S1,779,experiment,59,↓,down,↓,0.5573607999831438,True,36,1
JP-M-23M23S1,780,experiment,88,↑,no_key,no_letter,-1.0,False,36,1
JP-M-23M23S1,781,experiment,91,↓,down,↓,0.598435299936682,True,36,1
JP-M-23M23S1,782,experiment,65,↓,down,↓,0.4973840999882668,True,36,1
JP-M-23M23S1,783,experiment,86,→,right,→,0.6573967000003904,True,36,1
JP-M-23M23S1,784,experiment,54,↑,down,↓,0.5576942999614403,False,36,1
JP-M-23M23S1,785,experiment,82,↓,down,↓,0.940673700068146,True,36,1
JP-M-23M23S1,786,experiment,66,←,left,←,0.5375954000046477,True,36,1
JP-M-23M23S1,787,experiment,92,←,no_key,no_letter,-1.0,False,36,1
JP-M-23M23S1,788,experiment,94,↓,down,↓,0.44209979998413473,True,36,1
JP-M-23M23S1,789,experiment,50,→,right,→,0.6389542000833899,True,36,0
JP-M-23M23S1,790,experiment,52,↓,down,↓,0.5011347000254318,True,36,1
JP-M-23M23S1,791,experiment,53,↑,up,↑,0.5595139000797644,True,36,1
JP-M-23M23S1,792,experiment,72,←,no_key,no_letter,-1.0,False,36,1
JP-M-23M23S1,793,experiment,97,←,left,←,0.587949899956584,True,36,1
JP-M-23M23S1,794,experiment,79,↑,up,↑,0.5784870999632403,True,36,1
JP-M-23M23S1,795,experiment,76,↑,down,↓,0.578836299944669,False,36,1
JP-M-23M23S1,796,experiment,93,→,left,←,0.5331865000771359,False,36,1
JP-M-23M23S1,797,training,58,←,right,→,1.768569500069134,False,36,0
JP-M-23M23S1,798,training,69,→,right,→,0.5718320000451058,True,36,1
JP-M-23M23S1,799,experiment,95,↓,down,↓,0.6217930999118835,True,36,1
JP-M-23M23S1,800,experiment,71,↑,up,↑,0.44966939999721944,True,36,1
JP-M-23M23S1,801,experiment,101,↓,down,↓,0.7063877999316901,True,36,0
JP-M-23M23S1,802,experiment,92,→,right,→,0.47281499998643994,True,36,1
JP-M-23M23S1,803,experiment,75,↓,down,↓,0.5008345000678673,True,36,1
JP-M-23M23S1,804,experiment,84,↓,down,↓,0.3840673000086099,True,36,1
JP-M-23M23S1,805,experiment,106,↑,up,↑,0.43388380005490035,True,36,0
JP-M-23M23S1,806,experiment,61,↑,up,↑,0.41712640004698187,True,36,0
JP-M-23M23S1,807,experiment,78,↓,down,↓,0.6030677000526339,True,36,0
JP-M-23M23S1,808,experiment,65,↓,no_key,no_letter,-1.0,False,36,1
JP-M-23M23S1,809,experiment,74,↓,down,↓,0.4722737999400124,True,36,1
JP-M-23M23S1,810,experiment,73,→,right,→,0.5972312999656424,True,36,1
JP-M-23M23S1,811,experiment,54,→,right,→,0.40063179994467646,True,36,1
JP-M-23M23S1,812,experiment,94,↓,down,↓,0.38397820002865046,True,36,0
JP-M-23M23S1,813,experiment,62,←,left,←,0.4503893000073731,True,36,0
JP-M-23M23S1,814,experiment,64,→,right,→,0.400729599990882,True,36,0
JP-M-23M23S1,815,experiment,77,↓,down,↓,0.5119320000521839,True,36,0
JP-M-23M23S1,816,experiment,57,↓,down,↓,0.5216555999359116,True,36,1
JP-M-23M23S1,817,experiment,81,→,no_key,no_letter,-1.0,False,36,1
JP-M-23M23S1,818,experiment,89,←,left,←,0.39186149998568,True,36,1
JP-M-23M23S1,819,experiment,55,←,left,←,0.564725200063549,True,36,0
JP-M-23M23S1,820,experiment,67,↑,no_key,no_letter,-1.0,False,36,1
JP-M-23M23S1,821,experiment,85,↑,up,↑,0.4423199000302702,True,36,1
JP-M-23M23S1,822,experiment,69,←,left,←,0.5581303000217304,True,36,0
JP-M-23M23S1,823,experiment,83,→,right,→,0.4336934000020847,True,36,1
JP-M-23M23S1,824,experiment,56,←,left,←,0.48106009990442544,True,36,0
JP-M-23M23S1,825,experiment,79,↓,left,←,0.3589023998938501,False,36,1
JP-M-23M23S1,826,experiment,98,→,right,→,0.43404299998655915,True,36,0
JP-M-23M23S1,827,experiment,97,↑,up,↑,0.47622889990452677,True,36,0
JP-M-23M23S1,828,experiment,107,←,left,←,0.4780841999454424,True,36,1
JP-M-23M23S1,829,experiment,50,↓,up,↑,0.5538386000553146,False,36,1
JP-M-23M23S1,830,experiment,66,←,left,←,0.47842360008507967,True,36,1
JP-M-23M23S1,831,experiment,86,↑,down,↓,0.61488620005548,False,36,1
JP-M-23M23S1,832,experiment,99,↓,down,↓,0.4420121000148356,True,36,1
JP-M-23M23S1,833,experiment,48,↑,down,↓,0.484725599992089,False,36,0
JP-M-23M23S1,834,experiment,63,←,left,←,0.5164721999317408,True,36,1
JP-M-23M23S1,835,experiment,53,↑,up,↑,0.6146377000259236,True,36,1
JP-M-23M23S1,836,experiment,104,→,right,→,0.5959674000041559,True,36,1
JP-M-23M23S1,837,experiment,91,↑,down,↓,0.6223863000050187,False,36,1
JP-M-23M23S1,838,experiment,59,↑,up,↑,0.48283550003543496,True,36,1
JP-M-23M23S1,839,experiment,80,←,right,→,0.5647770999930799,False,36,1
JP-M-23M23S1,840,experiment,103,←,no_key,no_letter,-1.0,False,36,1
JP-M-23M23S1,841,experiment,68,←,left,←,0.48071610007900745,True,36,1
JP-M-23M23S1,842,experiment,76,↑,up,↑,0.4921174000483006,True,36,1
JP-M-23M23S1,843,experiment,49,→,right,→,0.5763994998997077,True,36,1
JP-M-23M23S1,844,experiment,82,→,right,→,0.7989496999653056,True,36,1
JP-M-23M23S1,845,experiment,58,↓,down,↓,0.5082349999574944,True,36,1
JP-M-23M23S1,846,experiment,108,↓,down,↓,0.5245797000825405,True,36,1
JP-M-23M23S1,847,experiment,70,↓,down,↓,0.4338203000370413,True,36,1
JP-M-23M23S1,848,experiment,102,↑,up,↑,0.622375400038436,True,36,0
JP-M-23M23S1,849,experiment,93,↑,up,↑,0.534490599995479,True,36,1
JP-M-23M23S1,850,experiment,96,→,left,←,0.5617315999697894,False,36,1
JP-M-23M23S1,851,experiment,72,←,no_key,no_letter,-1.0,False,36,1
JP-M-23M23S1,852,experiment,88,↑,right,→,0.9054302000440657,False,36,1
JP-M-23M23S1,853,experiment,90,↑,up,↑,0.4420430000172928,True,36,1
JP-M-23M23S1,854,experiment,105,←,left,←,0.483692399924621,True,36,0
JP-M-23M23S1,855,experiment,87,→,right,→,0.6596454000100493,True,36,1
JP-M-23M23S1,856,experiment,52,→,right,→,0.5364093000534922,True,36,1
JP-M-23M23S1,857,experiment,100,←,left,←,0.6585732999956235,True,36,1
JP-M-23M23S1,858,experiment,51,↓,down,↓,0.5836653000442311,True,36,1
JP-M-23M23S1,859,experiment,60,↑,down,↓,0.7410336999455467,False,36,1
JP-M-23M23S1,860,training,48,↓,down,↓,0.6818993999622762,True,36,0
JP-M-23M23S1,861,training,76,↑,down,↓,0.5259173000231385,False,36,1
JP-M-23M23S1,862,experiment,101,←,left,←,0.41737359995022416,True,36,1
JP-M-23M23S1,863,experiment,60,→,right,→,0.5472001999150962,True,36,0
JP-M-23M23S1,864,experiment,77,←,left,←,0.3588974999729544,True,36,1
JP-M-23M23S1,865,experiment,68,↑,down,↓,0.5755042000673711,False,36,0
JP-M-23M23S1,866,experiment,52,↑,up,↑,0.45033510006032884,True,36,1
JP-M-23M23S1,867,experiment,93,←,right,→,0.4950224000494927,False,36,0
JP-M-23M23S1,868,experiment,48,→,right,→,0.4506052000215277,True,36,1
JP-M-23M23S1,869,experiment,91,→,right,→,0.40827639994677156,True,36,0
JP-M-23M23S1,870,experiment,81,←,left,←,0.47257470001932234,True,36,0
JP-M-23M23S1,871,experiment,75,→,right,→,0.41699320008046925,True,36,1
JP-M-23M23S1,872,experiment,71,→,left,←,0.4692754000425339,False,36,0
JP-M-23M23S1,873,experiment,62,↑,up,↑,0.509675299981609,True,36,0
JP-M-23M23S1,874,experiment,54,↑,up,↑,0.42551560001447797,True,36,1
JP-M-23M23S1,875,experiment,103,→,right,→,0.4005188000155613,True,36,0
JP-M-23M23S1,876,experiment,94,↓,down,↓,0.6215716999722645,True,36,0
JP-M-23M23S1,877,experiment,53,←,left,←,0.4834846999729052,True,36,1
JP-M-23M23S1,878,experiment,85,↓,down,↓,0.40900570002850145,True,36,1
JP-M-23M23S1,879,experiment,76,↑,down,↓,0.4829215999925509,False,36,0
JP-M-23M23S1,880,experiment,61,←,left,←,0.44222649990115315,True,36,1
JP-M-23M23S1,881,experiment,97,←,no_key,no_letter,-1.0,False,36,0
JP-M-23M23S1,882,experiment,82,↑,no_key,no_letter,-1.0,False,36,1
JP-M-23M23S1,883,experiment,51,←,left,←,0.6585925999097526,True,36,1
JP-M-23M23S1,884,experiment,65,↓,down,↓,0.7073337000329047,True,36,1
JP-M-23M23S1,885,experiment,80,↓,down,↓,0.4258569999365136,True,36,1
JP-M-23M23S1,886,experiment,79,↓,down,↓,0.42558510007802397,True,36,0
JP-M-23M23S1,887,experiment,87,↓,down,↓,0.5160505000967532,True,36,0
JP-M-23M23S1,888,experiment,104,↑,up,↑,0.6293240999802947,True,36,1
JP-M-23M23S1,889,experiment,105,→,right,→,0.6657364000566304,True,36,1
JP-M-23M23S1,890,experiment,106,→,right,→,0.40861780010163784,True,36,1
JP-M-23M23S1,891,experiment,98,←,left,←,0.4088542000390589,True,36,0
JP-M-23M23S1,892,experiment,72,←,left,←,0.3592174999648705,True,36,0
JP-M-23M23S1,893,experiment,57,↓,down,↓,0.5704264999367297,True,36,0
JP-M-23M23S1,894,experiment,66,←,left,←,0.47039459994994104,True,36,1
JP-M-23M23S1,895,experiment,70,↑,up,↑,0.6282973000779748,True,36,0
JP-M-23M23S1,896,experiment,64,→,left,←,0.5025339000858366,False,36,1
JP-M-23M23S1,897,experiment,107,→,right,→,0.6475076000206172,True,36,1
JP-M-23M23S1,898,experiment,88,↓,down,↓,0.4336804000195116,True,36,1
JP-M-23M23S1,899,experiment,78,←,left,←,0.4422210999764502,True,36,0
JP-M-23M23S1,900,experiment,63,↑,up,↑,0.4719584999838844,True,36,0
JP-M-23M23S1,901,experiment,50,↑,up,↑,0.4004944999469444,True,36,0
JP-M-23M23S1,902,experiment,90,↑,no_key,no_letter,-1.0,False,36,0
JP-M-23M23S1,903,experiment,89,→,right,→,0.42534580000210553,True,36,1
JP-M-23M23S1,904,experiment,96,↓,down,↓,0.6828872000332922,True,36,0
JP-M-23M23S1,905,experiment,59,←,left,←,0.5480680000036955,True,36,1
JP-M-23M23S1,906,experiment,83,↓,down,↓,0.40902260004077107,True,36,1
JP-M-23M23S1,907,experiment,55,↑,up,↑,0.5047824999783188,True,36,0
JP-M-23M23S1,908,experiment,86,↑,up,↑,0.367140099988319,True,36,1
JP-M-23M23S1,909,experiment,73,↓,down,↓,0.5217001000419259,True,36,0
JP-M-23M23S1,910,experiment,99,↑,up,↑,0.4502385000232607,True,36,1
JP-M-23M23S1,911,experiment,84,←,left,←,0.5904651000164449,True,36,0
JP-M-23M23S1,912,experiment,92,←,left,←,0.49708999996073544,True,36,1
JP-M-23M23S1,913,experiment,49,→,right,→,0.49309400003403425,True,36,1
JP-M-23M23S1,914,experiment,108,←,left,←,0.5581813000608236,True,36,1
JP-M-23M23S1,915,experiment,58,↓,down,↓,0.5890440000221133,True,36,1
JP-M-23M23S1,916,experiment,69,←,left,←,0.5109830000437796,True,36,1
JP-M-23M23S1,917,experiment,95,↓,down,↓,0.5235129999928176,True,36,1
JP-M-23M23S1,918,experiment,67,←,left,←,0.36758199997711927,True,36,1
JP-M-23M23S1,919,experiment,74,←,left,←,0.4820993000175804,True,36,0
JP-M-23M23S1,920,experiment,56,↑,down,↓,0.4766686001094058,False,36,1
JP-M-23M23S1,921,experiment,100,↑,up,↑,0.4965125999879092,True,36,1
JP-M-23M23S1,922,experiment,102,→,left,←,0.5951077000936493,False,36,1
JP-M-23M23S1,923,training,56,←,left,←,0.6015925999963656,True,36,0
JP-M-23M23S1,924,training,103,→,right,→,0.655670200008899,True,36,1
JP-M-23M23S1,925,experiment,97,↓,no_key,no_letter,-1.0,False,36,1
JP-M-23M23S1,926,experiment,107,↓,down,↓,0.6206743000075221,True,36,1
JP-M-23M23S1,927,experiment,57,↓,no_key,no_letter,-1.0,False,36,1
JP-M-23M23S1,928,experiment,72,↑,up,↑,0.42538830009289086,True,36,1
JP-M-23M23S1,929,experiment,85,↓,down,↓,0.5273505999939516,True,36,0
JP-M-23M23S1,930,experiment,102,↑,up,↑,0.4180503999814391,True,36,1
JP-M-23M23S1,931,experiment,48,←,left,←,0.49592649994883686,True,36,0
JP-M-23M23S1,932,experiment,62,→,right,→,0.6874568000202999,True,36,1
JP-M-23M23S1,933,experiment,105,↑,up,↑,0.4263834999874234,True,36,1
JP-M-23M23S1,934,experiment,101,←,left,←,0.4794994000112638,True,36,0
JP-M-23M23S1,935,experiment,86,→,right,→,0.392611600109376,True,36,1
JP-M-23M23S1,936,experiment,61,←,left,←,0.44221020000986755,True,36,0
JP-M-23M23S1,937,experiment,68,↓,down,↓,0.417231599916704,True,36,0
JP-M-23M23S1,938,experiment,76,↓,down,↓,0.5780359000200406,True,36,0
JP-M-23M23S1,939,experiment,78,←,left,←,0.5295759999426082,True,36,1
JP-M-23M23S1,940,experiment,70,→,right,→,0.42540109995752573,True,36,1
JP-M-23M23S1,941,experiment,51,↓,down,↓,0.5715271000517532,True,36,0
JP-M-23M23S1,942,experiment,65,↑,up,↑,0.471902999910526,True,36,1
JP-M-23M23S1,943,experiment,66,↑,up,↑,0.42522490001283586,True,36,0
JP-M-23M23S1,944,experiment,69,→,right,→,0.4170420999871567,True,36,0
JP-M-23M23S1,945,experiment,91,↑,up,↑,0.4254150000633672,True,36,0
JP-M-23M23S1,946,experiment,82,→,right,→,0.40882700006477535,True,36,0
JP-M-23M23S1,947,experiment,59,→,down,↓,0.38426199997775257,False,36,0
JP-M-23M23S1,948,experiment,100,←,no_key,no_letter,-1.0,False,36,0
JP-M-23M23S1,949,experiment,63,←,left,←,0.4937006999971345,True,36,1
JP-M-23M23S1,950,experiment,103,→,no_key,no_letter,-1.0,False,36,1
JP-M-23M23S1,951,experiment,52,←,left,←,0.5533064999617636,True,36,1
JP-M-23M23S1,952,experiment,92,↓,down,↓,0.5893581999698654,True,36,1
JP-M-23M23S1,953,experiment,96,→,right,→,0.6542913999874145,True,36,1
JP-M-23M23S1,954,experiment,88,←,left,←,0.5191730000078678,True,36,1
JP-M-23M23S1,955,experiment,56,↑,up,↑,0.5843815999105573,True,36,1
JP-M-23M23S1,956,experiment,87,↓,down,↓,0.5248396000824869,True,36,1
JP-M-23M23S1,957,experiment,64,→,right,→,0.44223829999100417,True,36,1
JP-M-23M23S1,958,experiment,77,→,right,→,0.599963300046511,True,36,0
JP-M-23M23S1,959,experiment,54,←,left,←,0.39222389995120466,True,36,1
JP-M-23M23S1,960,experiment,71,←,left,←,0.40861300006508827,True,36,0
JP-M-23M23S1,961,experiment,73,↑,up,↑,0.7189520999090746,True,36,0
JP-M-23M23S1,962,experiment,80,→,right,→,0.40896100003737956,True,36,1
JP-M-23M23S1,963,experiment,67,→,right,→,0.4171479999786243,True,36,0
JP-M-23M23S1,964,experiment,74,↓,down,↓,0.5846497999737039,True,36,0
JP-M-23M23S1,965,experiment,104,←,no_key,no_letter,-1.0,False,36,1
JP-M-23M23S1,966,experiment,75,→,no_key,no_letter,-1.0,False,36,1
JP-M-23M23S1,967,experiment,55,↓,down,↓,0.45044859999325126,True,36,1
JP-M-23M23S1,968,experiment,79,←,down,↓,0.4254280000459403,False,36,0
JP-M-23M23S1,969,experiment,94,↑,up,↑,0.5967243999475613,True,36,0
JP-M-23M23S1,970,experiment,49,↑,up,↑,0.5089196999324486,True,36,1
JP-M-23M23S1,971,experiment,93,↓,down,↓,0.4432511000195518,True,36,1
JP-M-23M23S1,972,experiment,83,↑,up,↑,0.4692885000258684,True,36,0
JP-M-23M23S1,973,experiment,95,↑,no_key,no_letter,-1.0,False,36,0
JP-M-23M23S1,974,experiment,84,←,right,→,0.6333050000248477,False,36,1
JP-M-23M23S1,975,experiment,98,↓,down,↓,0.5838791000423953,True,36,1
JP-M-23M23S1,976,experiment,106,→,right,→,0.6299957999726757,True,36,1
JP-M-23M23S1,977,experiment,99,↑,up,↑,0.6122078000335023,True,36,1
JP-M-23M23S1,978,experiment,108,←,left,←,0.417097800062038,True,36,1
JP-M-23M23S1,979,experiment,58,↓,down,↓,0.5565641999710351,True,36,0
JP-M-23M23S1,980,experiment,53,→,right,→,0.9809694999130443,True,36,1
JP-M-23M23S1,981,experiment,60,↓,down,↓,0.5462320999940857,True,36,1
JP-M-23M23S1,982,experiment,90,↑,up,↑,0.6229214000049978,True,36,1
JP-M-23M23S1,983,experiment,50,→,left,←,0.5497092000441626,False,36,1
JP-M-23M23S1,984,experiment,89,↑,up,↑,1.0347825000062585,True,36,1
JP-M-23M23S1,985,experiment,81,←,left,←,0.5671784000005573,True,36,1
JP-M-23M23S1,986,training,70,→,right,→,0.43381469999440014,True,36,0
JP-M-23M23S1,987,training,89,↑,up,↑,0.40872339997440577,True,36,0
JP-M-23M23S1,988,experiment,105,↓,down,↓,0.5866065999725834,True,36,0
JP-M-23M23S1,989,experiment,75,→,right,→,0.42569930001627654,True,36,1
JP-M-23M23S1,990,experiment,89,←,right,→,0.5084295000415295,False,36,0
JP-M-23M23S1,991,experiment,61,↑,down,↓,0.8764262000331655,False,36,1
JP-M-23M23S1,992,experiment,59,→,right,→,0.606255599996075,True,36,1
JP-M-23M23S1,993,experiment,77,→,right,→,0.42462059995159507,True,36,1
JP-M-23M23S1,994,experiment,48,→,right,→,0.580271500046365,True,36,0
JP-M-23M23S1,995,experiment,87,→,right,→,0.41719489998649806,True,36,1
JP-M-23M23S1,996,experiment,78,↓,down,↓,0.5980256999609992,True,36,0
JP-M-23M23S1,997,experiment,73,↓,down,↓,0.40904370008502156,True,36,1
JP-M-23M23S1,998,experiment,86,←,left,←,0.5855730000184849,True,36,0
JP-M-23M23S1,999,experiment,85,←,left,←,0.5264368000207469,True,36,1
JP-M-23M23S1,1000,experiment,70,←,left,←,0.4162631999934092,True,36,1
JP-M-23M23S1,1001,experiment,80,↑,no_key,no_letter,-1.0,False,36,0
JP-M-23M23S1,1002,experiment,97,↓,down,↓,0.5857009999454021,True,36,1
JP-M-23M23S1,1003,experiment,52,↓,no_key,no_letter,-1.0,False,36,1
JP-M-23M23S1,1004,experiment,100,↑,up,↑,0.44278099993243814,True,36,1
JP-M-23M23S1,1005,experiment,51,↓,down,↓,0.8002349999733269,True,36,0
JP-M-23M23S1,1006,experiment,53,→,right,→,0.4340107999742031,True,36,1
JP-M-23M23S1,1007,experiment,74,↑,down,↓,0.48560719995293766,False,36,0
JP-M-23M23S1,1008,experiment,104,↑,up,↑,0.5600461999420077,True,36,1
JP-M-23M23S1,1009,experiment,57,↑,up,↑,0.47999390005134046,True,36,1
JP-M-23M23S1,1010,experiment,99,↑,up,↑,0.5317049999721348,True,36,1
JP-M-23M23S1,1011,experiment,58,→,left,←,0.5396380999591202,False,36,1
JP-M-23M23S1,1012,experiment,56,←,no_key,no_letter,-1.0,False,36,1
JP-M-23M23S1,1013,experiment,69,↑,up,↑,0.47162870003376156,True,36,1
JP-M-23M23S1,1014,experiment,63,→,right,→,0.615678499918431,True,36,1
JP-M-23M23S1,1015,experiment,95,←,left,←,0.5678932999726385,True,36,1
JP-M-23M23S1,1016,experiment,50,↑,left,←,1.0091456000227481,False,36,1
JP-M-23M23S1,1017,experiment,106,→,right,→,0.5664848000742495,True,36,1
JP-M-23M23S1,1018,experiment,67,↓,down,↓,0.48237550002522767,True,36,1
JP-M-23M23S1,1019,experiment,54,←,right,→,0.5651221999432892,False,36,1
JP-M-23M23S1,1020,experiment,83,↓,no_key,no_letter,-1.0,False,36,1
JP-M-23M23S1,1021,experiment,91,→,right,→,0.44220529997255653,True,36,1
JP-M-23M23S1,1022,experiment,92,←,left,←,0.4801804000744596,True,36,0
JP-M-23M23S1,1023,experiment,65,←,left,←,0.40873009990900755,True,36,1
JP-M-23M23S1,1024,experiment,55,→,right,→,0.5725648000370711,True,36,0
JP-M-23M23S1,1025,experiment,101,←,right,→,0.5085312000010163,False,36,1
JP-M-23M23S1,1026,experiment,71,←,left,←,0.48913479992188513,True,36,1
JP-M-23M23S1,1027,experiment,102,↑,up,↑,0.716183100012131,True,36,1
JP-M-23M23S1,1028,experiment,88,←,left,←,0.6907269000075758,True,36,1
JP-M-23M23S1,1029,experiment,90,→,right,→,0.561784700024873,True,36,1
JP-M-23M23S1,1030,experiment,94,↓,down,↓,0.540961799910292,True,36,1
JP-M-23M23S1,1031,experiment,49,→,right,→,0.59134990000166,True,36,1
JP-M-23M23S1,1032,experiment,107,←,right,→,0.6051021000603214,False,36,1
JP-M-23M23S1,1033,experiment,108,↑,down,↓,0.5610993999289349,False,36,1
JP-M-23M23S1,1034,experiment,64,↑,up,↑,0.49419530003797263,True,36,1
JP-M-23M23S1,1035,experiment,84,→,right,→,0.5669938999926671,True,36,1
JP-M-23M23S1,1036,experiment,103,→,right,→,0.6545598999364302,True,36,1
JP-M-23M23S1,1037,experiment,66,→,right,→,0.5751830999506637,True,36,1
JP-M-23M23S1,1038,experiment,72,↓,down,↓,0.4340235999552533,True,36,1
JP-M-23M23S1,1039,experiment,60,↓,down,↓,0.5876224000239745,True,36,0
JP-M-23M23S1,1040,experiment,96,→,right,→,0.5806846000486985,True,36,1
JP-M-23M23S1,1041,experiment,82,↑,up,↑,0.7548675000434741,True,36,1
JP-M-23M23S1,1042,experiment,76,←,left,←,0.6355709000490606,True,36,1
JP-M-23M23S1,1043,experiment,79,←,left,←,0.4811794999986887,True,36,1
JP-M-23M23S1,1044,experiment,93,←,left,←,0.48742380004841834,True,36,1
JP-M-23M23S1,1045,experiment,62,↓,down,↓,0.5191735000116751,True,36,1
JP-M-23M23S1,1046,experiment,98,→,right,→,0.5224866999778897,True,36,1
JP-M-23M23S1,1047,experiment,68,↓,down,↓,0.5675323999021202,True,36,1
JP-M-23M23S1,1048,experiment,81,←,left,←,0.6221622999291867,True,36,1
JP-M-23M23S1,1049,training,85,→,right,→,0.6308977000880986,True,36,0
JP-M-23M23S1,1050,training,65,↓,down,↓,0.5924180999863893,True,36,1
JP-M-23M23S1,1051,experiment,93,↑,down,↓,0.6503880000673234,False,36,1
JP-M-23M23S1,1052,experiment,81,←,left,←,0.6700467000482604,True,36,1
JP-M-23M23S1,1053,experiment,80,→,right,→,0.8254084000363946,True,36,1
JP-M-23M23S1,1054,experiment,103,←,left,←,0.6310545000014827,True,36,1
JP-M-23M23S1,1055,experiment,91,↑,up,↑,0.7598455999977887,True,36,1
JP-M-23M23S1,1056,experiment,55,↓,down,↓,0.519812099984847,True,36,1
JP-M-23M23S1,1057,experiment,105,←,right,→,0.800804500002414,False,36,1
JP-M-23M23S1,1058,experiment,100,←,left,←,0.5760850999504328,True,36,1
JP-M-23M23S1,1059,experiment,50,→,right,→,0.5370880999835208,True,36,1
JP-M-23M23S1,1060,experiment,84,→,right,→,0.6085725999437273,True,36,1
JP-M-23M23S1,1061,experiment,52,→,right,→,0.6794329000404105,True,36,1
JP-M-23M23S1,1062,experiment,104,→,right,→,0.5221860000165179,True,36,1
JP-M-23M23S1,1063,experiment,94,→,no_key,no_letter,-1.0,False,36,1
JP-M-23M23S1,1064,experiment,106,↓,down,↓,0.6136736000189558,True,36,1
JP-M-23M23S1,1065,experiment,58,↓,down,↓,0.5383282999973744,True,36,1
JP-M-23M23S1,1066,experiment,99,↓,down,↓,0.3926493999315426,True,36,1
JP-M-23M23S1,1067,experiment,78,↑,up,↑,0.45052720000967383,True,36,0
JP-M-23M23S1,1068,experiment,88,↑,up,↑,0.44207849993836135,True,36,0
JP-M-23M23S1,1069,experiment,77,→,right,→,0.5530952999833971,True,36,0
JP-M-23M23S1,1070,experiment,63,→,right,→,0.4944827000144869,True,36,1
JP-M-23M23S1,1071,experiment,66,←,left,←,0.573052299907431,True,36,1
JP-M-23M23S1,1072,experiment,75,→,left,←,0.533973400015384,False,36,1
JP-M-23M23S1,1073,experiment,92,↓,up,↑,0.7942435999866575,False,36,1
JP-M-23M23S1,1074,experiment,82,→,right,→,0.6477877999423072,True,36,1
JP-M-23M23S1,1075,experiment,60,↓,down,↓,0.8186744999838993,True,36,1
JP-M-23M23S1,1076,experiment,70,↑,up,↑,0.6350570999784395,True,36,1
JP-M-23M23S1,1077,experiment,61,↑,up,↑,0.4505450000287965,True,36,1
JP-M-23M23S1,1078,experiment,64,←,left,←,0.5506199999945238,True,36,0
JP-M-23M23S1,1079,experiment,69,↓,down,↓,0.5624216999858618,True,36,1
JP-M-23M23S1,1080,experiment,90,↑,up,↑,0.7024453999474645,True,36,1
JP-M-23M23S1,1081,experiment,54,↓,down,↓,0.7850240999832749,True,36,1
JP-M-23M23S1,1082,experiment,68,←,left,←,0.6836972999153659,True,36,1
JP-M-23M23S1,1083,experiment,95,↑,no_key,no_letter,-1.0,False,36,1
JP-M-23M23S1,1084,experiment,89,↑,down,↓,0.8141013999702409,False,36,1
JP-M-23M23S1,1085,experiment,96,↑,up,↑,0.5182139000389725,True,36,1
JP-M-23M23S1,1086,experiment,48,↓,no_key,no_letter,-1.0,False,36,1
JP-M-23M23S1,1087,experiment,86,←,right,→,0.5360224000178277,False,36,1
JP-M-23M23S1,1088,experiment,107,↓,down,↓,0.6797097999369726,True,36,1
JP-M-23M23S1,1089,experiment,76,←,left,←,0.5955003000563011,True,36,1
JP-M-23M23S1,1090,experiment,49,↑,up,↑,0.47569360001944005,True,36,1
JP-M-23M23S1,1091,experiment,101,↓,down,↓,0.5919052000390366,True,36,1
JP-M-23M23S1,1092,experiment,102,↓,down,↓,0.5667462999699637,True,36,1
JP-M-23M23S1,1093,experiment,59,↓,down,↓,0.5088537000119686,True,36,1
JP-M-23M23S1,1094,experiment,83,↑,up,↑,0.45053510006982833,True,36,1
JP-M-23M23S1,1095,experiment,67,↓,down,↓,0.5333719999762252,True,36,0
JP-M-23M23S1,1096,experiment,56,↓,up,↑,0.5421455999603495,False,36,1
JP-M-23M23S1,1097,experiment,73,←,left,←,0.48117510008160025,True,36,1
JP-M-23M23S1,1098,experiment,79,←,left,←,0.4087598000187427,True,36,1
JP-M-23M23S1,1099,experiment,71,↑,up,↑,0.6596317000221461,True,36,0
JP-M-23M23S1,1100,experiment,98,→,right,→,0.6575060000177473,True,36,1
JP-M-23M23S1,1101,experiment,57,↓,no_key,no_letter,-1.0,False,36,1
JP-M-23M23S1,1102,experiment,74,→,right,→,0.6782948999898508,True,36,1
JP-M-23M23S1,1103,experiment,87,→,right,→,0.6150323000038043,True,36,1
JP-M-23M23S1,1104,experiment,53,→,right,→,0.5653986000688747,True,36,1
JP-M-23M23S1,1105,experiment,108,↑,up,↑,0.5559683999745175,True,36,1
JP-M-23M23S1,1106,experiment,51,←,left,←,0.4847214000765234,True,36,1
JP-M-23M23S1,1107,experiment,85,→,right,→,0.7170995000051335,True,36,1
JP-M-23M23S1,1108,experiment,62,↑,up,↑,0.5006662000669166,True,36,1
JP-M-23M23S1,1109,experiment,97,↑,up,↑,0.7127071999711916,True,36,1
JP-M-23M23S1,1110,experiment,72,↑,up,↑,0.4504606999689713,True,36,1
JP-M-23M23S1,1111,experiment,65,↓,down,↓,0.48553659999743104,True,36,0
JP-M-23M23S1,1112,training,79,→,right,→,0.4254309000680223,True,36,0
JP-M-23M23S1,1113,training,107,→,right,→,0.49991250003222376,True,36,0
JP-M-23M23S1,1114,experiment,91,↑,up,↑,0.5379225000506267,True,36,1
JP-M-23M23S1,1115,experiment,62,↓,down,↓,0.37532840005587786,True,36,1
JP-M-23M23S1,1116,experiment,58,↓,down,↓,0.606005199952051,True,36,0
JP-M-23M23S1,1117,experiment,84,←,left,←,0.554239800083451,True,36,1
JP-M-23M23S1,1118,experiment,99,→,left,←,0.5235070999478921,False,36,1
JP-M-23M23S1,1119,experiment,97,→,right,→,0.47204379993490875,True,36,1
JP-M-23M23S1,1120,experiment,86,↓,down,↓,0.425281299976632,True,36,1
JP-M-23M23S1,1121,experiment,85,→,right,→,0.5468005000147969,True,36,0
JP-M-23M23S1,1122,experiment,92,↑,up,↑,0.47941839997656643,True,36,1
JP-M-23M23S1,1123,experiment,101,→,right,→,0.45070469996426255,True,36,1
JP-M-23M23S1,1124,experiment,71,→,right,→,0.48095270001795143,True,36,0
JP-M-23M23S1,1125,experiment,93,↓,down,↓,0.4509001999394968,True,36,1
JP-M-23M23S1,1126,experiment,66,←,left,←,0.6634182999841869,True,36,0
JP-M-23M23S1,1127,experiment,77,←,left,←,0.5239635000471026,True,36,1
JP-M-23M23S1,1128,experiment,90,→,left,←,0.5854041000129655,False,36,1
JP-M-23M23S1,1129,experiment,102,→,right,→,0.4424350999761373,True,36,1
JP-M-23M23S1,1130,experiment,61,←,left,←,0.5630761999636889,True,36,0
JP-M-23M23S1,1131,experiment,64,↓,down,↓,0.5117041999474168,True,36,1
JP-M-23M23S1,1132,experiment,96,↑,up,↑,0.6995470999972895,True,36,1
JP-M-23M23S1,1133,experiment,82,↑,up,↑,0.6129113000351936,True,36,1
JP-M-23M23S1,1134,experiment,59,↑,down,↓,0.545572999981232,False,36,1
JP-M-23M23S1,1135,experiment,95,↑,up,↑,0.417520200018771,True,36,1
JP-M-23M23S1,1136,experiment,106,←,down,↓,0.45046159997582436,False,36,0
JP-M-23M23S1,1137,experiment,54,↑,no_key,no_letter,-1.0,False,36,0
JP-M-23M23S1,1138,experiment,75,←,left,←,0.45061910001095384,True,36,1
JP-M-23M23S1,1139,experiment,57,↑,up,↑,0.6017885999754071,True,36,0
JP-M-23M23S1,1140,experiment,108,→,right,→,0.5184397998964414,True,36,1
JP-M-23M23S1,1141,experiment,60,↑,up,↑,0.4710650999331847,True,36,1
JP-M-23M23S1,1142,experiment,68,←,left,←,0.5972884999355301,True,36,1
JP-M-23M23S1,1143,experiment,50,↓,down,↓,0.7891882999101654,True,36,1
JP-M-23M23S1,1144,experiment,53,→,right,→,0.7243711000774056,True,36,1
JP-M-23M23S1,1145,experiment,70,↓,down,↓,0.5448034000582993,True,36,1
JP-M-23M23S1,1146,experiment,83,↑,up,↑,0.5679951999336481,True,36,1
JP-M-23M23S1,1147,experiment,104,↑,up,↑,0.6717198999831453,True,36,1
JP-M-23M23S1,1148,experiment,81,↓,down,↓,0.4826282999711111,True,36,1
JP-M-23M23S1,1149,experiment,51,↑,up,↑,0.718153900001198,True,36,1
JP-M-23M23S1,1150,experiment,48,→,left,←,0.5703747000079602,False,36,1
JP-M-23M23S1,1151,experiment,100,←,left,←,0.5072081999387592,True,36,1
JP-M-23M23S1,1152,experiment,74,←,left,←,0.4255699999630451,True,36,1
JP-M-23M23S1,1153,experiment,103,↑,right,→,0.7475150000536814,False,36,0
JP-M-23M23S1,1154,experiment,49,→,right,→,0.6863075000001118,True,36,1
JP-M-23M23S1,1155,experiment,94,→,right,→,0.6276265999767929,True,36,1
JP-M-23M23S1,1156,experiment,55,↓,down,↓,0.6806904999539256,True,36,1
JP-M-23M23S1,1157,experiment,73,→,left,←,0.5981080000055954,False,36,1
JP-M-23M23S1,1158,experiment,78,→,no_key,no_letter,-1.0,False,36,1
JP-M-23M23S1,1159,experiment,79,↓,down,↓,0.6764881999697536,True,36,1
JP-M-23M23S1,1160,experiment,80,↑,down,↓,0.8714901000494137,False,36,1
JP-M-23M23S1,1161,experiment,63,→,right,→,0.4502471999730915,True,36,1
JP-M-23M23S1,1162,experiment,72,↓,down,↓,0.4868068000068888,True,36,0
JP-M-23M23S1,1163,experiment,69,→,right,→,0.5883621999528259,True,36,1
JP-M-23M23S1,1164,experiment,87,↓,down,↓,0.6804183999774978,True,36,1
JP-M-23M23S1,1165,experiment,65,↓,down,↓,0.4337546000024304,True,36,1
JP-M-23M23S1,1166,experiment,52,←,left,←,0.645392700098455,True,36,0
JP-M-23M23S1,1167,experiment,76,↓,down,↓,0.6188364999834448,True,36,1
JP-M-23M23S1,1168,experiment,98,↑,down,↓,0.9141826999839395,False,36,1
JP-M-23M23S1,1169,experiment,107,↑,up,↑,0.6186375000979751,True,36,1
JP-M-23M23S1,1170,experiment,105,↑,up,↑,0.4336279999697581,True,36,1
JP-M-23M23S1,1171,experiment,67,↓,down,↓,0.5361460999120027,True,36,0
JP-M-23M23S1,1172,experiment,88,↑,up,↑,0.6300242999568582,True,36,1
JP-M-23M23S1,1173,experiment,89,↑,up,↑,0.4881395000265911,True,36,1
JP-M-23M23S1,1174,experiment,56,→,down,↓,0.5062339000869542,False,36,1
JP-M-23M23S1,1175,training,64,→,right,→,0.594798699952662,True,36,0
JP-M-23M23S1,1176,training,79,↓,right,→,0.5533521999605,False,36,1
JP-M-23M23S1,1177,experiment,66,↑,up,↑,0.4506101000588387,True,36,1
JP-M-23M23S1,1178,experiment,93,←,left,←,0.6209589999634773,True,36,0
JP-M-23M23S1,1179,experiment,68,↓,down,↓,0.4507505000801757,True,36,1
JP-M-23M23S1,1180,experiment,102,←,left,←,0.5068803000031039,True,36,0
JP-M-23M23S1,1181,experiment,60,←,left,←,0.6185161999892443,True,36,1
JP-M-23M23S1,1182,experiment,99,↑,up,↑,0.4505386999808252,True,36,1
JP-M-23M23S1,1183,experiment,63,↓,down,↓,0.5867229000432417,True,36,0
JP-M-23M23S1,1184,experiment,79,←,left,←,0.5138166999677196,True,36,1
JP-M-23M23S1,1185,experiment,87,←,left,←,0.42553890007548034,True,36,1
JP-M-23M23S1,1186,experiment,55,↓,no_key,no_letter,-1.0,False,36,0
JP-M-23M23S1,1187,experiment,52,↑,up,↑,0.4867051999317482,True,36,1
JP-M-23M23S1,1188,experiment,80,↓,down,↓,0.48091819998808205,True,36,1
JP-M-23M23S1,1189,experiment,74,→,right,→,0.6134298000251874,True,36,1
JP-M-23M23S1,1190,experiment,70,→,right,→,0.6218645999906585,True,36,1
JP-M-23M23S1,1191,experiment,50,↑,no_key,no_letter,-1.0,False,36,1
JP-M-23M23S1,1192,experiment,81,←,left,←,0.5484935001004487,True,36,1
JP-M-23M23S1,1193,experiment,65,↓,no_key,no_letter,-1.0,False,36,1
JP-M-23M23S1,1194,experiment,51,↓,down,↓,0.5307412999682128,True,36,1
JP-M-23M23S1,1195,experiment,56,↓,no_key,no_letter,-1.0,False,36,1
JP-M-23M23S1,1196,experiment,57,↑,no_key,no_letter,-1.0,False,36,1
JP-M-23M23S1,1197,experiment,89,↑,up,↑,0.7033924000570551,True,36,1
JP-M-23M23S1,1198,experiment,58,↓,down,↓,0.45028630003798753,True,36,1
JP-M-23M23S1,1199,experiment,73,↓,down,↓,0.5744648999534547,True,36,0
JP-M-23M23S1,1200,experiment,98,↑,no_key,no_letter,-1.0,False,36,1
JP-M-23M23S1,1201,experiment,86,↑,up,↑,0.5411136000184342,True,36,1
JP-M-23M23S1,1202,experiment,97,↑,no_key,no_letter,-1.0,False,36,1
JP-M-23M23S1,1203,experiment,49,←,left,←,0.5860159000148997,True,36,1
JP-M-23M23S1,1204,experiment,62,→,right,→,0.43379210005514324,True,36,1
JP-M-23M23S1,1205,experiment,108,↑,up,↑,0.6255669000092894,True,36,0
JP-M-23M23S1,1206,experiment,72,←,down,↓,0.5529269999824464,False,36,1
JP-M-23M23S1,1207,experiment,95,↑,up,↑,0.5083435999695212,True,36,1
JP-M-23M23S1,1208,experiment,76,↓,down,↓,0.543041400029324,True,36,1
JP-M-23M23S1,1209,experiment,77,→,right,→,0.6241993999574333,True,36,1
JP-M-23M23S1,1210,experiment,101,→,right,→,0.4253160998923704,True,36,1
JP-M-23M23S1,1211,experiment,96,↑,up,↑,0.41738130000885576,True,36,0
JP-M-23M23S1,1212,experiment,83,↓,down,↓,0.5935328000923619,True,36,0
JP-M-23M23S1,1213,experiment,90,↑,up,↑,0.41733450000174344,True,36,1
JP-M-23M23S1,1214,experiment,53,↑,up,↑,0.5464107999578118,True,36,0
JP-M-23M23S1,1215,experiment,104,↑,up,↑,0.42526449996512383,True,36,1
JP-M-23M23S1,1216,experiment,84,↑,up,↑,0.5658932999940589,True,36,0
JP-M-23M23S1,1217,experiment,88,↑,up,↑,0.4005820999154821,True,36,1
JP-M-23M23S1,1218,experiment,54,→,no_key,no_letter,-1.0,False,36,0
JP-M-23M23S1,1219,experiment,48,←,left,←,0.5069960999535397,True,36,1
JP-M-23M23S1,1220,experiment,67,↓,down,↓,0.4889462999999523,True,36,1
JP-M-23M23S1,1221,experiment,82,↓,down,↓,0.44217399996705353,True,36,1
JP-M-23M23S1,1222,experiment,85,←,left,←,0.6288055001059547,True,36,0
JP-M-23M23S1,1223,experiment,91,↑,up,↑,0.416558500030078,True,36,1
JP-M-23M23S1,1224,experiment,59,←,left,←,0.5700674999970943,True,36,0
JP-M-23M23S1,1225,experiment,106,→,right,→,0.4021653999807313,True,36,1
JP-M-23M23S1,1226,experiment,103,→,right,→,0.3838713000295684,True,36,0
JP-M-23M23S1,1227,experiment,105,←,left,←,0.3832406000001356,True,36,0
JP-M-23M23S1,1228,experiment,64,→,right,→,0.41717129992321134,True,36,0
JP-M-23M23S1,1229,experiment,71,↑,up,↑,0.4422115999041125,True,36,0
JP-M-23M23S1,1230,experiment,92,↓,down,↓,0.511510799988173,True,36,0
JP-M-23M23S1,1231,experiment,94,↓,down,↓,0.39206610003020614,True,36,1
JP-M-23M23S1,1232,experiment,107,←,left,←,0.5695037000114098,True,36,0
JP-M-23M23S1,1233,experiment,61,←,right,→,0.44225209997966886,False,36,1
JP-M-23M23S1,1234,experiment,69,→,left,←,0.4865073000546545,False,36,0
JP-M-23M23S1,1235,experiment,100,↑,right,→,0.8904715999960899,False,36,1
JP-M-23M23S1,1236,experiment,75,↑,right,→,1.0784908999921754,False,36,1
JP-M-23M23S1,1237,experiment,78,↑,down,↓,0.7621481999522075,False,36,1
JP-M-23M23S1,1238,training,48,←,left,←,0.528180000022985,True,36,0
JP-M-23M23S1,1239,training,51,←,left,←,0.42568810004740953,True,36,1
JP-M-23M23S1,1240,experiment,99,←,left,←,0.48101350001525134,True,36,0
JP-M-23M23S1,1241,experiment,58,↑,up,↑,0.4420312000438571,True,36,1
JP-M-23M23S1,1242,experiment,52,→,right,→,0.42572920001111925,True,36,0
JP-M-23M23S1,1243,experiment,54,←,no_key,no_letter,-1.0,False,36,0
JP-M-23M23S1,1244,experiment,79,←,left,←,0.7253117000218481,True,36,1
JP-M-23M23S1,1245,experiment,50,↓,left,←,0.6882701000431553,False,36,1
JP-M-23M23S1,1246,experiment,75,←,left,←,0.5241693999851122,True,36,1
JP-M-23M23S1,1247,experiment,73,→,no_key,no_letter,-1.0,False,36,1
JP-M-23M23S1,1248,experiment,94,→,right,→,0.7385260999435559,True,36,1
JP-M-23M23S1,1249,experiment,100,←,left,←,0.442433699965477,True,36,1
JP-M-23M23S1,1250,experiment,86,↑,up,↑,0.5902748999651521,True,36,0
JP-M-23M23S1,1251,experiment,64,←,left,←,0.4090202000224963,True,36,1
JP-M-23M23S1,1252,experiment,63,←,left,←,0.4342765000183135,True,36,0
JP-M-23M23S1,1253,experiment,101,←,left,←,0.514035000000149,True,36,0
JP-M-23M23S1,1254,experiment,76,↓,down,↓,0.6365823999512941,True,36,1
JP-M-23M23S1,1255,experiment,98,↓,down,↓,0.5238065000157803,True,36,1
JP-M-23M23S1,1256,experiment,70,↓,down,↓,0.5041757998988032,True,36,1
JP-M-23M23S1,1257,experiment,89,←,left,←,0.5341161999385804,True,36,1
JP-M-23M23S1,1258,experiment,105,←,left,←,0.5666173999197781,True,36,1
JP-M-23M23S1,1259,experiment,88,←,left,←,0.4839999999385327,True,36,1
JP-M-23M23S1,1260,experiment,67,↑,up,↑,0.4903301999438554,True,36,1
JP-M-23M23S1,1261,experiment,68,→,right,→,0.58426050003618,True,36,1
JP-M-23M23S1,1262,experiment,93,↑,down,↓,0.9065816000802442,False,36,1
JP-M-23M23S1,1263,experiment,84,←,left,←,0.49895260005723685,True,36,1
JP-M-23M23S1,1264,experiment,87,↑,up,↑,0.6666396000655368,True,36,1
JP-M-23M23S1,1265,experiment,65,←,left,←,0.4912345999618992,True,36,1
JP-M-23M23S1,1266,experiment,78,←,left,←,0.5098276999779046,True,36,1
JP-M-23M23S1,1267,experiment,106,↓,down,↓,0.5348041999386624,True,36,1
JP-M-23M23S1,1268,experiment,77,←,left,←,0.6563203000696376,True,36,1
JP-M-23M23S1,1269,experiment,48,←,no_key,no_letter,-1.0,False,36,1
JP-M-23M23S1,1270,experiment,62,↓,down,↓,0.6763605000451207,True,36,1
JP-M-23M23S1,1271,experiment,97,←,left,←,0.5618897000094876,True,36,1
JP-M-23M23S1,1272,experiment,71,↓,down,↓,0.4844305000733584,True,36,1
JP-M-23M23S1,1273,experiment,66,←,left,←,0.4338420000858605,True,36,1
JP-M-23M23S1,1274,experiment,103,→,left,←,0.4962412000168115,False,36,0
JP-M-23M23S1,1275,experiment,53,←,left,←,0.6989806999918073,True,36,1
JP-M-23M23S1,1276,experiment,92,←,left,←,0.6010370999574661,True,36,1
JP-M-23M23S1,1277,experiment,59,→,left,←,0.49406239995732903,False,36,1
JP-M-23M23S1,1278,experiment,74,←,left,←,0.6421755999326706,True,36,1
JP-M-23M23S1,1279,experiment,57,→,no_key,no_letter,-1.0,False,36,1
JP-M-23M23S1,1280,experiment,60,↓,left,←,0.7644437999697402,False,36,1
JP-M-23M23S1,1281,experiment,107,←,left,←,0.5228773000417277,True,36,1
JP-M-23M23S1,1282,experiment,51,↑,up,↑,0.6454373999731615,True,36,1
JP-M-23M23S1,1283,experiment,108,↓,down,↓,0.5442993000615388,True,36,1
JP-M-23M23S1,1284,experiment,49,↑,left,←,1.0988367999671027,False,36,1
JP-M-23M23S1,1285,experiment,81,↑,up,↑,0.4770033999811858,True,36,1
JP-M-23M23S1,1286,experiment,85,←,left,←,0.43361569999251515,True,36,1
JP-M-23M23S1,1287,experiment,56,↓,down,↓,0.641541299992241,True,36,0
JP-M-23M23S1,1288,experiment,102,→,left,←,0.5347226000158116,False,36,1
JP-M-23M23S1,1289,experiment,80,↓,down,↓,0.47182059998158365,True,36,1
JP-M-23M23S1,1290,experiment,91,↓,down,↓,0.5026443999959156,True,36,0
JP-M-23M23S1,1291,experiment,61,→,right,→,0.7268563999095932,True,36,1
JP-M-23M23S1,1292,experiment,69,↑,up,↑,0.4504987000254914,True,36,1
JP-M-23M23S1,1293,experiment,96,→,right,→,0.6417889000149444,True,36,0
JP-M-23M23S1,1294,experiment,55,↓,down,↓,0.5024929000064731,True,36,1
JP-M-23M23S1,1295,experiment,72,↑,up,↑,0.6587788999313489,True,36,1
JP-M-23M23S1,1296,experiment,104,←,right,→,0.6865100000286475,False,36,1
JP-M-23M23S1,1297,experiment,83,↑,up,↑,0.4502848999109119,True,36,1
JP-M-23M23S1,1298,experiment,95,↓,down,↓,0.6389610999030992,True,36,0
JP-M-23M23S1,1299,experiment,82,↓,down,↓,0.4254212999949232,True,36,1
JP-M-23M23S1,1300,experiment,90,↓,down,↓,0.5476808999665082,True,36,0
JP-M-23M23S1,1301,training,70,↓,no_key,no_letter,-1.0,False,36,0
JP-M-23M23S1,1302,training,81,←,left,←,0.7081166999414563,True,36,1
JP-M-23M23S1,1303,experiment,78,↓,no_key,no_letter,-1.0,False,36,1
JP-M-23M23S1,1304,experiment,49,→,left,←,1.6561163000296801,False,36,1
JP-M-23M23S1,1305,experiment,76,→,right,→,0.7257929999614134,True,36,1
JP-M-23M23S1,1306,experiment,65,↑,up,↑,0.4839812000282109,True,36,1
JP-M-23M23S1,1307,experiment,72,←,left,←,0.7047494000289589,True,36,1
JP-M-23M23S1,1308,experiment,86,↓,left,←,0.6244455000851303,False,36,1
JP-M-23M23S1,1309,experiment,51,←,left,←,0.49517350003588945,True,36,1
JP-M-23M23S1,1310,experiment,62,←,left,←,0.6073702001012862,True,36,1
JP-M-23M23S1,1311,experiment,52,↓,right,→,0.6219866999890655,False,36,1
JP-M-23M23S1,1312,experiment,71,→,right,→,0.7580294999061152,True,36,1
JP-M-23M23S1,1313,experiment,99,↓,down,↓,0.6234613000415266,True,36,1
JP-M-23M23S1,1314,experiment,101,→,right,→,0.49385910003911704,True,36,1
JP-M-23M23S1,1315,experiment,106,↑,down,↓,0.9751379999797791,False,36,1
JP-M-23M23S1,1316,experiment,54,←,left,←,0.48708089999854565,True,36,1
JP-M-23M23S1,1317,experiment,53,←,left,←,0.6423182999715209,True,36,1
JP-M-23M23S1,1318,experiment,48,↓,down,↓,0.5452045999700204,True,36,1
JP-M-23M23S1,1319,experiment,96,←,left,←,0.5083137999754399,True,36,1
JP-M-23M23S1,1320,experiment,73,↑,down,↓,0.8081761000212282,False,36,1
JP-M-23M23S1,1321,experiment,98,↓,down,↓,0.5440623000031337,True,36,1
JP-M-23M23S1,1322,experiment,108,→,no_key,no_letter,-1.0,False,36,1
JP-M-23M23S1,1323,experiment,57,→,right,→,0.6063906000927091,True,36,1
JP-M-23M23S1,1324,experiment,64,↑,down,↓,0.5131225000368431,False,36,1
JP-M-23M23S1,1325,experiment,58,←,left,←,0.4338803000282496,True,36,1
JP-M-23M23S1,1326,experiment,84,↓,down,↓,0.4169780000811443,True,36,0
JP-M-23M23S1,1327,experiment,103,↓,no_key,no_letter,-1.0,False,36,0
JP-M-23M23S1,1328,experiment,50,↑,down,↓,0.5156519999727607,False,36,1
JP-M-23M23S1,1329,experiment,75,←,left,←,0.5346360000548884,True,36,1
JP-M-23M23S1,1330,experiment,77,↑,up,↑,0.48832299991045147,True,36,1
JP-M-23M23S1,1331,experiment,102,←,left,←,0.4256194999907166,True,36,1
JP-M-23M23S1,1332,experiment,69,←,left,←,0.5154872999992222,True,36,0
JP-M-23M23S1,1333,experiment,66,↓,down,↓,0.6252776000183076,True,36,1
JP-M-23M23S1,1334,experiment,80,→,right,→,0.5905351999681443,True,36,1
JP-M-23M23S1,1335,experiment,61,↓,down,↓,0.475435100030154,True,36,1
JP-M-23M23S1,1336,experiment,88,←,left,←,0.44229010003618896,True,36,1
JP-M-23M23S1,1337,experiment,67,↓,down,↓,0.6112018000567332,True,36,0
JP-M-23M23S1,1338,experiment,94,↑,up,↑,0.4842737000435591,True,36,1
JP-M-23M23S1,1339,experiment,60,←,left,←,0.4928600999992341,True,36,1
JP-M-23M23S1,1340,experiment,87,↑,up,↑,0.6926793000893667,True,36,1
JP-M-23M23S1,1341,experiment,100,→,right,→,0.4257552999770269,True,36,1
JP-M-23M23S1,1342,experiment,95,→,right,→,0.583965600002557,True,36,0
JP-M-23M23S1,1343,experiment,82,↑,up,↑,0.4422286000335589,True,36,1
JP-M-23M23S1,1344,experiment,63,←,left,←,0.5035407999530435,True,36,0
JP-M-23M23S1,1345,experiment,92,↑,up,↑,0.533559100003913,True,36,1
JP-M-23M23S1,1346,experiment,89,↑,no_key,no_letter,-1.0,False,36,1
JP-M-23M23S1,1347,experiment,68,↑,up,↑,0.5668969999533147,True,36,1
JP-M-23M23S1,1348,experiment,90,→,right,→,0.6267170999199152,True,36,1
JP-M-23M23S1,1349,experiment,74,←,left,←,0.4083092000801116,True,36,1
JP-M-23M23S1,1350,experiment,107,↑,up,↑,0.4506909000920132,True,36,0
JP-M-23M23S1,1351,experiment,85,↓,down,↓,0.6481361000332981,True,36,0
JP-M-23M23S1,1352,experiment,91,←,left,←,0.6889663999900222,True,36,1
JP-M-23M23S1,1353,experiment,56,↑,up,↑,0.4992604999570176,True,36,1
JP-M-23M23S1,1354,experiment,55,↑,up,↑,0.5253034000052139,True,36,1
JP-M-23M23S1,1355,experiment,97,↑,up,↑,0.584164600004442,True,36,1
JP-M-23M23S1,1356,experiment,79,↑,up,↑,0.5832244000630453,True,36,1
JP-M-23M23S1,1357,experiment,93,↑,up,↑,0.5054066999582574,True,36,1
JP-M-23M23S1,1358,experiment,83,←,left,←,0.5379725999664515,True,36,1
JP-M-23M23S1,1359,experiment,81,↑,up,↑,0.4904279999900609,True,36,1
JP-M-23M23S1,1360,experiment,70,↓,down,↓,0.44997029996011406,True,36,1
JP-M-23M23S1,1361,experiment,105,←,left,←,0.4912954999599606,True,36,0
JP-M-23M23S1,1362,experiment,59,↑,no_key,no_letter,-1.0,False,36,1
JP-M-23M23S1,1363,experiment,104,↓,down,↓,0.6919561000540853,True,36,1
JP-M-23M23S1,1364,training,98,←,left,←,0.41713269997853786,True,36,0
JP-M-23M23S1,1365,training,86,→,right,→,0.5966113000176847,True,36,0
JP-M-23M23S1,1366,experiment,79,→,right,→,0.43403200001921505,True,36,1
JP-M-23M23S1,1367,experiment,75,→,right,→,0.5610301999840885,True,36,0
JP-M-23M23S1,1368,experiment,72,↓,no_key,no_letter,-1.0,False,36,1
JP-M-23M23S1,1369,experiment,86,↑,down,↓,0.9288807000266388,False,36,1
JP-M-23M23S1,1370,experiment,82,→,right,→,0.6331484999973327,True,36,1
JP-M-23M23S1,1371,experiment,93,↓,down,↓,0.6573950999882072,True,36,1
JP-M-23M23S1,1372,experiment,71,↓,down,↓,0.49605389998760074,True,36,1
JP-M-23M23S1,1373,experiment,104,↑,up,↑,0.49828520009759814,True,36,1
JP-M-23M23S1,1374,experiment,99,↓,down,↓,0.5016006000805646,True,36,1
JP-M-23M23S1,1375,experiment,73,←,left,←,0.43436800001654774,True,36,1
JP-M-23M23S1,1376,experiment,102,↑,up,↑,0.7265879999613389,True,36,0
JP-M-23M23S1,1377,experiment,95,↓,no_key,no_letter,-1.0,False,36,1
JP-M-23M23S1,1378,experiment,69,←,left,←,0.5339167999336496,True,36,1
JP-M-23M23S1,1379,experiment,105,←,left,←,0.5660541999386624,True,36,1
JP-M-23M23S1,1380,experiment,67,→,right,→,0.7615842999657616,True,36,1
JP-M-23M23S1,1381,experiment,76,↓,down,↓,0.80285539990291,True,36,1
JP-M-23M23S1,1382,experiment,65,↓,down,↓,0.5976501000113785,True,36,1
JP-M-23M23S1,1383,experiment,91,↑,up,↑,0.49617990001570433,True,36,1
JP-M-23M23S1,1384,experiment,90,←,left,←,0.5829554999945685,True,36,1
JP-M-23M23S1,1385,experiment,59,←,no_key,no_letter,-1.0,False,36,1
JP-M-23M23S1,1386,experiment,78,→,right,→,0.7009204999776557,True,36,1
JP-M-23M23S1,1387,experiment,77,←,left,←,0.4095040999818593,True,36,1
JP-M-23M23S1,1388,experiment,96,←,left,←,0.5836989999515936,True,36,0
JP-M-23M23S1,1389,experiment,64,→,right,→,0.5717991000274196,True,36,1
JP-M-23M23S1,1390,experiment,97,↑,down,↓,0.9168300000019372,False,36,1
JP-M-23M23S1,1391,experiment,58,↑,up,↑,0.47755499999038875,True,36,1
JP-M-23M23S1,1392,experiment,68,←,left,←,0.6604396000038832,True,36,1
JP-M-23M23S1,1393,experiment,52,←,left,←,0.442708499962464,True,36,1
JP-M-23M23S1,1394,experiment,100,↓,down,↓,0.6787314999382943,True,36,0
JP-M-23M23S1,1395,experiment,74,←,left,←,0.5318841999396682,True,36,1
JP-M-23M23S1,1396,experiment,80,←,left,←,0.5962982999626547,True,36,1
JP-M-23M23S1,1397,experiment,70,→,right,→,0.6375440000556409,True,36,1
JP-M-23M23S1,1398,experiment,53,↓,down,↓,0.5068358000135049,True,36,1
JP-M-23M23S1,1399,experiment,83,←,left,←,0.6354804000584409,True,36,1
JP-M-23M23S1,1400,experiment,61,→,down,↓,0.40916669997386634,False,36,1
JP-M-23M23S1,1401,experiment,55,↓,down,↓,0.6599937999853864,True,36,0
JP-M-23M23S1,1402,experiment,66,→,right,→,0.5240726000629365,True,36,1
JP-M-23M23S1,1403,experiment,84,↓,down,↓,0.5558438999578357,True,36,1
JP-M-23M23S1,1404,experiment,98,←,left,←,0.5013488000258803,True,36,1
JP-M-23M23S1,1405,experiment,107,↑,up,↑,0.7184547999640927,True,36,1
JP-M-23M23S1,1406,experiment,54,↑,up,↑,0.5603976000566036,True,36,1
JP-M-23M23S1,1407,experiment,81,→,right,→,0.6637656999519095,True,36,1
JP-M-23M23S1,1408,experiment,89,→,right,→,0.6880433999467641,True,36,1
JP-M-23M23S1,1409,experiment,57,→,right,→,0.67428029992152,True,36,1
JP-M-23M23S1,1410,experiment,48,←,left,←,0.6478122000116855,True,36,1
JP-M-23M23S1,1411,experiment,101,←,left,←,0.7966551000718027,True,36,1
JP-M-23M23S1,1412,experiment,62,↑,up,↑,0.6248692000517622,True,36,1
JP-M-23M23S1,1413,experiment,50,↑,up,↑,0.7916713999584317,True,36,1
JP-M-23M23S1,1414,experiment,51,↑,up,↑,0.5596915000351146,True,36,1
JP-M-23M23S1,1415,experiment,85,↓,down,↓,0.6537151999073103,True,36,1
JP-M-23M23S1,1416,experiment,60,↓,down,↓,0.5283314000116661,True,36,1
JP-M-23M23S1,1417,experiment,63,←,left,←,0.5189022000413388,True,36,1
JP-M-23M23S1,1418,experiment,108,←,left,←,0.5027431999333203,True,36,1
JP-M-23M23S1,1419,experiment,103,←,left,←,0.577082300093025,True,36,1
JP-M-23M23S1,1420,experiment,49,↓,down,↓,0.5784331999020651,True,36,1
JP-M-23M23S1,1421,experiment,88,↑,left,←,0.7665762999095023,False,36,1
JP-M-23M23S1,1422,experiment,92,↑,up,↑,0.72261980001349,True,36,1
JP-M-23M23S1,1423,experiment,94,↓,down,↓,0.6542750999797136,True,36,1
JP-M-23M23S1,1424,experiment,106,↑,up,↑,0.5053634999785572,True,36,1
JP-M-23M23S1,1425,experiment,56,→,right,→,0.5949969000648707,True,36,1
JP-M-23M23S1,1426,experiment,87,→,right,→,0.49527349998243153,True,36,1
JP-M-23M23S1,1427,training,91,←,left,←,0.5230915000429377,True,36,0
JP-M-23M23S1,1428,training,70,←,left,←,0.40886970004066825,True,36,1
JP-M-23M23S1,1429,experiment,51,→,right,→,0.5180839999811724,True,36,0
JP-M-23M23S1,1430,experiment,69,↓,down,↓,0.554964300012216,True,36,1
JP-M-23M23S1,1431,experiment,97,↑,up,↑,0.7886746999574825,True,36,1
JP-M-23M23S1,1432,experiment,98,←,left,←,0.4167633999604732,True,36,1
JP-M-23M23S1,1433,experiment,66,←,left,←,0.40051870001479983,True,36,0
JP-M-23M23S1,1434,experiment,87,↑,no_key,no_letter,-1.0,False,36,0
JP-M-23M23S1,1435,experiment,63,↓,down,↓,0.591586499940604,True,36,1
JP-M-23M23S1,1436,experiment,80,→,right,→,0.51794529997278,True,36,1
JP-M-23M23S1,1437,experiment,78,→,right,→,0.6878200999926776,True,36,1
JP-M-23M23S1,1438,experiment,106,↓,down,↓,0.6413157000206411,True,36,1
JP-M-23M23S1,1439,experiment,53,↑,up,↑,0.5906187000218779,True,36,1
JP-M-23M23S1,1440,experiment,104,←,left,←,0.692982800072059,True,36,1
JP-M-23M23S1,1441,experiment,102,→,right,→,0.48805030004587024,True,36,1
JP-M-23M23S1,1442,experiment,67,↑,up,↑,0.6466209000209346,True,36,1
JP-M-23M23S1,1443,experiment,70,←,right,→,0.6619140999391675,False,36,1
JP-M-23M23S1,1444,experiment,50,←,left,←,0.531439800048247,True,36,1
