PART_ID,Trial_no,Trial_type,CSI,Stim_letter,Key_pressed,letter_choose,Rt,Corr,Stimulus Time,nDropped
JP-M-23M23S2,1,training,120,←,left,←,1.1549506000010297,True,60,0
JP-M-23M23S2,2,training,120,←,left,←,0.4443384000333026,True,60,0
JP-M-23M23S2,3,training,120,↑,up,↑,0.5587964000878856,True,60,0
JP-M-23M23S2,4,training,120,↓,down,↓,0.4768037999747321,True,60,0
JP-M-23M23S2,5,training,120,←,left,←,0.5921708000823855,True,60,0
JP-M-23M23S2,6,training,120,↓,down,↓,0.385968399932608,True,60,0
JP-M-23M23S2,7,training,120,↓,down,↓,0.5253008999861777,True,60,0
JP-M-23M23S2,8,training,120,↑,down,↓,0.4859637999907136,False,60,0
JP-M-23M23S2,9,training,120,↓,down,↓,0.6193934000330046,True,60,0
JP-M-23M23S2,10,training,120,↑,up,↑,0.5680737000657246,True,60,0
JP-M-23M23S2,11,training,120,←,left,←,0.5673202999169007,True,60,0
JP-M-23M23S2,12,training,120,→,right,→,0.5923332000384107,True,60,0
JP-M-23M23S2,13,training,120,←,left,←,0.5755820999620482,True,60,0
JP-M-23M23S2,14,training,120,↑,up,↑,0.5923763000173494,True,60,0
JP-M-23M23S2,15,training,120,↑,up,↑,0.5005489999894053,True,60,0
JP-M-23M23S2,16,training,120,↓,down,↓,0.5423136999597773,True,60,0
JP-M-23M23S2,17,training,120,↓,down,↓,0.6110278000123799,True,60,0
JP-M-23M23S2,18,training,120,↑,up,↑,0.6347409998998046,True,60,0
JP-M-23M23S2,19,training,120,↓,down,↓,0.4184328999835998,True,60,0
JP-M-23M23S2,20,training,120,↑,up,↑,0.4018944000126794,True,60,0
JP-M-23M23S2,21,no_adaptation,120,↓,down,↓,0.5424480999354273,True,36,0
JP-M-23M23S2,22,no_adaptation,120,↓,down,↓,0.4875665999716148,True,36,0
JP-M-23M23S2,23,no_adaptation,120,←,left,←,0.6351013999665156,True,36,0
JP-M-23M23S2,24,no_adaptation,120,↓,down,↓,0.44254259997978806,True,36,0
JP-M-23M23S2,25,no_adaptation,120,↓,left,←,0.4092660000314936,False,36,0
JP-M-23M23S2,26,no_adaptation,120,↓,down,↓,0.42632050008978695,True,36,0
JP-M-23M23S2,27,no_adaptation,120,←,no_key,no_letter,-1.0,False,36,0
JP-M-23M23S2,28,no_adaptation,120,↑,up,↑,0.6332351999590173,True,36,0
JP-M-23M23S2,29,no_adaptation,120,↓,down,↓,0.7349543999880552,True,36,0
JP-M-23M23S2,30,no_adaptation,120,→,right,→,0.6326622000196949,True,36,0
JP-M-23M23S2,31,no_adaptation,120,→,right,→,0.5023845999967307,True,36,0
JP-M-23M23S2,32,no_adaptation,120,←,left,←,0.39452370000071824,True,36,0
JP-M-23M23S2,33,no_adaptation,120,→,right,→,0.5678815999999642,True,36,0
JP-M-23M23S2,34,no_adaptation,120,→,left,←,0.5039445000002161,False,36,0
JP-M-23M23S2,35,no_adaptation,120,→,right,→,0.6988386999582872,True,36,0
JP-M-23M23S2,36,no_adaptation,120,↓,down,↓,0.7020209000911564,True,36,0
JP-M-23M23S2,37,no_adaptation,120,↓,down,↓,0.7369064999511465,True,36,0
JP-M-23M23S2,38,no_adaptation,120,→,right,→,0.41988649999257177,True,36,0
JP-M-23M23S2,39,no_adaptation,120,↓,down,↓,0.576400600024499,True,36,0
JP-M-23M23S2,40,no_adaptation,120,←,left,←,0.5681856001028791,True,36,0
JP-M-23M23S2,41,training,55,↑,up,↑,0.6050701999338344,True,36,0
JP-M-23M23S2,42,training,98,↓,down,↓,0.6276357000460848,True,36,1
JP-M-23M23S2,43,experiment,95,↓,down,↓,0.4424252000171691,True,36,1
JP-M-23M23S2,44,experiment,66,←,left,←,0.4351024000206962,True,36,0
JP-M-23M23S2,45,experiment,75,↓,down,↓,0.4873706999933347,True,36,0
JP-M-23M23S2,46,experiment,89,←,left,←,0.4089588000206277,True,36,1
JP-M-23M23S2,47,experiment,86,↑,down,↓,0.9040300999768078,False,36,0
JP-M-23M23S2,48,experiment,73,→,right,→,0.5071041999617592,True,36,1
JP-M-23M23S2,49,experiment,49,↑,up,↑,0.686051799915731,True,36,1
JP-M-23M23S2,50,experiment,72,↑,no_key,no_letter,-1.0,False,36,1
JP-M-23M23S2,51,experiment,56,→,right,→,0.43420199991669506,True,36,1
JP-M-23M23S2,52,experiment,64,→,right,→,0.4738648000638932,True,36,0
JP-M-23M23S2,53,experiment,58,→,right,→,0.6425393000245094,True,36,0
JP-M-23M23S2,54,experiment,74,↓,down,↓,0.6319786000531167,True,36,1
JP-M-23M23S2,55,experiment,63,→,right,→,0.4262378999264911,True,36,1
JP-M-23M23S2,56,experiment,53,→,right,→,0.6940980000654235,True,36,0
JP-M-23M23S2,57,experiment,70,↓,down,↓,0.5866389999864623,True,36,1
JP-M-23M23S2,58,experiment,93,←,left,←,0.4762063999660313,True,36,1
JP-M-23M23S2,59,experiment,50,←,left,←,0.6242427000543103,True,36,1
JP-M-23M23S2,60,experiment,68,←,left,←,0.5920935999602079,True,36,1
JP-M-23M23S2,61,experiment,83,→,no_key,no_letter,-1.0,False,36,1
JP-M-23M23S2,62,experiment,106,←,left,←,0.5299254000419751,True,36,1
JP-M-23M23S2,63,experiment,100,→,right,→,0.6590821000281721,True,36,1
JP-M-23M23S2,64,experiment,103,←,left,←,0.5579542999621481,True,36,1
JP-M-23M23S2,65,experiment,82,↑,up,↑,0.5961383999092504,True,36,1
JP-M-23M23S2,66,experiment,55,↑,up,↑,0.5776651999913156,True,36,1
JP-M-23M23S2,67,experiment,94,↑,up,↑,0.498809399898164,True,36,1
JP-M-23M23S2,68,experiment,99,→,right,→,0.5101664999965578,True,36,1
JP-M-23M23S2,69,experiment,65,↑,up,↑,0.47567730001173913,True,36,1
JP-M-23M23S2,70,experiment,57,↓,down,↓,0.6290737999370322,True,36,1
JP-M-23M23S2,71,experiment,105,↑,up,↑,0.4888908000430092,True,36,1
JP-M-23M23S2,72,experiment,60,←,left,←,0.4966050999937579,True,36,1
JP-M-23M23S2,73,experiment,79,↓,down,↓,0.5539523999905214,True,36,1
JP-M-23M23S2,74,experiment,85,↓,down,↓,0.49521149997599423,True,36,1
JP-M-23M23S2,75,experiment,107,↑,up,↑,0.5597963000182062,True,36,1
JP-M-23M23S2,76,experiment,87,↑,up,↑,0.5641204999992624,True,36,1
JP-M-23M23S2,77,experiment,54,↑,up,↑,0.4992993000196293,True,36,1
JP-M-23M23S2,78,experiment,92,←,left,←,0.6563093999866396,True,36,1
JP-M-23M23S2,79,experiment,80,↓,down,↓,0.5711235000053421,True,36,1
JP-M-23M23S2,80,experiment,88,↓,down,↓,0.471118799992837,True,36,1
JP-M-23M23S2,81,experiment,90,↑,up,↑,0.47001849999651313,True,36,0
JP-M-23M23S2,82,experiment,69,←,left,←,0.5792711999965832,True,36,0
JP-M-23M23S2,83,experiment,48,↑,up,↑,0.7075981999514624,True,36,1
JP-M-23M23S2,84,experiment,61,←,up,↑,0.7308267999906093,False,36,1
JP-M-23M23S2,85,experiment,52,←,left,←,0.571832700050436,True,36,1
JP-M-23M23S2,86,experiment,96,←,left,←,0.46925500000361353,True,36,1
JP-M-23M23S2,87,experiment,78,↑,up,↑,0.5432418999262154,True,36,0
JP-M-23M23S2,88,experiment,98,↑,no_key,no_letter,-1.0,False,36,1
JP-M-23M23S2,89,experiment,97,→,right,→,0.6650484000565484,True,36,1
JP-M-23M23S2,90,experiment,51,↑,up,↑,0.509125699987635,True,36,1
JP-M-23M23S2,91,experiment,67,↑,up,↑,0.634357100003399,True,36,1
JP-M-23M23S2,92,experiment,91,↑,up,↑,0.40960580005776137,True,36,1
JP-M-23M23S2,93,experiment,104,↑,up,↑,0.6947292999830097,True,36,0
JP-M-23M23S2,94,experiment,102,→,right,→,0.768874799949117,True,36,1
JP-M-23M23S2,95,experiment,76,←,left,←,0.6724761000368744,True,36,1
JP-M-23M23S2,96,experiment,71,↓,down,↓,0.7094455000478774,True,36,1
JP-M-23M23S2,97,experiment,77,↑,up,↑,0.7031539999879897,True,36,1
JP-M-23M23S2,98,experiment,101,↑,no_key,no_letter,-1.0,False,36,1
JP-M-23M23S2,99,experiment,84,→,right,→,0.7261582999490201,True,36,1
JP-M-23M23S2,100,experiment,108,→,right,→,0.7726025999290869,True,36,1
JP-M-23M23S2,101,experiment,62,↓,down,↓,0.6088003000477329,True,36,1
JP-M-23M23S2,102,experiment,59,↑,up,↑,0.7244028999703005,True,36,1
JP-M-23M23S2,103,experiment,81,↓,down,↓,0.5882364000426605,True,36,1
JP-M-23M23S2,104,training,59,→,right,→,0.5418769000098109,True,35,0
JP-M-23M23S2,105,training,52,←,left,←,0.5507250999798998,True,35,1
JP-M-23M23S2,106,experiment,56,↓,down,↓,0.5578975999960676,True,35,1
JP-M-23M23S2,107,experiment,69,←,left,←,0.5521990999113768,True,35,1
JP-M-23M23S2,108,experiment,49,→,right,→,0.6334185999585316,True,35,1
JP-M-23M23S2,109,experiment,77,→,right,→,0.5821109000826254,True,35,1
JP-M-23M23S2,110,experiment,94,↑,up,↑,0.6630389000056311,True,35,1
JP-M-23M23S2,111,experiment,74,↓,down,↓,0.5635067999828607,True,35,1
JP-M-23M23S2,112,experiment,68,↓,down,↓,0.4784799999324605,True,35,1
JP-M-23M23S2,113,experiment,64,↓,down,↓,0.4779118999140337,True,35,1
JP-M-23M23S2,114,experiment,78,←,left,←,0.6477912000846118,True,35,1
JP-M-23M23S2,115,experiment,57,↑,up,↑,0.49086429993622005,True,35,1
JP-M-23M23S2,116,experiment,91,←,left,←,0.5122231999412179,True,35,1
JP-M-23M23S2,117,experiment,97,→,right,→,0.7549540000036359,True,35,1
JP-M-23M23S2,118,experiment,89,←,left,←,0.534705700003542,True,35,1
JP-M-23M23S2,119,experiment,108,↑,up,↑,0.5008596000261605,True,35,1
JP-M-23M23S2,120,experiment,80,→,right,→,0.7021721999626607,True,35,1
JP-M-23M23S2,121,experiment,72,→,right,→,0.6816450000042096,True,35,1
JP-M-23M23S2,122,experiment,92,→,right,→,0.6714701000601053,True,35,1
JP-M-23M23S2,123,experiment,73,↓,down,↓,0.6118960999883711,True,35,1
JP-M-23M23S2,124,experiment,107,→,right,→,0.5755636999383569,True,35,1
JP-M-23M23S2,125,experiment,66,↑,up,↑,0.7220659999875352,True,35,1
JP-M-23M23S2,126,experiment,48,→,right,→,0.7249360999558121,True,35,1
JP-M-23M23S2,127,experiment,101,←,left,←,0.5983192001003772,True,35,1
JP-M-23M23S2,128,experiment,65,←,left,←,0.6641653999686241,True,35,1
JP-M-23M23S2,129,experiment,63,→,right,→,0.7122533000074327,True,35,1
JP-M-23M23S2,130,experiment,61,↑,up,↑,0.5829558999976143,True,35,1
JP-M-23M23S2,131,experiment,93,←,left,←,0.8882200999651104,True,35,1
JP-M-23M23S2,132,experiment,99,↓,down,↓,0.6674876000033692,True,35,1
JP-M-23M23S2,133,experiment,106,↑,up,↑,0.7410757000325248,True,35,1
JP-M-23M23S2,134,experiment,102,→,right,→,0.6930175999877974,True,35,1
JP-M-23M23S2,135,experiment,50,→,right,→,0.5685194000834599,True,35,1
JP-M-23M23S2,136,experiment,82,←,left,←,0.5580980000086129,True,35,1
JP-M-23M23S2,137,experiment,87,↓,down,↓,0.7147100999718532,True,35,1
JP-M-23M23S2,138,experiment,71,→,right,→,0.7739569999976084,True,35,1
JP-M-23M23S2,139,experiment,75,↑,up,↑,0.6778939999639988,True,35,1
JP-M-23M23S2,140,experiment,67,↓,down,↓,0.5720913999248296,True,35,1
JP-M-23M23S2,141,experiment,96,↓,down,↓,0.5808313000015914,True,35,1
JP-M-23M23S2,142,experiment,59,←,left,←,0.6495366001036018,True,35,1
JP-M-23M23S2,143,experiment,100,←,left,←,0.5496606000233442,True,35,1
JP-M-23M23S2,144,experiment,83,←,left,←,0.5238529000198469,True,35,1
JP-M-23M23S2,145,experiment,103,↑,up,↑,0.6441457999171689,True,35,1
JP-M-23M23S2,146,experiment,88,↑,up,↑,0.6609358999412507,True,35,1
JP-M-23M23S2,147,experiment,86,←,left,←,0.5894108000211418,True,35,1
JP-M-23M23S2,148,experiment,54,↓,down,↓,0.6034157000249252,True,35,1
JP-M-23M23S2,149,experiment,62,↓,down,↓,0.5751355000538751,True,35,1
JP-M-23M23S2,150,experiment,85,←,left,←,0.554860100033693,True,35,1
JP-M-23M23S2,151,experiment,95,↓,down,↓,0.5009075000416487,True,35,1
JP-M-23M23S2,152,experiment,98,→,right,→,0.7994917000178248,True,35,1
JP-M-23M23S2,153,experiment,58,→,right,→,0.572047199937515,True,35,1
JP-M-23M23S2,154,experiment,53,↓,down,↓,0.47518009995110333,True,35,1
JP-M-23M23S2,155,experiment,90,↓,down,↓,0.4274651000741869,True,35,1
JP-M-23M23S2,156,experiment,104,↓,no_key,no_letter,-1.0,False,35,0
JP-M-23M23S2,157,experiment,76,↑,down,↓,0.7011526999995112,False,35,1
JP-M-23M23S2,158,experiment,55,←,left,←,0.6545885999221355,True,35,1
JP-M-23M23S2,159,experiment,51,→,right,→,0.6828049999894574,True,35,1
JP-M-23M23S2,160,experiment,60,↑,down,↓,0.531378399929963,False,35,1
JP-M-23M23S2,161,experiment,84,→,no_key,no_letter,-1.0,False,35,1
JP-M-23M23S2,162,experiment,105,←,left,←,0.6719484999775887,True,35,1
JP-M-23M23S2,163,experiment,52,↓,down,↓,0.5472794000525028,True,35,1
JP-M-23M23S2,164,experiment,70,↓,down,↓,0.40878350008279085,True,35,1
JP-M-23M23S2,165,experiment,81,→,no_key,no_letter,-1.0,False,35,0
JP-M-23M23S2,166,experiment,79,→,right,→,0.6886496000224724,True,35,1
JP-M-23M23S2,167,training,80,↑,up,↑,0.4942070000106469,True,34,0
JP-M-23M23S2,168,training,68,↑,up,↑,0.65179839998018,True,34,1
JP-M-23M23S2,169,experiment,72,←,left,←,0.5615377000067383,True,34,1
JP-M-23M23S2,170,experiment,84,←,left,←,0.4089378999779001,True,34,1
JP-M-23M23S2,171,experiment,103,↓,down,↓,0.48373929993249476,True,34,0
JP-M-23M23S2,172,experiment,73,↑,up,↑,0.5759020999539644,True,34,1
JP-M-23M23S2,173,experiment,48,←,left,←,0.7125338000478223,True,34,1
JP-M-23M23S2,174,experiment,60,←,left,←,0.5357597999973223,True,34,1
JP-M-23M23S2,175,experiment,71,↑,up,↑,0.42769080004654825,True,34,1
JP-M-23M23S2,176,experiment,78,↓,down,↓,0.654711400042288,True,34,0
JP-M-23M23S2,177,experiment,77,←,left,←,0.49010749999433756,True,34,1
JP-M-23M23S2,178,experiment,104,↑,up,↑,0.47548709996044636,True,34,1
JP-M-23M23S2,179,experiment,87,←,right,→,0.6913177999667823,False,34,1
JP-M-23M23S2,180,experiment,55,→,right,→,0.7730648999568075,True,34,1
JP-M-23M23S2,181,experiment,56,←,left,←,0.515030900016427,True,34,1
JP-M-23M23S2,182,experiment,95,←,left,←,0.5424566000001505,True,34,1
JP-M-23M23S2,183,experiment,91,←,left,←,0.4822009999770671,True,34,1
JP-M-23M23S2,184,experiment,96,←,no_key,no_letter,-1.0,False,34,1
JP-M-23M23S2,185,experiment,50,↑,up,↑,0.4563542000250891,True,34,1
JP-M-23M23S2,186,experiment,85,←,left,←,0.36134179995860904,True,34,1
JP-M-23M23S2,187,experiment,58,↑,down,↓,0.6696127000031993,False,34,0
JP-M-23M23S2,188,experiment,88,↓,down,↓,0.7252767999889329,True,34,1
JP-M-23M23S2,189,experiment,92,↓,down,↓,0.5134193999692798,True,34,1
JP-M-23M23S2,190,experiment,49,↓,down,↓,0.43437450006604195,True,34,1
JP-M-23M23S2,191,experiment,86,→,right,→,0.6616160999983549,True,34,0
JP-M-23M23S2,192,experiment,52,←,left,←,0.6893608999671414,True,34,1
JP-M-23M23S2,193,experiment,57,→,right,→,0.5545599999604747,True,34,1
JP-M-23M23S2,194,experiment,79,↑,up,↑,0.6494229000527412,True,34,1
JP-M-23M23S2,195,experiment,100,←,left,←,0.5900927999755368,True,34,1
JP-M-23M23S2,196,experiment,106,↓,down,↓,0.7784712999127805,True,34,1
JP-M-23M23S2,197,experiment,81,←,left,←,0.5122049999190494,True,34,1
JP-M-23M23S2,198,experiment,105,→,right,→,0.5842606000369415,True,34,1
JP-M-23M23S2,199,experiment,67,↑,up,↑,0.5861914000706747,True,34,1
JP-M-23M23S2,200,experiment,69,←,left,←,0.5479895999887958,True,34,1
JP-M-23M23S2,201,experiment,94,↓,down,↓,0.5822688000043854,True,34,1
JP-M-23M23S2,202,experiment,74,→,right,→,0.5739978000055999,True,34,1
JP-M-23M23S2,203,experiment,59,→,right,→,0.41767029999755323,True,34,1
JP-M-23M23S2,204,experiment,70,↑,up,↑,0.6584230000153184,True,34,1
JP-M-23M23S2,205,experiment,89,→,right,→,0.4899762999266386,True,34,1
JP-M-23M23S2,206,experiment,107,→,left,←,0.5943809000309557,False,34,1
JP-M-23M23S2,207,experiment,65,↑,up,↑,0.5806606999831274,True,34,1
JP-M-23M23S2,208,experiment,61,↓,down,↓,0.5205711999442428,True,34,1
JP-M-23M23S2,209,experiment,108,↓,down,↓,0.4638863999862224,True,34,1
JP-M-23M23S2,210,experiment,53,↑,down,↓,0.6830244000302628,False,34,1
JP-M-23M23S2,211,experiment,101,→,right,→,0.40924189996439964,True,34,1
JP-M-23M23S2,212,experiment,51,→,left,←,0.5477482000133023,False,34,0
JP-M-23M23S2,213,experiment,97,↑,up,↑,0.461371700046584,True,34,1
JP-M-23M23S2,214,experiment,54,→,right,→,0.4088537000352517,True,34,1
JP-M-23M23S2,215,experiment,64,↑,up,↑,0.5781923000467941,True,34,0
JP-M-23M23S2,216,experiment,66,→,right,→,0.4171453999588266,True,34,1
JP-M-23M23S2,217,experiment,90,→,right,→,0.629328400013037,True,34,0
JP-M-23M23S2,218,experiment,102,↓,down,↓,0.6178040999220684,True,34,1
JP-M-23M23S2,219,experiment,63,↑,up,↑,0.7237119999481365,True,34,1
JP-M-23M23S2,220,experiment,99,↓,down,↓,0.5733840999891981,True,34,1
JP-M-23M23S2,221,experiment,62,↑,up,↑,0.5854185000061989,True,34,1
JP-M-23M23S2,222,experiment,98,←,left,←,0.5768516999669373,True,34,1
JP-M-23M23S2,223,experiment,76,→,right,→,0.5842095999978483,True,34,1
JP-M-23M23S2,224,experiment,93,↑,up,↑,0.7296805999940261,True,34,1
JP-M-23M23S2,225,experiment,83,↓,down,↓,0.6641283999197185,True,34,1
JP-M-23M23S2,226,experiment,75,←,left,←,0.5643634999869391,True,34,1
JP-M-23M23S2,227,experiment,82,←,left,←,0.5941375999245793,True,34,1
JP-M-23M23S2,228,experiment,68,←,left,←,0.5556953001068905,True,34,1
JP-M-23M23S2,229,experiment,80,↓,down,↓,0.4663757000816986,True,34,1
JP-M-23M23S2,230,training,88,↓,down,↓,0.5048854999477044,True,33,0
JP-M-23M23S2,231,training,80,←,left,←,0.9534641000209376,True,33,1
JP-M-23M23S2,232,experiment,63,↓,down,↓,0.5103528999025002,True,33,1
JP-M-23M23S2,233,experiment,65,←,left,←,0.6038725000107661,True,33,1
JP-M-23M23S2,234,experiment,94,→,right,→,0.6121829999610782,True,33,1
JP-M-23M23S2,235,experiment,62,↓,down,↓,0.5503774000098929,True,33,1
JP-M-23M23S2,236,experiment,53,←,left,←,0.6224799999035895,True,33,1
JP-M-23M23S2,237,experiment,57,←,left,←,0.6742211000528187,True,33,1
JP-M-23M23S2,238,experiment,48,→,right,→,0.6789092000108212,True,33,1
JP-M-23M23S2,239,experiment,56,↑,up,↑,0.6728188000852242,True,33,1
JP-M-23M23S2,240,experiment,83,↓,down,↓,0.4737117000622675,True,33,1
JP-M-23M23S2,241,experiment,60,↓,down,↓,0.41702819999773055,True,33,1
JP-M-23M23S2,242,experiment,81,→,right,→,0.5583696999819949,True,33,0
JP-M-23M23S2,243,experiment,54,←,left,←,0.5976130999624729,True,33,1
JP-M-23M23S2,244,experiment,98,←,no_key,no_letter,-1.0,False,33,1
JP-M-23M23S2,245,experiment,99,←,left,←,0.7256387000670657,True,33,1
JP-M-23M23S2,246,experiment,75,↑,up,↑,0.5354248000076041,True,33,1
JP-M-23M23S2,247,experiment,88,←,left,←,0.4683142000576481,True,33,1
JP-M-23M23S2,248,experiment,107,↑,up,↑,0.621711099985987,True,33,1
JP-M-23M23S2,249,experiment,58,↑,up,↑,0.5050873999716714,True,33,1
JP-M-23M23S2,250,experiment,82,↑,up,↑,0.4262824000325054,True,33,1
JP-M-23M23S2,251,experiment,89,↓,down,↓,0.6263442999916151,True,33,1
JP-M-23M23S2,252,experiment,51,↓,down,↓,0.5040862000314519,True,33,1
JP-M-23M23S2,253,experiment,49,←,left,←,0.5790461000287905,True,33,1
JP-M-23M23S2,254,experiment,70,↑,up,↑,0.47614469996187836,True,33,1
JP-M-23M23S2,255,experiment,59,→,right,→,0.5247820999938995,True,33,1
JP-M-23M23S2,256,experiment,90,↓,down,↓,0.6417117000091821,True,33,1
JP-M-23M23S2,257,experiment,61,←,left,←,0.4912527999840677,True,33,1
JP-M-23M23S2,258,experiment,87,↑,up,↑,0.538536399952136,True,33,1
JP-M-23M23S2,259,experiment,78,↑,up,↑,0.3925917000742629,True,33,1
JP-M-23M23S2,260,experiment,97,→,right,→,0.4818797999760136,True,33,1
JP-M-23M23S2,261,experiment,105,↑,up,↑,0.611394599894993,True,33,1
JP-M-23M23S2,262,experiment,79,→,right,→,0.4564814999466762,True,33,1
JP-M-23M23S2,263,experiment,101,←,left,←,0.5481321000261232,True,33,1
JP-M-23M23S2,264,experiment,74,↑,up,↑,0.5013217000523582,True,33,1
JP-M-23M23S2,265,experiment,104,→,right,→,0.6544859999557957,True,33,1
JP-M-23M23S2,266,experiment,93,←,left,←,0.5084967000875622,True,33,1
JP-M-23M23S2,267,experiment,50,↓,down,↓,0.6873008999973536,True,33,1
JP-M-23M23S2,268,experiment,85,→,right,→,0.6392990000313148,True,33,1
JP-M-23M23S2,269,experiment,76,↓,down,↓,0.6278026000363752,True,33,1
JP-M-23M23S2,270,experiment,108,→,right,→,0.47011610004119575,True,33,1
JP-M-23M23S2,271,experiment,100,←,left,←,0.5136597000528127,True,33,1
JP-M-23M23S2,272,experiment,68,↑,up,↑,0.5097478999523446,True,33,1
JP-M-23M23S2,273,experiment,69,↓,down,↓,0.5625316000077873,True,33,1
JP-M-23M23S2,274,experiment,106,→,right,→,0.5599818000337109,True,33,1
JP-M-23M23S2,275,experiment,96,←,left,←,0.545499499887228,True,33,1
JP-M-23M23S2,276,experiment,92,→,right,→,0.8044016000349075,True,33,1
JP-M-23M23S2,277,experiment,103,→,right,→,0.5777331000426784,True,33,1
JP-M-23M23S2,278,experiment,95,→,right,→,0.5706928999861702,True,33,1
JP-M-23M23S2,279,experiment,77,→,right,→,0.5939695999259129,True,33,1
JP-M-23M23S2,280,experiment,55,→,right,→,0.5195892000338063,True,33,1
JP-M-23M23S2,281,experiment,52,→,right,→,0.5135483000194654,True,33,1
JP-M-23M23S2,282,experiment,102,←,left,←,0.5865753999678418,True,33,1
JP-M-23M23S2,283,experiment,73,↓,down,↓,0.6106226000702009,True,33,1
JP-M-23M23S2,284,experiment,71,↑,up,↑,0.49032010009977967,True,33,1
JP-M-23M23S2,285,experiment,86,↑,up,↑,0.7376236000563949,True,33,1
JP-M-23M23S2,286,experiment,72,↓,down,↓,0.563793099950999,True,33,1
JP-M-23M23S2,287,experiment,66,↑,up,↑,0.7027817000634968,True,33,1
JP-M-23M23S2,288,experiment,84,↓,no_key,no_letter,-1.0,False,33,1
JP-M-23M23S2,289,experiment,80,↑,down,↓,0.5574562000110745,False,33,1
JP-M-23M23S2,290,experiment,91,→,right,→,0.6005014999536797,True,33,1
JP-M-23M23S2,291,experiment,64,↑,up,↑,0.658634899999015,True,33,1
JP-M-23M23S2,292,experiment,67,→,right,→,0.5379961000289768,True,33,1
JP-M-23M23S2,293,training,98,↓,down,↓,0.4002601000247523,True,32,0
JP-M-23M23S2,294,training,78,←,left,←,0.6864928000140935,True,32,0
JP-M-23M23S2,295,experiment,60,↑,up,↑,0.49483139999210835,True,32,1
JP-M-23M23S2,296,experiment,58,↓,down,↓,0.47965500003192574,True,32,1
JP-M-23M23S2,297,experiment,52,←,left,←,0.47461760009173304,True,32,1
JP-M-23M23S2,298,experiment,79,→,right,→,0.605157500016503,True,32,1
JP-M-23M23S2,299,experiment,93,→,right,→,0.5333580001024529,True,32,1
JP-M-23M23S2,300,experiment,55,↑,up,↑,0.5736038000322878,True,32,1
JP-M-23M23S2,301,experiment,54,←,left,←,0.4843664999352768,True,32,1
JP-M-23M23S2,302,experiment,69,→,left,←,0.6897118000779301,False,32,1
JP-M-23M23S2,303,experiment,67,↑,right,→,0.49537250003777444,False,32,1
JP-M-23M23S2,304,experiment,53,→,right,→,0.570109499967657,True,32,1
JP-M-23M23S2,305,experiment,70,←,left,←,0.6439385999692604,True,32,1
JP-M-23M23S2,306,experiment,104,↓,down,↓,0.678584499983117,True,32,1
JP-M-23M23S2,307,experiment,64,↓,down,↓,0.5339527999749407,True,32,1
JP-M-23M23S2,308,experiment,84,→,right,→,0.4604228000389412,True,32,1
JP-M-23M23S2,309,experiment,95,←,left,←,0.5779233999783173,True,32,1
JP-M-23M23S2,310,experiment,97,↑,up,↑,0.7223446998978034,True,32,1
JP-M-23M23S2,311,experiment,66,↑,up,↑,0.5029661000007764,True,32,1
JP-M-23M23S2,312,experiment,81,→,right,→,0.44744130002800375,True,32,1
JP-M-23M23S2,313,experiment,56,↓,down,↓,0.770520200021565,True,32,1
JP-M-23M23S2,314,experiment,94,←,left,←,0.5799400000832975,True,32,1
JP-M-23M23S2,315,experiment,83,↑,down,↓,0.5285673999460414,False,32,1
JP-M-23M23S2,316,experiment,85,↑,up,↑,0.7109074000036344,True,32,1
JP-M-23M23S2,317,experiment,75,↑,up,↑,0.4732801999198273,True,32,1
JP-M-23M23S2,318,experiment,73,↓,down,↓,0.5176800000481308,True,32,1
JP-M-23M23S2,319,experiment,57,←,left,←,0.5819743000902236,True,32,1
JP-M-23M23S2,320,experiment,87,→,right,→,0.5212141000665724,True,32,1
JP-M-23M23S2,321,experiment,92,↑,down,↓,0.733506300020963,False,32,1
JP-M-23M23S2,322,experiment,88,↓,down,↓,0.5543284000596032,True,32,1
JP-M-23M23S2,323,experiment,65,→,left,←,0.5420527000678703,False,32,1
JP-M-23M23S2,324,experiment,105,↓,down,↓,0.6211837000446394,True,32,1
JP-M-23M23S2,325,experiment,101,→,no_key,no_letter,-1.0,False,32,1
JP-M-23M23S2,326,experiment,98,↓,down,↓,0.5714610000140965,True,32,1
JP-M-23M23S2,327,experiment,100,↑,up,↑,0.6907706001074985,True,32,1
JP-M-23M23S2,328,experiment,49,↓,down,↓,0.5987160999793559,True,32,1
JP-M-23M23S2,329,experiment,89,↑,down,↓,0.7447574998950586,False,32,1
JP-M-23M23S2,330,experiment,62,←,left,←,0.6378809000598267,True,32,1
JP-M-23M23S2,331,experiment,51,↓,down,↓,0.6350168000208214,True,32,1
JP-M-23M23S2,332,experiment,108,↑,up,↑,0.5893409999553114,True,32,1
JP-M-23M23S2,333,experiment,82,→,no_key,no_letter,-1.0,False,32,1
JP-M-23M23S2,334,experiment,90,→,right,→,0.49424490006640553,True,32,1
JP-M-23M23S2,335,experiment,61,↓,down,↓,0.7099993000738323,True,32,1
JP-M-23M23S2,336,experiment,99,→,right,→,0.49603500007651746,True,32,1
JP-M-23M23S2,337,experiment,68,→,no_key,no_letter,-1.0,False,32,1
JP-M-23M23S2,338,experiment,106,↑,down,↓,0.7000161000760272,False,32,1
JP-M-23M23S2,339,experiment,107,↓,down,↓,0.44505549990572035,True,32,1
JP-M-23M23S2,340,experiment,76,←,left,←,0.5606133999535814,True,32,1
JP-M-23M23S2,341,experiment,48,↑,up,↑,0.5381806999212131,True,32,1
JP-M-23M23S2,342,experiment,74,↓,down,↓,0.5634923999896273,True,32,1
JP-M-23M23S2,343,experiment,59,→,no_key,no_letter,-1.0,False,32,1
JP-M-23M23S2,344,experiment,77,↓,down,↓,0.5616449000081047,True,32,1
JP-M-23M23S2,345,experiment,63,↓,down,↓,0.46145409997552633,True,32,1
JP-M-23M23S2,346,experiment,78,↑,up,↑,0.47288900008425117,True,32,1
JP-M-23M23S2,347,experiment,71,→,right,→,0.5102171000326052,True,32,1
JP-M-23M23S2,348,experiment,72,↑,up,↑,0.47326910006813705,True,32,1
JP-M-23M23S2,349,experiment,80,↑,up,↑,0.563580600079149,True,32,1
JP-M-23M23S2,350,experiment,96,←,left,←,0.5646352999610826,True,32,1
JP-M-23M23S2,351,experiment,102,↓,down,↓,0.7315753999864683,True,32,1
JP-M-23M23S2,352,experiment,86,↑,up,↑,0.6812861000653356,True,32,1
JP-M-23M23S2,353,experiment,50,←,left,←,0.5328872000100091,True,32,1
JP-M-23M23S2,354,experiment,91,↓,down,↓,0.5370838000671938,True,32,1
JP-M-23M23S2,355,experiment,103,←,left,←,0.5288168999832124,True,32,1
JP-M-23M23S2,356,training,48,↑,up,↑,0.4396931999363005,True,32,0
JP-M-23M23S2,357,training,103,←,left,←,0.5691774999722838,True,32,0
JP-M-23M23S2,358,experiment,57,←,left,←,0.4630588000873104,True,32,1
JP-M-23M23S2,359,experiment,105,↓,down,↓,0.6412659999914467,True,32,1
JP-M-23M23S2,360,experiment,84,→,right,→,0.7711912000086159,True,32,1
JP-M-23M23S2,361,experiment,54,↓,down,↓,0.6262017000699416,True,32,1
JP-M-23M23S2,362,experiment,97,←,left,←,0.824541800073348,True,32,1
JP-M-23M23S2,363,experiment,60,↓,down,↓,0.5152177000418305,True,32,1
JP-M-23M23S2,364,experiment,86,←,left,←,0.5695029000053182,True,32,1
JP-M-23M23S2,365,experiment,108,→,right,→,0.6143727999879047,True,32,1
JP-M-23M23S2,366,experiment,74,←,left,←,0.4767673999303952,True,32,1
JP-M-23M23S2,367,experiment,64,←,left,←,0.5644620000384748,True,32,1
JP-M-23M23S2,368,experiment,65,↓,down,↓,0.6637115000048652,True,32,1
JP-M-23M23S2,369,experiment,101,↑,left,←,0.6031998998951167,False,32,1
JP-M-23M23S2,370,experiment,94,↑,no_key,no_letter,-1.0,False,32,1
JP-M-23M23S2,371,experiment,62,↑,down,↓,0.6890491000376642,False,32,1
JP-M-23M23S2,372,experiment,66,↑,up,↑,0.45524409995414317,True,32,1
JP-M-23M23S2,373,experiment,88,↑,no_key,no_letter,-1.0,False,32,1
JP-M-23M23S2,374,experiment,104,→,right,→,0.5588640999048948,True,32,1
JP-M-23M23S2,375,experiment,82,←,left,←,0.5246674999361858,True,32,1
JP-M-23M23S2,376,experiment,73,↓,down,↓,0.6312731000361964,True,32,1
JP-M-23M23S2,377,experiment,89,→,right,→,0.4797626999206841,True,32,1
JP-M-23M23S2,378,experiment,72,→,right,→,0.46017310000024736,True,32,1
JP-M-23M23S2,379,experiment,59,↓,right,→,0.4464466000208631,False,32,1
JP-M-23M23S2,380,experiment,76,↑,down,↓,0.5145144999260083,False,32,1
JP-M-23M23S2,381,experiment,77,↓,down,↓,0.5318172000115737,True,32,1
JP-M-23M23S2,382,experiment,63,↓,down,↓,0.6172443999676034,True,32,1
JP-M-23M23S2,383,experiment,61,←,left,←,0.6760842999210581,True,32,1
JP-M-23M23S2,384,experiment,68,↓,down,↓,0.5460565999383107,True,32,1
JP-M-23M23S2,385,experiment,95,↑,down,↓,0.5162293999455869,False,32,1
JP-M-23M23S2,386,experiment,71,→,right,→,0.623718100017868,True,32,1
JP-M-23M23S2,387,experiment,79,←,no_key,no_letter,-1.0,False,32,1
JP-M-23M23S2,388,experiment,99,→,right,→,0.6291665999451652,True,32,1
JP-M-23M23S2,389,experiment,69,↓,down,↓,0.5805595000274479,True,32,1
JP-M-23M23S2,390,experiment,78,↓,down,↓,0.4432929999893531,True,32,1
JP-M-23M23S2,391,experiment,81,←,left,←,0.6542356999125332,True,32,1
JP-M-23M23S2,392,experiment,96,↓,down,↓,0.5553630000213161,True,32,1
JP-M-23M23S2,393,experiment,53,↑,down,↓,0.5633162000449374,False,32,1
JP-M-23M23S2,394,experiment,102,↑,up,↑,0.7864792000036687,True,32,1
JP-M-23M23S2,395,experiment,103,←,left,←,0.7445538999745622,True,32,1
JP-M-23M23S2,396,experiment,91,↓,down,↓,0.49160539999138564,True,32,1
JP-M-23M23S2,397,experiment,87,↓,down,↓,0.5868128000292927,True,32,1
JP-M-23M23S2,398,experiment,98,↑,up,↑,0.6185807000147179,True,32,1
JP-M-23M23S2,399,experiment,75,↓,down,↓,0.4963372000493109,True,32,1
JP-M-23M23S2,400,experiment,51,←,left,←,0.4673345999326557,True,32,1
JP-M-23M23S2,401,experiment,50,↑,up,↑,0.6317418999969959,True,32,1
JP-M-23M23S2,402,experiment,93,←,left,←,0.5829284000210464,True,32,1
JP-M-23M23S2,403,experiment,70,↑,up,↑,0.6639105000067502,True,32,1
JP-M-23M23S2,404,experiment,100,←,left,←,0.6916465000249445,True,32,1
JP-M-23M23S2,405,experiment,52,↓,down,↓,0.5983533000107855,True,32,1
JP-M-23M23S2,406,experiment,90,↑,up,↑,0.6561329999240115,True,32,1
JP-M-23M23S2,407,experiment,80,←,left,←,0.5869064000435174,True,32,1
JP-M-23M23S2,408,experiment,106,↓,down,↓,0.4954990000696853,True,32,1
JP-M-23M23S2,409,experiment,55,←,left,←,0.48089220002293587,True,32,1
JP-M-23M23S2,410,experiment,92,↑,up,↑,0.6386727000353858,True,32,1
JP-M-23M23S2,411,experiment,107,←,left,←,0.4650378000224009,True,32,1
JP-M-23M23S2,412,experiment,83,←,left,←,0.610601699911058,True,32,1
JP-M-23M23S2,413,experiment,67,→,right,→,0.7555621999781579,True,32,1
JP-M-23M23S2,414,experiment,85,↓,down,↓,0.6247103000059724,True,32,1
JP-M-23M23S2,415,experiment,58,↑,up,↑,0.6841370000038296,True,32,1
JP-M-23M23S2,416,experiment,49,↑,up,↑,0.616017899941653,True,32,1
JP-M-23M23S2,417,experiment,56,↓,down,↓,0.644295800011605,True,32,1
JP-M-23M23S2,418,experiment,48,↓,down,↓,0.5466422999743372,True,32,1
JP-M-23M23S2,419,training,91,↓,down,↓,0.5160239998949692,True,32,0
JP-M-23M23S2,420,training,88,↓,down,↓,0.5134265000233427,True,32,1
JP-M-23M23S2,421,experiment,72,←,left,←,0.5806676000356674,True,32,1
JP-M-23M23S2,422,experiment,53,←,left,←,0.6032608000095934,True,32,1
JP-M-23M23S2,423,experiment,97,↑,up,↑,0.6661784000461921,True,32,1
JP-M-23M23S2,424,experiment,62,←,left,←,0.5307590999873355,True,32,1
JP-M-23M23S2,425,experiment,58,→,right,→,0.5617368000093848,True,32,1
JP-M-23M23S2,426,experiment,49,↓,down,↓,0.4745608000084758,True,32,1
JP-M-23M23S2,427,experiment,84,↓,down,↓,0.5072359999176115,True,32,1
JP-M-23M23S2,428,experiment,78,←,left,←,0.5167024000547826,True,32,1
JP-M-23M23S2,429,experiment,68,↑,up,↑,0.464912399998866,True,32,1
JP-M-23M23S2,430,experiment,77,→,right,→,0.5806421999586746,True,32,1
JP-M-23M23S2,431,experiment,52,↓,down,↓,0.5715146000729874,True,32,1
JP-M-23M23S2,432,experiment,96,←,left,←,0.5644134000176564,True,32,1
JP-M-23M23S2,433,experiment,69,←,left,←,0.5424729000078514,True,32,1
JP-M-23M23S2,434,experiment,75,↑,up,↑,0.7514778000768274,True,32,1
JP-M-23M23S2,435,experiment,65,↑,up,↑,0.49131060007493943,True,32,1
JP-M-23M23S2,436,experiment,92,←,left,←,0.47283330000936985,True,32,1
JP-M-23M23S2,437,experiment,70,→,left,←,0.5984475000295788,False,32,1
JP-M-23M23S2,438,experiment,76,←,left,←,0.3835544000612572,True,32,1
JP-M-23M23S2,439,experiment,56,←,left,←,0.39215130009688437,True,32,0
JP-M-23M23S2,440,experiment,74,↓,down,↓,0.5453588999807835,True,32,0
JP-M-23M23S2,441,experiment,93,↓,down,↓,0.5240361000178382,True,32,1
JP-M-23M23S2,442,experiment,91,→,right,→,0.8323607000056654,True,32,1
JP-M-23M23S2,443,experiment,88,↑,up,↑,0.7053414999973029,True,32,1
JP-M-23M23S2,444,experiment,83,↑,up,↑,0.44942139997147024,True,32,1
JP-M-23M23S2,445,experiment,59,→,right,→,0.7391238999553025,True,32,1
JP-M-23M23S2,446,experiment,66,←,left,←,0.6232127000112087,True,32,1
JP-M-23M23S2,447,experiment,90,↑,up,↑,0.4638878999976441,True,32,1
JP-M-23M23S2,448,experiment,60,←,left,←,0.521046599955298,True,32,1
JP-M-23M23S2,449,experiment,48,↓,down,↓,0.6279521000105888,True,32,1
JP-M-23M23S2,450,experiment,50,↓,no_key,no_letter,-1.0,False,32,1
JP-M-23M23S2,451,experiment,64,↑,right,→,0.9587878999300301,False,32,1
JP-M-23M23S2,452,experiment,73,←,left,←,0.47971520002465695,True,32,1
JP-M-23M23S2,453,experiment,89,→,right,→,0.574470299994573,True,32,1
JP-M-23M23S2,454,experiment,61,↑,up,↑,0.40947910002432764,True,32,1
JP-M-23M23S2,455,experiment,105,→,right,→,0.4631575000239536,True,32,0
JP-M-23M23S2,456,experiment,101,←,left,←,0.5623122999677435,True,32,1
JP-M-23M23S2,457,experiment,104,↓,down,↓,0.7047117999754846,True,32,1
JP-M-23M23S2,458,experiment,54,→,right,→,0.6899860999546945,True,32,1
JP-M-23M23S2,459,experiment,94,↑,up,↑,0.5268036000197753,True,32,1
JP-M-23M23S2,460,experiment,106,←,left,←,0.6061458000913262,True,32,1
JP-M-23M23S2,461,experiment,82,←,left,←,0.375677700038068,True,32,1
JP-M-23M23S2,462,experiment,67,←,left,←,0.6443132000276819,True,32,0
JP-M-23M23S2,463,experiment,51,→,left,←,0.5054307000245899,False,32,1
JP-M-23M23S2,464,experiment,81,↑,up,↑,0.7457887000637129,True,32,1
JP-M-23M23S2,465,experiment,100,↑,up,↑,0.5542149998946115,True,32,1
JP-M-23M23S2,466,experiment,85,↑,up,↑,0.4796761000761762,True,32,1
JP-M-23M23S2,467,experiment,55,→,right,→,0.6896409000037238,True,32,1
JP-M-23M23S2,468,experiment,57,→,right,→,0.41796039999462664,True,32,1
JP-M-23M23S2,469,experiment,107,→,no_key,no_letter,-1.0,False,32,0
JP-M-23M23S2,470,experiment,87,→,left,←,0.6030270999763161,False,32,1
JP-M-23M23S2,471,experiment,99,↑,down,↓,0.873405099962838,False,32,1
JP-M-23M23S2,472,experiment,108,←,left,←,0.41127309994772077,True,32,1
JP-M-23M23S2,473,experiment,63,←,no_key,no_letter,-1.0,False,32,0
JP-M-23M23S2,474,experiment,102,↑,up,↑,0.6677310999948531,True,32,1
JP-M-23M23S2,475,experiment,103,←,left,←,0.5182650000788271,True,32,1
JP-M-23M23S2,476,experiment,71,←,left,←,0.5138014999683946,True,32,1
JP-M-23M23S2,477,experiment,86,←,left,←,0.488255099975504,True,32,1
JP-M-23M23S2,478,experiment,95,↓,down,↓,0.7885545999743044,True,32,1
JP-M-23M23S2,479,experiment,80,↑,up,↑,0.4660545999649912,True,32,1
JP-M-23M23S2,480,experiment,98,←,up,↑,0.35049800004344434,False,32,1
JP-M-23M23S2,481,experiment,79,↑,no_key,no_letter,-1.0,False,32,0
JP-M-23M23S2,482,training,84,←,left,←,0.6432897999184206,True,32,0
JP-M-23M23S2,483,training,107,←,left,←,0.3505002000601962,True,32,1
JP-M-23M23S2,484,experiment,97,→,right,→,0.7667510999599472,True,32,0
JP-M-23M23S2,485,experiment,66,↑,up,↑,0.7216338999569416,True,32,1
JP-M-23M23S2,486,experiment,65,↑,no_key,no_letter,-1.0,False,32,1
JP-M-23M23S2,487,experiment,102,↑,up,↑,0.40914900007192045,True,32,1
JP-M-23M23S2,488,experiment,49,←,left,←,0.4696444000583142,True,32,0
JP-M-23M23S2,489,experiment,60,→,right,→,0.4945068000815809,True,32,1
JP-M-23M23S2,490,experiment,99,↓,down,↓,0.7375135000329465,True,32,1
JP-M-23M23S2,491,experiment,104,↑,up,↑,0.4651894000126049,True,32,1
JP-M-23M23S2,492,experiment,91,←,left,←,0.4007534000556916,True,32,1
JP-M-23M23S2,493,experiment,67,↓,down,↓,0.5527911999961361,True,32,0
JP-M-23M23S2,494,experiment,63,→,right,→,0.69340230000671,True,32,1
JP-M-23M23S2,495,experiment,87,↑,up,↑,0.500114000053145,True,32,1
JP-M-23M23S2,496,experiment,72,←,left,←,0.44041509996168315,True,32,1
JP-M-23M23S2,497,experiment,61,↓,down,↓,0.5859342999756336,True,32,1
JP-M-23M23S2,498,experiment,64,→,right,→,0.48425739991944283,True,32,1
JP-M-23M23S2,499,experiment,79,←,left,←,0.43929160002153367,True,32,1
JP-M-23M23S2,500,experiment,92,↑,up,↑,0.6539114998886362,True,32,0
JP-M-23M23S2,501,experiment,101,←,right,→,0.7615342000499368,False,32,1
JP-M-23M23S2,502,experiment,81,↑,no_key,no_letter,-1.0,False,32,1
JP-M-23M23S2,503,experiment,105,→,right,→,0.4556529999244958,True,32,1
JP-M-23M23S2,504,experiment,75,↑,up,↑,0.5077384000178427,True,32,1
JP-M-23M23S2,505,experiment,59,↓,down,↓,0.8273355999263003,True,32,1
JP-M-23M23S2,506,experiment,70,→,right,→,0.6105440000537783,True,32,1
JP-M-23M23S2,507,experiment,108,→,right,→,0.7179905999219045,True,32,1
JP-M-23M23S2,508,experiment,103,↑,down,↓,0.6946204999694601,False,32,1
JP-M-23M23S2,509,experiment,55,↑,down,↓,0.8245248000603169,False,32,1
JP-M-23M23S2,510,experiment,52,↓,down,↓,0.5337803000584245,True,32,1
JP-M-23M23S2,511,experiment,78,→,right,→,0.6141368000535294,True,32,1
JP-M-23M23S2,512,experiment,84,↓,down,↓,0.6493165000574663,True,32,1
JP-M-23M23S2,513,experiment,48,←,no_key,no_letter,-1.0,False,32,1
JP-M-23M23S2,514,experiment,54,→,right,→,0.5753124000038952,True,32,1
JP-M-23M23S2,515,experiment,57,↓,down,↓,0.4930782000301406,True,32,1
JP-M-23M23S2,516,experiment,95,←,left,←,0.601531199994497,True,32,1
JP-M-23M23S2,517,experiment,77,↓,down,↓,0.6075858999975026,True,32,1
JP-M-23M23S2,518,experiment,100,↑,down,↓,0.7336885000113398,False,32,1
JP-M-23M23S2,519,experiment,90,←,left,←,0.5939816000172868,True,32,1
JP-M-23M23S2,520,experiment,58,→,right,→,0.6306248999899253,True,32,1
JP-M-23M23S2,521,experiment,73,↑,up,↑,0.5166009000968188,True,32,1
JP-M-23M23S2,522,experiment,74,↓,down,↓,0.5750033999793231,True,32,1
JP-M-23M23S2,523,experiment,68,↑,up,↑,0.5050948999123648,True,32,1
JP-M-23M23S2,524,experiment,88,←,left,←,0.6632186999777332,True,32,1
JP-M-23M23S2,525,experiment,106,→,right,→,0.6648077999707311,True,32,1
JP-M-23M23S2,526,experiment,53,↓,down,↓,0.5883759999414906,True,32,1
JP-M-23M23S2,527,experiment,76,→,right,→,0.515084799961187,True,32,1
JP-M-23M23S2,528,experiment,107,↑,up,↑,0.5144853999372572,True,32,1
JP-M-23M23S2,529,experiment,69,→,right,→,0.6222511000232771,True,32,1
JP-M-23M23S2,530,experiment,83,←,left,←,0.48147760005667806,True,32,1
JP-M-23M23S2,531,experiment,93,↑,up,↑,0.4789129999699071,True,32,1
JP-M-23M23S2,532,experiment,71,←,left,←,0.45220320008229464,True,32,1
JP-M-23M23S2,533,experiment,94,↑,up,↑,0.4341087000211701,True,32,1
JP-M-23M23S2,534,experiment,50,←,left,←,0.5355348000302911,True,32,0
JP-M-23M23S2,535,experiment,80,↓,down,↓,0.5513401000062004,True,32,1
JP-M-23M23S2,536,experiment,89,↓,down,↓,0.4993668000679463,True,32,1
JP-M-23M23S2,537,experiment,85,→,right,→,0.4826412999536842,True,32,1
JP-M-23M23S2,538,experiment,96,↑,left,←,0.6707846000790596,False,32,1
JP-M-23M23S2,539,experiment,62,←,left,←,0.5352175999432802,True,32,1
JP-M-23M23S2,540,experiment,98,→,right,→,0.7366990000009537,True,32,1
JP-M-23M23S2,541,experiment,86,↑,up,↑,0.47805449995212257,True,32,1
JP-M-23M23S2,542,experiment,56,→,right,→,0.600338299991563,True,32,1
JP-M-23M23S2,543,experiment,51,→,right,→,0.5270128999836743,True,32,1
JP-M-23M23S2,544,experiment,82,←,left,←,0.6623965000035241,True,32,1
JP-M-23M23S2,545,training,71,←,left,←,0.4177654000231996,True,32,0
JP-M-23M23S2,546,training,62,↑,up,↑,0.4563548000296578,True,32,0
JP-M-23M23S2,547,experiment,60,↓,down,↓,0.5694504000712186,True,32,1
JP-M-23M23S2,548,experiment,85,↑,up,↑,0.7184435999952257,True,32,1
JP-M-23M23S2,549,experiment,106,←,left,←,0.4459013999439776,True,32,1
JP-M-23M23S2,550,experiment,64,↓,down,↓,0.5422970000654459,True,32,1
JP-M-23M23S2,551,experiment,74,→,right,→,0.6477503000060096,True,32,1
JP-M-23M23S2,552,experiment,62,→,right,→,0.5287427000002936,True,32,1
JP-M-23M23S2,553,experiment,76,↑,up,↑,0.7542947999900207,True,32,1
JP-M-23M23S2,554,experiment,49,→,right,→,0.5552464000647888,True,32,1
JP-M-23M23S2,555,experiment,92,→,right,→,0.6779281999915838,True,32,1
JP-M-23M23S2,556,experiment,96,←,no_key,no_letter,-1.0,False,32,1
JP-M-23M23S2,557,experiment,63,←,left,←,0.3840718000428751,True,32,1
JP-M-23M23S2,558,experiment,103,↑,no_key,no_letter,-1.0,False,32,0
JP-M-23M23S2,559,experiment,90,↑,no_key,no_letter,-1.0,False,32,1
JP-M-23M23S2,560,experiment,86,←,left,←,0.3677676999941468,True,32,1
JP-M-23M23S2,561,experiment,52,→,right,→,0.5984040999319404,True,32,0
JP-M-23M23S2,562,experiment,95,↑,up,↑,0.48649549996480346,True,32,1
JP-M-23M23S2,563,experiment,55,←,left,←,0.5125250000273809,True,32,1
JP-M-23M23S2,564,experiment,51,←,left,←,0.4986815999727696,True,32,1
JP-M-23M23S2,565,experiment,93,↑,up,↑,0.6072862999280915,True,32,1
JP-M-23M23S2,566,experiment,94,↓,down,↓,0.7913246999960393,True,32,1
JP-M-23M23S2,567,experiment,99,↑,up,↑,0.4467720000538975,True,32,1
JP-M-23M23S2,568,experiment,83,←,left,←,0.568728799931705,True,32,1
JP-M-23M23S2,569,experiment,87,↑,up,↑,0.620552200009115,True,32,1
JP-M-23M23S2,570,experiment,61,→,right,→,0.5189345999388024,True,32,1
JP-M-23M23S2,571,experiment,69,↓,down,↓,0.7632255000062287,True,32,1
JP-M-23M23S2,572,experiment,65,↑,down,↓,0.6704068999970332,False,32,1
JP-M-23M23S2,573,experiment,66,→,right,→,0.6852177999680862,True,32,1
JP-M-23M23S2,574,experiment,77,←,left,←,0.8001733999699354,True,32,1
JP-M-23M23S2,575,experiment,57,↑,left,←,0.7566272999392822,False,32,1
JP-M-23M23S2,576,experiment,101,→,right,→,0.46806360001210123,True,32,1
JP-M-23M23S2,577,experiment,56,↑,up,↑,0.7666837000288069,True,32,1
JP-M-23M23S2,578,experiment,50,→,right,→,0.6710808000061661,True,32,1
JP-M-23M23S2,579,experiment,67,↑,right,→,0.7414000000571832,False,32,1
JP-M-23M23S2,580,experiment,81,↑,up,↑,0.5245501000899822,True,32,1
JP-M-23M23S2,581,experiment,80,←,left,←,0.46080789994448423,True,32,1
JP-M-23M23S2,582,experiment,82,↓,down,↓,0.7183344999793917,True,32,1
JP-M-23M23S2,583,experiment,105,↓,down,↓,0.6062983999727294,True,32,1
JP-M-23M23S2,584,experiment,53,↑,down,↓,0.6201366999885067,False,32,1
JP-M-23M23S2,585,experiment,102,→,right,→,0.6488719000481069,True,32,1
JP-M-23M23S2,586,experiment,68,←,left,←,0.4479284998960793,True,32,1
JP-M-23M23S2,587,experiment,84,→,right,→,0.46555480000097305,True,32,1
JP-M-23M23S2,588,experiment,54,↑,up,↑,0.5248310000170022,True,32,1
JP-M-23M23S2,589,experiment,48,←,left,←,0.44774109998252243,True,32,1
JP-M-23M23S2,590,experiment,73,→,right,→,0.4692372999852523,True,32,1
JP-M-23M23S2,591,experiment,58,↑,up,↑,0.5345762999495491,True,32,1
JP-M-23M23S2,592,experiment,75,←,left,←,0.5598148999270052,True,32,1
JP-M-23M23S2,593,experiment,71,→,right,→,0.5055675999028608,True,32,1
JP-M-23M23S2,594,experiment,89,→,right,→,0.40925410005729645,True,32,1
JP-M-23M23S2,595,experiment,79,→,right,→,0.6041594999842346,True,32,0
JP-M-23M23S2,596,experiment,98,←,no_key,no_letter,-1.0,False,32,1
JP-M-23M23S2,597,experiment,70,←,left,←,0.47754260001238436,True,32,1
JP-M-23M23S2,598,experiment,104,↑,no_key,no_letter,-1.0,False,32,1
JP-M-23M23S2,599,experiment,72,←,left,←,0.5619156999746338,True,32,1
JP-M-23M23S2,600,experiment,78,→,right,→,0.6409700999502093,True,32,1
JP-M-23M23S2,601,experiment,88,→,right,→,0.5375760000897571,True,32,1
JP-M-23M23S2,602,experiment,100,↓,down,↓,0.7623194999760017,True,32,1
JP-M-23M23S2,603,experiment,107,↓,down,↓,0.5756623999914154,True,32,1
JP-M-23M23S2,604,experiment,108,←,left,←,0.5401291999733075,True,32,1
JP-M-23M23S2,605,experiment,91,←,left,←,0.5201109999325126,True,32,1
JP-M-23M23S2,606,experiment,97,↑,up,↑,0.8103948999196291,True,32,1
JP-M-23M23S2,607,experiment,59,→,right,→,0.6621327999746427,True,32,1
JP-M-23M23S2,608,training,95,←,left,←,0.49991759995464236,True,32,0
JP-M-23M23S2,609,training,93,→,left,←,0.4566365999635309,False,32,1
JP-M-23M23S2,610,experiment,103,←,left,←,0.6357179000042379,True,32,1
JP-M-23M23S2,611,experiment,68,↓,down,↓,0.45949209993705153,True,32,1
JP-M-23M23S2,612,experiment,82,↓,down,↓,0.4773723999969661,True,32,1
JP-M-23M23S2,613,experiment,63,→,right,→,0.53412790002767,True,32,1
JP-M-23M23S2,614,experiment,91,←,left,←,0.4495183000108227,True,32,1
JP-M-23M23S2,615,experiment,89,←,left,←,0.5854450999759138,True,32,1
JP-M-23M23S2,616,experiment,66,↓,down,↓,0.5722162000602111,True,32,1
JP-M-23M23S2,617,experiment,97,←,left,←,0.37567109998781234,True,32,1
JP-M-23M23S2,618,experiment,75,↑,up,↑,0.5155551000498235,True,32,0
JP-M-23M23S2,619,experiment,72,↓,down,↓,0.5586338000139222,True,32,1
JP-M-23M23S2,620,experiment,102,↑,down,↓,0.6300865999655798,False,32,1
JP-M-23M23S2,621,experiment,88,→,right,→,0.5590078999521211,True,32,1
JP-M-23M23S2,622,experiment,90,↑,up,↑,0.4905655999900773,True,32,1
JP-M-23M23S2,623,experiment,58,↑,up,↑,0.49932750000152737,True,32,1
JP-M-23M23S2,624,experiment,73,↑,up,↑,0.6386425999226049,True,32,1
JP-M-23M23S2,625,experiment,105,↓,down,↓,0.681679500034079,True,32,1
JP-M-23M23S2,626,experiment,77,→,right,→,0.48434580001048744,True,32,1
JP-M-23M23S2,627,experiment,74,↓,down,↓,0.6560796999838203,True,32,1
JP-M-23M23S2,628,experiment,84,→,right,→,0.4418623000383377,True,32,1
JP-M-23M23S2,629,experiment,87,↓,down,↓,0.6026894999668002,True,32,1
JP-M-23M23S2,630,experiment,93,↑,up,↑,0.7232205999316648,True,32,1
JP-M-23M23S2,631,experiment,104,→,right,→,0.5153471999801695,True,32,1
JP-M-23M23S2,632,experiment,86,↑,up,↑,0.7376588999759406,True,32,1
JP-M-23M23S2,633,experiment,48,↓,down,↓,0.6197415000060573,True,32,1
JP-M-23M23S2,634,experiment,108,→,right,→,0.6224950000178069,True,32,1
JP-M-23M23S2,635,experiment,81,↓,down,↓,0.5140852000331506,True,32,1
JP-M-23M23S2,636,experiment,101,↑,up,↑,0.6036201999522746,True,32,1
JP-M-23M23S2,637,experiment,57,↑,up,↑,0.4882025000406429,True,32,1
JP-M-23M23S2,638,experiment,49,→,right,→,0.6599041000008583,True,32,1
JP-M-23M23S2,639,experiment,54,↓,down,↓,0.8952236999757588,True,32,1
JP-M-23M23S2,640,experiment,55,←,left,←,0.5124980000546202,True,32,1
JP-M-23M23S2,641,experiment,50,↓,down,↓,0.7149545999709517,True,32,1
JP-M-23M23S2,642,experiment,76,←,left,←,0.3844280999619514,True,32,1
JP-M-23M23S2,643,experiment,92,↓,down,↓,0.5982616000110283,True,32,1
JP-M-23M23S2,644,experiment,61,↑,up,↑,0.5374909000238404,True,32,1
JP-M-23M23S2,645,experiment,83,↓,down,↓,0.5838933000341058,True,32,1
JP-M-23M23S2,646,experiment,99,←,left,←,0.39244139997754246,True,32,1
JP-M-23M23S2,647,experiment,67,↑,up,↑,0.4886800000676885,True,32,0
JP-M-23M23S2,648,experiment,59,↑,up,↑,0.41046949999872595,True,32,1
JP-M-23M23S2,649,experiment,94,→,right,→,0.6724893000209704,True,32,0
JP-M-23M23S2,650,experiment,96,←,left,←,0.3754954000469297,True,32,1
JP-M-23M23S2,651,experiment,69,→,right,→,0.6626575000118464,True,32,0
JP-M-23M23S2,652,experiment,60,←,left,←,0.4796455999603495,True,32,1
JP-M-23M23S2,653,experiment,52,↑,up,↑,0.7071590999839827,True,32,1
JP-M-23M23S2,654,experiment,79,↓,down,↓,0.667890099924989,True,32,1
JP-M-23M23S2,655,experiment,51,→,right,→,0.48782469995785505,True,32,1
JP-M-23M23S2,656,experiment,95,→,right,→,0.7647765000583604,True,32,1
JP-M-23M23S2,657,experiment,100,→,right,→,0.47630690003279597,True,32,1
JP-M-23M23S2,658,experiment,80,→,no_key,no_letter,-1.0,False,32,1
JP-M-23M23S2,659,experiment,65,←,left,←,0.5149350999854505,True,32,1
JP-M-23M23S2,660,experiment,106,←,left,←,0.4096321000251919,True,32,1
JP-M-23M23S2,661,experiment,107,←,left,←,0.5820090000052005,True,32,0
JP-M-23M23S2,662,experiment,78,↑,up,↑,0.7005866001127288,True,32,1
JP-M-23M23S2,663,experiment,53,→,left,←,0.6145737000042573,False,32,1
JP-M-23M23S2,664,experiment,70,↓,down,↓,0.6302376000676304,True,32,1
JP-M-23M23S2,665,experiment,56,→,right,→,0.4580765999853611,True,32,1
JP-M-23M23S2,666,experiment,71,↓,down,↓,0.5197527999989688,True,32,1
JP-M-23M23S2,667,experiment,64,→,left,←,0.5330132000381127,False,32,1
JP-M-23M23S2,668,experiment,85,↓,down,↓,0.707206999999471,True,32,1
JP-M-23M23S2,669,experiment,62,→,right,→,0.6263598999939859,True,32,1
JP-M-23M23S2,670,experiment,98,←,left,←,0.4094784000189975,True,32,1
JP-M-23M23S2,671,training,88,←,left,←,0.5682309999829158,True,31,0
JP-M-23M23S2,672,training,74,↑,up,↑,0.5045046999584883,True,31,1
JP-M-23M23S2,673,experiment,64,←,left,←,0.47855370002798736,True,31,1
JP-M-23M23S2,674,experiment,80,←,left,←,0.4327870999695733,True,31,1
JP-M-23M23S2,675,experiment,67,↑,no_key,no_letter,-1.0,False,31,1
JP-M-23M23S2,676,experiment,107,↓,down,↓,0.7355974999954924,True,31,1
JP-M-23M23S2,677,experiment,94,←,left,←,0.4587325000902638,True,31,1
JP-M-23M23S2,678,experiment,50,←,left,←,0.4317340000998229,True,31,1
JP-M-23M23S2,679,experiment,58,↓,down,↓,0.7228235999355093,True,31,1
JP-M-23M23S2,680,experiment,61,→,right,→,0.4412215000484139,True,31,1
JP-M-23M23S2,681,experiment,62,←,left,←,0.8423251999774948,True,31,1
JP-M-23M23S2,682,experiment,59,→,right,→,0.5968241000082344,True,31,1
JP-M-23M23S2,683,experiment,89,↑,up,↑,0.47873789991717786,True,31,1
JP-M-23M23S2,684,experiment,102,↑,up,↑,0.5454356999834999,True,31,1
JP-M-23M23S2,685,experiment,53,↓,right,→,0.8577947000740096,False,31,1
JP-M-23M23S2,686,experiment,75,↑,up,↑,0.7258943999186158,True,31,1
JP-M-23M23S2,687,experiment,96,←,left,←,0.4488744999980554,True,31,1
JP-M-23M23S2,688,experiment,77,→,right,→,0.6527564000571147,True,31,1
JP-M-23M23S2,689,experiment,103,↑,up,↑,0.6320451999781653,True,31,1
JP-M-23M23S2,690,experiment,82,↑,up,↑,0.5952346000121906,True,31,1
JP-M-23M23S2,691,experiment,60,↓,down,↓,0.5430873999139294,True,31,1
JP-M-23M23S2,692,experiment,56,↓,down,↓,0.6144936000928283,True,31,1
JP-M-23M23S2,693,experiment,57,↓,down,↓,0.514785600011237,True,31,1
JP-M-23M23S2,694,experiment,71,→,right,→,0.6138380001066253,True,31,1
JP-M-23M23S2,695,experiment,105,↑,up,↑,0.5540279999841005,True,31,1
JP-M-23M23S2,696,experiment,83,→,right,→,0.5279994000447914,True,31,1
JP-M-23M23S2,697,experiment,78,←,left,←,0.4883459999691695,True,31,1
JP-M-23M23S2,698,experiment,101,↓,down,↓,0.6267877001082525,True,31,1
JP-M-23M23S2,699,experiment,93,↓,down,↓,0.5622914000414312,True,31,1
JP-M-23M23S2,700,experiment,73,↑,up,↑,0.5393020999617875,True,31,1
JP-M-23M23S2,701,experiment,104,←,left,←,0.5466097999596968,True,31,1
JP-M-23M23S2,702,experiment,68,↑,left,←,0.9335346000734717,False,31,1
JP-M-23M23S2,703,experiment,76,←,left,←,0.5506425000494346,True,31,1
JP-M-23M23S2,704,experiment,66,↓,down,↓,0.49831069994252175,True,31,1
JP-M-23M23S2,705,experiment,106,←,left,←,0.44272489997092634,True,31,1
JP-M-23M23S2,706,experiment,63,↓,down,↓,0.5554422999266535,True,31,1
JP-M-23M23S2,707,experiment,95,←,left,←,0.3754890999989584,True,31,1
JP-M-23M23S2,708,experiment,99,→,right,→,0.6284622999373823,True,31,0
JP-M-23M23S2,709,experiment,100,→,right,→,0.42717209993861616,True,31,1
JP-M-23M23S2,710,experiment,48,↑,up,↑,0.712014100048691,True,31,0
JP-M-23M23S2,711,experiment,86,↑,up,↑,0.5586961000226438,True,31,1
JP-M-23M23S2,712,experiment,54,↑,up,↑,0.5102998999645934,True,31,1
JP-M-23M23S2,713,experiment,87,↑,up,↑,0.46047859999816865,True,31,1
JP-M-23M23S2,714,experiment,52,↓,down,↓,0.5767906999681145,True,31,1
JP-M-23M23S2,715,experiment,74,←,left,←,0.3429048000834882,True,31,1
JP-M-23M23S2,716,experiment,55,↑,up,↑,0.46427869994658977,True,31,1
JP-M-23M23S2,717,experiment,98,↓,down,↓,0.7405021000886336,True,31,1
JP-M-23M23S2,718,experiment,108,↓,down,↓,0.5065822000615299,True,31,1
JP-M-23M23S2,719,experiment,90,↑,up,↑,0.43205599999055266,True,31,1
JP-M-23M23S2,720,experiment,69,→,right,→,0.6555150999920443,True,31,1
JP-M-23M23S2,721,experiment,79,←,left,←,0.5625197000335902,True,31,1
JP-M-23M23S2,722,experiment,65,↑,up,↑,0.6061332999961451,True,31,1
JP-M-23M23S2,723,experiment,92,←,left,←,0.7266860000090674,True,31,1
JP-M-23M23S2,724,experiment,85,↑,up,↑,0.5889396000420675,True,31,1
JP-M-23M23S2,725,experiment,72,↑,up,↑,0.6849958000238985,True,31,1
JP-M-23M23S2,726,experiment,84,↓,down,↓,0.5494032999267802,True,31,1
JP-M-23M23S2,727,experiment,51,→,right,→,0.7021667999215424,True,31,1
JP-M-23M23S2,728,experiment,70,→,right,→,0.8186382000567392,True,31,1
JP-M-23M23S2,729,experiment,97,↓,down,↓,0.6731583999935538,True,31,1
JP-M-23M23S2,730,experiment,81,→,right,→,0.7230851999484003,True,31,1
JP-M-23M23S2,731,experiment,91,↓,down,↓,0.48742060002405196,True,31,1
JP-M-23M23S2,732,experiment,49,↓,down,↓,0.4435405000112951,True,31,1
JP-M-23M23S2,733,experiment,88,←,left,←,0.6120238000294194,True,31,1
JP-M-23M23S2,734,training,84,→,right,→,0.6888487000251189,True,30,0
JP-M-23M23S2,735,training,70,←,left,←,0.5906141999876127,True,30,1
JP-M-23M23S2,736,experiment,74,←,left,←,0.5170472000027075,True,30,1
JP-M-23M23S2,737,experiment,68,→,right,→,1.1853786000283435,True,30,1
JP-M-23M23S2,738,experiment,85,→,right,→,0.6215323000214994,True,30,1
JP-M-23M23S2,739,experiment,86,↓,right,→,0.8636133000254631,False,30,1
JP-M-23M23S2,740,experiment,61,↑,up,↑,0.5763399999123067,True,30,1
JP-M-23M23S2,741,experiment,96,←,left,←,0.48103469994384795,True,30,1
JP-M-23M23S2,742,experiment,48,↓,right,→,0.9094319000141695,False,30,1
JP-M-23M23S2,743,experiment,77,→,right,→,0.5111241999547929,True,30,1
JP-M-23M23S2,744,experiment,87,↑,up,↑,0.677336199907586,True,30,1
JP-M-23M23S2,745,experiment,72,↑,down,↓,0.6661949999397621,False,30,1
JP-M-23M23S2,746,experiment,101,↓,down,↓,0.5976019001100212,True,30,1
JP-M-23M23S2,747,experiment,100,↓,down,↓,0.45990150002762675,True,30,1
JP-M-23M23S2,748,experiment,56,←,left,←,0.6222698999335989,True,30,1
JP-M-23M23S2,749,experiment,70,→,right,→,0.4936203999677673,True,30,1
JP-M-23M23S2,750,experiment,91,↑,up,↑,0.499358500004746,True,30,1
JP-M-23M23S2,751,experiment,84,→,right,→,0.7153308999259025,True,30,1
JP-M-23M23S2,752,experiment,53,↓,down,↓,0.6286693000001833,True,30,1
JP-M-23M23S2,753,experiment,81,→,left,←,0.5519493999890983,False,30,1
JP-M-23M23S2,754,experiment,89,←,left,←,0.6837752000428736,True,30,1
JP-M-23M23S2,755,experiment,75,↓,down,↓,0.5510746999643743,True,30,1
JP-M-23M23S2,756,experiment,79,←,left,←,0.4626189999980852,True,30,1
JP-M-23M23S2,757,experiment,103,↑,up,↑,0.48927449993789196,True,30,1
JP-M-23M23S2,758,experiment,90,↓,down,↓,0.655380200012587,True,30,1
JP-M-23M23S2,759,experiment,78,←,left,←,0.49886910000350326,True,30,1
JP-M-23M23S2,760,experiment,97,→,right,→,0.4459126000292599,True,30,1
JP-M-23M23S2,761,experiment,105,→,right,→,0.5690100999781862,True,30,1
JP-M-23M23S2,762,experiment,63,↓,down,↓,0.6211123000830412,True,30,1
JP-M-23M23S2,763,experiment,82,→,right,→,0.6645182000938803,True,30,1
JP-M-23M23S2,764,experiment,80,↑,up,↑,0.6268839000258595,True,30,1
JP-M-23M23S2,765,experiment,59,↓,down,↓,0.461939699947834,True,30,1
JP-M-23M23S2,766,experiment,64,↑,up,↑,0.4300776000600308,True,30,1
JP-M-23M23S2,767,experiment,50,←,left,←,0.715456600068137,True,30,1
JP-M-23M23S2,768,experiment,58,↑,up,↑,0.4198554999893531,True,30,1
JP-M-23M23S2,769,experiment,92,↓,down,↓,0.6511532000731677,True,30,1
JP-M-23M23S2,770,experiment,66,←,left,←,0.6111308999825269,True,30,1
JP-M-23M23S2,771,experiment,106,←,left,←,0.49517089989967644,True,30,1
JP-M-23M23S2,772,experiment,88,↓,down,↓,0.5895779000129551,True,30,1
JP-M-23M23S2,773,experiment,60,↓,down,↓,0.5380135000450537,True,30,1
JP-M-23M23S2,774,experiment,83,←,left,←,0.6319906999124214,True,30,1
JP-M-23M23S2,775,experiment,51,→,right,→,0.6054681999376044,True,30,1
JP-M-23M23S2,776,experiment,93,←,left,←,0.6135881000664085,True,30,1
JP-M-23M23S2,777,experiment,95,←,left,←,0.5570707999868318,True,30,1
JP-M-23M23S2,778,experiment,104,↓,down,↓,0.5638296999968588,True,30,1
JP-M-23M23S2,779,experiment,108,←,left,←,0.6411290999967605,True,30,1
JP-M-23M23S2,780,experiment,71,←,left,←,0.47126180003397167,True,30,1
JP-M-23M23S2,781,experiment,49,↓,down,↓,0.6995805000187829,True,30,1
JP-M-23M23S2,782,experiment,69,↑,down,↓,0.7924366999650374,False,30,1
JP-M-23M23S2,783,experiment,57,↓,down,↓,0.5175981000065804,True,30,1
JP-M-23M23S2,784,experiment,94,↑,down,↓,0.457206999999471,False,30,1
JP-M-23M23S2,785,experiment,54,↓,down,↓,0.4214395999442786,True,30,1
JP-M-23M23S2,786,experiment,99,→,right,→,0.5943362000398338,True,30,1
JP-M-23M23S2,787,experiment,65,←,left,←,0.46863689995370805,True,30,1
JP-M-23M23S2,788,experiment,76,↓,down,↓,0.4322193000698462,True,30,1
JP-M-23M23S2,789,experiment,52,←,left,←,0.6372768000001088,True,30,1
JP-M-23M23S2,790,experiment,62,←,left,←,0.7990292999893427,True,30,1
JP-M-23M23S2,791,experiment,98,→,right,→,0.7261323001002893,True,30,1
JP-M-23M23S2,792,experiment,55,↑,down,↓,0.6785756999161094,False,30,1
JP-M-23M23S2,793,experiment,107,↓,down,↓,0.5035050000296906,True,30,1
JP-M-23M23S2,794,experiment,67,←,left,←,0.8125866999616846,True,30,1
JP-M-23M23S2,795,experiment,102,↑,up,↑,0.5695755999768153,True,30,1
JP-M-23M23S2,796,experiment,73,→,right,→,0.6982895999681205,True,30,1
JP-M-23M23S2,797,training,94,←,left,←,0.6592224000487477,True,30,0
JP-M-23M23S2,798,training,91,→,right,→,0.4822546999203041,True,30,1
JP-M-23M23S2,799,experiment,93,↓,down,↓,0.5598175999475643,True,30,1
JP-M-23M23S2,800,experiment,80,→,right,→,0.6784841999178752,True,30,1
JP-M-23M23S2,801,experiment,102,→,left,←,0.6173169000539929,False,30,1
JP-M-23M23S2,802,experiment,108,←,left,←,0.7721253000199795,True,30,1
JP-M-23M23S2,803,experiment,107,←,left,←,0.49723679991438985,True,30,1
JP-M-23M23S2,804,experiment,52,→,right,→,0.8514941000612453,True,30,1
JP-M-23M23S2,805,experiment,75,→,right,→,0.5373296999605373,True,30,1
JP-M-23M23S2,806,experiment,85,↑,up,↑,0.5578732000431046,True,30,1
JP-M-23M23S2,807,experiment,83,↓,down,↓,0.6837808999698609,True,30,1
JP-M-23M23S2,808,experiment,103,→,right,→,0.7098295000614598,True,30,1
JP-M-23M23S2,809,experiment,86,↑,up,↑,0.5886085999663919,True,30,1
JP-M-23M23S2,810,experiment,58,↑,right,→,0.7212429000064731,False,30,1
JP-M-23M23S2,811,experiment,63,↑,up,↑,0.45516599994152784,True,30,1
JP-M-23M23S2,812,experiment,92,←,left,←,0.5741403000429273,True,30,1
JP-M-23M23S2,813,experiment,56,↑,up,↑,0.6201936000725254,True,30,1
JP-M-23M23S2,814,experiment,84,↑,up,↑,0.5830456999829039,True,30,1
JP-M-23M23S2,815,experiment,106,←,left,←,0.780246099922806,True,30,1
JP-M-23M23S2,816,experiment,57,↑,up,↑,0.5374520000768825,True,30,1
JP-M-23M23S2,817,experiment,48,↓,down,↓,0.5396277999971062,True,30,1
JP-M-23M23S2,818,experiment,98,↑,up,↑,0.42172689992003143,True,30,1
JP-M-23M23S2,819,experiment,99,←,left,←,0.5949040999403223,True,30,1
JP-M-23M23S2,820,experiment,78,→,right,→,0.6407022000057623,True,30,1
JP-M-23M23S2,821,experiment,69,→,right,→,0.6798002999275923,True,30,1
JP-M-23M23S2,822,experiment,82,↑,right,→,0.6172601999714971,False,30,1
JP-M-23M23S2,823,experiment,95,↓,down,↓,0.6802394000114873,True,30,1
JP-M-23M23S2,824,experiment,64,→,right,→,0.5516680999426171,True,30,1
JP-M-23M23S2,825,experiment,100,←,right,→,0.6319769999245182,False,30,1
JP-M-23M23S2,826,experiment,105,↓,down,↓,0.514979200088419,True,30,1
JP-M-23M23S2,827,experiment,61,↓,down,↓,0.5218594000907615,True,30,1
JP-M-23M23S2,828,experiment,94,→,left,←,0.7012068000622094,False,30,1
JP-M-23M23S2,829,experiment,73,↓,down,↓,0.6404440000187606,True,30,1
JP-M-23M23S2,830,experiment,62,↓,down,↓,0.47405600000638515,True,30,1
JP-M-23M23S2,831,experiment,70,→,right,→,0.519434200017713,True,30,1
JP-M-23M23S2,832,experiment,72,←,left,←,0.6745822998927906,True,30,1
JP-M-23M23S2,833,experiment,54,→,right,→,0.6131707999156788,True,30,1
JP-M-23M23S2,834,experiment,97,←,left,←,0.5078280000016093,True,30,1
JP-M-23M23S2,835,experiment,71,↓,down,↓,0.4557376999873668,True,30,1
JP-M-23M23S2,836,experiment,76,↓,down,↓,0.41991549998056144,True,30,1
JP-M-23M23S2,837,experiment,90,↓,down,↓,0.38419040001463145,True,30,0
JP-M-23M23S2,838,experiment,60,→,right,→,0.5445346999913454,True,30,1
JP-M-23M23S2,839,experiment,49,→,right,→,0.7543704999843612,True,30,1
JP-M-23M23S2,840,experiment,59,↓,down,↓,0.6164512999821454,True,30,1
JP-M-23M23S2,841,experiment,96,↓,down,↓,0.439307100023143,True,30,1
JP-M-23M23S2,842,experiment,67,↓,down,↓,0.6068056999938563,True,30,1
JP-M-23M23S2,843,experiment,68,↓,down,↓,0.5836682999506593,True,30,1
JP-M-23M23S2,844,experiment,81,↑,up,↑,0.49309720005840063,True,30,1
JP-M-23M23S2,845,experiment,89,↑,up,↑,0.4277840000577271,True,30,1
JP-M-23M23S2,846,experiment,66,→,left,←,0.8358247000724077,False,30,1
JP-M-23M23S2,847,experiment,74,←,left,←,0.6257276000687853,True,30,1
JP-M-23M23S2,848,experiment,88,↓,down,↓,0.6749749999726191,True,30,1
JP-M-23M23S2,849,experiment,87,→,right,→,0.5707630000542849,True,30,1
JP-M-23M23S2,850,experiment,101,↑,down,↓,0.5214954999973997,False,30,1
JP-M-23M23S2,851,experiment,51,↑,down,↓,0.531485200044699,False,30,1
JP-M-23M23S2,852,experiment,104,←,left,←,0.5791154999751598,True,30,1
JP-M-23M23S2,853,experiment,79,←,left,←,0.7695852998876944,True,30,1
JP-M-23M23S2,854,experiment,53,↑,up,↑,0.56856019992847,True,30,1
JP-M-23M23S2,855,experiment,55,↑,up,↑,0.6313581999856979,True,30,1
JP-M-23M23S2,856,experiment,65,↓,down,↓,0.5360923000844195,True,30,1
JP-M-23M23S2,857,experiment,50,↑,down,↓,0.6815471999580041,False,30,1
JP-M-23M23S2,858,experiment,91,←,left,←,0.7675046999938786,True,30,1
JP-M-23M23S2,859,experiment,77,←,left,←,0.4870110999327153,True,30,1
JP-M-23M23S2,860,training,75,→,right,→,1.6405024999985471,True,30,0
JP-M-23M23S2,861,training,78,↑,up,↑,0.5643087000353262,True,30,1
JP-M-23M23S2,862,experiment,68,←,left,←,0.5747484999010339,True,30,1
JP-M-23M23S2,863,experiment,87,→,right,→,1.162463799933903,True,30,1
JP-M-23M23S2,864,experiment,108,→,left,←,0.6157151000807062,False,30,1
JP-M-23M23S2,865,experiment,71,↓,left,←,0.599317800020799,False,30,1
JP-M-23M23S2,866,experiment,79,→,right,→,0.5803926000371575,True,30,1
JP-M-23M23S2,867,experiment,107,→,right,→,0.7292323999572545,True,30,1
JP-M-23M23S2,868,experiment,91,↑,right,→,0.8450270000612363,False,30,1
JP-M-23M23S2,869,experiment,69,→,left,←,0.9319247999228537,False,30,1
JP-M-23M23S2,870,experiment,100,←,left,←,0.7088377999607474,True,30,1
JP-M-23M23S2,871,experiment,81,→,right,→,0.6134669999592006,True,30,1
JP-M-23M23S2,872,experiment,94,←,left,←,0.5970611999509856,True,30,1
JP-M-23M23S2,873,experiment,62,→,right,→,0.5601121999789029,True,30,1
JP-M-23M23S2,874,experiment,95,↑,up,↑,0.5938452000264078,True,30,1
JP-M-23M23S2,875,experiment,50,←,left,←,0.6008451000088826,True,30,1
JP-M-23M23S2,876,experiment,105,→,left,←,0.6534676000010222,False,30,1
JP-M-23M23S2,877,experiment,70,→,right,→,0.5162389999022707,True,30,1
JP-M-23M23S2,878,experiment,57,↓,down,↓,0.6041178000159562,True,30,1
JP-M-23M23S2,879,experiment,66,↓,no_key,no_letter,-1.0,False,30,1
JP-M-23M23S2,880,experiment,51,↓,down,↓,0.5596758000319824,True,30,1
JP-M-23M23S2,881,experiment,96,←,left,←,0.632949799997732,True,30,1
JP-M-23M23S2,882,experiment,101,↑,down,↓,0.7017451000865549,False,30,1
JP-M-23M23S2,883,experiment,98,←,left,←,0.7927912999875844,True,30,1
JP-M-23M23S2,884,experiment,88,↑,up,↑,0.6275000999448821,True,30,1
JP-M-23M23S2,885,experiment,99,↑,up,↑,0.4256840000161901,True,30,1
JP-M-23M23S2,886,experiment,97,↑,up,↑,0.40119600004982203,True,30,0
JP-M-23M23S2,887,experiment,86,←,left,←,0.6422176000196487,True,30,1
JP-M-23M23S2,888,experiment,103,↑,up,↑,0.5180247999960557,True,30,1
JP-M-23M23S2,889,experiment,90,↓,down,↓,0.3922174999024719,True,30,1
JP-M-23M23S2,890,experiment,77,↑,down,↓,0.5771833000471815,False,30,0
JP-M-23M23S2,891,experiment,61,→,right,→,0.5494054000591859,True,30,1
JP-M-23M23S2,892,experiment,73,←,left,←,0.623267799965106,True,30,1
JP-M-23M23S2,893,experiment,55,→,left,←,0.6912362000439316,False,30,1
JP-M-23M23S2,894,experiment,48,↓,down,↓,0.47136139997746795,True,30,1
JP-M-23M23S2,895,experiment,67,↓,down,↓,0.5660815000301227,True,30,1
JP-M-23M23S2,896,experiment,64,←,left,←,0.5058649000711739,True,30,1
JP-M-23M23S2,897,experiment,59,→,right,→,0.6019235999556258,True,30,1
JP-M-23M23S2,898,experiment,93,←,left,←,0.6264112999197096,True,30,1
JP-M-23M23S2,899,experiment,54,←,left,←,0.6071219999575987,True,30,1
JP-M-23M23S2,900,experiment,102,↑,up,↑,0.46837019990198314,True,30,1
JP-M-23M23S2,901,experiment,53,→,left,←,0.7278612999944016,False,30,1
JP-M-23M23S2,902,experiment,85,→,right,→,0.5583908999105915,True,30,1
JP-M-23M23S2,903,experiment,58,↑,right,→,0.9004475000547245,False,30,1
JP-M-23M23S2,904,experiment,104,→,right,→,0.5495022999821231,True,30,1
JP-M-23M23S2,905,experiment,89,↓,down,↓,0.4895701000932604,True,30,1
JP-M-23M23S2,906,experiment,65,↓,down,↓,0.4638949999352917,True,30,1
JP-M-23M23S2,907,experiment,63,↓,down,↓,0.6639365999726579,True,30,1
JP-M-23M23S2,908,experiment,76,↓,down,↓,0.5556662000017241,True,30,1
JP-M-23M23S2,909,experiment,84,←,left,←,0.5851784000406042,True,30,1
JP-M-23M23S2,910,experiment,60,↑,up,↑,0.5334257000358775,True,30,1
JP-M-23M23S2,911,experiment,74,↑,up,↑,0.45507189992349595,True,30,1
JP-M-23M23S2,912,experiment,80,↓,down,↓,0.49797849997412413,True,30,1
JP-M-23M23S2,913,experiment,82,↑,up,↑,0.5063105000881478,True,30,1
JP-M-23M23S2,914,experiment,72,↑,up,↑,0.42987419990822673,True,30,1
JP-M-23M23S2,915,experiment,49,→,right,→,0.7160268999869004,True,30,1
JP-M-23M23S2,916,experiment,56,→,right,→,0.5562635998940095,True,30,1
JP-M-23M23S2,917,experiment,83,→,right,→,0.7620434000855312,True,30,1
JP-M-23M23S2,918,experiment,92,←,left,←,0.5083361000288278,True,30,1
JP-M-23M23S2,919,experiment,75,↑,down,↓,0.7827402000548318,False,30,1
JP-M-23M23S2,920,experiment,106,↑,down,↓,0.6116392000112683,False,30,1
JP-M-23M23S2,921,experiment,52,↑,down,↓,0.5855868000071496,False,30,1
JP-M-23M23S2,922,experiment,78,↓,down,↓,0.5600753000471741,True,30,1
JP-M-23M23S2,923,training,103,↓,down,↓,0.4391748000634834,True,30,0
JP-M-23M23S2,924,training,94,↓,no_key,no_letter,-1.0,False,30,1
JP-M-23M23S2,925,experiment,104,↑,up,↑,0.4305515999440104,True,30,1
JP-M-23M23S2,926,experiment,80,↑,up,↑,0.36717260000295937,True,30,1
JP-M-23M23S2,927,experiment,85,←,left,←,0.5823719999752939,True,30,0
JP-M-23M23S2,928,experiment,67,←,left,←,0.520405700081028,True,30,1
JP-M-23M23S2,929,experiment,57,→,left,←,0.4012573999352753,False,30,1
JP-M-23M23S2,930,experiment,69,→,right,→,0.7207775000715628,True,30,0
JP-M-23M23S2,931,experiment,96,↓,down,↓,0.5316869999514893,True,30,1
JP-M-23M23S2,932,experiment,93,↓,down,↓,0.42328300001099706,True,30,1
JP-M-23M23S2,933,experiment,48,→,right,→,0.66173529997468,True,30,1
JP-M-23M23S2,934,experiment,87,→,right,→,0.7662922000745311,True,30,1
JP-M-23M23S2,935,experiment,65,↑,up,↑,0.713637699955143,True,30,1
JP-M-23M23S2,936,experiment,102,↓,down,↓,0.4985246999422088,True,30,1
JP-M-23M23S2,937,experiment,91,↓,no_key,no_letter,-1.0,False,30,1
JP-M-23M23S2,938,experiment,92,→,right,→,0.7321590000065044,True,30,1
JP-M-23M23S2,939,experiment,73,↑,up,↑,0.43033509992528707,True,30,1
JP-M-23M23S2,940,experiment,86,↑,no_key,no_letter,-1.0,False,30,1
JP-M-23M23S2,941,experiment,83,↓,down,↓,0.431398699991405,True,30,1
JP-M-23M23S2,942,experiment,101,←,left,←,0.6032735999906436,True,30,1
JP-M-23M23S2,943,experiment,70,↓,down,↓,0.555883500026539,True,30,1
JP-M-23M23S2,944,experiment,99,←,left,←,0.48425720003433526,True,30,1
JP-M-23M23S2,945,experiment,68,↑,up,↑,0.5621236000442877,True,30,1
JP-M-23M23S2,946,experiment,64,→,right,→,0.7338267000159249,True,30,1
JP-M-23M23S2,947,experiment,72,←,left,←,0.5762653000419959,True,30,1
JP-M-23M23S2,948,experiment,82,↑,left,←,0.6535634000319988,False,30,1
JP-M-23M23S2,949,experiment,89,←,left,←,0.4614450999069959,True,30,1
JP-M-23M23S2,950,experiment,74,→,right,→,0.578265400021337,True,30,1
JP-M-23M23S2,951,experiment,71,↑,up,↑,0.7471552999923006,True,30,1
JP-M-23M23S2,952,experiment,77,→,right,→,0.7070517999818549,True,30,1
JP-M-23M23S2,953,experiment,103,→,right,→,0.5398673999588937,True,30,1
JP-M-23M23S2,954,experiment,66,↑,right,→,0.5929896000307053,False,30,1
JP-M-23M23S2,955,experiment,88,←,left,←,0.8188162000151351,True,30,1
JP-M-23M23S2,956,experiment,62,↑,up,↑,0.4692277000285685,True,30,1
JP-M-23M23S2,957,experiment,52,←,left,←,0.6011753999628127,True,30,1
JP-M-23M23S2,958,experiment,51,↑,up,↑,0.44772669998928905,True,30,1
JP-M-23M23S2,959,experiment,100,↑,up,↑,0.540301000000909,True,30,1
JP-M-23M23S2,960,experiment,56,→,right,→,0.9717506000306457,True,30,1
JP-M-23M23S2,961,experiment,98,↑,up,↑,0.6676377999829128,True,30,1
JP-M-23M23S2,962,experiment,90,←,left,←,0.5066463999683037,True,30,1
JP-M-23M23S2,963,experiment,81,↑,up,↑,0.42759450001176447,True,30,1
JP-M-23M23S2,964,experiment,79,→,right,→,0.4872948999982327,True,30,1
JP-M-23M23S2,965,experiment,60,↓,down,↓,0.45558309997431934,True,30,1
JP-M-23M23S2,966,experiment,50,↓,down,↓,0.4361277000280097,True,30,1
JP-M-23M23S2,967,experiment,84,↓,down,↓,0.35956359992269427,True,30,1
JP-M-23M23S2,968,experiment,76,↑,down,↓,0.3430491000181064,False,30,1
JP-M-23M23S2,969,experiment,78,→,left,←,0.5738830000627786,False,30,0
JP-M-23M23S2,970,experiment,94,→,right,→,0.48726750002242625,True,30,1
JP-M-23M23S2,971,experiment,53,↓,down,↓,0.4416734999977052,True,30,1
JP-M-23M23S2,972,experiment,97,←,left,←,0.5754527000244707,True,30,1
JP-M-23M23S2,973,experiment,58,→,right,→,0.6608948999783024,True,30,1
JP-M-23M23S2,974,experiment,106,↑,up,↑,0.5749188000336289,True,30,1
JP-M-23M23S2,975,experiment,61,←,left,←,0.635203400044702,True,30,1
JP-M-23M23S2,976,experiment,59,↑,up,↑,0.49406910000834614,True,30,1
JP-M-23M23S2,977,experiment,108,↑,up,↑,1.2461137999780476,True,30,1
JP-M-23M23S2,978,experiment,107,←,left,←,0.48006649990566075,True,30,1
JP-M-23M23S2,979,experiment,49,←,left,←,0.5481060000602156,True,30,1
JP-M-23M23S2,980,experiment,55,→,right,→,0.5155494000064209,True,30,1
JP-M-23M23S2,981,experiment,95,→,right,→,0.6229471999686211,True,30,1
JP-M-23M23S2,982,experiment,63,↓,down,↓,0.6406101000029594,True,30,1
JP-M-23M23S2,983,experiment,105,←,no_key,no_letter,-1.0,False,30,1
JP-M-23M23S2,984,experiment,75,←,no_key,no_letter,-1.0,False,30,1
JP-M-23M23S2,985,experiment,54,↓,down,↓,0.5904262999538332,True,30,1
JP-M-23M23S2,986,training,98,↓,down,↓,0.5229290000861511,True,30,0
JP-M-23M23S2,987,training,89,↑,up,↑,0.5680914000840858,True,30,1
JP-M-23M23S2,988,experiment,88,→,right,→,0.5957679999992251,True,30,1
JP-M-23M23S2,989,experiment,97,→,right,→,0.49893050000537187,True,30,1
JP-M-23M23S2,990,experiment,75,↑,up,↑,0.5340444000903517,True,30,1
JP-M-23M23S2,991,experiment,71,→,right,→,0.4885407999390736,True,30,1
JP-M-23M23S2,992,experiment,79,→,right,→,0.49042759998701513,True,30,1
JP-M-23M23S2,993,experiment,68,↓,right,→,0.5278390999883413,False,30,1
JP-M-23M23S2,994,experiment,83,↑,up,↑,0.5508267000550404,True,30,1
JP-M-23M23S2,995,experiment,53,↑,up,↑,0.5187809000490233,True,30,1
JP-M-23M23S2,996,experiment,80,↓,down,↓,0.6634644999867305,True,30,1
JP-M-23M23S2,997,experiment,69,→,right,→,0.4296709999907762,True,30,1
JP-M-23M23S2,998,experiment,89,↓,down,↓,0.5259781000204384,True,30,1
JP-M-23M23S2,999,experiment,63,←,right,→,0.523844699957408,False,30,1
JP-M-23M23S2,1000,experiment,51,↓,down,↓,0.45354730007238686,True,30,1
JP-M-23M23S2,1001,experiment,57,←,no_key,no_letter,-1.0,False,30,1
JP-M-23M23S2,1002,experiment,82,←,left,←,0.5995401999680325,True,30,1
JP-M-23M23S2,1003,experiment,50,↓,down,↓,0.5746602000435814,True,30,1
JP-M-23M23S2,1004,experiment,67,↑,up,↑,0.6171850000973791,True,30,1
JP-M-23M23S2,1005,experiment,58,→,left,←,0.5006853999802843,False,30,1
JP-M-23M23S2,1006,experiment,98,↓,down,↓,0.48784829990472645,True,30,1
JP-M-23M23S2,1007,experiment,105,←,left,←,0.5049297000514343,True,30,1
JP-M-23M23S2,1008,experiment,56,↓,down,↓,0.5938113000011072,True,30,1
JP-M-23M23S2,1009,experiment,78,↑,down,↓,0.6078213999280706,False,30,1
JP-M-23M23S2,1010,experiment,104,↑,down,↓,0.828298700042069,False,30,1
JP-M-23M23S2,1011,experiment,64,→,right,→,0.613699599984102,True,30,1
JP-M-23M23S2,1012,experiment,73,↓,down,↓,0.5645869999425486,True,30,1
JP-M-23M23S2,1013,experiment,93,↓,down,↓,0.4384977000299841,True,30,1
JP-M-23M23S2,1014,experiment,61,↓,down,↓,0.4483126999111846,True,30,1
JP-M-23M23S2,1015,experiment,48,↑,right,→,0.7261793001089245,False,30,1
JP-M-23M23S2,1016,experiment,108,→,right,→,0.4686691000824794,True,30,1
JP-M-23M23S2,1017,experiment,55,↓,down,↓,0.47169630008284,True,30,1
JP-M-23M23S2,1018,experiment,60,←,left,←,0.46424489992205054,True,30,1
JP-M-23M23S2,1019,experiment,106,↓,down,↓,0.5459370000753552,True,30,1
JP-M-23M23S2,1020,experiment,99,↑,down,↓,0.6026887000771239,False,30,1
JP-M-23M23S2,1021,experiment,70,→,left,←,0.5950669000158086,False,30,1
JP-M-23M23S2,1022,experiment,94,↑,up,↑,0.6513604999054223,True,30,1
JP-M-23M23S2,1023,experiment,52,←,left,←,0.7198410999262705,True,30,1
JP-M-23M23S2,1024,experiment,49,←,left,←,0.650537500041537,True,30,1
JP-M-23M23S2,1025,experiment,90,←,left,←,0.6743805999867618,True,30,1
JP-M-23M23S2,1026,experiment,96,↓,down,↓,0.679179499973543,True,30,1
JP-M-23M23S2,1027,experiment,101,←,left,←,0.5776737000560388,True,30,1
JP-M-23M23S2,1028,experiment,95,←,no_key,no_letter,-1.0,False,30,1
JP-M-23M23S2,1029,experiment,102,←,left,←,0.48368659999687225,True,30,1
JP-M-23M23S2,1030,experiment,91,←,left,←,0.5296182000311092,True,30,1
JP-M-23M23S2,1031,experiment,77,↓,down,↓,0.6903784999158233,True,30,1
JP-M-23M23S2,1032,experiment,81,↑,up,↑,0.5874341999879107,True,30,1
JP-M-23M23S2,1033,experiment,76,→,no_key,no_letter,-1.0,False,30,1
JP-M-23M23S2,1034,experiment,74,↓,down,↓,0.5643241000361741,True,30,1
JP-M-23M23S2,1035,experiment,72,←,left,←,0.45345219993032515,True,30,1
JP-M-23M23S2,1036,experiment,107,→,right,→,0.43207650003023446,True,30,1
JP-M-23M23S2,1037,experiment,85,↑,up,↑,0.5772071999963373,True,30,1
JP-M-23M23S2,1038,experiment,92,↑,up,↑,0.6113697000546381,True,30,1
JP-M-23M23S2,1039,experiment,86,→,right,→,0.6140610000584275,True,30,1
JP-M-23M23S2,1040,experiment,87,←,left,←,0.44801479997113347,True,30,1
JP-M-23M23S2,1041,experiment,103,←,left,←,0.45138710003811866,True,30,1
JP-M-23M23S2,1042,experiment,62,→,right,→,0.868476300034672,True,30,1
JP-M-23M23S2,1043,experiment,54,→,right,→,0.5356234000064433,True,30,1
JP-M-23M23S2,1044,experiment,65,↓,down,↓,0.5003442000597715,True,30,1
JP-M-23M23S2,1045,experiment,84,↓,down,↓,0.5560266000684351,True,30,1
JP-M-23M23S2,1046,experiment,66,→,left,←,0.5434424000559375,False,30,1
JP-M-23M23S2,1047,experiment,100,←,left,←,0.7281933000776917,True,30,1
JP-M-23M23S2,1048,experiment,59,→,left,←,0.6312523999949917,False,30,1
JP-M-23M23S2,1049,training,96,↑,left,←,0.7041415999410674,False,30,0
JP-M-23M23S2,1050,training,97,→,right,→,0.4198544000973925,True,30,1
JP-M-23M23S2,1051,experiment,107,↑,up,↑,0.5260974999982864,True,30,0
JP-M-23M23S2,1052,experiment,48,←,left,←,0.48842740000691265,True,30,1
JP-M-23M23S2,1053,experiment,61,↓,down,↓,0.6002769999904558,True,30,1
JP-M-23M23S2,1054,experiment,65,↑,down,↓,0.562586999963969,False,30,1
JP-M-23M23S2,1055,experiment,87,→,right,→,0.670450699981302,True,30,1
JP-M-23M23S2,1056,experiment,60,→,right,→,0.44753300002776086,True,30,1
JP-M-23M23S2,1057,experiment,93,↓,down,↓,0.5182315000565723,True,30,1
JP-M-23M23S2,1058,experiment,75,↑,down,↓,0.6402555999811739,False,30,1
JP-M-23M23S2,1059,experiment,99,←,no_key,no_letter,-1.0,False,30,1
JP-M-23M23S2,1060,experiment,70,←,left,←,0.38589770009275526,True,30,1
JP-M-23M23S2,1061,experiment,62,←,left,←,0.4011335999239236,True,30,0
JP-M-23M23S2,1062,experiment,52,↓,down,↓,0.6579576999647543,True,30,0
JP-M-23M23S2,1063,experiment,54,←,left,←,0.39283549995161593,True,30,1
JP-M-23M23S2,1064,experiment,104,→,right,→,0.4012286000652239,True,30,1
JP-M-23M23S2,1065,experiment,69,↓,down,↓,0.4509226999944076,True,30,1
JP-M-23M23S2,1066,experiment,89,←,left,←,0.45906789996661246,True,30,1
JP-M-23M23S2,1067,experiment,94,→,left,←,0.6729816000442952,False,30,1
JP-M-23M23S2,1068,experiment,57,→,no_key,no_letter,-1.0,False,30,1
JP-M-23M23S2,1069,experiment,79,↑,up,↑,0.627378800068982,True,30,1
JP-M-23M23S2,1070,experiment,50,↑,up,↑,0.5454168000724167,True,30,1
JP-M-23M23S2,1071,experiment,78,↓,down,↓,0.49729189998470247,True,30,1
JP-M-23M23S2,1072,experiment,92,←,left,←,0.5263774999184534,True,30,1
JP-M-23M23S2,1073,experiment,59,←,left,←,0.7093740999698639,True,30,1
JP-M-23M23S2,1074,experiment,98,→,left,←,0.5680246000410989,False,30,1
JP-M-23M23S2,1075,experiment,91,→,right,→,0.4011231999611482,True,30,1
JP-M-23M23S2,1076,experiment,51,→,left,←,0.5452826999826357,False,30,0
JP-M-23M23S2,1077,experiment,82,↓,down,↓,0.5759685999946669,True,30,1
JP-M-23M23S2,1078,experiment,72,←,left,←,0.5928849000483751,True,30,1
JP-M-23M23S2,1079,experiment,90,↓,no_key,no_letter,-1.0,False,30,1
JP-M-23M23S2,1080,experiment,67,→,right,→,0.6312079000053927,True,30,1
JP-M-23M23S2,1081,experiment,83,→,right,→,0.7060167999006808,True,30,1
JP-M-23M23S2,1082,experiment,105,←,left,←,0.47428960003890097,True,30,1
JP-M-23M23S2,1083,experiment,101,←,left,←,0.6053157999413088,True,30,1
JP-M-23M23S2,1084,experiment,49,↑,up,↑,0.6526342000579461,True,30,1
JP-M-23M23S2,1085,experiment,64,→,left,←,0.6124779999954626,False,30,1
JP-M-23M23S2,1086,experiment,84,←,left,←,0.6558241000166163,True,30,1
JP-M-23M23S2,1087,experiment,96,→,right,→,0.5729264001129195,True,30,1
JP-M-23M23S2,1088,experiment,103,→,right,→,0.5152655000565574,True,30,1
JP-M-23M23S2,1089,experiment,77,↓,up,↑,0.8367643000092357,False,30,1
JP-M-23M23S2,1090,experiment,73,↑,up,↑,0.6988497000420466,True,30,1
JP-M-23M23S2,1091,experiment,76,→,right,→,0.5090992999030277,True,30,1
JP-M-23M23S2,1092,experiment,97,→,right,→,0.5041525000706315,True,30,1
JP-M-23M23S2,1093,experiment,88,↑,up,↑,0.622259300085716,True,30,1
JP-M-23M23S2,1094,experiment,55,→,right,→,0.5307394000701606,True,30,1
JP-M-23M23S2,1095,experiment,53,↑,up,↑,0.5795324000064284,True,30,1
JP-M-23M23S2,1096,experiment,102,↓,up,↑,0.6337432999862358,False,30,1
JP-M-23M23S2,1097,experiment,86,→,right,→,0.6114279000321403,True,30,1
JP-M-23M23S2,1098,experiment,81,→,right,→,0.6718985000625253,True,30,1
JP-M-23M23S2,1099,experiment,71,→,right,→,0.6529068999225274,True,30,1
JP-M-23M23S2,1100,experiment,58,↑,up,↑,0.6310330999549478,True,30,1
JP-M-23M23S2,1101,experiment,56,↓,down,↓,0.6267619000282139,True,30,1
JP-M-23M23S2,1102,experiment,108,←,left,←,0.7494818000122905,True,30,1
JP-M-23M23S2,1103,experiment,85,←,left,←,0.49090920004528016,True,30,1
JP-M-23M23S2,1104,experiment,66,↑,up,↑,0.6648533000843599,True,30,1
JP-M-23M23S2,1105,experiment,63,←,left,←,0.5049018000718206,True,30,1
JP-M-23M23S2,1106,experiment,95,←,left,←,0.34193500003311783,True,30,1
JP-M-23M23S2,1107,experiment,68,↓,down,↓,0.6316490999888629,True,30,0
JP-M-23M23S2,1108,experiment,80,←,left,←,0.5395481999730691,True,30,1
JP-M-23M23S2,1109,experiment,74,→,right,→,0.6049448999110609,True,30,1
JP-M-23M23S2,1110,experiment,106,←,left,←,0.4333169999299571,True,30,1
JP-M-23M23S2,1111,experiment,100,←,right,→,0.9262330000055954,False,30,1
JP-M-23M23S2,1112,training,76,↑,down,↓,0.6745656999992207,False,30,0
JP-M-23M23S2,1113,training,82,↓,down,↓,0.5319342999719083,True,30,1
JP-M-23M23S2,1114,experiment,65,←,left,←,0.6884661000221968,True,30,1
JP-M-23M23S2,1115,experiment,59,←,left,←,0.39428669994231313,True,30,1
JP-M-23M23S2,1116,experiment,48,↓,down,↓,0.5363476999336854,True,30,1
JP-M-23M23S2,1117,experiment,96,←,left,←,0.5623823000350967,True,30,1
JP-M-23M23S2,1118,experiment,89,←,left,←,0.5899429999990389,True,30,1
JP-M-23M23S2,1119,experiment,61,↑,left,←,0.6256747000152245,False,30,1
JP-M-23M23S2,1120,experiment,73,↓,down,↓,0.463979099993594,True,30,1
JP-M-23M23S2,1121,experiment,81,↓,down,↓,0.4420292000286281,True,30,1
JP-M-23M23S2,1122,experiment,64,↓,down,↓,0.4193527000024915,True,30,1
JP-M-23M23S2,1123,experiment,60,→,right,→,0.861491100047715,True,30,0
JP-M-23M23S2,1124,experiment,72,←,left,←,0.5307051000418141,True,30,1
JP-M-23M23S2,1125,experiment,102,↑,down,↓,0.6193694000830874,False,30,1
JP-M-23M23S2,1126,experiment,83,→,right,→,0.5344061000505462,True,30,1
JP-M-23M23S2,1127,experiment,66,→,right,→,0.5068009999813512,True,30,1
JP-M-23M23S2,1128,experiment,75,←,left,←,0.5731933999340981,True,30,1
JP-M-23M23S2,1129,experiment,91,↑,up,↑,0.567712299991399,True,30,1
JP-M-23M23S2,1130,experiment,53,←,left,←,0.4870563999284059,True,30,1
JP-M-23M23S2,1131,experiment,90,↑,up,↑,0.4296440000180155,True,30,1
JP-M-23M23S2,1132,experiment,76,→,right,→,0.8663949000183493,True,30,1
JP-M-23M23S2,1133,experiment,51,←,left,←,0.4705739999189973,True,30,1
JP-M-23M23S2,1134,experiment,58,←,left,←,0.35148539999499917,True,30,1
JP-M-23M23S2,1135,experiment,71,→,right,→,0.650093299918808,True,30,0
JP-M-23M23S2,1136,experiment,104,→,right,→,0.6050768999848515,True,30,1
JP-M-23M23S2,1137,experiment,97,←,left,←,0.42806629999540746,True,30,1
JP-M-23M23S2,1138,experiment,93,↓,down,↓,0.5637724000262097,True,30,1
JP-M-23M23S2,1139,experiment,95,↓,down,↓,0.5412839000346139,True,30,1
JP-M-23M23S2,1140,experiment,98,→,right,→,0.6387330000288785,True,30,1
JP-M-23M23S2,1141,experiment,55,→,right,→,0.4269693000242114,True,30,1
JP-M-23M23S2,1142,experiment,85,→,right,→,0.3671759000280872,True,30,1
JP-M-23M23S2,1143,experiment,57,→,right,→,0.7065599999623373,True,30,0
JP-M-23M23S2,1144,experiment,50,↓,down,↓,0.6132175999227911,True,30,1
JP-M-23M23S2,1145,experiment,77,↑,down,↓,0.5306705000111833,False,30,1
JP-M-23M23S2,1146,experiment,94,→,right,→,0.6537015000358224,True,30,1
JP-M-23M23S2,1147,experiment,63,→,right,→,0.49458709999453276,True,30,1
JP-M-23M23S2,1148,experiment,105,↓,down,↓,0.5190509000094607,True,30,1
JP-M-23M23S2,1149,experiment,56,↓,down,↓,0.38393979996908456,True,30,1
JP-M-23M23S2,1150,experiment,92,↑,down,↓,0.6569717000238597,False,30,0
JP-M-23M23S2,1151,experiment,107,↑,up,↑,0.6105800999794155,True,30,1
JP-M-23M23S2,1152,experiment,62,↓,down,↓,0.485410499968566,True,30,1
JP-M-23M23S2,1153,experiment,54,↓,down,↓,0.5039166999049485,True,30,1
JP-M-23M23S2,1154,experiment,70,→,right,→,0.531921699992381,True,30,1
JP-M-23M23S2,1155,experiment,84,←,right,→,0.642451100051403,False,30,1
JP-M-23M23S2,1156,experiment,49,←,left,←,0.5761386000085622,True,30,1
JP-M-23M23S2,1157,experiment,106,→,right,→,0.6694222000660375,True,30,1
JP-M-23M23S2,1158,experiment,100,←,left,←,0.5851241999771446,True,30,1
JP-M-23M23S2,1159,experiment,67,←,left,←,0.42770180001389235,True,30,1
JP-M-23M23S2,1160,experiment,108,↓,down,↓,0.4535666999872774,True,30,1
JP-M-23M23S2,1161,experiment,79,↓,down,↓,0.44900540006347,True,30,1
JP-M-23M23S2,1162,experiment,69,→,right,→,0.49577949999365956,True,30,1
JP-M-23M23S2,1163,experiment,52,↑,up,↑,0.67432450002525,True,30,1
JP-M-23M23S2,1164,experiment,87,←,left,←,0.418647599988617,True,30,1
JP-M-23M23S2,1165,experiment,101,↓,down,↓,0.6149035000707954,True,30,0
JP-M-23M23S2,1166,experiment,82,↑,down,↓,0.610778099973686,False,30,1
JP-M-23M23S2,1167,experiment,78,←,left,←,0.47214110009372234,True,30,1
JP-M-23M23S2,1168,experiment,103,↑,down,↓,0.6025535999797285,False,30,1
JP-M-23M23S2,1169,experiment,80,→,left,←,0.6071939999237657,False,30,1
JP-M-23M23S2,1170,experiment,86,→,no_key,no_letter,-1.0,False,30,1
JP-M-23M23S2,1171,experiment,99,↓,down,↓,0.4438557999674231,True,30,1
JP-M-23M23S2,1172,experiment,88,→,right,→,0.4519950000103563,True,30,1
JP-M-23M23S2,1173,experiment,68,↑,up,↑,0.4673252999782562,True,30,1
JP-M-23M23S2,1174,experiment,74,←,left,←,0.7196562000317499,True,30,1
JP-M-23M23S2,1175,training,99,←,left,←,0.5124493000330403,True,30,0
JP-M-23M23S2,1176,training,96,↑,up,↑,0.4834213999565691,True,30,1
JP-M-23M23S2,1177,experiment,70,↑,up,↑,0.6084362999536097,True,30,1
JP-M-23M23S2,1178,experiment,59,←,left,←,0.4521792000159621,True,30,1
JP-M-23M23S2,1179,experiment,61,↓,down,↓,0.4934994999784976,True,30,1
JP-M-23M23S2,1180,experiment,72,↑,down,↓,0.6734725000569597,False,30,1
JP-M-23M23S2,1181,experiment,83,→,right,→,0.5866278000175953,True,30,1
JP-M-23M23S2,1182,experiment,82,←,left,←,0.5436877999454737,True,30,1
JP-M-23M23S2,1183,experiment,101,←,left,←,0.3772066000383347,True,30,1
JP-M-23M23S2,1184,experiment,66,↑,down,↓,0.5863631999818608,False,30,0
JP-M-23M23S2,1185,experiment,95,↑,up,↑,0.506841899943538,True,30,1
JP-M-23M23S2,1186,experiment,90,↓,down,↓,0.5120798998977989,True,30,1
JP-M-23M23S2,1187,experiment,89,←,left,←,0.6215052000479773,True,30,1
JP-M-23M23S2,1188,experiment,55,→,right,→,0.5779325999319553,True,30,1
JP-M-23M23S2,1189,experiment,64,→,right,→,0.7253905999241397,True,30,1
JP-M-23M23S2,1190,experiment,81,→,left,←,0.8689965000376105,False,30,1
JP-M-23M23S2,1191,experiment,107,↓,down,↓,0.5504653999814764,True,30,1
JP-M-23M23S2,1192,experiment,76,←,left,←,0.5427993000485003,True,30,1
JP-M-23M23S2,1193,experiment,60,←,left,←,0.4207821999443695,True,30,1
JP-M-23M23S2,1194,experiment,97,→,left,←,0.6435046999249607,False,30,0
JP-M-23M23S2,1195,experiment,94,↓,down,↓,0.4820297999540344,True,30,1
JP-M-23M23S2,1196,experiment,84,←,left,←,0.490386699908413,True,30,1
JP-M-23M23S2,1197,experiment,71,↑,down,↓,0.5989176000002772,False,30,1
JP-M-23M23S2,1198,experiment,78,→,right,→,0.5166183999972418,True,30,1
JP-M-23M23S2,1199,experiment,85,↑,down,↓,0.5954264999600127,False,30,1
JP-M-23M23S2,1200,experiment,102,↑,up,↑,0.5614554999629036,True,30,1
JP-M-23M23S2,1201,experiment,104,↑,up,↑,0.5199194999877363,True,30,1
JP-M-23M23S2,1202,experiment,67,↑,up,↑,0.4365235000150278,True,30,1
JP-M-23M23S2,1203,experiment,99,↓,down,↓,0.5146306999959052,True,30,1
JP-M-23M23S2,1204,experiment,98,←,left,←,0.5239073999691755,True,30,1
JP-M-23M23S2,1205,experiment,65,→,left,←,0.7127832999685779,False,30,1
JP-M-23M23S2,1206,experiment,92,↓,down,↓,0.5252695999806747,True,30,1
JP-M-23M23S2,1207,experiment,105,→,right,→,0.7089915999677032,True,30,1
JP-M-23M23S2,1208,experiment,93,↓,down,↓,0.4896439000731334,True,30,1
JP-M-23M23S2,1209,experiment,57,→,right,→,0.5864066000794992,True,30,1
JP-M-23M23S2,1210,experiment,69,↑,down,↓,0.6440204000100493,False,30,1
JP-M-23M23S2,1211,experiment,74,↓,down,↓,0.4972834999207407,True,30,1
JP-M-23M23S2,1212,experiment,53,←,left,←,0.6114691999973729,True,30,1
JP-M-23M23S2,1213,experiment,54,→,right,→,0.624839499942027,True,30,1
JP-M-23M23S2,1214,experiment,68,↑,up,↑,0.7929108999669552,True,30,1
JP-M-23M23S2,1215,experiment,106,→,right,→,0.6136637000599876,True,30,1
JP-M-23M23S2,1216,experiment,79,↑,up,↑,0.45818590000271797,True,30,1
JP-M-23M23S2,1217,experiment,52,↑,up,↑,0.6063400000566617,True,30,1
JP-M-23M23S2,1218,experiment,108,←,left,←,0.3677162000676617,True,30,1
JP-M-23M23S2,1219,experiment,63,→,right,→,0.6694972000550479,True,30,0
JP-M-23M23S2,1220,experiment,73,←,left,←,0.5703045999398455,True,30,1
JP-M-23M23S2,1221,experiment,100,←,left,←,0.4258684000233188,True,30,1
JP-M-23M23S2,1222,experiment,77,↑,up,↑,0.6706680000061169,True,30,1
JP-M-23M23S2,1223,experiment,58,←,left,←,0.3776462000096217,True,30,1
JP-M-23M23S2,1224,experiment,87,→,right,→,0.6113451999844983,True,30,0
JP-M-23M23S2,1225,experiment,80,↓,down,↓,0.5280776000581682,True,30,1
JP-M-23M23S2,1226,experiment,75,←,left,←,0.4655373999848962,True,30,1
JP-M-23M23S2,1227,experiment,88,→,right,→,0.5854255000595003,True,30,1
JP-M-23M23S2,1228,experiment,56,→,right,→,0.5270167000126094,True,30,1
JP-M-23M23S2,1229,experiment,86,←,left,←,0.42188259994145483,True,30,1
JP-M-23M23S2,1230,experiment,51,↓,left,←,0.6989416000433266,False,30,1
JP-M-23M23S2,1231,experiment,49,↓,right,→,0.8303083000937477,False,30,1
JP-M-23M23S2,1232,experiment,96,↓,down,↓,0.4366556000895798,True,30,1
JP-M-23M23S2,1233,experiment,62,↑,up,↑,0.6700481999432668,True,30,1
JP-M-23M23S2,1234,experiment,91,↑,down,↓,0.6528794999467209,False,30,1
JP-M-23M23S2,1235,experiment,48,←,left,←,0.482634500018321,True,30,1
JP-M-23M23S2,1236,experiment,103,↑,up,↑,0.5646579000167549,True,30,1
JP-M-23M23S2,1237,experiment,50,↑,up,↑,0.6450108999852091,True,30,1
JP-M-23M23S2,1238,training,75,→,right,→,0.64225949998945,True,30,0
JP-M-23M23S2,1239,training,70,↑,up,↑,0.44886400003451854,True,30,1
JP-M-23M23S2,1240,experiment,50,↑,up,↑,0.39301460003480315,True,30,1
JP-M-23M23S2,1241,experiment,71,←,left,←,0.47023400000762194,True,30,1
JP-M-23M23S2,1242,experiment,59,→,right,→,0.7193266999674961,True,30,1
JP-M-23M23S2,1243,experiment,104,↑,right,→,0.663635200005956,False,30,1
JP-M-23M23S2,1244,experiment,75,←,left,←,0.4756158000091091,True,30,1
JP-M-23M23S2,1245,experiment,74,←,left,←,0.8396136000519618,True,30,1
JP-M-23M23S2,1246,experiment,90,→,right,→,0.5517284999368712,True,30,1
JP-M-23M23S2,1247,experiment,94,↑,up,↑,0.5540782000171021,True,30,1
JP-M-23M23S2,1248,experiment,66,←,left,←,0.6617029999615625,True,30,1
JP-M-23M23S2,1249,experiment,51,←,left,←,0.4010858000256121,True,30,1
JP-M-23M23S2,1250,experiment,76,↑,no_key,no_letter,-1.0,False,30,0
JP-M-23M23S2,1251,experiment,56,↓,down,↓,0.6801070000510663,True,30,1
JP-M-23M23S2,1252,experiment,107,←,left,←,0.7368511999957263,True,30,1
JP-M-23M23S2,1253,experiment,105,↓,down,↓,0.44010309991426766,True,30,1
JP-M-23M23S2,1254,experiment,70,↓,down,↓,0.3762247000122443,True,30,1
JP-M-23M23S2,1255,experiment,79,↑,up,↑,0.564884899999015,True,30,1
JP-M-23M23S2,1256,experiment,80,←,left,←,0.49969700002111495,True,30,1
JP-M-23M23S2,1257,experiment,55,↑,up,↑,0.42881599999964237,True,30,1
JP-M-23M23S2,1258,experiment,69,↑,down,↓,0.5481631000293419,False,30,1
JP-M-23M23S2,1259,experiment,53,↓,down,↓,0.49229080008808523,True,30,1
JP-M-23M23S2,1260,experiment,77,←,left,←,0.48668249999172986,True,30,1
JP-M-23M23S2,1261,experiment,91,↑,down,↓,0.6204446000047028,False,30,1
JP-M-23M23S2,1262,experiment,72,↓,down,↓,0.5315753000322729,True,30,1
JP-M-23M23S2,1263,experiment,101,↑,up,↑,0.49250109994318336,True,30,1
JP-M-23M23S2,1264,experiment,54,↑,up,↑,0.5107176000019535,True,30,1
JP-M-23M23S2,1265,experiment,48,→,right,→,0.577974500018172,True,30,1
JP-M-23M23S2,1266,experiment,92,↓,down,↓,0.47554760007187724,True,30,1
JP-M-23M23S2,1267,experiment,83,↑,up,↑,0.44470500003080815,True,30,1
JP-M-23M23S2,1268,experiment,93,→,right,→,0.539859899901785,True,30,1
JP-M-23M23S2,1269,experiment,62,↓,down,↓,0.513280599960126,True,30,1
JP-M-23M23S2,1270,experiment,108,↑,up,↑,0.49637300008907914,True,30,1
JP-M-23M23S2,1271,experiment,96,←,left,←,0.5079108000500128,True,30,1
JP-M-23M23S2,1272,experiment,106,↑,up,↑,0.4679039000766352,True,30,1
JP-M-23M23S2,1273,experiment,89,↓,down,↓,0.5634170999983326,True,30,1
JP-M-23M23S2,1274,experiment,52,←,right,→,0.5630937000969425,False,30,1
JP-M-23M23S2,1275,experiment,63,→,no_key,no_letter,-1.0,False,30,1
JP-M-23M23S2,1276,experiment,65,←,left,←,0.49249900004360825,True,30,1
JP-M-23M23S2,1277,experiment,60,→,left,←,0.7965768999420106,False,30,1
JP-M-23M23S2,1278,experiment,57,←,left,←,0.6092693000100553,True,30,1
JP-M-23M23S2,1279,experiment,100,↑,up,↑,0.4713161999825388,True,30,1
JP-M-23M23S2,1280,experiment,68,↓,down,↓,0.4535789000801742,True,30,1
JP-M-23M23S2,1281,experiment,102,→,right,→,0.3696420000633225,True,30,1
JP-M-23M23S2,1282,experiment,84,←,left,←,0.4011582999955863,True,30,0
JP-M-23M23S2,1283,experiment,85,→,right,→,0.44815050007309765,True,30,0
JP-M-23M23S2,1284,experiment,103,←,left,←,0.7235830000136048,True,30,1
JP-M-23M23S2,1285,experiment,81,↓,down,↓,0.41990029998123646,True,30,1
JP-M-23M23S2,1286,experiment,98,→,right,→,0.5373669000109658,True,30,0
JP-M-23M23S2,1287,experiment,58,↓,down,↓,0.5122129000956193,True,30,1
JP-M-23M23S2,1288,experiment,67,→,left,←,0.6773575999541208,False,30,1
JP-M-23M23S2,1289,experiment,82,→,right,→,0.4707892000442371,True,30,1
JP-M-23M23S2,1290,experiment,99,↑,down,↓,0.6744280999992043,False,30,1
JP-M-23M23S2,1291,experiment,88,↑,down,↓,0.5777014999184757,False,30,1
JP-M-23M23S2,1292,experiment,95,←,left,←,0.5629518999485299,True,30,1
JP-M-23M23S2,1293,experiment,78,↑,up,↑,0.45760349999181926,True,30,1
JP-M-23M23S2,1294,experiment,73,←,left,←,0.5111447999952361,True,30,1
JP-M-23M23S2,1295,experiment,49,←,right,→,0.5939277999568731,False,30,1
JP-M-23M23S2,1296,experiment,97,→,right,→,0.6493815000867471,True,30,1
JP-M-23M23S2,1297,experiment,64,←,left,←,0.5778780999826267,True,30,1
JP-M-23M23S2,1298,experiment,61,→,right,→,0.5181505000218749,True,30,1
JP-M-23M23S2,1299,experiment,86,→,left,←,0.7325409000040963,False,30,1
JP-M-23M23S2,1300,experiment,87,→,right,→,0.5300677000777796,True,30,1
JP-M-23M23S2,1301,training,99,←,right,→,0.7812936999835074,False,30,0
JP-M-23M23S2,1302,training,56,←,left,←,0.5630708000389859,True,30,1
JP-M-23M23S2,1303,experiment,69,→,left,←,0.4689401000505313,False,30,1
JP-M-23M23S2,1304,experiment,80,←,left,←,0.3502042000181973,True,30,1
JP-M-23M23S2,1305,experiment,85,→,right,→,0.6606018000748008,True,30,0
JP-M-23M23S2,1306,experiment,88,↓,right,→,0.676831999910064,False,30,1
JP-M-23M23S2,1307,experiment,49,↑,up,↑,0.5448623999254778,True,30,1
JP-M-23M23S2,1308,experiment,58,←,left,←,0.6554614000488073,True,30,1
JP-M-23M23S2,1309,experiment,98,↓,down,↓,0.6764664999209344,True,30,1
JP-M-23M23S2,1310,experiment,61,→,right,→,0.5404873000225052,True,30,1
JP-M-23M23S2,1311,experiment,70,←,right,→,0.6152642999077216,False,30,1
JP-M-23M23S2,1312,experiment,78,←,left,←,0.5405692999484017,True,30,1
JP-M-23M23S2,1313,experiment,104,↓,down,↓,0.5396236000815406,True,30,1
JP-M-23M23S2,1314,experiment,59,↓,down,↓,0.5461168000474572,True,30,1
JP-M-23M23S2,1315,experiment,60,↑,up,↑,0.5039457000093535,True,30,1
JP-M-23M23S2,1316,experiment,91,↓,down,↓,0.6048921999754384,True,30,1
JP-M-23M23S2,1317,experiment,68,↓,down,↓,0.4377939000260085,True,30,1
JP-M-23M23S2,1318,experiment,48,↓,down,↓,0.5161447999998927,True,30,1
JP-M-23M23S2,1319,experiment,55,→,right,→,0.7808393000159413,True,30,1
JP-M-23M23S2,1320,experiment,66,→,right,→,0.5113409999758005,True,30,1
JP-M-23M23S2,1321,experiment,87,→,right,→,0.6136878000106663,True,30,1
JP-M-23M23S2,1322,experiment,93,←,left,←,0.8056131999474019,True,30,1
JP-M-23M23S2,1323,experiment,101,↑,up,↑,0.4833509000018239,True,30,1
JP-M-23M23S2,1324,experiment,103,→,right,→,0.5094602999743074,True,30,1
JP-M-23M23S2,1325,experiment,54,↑,up,↑,0.4308606000849977,True,30,1
JP-M-23M23S2,1326,experiment,81,↑,up,↑,0.6024047000100836,True,30,1
JP-M-23M23S2,1327,experiment,108,↑,no_key,no_letter,-1.0,False,30,1
JP-M-23M23S2,1328,experiment,107,→,right,→,0.6451533000217751,True,30,1
JP-M-23M23S2,1329,experiment,89,↑,down,↓,0.525203000055626,False,30,1
JP-M-23M23S2,1330,experiment,75,→,right,→,0.6789133000420406,True,30,1
JP-M-23M23S2,1331,experiment,96,↓,down,↓,0.4592372999759391,True,30,1
JP-M-23M23S2,1332,experiment,97,→,right,→,0.7042857999913394,True,30,1
JP-M-23M23S2,1333,experiment,86,→,right,→,0.7273679999634624,True,30,1
JP-M-23M23S2,1334,experiment,71,←,left,←,0.4585128000471741,True,30,1
JP-M-23M23S2,1335,experiment,106,→,left,←,0.6603325998876244,False,30,1
JP-M-23M23S2,1336,experiment,95,←,left,←,0.6580787000712007,True,30,1
JP-M-23M23S2,1337,experiment,52,→,right,→,0.4943180999252945,True,30,1
JP-M-23M23S2,1338,experiment,105,←,left,←,0.5587973999790847,True,30,1
JP-M-23M23S2,1339,experiment,94,↑,up,↑,0.5849849000805989,True,30,1
JP-M-23M23S2,1340,experiment,82,↑,up,↑,0.4302039999747649,True,30,1
JP-M-23M23S2,1341,experiment,84,↑,up,↑,0.5684324000030756,True,30,1
JP-M-23M23S2,1342,experiment,99,↑,up,↑,0.4013771000318229,True,30,1
JP-M-23M23S2,1343,experiment,51,→,right,→,0.6309584999689832,True,30,1
JP-M-23M23S2,1344,experiment,76,↓,down,↓,0.5479773000115529,True,30,1
JP-M-23M23S2,1345,experiment,90,↑,up,↑,0.42390850000083447,True,30,1
JP-M-23M23S2,1346,experiment,64,→,right,→,0.601121100015007,True,30,0
JP-M-23M23S2,1347,experiment,50,→,right,→,0.440302399918437,True,30,1
JP-M-23M23S2,1348,experiment,102,→,right,→,0.5802490999922156,True,30,1
JP-M-23M23S2,1349,experiment,63,←,left,←,0.6877549999626353,True,30,1
JP-M-23M23S2,1350,experiment,65,←,left,←,0.7980905999429524,True,30,1
JP-M-23M23S2,1351,experiment,74,←,left,←,0.6770281000062823,True,30,1
JP-M-23M23S2,1352,experiment,72,←,no_key,no_letter,-1.0,False,30,1
JP-M-23M23S2,1353,experiment,57,←,left,←,0.5058596000308171,True,30,1
JP-M-23M23S2,1354,experiment,53,→,right,→,0.5952627999940887,True,30,1
JP-M-23M23S2,1355,experiment,62,↑,up,↑,0.6305955999996513,True,30,1
JP-M-23M23S2,1356,experiment,77,↓,down,↓,0.40133410005364567,True,30,1
JP-M-23M23S2,1357,experiment,83,→,right,→,0.5030510999495164,True,30,0
JP-M-23M23S2,1358,experiment,79,→,left,←,0.7126957000000402,False,30,1
JP-M-23M23S2,1359,experiment,92,→,right,→,0.628835599985905,True,30,1
JP-M-23M23S2,1360,experiment,100,→,right,→,0.7543175000464544,True,30,1
JP-M-23M23S2,1361,experiment,56,←,left,←,0.7853458999888971,True,30,1
JP-M-23M23S2,1362,experiment,73,←,left,←,0.7688598999520764,True,30,1
JP-M-23M23S2,1363,experiment,67,↑,left,←,0.8037295000394806,False,30,1
JP-M-23M23S2,1364,training,51,↑,up,↑,0.6211601999821141,True,30,0
JP-M-23M23S2,1365,training,52,↑,up,↑,0.39233979990240186,True,30,1
JP-M-23M23S2,1366,experiment,100,↑,up,↑,0.39412690000608563,True,30,0
JP-M-23M23S2,1367,experiment,58,↑,up,↑,0.3837969999294728,True,30,0
JP-M-23M23S2,1368,experiment,106,↑,no_key,no_letter,-1.0,False,30,0
JP-M-23M23S2,1369,experiment,54,←,left,←,0.594726899988018,True,30,1
JP-M-23M23S2,1370,experiment,84,↓,down,↓,0.4308260000543669,True,30,1
JP-M-23M23S2,1371,experiment,59,→,right,→,0.6414212000090629,True,30,1
JP-M-23M23S2,1372,experiment,62,↑,up,↑,0.4429480000399053,True,30,1
JP-M-23M23S2,1373,experiment,53,↑,left,←,1.4232943000970408,False,30,1
JP-M-23M23S2,1374,experiment,90,↓,down,↓,0.7600342000368983,True,30,1
JP-M-23M23S2,1375,experiment,56,↓,down,↓,0.5423964000074193,True,30,1
JP-M-23M23S2,1376,experiment,86,→,right,→,0.6921413000673056,True,30,1
JP-M-23M23S2,1377,experiment,68,↑,up,↑,0.6413316999096423,True,30,1
JP-M-23M23S2,1378,experiment,103,↓,down,↓,0.6130338000366464,True,30,1
JP-M-23M23S2,1379,experiment,91,←,left,←,0.5659216000931337,True,30,1
JP-M-23M23S2,1380,experiment,92,↑,left,←,0.72021970001515,False,30,1
JP-M-23M23S2,1381,experiment,76,↑,up,↑,0.4660585999954492,True,30,1
JP-M-23M23S2,1382,experiment,107,→,right,→,0.5313979999627918,True,30,1
JP-M-23M23S2,1383,experiment,83,↑,up,↑,0.43393950001336634,True,30,1
JP-M-23M23S2,1384,experiment,85,↑,down,↓,0.6121508000651374,False,30,1
JP-M-23M23S2,1385,experiment,52,↑,down,↓,0.5781382999848574,False,30,1
JP-M-23M23S2,1386,experiment,67,↓,down,↓,0.4012085000285879,True,30,1
JP-M-23M23S2,1387,experiment,101,↓,down,↓,0.376171600073576,True,30,0
JP-M-23M23S2,1388,experiment,89,→,right,→,0.5171870000194758,True,30,1
JP-M-23M23S2,1389,experiment,88,↓,down,↓,0.419197199982591,True,30,1
JP-M-23M23S2,1390,experiment,97,↑,down,↓,0.6412186999805272,False,30,0
JP-M-23M23S2,1391,experiment,71,↓,down,↓,0.5521547000389546,True,30,1
JP-M-23M23S2,1392,experiment,64,←,left,←,0.4917482000309974,True,30,1
JP-M-23M23S2,1393,experiment,72,↓,down,↓,0.5916932999389246,True,30,1
JP-M-23M23S2,1394,experiment,78,←,left,←,0.606110000051558,True,30,1
JP-M-23M23S2,1395,experiment,70,←,right,→,0.6461484000319615,False,30,1
JP-M-23M23S2,1396,experiment,51,↑,down,↓,0.5627822999376804,False,30,1
JP-M-23M23S2,1397,experiment,77,→,right,→,0.4739968000212684,True,30,1
JP-M-23M23S2,1398,experiment,93,→,right,→,0.5517783999675885,True,30,1
JP-M-23M23S2,1399,experiment,104,←,left,←,0.6228298000060022,True,30,1
JP-M-23M23S2,1400,experiment,98,→,right,→,0.5408511999994516,True,30,1
JP-M-23M23S2,1401,experiment,48,↑,up,↑,0.6069713999750093,True,30,1
JP-M-23M23S2,1402,experiment,108,←,left,←,0.6662514000199735,True,30,1
JP-M-23M23S2,1403,experiment,65,↓,down,↓,0.4976916000014171,True,30,1
JP-M-23M23S2,1404,experiment,49,←,left,←,0.6849330000113696,True,30,1
JP-M-23M23S2,1405,experiment,102,←,left,←,0.527477000025101,True,30,1
JP-M-23M23S2,1406,experiment,79,↑,down,↓,0.5599607999902219,False,30,1
JP-M-23M23S2,1407,experiment,95,↑,down,↓,0.5615418000379577,False,30,1
JP-M-23M23S2,1408,experiment,73,↓,down,↓,0.522766700014472,True,30,1
JP-M-23M23S2,1409,experiment,94,←,left,←,0.5102534999605268,True,30,1
JP-M-23M23S2,1410,experiment,87,↑,down,↓,0.5965007001068443,False,30,1
JP-M-23M23S2,1411,experiment,55,←,down,↓,0.610027699964121,False,30,1
JP-M-23M23S2,1412,experiment,60,←,right,→,0.7493842999683693,False,30,1
JP-M-23M23S2,1413,experiment,50,↓,down,↓,0.5264627001015469,True,30,1
JP-M-23M23S2,1414,experiment,75,↓,down,↓,0.44820159999653697,True,30,1
JP-M-23M23S2,1415,experiment,80,→,right,→,0.6271033000666648,True,30,1
JP-M-23M23S2,1416,experiment,57,↑,up,↑,0.5506744999438524,True,30,1
JP-M-23M23S2,1417,experiment,82,↑,down,↓,0.5168238000478595,False,30,1
JP-M-23M23S2,1418,experiment,69,→,left,←,0.6493095000041649,False,30,1
JP-M-23M23S2,1419,experiment,99,→,left,←,0.6538582000648603,False,30,1
JP-M-23M23S2,1420,experiment,66,↑,up,↑,0.58110690000467,True,30,1
JP-M-23M23S2,1421,experiment,96,↓,down,↓,0.5416142999893054,True,30,1
JP-M-23M23S2,1422,experiment,105,↓,down,↓,0.44453769992105663,True,30,1
JP-M-23M23S2,1423,experiment,74,→,right,→,0.4977741000475362,True,30,1
JP-M-23M23S2,1424,experiment,61,↑,down,↓,0.529506399994716,False,30,1
JP-M-23M23S2,1425,experiment,63,↑,down,↓,0.4788790999446064,False,30,1
JP-M-23M23S2,1426,experiment,81,↑,no_key,no_letter,-1.0,False,30,1
JP-M-23M23S2,1427,training,85,←,left,←,0.6106153000146151,True,30,0
JP-M-23M23S2,1428,training,88,↓,no_key,no_letter,-1.0,False,30,1
JP-M-23M23S2,1429,experiment,79,→,right,→,0.63695800001733,True,30,1
JP-M-23M23S2,1430,experiment,70,→,right,→,0.6199969000881538,True,30,1
JP-M-23M23S2,1431,experiment,66,←,left,←,0.6686402000486851,True,30,1
JP-M-23M23S2,1432,experiment,90,↑,up,↑,0.49165179999545217,True,30,1
JP-M-23M23S2,1433,experiment,100,↑,up,↑,0.5265075999777764,True,30,1
JP-M-23M23S2,1434,experiment,57,→,right,→,0.478316199965775,True,30,1
JP-M-23M23S2,1435,experiment,58,↑,up,↑,0.3763928998960182,True,30,1
JP-M-23M23S2,1436,experiment,48,↓,down,↓,0.4321548000443727,True,30,1
JP-M-23M23S2,1437,experiment,77,←,left,←,0.7408831000793725,True,30,1
JP-M-23M23S2,1438,experiment,74,↓,down,↓,0.4305251999758184,True,30,1
JP-M-23M23S2,1439,experiment,99,←,left,←,0.5395568000385538,True,30,1
JP-M-23M23S2,1440,experiment,104,→,right,→,0.4351424000924453,True,30,1
JP-M-23M23S2,1441,experiment,64,↑,up,↑,0.5561311999335885,True,30,1
JP-M-23M23S2,1442,experiment,94,→,left,←,0.5501627000048757,False,30,1
JP-M-23M23S2,1443,experiment,84,→,right,→,0.6921632000012323,True,30,1
