PART_ID,Trial_no,Trial_type,CSI,Stim_letter,Key_pressed,letter_choose,Rt,Corr,Stimulus Time,nDropped
JR-K-22K22S1,1,training,120,→,right,→,0.766627199947834,True,60,1
JR-K-22K22S1,2,training,120,←,left,←,0.6261571999639273,True,60,0
JR-K-22K22S1,3,training,120,↑,up,↑,0.8601020998321474,True,60,0
JR-K-22K22S1,4,training,120,↑,up,↑,0.7285958998836577,True,60,0
JR-K-22K22S1,5,training,120,→,right,→,0.5929042000789195,True,60,0
JR-K-22K22S1,6,training,120,↓,left,←,0.5338431999552995,False,60,0
JR-K-22K22S1,7,training,120,↓,no_key,no_letter,-1.0,False,60,0
JR-K-22K22S1,8,training,120,↑,up,↑,0.6440570000559092,True,60,0
JR-K-22K22S1,9,training,120,←,no_key,no_letter,-1.0,False,60,0
JR-K-22K22S1,10,training,120,→,right,→,0.6873236000537872,True,60,0
JR-K-22K22S1,11,training,120,→,right,→,0.6257368999067694,True,60,0
JR-K-22K22S1,12,training,120,←,left,←,0.7766827000305057,True,60,0
JR-K-22K22S1,13,training,120,↑,up,↑,0.5777825999539346,True,60,0
JR-K-22K22S1,14,training,120,↑,up,↑,0.7435828999150544,True,60,0
JR-K-22K22S1,15,training,120,→,right,→,0.5507133998908103,True,60,0
JR-K-22K22S1,16,training,120,→,right,→,0.937641000142321,True,60,0
JR-K-22K22S1,17,training,120,→,right,→,0.7551170000806451,True,60,0
JR-K-22K22S1,18,training,120,↑,up,↑,0.692154899938032,True,60,0
JR-K-22K22S1,19,training,120,←,left,←,0.6514133999589831,True,60,0
JR-K-22K22S1,20,training,120,→,right,→,0.5421334998682141,True,60,0
JR-K-22K22S1,21,no_adaptation,120,↑,up,↑,0.5518551000859588,True,36,0
JR-K-22K22S1,22,no_adaptation,120,→,right,→,0.4343387000262737,True,36,0
JR-K-22K22S1,23,no_adaptation,120,↓,down,↓,0.6778554001357406,True,36,0
JR-K-22K22S1,24,no_adaptation,120,↓,down,↓,0.4349285000935197,True,36,0
JR-K-22K22S1,25,no_adaptation,120,→,right,→,0.5670424001291394,True,36,0
JR-K-22K22S1,26,no_adaptation,120,↓,no_key,no_letter,-1.0,False,36,0
JR-K-22K22S1,27,no_adaptation,120,↓,down,↓,0.5752872999291867,True,36,0
JR-K-22K22S1,28,no_adaptation,120,→,right,→,0.47887799981981516,True,36,0
JR-K-22K22S1,29,no_adaptation,120,↑,up,↑,0.627052600029856,True,36,0
JR-K-22K22S1,30,no_adaptation,120,↑,up,↑,0.5211916000116616,True,36,0
JR-K-22K22S1,31,no_adaptation,120,→,right,→,0.41741620004177094,True,36,0
JR-K-22K22S1,32,no_adaptation,120,↑,up,↑,0.5612671999260783,True,36,0
JR-K-22K22S1,33,no_adaptation,120,↑,up,↑,0.4430090000387281,True,36,0
JR-K-22K22S1,34,no_adaptation,120,↓,down,↓,0.39237349992617965,True,36,0
JR-K-22K22S1,35,no_adaptation,120,←,left,←,0.525510499952361,True,36,0
JR-K-22K22S1,36,no_adaptation,120,↓,down,↓,0.39157540001906455,True,36,0
JR-K-22K22S1,37,no_adaptation,120,←,left,←,0.5106492999475449,True,36,0
JR-K-22K22S1,38,no_adaptation,120,↑,up,↑,0.47375230002216995,True,36,0
JR-K-22K22S1,39,no_adaptation,120,←,left,←,0.5090719000436366,True,36,0
JR-K-22K22S1,40,no_adaptation,120,↑,up,↑,0.887453000061214,True,36,0
JR-K-22K22S1,41,training,94,↑,down,↓,0.685020700097084,False,36,0
JR-K-22K22S1,42,training,54,←,left,←,0.575256000040099,True,36,1
JR-K-22K22S1,43,experiment,52,←,left,←,0.6387078000698239,True,36,1
JR-K-22K22S1,44,experiment,106,←,left,←,0.5054858000949025,True,36,1
JR-K-22K22S1,45,experiment,97,↓,down,↓,0.4845329001545906,True,36,1
JR-K-22K22S1,46,experiment,102,←,left,←,0.4869460000190884,True,36,1
JR-K-22K22S1,47,experiment,67,←,left,←,0.524976400192827,True,36,1
JR-K-22K22S1,48,experiment,84,→,right,→,1.4035090999677777,True,36,1
JR-K-22K22S1,49,experiment,88,↑,left,←,0.9339715999085456,False,36,1
JR-K-22K22S1,50,experiment,56,↑,up,↑,1.5815286999568343,True,36,1
JR-K-22K22S1,51,experiment,85,→,right,→,0.3845232001040131,True,36,1
JR-K-22K22S1,52,experiment,76,↑,up,↑,0.5683639000635594,True,36,0
JR-K-22K22S1,53,experiment,53,←,left,←,0.5757981999777257,True,36,1
JR-K-22K22S1,54,experiment,54,↓,down,↓,0.4174067999701947,True,36,1
JR-K-22K22S1,55,experiment,60,↓,down,↓,0.7453962001018226,True,36,0
JR-K-22K22S1,56,experiment,87,↑,up,↑,0.6225930999498814,True,36,1
JR-K-22K22S1,57,experiment,103,→,right,→,0.3922702001873404,True,36,1
JR-K-22K22S1,58,experiment,61,←,left,←,0.5180127001367509,True,36,0
JR-K-22K22S1,59,experiment,55,↑,up,↑,0.6228074999526143,True,36,1
JR-K-22K22S1,60,experiment,62,→,right,→,0.37553049996495247,True,36,1
JR-K-22K22S1,61,experiment,75,↓,down,↓,0.6243724001105875,True,36,0
JR-K-22K22S1,62,experiment,101,↑,right,→,0.35863339994102716,False,36,1
JR-K-22K22S1,63,experiment,49,↓,down,↓,0.622238100040704,True,36,0
JR-K-22K22S1,64,experiment,63,↑,left,←,1.1360087997745723,False,36,1
JR-K-22K22S1,65,experiment,82,↓,down,↓,0.62298409990035,True,36,1
JR-K-22K22S1,66,experiment,95,↑,up,↑,0.502032200107351,True,36,1
JR-K-22K22S1,67,experiment,79,←,left,←,0.43452000012621284,True,36,1
JR-K-22K22S1,68,experiment,69,→,right,→,1.3421970999334008,True,36,1
JR-K-22K22S1,69,experiment,78,↓,down,↓,1.4623469000216573,True,36,1
JR-K-22K22S1,70,experiment,89,→,right,→,0.7497213000897318,True,36,1
JR-K-22K22S1,71,experiment,74,↓,down,↓,0.9906228999607265,True,36,1
JR-K-22K22S1,72,experiment,50,←,left,←,0.45144099998287857,True,36,1
JR-K-22K22S1,73,experiment,93,↑,left,←,0.9322852999903262,False,36,1
JR-K-22K22S1,74,experiment,73,↑,up,↑,0.7663636000361294,True,36,1
JR-K-22K22S1,75,experiment,108,→,right,→,0.4264046000316739,True,36,1
JR-K-22K22S1,76,experiment,71,→,right,→,0.8902541999705136,True,36,0
JR-K-22K22S1,77,experiment,96,→,right,→,0.8700360998045653,True,36,1
JR-K-22K22S1,78,experiment,107,↑,up,↑,0.7830316999461502,True,36,1
JR-K-22K22S1,79,experiment,86,↑,right,→,1.0508732001762837,False,36,1
JR-K-22K22S1,80,experiment,66,→,right,→,0.3595719998702407,True,36,1
JR-K-22K22S1,81,experiment,58,→,right,→,0.7764665000140667,True,36,0
JR-K-22K22S1,82,experiment,83,↑,right,→,0.853219100041315,False,36,1
JR-K-22K22S1,83,experiment,91,←,left,←,0.4342447000090033,True,36,1
JR-K-22K22S1,84,experiment,100,→,right,→,0.6016589000355452,True,36,0
JR-K-22K22S1,85,experiment,51,↓,down,↓,0.48031609994359314,True,36,1
JR-K-22K22S1,86,experiment,99,↑,right,→,1.027624199865386,False,36,1
JR-K-22K22S1,87,experiment,81,→,right,→,0.6469008000567555,True,36,1
JR-K-22K22S1,88,experiment,94,←,left,←,1.5249170998577029,True,36,1
JR-K-22K22S1,89,experiment,77,↓,right,→,0.790086799999699,False,36,1
JR-K-22K22S1,90,experiment,57,→,right,→,1.4270106998737901,True,36,1
JR-K-22K22S1,91,experiment,92,←,right,→,0.9551405999809504,False,36,1
JR-K-22K22S1,92,experiment,104,←,left,←,0.47399850003421307,True,36,1
JR-K-22K22S1,93,experiment,98,↓,right,→,0.9737029001116753,False,36,1
JR-K-22K22S1,94,experiment,48,←,left,←,0.7026714999228716,True,36,1
JR-K-22K22S1,95,experiment,105,→,right,→,0.43442429997958243,True,36,1
JR-K-22K22S1,96,experiment,80,↓,down,↓,1.0106716000009328,True,36,1
JR-K-22K22S1,97,experiment,90,↑,up,↑,0.5400078999809921,True,36,1
JR-K-22K22S1,98,experiment,59,→,right,→,1.1702755999285728,True,36,1
JR-K-22K22S1,99,experiment,68,↓,down,↓,0.6044506998732686,True,36,1
JR-K-22K22S1,100,experiment,70,→,left,←,0.6444548999425024,False,36,1
JR-K-22K22S1,101,experiment,72,→,right,→,0.5706005999818444,True,36,1
JR-K-22K22S1,102,experiment,65,←,left,←,0.5656024001073092,True,36,1
JR-K-22K22S1,103,experiment,64,←,left,←,0.5614580998662859,True,36,1
JR-K-22K22S1,104,training,75,↓,left,←,0.8887313001323491,False,36,0
JR-K-22K22S1,105,training,67,↓,right,→,0.5264200000092387,False,36,1
JR-K-22K22S1,106,experiment,89,←,left,←,0.5073351000901312,True,36,1
JR-K-22K22S1,107,experiment,84,↑,up,↑,0.586814799811691,True,36,1
JR-K-22K22S1,108,experiment,72,↓,down,↓,0.6749079001601785,True,36,1
JR-K-22K22S1,109,experiment,51,→,left,←,0.7988449002150446,False,36,1
JR-K-22K22S1,110,experiment,99,→,right,→,0.6613148001488298,True,36,1
JR-K-22K22S1,111,experiment,65,→,right,→,0.51716069993563,True,36,1
JR-K-22K22S1,112,experiment,61,→,right,→,0.7158157001249492,True,36,1
JR-K-22K22S1,113,experiment,71,←,left,←,0.6231452999636531,True,36,1
JR-K-22K22S1,114,experiment,62,←,left,←,0.6737468000501394,True,36,1
JR-K-22K22S1,115,experiment,70,↑,up,↑,0.6705954999197274,True,36,1
JR-K-22K22S1,116,experiment,107,←,left,←,0.6156632998026907,True,36,1
JR-K-22K22S1,117,experiment,66,←,left,←,0.6248329000081867,True,36,1
JR-K-22K22S1,118,experiment,68,→,right,→,0.6089071999303997,True,36,1
JR-K-22K22S1,119,experiment,73,↑,up,↑,0.6959979999810457,True,36,1
JR-K-22K22S1,120,experiment,94,↑,up,↑,0.6361954000312835,True,36,1
JR-K-22K22S1,121,experiment,103,↑,up,↑,0.6244276000652462,True,36,1
JR-K-22K22S1,122,experiment,96,↓,down,↓,0.8390762999188155,True,36,1
JR-K-22K22S1,123,experiment,49,↓,down,↓,0.5727941000368446,True,36,1
JR-K-22K22S1,124,experiment,48,↑,up,↑,0.6055800998583436,True,36,1
JR-K-22K22S1,125,experiment,67,←,left,←,0.5584597999695688,True,36,1
JR-K-22K22S1,126,experiment,88,↑,up,↑,0.5629811000544578,True,36,1
JR-K-22K22S1,127,experiment,74,←,left,←,0.44256719993427396,True,36,1
JR-K-22K22S1,128,experiment,77,←,left,←,0.4951563999056816,True,36,0
JR-K-22K22S1,129,experiment,78,↓,down,↓,0.8410707998555154,True,36,1
JR-K-22K22S1,130,experiment,102,↓,up,↑,0.5488309999927878,False,36,1
JR-K-22K22S1,131,experiment,60,←,left,←,0.5067646999377757,True,36,1
JR-K-22K22S1,132,experiment,104,↑,up,↑,0.8113462999463081,True,36,1
JR-K-22K22S1,133,experiment,57,↓,down,↓,0.5197066999971867,True,36,1
JR-K-22K22S1,134,experiment,64,↓,down,↓,0.7334394999779761,True,36,1
JR-K-22K22S1,135,experiment,90,→,left,←,0.5618743998929858,False,36,1
JR-K-22K22S1,136,experiment,55,↑,up,↑,0.6809568000026047,True,36,1
JR-K-22K22S1,137,experiment,83,→,right,→,0.5615815999917686,True,36,1
JR-K-22K22S1,138,experiment,85,→,right,→,0.5022025001235306,True,36,1
JR-K-22K22S1,139,experiment,81,↓,down,↓,0.7430983001831919,True,36,1
JR-K-22K22S1,140,experiment,98,←,left,←,1.3042597000021487,True,36,1
JR-K-22K22S1,141,experiment,105,↑,up,↑,0.6567896001506597,True,36,1
JR-K-22K22S1,142,experiment,59,↓,down,↓,0.6424738001078367,True,36,1
JR-K-22K22S1,143,experiment,54,←,left,←,0.718477200018242,True,36,1
JR-K-22K22S1,144,experiment,75,↑,up,↑,0.6723515999037772,True,36,1
JR-K-22K22S1,145,experiment,52,↑,up,↑,0.8758524998556823,True,36,1
JR-K-22K22S1,146,experiment,63,←,left,←,0.7236948001664132,True,36,1
JR-K-22K22S1,147,experiment,91,↑,up,↑,0.7838649998884648,True,36,1
JR-K-22K22S1,148,experiment,69,↓,left,←,0.8737532999366522,False,36,1
JR-K-22K22S1,149,experiment,87,↓,down,↓,0.7610881000291556,True,36,1
JR-K-22K22S1,150,experiment,92,→,right,→,0.5232578001450747,True,36,1
JR-K-22K22S1,151,experiment,56,←,left,←,0.6274225001689047,True,36,1
JR-K-22K22S1,152,experiment,79,←,left,←,0.7438111999072134,True,36,1
JR-K-22K22S1,153,experiment,101,↓,down,↓,0.7680329000577331,True,36,1
JR-K-22K22S1,154,experiment,100,↓,down,↓,0.5595140000805259,True,36,1
JR-K-22K22S1,155,experiment,95,↓,left,←,0.9846620000898838,False,36,1
JR-K-22K22S1,156,experiment,50,↓,down,↓,0.5449591998476535,True,36,1
JR-K-22K22S1,157,experiment,76,↑,left,←,0.7935432998929173,False,36,1
JR-K-22K22S1,158,experiment,82,↑,up,↑,0.7582761000376195,True,36,1
JR-K-22K22S1,159,experiment,53,↓,down,↓,0.7980714000295848,True,36,1
JR-K-22K22S1,160,experiment,86,↓,down,↓,0.8009993999730796,True,36,1
JR-K-22K22S1,161,experiment,97,→,left,←,0.8564732999075204,False,36,1
JR-K-22K22S1,162,experiment,106,←,left,←,1.0982647999189794,True,36,1
JR-K-22K22S1,163,experiment,58,↑,up,↑,0.5788404999766499,True,36,1
JR-K-22K22S1,164,experiment,80,←,right,→,0.6725713999476284,False,36,1
JR-K-22K22S1,165,experiment,108,↑,up,↑,0.6092040999792516,True,36,1
JR-K-22K22S1,166,experiment,93,←,left,←,0.689821100095287,True,36,1
JR-K-22K22S1,167,training,77,→,right,→,0.5089900000020862,True,36,0
JR-K-22K22S1,168,training,93,↑,up,↑,0.8655199999921024,True,36,1
JR-K-22K22S1,169,experiment,64,↑,up,↑,0.5611614000517875,True,36,1
JR-K-22K22S1,170,experiment,100,↓,up,↑,0.6331157998647541,False,36,1
JR-K-22K22S1,171,experiment,72,←,left,←,0.5597709000576288,True,36,1
JR-K-22K22S1,172,experiment,73,↓,up,↑,0.984581199940294,False,36,1
JR-K-22K22S1,173,experiment,68,←,right,→,0.48219259991310537,False,36,1
JR-K-22K22S1,174,experiment,59,↑,up,↑,0.5550901000387967,True,36,1
JR-K-22K22S1,175,experiment,53,↓,down,↓,0.5548690999858081,True,36,1
JR-K-22K22S1,176,experiment,96,←,left,←,0.7640885999426246,True,36,1
JR-K-22K22S1,177,experiment,92,↑,up,↑,0.5988104999996722,True,36,1
JR-K-22K22S1,178,experiment,50,←,right,→,0.4703613000456244,False,36,1
JR-K-22K22S1,179,experiment,67,←,left,←,0.6281720001716167,True,36,0
JR-K-22K22S1,180,experiment,81,←,left,←,0.48765009990893304,True,36,1
JR-K-22K22S1,181,experiment,106,↓,down,↓,1.1043149000033736,True,36,1
JR-K-22K22S1,182,experiment,80,↓,down,↓,0.6330319999251515,True,36,1
JR-K-22K22S1,183,experiment,82,←,left,←,0.8444385000038892,True,36,1
JR-K-22K22S1,184,experiment,77,↓,down,↓,0.7368212998844683,True,36,1
JR-K-22K22S1,185,experiment,89,↓,down,↓,0.6132333998102695,True,36,1
JR-K-22K22S1,186,experiment,95,→,right,→,0.6046016002073884,True,36,1
JR-K-22K22S1,187,experiment,101,↓,down,↓,0.5224287000019103,True,36,1
JR-K-22K22S1,188,experiment,83,↓,down,↓,0.7853361999150366,True,36,1
JR-K-22K22S1,189,experiment,91,↑,up,↑,0.6753859000746161,True,36,1
JR-K-22K22S1,190,experiment,85,←,left,←,0.5238497001118958,True,36,1
JR-K-22K22S1,191,experiment,103,→,right,→,0.5000693998299539,True,36,1
JR-K-22K22S1,192,experiment,105,↑,up,↑,0.709092500153929,True,36,1
JR-K-22K22S1,193,experiment,54,↓,down,↓,0.678420300129801,True,36,1
JR-K-22K22S1,194,experiment,88,↑,up,↑,0.6375488000921905,True,36,1
JR-K-22K22S1,195,experiment,87,←,left,←,0.614908300107345,True,36,1
JR-K-22K22S1,196,experiment,69,↓,down,↓,0.6788757999893278,True,36,1
JR-K-22K22S1,197,experiment,97,→,right,→,0.6188407000154257,True,36,1
JR-K-22K22S1,198,experiment,66,←,left,←,0.5875130000058562,True,36,1
JR-K-22K22S1,199,experiment,48,↑,up,↑,0.8355696999933571,True,36,1
JR-K-22K22S1,200,experiment,90,↑,up,↑,0.6439718001056463,True,36,1
JR-K-22K22S1,201,experiment,94,↑,up,↑,0.7226644998881966,True,36,1
JR-K-22K22S1,202,experiment,76,→,right,→,0.4999888997990638,True,36,1
JR-K-22K22S1,203,experiment,62,→,right,→,0.7790403000544757,True,36,1
JR-K-22K22S1,204,experiment,55,→,right,→,0.689156100153923,True,36,1
JR-K-22K22S1,205,experiment,70,↑,up,↑,0.7260053001809865,True,36,1
JR-K-22K22S1,206,experiment,49,↑,up,↑,0.7204599999822676,True,36,1
JR-K-22K22S1,207,experiment,65,→,right,→,0.869316500145942,True,36,1
JR-K-22K22S1,208,experiment,84,←,left,←,0.4787107000593096,True,36,1
JR-K-22K22S1,209,experiment,71,↑,up,↑,0.6991967998910695,True,36,1
JR-K-22K22S1,210,experiment,52,→,right,→,0.5254625000525266,True,36,1
JR-K-22K22S1,211,experiment,86,←,left,←,0.7395059999544173,True,36,1
JR-K-22K22S1,212,experiment,75,↓,down,↓,0.5645532000344247,True,36,1
JR-K-22K22S1,213,experiment,57,→,right,→,0.7627104998100549,True,36,1
JR-K-22K22S1,214,experiment,104,↑,up,↑,0.665098899975419,True,36,1
JR-K-22K22S1,215,experiment,60,↑,up,↑,0.5379996998235583,True,36,1
JR-K-22K22S1,216,experiment,99,→,right,→,1.4831014000810683,True,36,1
JR-K-22K22S1,217,experiment,63,↑,up,↑,0.5385471000336111,True,36,1
JR-K-22K22S1,218,experiment,79,→,right,→,0.6100237001664937,True,36,1
JR-K-22K22S1,219,experiment,102,→,right,→,0.4092594999819994,True,36,1
JR-K-22K22S1,220,experiment,74,→,right,→,0.7020769999362528,True,36,0
JR-K-22K22S1,221,experiment,93,↑,up,↑,0.7466920001897961,True,36,1
JR-K-22K22S1,222,experiment,58,←,left,←,0.6571943999733776,True,36,1
JR-K-22K22S1,223,experiment,98,↓,down,↓,0.6857260998804122,True,36,1
JR-K-22K22S1,224,experiment,108,↓,down,↓,0.5260709000285715,True,36,1
JR-K-22K22S1,225,experiment,78,↓,down,↓,0.6628616000525653,True,36,1
JR-K-22K22S1,226,experiment,107,↓,down,↓,0.576508600031957,True,36,1
JR-K-22K22S1,227,experiment,56,←,left,←,1.3984836000017822,True,36,1
JR-K-22K22S1,228,experiment,51,↑,up,↑,0.8294743997976184,True,36,1
JR-K-22K22S1,229,experiment,61,←,left,←,0.6072867999318987,True,36,1
JR-K-22K22S1,230,training,104,→,right,→,0.561362000182271,True,35,0
JR-K-22K22S1,231,training,92,↓,right,→,0.79589690011926,False,35,1
JR-K-22K22S1,232,experiment,94,→,left,←,0.5322952000424266,False,35,1
JR-K-22K22S1,233,experiment,54,↓,down,↓,0.6048632001038641,True,35,1
JR-K-22K22S1,234,experiment,93,→,right,→,0.44283520011231303,True,35,1
JR-K-22K22S1,235,experiment,59,↑,up,↑,0.5831265000160784,True,35,1
JR-K-22K22S1,236,experiment,49,→,right,→,0.7993193999864161,True,35,1
JR-K-22K22S1,237,experiment,85,↑,up,↑,0.5626783999614418,True,35,1
JR-K-22K22S1,238,experiment,106,↓,down,↓,0.5602406000252813,True,35,1
JR-K-22K22S1,239,experiment,62,→,right,→,0.8289326999802142,True,35,1
JR-K-22K22S1,240,experiment,92,↓,down,↓,0.524960899958387,True,35,1
JR-K-22K22S1,241,experiment,52,↑,right,→,0.8942763998638839,False,35,1
JR-K-22K22S1,242,experiment,53,→,right,→,0.4425160998944193,True,35,1
JR-K-22K22S1,243,experiment,73,←,left,←,0.5180034001823515,True,35,1
JR-K-22K22S1,244,experiment,66,→,right,→,0.5469887999352068,True,35,1
JR-K-22K22S1,245,experiment,67,↓,right,→,0.814404500182718,False,35,1
JR-K-22K22S1,246,experiment,65,↑,up,↑,0.8639301999937743,True,35,1
JR-K-22K22S1,247,experiment,96,↓,down,↓,0.5489764998201281,True,35,1
JR-K-22K22S1,248,experiment,90,↑,up,↑,0.744529000017792,True,35,1
JR-K-22K22S1,249,experiment,104,↑,up,↑,0.5434659000020474,True,35,1
JR-K-22K22S1,250,experiment,81,←,left,←,0.6305636998731643,True,35,1
JR-K-22K22S1,251,experiment,99,↑,up,↑,0.5079228000249714,True,35,1
JR-K-22K22S1,252,experiment,103,→,right,→,0.43451219983398914,True,35,1
JR-K-22K22S1,253,experiment,63,←,right,→,0.822310300078243,False,35,1
JR-K-22K22S1,254,experiment,89,←,left,←,1.20712919998914,True,35,1
JR-K-22K22S1,255,experiment,48,→,right,→,0.43389320001006126,True,35,1
JR-K-22K22S1,256,experiment,84,→,right,→,0.7046594000421464,True,35,0
JR-K-22K22S1,257,experiment,64,←,left,←,0.4426987001206726,True,35,1
JR-K-22K22S1,258,experiment,107,←,left,←,0.7366689001210034,True,35,0
JR-K-22K22S1,259,experiment,55,↓,down,↓,1.0168362001422793,True,35,1
JR-K-22K22S1,260,experiment,61,↑,up,↑,0.5712546999566257,True,35,1
JR-K-22K22S1,261,experiment,77,↓,down,↓,0.842485599918291,True,35,1
JR-K-22K22S1,262,experiment,70,↑,up,↑,0.5371455999556929,True,35,1
JR-K-22K22S1,263,experiment,100,→,right,→,1.4417127999477088,True,35,1
JR-K-22K22S1,264,experiment,83,←,left,←,0.6200308001134545,True,35,1
JR-K-22K22S1,265,experiment,50,←,left,←,1.1467151001561433,True,35,1
JR-K-22K22S1,266,experiment,69,↑,up,↑,0.757088600192219,True,35,1
JR-K-22K22S1,267,experiment,102,↑,up,↑,0.7644901000894606,True,35,1
JR-K-22K22S1,268,experiment,108,→,right,→,1.1534578001592308,True,35,1
JR-K-22K22S1,269,experiment,78,↓,right,→,0.8253234999720007,False,35,1
JR-K-22K22S1,270,experiment,97,↑,up,↑,0.7274715001694858,True,35,1
JR-K-22K22S1,271,experiment,88,→,right,→,0.5088559000287205,True,35,1
JR-K-22K22S1,272,experiment,101,↓,up,↑,0.8785337000153959,False,35,1
JR-K-22K22S1,273,experiment,58,↑,up,↑,0.6076984999235719,True,35,1
JR-K-22K22S1,274,experiment,68,↓,down,↓,0.5525331001263112,True,35,1
JR-K-22K22S1,275,experiment,105,→,right,→,1.3428297999780625,True,35,1
JR-K-22K22S1,276,experiment,87,↑,up,↑,0.5000129998661578,True,35,1
JR-K-22K22S1,277,experiment,98,↑,up,↑,0.5350275000091642,True,35,1
JR-K-22K22S1,278,experiment,72,→,right,→,0.64154849993065,True,35,1
JR-K-22K22S1,279,experiment,80,←,left,←,0.7248825000133365,True,35,1
JR-K-22K22S1,280,experiment,86,→,right,→,1.3147354999091476,True,35,1
JR-K-22K22S1,281,experiment,91,↓,down,↓,0.6075479001738131,True,35,1
JR-K-22K22S1,282,experiment,76,←,left,←,0.7735011000186205,True,35,1
JR-K-22K22S1,283,experiment,95,←,left,←,0.4865931998938322,True,35,1
JR-K-22K22S1,284,experiment,57,←,left,←,0.7759885000996292,True,35,1
JR-K-22K22S1,285,experiment,51,←,left,←,0.3846874001901597,True,35,1
JR-K-22K22S1,286,experiment,74,←,left,←,0.35245330003090203,True,35,0
JR-K-22K22S1,287,experiment,82,↓,left,←,1.0529706999659538,False,35,0
JR-K-22K22S1,288,experiment,60,↓,down,↓,0.6546994000673294,True,35,1
JR-K-22K22S1,289,experiment,75,↓,down,↓,0.5469186999835074,True,35,1
JR-K-22K22S1,290,experiment,79,↑,left,←,0.9545577000826597,False,35,1
JR-K-22K22S1,291,experiment,56,→,right,→,0.9050845999736339,True,35,1
JR-K-22K22S1,292,experiment,71,←,left,←,0.5966982999816537,True,35,1
JR-K-22K22S1,293,training,55,←,left,←,1.1888969000428915,True,35,0
JR-K-22K22S1,294,training,66,↓,down,↓,0.5990104000084102,True,35,1
JR-K-22K22S1,295,experiment,87,↓,down,↓,0.7137470999732614,True,35,1
JR-K-22K22S1,296,experiment,94,→,right,→,0.6692964998073876,True,35,1
JR-K-22K22S1,297,experiment,65,↑,up,↑,0.8203429998829961,True,35,1
JR-K-22K22S1,298,experiment,66,↑,up,↑,0.5654660000000149,True,35,1
JR-K-22K22S1,299,experiment,84,↑,up,↑,0.5944860999006778,True,35,1
JR-K-22K22S1,300,experiment,51,→,right,→,0.6333212000317872,True,35,1
JR-K-22K22S1,301,experiment,79,↑,up,↑,0.6374105999711901,True,35,1
JR-K-22K22S1,302,experiment,81,↓,down,↓,0.8563189001288265,True,35,1
JR-K-22K22S1,303,experiment,73,←,left,←,0.4617963000200689,True,35,1
JR-K-22K22S1,304,experiment,76,←,left,←,0.3761111998464912,True,35,0
JR-K-22K22S1,305,experiment,104,→,right,→,0.4711146999616176,True,35,0
JR-K-22K22S1,306,experiment,50,→,right,→,1.1628875001333654,True,35,1
JR-K-22K22S1,307,experiment,86,←,right,→,0.5272586999926716,False,35,1
JR-K-22K22S1,308,experiment,71,↑,up,↑,0.6344222999177873,True,35,1
JR-K-22K22S1,309,experiment,72,←,left,←,0.36750880000181496,True,35,1
JR-K-22K22S1,310,experiment,91,←,left,←,0.46756520005874336,True,35,0
JR-K-22K22S1,311,experiment,99,↑,right,→,0.9348186999559402,False,35,1
JR-K-22K22S1,312,experiment,67,↑,up,↑,0.8510462001431733,True,35,1
JR-K-22K22S1,313,experiment,64,↓,down,↓,0.555301999906078,True,35,1
JR-K-22K22S1,314,experiment,95,↓,down,↓,0.4931292000692338,True,35,1
JR-K-22K22S1,315,experiment,55,→,right,→,0.4340721000917256,True,35,1
JR-K-22K22S1,316,experiment,78,←,left,←,0.7787949999328703,True,35,0
JR-K-22K22S1,317,experiment,83,←,left,←,0.3929425000678748,True,35,1
JR-K-22K22S1,318,experiment,101,←,left,←,0.37586100003682077,True,35,0
JR-K-22K22S1,319,experiment,57,↑,up,↑,0.563336200080812,True,35,0
JR-K-22K22S1,320,experiment,77,←,right,→,0.8027099000755697,False,35,1
JR-K-22K22S1,321,experiment,69,↓,down,↓,1.2193374000489712,True,35,1
JR-K-22K22S1,322,experiment,106,↓,down,↓,1.0309013000223786,True,35,1
JR-K-22K22S1,323,experiment,75,←,left,←,0.6362557001411915,True,35,1
JR-K-22K22S1,324,experiment,103,↑,up,↑,0.5117319000419229,True,35,1
JR-K-22K22S1,325,experiment,108,→,right,→,0.40924330009147525,True,35,1
JR-K-22K22S1,326,experiment,93,→,right,→,0.4715052000246942,True,35,0
JR-K-22K22S1,327,experiment,70,←,left,←,0.6847397000528872,True,35,1
JR-K-22K22S1,328,experiment,60,→,right,→,0.46131389983929694,True,35,1
JR-K-22K22S1,329,experiment,53,↑,up,↑,0.5363060999661684,True,35,0
JR-K-22K22S1,330,experiment,68,↑,up,↑,0.7081047999672592,True,35,1
JR-K-22K22S1,331,experiment,96,→,right,→,0.6476265999954194,True,35,1
JR-K-22K22S1,332,experiment,107,→,right,→,0.46638070000335574,True,35,1
JR-K-22K22S1,333,experiment,80,↑,up,↑,0.6442225000355393,True,35,1
JR-K-22K22S1,334,experiment,48,↑,up,↑,0.4110612999647856,True,35,1
JR-K-22K22S1,335,experiment,100,↓,down,↓,0.7995891000609845,True,35,0
JR-K-22K22S1,336,experiment,56,↑,up,↑,0.4262033000122756,True,35,1
JR-K-22K22S1,337,experiment,102,↓,down,↓,0.4728415999561548,True,35,1
JR-K-22K22S1,338,experiment,89,↓,down,↓,0.4881474000867456,True,35,1
JR-K-22K22S1,339,experiment,63,←,left,←,0.47111130016855896,True,35,1
JR-K-22K22S1,340,experiment,74,↓,down,↓,0.491100599989295,True,35,1
JR-K-22K22S1,341,experiment,92,→,right,→,0.6086188999470323,True,35,1
JR-K-22K22S1,342,experiment,62,↓,down,↓,0.5553613000083715,True,35,1
JR-K-22K22S1,343,experiment,58,←,right,→,0.6495337998494506,False,35,1
JR-K-22K22S1,344,experiment,82,→,right,→,0.5556620999705046,True,35,1
JR-K-22K22S1,345,experiment,61,↓,down,↓,0.5448224002029747,True,35,1
JR-K-22K22S1,346,experiment,59,↑,up,↑,0.5114198999945074,True,35,1
JR-K-22K22S1,347,experiment,88,↓,up,↑,1.0456381000112742,False,35,1
JR-K-22K22S1,348,experiment,85,↓,down,↓,0.6546118999831378,True,35,1
JR-K-22K22S1,349,experiment,97,→,right,→,0.6357229000423104,True,35,1
JR-K-22K22S1,350,experiment,105,→,right,→,0.7350888000801206,True,35,1
JR-K-22K22S1,351,experiment,90,↓,down,↓,0.5394611998926848,True,35,1
JR-K-22K22S1,352,experiment,49,↑,right,→,0.9812085998710245,False,35,1
JR-K-22K22S1,353,experiment,52,↑,up,↑,0.4921866001095623,True,35,1
JR-K-22K22S1,354,experiment,98,↑,up,↑,0.4955338998697698,True,35,1
JR-K-22K22S1,355,experiment,54,↓,up,↑,0.8412897000089288,False,35,1
JR-K-22K22S1,356,training,60,↑,up,↑,0.47601619991473854,True,35,0
JR-K-22K22S1,357,training,77,→,right,→,0.5344509999267757,True,35,1
JR-K-22K22S1,358,experiment,89,↑,up,↑,0.6671163998544216,True,35,1
JR-K-22K22S1,359,experiment,106,←,right,→,1.2209751000627875,False,35,1
JR-K-22K22S1,360,experiment,71,←,right,→,0.603847400052473,False,35,1
JR-K-22K22S1,361,experiment,58,↓,down,↓,0.9199037998914719,True,35,1
JR-K-22K22S1,362,experiment,70,→,right,→,0.4682200001552701,True,35,1
JR-K-22K22S1,363,experiment,93,↓,up,↑,0.7135181999765337,False,35,1
JR-K-22K22S1,364,experiment,97,→,right,→,1.3079413000959903,True,35,1
JR-K-22K22S1,365,experiment,82,←,left,←,0.40895670000463724,True,35,1
JR-K-22K22S1,366,experiment,94,←,left,←,0.7317499001510441,True,35,0
JR-K-22K22S1,367,experiment,85,→,right,→,0.5697410001885146,True,35,1
JR-K-22K22S1,368,experiment,62,↑,right,→,0.5261780999135226,False,35,1
JR-K-22K22S1,369,experiment,96,→,right,→,0.5932395998388529,True,35,1
JR-K-22K22S1,370,experiment,72,↑,up,↑,0.7049362000543624,True,35,1
JR-K-22K22S1,371,experiment,78,↑,up,↑,0.7382708999793977,True,35,1
JR-K-22K22S1,372,experiment,83,←,left,←,0.7527656999882311,True,35,1
JR-K-22K22S1,373,experiment,65,←,left,←,1.3088297999929637,True,35,1
JR-K-22K22S1,374,experiment,104,↑,up,↑,0.581149699864909,True,35,1
JR-K-22K22S1,375,experiment,88,↓,down,↓,0.560598999960348,True,35,1
JR-K-22K22S1,376,experiment,59,→,left,←,0.558170499978587,False,35,1
JR-K-22K22S1,377,experiment,99,→,left,←,0.7505423999391496,False,35,1
JR-K-22K22S1,378,experiment,52,↓,down,↓,0.7349735000170767,True,35,1
JR-K-22K22S1,379,experiment,51,↑,up,↑,0.57624760014005,True,35,1
JR-K-22K22S1,380,experiment,105,↑,up,↑,1.1338163998443633,True,35,1
JR-K-22K22S1,381,experiment,98,↑,up,↑,0.44285520003177226,True,35,1
JR-K-22K22S1,382,experiment,60,↓,up,↑,1.19355500000529,False,35,0
JR-K-22K22S1,383,experiment,55,↑,up,↑,0.4870446000713855,True,35,1
JR-K-22K22S1,384,experiment,87,→,right,→,0.5982607000041753,True,35,1
JR-K-22K22S1,385,experiment,80,←,right,→,0.5392954000271857,False,35,1
JR-K-22K22S1,386,experiment,76,↓,down,↓,0.8358932000119239,True,35,1
JR-K-22K22S1,387,experiment,81,↑,up,↑,0.5588498001452535,True,35,1
JR-K-22K22S1,388,experiment,53,↓,down,↓,0.6388598000630736,True,35,1
JR-K-22K22S1,389,experiment,63,←,left,←,0.7037158999592066,True,35,1
JR-K-22K22S1,390,experiment,73,←,left,←,0.6668495999183506,True,35,1
JR-K-22K22S1,391,experiment,86,→,right,→,0.5873751000035554,True,35,1
JR-K-22K22S1,392,experiment,95,↓,left,←,0.5635531998705119,False,35,1
JR-K-22K22S1,393,experiment,108,↓,down,↓,0.6325648999772966,True,35,1
JR-K-22K22S1,394,experiment,92,→,right,→,0.6403467999771237,True,35,1
JR-K-22K22S1,395,experiment,56,↓,down,↓,0.5636104000732303,True,35,1
JR-K-22K22S1,396,experiment,48,↓,down,↓,0.5727188000455499,True,35,1
JR-K-22K22S1,397,experiment,61,↑,up,↑,0.7211353001184762,True,35,1
JR-K-22K22S1,398,experiment,79,↑,up,↑,0.6019607000052929,True,35,1
JR-K-22K22S1,399,experiment,103,→,right,→,0.47923910012468696,True,35,1
JR-K-22K22S1,400,experiment,49,→,right,→,0.5714542001951486,True,35,1
JR-K-22K22S1,401,experiment,50,↑,up,↑,0.5477917999960482,True,35,1
JR-K-22K22S1,402,experiment,90,→,right,→,0.7033094000071287,True,35,1
JR-K-22K22S1,403,experiment,66,→,right,→,1.2847798999864608,True,35,1
JR-K-22K22S1,404,experiment,91,↓,left,←,0.8748266000766307,False,35,1
JR-K-22K22S1,405,experiment,102,↓,down,↓,0.6696403999812901,True,35,1
JR-K-22K22S1,406,experiment,77,↓,down,↓,0.5450664001982659,True,35,1
JR-K-22K22S1,407,experiment,74,←,left,←,0.6588123999536037,True,35,1
JR-K-22K22S1,408,experiment,64,←,left,←,0.6104222999420017,True,35,1
JR-K-22K22S1,409,experiment,67,←,left,←,0.5314902998507023,True,35,1
JR-K-22K22S1,410,experiment,101,←,left,←,0.5003488999791443,True,35,1
JR-K-22K22S1,411,experiment,75,↓,down,↓,0.7430718000978231,True,35,1
JR-K-22K22S1,412,experiment,54,↓,down,↓,0.6389270999934524,True,35,1
JR-K-22K22S1,413,experiment,57,↑,down,↓,0.6900452000554651,False,35,1
JR-K-22K22S1,414,experiment,69,↓,down,↓,0.519188700011,True,35,1
JR-K-22K22S1,415,experiment,68,←,left,←,0.6195224998518825,True,35,1
JR-K-22K22S1,416,experiment,107,←,left,←,0.5669023001100868,True,35,1
JR-K-22K22S1,417,experiment,100,←,left,←,0.5106836999766529,True,35,1
JR-K-22K22S1,418,experiment,84,←,left,←,0.5181221999228001,True,35,1
JR-K-22K22S1,419,training,82,←,left,←,0.5709198999684304,True,35,0
JR-K-22K22S1,420,training,97,→,right,→,0.6672837999649346,True,35,1
JR-K-22K22S1,421,experiment,78,→,right,→,0.6943371000234038,True,35,1
JR-K-22K22S1,422,experiment,91,→,left,←,0.7241323001217097,False,35,1
JR-K-22K22S1,423,experiment,74,↑,right,→,0.910072400001809,False,35,1
JR-K-22K22S1,424,experiment,61,↓,down,↓,0.7411460999865085,True,35,1
JR-K-22K22S1,425,experiment,52,←,left,←,0.6858325998764485,True,35,1
JR-K-22K22S1,426,experiment,66,→,right,→,0.6677899002097547,True,35,1
JR-K-22K22S1,427,experiment,75,↓,down,↓,0.6877882999833673,True,35,1
JR-K-22K22S1,428,experiment,59,←,left,←,0.6884244999382645,True,35,1
JR-K-22K22S1,429,experiment,55,←,left,←,0.40924550010822713,True,35,1
JR-K-22K22S1,430,experiment,51,↓,down,↓,0.6482311000581831,True,35,0
JR-K-22K22S1,431,experiment,65,↑,up,↑,0.7123143000062555,True,35,1
JR-K-22K22S1,432,experiment,106,↓,down,↓,0.5118276998400688,True,35,1
JR-K-22K22S1,433,experiment,63,↑,up,↑,0.6383155002258718,True,35,1
JR-K-22K22S1,434,experiment,90,←,left,←,0.5662644000258297,True,35,1
JR-K-22K22S1,435,experiment,64,↑,up,↑,0.4981686999090016,True,35,1
JR-K-22K22S1,436,experiment,50,↓,down,↓,0.6531358000356704,True,35,1
JR-K-22K22S1,437,experiment,100,→,right,→,0.7373622001614422,True,35,1
JR-K-22K22S1,438,experiment,72,↑,up,↑,0.6199074999894947,True,35,1
JR-K-22K22S1,439,experiment,104,→,right,→,0.48793890001252294,True,35,1
JR-K-22K22S1,440,experiment,76,←,left,←,0.5224797001574188,True,35,1
JR-K-22K22S1,441,experiment,108,↑,up,↑,0.6893807000014931,True,35,1
JR-K-22K22S1,442,experiment,80,↑,up,↑,0.6348773001227528,True,35,1
JR-K-22K22S1,443,experiment,56,→,right,→,0.6943878999445587,True,35,1
JR-K-22K22S1,444,experiment,58,←,left,←,1.0789693999104202,True,35,1
JR-K-22K22S1,445,experiment,70,↑,up,↑,0.6598276000004262,True,35,1
JR-K-22K22S1,446,experiment,69,←,left,←,0.46675160015001893,True,35,1
JR-K-22K22S1,447,experiment,54,↓,down,↓,0.7971562000457197,True,35,1
JR-K-22K22S1,448,experiment,94,↓,down,↓,0.6134001999162138,True,35,1
JR-K-22K22S1,449,experiment,87,←,left,←,0.711588499834761,True,35,1
JR-K-22K22S1,450,experiment,95,↓,down,↓,0.682788799982518,True,35,1
JR-K-22K22S1,451,experiment,73,→,right,→,1.2948132001329213,True,35,1
JR-K-22K22S1,452,experiment,48,↑,down,↓,1.0108988999854773,False,35,1
JR-K-22K22S1,453,experiment,53,←,left,←,0.6645108999218792,True,35,1
JR-K-22K22S1,454,experiment,92,↑,down,↓,0.7986901998519897,False,35,1
JR-K-22K22S1,455,experiment,49,↓,down,↓,0.558093799976632,True,35,1
JR-K-22K22S1,456,experiment,71,→,right,→,0.48780610016547143,True,35,1
JR-K-22K22S1,457,experiment,105,↓,down,↓,0.6566969000268728,True,35,1
JR-K-22K22S1,458,experiment,96,←,left,←,0.47825099993497133,True,35,1
JR-K-22K22S1,459,experiment,68,→,right,→,0.6839218998793513,True,35,1
JR-K-22K22S1,460,experiment,88,←,left,←,1.2748123998753726,True,35,1
JR-K-22K22S1,461,experiment,93,↓,down,↓,0.600823299959302,True,35,1
JR-K-22K22S1,462,experiment,77,↑,up,↑,0.7504511999431998,True,35,1
JR-K-22K22S1,463,experiment,102,↑,up,↑,0.590295200003311,True,35,1
JR-K-22K22S1,464,experiment,85,←,left,←,0.5619429999496788,True,35,1
JR-K-22K22S1,465,experiment,79,→,right,→,0.5527672001626343,True,35,1
JR-K-22K22S1,466,experiment,86,→,right,→,0.5018123998306692,True,35,1
JR-K-22K22S1,467,experiment,83,→,right,→,0.5979106999002397,True,35,1
JR-K-22K22S1,468,experiment,57,←,left,←,0.41752339992672205,True,35,1
JR-K-22K22S1,469,experiment,84,→,right,→,0.6053005000576377,True,35,0
JR-K-22K22S1,470,experiment,82,→,right,→,0.7934458001982421,True,35,1
JR-K-22K22S1,471,experiment,107,↓,left,←,0.48588150017894804,False,35,1
JR-K-22K22S1,472,experiment,103,↓,down,↓,0.5116117999423295,True,35,1
JR-K-22K22S1,473,experiment,60,↑,up,↑,0.5113470000214875,True,35,1
JR-K-22K22S1,474,experiment,62,↑,right,→,1.109762999927625,False,35,1
JR-K-22K22S1,475,experiment,89,↑,up,↑,0.7876794999465346,True,35,1
JR-K-22K22S1,476,experiment,101,←,left,←,0.657916700001806,True,35,1
JR-K-22K22S1,477,experiment,97,←,left,←,0.5749452000018209,True,35,1
JR-K-22K22S1,478,experiment,67,→,right,→,0.43410629988648,True,35,1
JR-K-22K22S1,479,experiment,99,↑,up,↑,0.5023814998567104,True,35,0
JR-K-22K22S1,480,experiment,98,↓,down,↓,0.6494801000226289,True,35,1
JR-K-22K22S1,481,experiment,81,↑,up,↑,0.5562646000180393,True,35,1
JR-K-22K22S1,482,training,86,↓,down,↓,1.1131034998688847,True,34,0
JR-K-22K22S1,483,training,87,←,left,←,0.4871807999443263,True,34,1
JR-K-22K22S1,484,experiment,85,←,left,←,1.150651599979028,True,34,1
JR-K-22K22S1,485,experiment,98,←,left,←,0.4011039000470191,True,34,1
JR-K-22K22S1,486,experiment,48,↑,up,↑,0.5753011000342667,True,34,1
JR-K-22K22S1,487,experiment,95,→,right,→,0.41825410001911223,True,34,1
JR-K-22K22S1,488,experiment,103,↓,down,↓,0.596525700064376,True,34,1
JR-K-22K22S1,489,experiment,87,←,left,←,0.45561770000495017,True,34,1
JR-K-22K22S1,490,experiment,60,↑,up,↑,0.7448913999833167,True,34,1
JR-K-22K22S1,491,experiment,51,↓,down,↓,0.60987180005759,True,34,1
JR-K-22K22S1,492,experiment,93,↓,down,↓,0.6343624000437558,True,34,1
JR-K-22K22S1,493,experiment,49,←,left,←,0.464622899889946,True,34,1
JR-K-22K22S1,494,experiment,75,→,right,→,0.7002151000779122,True,34,1
JR-K-22K22S1,495,experiment,84,←,left,←,0.6680808998644352,True,34,1
JR-K-22K22S1,496,experiment,52,↓,down,↓,0.6799710001796484,True,34,1
JR-K-22K22S1,497,experiment,55,←,left,←,0.42760689998976886,True,34,1
JR-K-22K22S1,498,experiment,62,↓,down,↓,0.5233603999949992,True,34,0
JR-K-22K22S1,499,experiment,107,↓,down,↓,0.5144925999920815,True,34,1
JR-K-22K22S1,500,experiment,71,↓,down,↓,1.3817081002052873,True,34,1
JR-K-22K22S1,501,experiment,76,↓,down,↓,1.2526941997930408,True,34,1
JR-K-22K22S1,502,experiment,108,↑,up,↑,0.6700695999898016,True,34,1
JR-K-22K22S1,503,experiment,61,↑,up,↑,0.5511759999208152,True,34,1
JR-K-22K22S1,504,experiment,66,←,left,←,0.6185987000353634,True,34,1
JR-K-22K22S1,505,experiment,54,↓,down,↓,0.5755219000857323,True,34,1
JR-K-22K22S1,506,experiment,101,↓,down,↓,0.7026452000718564,True,34,1
JR-K-22K22S1,507,experiment,59,↑,up,↑,0.6787330000661314,True,34,1
JR-K-22K22S1,508,experiment,80,↓,down,↓,0.7605145000852644,True,34,1
JR-K-22K22S1,509,experiment,78,←,left,←,0.5758691001683474,True,34,1
JR-K-22K22S1,510,experiment,106,→,right,→,0.5573613999877125,True,34,1
JR-K-22K22S1,511,experiment,102,→,right,→,0.532712500076741,True,34,1
JR-K-22K22S1,512,experiment,53,↓,down,↓,0.9732524999417365,True,34,1
JR-K-22K22S1,513,experiment,72,←,left,←,0.5979182999581099,True,34,1
JR-K-22K22S1,514,experiment,89,↓,down,↓,0.6879979001823813,True,34,1
JR-K-22K22S1,515,experiment,81,←,left,←,0.5050551998429,True,34,1
JR-K-22K22S1,516,experiment,82,↓,down,↓,0.7211841000244021,True,34,1
JR-K-22K22S1,517,experiment,105,←,left,←,0.45707189990207553,True,34,1
JR-K-22K22S1,518,experiment,73,↓,down,↓,0.6940182000398636,True,34,1
JR-K-22K22S1,519,experiment,104,←,left,←,0.4551498999353498,True,34,1
JR-K-22K22S1,520,experiment,74,↑,up,↑,0.6999520999379456,True,34,0
JR-K-22K22S1,521,experiment,64,↓,down,↓,0.42757539986632764,True,34,1
JR-K-22K22S1,522,experiment,96,↑,down,↓,0.7684863999020308,False,34,1
JR-K-22K22S1,523,experiment,92,↓,down,↓,0.5067410001065582,True,34,1
JR-K-22K22S1,524,experiment,79,←,down,↓,0.7640398999210447,False,34,1
JR-K-22K22S1,525,experiment,50,↑,up,↑,0.7563984000589699,True,34,1
JR-K-22K22S1,526,experiment,70,←,left,←,0.48630889994092286,True,34,1
JR-K-22K22S1,527,experiment,97,←,left,←,0.6022085999138653,True,34,1
JR-K-22K22S1,528,experiment,77,→,right,→,0.5042123000603169,True,34,1
JR-K-22K22S1,529,experiment,99,→,right,→,0.4094428000971675,True,34,1
JR-K-22K22S1,530,experiment,68,←,left,←,0.5312753000762314,True,34,1
JR-K-22K22S1,531,experiment,58,→,left,←,0.4984468000475317,False,34,1
JR-K-22K22S1,532,experiment,67,←,left,←,0.6077038999646902,True,34,1
JR-K-22K22S1,533,experiment,56,←,left,←,0.5245266000274569,True,34,1
JR-K-22K22S1,534,experiment,86,←,left,←,0.6985516999848187,True,34,1
JR-K-22K22S1,535,experiment,65,↑,left,←,1.0727455001324415,False,34,1
JR-K-22K22S1,536,experiment,91,→,right,→,0.4709896999411285,True,34,1
JR-K-22K22S1,537,experiment,57,←,left,←,0.6246159998700023,True,34,1
JR-K-22K22S1,538,experiment,88,→,right,→,0.7702405999880284,True,34,1
JR-K-22K22S1,539,experiment,90,←,left,←,0.5092589999549091,True,34,1
JR-K-22K22S1,540,experiment,100,↑,left,←,0.8472154999617487,False,34,1
JR-K-22K22S1,541,experiment,63,←,left,←,0.47985509992577136,True,34,1
JR-K-22K22S1,542,experiment,83,↑,up,↑,0.8808610001578927,True,34,1
JR-K-22K22S1,543,experiment,94,→,right,→,0.8376208001282066,True,34,1
JR-K-22K22S1,544,experiment,69,→,right,→,0.5644531000871211,True,34,1
JR-K-22K22S1,545,training,88,↑,up,↑,0.6150130000896752,True,33,0
JR-K-22K22S1,546,training,93,←,left,←,0.5990841998718679,True,33,1
JR-K-22K22S1,547,experiment,99,←,left,←,0.40119810006581247,True,33,1
JR-K-22K22S1,548,experiment,84,↓,down,↓,0.5528359001036733,True,33,1
JR-K-22K22S1,549,experiment,83,↑,up,↑,0.5588869000785053,True,33,1
JR-K-22K22S1,550,experiment,61,→,left,←,0.6280328000430018,False,33,1
JR-K-22K22S1,551,experiment,106,↑,up,↑,0.527282000053674,True,33,1
JR-K-22K22S1,552,experiment,66,→,right,→,0.8200234000105411,True,33,1
JR-K-22K22S1,553,experiment,53,→,right,→,0.4025298000779003,True,33,1
JR-K-22K22S1,554,experiment,90,→,right,→,0.6503190000075847,True,33,0
JR-K-22K22S1,555,experiment,73,↓,down,↓,0.5356621001847088,True,33,1
JR-K-22K22S1,556,experiment,101,→,right,→,0.6720339001622051,True,33,1
JR-K-22K22S1,557,experiment,54,↓,down,↓,0.8828392999712378,True,33,1
JR-K-22K22S1,558,experiment,87,→,right,→,0.4741146999876946,True,33,1
JR-K-22K22S1,559,experiment,50,↑,right,→,0.9344333000481129,False,33,1
JR-K-22K22S1,560,experiment,72,←,left,←,0.5926245001610368,True,33,1
JR-K-22K22S1,561,experiment,76,↑,right,→,0.417694800067693,False,33,1
JR-K-22K22S1,562,experiment,70,↑,up,↑,0.7027914000209421,True,33,0
JR-K-22K22S1,563,experiment,79,↑,up,↑,0.5361319000367075,True,33,1
JR-K-22K22S1,564,experiment,63,↓,down,↓,0.5576134000439197,True,33,1
JR-K-22K22S1,565,experiment,58,↑,up,↑,0.5556383000221103,True,33,1
JR-K-22K22S1,566,experiment,69,→,up,↑,0.9419076999183744,False,33,1
JR-K-22K22S1,567,experiment,74,↑,up,↑,0.5353565998375416,True,33,1
JR-K-22K22S1,568,experiment,57,↓,down,↓,0.6309972999151796,True,33,1
JR-K-22K22S1,569,experiment,62,↑,up,↑,0.6641154000535607,True,33,1
JR-K-22K22S1,570,experiment,82,↓,down,↓,0.7139236000366509,True,33,1
JR-K-22K22S1,571,experiment,52,↓,down,↓,0.4754691000562161,True,33,1
JR-K-22K22S1,572,experiment,107,↑,up,↑,0.5245983998756856,True,33,1
JR-K-22K22S1,573,experiment,67,→,right,→,0.5210438000503927,True,33,1
JR-K-22K22S1,574,experiment,86,↓,down,↓,0.7751482001040131,True,33,1
JR-K-22K22S1,575,experiment,65,↓,down,↓,0.4901990999933332,True,33,1
JR-K-22K22S1,576,experiment,48,←,left,←,0.7823350999969989,True,33,1
JR-K-22K22S1,577,experiment,88,↓,down,↓,0.47336489986628294,True,33,1
JR-K-22K22S1,578,experiment,78,↑,up,↑,0.8120573998894542,True,33,1
JR-K-22K22S1,579,experiment,59,→,right,→,0.5597916999831796,True,33,1
JR-K-22K22S1,580,experiment,96,→,right,→,0.5294029000215232,True,33,1
JR-K-22K22S1,581,experiment,100,↓,down,↓,0.6742657001595944,True,33,1
JR-K-22K22S1,582,experiment,85,→,right,→,0.6185798000078648,True,33,1
JR-K-22K22S1,583,experiment,64,↑,up,↑,0.6680906000547111,True,33,1
JR-K-22K22S1,584,experiment,104,←,left,←,0.7023519999347627,True,33,1
JR-K-22K22S1,585,experiment,91,←,left,←,0.5237102000974119,True,33,1
JR-K-22K22S1,586,experiment,60,↑,up,↑,0.6345367000903934,True,33,1
JR-K-22K22S1,587,experiment,93,←,left,←,0.48182600014843047,True,33,1
JR-K-22K22S1,588,experiment,68,↓,down,↓,0.7275650999508798,True,33,1
JR-K-22K22S1,589,experiment,105,↓,down,↓,0.5831468999385834,True,33,1
JR-K-22K22S1,590,experiment,81,↓,down,↓,0.556703899987042,True,33,1
JR-K-22K22S1,591,experiment,95,↓,down,↓,0.5901671000756323,True,33,1
JR-K-22K22S1,592,experiment,56,←,left,←,0.7558444000314921,True,33,1
JR-K-22K22S1,593,experiment,97,↑,up,↑,0.7008497999049723,True,33,1
JR-K-22K22S1,594,experiment,71,↑,up,↑,0.7286988999694586,True,33,1
JR-K-22K22S1,595,experiment,49,←,left,←,0.5149612000677735,True,33,1
JR-K-22K22S1,596,experiment,108,→,right,→,0.6499641998670995,True,33,1
JR-K-22K22S1,597,experiment,75,↑,up,↑,0.6546543999575078,True,33,1
JR-K-22K22S1,598,experiment,55,↓,down,↓,0.6497961001005024,True,33,1
JR-K-22K22S1,599,experiment,102,←,left,←,0.7174150999635458,True,33,1
JR-K-22K22S1,600,experiment,77,→,right,→,0.6149861000012606,True,33,1
JR-K-22K22S1,601,experiment,89,↑,up,↑,0.7279811999760568,True,33,1
JR-K-22K22S1,602,experiment,92,→,right,→,0.5641394001431763,True,33,1
JR-K-22K22S1,603,experiment,51,→,right,→,0.46878209989517927,True,33,1
JR-K-22K22S1,604,experiment,80,←,left,←,0.8544422998093069,True,33,1
JR-K-22K22S1,605,experiment,94,←,left,←,0.5566279001068324,True,33,1
JR-K-22K22S1,606,experiment,103,→,right,→,0.6356778999324888,True,33,1
JR-K-22K22S1,607,experiment,98,↓,down,↓,0.7131994999945164,True,33,1
JR-K-22K22S1,608,training,90,→,right,→,0.6427152999676764,True,32,0
JR-K-22K22S1,609,training,54,↓,down,↓,0.6466454998590052,True,32,1
JR-K-22K22S1,610,experiment,100,↑,up,↑,0.7148967001121491,True,32,1
JR-K-22K22S1,611,experiment,52,←,left,←,0.47675590007565916,True,32,1
JR-K-22K22S1,612,experiment,54,←,left,←,0.7756036000791937,True,32,1
JR-K-22K22S1,613,experiment,75,→,right,→,0.599420899990946,True,32,1
JR-K-22K22S1,614,experiment,59,↑,up,↑,0.587390200002119,True,32,1
JR-K-22K22S1,615,experiment,49,→,up,↑,0.7710903999395669,False,32,1
JR-K-22K22S1,616,experiment,53,↓,down,↓,0.6101754999253899,True,32,1
JR-K-22K22S1,617,experiment,51,↑,up,↑,0.5606912998482585,True,32,1
JR-K-22K22S1,618,experiment,83,↓,down,↓,0.518178400117904,True,32,1
JR-K-22K22S1,619,experiment,56,↑,up,↑,0.5105838999152184,True,32,1
JR-K-22K22S1,620,experiment,76,↑,up,↑,1.1527707998175174,True,32,1
JR-K-22K22S1,621,experiment,68,↓,down,↓,0.7158605000004172,True,32,1
JR-K-22K22S1,622,experiment,78,←,left,←,0.6689191998448223,True,32,1
JR-K-22K22S1,623,experiment,80,↑,up,↑,0.591040400089696,True,32,1
JR-K-22K22S1,624,experiment,74,↓,up,↑,0.9664807999506593,False,32,1
JR-K-22K22S1,625,experiment,87,→,right,→,0.4666474999394268,True,32,1
JR-K-22K22S1,626,experiment,107,→,left,←,0.7240567000117153,False,32,1
JR-K-22K22S1,627,experiment,69,→,right,→,0.5677457000128925,True,32,1
JR-K-22K22S1,628,experiment,77,←,left,←,0.5829645001795143,True,32,1
JR-K-22K22S1,629,experiment,101,→,right,→,0.7577884998172522,True,32,1
JR-K-22K22S1,630,experiment,61,←,left,←,0.7147462000139058,True,32,1
JR-K-22K22S1,631,experiment,63,↓,down,↓,0.6331525999121368,True,32,1
JR-K-22K22S1,632,experiment,99,↓,down,↓,0.5503795000258833,True,32,1
JR-K-22K22S1,633,experiment,64,←,left,←,0.9865304999984801,True,32,1
JR-K-22K22S1,634,experiment,106,↓,down,↓,0.7036840999498963,True,32,1
JR-K-22K22S1,635,experiment,81,↑,up,↑,0.7523775000590831,True,32,1
JR-K-22K22S1,636,experiment,88,↓,down,↓,0.7167048000264913,True,32,1
JR-K-22K22S1,637,experiment,95,↓,down,↓,0.5680486999917775,True,32,1
JR-K-22K22S1,638,experiment,93,←,left,←,0.6981073999777436,True,32,1
JR-K-22K22S1,639,experiment,98,←,left,←,0.6612102999351919,True,32,1
JR-K-22K22S1,640,experiment,71,↓,down,↓,0.7788364998996258,True,32,1
JR-K-22K22S1,641,experiment,79,←,left,←,0.5848600999452174,True,32,1
JR-K-22K22S1,642,experiment,97,↑,up,↑,0.7049153000116348,True,32,1
JR-K-22K22S1,643,experiment,96,↑,up,↑,0.7083835999947041,True,32,1
JR-K-22K22S1,644,experiment,94,↑,up,↑,0.9604595000855625,True,32,1
JR-K-22K22S1,645,experiment,105,↑,up,↑,0.630742099834606,True,32,1
JR-K-22K22S1,646,experiment,103,↑,up,↑,0.5145429000258446,True,32,1
JR-K-22K22S1,647,experiment,50,↓,up,↑,0.7889662000816315,False,32,1
JR-K-22K22S1,648,experiment,65,←,up,↑,0.9434895999729633,False,32,1
JR-K-22K22S1,649,experiment,60,→,right,→,0.6055525001138449,True,32,1
JR-K-22K22S1,650,experiment,89,→,right,→,0.5270989998243749,True,32,1
JR-K-22K22S1,651,experiment,70,←,left,←,0.7623116998001933,True,32,1
JR-K-22K22S1,652,experiment,66,→,right,→,0.5813054000027478,True,32,1
JR-K-22K22S1,653,experiment,92,←,right,→,0.9589236997999251,False,32,1
JR-K-22K22S1,654,experiment,55,↑,up,↑,0.6380970000755042,True,32,1
JR-K-22K22S1,655,experiment,48,↑,up,↑,0.5243462999351323,True,32,1
JR-K-22K22S1,656,experiment,82,↑,up,↑,0.819821699988097,True,32,1
JR-K-22K22S1,657,experiment,102,→,right,→,0.6646056999452412,True,32,1
JR-K-22K22S1,658,experiment,67,→,right,→,0.45548530016094446,True,32,1
JR-K-22K22S1,659,experiment,104,←,left,←,0.4821383999660611,True,32,1
JR-K-22K22S1,660,experiment,85,→,right,→,0.45818380010314286,True,32,1
JR-K-22K22S1,661,experiment,72,←,left,←,0.6075804999563843,True,32,1
JR-K-22K22S1,662,experiment,73,→,right,→,0.5825076000764966,True,32,1
JR-K-22K22S1,663,experiment,90,→,right,→,0.6170840999111533,True,32,1
JR-K-22K22S1,664,experiment,91,↑,up,↑,0.6256687000859529,True,32,1
JR-K-22K22S1,665,experiment,62,↑,up,↑,0.7397380000911653,True,32,1
JR-K-22K22S1,666,experiment,57,→,right,→,0.409615800017491,True,32,1
JR-K-22K22S1,667,experiment,86,←,left,←,0.5974734998308122,True,32,0
JR-K-22K22S1,668,experiment,58,↑,up,↑,0.6816114000976086,True,32,1
JR-K-22K22S1,669,experiment,108,↑,up,↑,0.7378601001109928,True,32,1
JR-K-22K22S1,670,experiment,84,↓,down,↓,0.5920097001362592,True,32,1
JR-K-22K22S1,671,training,98,→,right,→,0.6869703000411391,True,31,0
JR-K-22K22S1,672,training,85,←,left,←,0.43131789984181523,True,31,1
JR-K-22K22S1,673,experiment,105,←,left,←,0.6420042999088764,True,31,0
JR-K-22K22S1,674,experiment,56,←,left,←,0.3844742998480797,True,31,1
JR-K-22K22S1,675,experiment,103,↓,down,↓,0.4910999999847263,True,31,1
JR-K-22K22S1,676,experiment,90,←,left,←,0.6652657000813633,True,31,1
JR-K-22K22S1,677,experiment,69,↑,up,↑,0.7351621000561863,True,31,1
JR-K-22K22S1,678,experiment,107,→,left,←,0.6215812000446022,False,31,1
JR-K-22K22S1,679,experiment,95,→,left,←,0.5887472999747843,False,31,1
JR-K-22K22S1,680,experiment,89,→,left,←,0.6310793999582529,False,31,1
JR-K-22K22S1,681,experiment,91,↓,left,←,0.6071107001043856,False,31,1
JR-K-22K22S1,682,experiment,80,→,right,→,1.1875122000928968,True,31,1
JR-K-22K22S1,683,experiment,85,↓,down,↓,0.6634670000057667,True,31,1
JR-K-22K22S1,684,experiment,108,↑,up,↑,0.5604858999140561,True,31,1
JR-K-22K22S1,685,experiment,102,↑,up,↑,0.7838028999976814,True,31,1
JR-K-22K22S1,686,experiment,53,→,right,→,1.118442399892956,True,31,1
JR-K-22K22S1,687,experiment,49,→,right,→,0.513160299975425,True,31,1
JR-K-22K22S1,688,experiment,98,→,right,→,0.40107360016554594,True,31,1
JR-K-22K22S1,689,experiment,84,→,right,→,0.7592456999700516,True,31,0
JR-K-22K22S1,690,experiment,92,→,right,→,1.1216207998804748,True,31,1
JR-K-22K22S1,691,experiment,73,↑,up,↑,0.5560987999197096,True,31,1
JR-K-22K22S1,692,experiment,74,←,left,←,0.6606507000979036,True,31,1
JR-K-22K22S1,693,experiment,97,↑,up,↑,0.8493979000486434,True,31,1
JR-K-22K22S1,694,experiment,76,→,right,→,0.7898570999968797,True,31,1
JR-K-22K22S1,695,experiment,77,→,right,→,0.6442738999612629,True,31,1
JR-K-22K22S1,696,experiment,64,↑,up,↑,0.6765908999368548,True,31,1
JR-K-22K22S1,697,experiment,93,↑,up,↑,0.6981358998455107,True,31,1
JR-K-22K22S1,698,experiment,71,→,right,→,0.5741379000246525,True,31,1
JR-K-22K22S1,699,experiment,83,↑,up,↑,0.6433369000442326,True,31,1
JR-K-22K22S1,700,experiment,100,↓,up,↑,0.8961640000343323,False,31,1
JR-K-22K22S1,701,experiment,50,↓,up,↑,0.995501299854368,False,31,1
JR-K-22K22S1,702,experiment,48,↑,up,↑,0.6992373000830412,True,31,1
JR-K-22K22S1,703,experiment,81,←,left,←,0.7638817999977618,True,31,1
JR-K-22K22S1,704,experiment,51,→,left,←,0.7957681999541819,False,31,1
JR-K-22K22S1,705,experiment,78,→,right,→,0.9696192000992596,True,31,1
JR-K-22K22S1,706,experiment,62,→,right,→,0.47789199999533594,True,31,1
JR-K-22K22S1,707,experiment,101,←,left,←,0.4894973000045866,True,31,1
JR-K-22K22S1,708,experiment,65,←,left,←,1.1833760000299662,True,31,1
JR-K-22K22S1,709,experiment,67,↑,up,↑,0.5214641999918967,True,31,1
JR-K-22K22S1,710,experiment,66,→,right,→,0.7579860999248922,True,31,1
JR-K-22K22S1,711,experiment,63,←,right,→,0.802639199886471,False,31,1
JR-K-22K22S1,712,experiment,61,←,left,←,0.37545909988693893,True,31,1
JR-K-22K22S1,713,experiment,59,↑,up,↑,0.5145388001110405,True,31,0
JR-K-22K22S1,714,experiment,79,↓,up,↑,0.6674925000406802,False,31,1
JR-K-22K22S1,715,experiment,70,→,right,→,0.4492863998748362,True,31,1
JR-K-22K22S1,716,experiment,96,←,left,←,0.6550032000523061,True,31,1
JR-K-22K22S1,717,experiment,52,↑,up,↑,0.4095737999305129,True,31,1
JR-K-22K22S1,718,experiment,55,↓,down,↓,0.5678424001671374,True,31,1
JR-K-22K22S1,719,experiment,68,→,left,←,0.6825321998912841,False,31,1
JR-K-22K22S1,720,experiment,82,↓,left,←,0.7631284000817686,False,31,1
JR-K-22K22S1,721,experiment,58,←,left,←,0.43330580019392073,True,31,1
JR-K-22K22S1,722,experiment,72,←,left,←,0.6154442999977618,True,31,0
JR-K-22K22S1,723,experiment,87,↓,down,↓,0.5854060999117792,True,31,1
JR-K-22K22S1,724,experiment,86,→,down,↓,0.8771162999328226,False,31,1
JR-K-22K22S1,725,experiment,75,→,left,←,0.6967947001103312,False,31,1
JR-K-22K22S1,726,experiment,54,←,left,←,0.7066762999165803,True,31,1
JR-K-22K22S1,727,experiment,57,↑,left,←,0.5229509000200778,False,31,1
JR-K-22K22S1,728,experiment,104,↓,right,→,0.827124300180003,False,31,1
JR-K-22K22S1,729,experiment,60,←,left,←,0.789569899905473,True,31,1
JR-K-22K22S1,730,experiment,106,←,left,←,0.49000210012309253,True,31,1
JR-K-22K22S1,731,experiment,99,→,right,→,0.46903910022228956,True,31,1
JR-K-22K22S1,732,experiment,88,→,right,→,0.40946189989335835,True,31,1
JR-K-22K22S1,733,experiment,94,↓,left,←,0.7727947998791933,False,31,0
JR-K-22K22S1,734,training,94,↓,down,↓,0.46025540004484355,True,31,0
JR-K-22K22S1,735,training,104,←,left,←,0.5909706999082118,True,31,1
JR-K-22K22S1,736,experiment,74,→,left,←,0.4780911998823285,False,31,1
JR-K-22K22S1,737,experiment,91,→,right,→,0.37611690000630915,True,31,1
JR-K-22K22S1,738,experiment,102,↑,right,→,0.9144753001164645,False,31,1
JR-K-22K22S1,739,experiment,68,←,left,←,0.3921672001015395,True,31,1
JR-K-22K22S1,740,experiment,105,←,left,←,0.6036411998793483,True,31,0
JR-K-22K22S1,741,experiment,61,↑,up,↑,0.6228388999588788,True,31,1
JR-K-22K22S1,742,experiment,69,↑,up,↑,1.0224198999349028,True,31,1
JR-K-22K22S1,743,experiment,71,↓,up,↑,0.7013950000982732,False,31,1
JR-K-22K22S1,744,experiment,97,→,right,→,0.6968654000665992,True,31,1
JR-K-22K22S1,745,experiment,83,←,left,←,0.7287535998038948,True,31,1
JR-K-22K22S1,746,experiment,99,→,right,→,0.7382417998742312,True,31,1
JR-K-22K22S1,747,experiment,75,→,right,→,0.5713167998474091,True,31,1
JR-K-22K22S1,748,experiment,64,→,right,→,0.6229753000661731,True,31,1
JR-K-22K22S1,749,experiment,96,↓,down,↓,0.8936987000051886,True,31,1
JR-K-22K22S1,750,experiment,57,←,left,←,0.446629700018093,True,31,1
JR-K-22K22S1,751,experiment,80,→,right,→,0.6098595999646932,True,31,1
JR-K-22K22S1,752,experiment,106,↑,right,→,0.7494187999982387,False,31,1
JR-K-22K22S1,753,experiment,95,↓,down,↓,0.519352100091055,True,31,1
JR-K-22K22S1,754,experiment,90,↓,down,↓,0.4687975998967886,True,31,1
JR-K-22K22S1,755,experiment,86,↑,up,↑,0.5412168998736888,True,31,1
JR-K-22K22S1,756,experiment,100,→,right,→,0.5977635001763701,True,31,1
JR-K-22K22S1,757,experiment,54,↑,up,↑,0.9795488000381738,True,31,1
JR-K-22K22S1,758,experiment,92,↑,up,↑,0.5255587000865489,True,31,1
JR-K-22K22S1,759,experiment,70,→,right,→,0.49695870000869036,True,31,1
JR-K-22K22S1,760,experiment,67,↑,up,↑,0.5663178998511285,True,31,1
JR-K-22K22S1,761,experiment,65,→,right,→,0.6656861999072134,True,31,1
JR-K-22K22S1,762,experiment,76,→,right,→,0.6535116001032293,True,31,1
JR-K-22K22S1,763,experiment,81,→,right,→,0.5603641998022795,True,31,1
JR-K-22K22S1,764,experiment,63,↑,up,↑,0.5965424000751227,True,31,1
JR-K-22K22S1,765,experiment,84,←,right,→,0.5522519999649376,False,31,1
JR-K-22K22S1,766,experiment,103,↓,down,↓,0.6956366999074817,True,31,1
JR-K-22K22S1,767,experiment,51,↑,up,↑,0.8585808000061661,True,31,1
JR-K-22K22S1,768,experiment,101,↑,up,↑,0.8460002997890115,True,31,1
JR-K-22K22S1,769,experiment,98,↑,up,↑,0.5394580999854952,True,31,1
JR-K-22K22S1,770,experiment,72,↓,down,↓,0.7495089001022279,True,31,1
JR-K-22K22S1,771,experiment,108,↓,down,↓,0.6351626999676228,True,31,1
JR-K-22K22S1,772,experiment,66,↓,down,↓,0.5635701001156121,True,31,1
JR-K-22K22S1,773,experiment,62,→,right,→,0.5359757000114769,True,31,1
JR-K-22K22S1,774,experiment,78,↓,down,↓,0.6799868000671268,True,31,1
JR-K-22K22S1,775,experiment,89,↓,down,↓,0.9746392001397908,True,31,1
JR-K-22K22S1,776,experiment,48,↑,up,↑,0.5433637998066843,True,31,1
JR-K-22K22S1,777,experiment,53,←,left,←,0.45521380007267,True,31,1
JR-K-22K22S1,778,experiment,49,↓,down,↓,0.5087439001072198,True,31,1
JR-K-22K22S1,779,experiment,93,→,left,←,0.8728869999758899,False,31,1
JR-K-22K22S1,780,experiment,60,↓,down,↓,0.6418221001513302,True,31,1
JR-K-22K22S1,781,experiment,77,↑,up,↑,0.5101715000346303,True,31,1
JR-K-22K22S1,782,experiment,59,↑,up,↑,0.4308092000428587,True,31,1
JR-K-22K22S1,783,experiment,87,↑,up,↑,0.43144770013168454,True,31,0
JR-K-22K22S1,784,experiment,73,↓,down,↓,0.5413068998605013,True,31,1
JR-K-22K22S1,785,experiment,107,↑,down,↓,1.0037943001370877,False,31,1
JR-K-22K22S1,786,experiment,79,→,right,→,0.6888041000347584,True,31,1
JR-K-22K22S1,787,experiment,85,←,left,←,0.9363532999996096,True,31,1
JR-K-22K22S1,788,experiment,58,→,right,→,0.46350219985470176,True,31,1
JR-K-22K22S1,789,experiment,82,↑,up,↑,0.7613717999774963,True,31,1
JR-K-22K22S1,790,experiment,50,↓,down,↓,0.7061467000748962,True,31,1
JR-K-22K22S1,791,experiment,104,↓,down,↓,0.6425620000809431,True,31,1
JR-K-22K22S1,792,experiment,94,→,right,→,0.8573433998972178,True,31,1
JR-K-22K22S1,793,experiment,52,→,right,→,0.6932333000004292,True,31,1
JR-K-22K22S1,794,experiment,56,→,right,→,0.5506313000805676,True,31,1
JR-K-22K22S1,795,experiment,88,↑,up,↑,0.6674078998621553,True,31,1
JR-K-22K22S1,796,experiment,55,←,left,←,0.6058041001670063,True,31,1
JR-K-22K22S1,797,training,97,←,left,←,1.2249517000745982,True,31,0
JR-K-22K22S1,798,training,74,↑,up,↑,0.6470206999219954,True,31,1
JR-K-22K22S1,799,experiment,85,↑,up,↑,0.6243779000360519,True,31,1
JR-K-22K22S1,800,experiment,84,→,right,→,0.4991401999723166,True,31,1
JR-K-22K22S1,801,experiment,103,↓,down,↓,0.5406376000028104,True,31,1
JR-K-22K22S1,802,experiment,48,↑,left,←,1.0624309999402612,False,31,1
JR-K-22K22S1,803,experiment,64,↑,up,↑,0.7986381999216974,True,31,1
JR-K-22K22S1,804,experiment,62,←,left,←,0.42547630006447434,True,31,1
JR-K-22K22S1,805,experiment,51,→,right,→,0.5031592000741512,True,31,0
JR-K-22K22S1,806,experiment,107,↓,down,↓,0.6790555999614298,True,31,1
JR-K-22K22S1,807,experiment,96,↑,up,↑,0.6671645999886096,True,31,1
JR-K-22K22S1,808,experiment,70,←,left,←,0.4815553999505937,True,31,1
JR-K-22K22S1,809,experiment,97,←,left,←,0.4611165998503566,True,31,1
JR-K-22K22S1,810,experiment,56,→,right,→,0.511517999926582,True,31,1
JR-K-22K22S1,811,experiment,74,↑,up,↑,0.7703897999599576,True,31,1
JR-K-22K22S1,812,experiment,83,↓,down,↓,0.6554647998418659,True,31,1
JR-K-22K22S1,813,experiment,65,↑,right,→,1.3914734998252243,False,31,1
JR-K-22K22S1,814,experiment,86,↑,down,↓,1.0263823000714183,False,31,1
JR-K-22K22S1,815,experiment,77,→,right,→,0.5194298001006246,True,31,1
JR-K-22K22S1,816,experiment,58,←,left,←,0.6549003000836819,True,31,1
JR-K-22K22S1,817,experiment,102,←,left,←,0.44232850009575486,True,31,1
JR-K-22K22S1,818,experiment,69,←,left,←,0.8171525998041034,True,31,1
JR-K-22K22S1,819,experiment,54,↓,down,↓,0.6383658999111503,True,31,1
JR-K-22K22S1,820,experiment,91,←,left,←,0.4308512001298368,True,31,1
JR-K-22K22S1,821,experiment,94,←,left,←,0.40124640008434653,True,31,0
JR-K-22K22S1,822,experiment,106,→,right,→,0.5531340998131782,True,31,0
JR-K-22K22S1,823,experiment,61,←,left,←,0.7665871998760849,True,31,1
JR-K-22K22S1,824,experiment,82,←,left,←,0.7082567999605089,True,31,1
JR-K-22K22S1,825,experiment,89,→,right,→,1.2819189000874758,True,31,1
JR-K-22K22S1,826,experiment,50,↓,left,←,0.7097291999962181,False,31,1
JR-K-22K22S1,827,experiment,68,↓,down,↓,0.7144314001780003,True,31,1
JR-K-22K22S1,828,experiment,79,↓,down,↓,0.6749684999231249,True,31,1
JR-K-22K22S1,829,experiment,87,→,right,→,0.4666647999547422,True,31,1
JR-K-22K22S1,830,experiment,78,↓,down,↓,0.6136951998341829,True,31,1
JR-K-22K22S1,831,experiment,73,↓,down,↓,0.6685627000406384,True,31,1
JR-K-22K22S1,832,experiment,72,↓,down,↓,0.6339527999516577,True,31,1
JR-K-22K22S1,833,experiment,88,↑,up,↑,0.5785930999554694,True,31,1
JR-K-22K22S1,834,experiment,101,→,right,→,1.2253409000113606,True,31,1
JR-K-22K22S1,835,experiment,80,↓,down,↓,0.44541769986972213,True,31,1
JR-K-22K22S1,836,experiment,60,↓,right,→,0.6634867999237031,False,31,1
JR-K-22K22S1,837,experiment,90,↑,up,↑,0.5986448000185192,True,31,1
JR-K-22K22S1,838,experiment,75,↑,up,↑,0.5573338000103831,True,31,1
JR-K-22K22S1,839,experiment,55,↓,down,↓,0.5161755001172423,True,31,1
JR-K-22K22S1,840,experiment,76,←,left,←,0.8861110999714583,True,31,1
JR-K-22K22S1,841,experiment,108,→,right,→,0.5825831000693142,True,31,1
JR-K-22K22S1,842,experiment,105,←,left,←,0.6355346001219004,True,31,1
JR-K-22K22S1,843,experiment,99,←,left,←,0.7050103000365198,True,31,1
JR-K-22K22S1,844,experiment,95,→,right,→,0.492813799995929,True,31,1
JR-K-22K22S1,845,experiment,100,→,right,→,0.40128730004653335,True,31,1
JR-K-22K22S1,846,experiment,53,↓,down,↓,0.677171700168401,True,31,1
JR-K-22K22S1,847,experiment,59,→,right,→,0.44651419995352626,True,31,1
JR-K-22K22S1,848,experiment,98,→,right,→,0.45927700004540384,True,31,1
JR-K-22K22S1,849,experiment,93,←,left,←,0.7537861000746489,True,31,1
JR-K-22K22S1,850,experiment,52,←,left,←,0.3926929000299424,True,31,1
JR-K-22K22S1,851,experiment,49,↑,up,↑,0.585874899988994,True,31,0
JR-K-22K22S1,852,experiment,104,←,left,←,0.4091896000318229,True,31,1
JR-K-22K22S1,853,experiment,63,↑,left,←,0.7373833998572081,False,31,1
JR-K-22K22S1,854,experiment,81,←,left,←,0.6165330000221729,True,31,1
JR-K-22K22S1,855,experiment,57,↑,up,↑,0.5405590001028031,True,31,1
JR-K-22K22S1,856,experiment,71,↓,up,↑,0.78272489993833,False,31,1
JR-K-22K22S1,857,experiment,67,↓,up,↑,0.808976799948141,False,31,1
JR-K-22K22S1,858,experiment,66,↓,down,↓,0.5544095998629928,True,31,1
JR-K-22K22S1,859,experiment,92,↓,down,↓,0.7575003998354077,True,31,1
JR-K-22K22S1,860,training,76,←,left,←,0.6040225999895483,True,31,0
JR-K-22K22S1,861,training,52,↓,down,↓,0.48189590009860694,True,31,1
JR-K-22K22S1,862,experiment,103,↓,down,↓,0.6438958998769522,True,31,1
JR-K-22K22S1,863,experiment,100,←,left,←,0.44830290018580854,True,31,1
JR-K-22K22S1,864,experiment,78,↓,down,↓,0.5481614999007434,True,31,1
JR-K-22K22S1,865,experiment,77,←,right,→,0.6841198999900371,False,31,1
JR-K-22K22S1,866,experiment,63,→,right,→,0.38390769995748997,True,31,1
JR-K-22K22S1,867,experiment,87,↑,up,↑,0.4544294001534581,True,31,0
JR-K-22K22S1,868,experiment,99,↓,right,→,0.6588390998076648,False,31,1
JR-K-22K22S1,869,experiment,53,→,right,→,0.5268735000863671,True,31,1
JR-K-22K22S1,870,experiment,88,→,right,→,0.5562092000618577,True,31,1
JR-K-22K22S1,871,experiment,60,←,right,→,0.4414842000696808,False,31,1
JR-K-22K22S1,872,experiment,79,↑,up,↑,0.517394799971953,True,31,1
JR-K-22K22S1,873,experiment,85,↓,up,↑,0.8760484999511391,False,31,1
JR-K-22K22S1,874,experiment,80,→,right,→,0.4010028999764472,True,31,1
JR-K-22K22S1,875,experiment,54,←,left,←,0.3678317000158131,True,31,0
JR-K-22K22S1,876,experiment,104,←,left,←,0.38604919984936714,True,31,0
JR-K-22K22S1,877,experiment,97,→,right,→,0.5369032002054155,True,31,0
JR-K-22K22S1,878,experiment,93,↑,up,↑,1.1478150999173522,True,31,1
JR-K-22K22S1,879,experiment,72,↑,up,↑,0.6137108998373151,True,31,1
JR-K-22K22S1,880,experiment,48,→,right,→,0.5568192000500858,True,31,1
JR-K-22K22S1,881,experiment,83,↑,up,↑,0.7225975999608636,True,31,1
JR-K-22K22S1,882,experiment,76,→,right,→,0.4518881000112742,True,31,1
JR-K-22K22S1,883,experiment,55,←,right,→,0.8312689999584109,False,31,1
JR-K-22K22S1,884,experiment,91,↑,up,↑,0.5113182999193668,True,31,1
JR-K-22K22S1,885,experiment,107,←,right,→,0.6070656001102179,False,31,1
JR-K-22K22S1,886,experiment,84,↓,right,→,0.4584751999936998,False,31,1
JR-K-22K22S1,887,experiment,102,↓,up,↑,0.5978796000126749,False,31,1
JR-K-22K22S1,888,experiment,86,→,right,→,0.6728758998215199,True,31,1
JR-K-22K22S1,889,experiment,57,←,left,←,0.4009016000200063,True,31,1
JR-K-22K22S1,890,experiment,89,↑,up,↑,0.49235089984722435,True,31,0
JR-K-22K22S1,891,experiment,70,→,right,→,0.4491415999364108,True,31,1
JR-K-22K22S1,892,experiment,101,↓,right,→,0.628987800097093,False,31,1
JR-K-22K22S1,893,experiment,59,↓,right,→,0.9279085998423398,False,31,1
JR-K-22K22S1,894,experiment,52,↑,up,↑,0.4900888002011925,True,31,1
JR-K-22K22S1,895,experiment,82,↓,up,↑,0.7218404999002814,False,31,1
JR-K-22K22S1,896,experiment,95,↓,up,↑,0.6049532999750227,False,31,1
JR-K-22K22S1,897,experiment,65,↓,up,↑,0.6707444998901337,False,31,1
JR-K-22K22S1,898,experiment,51,←,left,←,0.44260660000145435,True,31,1
JR-K-22K22S1,899,experiment,75,↓,up,↑,0.8311630000825971,False,31,1
JR-K-22K22S1,900,experiment,56,↑,up,↑,0.49099820014089346,True,31,1
JR-K-22K22S1,901,experiment,105,→,right,→,0.4600887999404222,True,31,1
JR-K-22K22S1,902,experiment,62,←,right,→,0.5168145999778062,False,31,1
JR-K-22K22S1,903,experiment,92,→,right,→,0.44129010010510683,True,31,1
JR-K-22K22S1,904,experiment,73,↑,up,↑,0.4629003999289125,True,31,1
JR-K-22K22S1,905,experiment,81,→,right,→,1.2487625998910517,True,31,1
JR-K-22K22S1,906,experiment,61,←,right,→,0.5702372998930514,False,31,1
JR-K-22K22S1,907,experiment,96,→,right,→,0.4094432001002133,True,31,1
JR-K-22K22S1,908,experiment,58,→,left,←,0.7507122000679374,False,31,0
JR-K-22K22S1,909,experiment,66,↑,left,←,0.9064495998900384,False,31,1
JR-K-22K22S1,910,experiment,50,↑,up,↑,0.43736100010573864,True,31,1
JR-K-22K22S1,911,experiment,108,↓,up,↑,0.6710560999345034,False,31,1
JR-K-22K22S1,912,experiment,74,↑,up,↑,0.5712862000800669,True,31,1
JR-K-22K22S1,913,experiment,94,↓,up,↑,0.7805329000111669,False,31,1
JR-K-22K22S1,914,experiment,67,↑,up,↑,1.2627164998557419,True,31,1
JR-K-22K22S1,915,experiment,64,←,left,←,0.4385746999178082,True,31,1
JR-K-22K22S1,916,experiment,71,→,left,←,0.8527744999155402,False,31,1
JR-K-22K22S1,917,experiment,90,→,right,→,0.4845299001317471,True,31,1
JR-K-22K22S1,918,experiment,49,↑,up,↑,0.46439149999059737,True,31,1
JR-K-22K22S1,919,experiment,106,←,left,←,0.6263677999377251,True,31,1
JR-K-22K22S1,920,experiment,68,→,right,→,0.42646649992093444,True,31,1
JR-K-22K22S1,921,experiment,98,←,left,←,0.9440367000643164,True,31,0
JR-K-22K22S1,922,experiment,69,←,left,←,0.4095017001964152,True,31,1
JR-K-22K22S1,923,training,82,→,right,→,0.4983434001915157,True,31,0
JR-K-22K22S1,924,training,63,→,right,→,0.3942046999000013,True,31,1
JR-K-22K22S1,925,experiment,58,→,right,→,0.3592542998958379,True,31,0
JR-K-22K22S1,926,experiment,48,→,right,→,0.3926542999688536,True,31,0
JR-K-22K22S1,927,experiment,81,←,left,←,0.4670119001530111,True,31,1
JR-K-22K22S1,928,experiment,90,←,left,←,0.49853179999627173,True,31,1
JR-K-22K22S1,929,experiment,87,→,right,→,0.6569355998653919,True,31,1
JR-K-22K22S1,930,experiment,94,→,right,→,0.5509977000765502,True,31,1
JR-K-22K22S1,931,experiment,103,→,right,→,0.5502007000613958,True,31,1
JR-K-22K22S1,932,experiment,104,→,right,→,0.5172468998935074,True,31,1
JR-K-22K22S1,933,experiment,106,↑,right,→,1.1090166000649333,False,31,1
JR-K-22K22S1,934,experiment,52,←,left,←,0.6550710999872535,True,31,1
JR-K-22K22S1,935,experiment,60,↓,down,↓,0.5524480000603944,True,31,1
JR-K-22K22S1,936,experiment,88,→,right,→,0.4093763001728803,True,31,1
JR-K-22K22S1,937,experiment,69,→,right,→,0.3594211000017822,True,31,0
JR-K-22K22S1,938,experiment,107,↓,down,↓,0.4986256000120193,True,31,1
JR-K-22K22S1,939,experiment,51,↓,down,↓,0.3586765001527965,True,31,1
JR-K-22K22S1,940,experiment,86,→,right,→,0.3922598999924958,True,31,0
JR-K-22K22S1,941,experiment,101,↓,down,↓,0.8874633000232279,True,31,0
JR-K-22K22S1,942,experiment,57,←,left,←,0.4095473000779748,True,31,1
JR-K-22K22S1,943,experiment,98,↑,up,↑,0.510891400044784,True,31,0
JR-K-22K22S1,944,experiment,49,↑,up,↑,0.793996199965477,True,31,1
JR-K-22K22S1,945,experiment,76,↓,down,↓,0.5048334000166506,True,31,1
JR-K-22K22S1,946,experiment,93,→,right,→,0.6771770000923425,True,31,1
JR-K-22K22S1,947,experiment,71,→,right,→,0.5782534000463784,True,31,1
JR-K-22K22S1,948,experiment,55,→,right,→,0.5207725998479873,True,31,1
JR-K-22K22S1,949,experiment,63,↓,down,↓,0.7425230999942869,True,31,1
JR-K-22K22S1,950,experiment,95,→,right,→,1.0967375999316573,True,31,1
JR-K-22K22S1,951,experiment,78,←,left,←,0.6104423999786377,True,31,1
JR-K-22K22S1,952,experiment,89,↑,right,→,1.3316587000153959,False,31,1
JR-K-22K22S1,953,experiment,91,→,right,→,0.6404471998102963,True,31,1
JR-K-22K22S1,954,experiment,96,→,right,→,0.5659469999372959,True,31,1
JR-K-22K22S1,955,experiment,99,↑,right,→,0.9899938001763076,False,31,1
JR-K-22K22S1,956,experiment,92,↑,up,↑,0.5755312000401318,True,31,1
JR-K-22K22S1,957,experiment,61,↓,right,→,0.8040287001058459,False,31,1
JR-K-22K22S1,958,experiment,85,←,left,←,0.43118049995973706,True,31,1
JR-K-22K22S1,959,experiment,54,←,left,←,0.47524159983731806,True,31,0
JR-K-22K22S1,960,experiment,97,→,right,→,0.46374969999305904,True,31,1
JR-K-22K22S1,961,experiment,67,↓,right,→,0.998529199976474,False,31,1
JR-K-22K22S1,962,experiment,75,↑,right,→,0.7570993001572788,False,31,1
JR-K-22K22S1,963,experiment,100,→,right,→,0.40100880013778806,True,31,1
JR-K-22K22S1,964,experiment,83,→,right,→,0.7530007001478225,True,31,0
JR-K-22K22S1,965,experiment,53,←,left,←,0.7446419999469072,True,31,1
JR-K-22K22S1,966,experiment,74,→,right,→,0.3928122001234442,True,31,1
JR-K-22K22S1,967,experiment,50,←,left,←,0.5692139999009669,True,31,1
JR-K-22K22S1,968,experiment,82,←,left,←,1.038965499959886,True,31,1
JR-K-22K22S1,969,experiment,56,→,right,→,0.5062674998771399,True,31,1
JR-K-22K22S1,970,experiment,72,←,left,←,0.5496285001281649,True,31,1
JR-K-22K22S1,971,experiment,68,↑,left,←,0.7206003998871893,False,31,1
JR-K-22K22S1,972,experiment,108,→,left,←,0.5754756000824273,False,31,1
JR-K-22K22S1,973,experiment,102,→,right,→,0.7578602998983115,True,31,1
JR-K-22K22S1,974,experiment,79,↑,right,→,0.6930232001468539,False,31,1
JR-K-22K22S1,975,experiment,66,↓,down,↓,0.5470537000801414,True,31,1
JR-K-22K22S1,976,experiment,65,↓,down,↓,0.7272248999215662,True,31,1
JR-K-22K22S1,977,experiment,77,→,left,←,0.4961804000195116,False,31,1
JR-K-22K22S1,978,experiment,105,↑,left,←,0.5045024000573903,False,31,1
JR-K-22K22S1,979,experiment,84,→,right,→,0.6079174000769854,True,31,1
JR-K-22K22S1,980,experiment,80,↓,down,↓,0.43710810015909374,True,31,1
JR-K-22K22S1,981,experiment,64,↑,down,↓,0.7495470000430942,False,31,1
JR-K-22K22S1,982,experiment,73,←,left,←,0.47076769988052547,True,31,1
JR-K-22K22S1,983,experiment,70,→,right,→,0.3763020997866988,True,31,1
JR-K-22K22S1,984,experiment,59,↑,up,↑,0.5369118999224156,True,31,1
JR-K-22K22S1,985,experiment,62,↓,up,↑,0.7988843000493944,False,31,1
JR-K-22K22S1,986,training,81,↓,down,↓,0.49859259999357164,True,31,0
JR-K-22K22S1,987,training,48,→,right,→,0.4945036000572145,True,31,1
JR-K-22K22S1,988,experiment,77,←,left,←,0.39221970015205443,True,31,1
JR-K-22K22S1,989,experiment,97,←,left,←,0.6803450998850167,True,31,0
JR-K-22K22S1,990,experiment,71,↑,left,←,0.6368831000290811,False,31,1
JR-K-22K22S1,991,experiment,103,↑,up,↑,0.537250499939546,True,31,1
JR-K-22K22S1,992,experiment,98,↓,down,↓,0.5543845999054611,True,31,1
JR-K-22K22S1,993,experiment,59,→,left,←,0.5924579999409616,False,31,1
JR-K-22K22S1,994,experiment,84,↑,left,←,0.724206400103867,False,31,1
JR-K-22K22S1,995,experiment,65,←,left,←,0.7453462001867592,True,31,1
JR-K-22K22S1,996,experiment,95,↑,up,↑,0.4754395999480039,True,31,1
JR-K-22K22S1,997,experiment,87,←,left,←,0.5311688000801951,True,31,1
JR-K-22K22S1,998,experiment,56,↓,down,↓,0.5150298001244664,True,31,1
JR-K-22K22S1,999,experiment,99,↓,down,↓,0.4015586001332849,True,31,1
JR-K-22K22S1,1000,experiment,74,→,left,←,0.6598110001068562,False,31,1
JR-K-22K22S1,1001,experiment,82,→,right,→,1.2297767999116331,True,31,1
JR-K-22K22S1,1002,experiment,91,←,left,←,0.4300867998972535,True,31,1
JR-K-22K22S1,1003,experiment,60,←,left,←,0.3930307999253273,True,31,0
JR-K-22K22S1,1004,experiment,94,→,left,←,0.624424200039357,False,31,0
JR-K-22K22S1,1005,experiment,62,↑,right,→,0.5864378998521715,False,31,1
JR-K-22K22S1,1006,experiment,51,↑,right,→,0.6577369999140501,False,31,1
JR-K-22K22S1,1007,experiment,78,↓,right,→,0.49316559988074005,False,31,1
JR-K-22K22S1,1008,experiment,96,↑,up,↑,0.6494319001212716,True,31,1
JR-K-22K22S1,1009,experiment,67,→,right,→,0.5208613001741469,True,31,1
JR-K-22K22S1,1010,experiment,83,↑,right,→,0.7518549999222159,False,31,1
JR-K-22K22S1,1011,experiment,66,←,left,←,0.6352325000334531,True,31,1
JR-K-22K22S1,1012,experiment,75,↓,down,↓,0.6086058998480439,True,31,1
JR-K-22K22S1,1013,experiment,54,↓,down,↓,0.4381541998591274,True,31,1
JR-K-22K22S1,1014,experiment,76,↓,down,↓,0.40939319995231926,True,31,1
JR-K-22K22S1,1015,experiment,48,↓,down,↓,0.7059282998088747,True,31,0
JR-K-22K22S1,1016,experiment,100,←,left,←,0.4280464998446405,True,31,1
JR-K-22K22S1,1017,experiment,58,→,left,←,0.5509888001251966,False,31,0
JR-K-22K22S1,1018,experiment,55,←,left,←,0.4088979000225663,True,31,1
JR-K-22K22S1,1019,experiment,49,↑,left,←,0.5651059001684189,False,31,0
JR-K-22K22S1,1020,experiment,107,↑,left,←,0.4664884000085294,False,31,1
JR-K-22K22S1,1021,experiment,72,→,right,→,0.40903700003400445,True,31,1
JR-K-22K22S1,1022,experiment,50,→,right,→,0.35963670001365244,True,31,0
JR-K-22K22S1,1023,experiment,85,↑,up,↑,0.6028150001075119,True,31,1
JR-K-22K22S1,1024,experiment,63,↓,down,↓,0.5015889001078904,True,31,1
JR-K-22K22S1,1025,experiment,88,←,left,←,1.4040534000378102,True,31,1
JR-K-22K22S1,1026,experiment,106,←,left,←,1.1517801999580115,True,31,1
JR-K-22K22S1,1027,experiment,92,↓,left,←,0.7311379001475871,False,31,1
JR-K-22K22S1,1028,experiment,69,←,left,←,1.3583660000003874,True,31,1
JR-K-22K22S1,1029,experiment,80,↑,left,←,0.6769639998674393,False,31,1
JR-K-22K22S1,1030,experiment,73,→,right,→,0.38638770021498203,True,31,1
JR-K-22K22S1,1031,experiment,89,↑,up,↑,0.47522729984484613,True,31,0
JR-K-22K22S1,1032,experiment,61,←,left,←,0.5077803998719901,True,31,1
JR-K-22K22S1,1033,experiment,105,↓,left,←,0.5961539000272751,False,31,1
JR-K-22K22S1,1034,experiment,90,→,left,←,0.3669122999999672,False,31,1
JR-K-22K22S1,1035,experiment,52,↓,down,↓,0.5891599000897259,True,31,0
JR-K-22K22S1,1036,experiment,68,↑,up,↑,0.49479889986105263,True,31,1
JR-K-22K22S1,1037,experiment,70,↓,down,↓,0.42791629978455603,True,31,1
JR-K-22K22S1,1038,experiment,108,→,down,↓,0.7098552999086678,False,31,1
JR-K-22K22S1,1039,experiment,93,↓,down,↓,0.4901582000311464,True,31,1
JR-K-22K22S1,1040,experiment,86,↑,up,↑,0.8334755999967456,True,31,1
JR-K-22K22S1,1041,experiment,81,←,up,↑,0.6609332000371069,False,31,1
JR-K-22K22S1,1042,experiment,79,←,left,←,0.4011083000805229,True,31,1
JR-K-22K22S1,1043,experiment,104,↑,up,↑,0.5246226999443024,True,31,0
JR-K-22K22S1,1044,experiment,53,↓,left,←,0.5177551999222487,False,31,1
JR-K-22K22S1,1045,experiment,101,↑,up,↑,0.5189759000204504,True,31,1
JR-K-22K22S1,1046,experiment,102,→,right,→,0.44048680015839636,True,31,1
JR-K-22K22S1,1047,experiment,64,↓,down,↓,0.46479410002939403,True,31,1
JR-K-22K22S1,1048,experiment,57,↓,left,←,0.8109297000337392,False,31,1
JR-K-22K22S1,1049,training,83,→,right,→,0.7942059000488371,True,31,0
JR-K-22K22S1,1050,training,63,↑,up,↑,0.6929502000566572,True,31,1
JR-K-22K22S1,1051,experiment,80,↑,up,↑,0.4941550998482853,True,31,1
JR-K-22K22S1,1052,experiment,88,→,right,→,0.3928616000339389,True,31,1
JR-K-22K22S1,1053,experiment,58,↓,up,↑,0.6414570999331772,False,31,1
JR-K-22K22S1,1054,experiment,66,←,left,←,0.38448590016923845,True,31,1
JR-K-22K22S1,1055,experiment,78,↑,left,←,0.6716597999911755,False,31,0
JR-K-22K22S1,1056,experiment,101,↑,up,↑,0.47461099992506206,True,31,1
JR-K-22K22S1,1057,experiment,56,→,right,→,0.35090660001151264,True,31,1
JR-K-22K22S1,1058,experiment,103,↓,down,↓,0.47578349988907576,True,31,1
JR-K-22K22S1,1059,experiment,79,←,left,←,0.6703437999822199,True,31,1
JR-K-22K22S1,1060,experiment,53,↓,down,↓,0.7536831998731941,True,31,1
JR-K-22K22S1,1061,experiment,55,→,right,→,0.3859244000632316,True,31,1
JR-K-22K22S1,1062,experiment,84,→,right,→,0.6209402999375015,True,31,0
JR-K-22K22S1,1063,experiment,49,←,left,←,1.11508380016312,True,31,1
JR-K-22K22S1,1064,experiment,73,↑,up,↑,0.4862165998201817,True,31,1
JR-K-22K22S1,1065,experiment,97,←,left,←,0.39295320003293455,True,31,1
JR-K-22K22S1,1066,experiment,50,→,right,→,0.3421069998294115,True,31,0
JR-K-22K22S1,1067,experiment,83,→,left,←,0.6466786998789757,False,31,0
JR-K-22K22S1,1068,experiment,96,↓,left,←,0.4603370002005249,False,31,1
JR-K-22K22S1,1069,experiment,82,←,left,←,0.5986522000748664,True,31,1
JR-K-22K22S1,1070,experiment,67,→,left,←,0.5197904999367893,False,31,1
JR-K-22K22S1,1071,experiment,54,←,left,←,0.41185050015337765,True,31,1
JR-K-22K22S1,1072,experiment,85,←,left,←,0.5558842997997999,True,31,0
JR-K-22K22S1,1073,experiment,108,↓,down,↓,0.5054981999564916,True,31,1
JR-K-22K22S1,1074,experiment,87,→,left,←,0.5914878000039607,False,31,1
JR-K-22K22S1,1075,experiment,100,←,left,←,0.5421633999794722,True,31,1
JR-K-22K22S1,1076,experiment,70,→,right,→,0.3860953999683261,True,31,1
JR-K-22K22S1,1077,experiment,61,↑,up,↑,0.5324448000174016,True,31,0
JR-K-22K22S1,1078,experiment,60,↓,down,↓,0.4349743998609483,True,31,1
JR-K-22K22S1,1079,experiment,107,←,left,←,1.2374795998912305,True,31,1
JR-K-22K22S1,1080,experiment,51,↓,down,↓,1.2662124999333173,True,31,1
JR-K-22K22S1,1081,experiment,68,↓,left,←,0.7529146999586374,False,31,1
JR-K-22K22S1,1082,experiment,93,→,right,→,0.3505386000033468,True,31,1
JR-K-22K22S1,1083,experiment,75,↓,down,↓,0.4759270998183638,True,31,0
JR-K-22K22S1,1084,experiment,102,↓,down,↓,0.47852850006893277,True,31,1
JR-K-22K22S1,1085,experiment,95,↓,down,↓,0.3761153998784721,True,31,1
JR-K-22K22S1,1086,experiment,105,↓,down,↓,1.1849824998062104,True,31,0
JR-K-22K22S1,1087,experiment,69,→,right,→,0.43462290009483695,True,31,1
JR-K-22K22S1,1088,experiment,59,←,left,←,1.2607205999083817,True,31,1
JR-K-22K22S1,1089,experiment,76,↑,left,←,0.6404624001588672,False,31,1
JR-K-22K22S1,1090,experiment,72,↓,down,↓,0.9985528998076916,True,31,1
JR-K-22K22S1,1091,experiment,57,←,left,←,0.6994118001312017,True,31,1
JR-K-22K22S1,1092,experiment,90,←,left,←,0.6890364999417216,True,31,1
JR-K-22K22S1,1093,experiment,77,←,left,←,0.5793123000767082,True,31,1
JR-K-22K22S1,1094,experiment,94,←,left,←,0.46085930010303855,True,31,1
JR-K-22K22S1,1095,experiment,71,→,right,→,0.48214250011369586,True,31,1
JR-K-22K22S1,1096,experiment,64,↑,up,↑,0.5453677999321371,True,31,1
JR-K-22K22S1,1097,experiment,99,→,left,←,0.6664179998915642,False,31,1
JR-K-22K22S1,1098,experiment,106,↑,up,↑,0.7878630000632256,True,31,1
JR-K-22K22S1,1099,experiment,92,→,right,→,0.47750640008598566,True,31,1
JR-K-22K22S1,1100,experiment,74,↓,down,↓,0.6252407999709249,True,31,1
JR-K-22K22S1,1101,experiment,86,↓,left,←,0.7635544999502599,False,31,1
JR-K-22K22S1,1102,experiment,104,↑,left,←,0.7057713000103831,False,31,1
JR-K-22K22S1,1103,experiment,89,→,right,→,0.3597750999033451,True,31,1
JR-K-22K22S1,1104,experiment,63,↓,left,←,1.5710473998915404,False,31,0
JR-K-22K22S1,1105,experiment,52,↓,left,←,0.5786673999391496,False,31,1
JR-K-22K22S1,1106,experiment,91,←,left,←,0.5489616999402642,True,31,1
JR-K-22K22S1,1107,experiment,48,→,right,→,0.43104990012943745,True,31,1
JR-K-22K22S1,1108,experiment,62,↑,up,↑,0.4644659999758005,True,31,1
JR-K-22K22S1,1109,experiment,81,↓,down,↓,0.7544897999614477,True,31,1
JR-K-22K22S1,1110,experiment,98,↓,down,↓,0.6992341999430209,True,31,1
JR-K-22K22S1,1111,experiment,65,↑,up,↑,0.9535075998865068,True,31,1
JR-K-22K22S1,1112,training,98,→,right,→,0.6941968000028282,True,31,0
JR-K-22K22S1,1113,training,99,↓,down,↓,0.4728828000370413,True,31,1
JR-K-22K22S1,1114,experiment,83,←,left,←,0.39228869997896254,True,31,1
JR-K-22K22S1,1115,experiment,70,→,right,→,0.3673428001347929,True,31,0
JR-K-22K22S1,1116,experiment,90,↓,down,↓,0.5252086000982672,True,31,0
JR-K-22K22S1,1117,experiment,96,→,right,→,0.6878502999898046,True,31,1
JR-K-22K22S1,1118,experiment,101,←,left,←,0.6585405999794602,True,31,1
JR-K-22K22S1,1119,experiment,98,↑,up,↑,0.511360399890691,True,31,1
JR-K-22K22S1,1120,experiment,64,↑,up,↑,0.4451319999061525,True,31,1
JR-K-22K22S1,1121,experiment,68,←,left,←,0.4681396000087261,True,31,1
JR-K-22K22S1,1122,experiment,78,←,left,←,0.7671348000876606,True,31,1
JR-K-22K22S1,1123,experiment,95,→,right,→,0.46457920013926923,True,31,1
JR-K-22K22S1,1124,experiment,102,→,right,→,0.40121270017698407,True,31,1
JR-K-22K22S1,1125,experiment,92,←,left,←,0.468374100048095,True,31,1
JR-K-22K22S1,1126,experiment,55,→,left,←,0.6471611999440938,False,31,1
JR-K-22K22S1,1127,experiment,85,→,left,←,0.6486925999633968,False,31,1
JR-K-22K22S1,1128,experiment,75,↓,down,↓,0.5652652001008391,True,31,1
JR-K-22K22S1,1129,experiment,59,←,left,←,0.714767900062725,True,31,1
JR-K-22K22S1,1130,experiment,108,↓,down,↓,0.6578356998506933,True,31,1
JR-K-22K22S1,1131,experiment,66,←,left,←,0.6327631000895053,True,31,1
JR-K-22K22S1,1132,experiment,63,↓,down,↓,0.5784680000506341,True,31,1
JR-K-22K22S1,1133,experiment,60,↓,down,↓,0.4632689000573009,True,31,1
JR-K-22K22S1,1134,experiment,52,←,left,←,0.4095928999595344,True,31,1
JR-K-22K22S1,1135,experiment,99,←,left,←,0.6330268001183867,True,31,0
JR-K-22K22S1,1136,experiment,62,↑,left,←,0.5627090001944453,False,31,1
JR-K-22K22S1,1137,experiment,86,↑,up,↑,0.7352403998374939,True,31,1
JR-K-22K22S1,1138,experiment,72,↓,down,↓,0.5614861999638379,True,31,1
JR-K-22K22S1,1139,experiment,106,→,right,→,0.3845986998640001,True,31,1
JR-K-22K22S1,1140,experiment,50,→,left,←,0.7271167000290006,False,31,0
JR-K-22K22S1,1141,experiment,105,↓,down,↓,0.6706864000298083,True,31,1
JR-K-22K22S1,1142,experiment,94,→,right,→,0.40088360011577606,True,31,1
JR-K-22K22S1,1143,experiment,76,→,left,←,0.6423170000780374,False,31,0
JR-K-22K22S1,1144,experiment,80,↓,left,←,0.6456369000952691,False,31,1
JR-K-22K22S1,1145,experiment,100,↑,left,←,0.6418077000416815,False,31,1
JR-K-22K22S1,1146,experiment,65,↓,down,↓,0.4744561000261456,True,31,1
JR-K-22K22S1,1147,experiment,107,↑,left,←,0.6191990000661463,False,31,1
JR-K-22K22S1,1148,experiment,74,↓,left,←,0.7618394999299198,False,31,1
JR-K-22K22S1,1149,experiment,103,→,right,→,0.45643749996088445,True,31,1
JR-K-22K22S1,1150,experiment,54,←,left,←,0.5958724000956863,True,31,1
JR-K-22K22S1,1151,experiment,57,↓,down,↓,0.5207398999482393,True,31,1
JR-K-22K22S1,1152,experiment,82,↑,up,↑,0.7362053000833839,True,31,1
JR-K-22K22S1,1153,experiment,81,→,right,→,0.44771249988116324,True,31,1
JR-K-22K22S1,1154,experiment,48,↓,down,↓,0.7972806999459863,True,31,1
JR-K-22K22S1,1155,experiment,84,←,left,←,1.432877899846062,True,31,1
JR-K-22K22S1,1156,experiment,67,↑,up,↑,0.5611692001111805,True,31,1
JR-K-22K22S1,1157,experiment,49,→,left,←,0.7779423999600112,False,31,1
JR-K-22K22S1,1158,experiment,61,→,right,→,0.7978346000891179,True,31,1
JR-K-22K22S1,1159,experiment,56,↑,right,→,0.8509760999586433,False,31,1
JR-K-22K22S1,1160,experiment,51,↓,right,→,0.7997043000068516,False,31,1
JR-K-22K22S1,1161,experiment,71,↓,right,→,0.8398519998881966,False,31,1
JR-K-22K22S1,1162,experiment,58,↑,up,↑,0.530578900128603,True,31,1
JR-K-22K22S1,1163,experiment,79,←,left,←,0.6586470000911504,True,31,1
JR-K-22K22S1,1164,experiment,77,↓,down,↓,0.47065829997882247,True,31,1
JR-K-22K22S1,1165,experiment,89,←,left,←,1.173217099858448,True,31,1
JR-K-22K22S1,1166,experiment,53,→,right,→,0.6444443999789655,True,31,1
JR-K-22K22S1,1167,experiment,93,→,right,→,0.3929093999322504,True,31,1
JR-K-22K22S1,1168,experiment,69,←,left,←,0.4440883998759091,True,31,1
JR-K-22K22S1,1169,experiment,88,↑,up,↑,0.6529618999920785,True,31,1
JR-K-22K22S1,1170,experiment,91,↑,right,→,0.803925400134176,False,31,1
JR-K-22K22S1,1171,experiment,104,→,right,→,1.2405083000194281,True,31,1
JR-K-22K22S1,1172,experiment,87,↑,right,→,0.8975221998989582,False,31,1
JR-K-22K22S1,1173,experiment,73,←,left,←,0.6768769000191242,True,31,1
JR-K-22K22S1,1174,experiment,97,←,left,←,0.48963930015452206,True,31,1
JR-K-22K22S1,1175,training,86,↑,left,←,0.7063506001140922,False,31,0
JR-K-22K22S1,1176,training,84,↓,down,↓,0.5942017000634223,True,31,1
JR-K-22K22S1,1177,experiment,74,↑,up,↑,0.8570639998652041,True,31,1
JR-K-22K22S1,1178,experiment,70,↑,up,↑,0.6875577999744564,True,31,1
JR-K-22K22S1,1179,experiment,104,↓,right,→,0.8485685999039561,False,31,1
JR-K-22K22S1,1180,experiment,73,→,right,→,0.6220128000713885,True,31,1
JR-K-22K22S1,1181,experiment,62,→,right,→,0.45585689996369183,True,31,1
JR-K-22K22S1,1182,experiment,51,↓,right,→,0.724354200065136,False,31,1
JR-K-22K22S1,1183,experiment,66,↓,right,→,0.7294238000176847,False,31,1
JR-K-22K22S1,1184,experiment,97,←,left,←,0.7071965001523495,True,31,1
JR-K-22K22S1,1185,experiment,91,↑,up,↑,0.6161147998645902,True,31,1
JR-K-22K22S1,1186,experiment,101,→,right,→,0.4454785999841988,True,31,1
JR-K-22K22S1,1187,experiment,59,←,left,←,0.5996016000863165,True,31,1
JR-K-22K22S1,1188,experiment,84,↑,left,←,0.9714236001018435,False,31,1
JR-K-22K22S1,1189,experiment,83,↓,down,↓,0.6243845999706537,True,31,1
JR-K-22K22S1,1190,experiment,106,→,left,←,0.8596130001824349,False,31,1
JR-K-22K22S1,1191,experiment,95,↓,left,←,0.8095325001049787,False,31,1
JR-K-22K22S1,1192,experiment,67,→,right,→,0.6185840999241918,True,31,1
JR-K-22K22S1,1193,experiment,76,←,right,→,0.7441967001650482,False,31,1
JR-K-22K22S1,1194,experiment,108,↓,down,↓,0.7818509000353515,True,31,1
JR-K-22K22S1,1195,experiment,60,↓,down,↓,0.6583453000057489,True,31,1
JR-K-22K22S1,1196,experiment,81,←,left,←,0.46063410001806915,True,31,1
JR-K-22K22S1,1197,experiment,102,←,left,←,0.39275910006836057,True,31,1
JR-K-22K22S1,1198,experiment,53,→,left,←,0.7101225000806153,False,31,1
JR-K-22K22S1,1199,experiment,71,→,right,→,0.6017727998550981,True,31,1
JR-K-22K22S1,1200,experiment,103,↓,left,←,0.8791219000704587,False,31,1
JR-K-22K22S1,1201,experiment,64,↑,up,↑,0.6140984001103789,True,31,1
JR-K-22K22S1,1202,experiment,82,→,left,←,0.5458136000670493,False,31,1
JR-K-22K22S1,1203,experiment,100,→,right,→,0.722338099963963,True,31,1
JR-K-22K22S1,1204,experiment,107,↓,right,→,0.7133757001720369,False,31,1
JR-K-22K22S1,1205,experiment,99,↓,left,←,0.6753947997931391,False,31,1
JR-K-22K22S1,1206,experiment,63,←,left,←,1.1629900999832898,True,31,1
JR-K-22K22S1,1207,experiment,50,↓,down,↓,0.7875016999896616,True,31,1
JR-K-22K22S1,1208,experiment,49,↑,up,↑,0.5231262999586761,True,31,1
JR-K-22K22S1,1209,experiment,54,→,right,→,0.556154299993068,True,31,1
JR-K-22K22S1,1210,experiment,48,↑,up,↑,0.5654004998505116,True,31,1
JR-K-22K22S1,1211,experiment,72,→,right,→,0.4094615001231432,True,31,1
JR-K-22K22S1,1212,experiment,77,↑,right,→,0.6198405001778156,False,31,1
JR-K-22K22S1,1213,experiment,93,↓,down,↓,0.6836928001139313,True,31,1
JR-K-22K22S1,1214,experiment,52,↓,down,↓,0.8468603999353945,True,31,1
JR-K-22K22S1,1215,experiment,65,←,left,←,0.5509134999010712,True,31,1
JR-K-22K22S1,1216,experiment,88,↓,down,↓,0.4910875998903066,True,31,1
JR-K-22K22S1,1217,experiment,96,↓,down,↓,0.47940880013629794,True,31,1
JR-K-22K22S1,1218,experiment,89,→,right,→,0.3754043998196721,True,31,1
JR-K-22K22S1,1219,experiment,57,→,right,→,0.35938280005939305,True,31,0
JR-K-22K22S1,1220,experiment,105,→,right,→,0.7538236998952925,True,31,0
JR-K-22K22S1,1221,experiment,56,→,right,→,0.37554349983111024,True,31,1
JR-K-22K22S1,1222,experiment,92,↓,down,↓,0.5141296000219882,True,31,0
JR-K-22K22S1,1223,experiment,86,↑,up,↑,1.2004387001506984,True,31,1
JR-K-22K22S1,1224,experiment,69,↓,down,↓,0.833084600046277,True,31,1
JR-K-22K22S1,1225,experiment,80,↑,up,↑,0.5890738999005407,True,31,1
JR-K-22K22S1,1226,experiment,58,↑,up,↑,0.641623199917376,True,31,1
JR-K-22K22S1,1227,experiment,68,↑,up,↑,0.440799199976027,True,31,1
JR-K-22K22S1,1228,experiment,55,→,up,↑,1.0448215999640524,False,31,1
JR-K-22K22S1,1229,experiment,78,→,right,→,0.6408583000302315,True,31,1
JR-K-22K22S1,1230,experiment,75,↑,up,↑,0.6220637001097202,True,31,1
JR-K-22K22S1,1231,experiment,87,↑,up,↑,0.6394505999051034,True,31,1
JR-K-22K22S1,1232,experiment,94,→,right,→,0.5742729001212865,True,31,1
JR-K-22K22S1,1233,experiment,90,→,right,→,0.3943829999770969,True,31,1
JR-K-22K22S1,1234,experiment,98,→,right,→,0.4011077000759542,True,31,0
JR-K-22K22S1,1235,experiment,79,→,right,→,0.4370905999094248,True,31,0
JR-K-22K22S1,1236,experiment,85,↑,up,↑,0.6625343000050634,True,31,1
JR-K-22K22S1,1237,experiment,61,↓,down,↓,0.7673039000947028,True,31,1
JR-K-22K22S1,1238,training,107,←,left,←,0.4345018998719752,True,31,0
JR-K-22K22S1,1239,training,82,←,left,←,0.6692850000690669,True,31,1
JR-K-22K22S1,1240,experiment,88,↓,down,↓,0.6447733000386506,True,31,1
JR-K-22K22S1,1241,experiment,96,→,right,→,0.4090119998436421,True,31,1
JR-K-22K22S1,1242,experiment,61,←,left,←,0.629708900116384,True,31,0
JR-K-22K22S1,1243,experiment,87,↓,down,↓,0.5590240999590605,True,31,1
JR-K-22K22S1,1244,experiment,63,↑,up,↑,0.47552200010977685,True,31,1
JR-K-22K22S1,1245,experiment,95,↓,up,↑,0.6564760999754071,False,31,1
JR-K-22K22S1,1246,experiment,97,↓,down,↓,0.733794700121507,True,31,1
JR-K-22K22S1,1247,experiment,84,→,right,→,0.40963609982281923,True,31,1
JR-K-22K22S1,1248,experiment,102,↓,down,↓,0.4889657001476735,True,31,1
JR-K-22K22S1,1249,experiment,60,↑,down,↓,0.8090039999224246,False,31,1
JR-K-22K22S1,1250,experiment,80,↓,down,↓,0.4536737999878824,True,31,1
JR-K-22K22S1,1251,experiment,107,↑,up,↑,0.47136810002848506,True,31,1
JR-K-22K22S1,1252,experiment,51,↓,down,↓,0.7879752998705953,True,31,1
JR-K-22K22S1,1253,experiment,79,↓,down,↓,0.6494296998716891,True,31,1
JR-K-22K22S1,1254,experiment,104,←,left,←,0.3840679000131786,True,31,1
JR-K-22K22S1,1255,experiment,77,←,left,←,0.5947201999370009,True,31,0
JR-K-22K22S1,1256,experiment,50,→,right,→,0.40281120012514293,True,31,1
JR-K-22K22S1,1257,experiment,67,→,left,←,0.5468644998036325,False,31,0
JR-K-22K22S1,1258,experiment,108,↓,down,↓,0.4331499000545591,True,31,1
JR-K-22K22S1,1259,experiment,99,→,right,→,0.33466610009782016,True,31,1
JR-K-22K22S1,1260,experiment,66,←,left,←,0.6741843000054359,True,31,1
JR-K-22K22S1,1261,experiment,86,←,left,←,1.0260267001576722,True,31,1
JR-K-22K22S1,1262,experiment,56,↓,left,←,0.8380760999862105,False,31,1
JR-K-22K22S1,1263,experiment,65,↑,up,↑,0.430714099900797,True,31,1
JR-K-22K22S1,1264,experiment,70,↑,left,←,0.621640499914065,False,31,0
JR-K-22K22S1,1265,experiment,54,↓,left,←,0.5144527999218553,False,31,1
JR-K-22K22S1,1266,experiment,49,↑,left,←,0.5971355000510812,False,31,1
JR-K-22K22S1,1267,experiment,57,→,right,→,0.6659329999238253,True,31,1
JR-K-22K22S1,1268,experiment,73,→,right,→,0.47859570011496544,True,31,1
JR-K-22K22S1,1269,experiment,83,↓,down,↓,0.5273058000020683,True,31,1
JR-K-22K22S1,1270,experiment,103,→,right,→,0.6316419001668692,True,31,1
JR-K-22K22S1,1271,experiment,72,→,right,→,0.39280070015229285,True,31,1
JR-K-22K22S1,1272,experiment,92,↓,down,↓,0.487356600118801,True,31,1
JR-K-22K22S1,1273,experiment,93,↓,right,→,0.6366357000079006,False,31,1
JR-K-22K22S1,1274,experiment,59,→,right,→,0.4010908999480307,True,31,1
JR-K-22K22S1,1275,experiment,89,→,right,→,0.6410145999398082,True,31,0
JR-K-22K22S1,1276,experiment,101,↓,down,↓,0.5973894000053406,True,31,1
JR-K-22K22S1,1277,experiment,78,→,right,→,1.2989218002185225,True,31,1
JR-K-22K22S1,1278,experiment,106,→,right,→,0.4008404000196606,True,31,1
JR-K-22K22S1,1279,experiment,62,→,right,→,0.8062427998520434,True,31,0
JR-K-22K22S1,1280,experiment,85,↑,right,→,0.7691750000230968,False,31,1
JR-K-22K22S1,1281,experiment,68,→,right,→,1.243151000002399,True,31,1
JR-K-22K22S1,1282,experiment,81,←,left,←,0.4863539000507444,True,31,1
JR-K-22K22S1,1283,experiment,98,←,right,→,0.5620488000568002,False,31,1
JR-K-22K22S1,1284,experiment,90,↓,down,↓,0.5807604999281466,True,31,1
JR-K-22K22S1,1285,experiment,55,←,left,←,0.4431368000805378,True,31,1
JR-K-22K22S1,1286,experiment,100,↓,down,↓,0.8080431998241693,True,31,1
JR-K-22K22S1,1287,experiment,71,→,right,→,0.4092944001313299,True,31,1
JR-K-22K22S1,1288,experiment,58,←,left,←,1.1631377001758665,True,31,0
JR-K-22K22S1,1289,experiment,53,←,left,←,0.39285279996693134,True,31,1
JR-K-22K22S1,1290,experiment,94,↑,up,↑,0.6833130000159144,True,31,1
JR-K-22K22S1,1291,experiment,74,↑,up,↑,0.4787419999483973,True,31,1
JR-K-22K22S1,1292,experiment,75,←,left,←,0.7221530999522656,True,31,1
JR-K-22K22S1,1293,experiment,64,→,right,→,1.4712786001618952,True,31,1
JR-K-22K22S1,1294,experiment,82,↓,left,←,0.6887793999630958,False,31,1
JR-K-22K22S1,1295,experiment,76,↑,up,↑,0.4914622998330742,True,31,1
JR-K-22K22S1,1296,experiment,69,↑,left,←,0.6964037001598626,False,31,1
JR-K-22K22S1,1297,experiment,48,←,left,←,0.444496399955824,True,31,1
JR-K-22K22S1,1298,experiment,52,↑,left,←,0.6650623998139054,False,31,1
JR-K-22K22S1,1299,experiment,105,←,left,←,0.6431436999700963,True,31,1
JR-K-22K22S1,1300,experiment,91,↓,down,↓,0.9229629000183195,True,31,1
JR-K-22K22S1,1301,training,74,→,right,→,0.6174268999602646,True,31,0
JR-K-22K22S1,1302,training,75,↑,up,↑,0.6632075000088662,True,31,1
JR-K-22K22S1,1303,experiment,82,↑,up,↑,0.5688592998776585,True,31,1
JR-K-22K22S1,1304,experiment,95,↓,right,→,1.0024109999649227,False,31,1
JR-K-22K22S1,1305,experiment,86,↑,up,↑,0.7088618997950107,True,31,1
JR-K-22K22S1,1306,experiment,50,←,left,←,0.5036601000465453,True,31,1
JR-K-22K22S1,1307,experiment,93,↑,up,↑,0.868460200028494,True,31,1
JR-K-22K22S1,1308,experiment,81,↑,up,↑,0.4864972000941634,True,31,1
JR-K-22K22S1,1309,experiment,56,↓,left,←,0.8159600000362843,False,31,1
JR-K-22K22S1,1310,experiment,72,→,right,→,0.6711791998241097,True,31,1
JR-K-22K22S1,1311,experiment,105,↓,down,↓,0.5446597998961806,True,31,1
JR-K-22K22S1,1312,experiment,71,↓,down,↓,0.6591978999786079,True,31,1
JR-K-22K22S1,1313,experiment,75,→,right,→,0.7595492999535054,True,31,1
JR-K-22K22S1,1314,experiment,49,←,left,←,0.47254160000011325,True,31,1
JR-K-22K22S1,1315,experiment,91,←,left,←,0.43109329999424517,True,31,1
JR-K-22K22S1,1316,experiment,85,↓,down,↓,0.4648617000784725,True,31,1
JR-K-22K22S1,1317,experiment,96,↓,down,↓,1.3019222000148147,True,31,1
JR-K-22K22S1,1318,experiment,58,→,left,←,0.7583051000256091,False,31,1
JR-K-22K22S1,1319,experiment,60,↓,down,↓,0.47581470012664795,True,31,1
JR-K-22K22S1,1320,experiment,92,↓,down,↓,0.6738571999594569,True,31,1
JR-K-22K22S1,1321,experiment,99,←,left,←,0.48559330007992685,True,31,1
JR-K-22K22S1,1322,experiment,78,→,left,←,0.7120052000973374,False,31,1
JR-K-22K22S1,1323,experiment,87,→,right,→,0.677986100083217,True,31,1
JR-K-22K22S1,1324,experiment,90,←,right,→,0.9646318999584764,False,31,1
JR-K-22K22S1,1325,experiment,73,↑,up,↑,0.48530589998699725,True,31,1
JR-K-22K22S1,1326,experiment,100,↑,up,↑,0.44024759996682405,True,31,1
JR-K-22K22S1,1327,experiment,77,↓,right,→,0.7088728002272546,False,31,1
JR-K-22K22S1,1328,experiment,48,←,left,←,1.2160889999940991,True,31,1
JR-K-22K22S1,1329,experiment,74,→,right,→,0.4386287999805063,True,31,1
JR-K-22K22S1,1330,experiment,94,→,right,→,0.6374111000914127,True,31,1
JR-K-22K22S1,1331,experiment,106,↓,down,↓,0.5280402998905629,True,31,1
JR-K-22K22S1,1332,experiment,53,→,right,→,0.7605961000081152,True,31,1
JR-K-22K22S1,1333,experiment,70,↑,left,←,0.6987209999933839,False,31,1
JR-K-22K22S1,1334,experiment,80,→,right,→,0.5081118000671268,True,31,1
JR-K-22K22S1,1335,experiment,101,↑,up,↑,0.733486499870196,True,31,1
JR-K-22K22S1,1336,experiment,55,←,left,←,0.8055638999212533,True,31,1
JR-K-22K22S1,1337,experiment,98,→,right,→,0.6841086999047548,True,31,1
JR-K-22K22S1,1338,experiment,68,↑,up,↑,0.8022110001184046,True,31,1
JR-K-22K22S1,1339,experiment,57,→,right,→,0.679093400016427,True,31,1
JR-K-22K22S1,1340,experiment,63,↓,right,→,1.0063387001864612,False,31,1
JR-K-22K22S1,1341,experiment,76,↑,up,↑,0.9804300998803228,True,31,1
JR-K-22K22S1,1342,experiment,66,↓,down,↓,0.6548472000285983,True,31,1
JR-K-22K22S1,1343,experiment,79,←,left,←,0.6577174998819828,True,31,1
JR-K-22K22S1,1344,experiment,69,←,left,←,0.4801980000920594,True,31,1
JR-K-22K22S1,1345,experiment,51,→,right,→,0.8196636000648141,True,31,1
JR-K-22K22S1,1346,experiment,84,↑,up,↑,0.6947568000759929,True,31,1
JR-K-22K22S1,1347,experiment,54,↑,up,↑,0.6563681999687105,True,31,1
JR-K-22K22S1,1348,experiment,97,↓,down,↓,0.5576202000956982,True,31,1
JR-K-22K22S1,1349,experiment,103,→,right,→,0.39207100006751716,True,31,1
JR-K-22K22S1,1350,experiment,102,↓,down,↓,0.5142382001504302,True,31,0
JR-K-22K22S1,1351,experiment,61,→,right,→,0.6729403999634087,True,31,1
JR-K-22K22S1,1352,experiment,52,→,right,→,0.5403274998534471,True,31,1
JR-K-22K22S1,1353,experiment,89,↑,up,↑,0.4967213000636548,True,31,1
JR-K-22K22S1,1354,experiment,88,↓,down,↓,0.5671746998559684,True,31,1
JR-K-22K22S1,1355,experiment,83,↓,down,↓,0.47648370009846985,True,31,1
JR-K-22K22S1,1356,experiment,107,→,right,→,0.5097769000567496,True,31,1
JR-K-22K22S1,1357,experiment,59,←,right,→,0.8612384998705238,False,31,1
JR-K-22K22S1,1358,experiment,104,↓,right,→,0.8239547000266612,False,31,1
JR-K-22K22S1,1359,experiment,65,←,left,←,0.6491584999021143,True,31,1
JR-K-22K22S1,1360,experiment,64,←,left,←,0.5933290000539273,True,31,1
JR-K-22K22S1,1361,experiment,67,←,right,→,0.987229699967429,False,31,1
JR-K-22K22S1,1362,experiment,62,→,right,→,0.43904009996913373,True,31,1
JR-K-22K22S1,1363,experiment,108,↓,down,↓,0.5925428001210093,True,31,1
JR-K-22K22S1,1364,training,64,→,right,→,0.6041522000450641,True,31,0
JR-K-22K22S1,1365,training,97,↑,up,↑,0.45912869996391237,True,31,1
JR-K-22K22S1,1366,experiment,106,↓,down,↓,0.383705300046131,True,31,1
JR-K-22K22S1,1367,experiment,69,→,right,→,0.3926595998927951,True,31,0
JR-K-22K22S1,1368,experiment,107,↓,down,↓,0.4269057000055909,True,31,1
JR-K-22K22S1,1369,experiment,79,→,right,→,0.4007755001075566,True,31,0
JR-K-22K22S1,1370,experiment,94,↑,up,↑,0.4385663000866771,True,31,0
JR-K-22K22S1,1371,experiment,88,↓,down,↓,0.5031924999784678,True,31,1
JR-K-22K22S1,1372,experiment,65,→,right,→,0.5261077999603003,True,31,1
JR-K-22K22S1,1373,experiment,67,↑,up,↑,0.7617456999141723,True,31,1
JR-K-22K22S1,1374,experiment,68,←,left,←,0.4361616000533104,True,31,1
JR-K-22K22S1,1375,experiment,80,←,left,←,1.215622599935159,True,31,1
JR-K-22K22S1,1376,experiment,50,→,right,→,0.6301618001889437,True,31,1
JR-K-22K22S1,1377,experiment,72,→,right,→,0.7646319998893887,True,31,1
JR-K-22K22S1,1378,experiment,84,→,right,→,1.2014492999296635,True,31,1
JR-K-22K22S1,1379,experiment,85,↓,down,↓,0.5009604999795556,True,31,1
JR-K-22K22S1,1380,experiment,52,↑,right,→,0.8153278001118451,False,31,1
JR-K-22K22S1,1381,experiment,93,↑,down,↓,0.6152323000133038,False,31,1
JR-K-22K22S1,1382,experiment,81,↓,down,↓,0.6433966998010874,True,31,1
JR-K-22K22S1,1383,experiment,86,↑,up,↑,0.8047966999001801,True,31,1
JR-K-22K22S1,1384,experiment,75,→,right,→,0.579084999859333,True,31,1
JR-K-22K22S1,1385,experiment,63,↓,down,↓,0.5025291000492871,True,31,1
JR-K-22K22S1,1386,experiment,64,↓,down,↓,0.4298723000101745,True,31,1
JR-K-22K22S1,1387,experiment,56,←,left,←,0.8727005999535322,True,31,1
JR-K-22K22S1,1388,experiment,87,↑,down,↓,0.6963258001487702,False,31,1
JR-K-22K22S1,1389,experiment,48,↑,up,↑,0.5482753000687808,True,31,1
JR-K-22K22S1,1390,experiment,91,→,right,→,0.6318048001267016,True,31,1
JR-K-22K22S1,1391,experiment,89,↑,up,↑,0.4882616000249982,True,31,1
JR-K-22K22S1,1392,experiment,70,↓,up,↑,0.7169634001329541,False,31,1
JR-K-22K22S1,1393,experiment,103,→,right,→,0.4536543998401612,True,31,1
JR-K-22K22S1,1394,experiment,60,←,left,←,0.4086867000441998,True,31,1
JR-K-22K22S1,1395,experiment,62,→,right,→,0.6814986998215318,True,31,0
JR-K-22K22S1,1396,experiment,90,↑,up,↑,0.47993190004490316,True,31,1
JR-K-22K22S1,1397,experiment,59,→,right,→,0.43319510016590357,True,31,1
JR-K-22K22S1,1398,experiment,108,→,right,→,0.6429709000512958,True,31,1
JR-K-22K22S1,1399,experiment,74,→,right,→,0.6006239000707865,True,31,1
JR-K-22K22S1,1400,experiment,58,→,right,→,0.6289958001580089,True,31,1
JR-K-22K22S1,1401,experiment,54,←,right,→,0.5535029999446124,False,31,1
JR-K-22K22S1,1402,experiment,53,←,left,←,0.44930029986426234,True,31,1
JR-K-22K22S1,1403,experiment,96,←,left,←,1.2307757998351008,True,31,1
JR-K-22K22S1,1404,experiment,104,←,left,←,0.40932160010561347,True,31,1
JR-K-22K22S1,1405,experiment,101,↓,left,←,0.7841250000055879,False,31,1
JR-K-22K22S1,1406,experiment,102,←,left,←,1.166290800087154,True,31,1
JR-K-22K22S1,1407,experiment,57,←,right,→,0.5724852001294494,False,31,1
JR-K-22K22S1,1408,experiment,51,↑,up,↑,0.48404949996620417,True,31,1
JR-K-22K22S1,1409,experiment,95,←,left,←,0.39228809997439384,True,31,1
JR-K-22K22S1,1410,experiment,61,←,left,←,0.8282657999079674,True,31,0
JR-K-22K22S1,1411,experiment,49,←,left,←,1.0266058000270277,True,31,1
JR-K-22K22S1,1412,experiment,100,→,left,←,0.7120298999361694,False,31,1
JR-K-22K22S1,1413,experiment,98,→,right,→,0.482574800029397,True,31,1
JR-K-22K22S1,1414,experiment,77,→,right,→,1.092985900118947,True,31,1
JR-K-22K22S1,1415,experiment,97,↓,right,→,0.6168309999629855,False,31,1
JR-K-22K22S1,1416,experiment,76,↑,up,↑,0.7025004997849464,True,31,1
JR-K-22K22S1,1417,experiment,83,↑,up,↑,0.6225917001720518,True,31,1
JR-K-22K22S1,1418,experiment,82,↓,down,↓,0.5062097001355141,True,31,1
JR-K-22K22S1,1419,experiment,99,→,right,→,0.4843239998444915,True,31,1
