PART_ID,Trial_no,Trial_type,CSI,Stim_letter,Key_pressed,letter_choose,Rt,Corr,Stimulus Time,nDropped
JR-K-22K22S2,1,training,120,→,right,→,0.5926984997931868,True,60,1
JR-K-22K22S2,2,training,120,↑,up,↑,0.5926681999117136,True,60,0
JR-K-22K22S2,3,training,120,←,left,←,0.5006342001724988,True,60,0
JR-K-22K22S2,4,training,120,↑,up,↑,0.45243239984847605,True,60,0
JR-K-22K22S2,5,training,120,↓,down,↓,0.6429904999677092,True,60,0
JR-K-22K22S2,6,training,120,↑,up,↑,0.542390399845317,True,60,0
JR-K-22K22S2,7,training,120,↓,down,↓,0.6176420000847429,True,60,0
JR-K-22K22S2,8,training,120,↑,up,↑,0.643235599854961,True,60,0
JR-K-22K22S2,9,training,120,↑,up,↑,0.5088469998445362,True,60,0
JR-K-22K22S2,10,training,120,↑,up,↑,0.5756290000863373,True,60,0
JR-K-22K22S2,11,training,120,↓,down,↓,0.5845615998841822,True,60,0
JR-K-22K22S2,12,training,120,←,left,←,0.5264103999361396,True,60,0
JR-K-22K22S2,13,training,120,←,left,←,0.609401699854061,True,60,0
JR-K-22K22S2,14,training,120,→,right,→,0.5507980999536812,True,60,0
JR-K-22K22S2,15,training,120,→,right,→,0.5089694999624044,True,60,0
JR-K-22K22S2,16,training,120,←,left,←,0.500545599963516,True,60,0
JR-K-22K22S2,17,training,120,←,left,←,0.600491400109604,True,60,0
JR-K-22K22S2,18,training,120,←,left,←,0.4850935998838395,True,60,0
JR-K-22K22S2,19,training,120,←,left,←,0.5003361999988556,True,60,0
JR-K-22K22S2,20,training,120,↑,up,↑,0.5428166999481618,True,60,0
JR-K-22K22S2,21,no_adaptation,120,↓,down,↓,0.571615600027144,True,36,0
JR-K-22K22S2,22,no_adaptation,120,↑,up,↑,0.5635247000027448,True,36,0
JR-K-22K22S2,23,no_adaptation,120,↓,down,↓,0.651969299884513,True,36,0
JR-K-22K22S2,24,no_adaptation,120,↑,up,↑,0.55278249992989,True,36,0
JR-K-22K22S2,25,no_adaptation,120,↑,up,↑,0.4898185001220554,True,36,0
JR-K-22K22S2,26,no_adaptation,120,→,right,→,0.40058119990862906,True,36,0
JR-K-22K22S2,27,no_adaptation,120,↑,up,↑,0.5402474000584334,True,36,0
JR-K-22K22S2,28,no_adaptation,120,↑,up,↑,0.637550399871543,True,36,0
JR-K-22K22S2,29,no_adaptation,120,→,right,→,0.42620140011422336,True,36,0
JR-K-22K22S2,30,no_adaptation,120,↓,down,↓,0.568781599868089,True,36,0
JR-K-22K22S2,31,no_adaptation,120,←,left,←,0.5689708001445979,True,36,0
JR-K-22K22S2,32,no_adaptation,120,→,right,→,0.4891480999067426,True,36,0
JR-K-22K22S2,33,no_adaptation,120,↓,down,↓,0.5167099998798221,True,36,0
JR-K-22K22S2,34,no_adaptation,120,←,left,←,0.39241460012272,True,36,0
JR-K-22K22S2,35,no_adaptation,120,→,right,→,0.34348480007611215,True,36,0
JR-K-22K22S2,36,no_adaptation,120,←,left,←,0.5030016000382602,True,36,0
JR-K-22K22S2,37,no_adaptation,120,←,left,←,0.39439340005628765,True,36,0
JR-K-22K22S2,38,no_adaptation,120,←,left,←,0.5525235999375582,True,36,0
JR-K-22K22S2,39,no_adaptation,120,↑,up,↑,0.6972266000229865,True,36,0
JR-K-22K22S2,40,no_adaptation,120,↓,down,↓,0.5326018999330699,True,36,0
JR-K-22K22S2,41,training,101,←,left,←,0.5997120998799801,True,36,0
JR-K-22K22S2,42,training,59,↓,down,↓,1.1157644998747855,True,36,1
JR-K-22K22S2,43,experiment,73,←,left,←,0.47874909988604486,True,36,1
JR-K-22K22S2,44,experiment,96,↑,up,↑,0.6030987000558525,True,36,1
JR-K-22K22S2,45,experiment,90,←,left,←,0.6126337999012321,True,36,1
JR-K-22K22S2,46,experiment,79,←,left,←,0.4895522000733763,True,36,1
JR-K-22K22S2,47,experiment,74,→,right,→,0.5890032998286188,True,36,1
JR-K-22K22S2,48,experiment,52,→,left,←,0.5080027999356389,False,36,1
JR-K-22K22S2,49,experiment,108,↓,down,↓,0.6111141999717802,True,36,1
JR-K-22K22S2,50,experiment,104,↑,up,↑,0.6396947999019176,True,36,1
JR-K-22K22S2,51,experiment,89,↑,up,↑,0.5358565000351518,True,36,1
JR-K-22K22S2,52,experiment,82,↓,down,↓,0.5190112001728266,True,36,1
JR-K-22K22S2,53,experiment,83,→,right,→,0.5660329000093043,True,36,1
JR-K-22K22S2,54,experiment,66,↓,down,↓,0.640976499998942,True,36,1
JR-K-22K22S2,55,experiment,99,←,left,←,0.5260481999721378,True,36,1
JR-K-22K22S2,56,experiment,50,←,left,←,0.5040780000854284,True,36,1
JR-K-22K22S2,57,experiment,95,←,left,←,0.5483224000781775,True,36,1
JR-K-22K22S2,58,experiment,63,←,left,←,0.4339699000120163,True,36,1
JR-K-22K22S2,59,experiment,86,↓,down,↓,0.5944022000767291,True,36,0
JR-K-22K22S2,60,experiment,106,←,left,←,0.4503679000772536,True,36,1
JR-K-22K22S2,61,experiment,105,↓,down,↓,0.5453884000889957,True,36,0
JR-K-22K22S2,62,experiment,51,←,left,←,0.5303539000451565,True,36,1
JR-K-22K22S2,63,experiment,101,←,left,←,0.5069160000421107,True,36,1
JR-K-22K22S2,64,experiment,53,↓,down,↓,0.5167253999970853,True,36,1
JR-K-22K22S2,65,experiment,87,↓,down,↓,1.2264610000420362,True,36,1
JR-K-22K22S2,66,experiment,69,←,left,←,0.474790700012818,True,36,1
JR-K-22K22S2,67,experiment,84,↑,up,↑,0.6110902999062091,True,36,1
JR-K-22K22S2,68,experiment,81,↓,down,↓,0.40855460008606315,True,36,1
JR-K-22K22S2,69,experiment,91,←,left,←,0.6162439999170601,True,36,0
JR-K-22K22S2,70,experiment,72,←,left,←,0.5112975998781621,True,36,1
JR-K-22K22S2,71,experiment,65,←,left,←,0.4509749999269843,True,36,1
JR-K-22K22S2,72,experiment,76,→,right,→,0.5690844000782818,True,36,0
JR-K-22K22S2,73,experiment,80,↓,down,↓,0.5915329998824745,True,36,1
JR-K-22K22S2,74,experiment,93,→,right,→,0.5206430999096483,True,36,1
JR-K-22K22S2,75,experiment,60,→,right,→,0.40855740010738373,True,36,1
JR-K-22K22S2,76,experiment,71,↑,up,↑,0.5026756001170725,True,36,0
JR-K-22K22S2,77,experiment,75,←,left,←,0.38473089993931353,True,36,1
JR-K-22K22S2,78,experiment,67,↑,up,↑,0.4832330998033285,True,36,1
JR-K-22K22S2,79,experiment,55,←,left,←,0.5655002999119461,True,36,1
JR-K-22K22S2,80,experiment,77,←,left,←,0.5248496001586318,True,36,1
JR-K-22K22S2,81,experiment,97,↓,down,↓,0.4797030999325216,True,36,1
JR-K-22K22S2,82,experiment,49,↑,up,↑,0.6354394000954926,True,36,1
JR-K-22K22S2,83,experiment,68,↓,down,↓,0.682895400095731,True,36,1
JR-K-22K22S2,84,experiment,64,↓,down,↓,0.6341482999268919,True,36,1
JR-K-22K22S2,85,experiment,70,↑,up,↑,0.505208000075072,True,36,1
JR-K-22K22S2,86,experiment,57,↓,down,↓,0.6095696000847965,True,36,1
JR-K-22K22S2,87,experiment,59,↑,up,↑,0.6693304998334497,True,36,1
JR-K-22K22S2,88,experiment,98,↓,down,↓,0.5456862000282854,True,36,1
JR-K-22K22S2,89,experiment,107,↑,up,↑,1.215697699924931,True,36,1
JR-K-22K22S2,90,experiment,100,←,left,←,0.5732797000091523,True,36,1
JR-K-22K22S2,91,experiment,92,↓,down,↓,0.4953716001473367,True,36,1
JR-K-22K22S2,92,experiment,94,↑,up,↑,0.588164099957794,True,36,1
JR-K-22K22S2,93,experiment,78,←,left,←,0.5942391001153737,True,36,1
JR-K-22K22S2,94,experiment,61,←,left,←,0.6379311000928283,True,36,1
JR-K-22K22S2,95,experiment,48,→,right,→,0.442293600179255,True,36,1
JR-K-22K22S2,96,experiment,85,←,left,←,0.6054686999414116,True,36,0
JR-K-22K22S2,97,experiment,58,↑,up,↑,0.4895180999301374,True,36,1
JR-K-22K22S2,98,experiment,103,↑,up,↑,0.5233038000296801,True,36,1
JR-K-22K22S2,99,experiment,54,↓,down,↓,0.7078958998899907,True,36,1
JR-K-22K22S2,100,experiment,56,↑,up,↑,0.43418570002540946,True,36,1
JR-K-22K22S2,101,experiment,62,↓,down,↓,0.4861192998941988,True,36,0
JR-K-22K22S2,102,experiment,102,↑,up,↑,0.4883598000742495,True,36,1
JR-K-22K22S2,103,experiment,88,←,left,←,0.6068142999429256,True,36,1
JR-K-22K22S2,104,training,80,↓,down,↓,0.6069414999801666,True,35,0
JR-K-22K22S2,105,training,101,→,right,→,0.5568645000457764,True,35,1
JR-K-22K22S2,106,experiment,102,↑,up,↑,0.43458110000938177,True,35,1
JR-K-22K22S2,107,experiment,87,→,right,→,0.6291022999212146,True,35,1
JR-K-22K22S2,108,experiment,63,↓,down,↓,0.6065756001044065,True,35,1
JR-K-22K22S2,109,experiment,97,↓,down,↓,0.7336664998438209,True,35,1
JR-K-22K22S2,110,experiment,59,↓,down,↓,0.41771059995517135,True,35,1
JR-K-22K22S2,111,experiment,92,↓,down,↓,0.6523301000706851,True,35,0
JR-K-22K22S2,112,experiment,68,↓,down,↓,0.4095876000355929,True,35,1
JR-K-22K22S2,113,experiment,90,↓,down,↓,0.5244462999980897,True,35,0
JR-K-22K22S2,114,experiment,98,→,right,→,0.6466198000125587,True,35,1
JR-K-22K22S2,115,experiment,76,↑,up,↑,0.6271244999952614,True,35,1
JR-K-22K22S2,116,experiment,66,↑,up,↑,0.6757057001814246,True,35,1
JR-K-22K22S2,117,experiment,78,←,left,←,0.5743315999861807,True,35,1
JR-K-22K22S2,118,experiment,107,←,left,←,1.1233558000531048,True,35,1
JR-K-22K22S2,119,experiment,58,↑,up,↑,0.5229535999242216,True,35,1
JR-K-22K22S2,120,experiment,94,←,left,←,0.43462250009179115,True,35,1
JR-K-22K22S2,121,experiment,96,↑,up,↑,0.49245020002126694,True,35,1
JR-K-22K22S2,122,experiment,61,↑,up,↑,0.5160012000706047,True,35,1
JR-K-22K22S2,123,experiment,53,↑,up,↑,0.605405000038445,True,35,1
JR-K-22K22S2,124,experiment,62,←,left,←,0.5201505001168698,True,35,1
JR-K-22K22S2,125,experiment,54,←,left,←,0.665218000067398,True,35,1
JR-K-22K22S2,126,experiment,57,→,right,→,0.5073803998529911,True,35,1
JR-K-22K22S2,127,experiment,91,←,left,←,0.5848393000196666,True,35,1
JR-K-22K22S2,128,experiment,88,↓,down,↓,0.6754381000064313,True,35,1
JR-K-22K22S2,129,experiment,89,→,right,→,0.5946742999367416,True,35,1
JR-K-22K22S2,130,experiment,106,→,right,→,0.42549760011024773,True,35,1
JR-K-22K22S2,131,experiment,52,↓,down,↓,0.732067400123924,True,35,0
JR-K-22K22S2,132,experiment,67,↑,up,↑,0.6323975000996143,True,35,1
JR-K-22K22S2,133,experiment,51,→,right,→,0.4178135998081416,True,35,1
JR-K-22K22S2,134,experiment,75,↓,down,↓,0.675623299786821,True,35,1
JR-K-22K22S2,135,experiment,74,↓,down,↓,0.8156397000420839,True,35,1
JR-K-22K22S2,136,experiment,64,↓,down,↓,0.5292751998640597,True,35,1
JR-K-22K22S2,137,experiment,71,↑,up,↑,0.5958969998173416,True,35,1
JR-K-22K22S2,138,experiment,69,↑,up,↑,0.532748700119555,True,35,1
JR-K-22K22S2,139,experiment,81,↓,down,↓,0.508066900074482,True,35,1
JR-K-22K22S2,140,experiment,48,↓,down,↓,0.5278042999561876,True,35,1
JR-K-22K22S2,141,experiment,70,↓,down,↓,0.46723460010252893,True,35,1
JR-K-22K22S2,142,experiment,105,→,right,→,0.5811000999528915,True,35,1
JR-K-22K22S2,143,experiment,77,↓,down,↓,0.5635881999041885,True,35,1
JR-K-22K22S2,144,experiment,82,→,right,→,0.3761592998635024,True,35,1
JR-K-22K22S2,145,experiment,108,←,left,←,0.6457295999862254,True,35,0
JR-K-22K22S2,146,experiment,73,→,right,→,0.627307299990207,True,35,1
JR-K-22K22S2,147,experiment,95,↑,up,↑,1.281939199892804,True,35,1
JR-K-22K22S2,148,experiment,49,→,right,→,0.6700591000262648,True,35,1
JR-K-22K22S2,149,experiment,86,←,left,←,0.5423725000582635,True,35,1
JR-K-22K22S2,150,experiment,80,←,left,←,0.3752748998813331,True,35,1
JR-K-22K22S2,151,experiment,100,↓,down,↓,0.6048904999624938,True,35,0
JR-K-22K22S2,152,experiment,103,↑,up,↑,1.1857497000601143,True,35,1
JR-K-22K22S2,153,experiment,55,↑,up,↑,0.5917718999553472,True,35,1
JR-K-22K22S2,154,experiment,50,↑,up,↑,0.5272070001810789,True,35,1
JR-K-22K22S2,155,experiment,85,↑,up,↑,0.6536109000444412,True,35,1
JR-K-22K22S2,156,experiment,93,↓,down,↓,0.7399751001503319,True,35,1
JR-K-22K22S2,157,experiment,99,→,right,→,0.4618398998863995,True,35,1
JR-K-22K22S2,158,experiment,60,↑,up,↑,0.5821650000289083,True,35,1
JR-K-22K22S2,159,experiment,84,←,left,←,0.6664895999711007,True,35,1
JR-K-22K22S2,160,experiment,101,↓,down,↓,0.518039199989289,True,35,1
JR-K-22K22S2,161,experiment,104,↑,up,↑,0.606162500102073,True,35,1
JR-K-22K22S2,162,experiment,79,←,left,←,0.5553864000830799,True,35,1
JR-K-22K22S2,163,experiment,72,↓,down,↓,0.6929007000289857,True,35,1
JR-K-22K22S2,164,experiment,65,→,right,→,1.1308379999827594,True,35,1
JR-K-22K22S2,165,experiment,56,↓,down,↓,0.5628885000478476,True,35,1
JR-K-22K22S2,166,experiment,83,→,right,→,0.42592399986460805,True,35,1
JR-K-22K22S2,167,training,81,→,right,→,0.5843634000048041,True,34,0
JR-K-22K22S2,168,training,79,→,right,→,0.3670433000661433,True,34,1
JR-K-22K22S2,169,experiment,108,↑,up,↑,0.5872214999981225,True,34,0
JR-K-22K22S2,170,experiment,62,→,right,→,0.4630539999343455,True,34,1
JR-K-22K22S2,171,experiment,93,↓,down,↓,0.7007919000461698,True,34,1
JR-K-22K22S2,172,experiment,65,↓,down,↓,0.45912460004910827,True,34,1
JR-K-22K22S2,173,experiment,59,→,right,→,0.3678621998988092,True,34,1
JR-K-22K22S2,174,experiment,96,→,right,→,0.6449337000958622,True,34,0
JR-K-22K22S2,175,experiment,84,↑,up,↑,0.5588990999385715,True,34,1
JR-K-22K22S2,176,experiment,100,→,right,→,0.6470691000577062,True,34,1
JR-K-22K22S2,177,experiment,83,←,left,←,0.6328844001982361,True,34,1
JR-K-22K22S2,178,experiment,90,→,right,→,0.38620690000243485,True,34,1
JR-K-22K22S2,179,experiment,74,←,left,←,0.417945200111717,True,34,0
JR-K-22K22S2,180,experiment,64,↓,down,↓,0.6659023999236524,True,34,1
JR-K-22K22S2,181,experiment,50,↑,up,↑,0.6700933000538498,True,34,1
JR-K-22K22S2,182,experiment,49,↓,down,↓,0.6752514999825507,True,34,1
JR-K-22K22S2,183,experiment,85,←,left,←,0.45171399996615946,True,34,1
JR-K-22K22S2,184,experiment,48,←,left,←,0.5528869999106973,True,34,0
JR-K-22K22S2,185,experiment,104,↑,up,↑,0.4958066998515278,True,34,1
JR-K-22K22S2,186,experiment,58,→,right,→,1.1763752999249846,True,34,1
JR-K-22K22S2,187,experiment,72,→,right,→,0.48912569996900856,True,34,1
JR-K-22K22S2,188,experiment,105,←,left,←,0.5781037001870573,True,34,1
JR-K-22K22S2,189,experiment,63,→,right,→,1.0452258998993784,True,34,1
JR-K-22K22S2,190,experiment,77,←,left,←,0.5619587998371571,True,34,1
JR-K-22K22S2,191,experiment,66,↓,down,↓,0.701056000078097,True,34,1
JR-K-22K22S2,192,experiment,87,→,right,→,0.4345158999785781,True,34,1
JR-K-22K22S2,193,experiment,102,↑,up,↑,0.6480449000373483,True,34,1
JR-K-22K22S2,194,experiment,88,↓,down,↓,0.5043650998268276,True,34,1
JR-K-22K22S2,195,experiment,75,→,right,→,0.40046999999321997,True,34,1
JR-K-22K22S2,196,experiment,70,↓,down,↓,0.5790872001089156,True,34,0
JR-K-22K22S2,197,experiment,56,↑,up,↑,0.5526930999476463,True,34,1
JR-K-22K22S2,198,experiment,101,→,right,→,0.5202725001145154,True,34,1
JR-K-22K22S2,199,experiment,78,↓,down,↓,0.5935049999970943,True,34,1
JR-K-22K22S2,200,experiment,76,↓,down,↓,0.39261840004473925,True,34,1
JR-K-22K22S2,201,experiment,57,→,right,→,0.3837937000207603,True,34,0
JR-K-22K22S2,202,experiment,82,→,right,→,0.35930940019898117,True,34,0
JR-K-22K22S2,203,experiment,107,←,left,←,0.3680087998509407,True,34,1
JR-K-22K22S2,204,experiment,51,↓,down,↓,1.5826600999571383,True,34,1
JR-K-22K22S2,205,experiment,91,→,right,→,0.39407380018383265,True,34,1
JR-K-22K22S2,206,experiment,69,↓,down,↓,0.5371666001155972,True,34,0
JR-K-22K22S2,207,experiment,97,→,left,←,0.9788981999736279,False,34,1
JR-K-22K22S2,208,experiment,52,↓,down,↓,0.48225499992258847,True,34,1
JR-K-22K22S2,209,experiment,79,←,left,←,0.4094461998902261,True,34,1
JR-K-22K22S2,210,experiment,68,←,left,←,0.39213500008918345,True,34,0
JR-K-22K22S2,211,experiment,81,→,right,→,0.5535542999859899,True,34,0
JR-K-22K22S2,212,experiment,106,↓,down,↓,0.5358734000474215,True,34,1
JR-K-22K22S2,213,experiment,99,→,right,→,0.5689506998751312,True,34,1
JR-K-22K22S2,214,experiment,89,↑,up,↑,0.5484358000103384,True,34,1
JR-K-22K22S2,215,experiment,95,↑,up,↑,0.510307100135833,True,34,1
JR-K-22K22S2,216,experiment,80,←,left,←,0.5828857000451535,True,34,1
JR-K-22K22S2,217,experiment,60,→,right,→,0.5635369000956416,True,34,1
JR-K-22K22S2,218,experiment,71,↓,down,↓,0.6369327998254448,True,34,1
JR-K-22K22S2,219,experiment,86,↓,down,↓,0.6062813000753522,True,34,1
JR-K-22K22S2,220,experiment,103,↑,up,↑,0.6593091001268476,True,34,1
JR-K-22K22S2,221,experiment,92,→,right,→,0.4741607999894768,True,34,1
JR-K-22K22S2,222,experiment,53,→,right,→,0.5811111000366509,True,34,1
JR-K-22K22S2,223,experiment,98,↑,up,↑,0.5088541998993605,True,34,1
JR-K-22K22S2,224,experiment,54,↑,up,↑,0.6383165000006557,True,34,1
JR-K-22K22S2,225,experiment,73,→,right,→,0.627881099935621,True,34,1
JR-K-22K22S2,226,experiment,55,→,right,→,0.4089316998142749,True,34,1
JR-K-22K22S2,227,experiment,61,↑,up,↑,0.5872404000256211,True,34,0
JR-K-22K22S2,228,experiment,94,←,left,←,0.5076627000235021,True,34,1
JR-K-22K22S2,229,experiment,67,←,left,←,0.5688426999840885,True,34,1
JR-K-22K22S2,230,training,98,↓,down,↓,0.6133554999250919,True,33,0
JR-K-22K22S2,231,training,51,↓,down,↓,1.0834339000284672,True,33,1
JR-K-22K22S2,232,experiment,73,→,right,→,0.655577199999243,True,33,1
JR-K-22K22S2,233,experiment,102,↑,up,↑,0.4828300999943167,True,33,1
JR-K-22K22S2,234,experiment,77,↓,down,↓,0.518546000123024,True,33,1
JR-K-22K22S2,235,experiment,69,←,left,←,0.6177656999789178,True,33,1
JR-K-22K22S2,236,experiment,58,→,right,→,0.749551699962467,True,33,1
JR-K-22K22S2,237,experiment,52,↓,down,↓,0.8622665000148118,True,33,1
JR-K-22K22S2,238,experiment,91,←,left,←,0.4445542001631111,True,33,1
JR-K-22K22S2,239,experiment,97,↓,down,↓,0.5619757999666035,True,33,0
JR-K-22K22S2,240,experiment,104,↓,down,↓,0.6162179000675678,True,33,1
JR-K-22K22S2,241,experiment,96,↑,up,↑,0.6313189000356942,True,33,1
JR-K-22K22S2,242,experiment,75,↑,up,↑,0.5490699000656605,True,33,1
JR-K-22K22S2,243,experiment,99,→,right,→,0.5253717999439687,True,33,1
JR-K-22K22S2,244,experiment,101,→,right,→,0.6305265000555664,True,33,1
JR-K-22K22S2,245,experiment,60,↑,up,↑,0.600916099967435,True,33,1
JR-K-22K22S2,246,experiment,92,→,right,→,0.5380299999378622,True,33,1
JR-K-22K22S2,247,experiment,98,↓,down,↓,0.6913299998268485,True,33,1
JR-K-22K22S2,248,experiment,107,↑,up,↑,0.6195638000499457,True,33,1
JR-K-22K22S2,249,experiment,100,↑,up,↑,0.5771115999668837,True,33,1
JR-K-22K22S2,250,experiment,59,←,left,←,0.6469365998636931,True,33,1
JR-K-22K22S2,251,experiment,82,→,right,→,0.6404665999580175,True,33,1
JR-K-22K22S2,252,experiment,105,↓,down,↓,0.7395711001008749,True,33,1
JR-K-22K22S2,253,experiment,78,→,right,→,0.7238030000589788,True,33,1
JR-K-22K22S2,254,experiment,106,↓,down,↓,0.7071652999147773,True,33,1
JR-K-22K22S2,255,experiment,87,→,right,→,0.6972546998877078,True,33,1
JR-K-22K22S2,256,experiment,84,←,left,←,0.7210329999215901,True,33,1
JR-K-22K22S2,257,experiment,56,↓,down,↓,0.5851177000440657,True,33,1
JR-K-22K22S2,258,experiment,57,↑,up,↑,0.5344235999509692,True,33,1
JR-K-22K22S2,259,experiment,53,→,right,→,0.6312633000779897,True,33,1
JR-K-22K22S2,260,experiment,49,←,left,←,0.5732732000760734,True,33,1
JR-K-22K22S2,261,experiment,54,→,right,→,0.6839310000650585,True,33,1
JR-K-22K22S2,262,experiment,50,→,right,→,0.4004889000207186,True,33,1
JR-K-22K22S2,263,experiment,64,↑,up,↑,0.5139000001363456,True,33,0
JR-K-22K22S2,264,experiment,71,↑,up,↑,0.6212923000566661,True,33,1
JR-K-22K22S2,265,experiment,83,→,right,→,0.7046821999829262,True,33,1
JR-K-22K22S2,266,experiment,90,←,left,←,0.4536447001155466,True,33,1
JR-K-22K22S2,267,experiment,76,↓,down,↓,0.6737512000836432,True,33,1
JR-K-22K22S2,268,experiment,103,↓,down,↓,0.5401668001431972,True,33,1
JR-K-22K22S2,269,experiment,62,←,left,←,0.5696137000340968,True,33,1
JR-K-22K22S2,270,experiment,70,→,right,→,0.5154120000079274,True,33,1
JR-K-22K22S2,271,experiment,94,↓,down,↓,0.5990214000921696,True,33,1
JR-K-22K22S2,272,experiment,55,↑,up,↑,0.6364810999948531,True,33,1
JR-K-22K22S2,273,experiment,68,↑,up,↑,0.5079004999715835,True,33,1
JR-K-22K22S2,274,experiment,89,←,left,←,0.48202520003542304,True,33,1
JR-K-22K22S2,275,experiment,63,↓,down,↓,0.8173052999190986,True,33,1
JR-K-22K22S2,276,experiment,61,←,left,←,0.7080351000186056,True,33,1
JR-K-22K22S2,277,experiment,66,↑,up,↑,0.6734308002050966,True,33,1
JR-K-22K22S2,278,experiment,48,↑,up,↑,0.5102099999785423,True,33,1
JR-K-22K22S2,279,experiment,95,↑,up,↑,0.6179982998874038,True,33,1
JR-K-22K22S2,280,experiment,80,↓,down,↓,0.7422904998529702,True,33,1
JR-K-22K22S2,281,experiment,86,↑,up,↑,0.5797890999820083,True,33,1
JR-K-22K22S2,282,experiment,67,↑,up,↑,0.5100642000325024,True,33,1
JR-K-22K22S2,283,experiment,93,↑,up,↑,0.6024390000384301,True,33,1
JR-K-22K22S2,284,experiment,88,←,left,←,0.8369394999463111,True,33,1
JR-K-22K22S2,285,experiment,81,↓,down,↓,0.4880736998748034,True,33,1
JR-K-22K22S2,286,experiment,85,↓,down,↓,0.5839774999767542,True,33,1
JR-K-22K22S2,287,experiment,79,↓,down,↓,0.7659287001006305,True,33,1
JR-K-22K22S2,288,experiment,51,↓,down,↓,0.5261710998602211,True,33,1
JR-K-22K22S2,289,experiment,108,↓,down,↓,0.7247585000004619,True,33,1
JR-K-22K22S2,290,experiment,65,↑,up,↑,0.5296027001459152,True,33,1
JR-K-22K22S2,291,experiment,74,↓,down,↓,0.49957789992913604,True,33,1
JR-K-22K22S2,292,experiment,72,↓,down,↓,0.5992850000038743,True,33,1
JR-K-22K22S2,293,training,98,↓,down,↓,0.49045910011045635,True,32,0
JR-K-22K22S2,294,training,100,↑,up,↑,0.6053419997915626,True,32,1
JR-K-22K22S2,295,experiment,98,↑,up,↑,0.5399066000245512,True,32,1
JR-K-22K22S2,296,experiment,62,→,right,→,1.1612748999614269,True,32,1
JR-K-22K22S2,297,experiment,54,←,left,←,0.6646048999391496,True,32,1
JR-K-22K22S2,298,experiment,68,↓,down,↓,0.6071682998444885,True,32,1
JR-K-22K22S2,299,experiment,78,↓,down,↓,0.4923743999097496,True,32,1
JR-K-22K22S2,300,experiment,76,↓,down,↓,0.599261499941349,True,32,1
JR-K-22K22S2,301,experiment,48,→,right,→,0.4788742000237107,True,32,1
JR-K-22K22S2,302,experiment,88,→,right,→,0.7181667999830097,True,32,1
JR-K-22K22S2,303,experiment,92,→,right,→,0.5546551998704672,True,32,1
JR-K-22K22S2,304,experiment,63,↓,down,↓,0.43930090009234846,True,32,1
JR-K-22K22S2,305,experiment,67,←,left,←,0.7029337000567466,True,32,1
JR-K-22K22S2,306,experiment,102,←,left,←,0.6327771001961082,True,32,1
JR-K-22K22S2,307,experiment,51,↓,down,↓,0.5660170000046492,True,32,1
JR-K-22K22S2,308,experiment,80,↑,up,↑,0.6685391999781132,True,32,1
JR-K-22K22S2,309,experiment,97,→,right,→,0.4097843000199646,True,32,1
JR-K-22K22S2,310,experiment,105,↑,up,↑,0.5807838998734951,True,32,0
JR-K-22K22S2,311,experiment,86,←,left,←,0.3924394000787288,True,32,1
JR-K-22K22S2,312,experiment,93,←,left,←,0.4180540998931974,True,32,0
JR-K-22K22S2,313,experiment,65,→,right,→,0.6262453000526875,True,32,1
JR-K-22K22S2,314,experiment,74,↓,down,↓,0.6404605999123305,True,32,1
JR-K-22K22S2,315,experiment,107,←,left,←,0.3758833999745548,True,32,1
JR-K-22K22S2,316,experiment,100,←,left,←,0.5776595999486744,True,32,0
JR-K-22K22S2,317,experiment,49,←,left,←,0.4821627999190241,True,32,1
JR-K-22K22S2,318,experiment,108,↓,down,↓,0.530663900077343,True,32,1
JR-K-22K22S2,319,experiment,77,←,left,←,0.6514946001116186,True,32,1
JR-K-22K22S2,320,experiment,84,→,right,→,1.0850247000344098,True,32,1
JR-K-22K22S2,321,experiment,90,↓,down,↓,0.6672805000562221,True,32,1
JR-K-22K22S2,322,experiment,56,↑,up,↑,0.6457332998979837,True,32,1
JR-K-22K22S2,323,experiment,61,←,left,←,0.7271673001814634,True,32,1
JR-K-22K22S2,324,experiment,72,↑,up,↑,0.6739641998428851,True,32,1
JR-K-22K22S2,325,experiment,106,↓,down,↓,0.7471911997999996,True,32,1
JR-K-22K22S2,326,experiment,69,←,left,←,0.6939159999601543,True,32,1
JR-K-22K22S2,327,experiment,85,↓,down,↓,0.3920930998865515,True,32,1
JR-K-22K22S2,328,experiment,82,↓,down,↓,0.5542671999428421,True,32,0
JR-K-22K22S2,329,experiment,94,↓,down,↓,0.45277999993413687,True,32,1
JR-K-22K22S2,330,experiment,73,←,left,←,0.6415452999062836,True,32,1
JR-K-22K22S2,331,experiment,91,→,right,→,0.45746869989670813,True,32,1
JR-K-22K22S2,332,experiment,60,↑,up,↑,0.6986867000814527,True,32,1
JR-K-22K22S2,333,experiment,50,↑,up,↑,0.7818223000504076,True,32,1
JR-K-22K22S2,334,experiment,70,←,left,←,0.40874510002322495,True,32,1
JR-K-22K22S2,335,experiment,53,←,left,←,0.5482313998509198,True,32,0
JR-K-22K22S2,336,experiment,87,↑,up,↑,0.47282499982975423,True,32,1
JR-K-22K22S2,337,experiment,99,←,left,←,0.6527930998709053,True,32,1
JR-K-22K22S2,338,experiment,52,→,right,→,0.6492550999391824,True,32,1
JR-K-22K22S2,339,experiment,59,↑,up,↑,0.6352347999345511,True,32,1
JR-K-22K22S2,340,experiment,101,↑,up,↑,0.6558081998955458,True,32,1
JR-K-22K22S2,341,experiment,55,↑,up,↑,0.4991330001503229,True,32,1
JR-K-22K22S2,342,experiment,81,→,right,→,0.5316941998898983,True,32,1
JR-K-22K22S2,343,experiment,58,←,left,←,0.6905457999091595,True,32,1
JR-K-22K22S2,344,experiment,66,↓,down,↓,0.6569075998850167,True,32,1
JR-K-22K22S2,345,experiment,75,→,right,→,0.4770261999219656,True,32,1
JR-K-22K22S2,346,experiment,96,↓,down,↓,0.6815784999635071,True,32,1
JR-K-22K22S2,347,experiment,71,←,left,←,0.5983441001735628,True,32,1
JR-K-22K22S2,348,experiment,83,↓,down,↓,0.45052660000510514,True,32,1
JR-K-22K22S2,349,experiment,104,→,right,→,0.41777849989011884,True,32,1
JR-K-22K22S2,350,experiment,89,↑,up,↑,0.6306313001550734,True,32,1
JR-K-22K22S2,351,experiment,95,↓,down,↓,0.7011855999007821,True,32,1
JR-K-22K22S2,352,experiment,57,←,left,←,0.5419089000206441,True,32,1
JR-K-22K22S2,353,experiment,64,↑,up,↑,0.5228331000544131,True,32,1
JR-K-22K22S2,354,experiment,79,←,left,←,0.39307420002296567,True,32,1
JR-K-22K22S2,355,experiment,103,↑,up,↑,0.7844293999951333,True,32,1
JR-K-22K22S2,356,training,71,↑,up,↑,0.5526846998836845,True,31,0
JR-K-22K22S2,357,training,50,↑,up,↑,0.4656140999868512,True,31,1
JR-K-22K22S2,358,experiment,76,↑,up,↑,0.5415892999153584,True,31,1
JR-K-22K22S2,359,experiment,94,←,left,←,1.064156899927184,True,31,1
JR-K-22K22S2,360,experiment,102,→,right,→,0.36712439986877143,True,31,1
JR-K-22K22S2,361,experiment,106,↓,down,↓,0.4806154000107199,True,31,0
JR-K-22K22S2,362,experiment,68,→,right,→,0.47830340010114014,True,31,1
JR-K-22K22S2,363,experiment,67,→,right,→,0.7245976000558585,True,31,1
JR-K-22K22S2,364,experiment,51,←,right,→,0.4307243002112955,False,31,1
JR-K-22K22S2,365,experiment,63,→,right,→,0.6160027999430895,True,31,0
JR-K-22K22S2,366,experiment,99,↑,up,↑,0.5180144000332803,True,31,1
JR-K-22K22S2,367,experiment,85,↓,down,↓,0.7725174999795854,True,31,1
JR-K-22K22S2,368,experiment,71,↓,down,↓,0.7016784998122603,True,31,1
JR-K-22K22S2,369,experiment,65,←,left,←,0.5879238001070917,True,31,1
JR-K-22K22S2,370,experiment,95,←,left,←,0.5000122000928968,True,31,1
JR-K-22K22S2,371,experiment,53,←,right,→,0.5499361001420766,False,31,1
JR-K-22K22S2,372,experiment,105,↓,down,↓,0.7171726000960916,True,31,1
JR-K-22K22S2,373,experiment,75,↓,down,↓,0.566895900061354,True,31,1
JR-K-22K22S2,374,experiment,104,→,right,→,0.90132059995085,True,31,1
JR-K-22K22S2,375,experiment,84,→,right,→,0.7089379001408815,True,31,1
JR-K-22K22S2,376,experiment,78,→,right,→,0.6783082000911236,True,31,1
JR-K-22K22S2,377,experiment,62,←,left,←,0.5984370999503881,True,31,1
JR-K-22K22S2,378,experiment,52,→,right,→,0.6372382000554353,True,31,1
JR-K-22K22S2,379,experiment,49,→,right,→,0.59511399990879,True,31,1
JR-K-22K22S2,380,experiment,57,→,right,→,0.5441104001365602,True,31,1
JR-K-22K22S2,381,experiment,100,←,left,←,0.4647912001237273,True,31,1
JR-K-22K22S2,382,experiment,98,←,left,←,0.48505560006015,True,31,1
JR-K-22K22S2,383,experiment,77,→,right,→,0.38579729991033673,True,31,1
JR-K-22K22S2,384,experiment,91,→,right,→,0.48952549998648465,True,31,0
JR-K-22K22S2,385,experiment,74,→,right,→,0.57264249981381,True,31,1
JR-K-22K22S2,386,experiment,90,←,left,←,0.5513712998945266,True,31,1
JR-K-22K22S2,387,experiment,97,→,right,→,0.5289052999578416,True,31,1
JR-K-22K22S2,388,experiment,66,←,left,←,0.6133114998228848,True,31,1
JR-K-22K22S2,389,experiment,60,←,left,←,0.5042852000333369,True,31,1
JR-K-22K22S2,390,experiment,87,↓,down,↓,0.654949399875477,True,31,1
JR-K-22K22S2,391,experiment,82,→,right,→,0.6488344999961555,True,31,1
JR-K-22K22S2,392,experiment,54,→,right,→,0.4604776999913156,True,31,1
JR-K-22K22S2,393,experiment,69,←,left,←,0.6189624997787178,True,31,1
JR-K-22K22S2,394,experiment,80,←,left,←,0.615280699916184,True,31,1
JR-K-22K22S2,395,experiment,101,↑,up,↑,0.6365590998902917,True,31,1
JR-K-22K22S2,396,experiment,107,↑,up,↑,0.7511370000429451,True,31,1
JR-K-22K22S2,397,experiment,103,→,right,→,0.5587739001493901,True,31,1
JR-K-22K22S2,398,experiment,50,→,right,→,0.5434303998481482,True,31,1
JR-K-22K22S2,399,experiment,93,↑,up,↑,0.59436220000498,True,31,1
JR-K-22K22S2,400,experiment,92,↓,down,↓,0.843537800014019,True,31,1
JR-K-22K22S2,401,experiment,89,←,left,←,0.49988580006174743,True,31,1
JR-K-22K22S2,402,experiment,64,↓,down,↓,0.4261298000346869,True,31,1
JR-K-22K22S2,403,experiment,72,→,right,→,0.5286787000950426,True,31,0
JR-K-22K22S2,404,experiment,81,↑,up,↑,0.6242494001053274,True,31,1
JR-K-22K22S2,405,experiment,59,↑,up,↑,0.5792059001978487,True,31,1
JR-K-22K22S2,406,experiment,96,↑,up,↑,0.6114901001565158,True,31,1
JR-K-22K22S2,407,experiment,58,↑,up,↑,0.6956150000914931,True,31,1
JR-K-22K22S2,408,experiment,48,↓,down,↓,0.7794733999762684,True,31,1
JR-K-22K22S2,409,experiment,86,↓,down,↓,0.76718939980492,True,31,1
JR-K-22K22S2,410,experiment,70,↓,down,↓,0.5687375001143664,True,31,1
JR-K-22K22S2,411,experiment,61,↑,up,↑,0.4695653999224305,True,31,1
JR-K-22K22S2,412,experiment,73,→,right,→,0.45805960008874536,True,31,1
JR-K-22K22S2,413,experiment,79,←,left,←,1.0450109001249075,True,31,1
JR-K-22K22S2,414,experiment,88,↓,down,↓,0.4457233001012355,True,31,1
JR-K-22K22S2,415,experiment,83,↓,down,↓,0.6076661001425236,True,31,1
JR-K-22K22S2,416,experiment,108,↑,up,↑,0.6750799000728875,True,31,1
JR-K-22K22S2,417,experiment,55,↓,down,↓,0.5577016999013722,True,31,1
JR-K-22K22S2,418,experiment,56,←,left,←,0.5563390001188964,True,31,1
JR-K-22K22S2,419,training,94,↑,up,↑,0.5574021998327225,True,30,0
JR-K-22K22S2,420,training,81,→,right,→,0.47611739998683333,True,30,1
JR-K-22K22S2,421,experiment,95,↓,down,↓,0.6808635999914259,True,30,1
JR-K-22K22S2,422,experiment,70,↑,up,↑,0.4780846000649035,True,30,1
JR-K-22K22S2,423,experiment,66,←,left,←,0.5485095002222806,True,30,1
JR-K-22K22S2,424,experiment,90,↑,up,↑,0.46400319994427264,True,30,1
JR-K-22K22S2,425,experiment,65,←,left,←,0.6074205001350492,True,30,1
JR-K-22K22S2,426,experiment,78,→,right,→,0.5889367999043316,True,30,1
JR-K-22K22S2,427,experiment,68,↑,up,↑,0.4543806998990476,True,30,1
JR-K-22K22S2,428,experiment,85,→,right,→,0.39287419989705086,True,30,1
JR-K-22K22S2,429,experiment,54,←,left,←,0.5093185000587255,True,30,0
JR-K-22K22S2,430,experiment,51,↓,down,↓,0.7836624002084136,True,30,1
JR-K-22K22S2,431,experiment,82,↑,up,↑,0.4764984999783337,True,30,1
JR-K-22K22S2,432,experiment,98,←,left,←,0.7125717999879271,True,30,1
JR-K-22K22S2,433,experiment,53,←,left,←,0.3763400998432189,True,30,1
JR-K-22K22S2,434,experiment,76,↑,up,↑,0.6013573000673205,True,30,1
JR-K-22K22S2,435,experiment,80,→,right,→,0.5502313999459147,True,30,1
JR-K-22K22S2,436,experiment,62,→,right,→,0.40147459995932877,True,30,1
JR-K-22K22S2,437,experiment,93,→,right,→,0.37628139997832477,True,30,0
JR-K-22K22S2,438,experiment,100,→,right,→,0.59461610019207,True,30,0
JR-K-22K22S2,439,experiment,60,→,right,→,0.49432709999382496,True,30,1
JR-K-22K22S2,440,experiment,69,←,left,←,0.6037373000290245,True,30,1
JR-K-22K22S2,441,experiment,49,↓,down,↓,0.7550763001199812,True,30,1
JR-K-22K22S2,442,experiment,101,↓,down,↓,0.5147426000330597,True,30,1
JR-K-22K22S2,443,experiment,92,→,right,→,0.53522550011985,True,30,1
JR-K-22K22S2,444,experiment,74,→,right,→,0.46494439989328384,True,30,1
JR-K-22K22S2,445,experiment,97,↑,up,↑,0.7655197000131011,True,30,1
JR-K-22K22S2,446,experiment,87,←,left,←,0.5535413001198322,True,30,1
JR-K-22K22S2,447,experiment,106,←,left,←,0.6321557001210749,True,30,1
JR-K-22K22S2,448,experiment,88,↓,down,↓,0.54524050001055,True,30,1
JR-K-22K22S2,449,experiment,103,↓,down,↓,0.6087349001318216,True,30,1
JR-K-22K22S2,450,experiment,56,→,right,→,0.6855578001122922,True,30,1
JR-K-22K22S2,451,experiment,86,←,left,←,0.5571502998936921,True,30,1
JR-K-22K22S2,452,experiment,71,↑,up,↑,0.5264444998465478,True,30,1
JR-K-22K22S2,453,experiment,84,→,right,→,0.5812808000482619,True,30,1
JR-K-22K22S2,454,experiment,63,↓,down,↓,0.4646928000729531,True,30,1
JR-K-22K22S2,455,experiment,81,↑,up,↑,0.5308411000296474,True,30,1
JR-K-22K22S2,456,experiment,59,↑,up,↑,0.5297071998938918,True,30,1
JR-K-22K22S2,457,experiment,83,↑,up,↑,0.600679500028491,True,30,1
JR-K-22K22S2,458,experiment,104,↑,up,↑,0.5097515000961721,True,30,1
JR-K-22K22S2,459,experiment,94,←,left,←,0.48998730001039803,True,30,1
JR-K-22K22S2,460,experiment,50,←,left,←,0.7090092999860644,True,30,1
JR-K-22K22S2,461,experiment,73,←,left,←,0.4882138001266867,True,30,1
JR-K-22K22S2,462,experiment,102,→,right,→,0.7542361000087112,True,30,1
JR-K-22K22S2,463,experiment,89,↓,left,←,0.4301572998519987,False,30,1
JR-K-22K22S2,464,experiment,96,↓,down,↓,0.6283709998242557,True,30,1
JR-K-22K22S2,465,experiment,61,↑,up,↑,0.5108606999274343,True,30,1
JR-K-22K22S2,466,experiment,52,↑,up,↑,0.5447215000167489,True,30,1
JR-K-22K22S2,467,experiment,57,↑,up,↑,0.4878322998993099,True,30,1
JR-K-22K22S2,468,experiment,91,↓,down,↓,0.5897431001067162,True,30,1
JR-K-22K22S2,469,experiment,72,↑,up,↑,0.44561200006864965,True,30,1
JR-K-22K22S2,470,experiment,107,↓,down,↓,0.4012770999688655,True,30,1
JR-K-22K22S2,471,experiment,67,↓,down,↓,0.4888173001818359,True,30,0
JR-K-22K22S2,472,experiment,99,↑,up,↑,0.5321216001175344,True,30,1
JR-K-22K22S2,473,experiment,77,↑,up,↑,0.6606821999885142,True,30,1
JR-K-22K22S2,474,experiment,108,↓,down,↓,0.5660180000122637,True,30,1
JR-K-22K22S2,475,experiment,48,←,left,←,0.5671162998769432,True,30,1
JR-K-22K22S2,476,experiment,75,↓,down,↓,0.5271795999724418,True,30,1
JR-K-22K22S2,477,experiment,58,←,left,←,0.5824937999714166,True,30,1
JR-K-22K22S2,478,experiment,55,↓,down,↓,0.4367513998877257,True,30,1
JR-K-22K22S2,479,experiment,79,→,right,→,0.7605294999666512,True,30,1
JR-K-22K22S2,480,experiment,105,→,right,→,0.47078160010278225,True,30,1
JR-K-22K22S2,481,experiment,64,↓,down,↓,0.582330800127238,True,30,1
JR-K-22K22S2,482,training,54,↑,up,↑,0.4986758998129517,True,29,0
JR-K-22K22S2,483,training,90,→,right,→,0.36121980007737875,True,29,1
JR-K-22K22S2,484,experiment,99,↓,down,↓,0.42445769999176264,True,29,0
JR-K-22K22S2,485,experiment,79,↑,up,↑,0.47681720019318163,True,29,1
JR-K-22K22S2,486,experiment,75,→,right,→,0.42466440005227923,True,29,1
JR-K-22K22S2,487,experiment,101,→,right,→,0.6294599999673665,True,29,1
JR-K-22K22S2,488,experiment,83,→,right,→,0.3839608000125736,True,29,1
JR-K-22K22S2,489,experiment,92,←,left,←,1.2817404000088573,True,29,0
JR-K-22K22S2,490,experiment,60,→,right,→,0.3929553001653403,True,29,1
JR-K-22K22S2,491,experiment,102,↓,down,↓,0.4958842999767512,True,29,1
JR-K-22K22S2,492,experiment,71,→,right,→,0.7559641997795552,True,29,1
JR-K-22K22S2,493,experiment,68,←,left,←,0.5185950000304729,True,29,1
JR-K-22K22S2,494,experiment,64,→,right,→,0.46851529995910823,True,29,1
JR-K-22K22S2,495,experiment,61,↓,down,↓,0.5653852000832558,True,29,1
JR-K-22K22S2,496,experiment,77,↓,down,↓,0.5091293998993933,True,29,1
JR-K-22K22S2,497,experiment,50,←,left,←,0.4555232999846339,True,29,1
JR-K-22K22S2,498,experiment,67,↓,down,↓,0.5425154999829829,True,29,1
JR-K-22K22S2,499,experiment,84,↑,up,↑,0.5486041000112891,True,29,1
JR-K-22K22S2,500,experiment,69,↑,up,↑,0.5754688000306487,True,29,1
JR-K-22K22S2,501,experiment,89,→,right,→,0.6264758000615984,True,29,1
JR-K-22K22S2,502,experiment,88,↓,down,↓,0.4201984000392258,True,29,1
JR-K-22K22S2,503,experiment,87,→,right,→,0.41382679995149374,True,29,1
JR-K-22K22S2,504,experiment,48,↑,up,↑,0.5646118998993188,True,29,1
JR-K-22K22S2,505,experiment,94,←,left,←,0.5422694000881165,True,29,1
JR-K-22K22S2,506,experiment,98,←,left,←,0.6476167000364512,True,29,1
JR-K-22K22S2,507,experiment,63,↑,up,↑,0.5366960999090225,True,29,1
JR-K-22K22S2,508,experiment,103,←,left,←,0.5841179999988526,True,29,1
JR-K-22K22S2,509,experiment,90,←,left,←,0.48254030011594296,True,29,1
JR-K-22K22S2,510,experiment,85,↓,down,↓,0.41060469998046756,True,29,1
JR-K-22K22S2,511,experiment,49,↑,up,↑,0.9213200001977384,True,29,0
JR-K-22K22S2,512,experiment,86,→,right,→,0.4793694999534637,True,29,1
JR-K-22K22S2,513,experiment,52,←,left,←,0.5305327998939902,True,29,1
JR-K-22K22S2,514,experiment,96,→,right,→,0.45297240000218153,True,29,1
JR-K-22K22S2,515,experiment,97,↓,down,↓,0.6182923999149352,True,29,1
JR-K-22K22S2,516,experiment,72,↑,up,↑,0.6013955001253635,True,29,1
JR-K-22K22S2,517,experiment,59,↓,down,↓,0.4453385001979768,True,29,1
JR-K-22K22S2,518,experiment,57,↑,up,↑,0.7362343999557197,True,29,1
JR-K-22K22S2,519,experiment,73,←,left,←,0.41810290003195405,True,29,1
JR-K-22K22S2,520,experiment,80,→,right,→,0.6066590000409633,True,29,1
JR-K-22K22S2,521,experiment,106,←,right,→,0.48271490004844964,False,29,1
JR-K-22K22S2,522,experiment,100,←,left,←,0.5417960998602211,True,29,1
JR-K-22K22S2,523,experiment,70,↓,down,↓,0.6247448001522571,True,29,1
JR-K-22K22S2,524,experiment,107,→,right,→,0.4913677000440657,True,29,1
JR-K-22K22S2,525,experiment,93,↓,down,↓,0.60058099986054,True,29,1
JR-K-22K22S2,526,experiment,51,↓,down,↓,0.6631582998670638,True,29,1
JR-K-22K22S2,527,experiment,81,↓,down,↓,0.43331019999459386,True,29,1
JR-K-22K22S2,528,experiment,53,↑,up,↑,0.5022819000296295,True,29,1
JR-K-22K22S2,529,experiment,78,↓,down,↓,0.6154385998379439,True,29,1
JR-K-22K22S2,530,experiment,74,←,left,←,0.5340017001144588,True,29,1
JR-K-22K22S2,531,experiment,55,↑,up,↑,0.6300633000209928,True,29,1
JR-K-22K22S2,532,experiment,65,↓,down,↓,0.774785399902612,True,29,1
JR-K-22K22S2,533,experiment,104,↓,down,↓,0.5008111998904496,True,29,1
JR-K-22K22S2,534,experiment,91,↑,down,↓,0.4500567000359297,False,29,1
JR-K-22K22S2,535,experiment,95,↑,up,↑,0.6402359998319298,True,29,1
JR-K-22K22S2,536,experiment,105,↑,up,↑,0.5632370000239462,True,29,1
JR-K-22K22S2,537,experiment,76,←,left,←,0.5710253999568522,True,29,1
JR-K-22K22S2,538,experiment,56,→,right,→,0.4571323001291603,True,29,1
JR-K-22K22S2,539,experiment,108,←,left,←,0.5464813001453876,True,29,1
JR-K-22K22S2,540,experiment,66,→,right,→,0.6861485000699759,True,29,1
JR-K-22K22S2,541,experiment,62,↓,down,↓,0.6057611999567598,True,29,1
JR-K-22K22S2,542,experiment,54,↓,down,↓,0.5149738001637161,True,29,1
JR-K-22K22S2,543,experiment,82,↓,down,↓,0.4666706998832524,True,29,1
JR-K-22K22S2,544,experiment,58,→,right,→,0.4845390000846237,True,29,1
JR-K-22K22S2,545,training,97,↓,down,↓,0.5633748001419008,True,28,0
JR-K-22K22S2,546,training,50,→,right,→,0.41204810002818704,True,28,1
JR-K-22K22S2,547,experiment,71,↓,down,↓,0.40377099998295307,True,28,1
JR-K-22K22S2,548,experiment,108,←,left,←,0.43863900005817413,True,28,0
JR-K-22K22S2,549,experiment,89,→,right,→,0.4148382998537272,True,28,1
JR-K-22K22S2,550,experiment,56,→,right,→,0.6194939999841154,True,28,1
JR-K-22K22S2,551,experiment,103,←,left,←,0.5761353999841958,True,28,1
JR-K-22K22S2,552,experiment,63,←,left,←,0.4678328998852521,True,28,1
JR-K-22K22S2,553,experiment,69,←,left,←,0.4899760999251157,True,28,1
JR-K-22K22S2,554,experiment,48,→,right,→,0.49409570009447634,True,28,1
JR-K-22K22S2,555,experiment,53,↓,right,→,1.0805156999267638,False,28,1
JR-K-22K22S2,556,experiment,72,←,left,←,0.4850600999779999,True,28,1
JR-K-22K22S2,557,experiment,80,←,left,←,0.6466439999639988,True,28,1
JR-K-22K22S2,558,experiment,77,→,right,→,0.7947713998146355,True,28,1
JR-K-22K22S2,559,experiment,52,↓,down,↓,0.585169899975881,True,28,1
JR-K-22K22S2,560,experiment,67,←,left,←,0.7071986999362707,True,28,1
JR-K-22K22S2,561,experiment,64,←,left,←,0.48108910000883043,True,28,1
JR-K-22K22S2,562,experiment,107,↑,up,↑,0.5459706000983715,True,28,1
JR-K-22K22S2,563,experiment,78,→,right,→,0.5856361999176443,True,28,1
JR-K-22K22S2,564,experiment,62,↓,down,↓,0.7973404000513256,True,28,1
JR-K-22K22S2,565,experiment,58,→,right,→,0.4179666000418365,True,28,1
JR-K-22K22S2,566,experiment,106,←,left,←,0.5493983998894691,True,28,1
JR-K-22K22S2,567,experiment,60,↑,up,↑,0.6352185998111963,True,28,1
JR-K-22K22S2,568,experiment,51,→,right,→,0.6406169000547379,True,28,1
JR-K-22K22S2,569,experiment,104,→,right,→,0.4999806999694556,True,28,1
JR-K-22K22S2,570,experiment,105,←,left,←,0.692651699995622,True,28,1
JR-K-22K22S2,571,experiment,54,↓,down,↓,0.4868629998527467,True,28,1
JR-K-22K22S2,572,experiment,59,↓,down,↓,0.5834838000591844,True,28,1
JR-K-22K22S2,573,experiment,93,↑,up,↑,0.4728460998740047,True,28,1
JR-K-22K22S2,574,experiment,98,↓,down,↓,0.6290268001612276,True,28,1
JR-K-22K22S2,575,experiment,76,↑,up,↑,0.4901628000661731,True,28,1
JR-K-22K22S2,576,experiment,49,→,right,→,0.7739250999875367,True,28,1
JR-K-22K22S2,577,experiment,66,↑,up,↑,0.5364122001919895,True,28,1
JR-K-22K22S2,578,experiment,57,←,left,←,0.6960424000862986,True,28,1
JR-K-22K22S2,579,experiment,73,→,right,→,0.6672453000210226,True,28,1
JR-K-22K22S2,580,experiment,86,↑,up,↑,0.5237900000065565,True,28,1
JR-K-22K22S2,581,experiment,82,←,left,←,0.4750091000460088,True,28,1
JR-K-22K22S2,582,experiment,97,→,right,→,0.5354372998699546,True,28,1
JR-K-22K22S2,583,experiment,96,↑,left,←,0.8255403998773545,False,28,1
JR-K-22K22S2,584,experiment,65,↑,up,↑,0.5707129000220448,True,28,1
JR-K-22K22S2,585,experiment,87,↓,down,↓,0.7983428000006825,True,28,1
JR-K-22K22S2,586,experiment,91,↓,down,↓,0.5116310000885278,True,28,1
JR-K-22K22S2,587,experiment,50,→,right,→,0.6103894000407308,True,28,1
JR-K-22K22S2,588,experiment,102,→,right,→,0.5518666999414563,True,28,1
JR-K-22K22S2,589,experiment,84,↑,up,↑,0.6615785001777112,True,28,1
JR-K-22K22S2,590,experiment,81,←,left,←,0.6480349998455495,True,28,1
JR-K-22K22S2,591,experiment,100,←,left,←,0.5482732001692057,True,28,1
JR-K-22K22S2,592,experiment,92,↑,up,↑,0.7355100000277162,True,28,1
JR-K-22K22S2,593,experiment,99,→,right,→,1.1365741998888552,True,28,1
JR-K-22K22S2,594,experiment,95,↑,up,↑,0.47548190015368164,True,28,1
JR-K-22K22S2,595,experiment,101,→,right,→,0.5423362001311034,True,28,1
JR-K-22K22S2,596,experiment,75,←,left,←,0.5592992999590933,True,28,1
JR-K-22K22S2,597,experiment,83,↑,up,↑,0.645097800064832,True,28,1
JR-K-22K22S2,598,experiment,88,↑,up,↑,0.5734082001727074,True,28,1
JR-K-22K22S2,599,experiment,55,→,right,→,0.6597394000273198,True,28,1
JR-K-22K22S2,600,experiment,85,←,left,←,0.5249407000374049,True,28,1
JR-K-22K22S2,601,experiment,90,↓,down,↓,0.7136565998662263,True,28,1
JR-K-22K22S2,602,experiment,94,↓,down,↓,0.5813805998768657,True,28,1
JR-K-22K22S2,603,experiment,68,↑,up,↑,0.5430968999862671,True,28,1
JR-K-22K22S2,604,experiment,79,←,left,←,0.6309284998569638,True,28,1
JR-K-22K22S2,605,experiment,70,→,right,→,0.549639199860394,True,28,1
JR-K-22K22S2,606,experiment,61,↓,down,↓,0.5392779998946935,True,28,1
JR-K-22K22S2,607,experiment,74,↑,up,↑,0.6286204000934958,True,28,1
JR-K-22K22S2,608,training,58,↑,up,↑,0.5665251000318676,True,28,0
JR-K-22K22S2,609,training,53,←,left,←,0.46191239985637367,True,28,1
JR-K-22K22S2,610,experiment,80,↑,up,↑,0.5763490002136678,True,28,1
JR-K-22K22S2,611,experiment,89,→,right,→,0.5472987000830472,True,28,1
JR-K-22K22S2,612,experiment,100,↑,up,↑,0.5317992998752743,True,28,1
JR-K-22K22S2,613,experiment,108,↓,right,→,0.4028737999033183,False,28,1
JR-K-22K22S2,614,experiment,81,↑,up,↑,0.4464616999030113,True,28,0
JR-K-22K22S2,615,experiment,84,↑,up,↑,0.5846813002135605,True,28,1
JR-K-22K22S2,616,experiment,75,↑,up,↑,0.5441163999494165,True,28,1
JR-K-22K22S2,617,experiment,98,→,right,→,0.47348559997044504,True,28,1
JR-K-22K22S2,618,experiment,74,↑,up,↑,0.5416471001226455,True,28,1
JR-K-22K22S2,619,experiment,88,→,right,→,0.40315499994903803,True,28,1
JR-K-22K22S2,620,experiment,79,←,right,→,0.44740530010312796,False,28,0
JR-K-22K22S2,621,experiment,94,←,left,←,0.5897894999943674,True,28,1
JR-K-22K22S2,622,experiment,67,↑,up,↑,0.4955346998758614,True,28,1
JR-K-22K22S2,623,experiment,55,→,right,→,1.088912099832669,True,28,1
JR-K-22K22S2,624,experiment,57,↓,down,↓,0.4660515000578016,True,28,1
JR-K-22K22S2,625,experiment,96,←,left,←,0.5830155001021922,True,28,1
JR-K-22K22S2,626,experiment,78,↑,up,↑,0.5494673000648618,True,28,1
JR-K-22K22S2,627,experiment,82,→,right,→,0.6198613001033664,True,28,1
JR-K-22K22S2,628,experiment,62,↓,down,↓,0.48620159993879497,True,28,1
JR-K-22K22S2,629,experiment,72,↑,up,↑,0.4586604000069201,True,28,1
JR-K-22K22S2,630,experiment,73,←,left,←,0.4395917998626828,True,28,1
JR-K-22K22S2,631,experiment,103,↓,down,↓,0.6034814000595361,True,28,1
JR-K-22K22S2,632,experiment,76,↓,down,↓,0.6498380000703037,True,28,1
JR-K-22K22S2,633,experiment,90,↓,down,↓,0.3511142001952976,True,28,1
JR-K-22K22S2,634,experiment,52,↓,down,↓,0.34217120008543134,True,28,0
JR-K-22K22S2,635,experiment,59,→,right,→,0.9438267999794334,True,28,0
JR-K-22K22S2,636,experiment,71,→,right,→,0.609989499906078,True,28,1
JR-K-22K22S2,637,experiment,105,↓,down,↓,0.5105461999773979,True,28,1
JR-K-22K22S2,638,experiment,63,→,right,→,0.6049351000692695,True,28,1
JR-K-22K22S2,639,experiment,107,↑,up,↑,0.70453149988316,True,28,1
JR-K-22K22S2,640,experiment,104,→,right,→,0.42544849985279143,True,28,1
JR-K-22K22S2,641,experiment,58,↑,up,↑,0.5326197000686079,True,28,1
JR-K-22K22S2,642,experiment,101,→,right,→,0.541429900098592,True,28,1
JR-K-22K22S2,643,experiment,77,↓,down,↓,0.43765849992632866,True,28,1
JR-K-22K22S2,644,experiment,66,→,right,→,0.7018498999532312,True,28,1
JR-K-22K22S2,645,experiment,70,↓,down,↓,0.5539045999757946,True,28,1
JR-K-22K22S2,646,experiment,87,↓,down,↓,0.41482980013825,True,28,1
JR-K-22K22S2,647,experiment,68,↓,down,↓,1.215069100027904,True,28,1
JR-K-22K22S2,648,experiment,56,←,left,←,0.4514727999921888,True,28,1
JR-K-22K22S2,649,experiment,53,↓,down,↓,0.43161590001545846,True,28,1
JR-K-22K22S2,650,experiment,93,↓,down,↓,0.3763409999664873,True,28,1
JR-K-22K22S2,651,experiment,83,→,right,→,0.47581190010532737,True,28,1
JR-K-22K22S2,652,experiment,99,→,right,→,0.6315792000386864,True,28,1
JR-K-22K22S2,653,experiment,49,↑,up,↑,0.6374466998968273,True,28,1
JR-K-22K22S2,654,experiment,106,←,left,←,1.0160682001151145,True,28,1
JR-K-22K22S2,655,experiment,102,→,right,→,0.6931485999375582,True,28,1
JR-K-22K22S2,656,experiment,92,↓,down,↓,0.6263884999789298,True,28,1
JR-K-22K22S2,657,experiment,69,→,right,→,0.45827140007168055,True,28,1
JR-K-22K22S2,658,experiment,97,↑,up,↑,0.5753023999277502,True,28,1
JR-K-22K22S2,659,experiment,61,←,left,←,0.5236798000987619,True,28,1
JR-K-22K22S2,660,experiment,91,→,right,→,0.4401501000393182,True,28,1
JR-K-22K22S2,661,experiment,50,↑,up,↑,0.5656427999492735,True,28,1
JR-K-22K22S2,662,experiment,48,→,right,→,0.6545968998689204,True,28,1
JR-K-22K22S2,663,experiment,86,←,left,←,0.4392776999156922,True,28,1
JR-K-22K22S2,664,experiment,65,→,right,→,0.551796899875626,True,28,1
JR-K-22K22S2,665,experiment,85,↓,down,↓,0.5172562999650836,True,28,1
JR-K-22K22S2,666,experiment,95,←,left,←,0.3756820000708103,True,28,1
JR-K-22K22S2,667,experiment,60,→,right,→,0.557023299857974,True,28,0
JR-K-22K22S2,668,experiment,51,↓,down,↓,0.6215021999087185,True,28,1
JR-K-22K22S2,669,experiment,64,↑,up,↑,0.5988183000590652,True,28,1
JR-K-22K22S2,670,experiment,54,↓,down,↓,0.5646412000060081,True,28,1
JR-K-22K22S2,671,training,73,→,right,→,0.5041657998226583,True,28,0
JR-K-22K22S2,672,training,94,←,right,→,0.6440558999311179,False,28,1
JR-K-22K22S2,673,experiment,85,→,right,→,0.5982772000133991,True,28,1
JR-K-22K22S2,674,experiment,72,←,left,←,0.5737010999582708,True,28,1
JR-K-22K22S2,675,experiment,53,↓,down,↓,0.5729199999477714,True,28,1
JR-K-22K22S2,676,experiment,63,↓,down,↓,0.48044029995799065,True,28,1
JR-K-22K22S2,677,experiment,48,→,right,→,0.532845800044015,True,28,1
JR-K-22K22S2,678,experiment,65,↓,down,↓,0.367678000126034,True,28,1
JR-K-22K22S2,679,experiment,91,→,right,→,0.5241632000543177,True,28,0
JR-K-22K22S2,680,experiment,75,→,right,→,0.5338431999552995,True,28,1
JR-K-22K22S2,681,experiment,82,↓,down,↓,0.4367998999077827,True,28,1
JR-K-22K22S2,682,experiment,64,↓,right,→,0.88595059979707,False,28,1
JR-K-22K22S2,683,experiment,103,←,left,←,0.5037603001110256,True,28,1
JR-K-22K22S2,684,experiment,62,↑,up,↑,0.6706991998944432,True,28,1
JR-K-22K22S2,685,experiment,76,↑,up,↑,0.4584585998672992,True,28,1
JR-K-22K22S2,686,experiment,67,→,right,→,0.40981519990600646,True,28,1
JR-K-22K22S2,687,experiment,83,↑,up,↑,0.668897399911657,True,28,1
JR-K-22K22S2,688,experiment,93,→,right,→,0.5470085002016276,True,28,1
JR-K-22K22S2,689,experiment,101,↑,up,↑,0.5149937998503447,True,28,1
JR-K-22K22S2,690,experiment,68,←,left,←,0.5594006001483649,True,28,1
JR-K-22K22S2,691,experiment,106,→,right,→,0.5334300000686198,True,28,1
JR-K-22K22S2,692,experiment,69,↑,up,↑,0.5447316002100706,True,28,1
JR-K-22K22S2,693,experiment,90,↑,up,↑,0.5325925000943244,True,28,1
JR-K-22K22S2,694,experiment,73,←,left,←,0.7106512000318617,True,28,1
JR-K-22K22S2,695,experiment,50,↑,up,↑,0.5373754999600351,True,28,1
JR-K-22K22S2,696,experiment,96,←,left,←,0.5552958999760449,True,28,1
JR-K-22K22S2,697,experiment,59,←,left,←,0.7530875001102686,True,28,1
JR-K-22K22S2,698,experiment,71,→,right,→,0.8191604998428375,True,28,1
JR-K-22K22S2,699,experiment,88,→,right,→,0.6528131000231951,True,28,1
JR-K-22K22S2,700,experiment,55,←,left,←,0.7847014998551458,True,28,1
JR-K-22K22S2,701,experiment,61,↓,down,↓,0.5883181998506188,True,28,1
JR-K-22K22S2,702,experiment,49,→,left,←,0.908104200148955,False,28,1
JR-K-22K22S2,703,experiment,78,↓,down,↓,0.6216289000585675,True,28,1
JR-K-22K22S2,704,experiment,108,↓,down,↓,0.5120800998993218,True,28,1
JR-K-22K22S2,705,experiment,97,↓,down,↓,0.5227971998974681,True,28,1
JR-K-22K22S2,706,experiment,100,←,left,←,0.62032729992643,True,28,1
JR-K-22K22S2,707,experiment,99,↑,up,↑,0.6184100999962538,True,28,1
JR-K-22K22S2,708,experiment,102,←,left,←,0.5433471999131143,True,28,1
JR-K-22K22S2,709,experiment,52,→,right,→,0.440045400056988,True,28,1
JR-K-22K22S2,710,experiment,107,→,right,→,0.4188158998731524,True,28,1
JR-K-22K22S2,711,experiment,86,↑,up,↑,0.6444991999305785,True,28,1
JR-K-22K22S2,712,experiment,77,↑,up,↑,0.6248569001909345,True,28,1
JR-K-22K22S2,713,experiment,105,→,right,→,0.41269090003333986,True,28,1
JR-K-22K22S2,714,experiment,57,↑,up,↑,0.56055249995552,True,28,1
JR-K-22K22S2,715,experiment,104,→,right,→,0.6313054000493139,True,28,1
JR-K-22K22S2,716,experiment,81,↓,down,↓,0.4747812000568956,True,28,1
JR-K-22K22S2,717,experiment,51,←,left,←,0.4065900999121368,True,28,1
JR-K-22K22S2,718,experiment,74,←,left,←,0.9255242000799626,True,28,0
JR-K-22K22S2,719,experiment,89,↓,down,↓,0.5144322998821735,True,28,1
JR-K-22K22S2,720,experiment,66,↓,down,↓,0.3680861000902951,True,28,1
JR-K-22K22S2,721,experiment,56,↑,down,↓,0.33442540001124144,False,28,1
JR-K-22K22S2,722,experiment,94,↑,up,↑,0.6243726999964565,True,28,0
JR-K-22K22S2,723,experiment,58,→,right,→,0.4121369000058621,True,28,1
JR-K-22K22S2,724,experiment,92,←,left,←,0.6441428000107408,True,28,1
JR-K-22K22S2,725,experiment,98,↑,up,↑,0.47345900000073016,True,28,1
JR-K-22K22S2,726,experiment,70,→,right,→,0.5269897999241948,True,28,1
JR-K-22K22S2,727,experiment,95,↓,down,↓,0.5618460001423955,True,28,1
JR-K-22K22S2,728,experiment,80,←,left,←,0.5524299000389874,True,28,1
JR-K-22K22S2,729,experiment,54,→,right,→,0.5436521000228822,True,28,1
JR-K-22K22S2,730,experiment,60,↑,up,↑,0.5259958000387996,True,28,1
JR-K-22K22S2,731,experiment,87,→,right,→,0.6275329000782222,True,28,1
JR-K-22K22S2,732,experiment,79,↑,up,↑,0.6636222000233829,True,28,1
JR-K-22K22S2,733,experiment,84,↑,up,↑,0.6006078999489546,True,28,1
JR-K-22K22S2,734,training,50,↓,down,↓,0.6198407998308539,True,28,0
JR-K-22K22S2,735,training,90,←,left,←,0.5481964000500739,True,28,1
JR-K-22K22S2,736,experiment,51,↑,up,↑,0.5970402001403272,True,28,1
JR-K-22K22S2,737,experiment,93,→,right,→,0.43775849998928607,True,28,1
JR-K-22K22S2,738,experiment,107,←,left,←,0.5442066001705825,True,28,1
JR-K-22K22S2,739,experiment,103,↑,up,↑,0.5919711000751704,True,28,1
JR-K-22K22S2,740,experiment,90,↓,down,↓,0.40980760008096695,True,28,1
JR-K-22K22S2,741,experiment,91,↑,up,↑,0.5069925000425428,True,28,1
JR-K-22K22S2,742,experiment,102,↑,up,↑,0.5644650000613183,True,28,1
JR-K-22K22S2,743,experiment,80,→,right,→,0.3846060000360012,True,28,1
JR-K-22K22S2,744,experiment,100,→,right,→,0.3592436998151243,True,28,0
JR-K-22K22S2,745,experiment,108,→,right,→,0.3517407001927495,True,28,0
JR-K-22K22S2,746,experiment,54,↑,up,↑,0.44562600017525256,True,28,0
JR-K-22K22S2,747,experiment,79,←,left,←,0.37591689988039434,True,28,1
JR-K-22K22S2,748,experiment,60,←,left,←,0.5175750001799315,True,28,0
JR-K-22K22S2,749,experiment,49,↑,up,↑,0.5126736999955028,True,28,1
JR-K-22K22S2,750,experiment,89,↑,up,↑,0.5257902999874204,True,28,1
JR-K-22K22S2,751,experiment,94,↓,down,↓,0.6971445002127439,True,28,1
JR-K-22K22S2,752,experiment,75,↑,up,↑,0.7637200001627207,True,28,1
JR-K-22K22S2,753,experiment,56,↓,down,↓,0.5701804000418633,True,28,1
JR-K-22K22S2,754,experiment,92,←,left,←,0.5486663000192493,True,28,1
JR-K-22K22S2,755,experiment,59,↓,down,↓,0.7546393000520766,True,28,1
JR-K-22K22S2,756,experiment,70,↑,up,↑,0.6047765000257641,True,28,1
JR-K-22K22S2,757,experiment,71,→,right,→,0.6446026000194252,True,28,1
JR-K-22K22S2,758,experiment,48,→,right,→,0.6586333001032472,True,28,1
JR-K-22K22S2,759,experiment,83,←,left,←,0.5402581000234932,True,28,1
JR-K-22K22S2,760,experiment,55,→,right,→,0.5319374999962747,True,28,1
JR-K-22K22S2,761,experiment,66,→,right,→,0.552465399960056,True,28,1
JR-K-22K22S2,762,experiment,72,↓,down,↓,0.46587989991530776,True,28,1
JR-K-22K22S2,763,experiment,78,→,right,→,0.6130381000693887,True,28,1
JR-K-22K22S2,764,experiment,77,→,right,→,0.6987395000178367,True,28,1
JR-K-22K22S2,765,experiment,58,→,right,→,0.3761909999884665,True,28,1
JR-K-22K22S2,766,experiment,95,→,right,→,1.2196780999656767,True,28,0
JR-K-22K22S2,767,experiment,64,↑,up,↑,0.5016850000247359,True,28,1
JR-K-22K22S2,768,experiment,101,→,right,→,0.8794482001103461,True,28,1
JR-K-22K22S2,769,experiment,65,←,left,←,0.6782372000161558,True,28,1
JR-K-22K22S2,770,experiment,62,→,right,→,0.5421032002195716,True,28,1
JR-K-22K22S2,771,experiment,86,←,left,←,0.6435054000467062,True,28,1
JR-K-22K22S2,772,experiment,57,↑,up,↑,0.5427566999569535,True,28,1
JR-K-22K22S2,773,experiment,50,→,right,→,0.6000411999411881,True,28,1
JR-K-22K22S2,774,experiment,105,←,left,←,0.42877819994464517,True,28,1
JR-K-22K22S2,775,experiment,88,↓,down,↓,0.5258446999359876,True,28,1
JR-K-22K22S2,776,experiment,98,↑,up,↑,0.5919791001360863,True,28,1
JR-K-22K22S2,777,experiment,82,→,right,→,0.3757777998689562,True,28,1
JR-K-22K22S2,778,experiment,85,↑,up,↑,0.6566893002018332,True,28,0
JR-K-22K22S2,779,experiment,73,↑,up,↑,0.5179129000753164,True,28,1
JR-K-22K22S2,780,experiment,81,→,right,→,0.4457799999509007,True,28,1
JR-K-22K22S2,781,experiment,53,↓,down,↓,0.6179949000943452,True,28,1
JR-K-22K22S2,782,experiment,67,↓,down,↓,0.45075509999878705,True,28,1
JR-K-22K22S2,783,experiment,68,↑,up,↑,0.5859224000014365,True,28,1
JR-K-22K22S2,784,experiment,104,↑,up,↑,0.44751420011743903,True,28,1
JR-K-22K22S2,785,experiment,87,↓,down,↓,0.4961916001047939,True,28,1
JR-K-22K22S2,786,experiment,97,←,left,←,1.05152009986341,True,28,1
JR-K-22K22S2,787,experiment,84,←,left,←,0.38359350012615323,True,28,1
JR-K-22K22S2,788,experiment,52,→,left,←,0.955967599991709,False,28,0
JR-K-22K22S2,789,experiment,63,↑,up,↑,0.5124073000624776,True,28,1
JR-K-22K22S2,790,experiment,106,→,right,→,0.7280182999093086,True,28,1
JR-K-22K22S2,791,experiment,99,←,left,←,0.561940300045535,True,28,1
JR-K-22K22S2,792,experiment,61,→,right,→,0.5827709001023322,True,28,1
JR-K-22K22S2,793,experiment,74,→,right,→,0.5102603000123054,True,28,1
JR-K-22K22S2,794,experiment,69,→,right,→,0.4426752000581473,True,28,1
JR-K-22K22S2,795,experiment,96,→,right,→,0.40949849993921816,True,28,1
JR-K-22K22S2,796,experiment,76,↑,up,↑,0.5184872997924685,True,28,1
JR-K-22K22S2,797,training,77,↑,up,↑,0.49700099998153746,True,28,0
JR-K-22K22S2,798,training,105,→,right,→,0.7377486999612302,True,28,1
JR-K-22K22S2,799,experiment,83,→,right,→,0.4486732999794185,True,28,1
JR-K-22K22S2,800,experiment,94,→,right,→,0.44686689996160567,True,28,1
JR-K-22K22S2,801,experiment,101,↓,down,↓,0.4829467998351902,True,28,1
JR-K-22K22S2,802,experiment,60,←,left,←,0.41948090004734695,True,28,1
JR-K-22K22S2,803,experiment,90,↓,down,↓,0.5242980998009443,True,28,1
JR-K-22K22S2,804,experiment,77,↑,down,↓,0.38444980001077056,False,28,1
JR-K-22K22S2,805,experiment,98,↑,up,↑,0.4607220001053065,True,28,0
JR-K-22K22S2,806,experiment,80,↓,down,↓,0.4152018998283893,True,28,1
JR-K-22K22S2,807,experiment,62,←,left,←,0.561853300081566,True,28,1
JR-K-22K22S2,808,experiment,97,→,right,→,0.586686700116843,True,28,1
JR-K-22K22S2,809,experiment,92,←,left,←,0.716686800122261,True,28,1
JR-K-22K22S2,810,experiment,93,←,left,←,0.5045244998764247,True,28,1
JR-K-22K22S2,811,experiment,50,↑,down,↓,0.9631475999485701,False,28,1
JR-K-22K22S2,812,experiment,87,↓,down,↓,0.7031906999181956,True,28,1
JR-K-22K22S2,813,experiment,105,↑,up,↑,0.567689900053665,True,28,1
JR-K-22K22S2,814,experiment,64,↓,down,↓,0.5312711999285966,True,28,1
JR-K-22K22S2,815,experiment,100,←,left,←,0.6123077999800444,True,28,1
JR-K-22K22S2,816,experiment,91,←,left,←,0.6054694000631571,True,28,1
JR-K-22K22S2,817,experiment,104,↑,up,↑,0.6178814000450075,True,28,1
JR-K-22K22S2,818,experiment,86,↓,down,↓,1.1241108998656273,True,28,1
JR-K-22K22S2,819,experiment,54,↑,up,↑,0.49285079981200397,True,28,1
JR-K-22K22S2,820,experiment,73,↓,down,↓,0.5767790998797864,True,28,1
JR-K-22K22S2,821,experiment,75,↑,up,↑,0.6563152999151498,True,28,1
JR-K-22K22S2,822,experiment,65,↑,up,↑,0.4801819999702275,True,28,1
JR-K-22K22S2,823,experiment,103,↓,down,↓,1.121943699894473,True,28,1
JR-K-22K22S2,824,experiment,88,↑,down,↓,0.799465199932456,False,28,1
JR-K-22K22S2,825,experiment,63,←,left,←,0.5382314000744373,True,28,1
JR-K-22K22S2,826,experiment,48,→,left,←,0.6605161998886615,False,28,1
JR-K-22K22S2,827,experiment,74,↓,down,↓,0.5208887998014688,True,28,1
JR-K-22K22S2,828,experiment,76,↓,down,↓,0.3675099001266062,True,28,1
JR-K-22K22S2,829,experiment,84,→,right,→,0.6150152999907732,True,28,1
JR-K-22K22S2,830,experiment,58,→,right,→,0.3842943001072854,True,28,1
JR-K-22K22S2,831,experiment,79,←,left,←,0.4327861999627203,True,28,0
JR-K-22K22S2,832,experiment,55,↓,down,↓,0.5327358001377434,True,28,1
JR-K-22K22S2,833,experiment,70,↓,down,↓,0.3778492999263108,True,28,1
JR-K-22K22S2,834,experiment,57,↑,up,↑,0.7011184000875801,True,28,1
JR-K-22K22S2,835,experiment,61,→,right,→,0.4366617000196129,True,28,1
JR-K-22K22S2,836,experiment,59,←,left,←,0.6232898000162095,True,28,1
JR-K-22K22S2,837,experiment,69,→,right,→,0.5349144998472184,True,28,1
JR-K-22K22S2,838,experiment,102,↓,down,↓,0.44711810001172125,True,28,1
JR-K-22K22S2,839,experiment,67,↑,up,↑,0.6787447999231517,True,28,1
JR-K-22K22S2,840,experiment,52,←,left,←,0.5455440999940038,True,28,1
JR-K-22K22S2,841,experiment,89,↓,left,←,1.2937240998726338,False,28,1
JR-K-22K22S2,842,experiment,96,←,left,←,0.44971479987725616,True,28,1
JR-K-22K22S2,843,experiment,51,↓,down,↓,0.5663987000007182,True,28,1
JR-K-22K22S2,844,experiment,71,↑,up,↑,0.9598578999284655,True,28,1
JR-K-22K22S2,845,experiment,108,←,left,←,0.42920890008099377,True,28,1
JR-K-22K22S2,846,experiment,85,→,right,→,0.4793459998909384,True,28,1
JR-K-22K22S2,847,experiment,81,←,left,←,0.5847159000113606,True,28,1
JR-K-22K22S2,848,experiment,49,←,left,←,0.4011564999818802,True,28,1
JR-K-22K22S2,849,experiment,72,↓,down,↓,0.4242783000227064,True,28,0
JR-K-22K22S2,850,experiment,68,→,right,→,0.6643986999988556,True,28,1
JR-K-22K22S2,851,experiment,56,→,right,→,1.2106528000440449,True,28,1
JR-K-22K22S2,852,experiment,66,↓,down,↓,0.4039011998102069,True,28,1
JR-K-22K22S2,853,experiment,99,→,right,→,0.5700654000975192,True,28,0
JR-K-22K22S2,854,experiment,107,→,right,→,0.45549249998293817,True,28,1
JR-K-22K22S2,855,experiment,53,↓,down,↓,0.4833003000821918,True,28,1
JR-K-22K22S2,856,experiment,106,←,left,←,0.5563381998799741,True,28,1
JR-K-22K22S2,857,experiment,95,↓,down,↓,0.3843388999812305,True,28,1
JR-K-22K22S2,858,experiment,78,↑,up,↑,0.5001387998927385,True,28,1
JR-K-22K22S2,859,experiment,82,→,right,→,0.3594402999151498,True,28,1
JR-K-22K22S2,860,training,51,←,right,→,0.5147865999024361,False,28,0
JR-K-22K22S2,861,training,105,↓,down,↓,0.5550496000796556,True,28,1
JR-K-22K22S2,862,experiment,65,←,left,←,0.622789700049907,True,28,1
JR-K-22K22S2,863,experiment,61,↑,up,↑,0.593093799892813,True,28,1
JR-K-22K22S2,864,experiment,76,↑,up,↑,0.5116924000903964,True,28,1
JR-K-22K22S2,865,experiment,71,←,left,←,0.5074624000117183,True,28,1
JR-K-22K22S2,866,experiment,83,←,left,←,0.7552479999139905,True,28,1
JR-K-22K22S2,867,experiment,67,↑,up,↑,0.4701519999653101,True,28,1
JR-K-22K22S2,868,experiment,105,↓,down,↓,0.6001349000725895,True,28,1
JR-K-22K22S2,869,experiment,108,←,left,←,0.4681464000605047,True,28,1
JR-K-22K22S2,870,experiment,107,↓,down,↓,0.6212591000366956,True,28,1
JR-K-22K22S2,871,experiment,53,→,right,→,0.49044859991408885,True,28,1
JR-K-22K22S2,872,experiment,55,←,left,←,0.5642901000101119,True,28,1
JR-K-22K22S2,873,experiment,98,←,left,←,0.4128708001226187,True,28,1
JR-K-22K22S2,874,experiment,75,↑,up,↑,0.4826058999169618,True,28,1
JR-K-22K22S2,875,experiment,66,→,right,→,0.528957000002265,True,28,1
JR-K-22K22S2,876,experiment,79,←,left,←,0.3761064000427723,True,28,1
JR-K-22K22S2,877,experiment,94,↑,up,↑,0.4422296001575887,True,28,0
JR-K-22K22S2,878,experiment,102,→,right,→,1.1982032998930663,True,28,1
JR-K-22K22S2,879,experiment,56,↑,up,↑,0.45920140016824007,True,28,1
JR-K-22K22S2,880,experiment,81,↑,up,↑,0.5337248998694122,True,28,1
JR-K-22K22S2,881,experiment,48,↑,up,↑,0.5040502001065761,True,28,1
JR-K-22K22S2,882,experiment,85,↑,up,↑,0.4632702998351306,True,28,1
JR-K-22K22S2,883,experiment,68,←,left,←,0.49365150020457804,True,28,1
JR-K-22K22S2,884,experiment,84,←,right,→,0.5256244998890907,False,28,1
JR-K-22K22S2,885,experiment,64,↑,up,↑,0.41148070013150573,True,28,1
JR-K-22K22S2,886,experiment,60,↑,up,↑,0.4705365998670459,True,28,1
JR-K-22K22S2,887,experiment,52,←,left,←,0.47395740007050335,True,28,1
JR-K-22K22S2,888,experiment,59,↓,down,↓,0.8110397001728415,True,28,1
JR-K-22K22S2,889,experiment,106,←,left,←,0.47899460000917315,True,28,1
JR-K-22K22S2,890,experiment,80,←,left,←,0.6491985998582095,True,28,1
JR-K-22K22S2,891,experiment,78,←,left,←,0.484967399854213,True,28,1
JR-K-22K22S2,892,experiment,77,↓,down,↓,0.6635682999622077,True,28,1
JR-K-22K22S2,893,experiment,103,→,right,→,0.5062435998115689,True,28,1
JR-K-22K22S2,894,experiment,88,↓,down,↓,0.4644228999968618,True,28,1
JR-K-22K22S2,895,experiment,57,←,left,←,0.49038149998523295,True,28,1
JR-K-22K22S2,896,experiment,100,↑,up,↑,0.4371099998243153,True,28,1
JR-K-22K22S2,897,experiment,92,→,right,→,0.5645641000010073,True,28,1
JR-K-22K22S2,898,experiment,58,↑,up,↑,0.4031282998621464,True,28,1
JR-K-22K22S2,899,experiment,73,→,right,→,0.3595157000236213,True,28,1
JR-K-22K22S2,900,experiment,93,→,right,→,0.36733410018496215,True,28,0
JR-K-22K22S2,901,experiment,72,↓,down,↓,0.5480148000642657,True,28,0
JR-K-22K22S2,902,experiment,99,↑,up,↑,0.42054240009747446,True,28,1
JR-K-22K22S2,903,experiment,87,↓,down,↓,0.5583973999600857,True,28,1
JR-K-22K22S2,904,experiment,89,→,right,→,0.3834359999746084,True,28,1
JR-K-22K22S2,905,experiment,51,→,right,→,0.3594802999868989,True,28,0
JR-K-22K22S2,906,experiment,90,↓,down,↓,0.5562775998841971,True,28,0
JR-K-22K22S2,907,experiment,82,→,right,→,1.018225000007078,True,28,1
JR-K-22K22S2,908,experiment,74,↓,down,↓,0.4406221001408994,True,28,1
JR-K-22K22S2,909,experiment,95,→,right,→,0.3526065999176353,True,28,1
JR-K-22K22S2,910,experiment,86,↓,down,↓,0.5798410999123007,True,28,0
JR-K-22K22S2,911,experiment,63,↓,down,↓,0.4791941000148654,True,28,1
JR-K-22K22S2,912,experiment,96,→,right,→,0.6755688001867384,True,28,1
JR-K-22K22S2,913,experiment,49,↑,up,↑,0.6959446999244392,True,28,1
JR-K-22K22S2,914,experiment,69,↓,down,↓,0.4923663998488337,True,28,1
JR-K-22K22S2,915,experiment,50,←,left,←,0.6083252001553774,True,28,1
JR-K-22K22S2,916,experiment,104,↑,up,↑,0.5008952000644058,True,28,1
JR-K-22K22S2,917,experiment,101,↑,up,↑,0.6229657998774201,True,28,1
JR-K-22K22S2,918,experiment,70,←,left,←,0.7106192000210285,True,28,1
JR-K-22K22S2,919,experiment,91,↑,up,↑,0.6511230000760406,True,28,1
JR-K-22K22S2,920,experiment,62,→,right,→,0.5969811000395566,True,28,1
JR-K-22K22S2,921,experiment,54,←,left,←,0.4420849001035094,True,28,1
JR-K-22K22S2,922,experiment,97,←,left,←,0.35105130006559193,True,28,1
JR-K-22K22S2,923,training,54,←,left,←,0.6161455998662859,True,28,0
JR-K-22K22S2,924,training,89,↑,up,↑,0.5852639998774976,True,28,1
JR-K-22K22S2,925,experiment,70,↓,down,↓,0.6102402000688016,True,28,1
JR-K-22K22S2,926,experiment,90,→,right,→,0.6597172999754548,True,28,1
JR-K-22K22S2,927,experiment,107,↑,up,↑,0.5653697000816464,True,28,1
JR-K-22K22S2,928,experiment,77,↓,down,↓,0.6286495001986623,True,28,1
JR-K-22K22S2,929,experiment,76,↑,up,↑,0.5621092999354005,True,28,1
JR-K-22K22S2,930,experiment,108,↓,down,↓,0.4075357001274824,True,28,1
JR-K-22K22S2,931,experiment,96,→,right,→,0.5347806999925524,True,28,1
JR-K-22K22S2,932,experiment,53,↑,up,↑,0.5435103999916464,True,28,1
JR-K-22K22S2,933,experiment,67,←,left,←,0.6029904999304563,True,28,1
JR-K-22K22S2,934,experiment,58,↑,up,↑,0.6152135001029819,True,28,1
JR-K-22K22S2,935,experiment,55,↓,down,↓,0.6518285998608917,True,28,1
JR-K-22K22S2,936,experiment,66,→,right,→,0.563613299978897,True,28,1
JR-K-22K22S2,937,experiment,63,←,left,←,0.3681238000281155,True,28,1
JR-K-22K22S2,938,experiment,51,→,right,→,0.3524213000200689,True,28,0
JR-K-22K22S2,939,experiment,97,↑,up,↑,0.607805899810046,True,28,0
JR-K-22K22S2,940,experiment,65,↓,down,↓,0.6014934000559151,True,28,1
JR-K-22K22S2,941,experiment,52,↑,up,↑,0.5999895001295954,True,28,1
JR-K-22K22S2,942,experiment,56,↑,up,↑,0.701070599956438,True,28,1
JR-K-22K22S2,943,experiment,61,↓,down,↓,0.6922528999857605,True,28,1
JR-K-22K22S2,944,experiment,91,→,right,→,0.6186274001374841,True,28,1
JR-K-22K22S2,945,experiment,54,←,left,←,0.5593372001312673,True,28,1
JR-K-22K22S2,946,experiment,80,←,left,←,0.4780876999720931,True,28,1
JR-K-22K22S2,947,experiment,105,↑,up,↑,0.55189110012725,True,28,1
JR-K-22K22S2,948,experiment,60,→,right,→,0.7171870998572558,True,28,1
JR-K-22K22S2,949,experiment,64,↓,down,↓,0.6191216001752764,True,28,1
JR-K-22K22S2,950,experiment,83,↑,up,↑,0.6062362999655306,True,28,1
JR-K-22K22S2,951,experiment,72,↑,up,↑,0.4217601998243481,True,28,1
JR-K-22K22S2,952,experiment,98,←,left,←,0.41190969990566373,True,28,1
JR-K-22K22S2,953,experiment,85,↑,up,↑,0.43049479997716844,True,28,1
JR-K-22K22S2,954,experiment,49,→,right,→,0.48463750001974404,True,28,1
JR-K-22K22S2,955,experiment,102,→,right,→,0.4548937000799924,True,28,1
JR-K-22K22S2,956,experiment,78,↑,up,↑,0.4585202999878675,True,28,1
JR-K-22K22S2,957,experiment,103,↑,up,↑,0.4453944999258965,True,28,1
JR-K-22K22S2,958,experiment,94,↓,down,↓,0.4683017001952976,True,28,1
JR-K-22K22S2,959,experiment,93,↑,up,↑,0.4501565000973642,True,28,1
JR-K-22K22S2,960,experiment,71,→,right,→,0.3610330999363214,True,28,1
JR-K-22K22S2,961,experiment,74,→,right,→,0.36736899986863136,True,28,0
JR-K-22K22S2,962,experiment,88,↑,up,↑,0.42010390013456345,True,28,0
JR-K-22K22S2,963,experiment,86,←,left,←,1.1497349001001567,True,28,1
JR-K-22K22S2,964,experiment,75,↓,down,↓,0.7988819000311196,True,28,1
JR-K-22K22S2,965,experiment,84,→,right,→,0.411138900090009,True,28,1
JR-K-22K22S2,966,experiment,104,→,right,→,0.6066610999405384,True,28,1
JR-K-22K22S2,967,experiment,50,↑,up,↑,0.4454169000964612,True,28,1
JR-K-22K22S2,968,experiment,106,→,right,→,0.36934880004264414,True,28,1
JR-K-22K22S2,969,experiment,59,→,right,→,0.33433520002290606,True,28,0
JR-K-22K22S2,970,experiment,99,↑,up,↑,0.6536205001175404,True,28,0
JR-K-22K22S2,971,experiment,95,↑,up,↑,0.4436691999435425,True,28,1
JR-K-22K22S2,972,experiment,101,←,left,←,0.6236636999528855,True,28,1
JR-K-22K22S2,973,experiment,87,→,right,→,0.7053255999926478,True,28,1
JR-K-22K22S2,974,experiment,73,←,left,←,0.5403974000364542,True,28,1
JR-K-22K22S2,975,experiment,89,↓,down,↓,0.7608123999089003,True,28,1
JR-K-22K22S2,976,experiment,62,←,left,←,0.36753579997457564,True,28,1
JR-K-22K22S2,977,experiment,100,↑,up,↑,0.4689541000407189,True,28,0
JR-K-22K22S2,978,experiment,79,→,right,→,0.5592506001703441,True,28,1
JR-K-22K22S2,979,experiment,68,←,left,←,0.5941909998655319,True,28,1
JR-K-22K22S2,980,experiment,69,↓,down,↓,0.5631324001587927,True,28,1
JR-K-22K22S2,981,experiment,81,↓,down,↓,0.5453804000280797,True,28,1
JR-K-22K22S2,982,experiment,57,→,right,→,0.6480101998895407,True,28,1
JR-K-22K22S2,983,experiment,82,→,right,→,0.42642219993285835,True,28,1
JR-K-22K22S2,984,experiment,48,↓,down,↓,0.6009903999511153,True,28,1
JR-K-22K22S2,985,experiment,92,↓,down,↓,0.8897684002295136,True,28,1
JR-K-22K22S2,986,training,76,→,right,→,0.547745699994266,True,28,0
JR-K-22K22S2,987,training,94,↑,up,↑,0.6062428001314402,True,28,1
JR-K-22K22S2,988,experiment,107,↑,up,↑,0.4019663000945002,True,28,1
JR-K-22K22S2,989,experiment,71,↓,down,↓,1.001856999937445,True,28,0
JR-K-22K22S2,990,experiment,82,←,left,←,0.4617197997868061,True,28,1
JR-K-22K22S2,991,experiment,67,←,left,←,0.3337040999904275,True,28,1
JR-K-22K22S2,992,experiment,98,↓,down,↓,0.4461437000427395,True,28,0
JR-K-22K22S2,993,experiment,87,↑,up,↑,0.4470283999107778,True,28,1
JR-K-22K22S2,994,experiment,51,→,right,→,0.3677788998465985,True,28,1
JR-K-22K22S2,995,experiment,69,↓,down,↓,0.8853360000066459,True,28,1
JR-K-22K22S2,996,experiment,83,↑,up,↑,0.49397549987770617,True,28,1
JR-K-22K22S2,997,experiment,105,←,left,←,0.5429340000264347,True,28,1
JR-K-22K22S2,998,experiment,65,↓,down,↓,0.6352816999424249,True,28,1
JR-K-22K22S2,999,experiment,48,←,left,←,0.5854174001142383,True,28,1
JR-K-22K22S2,1000,experiment,62,↓,down,↓,0.6690444000996649,True,28,1
JR-K-22K22S2,1001,experiment,64,→,left,←,0.5010130999144167,False,28,1
JR-K-22K22S2,1002,experiment,52,→,right,→,0.4873850999865681,True,28,1
JR-K-22K22S2,1003,experiment,97,→,right,→,0.5154310001526028,True,28,1
JR-K-22K22S2,1004,experiment,78,←,left,←,0.5165331999305636,True,28,1
JR-K-22K22S2,1005,experiment,89,→,right,→,0.7378583999816328,True,28,1
JR-K-22K22S2,1006,experiment,74,→,right,→,0.419426399981603,True,28,1
JR-K-22K22S2,1007,experiment,94,←,left,←,0.41156479995697737,True,28,1
JR-K-22K22S2,1008,experiment,56,↓,down,↓,0.6239579000975937,True,28,1
JR-K-22K22S2,1009,experiment,93,↓,down,↓,0.3846694000530988,True,28,1
JR-K-22K22S2,1010,experiment,103,→,right,→,0.5331917000003159,True,28,1
JR-K-22K22S2,1011,experiment,72,↓,down,↓,0.47966660000383854,True,28,1
JR-K-22K22S2,1012,experiment,80,↑,up,↑,0.4813335998915136,True,28,1
JR-K-22K22S2,1013,experiment,96,↑,up,↑,0.4216823000460863,True,28,1
JR-K-22K22S2,1014,experiment,95,↑,up,↑,0.4208672000095248,True,28,1
JR-K-22K22S2,1015,experiment,101,↓,down,↓,0.5779139001388103,True,28,1
JR-K-22K22S2,1016,experiment,90,↑,up,↑,0.5006283998955041,True,28,1
JR-K-22K22S2,1017,experiment,86,→,right,→,0.6036589001305401,True,28,1
JR-K-22K22S2,1018,experiment,53,↓,down,↓,0.5533652999438345,True,28,1
JR-K-22K22S2,1019,experiment,76,→,right,→,1.0175942999776453,True,28,1
JR-K-22K22S2,1020,experiment,85,←,left,←,0.404639899963513,True,28,1
JR-K-22K22S2,1021,experiment,79,←,left,←,0.5295592001639307,True,28,0
JR-K-22K22S2,1022,experiment,50,→,right,→,0.955177600029856,True,28,1
JR-K-22K22S2,1023,experiment,108,←,left,←,0.424552199896425,True,28,1
JR-K-22K22S2,1024,experiment,81,←,left,←,0.4523801999166608,True,28,1
JR-K-22K22S2,1025,experiment,60,→,right,→,0.4541905000805855,True,28,1
JR-K-22K22S2,1026,experiment,61,←,left,←,0.559294099919498,True,28,1
JR-K-22K22S2,1027,experiment,104,←,left,←,0.6696616001427174,True,28,1
JR-K-22K22S2,1028,experiment,63,→,right,→,0.6619172999635339,True,28,1
JR-K-22K22S2,1029,experiment,92,→,right,→,0.3594835998956114,True,28,1
JR-K-22K22S2,1030,experiment,70,↓,down,↓,0.5660769001115113,True,28,0
JR-K-22K22S2,1031,experiment,58,↓,down,↓,0.5318796001374722,True,28,1
JR-K-22K22S2,1032,experiment,100,←,left,←,0.5250130000058562,True,28,1
JR-K-22K22S2,1033,experiment,84,→,right,→,0.5157020001206547,True,28,1
JR-K-22K22S2,1034,experiment,88,↑,up,↑,0.47362770000472665,True,28,1
JR-K-22K22S2,1035,experiment,75,←,left,←,1.0933469999581575,True,28,1
JR-K-22K22S2,1036,experiment,106,←,left,←,0.3598187998868525,True,28,1
JR-K-22K22S2,1037,experiment,73,←,left,←,0.7904717000201344,True,28,0
JR-K-22K22S2,1038,experiment,55,↑,up,↑,0.5962877999991179,True,28,1
JR-K-22K22S2,1039,experiment,59,↑,up,↑,0.6245752999093384,True,28,1
JR-K-22K22S2,1040,experiment,57,→,right,→,0.4052657000720501,True,28,1
JR-K-22K22S2,1041,experiment,54,→,right,→,0.34220199985429645,True,28,0
JR-K-22K22S2,1042,experiment,68,↓,down,↓,0.6132569001056254,True,28,0
JR-K-22K22S2,1043,experiment,102,↓,down,↓,0.44220330007374287,True,28,1
JR-K-22K22S2,1044,experiment,91,↑,up,↑,0.6260091001167893,True,28,1
JR-K-22K22S2,1045,experiment,66,→,right,→,0.42692599981091917,True,28,1
JR-K-22K22S2,1046,experiment,77,↓,down,↓,0.6957799999509007,True,28,1
JR-K-22K22S2,1047,experiment,99,←,left,←,0.5146194999106228,True,28,1
JR-K-22K22S2,1048,experiment,49,→,left,←,0.5012823999859393,False,28,1
JR-K-22K22S2,1049,training,108,←,left,←,0.48023989982903004,True,28,0
JR-K-22K22S2,1050,training,56,→,right,→,0.4259154999163002,True,28,1
JR-K-22K22S2,1051,experiment,105,↑,up,↑,0.4458262000698596,True,28,1
JR-K-22K22S2,1052,experiment,75,↓,down,↓,0.6426344998180866,True,28,1
JR-K-22K22S2,1053,experiment,56,←,left,←,0.36790660000406206,True,28,1
JR-K-22K22S2,1054,experiment,81,←,left,←,0.38445340003818274,True,28,0
JR-K-22K22S2,1055,experiment,62,↓,down,↓,0.511145900003612,True,28,1
JR-K-22K22S2,1056,experiment,54,→,right,→,0.6319836000911891,True,28,1
JR-K-22K22S2,1057,experiment,108,←,left,←,0.4826988000422716,True,28,1
JR-K-22K22S2,1058,experiment,78,→,right,→,1.1566110998392105,True,28,1
JR-K-22K22S2,1059,experiment,89,↓,down,↓,0.5366197999101132,True,28,1
JR-K-22K22S2,1060,experiment,87,←,left,←,0.6698242998681962,True,28,1
JR-K-22K22S2,1061,experiment,106,↓,down,↓,0.5993701000697911,True,28,1
JR-K-22K22S2,1062,experiment,100,↓,right,→,0.7337948000058532,False,28,1
JR-K-22K22S2,1063,experiment,61,↓,down,↓,0.4760835999622941,True,28,1
JR-K-22K22S2,1064,experiment,83,←,left,←,0.5569720999337733,True,28,1
JR-K-22K22S2,1065,experiment,79,↑,up,↑,0.6200168998911977,True,28,1
JR-K-22K22S2,1066,experiment,99,↑,up,↑,0.4821011999156326,True,28,1
JR-K-22K22S2,1067,experiment,72,↓,down,↓,0.43852139986120164,True,28,1
JR-K-22K22S2,1068,experiment,103,→,right,→,0.5703485000412911,True,28,1
JR-K-22K22S2,1069,experiment,90,↑,up,↑,0.461230400018394,True,28,1
JR-K-22K22S2,1070,experiment,55,↑,up,↑,0.4562987999524921,True,28,1
JR-K-22K22S2,1071,experiment,73,←,left,←,0.40582380001433194,True,28,1
JR-K-22K22S2,1072,experiment,74,←,left,←,0.5163195999339223,True,28,0
JR-K-22K22S2,1073,experiment,92,←,left,←,0.49658889998681843,True,28,1
JR-K-22K22S2,1074,experiment,57,←,left,←,1.0253417999483645,True,28,1
JR-K-22K22S2,1075,experiment,101,↓,down,↓,0.6462046001106501,True,28,1
JR-K-22K22S2,1076,experiment,76,↑,up,↑,0.6345208000857383,True,28,1
JR-K-22K22S2,1077,experiment,80,↑,up,↑,0.4224236998707056,True,28,1
JR-K-22K22S2,1078,experiment,70,→,right,→,0.46193180000409484,True,28,1
JR-K-22K22S2,1079,experiment,98,→,right,→,1.2187371000181884,True,28,1
JR-K-22K22S2,1080,experiment,84,↑,up,↑,0.6131653999909759,True,28,1
JR-K-22K22S2,1081,experiment,65,←,left,←,0.686386700021103,True,28,1
JR-K-22K22S2,1082,experiment,50,↑,up,↑,0.6024466999806464,True,28,1
JR-K-22K22S2,1083,experiment,96,→,right,→,0.5535798000637442,True,28,1
JR-K-22K22S2,1084,experiment,64,→,right,→,0.6139398000668734,True,28,1
JR-K-22K22S2,1085,experiment,49,→,right,→,0.5489942000713199,True,28,1
JR-K-22K22S2,1086,experiment,77,←,left,←,0.5493179999757558,True,28,1
JR-K-22K22S2,1087,experiment,86,←,left,←,0.5459429000038654,True,28,1
JR-K-22K22S2,1088,experiment,53,→,right,→,0.7061565001495183,True,28,1
JR-K-22K22S2,1089,experiment,51,↓,right,→,0.6684135000687093,False,28,1
JR-K-22K22S2,1090,experiment,69,↑,up,↑,0.5224580001085997,True,28,1
JR-K-22K22S2,1091,experiment,102,↑,up,↑,0.4351596001069993,True,28,1
JR-K-22K22S2,1092,experiment,95,←,left,←,1.1455327000003308,True,28,1
JR-K-22K22S2,1093,experiment,60,→,right,→,0.5032970001921058,True,28,1
JR-K-22K22S2,1094,experiment,104,↑,up,↑,0.4804200001526624,True,28,1
JR-K-22K22S2,1095,experiment,107,↓,down,↓,0.553287899820134,True,28,1
JR-K-22K22S2,1096,experiment,58,↑,up,↑,0.45585839985869825,True,28,1
JR-K-22K22S2,1097,experiment,63,↓,down,↓,1.1277138001751155,True,28,1
JR-K-22K22S2,1098,experiment,97,↑,up,↑,0.4577617000322789,True,28,1
JR-K-22K22S2,1099,experiment,82,→,right,→,0.6598773000296205,True,28,1
JR-K-22K22S2,1100,experiment,85,←,left,←,0.48507699999026954,True,28,1
JR-K-22K22S2,1101,experiment,59,↑,up,↑,0.6456456000450999,True,28,1
JR-K-22K22S2,1102,experiment,88,↓,down,↓,0.41415409999899566,True,28,1
JR-K-22K22S2,1103,experiment,68,→,right,→,0.6465008999221027,True,28,1
JR-K-22K22S2,1104,experiment,93,←,left,←,0.5494059000629932,True,28,1
JR-K-22K22S2,1105,experiment,91,→,right,→,0.5046590000856668,True,28,1
JR-K-22K22S2,1106,experiment,67,←,left,←,0.621795899933204,True,28,1
JR-K-22K22S2,1107,experiment,48,→,right,→,0.4046483999118209,True,28,1
JR-K-22K22S2,1108,experiment,94,→,right,→,0.5964494999498129,True,28,0
JR-K-22K22S2,1109,experiment,71,↓,down,↓,0.5807668000925332,True,28,1
JR-K-22K22S2,1110,experiment,66,↑,up,↑,0.45518589997664094,True,28,1
JR-K-22K22S2,1111,experiment,52,↓,down,↓,0.37611670000478625,True,28,1
JR-K-22K22S2,1112,training,103,←,left,←,0.5500600999221206,True,28,0
JR-K-22K22S2,1113,training,107,←,left,←,0.5401113999541849,True,28,1
JR-K-22K22S2,1114,experiment,107,↑,up,↑,0.43433229997754097,True,28,1
JR-K-22K22S2,1115,experiment,65,←,left,←,0.4992454999592155,True,28,1
JR-K-22K22S2,1116,experiment,59,←,left,←,0.4433331999462098,True,28,1
JR-K-22K22S2,1117,experiment,69,←,left,←,0.36745799984782934,True,28,1
JR-K-22K22S2,1118,experiment,99,↑,up,↑,0.5941589998546988,True,28,0
JR-K-22K22S2,1119,experiment,66,←,left,←,0.5559535000938922,True,28,1
JR-K-22K22S2,1120,experiment,64,↑,up,↑,0.5279365999158472,True,28,1
JR-K-22K22S2,1121,experiment,103,→,right,→,0.5205709000583738,True,28,1
JR-K-22K22S2,1122,experiment,94,↓,left,←,0.49169509997591376,False,28,1
JR-K-22K22S2,1123,experiment,68,↓,down,↓,1.1290829998906702,True,28,1
JR-K-22K22S2,1124,experiment,72,←,left,←,0.49149910011328757,True,28,1
JR-K-22K22S2,1125,experiment,98,←,left,←,0.3845083999913186,True,28,1
JR-K-22K22S2,1126,experiment,89,→,right,→,0.6251974999904633,True,28,1
JR-K-22K22S2,1127,experiment,87,↓,down,↓,0.5310049001127481,True,28,1
JR-K-22K22S2,1128,experiment,80,↓,down,↓,0.4507232001051307,True,28,1
JR-K-22K22S2,1129,experiment,53,→,right,→,0.4151117999572307,True,28,1
JR-K-22K22S2,1130,experiment,104,→,right,→,0.36792000010609627,True,28,1
JR-K-22K22S2,1131,experiment,90,↑,up,↑,0.46197029994800687,True,28,1
JR-K-22K22S2,1132,experiment,97,↑,up,↑,0.5787337000947446,True,28,1
JR-K-22K22S2,1133,experiment,96,↑,up,↑,0.5158375999890268,True,28,1
JR-K-22K22S2,1134,experiment,102,↑,up,↑,0.5647066999226809,True,28,1
JR-K-22K22S2,1135,experiment,73,↑,up,↑,0.4215198000892997,True,28,1
JR-K-22K22S2,1136,experiment,78,↑,up,↑,0.5623165001161397,True,28,1
JR-K-22K22S2,1137,experiment,61,→,right,→,0.5990504999645054,True,28,1
JR-K-22K22S2,1138,experiment,49,↓,down,↓,0.4384401999413967,True,28,1
JR-K-22K22S2,1139,experiment,79,↑,up,↑,0.578276300104335,True,28,1
JR-K-22K22S2,1140,experiment,55,→,right,→,0.48032440012320876,True,28,1
JR-K-22K22S2,1141,experiment,75,↑,up,↑,0.5557249998673797,True,28,1
JR-K-22K22S2,1142,experiment,57,←,left,←,0.45012960000894964,True,28,1
JR-K-22K22S2,1143,experiment,101,→,right,→,0.3760383001063019,True,28,1
JR-K-22K22S2,1144,experiment,77,←,left,←,0.4689140000846237,True,28,1
JR-K-22K22S2,1145,experiment,50,→,right,→,0.6094556001480669,True,28,1
JR-K-22K22S2,1146,experiment,54,↓,down,↓,1.0949119001161307,True,28,1
JR-K-22K22S2,1147,experiment,74,←,left,←,0.6341564999893308,True,28,1
JR-K-22K22S2,1148,experiment,52,↑,up,↑,0.4552352000027895,True,28,1
JR-K-22K22S2,1149,experiment,76,←,left,←,0.3596437000669539,True,28,1
JR-K-22K22S2,1150,experiment,91,↑,up,↑,0.606186700053513,True,28,1
JR-K-22K22S2,1151,experiment,108,←,left,←,1.0173732000403106,True,28,1
JR-K-22K22S2,1152,experiment,86,→,right,→,0.5797684001736343,True,28,1
JR-K-22K22S2,1153,experiment,106,→,right,→,0.5049831999931484,True,28,1
JR-K-22K22S2,1154,experiment,58,↑,up,↑,0.5611431999132037,True,28,1
JR-K-22K22S2,1155,experiment,85,↓,down,↓,0.5179743999615312,True,28,1
JR-K-22K22S2,1156,experiment,83,→,right,→,0.4212440000846982,True,28,1
JR-K-22K22S2,1157,experiment,92,↓,down,↓,0.4855621000751853,True,28,1
JR-K-22K22S2,1158,experiment,95,→,right,→,0.4020550998393446,True,28,1
JR-K-22K22S2,1159,experiment,48,↓,down,↓,0.4012130000628531,True,28,0
JR-K-22K22S2,1160,experiment,81,↓,down,↓,0.5334629998542368,True,28,0
JR-K-22K22S2,1161,experiment,56,↓,down,↓,0.437404400203377,True,28,1
JR-K-22K22S2,1162,experiment,63,↓,down,↓,0.35973870009183884,True,28,1
JR-K-22K22S2,1163,experiment,71,↓,down,↓,0.35113899991847575,True,28,0
JR-K-22K22S2,1164,experiment,100,←,left,←,0.42428020015358925,True,28,1
JR-K-22K22S2,1165,experiment,60,↓,down,↓,0.570963199948892,True,28,1
JR-K-22K22S2,1166,experiment,93,↓,down,↓,1.397065500030294,True,28,1
JR-K-22K22S2,1167,experiment,62,↓,down,↓,0.49616550002247095,True,28,1
JR-K-22K22S2,1168,experiment,70,↓,down,↓,0.33389470004476607,True,28,1
JR-K-22K22S2,1169,experiment,67,↓,down,↓,0.4486295999959111,True,28,0
JR-K-22K22S2,1170,experiment,105,→,right,→,0.6118948999792337,True,28,1
JR-K-22K22S2,1171,experiment,82,←,left,←,0.5832770999986678,True,28,1
JR-K-22K22S2,1172,experiment,84,↓,down,↓,0.5717305999714881,True,28,1
JR-K-22K22S2,1173,experiment,88,↓,down,↓,0.5669081998057663,True,28,1
JR-K-22K22S2,1174,experiment,51,→,right,→,0.5511812998447567,True,28,1
JR-K-22K22S2,1175,training,71,↑,up,↑,0.5666814998257905,True,28,0
JR-K-22K22S2,1176,training,51,→,right,→,0.5188839000184089,True,28,1
JR-K-22K22S2,1177,experiment,51,←,left,←,0.5290190998930484,True,28,1
JR-K-22K22S2,1178,experiment,97,↓,down,↓,0.4754176998976618,True,28,1
JR-K-22K22S2,1179,experiment,96,→,right,→,0.4957161999773234,True,28,1
JR-K-22K22S2,1180,experiment,72,←,left,←,0.3679663999937475,True,28,1
JR-K-22K22S2,1181,experiment,69,→,right,→,0.589493399951607,True,28,1
JR-K-22K22S2,1182,experiment,83,→,right,→,0.34283600002527237,True,28,1
JR-K-22K22S2,1183,experiment,70,↑,up,↑,0.5560873001813889,True,28,1
JR-K-22K22S2,1184,experiment,103,↑,up,↑,0.49107669992372394,True,28,1
JR-K-22K22S2,1185,experiment,84,→,right,→,0.5630850999150425,True,28,1
JR-K-22K22S2,1186,experiment,79,↓,down,↓,1.162086500087753,True,28,1
JR-K-22K22S2,1187,experiment,104,↓,down,↓,0.36715890001505613,True,28,1
JR-K-22K22S2,1188,experiment,73,→,right,→,0.4808952999301255,True,28,0
JR-K-22K22S2,1189,experiment,75,↓,down,↓,0.38365540001541376,True,28,1
JR-K-22K22S2,1190,experiment,90,↓,down,↓,0.3429787000641227,True,28,0
JR-K-22K22S2,1191,experiment,64,←,left,←,0.4426011999603361,True,28,0
JR-K-22K22S2,1192,experiment,88,→,right,→,0.5552780998405069,True,28,1
JR-K-22K22S2,1193,experiment,87,↓,down,↓,0.3599823000840843,True,28,1
JR-K-22K22S2,1194,experiment,93,↑,up,↑,0.457347400020808,True,28,0
JR-K-22K22S2,1195,experiment,67,↑,up,↑,0.43251620000228286,True,28,1
JR-K-22K22S2,1196,experiment,63,↑,up,↑,0.6179218001198024,True,28,1
JR-K-22K22S2,1197,experiment,89,↑,up,↑,0.4752859000582248,True,28,1
JR-K-22K22S2,1198,experiment,50,↑,up,↑,0.5353792000096291,True,28,1
JR-K-22K22S2,1199,experiment,59,→,right,→,0.5742647999431938,True,28,1
JR-K-22K22S2,1200,experiment,91,↑,up,↑,0.4725248001050204,True,28,1
JR-K-22K22S2,1201,experiment,100,→,right,→,0.524077899986878,True,28,1
JR-K-22K22S2,1202,experiment,108,↑,up,↑,0.4510070001706481,True,28,1
JR-K-22K22S2,1203,experiment,80,→,right,→,0.37595349992625415,True,28,1
JR-K-22K22S2,1204,experiment,105,↑,up,↑,0.6431767998728901,True,28,1
JR-K-22K22S2,1205,experiment,106,→,right,→,0.5577228001784533,True,28,1
JR-K-22K22S2,1206,experiment,101,↑,up,↑,0.5015730999875814,True,28,1
JR-K-22K22S2,1207,experiment,54,←,left,←,0.5433851999696344,True,28,1
JR-K-22K22S2,1208,experiment,107,←,left,←,0.5737336999736726,True,28,1
JR-K-22K22S2,1209,experiment,60,→,right,→,0.506378100020811,True,28,1
JR-K-22K22S2,1210,experiment,56,→,right,→,0.47495069983415306,True,28,1
JR-K-22K22S2,1211,experiment,61,→,right,→,0.3844864000566304,True,28,1
JR-K-22K22S2,1212,experiment,49,↑,up,↑,0.5394915000069886,True,28,1
JR-K-22K22S2,1213,experiment,55,←,left,←,0.3761088999453932,True,28,1
JR-K-22K22S2,1214,experiment,92,←,left,←,0.3590422999113798,True,28,0
JR-K-22K22S2,1215,experiment,82,→,right,→,0.43467290000990033,True,28,0
JR-K-22K22S2,1216,experiment,102,→,right,→,0.6470874000806361,True,28,1
JR-K-22K22S2,1217,experiment,74,←,left,←,0.5321494999807328,True,28,1
JR-K-22K22S2,1218,experiment,85,↓,down,↓,0.4743665000423789,True,28,1
JR-K-22K22S2,1219,experiment,66,↓,down,↓,0.3754857999738306,True,28,1
JR-K-22K22S2,1220,experiment,77,↓,down,↓,0.33405099995434284,True,28,0
JR-K-22K22S2,1221,experiment,58,↑,right,→,0.6225483999587595,False,28,0
JR-K-22K22S2,1222,experiment,86,→,down,↓,0.4725646001752466,False,28,1
JR-K-22K22S2,1223,experiment,48,↑,up,↑,0.5735831998754293,True,28,1
JR-K-22K22S2,1224,experiment,71,↑,up,↑,0.4783301998395473,True,28,1
JR-K-22K22S2,1225,experiment,94,←,left,←,0.5398511998355389,True,28,1
JR-K-22K22S2,1226,experiment,98,←,left,←,0.6771617999766022,True,28,1
JR-K-22K22S2,1227,experiment,65,↑,up,↑,0.42787960008718073,True,28,1
JR-K-22K22S2,1228,experiment,81,→,right,→,0.35244990000501275,True,28,1
JR-K-22K22S2,1229,experiment,99,→,right,→,0.33646730007603765,True,28,0
JR-K-22K22S2,1230,experiment,76,↑,up,↑,0.4881731001660228,True,28,0
JR-K-22K22S2,1231,experiment,53,↓,down,↓,0.6102702000644058,True,28,1
JR-K-22K22S2,1232,experiment,62,↓,down,↓,0.5328893000259995,True,28,1
JR-K-22K22S2,1233,experiment,52,↓,down,↓,0.5180546001065522,True,28,1
JR-K-22K22S2,1234,experiment,57,↓,down,↓,0.35822189995087683,True,28,1
JR-K-22K22S2,1235,experiment,95,↑,up,↑,0.4474647999741137,True,28,0
JR-K-22K22S2,1236,experiment,68,↓,down,↓,0.35955719999037683,True,28,1
JR-K-22K22S2,1237,experiment,78,←,left,←,0.40594350011087954,True,28,0
JR-K-22K22S2,1238,training,103,←,left,←,0.4987203001510352,True,28,0
JR-K-22K22S2,1239,training,101,←,left,←,0.38365660002455115,True,28,1
JR-K-22K22S2,1240,experiment,104,→,right,→,0.45005890005268157,True,28,0
JR-K-22K22S2,1241,experiment,65,←,left,←,0.4108659001067281,True,28,1
JR-K-22K22S2,1242,experiment,48,→,right,→,0.36940060020424426,True,28,1
JR-K-22K22S2,1243,experiment,74,↑,up,↑,0.45683120004832745,True,28,0
JR-K-22K22S2,1244,experiment,50,→,right,→,0.5173870001453906,True,28,1
JR-K-22K22S2,1245,experiment,92,←,left,←,0.5379651000257581,True,28,1
JR-K-22K22S2,1246,experiment,71,←,left,←,1.0522497999481857,True,28,1
JR-K-22K22S2,1247,experiment,86,↓,down,↓,0.4775356000754982,True,28,1
JR-K-22K22S2,1248,experiment,95,↑,up,↑,0.5863483999855816,True,28,1
JR-K-22K22S2,1249,experiment,83,↑,up,↑,0.454945300007239,True,28,1
JR-K-22K22S2,1250,experiment,64,→,left,←,0.7191769999917597,False,28,1
JR-K-22K22S2,1251,experiment,70,↓,down,↓,0.4745094000827521,True,28,1
JR-K-22K22S2,1252,experiment,61,←,left,←,0.682729700114578,True,28,1
JR-K-22K22S2,1253,experiment,77,↓,down,↓,0.4616450001485646,True,28,1
JR-K-22K22S2,1254,experiment,67,→,right,→,0.8204595998395234,True,28,1
JR-K-22K22S2,1255,experiment,99,←,left,←,0.49015259998850524,True,28,1
JR-K-22K22S2,1256,experiment,106,→,right,→,0.5385936999227852,True,28,1
JR-K-22K22S2,1257,experiment,78,←,left,←,0.4908789999317378,True,28,1
JR-K-22K22S2,1258,experiment,69,↓,down,↓,0.4319798001088202,True,28,1
JR-K-22K22S2,1259,experiment,93,→,left,←,0.3604446998797357,False,28,1
JR-K-22K22S2,1260,experiment,90,↑,up,↑,0.5940711000002921,True,28,0
JR-K-22K22S2,1261,experiment,49,←,left,←,0.6097291999030858,True,28,1
JR-K-22K22S2,1262,experiment,75,←,right,→,0.4244983000680804,False,28,1
JR-K-22K22S2,1263,experiment,80,↑,up,↑,0.5724122000392526,True,28,1
JR-K-22K22S2,1264,experiment,97,←,left,←,0.32622059993445873,True,28,1
JR-K-22K22S2,1265,experiment,59,→,right,→,1.2353636999614537,True,28,0
JR-K-22K22S2,1266,experiment,68,↑,up,↑,0.5708084001671523,True,28,1
JR-K-22K22S2,1267,experiment,54,↑,up,↑,0.6339511999394745,True,28,1
JR-K-22K22S2,1268,experiment,53,←,left,←,0.52659280016087,True,28,1
JR-K-22K22S2,1269,experiment,102,←,left,←,0.5111754999961704,True,28,1
JR-K-22K22S2,1270,experiment,103,←,left,←,0.47235519997775555,True,28,1
JR-K-22K22S2,1271,experiment,76,↑,up,↑,0.6358384999912232,True,28,1
JR-K-22K22S2,1272,experiment,91,←,left,←,0.48348639998584986,True,28,1
JR-K-22K22S2,1273,experiment,60,↓,down,↓,0.587923499988392,True,28,1
JR-K-22K22S2,1274,experiment,58,←,left,←,0.9765918001066893,True,28,1
JR-K-22K22S2,1275,experiment,63,→,right,→,0.46853199996985495,True,28,1
JR-K-22K22S2,1276,experiment,72,→,right,→,0.35942080011591315,True,28,1
JR-K-22K22S2,1277,experiment,57,↑,up,↑,0.44733599992468953,True,28,1
JR-K-22K22S2,1278,experiment,98,←,left,←,0.3847274000290781,True,28,1
JR-K-22K22S2,1279,experiment,105,↑,up,↑,0.5939732000697404,True,28,0
JR-K-22K22S2,1280,experiment,62,←,left,←,0.5570231999736279,True,28,1
JR-K-22K22S2,1281,experiment,89,←,left,←,0.35885780001990497,True,28,1
JR-K-22K22S2,1282,experiment,94,↓,down,↓,0.602790999924764,True,28,0
JR-K-22K22S2,1283,experiment,55,←,left,←,0.5442393000703305,True,28,1
JR-K-22K22S2,1284,experiment,51,↓,down,↓,0.624737000092864,True,28,1
JR-K-22K22S2,1285,experiment,96,→,right,→,0.3761076000519097,True,28,1
JR-K-22K22S2,1286,experiment,108,↓,down,↓,0.5637010000646114,True,28,0
JR-K-22K22S2,1287,experiment,73,→,right,→,0.40483770007267594,True,28,1
JR-K-22K22S2,1288,experiment,52,→,right,→,0.7465309998951852,True,28,0
JR-K-22K22S2,1289,experiment,85,↓,down,↓,0.6079587999265641,True,28,1
JR-K-22K22S2,1290,experiment,81,↓,down,↓,1.4444346001837403,True,28,1
JR-K-22K22S2,1291,experiment,66,→,right,→,0.5882602999918163,True,28,1
JR-K-22K22S2,1292,experiment,100,←,left,←,0.6911132000386715,True,28,1
JR-K-22K22S2,1293,experiment,88,↑,up,↑,0.6979140001349151,True,28,1
JR-K-22K22S2,1294,experiment,107,↓,down,↓,0.4818309999536723,True,28,1
JR-K-22K22S2,1295,experiment,87,→,right,→,0.5771518000401556,True,28,1
JR-K-22K22S2,1296,experiment,56,←,left,←,1.0308936999645084,True,28,1
JR-K-22K22S2,1297,experiment,101,↑,up,↑,0.6035980000160635,True,28,1
JR-K-22K22S2,1298,experiment,84,→,right,→,0.5353601998649538,True,28,1
JR-K-22K22S2,1299,experiment,82,→,right,→,0.5181938000023365,True,28,1
JR-K-22K22S2,1300,experiment,79,↑,up,↑,0.5910938000306487,True,28,1
JR-K-22K22S2,1301,training,62,←,left,←,0.6054835000541061,True,28,0
JR-K-22K22S2,1302,training,57,←,left,←,0.44985270011238754,True,28,1
JR-K-22K22S2,1303,experiment,65,↓,down,↓,0.5781320000533015,True,28,1
JR-K-22K22S2,1304,experiment,52,↑,up,↑,0.44929319992661476,True,28,1
JR-K-22K22S2,1305,experiment,48,→,right,→,0.4072420001029968,True,28,1
JR-K-22K22S2,1306,experiment,59,→,right,→,0.6269499999471009,True,28,0
JR-K-22K22S2,1307,experiment,82,↓,down,↓,0.4544792000669986,True,28,1
JR-K-22K22S2,1308,experiment,97,←,left,←,0.5793592999689281,True,28,1
JR-K-22K22S2,1309,experiment,95,←,left,←,0.6286710000131279,True,28,1
JR-K-22K22S2,1310,experiment,74,↓,down,↓,0.5704395000357181,True,28,1
JR-K-22K22S2,1311,experiment,57,↑,up,↑,0.46464819996617734,True,28,1
JR-K-22K22S2,1312,experiment,94,→,right,→,0.6462214000057429,True,28,1
JR-K-22K22S2,1313,experiment,76,←,left,←,0.5386514998972416,True,28,1
JR-K-22K22S2,1314,experiment,102,↓,down,↓,0.4583823001012206,True,28,1
JR-K-22K22S2,1315,experiment,108,→,right,→,0.7318211998790503,True,28,1
JR-K-22K22S2,1316,experiment,54,↑,up,↑,0.48434050008654594,True,28,1
JR-K-22K22S2,1317,experiment,49,↓,down,↓,0.8645004001446068,True,28,1
JR-K-22K22S2,1318,experiment,66,←,left,←,0.4873184999451041,True,28,1
JR-K-22K22S2,1319,experiment,81,↓,down,↓,0.5204966999590397,True,28,1
JR-K-22K22S2,1320,experiment,101,↓,down,↓,0.5055810001213104,True,28,1
JR-K-22K22S2,1321,experiment,71,→,right,→,0.5812518000602722,True,28,1
JR-K-22K22S2,1322,experiment,50,↓,down,↓,0.42103499989025295,True,28,1
JR-K-22K22S2,1323,experiment,77,→,right,→,0.5941908999811858,True,28,1
JR-K-22K22S2,1324,experiment,91,↓,down,↓,0.6039881999604404,True,28,1
JR-K-22K22S2,1325,experiment,61,↓,down,↓,0.40749299991875887,True,28,1
JR-K-22K22S2,1326,experiment,73,←,left,←,0.5338757999707013,True,28,1
JR-K-22K22S2,1327,experiment,104,→,right,→,0.5417481998447329,True,28,1
JR-K-22K22S2,1328,experiment,63,↓,down,↓,0.4347533998079598,True,28,1
JR-K-22K22S2,1329,experiment,96,↑,up,↑,0.5210977999959141,True,28,1
JR-K-22K22S2,1330,experiment,107,←,left,←,1.0401039998978376,True,28,1
JR-K-22K22S2,1331,experiment,56,↑,up,↑,0.4516120001208037,True,28,1
JR-K-22K22S2,1332,experiment,88,←,left,←,1.107692499877885,True,28,1
JR-K-22K22S2,1333,experiment,58,→,right,→,0.5400972999632359,True,28,1
JR-K-22K22S2,1334,experiment,83,→,right,→,0.38476929999887943,True,28,1
JR-K-22K22S2,1335,experiment,103,↑,up,↑,0.7519555001053959,True,28,1
JR-K-22K22S2,1336,experiment,92,←,left,←,0.5311271999962628,True,28,1
JR-K-22K22S2,1337,experiment,99,↓,down,↓,0.40531130018644035,True,28,1
JR-K-22K22S2,1338,experiment,70,↓,down,↓,0.5564086998347193,True,28,0
JR-K-22K22S2,1339,experiment,80,↓,down,↓,0.37612749985419214,True,28,1
JR-K-22K22S2,1340,experiment,51,→,right,→,0.45090839988552034,True,28,0
JR-K-22K22S2,1341,experiment,55,↓,down,↓,0.5902147002052516,True,28,1
JR-K-22K22S2,1342,experiment,68,←,left,←,1.0635310001671314,True,28,1
JR-K-22K22S2,1343,experiment,53,→,right,→,0.4269022000953555,True,28,1
JR-K-22K22S2,1344,experiment,86,↓,down,↓,0.5487613000441343,True,28,1
JR-K-22K22S2,1345,experiment,98,←,left,←,0.6935298000462353,True,28,1
JR-K-22K22S2,1346,experiment,62,↑,up,↑,0.6929698998574167,True,28,1
JR-K-22K22S2,1347,experiment,60,→,right,→,0.375860899919644,True,28,1
JR-K-22K22S2,1348,experiment,67,←,left,←,0.49539719987660646,True,28,1
JR-K-22K22S2,1349,experiment,106,↑,up,↑,0.43195430003106594,True,28,1
JR-K-22K22S2,1350,experiment,90,←,left,←,0.5122827999293804,True,28,1
JR-K-22K22S2,1351,experiment,93,↓,down,↓,0.580484899925068,True,28,1
JR-K-22K22S2,1352,experiment,87,↑,up,↑,0.42379379994235933,True,28,1
JR-K-22K22S2,1353,experiment,85,→,right,→,0.4106877001468092,True,28,1
JR-K-22K22S2,1354,experiment,84,↑,up,↑,0.4532489001285285,True,28,1
JR-K-22K22S2,1355,experiment,100,↑,up,↑,0.3753182999789715,True,28,1
JR-K-22K22S2,1356,experiment,79,→,right,→,1.1357596998568624,True,28,0
JR-K-22K22S2,1357,experiment,72,↑,up,↑,0.6501764999702573,True,28,1
JR-K-22K22S2,1358,experiment,89,←,left,←,0.49025240004993975,True,28,1
JR-K-22K22S2,1359,experiment,78,→,right,→,0.7163053001277149,True,28,1
JR-K-22K22S2,1360,experiment,64,↓,down,↓,0.7059468999505043,True,28,1
JR-K-22K22S2,1361,experiment,75,↑,up,↑,0.5402154000476003,True,28,1
JR-K-22K22S2,1362,experiment,69,↓,down,↓,0.4794026999734342,True,28,1
JR-K-22K22S2,1363,experiment,105,→,right,→,0.6009052998851985,True,28,1
JR-K-22K22S2,1364,training,73,→,right,→,0.4929559000302106,True,28,0
JR-K-22K22S2,1365,training,105,↓,down,↓,0.5576656998600811,True,28,1
JR-K-22K22S2,1366,experiment,82,→,right,→,0.35044359997846186,True,28,1
JR-K-22K22S2,1367,experiment,73,←,left,←,0.42071989993564785,True,28,0
JR-K-22K22S2,1368,experiment,84,↑,up,↑,0.44747489993460476,True,28,1
JR-K-22K22S2,1369,experiment,70,↓,down,↓,0.5258619000669569,True,28,1
JR-K-22K22S2,1370,experiment,91,↑,up,↑,0.5382310999557376,True,28,1
JR-K-22K22S2,1371,experiment,62,↑,up,↑,0.48774820007383823,True,28,1
JR-K-22K22S2,1372,experiment,66,→,right,→,0.47789449989795685,True,28,1
JR-K-22K22S2,1373,experiment,69,↓,down,↓,0.4118073999416083,True,28,1
JR-K-22K22S2,1374,experiment,104,↓,down,↓,0.37755570001900196,True,28,1
JR-K-22K22S2,1375,experiment,59,↑,up,↑,0.556516099954024,True,28,0
JR-K-22K22S2,1376,experiment,56,↓,down,↓,0.4193029999732971,True,28,1
JR-K-22K22S2,1377,experiment,86,→,right,→,0.4292695999611169,True,28,1
JR-K-22K22S2,1378,experiment,65,→,right,→,0.4307004001457244,True,28,1
JR-K-22K22S2,1379,experiment,101,←,left,←,0.4509005001746118,True,28,1
JR-K-22K22S2,1380,experiment,88,→,right,→,0.5395154999569058,True,28,1
JR-K-22K22S2,1381,experiment,49,←,left,←,0.4936285000294447,True,28,1
JR-K-22K22S2,1382,experiment,50,↑,up,↑,0.44861950003542006,True,28,1
JR-K-22K22S2,1383,experiment,107,↑,up,↑,0.4186593999620527,True,28,1
JR-K-22K22S2,1384,experiment,99,→,right,→,0.6248152998741716,True,28,1
JR-K-22K22S2,1385,experiment,103,↑,up,↑,0.4291126001626253,True,28,1
JR-K-22K22S2,1386,experiment,77,↑,up,↑,0.4178245000075549,True,28,1
JR-K-22K22S2,1387,experiment,58,←,left,←,0.4139390999916941,True,28,1
JR-K-22K22S2,1388,experiment,63,↑,up,↑,0.4237160999327898,True,28,1
JR-K-22K22S2,1389,experiment,74,←,left,←,0.37572239991277456,True,28,1
JR-K-22K22S2,1390,experiment,78,↑,up,↑,0.4126244999933988,True,28,1
JR-K-22K22S2,1391,experiment,81,↓,down,↓,0.6323534999974072,True,28,1
JR-K-22K22S2,1392,experiment,100,↑,up,↑,0.5173396000172943,True,28,1
JR-K-22K22S2,1393,experiment,94,→,right,→,0.585147200152278,True,28,1
JR-K-22K22S2,1394,experiment,55,↑,up,↑,0.6071610997896641,True,28,1
JR-K-22K22S2,1395,experiment,105,→,right,→,0.5715201001148671,True,28,1
JR-K-22K22S2,1396,experiment,75,↓,down,↓,1.0591935999691486,True,28,1
JR-K-22K22S2,1397,experiment,67,→,right,→,0.498353699920699,True,28,1
JR-K-22K22S2,1398,experiment,97,↓,down,↓,1.421533500077203,True,28,1
JR-K-22K22S2,1399,experiment,87,↓,down,↓,0.4312974000349641,True,28,1
JR-K-22K22S2,1400,experiment,79,←,left,←,0.5633628000505269,True,28,1
JR-K-22K22S2,1401,experiment,71,↑,up,↑,0.5967326001264155,True,28,1
JR-K-22K22S2,1402,experiment,108,←,left,←,0.5443148999474943,True,28,1
JR-K-22K22S2,1403,experiment,76,←,left,←,0.3594736000522971,True,28,1
JR-K-22K22S2,1404,experiment,51,←,left,←,0.3513415001798421,True,28,0
JR-K-22K22S2,1405,experiment,48,↑,up,↑,0.45881880004890263,True,28,1
JR-K-22K22S2,1406,experiment,60,↓,left,←,0.6922088998835534,False,28,1
JR-K-22K22S2,1407,experiment,64,↑,up,↑,0.42697570007294416,True,28,1
JR-K-22K22S2,1408,experiment,90,←,left,←,0.5477440999820828,True,28,1
JR-K-22K22S2,1409,experiment,53,↓,down,↓,0.37594980001449585,True,28,1
JR-K-22K22S2,1410,experiment,89,←,left,←,0.5030088999774307,True,28,1
JR-K-22K22S2,1411,experiment,57,→,right,→,0.6393323000520468,True,28,1
JR-K-22K22S2,1412,experiment,83,↑,up,↑,0.47364680003374815,True,28,1
JR-K-22K22S2,1413,experiment,93,→,right,→,0.5833361998666078,True,28,1
JR-K-22K22S2,1414,experiment,68,↑,up,↑,0.4493886998388916,True,28,1
JR-K-22K22S2,1415,experiment,54,→,right,→,0.36766269989311695,True,28,1
JR-K-22K22S2,1416,experiment,106,↓,down,↓,0.6184337998274714,True,28,1
JR-K-22K22S2,1417,experiment,102,←,left,←,0.4312535999342799,True,28,1
JR-K-22K22S2,1418,experiment,72,→,right,→,0.42961520003154874,True,28,1
JR-K-22K22S2,1419,experiment,85,↓,down,↓,0.5518520998302847,True,28,1
JR-K-22K22S2,1420,experiment,61,↓,down,↓,0.5253072001505643,True,28,1
JR-K-22K22S2,1421,experiment,92,↓,down,↓,0.36774699995294213,True,28,1
JR-K-22K22S2,1422,experiment,96,↓,down,↓,0.3429120001383126,True,28,0
JR-K-22K22S2,1423,experiment,80,→,right,→,0.5773533000610769,True,28,1
JR-K-22K22S2,1424,experiment,98,←,left,←,0.5532084999140352,True,28,1
JR-K-22K22S2,1425,experiment,95,←,left,←,0.4269872000440955,True,28,1
JR-K-22K22S2,1426,experiment,52,←,left,←,0.5122624000068754,True,28,1
JR-K-22K22S2,1427,training,87,↑,up,↑,0.6132589001208544,True,28,0
JR-K-22K22S2,1428,training,80,↓,down,↓,0.4176433999091387,True,28,1
JR-K-22K22S2,1429,experiment,68,→,right,→,0.43384059984236956,True,28,1
JR-K-22K22S2,1430,experiment,97,→,right,→,0.5598884001374245,True,28,1
JR-K-22K22S2,1431,experiment,75,→,right,→,0.48862150008790195,True,28,1
JR-K-22K22S2,1432,experiment,60,→,right,→,0.4487348000984639,True,28,1
JR-K-22K22S2,1433,experiment,89,→,right,→,0.40878659998998046,True,28,1
JR-K-22K22S2,1434,experiment,67,↓,down,↓,0.6412714999169111,True,28,1
JR-K-22K22S2,1435,experiment,94,↑,down,↓,0.8798978999257088,False,28,1
JR-K-22K22S2,1436,experiment,102,←,left,←,0.4423123998567462,True,28,1
JR-K-22K22S2,1437,experiment,61,←,left,←,0.3595225000753999,True,28,1
JR-K-22K22S2,1438,experiment,105,←,left,←,0.3595271999947727,True,28,0
JR-K-22K22S2,1439,experiment,81,↑,down,↓,0.7122933999635279,False,28,1
JR-K-22K22S2,1440,experiment,101,↓,down,↓,0.5135802000295371,True,28,1
JR-K-22K22S2,1441,experiment,107,←,left,←,0.40926400013267994,True,28,1
JR-K-22K22S2,1442,experiment,100,↑,up,↑,0.5106011999305338,True,28,1
JR-K-22K22S2,1443,experiment,76,→,right,→,0.5526280000340194,True,28,1
