PART_ID,Trial_no,Trial_type,CSI,Stim_letter,Key_pressed,letter_choose,Rt,Corr,Stimulus Time,nDropped
JS-M-24M24S2,1,training,120,→,left,←,0.41864180006086826,False,60,1
JS-M-24M24S2,2,training,120,↑,up,↑,0.7164159000385553,True,60,0
JS-M-24M24S2,3,training,120,←,left,←,0.559534499887377,True,60,0
JS-M-24M24S2,4,training,120,←,left,←,0.6868201000615954,True,60,0
JS-M-24M24S2,5,training,120,→,right,→,0.5004805999342352,True,60,0
JS-M-24M24S2,6,training,120,←,left,←,0.4765631000045687,True,60,0
JS-M-24M24S2,7,training,120,←,left,←,0.385925600072369,True,60,0
JS-M-24M24S2,8,training,120,↑,up,↑,0.4859877999406308,True,60,0
JS-M-24M24S2,9,training,120,→,right,→,0.5087023000232875,True,60,0
JS-M-24M24S2,10,training,120,↑,up,↑,0.9452791998628527,True,60,0
JS-M-24M24S2,11,training,120,↓,up,↑,1.9543419999536127,False,60,0
JS-M-24M24S2,12,training,120,↓,no_key,no_letter,-1.0,False,60,0
JS-M-24M24S2,13,training,120,←,up,↑,2.0588487999048084,False,60,0
JS-M-24M24S2,14,training,120,↑,up,↑,0.4434202997945249,True,60,0
JS-M-24M24S2,15,training,120,↓,down,↓,1.2106234000530094,True,60,0
JS-M-24M24S2,16,training,120,←,down,↓,1.3129094999749213,False,60,0
JS-M-24M24S2,17,training,120,←,left,←,0.5761897000484169,True,60,0
JS-M-24M24S2,18,training,120,↓,down,↓,0.7871926999650896,True,60,0
JS-M-24M24S2,19,training,120,↓,down,↓,0.4919890998862684,True,60,0
JS-M-24M24S2,20,training,120,←,right,→,2.029962700093165,False,60,0
JS-M-24M24S2,21,no_adaptation,120,↓,down,↓,0.5371175999753177,True,36,0
JS-M-24M24S2,22,no_adaptation,120,←,right,→,0.16912809992209077,False,36,0
JS-M-24M24S2,23,no_adaptation,120,↑,up,↑,0.13599060010164976,True,36,0
JS-M-24M24S2,24,no_adaptation,120,↑,down,↓,0.17689050012268126,False,36,0
JS-M-24M24S2,25,no_adaptation,120,→,up,↑,0.04523210017941892,False,36,0
JS-M-24M24S2,26,no_adaptation,120,←,left,←,0.37552720005623996,True,36,0
JS-M-24M24S2,27,no_adaptation,120,↓,down,↓,0.3758564998861402,True,36,0
JS-M-24M24S2,28,no_adaptation,120,←,down,↓,0.16939010005444288,False,36,0
JS-M-24M24S2,29,no_adaptation,120,↓,down,↓,0.06038699997588992,True,36,0
JS-M-24M24S2,30,no_adaptation,120,→,right,→,0.34257779992185533,True,36,0
JS-M-24M24S2,31,no_adaptation,120,↓,left,←,0.07755029993131757,False,36,0
JS-M-24M24S2,32,no_adaptation,120,→,up,↑,1.0418340999167413,False,36,0
JS-M-24M24S2,33,no_adaptation,120,↑,up,↑,0.24446549988351762,True,36,0
JS-M-24M24S2,34,no_adaptation,120,→,left,←,0.30875089997425675,False,36,0
JS-M-24M24S2,35,no_adaptation,120,↓,left,←,0.236126400064677,False,36,0
JS-M-24M24S2,36,no_adaptation,120,←,left,←,0.3922485001385212,True,36,0
JS-M-24M24S2,37,no_adaptation,120,↓,down,↓,0.6154261000920087,True,36,0
JS-M-24M24S2,38,no_adaptation,120,↑,up,↑,0.6060669999569654,True,36,0
JS-M-24M24S2,39,no_adaptation,120,↑,up,↑,0.2692597999703139,True,36,0
JS-M-24M24S2,40,no_adaptation,120,↓,down,↓,0.5841069000307471,True,36,0
JS-M-24M24S2,41,training,84,↓,up,↑,0.11041259998455644,False,36,0
JS-M-24M24S2,42,training,108,→,down,↓,0.1518244999460876,False,36,0
JS-M-24M24S2,43,experiment,57,←,left,←,0.1688864000607282,True,36,0
JS-M-24M24S2,44,experiment,50,↑,right,→,0.16018070001155138,False,36,0
JS-M-24M24S2,45,experiment,105,↓,down,↓,0.09423130005598068,True,36,0
JS-M-24M24S2,46,experiment,95,→,down,↓,0.49936609994620085,False,36,0
JS-M-24M24S2,47,experiment,93,↑,down,↓,0.18515200004912913,False,36,1
JS-M-24M24S2,48,experiment,79,←,down,↓,0.13616310013458133,False,36,0
JS-M-24M24S2,49,experiment,55,→,up,↑,0.0942675000987947,False,36,0
JS-M-24M24S2,50,experiment,63,↑,down,↓,0.14415129995904863,False,36,0
JS-M-24M24S2,51,experiment,86,↑,up,↑,0.37583419983275235,True,36,0
JS-M-24M24S2,52,experiment,74,→,right,→,1.472528100013733,True,36,0
JS-M-24M24S2,53,experiment,77,↑,up,↑,0.36779990000650287,True,36,1
JS-M-24M24S2,54,experiment,96,←,left,←,0.3838559000287205,True,36,1
JS-M-24M24S2,55,experiment,58,↓,right,→,1.0329313999973238,False,36,0
JS-M-24M24S2,56,experiment,62,↓,down,↓,1.2744144999887794,True,36,1
JS-M-24M24S2,57,experiment,72,→,right,→,0.37621730007231236,True,36,1
JS-M-24M24S2,58,experiment,80,↓,down,↓,0.5729911001399159,True,36,0
JS-M-24M24S2,59,experiment,51,→,right,→,0.532765899784863,True,36,1
JS-M-24M24S2,60,experiment,92,↑,right,→,0.3513128999620676,False,36,1
JS-M-24M24S2,61,experiment,88,↑,up,↑,0.4852704000659287,True,36,0
JS-M-24M24S2,62,experiment,59,←,down,↓,0.14408170012757182,False,36,1
JS-M-24M24S2,63,experiment,75,→,right,→,0.401326899882406,True,36,0
JS-M-24M24S2,64,experiment,84,↓,down,↓,0.4171571999322623,True,36,0
JS-M-24M24S2,65,experiment,104,←,left,←,0.3172127001453191,True,36,0
JS-M-24M24S2,66,experiment,73,←,left,←,0.5057584999594837,True,36,0
JS-M-24M24S2,67,experiment,81,↑,left,←,0.34251009998843074,False,36,1
JS-M-24M24S2,68,experiment,61,↑,up,↑,0.4011778000276536,True,36,0
JS-M-24M24S2,69,experiment,103,↓,up,↑,0.14315450005233288,False,36,1
JS-M-24M24S2,70,experiment,60,↑,down,↓,0.11849709996022284,False,36,0
JS-M-24M24S2,71,experiment,78,↑,up,↑,0.0685413999017328,True,36,0
JS-M-24M24S2,72,experiment,65,←,up,↑,0.04425220005214214,False,36,0
JS-M-24M24S2,73,experiment,54,↑,left,←,0.31717459997162223,False,36,0
JS-M-24M24S2,74,experiment,101,←,left,←,0.5269799998495728,True,36,0
JS-M-24M24S2,75,experiment,90,→,right,→,0.026890699984505773,True,36,1
JS-M-24M24S2,76,experiment,106,←,left,←,0.39281619992107153,True,36,0
JS-M-24M24S2,77,experiment,49,↑,down,↓,0.30859760008752346,False,36,1
JS-M-24M24S2,78,experiment,94,↓,down,↓,0.026601700112223625,True,36,0
JS-M-24M24S2,79,experiment,64,↓,down,↓,0.003421999979764223,True,36,0
JS-M-24M24S2,80,experiment,102,↓,up,↑,0.07735039992257953,False,36,0
JS-M-24M24S2,81,experiment,87,→,left,←,0.15279389987699687,False,36,0
JS-M-24M24S2,82,experiment,67,←,left,←,0.13537269993685186,True,36,0
JS-M-24M24S2,83,experiment,108,→,right,→,0.18585729994811118,True,36,0
JS-M-24M24S2,84,experiment,99,↓,left,←,0.026503900066018105,False,36,0
JS-M-24M24S2,85,experiment,83,↑,down,↓,0.2525319999549538,False,36,0
JS-M-24M24S2,86,experiment,100,→,left,←,0.22680609999224544,False,36,0
JS-M-24M24S2,87,experiment,85,↑,down,↓,1.0327353000175208,False,36,0
JS-M-24M24S2,88,experiment,71,↑,right,→,0.019179300172254443,False,36,1
JS-M-24M24S2,89,experiment,97,←,up,↑,0.6825322001241148,False,36,0
JS-M-24M24S2,90,experiment,107,→,down,↓,0.30023299995809793,False,36,1
JS-M-24M24S2,91,experiment,91,→,up,↑,0.0519900000654161,False,36,0
JS-M-24M24S2,92,experiment,89,→,right,→,0.03671719995327294,True,36,0
JS-M-24M24S2,93,experiment,82,→,up,↑,0.10236110002733767,False,36,0
JS-M-24M24S2,94,experiment,53,→,up,↑,0.16917919996194541,False,36,0
JS-M-24M24S2,95,experiment,70,→,right,→,0.14423409989103675,True,36,0
JS-M-24M24S2,96,experiment,52,↓,right,→,0.20274889981374145,False,36,0
JS-M-24M24S2,97,experiment,69,↑,down,↓,0.05354070011526346,False,36,0
JS-M-24M24S2,98,experiment,68,→,down,↓,0.3843537999782711,False,36,0
JS-M-24M24S2,99,experiment,48,→,right,→,0.09470560005865991,True,36,0
JS-M-24M24S2,100,experiment,56,→,left,←,0.3251791000366211,False,36,0
JS-M-24M24S2,101,experiment,76,↓,down,↓,0.025819299975410104,True,36,0
JS-M-24M24S2,102,experiment,98,↓,left,←,0.04441799991764128,False,36,0
JS-M-24M24S2,103,experiment,66,→,down,↓,0.0034537999890744686,False,36,0
JS-M-24M24S2,104,training,84,↑,down,↓,0.21858360012993217,False,37,0
JS-M-24M24S2,105,training,50,↑,up,↑,0.1440510000102222,True,37,0
JS-M-24M24S2,106,experiment,108,↑,down,↓,0.6088684999849647,False,37,0
JS-M-24M24S2,107,experiment,99,→,down,↓,0.04498129989951849,False,37,1
JS-M-24M24S2,108,experiment,93,↑,right,→,0.03530010022222996,False,37,0
JS-M-24M24S2,109,experiment,75,↑,down,↓,0.19274930004030466,False,37,0
JS-M-24M24S2,110,experiment,69,←,right,→,0.12776799988932908,False,37,0
JS-M-24M24S2,111,experiment,61,←,down,↓,0.08542399993166327,False,37,0
JS-M-24M24S2,112,experiment,80,→,right,→,0.03583170007914305,True,37,0
JS-M-24M24S2,113,experiment,67,→,down,↓,0.05180889996699989,False,37,0
JS-M-24M24S2,114,experiment,70,←,right,→,0.13574000005610287,False,37,0
JS-M-24M24S2,115,experiment,82,←,down,↓,0.06213410012423992,False,37,0
JS-M-24M24S2,116,experiment,103,↑,right,→,0.54920220002532,False,37,0
JS-M-24M24S2,117,experiment,106,←,up,↑,0.01816849992610514,False,37,1
JS-M-24M24S2,118,experiment,58,↓,up,↑,0.010218200040981174,False,37,0
JS-M-24M24S2,119,experiment,59,↑,left,←,0.077393600018695,False,37,0
JS-M-24M24S2,120,experiment,104,↑,up,↑,0.07748370012268424,True,37,0
JS-M-24M24S2,121,experiment,63,↓,down,↓,0.03511380008421838,True,37,0
JS-M-24M24S2,122,experiment,83,→,down,↓,0.6262439000420272,False,37,0
JS-M-24M24S2,123,experiment,62,↑,right,→,0.02727660001255572,False,37,1
JS-M-24M24S2,124,experiment,81,↑,up,↑,0.11083720019087195,True,37,0
JS-M-24M24S2,125,experiment,89,→,down,↓,0.12756070005707443,False,37,0
JS-M-24M24S2,126,experiment,66,→,right,→,0.4345675001386553,True,37,0
JS-M-24M24S2,127,experiment,94,↑,right,→,0.06918650004081428,False,37,0
JS-M-24M24S2,128,experiment,65,↓,down,↓,0.13504840014502406,True,37,0
JS-M-24M24S2,129,experiment,78,→,right,→,0.11083090002648532,True,37,0
JS-M-24M24S2,130,experiment,100,↑,left,←,0.01895860000513494,False,37,0
JS-M-24M24S2,131,experiment,72,↑,left,←,0.17757439985871315,False,37,0
JS-M-24M24S2,132,experiment,85,↓,down,↓,0.08514009998179972,True,37,0
JS-M-24M24S2,133,experiment,55,→,down,↓,0.012013799976557493,False,37,0
JS-M-24M24S2,134,experiment,51,→,up,↑,0.19351989985443652,False,37,0
JS-M-24M24S2,135,experiment,96,←,right,→,-0.005073900101706386,False,37,0
JS-M-24M24S2,136,experiment,49,→,right,→,0.1942471000365913,True,37,0
JS-M-24M24S2,137,experiment,71,↓,down,↓,0.6242458999622613,True,37,0
JS-M-24M24S2,138,experiment,64,←,up,↑,0.07665090006776154,False,37,1
JS-M-24M24S2,139,experiment,86,↑,down,↓,0.02835469995625317,False,37,0
JS-M-24M24S2,140,experiment,52,↑,left,←,0.09315109997987747,False,37,0
JS-M-24M24S2,141,experiment,54,→,left,←,0.1025435000192374,False,37,0
JS-M-24M24S2,142,experiment,102,↓,down,↓,0.06876829988323152,True,37,0
JS-M-24M24S2,143,experiment,88,→,down,↓,0.07681070012040436,False,37,0
JS-M-24M24S2,144,experiment,50,←,down,↓,0.010162899969145656,False,37,0
JS-M-24M24S2,145,experiment,87,↑,right,→,0.10179290012456477,False,37,0
JS-M-24M24S2,146,experiment,107,↓,left,←,0.14391599991358817,False,37,0
JS-M-24M24S2,147,experiment,57,←,up,↑,0.5970464001875371,False,37,0
JS-M-24M24S2,148,experiment,56,↑,down,↓,0.3087333000730723,False,37,1
JS-M-24M24S2,149,experiment,92,←,down,↓,0.03497830010019243,False,37,0
JS-M-24M24S2,150,experiment,91,↓,right,→,0.17763749998994172,False,37,0
JS-M-24M24S2,151,experiment,98,→,left,←,0.05160750006325543,False,37,0
JS-M-24M24S2,152,experiment,74,↑,down,↓,0.23536640009842813,False,37,0
JS-M-24M24S2,153,experiment,73,↑,left,←,0.03513049986213446,False,37,0
JS-M-24M24S2,154,experiment,95,→,left,←,0.3423526999540627,False,37,0
JS-M-24M24S2,155,experiment,77,←,left,←,0.08605539985001087,True,37,0
JS-M-24M24S2,156,experiment,76,↑,left,←,0.16921389987692237,False,37,0
JS-M-24M24S2,157,experiment,68,↓,down,↓,0.21855639992281795,True,37,0
JS-M-24M24S2,158,experiment,60,←,right,→,0.11927710007876158,False,37,0
JS-M-24M24S2,159,experiment,105,←,down,↓,0.02006400004029274,False,37,0
JS-M-24M24S2,160,experiment,79,→,right,→,0.1358329001814127,True,37,0
JS-M-24M24S2,161,experiment,90,←,down,↓,0.3754780001472682,False,37,0
JS-M-24M24S2,162,experiment,48,↑,left,←,0.01050309999845922,False,37,0
JS-M-24M24S2,163,experiment,84,→,left,←,0.3762757999356836,False,37,0
JS-M-24M24S2,164,experiment,101,↓,left,←,0.8438886001240462,False,37,0
JS-M-24M24S2,165,experiment,97,→,right,→,0.06090470007620752,True,37,1
JS-M-24M24S2,166,experiment,53,↓,left,←,0.0011082999408245087,False,37,0
JS-M-24M24S2,167,training,80,←,down,↓,0.19367849989794195,False,38,0
JS-M-24M24S2,168,training,80,←,up,↑,0.35046730004251003,False,38,0
JS-M-24M24S2,169,experiment,56,↑,left,←,0.020218699937686324,False,38,0
JS-M-24M24S2,170,experiment,103,↑,left,←,0.05280920001678169,False,38,0
JS-M-24M24S2,171,experiment,97,↑,right,→,0.4088107000570744,False,38,0
JS-M-24M24S2,172,experiment,54,↑,up,↑,0.6436646999791265,True,38,0
JS-M-24M24S2,173,experiment,81,→,right,→,0.052555699832737446,True,38,1
JS-M-24M24S2,174,experiment,88,→,left,←,0.2348445998504758,False,38,0
JS-M-24M24S2,175,experiment,73,→,right,→,0.21945600002072752,True,38,0
JS-M-24M24S2,176,experiment,91,↓,right,→,0.2025003000162542,False,38,0
JS-M-24M24S2,177,experiment,93,↓,up,↑,0.21857409994117916,False,38,0
JS-M-24M24S2,178,experiment,65,↑,left,←,0.33371909987181425,False,38,0
JS-M-24M24S2,179,experiment,100,←,right,→,0.11093019996769726,False,38,0
JS-M-24M24S2,180,experiment,62,→,right,→,0.34196490002796054,True,38,0
JS-M-24M24S2,181,experiment,94,→,left,←,0.3945124000310898,False,38,0
JS-M-24M24S2,182,experiment,107,↑,up,↑,0.3923343999776989,True,38,1
JS-M-24M24S2,183,experiment,52,←,up,↑,1.0411000000312924,False,38,0
JS-M-24M24S2,184,experiment,67,←,up,↑,0.30881679989397526,False,38,1
JS-M-24M24S2,185,experiment,72,↓,right,→,0.12731370003893971,False,38,0
JS-M-24M24S2,186,experiment,83,↓,left,←,0.1944178999401629,False,38,0
JS-M-24M24S2,187,experiment,76,↑,left,←,0.07757110008969903,False,38,0
JS-M-24M24S2,188,experiment,49,→,down,↓,0.001349699916318059,False,38,0
JS-M-24M24S2,189,experiment,77,↓,up,↑,0.3086989999283105,False,38,0
JS-M-24M24S2,190,experiment,48,↑,up,↑,0.0016324000898748636,True,38,0
JS-M-24M24S2,191,experiment,58,→,right,→,0.12666349997743964,True,38,0
JS-M-24M24S2,192,experiment,108,←,down,↓,0.37584759993478656,False,38,0
JS-M-24M24S2,193,experiment,55,←,up,↑,0.2681269000750035,False,38,0
JS-M-24M24S2,194,experiment,75,←,down,↓,0.08520740014500916,False,38,0
JS-M-24M24S2,195,experiment,82,↑,right,→,0.17754930001683533,False,38,0
JS-M-24M24S2,196,experiment,53,←,up,↑,0.4342048999387771,False,38,0
JS-M-24M24S2,197,experiment,74,↓,right,→,0.20257740002125502,False,38,0
JS-M-24M24S2,198,experiment,87,↑,down,↓,0.10986339999362826,False,38,0
JS-M-24M24S2,199,experiment,85,↑,left,←,0.06919800001196563,False,38,0
JS-M-24M24S2,200,experiment,60,↓,up,↑,0.0014890001621097326,False,38,0
JS-M-24M24S2,201,experiment,105,↑,down,↓,0.11885830014944077,False,38,0
JS-M-24M24S2,202,experiment,92,↑,down,↓,0.3023339998908341,False,38,0
JS-M-24M24S2,203,experiment,101,↓,down,↓,0.1350455000065267,True,38,0
JS-M-24M24S2,204,experiment,79,←,right,→,0.36774789984337986,False,38,0
JS-M-24M24S2,205,experiment,61,↓,down,↓,0.8170706999953836,True,38,0
JS-M-24M24S2,206,experiment,68,←,down,↓,0.010915799997746944,False,38,1
JS-M-24M24S2,207,experiment,89,↑,up,↑,0.052111800061538815,True,38,0
JS-M-24M24S2,208,experiment,63,←,up,↑,0.22818209999240935,False,38,0
JS-M-24M24S2,209,experiment,50,↑,up,↑,0.16032480006106198,True,38,0
JS-M-24M24S2,210,experiment,95,↑,down,↓,0.22687440016306937,False,38,0
JS-M-24M24S2,211,experiment,102,↑,up,↑,0.2768834999296814,True,38,0
JS-M-24M24S2,212,experiment,59,←,down,↓,0.06065690005198121,False,38,0
JS-M-24M24S2,213,experiment,84,↑,up,↑,0.27754239994101226,True,38,0
JS-M-24M24S2,214,experiment,78,←,right,→,0.33365359995514154,False,38,0
JS-M-24M24S2,215,experiment,104,↑,left,←,0.027422100072726607,False,38,0
JS-M-24M24S2,216,experiment,66,←,down,↓,0.41794599988497794,False,38,0
JS-M-24M24S2,217,experiment,80,↑,right,→,0.1439166001509875,False,38,1
JS-M-24M24S2,218,experiment,86,→,down,↓,0.11914140009321272,False,38,0
JS-M-24M24S2,219,experiment,70,↓,up,↑,0.1858524999115616,False,38,0
JS-M-24M24S2,220,experiment,98,←,left,←,0.27758889994584024,True,38,0
JS-M-24M24S2,221,experiment,51,↑,down,↓,0.07769070006906986,False,38,0
JS-M-24M24S2,222,experiment,57,↓,right,→,0.011736599961295724,False,38,0
JS-M-24M24S2,223,experiment,106,←,down,↓,0.060066600097343326,False,38,0
JS-M-24M24S2,224,experiment,90,←,up,↑,0.06819959986023605,False,38,0
JS-M-24M24S2,225,experiment,64,↑,up,↑,0.2692631999962032,True,38,0
JS-M-24M24S2,226,experiment,71,→,up,↑,0.018383099930360913,False,38,0
JS-M-24M24S2,227,experiment,69,↓,up,↑,0.14512880006805062,False,38,0
JS-M-24M24S2,228,experiment,99,→,right,→,0.1518344001378864,True,38,0
JS-M-24M24S2,229,experiment,96,↑,left,←,0.11132170003838837,False,38,0
JS-M-24M24S2,230,training,81,↑,up,↑,0.004274500068277121,True,39,0
JS-M-24M24S2,231,training,64,→,left,←,0.1269404999911785,False,39,0
JS-M-24M24S2,232,experiment,75,←,up,↑,0.06041099992580712,False,39,0
JS-M-24M24S2,233,experiment,91,↑,right,→,0.08509920001961291,False,39,0
JS-M-24M24S2,234,experiment,65,↑,left,←,0.11943840002641082,False,39,0
JS-M-24M24S2,235,experiment,77,→,up,↑,0.060894399881362915,False,39,0
JS-M-24M24S2,236,experiment,95,↑,left,←,0.11926730000413954,False,39,0
JS-M-24M24S2,237,experiment,100,↑,down,↓,0.044204300036653876,False,39,0
JS-M-24M24S2,238,experiment,61,↑,down,↓,0.12739589996635914,False,39,0
JS-M-24M24S2,239,experiment,54,←,right,→,0.27663820004090667,False,39,0
JS-M-24M24S2,240,experiment,84,↓,down,↓,0.31086909980513155,True,39,0
JS-M-24M24S2,241,experiment,80,←,down,↓,0.2522569999564439,False,39,0
JS-M-24M24S2,242,experiment,106,↓,left,←,0.20170790003612638,False,39,0
JS-M-24M24S2,243,experiment,70,↓,down,↓,0.12696530018001795,True,39,0
JS-M-24M24S2,244,experiment,87,←,left,←,0.16018570004962385,True,39,0
JS-M-24M24S2,245,experiment,78,←,down,↓,0.7912527997978032,False,39,0
JS-M-24M24S2,246,experiment,58,←,up,↑,0.2935518000740558,False,39,1
JS-M-24M24S2,247,experiment,103,←,down,↓,0.003365099895745516,False,39,0
JS-M-24M24S2,248,experiment,69,↓,down,↓,0.16814629989676178,True,39,0
JS-M-24M24S2,249,experiment,53,←,up,↑,0.18503420008346438,False,39,0
JS-M-24M24S2,250,experiment,108,↓,left,←,0.2683168000075966,False,39,0
JS-M-24M24S2,251,experiment,88,↑,down,↓,0.045050800079479814,False,39,0
JS-M-24M24S2,252,experiment,89,→,down,↓,0.136845099972561,False,39,0
JS-M-24M24S2,253,experiment,55,↓,down,↓,0.01850349991582334,True,39,0
JS-M-24M24S2,254,experiment,81,↑,down,↓,0.05192999984137714,False,39,0
JS-M-24M24S2,255,experiment,52,→,up,↑,0.5082316999323666,False,39,0
JS-M-24M24S2,256,experiment,94,↑,up,↑,0.21828779997304082,True,39,1
JS-M-24M24S2,257,experiment,82,→,up,↑,0.6715872001368552,False,39,0
JS-M-24M24S2,258,experiment,92,↑,right,→,0.009823599830269814,False,39,1
JS-M-24M24S2,259,experiment,104,↑,left,←,0.21088939998298883,False,39,0
JS-M-24M24S2,260,experiment,97,↑,right,→,0.35034119989722967,False,39,0
JS-M-24M24S2,261,experiment,72,←,left,←,0.1626862999983132,True,39,0
JS-M-24M24S2,262,experiment,93,→,right,→,0.2526439998764545,True,39,0
JS-M-24M24S2,263,experiment,86,←,down,↓,0.3504745999816805,False,39,0
JS-M-24M24S2,264,experiment,90,↓,right,→,0.05995609983801842,False,39,0
JS-M-24M24S2,265,experiment,99,↓,left,←,0.034923299914225936,False,39,0
JS-M-24M24S2,266,experiment,62,↓,up,↑,0.0019714999943971634,False,39,0
JS-M-24M24S2,267,experiment,63,→,left,←,0.051945599960163236,False,39,0
JS-M-24M24S2,268,experiment,49,↓,down,↓,0.32542599993757904,True,39,0
JS-M-24M24S2,269,experiment,102,↑,right,→,0.30167249985970557,False,39,0
JS-M-24M24S2,270,experiment,101,↑,up,↑,0.2607384000439197,True,39,0
JS-M-24M24S2,271,experiment,76,→,right,→,0.12002120004035532,True,39,0
JS-M-24M24S2,272,experiment,96,→,left,←,0.07747350004501641,False,39,0
JS-M-24M24S2,273,experiment,48,→,up,↑,0.028548199916258454,False,39,0
JS-M-24M24S2,274,experiment,98,↑,right,→,0.01897650002501905,False,39,0
JS-M-24M24S2,275,experiment,73,→,right,→,0.2109027998521924,True,39,0
JS-M-24M24S2,276,experiment,51,↓,down,↓,0.10249339998699725,True,39,0
JS-M-24M24S2,277,experiment,64,←,down,↓,0.051952899899333715,False,39,0
JS-M-24M24S2,278,experiment,56,↑,left,←,0.08594370004720986,False,39,0
JS-M-24M24S2,279,experiment,50,↑,right,→,0.019213399849832058,False,39,0
JS-M-24M24S2,280,experiment,79,→,down,↓,0.2441724999807775,False,39,0
JS-M-24M24S2,281,experiment,83,→,down,↓,0.7328497001435608,False,39,0
JS-M-24M24S2,282,experiment,67,←,down,↓,0.5215833999682218,False,39,1
JS-M-24M24S2,283,experiment,68,↑,up,↑,0.144154499983415,True,39,1
JS-M-24M24S2,284,experiment,59,←,up,↑,0.045460599940270185,False,39,0
JS-M-24M24S2,285,experiment,60,→,down,↓,0.507285000057891,False,39,0
JS-M-24M24S2,286,experiment,66,←,right,→,0.09526340011507273,False,39,1
JS-M-24M24S2,287,experiment,105,↑,up,↑,0.17722449987195432,True,39,0
JS-M-24M24S2,288,experiment,74,→,right,→,0.6425561001524329,True,39,0
JS-M-24M24S2,289,experiment,71,↑,down,↓,0.09426639997400343,False,39,1
JS-M-24M24S2,290,experiment,85,↑,left,←,0.2277553000021726,False,39,0
JS-M-24M24S2,291,experiment,57,→,up,↑,0.35052030021324754,False,39,0
JS-M-24M24S2,292,experiment,107,→,right,→,0.46832669991999865,True,39,0
JS-M-24M24S2,293,training,58,←,left,←,0.08565400005318224,True,40,0
JS-M-24M24S2,294,training,67,←,down,↓,0.07795929978601635,False,40,0
JS-M-24M24S2,295,experiment,82,→,left,←,0.0937345998827368,False,40,0
JS-M-24M24S2,296,experiment,62,↓,right,→,0.07759519992396235,False,40,0
JS-M-24M24S2,297,experiment,95,↑,up,↑,0.2359077997971326,True,40,0
JS-M-24M24S2,298,experiment,55,←,down,↓,0.06796909985132515,False,40,0
JS-M-24M24S2,299,experiment,49,→,left,←,0.05962860002182424,False,40,0
JS-M-24M24S2,300,experiment,64,→,down,↓,0.10257319989614189,False,40,0
JS-M-24M24S2,301,experiment,91,↑,up,↑,0.10156940016895533,True,40,0
JS-M-24M24S2,302,experiment,98,→,right,→,0.4595329000148922,True,40,0
JS-M-24M24S2,303,experiment,92,↑,right,→,0.07870280020870268,False,40,1
JS-M-24M24S2,304,experiment,86,←,right,→,0.3421541000716388,False,40,0
JS-M-24M24S2,305,experiment,48,→,left,←,1.1892565998714417,False,40,0
JS-M-24M24S2,306,experiment,63,→,down,↓,0.20190170011483133,False,40,1
JS-M-24M24S2,307,experiment,56,↓,left,←,0.21854880009777844,False,40,0
JS-M-24M24S2,308,experiment,89,←,left,←,0.26110629993490875,True,40,0
JS-M-24M24S2,309,experiment,94,↑,left,←,0.08520130021497607,False,40,0
JS-M-24M24S2,310,experiment,99,↑,up,↑,0.5937017998658121,True,40,0
JS-M-24M24S2,311,experiment,84,↑,up,↑,0.14321260014548898,True,40,1
JS-M-24M24S2,312,experiment,107,←,right,→,0.3027661999221891,False,40,0
JS-M-24M24S2,313,experiment,68,↑,down,↓,0.14513839990831912,False,40,0
JS-M-24M24S2,314,experiment,76,↑,down,↓,0.32542439992539585,False,40,0
JS-M-24M24S2,315,experiment,58,↑,down,↓,0.03534019994549453,False,40,0
JS-M-24M24S2,316,experiment,97,←,up,↑,0.001272600144147873,False,40,0
JS-M-24M24S2,317,experiment,51,↑,down,↓,0.027020700043067336,False,40,0
JS-M-24M24S2,318,experiment,65,↓,up,↑,0.01181600010022521,False,40,0
JS-M-24M24S2,319,experiment,106,←,left,←,0.019090999849140644,True,40,0
JS-M-24M24S2,320,experiment,77,→,left,←,0.0432774000801146,False,40,0
JS-M-24M24S2,321,experiment,85,→,up,↑,0.31078850012272596,False,40,0
JS-M-24M24S2,322,experiment,93,↓,up,↑,0.13673549983650446,False,40,0
JS-M-24M24S2,323,experiment,60,→,left,←,-0.00585529999807477,False,40,0
JS-M-24M24S2,324,experiment,59,→,down,↓,0.5838631000369787,False,40,0
JS-M-24M24S2,325,experiment,88,←,down,↓,0.13606330007314682,False,40,1
JS-M-24M24S2,326,experiment,66,←,right,→,0.08595520001836121,False,40,0
JS-M-24M24S2,327,experiment,102,←,left,←,0.1775657997932285,True,40,0
JS-M-24M24S2,328,experiment,72,↓,down,↓,0.23588760010898113,True,40,0
JS-M-24M24S2,329,experiment,100,→,down,↓,0.25984130008146167,False,40,0
JS-M-24M24S2,330,experiment,90,←,down,↓,0.12728459993377328,False,40,0
JS-M-24M24S2,331,experiment,52,←,right,→,0.1614835001528263,False,40,0
JS-M-24M24S2,332,experiment,50,↓,down,↓,0.062067999970167875,True,40,0
JS-M-24M24S2,333,experiment,61,←,left,←,0.28520250017754734,True,40,0
JS-M-24M24S2,334,experiment,103,↑,left,←,0.12753960001282394,False,40,0
JS-M-24M24S2,335,experiment,108,←,right,→,0.2928112999070436,False,40,0
JS-M-24M24S2,336,experiment,78,↑,right,→,0.38443839992396533,False,40,0
JS-M-24M24S2,337,experiment,80,↓,down,↓,0.11850770004093647,True,40,0
JS-M-24M24S2,338,experiment,81,→,right,→,0.11821169988252223,True,40,0
JS-M-24M24S2,339,experiment,69,←,right,→,0.08612810005433857,False,40,0
JS-M-24M24S2,340,experiment,96,↓,right,→,0.05997569998726249,False,40,0
JS-M-24M24S2,341,experiment,67,→,right,→,0.21068859985098243,True,40,0
JS-M-24M24S2,342,experiment,87,←,right,→,0.019433399895206094,False,40,0
JS-M-24M24S2,343,experiment,57,↓,down,↓,0.07831980008631945,True,40,0
JS-M-24M24S2,344,experiment,104,↑,left,←,0.24356810003519058,False,40,0
JS-M-24M24S2,345,experiment,70,↑,right,→,0.043661999981850386,False,40,0
JS-M-24M24S2,346,experiment,73,↓,left,←,0.5116560999304056,False,40,0
JS-M-24M24S2,347,experiment,75,↑,down,↓,0.19425330008380115,False,40,1
JS-M-24M24S2,348,experiment,79,↑,up,↑,0.5775965999346226,True,40,0
JS-M-24M24S2,349,experiment,101,←,up,↑,0.19374449993483722,False,40,1
JS-M-24M24S2,350,experiment,54,↑,left,←,0.19345790008082986,False,40,0
JS-M-24M24S2,351,experiment,105,↑,right,→,0.15996899991296232,False,40,0
JS-M-24M24S2,352,experiment,53,↓,right,→,0.21827560011297464,False,40,0
JS-M-24M24S2,353,experiment,71,→,left,←,0.06112520000897348,False,40,0
JS-M-24M24S2,354,experiment,74,→,left,←,0.11083820019848645,False,40,0
JS-M-24M24S2,355,experiment,83,←,left,←,0.32594719994813204,True,40,0
JS-M-24M24S2,356,training,95,←,left,←,0.06933699990622699,True,41,0
JS-M-24M24S2,357,training,63,↑,left,←,0.04489120002835989,False,41,0
JS-M-24M24S2,358,experiment,76,→,right,→,0.03588379989378154,True,41,0
JS-M-24M24S2,359,experiment,79,→,left,←,0.011597600067034364,False,41,0
JS-M-24M24S2,360,experiment,55,↑,left,←,0.07688790000975132,False,41,0
JS-M-24M24S2,361,experiment,63,↑,down,↓,0.36704590008594096,False,41,0
JS-M-24M24S2,362,experiment,99,↑,right,→,0.42552060005255044,False,41,0
JS-M-24M24S2,363,experiment,95,↑,down,↓,0.060476599959656596,False,41,0
JS-M-24M24S2,364,experiment,81,↑,down,↓,0.11013399995863438,False,41,0
JS-M-24M24S2,365,experiment,64,←,down,↓,0.3587024000007659,False,41,0
JS-M-24M24S2,366,experiment,82,↓,up,↑,0.0936447000131011,False,41,0
JS-M-24M24S2,367,experiment,68,←,down,↓,0.16069409996271133,False,41,0
JS-M-24M24S2,368,experiment,67,↓,down,↓,0.03605889994651079,True,41,0
JS-M-24M24S2,369,experiment,104,→,up,↑,0.15247059985995293,False,41,0
JS-M-24M24S2,370,experiment,89,↑,down,↓,0.41717259981669486,False,41,0
JS-M-24M24S2,371,experiment,90,↓,down,↓,0.0859425999224186,True,41,0
JS-M-24M24S2,372,experiment,53,→,up,↑,0.02778739994391799,False,41,0
JS-M-24M24S2,373,experiment,57,→,up,↑,0.2518366000149399,False,41,0
JS-M-24M24S2,374,experiment,51,↓,right,→,0.18515200004912913,False,41,0
JS-M-24M24S2,375,experiment,97,→,left,←,0.1686988000292331,False,41,0
JS-M-24M24S2,376,experiment,56,→,left,←,0.5344599999953061,False,41,0
JS-M-24M24S2,377,experiment,65,←,down,↓,0.16090369992889464,False,41,1
JS-M-24M24S2,378,experiment,91,→,down,↓,0.21922530001029372,False,41,0
JS-M-24M24S2,379,experiment,77,→,down,↓,0.4845378000754863,False,41,0
JS-M-24M24S2,380,experiment,61,↑,up,↑,0.16106719989329576,True,41,1
JS-M-24M24S2,381,experiment,106,→,right,→,0.10168109997175634,True,41,0
JS-M-24M24S2,382,experiment,62,←,left,←,0.19402899988926947,True,41,0
JS-M-24M24S2,383,experiment,71,↑,up,↑,0.0764589998871088,True,41,0
JS-M-24M24S2,384,experiment,98,↓,down,↓,0.019094000104814768,True,41,0
JS-M-24M24S2,385,experiment,52,←,up,↑,0.3680050999391824,False,41,0
JS-M-24M24S2,386,experiment,74,↓,down,↓,0.1023562999907881,True,41,0
JS-M-24M24S2,387,experiment,72,↑,down,↓,0.05261619994416833,False,41,0
JS-M-24M24S2,388,experiment,73,←,down,↓,0.4260618002153933,False,41,0
JS-M-24M24S2,389,experiment,58,↓,left,←,0.05396299995481968,False,41,1
JS-M-24M24S2,390,experiment,87,→,right,→,0.1518326997756958,True,41,0
JS-M-24M24S2,391,experiment,83,←,right,→,0.21156389988027513,False,41,0
JS-M-24M24S2,392,experiment,70,↓,right,→,0.2525962998624891,False,41,0
JS-M-24M24S2,393,experiment,78,↑,right,→,0.026589500019326806,False,41,0
JS-M-24M24S2,394,experiment,101,↑,up,↑,0.45948290009982884,True,41,0
JS-M-24M24S2,395,experiment,96,↓,up,↑,-0.005117499968037009,False,41,1
JS-M-24M24S2,396,experiment,100,←,right,→,0.027665300061926246,False,41,0
JS-M-24M24S2,397,experiment,88,→,right,→,0.4509735000319779,True,41,0
JS-M-24M24S2,398,experiment,85,↑,down,↓,0.12006509979255497,False,41,1
JS-M-24M24S2,399,experiment,94,↑,down,↓,0.38387020002119243,False,41,0
JS-M-24M24S2,400,experiment,105,↓,right,→,-0.0042687999084591866,False,41,0
JS-M-24M24S2,401,experiment,69,↑,down,↓,0.02752919984050095,False,41,0
JS-M-24M24S2,402,experiment,108,←,up,↑,0.011857699835672975,False,41,0
JS-M-24M24S2,403,experiment,92,↓,right,→,0.7809723999816924,False,41,0
JS-M-24M24S2,404,experiment,93,↓,up,↑,0.12757360003888607,False,41,1
JS-M-24M24S2,405,experiment,49,←,up,↑,0.06028169998899102,False,41,0
JS-M-24M24S2,406,experiment,50,→,up,↑,-0.0040726999286562204,False,41,0
JS-M-24M24S2,407,experiment,75,↓,left,←,0.2516145999543369,False,41,0
JS-M-24M24S2,408,experiment,80,↓,up,↑,0.26932840002700686,False,41,0
JS-M-24M24S2,409,experiment,84,↓,up,↑,0.0014365001115947962,False,41,0
JS-M-24M24S2,410,experiment,54,←,right,→,0.06870429986156523,False,41,0
JS-M-24M24S2,411,experiment,66,↑,down,↓,0.09343659994192421,False,41,0
JS-M-24M24S2,412,experiment,102,←,up,↑,0.40060129994526505,False,41,0
JS-M-24M24S2,413,experiment,86,↓,right,→,0.06837280001491308,False,41,0
JS-M-24M24S2,414,experiment,107,←,left,←,0.16019279998727143,True,41,0
JS-M-24M24S2,415,experiment,60,←,right,→,0.3108607998583466,False,41,0
JS-M-24M24S2,416,experiment,103,→,up,↑,0.24391909991391003,False,41,0
JS-M-24M24S2,417,experiment,48,↓,right,→,0.1858967998996377,False,41,0
JS-M-24M24S2,418,experiment,59,→,up,↑,0.5243641000706702,False,41,0
JS-M-24M24S2,419,training,93,→,up,↑,0.19371929997578263,False,42,0
JS-M-24M24S2,420,training,105,↓,right,→,0.04502000007778406,False,42,0
JS-M-24M24S2,421,experiment,66,↑,right,→,0.8240918000228703,False,42,0
JS-M-24M24S2,422,experiment,89,↑,up,↑,1.3851365998852998,True,42,1
JS-M-24M24S2,423,experiment,55,↓,left,←,0.1944118000101298,False,42,1
JS-M-24M24S2,424,experiment,87,←,up,↑,0.21813050005584955,False,42,0
JS-M-24M24S2,425,experiment,52,↓,no_key,no_letter,-1.0,False,42,0
JS-M-24M24S2,426,experiment,63,↑,right,→,1.79061029991135,False,42,1
JS-M-24M24S2,427,experiment,91,↑,up,↑,0.05338390008546412,True,42,1
JS-M-24M24S2,428,experiment,70,↑,down,↓,0.009859699988737702,False,42,0
JS-M-24M24S2,429,experiment,71,↑,down,↓,0.24430310004390776,False,42,0
JS-M-24M24S2,430,experiment,57,→,up,↑,0.08684960007667542,False,42,0
JS-M-24M24S2,431,experiment,65,↓,up,↑,0.11923580011352897,False,42,0
JS-M-24M24S2,432,experiment,74,→,up,↑,0.051840499974787235,False,42,0
JS-M-24M24S2,433,experiment,50,↓,down,↓,0.18494810000993311,True,42,0
JS-M-24M24S2,434,experiment,90,↑,down,↓,0.02668690006248653,False,42,0
JS-M-24M24S2,435,experiment,108,↑,up,↑,0.1351475000847131,True,42,0
JS-M-24M24S2,436,experiment,75,↑,down,↓,0.41776570002548397,False,42,0
JS-M-24M24S2,437,experiment,51,↑,down,↓,0.026919200085103512,False,42,0
JS-M-24M24S2,438,experiment,101,↓,right,→,0.7133400000166148,False,42,0
JS-M-24M24S2,439,experiment,102,↓,left,←,0.026584699982777238,False,42,1
JS-M-24M24S2,440,experiment,88,←,right,→,0.05195360002107918,False,42,0
JS-M-24M24S2,441,experiment,60,↓,down,↓,0.4171931000892073,True,42,0
JS-M-24M24S2,442,experiment,105,↓,right,→,0.3011531999800354,False,42,0
JS-M-24M24S2,443,experiment,86,→,left,←,0.15270660002715886,False,42,0
JS-M-24M24S2,444,experiment,73,↑,left,←,0.24427010002546012,False,42,0
JS-M-24M24S2,445,experiment,106,←,left,←,0.24371230020187795,True,42,0
JS-M-24M24S2,446,experiment,72,↑,up,↑,0.24357439996674657,True,42,0
JS-M-24M24S2,447,experiment,48,←,left,←,0.1288120998069644,True,42,0
JS-M-24M24S2,448,experiment,62,→,right,→,0.0939795000012964,True,42,0
JS-M-24M24S2,449,experiment,93,↑,down,↓,-0.006497799884527922,False,42,0
JS-M-24M24S2,450,experiment,61,↓,down,↓,0.310075500048697,True,42,0
JS-M-24M24S2,451,experiment,77,↑,up,↑,0.19480830011889338,True,42,0
JS-M-24M24S2,452,experiment,104,←,down,↓,0.2604148001410067,False,42,0
JS-M-24M24S2,453,experiment,100,←,up,↑,0.4337847998831421,False,42,0
JS-M-24M24S2,454,experiment,103,↓,left,←,0.17731419997289777,False,42,0
JS-M-24M24S2,455,experiment,59,←,down,↓,0.06047910009510815,False,42,0
JS-M-24M24S2,456,experiment,96,↓,down,↓,0.6173900000285357,True,42,0
JS-M-24M24S2,457,experiment,94,←,right,→,0.25243610003963113,False,42,1
JS-M-24M24S2,458,experiment,107,←,down,↓,0.2767305001616478,False,42,0
JS-M-24M24S2,459,experiment,84,→,left,←,0.17752300016582012,False,42,0
JS-M-24M24S2,460,experiment,53,←,down,↓,0.03575639985501766,False,42,0
JS-M-24M24S2,461,experiment,76,→,right,→,0.6532068001106381,True,42,0
JS-M-24M24S2,462,experiment,67,←,left,←,0.6128338000271469,True,42,1
JS-M-24M24S2,463,experiment,54,↑,up,↑,0.43403580016456544,True,42,1
JS-M-24M24S2,464,experiment,78,→,right,→,0.5180329999420792,True,42,0
JS-M-24M24S2,465,experiment,97,←,right,→,0.3588107998948544,False,42,0
JS-M-24M24S2,466,experiment,83,←,right,→,0.38405749993398786,False,42,0
JS-M-24M24S2,467,experiment,80,→,right,→,0.3504117000848055,True,42,0
JS-M-24M24S2,468,experiment,69,→,right,→,0.3504272000864148,True,42,0
JS-M-24M24S2,469,experiment,95,→,right,→,0.2600644000340253,True,42,0
JS-M-24M24S2,470,experiment,68,↑,right,→,0.37551459996029735,False,42,0
JS-M-24M24S2,471,experiment,64,↑,right,→,0.27771009993739426,False,42,0
JS-M-24M24S2,472,experiment,79,←,down,↓,0.0034075998701155186,False,42,0
JS-M-24M24S2,473,experiment,98,←,down,↓,0.20177659997716546,False,42,0
JS-M-24M24S2,474,experiment,92,→,right,→,1.1851647000294179,True,42,0
JS-M-24M24S2,475,experiment,49,→,left,←,0.22702379990369081,False,42,1
JS-M-24M24S2,476,experiment,85,←,up,↑,0.5012185999657959,False,42,0
JS-M-24M24S2,477,experiment,58,↑,down,↓,0.018472400028258562,False,42,1
JS-M-24M24S2,478,experiment,99,↑,left,←,0.08512529986910522,False,42,0
JS-M-24M24S2,479,experiment,82,←,left,←,0.010205100057646632,True,42,0
JS-M-24M24S2,480,experiment,56,↑,right,→,0.019985100021585822,False,42,0
JS-M-24M24S2,481,experiment,81,←,down,↓,0.23605239996686578,False,42,0
JS-M-24M24S2,482,training,67,↓,left,←,0.39221770013682544,False,43,0
JS-M-24M24S2,483,training,60,→,up,↑,0.2600405002012849,False,43,0
JS-M-24M24S2,484,experiment,71,←,right,→,0.20193719980306923,False,43,0
JS-M-24M24S2,485,experiment,108,↓,up,↑,0.08509549987502396,False,43,0
JS-M-24M24S2,486,experiment,94,→,down,↓,0.23484030016697943,False,43,0
JS-M-24M24S2,487,experiment,98,↓,left,←,0.009810300078243017,False,43,0
JS-M-24M24S2,488,experiment,65,↑,up,↑,0.3847082001157105,True,43,0
JS-M-24M24S2,489,experiment,70,←,right,→,0.17703490005806088,False,43,0
JS-M-24M24S2,490,experiment,57,↓,right,→,0.06862920010462403,False,43,0
JS-M-24M24S2,491,experiment,92,↓,right,→,0.12755870004184544,False,43,0
JS-M-24M24S2,492,experiment,89,→,left,←,0.10319489985704422,False,43,0
JS-M-24M24S2,493,experiment,49,←,left,←,0.1942406001035124,True,43,0
JS-M-24M24S2,494,experiment,96,→,up,↑,0.04549259995110333,False,43,0
JS-M-24M24S2,495,experiment,91,↑,up,↑,0.08584560011513531,True,43,0
JS-M-24M24S2,496,experiment,81,↑,right,→,0.01921029994264245,False,43,0
JS-M-24M24S2,497,experiment,76,←,down,↓,0.05183080001734197,False,43,0
JS-M-24M24S2,498,experiment,101,←,up,↑,0.29433920001611114,False,43,0
JS-M-24M24S2,499,experiment,55,←,left,←,0.036008100025355816,True,43,0
JS-M-24M24S2,500,experiment,85,↓,right,→,0.04420550004579127,False,43,0
JS-M-24M24S2,501,experiment,102,↓,down,↓,0.07781759998761117,True,43,0
JS-M-24M24S2,502,experiment,99,←,up,↑,0.8618746001739055,False,43,0
JS-M-24M24S2,503,experiment,73,→,up,↑,0.2269164000172168,False,43,1
JS-M-24M24S2,504,experiment,100,←,down,↓,0.161056499928236,False,43,0
JS-M-24M24S2,505,experiment,106,←,left,←,0.11851310008205473,True,43,0
JS-M-24M24S2,506,experiment,56,→,up,↑,0.06880999985150993,False,43,0
JS-M-24M24S2,507,experiment,88,↑,down,↓,0.09398819995112717,False,43,0
JS-M-24M24S2,508,experiment,51,→,down,↓,0.01128809992223978,False,43,0
JS-M-24M24S2,509,experiment,105,→,up,↑,0.28504869993776083,False,43,0
JS-M-24M24S2,510,experiment,64,↓,up,↑,0.012870399979874492,False,43,0
JS-M-24M24S2,511,experiment,50,←,down,↓,0.09398879995569587,False,43,0
JS-M-24M24S2,512,experiment,77,↓,up,↑,0.07682120008394122,False,43,0
JS-M-24M24S2,513,experiment,84,→,right,→,0.3026275997981429,True,43,0
JS-M-24M24S2,514,experiment,82,←,right,→,0.36711280001327395,False,43,0
JS-M-24M24S2,515,experiment,58,↓,down,↓,0.19437620020471513,True,43,0
JS-M-24M24S2,516,experiment,93,→,right,→,0.31925679999403656,True,43,0
JS-M-24M24S2,517,experiment,63,←,no_key,no_letter,-1.0,False,43,0
JS-M-24M24S2,518,experiment,68,↓,left,←,0.001627099933102727,False,43,1
JS-M-24M24S2,519,experiment,86,←,down,↓,0.16831929981708527,False,43,0
JS-M-24M24S2,520,experiment,95,↓,down,↓,0.11097260005772114,True,43,0
JS-M-24M24S2,521,experiment,59,←,up,↑,0.4421881998423487,False,43,0
JS-M-24M24S2,522,experiment,61,↓,right,→,0.35040230001322925,False,43,0
JS-M-24M24S2,523,experiment,53,←,up,↑,0.6599489999935031,False,43,0
JS-M-24M24S2,524,experiment,74,←,right,→,1.3135487998370081,False,43,1
JS-M-24M24S2,525,experiment,104,↓,down,↓,0.14409380010329187,True,43,1
JS-M-24M24S2,526,experiment,62,↑,down,↓,0.21018940000794828,False,43,0
JS-M-24M24S2,527,experiment,90,↓,down,↓,0.24365590000525117,True,43,0
JS-M-24M24S2,528,experiment,103,↑,up,↑,0.06934349983930588,True,43,0
JS-M-24M24S2,529,experiment,67,↑,down,↓,0.1273856998886913,False,43,0
JS-M-24M24S2,530,experiment,66,↓,down,↓,0.1774285000283271,True,43,0
JS-M-24M24S2,531,experiment,107,→,down,↓,0.18543690000660717,False,43,0
JS-M-24M24S2,532,experiment,60,↓,right,→,0.1275945999659598,False,43,0
JS-M-24M24S2,533,experiment,80,↓,down,↓,0.052121999906376004,True,43,0
JS-M-24M24S2,534,experiment,83,←,down,↓,0.0937103999312967,False,43,0
JS-M-24M24S2,535,experiment,97,→,down,↓,0.026693799998611212,False,43,0
JS-M-24M24S2,536,experiment,75,←,down,↓,0.06038859998807311,False,43,0
JS-M-24M24S2,537,experiment,52,←,down,↓,0.2526464001275599,False,43,0
JS-M-24M24S2,538,experiment,48,↑,down,↓,0.17766800010576844,False,43,0
JS-M-24M24S2,539,experiment,79,→,left,←,0.036097100004553795,False,43,0
JS-M-24M24S2,540,experiment,72,→,down,↓,0.01861100015230477,False,43,0
JS-M-24M24S2,541,experiment,69,↑,left,←,0.05152460001409054,False,43,0
JS-M-24M24S2,542,experiment,87,←,down,↓,0.3193268000613898,False,43,0
JS-M-24M24S2,543,experiment,78,↓,up,↑,0.043247099965810776,False,43,0
JS-M-24M24S2,544,experiment,54,←,up,↑,0.34421909996308386,False,43,0
JS-M-24M24S2,545,training,82,↓,left,←,0.04578220006078482,False,44,0
JS-M-24M24S2,546,training,51,→,up,↑,0.021457399940118194,False,44,0
JS-M-24M24S2,547,experiment,62,←,down,↓,0.38375219982117414,False,44,0
JS-M-24M24S2,548,experiment,91,→,up,↑,0.43578340020030737,False,44,0
JS-M-24M24S2,549,experiment,69,→,down,↓,0.04282059986144304,False,44,0
JS-M-24M24S2,550,experiment,80,↓,up,↑,0.09323040000163019,False,44,0
JS-M-24M24S2,551,experiment,101,↓,right,→,0.14368490013293922,False,44,0
JS-M-24M24S2,552,experiment,106,↑,right,→,0.2519728001207113,False,44,0
JS-M-24M24S2,553,experiment,107,↑,right,→,0.010875300038605928,False,44,0
JS-M-24M24S2,554,experiment,77,↑,right,→,0.28499440010637045,False,44,0
JS-M-24M24S2,555,experiment,84,↓,down,↓,0.630329699954018,True,44,0
JS-M-24M24S2,556,experiment,60,↑,up,↑,0.5608790998812765,True,44,1
JS-M-24M24S2,557,experiment,89,↓,down,↓,0.44287750008516014,True,44,1
JS-M-24M24S2,558,experiment,96,↓,down,↓,0.31002520001493394,True,44,0
JS-M-24M24S2,559,experiment,103,→,right,→,0.3842899000737816,True,44,0
JS-M-24M24S2,560,experiment,79,←,right,→,0.5744590000249445,False,44,0
JS-M-24M24S2,561,experiment,88,↑,up,↑,0.7616838999092579,True,44,1
JS-M-24M24S2,562,experiment,75,←,up,↑,0.15344739984720945,False,44,1
JS-M-24M24S2,563,experiment,58,↑,right,→,0.07669240003451705,False,44,0
JS-M-24M24S2,564,experiment,104,↑,up,↑,0.01171189988963306,True,44,0
JS-M-24M24S2,565,experiment,73,←,up,↑,0.027564299991354346,False,44,0
JS-M-24M24S2,566,experiment,92,↓,down,↓,0.9294115998782218,True,44,0
JS-M-24M24S2,567,experiment,54,↑,down,↓,0.011826099827885628,False,44,1
JS-M-24M24S2,568,experiment,65,↑,left,←,0.2944312999024987,False,44,0
JS-M-24M24S2,569,experiment,87,→,down,↓,0.22778659989126027,False,44,0
JS-M-24M24S2,570,experiment,98,←,right,→,0.24448870006017387,False,44,0
JS-M-24M24S2,571,experiment,74,←,down,↓,0.30186469992622733,False,44,0
JS-M-24M24S2,572,experiment,56,↑,up,↑,0.03595439996570349,True,44,0
JS-M-24M24S2,573,experiment,85,→,up,↑,0.11935880011878908,False,44,0
JS-M-24M24S2,574,experiment,83,↓,down,↓,0.5629793000407517,True,44,0
JS-M-24M24S2,575,experiment,59,→,up,↑,0.31021040002815425,False,44,1
JS-M-24M24S2,576,experiment,82,→,down,↓,0.027536500012502074,False,44,0
JS-M-24M24S2,577,experiment,68,↑,up,↑,0.2526885000988841,True,44,0
JS-M-24M24S2,578,experiment,76,↓,up,↑,0.616382900159806,False,44,0
JS-M-24M24S2,579,experiment,53,←,right,→,0.466931400122121,False,44,1
JS-M-24M24S2,580,experiment,49,↓,down,↓,0.5702621000818908,True,44,0
JS-M-24M24S2,581,experiment,72,→,right,→,0.442280099960044,True,44,1
JS-M-24M24S2,582,experiment,64,←,left,←,0.40884920000098646,True,44,0
JS-M-24M24S2,583,experiment,50,↑,up,↑,0.6577702001668513,True,44,0
JS-M-24M24S2,584,experiment,94,↑,up,↑,0.7037341000977904,True,44,1
JS-M-24M24S2,585,experiment,63,→,right,→,0.5173190999776125,True,44,1
JS-M-24M24S2,586,experiment,90,↑,up,↑,0.38386639999225736,True,44,0
JS-M-24M24S2,587,experiment,102,↑,up,↑,0.5175475999712944,True,44,0
JS-M-24M24S2,588,experiment,108,→,right,→,0.4251129999756813,True,44,0
JS-M-24M24S2,589,experiment,51,↑,down,↓,0.30268870014697313,False,44,0
JS-M-24M24S2,590,experiment,78,→,left,←,0.5886085999663919,False,44,0
JS-M-24M24S2,591,experiment,99,→,up,↑,0.3922099999617785,False,44,1
JS-M-24M24S2,592,experiment,61,↑,left,←,1.0391361999791116,False,44,0
JS-M-24M24S2,593,experiment,100,↑,down,↓,0.18620279990136623,False,44,1
JS-M-24M24S2,594,experiment,71,↓,right,→,0.3837973999325186,False,44,0
JS-M-24M24S2,595,experiment,86,←,left,←,0.1683099998626858,True,44,0
JS-M-24M24S2,596,experiment,81,←,right,→,0.15297599998302758,False,44,0
JS-M-24M24S2,597,experiment,55,↑,up,↑,0.10268809995613992,True,44,0
JS-M-24M24S2,598,experiment,66,→,up,↑,0.15257870010100305,False,44,0
JS-M-24M24S2,599,experiment,57,↓,up,↑,0.5011363998055458,False,44,0
JS-M-24M24S2,600,experiment,52,←,left,←,0.35267040017060935,True,44,1
JS-M-24M24S2,601,experiment,70,↑,up,↑,0.20219360012561083,True,44,0
JS-M-24M24S2,602,experiment,48,←,down,↓,0.04524469980970025,False,44,0
JS-M-24M24S2,603,experiment,97,↓,up,↑,0.1850119000300765,False,44,0
JS-M-24M24S2,604,experiment,105,←,up,↑,1.090412399964407,False,44,0
JS-M-24M24S2,605,experiment,93,↑,right,→,0.03565299999900162,False,44,1
JS-M-24M24S2,606,experiment,95,←,up,↑,0.21105020004324615,False,44,0
JS-M-24M24S2,607,experiment,67,←,left,←,0.21938470005989075,True,44,0
JS-M-24M24S2,608,training,93,←,up,↑,0.12668959982693195,False,44,0
JS-M-24M24S2,609,training,108,←,down,↓,0.4586018999107182,False,44,0
JS-M-24M24S2,610,experiment,64,↑,left,←,-0.00401509995572269,False,44,0
JS-M-24M24S2,611,experiment,89,↑,left,←,0.13582490012049675,False,44,0
JS-M-24M24S2,612,experiment,66,←,left,←,0.28509560017846525,True,44,0
JS-M-24M24S2,613,experiment,53,↑,down,↓,0.2859983001835644,False,44,0
JS-M-24M24S2,614,experiment,95,←,right,→,-0.005457499995827675,False,44,0
JS-M-24M24S2,615,experiment,101,↓,down,↓,0.009610200067982078,True,44,0
JS-M-24M24S2,616,experiment,106,→,up,↑,0.10258199996314943,False,44,0
JS-M-24M24S2,617,experiment,99,↑,down,↓,0.18527000001631677,False,44,0
JS-M-24M24S2,618,experiment,80,↓,right,→,0.16841989988461137,False,44,0
JS-M-24M24S2,619,experiment,61,↓,right,→,0.044306800002232194,False,44,0
JS-M-24M24S2,620,experiment,74,←,down,↓,0.1616557000670582,False,44,0
JS-M-24M24S2,621,experiment,94,↓,up,↑,0.1350772997830063,False,44,0
JS-M-24M24S2,622,experiment,59,↑,down,↓,0.0525541000533849,False,44,0
JS-M-24M24S2,623,experiment,70,→,right,→,0.0021577998995780945,True,44,0
JS-M-24M24S2,624,experiment,58,↑,up,↑,0.1182305000256747,True,44,0
JS-M-24M24S2,625,experiment,78,↑,up,↑,0.21089780004695058,True,44,0
JS-M-24M24S2,626,experiment,92,↑,left,←,0.11912689986638725,False,44,0
JS-M-24M24S2,627,experiment,77,↑,up,↑,-0.004652299918234348,True,44,0
JS-M-24M24S2,628,experiment,60,←,up,↑,0.11891339998692274,False,44,0
JS-M-24M24S2,629,experiment,100,←,up,↑,0.0775649999268353,False,44,0
JS-M-24M24S2,630,experiment,55,←,up,↑,0.25182859995402396,False,44,0
JS-M-24M24S2,631,experiment,87,→,up,↑,0.16844589984975755,False,44,0
JS-M-24M24S2,632,experiment,62,↓,down,↓,0.31936590000987053,True,44,0
JS-M-24M24S2,633,experiment,93,↑,down,↓,0.026739299995824695,False,44,0
JS-M-24M24S2,634,experiment,69,↓,left,←,0.18540469999425113,False,44,0
JS-M-24M24S2,635,experiment,54,↑,right,→,0.08546570013277233,False,44,0
JS-M-24M24S2,636,experiment,50,↓,up,↑,0.19355279998853803,False,44,0
JS-M-24M24S2,637,experiment,79,↓,up,↑,0.24413170013576746,False,44,0
JS-M-24M24S2,638,experiment,90,↑,up,↑,0.02130690007470548,True,44,0
JS-M-24M24S2,639,experiment,102,←,down,↓,0.07662720000371337,False,44,0
JS-M-24M24S2,640,experiment,88,↑,down,↓,0.019591999938711524,False,44,0
JS-M-24M24S2,641,experiment,51,←,down,↓,0.20179779990576208,False,44,0
JS-M-24M24S2,642,experiment,82,↓,right,→,0.020407200092449784,False,44,0
JS-M-24M24S2,643,experiment,104,↓,right,→,0.5173559000249952,False,44,0
JS-M-24M24S2,644,experiment,57,↑,left,←,1.1627708999440074,False,44,0
JS-M-24M24S2,645,experiment,68,→,down,↓,0.03497169981710613,False,44,1
JS-M-24M24S2,646,experiment,52,↑,down,↓,0.2694679000414908,False,44,0
JS-M-24M24S2,647,experiment,72,→,right,→,0.06960160005837679,True,44,0
JS-M-24M24S2,648,experiment,107,←,left,←,0.1367257998790592,True,44,0
JS-M-24M24S2,649,experiment,97,→,up,↑,0.3186234999448061,False,44,0
JS-M-24M24S2,650,experiment,71,←,up,↑,0.22667340002954006,False,44,0
JS-M-24M24S2,651,experiment,63,↑,right,→,0.15185899985954165,False,44,0
JS-M-24M24S2,652,experiment,81,→,down,↓,0.16942270006984472,False,44,0
JS-M-24M24S2,653,experiment,48,→,down,↓,0.3192692000884563,False,44,0
JS-M-24M24S2,654,experiment,85,↓,down,↓,0.5426556000020355,True,44,0
JS-M-24M24S2,655,experiment,84,←,up,↑,0.03591499989852309,False,44,1
JS-M-24M24S2,656,experiment,108,↑,down,↓,0.06072059995494783,False,44,0
JS-M-24M24S2,657,experiment,76,→,down,↓,0.12666129996068776,False,44,0
JS-M-24M24S2,658,experiment,49,→,down,↓,0.13583160005509853,False,44,0
JS-M-24M24S2,659,experiment,103,←,left,←,0.04421130008995533,True,44,0
JS-M-24M24S2,660,experiment,56,↓,right,→,0.14341209991835058,False,44,0
JS-M-24M24S2,661,experiment,86,↑,right,→,0.018761400133371353,False,44,0
JS-M-24M24S2,662,experiment,67,↑,down,↓,0.1692248999606818,False,44,0
JS-M-24M24S2,663,experiment,65,↓,down,↓,0.16831399989314377,True,44,0
JS-M-24M24S2,664,experiment,73,↑,down,↓,-0.006038099993020296,False,44,0
JS-M-24M24S2,665,experiment,91,←,left,←,0.08520799991674721,True,44,0
JS-M-24M24S2,666,experiment,98,↓,up,↑,0.23598640016280115,False,44,0
JS-M-24M24S2,667,experiment,75,↓,up,↑,0.40035029989667237,False,44,0
JS-M-24M24S2,668,experiment,83,←,up,↑,0.08481410006061196,False,44,0
JS-M-24M24S2,669,experiment,96,←,down,↓,0.3922355999238789,False,44,0
JS-M-24M24S2,670,experiment,105,↓,left,←,0.10248360014520586,False,44,0
JS-M-24M24S2,671,training,48,→,down,↓,0.011846000095829368,False,44,0
JS-M-24M24S2,672,training,51,←,down,↓,0.10165389999747276,False,44,0
JS-M-24M24S2,673,experiment,63,↓,right,→,0.0017991999629884958,False,44,0
JS-M-24M24S2,674,experiment,78,↑,down,↓,0.26836309977807105,False,44,0
JS-M-24M24S2,675,experiment,57,←,down,↓,0.019165400182828307,False,44,0
JS-M-24M24S2,676,experiment,50,←,down,↓,0.15181150007992983,False,44,0
JS-M-24M24S2,677,experiment,101,←,up,↑,0.14368150010704994,False,44,0
JS-M-24M24S2,678,experiment,99,↓,up,↑,0.3187320998404175,False,44,0
JS-M-24M24S2,679,experiment,73,←,down,↓,0.4256494001019746,False,44,0
JS-M-24M24S2,680,experiment,100,↓,left,←,-0.005142899928614497,False,44,0
JS-M-24M24S2,681,experiment,94,↑,up,↑,0.326834199950099,True,44,0
JS-M-24M24S2,682,experiment,102,↑,up,↑,0.19317450001835823,True,44,0
JS-M-24M24S2,683,experiment,59,↓,up,↑,0.15179940010420978,False,44,0
JS-M-24M24S2,684,experiment,64,↓,up,↑,0.18619720009155571,False,44,0
JS-M-24M24S2,685,experiment,61,↑,right,→,0.027539300033822656,False,44,0
JS-M-24M24S2,686,experiment,86,↑,left,←,0.26918549998663366,False,44,0
JS-M-24M24S2,687,experiment,84,←,up,↑,0.0018597999587655067,False,44,0
JS-M-24M24S2,688,experiment,95,↓,down,↓,0.2529486999846995,True,44,0
JS-M-24M24S2,689,experiment,51,↓,down,↓,0.31925250007770956,True,44,0
JS-M-24M24S2,690,experiment,75,→,left,←,0.20189759996719658,False,44,0
JS-M-24M24S2,691,experiment,72,→,up,↑,0.22753919987007976,False,44,0
JS-M-24M24S2,692,experiment,66,↓,down,↓,0.2183107000309974,True,44,0
JS-M-24M24S2,693,experiment,60,→,down,↓,0.1025280999019742,False,44,0
JS-M-24M24S2,694,experiment,80,↑,down,↓,0.11866850010119379,False,44,0
JS-M-24M24S2,695,experiment,48,↑,down,↓,0.17691939999349415,False,44,0
JS-M-24M24S2,696,experiment,62,↑,left,←,0.08538109995424747,False,44,0
JS-M-24M24S2,697,experiment,79,←,left,←,0.03615249996073544,True,44,0
JS-M-24M24S2,698,experiment,76,→,down,↓,0.0033833999186754227,False,44,0
JS-M-24M24S2,699,experiment,52,←,left,←,0.02681290009059012,True,44,0
JS-M-24M24S2,700,experiment,88,↑,up,↑,0.11148680001497269,True,44,0
JS-M-24M24S2,701,experiment,54,↑,up,↑,0.2692485998850316,True,44,0
JS-M-24M24S2,702,experiment,68,←,up,↑,0.06095630000345409,False,44,0
JS-M-24M24S2,703,experiment,108,↓,right,→,0.35258179996162653,False,44,0
JS-M-24M24S2,704,experiment,70,→,right,→,0.09512150008231401,True,44,0
JS-M-24M24S2,705,experiment,106,↓,up,↑,0.2018122998997569,False,44,0
JS-M-24M24S2,706,experiment,87,→,up,↑,0.17757319984957576,False,44,0
JS-M-24M24S2,707,experiment,55,←,left,←,0.027004500152543187,True,44,0
JS-M-24M24S2,708,experiment,85,↑,right,→,0.1360033000819385,False,44,0
JS-M-24M24S2,709,experiment,98,↓,up,↑,0.21037250012159348,False,44,0
JS-M-24M24S2,710,experiment,104,←,left,←,0.21038519986905158,True,44,0
JS-M-24M24S2,711,experiment,82,↓,up,↑,0.2438411999028176,False,44,0
JS-M-24M24S2,712,experiment,69,→,up,↑,0.04331639991141856,False,44,0
JS-M-24M24S2,713,experiment,93,↓,down,↓,0.027350200107321143,True,44,0
JS-M-24M24S2,714,experiment,74,↑,right,→,0.15139580005779862,False,44,0
JS-M-24M24S2,715,experiment,58,→,down,↓,0.003440400119870901,False,44,0
JS-M-24M24S2,716,experiment,77,←,right,→,0.26871449989266694,False,44,0
JS-M-24M24S2,717,experiment,65,↑,left,←,-0.004153999965637922,False,44,0
JS-M-24M24S2,718,experiment,83,↓,left,←,0.076608199859038,False,44,0
JS-M-24M24S2,719,experiment,96,→,down,↓,0.23493739985860884,False,44,0
JS-M-24M24S2,720,experiment,71,↑,right,→,0.1193019999191165,False,44,0
JS-M-24M24S2,721,experiment,49,←,up,↑,0.002597799990326166,False,44,0
JS-M-24M24S2,722,experiment,107,↓,up,↑,0.16180809983052313,False,44,0
JS-M-24M24S2,723,experiment,92,↓,left,←,0.20174730010330677,False,44,0
JS-M-24M24S2,724,experiment,91,→,down,↓,0.06817800016142428,False,44,0
JS-M-24M24S2,725,experiment,89,←,right,→,0.11952419998124242,False,44,0
JS-M-24M24S2,726,experiment,90,↓,up,↑,0.19428239995613694,False,44,0
JS-M-24M24S2,727,experiment,56,↑,down,↓,0.21806850004941225,False,44,0
JS-M-24M24S2,728,experiment,105,←,left,←,0.3351034000515938,True,44,0
JS-M-24M24S2,729,experiment,103,↓,up,↑,0.1601301000919193,False,44,0
JS-M-24M24S2,730,experiment,53,↑,down,↓,0.2861695000901818,False,44,0
JS-M-24M24S2,731,experiment,67,→,down,↓,0.11033539986237884,False,44,0
JS-M-24M24S2,732,experiment,81,←,up,↑,0.11923359986394644,False,44,0
JS-M-24M24S2,733,experiment,97,↓,down,↓,0.35258910013362765,True,44,0
JS-M-24M24S2,734,training,66,↓,left,←,0.2100376000162214,False,44,0
JS-M-24M24S2,735,training,106,↓,down,↓,0.517233399907127,True,44,0
JS-M-24M24S2,736,experiment,89,↓,down,↓,0.5768800000660121,True,44,0
JS-M-24M24S2,737,experiment,56,←,right,→,1.1985341999679804,False,44,1
JS-M-24M24S2,738,experiment,71,↓,up,↑,0.10322519997134805,False,44,1
JS-M-24M24S2,739,experiment,62,↑,down,↓,0.011076800059527159,False,44,0
JS-M-24M24S2,740,experiment,72,←,left,←,0.044293500017374754,True,44,0
JS-M-24M24S2,741,experiment,97,←,up,↑,0.15226690005511045,False,44,0
JS-M-24M24S2,742,experiment,54,↓,right,→,0.10247809998691082,False,44,0
JS-M-24M24S2,743,experiment,77,←,left,←,0.13502360018901527,True,44,0
JS-M-24M24S2,744,experiment,50,↑,down,↓,0.010193000081926584,False,44,0
JS-M-24M24S2,745,experiment,64,←,up,↑,0.1859365999698639,False,44,0
JS-M-24M24S2,746,experiment,61,↓,left,←,0.16084820008836687,False,44,0
JS-M-24M24S2,747,experiment,60,↑,down,↓,0.11842929990962148,False,44,0
JS-M-24M24S2,748,experiment,91,←,up,↑,0.30173170007765293,False,44,0
JS-M-24M24S2,749,experiment,93,↓,up,↑,0.7657623998820782,False,44,0
JS-M-24M24S2,750,experiment,107,↑,left,←,0.37550600012764335,False,44,1
JS-M-24M24S2,751,experiment,99,↓,right,→,0.31916850013658404,False,44,0
JS-M-24M24S2,752,experiment,88,→,up,↑,0.3671210000757128,False,44,0
JS-M-24M24S2,753,experiment,101,→,left,←,0.28504809993319213,False,44,0
JS-M-24M24S2,754,experiment,58,→,left,←,0.03612850001081824,False,44,0
JS-M-24M24S2,755,experiment,63,←,right,→,0.17716229986399412,False,44,0
JS-M-24M24S2,756,experiment,90,→,left,←,0.21815659990534186,False,44,0
JS-M-24M24S2,757,experiment,85,↓,right,→,0.4169622999615967,False,44,0
JS-M-24M24S2,758,experiment,70,→,left,←,0.3268132999073714,False,44,0
JS-M-24M24S2,759,experiment,103,↑,down,↓,0.13614309998229146,False,44,0
JS-M-24M24S2,760,experiment,79,↑,right,→,0.31046329997479916,False,44,0
JS-M-24M24S2,761,experiment,84,↓,down,↓,0.10982250003144145,True,44,0
JS-M-24M24S2,762,experiment,83,↓,left,←,0.06916249985806644,False,44,0
JS-M-24M24S2,763,experiment,86,←,left,←,0.24352600006386638,True,44,0
JS-M-24M24S2,764,experiment,100,↑,right,→,0.10987430019304156,False,44,0
JS-M-24M24S2,765,experiment,81,↑,right,→,0.144465500023216,False,44,0
JS-M-24M24S2,766,experiment,104,→,right,→,0.34397839987650514,True,44,0
JS-M-24M24S2,767,experiment,53,←,up,↑,0.14324459992349148,False,44,0
JS-M-24M24S2,768,experiment,108,→,left,←,0.020334099885076284,False,44,0
JS-M-24M24S2,769,experiment,98,←,up,↑,0.3193516000173986,False,44,0
JS-M-24M24S2,770,experiment,74,↑,down,↓,0.2601393999066204,False,44,0
JS-M-24M24S2,771,experiment,55,↓,down,↓,0.24446430010721087,True,44,0
JS-M-24M24S2,772,experiment,78,↑,down,↓,0.010330499848350883,False,44,0
JS-M-24M24S2,773,experiment,76,→,down,↓,0.05280569987371564,False,44,0
JS-M-24M24S2,774,experiment,69,↑,down,↓,0.12762919999659061,False,44,0
JS-M-24M24S2,775,experiment,96,↓,left,←,0.043180499924346805,False,44,0
JS-M-24M24S2,776,experiment,57,↓,right,→,0.14452249999158084,False,44,0
JS-M-24M24S2,777,experiment,95,↑,right,→,0.2695985999889672,False,44,0
JS-M-24M24S2,778,experiment,106,→,up,↑,0.001904499949887395,False,44,0
JS-M-24M24S2,779,experiment,68,→,down,↓,0.2270743001718074,False,44,0
JS-M-24M24S2,780,experiment,48,↓,down,↓,0.2192856001202017,True,44,0
JS-M-24M24S2,781,experiment,87,↑,left,←,0.15153810009360313,False,44,0
JS-M-24M24S2,782,experiment,66,↓,up,↑,0.060094600077718496,False,44,0
JS-M-24M24S2,783,experiment,102,→,up,↑,0.060887200059369206,False,44,0
JS-M-24M24S2,784,experiment,80,↓,right,→,0.10234059998765588,False,44,0
JS-M-24M24S2,785,experiment,49,→,up,↑,0.16085160011425614,False,44,0
JS-M-24M24S2,786,experiment,82,↓,left,←,0.4844152999576181,False,44,0
JS-M-24M24S2,787,experiment,92,↓,up,↑,0.27675259998068213,False,44,0
JS-M-24M24S2,788,experiment,59,→,right,→,0.36699659982696176,True,44,0
JS-M-24M24S2,789,experiment,94,↑,down,↓,0.011009799782186747,False,44,0
JS-M-24M24S2,790,experiment,52,→,right,→,0.9254743999335915,True,44,0
JS-M-24M24S2,791,experiment,105,↓,right,→,0.23513330006971955,False,44,1
JS-M-24M24S2,792,experiment,73,↓,right,→,0.24365630000829697,False,44,0
JS-M-24M24S2,793,experiment,65,→,up,↑,0.03525179997086525,False,44,0
JS-M-24M24S2,794,experiment,75,↓,down,↓,0.48429900011979043,True,44,0
JS-M-24M24S2,795,experiment,67,→,right,→,0.07660110015422106,True,44,1
JS-M-24M24S2,796,experiment,51,←,down,↓,0.11089950008317828,False,44,0
JS-M-24M24S2,797,training,84,↓,down,↓,0.34354720008559525,True,44,0
JS-M-24M24S2,798,training,48,←,left,←,0.08561099995858967,True,44,0
JS-M-24M24S2,799,experiment,70,↓,down,↓,0.11927099991589785,True,44,0
JS-M-24M24S2,800,experiment,53,←,right,→,0.01850029989145696,False,44,0
JS-M-24M24S2,801,experiment,51,→,right,→,0.02700390014797449,True,44,0
JS-M-24M24S2,802,experiment,89,→,up,↑,0.08559929998591542,False,44,0
JS-M-24M24S2,803,experiment,52,↓,down,↓,0.29331450001336634,True,44,0
JS-M-24M24S2,804,experiment,94,←,left,←,0.19369040010496974,True,44,0
JS-M-24M24S2,805,experiment,50,↓,left,←,0.06081230007112026,False,44,0
JS-M-24M24S2,806,experiment,79,↑,down,↓,0.0933105000294745,False,44,0
JS-M-24M24S2,807,experiment,48,↓,left,←,0.02644499996677041,False,44,0
JS-M-24M24S2,808,experiment,56,→,right,→,0.0691727998200804,True,44,0
JS-M-24M24S2,809,experiment,72,↓,left,←,0.10286089987494051,False,44,0
JS-M-24M24S2,810,experiment,98,←,left,←,0.1602153000421822,True,44,0
JS-M-24M24S2,811,experiment,86,↓,right,→,0.07906259992159903,False,44,0
JS-M-24M24S2,812,experiment,82,↑,up,↑,0.2933373998384923,True,44,0
JS-M-24M24S2,813,experiment,64,↑,down,↓,0.003464499954134226,False,44,0
JS-M-24M24S2,814,experiment,75,↓,down,↓,0.0034130001440644264,True,44,0
JS-M-24M24S2,815,experiment,92,↓,left,←,0.13616849994286895,False,44,0
JS-M-24M24S2,816,experiment,58,→,up,↑,0.14374259999021888,False,44,0
JS-M-24M24S2,817,experiment,101,←,right,→,0.13588799978606403,False,44,0
JS-M-24M24S2,818,experiment,63,←,down,↓,0.2938876999542117,False,44,0
JS-M-24M24S2,819,experiment,80,↓,up,↑,0.23447549995034933,False,44,0
JS-M-24M24S2,820,experiment,87,→,right,→,0.07766140019521117,True,44,0
JS-M-24M24S2,821,experiment,73,→,left,←,0.0037751998752355576,False,44,0
JS-M-24M24S2,822,experiment,66,↑,down,↓,0.5093168001621962,False,44,0
JS-M-24M24S2,823,experiment,55,↓,right,→,0.07689779996871948,False,44,0
JS-M-24M24S2,824,experiment,83,←,right,→,0.21063420013524592,False,44,0
JS-M-24M24S2,825,experiment,77,←,left,←,0.010304099880158901,True,44,0
JS-M-24M24S2,826,experiment,54,↑,right,→,0.010804200079292059,False,44,0
JS-M-24M24S2,827,experiment,71,↑,left,←,0.01153740007430315,False,44,0
JS-M-24M24S2,828,experiment,105,→,left,←,0.018303500022739172,False,44,0
JS-M-24M24S2,829,experiment,78,←,down,↓,0.29370680009014904,False,44,0
JS-M-24M24S2,830,experiment,93,→,down,↓,0.2435435000807047,False,44,0
JS-M-24M24S2,831,experiment,69,↓,down,↓,0.14429109985940158,True,44,0
JS-M-24M24S2,832,experiment,74,↓,up,↑,0.02048269985243678,False,44,0
JS-M-24M24S2,833,experiment,107,←,down,↓,0.2860934999771416,False,44,0
JS-M-24M24S2,834,experiment,67,↑,down,↓,0.1444124998524785,False,44,0
JS-M-24M24S2,835,experiment,108,←,up,↑,0.45069069997407496,False,44,0
JS-M-24M24S2,836,experiment,59,→,right,→,0.1108385999687016,True,44,0
JS-M-24M24S2,837,experiment,95,↓,down,↓,0.2867242998909205,True,44,0
JS-M-24M24S2,838,experiment,106,↓,up,↑,0.4174995000939816,False,44,0
JS-M-24M24S2,839,experiment,57,↑,left,←,0.3193055000156164,False,44,0
JS-M-24M24S2,840,experiment,81,←,right,→,0.12752339988946915,False,44,0
JS-M-24M24S2,841,experiment,97,↑,right,→,0.29423290002159774,False,44,0
JS-M-24M24S2,842,experiment,90,→,down,↓,0.053907199995592237,False,44,0
JS-M-24M24S2,843,experiment,102,↑,right,→,0.09422019985504448,False,44,0
JS-M-24M24S2,844,experiment,62,←,right,→,0.035801000194624066,False,44,0
JS-M-24M24S2,845,experiment,100,→,right,→,0.5095066998619586,True,44,0
JS-M-24M24S2,846,experiment,65,↑,down,↓,0.0034479000605642796,False,44,1
JS-M-24M24S2,847,experiment,91,↓,up,↑,0.19494830002076924,False,44,0
JS-M-24M24S2,848,experiment,96,↑,down,↓,0.0025867000222206116,False,44,0
JS-M-24M24S2,849,experiment,49,←,down,↓,0.060654900036752224,False,44,0
JS-M-24M24S2,850,experiment,84,←,down,↓,0.1857030000537634,False,44,0
JS-M-24M24S2,851,experiment,103,→,up,↑,0.0933249001391232,False,44,0
JS-M-24M24S2,852,experiment,99,↓,left,←,0.07794529991224408,False,44,0
JS-M-24M24S2,853,experiment,60,↑,up,↑,0.06825329991988838,True,44,0
JS-M-24M24S2,854,experiment,76,←,up,↑,0.026084300130605698,False,44,0
JS-M-24M24S2,855,experiment,68,↑,down,↓,0.07764859986491501,False,44,0
JS-M-24M24S2,856,experiment,104,↑,up,↑,0.18586959992535412,True,44,0
JS-M-24M24S2,857,experiment,88,↑,down,↓,0.02695630001835525,False,44,0
JS-M-24M24S2,858,experiment,61,↓,down,↓,0.05271669989451766,True,44,0
JS-M-24M24S2,859,experiment,85,↑,up,↑,0.06922010006383061,True,44,0
JS-M-24M24S2,860,training,62,↑,down,↓,0.14362909994088113,False,44,0
JS-M-24M24S2,861,training,61,↑,right,→,0.12112740008160472,False,44,0
JS-M-24M24S2,862,experiment,90,→,right,→,0.285850299987942,True,44,0
JS-M-24M24S2,863,experiment,91,←,down,↓,0.4171518001239747,False,44,0
JS-M-24M24S2,864,experiment,94,↓,right,→,0.19420469994656742,False,44,0
JS-M-24M24S2,865,experiment,106,↑,down,↓,0.18594909994862974,False,44,0
JS-M-24M24S2,866,experiment,75,↓,down,↓,0.18676610011607409,True,44,0
JS-M-24M24S2,867,experiment,48,↓,down,↓,0.0434685000218451,True,44,0
JS-M-24M24S2,868,experiment,57,←,left,←,0.07678999984636903,True,44,0
JS-M-24M24S2,869,experiment,83,↑,down,↓,0.28482430009171367,False,44,0
JS-M-24M24S2,870,experiment,53,↑,down,↓,0.05991489998996258,False,44,0
JS-M-24M24S2,871,experiment,62,←,down,↓,0.14348950004205108,False,44,0
JS-M-24M24S2,872,experiment,67,↑,right,→,0.3186403000727296,False,44,0
JS-M-24M24S2,873,experiment,92,↑,left,←,0.15171339991502464,False,44,0
JS-M-24M24S2,874,experiment,71,↓,up,↑,0.18461810005828738,False,44,0
JS-M-24M24S2,875,experiment,55,↑,down,↓,0.13526470004580915,False,44,0
JS-M-24M24S2,876,experiment,63,←,left,←,0.0619550000410527,True,44,0
JS-M-24M24S2,877,experiment,96,←,down,↓,0.08608659985475242,False,44,0
JS-M-24M24S2,878,experiment,56,↑,up,↑,0.10998830012977123,True,44,0
JS-M-24M24S2,879,experiment,77,↓,up,↑,0.18588180001825094,False,44,0
JS-M-24M24S2,880,experiment,93,→,down,↓,0.044267799938097596,False,44,0
JS-M-24M24S2,881,experiment,54,←,up,↑,0.35237369989044964,False,44,0
JS-M-24M24S2,882,experiment,103,↑,down,↓,0.07760680001229048,False,44,0
JS-M-24M24S2,883,experiment,76,→,down,↓,0.17008180008269846,False,44,0
JS-M-24M24S2,884,experiment,87,→,left,←,0.2860699000302702,False,44,0
JS-M-24M24S2,885,experiment,102,→,left,←,0.13693469995632768,False,44,0
JS-M-24M24S2,886,experiment,73,↓,up,↑,0.4338330999016762,False,44,0
JS-M-24M24S2,887,experiment,108,←,up,↑,0.010962900007143617,False,44,0
JS-M-24M24S2,888,experiment,107,→,up,↑,0.003454699879512191,False,44,0
JS-M-24M24S2,889,experiment,66,→,right,→,0.1612652000039816,True,44,0
JS-M-24M24S2,890,experiment,105,↑,up,↑,0.003831899957731366,True,44,0
JS-M-24M24S2,891,experiment,100,↑,right,→,0.07006040005944669,False,44,0
JS-M-24M24S2,892,experiment,98,↓,down,↓,0.09299729997292161,True,44,0
JS-M-24M24S2,893,experiment,82,→,left,←,0.16906059999018908,False,44,0
JS-M-24M24S2,894,experiment,74,→,down,↓,0.27766530006192625,False,44,0
JS-M-24M24S2,895,experiment,88,↑,down,↓,0.08483710000291467,False,44,0
JS-M-24M24S2,896,experiment,69,↓,down,↓,0.13482529995962977,True,44,0
JS-M-24M24S2,897,experiment,95,←,down,↓,0.06039249990135431,False,44,0
JS-M-24M24S2,898,experiment,50,↑,down,↓,0.14464979991316795,False,44,0
JS-M-24M24S2,899,experiment,80,←,left,←,0.18595440010540187,True,44,0
JS-M-24M24S2,900,experiment,97,→,right,→,0.35863130004145205,True,44,0
JS-M-24M24S2,901,experiment,61,←,left,←,0.11949310009367764,True,44,0
JS-M-24M24S2,902,experiment,65,↑,right,→,0.30991099984385073,False,44,0
JS-M-24M24S2,903,experiment,72,↑,down,↓,0.028342599980533123,False,44,0
JS-M-24M24S2,904,experiment,68,↓,up,↑,0.3273763000033796,False,44,0
JS-M-24M24S2,905,experiment,58,↑,down,↓,0.2103550999891013,False,44,0
JS-M-24M24S2,906,experiment,89,→,left,←,0.1685566999949515,False,44,0
JS-M-24M24S2,907,experiment,86,←,down,↓,0.018492900067940354,False,44,0
JS-M-24M24S2,908,experiment,70,→,right,→,0.38476130017079413,True,44,0
JS-M-24M24S2,909,experiment,104,→,left,←,0.4920411999337375,False,44,0
JS-M-24M24S2,910,experiment,59,↓,down,↓,0.6134889998938888,True,44,0
JS-M-24M24S2,911,experiment,60,↓,down,↓,0.5527604999952018,True,44,1
JS-M-24M24S2,912,experiment,79,↓,left,←,0.4175848998129368,False,44,1
JS-M-24M24S2,913,experiment,101,↓,right,→,0.34333680011332035,False,44,0
JS-M-24M24S2,914,experiment,84,↑,down,↓,0.4753046000842005,False,44,0
JS-M-24M24S2,915,experiment,51,←,left,←,0.375294900033623,True,44,0
JS-M-24M24S2,916,experiment,81,↑,down,↓,0.10104819992557168,False,44,0
JS-M-24M24S2,917,experiment,64,→,right,→,0.02020190004259348,True,44,0
JS-M-24M24S2,918,experiment,99,←,down,↓,0.2602148000150919,False,44,0
JS-M-24M24S2,919,experiment,49,→,down,↓,0.17759549990296364,False,44,0
JS-M-24M24S2,920,experiment,78,←,right,→,0.426202500006184,False,44,0
JS-M-24M24S2,921,experiment,52,→,down,↓,0.04427150008268654,False,44,1
JS-M-24M24S2,922,experiment,85,→,down,↓,0.1442321001086384,False,44,0
JS-M-24M24S2,923,training,88,↑,down,↓,0.08523830003105104,False,44,0
JS-M-24M24S2,924,training,95,↑,right,→,0.16863749991171062,False,44,0
JS-M-24M24S2,925,experiment,48,←,left,←,0.06846660003066063,True,44,0
JS-M-24M24S2,926,experiment,59,←,right,→,0.0014903999399393797,False,44,0
JS-M-24M24S2,927,experiment,97,↓,up,↑,0.051647699903696775,False,44,0
JS-M-24M24S2,928,experiment,77,→,left,←,0.14391859993338585,False,44,0
JS-M-24M24S2,929,experiment,75,→,left,←,0.0519894000608474,False,44,0
JS-M-24M24S2,930,experiment,81,↓,down,↓,0.035045500146225095,True,44,0
JS-M-24M24S2,931,experiment,74,↑,right,→,0.10201360005885363,False,44,0
JS-M-24M24S2,932,experiment,65,←,up,↑,0.24378839996643364,False,44,0
JS-M-24M24S2,933,experiment,93,→,down,↓,0.10279529984109104,False,44,0
JS-M-24M24S2,934,experiment,52,→,up,↑,0.10239799995906651,False,44,0
JS-M-24M24S2,935,experiment,68,↑,down,↓,0.027796899899840355,False,44,0
JS-M-24M24S2,936,experiment,89,→,down,↓,0.11006169999018312,False,44,0
JS-M-24M24S2,937,experiment,70,↑,left,←,0.3445655000396073,False,44,0
JS-M-24M24S2,938,experiment,85,↑,down,↓,0.10348639986477792,False,44,0
JS-M-24M24S2,939,experiment,69,←,up,↑,0.06993769994005561,False,44,0
JS-M-24M24S2,940,experiment,53,→,up,↑,0.3443008998874575,False,44,0
JS-M-24M24S2,941,experiment,105,→,down,↓,0.1608901999425143,False,44,0
JS-M-24M24S2,942,experiment,95,↑,up,↑,0.6166831001173705,True,44,0
JS-M-24M24S2,943,experiment,92,←,left,←,0.1768233000766486,True,44,1
JS-M-24M24S2,944,experiment,61,↓,right,→,0.25966809992678463,False,44,0
JS-M-24M24S2,945,experiment,90,↓,down,↓,0.14330530003644526,True,44,0
JS-M-24M24S2,946,experiment,100,→,left,←,-0.00606539985165,False,44,0
JS-M-24M24S2,947,experiment,72,↓,up,↑,0.08604049985297024,False,44,0
JS-M-24M24S2,948,experiment,98,←,left,←,0.5942186000756919,True,44,0
JS-M-24M24S2,949,experiment,79,↓,down,↓,0.3109575998969376,True,44,1
JS-M-24M24S2,950,experiment,96,←,down,↓,0.11088420008309186,False,44,0
JS-M-24M24S2,951,experiment,87,←,right,→,0.20174369984306395,False,44,0
JS-M-24M24S2,952,experiment,67,←,right,→,0.043627999955788255,False,44,0
JS-M-24M24S2,953,experiment,84,↑,left,←,0.1352503001689911,False,44,0
JS-M-24M24S2,954,experiment,58,↑,left,←,0.03537510009482503,False,44,0
JS-M-24M24S2,955,experiment,73,←,left,←,0.028539200080558658,True,44,0
JS-M-24M24S2,956,experiment,64,→,down,↓,0.07694189995527267,False,44,0
JS-M-24M24S2,957,experiment,66,↓,down,↓,0.08650660002604127,True,44,0
JS-M-24M24S2,958,experiment,108,→,down,↓,0.15184129984118044,False,44,0
JS-M-24M24S2,959,experiment,91,→,left,←,0.41872680000960827,False,44,0
JS-M-24M24S2,960,experiment,106,↑,up,↑,0.26093240012414753,True,44,0
JS-M-24M24S2,961,experiment,50,←,down,↓,0.08534170011989772,False,44,0
JS-M-24M24S2,962,experiment,76,←,up,↑,0.010200600139796734,False,44,0
JS-M-24M24S2,963,experiment,94,↑,right,→,0.060441300040110946,False,44,0
JS-M-24M24S2,964,experiment,57,↑,left,←,0.002438700059428811,False,44,0
JS-M-24M24S2,965,experiment,51,←,down,↓,0.04345880006439984,False,44,0
JS-M-24M24S2,966,experiment,80,←,down,↓,0.04503199993632734,False,44,0
JS-M-24M24S2,967,experiment,55,→,down,↓,0.22812980017624795,False,44,0
JS-M-24M24S2,968,experiment,103,↓,left,←,0.12755950004793704,False,44,0
JS-M-24M24S2,969,experiment,82,↑,down,↓,0.3192764001432806,False,44,0
JS-M-24M24S2,970,experiment,83,→,up,↑,0.1284048999659717,False,44,0
JS-M-24M24S2,971,experiment,60,↑,down,↓,0.028614000184461474,False,44,0
JS-M-24M24S2,972,experiment,88,↓,up,↑,0.21086899982765317,False,44,0
JS-M-24M24S2,973,experiment,107,↑,down,↓,0.35175490006804466,False,44,0
JS-M-24M24S2,974,experiment,62,↓,down,↓,0.018504200037568808,True,44,0
JS-M-24M24S2,975,experiment,101,→,up,↑,0.1349233000073582,False,44,0
JS-M-24M24S2,976,experiment,63,↑,left,←,0.04293060000054538,False,44,0
JS-M-24M24S2,977,experiment,78,↓,left,←,0.14349170005880296,False,44,0
JS-M-24M24S2,978,experiment,54,←,left,←,0.04341789986938238,True,44,0
JS-M-24M24S2,979,experiment,56,↑,left,←,0.16078719985671341,False,44,0
JS-M-24M24S2,980,experiment,102,↑,right,→,0.2848973998334259,False,44,0
JS-M-24M24S2,981,experiment,49,↓,left,←,0.003393300110474229,False,44,0
JS-M-24M24S2,982,experiment,71,↑,up,↑,0.06827819999307394,True,44,0
JS-M-24M24S2,983,experiment,86,↑,down,↓,0.39196899998933077,False,44,0
JS-M-24M24S2,984,experiment,104,↑,up,↑,0.010155699914321303,True,44,0
JS-M-24M24S2,985,experiment,99,↓,left,←,0.07821849989704788,False,44,0
JS-M-24M24S2,986,training,57,→,left,←,0.04349460010416806,False,44,0
JS-M-24M24S2,987,training,78,↓,right,→,0.05247680004686117,False,44,0
JS-M-24M24S2,988,experiment,72,↓,right,→,0.009781199973076582,False,44,0
JS-M-24M24S2,989,experiment,64,↓,down,↓,0.027258000103756785,True,44,0
JS-M-24M24S2,990,experiment,50,←,right,→,0.2611588998697698,False,44,0
JS-M-24M24S2,991,experiment,92,↓,down,↓,0.4257811999414116,True,44,0
JS-M-24M24S2,992,experiment,83,↑,up,↑,0.17623630003072321,True,44,0
JS-M-24M24S2,993,experiment,76,↑,down,↓,0.004673499846830964,False,44,0
JS-M-24M24S2,994,experiment,69,↑,right,→,0.027567599900066853,False,44,0
JS-M-24M24S2,995,experiment,74,←,down,↓,0.1684489999897778,False,44,0
JS-M-24M24S2,996,experiment,58,→,down,↓,0.003412199905142188,False,44,0
JS-M-24M24S2,997,experiment,105,←,down,↓,0.16835099994204938,False,44,0
JS-M-24M24S2,998,experiment,56,↑,left,←,0.1107757999561727,False,44,0
JS-M-24M24S2,999,experiment,81,←,left,←,0.12844119989313185,True,44,0
JS-M-24M24S2,1000,experiment,78,→,up,↑,0.07756059989333153,False,44,0
JS-M-24M24S2,1001,experiment,97,↓,left,←,0.03565520001575351,False,44,0
JS-M-24M24S2,1002,experiment,85,→,down,↓,0.06014600000344217,False,44,0
JS-M-24M24S2,1003,experiment,87,↓,down,↓,0.0527455999981612,True,44,0
JS-M-24M24S2,1004,experiment,68,←,left,←,-0.0037535999435931444,True,44,0
JS-M-24M24S2,1005,experiment,57,↑,up,↑,0.12800240004435182,True,44,0
JS-M-24M24S2,1006,experiment,82,↑,down,↓,0.152845700038597,False,44,0
JS-M-24M24S2,1007,experiment,93,↑,down,↓,0.012063199887052178,False,44,0
JS-M-24M24S2,1008,experiment,49,↑,left,←,0.010180699871852994,False,44,0
JS-M-24M24S2,1009,experiment,102,↓,right,→,0.17656189994886518,False,44,0
JS-M-24M24S2,1010,experiment,51,↑,up,↑,0.1361590998712927,True,44,0
JS-M-24M24S2,1011,experiment,62,←,left,←,0.09420869988389313,True,44,0
JS-M-24M24S2,1012,experiment,90,↑,up,↑,0.22686230018734932,True,44,0
JS-M-24M24S2,1013,experiment,95,↓,down,↓,0.2186849000863731,True,44,0
JS-M-24M24S2,1014,experiment,53,↓,down,↓,0.5176254999823868,True,44,0
JS-M-24M24S2,1015,experiment,99,↓,down,↓,0.15256819990463555,True,44,0
JS-M-24M24S2,1016,experiment,104,↓,left,←,0.05258280015550554,False,44,0
JS-M-24M24S2,1017,experiment,106,↓,up,↑,0.05278939986601472,False,44,0
JS-M-24M24S2,1018,experiment,73,→,left,←,0.044334699865430593,False,44,0
JS-M-24M24S2,1019,experiment,86,↑,right,→,0.14426940004341304,False,44,0
JS-M-24M24S2,1020,experiment,63,↓,right,→,0.2359469998627901,False,44,0
JS-M-24M24S2,1021,experiment,60,→,down,↓,0.05204580002464354,False,44,0
JS-M-24M24S2,1022,experiment,91,↑,right,→,0.2942616001237184,False,44,0
JS-M-24M24S2,1023,experiment,89,→,up,↑,0.0851473999209702,False,44,0
JS-M-24M24S2,1024,experiment,65,↓,up,↑,0.1112587999086827,False,44,0
JS-M-24M24S2,1025,experiment,94,↓,up,↑,0.10201000003144145,False,44,0
JS-M-24M24S2,1026,experiment,100,↑,left,←,-0.00239539984613657,False,44,0
JS-M-24M24S2,1027,experiment,52,→,up,↑,0.18487470014952123,False,44,0
JS-M-24M24S2,1028,experiment,101,↓,down,↓,0.22726529999636114,True,44,0
JS-M-24M24S2,1029,experiment,88,→,down,↓,0.034693599911406636,False,44,0
JS-M-24M24S2,1030,experiment,98,→,down,↓,0.35284999990835786,False,44,0
JS-M-24M24S2,1031,experiment,55,↑,down,↓,0.15961410012096167,False,44,0
JS-M-24M24S2,1032,experiment,77,←,up,↑,0.17775220004841685,False,44,0
JS-M-24M24S2,1033,experiment,48,→,right,→,0.5176194000523537,True,44,0
JS-M-24M24S2,1034,experiment,70,↓,up,↑,0.2941966999787837,False,44,1
JS-M-24M24S2,1035,experiment,67,↑,down,↓,0.2443948001600802,False,44,0
JS-M-24M24S2,1036,experiment,59,←,up,↑,0.1691874999087304,False,44,0
JS-M-24M24S2,1037,experiment,61,↑,right,→,0.09347749990411103,False,44,0
JS-M-24M24S2,1038,experiment,54,→,left,←,0.018185799941420555,False,44,0
JS-M-24M24S2,1039,experiment,108,↓,left,←,0.009891000110656023,False,44,0
JS-M-24M24S2,1040,experiment,71,↑,left,←,0.11820279993116856,False,44,0
JS-M-24M24S2,1041,experiment,75,↓,up,↑,0.07817839994095266,False,44,0
JS-M-24M24S2,1042,experiment,96,→,up,↑,0.026897799922153354,False,44,0
JS-M-24M24S2,1043,experiment,66,→,left,←,0.0030078000854700804,False,44,0
JS-M-24M24S2,1044,experiment,79,↑,up,↑,0.0014884001575410366,True,44,0
JS-M-24M24S2,1045,experiment,107,←,down,↓,0.16838930011726916,False,44,0
JS-M-24M24S2,1046,experiment,80,↓,down,↓,0.05275280005298555,True,44,0
JS-M-24M24S2,1047,experiment,84,←,right,→,0.03542990004643798,False,44,0
JS-M-24M24S2,1048,experiment,103,↓,left,←,0.003548000007867813,False,44,0
JS-M-24M24S2,1049,training,87,↓,left,←,0.03533840016461909,False,44,0
JS-M-24M24S2,1050,training,50,←,down,↓,0.2107216001022607,False,44,0
JS-M-24M24S2,1051,experiment,103,←,down,↓,0.12728359992615879,False,44,0
JS-M-24M24S2,1052,experiment,76,↑,down,↓,0.39245749986730516,False,44,0
JS-M-24M24S2,1053,experiment,80,↑,left,←,0.06167030008509755,False,44,0
JS-M-24M24S2,1054,experiment,106,→,up,↑,0.04349389998242259,False,44,0
JS-M-24M24S2,1055,experiment,65,↑,left,←,0.11003500013612211,False,44,0
JS-M-24M24S2,1056,experiment,75,↓,down,↓,0.03491100016981363,True,44,0
JS-M-24M24S2,1057,experiment,82,→,down,↓,0.07652479992248118,False,44,0
JS-M-24M24S2,1058,experiment,49,→,down,↓,0.2516817001160234,False,44,0
JS-M-24M24S2,1059,experiment,50,↓,down,↓,0.017981499899178743,True,44,0
JS-M-24M24S2,1060,experiment,66,↓,down,↓,0.128462600056082,True,44,0
JS-M-24M24S2,1061,experiment,83,→,left,←,0.010413700016215444,False,44,0
JS-M-24M24S2,1062,experiment,69,↓,down,↓,0.11851090006530285,True,44,0
JS-M-24M24S2,1063,experiment,73,→,left,←,0.11828910000622272,False,44,0
JS-M-24M24S2,1064,experiment,92,←,down,↓,0.1855208999477327,False,44,0
JS-M-24M24S2,1065,experiment,67,→,up,↑,0.610482000047341,False,44,0
JS-M-24M24S2,1066,experiment,98,↓,up,↑,0.110900399973616,False,44,1
JS-M-24M24S2,1067,experiment,79,↓,right,→,0.21078409999608994,False,44,0
JS-M-24M24S2,1068,experiment,100,←,down,↓,0.018542399862781167,False,44,0
JS-M-24M24S2,1069,experiment,55,→,right,→,0.400651799980551,True,44,0
JS-M-24M24S2,1070,experiment,53,←,up,↑,0.08533999999053776,False,44,1
JS-M-24M24S2,1071,experiment,60,↓,down,↓,0.0034954999573528767,True,44,0
JS-M-24M24S2,1072,experiment,89,↓,up,↑,0.09419539989903569,False,44,0
JS-M-24M24S2,1073,experiment,88,→,down,↓,0.05274250009097159,False,44,0
JS-M-24M24S2,1074,experiment,74,↓,down,↓,0.018154200166463852,True,44,0
JS-M-24M24S2,1075,experiment,78,↓,left,←,0.21861089998856187,False,44,0
JS-M-24M24S2,1076,experiment,54,↓,left,←,0.0788183999247849,False,44,0
JS-M-24M24S2,1077,experiment,104,→,right,→,0.14411109988577664,True,44,0
JS-M-24M24S2,1078,experiment,86,↑,left,←,0.03462100005708635,False,44,0
JS-M-24M24S2,1079,experiment,84,↑,down,↓,0.08561220020055771,False,44,0
JS-M-24M24S2,1080,experiment,81,←,right,→,0.10200880002230406,False,44,0
JS-M-24M24S2,1081,experiment,48,→,left,←,0.4433130999095738,False,44,0
JS-M-24M24S2,1082,experiment,63,→,down,↓,0.19354200013913214,False,44,0
JS-M-24M24S2,1083,experiment,56,→,right,→,0.1275183001998812,True,44,0
JS-M-24M24S2,1084,experiment,90,↓,left,←,0.1779580998700112,False,44,0
JS-M-24M24S2,1085,experiment,108,↑,up,↑,0.18501959997229278,True,44,0
JS-M-24M24S2,1086,experiment,52,←,down,↓,0.15265389997512102,False,44,0
JS-M-24M24S2,1087,experiment,96,→,left,←,0.10168890003114939,False,44,0
JS-M-24M24S2,1088,experiment,71,↓,down,↓,0.20246699987910688,True,44,0
JS-M-24M24S2,1089,experiment,97,↑,up,↑,0.0775987000670284,True,44,0
JS-M-24M24S2,1090,experiment,59,→,left,←,0.04373409994877875,False,44,0
JS-M-24M24S2,1091,experiment,95,↓,down,↓,0.500529000069946,True,44,0
JS-M-24M24S2,1092,experiment,62,→,up,↑,0.011091100051999092,False,44,0
JS-M-24M24S2,1093,experiment,77,→,down,↓,0.3581029998604208,False,44,0
JS-M-24M24S2,1094,experiment,101,↑,right,→,0.1269459999166429,False,44,0
JS-M-24M24S2,1095,experiment,91,→,down,↓,0.06915110000409186,False,44,0
JS-M-24M24S2,1096,experiment,57,→,left,←,0.0938201998360455,False,44,0
JS-M-24M24S2,1097,experiment,85,←,right,→,0.252145400037989,False,44,0
JS-M-24M24S2,1098,experiment,107,←,right,→,0.026749399956315756,False,44,0
JS-M-24M24S2,1099,experiment,105,→,up,↑,0.10270439996384084,False,44,0
JS-M-24M24S2,1100,experiment,64,→,right,→,0.1275502999778837,True,44,0
JS-M-24M24S2,1101,experiment,58,←,down,↓,0.04367209994234145,False,44,0
JS-M-24M24S2,1102,experiment,99,←,down,↓,0.11093680001795292,False,44,0
JS-M-24M24S2,1103,experiment,51,↑,down,↓,0.08484659995883703,False,44,0
JS-M-24M24S2,1104,experiment,93,→,up,↑,0.027951400028541684,False,44,0
JS-M-24M24S2,1105,experiment,70,↑,left,←,0.061782100005075336,False,44,0
JS-M-24M24S2,1106,experiment,61,↑,left,←,0.07860970008186996,False,44,0
JS-M-24M24S2,1107,experiment,72,←,left,←,0.10336020006798208,True,44,0
JS-M-24M24S2,1108,experiment,102,←,down,↓,0.2025100002065301,False,44,0
JS-M-24M24S2,1109,experiment,68,↑,right,→,0.0692686999682337,False,44,0
JS-M-24M24S2,1110,experiment,94,↓,down,↓,0.13569300016388297,True,44,0
JS-M-24M24S2,1111,experiment,87,←,left,←,0.16924919979646802,True,44,0
JS-M-24M24S2,1112,training,71,→,right,→,0.11811360018327832,True,44,0
JS-M-24M24S2,1113,training,101,→,down,↓,0.07667379989288747,False,44,0
JS-M-24M24S2,1114,experiment,105,↑,up,↑,0.11021360009908676,True,44,0
JS-M-24M24S2,1115,experiment,57,↓,down,↓,0.11021450022235513,True,44,0
JS-M-24M24S2,1116,experiment,55,↓,down,↓,0.45161649980582297,True,44,0
JS-M-24M24S2,1117,experiment,63,↑,down,↓,0.35262329992838204,False,44,1
JS-M-24M24S2,1118,experiment,81,↑,down,↓,0.20166659983806312,False,44,0
JS-M-24M24S2,1119,experiment,87,←,up,↑,0.10251419991254807,False,44,0
JS-M-24M24S2,1120,experiment,74,←,right,→,0.028545100009068847,False,44,0
JS-M-24M24S2,1121,experiment,102,↑,up,↑,0.00984789989888668,True,44,0
JS-M-24M24S2,1122,experiment,91,←,right,→,0.035861099837347865,False,44,0
JS-M-24M24S2,1123,experiment,48,↓,left,←,0.06909919995814562,False,44,0
JS-M-24M24S2,1124,experiment,79,→,right,→,0.07665679999627173,True,44,0
JS-M-24M24S2,1125,experiment,101,↓,down,↓,0.24250910012051463,True,44,0
JS-M-24M24S2,1126,experiment,66,↑,down,↓,0.2516674001235515,False,44,0
JS-M-24M24S2,1127,experiment,53,↑,up,↑,0.0683309999294579,True,44,0
JS-M-24M24S2,1128,experiment,94,↓,up,↑,0.01846239995211363,False,44,0
JS-M-24M24S2,1129,experiment,72,↑,down,↓,0.3109130999073386,False,44,0
JS-M-24M24S2,1130,experiment,54,↑,down,↓,0.09423390007577837,False,44,0
JS-M-24M24S2,1131,experiment,86,→,down,↓,0.11111870012246072,False,44,0
JS-M-24M24S2,1132,experiment,58,↑,down,↓,0.06094620004296303,False,44,0
JS-M-24M24S2,1133,experiment,68,↓,left,←,0.05204239999875426,False,44,0
JS-M-24M24S2,1134,experiment,108,→,left,←,0.02687459997832775,False,44,0
JS-M-24M24S2,1135,experiment,77,→,up,↑,0.0018929000943899155,False,44,0
JS-M-24M24S2,1136,experiment,80,→,down,↓,0.5096123998519033,False,44,0
JS-M-24M24S2,1137,experiment,73,→,left,←,0.0601259998511523,False,44,0
JS-M-24M24S2,1138,experiment,50,↓,up,↑,0.2601936999708414,False,44,0
JS-M-24M24S2,1139,experiment,93,↑,right,→,0.08502220013178885,False,44,0
JS-M-24M24S2,1140,experiment,61,↓,down,↓,0.07649379991926253,True,44,0
JS-M-24M24S2,1141,experiment,67,←,up,↑,0.12763410015031695,False,44,0
JS-M-24M24S2,1142,experiment,97,↓,down,↓,0.09433669992722571,True,44,0
JS-M-24M24S2,1143,experiment,95,←,up,↑,0.17700410005636513,False,44,0
JS-M-24M24S2,1144,experiment,103,↑,left,←,0.010839700000360608,False,44,0
JS-M-24M24S2,1145,experiment,89,←,up,↑,0.13617900013923645,False,44,0
JS-M-24M24S2,1146,experiment,85,↑,down,↓,0.22667540004476905,False,44,0
JS-M-24M24S2,1147,experiment,51,←,down,↓,0.026818300131708384,False,44,0
JS-M-24M24S2,1148,experiment,104,←,down,↓,0.40897829993627965,False,44,0
JS-M-24M24S2,1149,experiment,88,↑,down,↓,0.051592300180345774,False,44,0
JS-M-24M24S2,1150,experiment,70,↓,up,↑,0.16066829999908805,False,44,0
JS-M-24M24S2,1151,experiment,49,↓,down,↓,0.14355370006524026,True,44,0
JS-M-24M24S2,1152,experiment,71,←,up,↑,0.6983231999911368,False,44,0
JS-M-24M24S2,1153,experiment,99,↓,right,→,0.15135210007429123,False,44,1
JS-M-24M24S2,1154,experiment,100,→,up,↑,0.17753200000151992,False,44,0
JS-M-24M24S2,1155,experiment,96,↓,down,↓,0.19361680001020432,True,44,0
JS-M-24M24S2,1156,experiment,106,←,right,→,0.03602670016698539,False,44,0
JS-M-24M24S2,1157,experiment,78,←,up,↑,0.035208099987357855,False,44,0
JS-M-24M24S2,1158,experiment,83,←,down,↓,0.4595091000664979,False,44,0
JS-M-24M24S2,1159,experiment,59,→,down,↓,0.6260464999359101,False,44,0
JS-M-24M24S2,1160,experiment,60,↑,up,↑,0.09407490002922714,True,44,1
JS-M-24M24S2,1161,experiment,64,↓,right,→,0.10259769996628165,False,44,0
JS-M-24M24S2,1162,experiment,56,→,up,↑,0.1519547998905182,False,44,0
JS-M-24M24S2,1163,experiment,84,→,left,←,0.0694130000192672,False,44,0
JS-M-24M24S2,1164,experiment,62,←,up,↑,0.20175440004095435,False,44,0
JS-M-24M24S2,1165,experiment,75,↑,up,↑,0.2175964000634849,True,44,0
JS-M-24M24S2,1166,experiment,98,↑,down,↓,0.04382740007713437,False,44,0
JS-M-24M24S2,1167,experiment,107,↑,up,↑,0.2102841001469642,True,44,0
JS-M-24M24S2,1168,experiment,82,→,up,↑,0.2185568001586944,False,44,0
JS-M-24M24S2,1169,experiment,90,↓,left,←,0.036682300036773086,False,44,0
JS-M-24M24S2,1170,experiment,69,→,down,↓,0.2517587998881936,False,44,0
JS-M-24M24S2,1171,experiment,52,↓,down,↓,0.2608427000232041,True,44,0
JS-M-24M24S2,1172,experiment,76,→,down,↓,0.8482966998126358,False,44,0
JS-M-24M24S2,1173,experiment,92,↓,up,↑,0.011634499998763204,False,44,1
JS-M-24M24S2,1174,experiment,65,↓,left,←,0.043833900010213256,False,44,0
JS-M-24M24S2,1175,training,62,↓,down,↓,0.4774537000339478,True,44,0
JS-M-24M24S2,1176,training,59,→,left,←,0.051884999964386225,False,44,0
JS-M-24M24S2,1177,experiment,62,←,down,↓,-0.0062991001177579165,False,44,0
JS-M-24M24S2,1178,experiment,55,↓,up,↑,0.1350190001539886,False,44,0
JS-M-24M24S2,1179,experiment,64,↓,left,←,0.0849028998054564,False,44,0
JS-M-24M24S2,1180,experiment,87,→,left,←,0.24285119981504977,False,44,0
JS-M-24M24S2,1181,experiment,80,←,left,←,0.08522559981793165,True,44,0
JS-M-24M24S2,1182,experiment,73,↑,down,↓,0.08709729998372495,False,44,0
JS-M-24M24S2,1183,experiment,96,↓,down,↓,0.12703859992325306,True,44,0
JS-M-24M24S2,1184,experiment,66,↓,right,→,0.05173619999550283,False,44,0
JS-M-24M24S2,1185,experiment,56,↓,right,→,0.10286560002714396,False,44,0
JS-M-24M24S2,1186,experiment,101,←,right,→,0.16018929984420538,False,44,0
JS-M-24M24S2,1187,experiment,68,←,left,←,0.061334799975156784,True,44,0
JS-M-24M24S2,1188,experiment,53,←,down,↓,0.2609671999234706,False,44,0
JS-M-24M24S2,1189,experiment,57,↑,down,↓,0.19386889995075762,False,44,0
JS-M-24M24S2,1190,experiment,49,↓,left,←,0.30187340010888875,False,44,0
JS-M-24M24S2,1191,experiment,97,→,left,←,0.1601770999841392,False,44,0
JS-M-24M24S2,1192,experiment,98,↓,left,←,0.11933869984932244,False,44,0
JS-M-24M24S2,1193,experiment,50,↑,left,←,0.12783030001446605,False,44,0
JS-M-24M24S2,1194,experiment,102,↑,left,←,0.03609780012629926,False,44,0
JS-M-24M24S2,1195,experiment,75,↑,up,↑,0.13494760007597506,True,44,0
JS-M-24M24S2,1196,experiment,107,↓,down,↓,0.20281930011697114,True,44,0
JS-M-24M24S2,1197,experiment,61,←,right,→,0.05281840008683503,False,44,0
JS-M-24M24S2,1198,experiment,108,←,left,←,0.0701594001147896,True,44,0
JS-M-24M24S2,1199,experiment,100,↑,up,↑,0.226707800058648,True,44,0
JS-M-24M24S2,1200,experiment,104,↓,up,↑,0.3516408000141382,False,44,0
JS-M-24M24S2,1201,experiment,58,←,up,↑,0.019203099887818098,False,44,0
JS-M-24M24S2,1202,experiment,81,←,down,↓,0.1608245000243187,False,44,0
JS-M-24M24S2,1203,experiment,60,→,down,↓,0.1929943000432104,False,44,0
JS-M-24M24S2,1204,experiment,88,↑,left,←,0.11847280012443662,False,44,0
JS-M-24M24S2,1205,experiment,103,←,up,↑,0.20168900000862777,False,44,0
JS-M-24M24S2,1206,experiment,106,↓,up,↑,0.3192531999666244,False,44,0
JS-M-24M24S2,1207,experiment,76,↑,down,↓,0.31913749990053475,False,44,0
JS-M-24M24S2,1208,experiment,83,←,up,↑,0.0849335000384599,False,44,0
JS-M-24M24S2,1209,experiment,78,←,up,↑,0.044367700116708875,False,44,0
JS-M-24M24S2,1210,experiment,70,↓,right,→,0.003455099882557988,False,44,0
JS-M-24M24S2,1211,experiment,84,→,left,←,0.11850319989025593,False,44,0
JS-M-24M24S2,1212,experiment,93,←,left,←,0.018604999873787165,True,44,0
JS-M-24M24S2,1213,experiment,82,←,down,↓,0.6201380998827517,False,44,0
JS-M-24M24S2,1214,experiment,89,↓,down,↓,0.24330760003067553,True,44,1
JS-M-24M24S2,1215,experiment,51,↑,up,↑,0.018132199998944998,True,44,0
JS-M-24M24S2,1216,experiment,92,↑,left,←,0.14368489990010858,False,44,0
JS-M-24M24S2,1217,experiment,59,↑,up,↑,0.16012320015579462,True,44,0
JS-M-24M24S2,1218,experiment,63,→,left,←,0.1775553000625223,False,44,0
JS-M-24M24S2,1219,experiment,72,←,down,↓,0.14425950008444488,False,44,0
JS-M-24M24S2,1220,experiment,91,↑,left,←,0.04347200016491115,False,44,0
JS-M-24M24S2,1221,experiment,94,↑,down,↓,0.009713000152260065,False,44,0
JS-M-24M24S2,1222,experiment,48,↓,down,↓,0.04481180012226105,True,44,0
JS-M-24M24S2,1223,experiment,86,←,down,↓,0.027594099985435605,False,44,0
JS-M-24M24S2,1224,experiment,99,↑,right,→,0.07689160015434027,False,44,0
JS-M-24M24S2,1225,experiment,67,→,down,↓,0.20181989995762706,False,44,0
JS-M-24M24S2,1226,experiment,71,←,up,↑,0.06841009994968772,False,44,0
JS-M-24M24S2,1227,experiment,74,↓,down,↓,0.07670959993265569,True,44,0
JS-M-24M24S2,1228,experiment,105,→,right,→,0.2513239001855254,True,44,0
JS-M-24M24S2,1229,experiment,85,↓,right,→,0.260404699947685,False,44,0
JS-M-24M24S2,1230,experiment,69,→,up,↑,0.32766029983758926,False,44,0
JS-M-24M24S2,1231,experiment,90,←,right,→,0.26064889994449914,False,44,0
JS-M-24M24S2,1232,experiment,54,↑,right,→,0.18546380009502172,False,44,0
JS-M-24M24S2,1233,experiment,65,↓,up,↑,0.06921140011399984,False,44,0
JS-M-24M24S2,1234,experiment,52,↑,down,↓,0.0628069001249969,False,44,0
JS-M-24M24S2,1235,experiment,77,→,down,↓,0.21092800004407763,False,44,0
JS-M-24M24S2,1236,experiment,79,↑,left,←,0.043401099974289536,False,44,0
JS-M-24M24S2,1237,experiment,95,←,down,↓,0.05252730008214712,False,44,0
JS-M-24M24S2,1238,training,85,↑,left,←,0.3586981000844389,False,44,0
JS-M-24M24S2,1239,training,58,↓,up,↑,0.24424779997207224,False,44,0
JS-M-24M24S2,1240,experiment,89,←,right,→,0.0014828999992460012,False,44,0
JS-M-24M24S2,1241,experiment,107,←,right,→,0.09450079989619553,False,44,0
JS-M-24M24S2,1242,experiment,102,→,right,→,0.22065440006554127,True,44,0
JS-M-24M24S2,1243,experiment,57,→,down,↓,0.11074390006251633,False,44,0
JS-M-24M24S2,1244,experiment,90,↓,right,→,0.35219570016488433,False,44,0
JS-M-24M24S2,1245,experiment,50,↑,right,→,0.35891590011306107,False,44,0
JS-M-24M24S2,1246,experiment,104,↓,down,↓,0.10297089978121221,True,44,0
JS-M-24M24S2,1247,experiment,76,←,down,↓,0.37619190011173487,False,44,0
JS-M-24M24S2,1248,experiment,81,→,up,↑,0.1688037000130862,False,44,0
JS-M-24M24S2,1249,experiment,55,←,left,←,0.09378480003215373,True,44,0
JS-M-24M24S2,1250,experiment,60,↑,left,←,0.08596729999408126,False,44,0
JS-M-24M24S2,1251,experiment,56,→,right,→,0.25193329993635416,True,44,0
JS-M-24M24S2,1252,experiment,74,←,up,↑,0.051486500073224306,False,44,0
JS-M-24M24S2,1253,experiment,69,→,down,↓,0.06803139997646213,False,44,0
JS-M-24M24S2,1254,experiment,53,↑,down,↓,0.06861970014870167,False,44,0
JS-M-24M24S2,1255,experiment,72,→,right,→,0.21837930008769035,True,44,0
JS-M-24M24S2,1256,experiment,78,↓,down,↓,0.09373389999382198,True,44,0
JS-M-24M24S2,1257,experiment,67,↓,up,↑,0.28583450010046363,False,44,0
JS-M-24M24S2,1258,experiment,96,↑,up,↑,0.0943134999834001,True,44,0
JS-M-24M24S2,1259,experiment,73,↑,left,←,0.01855270005762577,False,44,0
JS-M-24M24S2,1260,experiment,91,↑,left,←,0.3919694998767227,False,44,0
JS-M-24M24S2,1261,experiment,101,↓,up,↑,0.8868743998464197,False,44,0
JS-M-24M24S2,1262,experiment,62,↑,up,↑,0.059772699838504195,True,44,1
JS-M-24M24S2,1263,experiment,58,←,left,←,0.32688629999756813,True,44,0
JS-M-24M24S2,1264,experiment,75,←,up,↑,0.18538359995000064,False,44,0
JS-M-24M24S2,1265,experiment,64,↑,left,←,0.09413679991848767,False,44,0
JS-M-24M24S2,1266,experiment,82,↑,up,↑,0.037064299918711185,True,44,0
JS-M-24M24S2,1267,experiment,77,→,down,↓,0.026472799945622683,False,44,0
JS-M-24M24S2,1268,experiment,71,←,right,→,0.01782550010830164,False,44,0
JS-M-24M24S2,1269,experiment,83,→,down,↓,0.20992620009928942,False,44,0
JS-M-24M24S2,1270,experiment,48,↓,right,→,0.252596199978143,False,44,0
JS-M-24M24S2,1271,experiment,66,↑,right,→,0.027316899970173836,False,44,0
JS-M-24M24S2,1272,experiment,63,→,up,↑,0.04429839993827045,False,44,0
JS-M-24M24S2,1273,experiment,108,→,right,→,0.12593579990789294,True,44,0
JS-M-24M24S2,1274,experiment,87,→,left,←,0.08488809992559254,False,44,0
JS-M-24M24S2,1275,experiment,105,↑,down,↓,0.21011419990099967,False,44,0
JS-M-24M24S2,1276,experiment,80,←,right,→,0.02857730002142489,False,44,0
JS-M-24M24S2,1277,experiment,86,↑,left,←,0.0871047000400722,False,44,0
JS-M-24M24S2,1278,experiment,54,→,right,→,0.4254168998450041,True,44,0
JS-M-24M24S2,1279,experiment,61,↑,up,↑,0.06953389989212155,True,44,0
JS-M-24M24S2,1280,experiment,94,↑,right,→,0.21926110005006194,False,44,0
JS-M-24M24S2,1281,experiment,59,←,right,→,0.019906000001356006,False,44,0
JS-M-24M24S2,1282,experiment,98,→,left,←,0.11018099985085428,False,44,0
JS-M-24M24S2,1283,experiment,93,→,up,↑,0.102134799817577,False,44,0
JS-M-24M24S2,1284,experiment,92,←,left,←,0.1435289999935776,True,44,0
JS-M-24M24S2,1285,experiment,100,←,right,→,0.2858613000717014,False,44,0
JS-M-24M24S2,1286,experiment,65,↓,left,←,0.34374479996040463,False,44,0
JS-M-24M24S2,1287,experiment,85,←,left,←,0.3526369999162853,True,44,0
JS-M-24M24S2,1288,experiment,70,↓,up,↑,0.10204840009100735,False,44,0
JS-M-24M24S2,1289,experiment,49,↑,left,←,0.11923289997503161,False,44,0
JS-M-24M24S2,1290,experiment,68,←,left,←,0.11853049998171628,True,44,0
JS-M-24M24S2,1291,experiment,99,→,right,→,0.0026503000408411026,True,44,0
JS-M-24M24S2,1292,experiment,103,↑,up,↑,0.06863860017620027,True,44,0
JS-M-24M24S2,1293,experiment,97,←,left,←,0.009621199918910861,True,44,0
JS-M-24M24S2,1294,experiment,95,↓,down,↓,0.051928999833762646,True,44,0
JS-M-24M24S2,1295,experiment,79,←,up,↑,0.2942653000354767,False,44,0
JS-M-24M24S2,1296,experiment,84,↑,right,→,0.10993599984794855,False,44,0
JS-M-24M24S2,1297,experiment,88,→,up,↑,0.11915739998221397,False,44,0
JS-M-24M24S2,1298,experiment,106,↑,left,←,0.03670680010691285,False,44,0
JS-M-24M24S2,1299,experiment,51,←,right,→,0.23455239995382726,False,44,0
JS-M-24M24S2,1300,experiment,52,→,up,↑,0.4347556000575423,False,44,0
JS-M-24M24S2,1301,training,97,←,up,↑,0.0853923000395298,False,44,0
JS-M-24M24S2,1302,training,97,→,down,↓,0.32704710005782545,False,44,0
JS-M-24M24S2,1303,experiment,99,↑,up,↑,0.22665550000965595,True,44,0
JS-M-24M24S2,1304,experiment,54,↓,down,↓,0.0204324999358505,True,44,0
JS-M-24M24S2,1305,experiment,101,←,up,↑,0.24354199995286763,False,44,0
JS-M-24M24S2,1306,experiment,107,↑,down,↓,0.0012411000207066536,False,44,0
JS-M-24M24S2,1307,experiment,102,→,right,→,0.0353602000977844,True,44,0
JS-M-24M24S2,1308,experiment,71,→,up,↑,0.09367950004525483,False,44,0
JS-M-24M24S2,1309,experiment,57,←,up,↑,0.26001320010982454,False,44,0
JS-M-24M24S2,1310,experiment,58,↓,down,↓,0.11838110000826418,True,44,0
JS-M-24M24S2,1311,experiment,63,↓,up,↑,0.018331400118768215,False,44,0
JS-M-24M24S2,1312,experiment,64,→,up,↑,0.06120800017379224,False,44,0
JS-M-24M24S2,1313,experiment,66,→,down,↓,0.01865309989079833,False,44,0
JS-M-24M24S2,1314,experiment,62,↑,right,→,0.4421796000096947,False,44,0
JS-M-24M24S2,1315,experiment,76,←,right,→,0.2610486000776291,False,44,0
JS-M-24M24S2,1316,experiment,74,↓,down,↓,0.650480599841103,True,44,0
JS-M-24M24S2,1317,experiment,100,↑,down,↓,0.0359763999003917,False,44,1
JS-M-24M24S2,1318,experiment,56,→,left,←,0.07649919996038079,False,44,0
JS-M-24M24S2,1319,experiment,87,↓,left,←,0.0020311002153903246,False,44,0
JS-M-24M24S2,1320,experiment,48,↓,up,↑,0.21866999985650182,False,44,0
JS-M-24M24S2,1321,experiment,95,↓,up,↑,0.04450399987399578,False,44,0
JS-M-24M24S2,1322,experiment,72,↑,down,↓,0.11001479998230934,False,44,0
JS-M-24M24S2,1323,experiment,59,←,down,↓,0.05256179999560118,False,44,0
JS-M-24M24S2,1324,experiment,104,→,right,→,0.1766739001031965,True,44,0
JS-M-24M24S2,1325,experiment,69,←,down,↓,0.036656999960541725,False,44,0
JS-M-24M24S2,1326,experiment,75,→,down,↓,0.11782380007207394,False,44,0
JS-M-24M24S2,1327,experiment,68,→,up,↑,0.0681937001645565,False,44,0
JS-M-24M24S2,1328,experiment,77,↑,up,↑,0.6286176999565214,True,44,0
JS-M-24M24S2,1329,experiment,106,↓,up,↑,0.1519877000246197,False,44,1
JS-M-24M24S2,1330,experiment,103,→,left,←,0.07658190000802279,False,44,0
JS-M-24M24S2,1331,experiment,70,←,right,→,0.001674099825322628,False,44,0
JS-M-24M24S2,1332,experiment,92,→,down,↓,0.0035246999468654394,False,44,0
JS-M-24M24S2,1333,experiment,52,↓,down,↓,0.3360458000097424,True,44,0
JS-M-24M24S2,1334,experiment,60,↑,down,↓,0.16014269995503128,False,44,0
JS-M-24M24S2,1335,experiment,93,←,up,↑,0.14354409999214113,False,44,0
JS-M-24M24S2,1336,experiment,49,↑,right,→,0.026943400036543608,False,44,0
JS-M-24M24S2,1337,experiment,51,↓,right,→,0.019461299991235137,False,44,0
JS-M-24M24S2,1338,experiment,89,←,left,←,0.10260009998455644,True,44,0
JS-M-24M24S2,1339,experiment,97,↑,right,→,0.19352840003557503,False,44,0
JS-M-24M24S2,1340,experiment,81,←,up,↑,0.2025204999372363,False,44,0
JS-M-24M24S2,1341,experiment,55,↑,left,←,0.3922967000398785,False,44,0
JS-M-24M24S2,1342,experiment,73,→,right,→,0.3589616999961436,True,44,0
JS-M-24M24S2,1343,experiment,84,↓,up,↑,0.177014600019902,False,44,0
JS-M-24M24S2,1344,experiment,53,↑,left,←,0.23648340022191405,False,44,0
JS-M-24M24S2,1345,experiment,85,↓,down,↓,0.4336581998504698,True,44,0
JS-M-24M24S2,1346,experiment,88,↓,up,↑,0.21113230008631945,False,44,0
JS-M-24M24S2,1347,experiment,80,↓,left,←,0.11894920002669096,False,44,0
JS-M-24M24S2,1348,experiment,83,→,up,↑,0.18541170004755259,False,44,0
JS-M-24M24S2,1349,experiment,86,↓,right,→,0.0869652999099344,False,44,0
JS-M-24M24S2,1350,experiment,94,↑,up,↑,0.37558590015396476,True,44,0
JS-M-24M24S2,1351,experiment,78,↓,left,←,0.2602317000273615,False,44,0
JS-M-24M24S2,1352,experiment,67,↓,down,↓,0.05954829999245703,True,44,0
JS-M-24M24S2,1353,experiment,98,↑,up,↑,0.01873030001297593,True,44,0
JS-M-24M24S2,1354,experiment,82,↓,down,↓,0.6145180000457913,True,44,0
JS-M-24M24S2,1355,experiment,105,↓,up,↑,0.06823530001565814,False,44,1
JS-M-24M24S2,1356,experiment,91,↓,up,↑,0.26851530000567436,False,44,0
JS-M-24M24S2,1357,experiment,79,←,left,←,0.06044339993968606,True,44,0
JS-M-24M24S2,1358,experiment,108,←,right,→,0.17776479991152883,False,44,0
JS-M-24M24S2,1359,experiment,61,↑,right,→,0.05277179996483028,False,44,0
JS-M-24M24S2,1360,experiment,90,↑,up,↑,0.12693679984658957,True,44,0
JS-M-24M24S2,1361,experiment,50,←,left,←,0.09331779996864498,True,44,0
JS-M-24M24S2,1362,experiment,96,→,down,↓,0.009900200180709362,False,44,0
JS-M-24M24S2,1363,experiment,65,↓,up,↑,0.21874789986759424,False,44,0
JS-M-24M24S2,1364,training,107,↓,left,←,0.03582459990866482,False,44,1
JS-M-24M24S2,1365,training,88,←,up,↑,0.0014813998714089394,False,44,0
JS-M-24M24S2,1366,experiment,69,↑,right,→,0.2444402000401169,False,44,0
JS-M-24M24S2,1367,experiment,65,↓,down,↓,0.0359292000066489,True,44,0
JS-M-24M24S2,1368,experiment,88,←,up,↑,0.019886899972334504,False,44,0
JS-M-24M24S2,1369,experiment,104,↑,up,↑,0.15250610001385212,True,44,0
JS-M-24M24S2,1370,experiment,72,→,down,↓,0.09514219989068806,False,44,0
JS-M-24M24S2,1371,experiment,68,→,right,→,0.06877120002172887,True,44,0
JS-M-24M24S2,1372,experiment,101,↑,down,↓,0.13583220005966723,False,44,0
JS-M-24M24S2,1373,experiment,49,↓,up,↑,0.49277830007486045,False,44,0
JS-M-24M24S2,1374,experiment,54,→,up,↑,0.3359263001475483,False,44,0
JS-M-24M24S2,1375,experiment,57,→,right,→,0.3683674999047071,True,44,0
JS-M-24M24S2,1376,experiment,56,↑,down,↓,0.11896909982897341,False,44,0
JS-M-24M24S2,1377,experiment,71,←,up,↑,0.23515990003943443,False,44,0
JS-M-24M24S2,1378,experiment,100,→,right,→,0.15160600002855062,True,44,0
JS-M-24M24S2,1379,experiment,83,→,up,↑,0.2952451000455767,False,44,0
JS-M-24M24S2,1380,experiment,66,↓,right,→,0.2599182000849396,False,44,0
JS-M-24M24S2,1381,experiment,73,→,up,↑,0.01926130009815097,False,44,0
JS-M-24M24S2,1382,experiment,50,↑,up,↑,0.011891899863258004,True,44,0
JS-M-24M24S2,1383,experiment,106,↓,left,←,0.13586860010400414,False,44,0
JS-M-24M24S2,1384,experiment,107,←,down,↓,0.026607600040733814,False,44,0
JS-M-24M24S2,1385,experiment,98,←,left,←,0.011817200109362602,True,44,0
JS-M-24M24S2,1386,experiment,87,↑,left,←,0.013614500174298882,False,44,0
JS-M-24M24S2,1387,experiment,93,↑,left,←,0.052865699864923954,False,44,0
JS-M-24M24S2,1388,experiment,78,→,left,←,0.13514519995078444,False,44,0
JS-M-24M24S2,1389,experiment,67,↓,up,↑,0.34373490000143647,False,44,0
JS-M-24M24S2,1390,experiment,103,↑,down,↓,0.22715789987705648,False,44,0
JS-M-24M24S2,1391,experiment,53,←,down,↓,0.24436079990118742,False,44,0
JS-M-24M24S2,1392,experiment,48,↓,down,↓,0.06914609996601939,True,44,0
JS-M-24M24S2,1393,experiment,94,→,left,←,0.07671459997072816,False,44,0
JS-M-24M24S2,1394,experiment,89,↓,up,↑,0.11156879994086921,False,44,0
JS-M-24M24S2,1395,experiment,96,→,right,→,0.08588499994948506,True,44,0
JS-M-24M24S2,1396,experiment,51,→,right,→,0.21084509999491274,True,44,0
JS-M-24M24S2,1397,experiment,105,←,up,↑,0.0273178000934422,False,44,0
JS-M-24M24S2,1398,experiment,79,→,down,↓,0.010105699999257922,False,44,0
JS-M-24M24S2,1399,experiment,55,→,down,↓,0.060418899869546294,False,44,0
JS-M-24M24S2,1400,experiment,63,↑,up,↑,0.21033870009705424,True,44,0
JS-M-24M24S2,1401,experiment,90,↓,down,↓,0.1350676000583917,True,44,0
JS-M-24M24S2,1402,experiment,64,↑,left,←,0.060841399943456054,False,44,0
JS-M-24M24S2,1403,experiment,81,↑,up,↑,0.10281810001470149,True,44,0
JS-M-24M24S2,1404,experiment,108,↑,down,↓,0.16782830003648996,False,44,0
JS-M-24M24S2,1405,experiment,91,↑,right,→,0.052067199954763055,False,44,0
JS-M-24M24S2,1406,experiment,62,↑,left,←,0.053348900051787496,False,44,0
JS-M-24M24S2,1407,experiment,85,→,up,↑,0.17788740014657378,False,44,0
JS-M-24M24S2,1408,experiment,59,→,left,←,0.16915059997700155,False,44,0
JS-M-24M24S2,1409,experiment,52,↓,down,↓,0.3522960999980569,True,44,0
JS-M-24M24S2,1410,experiment,77,↓,up,↑,0.1029057998675853,False,44,0
JS-M-24M24S2,1411,experiment,86,←,down,↓,0.0682643000036478,False,44,0
JS-M-24M24S2,1412,experiment,74,→,down,↓,0.15176429995335639,False,44,0
JS-M-24M24S2,1413,experiment,102,↓,down,↓,0.16089710011146963,True,44,0
JS-M-24M24S2,1414,experiment,61,↓,right,→,0.2525665999855846,False,44,0
JS-M-24M24S2,1415,experiment,76,↓,up,↑,0.06858629989437759,False,44,0
