PART_ID,Trial_no,Trial_type,CSI,Stim_letter,Key_pressed,letter_choose,Rt,Corr,Stimulus Time,nDropped
KM-K-22K22S2,1,training,120,→,right,→,0.5677566998638213,True,60,1
KM-K-22K22S2,2,training,120,↑,up,↑,0.49213889986276627,True,60,0
KM-K-22K22S2,3,training,120,→,right,→,0.6180294998921454,True,60,0
KM-K-22K22S2,4,training,120,←,left,←,0.5339236001018435,True,60,0
KM-K-22K22S2,5,training,120,←,left,←,0.3610867001116276,True,60,0
KM-K-22K22S2,6,training,120,←,left,←,0.8004878000356257,True,60,0
KM-K-22K22S2,7,training,120,→,right,→,0.559746399987489,True,60,0
KM-K-22K22S2,8,training,120,↑,up,↑,0.6342136999592185,True,60,0
KM-K-22K22S2,9,training,120,→,right,→,0.47731559979729354,True,60,0
KM-K-22K22S2,10,training,120,→,right,→,0.5422309001442045,True,60,0
KM-K-22K22S2,11,training,120,→,right,→,0.5679724998772144,True,60,0
KM-K-22K22S2,12,training,120,↓,down,↓,0.6259964001365006,True,60,0
KM-K-22K22S2,13,training,120,↓,down,↓,0.4526458000764251,True,60,0
KM-K-22K22S2,14,training,120,↑,up,↑,0.5923665000591427,True,60,0
KM-K-22K22S2,15,training,120,←,left,←,0.5425543999299407,True,60,0
KM-K-22K22S2,16,training,120,↓,down,↓,0.42641020007431507,True,60,0
KM-K-22K22S2,17,training,120,↑,up,↑,0.3845641000661999,True,60,0
KM-K-22K22S2,18,training,120,←,left,←,0.459879299858585,True,60,0
KM-K-22K22S2,19,training,120,←,left,←,0.42681360011920333,True,60,0
KM-K-22K22S2,20,training,120,←,left,←,0.6511216000653803,True,60,0
KM-K-22K22S2,21,no_adaptation,120,↓,down,↓,0.6477912999689579,True,36,0
KM-K-22K22S2,22,no_adaptation,120,→,right,→,0.5963028999976814,True,36,0
KM-K-22K22S2,23,no_adaptation,120,←,left,←,0.539551499998197,True,36,0
KM-K-22K22S2,24,no_adaptation,120,↓,down,↓,0.39128979993984103,True,36,0
KM-K-22K22S2,25,no_adaptation,120,→,right,→,0.4197229999117553,True,36,0
KM-K-22K22S2,26,no_adaptation,120,←,left,←,0.514125700108707,True,36,0
KM-K-22K22S2,27,no_adaptation,120,←,left,←,0.6846993998624384,True,36,0
KM-K-22K22S2,28,no_adaptation,120,←,left,←,0.6638984000310302,True,36,0
KM-K-22K22S2,29,no_adaptation,120,↓,down,↓,0.5968066998757422,True,36,0
KM-K-22K22S2,30,no_adaptation,120,↓,down,↓,0.4919988999608904,True,36,0
KM-K-22K22S2,31,no_adaptation,120,→,right,→,0.5110986998770386,True,36,0
KM-K-22K22S2,32,no_adaptation,120,←,left,←,0.4086246001534164,True,36,0
KM-K-22K22S2,33,no_adaptation,120,↑,up,↑,0.6404334001708776,True,36,0
KM-K-22K22S2,34,no_adaptation,120,↓,down,↓,0.45122420019470155,True,36,0
KM-K-22K22S2,35,no_adaptation,120,↑,up,↑,0.4512424999848008,True,36,0
KM-K-22K22S2,36,no_adaptation,120,→,right,→,0.49482590006664395,True,36,0
KM-K-22K22S2,37,no_adaptation,120,↓,down,↓,0.553994899848476,True,36,0
KM-K-22K22S2,38,no_adaptation,120,↓,down,↓,0.483154300134629,True,36,0
KM-K-22K22S2,39,no_adaptation,120,↓,down,↓,0.39261949993669987,True,36,0
KM-K-22K22S2,40,no_adaptation,120,←,left,←,0.6854059000033885,True,36,0
KM-K-22K22S2,41,training,50,←,left,←,0.4810443001333624,True,36,0
KM-K-22K22S2,42,training,102,←,left,←,0.6273609998170286,True,36,1
KM-K-22K22S2,43,experiment,107,↓,down,↓,0.5101304999552667,True,36,1
KM-K-22K22S2,44,experiment,98,↓,down,↓,0.5049122998025268,True,36,1
KM-K-22K22S2,45,experiment,102,↓,no_key,no_letter,-1.0,False,36,1
KM-K-22K22S2,46,experiment,85,→,right,→,0.7193295999895781,True,36,1
KM-K-22K22S2,47,experiment,90,↑,up,↑,0.6519401001278311,True,36,1
KM-K-22K22S2,48,experiment,101,↓,down,↓,0.39284470002166927,True,36,1
KM-K-22K22S2,49,experiment,84,↑,up,↑,0.4763596998527646,True,36,1
KM-K-22K22S2,50,experiment,67,↑,up,↑,0.44280049996450543,True,36,1
KM-K-22K22S2,51,experiment,63,→,right,→,0.5309695999603719,True,36,0
KM-K-22K22S2,52,experiment,52,→,right,→,0.35936230001971126,True,36,1
KM-K-22K22S2,53,experiment,94,↑,up,↑,0.41779859992675483,True,36,1
KM-K-22K22S2,54,experiment,81,→,right,→,0.3862173999659717,True,36,1
KM-K-22K22S2,55,experiment,59,↓,down,↓,0.5819143000990152,True,36,0
KM-K-22K22S2,56,experiment,92,←,left,←,0.4338906998746097,True,36,1
KM-K-22K22S2,57,experiment,82,↓,down,↓,0.5139810999389738,True,36,0
KM-K-22K22S2,58,experiment,69,↓,down,↓,0.5180161998141557,True,36,1
KM-K-22K22S2,59,experiment,61,→,right,→,0.3844720998313278,True,36,1
KM-K-22K22S2,60,experiment,105,←,left,←,0.482023699907586,True,36,1
KM-K-22K22S2,61,experiment,103,→,right,→,0.5237401998601854,True,36,1
KM-K-22K22S2,62,experiment,108,→,right,→,0.43595009995624423,True,36,1
KM-K-22K22S2,63,experiment,62,↑,down,↓,0.5397403000388294,False,36,0
KM-K-22K22S2,64,experiment,106,←,left,←,0.45147840003483,True,36,1
KM-K-22K22S2,65,experiment,75,←,left,←,0.4336580000817776,True,36,0
KM-K-22K22S2,66,experiment,100,←,left,←,0.6355244000442326,True,36,0
KM-K-22K22S2,67,experiment,86,→,right,→,0.5654341001063585,True,36,1
KM-K-22K22S2,68,experiment,71,→,right,→,0.4948148000985384,True,36,1
KM-K-22K22S2,69,experiment,76,→,no_key,no_letter,-1.0,False,36,1
KM-K-22K22S2,70,experiment,50,→,left,←,0.8816766000818461,False,36,1
KM-K-22K22S2,71,experiment,48,↑,no_key,no_letter,-1.0,False,36,1
KM-K-22K22S2,72,experiment,79,←,left,←,0.6445842001121491,True,36,1
KM-K-22K22S2,73,experiment,96,←,left,←,0.48295500013045967,True,36,1
KM-K-22K22S2,74,experiment,74,↓,down,↓,0.42602239991538227,True,36,1
KM-K-22K22S2,75,experiment,55,←,left,←,0.7065224000252783,True,36,0
KM-K-22K22S2,76,experiment,88,↓,down,↓,0.4505392999853939,True,36,1
KM-K-22K22S2,77,experiment,57,↑,up,↑,0.554681200068444,True,36,0
KM-K-22K22S2,78,experiment,72,↓,down,↓,0.5884524998255074,True,36,1
KM-K-22K22S2,79,experiment,89,→,right,→,0.5426214998587966,True,36,1
KM-K-22K22S2,80,experiment,66,↑,up,↑,0.6588470998685807,True,36,1
KM-K-22K22S2,81,experiment,104,↓,down,↓,0.5897550999652594,True,36,1
KM-K-22K22S2,82,experiment,99,↓,down,↓,0.40116889984346926,True,36,1
KM-K-22K22S2,83,experiment,53,←,left,←,0.44226919999346137,True,36,0
KM-K-22K22S2,84,experiment,64,↑,up,↑,0.4195316999685019,True,36,0
KM-K-22K22S2,85,experiment,56,↓,down,↓,0.4512908000033349,True,36,0
KM-K-22K22S2,86,experiment,65,→,right,→,0.5019412999972701,True,36,1
KM-K-22K22S2,87,experiment,51,↑,up,↑,0.5127569001633674,True,36,1
KM-K-22K22S2,88,experiment,83,↓,down,↓,0.4511479001957923,True,36,1
KM-K-22K22S2,89,experiment,95,→,right,→,0.5259062999393791,True,36,1
KM-K-22K22S2,90,experiment,91,←,left,←,0.6502527999691665,True,36,1
KM-K-22K22S2,91,experiment,58,←,left,←,0.7245885001029819,True,36,1
KM-K-22K22S2,92,experiment,80,↑,up,↑,0.39272879995405674,True,36,1
KM-K-22K22S2,93,experiment,73,→,right,→,0.48425230011343956,True,36,0
KM-K-22K22S2,94,experiment,60,↑,up,↑,0.36706990003585815,True,36,1
KM-K-22K22S2,95,experiment,97,←,left,←,0.48482550005428493,True,36,0
KM-K-22K22S2,96,experiment,78,↑,up,↑,0.49505680007860065,True,36,1
KM-K-22K22S2,97,experiment,49,→,right,→,0.39214679994620383,True,36,1
KM-K-22K22S2,98,experiment,93,←,left,←,0.5796215999871492,True,36,0
KM-K-22K22S2,99,experiment,54,↑,up,↑,0.4979829001240432,True,36,1
KM-K-22K22S2,100,experiment,68,→,right,→,0.5992303001694381,True,36,1
KM-K-22K22S2,101,experiment,77,←,left,←,0.4344785998109728,True,36,1
KM-K-22K22S2,102,experiment,70,↓,down,↓,0.6438121998216957,True,36,1
KM-K-22K22S2,103,experiment,87,↓,down,↓,0.5570525000803173,True,36,1
KM-K-22K22S2,104,training,63,↓,down,↓,0.4961506000254303,True,35,0
KM-K-22K22S2,105,training,54,↓,down,↓,0.48251730017364025,True,35,1
KM-K-22K22S2,106,experiment,92,↑,up,↑,0.5357359999325126,True,35,1
KM-K-22K22S2,107,experiment,100,←,left,←,0.5926719999406487,True,35,1
KM-K-22K22S2,108,experiment,108,←,left,←,0.5885858000256121,True,35,1
KM-K-22K22S2,109,experiment,91,↓,down,↓,0.4178003999404609,True,35,1
KM-K-22K22S2,110,experiment,66,←,left,←,0.3917803999502212,True,35,0
KM-K-22K22S2,111,experiment,49,↑,down,↓,0.5026088999584317,False,35,0
KM-K-22K22S2,112,experiment,101,←,left,←,0.5924908998422325,True,35,1
KM-K-22K22S2,113,experiment,96,←,left,←,0.4649237000849098,True,35,1
KM-K-22K22S2,114,experiment,62,←,left,←,0.4262909998651594,True,35,1
KM-K-22K22S2,115,experiment,86,↑,up,↑,0.5066286998335272,True,35,1
KM-K-22K22S2,116,experiment,93,↑,up,↑,0.51123489998281,True,35,1
KM-K-22K22S2,117,experiment,55,↓,down,↓,0.5843062000349164,True,35,1
KM-K-22K22S2,118,experiment,76,↑,up,↑,0.4180355998687446,True,35,1
KM-K-22K22S2,119,experiment,102,↓,no_key,no_letter,-1.0,False,35,1
KM-K-22K22S2,120,experiment,104,→,no_key,no_letter,-1.0,False,35,1
KM-K-22K22S2,121,experiment,75,←,left,←,0.6427468999754637,True,35,1
KM-K-22K22S2,122,experiment,103,↓,down,↓,0.5663627998437732,True,35,1
KM-K-22K22S2,123,experiment,56,↓,down,↓,0.5410700999200344,True,35,1
KM-K-22K22S2,124,experiment,78,↓,down,↓,0.556859300006181,True,35,1
KM-K-22K22S2,125,experiment,59,↓,down,↓,0.4170466000214219,True,35,1
KM-K-22K22S2,126,experiment,77,↓,down,↓,0.5277823000214994,True,35,0
KM-K-22K22S2,127,experiment,84,↑,up,↑,0.6144852000288665,True,35,1
KM-K-22K22S2,128,experiment,98,←,left,←,0.676832800032571,True,35,1
KM-K-22K22S2,129,experiment,85,↓,down,↓,0.43444369989447296,True,35,1
KM-K-22K22S2,130,experiment,71,↓,down,↓,0.40864109992980957,True,35,0
KM-K-22K22S2,131,experiment,107,↑,up,↑,0.6309243000578135,True,35,0
KM-K-22K22S2,132,experiment,72,→,right,→,0.39222879987210035,True,35,1
KM-K-22K22S2,133,experiment,81,←,no_key,no_letter,-1.0,False,35,0
KM-K-22K22S2,134,experiment,80,←,left,←,0.6085833001416177,True,35,1
KM-K-22K22S2,135,experiment,52,↓,down,↓,0.4342833000700921,True,35,1
KM-K-22K22S2,136,experiment,97,→,right,→,0.4338207000400871,True,35,1
KM-K-22K22S2,137,experiment,60,↑,up,↑,0.5346105999778956,True,35,0
KM-K-22K22S2,138,experiment,79,↑,up,↑,0.5266071001533419,True,35,1
KM-K-22K22S2,139,experiment,68,→,right,→,0.5867677999194711,True,35,1
KM-K-22K22S2,140,experiment,65,→,right,→,0.4688470000401139,True,35,1
KM-K-22K22S2,141,experiment,99,→,right,→,0.6011191001161933,True,35,0
KM-K-22K22S2,142,experiment,50,↓,down,↓,0.47247450007125735,True,35,1
KM-K-22K22S2,143,experiment,67,←,left,←,0.47856899979524314,True,35,1
KM-K-22K22S2,144,experiment,61,←,left,←,0.3838699997868389,True,35,1
KM-K-22K22S2,145,experiment,94,↑,up,↑,0.5598395999986678,True,35,0
KM-K-22K22S2,146,experiment,73,→,right,→,0.4417645998764783,True,35,1
KM-K-22K22S2,147,experiment,106,↓,down,↓,0.43616620008833706,True,35,0
KM-K-22K22S2,148,experiment,70,→,right,→,0.46658689994364977,True,35,0
KM-K-22K22S2,149,experiment,63,↑,up,↑,0.39460380002856255,True,35,1
KM-K-22K22S2,150,experiment,89,↓,no_key,no_letter,-1.0,False,35,0
KM-K-22K22S2,151,experiment,53,←,left,←,0.5468556999694556,True,35,1
KM-K-22K22S2,152,experiment,82,→,right,→,0.5613239998929203,True,35,1
KM-K-22K22S2,153,experiment,88,→,right,→,0.5011307999957353,True,35,1
KM-K-22K22S2,154,experiment,51,→,right,→,0.3683844998013228,True,35,1
KM-K-22K22S2,155,experiment,83,↑,up,↑,0.3930820000823587,True,35,0
KM-K-22K22S2,156,experiment,95,↓,down,↓,0.5728595999535173,True,35,0
KM-K-22K22S2,157,experiment,58,→,right,→,0.37608159985393286,True,35,1
KM-K-22K22S2,158,experiment,74,↓,no_key,no_letter,-1.0,False,35,0
KM-K-22K22S2,159,experiment,69,↑,up,↑,0.4006544000003487,True,35,1
KM-K-22K22S2,160,experiment,48,↓,down,↓,0.5957517998758703,True,35,0
KM-K-22K22S2,161,experiment,64,↑,up,↑,0.3589119999669492,True,35,1
KM-K-22K22S2,162,experiment,57,←,left,←,0.6362970999907702,True,35,0
KM-K-22K22S2,163,experiment,90,→,right,→,0.3508526999503374,True,35,1
KM-K-22K22S2,164,experiment,105,→,right,→,0.6111343000084162,True,35,0
KM-K-22K22S2,165,experiment,54,←,down,↓,0.7047947000246495,False,35,1
KM-K-22K22S2,166,experiment,87,↓,down,↓,0.4713510998990387,True,35,1
KM-K-22K22S2,167,training,67,→,right,→,0.5303098000586033,True,35,0
KM-K-22K22S2,168,training,71,↑,up,↑,0.5567983998917043,True,35,1
KM-K-22K22S2,169,experiment,98,↓,down,↓,0.5816047999542207,True,35,1
KM-K-22K22S2,170,experiment,106,↑,up,↑,0.3761712999548763,True,35,1
KM-K-22K22S2,171,experiment,93,→,right,→,0.41706230002455413,True,35,0
KM-K-22K22S2,172,experiment,51,↓,down,↓,0.513818500097841,True,35,0
KM-K-22K22S2,173,experiment,103,↑,up,↑,0.35130929993465543,True,35,1
KM-K-22K22S2,174,experiment,91,↑,up,↑,0.35863290005363524,True,35,0
KM-K-22K22S2,175,experiment,68,↓,down,↓,1.7918938000220805,True,35,0
KM-K-22K22S2,176,experiment,63,←,left,←,0.6190025999676436,True,35,1
KM-K-22K22S2,177,experiment,65,↓,down,↓,0.4338219000492245,True,35,1
KM-K-22K22S2,178,experiment,72,←,left,←,0.6503727999515831,True,35,0
KM-K-22K22S2,179,experiment,60,←,left,←,0.6361239000689238,True,35,1
KM-K-22K22S2,180,experiment,107,↓,down,↓,0.44287819997407496,True,35,1
KM-K-22K22S2,181,experiment,53,←,left,←,0.6507620001211762,True,35,0
KM-K-22K22S2,182,experiment,69,→,right,→,0.5137291001155972,True,35,1
KM-K-22K22S2,183,experiment,76,→,right,→,0.5074432000983506,True,35,1
KM-K-22K22S2,184,experiment,83,→,right,→,0.4833805998787284,True,35,1
KM-K-22K22S2,185,experiment,48,←,left,←,0.3930523998569697,True,35,1
KM-K-22K22S2,186,experiment,96,↑,up,↑,0.4005450000986457,True,35,1
KM-K-22K22S2,187,experiment,67,←,left,←,0.5123108001425862,True,35,0
KM-K-22K22S2,188,experiment,100,←,left,←,0.4357843999750912,True,35,1
KM-K-22K22S2,189,experiment,59,→,right,→,0.5720643999520689,True,35,1
KM-K-22K22S2,190,experiment,95,→,right,→,0.4346185999456793,True,35,1
KM-K-22K22S2,191,experiment,89,↓,down,↓,0.6137323998846114,True,35,1
KM-K-22K22S2,192,experiment,97,→,right,→,0.5562054999172688,True,35,1
KM-K-22K22S2,193,experiment,104,↓,down,↓,0.5709849998820573,True,35,1
KM-K-22K22S2,194,experiment,108,↑,up,↑,0.6077015998307616,True,35,1
KM-K-22K22S2,195,experiment,80,↓,down,↓,0.5884650000371039,True,35,1
KM-K-22K22S2,196,experiment,50,↓,down,↓,0.5080230999737978,True,35,1
KM-K-22K22S2,197,experiment,75,←,left,←,0.6382492000702769,True,35,1
KM-K-22K22S2,198,experiment,57,←,left,←,0.4262643998954445,True,35,1
KM-K-22K22S2,199,experiment,62,←,left,←,0.6109962998889387,True,35,0
KM-K-22K22S2,200,experiment,70,↑,up,↑,0.586841199779883,True,35,1
KM-K-22K22S2,201,experiment,84,↓,down,↓,0.4343376997858286,True,35,1
KM-K-22K22S2,202,experiment,71,←,left,←,0.4096586999949068,True,35,1
KM-K-22K22S2,203,experiment,105,→,no_key,no_letter,-1.0,False,35,1
KM-K-22K22S2,204,experiment,90,↑,up,↑,0.6047690000850707,True,35,1
KM-K-22K22S2,205,experiment,85,→,right,→,0.46449290006421506,True,35,1
KM-K-22K22S2,206,experiment,58,←,left,←,0.38431459991261363,True,35,1
KM-K-22K22S2,207,experiment,61,→,right,→,0.5655684000812471,True,35,1
KM-K-22K22S2,208,experiment,94,↑,up,↑,0.4952134999912232,True,35,1
KM-K-22K22S2,209,experiment,56,←,left,←,0.6087239000480622,True,35,1
KM-K-22K22S2,210,experiment,55,→,right,→,0.4695868000853807,True,35,1
KM-K-22K22S2,211,experiment,87,←,left,←,0.38384560006670654,True,35,1
KM-K-22K22S2,212,experiment,102,↓,no_key,no_letter,-1.0,False,35,0
KM-K-22K22S2,213,experiment,86,↑,up,↑,0.4089487998280674,True,35,1
KM-K-22K22S2,214,experiment,101,↑,up,↑,0.5014431001618505,True,35,0
KM-K-22K22S2,215,experiment,81,↓,down,↓,0.6302239000797272,True,35,1
KM-K-22K22S2,216,experiment,79,←,left,←,0.41656040004454553,True,35,1
KM-K-22K22S2,217,experiment,73,↑,no_key,no_letter,-1.0,False,35,0
KM-K-22K22S2,218,experiment,52,←,left,←,0.5765383001416922,True,35,1
KM-K-22K22S2,219,experiment,77,→,right,→,0.4955643001012504,True,35,1
KM-K-22K22S2,220,experiment,88,↑,up,↑,0.33487200015224516,True,35,1
KM-K-22K22S2,221,experiment,82,→,right,→,0.5643190001137555,True,35,0
KM-K-22K22S2,222,experiment,49,↑,up,↑,0.43429369991645217,True,35,1
KM-K-22K22S2,223,experiment,92,↓,down,↓,0.5008379998616874,True,35,0
KM-K-22K22S2,224,experiment,74,→,right,→,0.6317549000959843,True,35,1
KM-K-22K22S2,225,experiment,54,←,left,←,0.44278059992939234,True,35,1
KM-K-22K22S2,226,experiment,78,↓,no_key,no_letter,-1.0,False,35,0
KM-K-22K22S2,227,experiment,66,↓,down,↓,0.40929649979807436,True,35,1
KM-K-22K22S2,228,experiment,99,↑,up,↑,0.37782689998857677,True,35,1
KM-K-22K22S2,229,experiment,64,→,right,→,0.5638162998948246,True,35,0
KM-K-22K22S2,230,training,99,←,left,←,0.579896500101313,True,34,0
KM-K-22K22S2,231,training,51,→,no_key,no_letter,-1.0,False,34,1
KM-K-22K22S2,232,experiment,54,←,left,←,0.5790894001256675,True,34,1
KM-K-22K22S2,233,experiment,75,↑,up,↑,0.5464782000053674,True,34,1
KM-K-22K22S2,234,experiment,69,→,right,→,0.35875719995237887,True,34,1
KM-K-22K22S2,235,experiment,78,→,right,→,0.5322027001529932,True,34,0
KM-K-22K22S2,236,experiment,80,←,left,←,0.5798376000020653,True,34,1
KM-K-22K22S2,237,experiment,53,→,right,→,0.4988245000131428,True,34,1
KM-K-22K22S2,238,experiment,96,↑,up,↑,0.4252200999762863,True,34,1
KM-K-22K22S2,239,experiment,59,↓,down,↓,0.5852002999745309,True,34,0
KM-K-22K22S2,240,experiment,102,←,left,←,0.6552452000323683,True,34,1
KM-K-22K22S2,241,experiment,89,↓,down,↓,0.5349561001639813,True,34,1
KM-K-22K22S2,242,experiment,106,↑,up,↑,0.40937240002676845,True,34,1
KM-K-22K22S2,243,experiment,103,↓,down,↓,0.5385968000628054,True,34,1
KM-K-22K22S2,244,experiment,68,←,left,←,0.4701117998920381,True,34,1
KM-K-22K22S2,245,experiment,56,↑,up,↑,0.5925592998974025,True,34,1
KM-K-22K22S2,246,experiment,60,→,right,→,0.6527011001016945,True,34,1
KM-K-22K22S2,247,experiment,63,←,left,←,0.5972404999192804,True,34,1
KM-K-22K22S2,248,experiment,48,↓,down,↓,0.5891644998919219,True,34,1
KM-K-22K22S2,249,experiment,97,→,right,→,0.5326432001311332,True,34,1
KM-K-22K22S2,250,experiment,57,↓,down,↓,0.5482214998919517,True,34,1
KM-K-22K22S2,251,experiment,55,↓,down,↓,0.46041069994680583,True,34,1
KM-K-22K22S2,252,experiment,99,↓,down,↓,0.5516955000348389,True,34,1
KM-K-22K22S2,253,experiment,85,↑,up,↑,0.5251044000033289,True,34,1
KM-K-22K22S2,254,experiment,82,↓,down,↓,0.46074109990149736,True,34,1
KM-K-22K22S2,255,experiment,90,↓,down,↓,0.5155313999857754,True,34,1
KM-K-22K22S2,256,experiment,70,→,right,→,0.5754188999999315,True,34,1
KM-K-22K22S2,257,experiment,88,↓,down,↓,0.4280053998809308,True,34,1
KM-K-22K22S2,258,experiment,101,↓,down,↓,0.3846040000207722,True,34,0
KM-K-22K22S2,259,experiment,74,↓,down,↓,0.42628290015272796,True,34,0
KM-K-22K22S2,260,experiment,52,→,right,→,0.6036360999569297,True,34,0
KM-K-22K22S2,261,experiment,84,↑,up,↑,0.3844612999819219,True,34,1
KM-K-22K22S2,262,experiment,92,↓,down,↓,0.42602279991842806,True,34,0
KM-K-22K22S2,263,experiment,51,→,right,→,0.40881950012408197,True,34,0
KM-K-22K22S2,264,experiment,72,→,right,→,0.476938100066036,True,34,0
KM-K-22K22S2,265,experiment,94,→,right,→,0.5382981000002474,True,34,1
KM-K-22K22S2,266,experiment,93,←,left,←,0.6534837000072002,True,34,1
KM-K-22K22S2,267,experiment,64,←,left,←,0.6212675999850035,True,34,1
KM-K-22K22S2,268,experiment,95,←,left,←,0.5328347999602556,True,34,1
KM-K-22K22S2,269,experiment,77,→,right,→,0.5492308000102639,True,34,1
KM-K-22K22S2,270,experiment,71,↓,down,↓,0.48772999993525445,True,34,1
KM-K-22K22S2,271,experiment,91,→,right,→,0.4534892998635769,True,34,1
KM-K-22K22S2,272,experiment,61,↓,no_key,no_letter,-1.0,False,34,0
KM-K-22K22S2,273,experiment,79,←,left,←,0.6536403999198228,True,34,1
KM-K-22K22S2,274,experiment,104,↑,up,↑,0.5044523999094963,True,34,1
KM-K-22K22S2,275,experiment,62,↓,down,↓,0.8550696999300271,True,34,1
KM-K-22K22S2,276,experiment,107,↑,up,↑,1.1847603998612612,True,34,1
KM-K-22K22S2,277,experiment,50,→,right,→,0.5525098000653088,True,34,1
KM-K-22K22S2,278,experiment,73,↑,up,↑,0.4814973999746144,True,34,1
KM-K-22K22S2,279,experiment,66,←,left,←,0.6078220000490546,True,34,1
KM-K-22K22S2,280,experiment,81,↓,down,↓,0.49221890000626445,True,34,1
KM-K-22K22S2,281,experiment,98,←,left,←,0.47177039994858205,True,34,1
KM-K-22K22S2,282,experiment,76,↓,no_key,no_letter,-1.0,False,34,1
KM-K-22K22S2,283,experiment,86,↑,no_key,no_letter,-1.0,False,34,1
KM-K-22K22S2,284,experiment,100,↑,up,↑,0.4012710000388324,True,34,1
KM-K-22K22S2,285,experiment,65,↑,up,↑,0.4011345999315381,True,34,0
KM-K-22K22S2,286,experiment,87,→,right,→,0.6122002999763936,True,34,1
KM-K-22K22S2,287,experiment,108,←,left,←,0.6074134998489171,True,34,1
KM-K-22K22S2,288,experiment,58,↑,up,↑,0.5075566000305116,True,34,1
KM-K-22K22S2,289,experiment,67,←,left,←,0.40140179987065494,True,34,1
KM-K-22K22S2,290,experiment,105,↑,up,↑,0.5170062999241054,True,34,1
KM-K-22K22S2,291,experiment,49,→,right,→,0.58369529992342,True,34,1
KM-K-22K22S2,292,experiment,83,→,right,→,0.4845777000300586,True,34,1
KM-K-22K22S2,293,training,76,←,no_key,no_letter,-1.0,False,33,0
KM-K-22K22S2,294,training,102,↓,down,↓,0.5118637001141906,True,33,1
KM-K-22K22S2,295,experiment,62,↑,up,↑,0.4946871001739055,True,33,1
KM-K-22K22S2,296,experiment,48,↑,up,↑,0.4904411998577416,True,33,1
KM-K-22K22S2,297,experiment,50,←,left,←,0.6616472001187503,True,33,1
KM-K-22K22S2,298,experiment,106,→,right,→,0.5440025001298636,True,33,1
KM-K-22K22S2,299,experiment,86,↓,down,↓,0.6449632998555899,True,33,1
KM-K-22K22S2,300,experiment,75,←,left,←,0.514279399998486,True,33,1
KM-K-22K22S2,301,experiment,97,↑,up,↑,0.4607980998698622,True,33,1
KM-K-22K22S2,302,experiment,74,←,left,←,0.4891190999187529,True,33,1
KM-K-22K22S2,303,experiment,61,←,left,←,0.5770362000912428,True,33,1
KM-K-22K22S2,304,experiment,54,↑,up,↑,0.39287129999138415,True,33,1
KM-K-22K22S2,305,experiment,84,↓,down,↓,0.5794701999984682,True,33,1
KM-K-22K22S2,306,experiment,104,↓,down,↓,0.5214372999034822,True,33,1
KM-K-22K22S2,307,experiment,89,→,right,→,0.5904417000710964,True,33,1
KM-K-22K22S2,308,experiment,99,↑,up,↑,0.5334942999761552,True,33,1
KM-K-22K22S2,309,experiment,92,←,no_key,no_letter,-1.0,False,33,1
KM-K-22K22S2,310,experiment,58,←,left,←,0.4174432000145316,True,33,1
KM-K-22K22S2,311,experiment,107,↓,down,↓,0.5230109000112861,True,33,0
KM-K-22K22S2,312,experiment,81,→,right,→,0.4257755000144243,True,33,1
KM-K-22K22S2,313,experiment,93,←,left,←,0.45876949978992343,True,33,0
KM-K-22K22S2,314,experiment,64,→,right,→,0.3924034999217838,True,33,1
KM-K-22K22S2,315,experiment,102,→,right,→,0.5595142000820488,True,33,0
KM-K-22K22S2,316,experiment,77,↑,no_key,no_letter,-1.0,False,33,1
KM-K-22K22S2,317,experiment,96,↑,up,↑,0.4179286998696625,True,33,1
KM-K-22K22S2,318,experiment,79,↓,down,↓,0.4003377000335604,True,33,0
KM-K-22K22S2,319,experiment,73,↓,down,↓,0.4093424000311643,True,33,0
KM-K-22K22S2,320,experiment,100,→,right,→,0.5143255998846143,True,33,1
KM-K-22K22S2,321,experiment,76,→,right,→,0.44462940003722906,True,33,1
KM-K-22K22S2,322,experiment,88,←,left,←,0.4842972999904305,True,33,0
KM-K-22K22S2,323,experiment,57,←,left,←,0.5578345998656005,True,33,1
KM-K-22K22S2,324,experiment,70,↑,up,↑,0.4250264000147581,True,33,1
KM-K-22K22S2,325,experiment,85,←,left,←,0.6581413999665529,True,33,0
KM-K-22K22S2,326,experiment,87,↑,up,↑,0.41107079992070794,True,33,1
KM-K-22K22S2,327,experiment,52,↑,up,↑,0.5359594998881221,True,33,0
KM-K-22K22S2,328,experiment,101,↑,up,↑,0.4965575998649001,True,33,1
KM-K-22K22S2,329,experiment,103,←,left,←,0.6180417998693883,True,33,1
KM-K-22K22S2,330,experiment,49,→,no_key,no_letter,-1.0,False,33,1
KM-K-22K22S2,331,experiment,91,←,left,←,0.5961874001659453,True,33,1
KM-K-22K22S2,332,experiment,105,→,right,→,0.6328341001644731,True,33,1
KM-K-22K22S2,333,experiment,69,↓,no_key,no_letter,-1.0,False,33,1
KM-K-22K22S2,334,experiment,108,→,right,→,0.5184403001330793,True,33,1
KM-K-22K22S2,335,experiment,98,→,right,→,0.6565558998845518,True,33,1
KM-K-22K22S2,336,experiment,82,↑,no_key,no_letter,-1.0,False,33,1
KM-K-22K22S2,337,experiment,71,←,left,←,0.6288177000824362,True,33,1
KM-K-22K22S2,338,experiment,56,→,right,→,0.342036799993366,True,33,1
KM-K-22K22S2,339,experiment,95,↑,up,↑,0.4255242000799626,True,33,0
KM-K-22K22S2,340,experiment,59,↑,up,↑,0.4771989001892507,True,33,0
KM-K-22K22S2,341,experiment,68,↑,up,↑,0.36773520009592175,True,33,1
KM-K-22K22S2,342,experiment,94,←,left,←,0.5248259000945836,True,33,1
KM-K-22K22S2,343,experiment,63,↓,down,↓,0.5948222000151873,True,33,1
KM-K-22K22S2,344,experiment,53,→,right,→,0.38608659990131855,True,33,1
KM-K-22K22S2,345,experiment,78,↓,down,↓,0.5663862999062985,True,33,0
KM-K-22K22S2,346,experiment,72,←,left,←,0.42577879992313683,True,33,1
KM-K-22K22S2,347,experiment,66,↓,down,↓,0.4009332999121398,True,33,0
KM-K-22K22S2,348,experiment,67,→,right,→,0.5450802000705153,True,33,0
KM-K-22K22S2,349,experiment,60,←,left,←,0.42598339985124767,True,33,1
KM-K-22K22S2,350,experiment,83,↑,up,↑,0.40303630009293556,True,33,0
KM-K-22K22S2,351,experiment,65,↓,down,↓,0.563156200107187,True,33,1
KM-K-22K22S2,352,experiment,51,←,left,←,0.7634783000685275,True,33,1
KM-K-22K22S2,353,experiment,80,↓,down,↓,0.4977698000147939,True,33,1
KM-K-22K22S2,354,experiment,55,→,right,→,0.36770299985073507,True,33,1
KM-K-22K22S2,355,experiment,90,↓,down,↓,0.5496736001223326,True,33,1
KM-K-22K22S2,356,training,57,←,left,←,0.491700200131163,True,32,0
KM-K-22K22S2,357,training,88,←,left,←,0.40970780001953244,True,32,1
KM-K-22K22S2,358,experiment,77,←,left,←,0.640101500088349,True,32,0
KM-K-22K22S2,359,experiment,63,↑,no_key,no_letter,-1.0,False,32,1
KM-K-22K22S2,360,experiment,107,↓,down,↓,0.5755022999364883,True,32,1
KM-K-22K22S2,361,experiment,100,↑,up,↑,0.6549396999180317,True,32,1
KM-K-22K22S2,362,experiment,75,←,left,←,0.4671567000914365,True,32,1
KM-K-22K22S2,363,experiment,56,←,left,←,0.589642999926582,True,32,1
KM-K-22K22S2,364,experiment,80,←,left,←,0.43573090014979243,True,32,1
KM-K-22K22S2,365,experiment,66,↓,down,↓,0.5309633000288159,True,32,1
KM-K-22K22S2,366,experiment,95,→,right,→,0.4460843000560999,True,32,1
KM-K-22K22S2,367,experiment,67,↑,up,↑,0.6534378998912871,True,32,1
KM-K-22K22S2,368,experiment,79,↓,down,↓,0.44840039988048375,True,32,1
KM-K-22K22S2,369,experiment,108,←,left,←,0.586000699782744,True,32,1
KM-K-22K22S2,370,experiment,84,↑,up,↑,0.3760466000530869,True,32,1
KM-K-22K22S2,371,experiment,93,↑,up,↑,0.5757716000080109,True,32,0
KM-K-22K22S2,372,experiment,76,→,right,→,0.4171624998562038,True,32,1
KM-K-22K22S2,373,experiment,88,↑,no_key,no_letter,-1.0,False,32,0
KM-K-22K22S2,374,experiment,103,→,right,→,0.409385500010103,True,32,1
KM-K-22K22S2,375,experiment,62,↑,up,↑,0.34272640012204647,True,32,0
KM-K-22K22S2,376,experiment,99,↑,up,↑,0.4515077997930348,True,32,0
KM-K-22K22S2,377,experiment,50,↓,no_key,no_letter,-1.0,False,32,1
KM-K-22K22S2,378,experiment,90,→,right,→,0.5083392998203635,True,32,1
KM-K-22K22S2,379,experiment,72,→,right,→,0.6875385001767427,True,32,1
KM-K-22K22S2,380,experiment,64,→,no_key,no_letter,-1.0,False,32,1
KM-K-22K22S2,381,experiment,86,→,right,→,0.36770289996638894,True,32,1
KM-K-22K22S2,382,experiment,104,→,right,→,0.3595002999063581,True,32,0
KM-K-22K22S2,383,experiment,51,↓,left,←,0.5302371000871062,False,32,1
KM-K-22K22S2,384,experiment,96,↑,up,↑,0.6285860000643879,True,32,1
KM-K-22K22S2,385,experiment,87,→,right,→,0.49431469989940524,True,32,1
KM-K-22K22S2,386,experiment,48,←,left,←,0.6899321998935193,True,32,1
KM-K-22K22S2,387,experiment,89,→,right,→,0.5602472999598831,True,32,1
KM-K-22K22S2,388,experiment,85,→,right,→,0.3837754998821765,True,32,1
KM-K-22K22S2,389,experiment,52,↑,up,↑,0.5161222999449819,True,32,0
KM-K-22K22S2,390,experiment,65,↓,down,↓,0.5617205000016838,True,32,1
KM-K-22K22S2,391,experiment,91,←,left,←,0.5647559999488294,True,32,1
KM-K-22K22S2,392,experiment,81,→,right,→,0.6347566000185907,True,32,1
KM-K-22K22S2,393,experiment,92,↓,down,↓,0.4984894001390785,True,32,1
KM-K-22K22S2,394,experiment,71,↓,down,↓,0.4543167999945581,True,32,1
KM-K-22K22S2,395,experiment,106,↑,up,↑,0.5606994999106973,True,32,1
KM-K-22K22S2,396,experiment,94,↑,up,↑,0.3926321999169886,True,32,1
KM-K-22K22S2,397,experiment,82,←,left,←,0.5668985999654979,True,32,0
KM-K-22K22S2,398,experiment,58,←,left,←,0.5566120999865234,True,32,1
KM-K-22K22S2,399,experiment,70,→,right,→,0.5428408000152558,True,32,1
KM-K-22K22S2,400,experiment,68,↓,no_key,no_letter,-1.0,False,32,1
KM-K-22K22S2,401,experiment,55,↓,down,↓,0.706034200033173,True,32,1
KM-K-22K22S2,402,experiment,78,↓,down,↓,0.6835626000538468,True,32,1
KM-K-22K22S2,403,experiment,54,↑,up,↑,0.5259916000068188,True,32,1
KM-K-22K22S2,404,experiment,101,←,left,←,0.46299330005422235,True,32,1
KM-K-22K22S2,405,experiment,73,↓,down,↓,0.5478133999276906,True,32,1
KM-K-22K22S2,406,experiment,105,↓,down,↓,0.5308355002198368,True,32,1
KM-K-22K22S2,407,experiment,83,→,right,→,0.6332336999475956,True,32,1
KM-K-22K22S2,408,experiment,102,↑,up,↑,0.6297873000148684,True,32,1
KM-K-22K22S2,409,experiment,98,→,right,→,0.5472562001086771,True,32,1
KM-K-22K22S2,410,experiment,69,↓,down,↓,0.5740482998080552,True,32,1
KM-K-22K22S2,411,experiment,61,→,right,→,0.45096100005321205,True,32,1
KM-K-22K22S2,412,experiment,59,↓,down,↓,0.4525674001779407,True,32,1
KM-K-22K22S2,413,experiment,53,↓,down,↓,0.5759859001263976,True,32,1
KM-K-22K22S2,414,experiment,74,→,right,→,0.5838274999987334,True,32,1
KM-K-22K22S2,415,experiment,60,←,left,←,0.4923281997907907,True,32,1
KM-K-22K22S2,416,experiment,57,←,left,←,0.375872700009495,True,32,1
KM-K-22K22S2,417,experiment,97,→,right,→,0.39264440000988543,True,32,1
KM-K-22K22S2,418,experiment,49,←,left,←,0.6215768998954445,True,32,0
KM-K-22K22S2,419,training,81,↑,up,↑,0.5814175000414252,True,31,0
KM-K-22K22S2,420,training,80,↓,down,↓,0.4513463000766933,True,31,1
KM-K-22K22S2,421,experiment,77,↑,up,↑,0.4553057998418808,True,31,1
KM-K-22K22S2,422,experiment,75,→,right,→,0.659533399855718,True,31,1
KM-K-22K22S2,423,experiment,61,→,right,→,0.4846822000108659,True,31,1
KM-K-22K22S2,424,experiment,52,↓,down,↓,0.503967999946326,True,31,1
KM-K-22K22S2,425,experiment,73,↑,up,↑,0.5307636999059469,True,31,1
KM-K-22K22S2,426,experiment,76,↑,up,↑,0.4091805999632925,True,31,1
KM-K-22K22S2,427,experiment,57,↑,up,↑,0.5201185999903828,True,31,0
KM-K-22K22S2,428,experiment,55,→,right,→,0.39409970003180206,True,31,1
KM-K-22K22S2,429,experiment,51,→,right,→,0.40093260002322495,True,31,0
KM-K-22K22S2,430,experiment,70,→,right,→,0.4008339000865817,True,31,0
KM-K-22K22S2,431,experiment,58,↓,down,↓,0.6274339999072254,True,31,0
KM-K-22K22S2,432,experiment,67,→,right,→,0.5559049998410046,True,31,1
KM-K-22K22S2,433,experiment,101,↓,down,↓,0.5873735998757184,True,31,1
KM-K-22K22S2,434,experiment,89,↓,left,←,0.3266155000310391,False,31,1
KM-K-22K22S2,435,experiment,56,→,right,→,0.5896018999628723,True,31,0
KM-K-22K22S2,436,experiment,104,→,right,→,0.47475930000655353,True,31,1
KM-K-22K22S2,437,experiment,91,↓,down,↓,0.5294255998451263,True,31,1
KM-K-22K22S2,438,experiment,72,↑,up,↑,0.9077812000177801,True,31,1
KM-K-22K22S2,439,experiment,49,←,left,←,0.6546038999222219,True,31,1
KM-K-22K22S2,440,experiment,92,↓,down,↓,0.5334248999133706,True,31,1
KM-K-22K22S2,441,experiment,53,→,right,→,0.36781169986352324,True,31,1
KM-K-22K22S2,442,experiment,95,↓,no_key,no_letter,-1.0,False,31,0
KM-K-22K22S2,443,experiment,66,←,right,→,0.6114564000163227,False,31,1
KM-K-22K22S2,444,experiment,103,←,left,←,0.48038820014335215,True,31,1
KM-K-22K22S2,445,experiment,106,→,no_key,no_letter,-1.0,False,31,1
KM-K-22K22S2,446,experiment,85,↑,up,↑,0.5597804998978972,True,31,1
KM-K-22K22S2,447,experiment,97,↑,up,↑,0.37778940005227923,True,31,1
KM-K-22K22S2,448,experiment,81,↓,down,↓,0.533781599951908,True,31,0
KM-K-22K22S2,449,experiment,90,←,left,←,0.5142776998691261,True,31,1
KM-K-22K22S2,450,experiment,99,↑,up,↑,0.5162558001466095,True,31,1
KM-K-22K22S2,451,experiment,108,←,left,←,0.48340629995800555,True,31,1
KM-K-22K22S2,452,experiment,48,←,left,←,0.6797369001433253,True,31,1
KM-K-22K22S2,453,experiment,105,↓,down,↓,0.5292556998319924,True,31,1
KM-K-22K22S2,454,experiment,78,→,right,→,0.6014658999629319,True,31,1
KM-K-22K22S2,455,experiment,100,↓,down,↓,0.3928535000886768,True,31,1
KM-K-22K22S2,456,experiment,107,→,right,→,0.43629220011644065,True,31,1
KM-K-22K22S2,457,experiment,60,→,right,→,0.39241569978185,True,31,1
KM-K-22K22S2,458,experiment,59,↓,down,↓,0.5385378999635577,True,31,0
KM-K-22K22S2,459,experiment,83,←,left,←,0.36784239998087287,True,31,1
KM-K-22K22S2,460,experiment,88,←,left,←,0.6121296999044716,True,31,0
KM-K-22K22S2,461,experiment,84,←,no_key,no_letter,-1.0,False,31,1
KM-K-22K22S2,462,experiment,79,←,left,←,0.40925690019503236,True,31,1
KM-K-22K22S2,463,experiment,64,↓,down,↓,0.4894713000394404,True,31,0
KM-K-22K22S2,464,experiment,54,↑,up,↑,0.4358942999970168,True,31,1
KM-K-22K22S2,465,experiment,50,↑,up,↑,0.40139809995889664,True,31,1
KM-K-22K22S2,466,experiment,93,→,right,→,0.4025493001099676,True,31,0
KM-K-22K22S2,467,experiment,68,↓,down,↓,0.4418165998067707,True,31,0
KM-K-22K22S2,468,experiment,80,→,right,→,0.4690614999271929,True,31,1
KM-K-22K22S2,469,experiment,62,←,left,←,0.6613871001172811,True,31,1
KM-K-22K22S2,470,experiment,69,→,right,→,0.5315304999239743,True,31,1
KM-K-22K22S2,471,experiment,94,↓,down,↓,0.6066328999586403,True,31,1
KM-K-22K22S2,472,experiment,82,←,left,←,0.4505292000249028,True,31,1
KM-K-22K22S2,473,experiment,87,←,left,←,0.49129280005581677,True,31,1
KM-K-22K22S2,474,experiment,74,→,right,→,0.7267849000636488,True,31,1
KM-K-22K22S2,475,experiment,71,↓,down,↓,0.5697846999391913,True,31,1
KM-K-22K22S2,476,experiment,63,←,left,←,0.4011975000612438,True,31,1
KM-K-22K22S2,477,experiment,98,←,left,←,0.6603667000308633,True,31,0
KM-K-22K22S2,478,experiment,86,↑,up,↑,0.6129608999472111,True,31,1
KM-K-22K22S2,479,experiment,102,←,left,←,0.4025912000797689,True,31,1
KM-K-22K22S2,480,experiment,65,↓,right,→,0.9076859999913722,False,31,0
KM-K-22K22S2,481,experiment,96,↓,no_key,no_letter,-1.0,False,31,1
KM-K-22K22S2,482,training,64,←,left,←,0.5763787999749184,True,31,0
KM-K-22K22S2,483,training,107,↑,up,↑,0.43024479993619025,True,31,1
KM-K-22K22S2,484,experiment,79,↓,down,↓,0.3846180001273751,True,31,1
KM-K-22K22S2,485,experiment,53,←,left,←,0.5440778001211584,True,31,1
KM-K-22K22S2,486,experiment,108,↓,down,↓,0.4300226999912411,True,31,1
KM-K-22K22S2,487,experiment,65,→,right,→,0.38464359985664487,True,31,0
KM-K-22K22S2,488,experiment,104,←,left,←,0.3837806999217719,True,31,1
KM-K-22K22S2,489,experiment,55,←,left,←,0.6495730001479387,True,31,0
KM-K-22K22S2,490,experiment,94,↓,down,↓,0.4012180999852717,True,31,1
KM-K-22K22S2,491,experiment,80,→,right,→,0.4094239000696689,True,31,1
KM-K-22K22S2,492,experiment,84,→,right,→,0.4323435998521745,True,31,0
KM-K-22K22S2,493,experiment,89,←,left,←,0.4886382999829948,True,31,1
KM-K-22K22S2,494,experiment,81,↑,up,↑,0.4978251999709755,True,31,1
KM-K-22K22S2,495,experiment,99,→,right,→,0.6123957999516279,True,31,1
KM-K-22K22S2,496,experiment,90,↓,down,↓,0.5655330000445247,True,31,1
KM-K-22K22S2,497,experiment,83,↑,up,↑,0.40137530001811683,True,31,1
KM-K-22K22S2,498,experiment,100,↑,up,↑,0.38577129994519055,True,31,0
KM-K-22K22S2,499,experiment,49,↑,up,↑,0.496394099900499,True,31,0
KM-K-22K22S2,500,experiment,69,←,left,←,0.4931487001013011,True,31,1
KM-K-22K22S2,501,experiment,82,←,left,←,0.4860024000518024,True,31,1
KM-K-22K22S2,502,experiment,102,↑,up,↑,0.46414589998312294,True,31,1
KM-K-22K22S2,503,experiment,86,→,right,→,0.5766962000634521,True,31,1
KM-K-22K22S2,504,experiment,57,→,right,→,0.4013012999203056,True,31,1
KM-K-22K22S2,505,experiment,85,←,no_key,no_letter,-1.0,False,31,0
KM-K-22K22S2,506,experiment,78,→,right,→,0.5457115999888629,True,31,1
KM-K-22K22S2,507,experiment,97,←,left,←,0.6111122998408973,True,31,1
KM-K-22K22S2,508,experiment,66,→,right,→,0.5484615999739617,True,31,1
KM-K-22K22S2,509,experiment,68,↑,up,↑,0.5036011999472976,True,31,1
KM-K-22K22S2,510,experiment,56,→,right,→,0.5128159001469612,True,31,1
KM-K-22K22S2,511,experiment,98,←,no_key,no_letter,-1.0,False,31,1
KM-K-22K22S2,512,experiment,95,↑,up,↑,0.6538472999818623,True,31,1
KM-K-22K22S2,513,experiment,101,←,left,←,0.6576956000644714,True,31,1
KM-K-22K22S2,514,experiment,61,↓,down,↓,0.4987194000277668,True,31,1
KM-K-22K22S2,515,experiment,59,↓,down,↓,0.5466799000278115,True,31,1
KM-K-22K22S2,516,experiment,103,↑,up,↑,0.5940831999760121,True,31,1
KM-K-22K22S2,517,experiment,62,←,left,←,0.38431379990652204,True,31,1
KM-K-22K22S2,518,experiment,60,↑,no_key,no_letter,-1.0,False,31,1
KM-K-22K22S2,519,experiment,92,↑,up,↑,0.4857214998919517,True,31,1
KM-K-22K22S2,520,experiment,58,←,left,←,0.40095639997161925,True,31,1
KM-K-22K22S2,521,experiment,67,←,no_key,no_letter,-1.0,False,31,0
KM-K-22K22S2,522,experiment,93,↓,down,↓,0.5071584000252187,True,31,1
KM-K-22K22S2,523,experiment,71,↓,down,↓,0.35232349997386336,True,31,1
KM-K-22K22S2,524,experiment,88,←,left,←,0.5946778999641538,True,31,0
KM-K-22K22S2,525,experiment,106,←,left,←,0.4317446001805365,True,31,1
KM-K-22K22S2,526,experiment,70,→,right,→,0.4308782999869436,True,31,1
KM-K-22K22S2,527,experiment,74,←,left,←,0.6441944998223335,True,31,1
KM-K-22K22S2,528,experiment,77,→,right,→,0.5606242001522332,True,31,1
KM-K-22K22S2,529,experiment,87,↑,no_key,no_letter,-1.0,False,31,1
KM-K-22K22S2,530,experiment,75,↓,down,↓,0.48629359994083643,True,31,1
KM-K-22K22S2,531,experiment,96,→,right,→,0.4270176999270916,True,31,1
KM-K-22K22S2,532,experiment,91,→,right,→,0.5785582999233156,True,31,0
KM-K-22K22S2,533,experiment,73,→,right,→,0.43478450016118586,True,31,1
KM-K-22K22S2,534,experiment,54,↓,down,↓,0.4793864998500794,True,31,1
KM-K-22K22S2,535,experiment,72,↓,down,↓,0.5078515999484807,True,31,1
KM-K-22K22S2,536,experiment,64,↓,down,↓,0.4660354999359697,True,31,1
KM-K-22K22S2,537,experiment,52,←,left,←,0.4297186001203954,True,31,1
KM-K-22K22S2,538,experiment,50,↓,down,↓,0.61158959986642,True,31,0
KM-K-22K22S2,539,experiment,105,↑,up,↑,0.623442200012505,True,31,1
KM-K-22K22S2,540,experiment,63,←,left,←,0.5373505998868495,True,31,1
KM-K-22K22S2,541,experiment,107,→,right,→,0.6076674999203533,True,31,1
KM-K-22K22S2,542,experiment,76,←,no_key,no_letter,-1.0,False,31,1
KM-K-22K22S2,543,experiment,48,←,left,←,0.6562696001492441,True,31,1
KM-K-22K22S2,544,experiment,51,↓,down,↓,0.7968721000943333,True,31,1
KM-K-22K22S2,545,training,105,↓,down,↓,0.4925029999576509,True,30,0
KM-K-22K22S2,546,training,57,↑,up,↑,0.5415403998922557,True,30,1
KM-K-22K22S2,547,experiment,89,→,no_key,no_letter,-1.0,False,30,1
KM-K-22K22S2,548,experiment,63,↑,up,↑,0.36903579998761415,True,30,1
KM-K-22K22S2,549,experiment,88,↓,down,↓,0.4826821000315249,True,30,0
KM-K-22K22S2,550,experiment,56,→,right,→,0.46860869997181,True,30,1
KM-K-22K22S2,551,experiment,102,↑,up,↑,0.39286949997767806,True,30,1
KM-K-22K22S2,552,experiment,103,↑,up,↑,0.5327949998900294,True,30,0
KM-K-22K22S2,553,experiment,57,↑,up,↑,0.46012490009889007,True,30,1
KM-K-22K22S2,554,experiment,68,→,right,→,0.570952899986878,True,30,1
KM-K-22K22S2,555,experiment,93,→,right,→,0.5169085999950767,True,30,1
KM-K-22K22S2,556,experiment,98,←,left,←,0.6552961000707,True,30,1
KM-K-22K22S2,557,experiment,105,↓,down,↓,0.42632900015451014,True,30,1
KM-K-22K22S2,558,experiment,60,←,no_key,no_letter,-1.0,False,30,1
KM-K-22K22S2,559,experiment,80,↑,up,↑,0.5403416000772268,True,30,1
KM-K-22K22S2,560,experiment,108,→,right,→,0.5223988997749984,True,30,1
KM-K-22K22S2,561,experiment,84,↑,up,↑,0.45700379996560514,True,30,1
KM-K-22K22S2,562,experiment,92,↑,up,↑,0.377218300011009,True,30,1
KM-K-22K22S2,563,experiment,54,↓,down,↓,0.6939691000152379,True,30,0
KM-K-22K22S2,564,experiment,95,↓,down,↓,0.5143304001539946,True,30,1
KM-K-22K22S2,565,experiment,85,↑,up,↑,0.6328843999654055,True,30,1
KM-K-22K22S2,566,experiment,51,←,left,←,0.45442990004085004,True,30,1
KM-K-22K22S2,567,experiment,59,→,right,→,0.4723229000810534,True,30,1
KM-K-22K22S2,568,experiment,70,→,right,→,0.6297311000525951,True,30,1
KM-K-22K22S2,569,experiment,55,↓,no_key,no_letter,-1.0,False,30,1
KM-K-22K22S2,570,experiment,73,→,right,→,0.5082358999643475,True,30,1
KM-K-22K22S2,571,experiment,64,←,no_key,no_letter,-1.0,False,30,1
KM-K-22K22S2,572,experiment,48,→,right,→,0.5014461998362094,True,30,1
KM-K-22K22S2,573,experiment,99,←,left,←,0.6159757999703288,True,30,1
KM-K-22K22S2,574,experiment,82,←,left,←,0.6117098999675363,True,30,1
KM-K-22K22S2,575,experiment,79,→,right,→,0.4013996000867337,True,30,1
KM-K-22K22S2,576,experiment,52,→,right,→,0.5664015000220388,True,30,0
KM-K-22K22S2,577,experiment,69,←,left,←,0.6325807999819517,True,30,1
KM-K-22K22S2,578,experiment,50,→,right,→,0.5183335000183433,True,30,1
KM-K-22K22S2,579,experiment,67,↑,up,↑,0.5871904999949038,True,30,1
KM-K-22K22S2,580,experiment,49,↑,up,↑,0.5233098000753671,True,30,1
KM-K-22K22S2,581,experiment,96,↑,up,↑,0.42261500004678965,True,30,1
KM-K-22K22S2,582,experiment,97,↓,down,↓,0.595950199989602,True,30,1
KM-K-22K22S2,583,experiment,86,↓,right,→,0.33628529985435307,False,30,1
KM-K-22K22S2,584,experiment,66,→,right,→,0.6992317000404,True,30,0
KM-K-22K22S2,585,experiment,72,←,left,←,0.5269917999394238,True,30,1
KM-K-22K22S2,586,experiment,53,→,right,→,0.36937469989061356,True,30,1
KM-K-22K22S2,587,experiment,90,→,right,→,0.5545239001512527,True,30,0
KM-K-22K22S2,588,experiment,104,←,left,←,0.441245999885723,True,30,1
KM-K-22K22S2,589,experiment,62,↓,down,↓,0.5306651999708265,True,30,1
KM-K-22K22S2,590,experiment,74,↑,up,↑,0.572302000131458,True,30,1
KM-K-22K22S2,591,experiment,94,↑,up,↑,0.3845512999687344,True,30,1
KM-K-22K22S2,592,experiment,100,←,left,←,0.8364570001140237,True,30,1
KM-K-22K22S2,593,experiment,75,↑,up,↑,0.5695021999999881,True,30,1
KM-K-22K22S2,594,experiment,71,↓,down,↓,0.41947520012035966,True,30,1
KM-K-22K22S2,595,experiment,101,→,right,→,0.568007200025022,True,30,1
KM-K-22K22S2,596,experiment,61,←,left,←,0.43656990001909435,True,30,1
KM-K-22K22S2,597,experiment,77,→,right,→,0.5295132000464946,True,30,1
KM-K-22K22S2,598,experiment,83,←,left,←,0.6480076999869198,True,30,1
KM-K-22K22S2,599,experiment,106,↑,no_key,no_letter,-1.0,False,30,1
KM-K-22K22S2,600,experiment,78,↓,down,↓,0.50731290015392,True,30,1
KM-K-22K22S2,601,experiment,81,↑,up,↑,0.5477456001099199,True,30,1
KM-K-22K22S2,602,experiment,91,↑,up,↑,0.4009757998865098,True,30,1
KM-K-22K22S2,603,experiment,107,↓,down,↓,0.401118699926883,True,30,0
KM-K-22K22S2,604,experiment,65,←,left,←,0.4444971999619156,True,30,1
KM-K-22K22S2,605,experiment,87,→,right,→,0.5572936001699418,True,30,1
KM-K-22K22S2,606,experiment,76,↑,up,↑,0.5175071998964995,True,30,1
KM-K-22K22S2,607,experiment,58,↓,down,↓,0.5091707999818027,True,30,1
KM-K-22K22S2,608,training,81,→,right,→,0.5208167000673711,True,29,0
KM-K-22K22S2,609,training,48,→,right,→,0.35861389990895987,True,29,1
KM-K-22K22S2,610,experiment,57,←,left,←,0.3761531999334693,True,29,0
KM-K-22K22S2,611,experiment,108,→,right,→,0.3763141001109034,True,29,1
KM-K-22K22S2,612,experiment,48,↑,no_key,no_letter,-1.0,False,29,1
KM-K-22K22S2,613,experiment,51,→,right,→,0.31723299995064735,True,29,1
KM-K-22K22S2,614,experiment,71,↓,down,↓,0.572159199975431,True,29,0
KM-K-22K22S2,615,experiment,87,←,left,←,0.5443627999629825,True,29,1
KM-K-22K22S2,616,experiment,107,→,right,→,0.4224978999700397,True,29,1
KM-K-22K22S2,617,experiment,86,↓,no_key,no_letter,-1.0,False,29,1
KM-K-22K22S2,618,experiment,72,→,right,→,0.34263999992981553,True,29,1
KM-K-22K22S2,619,experiment,100,↓,down,↓,0.47619200008921325,True,29,0
KM-K-22K22S2,620,experiment,106,←,left,←,0.6372253999579698,True,29,1
KM-K-22K22S2,621,experiment,61,←,right,→,0.4955772999674082,False,29,1
KM-K-22K22S2,622,experiment,81,↓,down,↓,0.4243022999726236,True,29,1
KM-K-22K22S2,623,experiment,56,↑,up,↑,0.580296500120312,True,29,1
KM-K-22K22S2,624,experiment,63,↑,no_key,no_letter,-1.0,False,29,1
KM-K-22K22S2,625,experiment,66,←,left,←,0.452993200160563,True,29,1
KM-K-22K22S2,626,experiment,69,↓,down,↓,0.45131710008718073,True,29,1
KM-K-22K22S2,627,experiment,104,↓,down,↓,0.502549999859184,True,29,1
KM-K-22K22S2,628,experiment,98,→,right,→,0.42605159990489483,True,29,1
KM-K-22K22S2,629,experiment,54,↓,down,↓,0.5738906001206487,True,29,1
KM-K-22K22S2,630,experiment,84,↑,no_key,no_letter,-1.0,False,29,1
KM-K-22K22S2,631,experiment,59,↑,up,↑,0.4186762000899762,True,29,1
KM-K-22K22S2,632,experiment,49,↓,down,↓,0.5767399999313056,True,29,1
KM-K-22K22S2,633,experiment,93,↓,no_key,no_letter,-1.0,False,29,1
KM-K-22K22S2,634,experiment,99,←,left,←,0.5643688999116421,True,29,1
KM-K-22K22S2,635,experiment,79,←,left,←,0.5314875000622123,True,29,1
KM-K-22K22S2,636,experiment,97,→,right,→,0.58154739998281,True,29,1
KM-K-22K22S2,637,experiment,55,→,right,→,0.7551855000201613,True,29,1
KM-K-22K22S2,638,experiment,68,→,right,→,0.3930444000288844,True,29,1
KM-K-22K22S2,639,experiment,74,↓,down,↓,0.5016359000001103,True,29,1
KM-K-22K22S2,640,experiment,90,→,right,→,0.6188712001312524,True,29,1
KM-K-22K22S2,641,experiment,73,→,right,→,0.38465959997847676,True,29,1
KM-K-22K22S2,642,experiment,91,←,left,←,0.5154814999550581,True,29,1
KM-K-22K22S2,643,experiment,64,↑,up,↑,0.5291651000734419,True,29,1
KM-K-22K22S2,644,experiment,76,↓,no_key,no_letter,-1.0,False,29,1
KM-K-22K22S2,645,experiment,50,↓,down,↓,0.5410629999823868,True,29,1
KM-K-22K22S2,646,experiment,83,↑,up,↑,0.3919043999630958,True,29,1
KM-K-22K22S2,647,experiment,70,←,left,←,0.49178060004487634,True,29,0
KM-K-22K22S2,648,experiment,60,←,left,←,0.5878165999893099,True,29,1
KM-K-22K22S2,649,experiment,85,←,left,←,0.5278935998212546,True,29,1
KM-K-22K22S2,650,experiment,92,→,right,→,0.5553411000873893,True,29,1
KM-K-22K22S2,651,experiment,80,←,left,←,0.5544364999514073,True,29,1
KM-K-22K22S2,652,experiment,102,↑,up,↑,0.41042169998399913,True,29,1
KM-K-22K22S2,653,experiment,77,↑,up,↑,0.36741429986432195,True,29,0
KM-K-22K22S2,654,experiment,82,→,right,→,0.38454409991391003,True,29,0
KM-K-22K22S2,655,experiment,65,↓,down,↓,0.5430622999556363,True,29,1
KM-K-22K22S2,656,experiment,67,→,right,→,0.41115550021640956,True,29,1
KM-K-22K22S2,657,experiment,89,↑,up,↑,0.44404540001414716,True,29,0
KM-K-22K22S2,658,experiment,58,↓,down,↓,0.6148812000174075,True,29,1
KM-K-22K22S2,659,experiment,62,←,left,←,0.43325220001861453,True,29,1
KM-K-22K22S2,660,experiment,95,↑,up,↑,0.3610406999941915,True,29,1
KM-K-22K22S2,661,experiment,94,↓,down,↓,0.38445140002295375,True,29,0
KM-K-22K22S2,662,experiment,105,↓,down,↓,0.3679629999678582,True,29,0
KM-K-22K22S2,663,experiment,103,↓,down,↓,0.3926878999918699,True,29,0
KM-K-22K22S2,664,experiment,88,↓,down,↓,0.5832863000687212,True,29,0
KM-K-22K22S2,665,experiment,52,↑,up,↑,0.654324600007385,True,29,1
KM-K-22K22S2,666,experiment,96,↑,up,↑,0.36772749992087483,True,29,1
KM-K-22K22S2,667,experiment,101,←,left,←,0.5552411000244319,True,29,1
KM-K-22K22S2,668,experiment,53,↑,no_key,no_letter,-1.0,False,29,1
KM-K-22K22S2,669,experiment,75,←,left,←,0.613064699806273,True,29,1
KM-K-22K22S2,670,experiment,78,↑,up,↑,0.5542244000826031,True,29,1
KM-K-22K22S2,671,training,54,↓,down,↓,0.43076719995588064,True,29,0
KM-K-22K22S2,672,training,60,←,left,←,0.5772265000268817,True,29,1
KM-K-22K22S2,673,experiment,67,→,right,→,0.5153655998874456,True,29,1
KM-K-22K22S2,674,experiment,88,←,left,←,0.425408500013873,True,29,1
KM-K-22K22S2,675,experiment,68,↑,no_key,no_letter,-1.0,False,29,1
KM-K-22K22S2,676,experiment,64,←,left,←,0.44720289995893836,True,29,1
KM-K-22K22S2,677,experiment,59,→,right,→,0.48127799993380904,True,29,1
KM-K-22K22S2,678,experiment,102,↓,down,↓,0.41211439995095134,True,29,1
KM-K-22K22S2,679,experiment,87,↓,down,↓,0.5177252001594752,True,29,0
KM-K-22K22S2,680,experiment,107,↓,down,↓,0.45298360008746386,True,29,1
KM-K-22K22S2,681,experiment,56,→,no_key,no_letter,-1.0,False,29,1
KM-K-22K22S2,682,experiment,52,↑,up,↑,0.5625051001552492,True,29,1
KM-K-22K22S2,683,experiment,104,→,no_key,no_letter,-1.0,False,29,1
KM-K-22K22S2,684,experiment,89,↓,down,↓,0.5340346999000758,True,29,1
KM-K-22K22S2,685,experiment,48,↓,down,↓,0.5365017999429256,True,29,1
KM-K-22K22S2,686,experiment,96,→,right,→,0.42693590000271797,True,29,1
KM-K-22K22S2,687,experiment,61,→,right,→,0.5411730001214892,True,29,1
KM-K-22K22S2,688,experiment,71,←,left,←,0.6074125999584794,True,29,1
KM-K-22K22S2,689,experiment,91,←,left,←,0.4962942998390645,True,29,1
KM-K-22K22S2,690,experiment,66,←,left,←,0.6143056000582874,True,29,1
KM-K-22K22S2,691,experiment,106,↓,down,↓,0.5141167000401765,True,29,1
KM-K-22K22S2,692,experiment,80,→,right,→,0.5468336001504213,True,29,1
KM-K-22K22S2,693,experiment,70,←,left,←,0.5248712999746203,True,29,1
KM-K-22K22S2,694,experiment,108,→,right,→,0.5397659000009298,True,29,1
KM-K-22K22S2,695,experiment,99,↑,up,↑,0.5566986000631005,True,29,1
KM-K-22K22S2,696,experiment,93,↑,up,↑,0.43909789994359016,True,29,1
KM-K-22K22S2,697,experiment,100,↑,up,↑,0.49975820002146065,True,29,1
KM-K-22K22S2,698,experiment,95,↓,down,↓,0.6159382998012006,True,29,1
KM-K-22K22S2,699,experiment,72,↑,up,↑,0.5028563998639584,True,29,1
KM-K-22K22S2,700,experiment,58,→,right,→,0.42354219988919795,True,29,1
KM-K-22K22S2,701,experiment,90,←,left,←,0.4881520001217723,True,29,1
KM-K-22K22S2,702,experiment,62,→,right,→,0.46353629999794066,True,29,1
KM-K-22K22S2,703,experiment,69,→,right,→,0.44549189996905625,True,29,1
KM-K-22K22S2,704,experiment,85,↑,up,↑,0.5110887000337243,True,29,1
KM-K-22K22S2,705,experiment,74,→,right,→,0.37557849986478686,True,29,1
KM-K-22K22S2,706,experiment,65,→,right,→,0.4124966999515891,True,29,0
KM-K-22K22S2,707,experiment,51,↓,down,↓,0.6426899000070989,True,29,0
KM-K-22K22S2,708,experiment,55,→,right,→,0.4703345999587327,True,29,1
KM-K-22K22S2,709,experiment,81,←,left,←,0.656148900045082,True,29,1
KM-K-22K22S2,710,experiment,97,↓,down,↓,0.5572383999824524,True,29,1
KM-K-22K22S2,711,experiment,84,→,no_key,no_letter,-1.0,False,29,1
KM-K-22K22S2,712,experiment,86,←,left,←,0.3858177999500185,True,29,1
KM-K-22K22S2,713,experiment,75,←,left,←,0.7037704000249505,True,29,0
KM-K-22K22S2,714,experiment,49,→,right,→,0.4110348999965936,True,29,1
KM-K-22K22S2,715,experiment,103,←,left,←,0.43962779990397394,True,29,0
KM-K-22K22S2,716,experiment,79,←,left,←,0.44338939990848303,True,29,1
KM-K-22K22S2,717,experiment,50,↑,up,↑,0.42495530005544424,True,29,1
KM-K-22K22S2,718,experiment,77,←,left,←,0.5260258999187499,True,29,1
KM-K-22K22S2,719,experiment,60,↑,up,↑,0.5086664999835193,True,29,1
KM-K-22K22S2,720,experiment,54,↑,up,↑,0.44595579989254475,True,29,1
KM-K-22K22S2,721,experiment,63,→,right,→,0.6390375001356006,True,29,1
KM-K-22K22S2,722,experiment,98,←,left,←,0.6601326998788863,True,29,1
KM-K-22K22S2,723,experiment,101,←,left,←,0.5358315999619663,True,29,1
KM-K-22K22S2,724,experiment,94,↑,up,↑,0.4989163000136614,True,29,1
KM-K-22K22S2,725,experiment,78,←,left,←,0.4527230001986027,True,29,1
KM-K-22K22S2,726,experiment,92,↑,up,↑,0.5477744999807328,True,29,1
KM-K-22K22S2,727,experiment,73,→,no_key,no_letter,-1.0,False,29,1
KM-K-22K22S2,728,experiment,57,↑,up,↑,0.36751959985122085,True,29,1
KM-K-22K22S2,729,experiment,83,↓,down,↓,0.5381375998258591,True,29,0
KM-K-22K22S2,730,experiment,76,←,right,→,0.5628861000295728,False,29,1
KM-K-22K22S2,731,experiment,105,↑,up,↑,0.38594750012271106,True,29,1
KM-K-22K22S2,732,experiment,82,→,right,→,0.39264249987900257,True,29,0
KM-K-22K22S2,733,experiment,53,→,right,→,0.43571310001425445,True,29,0
KM-K-22K22S2,734,training,64,→,right,→,0.35947399982251227,True,28,0
KM-K-22K22S2,735,training,80,→,right,→,0.5563731000293046,True,28,0
KM-K-22K22S2,736,experiment,58,←,left,←,0.6264804999809712,True,28,1
KM-K-22K22S2,737,experiment,56,←,left,←,0.40728769986890256,True,28,1
KM-K-22K22S2,738,experiment,69,←,left,←,0.4950359999202192,True,28,0
KM-K-22K22S2,739,experiment,97,←,left,←,0.5068014999851584,True,28,1
KM-K-22K22S2,740,experiment,53,↓,down,↓,0.4685424999333918,True,28,1
KM-K-22K22S2,741,experiment,80,→,right,→,0.5508827001322061,True,28,1
KM-K-22K22S2,742,experiment,83,←,left,←,0.5890372998546809,True,28,1
KM-K-22K22S2,743,experiment,98,↑,up,↑,0.4125802000053227,True,28,1
KM-K-22K22S2,744,experiment,93,→,right,→,0.5244760001078248,True,28,1
KM-K-22K22S2,745,experiment,82,↑,up,↑,0.40492030000314116,True,28,1
KM-K-22K22S2,746,experiment,54,↑,down,↓,0.6332309998106211,False,28,0
KM-K-22K22S2,747,experiment,96,↓,down,↓,0.4081085999496281,True,28,1
KM-K-22K22S2,748,experiment,89,↓,down,↓,0.6012556001078337,True,28,0
KM-K-22K22S2,749,experiment,94,↑,up,↑,0.34219440002925694,True,28,1
KM-K-22K22S2,750,experiment,103,↓,down,↓,0.5291912001557648,True,28,0
KM-K-22K22S2,751,experiment,65,←,left,←,0.3597234000917524,True,28,1
KM-K-22K22S2,752,experiment,99,↑,up,↑,0.3677910000551492,True,28,0
KM-K-22K22S2,753,experiment,87,↑,up,↑,0.5296466001309454,True,28,0
KM-K-22K22S2,754,experiment,78,←,no_key,no_letter,-1.0,False,28,1
KM-K-22K22S2,755,experiment,51,→,right,→,0.6207045000046492,True,28,1
KM-K-22K22S2,756,experiment,59,↑,no_key,no_letter,-1.0,False,28,1
KM-K-22K22S2,757,experiment,102,←,left,←,0.521142499987036,True,28,1
KM-K-22K22S2,758,experiment,48,↑,up,↑,0.4359715001191944,True,28,1
KM-K-22K22S2,759,experiment,76,↓,down,↓,0.529066100018099,True,28,1
KM-K-22K22S2,760,experiment,71,←,left,←,0.43569079996086657,True,28,1
KM-K-22K22S2,761,experiment,108,→,right,→,0.5576243000105023,True,28,1
KM-K-22K22S2,762,experiment,55,↑,up,↑,0.549034200143069,True,28,1
KM-K-22K22S2,763,experiment,101,↑,no_key,no_letter,-1.0,False,28,1
KM-K-22K22S2,764,experiment,107,←,left,←,0.4050539000891149,True,28,1
KM-K-22K22S2,765,experiment,86,→,right,→,0.4876644001342356,True,28,1
KM-K-22K22S2,766,experiment,52,←,left,←,0.6583084999583662,True,28,1
KM-K-22K22S2,767,experiment,85,↑,up,↑,0.5156457000412047,True,28,1
KM-K-22K22S2,768,experiment,63,↑,up,↑,0.3596685999073088,True,28,1
KM-K-22K22S2,769,experiment,90,↑,up,↑,0.49286450003273785,True,28,0
KM-K-22K22S2,770,experiment,95,→,right,→,0.6087893999647349,True,28,1
KM-K-22K22S2,771,experiment,70,→,right,→,0.6171363000757992,True,28,1
KM-K-22K22S2,772,experiment,92,←,left,←,0.6334484000690281,True,28,1
KM-K-22K22S2,773,experiment,88,→,right,→,0.5788044000510126,True,28,1
KM-K-22K22S2,774,experiment,79,←,no_key,no_letter,-1.0,False,28,1
KM-K-22K22S2,775,experiment,72,↓,down,↓,0.5560973999090493,True,28,1
KM-K-22K22S2,776,experiment,106,↑,up,↑,0.40278790006414056,True,28,1
KM-K-22K22S2,777,experiment,49,←,left,←,0.4812427000142634,True,28,1
KM-K-22K22S2,778,experiment,104,←,left,←,0.4425823998171836,True,28,1
KM-K-22K22S2,779,experiment,77,↑,up,↑,0.49535429989919066,True,28,1
KM-K-22K22S2,780,experiment,62,↓,down,↓,0.41471790010109544,True,28,1
KM-K-22K22S2,781,experiment,61,←,left,←,0.5851896000094712,True,28,1
KM-K-22K22S2,782,experiment,67,→,no_key,no_letter,-1.0,False,28,1
KM-K-22K22S2,783,experiment,81,←,left,←,0.5954223000444472,True,28,1
KM-K-22K22S2,784,experiment,60,←,left,←,0.431640800088644,True,28,1
KM-K-22K22S2,785,experiment,100,←,left,←,0.40466129989363253,True,28,1
KM-K-22K22S2,786,experiment,91,→,right,→,0.38453070004470646,True,28,0
KM-K-22K22S2,787,experiment,74,←,no_key,no_letter,-1.0,False,28,1
KM-K-22K22S2,788,experiment,73,←,left,←,0.6403236000332981,True,28,1
KM-K-22K22S2,789,experiment,75,→,right,→,0.42948770010843873,True,28,1
KM-K-22K22S2,790,experiment,64,←,left,←,0.5904544000513852,True,28,1
KM-K-22K22S2,791,experiment,66,←,left,←,0.6244233001489192,True,28,1
KM-K-22K22S2,792,experiment,57,↑,up,↑,0.5962684999685735,True,28,1
KM-K-22K22S2,793,experiment,105,→,right,→,0.6250450999941677,True,28,1
KM-K-22K22S2,794,experiment,68,↓,down,↓,0.43310380005277693,True,28,1
KM-K-22K22S2,795,experiment,84,↓,down,↓,0.40428820019587874,True,28,1
KM-K-22K22S2,796,experiment,50,↓,down,↓,0.57828010013327,True,28,0
KM-K-22K22S2,797,training,100,←,left,←,0.53170259995386,True,28,0
KM-K-22K22S2,798,training,58,→,right,→,0.5228372002020478,True,28,1
KM-K-22K22S2,799,experiment,104,↑,up,↑,0.5150357999373227,True,28,1
KM-K-22K22S2,800,experiment,59,←,left,←,0.6822053000796586,True,28,1
KM-K-22K22S2,801,experiment,64,↑,up,↑,0.5138105999212712,True,28,1
KM-K-22K22S2,802,experiment,79,↓,down,↓,0.5394123999867588,True,28,1
KM-K-22K22S2,803,experiment,84,→,right,→,0.5601504999212921,True,28,1
KM-K-22K22S2,804,experiment,75,←,no_key,no_letter,-1.0,False,28,1
KM-K-22K22S2,805,experiment,101,↓,down,↓,0.5860635000281036,True,28,1
KM-K-22K22S2,806,experiment,55,↑,up,↑,0.5760784999001771,True,28,1
KM-K-22K22S2,807,experiment,54,↑,up,↑,0.43105949996970594,True,28,1
KM-K-22K22S2,808,experiment,57,→,right,→,0.44246329995803535,True,28,1
KM-K-22K22S2,809,experiment,52,↓,down,↓,0.43897609994746745,True,28,1
KM-K-22K22S2,810,experiment,100,↓,down,↓,0.4359325999394059,True,28,1
KM-K-22K22S2,811,experiment,85,↓,down,↓,0.4699143001344055,True,28,1
KM-K-22K22S2,812,experiment,89,↓,down,↓,0.45332839991897345,True,28,1
KM-K-22K22S2,813,experiment,63,→,right,→,0.44579580007120967,True,28,1
KM-K-22K22S2,814,experiment,50,↑,up,↑,0.3843061001971364,True,28,1
KM-K-22K22S2,815,experiment,83,↓,down,↓,0.42339359992183745,True,28,1
KM-K-22K22S2,816,experiment,81,↑,up,↑,0.6432743000332266,True,28,1
KM-K-22K22S2,817,experiment,74,←,left,←,0.4323138000909239,True,28,1
KM-K-22K22S2,818,experiment,105,←,left,←,0.5477245999500155,True,28,1
KM-K-22K22S2,819,experiment,92,↑,up,↑,0.4709770998451859,True,28,1
KM-K-22K22S2,820,experiment,78,↑,up,↑,0.4100323999300599,True,28,1
KM-K-22K22S2,821,experiment,68,←,left,←,0.5465037999674678,True,28,1
KM-K-22K22S2,822,experiment,90,→,right,→,0.4060861000325531,True,28,1
KM-K-22K22S2,823,experiment,66,↓,down,↓,0.5675454998854548,True,28,0
KM-K-22K22S2,824,experiment,76,←,left,←,0.42360029998235404,True,28,1
KM-K-22K22S2,825,experiment,72,→,no_key,no_letter,-1.0,False,28,1
KM-K-22K22S2,826,experiment,82,←,left,←,0.6143042999319732,True,28,1
KM-K-22K22S2,827,experiment,61,←,left,←,0.4650662001222372,True,28,1
KM-K-22K22S2,828,experiment,77,→,right,→,0.3596823001280427,True,28,1
KM-K-22K22S2,829,experiment,73,←,left,←,0.565191299887374,True,28,1
KM-K-22K22S2,830,experiment,103,→,right,→,0.651936599984765,True,28,1
KM-K-22K22S2,831,experiment,99,←,left,←,0.6405933999922127,True,28,1
KM-K-22K22S2,832,experiment,53,←,left,←,0.6366697999183089,True,28,1
KM-K-22K22S2,833,experiment,106,↑,up,↑,0.45550589985214174,True,28,1
KM-K-22K22S2,834,experiment,51,←,left,←,0.5801276999991387,True,28,1
KM-K-22K22S2,835,experiment,87,↓,down,↓,0.45554100000299513,True,28,1
KM-K-22K22S2,836,experiment,96,→,right,→,0.5649880000855774,True,28,1
KM-K-22K22S2,837,experiment,95,↑,up,↑,0.5742957000620663,True,28,1
KM-K-22K22S2,838,experiment,107,↑,up,↑,0.5873217000626028,True,28,1
KM-K-22K22S2,839,experiment,93,↑,up,↑,0.5646081999875605,True,28,1
KM-K-22K22S2,840,experiment,65,←,left,←,0.42412419989705086,True,28,1
KM-K-22K22S2,841,experiment,70,→,right,→,0.5593709000386298,True,28,1
KM-K-22K22S2,842,experiment,69,←,left,←,0.47383090015500784,True,28,1
KM-K-22K22S2,843,experiment,48,↑,up,↑,0.4146485000383109,True,28,1
KM-K-22K22S2,844,experiment,67,←,left,←,0.4474141001701355,True,28,1
KM-K-22K22S2,845,experiment,58,←,left,←,0.6498641001526266,True,28,1
KM-K-22K22S2,846,experiment,71,←,left,←,0.4719924000091851,True,28,1
KM-K-22K22S2,847,experiment,98,←,left,←,0.45980409998446703,True,28,1
KM-K-22K22S2,848,experiment,49,↑,no_key,no_letter,-1.0,False,28,1
KM-K-22K22S2,849,experiment,86,↑,up,↑,0.3607274000532925,True,28,1
KM-K-22K22S2,850,experiment,56,→,right,→,1.0379157999996096,True,28,0
KM-K-22K22S2,851,experiment,97,←,left,←,0.7478414999786764,True,28,1
KM-K-22K22S2,852,experiment,102,→,right,→,0.48344570002518594,True,28,1
KM-K-22K22S2,853,experiment,91,↓,down,↓,0.4895806999411434,True,28,1
KM-K-22K22S2,854,experiment,80,→,right,→,0.41910600010305643,True,28,1
KM-K-22K22S2,855,experiment,94,→,right,→,0.5864392002113163,True,28,1
KM-K-22K22S2,856,experiment,60,←,left,←,0.4231564998626709,True,28,1
KM-K-22K22S2,857,experiment,108,←,left,←,0.7140621000435203,True,28,1
KM-K-22K22S2,858,experiment,62,→,right,→,0.6962064001709223,True,28,1
KM-K-22K22S2,859,experiment,88,↑,up,↑,0.44671339984051883,True,28,1
KM-K-22K22S2,860,training,91,↑,no_key,no_letter,-1.0,False,28,0
KM-K-22K22S2,861,training,101,→,right,→,0.7208386999554932,True,28,1
KM-K-22K22S2,862,experiment,49,↓,down,↓,0.4593669001478702,True,28,1
KM-K-22K22S2,863,experiment,89,↓,down,↓,0.5629249000921845,True,28,1
KM-K-22K22S2,864,experiment,83,↓,down,↓,0.5283770998939872,True,28,1
KM-K-22K22S2,865,experiment,66,←,left,←,0.46932319994084537,True,28,1
KM-K-22K22S2,866,experiment,52,←,left,←,0.6089963000267744,True,28,1
KM-K-22K22S2,867,experiment,75,↓,down,↓,0.551487399963662,True,28,1
KM-K-22K22S2,868,experiment,90,↑,up,↑,0.4113376000896096,True,28,1
KM-K-22K22S2,869,experiment,85,→,right,→,0.4779579001478851,True,28,1
KM-K-22K22S2,870,experiment,102,→,right,→,0.4164013001136482,True,28,1
KM-K-22K22S2,871,experiment,95,→,right,→,0.5758347997907549,True,28,1
KM-K-22K22S2,872,experiment,61,→,right,→,0.342604500008747,True,28,1
KM-K-22K22S2,873,experiment,57,↓,down,↓,0.5631619999185205,True,28,1
KM-K-22K22S2,874,experiment,99,↓,down,↓,0.5392327001318336,True,28,1
KM-K-22K22S2,875,experiment,50,←,left,←,0.7485356999095529,True,28,1
KM-K-22K22S2,876,experiment,55,↑,up,↑,0.5962948000524193,True,28,1
KM-K-22K22S2,877,experiment,68,→,no_key,no_letter,-1.0,False,28,1
KM-K-22K22S2,878,experiment,86,↓,down,↓,0.5880064000375569,True,28,1
KM-K-22K22S2,879,experiment,101,↑,up,↑,0.6102567000780255,True,28,1
KM-K-22K22S2,880,experiment,53,↓,down,↓,0.5520931000355631,True,28,1
KM-K-22K22S2,881,experiment,72,←,left,←,0.4338219000492245,True,28,1
KM-K-22K22S2,882,experiment,107,→,right,→,0.6124831000342965,True,28,1
KM-K-22K22S2,883,experiment,96,→,right,→,0.45982260000891984,True,28,1
KM-K-22K22S2,884,experiment,105,↑,up,↑,0.5342297998722643,True,28,1
KM-K-22K22S2,885,experiment,84,↑,no_key,no_letter,-1.0,False,28,1
KM-K-22K22S2,886,experiment,87,↓,down,↓,0.4272805000655353,True,28,1
KM-K-22K22S2,887,experiment,48,↑,no_key,no_letter,-1.0,False,28,1
KM-K-22K22S2,888,experiment,71,↓,down,↓,0.38437099987640977,True,28,1
KM-K-22K22S2,889,experiment,69,→,right,→,0.5745804000180215,True,28,0
KM-K-22K22S2,890,experiment,97,→,no_key,no_letter,-1.0,False,28,1
KM-K-22K22S2,891,experiment,79,→,right,→,0.42440520017407835,True,28,1
KM-K-22K22S2,892,experiment,88,↑,up,↑,0.41768399998545647,True,28,1
KM-K-22K22S2,893,experiment,98,→,right,→,0.3339303999673575,True,28,1
KM-K-22K22S2,894,experiment,67,→,right,→,0.5556113000493497,True,28,0
KM-K-22K22S2,895,experiment,64,↑,up,↑,0.5118581999558955,True,28,1
KM-K-22K22S2,896,experiment,94,→,right,→,0.4037901000119746,True,28,1
KM-K-22K22S2,897,experiment,70,→,right,→,0.35932449996471405,True,28,0
KM-K-22K22S2,898,experiment,62,→,right,→,0.351269599981606,True,28,0
KM-K-22K22S2,899,experiment,104,←,left,←,0.4953135000541806,True,28,1
KM-K-22K22S2,900,experiment,100,↓,down,↓,0.5535895000211895,True,28,1
KM-K-22K22S2,901,experiment,91,←,left,←,0.6765920000616461,True,28,1
KM-K-22K22S2,902,experiment,54,→,right,→,0.42346029984764755,True,28,1
KM-K-22K22S2,903,experiment,108,↓,down,↓,0.5222516998182982,True,28,1
KM-K-22K22S2,904,experiment,77,←,left,←,0.6031087001319975,True,28,1
KM-K-22K22S2,905,experiment,103,→,right,→,0.5365583000238985,True,28,1
KM-K-22K22S2,906,experiment,93,↑,up,↑,0.41206260002218187,True,28,1
KM-K-22K22S2,907,experiment,56,↑,up,↑,0.5601104001980275,True,28,1
KM-K-22K22S2,908,experiment,92,↓,down,↓,0.5306365999858826,True,28,1
KM-K-22K22S2,909,experiment,82,←,left,←,0.5541002000682056,True,28,1
KM-K-22K22S2,910,experiment,81,↑,up,↑,0.41639739996753633,True,28,1
KM-K-22K22S2,911,experiment,51,↓,down,↓,0.4382579999510199,True,28,1
KM-K-22K22S2,912,experiment,60,↑,up,↑,0.40047070011496544,True,28,1
KM-K-22K22S2,913,experiment,80,↑,up,↑,0.3676646000239998,True,28,0
KM-K-22K22S2,914,experiment,74,↓,down,↓,0.3761740999761969,True,28,1
KM-K-22K22S2,915,experiment,76,↑,up,↑,0.5805157001595944,True,28,1
KM-K-22K22S2,916,experiment,106,↑,up,↑,0.4893710999749601,True,28,1
KM-K-22K22S2,917,experiment,73,↓,down,↓,0.6211294999811798,True,28,1
KM-K-22K22S2,918,experiment,65,→,right,→,0.4539365000091493,True,28,1
KM-K-22K22S2,919,experiment,63,↑,up,↑,0.5106489998288453,True,28,1
KM-K-22K22S2,920,experiment,78,↑,up,↑,0.37764650001190603,True,28,1
KM-K-22K22S2,921,experiment,58,↑,up,↑,0.5090411999262869,True,28,0
KM-K-22K22S2,922,experiment,59,↓,down,↓,0.5246472998987883,True,28,1
KM-K-22K22S2,923,training,64,↓,down,↓,0.5567288000602275,True,28,0
KM-K-22K22S2,924,training,106,↓,no_key,no_letter,-1.0,False,28,1
KM-K-22K22S2,925,experiment,80,↑,up,↑,0.6597446999512613,True,28,1
KM-K-22K22S2,926,experiment,69,→,right,→,0.6180920000188053,True,28,1
KM-K-22K22S2,927,experiment,75,↓,no_key,no_letter,-1.0,False,28,1
KM-K-22K22S2,928,experiment,84,↓,down,↓,0.38449739990755916,True,28,1
KM-K-22K22S2,929,experiment,62,←,left,←,0.45075899991206825,True,28,0
KM-K-22K22S2,930,experiment,96,→,right,→,0.4244862000923604,True,28,1
KM-K-22K22S2,931,experiment,58,→,right,→,0.40466079977340996,True,28,1
KM-K-22K22S2,932,experiment,52,↑,up,↑,0.5778081999160349,True,28,1
KM-K-22K22S2,933,experiment,95,←,left,←,0.6184423000086099,True,28,1
KM-K-22K22S2,934,experiment,91,→,right,→,0.4192836999427527,True,28,1
KM-K-22K22S2,935,experiment,67,←,left,←,0.45134030003100634,True,28,1
KM-K-22K22S2,936,experiment,99,↓,down,↓,0.5283650998026133,True,28,1
KM-K-22K22S2,937,experiment,106,↓,down,↓,0.5195747001562268,True,28,1
KM-K-22K22S2,938,experiment,60,→,no_key,no_letter,-1.0,False,28,1
KM-K-22K22S2,939,experiment,65,↓,down,↓,0.4127108999527991,True,28,1
KM-K-22K22S2,940,experiment,48,↓,no_key,no_letter,-1.0,False,28,1
KM-K-22K22S2,941,experiment,74,↓,down,↓,0.4231501999311149,True,28,1
KM-K-22K22S2,942,experiment,107,→,right,→,0.5621578001882881,True,28,1
KM-K-22K22S2,943,experiment,64,↑,up,↑,0.9179465998895466,True,28,1
KM-K-22K22S2,944,experiment,86,→,right,→,0.4284168998710811,True,28,1
KM-K-22K22S2,945,experiment,104,←,left,←,0.7361299998592585,True,28,1
KM-K-22K22S2,946,experiment,105,←,left,←,0.44760679989121854,True,28,1
KM-K-22K22S2,947,experiment,78,←,right,→,0.6513040999416262,False,28,1
KM-K-22K22S2,948,experiment,68,←,left,←,0.4662157001439482,True,28,1
KM-K-22K22S2,949,experiment,92,↑,no_key,no_letter,-1.0,False,28,1
KM-K-22K22S2,950,experiment,55,←,left,←,0.4419303999748081,True,28,1
KM-K-22K22S2,951,experiment,57,→,no_key,no_letter,-1.0,False,28,1
KM-K-22K22S2,952,experiment,79,→,right,→,0.3840856999158859,True,28,1
KM-K-22K22S2,953,experiment,81,↑,up,↑,0.5794305999297649,True,28,0
KM-K-22K22S2,954,experiment,108,↓,down,↓,0.42374140000902116,True,28,1
KM-K-22K22S2,955,experiment,61,→,no_key,no_letter,-1.0,False,28,1
KM-K-22K22S2,956,experiment,76,→,right,→,0.3844167999923229,True,28,1
KM-K-22K22S2,957,experiment,102,↓,down,↓,0.5865593999624252,True,28,0
KM-K-22K22S2,958,experiment,103,←,left,←,0.4483476001769304,True,28,1
KM-K-22K22S2,959,experiment,83,↑,up,↑,0.5866129999049008,True,28,1
KM-K-22K22S2,960,experiment,59,→,right,→,0.5508287998382002,True,28,1
KM-K-22K22S2,961,experiment,56,←,left,←,0.5421325999777764,True,28,1
KM-K-22K22S2,962,experiment,70,↓,down,↓,0.42472360003739595,True,28,1
KM-K-22K22S2,963,experiment,98,→,right,→,0.41515380004420877,True,28,1
KM-K-22K22S2,964,experiment,49,↑,up,↑,0.4061034000478685,True,28,1
KM-K-22K22S2,965,experiment,66,↑,no_key,no_letter,-1.0,False,28,0
KM-K-22K22S2,966,experiment,72,→,no_key,no_letter,-1.0,False,28,1
KM-K-22K22S2,967,experiment,101,↓,down,↓,0.4207472999114543,True,28,1
KM-K-22K22S2,968,experiment,53,↑,down,↓,0.6335670999251306,False,28,1
KM-K-22K22S2,969,experiment,71,↑,up,↑,0.6641536999959499,True,28,1
KM-K-22K22S2,970,experiment,100,→,right,→,0.49985640007071197,True,28,1
KM-K-22K22S2,971,experiment,50,→,right,→,0.5112311001867056,True,28,1
KM-K-22K22S2,972,experiment,97,←,left,←,0.47373039997182786,True,28,1
KM-K-22K22S2,973,experiment,54,↑,up,↑,0.4282367001287639,True,28,1
KM-K-22K22S2,974,experiment,82,→,right,→,0.5674919001758099,True,28,1
KM-K-22K22S2,975,experiment,87,↓,down,↓,0.4675656999461353,True,28,1
KM-K-22K22S2,976,experiment,89,↓,down,↓,0.5789751000702381,True,28,1
KM-K-22K22S2,977,experiment,63,↑,up,↑,0.5664349000435323,True,28,1
KM-K-22K22S2,978,experiment,77,↓,down,↓,0.48563849995844066,True,28,1
KM-K-22K22S2,979,experiment,93,↑,up,↑,0.45126890018582344,True,28,1
KM-K-22K22S2,980,experiment,90,→,right,→,0.563041899818927,True,28,1
KM-K-22K22S2,981,experiment,73,↓,down,↓,0.555816899985075,True,28,1
KM-K-22K22S2,982,experiment,88,←,left,←,0.6317661998327821,True,28,1
KM-K-22K22S2,983,experiment,85,↓,down,↓,0.4259715999942273,True,28,1
KM-K-22K22S2,984,experiment,94,←,left,←,0.4570772999431938,True,28,1
KM-K-22K22S2,985,experiment,51,→,right,→,0.37554939999245107,True,28,1
KM-K-22K22S2,986,training,60,↑,up,↑,0.6570021000225097,True,28,0
KM-K-22K22S2,987,training,84,↑,up,↑,0.5144422000739723,True,28,1
KM-K-22K22S2,988,experiment,67,↑,up,↑,0.3680370000656694,True,28,1
KM-K-22K22S2,989,experiment,89,↑,up,↑,0.5301884999498725,True,28,0
KM-K-22K22S2,990,experiment,96,→,right,→,0.40544510004110634,True,28,1
KM-K-22K22S2,991,experiment,56,←,left,←,0.4574803998693824,True,28,1
KM-K-22K22S2,992,experiment,108,←,left,←,0.6186338998377323,True,28,1
KM-K-22K22S2,993,experiment,51,→,right,→,0.5368645000271499,True,28,1
KM-K-22K22S2,994,experiment,93,↑,up,↑,0.40494030015543103,True,28,1
KM-K-22K22S2,995,experiment,78,←,left,←,0.41770310001447797,True,28,1
KM-K-22K22S2,996,experiment,100,↓,down,↓,0.4075791002251208,True,28,1
KM-K-22K22S2,997,experiment,60,→,right,→,0.351041599875316,True,28,1
KM-K-22K22S2,998,experiment,55,→,right,→,0.5535921999253333,True,28,0
KM-K-22K22S2,999,experiment,57,↑,up,↑,0.551948299864307,True,28,1
KM-K-22K22S2,1000,experiment,48,→,right,→,0.5376974998507649,True,28,1
KM-K-22K22S2,1001,experiment,86,←,left,←,0.6952484999783337,True,28,1
KM-K-22K22S2,1002,experiment,49,↑,up,↑,0.5065838000737131,True,28,1
KM-K-22K22S2,1003,experiment,83,←,left,←,0.6261545999441296,True,28,1
KM-K-22K22S2,1004,experiment,73,↑,right,→,0.6647119000554085,False,28,1
KM-K-22K22S2,1005,experiment,50,→,right,→,0.5810759000014514,True,28,1
KM-K-22K22S2,1006,experiment,91,→,right,→,0.6071871998719871,True,28,1
KM-K-22K22S2,1007,experiment,101,←,left,←,0.49332859995774925,True,28,1
KM-K-22K22S2,1008,experiment,69,→,right,→,0.5059214998036623,True,28,1
KM-K-22K22S2,1009,experiment,95,↑,up,↑,0.43768870015628636,True,28,1
KM-K-22K22S2,1010,experiment,103,↑,up,↑,0.5378152001649141,True,28,1
KM-K-22K22S2,1011,experiment,82,←,left,←,0.6242878998164088,True,28,1
KM-K-22K22S2,1012,experiment,66,←,left,←,0.4254711999092251,True,28,1
KM-K-22K22S2,1013,experiment,70,↑,up,↑,0.5769402999430895,True,28,1
KM-K-22K22S2,1014,experiment,90,↑,up,↑,0.40427440009079874,True,28,1
KM-K-22K22S2,1015,experiment,85,→,right,→,0.6223075001034886,True,28,1
KM-K-22K22S2,1016,experiment,64,↑,up,↑,0.3762583998031914,True,28,1
KM-K-22K22S2,1017,experiment,61,→,right,→,0.5236359999980778,True,28,0
KM-K-22K22S2,1018,experiment,74,↓,down,↓,0.5496704000979662,True,28,1
KM-K-22K22S2,1019,experiment,76,←,right,→,0.8381617998238653,False,28,1
KM-K-22K22S2,1020,experiment,59,↑,no_key,no_letter,-1.0,False,28,1
KM-K-22K22S2,1021,experiment,71,↓,no_key,no_letter,-1.0,False,28,1
KM-K-22K22S2,1022,experiment,58,↓,down,↓,0.38428350002504885,True,28,1
KM-K-22K22S2,1023,experiment,94,←,right,→,0.7092876001261175,False,28,0
KM-K-22K22S2,1024,experiment,87,←,left,←,0.7080502999015152,True,28,1
KM-K-22K22S2,1025,experiment,104,→,right,→,0.5404219999909401,True,28,1
KM-K-22K22S2,1026,experiment,106,→,no_key,no_letter,-1.0,False,28,1
KM-K-22K22S2,1027,experiment,65,→,right,→,0.44889170001260936,True,28,1
KM-K-22K22S2,1028,experiment,88,→,right,→,0.48934139986522496,True,28,1
KM-K-22K22S2,1029,experiment,107,←,left,←,0.6977621999103576,True,28,1
KM-K-22K22S2,1030,experiment,79,←,right,→,0.499060699949041,False,28,1
KM-K-22K22S2,1031,experiment,97,←,left,←,0.5582995000295341,True,28,1
KM-K-22K22S2,1032,experiment,62,↑,up,↑,0.5952465999871492,True,28,1
KM-K-22K22S2,1033,experiment,84,↓,no_key,no_letter,-1.0,False,28,1
KM-K-22K22S2,1034,experiment,102,→,no_key,no_letter,-1.0,False,28,1
KM-K-22K22S2,1035,experiment,75,↓,down,↓,0.547078900039196,True,28,1
KM-K-22K22S2,1036,experiment,92,→,right,→,0.3842589999549091,True,28,1
KM-K-22K22S2,1037,experiment,81,↑,up,↑,0.4271442999597639,True,28,1
KM-K-22K22S2,1038,experiment,77,←,left,←,0.6322480998933315,True,28,1
KM-K-22K22S2,1039,experiment,53,→,right,→,0.41327879996970296,True,28,1
KM-K-22K22S2,1040,experiment,52,↑,up,↑,0.45072880014777184,True,28,1
KM-K-22K22S2,1041,experiment,80,→,right,→,0.3672470001038164,True,28,1
KM-K-22K22S2,1042,experiment,98,↓,down,↓,0.453791500069201,True,28,0
KM-K-22K22S2,1043,experiment,99,←,left,←,0.4825983999762684,True,28,1
KM-K-22K22S2,1044,experiment,54,↓,no_key,no_letter,-1.0,False,28,1
KM-K-22K22S2,1045,experiment,63,↓,down,↓,0.603101700078696,True,28,1
KM-K-22K22S2,1046,experiment,105,→,right,→,0.4320747999008745,True,28,1
KM-K-22K22S2,1047,experiment,68,↑,up,↑,0.45557860005646944,True,28,1
KM-K-22K22S2,1048,experiment,72,↑,up,↑,0.3760007000528276,True,28,1
KM-K-22K22S2,1049,training,93,→,right,→,0.477213499834761,True,28,0
KM-K-22K22S2,1050,training,81,←,left,←,0.559120399877429,True,28,1
KM-K-22K22S2,1051,experiment,59,↑,up,↑,0.5165901000145823,True,28,1
KM-K-22K22S2,1052,experiment,88,→,right,→,0.570344400126487,True,28,1
KM-K-22K22S2,1053,experiment,66,→,right,→,0.5255244001746178,True,28,1
KM-K-22K22S2,1054,experiment,81,←,left,←,0.6933089999947697,True,28,1
KM-K-22K22S2,1055,experiment,63,→,right,→,0.5643394000362605,True,28,1
KM-K-22K22S2,1056,experiment,69,←,left,←,0.43038640008307993,True,28,1
KM-K-22K22S2,1057,experiment,104,→,right,→,0.4899144000373781,True,28,1
KM-K-22K22S2,1058,experiment,82,→,right,→,0.5308120001573116,True,28,1
KM-K-22K22S2,1059,experiment,100,←,left,←,0.8038284999784082,True,28,1
KM-K-22K22S2,1060,experiment,93,↑,up,↑,0.5324935000389814,True,28,1
KM-K-22K22S2,1061,experiment,85,→,no_key,no_letter,-1.0,False,28,1
KM-K-22K22S2,1062,experiment,62,→,right,→,0.5290778998751193,True,28,1
KM-K-22K22S2,1063,experiment,84,↓,down,↓,0.6875640999060124,True,28,1
KM-K-22K22S2,1064,experiment,64,→,right,→,0.4223557999357581,True,28,1
KM-K-22K22S2,1065,experiment,52,↓,down,↓,0.43563480000011623,True,28,1
KM-K-22K22S2,1066,experiment,74,→,right,→,0.35934630013071,True,28,1
KM-K-22K22S2,1067,experiment,58,→,right,→,0.3359854998998344,True,28,0
KM-K-22K22S2,1068,experiment,54,↓,no_key,no_letter,-1.0,False,28,0
KM-K-22K22S2,1069,experiment,71,↓,down,↓,0.4746643998660147,True,28,1
KM-K-22K22S2,1070,experiment,57,→,right,→,0.5162549000233412,True,28,1
KM-K-22K22S2,1071,experiment,67,←,left,←,0.48918259982019663,True,28,1
KM-K-22K22S2,1072,experiment,76,←,left,←,0.6676906999200583,True,28,1
KM-K-22K22S2,1073,experiment,96,→,right,→,0.35943770012818277,True,28,1
KM-K-22K22S2,1074,experiment,60,←,left,←,0.6459532000590116,True,28,1
KM-K-22K22S2,1075,experiment,94,↓,no_key,no_letter,-1.0,False,28,1
KM-K-22K22S2,1076,experiment,103,→,right,→,0.49345369986258447,True,28,1
KM-K-22K22S2,1077,experiment,50,↑,up,↑,0.4808130001183599,True,28,1
KM-K-22K22S2,1078,experiment,70,←,left,←,0.5900642999913543,True,28,1
KM-K-22K22S2,1079,experiment,102,↑,up,↑,0.5960335000418127,True,28,1
KM-K-22K22S2,1080,experiment,48,↓,down,↓,0.5636487000156194,True,28,1
KM-K-22K22S2,1081,experiment,90,←,left,←,0.4308082000352442,True,28,1
KM-K-22K22S2,1082,experiment,53,↑,up,↑,0.44356260006316006,True,28,1
KM-K-22K22S2,1083,experiment,83,←,left,←,0.4459520000964403,True,28,1
KM-K-22K22S2,1084,experiment,87,↑,up,↑,0.6950725000351667,True,28,1
KM-K-22K22S2,1085,experiment,101,↑,up,↑,0.60919119999744,True,28,1
KM-K-22K22S2,1086,experiment,108,←,left,←,0.42836200003512204,True,28,1
KM-K-22K22S2,1087,experiment,72,↓,down,↓,0.6108768000267446,True,28,1
KM-K-22K22S2,1088,experiment,106,↓,down,↓,0.574962800135836,True,28,1
KM-K-22K22S2,1089,experiment,98,↑,up,↑,0.4078349000774324,True,28,1
KM-K-22K22S2,1090,experiment,107,→,right,→,0.6667903000488877,True,28,1
KM-K-22K22S2,1091,experiment,51,↑,up,↑,0.44668979989364743,True,28,1
KM-K-22K22S2,1092,experiment,99,→,right,→,0.4043152001686394,True,28,1
KM-K-22K22S2,1093,experiment,77,↓,down,↓,0.5850817000027746,True,28,1
KM-K-22K22S2,1094,experiment,78,↑,up,↑,0.4154110001400113,True,28,1
KM-K-22K22S2,1095,experiment,56,↑,up,↑,0.6520430999808013,True,28,1
KM-K-22K22S2,1096,experiment,55,↓,down,↓,0.4232481000944972,True,28,1
KM-K-22K22S2,1097,experiment,49,←,left,←,0.47761960001662374,True,28,1
KM-K-22K22S2,1098,experiment,92,←,left,←,0.7556876000016928,True,28,1
KM-K-22K22S2,1099,experiment,79,↓,down,↓,0.4427369001787156,True,28,1
KM-K-22K22S2,1100,experiment,86,←,left,←,0.4281027000397444,True,28,1
KM-K-22K22S2,1101,experiment,80,←,left,←,0.4725420998875052,True,28,1
KM-K-22K22S2,1102,experiment,75,←,left,←,0.4279879000969231,True,28,1
KM-K-22K22S2,1103,experiment,91,↓,down,↓,0.5804804000072181,True,28,1
KM-K-22K22S2,1104,experiment,73,↓,down,↓,0.5564929000101984,True,28,1
KM-K-22K22S2,1105,experiment,95,↓,down,↓,0.5100966999307275,True,28,1
KM-K-22K22S2,1106,experiment,61,↑,up,↑,0.6292423999402672,True,28,1
KM-K-22K22S2,1107,experiment,105,←,left,←,0.48841860005632043,True,28,1
KM-K-22K22S2,1108,experiment,65,→,right,→,0.367207899922505,True,28,1
KM-K-22K22S2,1109,experiment,89,↓,down,↓,0.4979503999929875,True,28,0
KM-K-22K22S2,1110,experiment,97,↓,down,↓,0.4853466998320073,True,28,1
KM-K-22K22S2,1111,experiment,68,↓,down,↓,0.48296030005440116,True,28,1
KM-K-22K22S2,1112,training,68,↓,down,↓,0.41940260003320873,True,28,0
KM-K-22K22S2,1113,training,56,←,left,←,0.44743139995262027,True,28,1
KM-K-22K22S2,1114,experiment,103,→,right,→,0.5547819000203162,True,28,1
KM-K-22K22S2,1115,experiment,78,←,left,←,0.6424873000942171,True,28,1
KM-K-22K22S2,1116,experiment,61,↑,up,↑,0.5640386000741273,True,28,1
KM-K-22K22S2,1117,experiment,50,↑,up,↑,0.5164677000138909,True,28,1
KM-K-22K22S2,1118,experiment,63,→,right,→,0.45041990000754595,True,28,1
KM-K-22K22S2,1119,experiment,55,→,right,→,0.48595879995264113,True,28,1
KM-K-22K22S2,1120,experiment,83,→,right,→,0.3844980001449585,True,28,1
KM-K-22K22S2,1121,experiment,71,←,left,←,0.5432539000175893,True,28,0
KM-K-22K22S2,1122,experiment,57,→,right,→,0.49453649995848536,True,28,1
KM-K-22K22S2,1123,experiment,75,→,right,→,0.5613979999907315,True,28,1
KM-K-22K22S2,1124,experiment,72,→,right,→,0.5144987998064607,True,28,1
KM-K-22K22S2,1125,experiment,79,←,left,←,0.45120019977912307,True,28,1
KM-K-22K22S2,1126,experiment,80,←,left,←,0.6781106998678297,True,28,1
KM-K-22K22S2,1127,experiment,64,↓,down,↓,0.4934223999734968,True,28,1
KM-K-22K22S2,1128,experiment,89,→,no_key,no_letter,-1.0,False,28,1
KM-K-22K22S2,1129,experiment,60,↓,down,↓,0.523205199977383,True,28,1
KM-K-22K22S2,1130,experiment,86,→,right,→,0.4092094001825899,True,28,1
KM-K-22K22S2,1131,experiment,102,←,left,←,0.5106959999538958,True,28,1
KM-K-22K22S2,1132,experiment,85,←,right,→,0.4859193000011146,False,28,1
KM-K-22K22S2,1133,experiment,91,↑,up,↑,0.5158132999204099,True,28,1
KM-K-22K22S2,1134,experiment,48,↓,down,↓,0.40736549999564886,True,28,1
KM-K-22K22S2,1135,experiment,81,↑,up,↑,0.4267353001050651,True,28,1
KM-K-22K22S2,1136,experiment,93,↑,up,↑,0.37622409989126027,True,28,1
KM-K-22K22S2,1137,experiment,58,←,left,←,0.7276189001277089,True,28,1
KM-K-22K22S2,1138,experiment,59,↓,down,↓,0.558617000002414,True,28,1
KM-K-22K22S2,1139,experiment,98,→,right,→,0.6073870998807251,True,28,1
KM-K-22K22S2,1140,experiment,62,←,left,←,0.45796589995734394,True,28,1
KM-K-22K22S2,1141,experiment,76,←,left,←,0.5742377999704331,True,28,1
KM-K-22K22S2,1142,experiment,65,←,left,←,0.4172268998809159,True,28,1
KM-K-22K22S2,1143,experiment,68,←,left,←,0.7137066000141203,True,28,1
KM-K-22K22S2,1144,experiment,97,←,right,→,0.7323529000859708,False,28,1
KM-K-22K22S2,1145,experiment,105,↑,up,↑,0.4518901000265032,True,28,1
KM-K-22K22S2,1146,experiment,74,→,right,→,0.36959540005773306,True,28,1
KM-K-22K22S2,1147,experiment,100,↑,up,↑,0.6161502001341432,True,28,1
KM-K-22K22S2,1148,experiment,96,→,right,→,0.5033388000447303,True,28,1
KM-K-22K22S2,1149,experiment,56,→,right,→,0.5203358000144362,True,28,1
KM-K-22K22S2,1150,experiment,94,→,right,→,0.4919173000380397,True,28,1
KM-K-22K22S2,1151,experiment,82,→,right,→,0.3256210000254214,True,28,1
KM-K-22K22S2,1152,experiment,104,→,right,→,0.5005698001477867,True,28,0
KM-K-22K22S2,1153,experiment,101,↑,up,↑,0.6467311000451446,True,28,1
KM-K-22K22S2,1154,experiment,92,←,left,←,0.6135680000297725,True,28,1
KM-K-22K22S2,1155,experiment,70,↑,up,↑,0.6134754999075085,True,28,1
KM-K-22K22S2,1156,experiment,106,↓,down,↓,0.4808700999710709,True,28,1
KM-K-22K22S2,1157,experiment,107,↓,down,↓,0.40967079997062683,True,28,1
KM-K-22K22S2,1158,experiment,66,←,left,←,0.491082499967888,True,28,1
KM-K-22K22S2,1159,experiment,73,→,right,→,0.38499719998799264,True,28,1
KM-K-22K22S2,1160,experiment,87,←,right,→,0.6259212999138981,False,28,1
KM-K-22K22S2,1161,experiment,67,↑,up,↑,0.4344919000286609,True,28,1
KM-K-22K22S2,1162,experiment,84,→,right,→,0.557014900026843,True,28,1
KM-K-22K22S2,1163,experiment,88,←,left,←,0.6727934998925775,True,28,1
KM-K-22K22S2,1164,experiment,53,←,left,←,0.6439028999302536,True,28,1
KM-K-22K22S2,1165,experiment,52,↑,up,↑,0.5526815999764949,True,28,1
KM-K-22K22S2,1166,experiment,77,→,right,→,0.342624899931252,True,28,1
KM-K-22K22S2,1167,experiment,49,→,right,→,0.5137569000944495,True,28,0
KM-K-22K22S2,1168,experiment,90,↑,up,↑,0.5910498001612723,True,28,1
KM-K-22K22S2,1169,experiment,54,←,left,←,0.6850501999724656,True,28,1
KM-K-22K22S2,1170,experiment,99,→,right,→,0.4803135998081416,True,28,1
KM-K-22K22S2,1171,experiment,108,→,right,→,0.46468290011398494,True,28,1
KM-K-22K22S2,1172,experiment,51,↑,up,↑,0.620744900079444,True,28,1
KM-K-22K22S2,1173,experiment,69,←,left,←,0.46052530012093484,True,28,1
KM-K-22K22S2,1174,experiment,95,↑,up,↑,0.4662728998810053,True,28,1
KM-K-22K22S2,1175,training,99,↓,down,↓,0.41283860011026263,True,28,0
KM-K-22K22S2,1176,training,96,→,right,→,0.3761084999423474,True,28,1
KM-K-22K22S2,1177,experiment,62,↑,up,↑,0.3681222000159323,True,28,1
KM-K-22K22S2,1178,experiment,71,→,right,→,0.5283417999744415,True,28,1
KM-K-22K22S2,1179,experiment,65,↓,down,↓,0.429475300014019,True,28,1
KM-K-22K22S2,1180,experiment,98,↓,down,↓,0.643392400117591,True,28,1
KM-K-22K22S2,1181,experiment,105,←,left,←,0.4781962998677045,True,28,1
KM-K-22K22S2,1182,experiment,93,→,right,→,0.41993320011533797,True,28,1
KM-K-22K22S2,1183,experiment,55,↓,down,↓,0.6002257999498397,True,28,1
KM-K-22K22S2,1184,experiment,84,→,right,→,0.41209449991583824,True,28,1
KM-K-22K22S2,1185,experiment,90,↑,up,↑,0.42105519981123507,True,28,1
KM-K-22K22S2,1186,experiment,67,↑,up,↑,0.3182029000017792,True,28,1
KM-K-22K22S2,1187,experiment,79,↓,down,↓,0.4773299000225961,True,28,0
KM-K-22K22S2,1188,experiment,106,↓,down,↓,0.40751260006800294,True,28,1
KM-K-22K22S2,1189,experiment,77,↑,up,↑,0.3842405001632869,True,28,1
KM-K-22K22S2,1190,experiment,96,←,left,←,0.7400728999637067,True,28,0
KM-K-22K22S2,1191,experiment,97,→,right,→,0.414015700109303,True,28,1
KM-K-22K22S2,1192,experiment,104,←,right,→,0.6822858999948949,False,28,1
KM-K-22K22S2,1193,experiment,56,↓,down,↓,0.46008320013061166,True,28,1
KM-K-22K22S2,1194,experiment,52,↓,no_key,no_letter,-1.0,False,28,1
KM-K-22K22S2,1195,experiment,68,→,right,→,0.5649735000915825,True,28,1
KM-K-22K22S2,1196,experiment,95,↑,up,↑,0.44632959994487464,True,28,1
KM-K-22K22S2,1197,experiment,81,→,right,→,0.5369883999228477,True,28,1
KM-K-22K22S2,1198,experiment,100,↓,no_key,no_letter,-1.0,False,28,1
KM-K-22K22S2,1199,experiment,53,←,left,←,0.45173160010017455,True,28,1
KM-K-22K22S2,1200,experiment,49,↑,right,→,0.7050332999788225,False,28,1
KM-K-22K22S2,1201,experiment,78,→,right,→,0.618583400035277,True,28,1
KM-K-22K22S2,1202,experiment,69,→,right,→,0.49874629988335073,True,28,1
KM-K-22K22S2,1203,experiment,73,→,right,→,0.43001890019513667,True,28,1
KM-K-22K22S2,1204,experiment,92,→,right,→,0.3592300999443978,True,28,1
KM-K-22K22S2,1205,experiment,107,↑,up,↑,0.5553095999639481,True,28,0
KM-K-22K22S2,1206,experiment,51,←,left,←,0.46755219995975494,True,28,1
KM-K-22K22S2,1207,experiment,58,↓,down,↓,0.3843592999037355,True,28,1
KM-K-22K22S2,1208,experiment,82,↑,up,↑,0.6019685999490321,True,28,0
KM-K-22K22S2,1209,experiment,87,↓,down,↓,0.4054405000060797,True,28,1
KM-K-22K22S2,1210,experiment,54,→,right,→,0.5543051001150161,True,28,1
KM-K-22K22S2,1211,experiment,80,↓,down,↓,0.5209647000301629,True,28,1
KM-K-22K22S2,1212,experiment,108,→,right,→,0.5675769001245499,True,28,1
KM-K-22K22S2,1213,experiment,101,→,right,→,0.478944499976933,True,28,1
KM-K-22K22S2,1214,experiment,103,→,right,→,0.40981709980405867,True,28,1
KM-K-22K22S2,1215,experiment,74,↑,up,↑,0.5355642999056727,True,28,1
KM-K-22K22S2,1216,experiment,61,↓,down,↓,0.8136317001190037,True,28,1
KM-K-22K22S2,1217,experiment,50,←,left,←,0.691969099920243,True,28,1
KM-K-22K22S2,1218,experiment,86,↑,up,↑,0.4273747999686748,True,28,1
KM-K-22K22S2,1219,experiment,76,↑,up,↑,0.5207578998524696,True,28,1
KM-K-22K22S2,1220,experiment,59,→,right,→,0.4876365000382066,True,28,1
KM-K-22K22S2,1221,experiment,63,→,right,→,0.33363669994287193,True,28,1
KM-K-22K22S2,1222,experiment,102,↓,down,↓,0.38394790003076196,True,28,0
KM-K-22K22S2,1223,experiment,91,↓,down,↓,0.4810845998581499,True,28,0
KM-K-22K22S2,1224,experiment,57,↓,down,↓,0.5385208998341113,True,28,1
KM-K-22K22S2,1225,experiment,75,←,left,←,0.4597036000341177,True,28,1
KM-K-22K22S2,1226,experiment,88,↑,up,↑,0.5398039000574499,True,28,1
KM-K-22K22S2,1227,experiment,64,→,no_key,no_letter,-1.0,False,28,1
KM-K-22K22S2,1228,experiment,66,←,left,←,0.461988199967891,True,28,1
KM-K-22K22S2,1229,experiment,83,↑,up,↑,0.3844014999922365,True,28,1
KM-K-22K22S2,1230,experiment,70,←,left,←,0.4480449000839144,True,28,0
KM-K-22K22S2,1231,experiment,48,←,left,←,0.36760980007238686,True,28,1
KM-K-22K22S2,1232,experiment,85,←,left,←,0.426242999965325,True,28,0
KM-K-22K22S2,1233,experiment,72,↑,up,↑,0.40917059988714755,True,28,1
KM-K-22K22S2,1234,experiment,99,→,right,→,0.3761054999195039,True,28,1
KM-K-22K22S2,1235,experiment,94,←,no_key,no_letter,-1.0,False,28,0
KM-K-22K22S2,1236,experiment,60,↓,up,↑,0.6397535998839885,False,28,1
KM-K-22K22S2,1237,experiment,89,→,right,→,0.6401269000489265,True,28,1
KM-K-22K22S2,1238,training,80,↓,down,↓,0.40395100018940866,True,28,0
KM-K-22K22S2,1239,training,74,←,left,←,0.4500998000148684,True,28,0
KM-K-22K22S2,1240,experiment,77,←,left,←,0.4223478001076728,True,28,1
KM-K-22K22S2,1241,experiment,86,↑,no_key,no_letter,-1.0,False,28,1
KM-K-22K22S2,1242,experiment,100,→,right,→,0.5225370000116527,True,28,1
KM-K-22K22S2,1243,experiment,82,→,right,→,0.4817753001116216,True,28,1
KM-K-22K22S2,1244,experiment,55,↑,up,↑,0.48400490009225905,True,28,1
KM-K-22K22S2,1245,experiment,66,←,left,←,0.6104896999895573,True,28,1
KM-K-22K22S2,1246,experiment,88,↓,no_key,no_letter,-1.0,False,28,1
KM-K-22K22S2,1247,experiment,69,↑,up,↑,0.5768455001525581,True,28,1
KM-K-22K22S2,1248,experiment,95,↓,down,↓,0.6338690998964012,True,28,1
KM-K-22K22S2,1249,experiment,98,←,left,←,0.6473813001066446,True,28,1
KM-K-22K22S2,1250,experiment,104,→,right,→,0.4031764001119882,True,28,1
KM-K-22K22S2,1251,experiment,92,↑,up,↑,0.5395637999754399,True,28,0
KM-K-22K22S2,1252,experiment,102,←,no_key,no_letter,-1.0,False,28,1
KM-K-22K22S2,1253,experiment,105,←,left,←,0.420005900086835,True,28,1
KM-K-22K22S2,1254,experiment,94,→,right,→,0.5391285000368953,True,28,1
KM-K-22K22S2,1255,experiment,80,↑,up,↑,0.37608640012331307,True,28,1
KM-K-22K22S2,1256,experiment,67,↓,no_key,no_letter,-1.0,False,28,1
KM-K-22K22S2,1257,experiment,83,↑,up,↑,0.572589100105688,True,28,1
KM-K-22K22S2,1258,experiment,61,↓,down,↓,0.4093667999841273,True,28,1
KM-K-22K22S2,1259,experiment,70,←,left,←,0.4406755000818521,True,28,1
KM-K-22K22S2,1260,experiment,103,←,left,←,0.42858290020376444,True,28,1
KM-K-22K22S2,1261,experiment,48,→,right,→,0.42696089996024966,True,28,1
KM-K-22K22S2,1262,experiment,58,↓,down,↓,0.40653559984639287,True,28,1
KM-K-22K22S2,1263,experiment,108,→,right,→,0.6014316000510007,True,28,0
KM-K-22K22S2,1264,experiment,56,→,right,→,0.42265730001963675,True,28,1
KM-K-22K22S2,1265,experiment,84,←,left,←,0.5612279002089053,True,28,1
KM-K-22K22S2,1266,experiment,76,←,left,←,0.505480500170961,True,28,1
KM-K-22K22S2,1267,experiment,106,←,right,→,0.5533073998522013,False,28,1
KM-K-22K22S2,1268,experiment,79,←,left,←,0.6403648999985307,True,28,1
KM-K-22K22S2,1269,experiment,91,↑,up,↑,0.4560885999817401,True,28,1
KM-K-22K22S2,1270,experiment,59,←,left,←,0.6018954000901431,True,28,1
KM-K-22K22S2,1271,experiment,63,↓,down,↓,0.42828800017014146,True,28,1
KM-K-22K22S2,1272,experiment,81,→,no_key,no_letter,-1.0,False,28,1
KM-K-22K22S2,1273,experiment,52,←,left,←,0.46615699981339276,True,28,1
KM-K-22K22S2,1274,experiment,54,←,left,←,0.6294658998958766,True,28,1
KM-K-22K22S2,1275,experiment,60,↑,up,↑,0.5596622000448406,True,28,1
KM-K-22K22S2,1276,experiment,89,←,right,→,0.49143320019356906,False,28,1
KM-K-22K22S2,1277,experiment,78,→,right,→,0.4614794000517577,True,28,1
KM-K-22K22S2,1278,experiment,64,↑,up,↑,0.5896106997970492,True,28,1
KM-K-22K22S2,1279,experiment,75,←,left,←,0.4290585999842733,True,28,1
KM-K-22K22S2,1280,experiment,72,→,right,→,0.49110600003041327,True,28,1
KM-K-22K22S2,1281,experiment,50,↑,up,↑,0.40723410015925765,True,28,1
KM-K-22K22S2,1282,experiment,71,←,left,←,0.718345999950543,True,28,1
KM-K-22K22S2,1283,experiment,74,↓,down,↓,0.5848549001384526,True,28,1
KM-K-22K22S2,1284,experiment,73,↑,up,↑,0.4568614000454545,True,28,1
KM-K-22K22S2,1285,experiment,93,→,right,→,0.47920430009253323,True,28,1
KM-K-22K22S2,1286,experiment,101,←,right,→,0.7697926999535412,False,28,1
KM-K-22K22S2,1287,experiment,99,↓,down,↓,0.44193980004638433,True,28,1
KM-K-22K22S2,1288,experiment,107,←,right,→,0.5322961998172104,False,28,1
KM-K-22K22S2,1289,experiment,90,←,left,←,0.640776899876073,True,28,1
KM-K-22K22S2,1290,experiment,85,→,right,→,0.32589720003306866,True,28,1
KM-K-22K22S2,1291,experiment,65,↑,up,↑,0.40766160003840923,True,28,0
KM-K-22K22S2,1292,experiment,49,←,left,←,0.438243200071156,True,28,1
KM-K-22K22S2,1293,experiment,68,↓,down,↓,0.5896915998309851,True,28,1
KM-K-22K22S2,1294,experiment,97,↑,up,↑,0.6294861000496894,True,28,1
KM-K-22K22S2,1295,experiment,51,→,right,→,0.5229410999454558,True,28,1
KM-K-22K22S2,1296,experiment,53,↑,up,↑,0.5079285998363048,True,28,1
KM-K-22K22S2,1297,experiment,96,→,no_key,no_letter,-1.0,False,28,1
KM-K-22K22S2,1298,experiment,62,↑,up,↑,0.43024070002138615,True,28,1
KM-K-22K22S2,1299,experiment,87,↑,up,↑,0.5755290000233799,True,28,1
KM-K-22K22S2,1300,experiment,57,↑,up,↑,0.4613212998956442,True,28,1
KM-K-22K22S2,1301,training,66,←,left,←,0.4040713000576943,True,28,0
KM-K-22K22S2,1302,training,108,↑,up,↑,0.344485699897632,True,28,0
KM-K-22K22S2,1303,experiment,91,↑,up,↑,0.3421400999650359,True,28,0
KM-K-22K22S2,1304,experiment,108,↑,up,↑,0.5033998999278992,True,28,0
KM-K-22K22S2,1305,experiment,66,→,no_key,no_letter,-1.0,False,28,1
KM-K-22K22S2,1306,experiment,54,→,right,→,0.7824514999520034,True,28,1
KM-K-22K22S2,1307,experiment,98,→,right,→,0.46191149996593595,True,28,1
KM-K-22K22S2,1308,experiment,102,↑,up,↑,0.4655083001125604,True,28,1
KM-K-22K22S2,1309,experiment,80,↑,up,↑,0.483981000026688,True,28,1
KM-K-22K22S2,1310,experiment,62,↑,up,↑,0.44367319997400045,True,28,1
KM-K-22K22S2,1311,experiment,79,→,right,→,0.37620859988965094,True,28,1
KM-K-22K22S2,1312,experiment,65,←,left,←,0.7141513000242412,True,28,1
KM-K-22K22S2,1313,experiment,77,↑,up,↑,0.4358423000667244,True,28,1
KM-K-22K22S2,1314,experiment,68,→,right,→,0.43537610000930727,True,28,1
KM-K-22K22S2,1315,experiment,99,←,left,←,0.6407312001101673,True,28,1
KM-K-22K22S2,1316,experiment,86,→,right,→,0.41008260007947683,True,28,1
KM-K-22K22S2,1317,experiment,87,↓,down,↓,0.40442779986187816,True,28,1
KM-K-22K22S2,1318,experiment,81,←,left,←,0.45690279989503324,True,28,0
KM-K-22K22S2,1319,experiment,88,←,left,←,0.7050650999881327,True,28,1
KM-K-22K22S2,1320,experiment,74,↑,up,↑,0.7636229998897761,True,28,1
KM-K-22K22S2,1321,experiment,85,←,left,←,0.656470499932766,True,28,1
KM-K-22K22S2,1322,experiment,67,→,right,→,0.6957993998657912,True,28,1
KM-K-22K22S2,1323,experiment,75,↓,down,↓,0.49813459999859333,True,28,1
KM-K-22K22S2,1324,experiment,104,→,no_key,no_letter,-1.0,False,28,1
KM-K-22K22S2,1325,experiment,52,→,right,→,0.49349669995717704,True,28,1
KM-K-22K22S2,1326,experiment,82,↓,down,↓,0.4302381998859346,True,28,1
KM-K-22K22S2,1327,experiment,97,↑,no_key,no_letter,-1.0,False,28,1
KM-K-22K22S2,1328,experiment,57,↓,down,↓,0.5008360999636352,True,28,1
KM-K-22K22S2,1329,experiment,73,→,right,→,0.44013199978508055,True,28,1
KM-K-22K22S2,1330,experiment,107,↑,up,↑,0.5866940999403596,True,28,1
KM-K-22K22S2,1331,experiment,58,←,left,←,0.663327099988237,True,28,1
KM-K-22K22S2,1332,experiment,51,←,left,←,0.43544370005838573,True,28,1
KM-K-22K22S2,1333,experiment,53,↓,down,↓,0.42435269989073277,True,28,1
KM-K-22K22S2,1334,experiment,55,↓,down,↓,0.580642799846828,True,28,1
KM-K-22K22S2,1335,experiment,72,↓,down,↓,0.4209151999093592,True,28,1
KM-K-22K22S2,1336,experiment,92,→,right,→,0.3344814998563379,True,28,1
KM-K-22K22S2,1337,experiment,90,←,left,←,0.4813158998731524,True,28,1
KM-K-22K22S2,1338,experiment,101,←,left,←,0.6758848000317812,True,28,1
KM-K-22K22S2,1339,experiment,100,↓,down,↓,0.5832614998798817,True,28,1
KM-K-22K22S2,1340,experiment,50,↑,up,↑,0.4229860999621451,True,28,1
KM-K-22K22S2,1341,experiment,64,↓,down,↓,0.3693532000761479,True,28,1
KM-K-22K22S2,1342,experiment,59,→,right,→,0.4292091999668628,True,28,0
KM-K-22K22S2,1343,experiment,61,←,left,←,0.45532170007936656,True,28,1
KM-K-22K22S2,1344,experiment,63,←,left,←,0.36925419978797436,True,28,1
KM-K-22K22S2,1345,experiment,84,←,right,→,0.8601971000898629,False,28,0
KM-K-22K22S2,1346,experiment,83,→,right,→,0.37515600002370775,True,28,1
KM-K-22K22S2,1347,experiment,78,→,right,→,0.428012500051409,True,28,0
KM-K-22K22S2,1348,experiment,96,↑,up,↑,0.38455850002355874,True,28,1
KM-K-22K22S2,1349,experiment,70,←,left,←,0.6836129000876099,True,28,1
KM-K-22K22S2,1350,experiment,56,↑,up,↑,0.557301500113681,True,28,1
KM-K-22K22S2,1351,experiment,48,↓,down,↓,0.5589360001031309,True,28,1
KM-K-22K22S2,1352,experiment,49,↑,up,↑,0.4718655999749899,True,28,1
KM-K-22K22S2,1353,experiment,94,→,right,→,0.35092220013029873,True,28,1
KM-K-22K22S2,1354,experiment,106,↑,up,↑,0.4118498999159783,True,28,1
KM-K-22K22S2,1355,experiment,95,↓,down,↓,1.4186420999467373,True,28,1
KM-K-22K22S2,1356,experiment,93,→,right,→,0.4346143000293523,True,28,1
KM-K-22K22S2,1357,experiment,89,←,right,→,0.342784299980849,False,28,1
KM-K-22K22S2,1358,experiment,105,→,right,→,0.4026508000679314,True,28,1
KM-K-22K22S2,1359,experiment,60,→,right,→,0.6134866999927908,True,28,0
KM-K-22K22S2,1360,experiment,76,↑,up,↑,0.4115282001439482,True,28,1
KM-K-22K22S2,1361,experiment,69,↑,up,↑,0.5712066001724452,True,28,1
KM-K-22K22S2,1362,experiment,103,←,left,←,0.6896306001581252,True,28,1
KM-K-22K22S2,1363,experiment,71,←,right,→,0.8944931000005454,False,28,1
KM-K-22K22S2,1364,training,57,←,left,←,0.4053919001016766,True,28,0
KM-K-22K22S2,1365,training,60,↑,up,↑,0.5365469001699239,True,28,1
KM-K-22K22S2,1366,experiment,85,←,left,←,0.43043749989010394,True,28,1
KM-K-22K22S2,1367,experiment,60,↓,down,↓,0.409437800059095,True,28,1
KM-K-22K22S2,1368,experiment,100,↑,up,↑,0.582678799983114,True,28,1
KM-K-22K22S2,1369,experiment,50,↑,up,↑,0.41482229996472597,True,28,1
KM-K-22K22S2,1370,experiment,54,→,right,→,0.38453370006754994,True,28,1
KM-K-22K22S2,1371,experiment,102,←,right,→,0.8255024999380112,False,28,1
KM-K-22K22S2,1372,experiment,96,←,left,←,0.6721938999835402,True,28,1
KM-K-22K22S2,1373,experiment,92,↓,down,↓,0.41446140012703836,True,28,1
KM-K-22K22S2,1374,experiment,75,→,right,→,0.36759659997187555,True,28,1
KM-K-22K22S2,1375,experiment,48,→,right,→,0.47709599998779595,True,28,0
KM-K-22K22S2,1376,experiment,99,←,left,←,0.456886800006032,True,28,1
KM-K-22K22S2,1377,experiment,52,→,right,→,0.5889362001325935,True,28,1
KM-K-22K22S2,1378,experiment,93,←,left,←,0.5900291001889855,True,28,1
KM-K-22K22S2,1379,experiment,53,←,right,→,0.5084323000628501,False,28,1
KM-K-22K22S2,1380,experiment,91,→,right,→,0.5935765998438001,True,28,1
KM-K-22K22S2,1381,experiment,97,→,right,→,0.37631079996936023,True,28,1
KM-K-22K22S2,1382,experiment,104,→,right,→,0.5349465000908822,True,28,0
KM-K-22K22S2,1383,experiment,66,→,right,→,0.4672902999445796,True,28,1
KM-K-22K22S2,1384,experiment,71,←,left,←,0.48077040002681315,True,28,1
KM-K-22K22S2,1385,experiment,86,←,left,←,0.46461400017142296,True,28,1
KM-K-22K22S2,1386,experiment,77,↓,down,↓,0.4123716000467539,True,28,1
KM-K-22K22S2,1387,experiment,80,↑,up,↑,0.6402960999403149,True,28,1
KM-K-22K22S2,1388,experiment,87,→,right,→,0.3678003998938948,True,28,1
KM-K-22K22S2,1389,experiment,69,↑,up,↑,0.5392946000210941,True,28,1
KM-K-22K22S2,1390,experiment,88,↓,down,↓,0.616001500049606,True,28,1
KM-K-22K22S2,1391,experiment,61,←,right,→,0.7386262000072747,False,28,1
KM-K-22K22S2,1392,experiment,95,↑,up,↑,0.5490959000308067,True,28,1
KM-K-22K22S2,1393,experiment,70,←,left,←,0.6793573000468314,True,28,1
KM-K-22K22S2,1394,experiment,107,←,left,←,0.38478700001724064,True,28,1
KM-K-22K22S2,1395,experiment,78,↓,down,↓,0.565730599919334,True,28,1
KM-K-22K22S2,1396,experiment,82,↑,no_key,no_letter,-1.0,False,28,1
KM-K-22K22S2,1397,experiment,49,↓,down,↓,0.4150975998491049,True,28,1
KM-K-22K22S2,1398,experiment,105,↑,up,↑,0.6506787999533117,True,28,1
KM-K-22K22S2,1399,experiment,64,↑,up,↑,0.515344399958849,True,28,1
KM-K-22K22S2,1400,experiment,90,↓,down,↓,0.5763294999487698,True,28,1
KM-K-22K22S2,1401,experiment,89,→,right,→,0.4118637000210583,True,28,1
KM-K-22K22S2,1402,experiment,65,↑,up,↑,0.5327239001635462,True,28,1
KM-K-22K22S2,1403,experiment,98,→,right,→,0.5185291999951005,True,28,1
KM-K-22K22S2,1404,experiment,51,→,no_key,no_letter,-1.0,False,28,1
KM-K-22K22S2,1405,experiment,79,↑,up,↑,0.42584109981544316,True,28,1
KM-K-22K22S2,1406,experiment,67,↓,down,↓,0.6099264998920262,True,28,1
KM-K-22K22S2,1407,experiment,62,→,right,→,0.5246510999277234,True,28,1
KM-K-22K22S2,1408,experiment,94,↑,up,↑,0.5599992000497878,True,28,1
KM-K-22K22S2,1409,experiment,84,←,left,←,0.42953449999913573,True,28,1
KM-K-22K22S2,1410,experiment,76,→,right,→,0.5465814000926912,True,28,1
KM-K-22K22S2,1411,experiment,106,↓,down,↓,0.5687418000306934,True,28,1
KM-K-22K22S2,1412,experiment,108,↑,up,↑,0.5975955000612885,True,28,1
KM-K-22K22S2,1413,experiment,68,←,left,←,0.6149748000316322,True,28,1
KM-K-22K22S2,1414,experiment,103,→,right,→,0.44325240002945065,True,28,1
KM-K-22K22S2,1415,experiment,81,↓,down,↓,0.5584473998751491,True,28,1
KM-K-22K22S2,1416,experiment,55,↑,up,↑,0.5494411000981927,True,28,1
KM-K-22K22S2,1417,experiment,101,↓,no_key,no_letter,-1.0,False,28,1
KM-K-22K22S2,1418,experiment,83,↑,up,↑,0.4211697999853641,True,28,1
KM-K-22K22S2,1419,experiment,57,↓,no_key,no_letter,-1.0,False,28,1
KM-K-22K22S2,1420,experiment,63,↑,down,↓,0.58367699990049,False,28,1
KM-K-22K22S2,1421,experiment,58,→,right,→,0.37612119992263615,True,28,1
KM-K-22K22S2,1422,experiment,59,↑,up,↑,0.44958549994044006,True,28,1
KM-K-22K22S2,1423,experiment,72,→,right,→,0.5431258000899106,True,28,1
KM-K-22K22S2,1424,experiment,56,↓,no_key,no_letter,-1.0,False,28,1
KM-K-22K22S2,1425,experiment,74,←,left,←,0.6976014000829309,True,28,1
KM-K-22K22S2,1426,experiment,73,↓,down,↓,0.5327052001375705,True,28,1
KM-K-22K22S2,1427,training,65,↓,down,↓,0.40181729989126325,True,28,0
KM-K-22K22S2,1428,training,58,←,left,←,0.4219656998757273,True,28,0
KM-K-22K22S2,1429,experiment,101,↑,up,↑,0.42675410001538694,True,28,1
KM-K-22K22S2,1430,experiment,76,←,right,→,0.6479030998889357,False,28,1
KM-K-22K22S2,1431,experiment,88,↑,no_key,no_letter,-1.0,False,28,1
KM-K-22K22S2,1432,experiment,89,↓,down,↓,0.3758070000912994,True,28,1
KM-K-22K22S2,1433,experiment,99,↓,right,→,0.6136350999586284,False,28,0
KM-K-22K22S2,1434,experiment,62,←,left,←,0.4078414000105113,True,28,1
KM-K-22K22S2,1435,experiment,51,→,right,→,0.462432999862358,True,28,1
KM-K-22K22S2,1436,experiment,84,←,left,←,0.5991997998207808,True,28,1
KM-K-22K22S2,1437,experiment,52,↑,up,↑,0.7899712999351323,True,28,1
KM-K-22K22S2,1438,experiment,70,←,left,←,0.7024681000038981,True,28,1
KM-K-22K22S2,1439,experiment,100,←,left,←,0.45696049998514354,True,28,1
KM-K-22K22S2,1440,experiment,65,←,left,←,0.4644237000029534,True,28,1
KM-K-22K22S2,1441,experiment,75,↑,up,↑,0.3676857000682503,True,28,1
KM-K-22K22S2,1442,experiment,78,←,right,→,0.699363499879837,False,28,1
KM-K-22K22S2,1443,experiment,49,↑,up,↑,0.5429201999213547,True,28,1
KM-K-22K22S2,1444,experiment,97,→,right,→,0.432523800060153,True,28,1
KM-K-22K22S2,1445,experiment,103,↓,down,↓,0.4052069999743253,True,28,1
