PART_ID,Trial_no,Trial_type,CSI,Stim_letter,Key_pressed,letter_choose,Rt,Corr,Stimulus Time,nDropped
KM-K-22K22S1,1,training,120,→,right,→,2.041497299913317,True,60,1
KM-K-22K22S1,2,training,120,↑,up,↑,0.8087185998447239,True,60,0
KM-K-22K22S1,3,training,120,↑,up,↑,0.801038300152868,True,60,0
KM-K-22K22S1,4,training,120,↑,up,↑,0.5752249998040497,True,60,0
KM-K-22K22S1,5,training,120,↑,up,↑,0.5509129001293331,True,60,0
KM-K-22K22S1,6,training,120,→,no_key,no_letter,-1.0,False,60,0
KM-K-22K22S1,7,training,120,←,left,←,0.6252521998248994,True,60,0
KM-K-22K22S1,8,training,120,↓,down,↓,0.6501176001038402,True,60,0
KM-K-22K22S1,9,training,120,↓,down,↓,0.8696659998968244,True,60,0
KM-K-22K22S1,10,training,120,→,right,→,0.6754769999533892,True,60,0
KM-K-22K22S1,11,training,120,↑,up,↑,0.8804860999807715,True,60,0
KM-K-22K22S1,12,training,120,→,right,→,0.7340995999984443,True,60,0
KM-K-22K22S1,13,training,120,←,left,←,0.8334375999402255,True,60,0
KM-K-22K22S1,14,training,120,→,right,→,0.6261649001389742,True,60,0
KM-K-22K22S1,15,training,120,↑,up,↑,0.8399058999493718,True,60,0
KM-K-22K22S1,16,training,120,↓,down,↓,0.7268855001311749,True,60,0
KM-K-22K22S1,17,training,120,→,no_key,no_letter,-1.0,False,60,0
KM-K-22K22S1,18,training,120,↓,down,↓,0.9165582000277936,True,60,0
KM-K-22K22S1,19,training,120,→,right,→,0.7045543000567704,True,60,0
KM-K-22K22S1,20,training,120,→,right,→,0.8372350998688489,True,60,0
KM-K-22K22S1,21,no_adaptation,120,←,left,←,0.5809970998670906,True,36,0
KM-K-22K22S1,22,no_adaptation,120,↑,up,↑,0.8301030998118222,True,36,0
KM-K-22K22S1,23,no_adaptation,120,→,right,→,0.7176750998478383,True,36,0
KM-K-22K22S1,24,no_adaptation,120,↓,down,↓,0.7534515999723226,True,36,0
KM-K-22K22S1,25,no_adaptation,120,↓,down,↓,0.7478195999283344,True,36,0
KM-K-22K22S1,26,no_adaptation,120,↑,up,↑,0.5586011002305895,True,36,0
KM-K-22K22S1,27,no_adaptation,120,↓,down,↓,0.8006650998722762,True,36,0
KM-K-22K22S1,28,no_adaptation,120,↓,down,↓,0.4893223000690341,True,36,0
KM-K-22K22S1,29,no_adaptation,120,→,right,→,0.6138806000817567,True,36,0
KM-K-22K22S1,30,no_adaptation,120,→,right,→,0.637861599912867,True,36,0
KM-K-22K22S1,31,no_adaptation,120,↑,down,↓,0.941047899890691,False,36,0
KM-K-22K22S1,32,no_adaptation,120,→,right,→,0.5679353000596166,True,36,0
KM-K-22K22S1,33,no_adaptation,120,→,right,→,0.7295852999668568,True,36,0
KM-K-22K22S1,34,no_adaptation,120,←,left,←,0.8456136998720467,True,36,0
KM-K-22K22S1,35,no_adaptation,120,←,left,←,0.6439693998545408,True,36,0
KM-K-22K22S1,36,no_adaptation,120,↑,up,↑,0.6347438001539558,True,36,0
KM-K-22K22S1,37,no_adaptation,120,↑,up,↑,0.6178403999656439,True,36,0
KM-K-22K22S1,38,no_adaptation,120,←,left,←,0.7696374000515789,True,36,0
KM-K-22K22S1,39,no_adaptation,120,↓,down,↓,0.4833319999743253,True,36,0
KM-K-22K22S1,40,no_adaptation,120,→,right,→,0.7525905999355018,True,36,0
KM-K-22K22S1,41,training,100,←,right,→,1.0909039999824017,False,36,0
KM-K-22K22S1,42,training,86,↓,down,↓,0.723357800161466,True,36,1
KM-K-22K22S1,43,experiment,98,←,left,←,0.4510508000385016,True,36,1
KM-K-22K22S1,44,experiment,100,↑,up,↑,0.7392835000064224,True,36,1
KM-K-22K22S1,45,experiment,92,↑,up,↑,0.5677161000203341,True,36,1
KM-K-22K22S1,46,experiment,108,←,left,←,0.4778041001409292,True,36,1
KM-K-22K22S1,47,experiment,107,↑,up,↑,0.7114520999602973,True,36,1
KM-K-22K22S1,48,experiment,72,↑,up,↑,0.5641084001399577,True,36,1
KM-K-22K22S1,49,experiment,85,←,left,←,0.6014708001166582,True,36,1
KM-K-22K22S1,50,experiment,56,→,right,→,0.735253999941051,True,36,1
KM-K-22K22S1,51,experiment,99,→,right,→,0.7376418998464942,True,36,1
KM-K-22K22S1,52,experiment,60,←,left,←,0.6566860000602901,True,36,1
KM-K-22K22S1,53,experiment,59,↑,up,↑,0.6432962000835687,True,36,1
KM-K-22K22S1,54,experiment,74,↑,up,↑,0.5375059999059886,True,36,1
KM-K-22K22S1,55,experiment,87,→,left,←,0.7276267998386174,False,36,1
KM-K-22K22S1,56,experiment,61,→,right,→,0.5906759998761117,True,36,1
KM-K-22K22S1,57,experiment,73,↓,down,↓,0.6152550999540836,True,36,1
KM-K-22K22S1,58,experiment,89,→,right,→,0.5857180999591947,True,36,1
KM-K-22K22S1,59,experiment,53,←,left,←,0.6887595001608133,True,36,1
KM-K-22K22S1,60,experiment,101,↓,down,↓,0.45125410007312894,True,36,1
KM-K-22K22S1,61,experiment,91,→,right,→,0.5722395998891443,True,36,1
KM-K-22K22S1,62,experiment,52,↓,down,↓,0.6203922000713646,True,36,1
KM-K-22K22S1,63,experiment,94,↑,up,↑,0.7730219000950456,True,36,1
KM-K-22K22S1,64,experiment,51,→,right,→,0.7493442001286894,True,36,1
KM-K-22K22S1,65,experiment,95,↓,down,↓,0.6964158001355827,True,36,1
KM-K-22K22S1,66,experiment,71,↑,up,↑,0.6373739000409842,True,36,1
KM-K-22K22S1,67,experiment,104,↓,down,↓,0.4898639000020921,True,36,1
KM-K-22K22S1,68,experiment,65,↓,down,↓,0.450080499984324,True,36,1
KM-K-22K22S1,69,experiment,69,↑,up,↑,0.632175900042057,True,36,0
KM-K-22K22S1,70,experiment,50,←,right,→,0.5910356999374926,False,36,1
KM-K-22K22S1,71,experiment,106,↓,down,↓,1.9084902999456972,True,36,1
KM-K-22K22S1,72,experiment,102,←,left,←,0.6476511000655591,True,36,1
KM-K-22K22S1,73,experiment,79,→,right,→,0.5798307000659406,True,36,1
KM-K-22K22S1,74,experiment,64,←,left,←,0.7118507002014667,True,36,1
KM-K-22K22S1,75,experiment,78,↑,up,↑,0.6099287001416087,True,36,1
KM-K-22K22S1,76,experiment,68,→,right,→,0.5234715000260621,True,36,1
KM-K-22K22S1,77,experiment,90,↑,up,↑,0.6654403998982161,True,36,1
KM-K-22K22S1,78,experiment,75,↓,no_key,no_letter,-1.0,False,36,1
KM-K-22K22S1,79,experiment,62,↓,no_key,no_letter,-1.0,False,36,1
KM-K-22K22S1,80,experiment,48,←,left,←,0.49428340001031756,True,36,1
KM-K-22K22S1,81,experiment,80,→,right,→,0.5519363000057638,True,36,1
KM-K-22K22S1,82,experiment,97,↑,up,↑,0.6901879999786615,True,36,1
KM-K-22K22S1,83,experiment,67,→,right,→,0.5693457999732345,True,36,1
KM-K-22K22S1,84,experiment,49,→,right,→,0.5544521000701934,True,36,1
KM-K-22K22S1,85,experiment,58,←,left,←,0.6092715999111533,True,36,1
KM-K-22K22S1,86,experiment,55,↑,up,↑,0.4716177999507636,True,36,1
KM-K-22K22S1,87,experiment,103,↑,up,↑,0.7066756000276655,True,36,0
KM-K-22K22S1,88,experiment,54,→,right,→,0.4503277998883277,True,36,1
KM-K-22K22S1,89,experiment,105,↓,right,→,0.8162336000241339,False,36,0
KM-K-22K22S1,90,experiment,88,↓,down,↓,0.43606740003451705,True,36,1
KM-K-22K22S1,91,experiment,96,←,right,→,0.5695984000340104,False,36,0
KM-K-22K22S1,92,experiment,57,↓,down,↓,0.5441892000380903,True,36,1
KM-K-22K22S1,93,experiment,81,←,left,←,0.48808669997379184,True,36,1
KM-K-22K22S1,94,experiment,83,↑,up,↑,0.561348200077191,True,36,1
KM-K-22K22S1,95,experiment,70,↑,no_key,no_letter,-1.0,False,36,1
KM-K-22K22S1,96,experiment,84,↑,up,↑,0.5863405000418425,True,36,1
KM-K-22K22S1,97,experiment,66,↑,up,↑,0.4855881000403315,True,36,1
KM-K-22K22S1,98,experiment,76,→,right,→,0.4812215999700129,True,36,1
KM-K-22K22S1,99,experiment,77,↓,down,↓,0.46892190002836287,True,36,1
KM-K-22K22S1,100,experiment,63,→,right,→,0.5812289998866618,True,36,0
KM-K-22K22S1,101,experiment,82,→,right,→,0.5391315000597388,True,36,1
KM-K-22K22S1,102,experiment,86,←,left,←,0.4975826998706907,True,36,1
KM-K-22K22S1,103,experiment,93,↓,down,↓,0.5752088001463562,True,36,1
KM-K-22K22S1,104,training,70,←,left,←,0.49767709989100695,True,36,0
KM-K-22K22S1,105,training,56,←,left,←,0.44226670009084046,True,36,1
KM-K-22K22S1,106,experiment,85,←,right,→,0.4509131999220699,False,36,1
KM-K-22K22S1,107,experiment,90,→,right,→,0.5020909998565912,True,36,1
KM-K-22K22S1,108,experiment,68,↓,down,↓,0.41758779995143414,True,36,1
KM-K-22K22S1,109,experiment,94,←,left,←,0.46876449999399483,True,36,0
KM-K-22K22S1,110,experiment,69,↓,no_key,no_letter,-1.0,False,36,1
KM-K-22K22S1,111,experiment,76,↓,down,↓,0.7878523000981659,True,36,1
KM-K-22K22S1,112,experiment,88,→,right,→,0.5196238998323679,True,36,1
KM-K-22K22S1,113,experiment,93,→,right,→,0.6361851999536157,True,36,1
KM-K-22K22S1,114,experiment,87,↑,right,→,0.902689800132066,False,36,1
KM-K-22K22S1,115,experiment,77,←,left,←,0.5695034000091255,True,36,1
KM-K-22K22S1,116,experiment,49,←,right,→,0.6427436000667512,False,36,1
KM-K-22K22S1,117,experiment,89,↑,right,→,0.604074299801141,False,36,1
KM-K-22K22S1,118,experiment,100,↓,down,↓,0.6672365998383611,True,36,1
KM-K-22K22S1,119,experiment,63,←,left,←,0.5000674999319017,True,36,1
KM-K-22K22S1,120,experiment,58,↑,up,↑,0.5172667999286205,True,36,1
KM-K-22K22S1,121,experiment,75,↓,down,↓,0.7283702997956425,True,36,1
KM-K-22K22S1,122,experiment,51,←,left,←,0.5383378998376429,True,36,1
KM-K-22K22S1,123,experiment,98,←,right,→,0.7167642000131309,False,36,1
KM-K-22K22S1,124,experiment,104,↑,up,↑,0.5020067999139428,True,36,1
KM-K-22K22S1,125,experiment,71,→,right,→,0.5787733001634479,True,36,1
KM-K-22K22S1,126,experiment,103,→,right,→,0.5222499000374228,True,36,1
KM-K-22K22S1,127,experiment,74,→,right,→,0.6690913001075387,True,36,1
KM-K-22K22S1,128,experiment,64,→,right,→,0.5017210999503732,True,36,1
KM-K-22K22S1,129,experiment,72,←,left,←,0.5382264000363648,True,36,1
KM-K-22K22S1,130,experiment,84,↑,up,↑,0.4892428000457585,True,36,1
KM-K-22K22S1,131,experiment,81,↓,right,→,0.5309846999589354,False,36,1
KM-K-22K22S1,132,experiment,56,←,left,←,0.5555767000187188,True,36,1
KM-K-22K22S1,133,experiment,105,←,left,←,0.48338040011003613,True,36,1
KM-K-22K22S1,134,experiment,99,↑,up,↑,0.6069069998338819,True,36,1
KM-K-22K22S1,135,experiment,60,→,right,→,0.4260573999490589,True,36,1
KM-K-22K22S1,136,experiment,78,←,right,→,0.688382500084117,False,36,1
KM-K-22K22S1,137,experiment,106,←,left,←,0.4110026000998914,True,36,1
KM-K-22K22S1,138,experiment,91,→,right,→,0.5394144000019878,True,36,0
KM-K-22K22S1,139,experiment,86,↑,up,↑,0.49789869994856417,True,36,1
KM-K-22K22S1,140,experiment,66,↓,down,↓,0.5521229000296444,True,36,1
KM-K-22K22S1,141,experiment,55,→,right,→,0.3758759000338614,True,36,1
KM-K-22K22S1,142,experiment,50,↑,no_key,no_letter,-1.0,False,36,1
KM-K-22K22S1,143,experiment,107,↓,down,↓,0.5273847999051213,True,36,1
KM-K-22K22S1,144,experiment,65,↓,right,→,0.5573921001050621,False,36,1
KM-K-22K22S1,145,experiment,70,↓,down,↓,0.5282579001504928,True,36,1
KM-K-22K22S1,146,experiment,80,→,right,→,0.512954100035131,True,36,1
KM-K-22K22S1,147,experiment,83,↓,down,↓,0.44264849997125566,True,36,1
KM-K-22K22S1,148,experiment,48,←,right,→,0.5119675998575985,False,36,1
KM-K-22K22S1,149,experiment,82,↑,up,↑,0.49632830009795725,True,36,1
KM-K-22K22S1,150,experiment,73,→,right,→,0.5805158000439405,True,36,1
KM-K-22K22S1,151,experiment,54,↑,up,↑,0.5717699001543224,True,36,1
KM-K-22K22S1,152,experiment,97,↓,down,↓,0.7729843999259174,True,36,1
KM-K-22K22S1,153,experiment,95,←,right,→,0.5671813001390547,False,36,1
KM-K-22K22S1,154,experiment,67,↑,up,↑,0.5627721999771893,True,36,1
KM-K-22K22S1,155,experiment,52,↑,up,↑,0.4914353000931442,True,36,1
KM-K-22K22S1,156,experiment,101,↑,right,→,0.4946062001399696,False,36,1
KM-K-22K22S1,157,experiment,108,↓,down,↓,0.6152595998719335,True,36,1
KM-K-22K22S1,158,experiment,79,↑,up,↑,0.780825899913907,True,36,1
KM-K-22K22S1,159,experiment,57,↑,right,→,0.667218399932608,False,36,1
KM-K-22K22S1,160,experiment,102,↑,up,↑,0.9671088000759482,True,36,1
KM-K-22K22S1,161,experiment,61,↓,down,↓,0.9006365998648107,True,36,1
KM-K-22K22S1,162,experiment,62,↓,down,↓,0.732528799911961,True,36,1
KM-K-22K22S1,163,experiment,96,→,right,→,0.6723182999994606,True,36,1
KM-K-22K22S1,164,experiment,92,↓,right,→,0.8628452999982983,False,36,1
KM-K-22K22S1,165,experiment,59,↓,down,↓,0.4813677999190986,True,36,1
KM-K-22K22S1,166,experiment,53,→,right,→,0.8369297001045197,True,36,1
KM-K-22K22S1,167,training,75,←,left,←,1.2248563000466675,True,36,0
KM-K-22K22S1,168,training,57,↑,left,←,0.6538330998737365,False,36,1
KM-K-22K22S1,169,experiment,68,↓,right,→,0.9492160999216139,False,36,1
KM-K-22K22S1,170,experiment,66,↓,right,→,0.649910100037232,False,36,1
KM-K-22K22S1,171,experiment,72,↓,down,↓,0.6244655998889357,True,36,1
KM-K-22K22S1,172,experiment,97,↓,down,↓,0.7118862001225352,True,36,1
KM-K-22K22S1,173,experiment,59,→,left,←,1.1121571001131088,False,36,1
KM-K-22K22S1,174,experiment,85,←,left,←,0.6318644001148641,True,36,1
KM-K-22K22S1,175,experiment,106,←,right,→,0.49201150005683303,False,36,1
KM-K-22K22S1,176,experiment,61,↓,down,↓,0.5804695000406355,True,36,1
KM-K-22K22S1,177,experiment,104,↓,down,↓,0.899197299964726,True,36,1
KM-K-22K22S1,178,experiment,88,↑,up,↑,1.442669800017029,True,36,1
KM-K-22K22S1,179,experiment,57,←,left,←,0.7348614998627454,True,36,1
KM-K-22K22S1,180,experiment,108,↓,down,↓,0.6622436998877674,True,36,1
KM-K-22K22S1,181,experiment,48,←,left,←,0.7162933999206871,True,36,1
KM-K-22K22S1,182,experiment,54,←,left,←,0.7821215000003576,True,36,1
KM-K-22K22S1,183,experiment,73,↓,down,↓,0.6471230001188815,True,36,1
KM-K-22K22S1,184,experiment,55,↓,down,↓,0.7632589000277221,True,36,1
KM-K-22K22S1,185,experiment,51,↑,down,↓,0.7482632999308407,False,36,1
KM-K-22K22S1,186,experiment,80,→,right,→,0.8041647998616099,True,36,1
KM-K-22K22S1,187,experiment,95,↑,left,←,1.1251075000036508,False,36,1
KM-K-22K22S1,188,experiment,91,↑,up,↑,0.7145585999824107,True,36,1
KM-K-22K22S1,189,experiment,75,→,right,→,0.845335700083524,True,36,1
KM-K-22K22S1,190,experiment,107,↓,down,↓,1.0486723999492824,True,36,1
KM-K-22K22S1,191,experiment,53,↓,down,↓,1.021584799978882,True,36,1
KM-K-22K22S1,192,experiment,92,←,left,←,0.7991646002046764,True,36,1
KM-K-22K22S1,193,experiment,86,→,right,→,0.9308021001052111,True,36,1
KM-K-22K22S1,194,experiment,76,→,right,→,0.7248889000620693,True,36,1
KM-K-22K22S1,195,experiment,103,←,left,←,0.8142365999519825,True,36,1
KM-K-22K22S1,196,experiment,52,↑,up,↑,0.6768559999763966,True,36,1
KM-K-22K22S1,197,experiment,62,←,right,→,0.7416393000166863,False,36,1
KM-K-22K22S1,198,experiment,78,←,right,→,0.7028651000000536,False,36,1
KM-K-22K22S1,199,experiment,102,←,left,←,0.8651953998487443,True,36,1
KM-K-22K22S1,200,experiment,90,↓,down,↓,1.0412316001020372,True,36,1
KM-K-22K22S1,201,experiment,67,↑,up,↑,0.7459913000930101,True,36,1
KM-K-22K22S1,202,experiment,99,←,left,←,0.7877465998753905,True,36,1
KM-K-22K22S1,203,experiment,74,↓,down,↓,1.084173999959603,True,36,1
KM-K-22K22S1,204,experiment,101,↓,up,↑,0.895841599907726,False,36,1
KM-K-22K22S1,205,experiment,65,↓,right,→,1.0470987998414785,False,36,1
KM-K-22K22S1,206,experiment,60,↓,down,↓,0.769867500057444,True,36,1
KM-K-22K22S1,207,experiment,71,↑,up,↑,0.667656899895519,True,36,1
KM-K-22K22S1,208,experiment,94,→,right,→,0.6825687000527978,True,36,1
KM-K-22K22S1,209,experiment,89,↑,up,↑,0.7621904001571238,True,36,1
KM-K-22K22S1,210,experiment,105,←,right,→,0.641265399986878,False,36,1
KM-K-22K22S1,211,experiment,100,←,left,←,0.6549559999257326,True,36,1
KM-K-22K22S1,212,experiment,69,↑,up,↑,0.7582012999337167,True,36,1
KM-K-22K22S1,213,experiment,93,←,left,←,0.6656192999798805,True,36,1
KM-K-22K22S1,214,experiment,87,↓,down,↓,0.6586957001127303,True,36,1
KM-K-22K22S1,215,experiment,82,↑,up,↑,0.7974650000687689,True,36,1
KM-K-22K22S1,216,experiment,58,→,right,→,0.7791822999715805,True,36,1
KM-K-22K22S1,217,experiment,79,←,left,←,0.7619429000187665,True,36,1
KM-K-22K22S1,218,experiment,64,→,right,→,0.7025119001045823,True,36,1
KM-K-22K22S1,219,experiment,56,↓,down,↓,0.6407534999307245,True,36,1
KM-K-22K22S1,220,experiment,63,↑,up,↑,0.7064559999853373,True,36,1
KM-K-22K22S1,221,experiment,83,→,right,→,0.6750362999737263,True,36,1
KM-K-22K22S1,222,experiment,81,→,right,→,0.8778661000542343,True,36,1
KM-K-22K22S1,223,experiment,96,←,left,←,0.5557568001095206,True,36,1
KM-K-22K22S1,224,experiment,98,↑,up,↑,0.4853372999932617,True,36,1
KM-K-22K22S1,225,experiment,84,←,left,←,0.518134499900043,True,36,1
KM-K-22K22S1,226,experiment,50,↑,up,↑,0.5933181000873446,True,36,1
KM-K-22K22S1,227,experiment,70,←,left,←,0.6029726997949183,True,36,1
KM-K-22K22S1,228,experiment,49,↑,no_key,no_letter,-1.0,False,36,1
KM-K-22K22S1,229,experiment,77,↑,left,←,0.9398595998063684,False,36,1
KM-K-22K22S1,230,training,75,←,left,←,0.7232472999021411,True,36,0
KM-K-22K22S1,231,training,71,↑,up,↑,0.5352864000014961,True,36,1
KM-K-22K22S1,232,experiment,58,↑,up,↑,0.4793622000142932,True,36,1
KM-K-22K22S1,233,experiment,102,↑,up,↑,0.6345206999685615,True,36,1
KM-K-22K22S1,234,experiment,91,↑,up,↑,0.6993203000165522,True,36,1
KM-K-22K22S1,235,experiment,74,→,right,→,0.5993919000029564,True,36,1
KM-K-22K22S1,236,experiment,88,→,right,→,0.6506066001020372,True,36,1
KM-K-22K22S1,237,experiment,90,←,left,←,0.42602050001733005,True,36,1
KM-K-22K22S1,238,experiment,82,←,left,←,0.7995593000669032,True,36,0
KM-K-22K22S1,239,experiment,69,↓,down,↓,0.4811839999165386,True,36,1
KM-K-22K22S1,240,experiment,93,↑,up,↑,0.7032617998775095,True,36,1
KM-K-22K22S1,241,experiment,97,→,right,→,0.6353289000689983,True,36,1
KM-K-22K22S1,242,experiment,89,→,right,→,1.388871599920094,True,36,1
KM-K-22K22S1,243,experiment,101,←,left,←,0.48463910003192723,True,36,1
KM-K-22K22S1,244,experiment,67,↑,left,←,0.7794069000519812,False,36,1
KM-K-22K22S1,245,experiment,66,←,left,←,0.7188067999668419,True,36,1
KM-K-22K22S1,246,experiment,71,→,right,→,0.5790925000328571,True,36,1
KM-K-22K22S1,247,experiment,72,↓,down,↓,0.6921836000401527,True,36,1
KM-K-22K22S1,248,experiment,60,←,left,←,0.813285999931395,True,36,1
KM-K-22K22S1,249,experiment,56,↑,up,↑,0.738548900000751,True,36,1
KM-K-22K22S1,250,experiment,53,↓,down,↓,0.6598377001937479,True,36,1
KM-K-22K22S1,251,experiment,62,↓,down,↓,0.6453921999782324,True,36,1
KM-K-22K22S1,252,experiment,96,←,left,←,0.692118400009349,True,36,1
KM-K-22K22S1,253,experiment,106,→,right,→,0.6940225001890212,True,36,1
KM-K-22K22S1,254,experiment,52,↓,down,↓,0.5372132000047714,True,36,1
KM-K-22K22S1,255,experiment,48,→,right,→,0.7160396000836045,True,36,1
KM-K-22K22S1,256,experiment,108,→,left,←,0.7721324001904577,False,36,1
KM-K-22K22S1,257,experiment,92,↑,down,↓,1.0791066999081522,False,36,1
KM-K-22K22S1,258,experiment,95,↑,down,↓,0.7893565001431853,False,36,1
KM-K-22K22S1,259,experiment,107,↑,down,↓,0.7945296999532729,False,36,1
KM-K-22K22S1,260,experiment,98,↑,up,↑,0.7629917000886053,True,36,1
KM-K-22K22S1,261,experiment,51,←,left,←,0.7156761998776346,True,36,1
KM-K-22K22S1,262,experiment,100,→,right,→,0.8465819000266492,True,36,1
KM-K-22K22S1,263,experiment,59,↑,up,↑,0.6734645999968052,True,36,1
KM-K-22K22S1,264,experiment,63,↓,down,↓,0.5940284000243992,True,36,1
KM-K-22K22S1,265,experiment,78,→,right,→,0.6569540000054985,True,36,1
KM-K-22K22S1,266,experiment,104,→,right,→,0.7408845999743789,True,36,1
KM-K-22K22S1,267,experiment,87,↓,no_key,no_letter,-1.0,False,36,1
KM-K-22K22S1,268,experiment,80,→,right,→,0.7628403000999242,True,36,1
KM-K-22K22S1,269,experiment,57,↑,up,↑,0.5538317000027746,True,36,1
KM-K-22K22S1,270,experiment,99,→,right,→,0.5550073999911547,True,36,1
KM-K-22K22S1,271,experiment,55,↓,down,↓,0.6431287999730557,True,36,1
KM-K-22K22S1,272,experiment,50,→,right,→,0.7295301000121981,True,36,1
KM-K-22K22S1,273,experiment,103,↓,down,↓,1.0104618000332266,True,36,1
KM-K-22K22S1,274,experiment,76,↑,up,↑,0.7051253998652101,True,36,1
KM-K-22K22S1,275,experiment,68,↓,down,↓,0.5431144000031054,True,36,1
KM-K-22K22S1,276,experiment,85,←,right,→,1.1176024000160396,False,36,1
KM-K-22K22S1,277,experiment,64,→,right,→,0.7004303999710828,True,36,1
KM-K-22K22S1,278,experiment,61,←,left,←,0.6766878999769688,True,36,1
KM-K-22K22S1,279,experiment,79,↑,up,↑,0.9275404999498278,True,36,1
KM-K-22K22S1,280,experiment,86,→,right,→,0.6630474999547005,True,36,1
KM-K-22K22S1,281,experiment,84,←,left,←,0.4890615998301655,True,36,1
KM-K-22K22S1,282,experiment,105,↓,down,↓,0.49092220002785325,True,36,1
KM-K-22K22S1,283,experiment,49,↓,left,←,1.0715195001102984,False,36,1
KM-K-22K22S1,284,experiment,75,←,left,←,1.2604300000239164,True,36,1
KM-K-22K22S1,285,experiment,54,↑,up,↑,1.1447999000083655,True,36,1
KM-K-22K22S1,286,experiment,70,→,right,→,0.6923237000592053,True,36,1
KM-K-22K22S1,287,experiment,65,→,right,→,0.6516365997958928,True,36,1
KM-K-22K22S1,288,experiment,94,←,right,→,0.722984200110659,False,36,1
KM-K-22K22S1,289,experiment,81,→,right,→,0.6277726998087019,True,36,1
KM-K-22K22S1,290,experiment,83,→,right,→,0.631570499856025,True,36,1
KM-K-22K22S1,291,experiment,77,←,left,←,0.588911100057885,True,36,1
KM-K-22K22S1,292,experiment,73,↑,up,↑,0.6055128998123109,True,36,1
KM-K-22K22S1,293,training,50,↓,down,↓,0.9287229999899864,True,36,0
KM-K-22K22S1,294,training,76,↑,up,↑,0.5544409998692572,True,36,1
KM-K-22K22S1,295,experiment,57,↓,down,↓,0.4191529001109302,True,36,1
KM-K-22K22S1,296,experiment,105,→,right,→,1.1020533998962492,True,36,0
KM-K-22K22S1,297,experiment,48,→,right,→,0.810984899988398,True,36,1
KM-K-22K22S1,298,experiment,52,↑,no_key,no_letter,-1.0,False,36,1
KM-K-22K22S1,299,experiment,107,↓,up,↑,0.7601531001273543,False,36,1
KM-K-22K22S1,300,experiment,61,↑,up,↑,0.43439870001748204,True,36,1
KM-K-22K22S1,301,experiment,63,↓,up,↑,0.4256744999438524,False,36,0
KM-K-22K22S1,302,experiment,56,→,right,→,0.6367075999733061,True,36,1
KM-K-22K22S1,303,experiment,86,↑,no_key,no_letter,-1.0,False,36,1
KM-K-22K22S1,304,experiment,77,↑,up,↑,0.5604032999835908,True,36,1
KM-K-22K22S1,305,experiment,67,←,right,→,0.6514589001890272,False,36,1
KM-K-22K22S1,306,experiment,97,↑,up,↑,0.44296799995936453,True,36,1
KM-K-22K22S1,307,experiment,100,↓,down,↓,0.7514271999243647,True,36,1
KM-K-22K22S1,308,experiment,84,↑,up,↑,0.6220198001246899,True,36,1
KM-K-22K22S1,309,experiment,78,↓,down,↓,0.531556700123474,True,36,1
KM-K-22K22S1,310,experiment,96,←,left,←,0.5510193000081927,True,36,1
KM-K-22K22S1,311,experiment,51,→,right,→,0.4963202001526952,True,36,1
KM-K-22K22S1,312,experiment,49,↑,up,↑,0.6205714999232441,True,36,1
KM-K-22K22S1,313,experiment,62,←,left,←,0.5194971000310034,True,36,1
KM-K-22K22S1,314,experiment,58,→,right,→,0.6399180002044886,True,36,1
KM-K-22K22S1,315,experiment,79,→,right,→,0.6203544000163674,True,36,1
KM-K-22K22S1,316,experiment,69,↑,up,↑,0.4429744000080973,True,36,1
KM-K-22K22S1,317,experiment,91,↓,down,↓,0.6451984001323581,True,36,1
KM-K-22K22S1,318,experiment,80,→,right,→,0.7052306002005935,True,36,1
KM-K-22K22S1,319,experiment,70,↑,no_key,no_letter,-1.0,False,36,1
KM-K-22K22S1,320,experiment,76,↓,down,↓,0.5109951000194997,True,36,1
KM-K-22K22S1,321,experiment,98,→,right,→,0.7708965998608619,True,36,1
KM-K-22K22S1,322,experiment,106,↓,down,↓,0.49709609989076853,True,36,1
KM-K-22K22S1,323,experiment,87,←,left,←,0.5289357998408377,True,36,1
KM-K-22K22S1,324,experiment,95,↑,up,↑,0.6283332998864353,True,36,1
KM-K-22K22S1,325,experiment,68,←,left,←,0.4850463999900967,True,36,1
KM-K-22K22S1,326,experiment,59,→,right,→,0.6061613999772817,True,36,1
KM-K-22K22S1,327,experiment,104,↑,no_key,no_letter,-1.0,False,36,1
KM-K-22K22S1,328,experiment,73,↓,down,↓,0.685920299962163,True,36,1
KM-K-22K22S1,329,experiment,54,←,left,←,0.5127256999257952,True,36,1
KM-K-22K22S1,330,experiment,65,↓,down,↓,0.7111256001517177,True,36,1
KM-K-22K22S1,331,experiment,74,↓,down,↓,0.4437354998663068,True,36,1
KM-K-22K22S1,332,experiment,50,↑,up,↑,0.6322484998963773,True,36,0
KM-K-22K22S1,333,experiment,103,↑,up,↑,0.5250959999393672,True,36,1
KM-K-22K22S1,334,experiment,101,↑,up,↑,0.4173949998803437,True,36,1
KM-K-22K22S1,335,experiment,99,←,left,←,0.5018415001686662,True,36,1
KM-K-22K22S1,336,experiment,55,→,right,→,0.5839645999949425,True,36,1
KM-K-22K22S1,337,experiment,102,←,left,←,0.6553485000040382,True,36,1
KM-K-22K22S1,338,experiment,94,↓,down,↓,0.614337099948898,True,36,1
KM-K-22K22S1,339,experiment,81,←,left,←,0.6433304999954998,True,36,1
KM-K-22K22S1,340,experiment,90,→,right,→,0.7243439999874681,True,36,1
KM-K-22K22S1,341,experiment,88,←,left,←,0.5787402999121696,True,36,1
KM-K-22K22S1,342,experiment,71,↓,down,↓,0.8363188998773694,True,36,1
KM-K-22K22S1,343,experiment,83,←,left,←,0.6240476001985371,True,36,1
KM-K-22K22S1,344,experiment,89,→,right,→,0.7939722998999059,True,36,1
KM-K-22K22S1,345,experiment,108,↓,down,↓,0.6630943000782281,True,36,1
KM-K-22K22S1,346,experiment,82,→,right,→,0.5459910000208765,True,36,1
KM-K-22K22S1,347,experiment,85,→,right,→,0.6002046000212431,True,36,1
KM-K-22K22S1,348,experiment,72,↑,up,↑,0.5046788000036031,True,36,1
KM-K-22K22S1,349,experiment,60,↑,up,↑,0.4109336999244988,True,36,1
KM-K-22K22S1,350,experiment,93,→,right,→,0.6896084998734295,True,36,0
KM-K-22K22S1,351,experiment,75,↑,up,↑,0.39200719981454313,True,36,1
KM-K-22K22S1,352,experiment,64,→,right,→,0.6167084998451173,True,36,0
KM-K-22K22S1,353,experiment,92,←,left,←,0.6660899000708014,True,36,1
KM-K-22K22S1,354,experiment,66,↓,down,↓,0.6341240999754518,True,36,1
KM-K-22K22S1,355,experiment,53,→,right,→,0.5515690001193434,True,36,1
KM-K-22K22S1,356,training,55,→,right,→,1.2281883000396192,True,36,0
KM-K-22K22S1,357,training,98,↓,down,↓,0.539060499984771,True,36,1
KM-K-22K22S1,358,experiment,77,←,left,←,0.5161692001856863,True,36,1
KM-K-22K22S1,359,experiment,54,↓,down,↓,0.4249808001331985,True,36,1
KM-K-22K22S1,360,experiment,69,←,left,←,0.44250100012868643,True,36,0
KM-K-22K22S1,361,experiment,98,↑,up,↑,0.5163275999948382,True,36,1
KM-K-22K22S1,362,experiment,75,↑,down,↓,0.6952321999706328,False,36,1
KM-K-22K22S1,363,experiment,51,↓,down,↓,0.9948028000071645,True,36,1
KM-K-22K22S1,364,experiment,67,←,left,←,0.733633300056681,True,36,1
KM-K-22K22S1,365,experiment,87,←,left,←,0.8120804999489337,True,36,1
KM-K-22K22S1,366,experiment,80,→,no_key,no_letter,-1.0,False,36,1
KM-K-22K22S1,367,experiment,88,→,right,→,0.4944875000510365,True,36,1
KM-K-22K22S1,368,experiment,65,↓,no_key,no_letter,-1.0,False,36,1
KM-K-22K22S1,369,experiment,82,↑,up,↑,0.7407284998334944,True,36,1
KM-K-22K22S1,370,experiment,76,↓,down,↓,0.5980334999039769,True,36,1
KM-K-22K22S1,371,experiment,73,←,left,←,0.7104268001858145,True,36,1
KM-K-22K22S1,372,experiment,94,→,right,→,0.6033105000387877,True,36,1
KM-K-22K22S1,373,experiment,48,→,right,→,0.5718534998595715,True,36,1
KM-K-22K22S1,374,experiment,72,↑,up,↑,0.7177297999151051,True,36,1
KM-K-22K22S1,375,experiment,107,→,right,→,0.5018557999283075,True,36,1
KM-K-22K22S1,376,experiment,100,←,left,←,0.6732904000673443,True,36,1
KM-K-22K22S1,377,experiment,97,↓,down,↓,0.4509074001107365,True,36,1
KM-K-22K22S1,378,experiment,56,←,left,←,0.818175699794665,True,36,1
KM-K-22K22S1,379,experiment,83,←,left,←,0.7184262999799103,True,36,1
KM-K-22K22S1,380,experiment,55,→,right,→,0.47168869990855455,True,36,1
KM-K-22K22S1,381,experiment,79,↑,up,↑,0.47586330003105104,True,36,0
KM-K-22K22S1,382,experiment,103,↑,up,↑,0.5102882999926805,True,36,1
KM-K-22K22S1,383,experiment,59,←,left,←,0.758652500109747,True,36,1
KM-K-22K22S1,384,experiment,57,→,right,→,0.6057879000436515,True,36,1
KM-K-22K22S1,385,experiment,105,↑,up,↑,0.6112597999162972,True,36,1
KM-K-22K22S1,386,experiment,71,↓,down,↓,0.4764612000435591,True,36,1
KM-K-22K22S1,387,experiment,61,←,left,←,0.4416088000871241,True,36,1
KM-K-22K22S1,388,experiment,90,←,left,←,0.7729860001709312,True,36,0
KM-K-22K22S1,389,experiment,86,↓,down,↓,0.4828798999078572,True,36,1
KM-K-22K22S1,390,experiment,63,↑,up,↑,0.6579522001557052,True,36,1
KM-K-22K22S1,391,experiment,81,↑,up,↑,0.5331846000626683,True,36,1
KM-K-22K22S1,392,experiment,58,←,no_key,no_letter,-1.0,False,36,1
KM-K-22K22S1,393,experiment,106,←,up,↑,0.7962443998549134,False,36,1
KM-K-22K22S1,394,experiment,50,↓,no_key,no_letter,-1.0,False,36,1
KM-K-22K22S1,395,experiment,70,↑,up,↑,0.6309644000139087,True,36,1
KM-K-22K22S1,396,experiment,53,→,right,→,0.5486832999158651,True,36,1
KM-K-22K22S1,397,experiment,68,→,right,→,0.4422450999263674,True,36,1
KM-K-22K22S1,398,experiment,99,↑,up,↑,0.4940224001184106,True,36,1
KM-K-22K22S1,399,experiment,66,←,left,←,0.4695157001260668,True,36,1
KM-K-22K22S1,400,experiment,92,↓,down,↓,0.40103629999794066,True,36,0
KM-K-22K22S1,401,experiment,102,→,right,→,0.4503842999693006,True,36,1
KM-K-22K22S1,402,experiment,101,↓,left,←,0.8069056998938322,False,36,0
KM-K-22K22S1,403,experiment,52,↓,down,↓,0.6218200998846442,True,36,1
KM-K-22K22S1,404,experiment,89,↑,up,↑,0.5037939997855574,True,36,1
KM-K-22K22S1,405,experiment,96,↓,down,↓,0.6361608998849988,True,36,1
KM-K-22K22S1,406,experiment,84,↓,down,↓,0.6232886000070721,True,36,1
KM-K-22K22S1,407,experiment,64,→,right,→,0.5140166999772191,True,36,1
KM-K-22K22S1,408,experiment,60,↓,down,↓,0.633483000099659,True,36,1
KM-K-22K22S1,409,experiment,49,↑,up,↑,0.49633120000362396,True,36,1
KM-K-22K22S1,410,experiment,108,↓,down,↓,0.4259516999591142,True,36,1
KM-K-22K22S1,411,experiment,78,↓,down,↓,0.5423805001191795,True,36,0
KM-K-22K22S1,412,experiment,74,←,right,→,0.6245695000980049,False,36,1
KM-K-22K22S1,413,experiment,95,←,right,→,0.6083376000169665,False,36,1
KM-K-22K22S1,414,experiment,104,↑,down,↓,0.7261618000920862,False,36,1
KM-K-22K22S1,415,experiment,93,↑,down,↓,0.6991506000049412,False,36,1
KM-K-22K22S1,416,experiment,62,→,left,←,1.419031900120899,False,36,1
KM-K-22K22S1,417,experiment,85,↓,down,↓,0.6552433997858316,True,36,1
KM-K-22K22S1,418,experiment,91,↑,up,↑,0.7666878001764417,True,36,1
KM-K-22K22S1,419,training,61,→,right,→,0.6780137000605464,True,36,0
KM-K-22K22S1,420,training,91,↑,up,↑,0.7096804999746382,True,36,1
KM-K-22K22S1,421,experiment,106,↓,down,↓,0.5104157000314444,True,36,1
KM-K-22K22S1,422,experiment,64,↓,down,↓,0.45092319999821484,True,36,1
KM-K-22K22S1,423,experiment,98,↓,up,↑,0.7149336999282241,False,36,0
KM-K-22K22S1,424,experiment,75,→,right,→,0.6378446000162512,True,36,1
KM-K-22K22S1,425,experiment,55,←,left,←,0.4826953997835517,True,36,1
KM-K-22K22S1,426,experiment,54,↓,down,↓,0.45100170001387596,True,36,1
KM-K-22K22S1,427,experiment,61,→,right,→,0.6075841998681426,True,36,1
KM-K-22K22S1,428,experiment,88,→,right,→,0.474705999949947,True,36,1
KM-K-22K22S1,429,experiment,99,↑,no_key,no_letter,-1.0,False,36,1
KM-K-22K22S1,430,experiment,96,↑,up,↑,0.5936080999672413,True,36,1
KM-K-22K22S1,431,experiment,59,←,right,→,0.5906068000476807,False,36,1
KM-K-22K22S1,432,experiment,101,↓,down,↓,0.4859909999649972,True,36,1
KM-K-22K22S1,433,experiment,82,←,left,←,0.5116959000006318,True,36,1
KM-K-22K22S1,434,experiment,65,↓,down,↓,0.4781344998627901,True,36,1
KM-K-22K22S1,435,experiment,58,←,no_key,no_letter,-1.0,False,36,1
KM-K-22K22S1,436,experiment,67,←,right,→,0.7076908000744879,False,36,1
KM-K-22K22S1,437,experiment,50,↓,down,↓,0.8872766001150012,True,36,1
KM-K-22K22S1,438,experiment,71,↓,down,↓,1.284872599877417,True,36,1
KM-K-22K22S1,439,experiment,48,↓,right,→,0.7863904999103397,False,36,1
KM-K-22K22S1,440,experiment,73,←,left,←,0.8512724000029266,True,36,1
KM-K-22K22S1,441,experiment,100,↑,up,↑,0.9044554000720382,True,36,1
KM-K-22K22S1,442,experiment,87,↓,down,↓,0.7359048000071198,True,36,1
KM-K-22K22S1,443,experiment,49,←,left,←,0.7465137001127005,True,36,1
KM-K-22K22S1,444,experiment,78,→,right,→,0.683186799986288,True,36,1
KM-K-22K22S1,445,experiment,108,→,right,→,0.6528274999000132,True,36,1
KM-K-22K22S1,446,experiment,70,↑,up,↑,0.6274732002057135,True,36,1
KM-K-22K22S1,447,experiment,105,↑,up,↑,0.5759507999755442,True,36,1
KM-K-22K22S1,448,experiment,80,↑,up,↑,0.6470925000030547,True,36,1
KM-K-22K22S1,449,experiment,103,↓,down,↓,0.6516193000134081,True,36,1
KM-K-22K22S1,450,experiment,74,↑,up,↑,0.6737458999268711,True,36,1
KM-K-22K22S1,451,experiment,63,←,left,←,0.6900629999581724,True,36,1
KM-K-22K22S1,452,experiment,94,↑,up,↑,0.6958569998387247,True,36,1
KM-K-22K22S1,453,experiment,85,↑,up,↑,1.0722809000872076,True,36,1
KM-K-22K22S1,454,experiment,51,↓,left,←,1.3654469999019057,False,36,1
KM-K-22K22S1,455,experiment,84,←,right,→,0.8274214998818934,False,36,1
KM-K-22K22S1,456,experiment,107,←,left,←,0.743605799973011,True,36,1
KM-K-22K22S1,457,experiment,57,←,left,←,0.6875003001186997,True,36,1
KM-K-22K22S1,458,experiment,91,→,right,→,0.7341991001740098,True,36,1
KM-K-22K22S1,459,experiment,62,↑,up,↑,0.7488853000104427,True,36,1
KM-K-22K22S1,460,experiment,77,←,left,←,0.47784970002248883,True,36,1
KM-K-22K22S1,461,experiment,76,↑,up,↑,0.95360970008187,True,36,1
KM-K-22K22S1,462,experiment,92,→,right,→,1.029564900090918,True,36,1
KM-K-22K22S1,463,experiment,52,↓,down,↓,0.7076049000024796,True,36,1
KM-K-22K22S1,464,experiment,81,↓,down,↓,0.8448405999224633,True,36,1
KM-K-22K22S1,465,experiment,79,↑,up,↑,0.8895445000380278,True,36,1
KM-K-22K22S1,466,experiment,72,↑,up,↑,0.83869310002774,True,36,1
KM-K-22K22S1,467,experiment,83,←,left,←,0.7218794000800699,True,36,1
KM-K-22K22S1,468,experiment,104,←,left,←,0.9392050001770258,True,36,1
KM-K-22K22S1,469,experiment,66,↑,up,↑,0.6240765999536961,True,36,1
KM-K-22K22S1,470,experiment,97,←,left,←,0.9438187000341713,True,36,1
KM-K-22K22S1,471,experiment,86,←,left,←,0.8617988999467343,True,36,1
KM-K-22K22S1,472,experiment,89,↓,down,↓,0.750119199976325,True,36,1
KM-K-22K22S1,473,experiment,95,↑,up,↑,0.7614529998973012,True,36,1
KM-K-22K22S1,474,experiment,93,↑,up,↑,0.8607835001312196,True,36,1
KM-K-22K22S1,475,experiment,60,←,left,←,0.9190581999719143,True,36,1
KM-K-22K22S1,476,experiment,102,←,left,←,0.6732977000065148,True,36,1
KM-K-22K22S1,477,experiment,68,→,right,→,0.9840470999479294,True,36,1
KM-K-22K22S1,478,experiment,69,→,right,→,0.7704928999301046,True,36,1
KM-K-22K22S1,479,experiment,90,←,left,←,0.6062731000129133,True,36,1
KM-K-22K22S1,480,experiment,53,↓,down,↓,0.6848454000428319,True,36,1
KM-K-22K22S1,481,experiment,56,→,right,→,0.7753576000686735,True,36,1
KM-K-22K22S1,482,training,105,←,left,←,0.8665585999842733,True,36,0
KM-K-22K22S1,483,training,78,→,right,→,0.6066017001867294,True,36,1
KM-K-22K22S1,484,experiment,91,→,right,→,0.6725534999277443,True,36,1
KM-K-22K22S1,485,experiment,85,←,left,←,0.7457282000686973,True,36,1
KM-K-22K22S1,486,experiment,64,↓,down,↓,0.5911516998894513,True,36,1
KM-K-22K22S1,487,experiment,54,↓,down,↓,0.6461440999992192,True,36,1
KM-K-22K22S1,488,experiment,81,↑,up,↑,0.689625300001353,True,36,1
KM-K-22K22S1,489,experiment,99,←,left,←,0.5658294998575002,True,36,1
KM-K-22K22S1,490,experiment,52,↑,up,↑,0.7823602999560535,True,36,1
KM-K-22K22S1,491,experiment,71,↑,up,↑,0.7439186000265181,True,36,1
KM-K-22K22S1,492,experiment,57,↑,up,↑,0.6319270001258701,True,36,1
KM-K-22K22S1,493,experiment,102,←,left,←,0.5332245999015868,True,36,1
KM-K-22K22S1,494,experiment,101,→,right,→,0.7108644999098033,True,36,1
KM-K-22K22S1,495,experiment,61,↑,up,↑,0.44252260006032884,True,36,1
KM-K-22K22S1,496,experiment,104,↓,down,↓,0.6909535999875516,True,36,1
KM-K-22K22S1,497,experiment,62,↓,down,↓,0.7313071000389755,True,36,1
KM-K-22K22S1,498,experiment,66,←,left,←,0.49667539983056486,True,36,1
KM-K-22K22S1,499,experiment,78,↑,up,↑,0.5070223999209702,True,36,1
KM-K-22K22S1,500,experiment,97,↓,down,↓,0.4256750999484211,True,36,1
KM-K-22K22S1,501,experiment,79,→,right,→,0.8042272999882698,True,36,0
KM-K-22K22S1,502,experiment,65,←,left,←,0.5426139999181032,True,36,1
KM-K-22K22S1,503,experiment,89,↓,right,→,0.9318925000261515,False,36,1
KM-K-22K22S1,504,experiment,87,←,left,←,0.7542818998917937,True,36,1
KM-K-22K22S1,505,experiment,69,←,left,←,0.4429272999987006,True,36,1
KM-K-22K22S1,506,experiment,96,←,left,←,0.700159200001508,True,36,0
KM-K-22K22S1,507,experiment,92,→,right,→,0.6343731998931617,True,36,1
KM-K-22K22S1,508,experiment,108,←,left,←,0.7337815000209957,True,36,1
KM-K-22K22S1,509,experiment,105,←,left,←,0.7180540000554174,True,36,1
KM-K-22K22S1,510,experiment,68,←,left,←,0.755347500089556,True,36,1
KM-K-22K22S1,511,experiment,90,→,right,→,1.1758207001257688,True,36,1
KM-K-22K22S1,512,experiment,80,←,left,←,0.718962199985981,True,36,1
KM-K-22K22S1,513,experiment,98,→,right,→,0.5463291998021305,True,36,1
KM-K-22K22S1,514,experiment,72,→,right,→,0.7006556000560522,True,36,1
KM-K-22K22S1,515,experiment,84,→,no_key,no_letter,-1.0,False,36,1
KM-K-22K22S1,516,experiment,53,↑,up,↑,0.7339685999322683,True,36,1
KM-K-22K22S1,517,experiment,67,←,left,←,0.69912080001086,True,36,1
KM-K-22K22S1,518,experiment,88,←,left,←,0.41765059996396303,True,36,1
KM-K-22K22S1,519,experiment,48,→,right,→,0.5781595997978002,True,36,1
KM-K-22K22S1,520,experiment,70,↓,down,↓,0.4248261998873204,True,36,1
KM-K-22K22S1,521,experiment,59,↓,down,↓,0.6077690999954939,True,36,0
KM-K-22K22S1,522,experiment,75,→,right,→,0.5195041000843048,True,36,1
KM-K-22K22S1,523,experiment,94,←,left,←,0.5958231000695378,True,36,1
KM-K-22K22S1,524,experiment,55,→,right,→,0.6419132000301033,True,36,1
KM-K-22K22S1,525,experiment,49,↓,down,↓,0.44231690000742674,True,36,1
KM-K-22K22S1,526,experiment,63,←,left,←,0.546074999962002,True,36,0
KM-K-22K22S1,527,experiment,50,↓,down,↓,0.5799239999614656,True,36,1
KM-K-22K22S1,528,experiment,77,↓,down,↓,0.5634745999705046,True,36,1
KM-K-22K22S1,529,experiment,51,↑,up,↑,0.6765513999853283,True,36,1
KM-K-22K22S1,530,experiment,56,←,left,←,0.6872992999851704,True,36,1
KM-K-22K22S1,531,experiment,76,→,right,→,0.5229642000049353,True,36,1
KM-K-22K22S1,532,experiment,95,↓,down,↓,0.41701969993300736,True,36,1
KM-K-22K22S1,533,experiment,106,→,right,→,0.6512435998301953,True,36,0
KM-K-22K22S1,534,experiment,60,←,left,←,0.4261184998322278,True,36,1
KM-K-22K22S1,535,experiment,103,↓,down,↓,0.5388313999865204,True,36,1
KM-K-22K22S1,536,experiment,107,↓,down,↓,0.5141897997818887,True,36,1
KM-K-22K22S1,537,experiment,74,↑,down,↓,0.7973877000622451,False,36,1
KM-K-22K22S1,538,experiment,82,→,right,→,0.3845365000888705,True,36,1
KM-K-22K22S1,539,experiment,100,↓,down,↓,0.586576399859041,True,36,0
KM-K-22K22S1,540,experiment,93,↑,up,↑,0.5889606000855565,True,36,1
KM-K-22K22S1,541,experiment,58,↓,down,↓,0.4177649999037385,True,36,1
KM-K-22K22S1,542,experiment,86,↓,down,↓,0.401098899776116,True,36,0
KM-K-22K22S1,543,experiment,83,←,left,←,0.49810330010950565,True,36,1
KM-K-22K22S1,544,experiment,73,←,left,←,0.7259776000864804,True,36,1
KM-K-22K22S1,545,training,59,→,left,←,0.3255098999943584,False,35,0
KM-K-22K22S1,546,training,96,↓,down,↓,0.6370310999918729,True,35,0
KM-K-22K22S1,547,experiment,53,→,right,→,0.41083729988895357,True,35,1
KM-K-22K22S1,548,experiment,61,↓,down,↓,0.42587949987500906,True,35,1
KM-K-22K22S1,549,experiment,90,↑,up,↑,0.6308495001867414,True,35,0
KM-K-22K22S1,550,experiment,84,↓,down,↓,0.3338358998298645,True,35,1
KM-K-22K22S1,551,experiment,108,↑,up,↑,0.4108436999376863,True,35,1
KM-K-22K22S1,552,experiment,91,↑,up,↑,0.6344840000383556,True,35,0
KM-K-22K22S1,553,experiment,101,↑,up,↑,0.31698339991271496,True,35,1
KM-K-22K22S1,554,experiment,106,↑,up,↑,0.36786979995667934,True,35,0
KM-K-22K22S1,555,experiment,51,↑,up,↑,0.3254897999577224,True,35,0
KM-K-22K22S1,556,experiment,52,↓,down,↓,0.49848830001428723,True,35,0
KM-K-22K22S1,557,experiment,85,←,left,←,0.7468820000067353,True,35,1
KM-K-22K22S1,558,experiment,60,↓,down,↓,0.6653837999328971,True,35,1
KM-K-22K22S1,559,experiment,64,↓,down,↓,0.40923360013403,True,35,1
KM-K-22K22S1,560,experiment,48,↓,down,↓,0.6578192999586463,True,35,0
KM-K-22K22S1,561,experiment,107,→,right,→,0.48461980000138283,True,35,1
KM-K-22K22S1,562,experiment,49,→,left,←,0.7454822000581771,False,35,1
KM-K-22K22S1,563,experiment,89,↓,down,↓,0.38355270004831254,True,35,1
KM-K-22K22S1,564,experiment,69,→,right,→,0.7044725997839123,True,35,0
KM-K-22K22S1,565,experiment,79,←,left,←,0.6742291001137346,True,35,1
KM-K-22K22S1,566,experiment,96,→,right,→,0.6400925000198185,True,35,1
KM-K-22K22S1,567,experiment,83,↓,down,↓,0.4253507999237627,True,35,1
KM-K-22K22S1,568,experiment,58,→,no_key,no_letter,-1.0,False,35,0
KM-K-22K22S1,569,experiment,66,↑,down,↓,0.6516191998962313,False,35,1
KM-K-22K22S1,570,experiment,74,↑,up,↑,0.505438799969852,True,35,1
KM-K-22K22S1,571,experiment,102,↓,down,↓,0.6918200999498367,True,35,1
KM-K-22K22S1,572,experiment,86,↑,up,↑,0.6522814000491053,True,35,1
KM-K-22K22S1,573,experiment,72,←,left,←,0.6268253000453115,True,35,1
KM-K-22K22S1,574,experiment,104,→,right,→,0.6318451999686658,True,35,1
KM-K-22K22S1,575,experiment,97,→,right,→,1.1430387001018971,True,35,1
KM-K-22K22S1,576,experiment,78,↓,down,↓,0.5681833000853658,True,35,1
KM-K-22K22S1,577,experiment,73,↑,up,↑,0.7699927999638021,True,35,1
KM-K-22K22S1,578,experiment,93,↓,no_key,no_letter,-1.0,False,35,1
KM-K-22K22S1,579,experiment,94,↑,up,↑,0.7520612999796867,True,35,1
KM-K-22K22S1,580,experiment,57,→,no_key,no_letter,-1.0,False,35,1
KM-K-22K22S1,581,experiment,59,↑,up,↑,0.5741159999743104,True,35,1
KM-K-22K22S1,582,experiment,105,↑,up,↑,0.4614381000865251,True,35,1
KM-K-22K22S1,583,experiment,56,←,right,→,0.8480849999468774,False,35,0
KM-K-22K22S1,584,experiment,98,←,left,←,0.4425532999448478,True,35,1
KM-K-22K22S1,585,experiment,50,→,right,→,0.612033300101757,True,35,1
KM-K-22K22S1,586,experiment,71,→,right,→,0.7804160001687706,True,35,1
KM-K-22K22S1,587,experiment,99,↓,up,↑,0.7970228001940995,False,35,1
KM-K-22K22S1,588,experiment,87,↑,up,↑,0.41743160015903413,True,35,1
KM-K-22K22S1,589,experiment,70,→,right,→,0.7930112998001277,True,35,0
KM-K-22K22S1,590,experiment,68,←,left,←,0.7791067000944167,True,35,1
KM-K-22K22S1,591,experiment,54,←,left,←,0.6908619999885559,True,35,1
KM-K-22K22S1,592,experiment,81,→,right,→,0.6291195000521839,True,35,1
KM-K-22K22S1,593,experiment,65,→,right,→,1.0145426001399755,True,35,1
KM-K-22K22S1,594,experiment,62,↑,up,↑,0.7616870999336243,True,35,1
KM-K-22K22S1,595,experiment,76,→,right,→,0.658460299950093,True,35,1
KM-K-22K22S1,596,experiment,100,↓,down,↓,0.6474643000401556,True,35,1
KM-K-22K22S1,597,experiment,103,↓,down,↓,0.6200546999461949,True,35,1
KM-K-22K22S1,598,experiment,63,↑,up,↑,0.6305341001134366,True,35,1
KM-K-22K22S1,599,experiment,77,↑,up,↑,0.6202793000265956,True,35,1
KM-K-22K22S1,600,experiment,82,↓,down,↓,0.5445355998817831,True,35,1
KM-K-22K22S1,601,experiment,55,←,left,←,0.6891032999847084,True,35,1
KM-K-22K22S1,602,experiment,95,→,right,→,0.41690339986234903,True,35,1
KM-K-22K22S1,603,experiment,67,↓,down,↓,0.5592665001749992,True,35,0
KM-K-22K22S1,604,experiment,88,↑,up,↑,0.39189249998889863,True,35,1
KM-K-22K22S1,605,experiment,75,↑,up,↑,0.6281357000116259,True,35,0
KM-K-22K22S1,606,experiment,92,→,right,→,0.46105799986980855,True,35,1
KM-K-22K22S1,607,experiment,80,↓,down,↓,0.5122945001348853,True,35,0
KM-K-22K22S1,608,training,68,↓,down,↓,0.6609360000584275,True,35,0
KM-K-22K22S1,609,training,57,↓,down,↓,0.584197600139305,True,35,1
KM-K-22K22S1,610,experiment,91,→,no_key,no_letter,-1.0,False,35,1
KM-K-22K22S1,611,experiment,52,←,left,←,0.6681806999258697,True,35,1
KM-K-22K22S1,612,experiment,89,→,right,→,0.6684206000063568,True,35,1
KM-K-22K22S1,613,experiment,59,↑,up,↑,0.7751116999424994,True,35,1
KM-K-22K22S1,614,experiment,76,→,right,→,0.47127049998380244,True,35,1
KM-K-22K22S1,615,experiment,88,←,left,←,0.4954336998052895,True,35,1
KM-K-22K22S1,616,experiment,105,↑,up,↑,0.4178051999770105,True,35,1
KM-K-22K22S1,617,experiment,106,↑,up,↑,0.7013614000752568,True,35,0
KM-K-22K22S1,618,experiment,85,←,left,←,0.47782670008018613,True,35,1
KM-K-22K22S1,619,experiment,48,↑,up,↑,0.4275793998967856,True,35,1
KM-K-22K22S1,620,experiment,100,↓,down,↓,0.4727303001563996,True,35,0
KM-K-22K22S1,621,experiment,73,←,left,←,0.7817579999100417,True,35,1
KM-K-22K22S1,622,experiment,62,↓,down,↓,0.42496119998395443,True,35,1
KM-K-22K22S1,623,experiment,92,→,right,→,0.7711647001560777,True,35,0
KM-K-22K22S1,624,experiment,97,↑,left,←,0.3012454998679459,False,35,1
KM-K-22K22S1,625,experiment,108,↑,up,↑,0.3753955999854952,True,35,0
KM-K-22K22S1,626,experiment,103,←,left,←,0.7794532000552863,True,35,0
KM-K-22K22S1,627,experiment,72,↑,up,↑,0.7967556999064982,True,35,1
KM-K-22K22S1,628,experiment,57,←,left,←,0.8742764999624342,True,35,1
KM-K-22K22S1,629,experiment,49,↓,down,↓,0.4634674999397248,True,35,1
KM-K-22K22S1,630,experiment,58,→,right,→,0.3758669998496771,True,35,0
KM-K-22K22S1,631,experiment,81,←,left,←,0.7443913000170141,True,35,1
KM-K-22K22S1,632,experiment,60,↓,down,↓,0.49487229995429516,True,35,1
KM-K-22K22S1,633,experiment,104,→,right,→,0.7531129999551922,True,35,1
KM-K-22K22S1,634,experiment,90,←,left,←,0.6458079000003636,True,35,1
KM-K-22K22S1,635,experiment,66,→,right,→,0.6065188001375645,True,35,1
KM-K-22K22S1,636,experiment,102,↓,down,↓,0.6769257001578808,True,35,1
KM-K-22K22S1,637,experiment,99,←,left,←,0.5697152998764068,True,35,1
KM-K-22K22S1,638,experiment,80,↓,down,↓,0.42607199982739985,True,35,1
KM-K-22K22S1,639,experiment,77,←,left,←,0.7103118000086397,True,35,0
KM-K-22K22S1,640,experiment,68,↓,no_key,no_letter,-1.0,False,35,1
KM-K-22K22S1,641,experiment,107,→,right,→,0.45935630006715655,True,35,1
KM-K-22K22S1,642,experiment,67,→,right,→,0.42752479994669557,True,35,0
KM-K-22K22S1,643,experiment,51,↑,up,↑,0.7681792001239955,True,35,0
KM-K-22K22S1,644,experiment,82,→,right,→,0.5906843999400735,True,35,1
KM-K-22K22S1,645,experiment,95,↑,up,↑,0.6640111999586225,True,35,1
KM-K-22K22S1,646,experiment,87,→,right,→,0.505017900140956,True,35,1
KM-K-22K22S1,647,experiment,74,→,right,→,0.5646957999560982,True,35,1
KM-K-22K22S1,648,experiment,56,↓,down,↓,0.6118304999545217,True,35,1
KM-K-22K22S1,649,experiment,63,↑,up,↑,0.4788511998485774,True,35,1
KM-K-22K22S1,650,experiment,64,←,left,←,0.6866623999085277,True,35,1
KM-K-22K22S1,651,experiment,65,→,right,→,0.5025698998942971,True,35,1
KM-K-22K22S1,652,experiment,70,→,right,→,0.7392812999896705,True,35,1
KM-K-22K22S1,653,experiment,79,↑,up,↑,0.5081304998602718,True,35,1
KM-K-22K22S1,654,experiment,84,→,right,→,0.46129230014048517,True,35,1
KM-K-22K22S1,655,experiment,96,↑,no_key,no_letter,-1.0,False,35,0
KM-K-22K22S1,656,experiment,93,↑,up,↑,0.6141660998109728,True,35,1
KM-K-22K22S1,657,experiment,98,←,left,←,0.6695854000281543,True,35,1
KM-K-22K22S1,658,experiment,71,→,right,→,0.43419339996762574,True,35,1
KM-K-22K22S1,659,experiment,78,←,left,←,0.5367995998822153,True,35,1
KM-K-22K22S1,660,experiment,69,→,right,→,0.7565113001037389,True,35,1
KM-K-22K22S1,661,experiment,54,↓,down,↓,0.6209904998540878,True,35,1
KM-K-22K22S1,662,experiment,61,↑,up,↑,0.42520860000513494,True,35,1
KM-K-22K22S1,663,experiment,86,↑,up,↑,0.5548182998318225,True,35,0
KM-K-22K22S1,664,experiment,55,→,right,→,0.43572590011171997,True,35,1
KM-K-22K22S1,665,experiment,53,←,left,←,0.535502600017935,True,35,1
KM-K-22K22S1,666,experiment,83,↑,up,↑,0.5271106997970492,True,35,1
KM-K-22K22S1,667,experiment,101,→,right,→,0.5532583999447525,True,35,1
KM-K-22K22S1,668,experiment,50,↑,up,↑,0.5147313999477774,True,35,1
KM-K-22K22S1,669,experiment,94,→,right,→,0.6553356000222266,True,35,1
KM-K-22K22S1,670,experiment,75,→,right,→,0.5886082998476923,True,35,1
KM-K-22K22S1,671,training,83,←,left,←,0.43418570002540946,True,34,0
KM-K-22K22S1,672,training,88,→,right,→,0.4342289997730404,True,34,0
KM-K-22K22S1,673,experiment,96,←,left,←,0.717432500096038,True,34,0
KM-K-22K22S1,674,experiment,81,↑,up,↑,0.43428429984487593,True,34,1
KM-K-22K22S1,675,experiment,76,↓,no_key,no_letter,-1.0,False,34,1
KM-K-22K22S1,676,experiment,66,↓,down,↓,0.5051231998950243,True,34,1
KM-K-22K22S1,677,experiment,72,←,right,→,0.6772111000027508,False,34,1
KM-K-22K22S1,678,experiment,95,↓,down,↓,0.46751579991541803,True,34,1
KM-K-22K22S1,679,experiment,84,↑,up,↑,0.589293299941346,True,34,1
KM-K-22K22S1,680,experiment,55,↓,down,↓,0.3675523998681456,True,34,1
KM-K-22K22S1,681,experiment,75,↓,down,↓,0.3923986000008881,True,34,0
KM-K-22K22S1,682,experiment,71,↓,down,↓,0.677044800017029,True,34,0
KM-K-22K22S1,683,experiment,52,↑,up,↑,0.6331809998955578,True,34,1
KM-K-22K22S1,684,experiment,91,→,right,→,0.5301101000513881,True,34,1
KM-K-22K22S1,685,experiment,85,↓,down,↓,0.41063619987107813,True,34,1
KM-K-22K22S1,686,experiment,89,↓,no_key,no_letter,-1.0,False,34,0
KM-K-22K22S1,687,experiment,69,←,left,←,0.7429653001017869,True,34,1
KM-K-22K22S1,688,experiment,106,←,left,←,0.4707384998910129,True,34,1
KM-K-22K22S1,689,experiment,103,↑,no_key,no_letter,-1.0,False,34,1
KM-K-22K22S1,690,experiment,87,↑,up,↑,0.6320704999379814,True,34,1
KM-K-22K22S1,691,experiment,65,←,left,←,0.42735440004616976,True,34,1
KM-K-22K22S1,692,experiment,61,←,left,←,0.6922676998656243,True,34,0
KM-K-22K22S1,693,experiment,99,↑,no_key,no_letter,-1.0,False,34,1
KM-K-22K22S1,694,experiment,56,←,left,←,0.37557499995455146,True,34,1
KM-K-22K22S1,695,experiment,82,↓,down,↓,0.766637000022456,True,34,0
KM-K-22K22S1,696,experiment,92,↑,up,↑,0.6178506999276578,True,34,1
KM-K-22K22S1,697,experiment,105,←,left,←,0.7350642001256347,True,34,1
KM-K-22K22S1,698,experiment,107,↑,up,↑,0.5903365002013743,True,34,1
KM-K-22K22S1,699,experiment,79,→,right,→,0.7169842999428511,True,34,1
KM-K-22K22S1,700,experiment,48,←,left,←,0.7208742999937385,True,34,1
KM-K-22K22S1,701,experiment,62,←,left,←,0.543983899988234,True,34,1
KM-K-22K22S1,702,experiment,83,↑,up,↑,0.5673181999009103,True,34,1
KM-K-22K22S1,703,experiment,73,→,right,→,0.5291692002210766,True,34,1
KM-K-22K22S1,704,experiment,49,↑,up,↑,0.5717170999851078,True,34,1
KM-K-22K22S1,705,experiment,94,↓,down,↓,0.45385249983519316,True,34,1
KM-K-22K22S1,706,experiment,54,←,left,←,0.7220862000249326,True,34,0
KM-K-22K22S1,707,experiment,78,↓,down,↓,0.46802110015414655,True,34,1
KM-K-22K22S1,708,experiment,104,→,right,→,0.4951726000290364,True,34,1
KM-K-22K22S1,709,experiment,102,↓,down,↓,0.6018327998463064,True,34,1
KM-K-22K22S1,710,experiment,101,←,left,←,0.6405482001136988,True,34,1
KM-K-22K22S1,711,experiment,98,↓,down,↓,0.5589085000101477,True,34,1
KM-K-22K22S1,712,experiment,59,↑,down,↓,0.7254510000348091,False,34,1
KM-K-22K22S1,713,experiment,67,→,right,→,0.5387849998660386,True,34,1
KM-K-22K22S1,714,experiment,50,↓,down,↓,0.9168940999079496,True,34,1
KM-K-22K22S1,715,experiment,58,↑,up,↑,0.49370369990356266,True,34,1
KM-K-22K22S1,716,experiment,90,←,left,←,0.484336799941957,True,34,1
KM-K-22K22S1,717,experiment,51,↓,down,↓,0.5443792000878602,True,34,1
KM-K-22K22S1,718,experiment,88,↓,down,↓,0.5339640001766384,True,34,1
KM-K-22K22S1,719,experiment,97,↑,no_key,no_letter,-1.0,False,34,1
KM-K-22K22S1,720,experiment,86,→,right,→,0.8156134998425841,True,34,1
KM-K-22K22S1,721,experiment,60,→,right,→,0.467422999907285,True,34,1
KM-K-22K22S1,722,experiment,70,←,left,←,0.6577922001015395,True,34,1
KM-K-22K22S1,723,experiment,93,←,no_key,no_letter,-1.0,False,34,1
KM-K-22K22S1,724,experiment,63,↓,down,↓,0.6232960000634193,True,34,1
KM-K-22K22S1,725,experiment,77,↑,up,↑,0.6772829999681562,True,34,1
KM-K-22K22S1,726,experiment,64,→,right,→,0.5655157999135554,True,34,1
KM-K-22K22S1,727,experiment,74,↑,up,↑,0.4947401999961585,True,34,1
KM-K-22K22S1,728,experiment,100,↓,down,↓,0.5221876001451164,True,34,1
KM-K-22K22S1,729,experiment,80,↓,down,↓,0.6749866001773626,True,34,1
KM-K-22K22S1,730,experiment,57,→,right,→,0.9896649001166224,True,34,1
KM-K-22K22S1,731,experiment,53,←,left,←,0.7409754998516291,True,34,1
KM-K-22K22S1,732,experiment,68,→,right,→,0.657389200059697,True,34,1
KM-K-22K22S1,733,experiment,108,→,right,→,0.6116387001238763,True,34,1
KM-K-22K22S1,734,training,67,↓,down,↓,0.5315637001767755,True,34,0
KM-K-22K22S1,735,training,67,←,left,←,0.6087042998988181,True,34,1
KM-K-22K22S1,736,experiment,93,↑,up,↑,0.48971230001188815,True,34,1
KM-K-22K22S1,737,experiment,79,↓,no_key,no_letter,-1.0,False,34,1
KM-K-22K22S1,738,experiment,66,→,right,→,0.9613854000344872,True,34,1
KM-K-22K22S1,739,experiment,52,↓,down,↓,0.5542069999501109,True,34,1
KM-K-22K22S1,740,experiment,95,→,right,→,0.5489831999875605,True,34,1
KM-K-22K22S1,741,experiment,78,←,left,←,0.709484799997881,True,34,1
KM-K-22K22S1,742,experiment,76,→,right,→,0.4259933999273926,True,34,1
KM-K-22K22S1,743,experiment,77,↓,down,↓,0.5823550999630243,True,34,1
KM-K-22K22S1,744,experiment,55,↑,up,↑,0.5089237000793219,True,34,1
KM-K-22K22S1,745,experiment,90,↓,down,↓,0.425914199789986,True,34,1
KM-K-22K22S1,746,experiment,92,→,right,→,0.42606529989279807,True,34,0
KM-K-22K22S1,747,experiment,101,→,right,→,0.47350160009227693,True,34,0
KM-K-22K22S1,748,experiment,48,↓,down,↓,0.3920839000493288,True,34,1
KM-K-22K22S1,749,experiment,87,→,right,→,0.45875140000134706,True,34,0
KM-K-22K22S1,750,experiment,71,→,right,→,0.6651385000441223,True,34,1
KM-K-22K22S1,751,experiment,68,↓,down,↓,0.5845739999786019,True,34,1
KM-K-22K22S1,752,experiment,80,→,right,→,0.5271496998611838,True,34,1
KM-K-22K22S1,753,experiment,75,←,right,→,0.5617217000108212,False,34,1
KM-K-22K22S1,754,experiment,89,↑,up,↑,0.5022517000325024,True,34,1
KM-K-22K22S1,755,experiment,97,←,left,←,0.6663899999111891,True,34,1
KM-K-22K22S1,756,experiment,96,←,left,←,0.7924325000494719,True,34,1
KM-K-22K22S1,757,experiment,59,↓,down,↓,0.6697755001951009,True,34,1
KM-K-22K22S1,758,experiment,102,↓,down,↓,0.5296424999833107,True,34,1
KM-K-22K22S1,759,experiment,67,←,left,←,0.47872360004112124,True,34,1
KM-K-22K22S1,760,experiment,65,↑,up,↑,0.7182639997918159,True,34,1
KM-K-22K22S1,761,experiment,58,←,left,←,0.5023040000814945,True,34,1
KM-K-22K22S1,762,experiment,84,↑,up,↑,0.7029585998971015,True,34,1
KM-K-22K22S1,763,experiment,104,←,left,←,0.6253396000247449,True,34,1
KM-K-22K22S1,764,experiment,50,←,left,←,0.6561450001318008,True,34,1
KM-K-22K22S1,765,experiment,74,↑,up,↑,0.6456535998731852,True,34,1
KM-K-22K22S1,766,experiment,83,↓,down,↓,0.5606778000947088,True,34,1
KM-K-22K22S1,767,experiment,54,↓,down,↓,0.640724099939689,True,34,1
KM-K-22K22S1,768,experiment,85,←,left,←,0.6674013999290764,True,34,1
KM-K-22K22S1,769,experiment,81,↑,no_key,no_letter,-1.0,False,34,1
KM-K-22K22S1,770,experiment,88,→,right,→,0.6358687998726964,True,34,1
KM-K-22K22S1,771,experiment,60,→,right,→,0.62298130011186,True,34,1
KM-K-22K22S1,772,experiment,94,↑,up,↑,0.7195814000442624,True,34,1
KM-K-22K22S1,773,experiment,49,↓,down,↓,0.6427147998474538,True,34,1
KM-K-22K22S1,774,experiment,105,→,right,→,0.6068103001452982,True,34,1
KM-K-22K22S1,775,experiment,82,↑,up,↑,0.6358711998909712,True,34,1
KM-K-22K22S1,776,experiment,99,↑,up,↑,0.5616750000044703,True,34,1
KM-K-22K22S1,777,experiment,63,←,left,←,0.639210999943316,True,34,1
KM-K-22K22S1,778,experiment,108,↑,up,↑,0.5699985001701862,True,34,1
KM-K-22K22S1,779,experiment,61,↑,up,↑,0.47147649992257357,True,34,1
KM-K-22K22S1,780,experiment,103,←,left,←,0.5228099001105875,True,34,1
KM-K-22K22S1,781,experiment,57,↓,down,↓,0.6513254998717457,True,34,1
KM-K-22K22S1,782,experiment,100,←,left,←,0.47266230010427535,True,34,1
KM-K-22K22S1,783,experiment,91,↓,down,↓,0.6317219000775367,True,34,1
KM-K-22K22S1,784,experiment,98,←,left,←,0.4786086999811232,True,34,1
KM-K-22K22S1,785,experiment,70,←,left,←,0.4532002001069486,True,34,1
KM-K-22K22S1,786,experiment,72,→,right,→,0.4907464999705553,True,34,0
KM-K-22K22S1,787,experiment,64,↑,up,↑,0.5541366999968886,True,34,1
KM-K-22K22S1,788,experiment,107,→,left,←,0.7209149000700563,False,34,1
KM-K-22K22S1,789,experiment,69,↑,up,↑,0.8615808000322431,True,34,1
KM-K-22K22S1,790,experiment,73,→,right,→,0.43399860011413693,True,34,1
KM-K-22K22S1,791,experiment,51,↑,up,↑,0.777534699998796,True,34,0
KM-K-22K22S1,792,experiment,86,↑,no_key,no_letter,-1.0,False,34,1
KM-K-22K22S1,793,experiment,106,→,right,→,0.59025470004417,True,34,1
KM-K-22K22S1,794,experiment,56,←,left,←,0.6842888998799026,True,34,1
KM-K-22K22S1,795,experiment,53,↑,up,↑,0.4566011999268085,True,34,1
KM-K-22K22S1,796,experiment,62,→,right,→,0.6337468000128865,True,34,1
KM-K-22K22S1,797,training,70,↑,up,↑,0.901217499980703,True,33,0
KM-K-22K22S1,798,training,72,→,right,→,0.6093374998308718,True,33,1
KM-K-22K22S1,799,experiment,99,→,right,→,0.4261576000135392,True,33,1
KM-K-22K22S1,800,experiment,62,←,left,←,0.4009590002242476,True,33,1
KM-K-22K22S1,801,experiment,52,↑,up,↑,0.41941970004700124,True,33,1
KM-K-22K22S1,802,experiment,58,→,right,→,0.6939008000772446,True,33,0
KM-K-22K22S1,803,experiment,72,↑,up,↑,0.4257159000262618,True,33,1
KM-K-22K22S1,804,experiment,69,↑,up,↑,0.4175241000484675,True,33,0
KM-K-22K22S1,805,experiment,78,↓,down,↓,0.664379799971357,True,33,1
KM-K-22K22S1,806,experiment,88,←,left,←,0.4572662999853492,True,33,1
KM-K-22K22S1,807,experiment,106,→,right,→,0.5721075998153538,True,33,1
KM-K-22K22S1,808,experiment,68,←,right,→,0.6153828999958932,False,33,1
KM-K-22K22S1,809,experiment,87,↓,down,↓,0.6181533001363277,True,33,1
KM-K-22K22S1,810,experiment,76,←,left,←,0.6806172002106905,True,33,1
KM-K-22K22S1,811,experiment,56,←,left,←,0.6113865000661463,True,33,1
KM-K-22K22S1,812,experiment,71,↑,up,↑,0.5796156998258084,True,33,1
KM-K-22K22S1,813,experiment,98,↑,up,↑,0.6603077000472695,True,33,1
KM-K-22K22S1,814,experiment,51,↓,down,↓,0.6014161000493914,True,33,1
KM-K-22K22S1,815,experiment,61,→,right,→,0.5256193000823259,True,33,1
KM-K-22K22S1,816,experiment,55,→,right,→,0.6308784000575542,True,33,1
KM-K-22K22S1,817,experiment,86,←,left,←,0.7215334000065923,True,33,1
KM-K-22K22S1,818,experiment,66,↓,down,↓,0.5834635999053717,True,33,1
KM-K-22K22S1,819,experiment,57,→,right,→,0.5095331000629812,True,33,1
KM-K-22K22S1,820,experiment,83,↑,up,↑,0.7021183001343161,True,33,1
KM-K-22K22S1,821,experiment,75,↓,down,↓,0.4573470000177622,True,33,1
KM-K-22K22S1,822,experiment,60,↑,up,↑,0.6355066001415253,True,33,1
KM-K-22K22S1,823,experiment,91,↓,down,↓,0.55645120004192,True,33,1
KM-K-22K22S1,824,experiment,101,←,left,←,0.7091604999732226,True,33,1
KM-K-22K22S1,825,experiment,95,→,right,→,0.569922300055623,True,33,1
KM-K-22K22S1,826,experiment,103,←,left,←,0.6335218001622707,True,33,1
KM-K-22K22S1,827,experiment,50,↑,down,↓,0.6162480998318642,False,33,1
KM-K-22K22S1,828,experiment,79,←,no_key,no_letter,-1.0,False,33,1
KM-K-22K22S1,829,experiment,102,↓,down,↓,0.5432293999474496,True,33,1
KM-K-22K22S1,830,experiment,89,→,right,→,0.7006607002113014,True,33,1
KM-K-22K22S1,831,experiment,80,↓,down,↓,0.6066066999919713,True,33,1
KM-K-22K22S1,832,experiment,97,→,right,→,0.6228964000474662,True,33,1
KM-K-22K22S1,833,experiment,81,↑,up,↑,0.6112039000727236,True,33,1
KM-K-22K22S1,834,experiment,100,↑,up,↑,0.5622786998283118,True,33,1
KM-K-22K22S1,835,experiment,48,↓,down,↓,0.612300300039351,True,33,1
KM-K-22K22S1,836,experiment,67,→,right,→,0.46243000007234514,True,33,1
KM-K-22K22S1,837,experiment,53,↑,up,↑,0.6177995000034571,True,33,1
KM-K-22K22S1,838,experiment,90,↓,down,↓,0.5878936001099646,True,33,1
KM-K-22K22S1,839,experiment,64,←,left,←,0.47145899990573525,True,33,1
KM-K-22K22S1,840,experiment,104,↓,down,↓,0.5625523999333382,True,33,1
KM-K-22K22S1,841,experiment,74,↓,down,↓,0.5079188998788595,True,33,1
KM-K-22K22S1,842,experiment,59,←,left,←,0.4002588000148535,True,33,1
KM-K-22K22S1,843,experiment,105,↓,down,↓,0.4093055999837816,True,33,0
KM-K-22K22S1,844,experiment,107,↑,up,↑,0.6782355001196265,True,33,0
KM-K-22K22S1,845,experiment,77,←,left,←,0.45803889981471,True,33,1
KM-K-22K22S1,846,experiment,49,↓,down,↓,0.591816799947992,True,33,1
KM-K-22K22S1,847,experiment,54,→,right,→,0.6705478997901082,True,33,1
KM-K-22K22S1,848,experiment,84,↓,down,↓,0.5760260000824928,True,33,1
KM-K-22K22S1,849,experiment,92,←,left,←,0.48317619995214045,True,33,1
KM-K-22K22S1,850,experiment,108,→,right,→,0.46859829989261925,True,33,1
KM-K-22K22S1,851,experiment,82,←,left,←,0.45493809995241463,True,33,1
KM-K-22K22S1,852,experiment,94,↓,down,↓,0.5418461000081152,True,33,1
KM-K-22K22S1,853,experiment,93,←,left,←,0.5218218001537025,True,33,1
KM-K-22K22S1,854,experiment,73,→,right,→,0.5970239001326263,True,33,1
KM-K-22K22S1,855,experiment,65,↑,no_key,no_letter,-1.0,False,33,1
KM-K-22K22S1,856,experiment,70,↑,up,↑,0.41771729988977313,True,33,1
KM-K-22K22S1,857,experiment,63,↓,down,↓,0.5906239000614733,True,33,1
KM-K-22K22S1,858,experiment,96,←,left,←,0.417417700169608,True,33,1
KM-K-22K22S1,859,experiment,85,↑,up,↑,0.5146798000205308,True,33,0
KM-K-22K22S1,860,training,81,→,right,→,0.5607455999124795,True,32,0
KM-K-22K22S1,861,training,74,→,left,←,0.3169877000618726,False,32,1
KM-K-22K22S1,862,experiment,60,↑,up,↑,0.4009130001068115,True,32,0
KM-K-22K22S1,863,experiment,82,→,right,→,0.4000641000457108,True,32,0
KM-K-22K22S1,864,experiment,89,→,right,→,0.6014029998332262,True,32,0
KM-K-22K22S1,865,experiment,48,↓,down,↓,0.4169260999187827,True,32,1
KM-K-22K22S1,866,experiment,71,←,left,←,0.6498648999258876,True,32,0
KM-K-22K22S1,867,experiment,77,↑,no_key,no_letter,-1.0,False,32,1
KM-K-22K22S1,868,experiment,70,→,right,→,0.6991091000381857,True,32,1
KM-K-22K22S1,869,experiment,55,→,right,→,0.589422499993816,True,32,1
KM-K-22K22S1,870,experiment,96,←,no_key,no_letter,-1.0,False,32,1
KM-K-22K22S1,871,experiment,81,→,right,→,0.9832189998123795,True,32,1
KM-K-22K22S1,872,experiment,106,←,right,→,0.7972969999536872,False,32,1
KM-K-22K22S1,873,experiment,65,↓,up,↑,0.5923810000531375,False,32,1
KM-K-22K22S1,874,experiment,91,↓,down,↓,0.4509837001096457,True,32,1
KM-K-22K22S1,875,experiment,57,→,right,→,0.5988461000379175,True,32,1
KM-K-22K22S1,876,experiment,56,↓,right,→,0.572298499988392,False,32,1
KM-K-22K22S1,877,experiment,93,→,right,→,0.45494780014269054,True,32,1
KM-K-22K22S1,878,experiment,83,→,right,→,0.5856256999541074,True,32,1
KM-K-22K22S1,879,experiment,107,←,left,←,0.4713363000191748,True,32,1
KM-K-22K22S1,880,experiment,58,→,right,→,0.6896341999527067,True,32,1
KM-K-22K22S1,881,experiment,54,←,left,←,0.6604283999186009,True,32,1
KM-K-22K22S1,882,experiment,50,←,right,→,0.6820795999374241,False,32,1
KM-K-22K22S1,883,experiment,75,←,left,←,0.4862874997779727,True,32,1
KM-K-22K22S1,884,experiment,49,→,right,→,0.458875099895522,True,32,1
KM-K-22K22S1,885,experiment,98,→,right,→,0.47243400011211634,True,32,1
KM-K-22K22S1,886,experiment,84,←,left,←,0.6740745999850333,True,32,1
KM-K-22K22S1,887,experiment,95,↑,right,→,0.7919880000408739,False,32,1
KM-K-22K22S1,888,experiment,53,↓,down,↓,0.6953992000781,True,32,1
KM-K-22K22S1,889,experiment,76,↓,down,↓,0.44316110014915466,True,32,1
KM-K-22K22S1,890,experiment,67,→,right,→,0.667282999958843,True,32,1
KM-K-22K22S1,891,experiment,100,↓,down,↓,0.6801368999294937,True,32,1
KM-K-22K22S1,892,experiment,99,↑,up,↑,0.6282930998131633,True,32,1
KM-K-22K22S1,893,experiment,92,↓,down,↓,0.39266090001910925,True,32,1
KM-K-22K22S1,894,experiment,66,↑,up,↑,0.6635883999988437,True,32,1
KM-K-22K22S1,895,experiment,86,↑,up,↑,0.40019630012102425,True,32,1
KM-K-22K22S1,896,experiment,104,↑,up,↑,0.6066227001138031,True,32,0
KM-K-22K22S1,897,experiment,102,←,left,←,0.5088800000958145,True,32,1
KM-K-22K22S1,898,experiment,59,↑,up,↑,0.6376757998950779,True,32,1
KM-K-22K22S1,899,experiment,90,→,left,←,0.6943417999427766,False,32,1
KM-K-22K22S1,900,experiment,105,→,right,→,0.5681394999846816,True,32,1
KM-K-22K22S1,901,experiment,74,↓,down,↓,0.4026186999399215,True,32,1
KM-K-22K22S1,902,experiment,79,↓,down,↓,0.6075092998798937,True,32,0
KM-K-22K22S1,903,experiment,62,←,left,←,0.4828390998300165,True,32,1
KM-K-22K22S1,904,experiment,94,↓,down,↓,0.3759807001333684,True,32,1
KM-K-22K22S1,905,experiment,103,→,right,→,0.7356842001900077,True,32,0
KM-K-22K22S1,906,experiment,78,←,left,←,0.5051266001537442,True,32,1
KM-K-22K22S1,907,experiment,61,↓,no_key,no_letter,-1.0,False,32,1
KM-K-22K22S1,908,experiment,63,↑,up,↑,0.44816949986852705,True,32,1
KM-K-22K22S1,909,experiment,97,↑,left,←,0.9340110998600721,False,32,1
KM-K-22K22S1,910,experiment,101,←,right,→,1.1279525998979807,False,32,1
KM-K-22K22S1,911,experiment,51,→,right,→,0.45064310007728636,True,32,1
KM-K-22K22S1,912,experiment,52,↓,right,→,1.02370800008066,False,32,1
KM-K-22K22S1,913,experiment,85,↑,up,↑,0.5629197000525892,True,32,1
KM-K-22K22S1,914,experiment,68,↓,down,↓,0.7821253999136388,True,32,1
KM-K-22K22S1,915,experiment,88,↑,up,↑,0.5464305998757482,True,32,1
KM-K-22K22S1,916,experiment,87,→,right,→,0.9598117000423372,True,32,1
KM-K-22K22S1,917,experiment,72,←,left,←,0.5459233999717981,True,32,1
KM-K-22K22S1,918,experiment,64,←,left,←,0.719493499957025,True,32,1
KM-K-22K22S1,919,experiment,69,↓,down,↓,0.46820029988884926,True,32,1
KM-K-22K22S1,920,experiment,108,↑,up,↑,0.7099591000005603,True,32,1
KM-K-22K22S1,921,experiment,73,↓,right,→,1.0500350999645889,False,32,1
KM-K-22K22S1,922,experiment,80,→,right,→,0.7422849999275059,True,32,1
KM-K-22K22S1,923,training,65,←,left,←,0.6076106999535114,True,32,0
KM-K-22K22S1,924,training,64,→,right,→,0.6505110000725836,True,32,1
KM-K-22K22S1,925,experiment,76,→,right,→,0.4482652998995036,True,32,1
KM-K-22K22S1,926,experiment,74,←,left,←,0.6702185999602079,True,32,1
KM-K-22K22S1,927,experiment,108,→,right,→,0.6240447000600398,True,32,1
KM-K-22K22S1,928,experiment,86,↓,down,↓,0.6108311000280082,True,32,1
KM-K-22K22S1,929,experiment,102,→,right,→,0.48889300017617643,True,32,1
KM-K-22K22S1,930,experiment,59,→,left,←,0.754203800112009,False,32,1
KM-K-22K22S1,931,experiment,66,←,left,←,0.5344517999328673,True,32,1
KM-K-22K22S1,932,experiment,53,←,left,←,0.727952599991113,True,32,1
KM-K-22K22S1,933,experiment,51,←,left,←,0.6584471000824124,True,32,1
KM-K-22K22S1,934,experiment,91,→,right,→,0.6425817999988794,True,32,1
KM-K-22K22S1,935,experiment,81,↓,down,↓,0.4628851998131722,True,32,1
KM-K-22K22S1,936,experiment,87,↑,up,↑,0.6235277000814676,True,32,1
KM-K-22K22S1,937,experiment,89,↑,up,↑,0.41093580005690455,True,32,1
KM-K-22K22S1,938,experiment,94,↓,down,↓,0.522132100071758,True,32,0
KM-K-22K22S1,939,experiment,75,←,no_key,no_letter,-1.0,False,32,1
KM-K-22K22S1,940,experiment,101,→,right,→,0.9744029000867158,True,32,1
KM-K-22K22S1,941,experiment,88,↑,up,↑,1.0589130001608282,True,32,1
KM-K-22K22S1,942,experiment,104,↑,no_key,no_letter,-1.0,False,32,1
KM-K-22K22S1,943,experiment,96,→,right,→,0.47450380004011095,True,32,1
KM-K-22K22S1,944,experiment,82,↓,down,↓,0.6129232998937368,True,32,1
KM-K-22K22S1,945,experiment,99,↑,up,↑,0.5478634000755847,True,32,1
KM-K-22K22S1,946,experiment,62,↓,down,↓,0.36777730006724596,True,32,1
KM-K-22K22S1,947,experiment,72,↓,down,↓,0.5154658001847565,True,32,0
KM-K-22K22S1,948,experiment,56,↑,up,↑,0.5725847999565303,True,32,1
KM-K-22K22S1,949,experiment,55,↓,up,↑,0.587759300135076,False,32,1
KM-K-22K22S1,950,experiment,92,↓,down,↓,0.4620499999728054,True,32,1
KM-K-22K22S1,951,experiment,83,←,left,←,0.45627589989453554,True,32,1
KM-K-22K22S1,952,experiment,70,↓,down,↓,0.43909849994815886,True,32,1
KM-K-22K22S1,953,experiment,98,→,right,→,0.5896095000207424,True,32,0
KM-K-22K22S1,954,experiment,65,↑,up,↑,0.40257770009338856,True,32,1
KM-K-22K22S1,955,experiment,85,↑,down,↓,0.5003996000159532,False,32,0
KM-K-22K22S1,956,experiment,107,↓,down,↓,0.6373318999540061,True,32,1
KM-K-22K22S1,957,experiment,103,↓,down,↓,0.754343899898231,True,32,1
KM-K-22K22S1,958,experiment,106,→,right,→,0.5214955999981612,True,32,1
KM-K-22K22S1,959,experiment,60,→,right,→,0.7049464001320302,True,32,1
KM-K-22K22S1,960,experiment,63,←,left,←,0.952227900037542,True,32,1
KM-K-22K22S1,961,experiment,49,↓,down,↓,0.4745892998762429,True,32,1
KM-K-22K22S1,962,experiment,50,→,right,→,0.47968490002676845,True,32,1
KM-K-22K22S1,963,experiment,100,←,left,←,0.7235007998533547,True,32,1
KM-K-22K22S1,964,experiment,57,↓,down,↓,0.6043278998695314,True,32,1
KM-K-22K22S1,965,experiment,90,→,right,→,0.6704921999480575,True,32,1
KM-K-22K22S1,966,experiment,77,→,right,→,0.4827356000896543,True,32,1
KM-K-22K22S1,967,experiment,67,←,left,←,0.4495200999081135,True,32,1
KM-K-22K22S1,968,experiment,48,↓,left,←,0.3527608998119831,False,32,1
KM-K-22K22S1,969,experiment,58,→,left,←,1.0066533999051899,False,32,1
KM-K-22K22S1,970,experiment,54,↑,up,↑,0.6368776999879628,True,32,1
KM-K-22K22S1,971,experiment,84,↓,down,↓,0.5358775001950562,True,32,1
KM-K-22K22S1,972,experiment,79,↑,up,↑,0.47275589988566935,True,32,1
KM-K-22K22S1,973,experiment,78,→,right,→,0.4447931998874992,True,32,1
KM-K-22K22S1,974,experiment,73,↑,up,↑,0.40110749984160066,True,32,1
KM-K-22K22S1,975,experiment,52,↓,no_key,no_letter,-1.0,False,32,1
KM-K-22K22S1,976,experiment,61,←,left,←,0.7287915998604149,True,32,1
KM-K-22K22S1,977,experiment,64,→,right,→,0.4395234000403434,True,32,1
KM-K-22K22S1,978,experiment,71,↓,down,↓,0.43820349988527596,True,32,1
KM-K-22K22S1,979,experiment,80,→,right,→,0.4342869999818504,True,32,0
KM-K-22K22S1,980,experiment,69,→,right,→,0.5700715000275522,True,32,0
KM-K-22K22S1,981,experiment,95,↑,up,↑,0.4526434999424964,True,32,1
KM-K-22K22S1,982,experiment,97,→,right,→,0.4505344999488443,True,32,1
KM-K-22K22S1,983,experiment,105,→,right,→,0.590028699953109,True,32,1
KM-K-22K22S1,984,experiment,93,↑,up,↑,0.4176369998604059,True,32,1
KM-K-22K22S1,985,experiment,68,↓,down,↓,0.6330014001578093,True,32,1
KM-K-22K22S1,986,training,63,←,left,←,0.5223257998004556,True,32,0
KM-K-22K22S1,987,training,93,↓,down,↓,0.6311081000603735,True,32,1
KM-K-22K22S1,988,experiment,77,←,right,→,0.8045820000115782,False,32,1
KM-K-22K22S1,989,experiment,52,↓,down,↓,0.4597241000737995,True,32,1
KM-K-22K22S1,990,experiment,50,↓,down,↓,0.40283609996549785,True,32,1
KM-K-22K22S1,991,experiment,100,←,left,←,0.5437773999292403,True,32,0
KM-K-22K22S1,992,experiment,97,↑,up,↑,0.6341593000106514,True,32,1
KM-K-22K22S1,993,experiment,55,↓,down,↓,0.8388646000530571,True,32,1
KM-K-22K22S1,994,experiment,71,↓,down,↓,0.5182755999267101,True,32,1
KM-K-22K22S1,995,experiment,88,→,right,→,0.5244793000165373,True,32,1
KM-K-22K22S1,996,experiment,81,↑,up,↑,0.6690757998730987,True,32,1
KM-K-22K22S1,997,experiment,51,→,right,→,0.6580379998777062,True,32,1
KM-K-22K22S1,998,experiment,59,→,right,→,0.5327353000175208,True,32,1
KM-K-22K22S1,999,experiment,73,↑,up,↑,0.6316272998228669,True,32,1
KM-K-22K22S1,1000,experiment,62,←,right,→,0.5543804001063108,False,32,1
KM-K-22K22S1,1001,experiment,93,↓,down,↓,0.41704219998791814,True,32,1
KM-K-22K22S1,1002,experiment,56,↑,up,↑,0.6269548998679966,True,32,0
KM-K-22K22S1,1003,experiment,72,→,right,→,0.5219986999873072,True,32,1
KM-K-22K22S1,1004,experiment,68,↑,up,↑,0.5589234998915344,True,32,1
KM-K-22K22S1,1005,experiment,58,↓,up,↑,0.6298696000594646,False,32,1
KM-K-22K22S1,1006,experiment,82,↑,up,↑,0.6176805000286549,True,32,1
KM-K-22K22S1,1007,experiment,104,↑,up,↑,0.5751084999646991,True,32,1
KM-K-22K22S1,1008,experiment,92,←,left,←,0.7061620999593288,True,32,1
KM-K-22K22S1,1009,experiment,96,↓,down,↓,0.45451959990896285,True,32,1
KM-K-22K22S1,1010,experiment,87,↓,down,↓,0.6557348999194801,True,32,1
KM-K-22K22S1,1011,experiment,53,←,left,←,0.6522911000065506,True,32,1
KM-K-22K22S1,1012,experiment,90,↑,up,↑,0.5969881999772042,True,32,1
KM-K-22K22S1,1013,experiment,48,↓,down,↓,0.41768559999763966,True,32,1
KM-K-22K22S1,1014,experiment,102,→,right,→,0.46719220001250505,True,32,1
KM-K-22K22S1,1015,experiment,54,→,right,→,0.4949477999471128,True,32,1
KM-K-22K22S1,1016,experiment,84,←,left,←,0.7597050999756902,True,32,1
KM-K-22K22S1,1017,experiment,83,←,left,←,0.6543326999526471,True,32,1
KM-K-22K22S1,1018,experiment,99,→,right,→,0.6194589999504387,True,32,1
KM-K-22K22S1,1019,experiment,49,↓,left,←,0.8274435999337584,False,32,1
KM-K-22K22S1,1020,experiment,69,←,left,←,0.7714287999551743,True,32,1
KM-K-22K22S1,1021,experiment,60,↓,down,↓,0.6171632998157293,True,32,1
KM-K-22K22S1,1022,experiment,98,↓,down,↓,0.6325904000550508,True,32,1
KM-K-22K22S1,1023,experiment,101,↓,down,↓,0.5984366999473423,True,32,1
KM-K-22K22S1,1024,experiment,106,↑,up,↑,0.6357688000425696,True,32,1
KM-K-22K22S1,1025,experiment,64,↓,down,↓,0.7172365000005811,True,32,1
KM-K-22K22S1,1026,experiment,79,↑,up,↑,0.47885899990797043,True,32,1
KM-K-22K22S1,1027,experiment,80,←,left,←,0.7215279000811279,True,32,1
KM-K-22K22S1,1028,experiment,107,→,right,→,0.6896900001447648,True,32,1
KM-K-22K22S1,1029,experiment,86,↓,down,↓,0.7298969998955727,True,32,1
KM-K-22K22S1,1030,experiment,89,←,left,←,0.6557184997946024,True,32,1
KM-K-22K22S1,1031,experiment,63,→,left,←,0.7608505000825971,False,32,1
KM-K-22K22S1,1032,experiment,103,↓,down,↓,0.4178050998598337,True,32,1
KM-K-22K22S1,1033,experiment,94,↓,down,↓,0.4496605000458658,True,32,0
KM-K-22K22S1,1034,experiment,57,↑,down,↓,0.764837299939245,False,32,1
KM-K-22K22S1,1035,experiment,75,←,left,←,0.5738041999284178,True,32,1
KM-K-22K22S1,1036,experiment,61,↑,up,↑,0.8509091001469642,True,32,1
KM-K-22K22S1,1037,experiment,76,←,left,←,0.5044163998682052,True,32,1
KM-K-22K22S1,1038,experiment,91,↑,up,↑,0.4942073000129312,True,32,1
KM-K-22K22S1,1039,experiment,67,→,right,→,0.8528783000074327,True,32,1
KM-K-22K22S1,1040,experiment,85,↑,up,↑,0.5828694999217987,True,32,1
KM-K-22K22S1,1041,experiment,74,↑,up,↑,0.47156119998544455,True,32,1
KM-K-22K22S1,1042,experiment,95,→,right,→,0.6535369998309761,True,32,1
KM-K-22K22S1,1043,experiment,65,←,left,←,0.5824601000640541,True,32,1
KM-K-22K22S1,1044,experiment,66,→,right,→,0.6734561000484973,True,32,1
KM-K-22K22S1,1045,experiment,78,↓,down,↓,0.5171415000222623,True,32,1
KM-K-22K22S1,1046,experiment,105,←,left,←,0.4542763999197632,True,32,1
KM-K-22K22S1,1047,experiment,108,↓,down,↓,0.6244088998064399,True,32,1
KM-K-22K22S1,1048,experiment,70,←,right,→,0.8726206999272108,False,32,1
KM-K-22K22S1,1049,training,48,↑,left,←,0.7683184000197798,False,32,0
KM-K-22K22S1,1050,training,59,→,no_key,no_letter,-1.0,False,32,1
KM-K-22K22S1,1051,experiment,88,→,right,→,0.3840362001210451,True,32,1
KM-K-22K22S1,1052,experiment,104,↓,up,↑,0.5630846000276506,False,32,0
KM-K-22K22S1,1053,experiment,52,←,right,→,0.5555517999455333,False,32,1
KM-K-22K22S1,1054,experiment,86,↓,down,↓,0.9213592999149114,True,32,1
KM-K-22K22S1,1055,experiment,55,←,right,→,0.5226102999877185,False,32,1
KM-K-22K22S1,1056,experiment,67,→,right,→,0.4087735000066459,True,32,1
KM-K-22K22S1,1057,experiment,106,↓,down,↓,0.4176414997782558,True,32,0
KM-K-22K22S1,1058,experiment,71,↓,down,↓,0.556224700063467,True,32,0
KM-K-22K22S1,1059,experiment,84,↓,no_key,no_letter,-1.0,False,32,1
KM-K-22K22S1,1060,experiment,94,→,right,→,0.4466083999723196,True,32,1
KM-K-22K22S1,1061,experiment,68,←,left,←,0.6628467000555247,True,32,1
KM-K-22K22S1,1062,experiment,101,↓,down,↓,0.5074293999932706,True,32,1
KM-K-22K22S1,1063,experiment,89,→,right,→,0.43469509994611144,True,32,1
KM-K-22K22S1,1064,experiment,61,→,right,→,0.34187460015527904,True,32,0
KM-K-22K22S1,1065,experiment,81,↑,up,↑,0.7401792001910508,True,32,0
KM-K-22K22S1,1066,experiment,99,←,left,←,0.6619907000567764,True,32,1
KM-K-22K22S1,1067,experiment,107,↓,down,↓,0.3694182001054287,True,32,1
KM-K-22K22S1,1068,experiment,79,↓,down,↓,0.5990663999691606,True,32,0
KM-K-22K22S1,1069,experiment,60,←,no_key,no_letter,-1.0,False,32,1
KM-K-22K22S1,1070,experiment,48,↑,up,↑,0.45528630004264414,True,32,1
KM-K-22K22S1,1071,experiment,70,←,left,←,0.38394590001553297,True,32,1
KM-K-22K22S1,1072,experiment,64,←,left,←,0.6416611999738961,True,32,0
KM-K-22K22S1,1073,experiment,72,↑,up,↑,0.5606450000777841,True,32,1
KM-K-22K22S1,1074,experiment,83,↑,no_key,no_letter,-1.0,False,32,1
KM-K-22K22S1,1075,experiment,58,→,right,→,0.6396348001435399,True,32,1
KM-K-22K22S1,1076,experiment,77,←,no_key,no_letter,-1.0,False,32,1
KM-K-22K22S1,1077,experiment,105,↑,up,↑,0.5975385999772698,True,32,1
KM-K-22K22S1,1078,experiment,49,→,right,→,0.4777656998485327,True,32,1
KM-K-22K22S1,1079,experiment,93,↑,up,↑,0.596140299923718,True,32,1
KM-K-22K22S1,1080,experiment,90,↓,no_key,no_letter,-1.0,False,32,1
KM-K-22K22S1,1081,experiment,51,←,left,←,0.4418047000654042,True,32,1
KM-K-22K22S1,1082,experiment,100,↑,up,↑,0.5826612999662757,True,32,1
KM-K-22K22S1,1083,experiment,59,↑,up,↑,0.5003295000642538,True,32,1
KM-K-22K22S1,1084,experiment,96,↑,up,↑,0.4969089000951499,True,32,1
KM-K-22K22S1,1085,experiment,54,↓,down,↓,0.739496499998495,True,32,1
KM-K-22K22S1,1086,experiment,69,→,right,→,0.48752139997668564,True,32,1
KM-K-22K22S1,1087,experiment,66,↑,no_key,no_letter,-1.0,False,32,1
KM-K-22K22S1,1088,experiment,65,→,right,→,0.6685585000086576,True,32,1
KM-K-22K22S1,1089,experiment,108,→,right,→,0.5905609000474215,True,32,1
KM-K-22K22S1,1090,experiment,53,↑,up,↑,0.44599299994297326,True,32,1
KM-K-22K22S1,1091,experiment,85,→,left,←,0.6958962997887284,False,32,1
KM-K-22K22S1,1092,experiment,78,←,left,←,0.6187052000313997,True,32,1
KM-K-22K22S1,1093,experiment,98,↓,down,↓,0.6259729999583215,True,32,1
KM-K-22K22S1,1094,experiment,56,↓,down,↓,0.4550449000671506,True,32,1
KM-K-22K22S1,1095,experiment,103,←,left,←,0.4990818998776376,True,32,1
KM-K-22K22S1,1096,experiment,75,←,left,←,0.5584888998419046,True,32,1
KM-K-22K22S1,1097,experiment,87,↑,no_key,no_letter,-1.0,False,32,1
KM-K-22K22S1,1098,experiment,82,←,left,←,0.38368359999731183,True,32,1
KM-K-22K22S1,1099,experiment,91,←,left,←,0.5748246998991817,True,32,0
KM-K-22K22S1,1100,experiment,76,→,right,→,0.7109868000261486,True,32,1
KM-K-22K22S1,1101,experiment,92,→,right,→,0.4528985000215471,True,32,1
KM-K-22K22S1,1102,experiment,73,↑,up,↑,0.4747027999255806,True,32,1
KM-K-22K22S1,1103,experiment,97,←,no_key,no_letter,-1.0,False,32,1
KM-K-22K22S1,1104,experiment,50,↑,no_key,no_letter,-1.0,False,32,1
KM-K-22K22S1,1105,experiment,95,↑,up,↑,0.45496149989776313,True,32,1
KM-K-22K22S1,1106,experiment,102,←,left,←,0.44317330000922084,True,32,1
KM-K-22K22S1,1107,experiment,74,↓,down,↓,0.6896399999968708,True,32,1
KM-K-22K22S1,1108,experiment,80,↓,down,↓,0.4093519998714328,True,32,1
KM-K-22K22S1,1109,experiment,57,←,right,→,1.392788799945265,False,32,1
KM-K-22K22S1,1110,experiment,62,↑,up,↑,0.46907430002465844,True,32,1
KM-K-22K22S1,1111,experiment,63,↑,up,↑,0.41766400006599724,True,32,1
KM-K-22K22S1,1112,training,101,←,left,←,0.46916869981214404,True,32,0
KM-K-22K22S1,1113,training,64,↓,down,↓,0.6694181999191642,True,32,1
KM-K-22K22S1,1114,experiment,89,↓,down,↓,0.5178465999197215,True,32,1
KM-K-22K22S1,1115,experiment,77,↑,no_key,no_letter,-1.0,False,32,1
KM-K-22K22S1,1116,experiment,51,←,left,←,0.6828132001683116,True,32,1
KM-K-22K22S1,1117,experiment,105,→,right,→,0.5411981998477131,True,32,1
KM-K-22K22S1,1118,experiment,59,↑,up,↑,0.4374337999615818,True,32,1
KM-K-22K22S1,1119,experiment,74,↓,down,↓,0.6505664999131113,True,32,0
KM-K-22K22S1,1120,experiment,84,↓,no_key,no_letter,-1.0,False,32,1
KM-K-22K22S1,1121,experiment,108,↑,up,↑,0.45298669999465346,True,32,1
KM-K-22K22S1,1122,experiment,103,↓,down,↓,0.5927669000811875,True,32,1
KM-K-22K22S1,1123,experiment,91,→,right,→,0.45947380014695227,True,32,1
KM-K-22K22S1,1124,experiment,64,↑,up,↑,0.7078142000827938,True,32,1
KM-K-22K22S1,1125,experiment,56,←,left,←,0.4455057999584824,True,32,1
KM-K-22K22S1,1126,experiment,62,→,right,→,0.4793815999291837,True,32,1
KM-K-22K22S1,1127,experiment,60,↓,down,↓,0.4006627001799643,True,32,1
KM-K-22K22S1,1128,experiment,53,←,left,←,0.47880599997006357,True,32,0
KM-K-22K22S1,1129,experiment,61,←,left,←,0.40087300003506243,True,32,1
KM-K-22K22S1,1130,experiment,70,↓,down,↓,0.39245279994793236,True,32,1
KM-K-22K22S1,1131,experiment,48,←,no_key,no_letter,-1.0,False,32,0
KM-K-22K22S1,1132,experiment,97,→,right,→,0.668779999949038,True,32,1
KM-K-22K22S1,1133,experiment,98,↑,up,↑,0.6497871000319719,True,32,1
KM-K-22K22S1,1134,experiment,85,↓,down,↓,0.5321633999701589,True,32,1
KM-K-22K22S1,1135,experiment,58,→,right,→,0.5800358999986202,True,32,1
KM-K-22K22S1,1136,experiment,52,↓,down,↓,0.5642198999412358,True,32,1
KM-K-22K22S1,1137,experiment,102,→,right,→,0.7319016000255942,True,32,1
KM-K-22K22S1,1138,experiment,66,↓,down,↓,0.6092896000482142,True,32,1
KM-K-22K22S1,1139,experiment,81,↑,down,↓,0.5664758000057191,False,32,1
KM-K-22K22S1,1140,experiment,101,↑,up,↑,0.6627485998906195,True,32,1
KM-K-22K22S1,1141,experiment,65,↑,up,↑,0.4795347999315709,True,32,1
KM-K-22K22S1,1142,experiment,73,→,right,→,0.4447989999316633,True,32,1
KM-K-22K22S1,1143,experiment,82,→,right,→,0.6480058999732137,True,32,1
KM-K-22K22S1,1144,experiment,72,↓,down,↓,0.454656699905172,True,32,1
KM-K-22K22S1,1145,experiment,86,←,left,←,0.6241186000406742,True,32,1
KM-K-22K22S1,1146,experiment,55,→,no_key,no_letter,-1.0,False,32,1
KM-K-22K22S1,1147,experiment,93,↑,up,↑,0.6980588999576867,True,32,1
KM-K-22K22S1,1148,experiment,50,↓,down,↓,0.4175130999647081,True,32,1
KM-K-22K22S1,1149,experiment,78,→,right,→,0.5317061000969261,True,32,0
KM-K-22K22S1,1150,experiment,76,→,right,→,0.549523200141266,True,32,1
KM-K-22K22S1,1151,experiment,49,↓,down,↓,0.35213180002756417,True,32,1
KM-K-22K22S1,1152,experiment,83,↑,up,↑,0.5980773000046611,True,32,0
KM-K-22K22S1,1153,experiment,87,→,right,→,0.585953899892047,True,32,1
KM-K-22K22S1,1154,experiment,92,↓,down,↓,0.5880098999477923,True,32,1
KM-K-22K22S1,1155,experiment,57,←,left,←,0.49789680005051196,True,32,1
KM-K-22K22S1,1156,experiment,71,←,right,→,0.6390555999241769,False,32,1
KM-K-22K22S1,1157,experiment,96,→,right,→,0.6219138999003917,True,32,1
KM-K-22K22S1,1158,experiment,54,↑,up,↑,0.7073952001519501,True,32,1
KM-K-22K22S1,1159,experiment,69,→,right,→,0.37783969985321164,True,32,1
KM-K-22K22S1,1160,experiment,63,↓,down,↓,0.652678299928084,True,32,0
KM-K-22K22S1,1161,experiment,106,↑,up,↑,0.6399064001161605,True,32,1
KM-K-22K22S1,1162,experiment,90,↓,no_key,no_letter,-1.0,False,32,1
KM-K-22K22S1,1163,experiment,95,←,left,←,0.5966690999921411,True,32,1
KM-K-22K22S1,1164,experiment,94,↑,up,↑,0.5739392000250518,True,32,1
KM-K-22K22S1,1165,experiment,99,←,left,←,0.6147566998843104,True,32,1
KM-K-22K22S1,1166,experiment,75,←,no_key,no_letter,-1.0,False,32,1
KM-K-22K22S1,1167,experiment,68,←,left,←,0.6347955998498946,True,32,1
KM-K-22K22S1,1168,experiment,80,→,right,→,0.5753442000132054,True,32,1
KM-K-22K22S1,1169,experiment,100,↓,down,↓,0.7518039001151919,True,32,1
KM-K-22K22S1,1170,experiment,88,↑,no_key,no_letter,-1.0,False,32,1
KM-K-22K22S1,1171,experiment,67,→,right,→,0.4506891001947224,True,32,1
KM-K-22K22S1,1172,experiment,104,↓,down,↓,0.6061585999559611,True,32,1
KM-K-22K22S1,1173,experiment,107,↓,down,↓,0.40923299989663064,True,32,1
KM-K-22K22S1,1174,experiment,79,↓,down,↓,0.5362650000024587,True,32,0
KM-K-22K22S1,1175,training,53,↑,right,→,0.9103564000688493,False,32,0
KM-K-22K22S1,1176,training,81,↓,down,↓,0.41014369996264577,True,32,1
KM-K-22K22S1,1177,experiment,49,↓,down,↓,0.6712026000022888,True,32,0
KM-K-22K22S1,1178,experiment,56,←,left,←,0.6823068000376225,True,32,1
KM-K-22K22S1,1179,experiment,62,→,right,→,0.5706833999138325,True,32,1
KM-K-22K22S1,1180,experiment,96,←,no_key,no_letter,-1.0,False,32,1
KM-K-22K22S1,1181,experiment,67,→,no_key,no_letter,-1.0,False,32,1
KM-K-22K22S1,1182,experiment,81,↓,down,↓,0.6186043000780046,True,32,1
KM-K-22K22S1,1183,experiment,99,←,left,←,0.6256705999840051,True,32,1
KM-K-22K22S1,1184,experiment,55,→,right,→,0.40064170002005994,True,32,1
KM-K-22K22S1,1185,experiment,75,↓,right,→,0.7020310000516474,False,32,1
KM-K-22K22S1,1186,experiment,89,←,left,←,0.6209570001810789,True,32,1
KM-K-22K22S1,1187,experiment,65,↓,down,↓,0.703106600092724,True,32,1
KM-K-22K22S1,1188,experiment,79,→,right,→,0.5853279000148177,True,32,1
KM-K-22K22S1,1189,experiment,92,↑,up,↑,0.46787159983068705,True,32,1
KM-K-22K22S1,1190,experiment,91,↓,down,↓,0.6515698998700827,True,32,1
KM-K-22K22S1,1191,experiment,108,→,right,→,0.5905071999877691,True,32,1
KM-K-22K22S1,1192,experiment,69,←,left,←,0.6323911999352276,True,32,1
KM-K-22K22S1,1193,experiment,83,←,left,←,0.6758171999827027,True,32,1
KM-K-22K22S1,1194,experiment,48,↓,down,↓,0.4495701000560075,True,32,1
KM-K-22K22S1,1195,experiment,103,↑,up,↑,0.43846180010586977,True,32,1
KM-K-22K22S1,1196,experiment,60,←,left,←,0.5764836999587715,True,32,1
KM-K-22K22S1,1197,experiment,80,↑,up,↑,0.591645099921152,True,32,1
KM-K-22K22S1,1198,experiment,82,→,right,→,0.4769764000084251,True,32,1
KM-K-22K22S1,1199,experiment,104,↓,down,↓,0.5598596998024732,True,32,1
KM-K-22K22S1,1200,experiment,102,→,right,→,0.3775407001376152,True,32,1
KM-K-22K22S1,1201,experiment,97,↓,down,↓,0.40238849981687963,True,32,0
KM-K-22K22S1,1202,experiment,101,←,left,←,0.44725590012967587,True,32,0
KM-K-22K22S1,1203,experiment,94,↓,down,↓,0.7022627999540418,True,32,1
KM-K-22K22S1,1204,experiment,68,←,left,←,0.4445354000199586,True,32,1
KM-K-22K22S1,1205,experiment,59,←,left,←,0.6711194000672549,True,32,1
KM-K-22K22S1,1206,experiment,85,↓,down,↓,0.44093200005590916,True,32,1
KM-K-22K22S1,1207,experiment,50,↓,down,↓,0.6067379999440163,True,32,0
KM-K-22K22S1,1208,experiment,88,→,right,→,0.593654400203377,True,32,1
KM-K-22K22S1,1209,experiment,57,↑,up,↑,0.6397386000026017,True,32,1
KM-K-22K22S1,1210,experiment,77,↑,up,↑,0.5488887999672443,True,32,1
KM-K-22K22S1,1211,experiment,93,←,left,←,0.5845305998809636,True,32,1
KM-K-22K22S1,1212,experiment,105,↓,down,↓,0.4549825999420136,True,32,1
KM-K-22K22S1,1213,experiment,84,←,left,←,0.5931748000439256,True,32,1
KM-K-22K22S1,1214,experiment,70,↑,up,↑,0.6345448000356555,True,32,1
KM-K-22K22S1,1215,experiment,71,←,left,←,0.5540108000859618,True,32,1
KM-K-22K22S1,1216,experiment,98,↓,down,↓,0.4677482999395579,True,32,1
KM-K-22K22S1,1217,experiment,53,↑,down,↓,0.5754752999637276,False,32,1
KM-K-22K22S1,1218,experiment,76,↑,up,↑,0.6077197000849992,True,32,1
KM-K-22K22S1,1219,experiment,52,↓,down,↓,0.606611100025475,True,32,1
KM-K-22K22S1,1220,experiment,72,→,right,→,0.6709501000586897,True,32,1
KM-K-22K22S1,1221,experiment,86,↓,down,↓,0.4008186000864953,True,32,1
KM-K-22K22S1,1222,experiment,54,↓,down,↓,0.6302091998513788,True,32,0
KM-K-22K22S1,1223,experiment,61,→,right,→,0.47299850010313094,True,32,1
KM-K-22K22S1,1224,experiment,100,←,left,←,0.45349200000055134,True,32,1
KM-K-22K22S1,1225,experiment,51,→,right,→,0.5145656999666244,True,32,1
KM-K-22K22S1,1226,experiment,78,←,left,←,0.7244152999483049,True,32,1
KM-K-22K22S1,1227,experiment,73,←,left,←,0.5197928000707179,True,32,1
KM-K-22K22S1,1228,experiment,63,↓,no_key,no_letter,-1.0,False,32,1
KM-K-22K22S1,1229,experiment,87,↓,down,↓,0.5573897999711335,True,32,1
KM-K-22K22S1,1230,experiment,90,↓,down,↓,0.38426789990626276,True,32,1
KM-K-22K22S1,1231,experiment,58,↑,up,↑,0.7830878999084234,True,32,1
KM-K-22K22S1,1232,experiment,66,←,left,←,0.44280949980020523,True,32,1
KM-K-22K22S1,1233,experiment,74,↓,down,↓,0.6482995999976993,True,32,1
KM-K-22K22S1,1234,experiment,95,←,left,←,0.46343449992127717,True,32,1
KM-K-22K22S1,1235,experiment,64,←,left,←,0.3858183000702411,True,32,1
KM-K-22K22S1,1236,experiment,106,←,left,←,0.693292599869892,True,32,0
KM-K-22K22S1,1237,experiment,107,←,left,←,0.8304955000057817,True,32,1
KM-K-22K22S1,1238,training,67,↓,down,↓,0.4359526000916958,True,31,0
KM-K-22K22S1,1239,training,101,↑,up,↑,0.6808807000052184,True,31,1
KM-K-22K22S1,1240,experiment,74,←,left,←,0.40091499988920987,True,31,1
KM-K-22K22S1,1241,experiment,81,←,no_key,no_letter,-1.0,False,31,0
KM-K-22K22S1,1242,experiment,78,→,right,→,0.5008835000917315,True,31,1
KM-K-22K22S1,1243,experiment,61,→,no_key,no_letter,-1.0,False,31,1
KM-K-22K22S1,1244,experiment,65,→,right,→,0.523451599990949,True,31,1
KM-K-22K22S1,1245,experiment,102,←,left,←,0.5089482001494616,True,31,1
KM-K-22K22S1,1246,experiment,50,→,right,→,0.37761730002239347,True,31,1
KM-K-22K22S1,1247,experiment,100,←,left,←,0.4481518999673426,True,31,1
KM-K-22K22S1,1248,experiment,64,←,left,←,0.39393560006283224,True,31,1
KM-K-22K22S1,1249,experiment,55,↑,up,↑,0.4871318000368774,True,31,0
KM-K-22K22S1,1250,experiment,89,←,left,←,0.7027515999507159,True,31,1
KM-K-22K22S1,1251,experiment,66,→,right,→,0.43744370015338063,True,31,1
KM-K-22K22S1,1252,experiment,91,←,left,←,0.43788080010563135,True,31,1
KM-K-22K22S1,1253,experiment,80,←,left,←,0.4579428001306951,True,31,1
KM-K-22K22S1,1254,experiment,94,↓,down,↓,0.4488092998508364,True,31,1
KM-K-22K22S1,1255,experiment,68,↓,down,↓,0.5129966998938471,True,31,1
KM-K-22K22S1,1256,experiment,86,↑,up,↑,0.43201290001161397,True,31,1
KM-K-22K22S1,1257,experiment,59,→,right,→,0.4596188999712467,True,31,0
KM-K-22K22S1,1258,experiment,75,←,left,←,0.44878100021742284,True,31,1
KM-K-22K22S1,1259,experiment,98,←,left,←,0.6149067999795079,True,31,1
KM-K-22K22S1,1260,experiment,56,→,right,→,0.6199490001890808,True,31,1
KM-K-22K22S1,1261,experiment,69,←,left,←,0.4849515000823885,True,31,1
KM-K-22K22S1,1262,experiment,73,↓,down,↓,0.5694770999252796,True,31,1
KM-K-22K22S1,1263,experiment,52,←,left,←,0.7782050999812782,True,31,1
KM-K-22K22S1,1264,experiment,79,↓,down,↓,0.5930981999263167,True,31,1
KM-K-22K22S1,1265,experiment,53,↑,up,↑,0.5041863000951707,True,31,1
KM-K-22K22S1,1266,experiment,77,→,right,→,0.6268958000000566,True,31,1
KM-K-22K22S1,1267,experiment,67,↓,down,↓,0.5483389000874013,True,31,1
KM-K-22K22S1,1268,experiment,90,←,left,←,0.4726658998988569,True,31,1
KM-K-22K22S1,1269,experiment,101,←,down,↓,0.6691606000531465,False,31,1
KM-K-22K22S1,1270,experiment,97,↓,down,↓,0.4094582998659462,True,31,1
KM-K-22K22S1,1271,experiment,57,←,left,←,0.3926994998473674,True,31,1
KM-K-22K22S1,1272,experiment,87,→,right,→,0.5067159999161959,True,31,0
KM-K-22K22S1,1273,experiment,104,↓,down,↓,0.5165854999795556,True,31,1
KM-K-22K22S1,1274,experiment,107,↓,down,↓,0.4293506999965757,True,31,1
KM-K-22K22S1,1275,experiment,63,←,left,←,0.7510228999890387,True,31,0
KM-K-22K22S1,1276,experiment,76,↓,down,↓,0.56049619987607,True,31,1
KM-K-22K22S1,1277,experiment,103,↑,up,↑,0.4726478001102805,True,31,1
KM-K-22K22S1,1278,experiment,58,←,left,←,0.45861309999600053,True,31,1
KM-K-22K22S1,1279,experiment,60,↓,down,↓,0.5567430001683533,True,31,1
KM-K-22K22S1,1280,experiment,83,←,left,←,0.4515569999348372,True,31,1
KM-K-22K22S1,1281,experiment,106,→,right,→,0.6546742001082748,True,31,1
KM-K-22K22S1,1282,experiment,48,←,down,↓,0.7170157998334616,False,31,1
KM-K-22K22S1,1283,experiment,99,↑,up,↑,0.4560155998915434,True,31,1
KM-K-22K22S1,1284,experiment,84,↓,down,↓,0.6023619000334293,True,31,1
KM-K-22K22S1,1285,experiment,108,←,left,←,0.4549787000287324,True,31,1
KM-K-22K22S1,1286,experiment,49,↓,no_key,no_letter,-1.0,False,31,1
KM-K-22K22S1,1287,experiment,70,→,right,→,0.5694662998430431,True,31,1
KM-K-22K22S1,1288,experiment,82,←,down,↓,0.7047500999178737,False,31,1
KM-K-22K22S1,1289,experiment,105,↑,up,↑,0.6335442999843508,True,31,1
KM-K-22K22S1,1290,experiment,62,←,right,→,0.628246400039643,False,31,1
KM-K-22K22S1,1291,experiment,85,↓,no_key,no_letter,-1.0,False,31,1
KM-K-22K22S1,1292,experiment,54,↓,right,→,0.697425999911502,False,31,1
KM-K-22K22S1,1293,experiment,72,↑,up,↑,0.6300979999359697,True,31,1
KM-K-22K22S1,1294,experiment,95,↑,no_key,no_letter,-1.0,False,31,1
KM-K-22K22S1,1295,experiment,51,→,right,→,0.4328159000724554,True,31,1
KM-K-22K22S1,1296,experiment,71,↑,no_key,no_letter,-1.0,False,31,0
KM-K-22K22S1,1297,experiment,96,→,right,→,0.6124757998622954,True,31,1
KM-K-22K22S1,1298,experiment,92,↑,up,↑,0.5979784999508411,True,31,1
KM-K-22K22S1,1299,experiment,93,↑,up,↑,0.6074953998904675,True,31,1
KM-K-22K22S1,1300,experiment,88,←,left,←,0.4906244999729097,True,31,1
KM-K-22K22S1,1301,training,78,→,no_key,no_letter,-1.0,False,31,0
KM-K-22K22S1,1302,training,104,↑,up,↑,0.5426002000458539,True,31,1
KM-K-22K22S1,1303,experiment,63,←,left,←,0.4444014998152852,True,31,1
KM-K-22K22S1,1304,experiment,55,→,right,→,0.4486352000385523,True,31,1
KM-K-22K22S1,1305,experiment,73,←,no_key,no_letter,-1.0,False,31,1
KM-K-22K22S1,1306,experiment,80,←,left,←,0.9120306000113487,True,31,1
KM-K-22K22S1,1307,experiment,53,↑,up,↑,0.44239420001395047,True,31,1
KM-K-22K22S1,1308,experiment,99,→,right,→,0.4805723000317812,True,31,1
KM-K-22K22S1,1309,experiment,86,→,right,→,0.5930516000371426,True,31,1
KM-K-22K22S1,1310,experiment,88,→,right,→,0.6285129999741912,True,31,1
KM-K-22K22S1,1311,experiment,102,←,left,←,0.5859264000318944,True,31,1
KM-K-22K22S1,1312,experiment,94,←,left,←,0.7639101999811828,True,31,1
KM-K-22K22S1,1313,experiment,49,↓,down,↓,0.4774307000916451,True,31,1
KM-K-22K22S1,1314,experiment,100,←,left,←,0.6018398001324385,True,31,1
KM-K-22K22S1,1315,experiment,95,→,right,→,0.6348788000177592,True,31,1
KM-K-22K22S1,1316,experiment,61,↓,down,↓,0.533662699861452,True,31,1
KM-K-22K22S1,1317,experiment,98,↓,down,↓,0.7121052001602948,True,31,1
KM-K-22K22S1,1318,experiment,67,↓,down,↓,0.40078110015019774,True,31,1
KM-K-22K22S1,1319,experiment,108,←,left,←,0.6344010999891907,True,31,1
KM-K-22K22S1,1320,experiment,85,←,left,←,0.5733358999714255,True,31,1
KM-K-22K22S1,1321,experiment,75,←,left,←,0.4380489999894053,True,31,1
KM-K-22K22S1,1322,experiment,69,→,right,→,0.4538171999156475,True,31,1
KM-K-22K22S1,1323,experiment,48,↑,up,↑,0.436206900049001,True,31,1
KM-K-22K22S1,1324,experiment,60,→,right,→,0.4873053999617696,True,31,1
KM-K-22K22S1,1325,experiment,71,↑,up,↑,0.5160536000039428,True,31,1
KM-K-22K22S1,1326,experiment,78,↓,down,↓,0.6141523998230696,True,31,1
KM-K-22K22S1,1327,experiment,76,↓,down,↓,0.564621799858287,True,31,1
KM-K-22K22S1,1328,experiment,89,↑,up,↑,0.4490798998158425,True,31,1
KM-K-22K22S1,1329,experiment,54,↓,down,↓,0.6375413001514971,True,31,1
KM-K-22K22S1,1330,experiment,104,↑,up,↑,0.46592139988206327,True,31,1
KM-K-22K22S1,1331,experiment,105,↓,no_key,no_letter,-1.0,False,31,1
KM-K-22K22S1,1332,experiment,51,→,right,→,0.6800267999060452,True,31,1
KM-K-22K22S1,1333,experiment,107,→,right,→,0.4655851998832077,True,31,1
KM-K-22K22S1,1334,experiment,84,↑,up,↑,0.491650199983269,True,31,1
KM-K-22K22S1,1335,experiment,92,↓,down,↓,0.4497311001177877,True,31,1
KM-K-22K22S1,1336,experiment,106,↓,down,↓,0.613276100018993,True,31,1
KM-K-22K22S1,1337,experiment,59,←,left,←,0.7212823000736535,True,31,1
KM-K-22K22S1,1338,experiment,50,→,right,→,0.47644230001606047,True,31,1
KM-K-22K22S1,1339,experiment,56,←,right,→,0.6712070000357926,False,31,1
KM-K-22K22S1,1340,experiment,82,←,left,←,0.47356060007587075,True,31,1
KM-K-22K22S1,1341,experiment,62,↓,down,↓,0.7463442999869585,True,31,1
KM-K-22K22S1,1342,experiment,64,→,right,→,0.5915552999358624,True,31,1
KM-K-22K22S1,1343,experiment,90,↓,down,↓,0.6026606999803334,True,31,1
KM-K-22K22S1,1344,experiment,101,←,left,←,0.8575983000919223,True,31,1
KM-K-22K22S1,1345,experiment,103,↑,up,↑,0.44576819986104965,True,31,1
KM-K-22K22S1,1346,experiment,68,←,down,↓,0.8459530000109226,False,31,1
KM-K-22K22S1,1347,experiment,83,←,left,←,0.49680500011891127,True,31,1
KM-K-22K22S1,1348,experiment,65,←,left,←,0.719572399975732,True,31,1
KM-K-22K22S1,1349,experiment,81,↑,up,↑,0.6642356000375003,True,31,1
KM-K-22K22S1,1350,experiment,96,←,left,←,0.622197899967432,True,31,1
KM-K-22K22S1,1351,experiment,97,↑,no_key,no_letter,-1.0,False,31,1
KM-K-22K22S1,1352,experiment,74,↑,up,↑,0.5929990001022816,True,31,1
KM-K-22K22S1,1353,experiment,79,→,right,→,0.703694999916479,True,31,1
KM-K-22K22S1,1354,experiment,77,↑,up,↑,0.6503431000746787,True,31,1
KM-K-22K22S1,1355,experiment,91,→,right,→,0.578786299796775,True,31,1
KM-K-22K22S1,1356,experiment,52,↓,down,↓,0.634485499933362,True,31,1
KM-K-22K22S1,1357,experiment,87,→,right,→,0.5808561998419464,True,31,1
KM-K-22K22S1,1358,experiment,57,↑,up,↑,0.5871356998104602,True,31,1
KM-K-22K22S1,1359,experiment,70,→,right,→,0.5486836999189109,True,31,1
KM-K-22K22S1,1360,experiment,72,→,right,→,0.4717208999209106,True,31,1
KM-K-22K22S1,1361,experiment,58,↑,up,↑,0.5535227998625487,True,31,1
KM-K-22K22S1,1362,experiment,93,←,left,←,0.6690833999309689,True,31,1
KM-K-22K22S1,1363,experiment,66,→,right,→,0.4447250999510288,True,31,1
KM-K-22K22S1,1364,training,49,↑,up,↑,0.6103144001681358,True,30,0
KM-K-22K22S1,1365,training,70,←,left,←,0.38431779993698,True,30,1
KM-K-22K22S1,1366,experiment,102,←,no_key,no_letter,-1.0,False,30,0
KM-K-22K22S1,1367,experiment,64,←,left,←,0.48889679997228086,True,30,1
KM-K-22K22S1,1368,experiment,86,↓,down,↓,0.39421369996853173,True,30,1
KM-K-22K22S1,1369,experiment,101,←,left,←,0.4009577000979334,True,30,1
KM-K-22K22S1,1370,experiment,97,←,left,←,0.7113975000102073,True,30,0
KM-K-22K22S1,1371,experiment,76,↑,up,↑,0.4191813000943512,True,30,1
KM-K-22K22S1,1372,experiment,87,↑,up,↑,0.7169462000019848,True,30,0
KM-K-22K22S1,1373,experiment,61,←,left,←,0.43637439981102943,True,30,1
KM-K-22K22S1,1374,experiment,59,↑,up,↑,0.5996940999757499,True,30,1
KM-K-22K22S1,1375,experiment,49,↑,up,↑,0.4320282998960465,True,30,1
KM-K-22K22S1,1376,experiment,107,→,right,→,0.5876819000113755,True,30,1
KM-K-22K22S1,1377,experiment,48,↓,down,↓,0.5164324999786913,True,30,1
KM-K-22K22S1,1378,experiment,63,←,left,←,0.41922339983284473,True,30,1
KM-K-22K22S1,1379,experiment,66,↓,down,↓,0.5889246999286115,True,30,0
KM-K-22K22S1,1380,experiment,65,←,left,←,0.4483723999001086,True,30,1
KM-K-22K22S1,1381,experiment,53,→,right,→,0.38446560013107955,True,30,1
KM-K-22K22S1,1382,experiment,78,←,left,←,0.5801097999792546,True,30,0
KM-K-22K22S1,1383,experiment,68,→,right,→,0.614349499810487,True,30,1
KM-K-22K22S1,1384,experiment,55,↑,up,↑,0.4519841999281198,True,30,1
KM-K-22K22S1,1385,experiment,56,←,no_key,no_letter,-1.0,False,30,1
KM-K-22K22S1,1386,experiment,82,←,left,←,0.46485009999014437,True,30,1
KM-K-22K22S1,1387,experiment,89,↑,up,↑,0.44890650012530386,True,30,1
KM-K-22K22S1,1388,experiment,81,↑,up,↑,0.5485453000292182,True,30,1
KM-K-22K22S1,1389,experiment,70,←,left,←,0.47181860008277,True,30,1
KM-K-22K22S1,1390,experiment,60,←,left,←,0.45703779999166727,True,30,1
KM-K-22K22S1,1391,experiment,95,↑,up,↑,0.4243313998449594,True,30,1
KM-K-22K22S1,1392,experiment,91,↑,up,↑,0.5611821999773383,True,30,0
KM-K-22K22S1,1393,experiment,85,→,right,→,0.4391093999147415,True,30,1
KM-K-22K22S1,1394,experiment,50,↓,down,↓,0.6293458000291139,True,30,1
KM-K-22K22S1,1395,experiment,73,←,left,←,0.4521244999486953,True,30,1
KM-K-22K22S1,1396,experiment,72,↓,no_key,no_letter,-1.0,False,30,1
KM-K-22K22S1,1397,experiment,96,←,down,↓,0.6473078997805715,False,30,1
KM-K-22K22S1,1398,experiment,77,↑,up,↑,0.5961935999803245,True,30,1
KM-K-22K22S1,1399,experiment,79,↓,down,↓,0.5626653998624533,True,30,1
KM-K-22K22S1,1400,experiment,88,↑,up,↑,0.4554224000312388,True,30,1
KM-K-22K22S1,1401,experiment,90,→,right,→,0.575504899956286,True,30,1
KM-K-22K22S1,1402,experiment,67,←,left,←,0.6906850000377744,True,30,1
KM-K-22K22S1,1403,experiment,106,↑,up,↑,0.45240349997766316,True,30,1
KM-K-22K22S1,1404,experiment,103,↑,up,↑,0.4249810001347214,True,30,1
KM-K-22K22S1,1405,experiment,75,←,left,←,0.4238124000839889,True,30,1
KM-K-22K22S1,1406,experiment,80,←,left,←,0.44414520007558167,True,30,0
KM-K-22K22S1,1407,experiment,104,←,left,←,0.5523371000308543,True,30,1
KM-K-22K22S1,1408,experiment,105,↓,down,↓,0.4480127999559045,True,30,1
KM-K-22K22S1,1409,experiment,57,←,right,→,0.7877140000928193,False,30,1
KM-K-22K22S1,1410,experiment,54,↓,down,↓,0.5545898999553174,True,30,1
KM-K-22K22S1,1411,experiment,58,↑,down,↓,0.7054814000148326,False,30,1
KM-K-22K22S1,1412,experiment,100,←,left,←,0.6685196000616997,True,30,1
KM-K-22K22S1,1413,experiment,69,↑,right,→,0.9395153000950813,False,30,1
KM-K-22K22S1,1414,experiment,94,→,right,→,0.44717400008812547,True,30,1
KM-K-22K22S1,1415,experiment,52,→,right,→,0.436502099968493,True,30,1
KM-K-22K22S1,1416,experiment,74,↑,up,↑,0.6107450001873076,True,30,1
KM-K-22K22S1,1417,experiment,108,↓,down,↓,0.5755404001101851,True,30,1
KM-K-22K22S1,1418,experiment,51,→,right,→,0.4636482000350952,True,30,1
KM-K-22K22S1,1419,experiment,84,←,left,←,0.4495675000362098,True,30,1
KM-K-22K22S1,1420,experiment,98,↑,right,→,0.9754971000365913,False,30,1
KM-K-22K22S1,1421,experiment,83,←,left,←,0.6535335001535714,True,30,1
KM-K-22K22S1,1422,experiment,71,↓,down,↓,0.5402720000129193,True,30,1
KM-K-22K22S1,1423,experiment,93,↓,down,↓,0.43235519994050264,True,30,1
KM-K-22K22S1,1424,experiment,99,→,right,→,0.5025561000220478,True,30,1
KM-K-22K22S1,1425,experiment,92,←,left,←,0.46837320015765727,True,30,1
KM-K-22K22S1,1426,experiment,62,→,right,→,0.8856373999733478,True,30,1
KM-K-22K22S1,1427,training,95,←,no_key,no_letter,-1.0,False,30,0
KM-K-22K22S1,1428,training,79,←,left,←,0.455161000136286,True,30,1
KM-K-22K22S1,1429,experiment,60,↑,right,→,0.8172144999261945,False,30,1
KM-K-22K22S1,1430,experiment,93,→,right,→,0.37514669983647764,True,30,1
KM-K-22K22S1,1431,experiment,80,→,right,→,0.5610136000905186,True,30,0
KM-K-22K22S1,1432,experiment,79,→,right,→,0.3941951000597328,True,30,1
KM-K-22K22S1,1433,experiment,83,←,left,←,0.477459599962458,True,30,0
KM-K-22K22S1,1434,experiment,51,←,right,→,0.8419862000737339,False,30,1
KM-K-22K22S1,1435,experiment,58,→,right,→,0.3756701999809593,True,30,1
KM-K-22K22S1,1436,experiment,57,→,right,→,0.6996816999744624,True,30,0
KM-K-22K22S1,1437,experiment,68,→,right,→,0.6417529999744147,True,30,1
KM-K-22K22S1,1438,experiment,66,↑,right,→,0.7627053000032902,False,30,1
KM-K-22K22S1,1439,experiment,102,↓,down,↓,0.4349071001634002,True,30,1
KM-K-22K22S1,1440,experiment,75,→,right,→,0.6487521000672132,True,30,1
KM-K-22K22S1,1441,experiment,84,↓,down,↓,0.5711651002056897,True,30,1
KM-K-22K22S1,1442,experiment,108,→,right,→,0.5771959000267088,True,30,1
KM-K-22K22S1,1443,experiment,62,↑,up,↑,0.4381503998301923,True,30,1
KM-K-22K22S1,1444,experiment,52,↓,down,↓,0.4002684000879526,True,30,1
