PART_ID,Trial_no,Trial_type,CSI,Stim_letter,Key_pressed,letter_choose,Rt,Corr,Stimulus Time,nDropped
KN-M-23M23S2,1,training,120,→,right,→,0.6789234000025317,True,60,0
KN-M-23M23S2,2,training,120,↓,down,↓,0.5673979999264702,True,60,0
KN-M-23M23S2,3,training,120,↓,down,↓,0.836600299924612,True,60,0
KN-M-23M23S2,4,training,120,↑,up,↑,0.5592480000341311,True,60,0
KN-M-23M23S2,5,training,120,↓,down,↓,0.5264387999195606,True,60,0
KN-M-23M23S2,6,training,120,↓,down,↓,0.4847335999365896,True,60,0
KN-M-23M23S2,7,training,120,↓,up,↑,0.41816619993187487,False,60,0
KN-M-23M23S2,8,training,120,↑,up,↑,0.5587518999818712,True,60,0
KN-M-23M23S2,9,training,120,↑,up,↑,0.49331150006037205,True,60,0
KN-M-23M23S2,10,training,120,↑,up,↑,0.6337910000002012,True,60,0
KN-M-23M23S2,11,training,120,↓,down,↓,0.4684194999281317,True,60,0
KN-M-23M23S2,12,training,120,↑,up,↑,0.5004893000004813,True,60,0
KN-M-23M23S2,13,training,120,←,left,←,0.5668793000513688,True,60,0
KN-M-23M23S2,14,training,120,→,right,→,0.5256186999613419,True,60,0
KN-M-23M23S2,15,training,120,↓,down,↓,0.44315299997106194,True,60,0
KN-M-23M23S2,16,training,120,→,right,→,0.484962800052017,True,60,0
KN-M-23M23S2,17,training,120,↓,down,↓,0.4098054999485612,True,60,0
KN-M-23M23S2,18,training,120,↑,up,↑,0.5752606999594718,True,60,0
KN-M-23M23S2,19,training,120,↑,up,↑,0.5921206000493839,True,60,0
KN-M-23M23S2,20,training,120,↓,down,↓,0.468504499993287,True,60,0
KN-M-23M23S2,21,no_adaptation,120,→,right,→,0.4696767999557778,True,36,0
KN-M-23M23S2,22,no_adaptation,120,↑,up,↑,0.6582656000973657,True,36,0
KN-M-23M23S2,23,no_adaptation,120,←,left,←,0.5448501999489963,True,36,0
KN-M-23M23S2,24,no_adaptation,120,←,left,←,0.3421947999158874,True,36,0
KN-M-23M23S2,25,no_adaptation,120,→,right,→,0.3509018999757245,True,36,0
KN-M-23M23S2,26,no_adaptation,120,→,right,→,0.39205290004611015,True,36,0
KN-M-23M23S2,27,no_adaptation,120,←,left,←,0.42573610006365925,True,36,0
KN-M-23M23S2,28,no_adaptation,120,→,right,→,0.441156700020656,True,36,0
KN-M-23M23S2,29,no_adaptation,120,↑,up,↑,0.5033161999890581,True,36,0
KN-M-23M23S2,30,no_adaptation,120,→,right,→,0.46766259998548776,True,36,0
KN-M-23M23S2,31,no_adaptation,120,→,right,→,0.36722660006489605,True,36,0
KN-M-23M23S2,32,no_adaptation,120,→,left,←,0.3081316000316292,False,36,0
KN-M-23M23S2,33,no_adaptation,120,↓,up,↑,0.4503085999749601,False,36,0
KN-M-23M23S2,34,no_adaptation,120,↓,down,↓,0.425404499983415,True,36,0
KN-M-23M23S2,35,no_adaptation,120,↓,down,↓,0.45073520008008927,True,36,0
KN-M-23M23S2,36,no_adaptation,120,↑,up,↑,0.5218774999957532,True,36,0
KN-M-23M23S2,37,no_adaptation,120,↓,down,↓,0.47026650002226233,True,36,0
KN-M-23M23S2,38,no_adaptation,120,←,left,←,0.555448800092563,True,36,0
KN-M-23M23S2,39,no_adaptation,120,→,right,→,0.47030130005441606,True,36,0
KN-M-23M23S2,40,no_adaptation,120,→,right,→,0.4419447999680415,True,36,0
KN-M-23M23S2,41,training,48,→,right,→,0.6227651999797672,True,36,0
KN-M-23M23S2,42,training,75,↓,down,↓,0.5173079000087455,True,36,1
KN-M-23M23S2,43,experiment,107,↓,down,↓,0.47848679998423904,True,36,1
KN-M-23M23S2,44,experiment,52,←,right,→,0.4427955000428483,False,36,1
KN-M-23M23S2,45,experiment,96,↓,down,↓,0.4175944000016898,True,36,0
KN-M-23M23S2,46,experiment,98,←,left,←,0.34215090004727244,True,36,0
KN-M-23M23S2,47,experiment,76,←,left,←,0.33439249999355525,True,36,0
KN-M-23M23S2,48,experiment,104,↓,down,↓,0.40115699998568743,True,36,0
KN-M-23M23S2,49,experiment,101,→,right,→,0.45089129998814315,True,36,0
KN-M-23M23S2,50,experiment,67,↑,up,↑,0.6786098999436945,True,36,0
KN-M-23M23S2,51,experiment,59,↓,down,↓,0.48816820001229644,True,36,1
KN-M-23M23S2,52,experiment,70,←,right,→,0.5500884000211954,False,36,1
KN-M-23M23S2,53,experiment,99,↑,up,↑,0.43362809997051954,True,36,1
KN-M-23M23S2,54,experiment,63,↓,down,↓,0.5373944999882951,True,36,0
KN-M-23M23S2,55,experiment,100,→,right,→,0.5071145999245346,True,36,1
KN-M-23M23S2,56,experiment,103,←,right,→,0.37556680000852793,False,36,1
KN-M-23M23S2,57,experiment,86,←,left,←,0.44339819997549057,True,36,0
KN-M-23M23S2,58,experiment,80,↑,up,↑,1.4931819000048563,True,36,0
KN-M-23M23S2,59,experiment,78,↓,down,↓,0.5126962000504136,True,36,1
KN-M-23M23S2,60,experiment,93,↑,up,↑,0.4421574000734836,True,36,1
KN-M-23M23S2,61,experiment,94,→,right,→,1.4447117999661714,True,36,0
KN-M-23M23S2,62,experiment,54,↑,up,↑,0.5299829998984933,True,36,1
KN-M-23M23S2,63,experiment,77,↓,down,↓,0.48388319998048246,True,36,1
KN-M-23M23S2,64,experiment,90,→,right,→,0.4338925000047311,True,36,1
KN-M-23M23S2,65,experiment,48,↓,down,↓,0.4333712999941781,True,36,0
KN-M-23M23S2,66,experiment,50,↓,down,↓,0.41730219998862594,True,36,0
KN-M-23M23S2,67,experiment,72,↓,down,↓,0.3922432999825105,True,36,0
KN-M-23M23S2,68,experiment,87,→,right,→,1.6188370999880135,True,36,0
KN-M-23M23S2,69,experiment,91,←,left,←,0.5411261999979615,True,36,1
KN-M-23M23S2,70,experiment,83,↓,down,↓,0.4090974999126047,True,36,1
KN-M-23M23S2,71,experiment,64,←,right,→,0.38412740000057966,False,36,0
KN-M-23M23S2,72,experiment,49,↓,down,↓,0.41697590006515384,True,36,0
KN-M-23M23S2,73,experiment,55,↑,up,↑,1.50836390000768,True,36,0
KN-M-23M23S2,74,experiment,62,↓,down,↓,0.4420645999489352,True,36,1
KN-M-23M23S2,75,experiment,60,→,no_key,no_letter,-1.0,False,36,0
KN-M-23M23S2,76,experiment,81,→,right,→,0.6063303999835625,True,36,1
KN-M-23M23S2,77,experiment,51,↑,up,↑,0.5816204999573529,True,36,1
KN-M-23M23S2,78,experiment,73,←,left,←,0.5024301999947056,True,36,1
KN-M-23M23S2,79,experiment,65,↓,down,↓,0.4772670000093058,True,36,1
KN-M-23M23S2,80,experiment,89,←,no_key,no_letter,-1.0,False,36,1
KN-M-23M23S2,81,experiment,85,↓,down,↓,0.5233316000085324,True,36,1
KN-M-23M23S2,82,experiment,82,→,right,→,1.0675967999268323,True,36,1
KN-M-23M23S2,83,experiment,69,→,right,→,0.4497977999271825,True,36,1
KN-M-23M23S2,84,experiment,95,↓,down,↓,0.4177810000255704,True,36,0
KN-M-23M23S2,85,experiment,56,↓,down,↓,0.4171277000568807,True,36,0
KN-M-23M23S2,86,experiment,75,↑,up,↑,1.4842536998912692,True,36,0
KN-M-23M23S2,87,experiment,58,→,right,→,0.6069685000693426,True,36,1
KN-M-23M23S2,88,experiment,61,→,right,→,0.48291599994990975,True,36,1
KN-M-23M23S2,89,experiment,53,↑,up,↑,0.5819872999563813,True,36,1
KN-M-23M23S2,90,experiment,79,↓,down,↓,0.44231630000285804,True,36,1
KN-M-23M23S2,91,experiment,71,→,right,→,0.35905720002483577,True,36,0
KN-M-23M23S2,92,experiment,74,→,right,→,0.4505557999946177,True,36,0
KN-M-23M23S2,93,experiment,66,→,right,→,0.34196959994733334,True,36,0
KN-M-23M23S2,94,experiment,88,↑,up,↑,0.4985902999760583,True,36,0
KN-M-23M23S2,95,experiment,92,→,right,→,1.0805724000092596,True,36,1
KN-M-23M23S2,96,experiment,68,→,right,→,0.40896549995522946,True,36,1
KN-M-23M23S2,97,experiment,106,↓,down,↓,0.5398214999586344,True,36,0
KN-M-23M23S2,98,experiment,84,→,right,→,0.5070374000351876,True,36,1
KN-M-23M23S2,99,experiment,108,↑,up,↑,0.5390971000306308,True,36,1
KN-M-23M23S2,100,experiment,57,↑,up,↑,0.43397570005618036,True,36,1
KN-M-23M23S2,101,experiment,102,←,right,→,0.4007611999986693,False,36,0
KN-M-23M23S2,102,experiment,97,←,left,←,0.38547059998381883,True,36,0
KN-M-23M23S2,103,experiment,105,←,right,→,0.4088698000414297,False,36,0
KN-M-23M23S2,104,training,71,←,left,←,0.47329170000739396,True,36,0
KN-M-23M23S2,105,training,49,↑,up,↑,1.1098553999327123,True,36,1
KN-M-23M23S2,106,experiment,88,←,left,←,0.41739610000513494,True,36,1
KN-M-23M23S2,107,experiment,105,←,right,→,0.4339469999540597,False,36,0
KN-M-23M23S2,108,experiment,82,↑,up,↑,0.45010720007121563,True,36,0
KN-M-23M23S2,109,experiment,63,↓,down,↓,0.6859645000658929,True,36,0
KN-M-23M23S2,110,experiment,106,↑,up,↑,0.5441198999760672,True,36,1
KN-M-23M23S2,111,experiment,81,←,left,←,0.44198190001770854,True,36,1
KN-M-23M23S2,112,experiment,96,←,left,←,0.3515456001041457,True,36,0
KN-M-23M23S2,113,experiment,52,←,left,←,0.42535419994965196,True,36,0
KN-M-23M23S2,114,experiment,93,←,left,←,0.3922185000265017,True,36,0
KN-M-23M23S2,115,experiment,92,←,right,→,0.2998729000100866,False,36,0
KN-M-23M23S2,116,experiment,97,←,left,←,0.4087866999907419,True,36,0
KN-M-23M23S2,117,experiment,69,↑,up,↑,0.47801359998993576,True,36,0
KN-M-23M23S2,118,experiment,54,→,right,→,1.2974372000899166,True,36,1
KN-M-23M23S2,119,experiment,107,→,right,→,0.3592117000371218,True,36,1
KN-M-23M23S2,120,experiment,61,→,right,→,0.4338355000363663,True,36,0
KN-M-23M23S2,121,experiment,84,↑,up,↑,0.46800079999957234,True,36,0
KN-M-23M23S2,122,experiment,66,↓,down,↓,0.530815799953416,True,36,0
KN-M-23M23S2,123,experiment,55,↑,up,↑,1.1155223000096157,True,36,1
KN-M-23M23S2,124,experiment,103,←,left,←,0.525689100031741,True,36,1
KN-M-23M23S2,125,experiment,58,←,left,←,0.5817748999688774,True,36,1
KN-M-23M23S2,126,experiment,59,→,left,←,0.42570540006272495,False,36,1
KN-M-23M23S2,127,experiment,90,→,right,→,1.0051190999802202,True,36,0
KN-M-23M23S2,128,experiment,78,↑,up,↑,0.5629983000690117,True,36,1
KN-M-23M23S2,129,experiment,91,→,right,→,0.4503870999906212,True,36,1
KN-M-23M23S2,130,experiment,50,↑,up,↑,0.580117900040932,True,36,0
KN-M-23M23S2,131,experiment,83,→,right,→,0.426828800002113,True,36,1
KN-M-23M23S2,132,experiment,75,↑,up,↑,0.4174281999003142,True,36,0
KN-M-23M23S2,133,experiment,94,↓,down,↓,0.4721065000630915,True,36,0
KN-M-23M23S2,134,experiment,48,↓,down,↓,0.6454542999854311,True,36,0
KN-M-23M23S2,135,experiment,86,↑,up,↑,0.5113794999197125,True,36,1
KN-M-23M23S2,136,experiment,53,↑,up,↑,0.474693400086835,True,36,1
KN-M-23M23S2,137,experiment,101,→,right,→,0.4172960000578314,True,36,1
KN-M-23M23S2,138,experiment,79,↑,up,↑,0.4338921000016853,True,36,0
KN-M-23M23S2,139,experiment,87,↑,up,↑,0.5093358000740409,True,36,0
KN-M-23M23S2,140,experiment,102,←,left,←,0.6553183000069112,True,36,1
KN-M-23M23S2,141,experiment,56,→,right,→,0.40884940000250936,True,36,1
KN-M-23M23S2,142,experiment,64,←,right,→,0.3262517999392003,False,36,0
KN-M-23M23S2,143,experiment,71,→,right,→,1.008519500028342,True,36,0
KN-M-23M23S2,144,experiment,60,→,right,→,0.441948699997738,True,36,1
KN-M-23M23S2,145,experiment,72,←,left,←,0.5236289999447763,True,36,0
KN-M-23M23S2,146,experiment,77,↓,down,↓,0.6375211999984458,True,36,1
KN-M-23M23S2,147,experiment,67,↓,down,↓,0.40824139991309494,True,36,1
KN-M-23M23S2,148,experiment,51,↑,up,↑,0.509605500032194,True,36,0
KN-M-23M23S2,149,experiment,70,→,right,→,1.5701473000226542,True,36,1
KN-M-23M23S2,150,experiment,49,←,left,←,0.5482726000482216,True,36,1
KN-M-23M23S2,151,experiment,65,→,right,→,0.48101780004799366,True,36,1
KN-M-23M23S2,152,experiment,57,↑,up,↑,0.5309741999953985,True,36,1
KN-M-23M23S2,153,experiment,62,←,left,←,0.5138765999581665,True,36,1
KN-M-23M23S2,154,experiment,104,→,right,→,0.47564379998948425,True,36,1
KN-M-23M23S2,155,experiment,95,↑,up,↑,0.41720790008548647,True,36,1
KN-M-23M23S2,156,experiment,85,↑,up,↑,0.37555240001529455,True,36,0
KN-M-23M23S2,157,experiment,89,←,left,←,0.42555640009231865,True,36,0
KN-M-23M23S2,158,experiment,80,←,left,←,0.6276260999729857,True,36,0
KN-M-23M23S2,159,experiment,108,↑,left,←,0.31700979999732226,False,36,1
KN-M-23M23S2,160,experiment,98,→,right,→,0.6984189000213519,True,36,0
KN-M-23M23S2,161,experiment,100,→,right,→,0.48631920001935214,True,36,1
KN-M-23M23S2,162,experiment,74,→,right,→,0.6663444000296295,True,36,1
KN-M-23M23S2,163,experiment,68,→,right,→,0.5458311000838876,True,36,1
KN-M-23M23S2,164,experiment,99,↑,up,↑,0.9949747000355273,True,36,1
KN-M-23M23S2,165,experiment,76,↑,up,↑,0.4419441999634728,True,36,1
KN-M-23M23S2,166,experiment,73,↓,down,↓,0.6174361000303179,True,36,0
KN-M-23M23S2,167,training,105,↑,up,↑,0.46090449998155236,True,35,0
KN-M-23M23S2,168,training,105,↓,down,↓,0.7273907999042422,True,35,0
KN-M-23M23S2,169,experiment,83,↑,up,↑,0.511555900098756,True,35,1
KN-M-23M23S2,170,experiment,53,↓,down,↓,0.498459400027059,True,35,1
KN-M-23M23S2,171,experiment,101,↓,down,↓,0.40873110003303736,True,35,1
KN-M-23M23S2,172,experiment,55,↑,up,↑,0.5464704999467358,True,35,0
KN-M-23M23S2,173,experiment,72,↑,up,↑,0.42453269998077303,True,35,1
KN-M-23M23S2,174,experiment,69,↑,up,↑,0.565497399889864,True,35,0
KN-M-23M23S2,175,experiment,80,↑,up,↑,0.4615265999455005,True,35,1
KN-M-23M23S2,176,experiment,73,→,right,→,0.4336814000271261,True,35,0
KN-M-23M23S2,177,experiment,56,↑,up,↑,1.1105383000103757,True,35,0
KN-M-23M23S2,178,experiment,75,↓,down,↓,0.5940943999448791,True,35,1
KN-M-23M23S2,179,experiment,105,←,left,←,0.5359341000439599,True,35,1
KN-M-23M23S2,180,experiment,82,→,right,→,0.7442539000185207,True,35,1
KN-M-23M23S2,181,experiment,89,↓,down,↓,0.47767880000174046,True,35,1
KN-M-23M23S2,182,experiment,65,↓,down,↓,0.6214961000951007,True,35,1
KN-M-23M23S2,183,experiment,74,↓,down,↓,0.500319299986586,True,35,1
KN-M-23M23S2,184,experiment,71,←,left,←,0.4345742999576032,True,35,1
KN-M-23M23S2,185,experiment,85,←,left,←,0.5236897000577301,True,35,0
KN-M-23M23S2,186,experiment,52,→,right,→,0.4627291999058798,True,35,1
KN-M-23M23S2,187,experiment,99,→,right,→,0.5065935000311583,True,35,0
KN-M-23M23S2,188,experiment,86,↓,down,↓,0.49829829996451735,True,35,1
KN-M-23M23S2,189,experiment,51,←,left,←,0.4862886000191793,True,35,1
KN-M-23M23S2,190,experiment,48,←,left,←,0.5550339000765234,True,35,1
KN-M-23M23S2,191,experiment,58,↑,up,↑,0.5778066000202671,True,35,1
KN-M-23M23S2,192,experiment,81,←,left,←,0.3920426999684423,True,35,1
KN-M-23M23S2,193,experiment,63,→,right,→,0.4417442000703886,True,35,0
KN-M-23M23S2,194,experiment,90,→,right,→,0.516565200057812,True,35,0
KN-M-23M23S2,195,experiment,92,→,right,→,0.47432330006267875,True,35,1
KN-M-23M23S2,196,experiment,59,←,left,←,0.47596210008487105,True,35,1
KN-M-23M23S2,197,experiment,104,↓,down,↓,0.5188623000867665,True,35,1
KN-M-23M23S2,198,experiment,95,←,left,←,0.3676436999812722,True,35,1
KN-M-23M23S2,199,experiment,107,↑,down,↓,0.4158815999981016,False,35,0
KN-M-23M23S2,200,experiment,97,↓,down,↓,0.8086016000015661,True,35,0
KN-M-23M23S2,201,experiment,50,→,right,→,0.5441117000300437,True,35,1
KN-M-23M23S2,202,experiment,61,↓,down,↓,1.1343010000418872,True,35,1
KN-M-23M23S2,203,experiment,84,→,left,←,0.3924774000188336,False,35,1
KN-M-23M23S2,204,experiment,102,←,left,←,0.48472270008642226,True,35,0
KN-M-23M23S2,205,experiment,108,↑,up,↑,0.6139981000451371,True,35,1
KN-M-23M23S2,206,experiment,96,→,right,→,0.4250946999527514,True,35,1
KN-M-23M23S2,207,experiment,106,←,left,←,1.3060122999595478,True,35,0
KN-M-23M23S2,208,experiment,64,←,right,→,0.4336409999523312,False,35,1
KN-M-23M23S2,209,experiment,79,↓,down,↓,0.5575494000222534,True,35,0
KN-M-23M23S2,210,experiment,57,←,left,←,0.6208070999709889,True,35,1
KN-M-23M23S2,211,experiment,100,↑,up,↑,0.5633433000184596,True,35,1
KN-M-23M23S2,212,experiment,49,←,left,←,0.49275189999025315,True,35,1
KN-M-23M23S2,213,experiment,67,↑,up,↑,0.5713176999706775,True,35,1
KN-M-23M23S2,214,experiment,76,←,left,←,0.3924305000109598,True,35,1
KN-M-23M23S2,215,experiment,77,↑,up,↑,0.9143546998966485,True,35,0
KN-M-23M23S2,216,experiment,66,→,right,→,0.5284509001066908,True,35,1
KN-M-23M23S2,217,experiment,62,↑,up,↑,0.42550749995280057,True,35,1
KN-M-23M23S2,218,experiment,68,↓,down,↓,0.5599798000184819,True,35,0
KN-M-23M23S2,219,experiment,91,↓,down,↓,0.5715786999789998,True,35,1
KN-M-23M23S2,220,experiment,60,↓,down,↓,0.4810779000399634,True,35,1
KN-M-23M23S2,221,experiment,103,←,left,←,0.6362285999348387,True,35,1
KN-M-23M23S2,222,experiment,98,←,left,←,0.3841173999244347,True,35,1
KN-M-23M23S2,223,experiment,54,↑,up,↑,0.4346728000091389,True,35,0
KN-M-23M23S2,224,experiment,93,→,right,→,0.4811819000169635,True,35,0
KN-M-23M23S2,225,experiment,94,↑,up,↑,0.6151403998956084,True,35,1
KN-M-23M23S2,226,experiment,87,→,right,→,1.2421512000728399,True,35,1
KN-M-23M23S2,227,experiment,78,←,left,←,0.5435099999886006,True,35,1
KN-M-23M23S2,228,experiment,88,→,right,→,0.5809733000351116,True,35,1
KN-M-23M23S2,229,experiment,70,↓,down,↓,0.5188428000546992,True,35,1
KN-M-23M23S2,230,training,101,↑,up,↑,0.4535076000029221,True,34,0
KN-M-23M23S2,231,training,58,→,right,→,0.9282407999271527,True,34,0
KN-M-23M23S2,232,experiment,101,←,left,←,0.5464139999821782,True,34,1
KN-M-23M23S2,233,experiment,65,↑,up,↑,0.45613950002007186,True,34,1
KN-M-23M23S2,234,experiment,94,→,right,→,0.5425296999746934,True,34,1
KN-M-23M23S2,235,experiment,69,→,right,→,0.45902089995797724,True,34,1
KN-M-23M23S2,236,experiment,59,→,right,→,0.45342419994995,True,34,1
KN-M-23M23S2,237,experiment,78,↑,up,↑,0.392143499921076,True,34,1
KN-M-23M23S2,238,experiment,72,↓,left,←,0.5215584000106901,False,34,0
KN-M-23M23S2,239,experiment,62,←,left,←,0.45681739994324744,True,34,1
KN-M-23M23S2,240,experiment,92,←,left,←,0.48018029995728284,True,34,0
KN-M-23M23S2,241,experiment,50,↓,down,↓,0.5967386999400333,True,34,1
KN-M-23M23S2,242,experiment,95,←,left,←,0.6696000000229105,True,34,1
KN-M-23M23S2,243,experiment,49,↑,up,↑,0.63515800004825,True,34,1
KN-M-23M23S2,244,experiment,55,→,right,→,0.5040644999826327,True,34,1
KN-M-23M23S2,245,experiment,87,↓,down,↓,0.49541159998625517,True,34,1
KN-M-23M23S2,246,experiment,76,←,left,←,0.618640000000596,True,34,1
KN-M-23M23S2,247,experiment,103,→,right,→,0.4644143999321386,True,34,1
KN-M-23M23S2,248,experiment,100,↑,up,↑,0.4341699000215158,True,34,1
KN-M-23M23S2,249,experiment,58,←,left,←,0.6406565000070259,True,34,0
KN-M-23M23S2,250,experiment,68,←,right,→,0.7128355000168085,False,34,1
KN-M-23M23S2,251,experiment,88,↓,down,↓,0.5993488000240177,True,34,1
KN-M-23M23S2,252,experiment,51,←,left,←,0.48699550004675984,True,34,1
KN-M-23M23S2,253,experiment,52,↑,up,↑,0.5466652999166399,True,34,1
KN-M-23M23S2,254,experiment,75,←,left,←,0.40801070001907647,True,34,1
KN-M-23M23S2,255,experiment,96,↑,up,↑,0.459783700061962,True,34,0
KN-M-23M23S2,256,experiment,98,↑,up,↑,0.40908599994145334,True,34,1
KN-M-23M23S2,257,experiment,93,←,left,←,0.9546502999728546,True,34,0
KN-M-23M23S2,258,experiment,104,→,right,→,0.5865744999609888,True,34,1
KN-M-23M23S2,259,experiment,82,↑,up,↑,0.6725730000762269,True,34,1
KN-M-23M23S2,260,experiment,66,↑,up,↑,0.4257428999990225,True,34,1
KN-M-23M23S2,261,experiment,54,↓,down,↓,0.533140099956654,True,34,0
KN-M-23M23S2,262,experiment,106,←,left,←,0.46178460004739463,True,34,1
KN-M-23M23S2,263,experiment,64,→,right,→,0.9338735999772325,True,34,1
KN-M-23M23S2,264,experiment,63,←,left,←,0.4256878000451252,True,34,1
KN-M-23M23S2,265,experiment,57,→,right,→,0.5202890000073239,True,34,0
KN-M-23M23S2,266,experiment,97,↑,up,↑,0.46050479996483773,True,34,1
KN-M-23M23S2,267,experiment,71,→,right,→,0.4901005000574514,True,34,1
KN-M-23M23S2,268,experiment,89,←,left,←,0.6175682001048699,True,34,1
KN-M-23M23S2,269,experiment,70,→,right,→,0.9779575999127701,True,34,1
KN-M-23M23S2,270,experiment,81,→,right,→,0.40958529990166426,True,34,1
KN-M-23M23S2,271,experiment,99,↓,down,↓,0.5751716999802738,True,34,0
KN-M-23M23S2,272,experiment,84,→,right,→,0.46110289997886866,True,34,1
KN-M-23M23S2,273,experiment,74,↓,down,↓,0.49063699995167553,True,34,1
KN-M-23M23S2,274,experiment,90,→,right,→,0.4580335000064224,True,34,1
KN-M-23M23S2,275,experiment,83,→,right,→,0.5000870000803843,True,34,1
KN-M-23M23S2,276,experiment,91,↓,down,↓,0.4903836000012234,True,34,1
KN-M-23M23S2,277,experiment,108,→,right,→,0.6513308000285178,True,34,1
KN-M-23M23S2,278,experiment,102,→,right,→,0.48022360005415976,True,34,1
KN-M-23M23S2,279,experiment,86,→,right,→,0.5287650999380276,True,34,1
KN-M-23M23S2,280,experiment,73,→,right,→,0.3920428999699652,True,34,1
KN-M-23M23S2,281,experiment,77,↑,up,↑,0.5790526999626309,True,34,0
KN-M-23M23S2,282,experiment,60,→,right,→,0.43366610002703965,True,34,1
KN-M-23M23S2,283,experiment,56,↓,down,↓,0.4762297000270337,True,34,0
KN-M-23M23S2,284,experiment,107,↓,down,↓,0.4703506000805646,True,34,1
KN-M-23M23S2,285,experiment,85,↓,down,↓,0.5198449000017717,True,34,1
KN-M-23M23S2,286,experiment,79,←,left,←,0.5697057000361383,True,34,1
KN-M-23M23S2,287,experiment,53,↑,up,↑,0.4977101000258699,True,34,1
KN-M-23M23S2,288,experiment,67,←,left,←,0.4638920999132097,True,34,1
KN-M-23M23S2,289,experiment,105,→,left,←,0.6270981000270694,False,34,1
KN-M-23M23S2,290,experiment,80,→,right,→,1.2159289999399334,True,34,1
KN-M-23M23S2,291,experiment,48,→,right,→,1.1760588999604806,True,34,1
KN-M-23M23S2,292,experiment,61,→,right,→,0.4169250000268221,True,34,1
KN-M-23M23S2,293,training,95,←,left,←,0.4252637999597937,True,33,0
KN-M-23M23S2,294,training,94,←,left,←,0.3422270000446588,True,33,0
KN-M-23M23S2,295,experiment,104,←,left,←,0.26733609999064356,True,33,0
KN-M-23M23S2,296,experiment,79,↓,down,↓,0.5574495000764728,True,33,0
KN-M-23M23S2,297,experiment,100,↓,down,↓,0.4784353000577539,True,33,1
KN-M-23M23S2,298,experiment,107,↓,down,↓,0.40819340001326054,True,33,1
KN-M-23M23S2,299,experiment,72,→,right,→,0.47239849995821714,True,33,0
KN-M-23M23S2,300,experiment,52,↑,up,↑,0.6124941000016406,True,33,1
KN-M-23M23S2,301,experiment,91,→,right,→,0.4704036000184715,True,33,1
KN-M-23M23S2,302,experiment,50,↓,down,↓,0.4907406000420451,True,33,1
KN-M-23M23S2,303,experiment,88,↑,up,↑,0.6186194000765681,True,33,1
KN-M-23M23S2,304,experiment,98,←,left,←,0.5459119000006467,True,33,1
KN-M-23M23S2,305,experiment,89,←,left,←,0.4873033999465406,True,33,1
KN-M-23M23S2,306,experiment,86,→,right,→,0.4563946999842301,True,33,1
KN-M-23M23S2,307,experiment,75,↑,up,↑,0.4929609999526292,True,33,1
KN-M-23M23S2,308,experiment,69,↑,up,↑,1.1227563000284135,True,33,1
KN-M-23M23S2,309,experiment,68,↑,up,↑,0.40084789996035397,True,33,1
KN-M-23M23S2,310,experiment,97,←,left,←,0.5037588000996038,True,33,0
KN-M-23M23S2,311,experiment,60,←,left,←,0.39282700000330806,True,33,1
KN-M-23M23S2,312,experiment,65,↓,down,↓,0.48281149996910244,True,33,0
KN-M-23M23S2,313,experiment,90,↓,down,↓,0.45067030005156994,True,33,1
KN-M-23M23S2,314,experiment,94,↓,down,↓,0.5213450000155717,True,33,1
KN-M-23M23S2,315,experiment,80,←,right,→,0.4169947999762371,False,33,1
KN-M-23M23S2,316,experiment,105,←,left,←,0.5829672999680042,True,33,0
KN-M-23M23S2,317,experiment,58,↑,up,↑,0.5009117999579757,True,33,1
KN-M-23M23S2,318,experiment,106,↑,up,↑,0.5661635999567807,True,33,1
KN-M-23M23S2,319,experiment,71,←,left,←,0.5285812000511214,True,33,1
KN-M-23M23S2,320,experiment,87,←,left,←,0.39237999997567385,True,33,1
KN-M-23M23S2,321,experiment,108,→,right,→,0.4837632999988273,True,33,0
KN-M-23M23S2,322,experiment,84,↓,down,↓,0.46901740005705506,True,33,1
KN-M-23M23S2,323,experiment,76,←,left,←,0.39210599998477846,True,33,1
KN-M-23M23S2,324,experiment,101,↑,up,↑,0.45678200002294034,True,33,0
KN-M-23M23S2,325,experiment,102,←,left,←,0.4258032999932766,True,33,1
KN-M-23M23S2,326,experiment,73,←,left,←,0.2927590000908822,True,33,0
KN-M-23M23S2,327,experiment,96,↑,up,↑,0.5203584000701085,True,33,0
KN-M-23M23S2,328,experiment,77,←,left,←,0.4007323000114411,True,33,1
KN-M-23M23S2,329,experiment,63,↓,down,↓,0.5253369000274688,True,33,0
KN-M-23M23S2,330,experiment,81,←,left,←,0.4461528999963775,True,33,1
KN-M-23M23S2,331,experiment,66,↑,up,↑,0.5266258999472484,True,33,0
KN-M-23M23S2,332,experiment,83,←,left,←,0.35861449991352856,True,33,1
KN-M-23M23S2,333,experiment,95,↓,down,↓,0.5683835999807343,True,33,0
KN-M-23M23S2,334,experiment,78,↑,up,↑,0.5765718999318779,True,33,1
KN-M-23M23S2,335,experiment,85,↑,up,↑,0.40115910000167787,True,33,1
KN-M-23M23S2,336,experiment,54,↑,up,↑,0.4917646999238059,True,33,0
KN-M-23M23S2,337,experiment,70,→,right,→,0.46559560007881373,True,33,1
KN-M-23M23S2,338,experiment,55,→,right,→,0.46882449998520315,True,33,1
KN-M-23M23S2,339,experiment,93,→,right,→,0.5238634999841452,True,33,1
KN-M-23M23S2,340,experiment,61,↓,down,↓,0.5553172000218183,True,33,1
KN-M-23M23S2,341,experiment,59,↓,down,↓,0.4576610999647528,True,33,1
KN-M-23M23S2,342,experiment,67,↑,up,↑,0.6014827999752015,True,33,1
KN-M-23M23S2,343,experiment,64,↑,up,↑,0.4455282000126317,True,33,1
KN-M-23M23S2,344,experiment,51,←,left,←,0.4087095999857411,True,33,1
KN-M-23M23S2,345,experiment,53,←,right,→,0.39202649996150285,False,33,0
KN-M-23M23S2,346,experiment,56,←,left,←,1.0381911000004038,True,33,0
KN-M-23M23S2,347,experiment,99,↑,up,↑,0.9643130999756977,True,33,1
KN-M-23M23S2,348,experiment,62,←,left,←,0.5697399999480695,True,33,1
KN-M-23M23S2,349,experiment,74,←,left,←,0.9311415000120178,True,33,1
KN-M-23M23S2,350,experiment,48,↓,down,↓,0.486383399926126,True,33,1
KN-M-23M23S2,351,experiment,103,↑,up,↑,0.5055186999961734,True,33,1
KN-M-23M23S2,352,experiment,92,↑,up,↑,0.48712479998357594,True,33,1
KN-M-23M23S2,353,experiment,57,↑,up,↑,0.4087352999486029,True,33,1
KN-M-23M23S2,354,experiment,49,↑,up,↑,0.425531700020656,True,33,0
KN-M-23M23S2,355,experiment,82,←,left,←,0.46076749998610467,True,33,0
KN-M-23M23S2,356,training,55,→,left,←,0.40969909995328635,False,32,0
KN-M-23M23S2,357,training,82,↑,down,↓,0.6850532999960706,False,32,0
KN-M-23M23S2,358,experiment,61,↑,up,↑,0.5180084001040086,True,32,1
KN-M-23M23S2,359,experiment,62,→,right,→,0.41716620000079274,True,32,1
KN-M-23M23S2,360,experiment,108,←,left,←,0.5127885999390855,True,32,0
KN-M-23M23S2,361,experiment,80,→,right,→,0.546029300079681,True,32,1
KN-M-23M23S2,362,experiment,101,↓,down,↓,0.4670545000117272,True,32,1
KN-M-23M23S2,363,experiment,94,↑,up,↑,0.5616665000561625,True,32,1
KN-M-23M23S2,364,experiment,76,→,right,→,0.49877070006914437,True,32,1
KN-M-23M23S2,365,experiment,72,←,left,←,0.5993025000207126,True,32,1
KN-M-23M23S2,366,experiment,78,↑,up,↑,0.5659726000158116,True,32,1
KN-M-23M23S2,367,experiment,57,→,right,→,0.4164044000208378,True,32,1
KN-M-23M23S2,368,experiment,75,↓,down,↓,0.5233496999135241,True,32,0
KN-M-23M23S2,369,experiment,97,←,left,←,0.438888999982737,True,32,1
KN-M-23M23S2,370,experiment,54,←,left,←,0.5153836999088526,True,32,0
KN-M-23M23S2,371,experiment,71,→,left,←,0.3767045000568032,False,32,1
KN-M-23M23S2,372,experiment,105,↓,down,↓,0.4079916999908164,True,32,0
KN-M-23M23S2,373,experiment,106,↓,down,↓,0.49823929998092353,True,32,0
KN-M-23M23S2,374,experiment,100,→,right,→,0.4169752999441698,True,32,1
KN-M-23M23S2,375,experiment,88,↑,up,↑,0.4877804999705404,True,32,0
KN-M-23M23S2,376,experiment,59,↑,up,↑,1.257351699983701,True,32,1
KN-M-23M23S2,377,experiment,60,←,left,←,0.4917917000129819,True,32,1
KN-M-23M23S2,378,experiment,84,↓,down,↓,0.588792199967429,True,32,1
KN-M-23M23S2,379,experiment,56,→,left,←,0.4512215000577271,False,32,1
KN-M-23M23S2,380,experiment,89,↓,down,↓,0.43640160001814365,True,32,1
KN-M-23M23S2,381,experiment,82,↓,down,↓,0.4479361999547109,True,32,0
KN-M-23M23S2,382,experiment,83,←,left,←,0.4663899999577552,True,32,1
KN-M-23M23S2,383,experiment,53,←,left,←,0.4787835000315681,True,32,1
KN-M-23M23S2,384,experiment,93,→,right,→,0.6771942999912426,True,32,1
KN-M-23M23S2,385,experiment,74,→,right,→,1.17026570008602,True,32,1
KN-M-23M23S2,386,experiment,55,↓,down,↓,0.47417920001316816,True,32,1
KN-M-23M23S2,387,experiment,92,→,right,→,0.6248347000218928,True,32,1
KN-M-23M23S2,388,experiment,99,←,left,←,0.3755138999549672,True,32,1
KN-M-23M23S2,389,experiment,51,↑,up,↑,0.47957779990974814,True,32,0
KN-M-23M23S2,390,experiment,52,→,right,→,0.38370420003775507,True,32,1
KN-M-23M23S2,391,experiment,66,↑,left,←,0.3257861000020057,False,32,0
KN-M-23M23S2,392,experiment,64,←,right,→,1.2921080000232905,False,32,0
KN-M-23M23S2,393,experiment,107,→,left,←,0.5019712999928743,False,32,1
KN-M-23M23S2,394,experiment,49,↑,up,↑,0.8902509999461472,True,32,1
KN-M-23M23S2,395,experiment,69,↓,down,↓,0.5444934000261128,True,32,1
KN-M-23M23S2,396,experiment,65,↓,down,↓,0.6132542999694124,True,32,1
KN-M-23M23S2,397,experiment,95,←,left,←,0.7096250000176951,True,32,1
KN-M-23M23S2,398,experiment,73,→,right,→,0.4577936000423506,True,32,1
KN-M-23M23S2,399,experiment,98,→,right,→,0.6232748000184074,True,32,1
KN-M-23M23S2,400,experiment,58,↑,up,↑,0.443455700064078,True,32,1
KN-M-23M23S2,401,experiment,63,←,left,←,0.5494294000091031,True,32,1
KN-M-23M23S2,402,experiment,68,→,right,→,0.6092952999752015,True,32,1
KN-M-23M23S2,403,experiment,91,←,right,→,0.4992298000724986,False,32,1
KN-M-23M23S2,404,experiment,87,↓,down,↓,0.4828791000181809,True,32,1
KN-M-23M23S2,405,experiment,104,←,left,←,0.3994764999952167,True,32,1
KN-M-23M23S2,406,experiment,77,←,left,←,0.46804369997698814,True,32,0
KN-M-23M23S2,407,experiment,79,→,right,→,0.3508414999814704,True,32,1
KN-M-23M23S2,408,experiment,86,↑,up,↑,0.4458181000081822,True,32,0
KN-M-23M23S2,409,experiment,81,→,right,→,0.4809536000248045,True,32,1
KN-M-23M23S2,410,experiment,48,↓,down,↓,0.590136400074698,True,32,1
KN-M-23M23S2,411,experiment,96,↑,right,→,0.5836414000950754,False,32,1
KN-M-23M23S2,412,experiment,50,→,right,→,0.5915069000329822,True,32,1
KN-M-23M23S2,413,experiment,102,↓,down,↓,0.4867198000429198,True,32,1
KN-M-23M23S2,414,experiment,90,↓,down,↓,0.6300036000320688,True,32,1
KN-M-23M23S2,415,experiment,70,↓,down,↓,0.4856277999933809,True,32,1
KN-M-23M23S2,416,experiment,103,↓,down,↓,0.4569758999859914,True,32,1
KN-M-23M23S2,417,experiment,67,↑,up,↑,0.49666290008462965,True,32,1
KN-M-23M23S2,418,experiment,85,↑,up,↑,0.6409144999925047,True,32,1
KN-M-23M23S2,419,training,81,→,right,→,0.4011780000291765,True,32,0
KN-M-23M23S2,420,training,70,↓,down,↓,0.4888875000178814,True,32,0
KN-M-23M23S2,421,experiment,95,→,right,→,0.510171499918215,True,32,1
KN-M-23M23S2,422,experiment,107,←,right,→,0.38392960000783205,False,32,1
KN-M-23M23S2,423,experiment,96,←,left,←,0.5035857000621036,True,32,0
KN-M-23M23S2,424,experiment,99,↓,down,↓,0.41700520005542785,True,32,1
KN-M-23M23S2,425,experiment,61,→,right,→,0.47044110007118434,True,32,0
KN-M-23M23S2,426,experiment,64,→,right,→,0.4546652000863105,True,32,1
KN-M-23M23S2,427,experiment,90,←,left,←,0.5910953000420704,True,32,1
KN-M-23M23S2,428,experiment,80,↓,down,↓,0.4933972000144422,True,32,1
KN-M-23M23S2,429,experiment,91,↑,up,↑,0.6199787999503314,True,32,1
KN-M-23M23S2,430,experiment,82,←,left,←,0.5286834000144154,True,32,1
KN-M-23M23S2,431,experiment,101,↑,up,↑,0.5308048999868333,True,32,1
KN-M-23M23S2,432,experiment,81,↑,up,↑,0.47493799997027963,True,32,1
KN-M-23M23S2,433,experiment,77,↑,up,↑,0.5027874000370502,True,32,1
KN-M-23M23S2,434,experiment,74,←,left,←,0.49071160005405545,True,32,1
KN-M-23M23S2,435,experiment,98,→,right,→,0.5273210000013933,True,32,1
KN-M-23M23S2,436,experiment,87,↓,down,↓,0.493753399932757,True,32,1
KN-M-23M23S2,437,experiment,72,←,left,←,0.5148007000098005,True,32,1
KN-M-23M23S2,438,experiment,92,↓,down,↓,0.4560661999275908,True,32,1
KN-M-23M23S2,439,experiment,54,↑,up,↑,0.5001267000334337,True,32,1
KN-M-23M23S2,440,experiment,88,→,right,→,0.49945350002963096,True,32,1
KN-M-23M23S2,441,experiment,84,↑,up,↑,0.5400558999972418,True,32,1
KN-M-23M23S2,442,experiment,68,→,right,→,0.6802687000017613,True,32,1
KN-M-23M23S2,443,experiment,105,←,left,←,0.6585479999193922,True,32,1
KN-M-23M23S2,444,experiment,65,→,right,→,0.5551200000336394,True,32,1
KN-M-23M23S2,445,experiment,57,→,right,→,0.5303711000597104,True,32,1
KN-M-23M23S2,446,experiment,75,↓,down,↓,0.8207483999431133,True,32,1
KN-M-23M23S2,447,experiment,63,←,left,←,0.5912245999788865,True,32,1
KN-M-23M23S2,448,experiment,93,←,left,←,0.5932725000893697,True,32,1
KN-M-23M23S2,449,experiment,94,→,right,→,0.5953697999939322,True,32,1
KN-M-23M23S2,450,experiment,85,↓,down,↓,0.5276526000816375,True,32,1
KN-M-23M23S2,451,experiment,103,↓,down,↓,0.4650029999902472,True,32,1
KN-M-23M23S2,452,experiment,58,→,right,→,0.5794827999779955,True,32,1
KN-M-23M23S2,453,experiment,102,→,right,→,0.4910788000561297,True,32,1
KN-M-23M23S2,454,experiment,70,↑,up,↑,0.5609595000278205,True,32,1
KN-M-23M23S2,455,experiment,76,←,left,←,1.0894863998983055,True,32,1
KN-M-23M23S2,456,experiment,49,→,right,→,0.5503698999527842,True,32,1
KN-M-23M23S2,457,experiment,53,←,left,←,0.5352201999630779,True,32,1
KN-M-23M23S2,458,experiment,66,←,left,←,0.5244856999488547,True,32,1
KN-M-23M23S2,459,experiment,106,←,left,←,0.4001307999715209,True,32,1
KN-M-23M23S2,460,experiment,62,→,right,→,0.624359899898991,True,32,0
KN-M-23M23S2,461,experiment,108,←,left,←,0.7400801999028772,True,32,1
KN-M-23M23S2,462,experiment,50,↓,down,↓,0.5581634999252856,True,32,1
KN-M-23M23S2,463,experiment,79,→,right,→,0.4703794000670314,True,32,1
KN-M-23M23S2,464,experiment,83,↑,up,↑,0.5685708000091836,True,32,1
KN-M-23M23S2,465,experiment,56,→,right,→,0.6074418999487534,True,32,1
KN-M-23M23S2,466,experiment,55,↓,down,↓,0.6053400998935103,True,32,1
KN-M-23M23S2,467,experiment,67,→,right,→,0.543620300013572,True,32,1
KN-M-23M23S2,468,experiment,100,↓,down,↓,0.6015627000015229,True,32,1
KN-M-23M23S2,469,experiment,73,←,left,←,0.609429799951613,True,32,1
KN-M-23M23S2,470,experiment,69,←,left,←,0.6026376999216154,True,32,1
KN-M-23M23S2,471,experiment,51,↓,down,↓,0.5382076000096276,True,32,1
KN-M-23M23S2,472,experiment,78,←,left,←,0.6348566999658942,True,32,1
KN-M-23M23S2,473,experiment,71,↓,down,↓,0.6585452000144869,True,32,1
KN-M-23M23S2,474,experiment,59,↑,up,↑,0.6450801000464708,True,32,1
KN-M-23M23S2,475,experiment,89,→,right,→,0.5024861000711098,True,32,1
KN-M-23M23S2,476,experiment,104,↑,down,↓,0.6166777000762522,False,32,1
KN-M-23M23S2,477,experiment,48,↓,down,↓,0.5366071000462398,True,32,1
KN-M-23M23S2,478,experiment,60,↓,down,↓,0.5355204999214038,True,32,1
KN-M-23M23S2,479,experiment,86,←,left,←,0.5181985000381246,True,32,1
KN-M-23M23S2,480,experiment,97,→,left,←,0.5300770000321791,False,32,1
KN-M-23M23S2,481,experiment,52,→,right,→,0.6036866999929771,True,32,1
KN-M-23M23S2,482,training,94,↓,down,↓,0.6988876999821514,True,31,1
KN-M-23M23S2,483,training,100,←,left,←,0.6139912999933586,True,31,1
KN-M-23M23S2,484,experiment,88,←,left,←,0.49670800007879734,True,31,1
KN-M-23M23S2,485,experiment,103,↑,up,↑,0.5229092000517994,True,31,1
KN-M-23M23S2,486,experiment,86,←,left,←,0.44263139995746315,True,31,1
KN-M-23M23S2,487,experiment,77,←,right,→,0.5675117999780923,False,31,1
KN-M-23M23S2,488,experiment,60,→,right,→,0.8852583999978378,True,31,1
KN-M-23M23S2,489,experiment,66,↑,up,↑,0.5326572000049055,True,31,1
KN-M-23M23S2,490,experiment,90,←,left,←,0.6338226000079885,True,31,1
KN-M-23M23S2,491,experiment,81,→,right,→,0.43859450006857514,True,31,1
KN-M-23M23S2,492,experiment,80,←,left,←,0.6343628999311477,True,31,1
KN-M-23M23S2,493,experiment,67,→,right,→,0.6752733000321314,True,31,1
KN-M-23M23S2,494,experiment,73,↑,up,↑,0.6007620000746101,True,31,1
KN-M-23M23S2,495,experiment,84,→,left,←,0.7014367000665516,False,31,1
KN-M-23M23S2,496,experiment,85,←,left,←,0.645601199939847,True,31,1
KN-M-23M23S2,497,experiment,76,→,right,→,0.8588437000289559,True,31,1
KN-M-23M23S2,498,experiment,107,←,left,←,0.765728099970147,True,31,1
KN-M-23M23S2,499,experiment,69,→,right,→,0.6567370999837294,True,31,1
KN-M-23M23S2,500,experiment,63,→,right,→,0.6578830000944436,True,31,1
KN-M-23M23S2,501,experiment,57,←,left,←,0.6851851999526843,True,31,1
KN-M-23M23S2,502,experiment,91,↓,down,↓,0.7000890999333933,True,31,1
KN-M-23M23S2,503,experiment,54,↓,down,↓,0.7190203000791371,True,31,1
KN-M-23M23S2,504,experiment,59,↑,up,↑,0.6869674000190571,True,31,1
KN-M-23M23S2,505,experiment,97,→,right,→,0.4677607000339776,True,31,1
KN-M-23M23S2,506,experiment,92,←,left,←,0.683042100048624,True,31,1
KN-M-23M23S2,507,experiment,71,→,right,→,0.5926020999904722,True,31,1
KN-M-23M23S2,508,experiment,96,←,left,←,0.5216727999504656,True,31,1
KN-M-23M23S2,509,experiment,72,→,right,→,0.5653796000406146,True,31,1
KN-M-23M23S2,510,experiment,55,→,right,→,0.5808511000359431,True,31,1
KN-M-23M23S2,511,experiment,87,↑,up,↑,0.5530937999719754,True,31,1
KN-M-23M23S2,512,experiment,61,↓,down,↓,0.6235583999659866,True,31,1
KN-M-23M23S2,513,experiment,102,↑,up,↑,0.49336680001579225,True,31,1
KN-M-23M23S2,514,experiment,89,→,right,→,0.49232870002742857,True,31,1
KN-M-23M23S2,515,experiment,65,→,right,→,0.5477552999509498,True,31,1
KN-M-23M23S2,516,experiment,82,→,right,→,0.6109772999770939,True,31,1
KN-M-23M23S2,517,experiment,100,→,right,→,0.5459995999699458,True,31,1
KN-M-23M23S2,518,experiment,83,↓,down,↓,0.6969911999767646,True,31,1
KN-M-23M23S2,519,experiment,48,←,left,←,0.5813580000540242,True,31,1
KN-M-23M23S2,520,experiment,68,↓,down,↓,0.5198884999845177,True,31,1
KN-M-23M23S2,521,experiment,75,←,left,←,0.4746554000303149,True,31,1
KN-M-23M23S2,522,experiment,53,↓,down,↓,0.47877260006498545,True,31,1
KN-M-23M23S2,523,experiment,58,↓,down,↓,0.5689192999852821,True,31,1
KN-M-23M23S2,524,experiment,99,↓,down,↓,0.4739286999683827,True,31,1
KN-M-23M23S2,525,experiment,70,→,right,→,0.5921606000047177,True,31,1
KN-M-23M23S2,526,experiment,74,←,left,←,0.5363852999871597,True,31,1
KN-M-23M23S2,527,experiment,105,↑,up,↑,0.5367262000218034,True,31,1
KN-M-23M23S2,528,experiment,95,←,left,←,0.5563890000339597,True,31,1
KN-M-23M23S2,529,experiment,104,→,right,→,0.4921180000528693,True,31,1
KN-M-23M23S2,530,experiment,101,←,left,←,0.47137539996765554,True,31,1
KN-M-23M23S2,531,experiment,94,→,right,→,0.43065760005265474,True,31,1
KN-M-23M23S2,532,experiment,49,→,right,→,0.4370741000166163,True,31,0
KN-M-23M23S2,533,experiment,93,←,right,→,0.3503375999862328,False,31,1
KN-M-23M23S2,534,experiment,51,↑,up,↑,0.5497869999380782,True,31,0
KN-M-23M23S2,535,experiment,79,→,right,→,0.5500548999989405,True,31,1
KN-M-23M23S2,536,experiment,50,→,left,←,0.8478443999774754,False,31,1
KN-M-23M23S2,537,experiment,78,↑,up,↑,0.49245000001974404,True,31,1
KN-M-23M23S2,538,experiment,108,→,right,→,0.5173596000531688,True,31,1
KN-M-23M23S2,539,experiment,62,→,right,→,0.5809230000013486,True,31,1
KN-M-23M23S2,540,experiment,56,↑,up,↑,0.4913064999273047,True,31,1
KN-M-23M23S2,541,experiment,64,→,right,→,0.48296170006506145,True,31,1
KN-M-23M23S2,542,experiment,98,↑,up,↑,0.487383299972862,True,31,1
KN-M-23M23S2,543,experiment,106,↓,up,↑,0.6011019999859855,False,31,1
KN-M-23M23S2,544,experiment,52,←,left,←,0.45663949998561293,True,31,1
KN-M-23M23S2,545,training,80,↓,down,↓,0.46962889994028956,True,30,0
KN-M-23M23S2,546,training,108,↓,down,↓,0.495586899924092,True,30,1
KN-M-23M23S2,547,experiment,77,←,left,←,0.46673789992928505,True,30,1
KN-M-23M23S2,548,experiment,51,↓,down,↓,0.48737320001237094,True,30,1
KN-M-23M23S2,549,experiment,74,→,right,→,0.48349739995319396,True,30,1
KN-M-23M23S2,550,experiment,52,↓,down,↓,0.43964100000448525,True,30,1
KN-M-23M23S2,551,experiment,59,↑,up,↑,0.6026047000195831,True,30,1
KN-M-23M23S2,552,experiment,68,↑,up,↑,0.676522699999623,True,30,1
KN-M-23M23S2,553,experiment,85,↓,down,↓,0.6378386999713257,True,30,1
KN-M-23M23S2,554,experiment,104,↑,up,↑,0.5464320000028238,True,30,1
KN-M-23M23S2,555,experiment,58,←,left,←,0.4894264000467956,True,30,1
KN-M-23M23S2,556,experiment,53,←,left,←,0.6286783999530599,True,30,1
KN-M-23M23S2,557,experiment,87,↓,down,↓,0.5829864999977872,True,30,1
KN-M-23M23S2,558,experiment,80,↑,up,↑,0.525562800001353,True,30,1
KN-M-23M23S2,559,experiment,62,↓,down,↓,0.4842839000048116,True,30,1
KN-M-23M23S2,560,experiment,89,↑,up,↑,0.5321685000089929,True,30,1
KN-M-23M23S2,561,experiment,86,←,left,←,0.6426276999991387,True,30,1
KN-M-23M23S2,562,experiment,75,→,right,→,0.5285650999285281,True,30,1
KN-M-23M23S2,563,experiment,64,→,right,→,0.5190626999828964,True,30,1
KN-M-23M23S2,564,experiment,103,↑,up,↑,0.4967004000209272,True,30,1
KN-M-23M23S2,565,experiment,84,←,left,←,0.40054719999898225,True,30,1
KN-M-23M23S2,566,experiment,102,↑,up,↑,0.3756356999510899,True,30,0
KN-M-23M23S2,567,experiment,54,→,right,→,0.5105647000018507,True,30,0
KN-M-23M23S2,568,experiment,79,↑,up,↑,1.4406443999614567,True,30,1
KN-M-23M23S2,569,experiment,78,→,right,→,0.5098262999672443,True,30,1
KN-M-23M23S2,570,experiment,63,↑,up,↑,0.4849693999858573,True,30,1
KN-M-23M23S2,571,experiment,108,↑,up,↑,0.638544199988246,True,30,1
KN-M-23M23S2,572,experiment,73,↑,up,↑,0.45308829995337874,True,30,1
KN-M-23M23S2,573,experiment,90,↑,up,↑,0.9494357999647036,True,30,1
KN-M-23M23S2,574,experiment,106,↓,down,↓,0.613045800011605,True,30,1
KN-M-23M23S2,575,experiment,67,↓,down,↓,0.639147000038065,True,30,1
KN-M-23M23S2,576,experiment,56,↑,up,↑,0.4762032999424264,True,30,1
KN-M-23M23S2,577,experiment,101,↑,up,↑,0.5589075000025332,True,30,1
KN-M-23M23S2,578,experiment,48,→,right,→,0.5373612000839785,True,30,1
KN-M-23M23S2,579,experiment,100,↑,up,↑,0.45909410004969686,True,30,1
KN-M-23M23S2,580,experiment,50,↑,up,↑,0.42506169993430376,True,30,1
KN-M-23M23S2,581,experiment,70,→,right,→,0.4564924999140203,True,30,1
KN-M-23M23S2,582,experiment,98,←,left,←,0.5105214000213891,True,30,1
KN-M-23M23S2,583,experiment,95,↑,up,↑,0.45862189994659275,True,30,1
KN-M-23M23S2,584,experiment,94,→,right,→,0.521743300021626,True,30,1
KN-M-23M23S2,585,experiment,61,↓,down,↓,0.5691008999710903,True,30,1
KN-M-23M23S2,586,experiment,96,↓,down,↓,0.5788160000229254,True,30,1
KN-M-23M23S2,587,experiment,82,→,right,→,0.5287818999495357,True,30,1
KN-M-23M23S2,588,experiment,49,↓,down,↓,0.5638740999856964,True,30,1
KN-M-23M23S2,589,experiment,99,←,left,←,0.468834700062871,True,30,1
KN-M-23M23S2,590,experiment,71,→,right,→,0.49916849995497614,True,30,1
KN-M-23M23S2,591,experiment,88,↑,up,↑,0.5621773999882862,True,30,1
KN-M-23M23S2,592,experiment,91,↓,down,↓,1.117790799937211,True,30,1
KN-M-23M23S2,593,experiment,81,↓,down,↓,0.6467827000888065,True,30,1
KN-M-23M23S2,594,experiment,66,←,left,←,0.5517828000010923,True,30,1
KN-M-23M23S2,595,experiment,57,→,right,→,0.4474639999680221,True,30,1
KN-M-23M23S2,596,experiment,97,→,right,→,0.5012106000212952,True,30,1
KN-M-23M23S2,597,experiment,105,↑,up,↑,0.49510400008875877,True,30,1
KN-M-23M23S2,598,experiment,55,→,right,→,0.6735617000376806,True,30,1
KN-M-23M23S2,599,experiment,69,→,right,→,0.5121634999522939,True,30,1
KN-M-23M23S2,600,experiment,83,↓,down,↓,0.48081209999509156,True,30,1
KN-M-23M23S2,601,experiment,93,→,left,←,0.6868299000198022,False,30,1
KN-M-23M23S2,602,experiment,107,←,left,←,0.5762407999718562,True,30,1
KN-M-23M23S2,603,experiment,72,↑,up,↑,0.48190409992821515,True,30,1
KN-M-23M23S2,604,experiment,65,←,left,←,0.5855281000258401,True,30,1
KN-M-23M23S2,605,experiment,76,←,left,←,0.5775482000317425,True,30,1
KN-M-23M23S2,606,experiment,92,→,right,→,0.692310499958694,True,30,1
KN-M-23M23S2,607,experiment,60,←,left,←,0.6611753000179306,True,30,1
KN-M-23M23S2,608,training,57,↓,down,↓,0.664097800035961,True,29,0
KN-M-23M23S2,609,training,69,←,left,←,0.646931599942036,True,29,1
KN-M-23M23S2,610,experiment,59,↓,down,↓,0.44221999996807426,True,29,1
KN-M-23M23S2,611,experiment,81,↑,up,↑,0.6217415999853984,True,29,1
KN-M-23M23S2,612,experiment,74,←,left,←,0.6287069000536576,True,29,1
KN-M-23M23S2,613,experiment,53,→,right,→,0.42660270002670586,True,29,1
KN-M-23M23S2,614,experiment,76,↓,down,↓,0.4960575000150129,True,29,1
KN-M-23M23S2,615,experiment,89,→,right,→,0.5351319999899715,True,29,1
KN-M-23M23S2,616,experiment,87,↓,down,↓,0.5733753999229521,True,29,1
KN-M-23M23S2,617,experiment,107,↑,up,↑,0.5634892999660224,True,29,1
KN-M-23M23S2,618,experiment,90,→,right,→,0.487640600069426,True,29,1
KN-M-23M23S2,619,experiment,104,↑,up,↑,0.5939426999539137,True,29,1
KN-M-23M23S2,620,experiment,49,↑,up,↑,0.538361500017345,True,29,1
KN-M-23M23S2,621,experiment,108,↓,down,↓,0.5532970998901874,True,29,1
KN-M-23M23S2,622,experiment,68,↓,down,↓,0.501258899923414,True,29,1
KN-M-23M23S2,623,experiment,55,→,right,→,0.4794355999911204,True,29,1
KN-M-23M23S2,624,experiment,63,←,left,←,0.7197629000293091,True,29,1
KN-M-23M23S2,625,experiment,100,↓,down,↓,0.6344131999649107,True,29,1
KN-M-23M23S2,626,experiment,99,→,right,→,1.7933559000957757,True,29,1
KN-M-23M23S2,627,experiment,69,↑,up,↑,0.5950472999829799,True,29,1
KN-M-23M23S2,628,experiment,94,←,left,←,0.7486892000306398,True,29,1
KN-M-23M23S2,629,experiment,78,↓,down,↓,0.6214689998887479,True,29,1
KN-M-23M23S2,630,experiment,103,↑,up,↑,0.44347820000257343,True,29,1
KN-M-23M23S2,631,experiment,51,↓,down,↓,0.8326794999884441,True,29,1
KN-M-23M23S2,632,experiment,85,←,left,←,0.4677010999293998,True,29,1
KN-M-23M23S2,633,experiment,95,→,right,→,0.4263806000817567,True,29,1
KN-M-23M23S2,634,experiment,61,←,left,←,0.517028099973686,True,29,1
KN-M-23M23S2,635,experiment,66,→,right,→,0.5307043000357226,True,29,1
KN-M-23M23S2,636,experiment,65,↓,down,↓,0.5765138999558985,True,29,1
KN-M-23M23S2,637,experiment,75,↓,down,↓,0.5370811000466347,True,29,1
KN-M-23M23S2,638,experiment,93,→,right,→,0.4611524000065401,True,29,1
KN-M-23M23S2,639,experiment,105,→,right,→,0.41707600001245737,True,29,1
KN-M-23M23S2,640,experiment,62,→,right,→,0.4439098999137059,True,29,1
KN-M-23M23S2,641,experiment,83,↑,up,↑,0.5348775000311434,True,29,1
KN-M-23M23S2,642,experiment,60,↑,up,↑,0.4383011000463739,True,29,1
KN-M-23M23S2,643,experiment,77,↓,down,↓,0.5875466000288725,True,29,1
KN-M-23M23S2,644,experiment,101,←,left,←,0.5307419000891969,True,29,1
KN-M-23M23S2,645,experiment,71,→,right,→,0.558501899940893,True,29,1
KN-M-23M23S2,646,experiment,64,→,right,→,0.333962699980475,True,29,1
KN-M-23M23S2,647,experiment,56,←,left,←,0.5073751000454649,True,29,0
KN-M-23M23S2,648,experiment,50,←,left,←,0.5671101999469101,True,29,1
KN-M-23M23S2,649,experiment,58,↑,up,↑,0.45342389994766563,True,29,1
KN-M-23M23S2,650,experiment,79,↑,up,↑,0.441769199911505,True,29,1
KN-M-23M23S2,651,experiment,72,←,left,←,0.38379810005426407,True,29,1
KN-M-23M23S2,652,experiment,57,↑,up,↑,1.1262187000829726,True,29,0
KN-M-23M23S2,653,experiment,97,↓,down,↓,0.594101499998942,True,29,1
KN-M-23M23S2,654,experiment,80,↑,up,↑,0.6160645000636578,True,29,1
KN-M-23M23S2,655,experiment,48,←,left,←,0.4320851999800652,True,29,1
KN-M-23M23S2,656,experiment,102,↓,down,↓,0.4773724999977276,True,29,1
KN-M-23M23S2,657,experiment,73,←,right,→,0.786640000063926,False,29,1
KN-M-23M23S2,658,experiment,54,↑,up,↑,0.4979227000148967,True,29,1
KN-M-23M23S2,659,experiment,96,↓,down,↓,0.6945039000129327,True,29,1
KN-M-23M23S2,660,experiment,86,↓,down,↓,0.4948770999908447,True,29,1
KN-M-23M23S2,661,experiment,84,←,left,←,0.4880499999271706,True,29,1
KN-M-23M23S2,662,experiment,92,←,left,←,0.5025746000465006,True,29,1
KN-M-23M23S2,663,experiment,67,→,right,→,0.46068349992856383,True,29,1
KN-M-23M23S2,664,experiment,98,↑,up,↑,0.6024728999473155,True,29,1
KN-M-23M23S2,665,experiment,70,↓,down,↓,0.4995334999402985,True,29,1
KN-M-23M23S2,666,experiment,106,←,left,←,0.581032499903813,True,29,1
KN-M-23M23S2,667,experiment,52,↓,down,↓,0.5087947000283748,True,29,1
KN-M-23M23S2,668,experiment,88,←,left,←,0.4359134000260383,True,29,1
KN-M-23M23S2,669,experiment,91,↓,left,←,0.4210116999456659,False,29,1
KN-M-23M23S2,670,experiment,82,←,left,←,0.4889523999299854,True,29,1
KN-M-23M23S2,671,training,67,↑,up,↑,0.6199288000352681,True,28,0
KN-M-23M23S2,672,training,73,→,right,→,0.6115005000028759,True,28,1
KN-M-23M23S2,673,experiment,101,↓,down,↓,0.5543192999903113,True,28,1
KN-M-23M23S2,674,experiment,57,←,left,←,0.5296426999848336,True,28,1
KN-M-23M23S2,675,experiment,60,←,left,←,0.46521679998841137,True,28,1
KN-M-23M23S2,676,experiment,103,→,right,→,0.4766321999486536,True,28,1
KN-M-23M23S2,677,experiment,93,←,left,←,0.5792457000352442,True,28,1
KN-M-23M23S2,678,experiment,82,←,left,←,0.49761999992188066,True,28,1
KN-M-23M23S2,679,experiment,52,↓,down,↓,0.5170878000790253,True,28,1
KN-M-23M23S2,680,experiment,53,↓,down,↓,0.45490780007094145,True,28,1
KN-M-23M23S2,681,experiment,73,↑,up,↑,0.509465100010857,True,28,1
KN-M-23M23S2,682,experiment,79,→,left,←,0.4388697000686079,False,28,1
KN-M-23M23S2,683,experiment,70,↓,down,↓,0.4785208000103012,True,28,1
KN-M-23M23S2,684,experiment,63,←,left,←,0.5268619999988005,True,28,1
KN-M-23M23S2,685,experiment,102,←,left,←,0.5846410000231117,True,28,1
KN-M-23M23S2,686,experiment,87,↓,down,↓,0.5647928999969736,True,28,1
KN-M-23M23S2,687,experiment,78,←,left,←,0.48475890001282096,True,28,1
KN-M-23M23S2,688,experiment,96,↑,up,↑,0.5461541999829933,True,28,1
KN-M-23M23S2,689,experiment,61,↑,up,↑,0.5285489000380039,True,28,1
KN-M-23M23S2,690,experiment,92,→,right,→,0.4857394000282511,True,28,1
KN-M-23M23S2,691,experiment,65,←,left,←,0.5331233000615612,True,28,1
KN-M-23M23S2,692,experiment,98,→,right,→,0.5439722000155598,True,28,1
KN-M-23M23S2,693,experiment,104,→,right,→,0.5681623000418767,True,28,1
KN-M-23M23S2,694,experiment,75,↓,down,↓,0.569047800032422,True,28,1
KN-M-23M23S2,695,experiment,58,←,left,←,0.48763640003744513,True,28,1
KN-M-23M23S2,696,experiment,80,↓,down,↓,0.5779174999333918,True,28,1
KN-M-23M23S2,697,experiment,56,→,right,→,0.6250340000260621,True,28,1
KN-M-23M23S2,698,experiment,76,↓,down,↓,0.5909595999401063,True,28,1
KN-M-23M23S2,699,experiment,108,←,left,←,0.4682423999765888,True,28,1
KN-M-23M23S2,700,experiment,64,→,right,→,0.5566281999927014,True,28,1
KN-M-23M23S2,701,experiment,97,↑,up,↑,0.6228248999686912,True,28,1
KN-M-23M23S2,702,experiment,100,↓,up,↑,0.8209959999658167,False,28,1
KN-M-23M23S2,703,experiment,66,←,left,←,0.7348496000049636,True,28,1
KN-M-23M23S2,704,experiment,85,→,right,→,0.4616814999608323,True,28,1
KN-M-23M23S2,705,experiment,71,↓,down,↓,0.5401621999917552,True,28,1
KN-M-23M23S2,706,experiment,62,→,right,→,0.5381672000512481,True,28,1
KN-M-23M23S2,707,experiment,95,↓,down,↓,0.5014826999977231,True,28,1
KN-M-23M23S2,708,experiment,74,↓,down,↓,0.4731861000182107,True,28,1
KN-M-23M23S2,709,experiment,83,→,right,→,0.45136250008363277,True,28,1
KN-M-23M23S2,710,experiment,88,←,right,→,0.4688489999389276,False,28,1
KN-M-23M23S2,711,experiment,67,↑,up,↑,0.5482298000715673,True,28,1
KN-M-23M23S2,712,experiment,69,→,right,→,0.6155099000316113,True,28,1
KN-M-23M23S2,713,experiment,72,→,right,→,0.40854590001981705,True,28,1
KN-M-23M23S2,714,experiment,77,→,right,→,0.36634059995412827,True,28,1
KN-M-23M23S2,715,experiment,55,↓,down,↓,0.4858532000798732,True,28,0
KN-M-23M23S2,716,experiment,89,←,left,←,0.5809017999563366,True,28,1
KN-M-23M23S2,717,experiment,68,↓,up,↑,1.287535300012678,False,28,1
KN-M-23M23S2,718,experiment,48,↑,up,↑,0.5008587000193074,True,28,1
KN-M-23M23S2,719,experiment,49,↑,up,↑,0.46493180003017187,True,28,1
KN-M-23M23S2,720,experiment,81,←,left,←,0.49981549999210984,True,28,1
KN-M-23M23S2,721,experiment,51,↑,up,↑,0.4952399000758305,True,28,1
KN-M-23M23S2,722,experiment,86,←,left,←,0.4877149999374524,True,28,1
KN-M-23M23S2,723,experiment,54,↑,left,←,0.8346081000054255,False,28,1
KN-M-23M23S2,724,experiment,106,↑,up,↑,0.6066030999645591,True,28,1
KN-M-23M23S2,725,experiment,90,↓,down,↓,0.7210345999337733,True,28,1
KN-M-23M23S2,726,experiment,50,↑,up,↑,0.5476036999607459,True,28,1
KN-M-23M23S2,727,experiment,91,←,left,←,0.544070899952203,True,28,1
KN-M-23M23S2,728,experiment,105,←,left,←,0.4881505999946967,True,28,1
KN-M-23M23S2,729,experiment,84,←,left,←,0.5290305999806151,True,28,1
KN-M-23M23S2,730,experiment,94,←,left,←,0.4536155000096187,True,28,1
KN-M-23M23S2,731,experiment,99,→,left,←,0.41939719999209046,False,28,1
KN-M-23M23S2,732,experiment,107,→,right,→,0.40789130004122853,True,28,1
KN-M-23M23S2,733,experiment,59,↑,up,↑,0.4757764999521896,True,28,1
KN-M-23M23S2,734,training,94,→,right,→,0.44913929991889745,True,28,0
KN-M-23M23S2,735,training,83,↑,up,↑,0.4126654000720009,True,28,1
KN-M-23M23S2,736,experiment,99,↓,up,↑,0.5149909000610933,False,28,1
KN-M-23M23S2,737,experiment,67,←,left,←,0.5767973000183702,True,28,1
KN-M-23M23S2,738,experiment,97,←,left,←,0.458135399967432,True,28,1
KN-M-23M23S2,739,experiment,81,↓,down,↓,0.4854539999505505,True,28,1
KN-M-23M23S2,740,experiment,79,↓,down,↓,0.4724102000473067,True,28,1
KN-M-23M23S2,741,experiment,93,↑,up,↑,0.6547744000563398,True,28,1
KN-M-23M23S2,742,experiment,60,→,right,→,0.5130142000271007,True,28,1
KN-M-23M23S2,743,experiment,89,→,right,→,0.6078085999470204,True,28,1
KN-M-23M23S2,744,experiment,72,↑,up,↑,0.5358173000859097,True,28,1
KN-M-23M23S2,745,experiment,82,→,right,→,0.447573299985379,True,28,1
KN-M-23M23S2,746,experiment,104,↑,up,↑,0.5235161000164226,True,28,1
KN-M-23M23S2,747,experiment,71,↑,up,↑,0.46349970006849617,True,28,1
KN-M-23M23S2,748,experiment,101,→,right,→,0.4439107000362128,True,28,1
KN-M-23M23S2,749,experiment,83,→,right,→,0.3758484999416396,True,28,1
KN-M-23M23S2,750,experiment,61,↑,up,↑,0.539812900009565,True,28,0
KN-M-23M23S2,751,experiment,105,←,right,→,0.5878693999256939,False,28,1
KN-M-23M23S2,752,experiment,90,→,right,→,0.3515993000473827,True,28,1
KN-M-23M23S2,753,experiment,108,↓,down,↓,0.6050947000039741,True,28,0
KN-M-23M23S2,754,experiment,59,←,left,←,0.5375284000765532,True,28,1
KN-M-23M23S2,755,experiment,56,↓,down,↓,0.569631400052458,True,28,1
KN-M-23M23S2,756,experiment,53,←,left,←,0.5776021999772638,True,28,1
KN-M-23M23S2,757,experiment,106,↓,down,↓,0.4801442000316456,True,28,1
KN-M-23M23S2,758,experiment,86,↓,down,↓,0.4489643999841064,True,28,1
KN-M-23M23S2,759,experiment,66,←,right,→,0.47321199998259544,False,28,1
KN-M-23M23S2,760,experiment,85,↑,up,↑,0.5943513000383973,True,28,1
KN-M-23M23S2,761,experiment,65,→,right,→,0.45376259996555746,True,28,1
KN-M-23M23S2,762,experiment,54,→,right,→,0.45841780002228916,True,28,1
KN-M-23M23S2,763,experiment,69,↑,up,↑,0.5855363999726251,True,28,1
KN-M-23M23S2,764,experiment,88,↑,up,↑,0.49377499998081475,True,28,1
KN-M-23M23S2,765,experiment,68,←,left,←,0.8918178000021726,True,28,1
KN-M-23M23S2,766,experiment,48,←,left,←,0.472654499928467,True,28,1
KN-M-23M23S2,767,experiment,55,←,left,←,0.6279212000081316,True,28,1
KN-M-23M23S2,768,experiment,76,↓,down,↓,0.6662238000426441,True,28,1
KN-M-23M23S2,769,experiment,74,↓,up,↑,0.6555182000156492,False,28,1
KN-M-23M23S2,770,experiment,77,↑,up,↑,0.9402959999861196,True,28,1
KN-M-23M23S2,771,experiment,94,↑,up,↑,0.6000959000084549,True,28,1
KN-M-23M23S2,772,experiment,52,←,right,→,0.7033727000234649,False,28,1
KN-M-23M23S2,773,experiment,63,↓,down,↓,0.6389574999921024,True,28,1
KN-M-23M23S2,774,experiment,73,←,left,←,0.5175133000593632,True,28,1
KN-M-23M23S2,775,experiment,102,↑,up,↑,0.6071706999791786,True,28,1
KN-M-23M23S2,776,experiment,50,→,right,→,0.8307345999637619,True,28,1
KN-M-23M23S2,777,experiment,58,←,left,←,0.6110188000602648,True,28,1
KN-M-23M23S2,778,experiment,62,↓,down,↓,0.5825126999989152,True,28,1
KN-M-23M23S2,779,experiment,95,↓,down,↓,0.48834039992652833,True,28,1
KN-M-23M23S2,780,experiment,64,↑,down,↓,0.7436344999587163,False,28,1
KN-M-23M23S2,781,experiment,98,←,left,←,0.47415499994531274,True,28,1
KN-M-23M23S2,782,experiment,92,←,left,←,0.5770094000035897,True,28,1
KN-M-23M23S2,783,experiment,91,↑,up,↑,0.612381900078617,True,28,1
KN-M-23M23S2,784,experiment,80,←,left,←,0.49788170005194843,True,28,1
KN-M-23M23S2,785,experiment,70,↑,up,↑,0.6149310999317095,True,28,1
KN-M-23M23S2,786,experiment,78,→,right,→,1.0449774999869987,True,28,1
KN-M-23M23S2,787,experiment,100,↓,down,↓,0.6108294998994097,True,28,1
KN-M-23M23S2,788,experiment,57,→,right,→,0.6961282000411302,True,28,1
KN-M-23M23S2,789,experiment,87,←,left,←,0.4160721000516787,True,28,1
KN-M-23M23S2,790,experiment,103,↓,down,↓,0.49328269995748997,True,28,1
KN-M-23M23S2,791,experiment,96,←,left,←,0.5380359999835491,True,28,1
KN-M-23M23S2,792,experiment,107,→,right,→,0.5375624999869615,True,28,1
KN-M-23M23S2,793,experiment,84,←,left,←,0.5525436999741942,True,28,1
KN-M-23M23S2,794,experiment,51,↓,down,↓,0.450101500027813,True,28,1
KN-M-23M23S2,795,experiment,49,↑,up,↑,0.504128500004299,True,28,1
KN-M-23M23S2,796,experiment,75,↓,down,↓,0.5475207000272349,True,28,1
KN-M-23M23S2,797,training,90,→,left,←,0.6324617000063881,False,28,0
KN-M-23M23S2,798,training,84,←,no_key,no_letter,-1.0,False,28,1
KN-M-23M23S2,799,experiment,76,↓,down,↓,0.8076377999968827,True,28,1
KN-M-23M23S2,800,experiment,92,→,left,←,0.6011508000083268,False,28,1
KN-M-23M23S2,801,experiment,94,→,right,→,0.4345679000252858,True,28,1
KN-M-23M23S2,802,experiment,52,→,right,→,1.3364507000660524,True,28,1
KN-M-23M23S2,803,experiment,59,←,left,←,0.4164216999197379,True,28,1
KN-M-23M23S2,804,experiment,87,↓,down,↓,0.6192186999833211,True,28,1
KN-M-23M23S2,805,experiment,100,↑,up,↑,0.46583110000938177,True,28,1
KN-M-23M23S2,806,experiment,67,←,left,←,0.9052860999945551,True,28,1
KN-M-23M23S2,807,experiment,81,←,left,←,0.4829215999925509,True,28,1
KN-M-23M23S2,808,experiment,106,→,right,→,0.6691758000524715,True,28,1
KN-M-23M23S2,809,experiment,57,←,right,→,0.983777099987492,False,28,1
KN-M-23M23S2,810,experiment,55,↑,right,→,0.7186774000292644,False,28,1
KN-M-23M23S2,811,experiment,105,←,left,←,0.4082184999715537,True,28,1
KN-M-23M23S2,812,experiment,65,←,left,←,0.8104296000674367,True,28,1
KN-M-23M23S2,813,experiment,79,↓,down,↓,0.7763180999318138,True,28,1
KN-M-23M23S2,814,experiment,93,↓,down,↓,0.5072355000302196,True,28,1
KN-M-23M23S2,815,experiment,70,↑,down,↓,0.6720864999806508,False,28,1
KN-M-23M23S2,816,experiment,69,↑,down,↓,0.5505137000000104,False,28,1
KN-M-23M23S2,817,experiment,90,↓,down,↓,0.5472963999491185,True,28,1
KN-M-23M23S2,818,experiment,73,↑,up,↑,0.5492497999221087,True,28,1
KN-M-23M23S2,819,experiment,104,→,right,→,0.7894433999899775,True,28,1
KN-M-23M23S2,820,experiment,108,←,left,←,0.5945749999955297,True,28,1
KN-M-23M23S2,821,experiment,82,←,left,←,0.5521486999932677,True,28,1
KN-M-23M23S2,822,experiment,77,→,right,→,0.521292999968864,True,28,1
KN-M-23M23S2,823,experiment,80,↑,up,↑,0.6180012999102473,True,28,1
KN-M-23M23S2,824,experiment,62,→,right,→,0.5096960000228137,True,28,1
KN-M-23M23S2,825,experiment,54,↓,down,↓,0.8472388000227511,True,28,1
KN-M-23M23S2,826,experiment,88,↓,down,↓,0.5049847000045702,True,28,1
KN-M-23M23S2,827,experiment,64,→,right,→,0.4319186999928206,True,28,1
KN-M-23M23S2,828,experiment,96,←,left,←,0.575233899988234,True,28,1
KN-M-23M23S2,829,experiment,53,↑,down,↓,0.5274412999860942,False,28,1
KN-M-23M23S2,830,experiment,58,→,right,→,0.4391115000471473,True,28,1
KN-M-23M23S2,831,experiment,48,↑,up,↑,0.6138033999595791,True,28,1
KN-M-23M23S2,832,experiment,63,←,left,←,0.4249307999853045,True,28,1
KN-M-23M23S2,833,experiment,107,↓,down,↓,0.6210542001063004,True,28,1
KN-M-23M23S2,834,experiment,56,↑,up,↑,0.6018031999701634,True,28,1
KN-M-23M23S2,835,experiment,85,→,right,→,0.4381559999892488,True,28,1
KN-M-23M23S2,836,experiment,89,←,left,←,0.5911532999016345,True,28,1
KN-M-23M23S2,837,experiment,102,←,left,←,0.48644460004288703,True,28,1
KN-M-23M23S2,838,experiment,86,↓,down,↓,0.6629201000323519,True,28,1
KN-M-23M23S2,839,experiment,97,→,right,→,0.5566588999936357,True,28,1
KN-M-23M23S2,840,experiment,95,←,left,←,0.45515179994981736,True,28,1
KN-M-23M23S2,841,experiment,61,←,left,←,0.6493350000819191,True,28,1
KN-M-23M23S2,842,experiment,75,↓,down,↓,0.6468531000427902,True,28,1
KN-M-23M23S2,843,experiment,101,↑,up,↑,0.5157766999909654,True,28,1
KN-M-23M23S2,844,experiment,71,←,left,←,0.6721170000964776,True,28,1
KN-M-23M23S2,845,experiment,72,→,right,→,0.5978359000291675,True,28,1
KN-M-23M23S2,846,experiment,74,↑,up,↑,0.5737161999568343,True,28,1
KN-M-23M23S2,847,experiment,68,→,right,→,0.4565591999562457,True,28,1
KN-M-23M23S2,848,experiment,84,←,left,←,0.5787892999360338,True,28,1
KN-M-23M23S2,849,experiment,51,←,no_key,no_letter,-1.0,False,28,1
KN-M-23M23S2,850,experiment,49,↑,up,↑,0.5202088999794796,True,28,1
KN-M-23M23S2,851,experiment,91,→,right,→,0.5494118999922648,True,28,1
KN-M-23M23S2,852,experiment,78,←,left,←,0.542129100067541,True,28,1
KN-M-23M23S2,853,experiment,83,→,right,→,0.4374222999904305,True,28,1
KN-M-23M23S2,854,experiment,66,↓,down,↓,0.7500942000187933,True,28,1
KN-M-23M23S2,855,experiment,98,↓,down,↓,0.5362885999493301,True,28,1
KN-M-23M23S2,856,experiment,99,↓,up,↑,0.6185046000173315,False,28,1
KN-M-23M23S2,857,experiment,60,↓,up,↑,0.6784196000080556,False,28,1
KN-M-23M23S2,858,experiment,103,→,left,←,0.5058210999704897,False,28,1
KN-M-23M23S2,859,experiment,50,↑,up,↑,0.4614720999961719,True,28,1
KN-M-23M23S2,860,training,75,↑,up,↑,0.5708572999574244,True,28,0
KN-M-23M23S2,861,training,58,↑,up,↑,0.5293119000270963,True,28,1
KN-M-23M23S2,862,experiment,64,→,right,→,0.47917469998355955,True,28,1
KN-M-23M23S2,863,experiment,71,←,left,←,0.5326889000134543,True,28,1
KN-M-23M23S2,864,experiment,92,→,right,→,0.4099886999465525,True,28,1
KN-M-23M23S2,865,experiment,68,↓,down,↓,0.5227884999476373,True,28,1
KN-M-23M23S2,866,experiment,48,↓,down,↓,0.5740379999624565,True,28,1
KN-M-23M23S2,867,experiment,63,↑,up,↑,0.674714699969627,True,28,1
KN-M-23M23S2,868,experiment,80,→,right,→,0.7415641999104992,True,28,1
KN-M-23M23S2,869,experiment,50,←,left,←,0.6958816000260413,True,28,1
KN-M-23M23S2,870,experiment,95,←,left,←,0.677289400016889,True,28,1
KN-M-23M23S2,871,experiment,59,↑,up,↑,0.6394056999124587,True,28,1
KN-M-23M23S2,872,experiment,108,↑,up,↑,0.650281900074333,True,28,1
KN-M-23M23S2,873,experiment,77,↓,down,↓,0.6073976999614388,True,28,1
KN-M-23M23S2,874,experiment,97,←,left,←,0.4314252999611199,True,28,1
KN-M-23M23S2,875,experiment,82,←,left,←,0.5151153999613598,True,28,1
KN-M-23M23S2,876,experiment,67,↓,down,↓,0.5208807999733835,True,28,1
KN-M-23M23S2,877,experiment,51,↓,down,↓,0.4915781000163406,True,28,1
KN-M-23M23S2,878,experiment,56,←,left,←,0.48639440000988543,True,28,1
KN-M-23M23S2,879,experiment,88,↓,down,↓,0.5657753000268713,True,28,1
KN-M-23M23S2,880,experiment,84,↓,down,↓,0.5314288000809029,True,28,1
KN-M-23M23S2,881,experiment,85,←,left,←,0.45062800007872283,True,28,1
KN-M-23M23S2,882,experiment,66,↓,down,↓,0.6671480999793857,True,28,1
KN-M-23M23S2,883,experiment,60,←,left,←,0.548885399941355,True,28,1
KN-M-23M23S2,884,experiment,52,→,right,→,0.6222889999626204,True,28,1
KN-M-23M23S2,885,experiment,87,↓,down,↓,0.7776233999757096,True,28,1
KN-M-23M23S2,886,experiment,54,↓,down,↓,0.7607419999549165,True,28,1
KN-M-23M23S2,887,experiment,57,←,left,←,0.4005999999353662,True,28,1
KN-M-23M23S2,888,experiment,73,↓,down,↓,0.551748700090684,True,28,0
KN-M-23M23S2,889,experiment,72,→,right,→,0.6582608999451622,True,28,1
KN-M-23M23S2,890,experiment,79,↓,down,↓,0.6544486000202596,True,28,1
KN-M-23M23S2,891,experiment,58,↓,down,↓,0.489536700071767,True,28,1
KN-M-23M23S2,892,experiment,94,↑,right,→,0.8554033999098465,False,28,1
KN-M-23M23S2,893,experiment,65,↓,down,↓,0.5999834999674931,True,28,1
KN-M-23M23S2,894,experiment,99,→,right,→,0.7995451000751927,True,28,1
KN-M-23M23S2,895,experiment,89,→,right,→,0.6185054000234231,True,28,1
KN-M-23M23S2,896,experiment,49,↓,down,↓,0.4741730000823736,True,28,1
KN-M-23M23S2,897,experiment,83,←,down,↓,0.5480733000440523,False,28,1
KN-M-23M23S2,898,experiment,100,↑,up,↑,1.1733863000990823,True,28,1
KN-M-23M23S2,899,experiment,104,→,right,→,0.43693989992607385,True,28,1
KN-M-23M23S2,900,experiment,102,↓,down,↓,0.529643899993971,True,28,1
KN-M-23M23S2,901,experiment,75,↑,up,↑,0.5557601999025792,True,28,1
KN-M-23M23S2,902,experiment,106,↑,up,↑,0.6510923000751063,True,28,1
KN-M-23M23S2,903,experiment,107,←,left,←,0.4941049999324605,True,28,1
KN-M-23M23S2,904,experiment,86,↓,down,↓,0.6063909999793395,True,28,1
KN-M-23M23S2,905,experiment,91,→,right,→,0.600237000035122,True,28,1
KN-M-23M23S2,906,experiment,103,→,right,→,0.5424764000345021,True,28,1
KN-M-23M23S2,907,experiment,90,→,right,→,0.6513295999029651,True,28,1
KN-M-23M23S2,908,experiment,105,←,left,←,0.5592803999315947,True,28,1
KN-M-23M23S2,909,experiment,61,↑,up,↑,0.6291101999813691,True,28,1
KN-M-23M23S2,910,experiment,55,→,right,→,0.49799780000466853,True,28,1
KN-M-23M23S2,911,experiment,96,↓,down,↓,0.5507592000067234,True,28,1
KN-M-23M23S2,912,experiment,78,→,left,←,0.43133579997811466,False,28,1
KN-M-23M23S2,913,experiment,69,↓,down,↓,0.5516269999789074,True,28,1
KN-M-23M23S2,914,experiment,93,→,right,→,0.5390841999324039,True,28,1
KN-M-23M23S2,915,experiment,62,→,right,→,0.5774431999307126,True,28,1
KN-M-23M23S2,916,experiment,101,←,left,←,0.561518800095655,True,28,1
KN-M-23M23S2,917,experiment,76,←,left,←,0.642617299919948,True,28,1
KN-M-23M23S2,918,experiment,98,←,left,←,0.5768081999849528,True,28,1
KN-M-23M23S2,919,experiment,74,↓,down,↓,0.5136566000292078,True,28,1
KN-M-23M23S2,920,experiment,81,←,left,←,0.5625762999989092,True,28,1
KN-M-23M23S2,921,experiment,53,→,right,→,0.4507490999531001,True,28,1
KN-M-23M23S2,922,experiment,70,→,right,→,0.5700140000553802,True,28,1
KN-M-23M23S2,923,training,92,→,right,→,0.62211690004915,True,28,0
KN-M-23M23S2,924,training,61,←,left,←,0.465289399959147,True,28,1
KN-M-23M23S2,925,experiment,104,→,left,←,0.580581899965182,False,28,1
KN-M-23M23S2,926,experiment,52,↑,up,↑,0.6043595999944955,True,28,1
KN-M-23M23S2,927,experiment,48,→,right,→,0.4524322999641299,True,28,1
KN-M-23M23S2,928,experiment,87,↑,up,↑,0.4460179000161588,True,28,1
KN-M-23M23S2,929,experiment,82,↓,up,↑,0.4734168000286445,False,28,1
KN-M-23M23S2,930,experiment,86,↓,down,↓,0.970310700009577,True,28,1
KN-M-23M23S2,931,experiment,85,↑,up,↑,0.495814900030382,True,28,1
KN-M-23M23S2,932,experiment,70,←,left,←,0.5570879000006244,True,28,1
KN-M-23M23S2,933,experiment,80,→,right,→,0.5486505000153556,True,28,1
KN-M-23M23S2,934,experiment,92,↓,down,↓,0.5445225000148639,True,28,1
KN-M-23M23S2,935,experiment,55,↓,down,↓,0.5851154000265524,True,28,1
KN-M-23M23S2,936,experiment,77,↑,up,↑,0.5927719000028446,True,28,1
KN-M-23M23S2,937,experiment,97,↓,down,↓,0.4895790999289602,True,28,1
KN-M-23M23S2,938,experiment,69,↓,down,↓,0.6391491999384016,True,28,1
KN-M-23M23S2,939,experiment,62,↑,up,↑,0.5215711999917403,True,28,1
KN-M-23M23S2,940,experiment,71,←,left,←,0.45347599999513477,True,28,1
KN-M-23M23S2,941,experiment,64,↓,down,↓,0.4948959000175819,True,28,1
KN-M-23M23S2,942,experiment,81,→,right,→,0.47218429995700717,True,28,1
KN-M-23M23S2,943,experiment,103,↓,down,↓,0.6115018000127748,True,28,1
KN-M-23M23S2,944,experiment,78,↑,up,↑,0.5777780999196693,True,28,1
KN-M-23M23S2,945,experiment,108,↑,up,↑,0.5276372999651358,True,28,1
KN-M-23M23S2,946,experiment,96,↓,down,↓,0.4912549000000581,True,28,1
KN-M-23M23S2,947,experiment,95,←,left,←,0.47273309994488955,True,28,1
KN-M-23M23S2,948,experiment,49,↑,up,↑,0.5895886999787763,True,28,1
KN-M-23M23S2,949,experiment,101,←,left,←,0.5090017999755219,True,28,1
KN-M-23M23S2,950,experiment,79,↑,up,↑,0.5511147999204695,True,28,1
KN-M-23M23S2,951,experiment,98,↑,up,↑,0.6329853000352159,True,28,1
KN-M-23M23S2,952,experiment,56,↑,up,↑,0.5415264000184834,True,28,1
KN-M-23M23S2,953,experiment,73,↑,up,↑,1.2721394000109285,True,28,1
KN-M-23M23S2,954,experiment,91,←,left,←,0.4082271000370383,True,28,1
KN-M-23M23S2,955,experiment,60,→,right,→,0.5075164999580011,True,28,1
KN-M-23M23S2,956,experiment,105,→,right,→,0.6368483999976888,True,28,1
KN-M-23M23S2,957,experiment,76,←,left,←,0.642862799926661,True,28,1
KN-M-23M23S2,958,experiment,93,↓,left,←,0.674809499992989,False,28,1
KN-M-23M23S2,959,experiment,53,←,left,←,0.6547951999818906,True,28,1
KN-M-23M23S2,960,experiment,66,←,left,←,0.5910687000723556,True,28,1
KN-M-23M23S2,961,experiment,75,↓,down,↓,0.6150810999097303,True,28,1
KN-M-23M23S2,962,experiment,99,→,right,→,0.5821089999517426,True,28,1
KN-M-23M23S2,963,experiment,83,→,right,→,0.611691200057976,True,28,1
KN-M-23M23S2,964,experiment,67,↑,up,↑,0.5816139000235125,True,28,1
KN-M-23M23S2,965,experiment,68,←,left,←,0.44797750003635883,True,28,1
KN-M-23M23S2,966,experiment,65,↓,down,↓,0.49760290002450347,True,28,1
KN-M-23M23S2,967,experiment,59,←,left,←,0.5377477000001818,True,28,1
KN-M-23M23S2,968,experiment,106,↑,up,↑,0.5616151998983696,True,28,1
KN-M-23M23S2,969,experiment,88,←,left,←,0.49466120009310544,True,28,1
KN-M-23M23S2,970,experiment,89,↓,down,↓,0.5818214999744669,True,28,1
KN-M-23M23S2,971,experiment,51,→,right,→,0.5421896999469027,True,28,1
KN-M-23M23S2,972,experiment,61,→,right,→,0.556642199982889,True,28,1
KN-M-23M23S2,973,experiment,54,↓,down,↓,0.4767959000309929,True,28,1
KN-M-23M23S2,974,experiment,74,←,left,←,0.4737515999004245,True,28,1
KN-M-23M23S2,975,experiment,84,↑,up,↑,0.4993318999186158,True,28,1
KN-M-23M23S2,976,experiment,63,↓,down,↓,0.6667708000168204,True,28,1
KN-M-23M23S2,977,experiment,57,↓,down,↓,0.4296647999435663,True,28,1
KN-M-23M23S2,978,experiment,50,↓,down,↓,0.452106999931857,True,28,1
KN-M-23M23S2,979,experiment,94,→,right,→,0.4355780000332743,True,28,1
KN-M-23M23S2,980,experiment,102,→,left,←,0.3835803000256419,False,28,1
KN-M-23M23S2,981,experiment,107,↓,down,↓,0.44615699991118163,True,28,0
KN-M-23M23S2,982,experiment,90,→,right,→,0.44673759990837425,True,28,1
KN-M-23M23S2,983,experiment,58,→,right,→,0.44211589999031276,True,28,1
KN-M-23M23S2,984,experiment,100,↑,up,↑,0.6315118999918923,True,28,1
KN-M-23M23S2,985,experiment,72,↑,up,↑,0.5350066999671981,True,28,1
KN-M-23M23S2,986,training,81,→,right,→,0.4191344999708235,True,28,0
KN-M-23M23S2,987,training,93,↑,up,↑,0.435228000045754,True,28,1
KN-M-23M23S2,988,experiment,68,→,right,→,0.4198019999312237,True,28,1
KN-M-23M23S2,989,experiment,48,↑,up,↑,0.4193178000859916,True,28,1
KN-M-23M23S2,990,experiment,89,←,left,←,0.40558539994526654,True,28,1
KN-M-23M23S2,991,experiment,106,↑,up,↑,0.41076870006509125,True,28,0
KN-M-23M23S2,992,experiment,73,→,right,→,0.4575288000050932,True,28,1
KN-M-23M23S2,993,experiment,102,↑,up,↑,0.4223182999994606,True,28,1
KN-M-23M23S2,994,experiment,82,↑,up,↑,0.5540897999890149,True,28,1
KN-M-23M23S2,995,experiment,100,→,right,→,0.42729809996671975,True,28,1
KN-M-23M23S2,996,experiment,77,→,left,←,0.6329986000200734,False,28,1
KN-M-23M23S2,997,experiment,56,↓,down,↓,0.605541400029324,True,28,1
KN-M-23M23S2,998,experiment,69,→,left,←,0.4470779999392107,False,28,1
KN-M-23M23S2,999,experiment,60,↓,down,↓,0.537372799939476,True,28,1
KN-M-23M23S2,1000,experiment,66,←,left,←,0.4784872999880463,True,28,1
KN-M-23M23S2,1001,experiment,71,←,left,←,0.4521427999716252,True,28,1
KN-M-23M23S2,1002,experiment,85,→,right,→,0.4628973000217229,True,28,1
KN-M-23M23S2,1003,experiment,80,→,right,→,0.4979991000145674,True,28,1
KN-M-23M23S2,1004,experiment,51,↓,down,↓,0.629718599957414,True,28,1
KN-M-23M23S2,1005,experiment,98,↓,down,↓,0.49249620002228767,True,28,1
KN-M-23M23S2,1006,experiment,61,←,left,←,0.5890616000397131,True,28,1
KN-M-23M23S2,1007,experiment,52,↓,down,↓,0.5487473000539467,True,28,1
KN-M-23M23S2,1008,experiment,91,↑,up,↑,0.6170835000229999,True,28,1
KN-M-23M23S2,1009,experiment,90,↓,down,↓,0.5947424999903888,True,28,1
KN-M-23M23S2,1010,experiment,87,←,left,←,0.7268523999955505,True,28,1
KN-M-23M23S2,1011,experiment,67,↓,down,↓,0.5801566999871284,True,28,1
KN-M-23M23S2,1012,experiment,74,↓,down,↓,0.5648046999704093,True,28,1
KN-M-23M23S2,1013,experiment,83,←,left,←,0.531322400085628,True,28,1
KN-M-23M23S2,1014,experiment,70,→,right,→,0.5911406999221072,True,28,1
KN-M-23M23S2,1015,experiment,107,→,right,→,0.7404365999391302,True,28,1
KN-M-23M23S2,1016,experiment,93,↑,up,↑,0.584657600033097,True,28,1
KN-M-23M23S2,1017,experiment,81,←,left,←,0.5906138001009822,True,28,1
KN-M-23M23S2,1018,experiment,76,↑,up,↑,0.4465190999908373,True,28,1
KN-M-23M23S2,1019,experiment,105,←,left,←,0.7620021000038832,True,28,1
KN-M-23M23S2,1020,experiment,94,↓,down,↓,0.4848248000489548,True,28,1
KN-M-23M23S2,1021,experiment,96,→,right,→,0.48217380000278354,True,28,1
KN-M-23M23S2,1022,experiment,79,←,left,←,0.5089206000557169,True,28,1
KN-M-23M23S2,1023,experiment,59,→,right,→,0.44545450003352016,True,28,1
KN-M-23M23S2,1024,experiment,53,↓,down,↓,0.6345391999930143,True,28,1
KN-M-23M23S2,1025,experiment,88,↑,down,↓,0.8602147999918088,False,28,1
KN-M-23M23S2,1026,experiment,101,↑,up,↑,0.6653628000058234,True,28,1
KN-M-23M23S2,1027,experiment,75,←,left,←,0.5180182000622153,True,28,1
KN-M-23M23S2,1028,experiment,84,↑,up,↑,0.44598379998933524,True,28,1
KN-M-23M23S2,1029,experiment,50,↓,down,↓,0.5479989999439567,True,28,1
KN-M-23M23S2,1030,experiment,78,←,left,←,0.5324284000089392,True,28,1
KN-M-23M23S2,1031,experiment,49,↓,down,↓,0.6072653000010177,True,28,1
KN-M-23M23S2,1032,experiment,57,←,left,←,0.5966505999676883,True,28,1
KN-M-23M23S2,1033,experiment,64,↑,up,↑,0.5679030999308452,True,28,1
KN-M-23M23S2,1034,experiment,99,↓,down,↓,0.6889010000741109,True,28,1
KN-M-23M23S2,1035,experiment,97,↑,up,↑,1.309952100040391,True,28,1
KN-M-23M23S2,1036,experiment,58,↓,down,↓,0.49476310005411506,True,28,1
KN-M-23M23S2,1037,experiment,62,←,left,←,0.5348672000691295,True,28,1
KN-M-23M23S2,1038,experiment,104,↑,up,↑,0.5275053000077605,True,28,1
KN-M-23M23S2,1039,experiment,92,←,left,←,1.1324270999757573,True,28,1
KN-M-23M23S2,1040,experiment,86,↓,left,←,0.755306400009431,False,28,1
KN-M-23M23S2,1041,experiment,95,←,left,←,0.4140923999948427,True,28,1
KN-M-23M23S2,1042,experiment,103,↑,up,↑,0.5878845000406727,True,28,1
KN-M-23M23S2,1043,experiment,108,→,right,→,0.4487100999103859,True,28,1
KN-M-23M23S2,1044,experiment,72,→,no_key,no_letter,-1.0,False,28,1
KN-M-23M23S2,1045,experiment,65,←,right,→,0.66274100006558,False,28,1
KN-M-23M23S2,1046,experiment,55,↓,down,↓,0.5942592000355944,True,28,1
KN-M-23M23S2,1047,experiment,54,↓,down,↓,0.6652154999319464,True,28,1
KN-M-23M23S2,1048,experiment,63,←,left,←,0.4501741999993101,True,28,1
KN-M-23M23S2,1049,training,77,←,left,←,0.38394460000563413,True,28,0
KN-M-23M23S2,1050,training,97,↓,down,↓,0.5195273999124765,True,28,0
KN-M-23M23S2,1051,experiment,67,↓,down,↓,0.40584109991323203,True,28,1
KN-M-23M23S2,1052,experiment,88,←,left,←,0.696114799939096,True,28,1
KN-M-23M23S2,1053,experiment,105,←,left,←,0.402895100065507,True,28,1
KN-M-23M23S2,1054,experiment,78,←,left,←,0.42462459998205304,True,28,0
KN-M-23M23S2,1055,experiment,86,→,right,→,0.36722170002758503,True,28,1
KN-M-23M23S2,1056,experiment,106,→,right,→,0.43392039998434484,True,28,0
KN-M-23M23S2,1057,experiment,60,↑,up,↑,0.6208709001075476,True,28,1
KN-M-23M23S2,1058,experiment,68,→,up,↑,0.9017686999868602,False,28,1
KN-M-23M23S2,1059,experiment,65,←,left,←,0.5009935999987647,True,28,1
KN-M-23M23S2,1060,experiment,84,←,left,←,0.5174576999852434,True,28,1
KN-M-23M23S2,1061,experiment,91,←,left,←,0.4432488000020385,True,28,1
KN-M-23M23S2,1062,experiment,54,←,down,↓,1.2158430000999942,False,28,1
KN-M-23M23S2,1063,experiment,64,↓,down,↓,0.4747020999202505,True,28,1
KN-M-23M23S2,1064,experiment,87,↓,down,↓,0.7712471999693662,True,28,1
KN-M-23M23S2,1065,experiment,93,↑,up,↑,0.5740045999409631,True,28,1
KN-M-23M23S2,1066,experiment,48,→,right,→,0.8875154000706971,True,28,1
KN-M-23M23S2,1067,experiment,83,←,left,←,0.8647659999551252,True,28,1
KN-M-23M23S2,1068,experiment,66,↑,up,↑,0.5528979999944568,True,28,1
KN-M-23M23S2,1069,experiment,108,↑,down,↓,1.159391799941659,False,28,1
KN-M-23M23S2,1070,experiment,81,↓,down,↓,0.4790504000848159,True,28,1
KN-M-23M23S2,1071,experiment,62,↑,up,↑,0.5757923000492156,True,28,1
KN-M-23M23S2,1072,experiment,107,↓,down,↓,0.5016025999793783,True,28,1
KN-M-23M23S2,1073,experiment,103,↓,down,↓,0.8960250000236556,True,28,1
KN-M-23M23S2,1074,experiment,58,←,right,→,0.7535514000337571,False,28,1
KN-M-23M23S2,1075,experiment,99,←,no_key,no_letter,-1.0,False,28,1
KN-M-23M23S2,1076,experiment,63,↑,left,←,1.2192617999389768,False,28,1
KN-M-23M23S2,1077,experiment,61,↓,down,↓,0.5669089000439271,True,28,1
KN-M-23M23S2,1078,experiment,100,←,left,←,0.43172690004576,True,28,1
KN-M-23M23S2,1079,experiment,104,→,right,→,0.6124568999512121,True,28,1
KN-M-23M23S2,1080,experiment,59,↑,up,↑,0.6324615000048652,True,28,1
KN-M-23M23S2,1081,experiment,69,←,left,←,0.6327480999752879,True,28,1
KN-M-23M23S2,1082,experiment,89,→,right,→,0.43454040004871786,True,28,1
KN-M-23M23S2,1083,experiment,53,↓,up,↑,0.6321191999595612,False,28,1
KN-M-23M23S2,1084,experiment,94,→,right,→,0.6324046000372618,True,28,1
KN-M-23M23S2,1085,experiment,56,←,left,←,0.405008599977009,True,28,1
KN-M-23M23S2,1086,experiment,102,←,left,←,0.7228281000861898,True,28,0
KN-M-23M23S2,1087,experiment,75,↓,down,↓,0.5413274000165984,True,28,1
KN-M-23M23S2,1088,experiment,85,←,left,←,0.5640997999580577,True,28,1
KN-M-23M23S2,1089,experiment,79,↑,up,↑,0.6115983000490814,True,28,1
KN-M-23M23S2,1090,experiment,73,↑,up,↑,0.5957799999741837,True,28,1
KN-M-23M23S2,1091,experiment,77,↓,down,↓,0.6184721000026911,True,28,1
KN-M-23M23S2,1092,experiment,71,→,right,→,0.5469572000438347,True,28,1
KN-M-23M23S2,1093,experiment,57,↑,up,↑,0.6821525000268593,True,28,1
KN-M-23M23S2,1094,experiment,80,←,left,←,0.42919759999495,True,28,1
KN-M-23M23S2,1095,experiment,70,↓,down,↓,0.5487767000449821,True,28,1
KN-M-23M23S2,1096,experiment,92,↑,up,↑,0.48891950002871454,True,28,1
KN-M-23M23S2,1097,experiment,55,↓,down,↓,0.5393857999006286,True,28,1
KN-M-23M23S2,1098,experiment,74,↓,down,↓,0.5896520999958739,True,28,1
KN-M-23M23S2,1099,experiment,49,←,left,←,0.3756001000292599,True,28,1
KN-M-23M23S2,1100,experiment,90,↓,down,↓,0.5696645999560133,True,28,0
KN-M-23M23S2,1101,experiment,96,←,left,←,0.507431700010784,True,28,1
KN-M-23M23S2,1102,experiment,52,↓,up,↑,0.7021150999935344,False,28,1
KN-M-23M23S2,1103,experiment,101,↑,up,↑,1.3293042000150308,True,28,1
KN-M-23M23S2,1104,experiment,97,↓,down,↓,0.5087710999650881,True,28,1
KN-M-23M23S2,1105,experiment,82,↑,up,↑,0.6536503999959677,True,28,1
KN-M-23M23S2,1106,experiment,98,←,left,←,0.5072722000768408,True,28,1
KN-M-23M23S2,1107,experiment,50,←,left,←,0.5749006000114605,True,28,1
KN-M-23M23S2,1108,experiment,76,↑,up,↑,0.4790330999530852,True,28,1
KN-M-23M23S2,1109,experiment,51,←,left,←,0.5872958999825642,True,28,1
KN-M-23M23S2,1110,experiment,95,↑,up,↑,0.6285459999926388,True,28,1
KN-M-23M23S2,1111,experiment,72,→,left,←,0.8838024000870064,False,28,1
KN-M-23M23S2,1112,training,108,←,left,←,0.45207520003896207,True,28,0
KN-M-23M23S2,1113,training,91,↓,down,↓,0.540228100027889,True,28,1
KN-M-23M23S2,1114,experiment,73,→,right,→,0.47913300001528114,True,28,1
KN-M-23M23S2,1115,experiment,48,→,right,→,0.6046076999045908,True,28,1
KN-M-23M23S2,1116,experiment,68,↑,up,↑,0.5099909999407828,True,28,1
KN-M-23M23S2,1117,experiment,99,→,right,→,0.5532051000045612,True,28,1
KN-M-23M23S2,1118,experiment,83,↓,down,↓,0.4803729000268504,True,28,1
KN-M-23M23S2,1119,experiment,77,←,left,←,0.47614040004555136,True,28,1
KN-M-23M23S2,1120,experiment,70,↑,up,↑,0.4740518999751657,True,28,1
KN-M-23M23S2,1121,experiment,82,↑,up,↑,0.5324170000385493,True,28,1
KN-M-23M23S2,1122,experiment,59,↓,down,↓,0.46008400002028793,True,28,1
KN-M-23M23S2,1123,experiment,74,↑,up,↑,0.6734742000699043,True,28,1
KN-M-23M23S2,1124,experiment,72,←,left,←,0.607263799989596,True,28,1
KN-M-23M23S2,1125,experiment,91,↑,up,↑,0.6491325000533834,True,28,1
KN-M-23M23S2,1126,experiment,102,↑,down,↓,0.7258357999380678,False,28,1
KN-M-23M23S2,1127,experiment,52,↑,left,←,1.0722929000621662,False,28,1
KN-M-23M23S2,1128,experiment,84,←,left,←,1.2578989999601617,True,28,1
KN-M-23M23S2,1129,experiment,94,↑,up,↑,0.6010833999607712,True,28,1
KN-M-23M23S2,1130,experiment,88,↓,down,↓,0.5725055000511929,True,28,1
KN-M-23M23S2,1131,experiment,104,←,left,←,0.419564799987711,True,28,1
KN-M-23M23S2,1132,experiment,78,↑,up,↑,0.6493331999517977,True,28,1
KN-M-23M23S2,1133,experiment,66,↓,down,↓,0.5860311000142246,True,28,1
KN-M-23M23S2,1134,experiment,96,→,left,←,0.6833348000654951,False,28,1
KN-M-23M23S2,1135,experiment,90,→,right,→,0.6430206000804901,True,28,1
KN-M-23M23S2,1136,experiment,50,↓,down,↓,0.6489132000133395,True,28,1
KN-M-23M23S2,1137,experiment,54,←,left,←,0.5658812000183389,True,28,1
KN-M-23M23S2,1138,experiment,71,←,left,←,0.4477648000465706,True,28,1
KN-M-23M23S2,1139,experiment,69,→,right,→,0.5833570000249892,True,28,1
KN-M-23M23S2,1140,experiment,55,→,right,→,0.6144145999569446,True,28,1
KN-M-23M23S2,1141,experiment,51,←,left,←,0.4214192999061197,True,28,1
KN-M-23M23S2,1142,experiment,89,↓,down,↓,0.5910722000990063,True,28,1
KN-M-23M23S2,1143,experiment,85,←,left,←,0.3837221999419853,True,28,1
KN-M-23M23S2,1144,experiment,105,←,left,←,0.5537110000150278,True,28,0
KN-M-23M23S2,1145,experiment,81,↑,up,↑,0.4250387999927625,True,28,1
KN-M-23M23S2,1146,experiment,79,↓,down,↓,0.7261193000013009,True,28,1
KN-M-23M23S2,1147,experiment,103,←,left,←,0.5675415999721736,True,28,1
KN-M-23M23S2,1148,experiment,87,←,left,←,0.4285208999644965,True,28,1
KN-M-23M23S2,1149,experiment,49,→,left,←,0.4274187000701204,False,28,1
KN-M-23M23S2,1150,experiment,65,↓,down,↓,0.6211475000018254,True,28,1
KN-M-23M23S2,1151,experiment,108,↓,down,↓,1.0491533000022173,True,28,1
KN-M-23M23S2,1152,experiment,92,↑,up,↑,0.6892787999240682,True,28,1
KN-M-23M23S2,1153,experiment,86,↓,down,↓,0.6338705000234768,True,28,1
KN-M-23M23S2,1154,experiment,61,↑,up,↑,0.9566437999019399,True,28,1
KN-M-23M23S2,1155,experiment,100,↑,up,↑,0.4698603000724688,True,28,1
KN-M-23M23S2,1156,experiment,76,←,left,←,0.8103611000115052,True,28,1
KN-M-23M23S2,1157,experiment,93,←,left,←,0.4357438998995349,True,28,1
KN-M-23M23S2,1158,experiment,60,↑,up,↑,0.5989974000258371,True,28,1
KN-M-23M23S2,1159,experiment,67,→,right,→,0.6095175000373274,True,28,1
KN-M-23M23S2,1160,experiment,95,↓,down,↓,0.6658760999562219,True,28,1
KN-M-23M23S2,1161,experiment,106,→,right,→,0.7406264999881387,True,28,1
KN-M-23M23S2,1162,experiment,56,↑,up,↑,0.6767932999646291,True,28,1
KN-M-23M23S2,1163,experiment,57,→,right,→,0.7034443999873474,True,28,1
KN-M-23M23S2,1164,experiment,75,→,right,→,0.8512274000095204,True,28,1
KN-M-23M23S2,1165,experiment,80,↓,down,↓,0.559088799986057,True,28,1
KN-M-23M23S2,1166,experiment,101,→,right,→,0.999898900045082,True,28,1
KN-M-23M23S2,1167,experiment,62,←,up,↑,0.14360650000162423,False,28,1
KN-M-23M23S2,1168,experiment,58,↑,up,↑,0.4798829999053851,True,28,0
KN-M-23M23S2,1169,experiment,98,↑,up,↑,0.4926444001030177,True,28,1
KN-M-23M23S2,1170,experiment,107,→,right,→,0.5498990999767557,True,28,1
KN-M-23M23S2,1171,experiment,97,→,right,→,0.5203447999665514,True,28,1
KN-M-23M23S2,1172,experiment,64,←,left,←,1.5588972999248654,True,28,1
KN-M-23M23S2,1173,experiment,63,↑,left,←,1.1408182999584824,False,28,1
KN-M-23M23S2,1174,experiment,53,↑,left,←,0.5898026999784634,False,28,1
KN-M-23M23S2,1175,training,58,↑,down,↓,1.1310594000387937,False,28,0
KN-M-23M23S2,1176,training,57,→,right,→,0.6671730999369174,True,28,1
KN-M-23M23S2,1177,experiment,63,↑,up,↑,0.5644209000747651,True,28,1
KN-M-23M23S2,1178,experiment,75,↑,up,↑,0.4371727999532595,True,28,1
KN-M-23M23S2,1179,experiment,105,←,left,←,0.401940600015223,True,28,1
KN-M-23M23S2,1180,experiment,79,←,left,←,1.023189299972728,True,28,0
KN-M-23M23S2,1181,experiment,96,↓,down,↓,0.6708915000781417,True,28,1
KN-M-23M23S2,1182,experiment,62,→,right,→,0.4958819999592379,True,28,1
KN-M-23M23S2,1183,experiment,87,←,left,←,0.6554722000146285,True,28,1
KN-M-23M23S2,1184,experiment,77,→,right,→,0.49222789995837957,True,28,1
KN-M-23M23S2,1185,experiment,49,↑,up,↑,0.5845765999983996,True,28,1
KN-M-23M23S2,1186,experiment,106,↓,down,↓,0.5506619999650866,True,28,1
KN-M-23M23S2,1187,experiment,50,↑,up,↑,0.6805568999843672,True,28,1
KN-M-23M23S2,1188,experiment,59,↑,up,↑,0.7061773999594152,True,28,1
KN-M-23M23S2,1189,experiment,72,→,right,→,0.5503810999216512,True,28,1
KN-M-23M23S2,1190,experiment,60,→,right,→,0.7169189000269398,True,28,1
KN-M-23M23S2,1191,experiment,61,↓,down,↓,0.6127634000731632,True,28,1
KN-M-23M23S2,1192,experiment,55,→,right,→,0.7141785999992862,True,28,1
KN-M-23M23S2,1193,experiment,67,←,left,←,0.8555612000636756,True,28,1
KN-M-23M23S2,1194,experiment,103,←,left,←,0.5484895999543369,True,28,1
KN-M-23M23S2,1195,experiment,86,→,right,→,0.6258733000140637,True,28,1
KN-M-23M23S2,1196,experiment,107,↓,down,↓,0.5419029999757186,True,28,1
KN-M-23M23S2,1197,experiment,76,↑,up,↑,0.695628699962981,True,28,1
KN-M-23M23S2,1198,experiment,65,→,right,→,0.6065915999934077,True,28,1
KN-M-23M23S2,1199,experiment,57,↑,up,↑,0.6598751000128686,True,28,1
KN-M-23M23S2,1200,experiment,66,←,left,←,0.6121484000468627,True,28,1
KN-M-23M23S2,1201,experiment,53,↑,up,↑,0.7063209000043571,True,28,1
KN-M-23M23S2,1202,experiment,78,↑,up,↑,0.7245303000090644,True,28,1
KN-M-23M23S2,1203,experiment,80,↓,down,↓,0.565614299965091,True,28,1
KN-M-23M23S2,1204,experiment,89,↑,up,↑,1.4256596999475732,True,28,1
KN-M-23M23S2,1205,experiment,48,↓,down,↓,0.5935841000173241,True,28,1
KN-M-23M23S2,1206,experiment,71,↓,up,↑,1.395012900000438,False,28,1
KN-M-23M23S2,1207,experiment,102,←,left,←,0.4983294999692589,True,28,1
KN-M-23M23S2,1208,experiment,58,↓,down,↓,0.5475413000676781,True,28,1
KN-M-23M23S2,1209,experiment,85,↓,down,↓,0.4896607999689877,True,28,1
KN-M-23M23S2,1210,experiment,82,↑,up,↑,0.6752412000205368,True,28,1
KN-M-23M23S2,1211,experiment,73,←,left,←,0.5927647999487817,True,28,1
KN-M-23M23S2,1212,experiment,83,←,left,←,0.4781055999919772,True,28,1
KN-M-23M23S2,1213,experiment,54,→,right,→,0.5373442999552935,True,28,1
KN-M-23M23S2,1214,experiment,52,←,left,←,0.6748702999902889,True,28,1
KN-M-23M23S2,1215,experiment,104,←,left,←,0.4144064000574872,True,28,1
KN-M-23M23S2,1216,experiment,97,←,left,←,0.4695692000677809,True,28,1
KN-M-23M23S2,1217,experiment,94,↑,up,↑,0.5882273999741301,True,28,1
KN-M-23M23S2,1218,experiment,84,↑,up,↑,0.5771466000005603,True,28,1
KN-M-23M23S2,1219,experiment,64,↑,up,↑,0.9573929000180215,True,28,1
KN-M-23M23S2,1220,experiment,100,→,right,→,0.49455579998902977,True,28,1
KN-M-23M23S2,1221,experiment,108,↓,down,↓,0.5996680000098422,True,28,1
KN-M-23M23S2,1222,experiment,101,←,left,←,0.5106136000249535,True,28,1
KN-M-23M23S2,1223,experiment,90,←,left,←,0.6610277999425307,True,28,1
KN-M-23M23S2,1224,experiment,91,↓,down,↓,0.6049362999619916,True,28,1
KN-M-23M23S2,1225,experiment,88,↑,up,↑,0.6560824998887256,True,28,1
KN-M-23M23S2,1226,experiment,69,↑,up,↑,0.7672995000611991,True,28,1
KN-M-23M23S2,1227,experiment,68,↓,left,←,0.8745196999516338,False,28,1
KN-M-23M23S2,1228,experiment,98,←,left,←,0.5196353000355884,True,28,1
KN-M-23M23S2,1229,experiment,56,↑,up,↑,0.59281960001681,True,28,1
KN-M-23M23S2,1230,experiment,74,←,left,←,0.4972904999740422,True,28,1
KN-M-23M23S2,1231,experiment,92,←,left,←,0.5190383000299335,True,28,1
KN-M-23M23S2,1232,experiment,99,→,right,→,0.4742837999947369,True,28,1
KN-M-23M23S2,1233,experiment,51,←,left,←,0.6547405000310391,True,28,1
KN-M-23M23S2,1234,experiment,95,←,left,←,0.5015733999898657,True,28,1
KN-M-23M23S2,1235,experiment,81,←,left,←,0.5192416999489069,True,28,1
KN-M-23M23S2,1236,experiment,93,↓,down,↓,0.660116600105539,True,28,1
KN-M-23M23S2,1237,experiment,70,↑,up,↑,0.675250899977982,True,28,1
KN-M-23M23S2,1238,training,97,↓,down,↓,0.5632551000453532,True,28,0
KN-M-23M23S2,1239,training,54,←,left,←,0.44344509998336434,True,28,1
KN-M-23M23S2,1240,experiment,57,←,left,←,0.4392572999931872,True,28,1
KN-M-23M23S2,1241,experiment,95,→,right,→,0.7024873999180272,True,28,1
KN-M-23M23S2,1242,experiment,51,→,right,→,0.6419519000919536,True,28,1
KN-M-23M23S2,1243,experiment,53,↑,up,↑,0.5991540999384597,True,28,1
KN-M-23M23S2,1244,experiment,50,↓,down,↓,0.6710833000252023,True,28,1
KN-M-23M23S2,1245,experiment,72,→,right,→,0.6766795000294223,True,28,1
KN-M-23M23S2,1246,experiment,58,↓,down,↓,0.5908325000200421,True,28,1
KN-M-23M23S2,1247,experiment,78,↓,down,↓,0.5099163999548182,True,28,1
KN-M-23M23S2,1248,experiment,75,→,right,→,0.44123950006905943,True,28,1
KN-M-23M23S2,1249,experiment,85,→,right,→,0.4440034000435844,True,28,1
KN-M-23M23S2,1250,experiment,68,↓,down,↓,0.5798874000320211,True,28,1
KN-M-23M23S2,1251,experiment,105,→,right,→,0.4423227000515908,True,28,1
KN-M-23M23S2,1252,experiment,94,↑,up,↑,0.4739227000391111,True,28,1
KN-M-23M23S2,1253,experiment,76,↑,up,↑,0.6779913000063971,True,28,1
KN-M-23M23S2,1254,experiment,71,↑,up,↑,0.5159163000062108,True,28,1
KN-M-23M23S2,1255,experiment,65,→,right,→,0.5464044000254944,True,28,1
KN-M-23M23S2,1256,experiment,55,←,left,←,0.5067945000482723,True,28,1
KN-M-23M23S2,1257,experiment,88,→,right,→,1.1053461000556126,True,28,1
KN-M-23M23S2,1258,experiment,106,←,left,←,0.6348830000497401,True,28,1
KN-M-23M23S2,1259,experiment,73,←,left,←,0.41794209997169673,True,28,1
KN-M-23M23S2,1260,experiment,80,↑,up,↑,0.7025758000090718,True,28,1
KN-M-23M23S2,1261,experiment,63,↓,down,↓,0.5901792000513524,True,28,1
KN-M-23M23S2,1262,experiment,92,↑,up,↑,0.5284903000574559,True,28,1
KN-M-23M23S2,1263,experiment,97,←,left,←,0.6039899000898004,True,28,1
KN-M-23M23S2,1264,experiment,56,↓,down,↓,0.6333567999536172,True,28,1
KN-M-23M23S2,1265,experiment,104,↑,up,↑,0.6703510000370443,True,28,1
KN-M-23M23S2,1266,experiment,48,↑,left,←,1.0279560000635684,False,28,1
KN-M-23M23S2,1267,experiment,100,→,right,→,0.6025187999475747,True,28,1
KN-M-23M23S2,1268,experiment,83,→,right,→,0.5674369001062587,True,28,1
KN-M-23M23S2,1269,experiment,66,↓,down,↓,0.5395910999504849,True,28,1
KN-M-23M23S2,1270,experiment,91,←,left,←,0.5042181999888271,True,28,1
KN-M-23M23S2,1271,experiment,101,↑,up,↑,0.5866643000626937,True,28,1
KN-M-23M23S2,1272,experiment,107,↑,up,↑,0.6723857000470161,True,28,1
KN-M-23M23S2,1273,experiment,70,→,right,→,0.4546321000671014,True,28,1
KN-M-23M23S2,1274,experiment,96,→,right,→,0.7013580999337137,True,28,1
KN-M-23M23S2,1275,experiment,77,↑,up,↑,0.5443286000518128,True,28,1
KN-M-23M23S2,1276,experiment,81,→,right,→,0.42441749991849065,True,28,1
KN-M-23M23S2,1277,experiment,64,→,right,→,0.5785720999119803,True,28,1
KN-M-23M23S2,1278,experiment,99,↑,right,→,0.6593558999011293,False,28,1
KN-M-23M23S2,1279,experiment,62,←,left,←,0.42881840001791716,True,28,1
KN-M-23M23S2,1280,experiment,102,↑,up,↑,0.5140175999840721,True,28,1
KN-M-23M23S2,1281,experiment,98,←,left,←,0.7492135999491438,True,28,1
KN-M-23M23S2,1282,experiment,86,↓,down,↓,0.5393723000306636,True,28,1
KN-M-23M23S2,1283,experiment,59,←,right,→,0.46656390000134706,False,28,1
KN-M-23M23S2,1284,experiment,84,↓,down,↓,0.5804506000131369,True,28,1
KN-M-23M23S2,1285,experiment,82,↓,down,↓,0.6024844000348821,True,28,1
KN-M-23M23S2,1286,experiment,74,→,right,→,0.5463368999771774,True,28,1
KN-M-23M23S2,1287,experiment,90,←,left,←,0.8309993000002578,True,28,1
KN-M-23M23S2,1288,experiment,49,↑,left,←,1.2780224999878556,False,28,1
KN-M-23M23S2,1289,experiment,108,↓,down,↓,0.5761376000009477,True,28,1
KN-M-23M23S2,1290,experiment,54,→,right,→,0.5674311999464408,True,28,1
KN-M-23M23S2,1291,experiment,89,↑,up,↑,0.5477648000232875,True,28,1
KN-M-23M23S2,1292,experiment,67,↑,up,↑,0.47196679993066937,True,28,1
KN-M-23M23S2,1293,experiment,79,←,left,←,0.41125859995372593,True,28,1
KN-M-23M23S2,1294,experiment,93,←,left,←,0.4052261000033468,True,28,1
KN-M-23M23S2,1295,experiment,69,↓,left,←,1.7579297999618575,False,28,1
KN-M-23M23S2,1296,experiment,103,←,left,←,0.5902784999925643,True,28,1
KN-M-23M23S2,1297,experiment,61,↑,up,↑,0.5946696000173688,True,28,1
KN-M-23M23S2,1298,experiment,52,←,left,←,0.618234199937433,True,28,1
KN-M-23M23S2,1299,experiment,60,↓,down,↓,0.5183136999839917,True,28,1
KN-M-23M23S2,1300,experiment,87,↑,right,→,0.6691022000741214,False,28,1
KN-M-23M23S2,1301,training,72,→,right,→,0.46619630011264235,True,28,0
KN-M-23M23S2,1302,training,48,←,left,←,0.46384809992741793,True,28,1
KN-M-23M23S2,1303,experiment,102,←,left,←,0.5717668000143021,True,28,1
KN-M-23M23S2,1304,experiment,71,↓,down,↓,0.5178583000088111,True,28,1
KN-M-23M23S2,1305,experiment,48,←,left,←,0.7056956000160426,True,28,1
KN-M-23M23S2,1306,experiment,90,←,left,←,0.4560267999768257,True,28,1
KN-M-23M23S2,1307,experiment,66,↓,down,↓,0.5282758000539616,True,28,1
KN-M-23M23S2,1308,experiment,98,←,left,←,0.49923620000481606,True,28,1
KN-M-23M23S2,1309,experiment,78,←,left,←,0.4939703999552876,True,28,1
KN-M-23M23S2,1310,experiment,101,→,left,←,0.52107989997603,False,28,1
KN-M-23M23S2,1311,experiment,83,↑,up,↑,0.6970376000972465,True,28,1
KN-M-23M23S2,1312,experiment,51,→,right,→,0.6210804999573156,True,28,1
KN-M-23M23S2,1313,experiment,65,↑,up,↑,0.5904712999472395,True,28,1
KN-M-23M23S2,1314,experiment,70,→,right,→,0.44008580001536757,True,28,1
KN-M-23M23S2,1315,experiment,76,↓,right,→,0.5739889999385923,False,28,1
KN-M-23M23S2,1316,experiment,108,↓,no_key,no_letter,-1.0,False,28,1
KN-M-23M23S2,1317,experiment,52,↑,no_key,no_letter,-1.0,False,28,1
KN-M-23M23S2,1318,experiment,80,←,no_key,no_letter,-1.0,False,28,1
KN-M-23M23S2,1319,experiment,103,↓,down,↓,0.66044939996209,True,28,1
KN-M-23M23S2,1320,experiment,104,→,right,→,0.5600140999304131,True,28,1
KN-M-23M23S2,1321,experiment,69,←,left,←,0.7232808000408113,True,28,1
KN-M-23M23S2,1322,experiment,54,→,right,→,0.428830899996683,True,28,1
KN-M-23M23S2,1323,experiment,95,→,right,→,0.4370868999976665,True,28,1
KN-M-23M23S2,1324,experiment,85,←,left,←,0.6871379000367597,True,28,1
KN-M-23M23S2,1325,experiment,89,↑,up,↑,0.7668683000374585,True,28,1
KN-M-23M23S2,1326,experiment,106,→,right,→,0.42163160000927746,True,28,1
KN-M-23M23S2,1327,experiment,60,→,no_key,no_letter,-1.0,False,28,1
KN-M-23M23S2,1328,experiment,64,←,left,←,0.5528193999780342,True,28,1
KN-M-23M23S2,1329,experiment,86,←,left,←,1.0545109000522643,True,28,1
KN-M-23M23S2,1330,experiment,91,→,right,→,0.367629999993369,True,28,1
KN-M-23M23S2,1331,experiment,63,↑,up,↑,0.6193337000440806,True,28,0
KN-M-23M23S2,1332,experiment,58,→,right,→,0.4801430000225082,True,28,1
KN-M-23M23S2,1333,experiment,87,→,right,→,0.5044030999997631,True,28,1
KN-M-23M23S2,1334,experiment,88,↓,down,↓,0.5351630999939516,True,28,1
KN-M-23M23S2,1335,experiment,56,↓,down,↓,0.6076247000601143,True,28,1
KN-M-23M23S2,1336,experiment,92,↓,down,↓,0.577265200088732,True,28,1
KN-M-23M23S2,1337,experiment,50,↑,down,↓,1.2665063999593258,False,28,1
KN-M-23M23S2,1338,experiment,94,←,right,→,0.8090468000154942,False,28,1
KN-M-23M23S2,1339,experiment,79,←,left,←,0.647032400011085,True,28,1
KN-M-23M23S2,1340,experiment,68,→,right,→,0.5191988000879064,True,28,1
KN-M-23M23S2,1341,experiment,82,→,right,→,0.4558218000456691,True,28,1
KN-M-23M23S2,1342,experiment,62,←,left,←,0.4972323999973014,True,28,1
KN-M-23M23S2,1343,experiment,96,↑,up,↑,0.6938817999325693,True,28,1
KN-M-23M23S2,1344,experiment,75,→,right,→,0.5219897000351921,True,28,1
KN-M-23M23S2,1345,experiment,55,↓,down,↓,0.5393311999505386,True,28,1
KN-M-23M23S2,1346,experiment,49,→,right,→,0.36701990000437945,True,28,1
KN-M-23M23S2,1347,experiment,67,←,left,←,0.4647562999743968,True,28,0
KN-M-23M23S2,1348,experiment,93,→,right,→,0.5196357999229804,True,28,1
KN-M-23M23S2,1349,experiment,99,→,right,→,0.4990619000745937,True,28,1
KN-M-23M23S2,1350,experiment,100,←,left,←,0.6620432999916375,True,28,1
KN-M-23M23S2,1351,experiment,77,↑,up,↑,0.4189137000357732,True,28,1
KN-M-23M23S2,1352,experiment,53,←,left,←,0.5207284999778494,True,28,1
KN-M-23M23S2,1353,experiment,97,→,right,→,0.3842746000736952,True,28,1
KN-M-23M23S2,1354,experiment,74,↓,down,↓,0.6041884999722242,True,28,0
KN-M-23M23S2,1355,experiment,107,↑,up,↑,0.5452097000088543,True,28,1
KN-M-23M23S2,1356,experiment,59,↑,up,↑,0.61613480001688,True,28,1
KN-M-23M23S2,1357,experiment,84,→,right,→,0.5083835999248549,True,28,1
KN-M-23M23S2,1358,experiment,72,↑,up,↑,0.5203883000649512,True,28,1
KN-M-23M23S2,1359,experiment,57,←,left,←,0.47330349998082966,True,28,1
KN-M-23M23S2,1360,experiment,73,↑,up,↑,0.5345516999950632,True,28,1
KN-M-23M23S2,1361,experiment,105,←,left,←,0.4155132999876514,True,28,1
KN-M-23M23S2,1362,experiment,61,→,right,→,0.4983639999991283,True,28,1
KN-M-23M23S2,1363,experiment,81,→,right,→,0.7880751000484452,True,28,1
KN-M-23M23S2,1364,training,51,↓,down,↓,0.6737146000377834,True,28,0
KN-M-23M23S2,1365,training,68,↓,down,↓,0.6888503000373021,True,28,1
KN-M-23M23S2,1366,experiment,107,→,right,→,0.6740448999917135,True,28,1
KN-M-23M23S2,1367,experiment,98,↓,down,↓,0.7111782999709249,True,28,1
KN-M-23M23S2,1368,experiment,62,↓,down,↓,0.6548747000051662,True,28,1
KN-M-23M23S2,1369,experiment,65,↓,down,↓,0.49535669991746545,True,28,1
KN-M-23M23S2,1370,experiment,106,↓,down,↓,0.5695453999796882,True,28,1
KN-M-23M23S2,1371,experiment,50,←,left,←,0.49024409998673946,True,28,1
KN-M-23M23S2,1372,experiment,51,↑,up,↑,0.6778942999662831,True,28,1
KN-M-23M23S2,1373,experiment,89,→,right,→,0.6942619999172166,True,28,1
KN-M-23M23S2,1374,experiment,103,←,right,→,0.7293267999775708,False,28,1
KN-M-23M23S2,1375,experiment,68,→,right,→,0.6852136000525206,True,28,1
KN-M-23M23S2,1376,experiment,99,↓,down,↓,0.4657993000000715,True,28,1
KN-M-23M23S2,1377,experiment,58,↓,down,↓,0.5084734000265598,True,28,1
KN-M-23M23S2,1378,experiment,80,↑,up,↑,0.6059619999723509,True,28,1
KN-M-23M23S2,1379,experiment,76,→,right,→,0.5648688999935985,True,28,1
KN-M-23M23S2,1380,experiment,60,←,left,←,0.4587435000576079,True,28,1
KN-M-23M23S2,1381,experiment,84,↓,down,↓,0.48500909993890673,True,28,1
KN-M-23M23S2,1382,experiment,74,↓,down,↓,0.47369829996023327,True,28,1
KN-M-23M23S2,1383,experiment,52,↑,up,↑,0.5415449999272823,True,28,1
KN-M-23M23S2,1384,experiment,82,→,right,→,0.46138009999413043,True,28,1
KN-M-23M23S2,1385,experiment,73,↑,up,↑,0.5074427999788895,True,28,1
KN-M-23M23S2,1386,experiment,66,←,left,←,0.5455015000188723,True,28,1
KN-M-23M23S2,1387,experiment,94,→,right,→,0.37553610000759363,True,28,1
KN-M-23M23S2,1388,experiment,53,→,right,→,0.46034200000576675,True,28,0
KN-M-23M23S2,1389,experiment,85,←,left,←,0.3838677998865023,True,28,1
KN-M-23M23S2,1390,experiment,69,↓,down,↓,0.5359416001010686,True,28,0
KN-M-23M23S2,1391,experiment,101,←,left,←,0.4100596000207588,True,28,1
KN-M-23M23S2,1392,experiment,63,↑,up,↑,0.6049532999750227,True,28,1
KN-M-23M23S2,1393,experiment,61,↓,down,↓,0.5369010999565944,True,28,1
KN-M-23M23S2,1394,experiment,78,→,right,→,0.6423246000194922,True,28,1
KN-M-23M23S2,1395,experiment,48,↑,up,↑,0.6171094999881461,True,28,1
KN-M-23M23S2,1396,experiment,87,↑,up,↑,0.5320269999792799,True,28,1
KN-M-23M23S2,1397,experiment,102,→,right,→,0.6614205000223592,True,28,1
KN-M-23M23S2,1398,experiment,108,↓,left,←,1.4639614999759942,False,28,1
KN-M-23M23S2,1399,experiment,57,↑,left,←,1.0508640999905765,False,28,1
KN-M-23M23S2,1400,experiment,88,←,right,→,0.4925824999809265,False,28,1
KN-M-23M23S2,1401,experiment,64,←,left,←,0.5883580000372604,True,28,1
KN-M-23M23S2,1402,experiment,72,←,left,←,0.4532045000232756,True,28,1
KN-M-23M23S2,1403,experiment,55,→,right,→,0.5293669000966474,True,28,1
KN-M-23M23S2,1404,experiment,83,↓,down,↓,0.5531307000201195,True,28,1
KN-M-23M23S2,1405,experiment,70,↑,up,↑,0.6040937999496236,True,28,1
KN-M-23M23S2,1406,experiment,97,←,left,←,0.5083230000454932,True,28,1
KN-M-23M23S2,1407,experiment,92,→,right,→,0.4499051000457257,True,28,1
KN-M-23M23S2,1408,experiment,96,→,right,→,1.2565407999791205,True,28,1
KN-M-23M23S2,1409,experiment,49,↑,up,↑,0.6227706000208855,True,28,1
KN-M-23M23S2,1410,experiment,86,←,right,→,0.6097142000216991,False,28,1
KN-M-23M23S2,1411,experiment,71,↑,no_key,no_letter,-1.0,False,28,1
KN-M-23M23S2,1412,experiment,90,↑,up,↑,0.4493091000476852,True,28,1
KN-M-23M23S2,1413,experiment,67,←,left,←,0.5053520000074059,True,28,1
KN-M-23M23S2,1414,experiment,95,→,right,→,0.566334699979052,True,28,1
KN-M-23M23S2,1415,experiment,54,↑,up,↑,0.4462353000417352,True,28,1
KN-M-23M23S2,1416,experiment,75,↑,up,↑,0.5881428000284359,True,28,1
KN-M-23M23S2,1417,experiment,100,→,right,→,0.49171520001254976,True,28,1
KN-M-23M23S2,1418,experiment,81,↑,up,↑,0.5734548999462277,True,28,1
KN-M-23M23S2,1419,experiment,77,↓,down,↓,0.6295050999615341,True,28,1
KN-M-23M23S2,1420,experiment,93,→,right,→,0.4618722000159323,True,28,1
KN-M-23M23S2,1421,experiment,91,←,left,←,0.5738391000777483,True,28,1
KN-M-23M23S2,1422,experiment,59,↑,up,↑,0.5316414999542758,True,28,1
KN-M-23M23S2,1423,experiment,105,→,right,→,0.5319749000482261,True,28,1
KN-M-23M23S2,1424,experiment,104,↑,up,↑,0.5407022000290453,True,28,1
KN-M-23M23S2,1425,experiment,79,←,left,←,0.5894998000003397,True,28,1
KN-M-23M23S2,1426,experiment,56,→,right,→,0.4595078000565991,True,28,1
KN-M-23M23S2,1427,training,49,↓,down,↓,0.5160618000663817,True,28,0
KN-M-23M23S2,1428,training,96,→,right,→,1.0002436999930069,True,28,1
KN-M-23M23S2,1429,experiment,103,→,right,→,1.0704991000238806,True,28,1
KN-M-23M23S2,1430,experiment,86,←,right,→,0.6801980000454932,False,28,1
KN-M-23M23S2,1431,experiment,98,→,right,→,0.5483572999946773,True,28,1
KN-M-23M23S2,1432,experiment,102,←,left,←,0.5571426999522373,True,28,1
KN-M-23M23S2,1433,experiment,85,←,left,←,0.4191608000546694,True,28,1
KN-M-23M23S2,1434,experiment,88,←,left,←,0.3592342999763787,True,28,1
KN-M-23M23S2,1435,experiment,61,↓,down,↓,0.48312089999672025,True,28,0
KN-M-23M23S2,1436,experiment,76,↑,down,↓,0.7750920000253245,False,28,1
KN-M-23M23S2,1437,experiment,54,↑,up,↑,0.42305779992602766,True,28,1
KN-M-23M23S2,1438,experiment,105,→,left,←,0.6113814999116585,False,28,1
KN-M-23M23S2,1439,experiment,69,↑,up,↑,0.4285662999609485,True,28,1
KN-M-23M23S2,1440,experiment,87,→,right,→,0.4233784999232739,True,28,1
KN-M-23M23S2,1441,experiment,50,←,left,←,0.41453259997069836,True,28,1
KN-M-23M23S2,1442,experiment,72,↑,up,↑,0.6538725999416783,True,28,1
