PART_ID,Trial_no,Trial_type,CSI,Stim_letter,Key_pressed,letter_choose,Rt,Corr,Stimulus Time,nDropped
KN-M-23M23S1,1,training,120,←,right,→,1.5652324999682605,False,60,0
KN-M-23M23S1,2,training,120,↑,left,←,1.9653597999713384,False,60,0
KN-M-23M23S1,3,training,120,→,right,→,1.8696054000174627,True,60,0
KN-M-23M23S1,4,training,120,↓,no_key,no_letter,-1.0,False,60,0
KN-M-23M23S1,5,training,120,←,up,↑,1.9139406000031158,False,60,0
KN-M-23M23S1,6,training,120,←,left,←,1.556565499980934,True,60,0
KN-M-23M23S1,7,training,120,↑,up,↑,1.2130261000129394,True,60,0
KN-M-23M23S1,8,training,120,→,right,→,1.1634298999560997,True,60,0
KN-M-23M23S1,9,training,120,←,right,→,1.259819500031881,False,60,0
KN-M-23M23S1,10,training,120,↓,down,↓,0.9606074000475928,True,60,0
KN-M-23M23S1,11,training,120,↑,up,↑,1.0014523999998346,True,60,0
KN-M-23M23S1,12,training,120,→,right,→,0.9600130000035278,True,60,0
KN-M-23M23S1,13,training,120,↓,down,↓,0.8568847000133246,True,60,0
KN-M-23M23S1,14,training,120,↑,up,↑,0.8855257999966852,True,60,0
KN-M-23M23S1,15,training,120,←,left,←,0.8653368999948725,True,60,0
KN-M-23M23S1,16,training,120,↓,no_key,no_letter,-1.0,False,60,0
KN-M-23M23S1,17,training,120,←,left,←,0.7501489000278525,True,60,0
KN-M-23M23S1,18,training,120,←,left,←,1.007907300023362,True,60,0
KN-M-23M23S1,19,training,120,↓,down,↓,0.575958699977491,True,60,0
KN-M-23M23S1,20,training,120,↑,up,↑,0.6706431999919005,True,60,0
KN-M-23M23S1,21,no_adaptation,120,←,left,←,0.8405600999831222,True,36,0
KN-M-23M23S1,22,no_adaptation,120,→,right,→,0.7742601000354625,True,36,0
KN-M-23M23S1,23,no_adaptation,120,↑,up,↑,0.6701083999942057,True,36,0
KN-M-23M23S1,24,no_adaptation,120,↑,up,↑,0.6503081999835558,True,36,0
KN-M-23M23S1,25,no_adaptation,120,↓,down,↓,0.6714337000157684,True,36,0
KN-M-23M23S1,26,no_adaptation,120,↓,down,↓,0.7078602999681607,True,36,0
KN-M-23M23S1,27,no_adaptation,120,↑,up,↑,0.6784968000138178,True,36,0
KN-M-23M23S1,28,no_adaptation,120,↑,up,↑,0.722384599968791,True,36,0
KN-M-23M23S1,29,no_adaptation,120,←,left,←,0.6765480999602005,True,36,0
KN-M-23M23S1,30,no_adaptation,120,←,left,←,0.6967567999963649,True,36,0
KN-M-23M23S1,31,no_adaptation,120,↑,up,↑,0.6197823000256903,True,36,0
KN-M-23M23S1,32,no_adaptation,120,←,left,←,0.6022715999861248,True,36,0
KN-M-23M23S1,33,no_adaptation,120,↓,right,→,0.4504351000068709,False,36,0
KN-M-23M23S1,34,no_adaptation,120,↑,up,↑,0.6934393999981694,True,36,0
KN-M-23M23S1,35,no_adaptation,120,←,left,←,0.5131964000174776,True,36,0
KN-M-23M23S1,36,no_adaptation,120,↓,down,↓,0.6354790999903344,True,36,0
KN-M-23M23S1,37,no_adaptation,120,→,right,→,0.6650980000267737,True,36,0
KN-M-23M23S1,38,no_adaptation,120,↑,up,↑,0.6215352999861352,True,36,0
KN-M-23M23S1,39,no_adaptation,120,←,left,←,0.5877732000080869,True,36,0
KN-M-23M23S1,40,no_adaptation,120,→,left,←,0.49148779996903613,False,36,0
KN-M-23M23S1,41,training,90,↑,up,↑,0.7677425000001676,True,36,0
KN-M-23M23S1,42,training,51,↑,up,↑,0.9836334999999963,True,36,1
KN-M-23M23S1,43,experiment,98,→,right,→,0.615064200013876,True,36,1
KN-M-23M23S1,44,experiment,77,↑,up,↑,0.7408568999962881,True,36,1
KN-M-23M23S1,45,experiment,78,→,right,→,0.5807040000217967,True,36,1
KN-M-23M23S1,46,experiment,52,←,left,←,0.6757187999901362,True,36,1
KN-M-23M23S1,47,experiment,91,↑,up,↑,0.7219764000037685,True,36,1
KN-M-23M23S1,48,experiment,104,↓,down,↓,0.6739333000150509,True,36,1
KN-M-23M23S1,49,experiment,59,↑,up,↑,0.5390619999961928,True,36,1
KN-M-23M23S1,50,experiment,93,↑,up,↑,0.6621632000315003,True,36,1
KN-M-23M23S1,51,experiment,67,←,left,←,0.653341899975203,True,36,1
KN-M-23M23S1,52,experiment,85,↑,no_key,no_letter,-1.0,False,36,1
KN-M-23M23S1,53,experiment,54,→,left,←,0.6375532999518327,False,36,1
KN-M-23M23S1,54,experiment,89,→,right,→,0.8781198000069708,True,36,1
KN-M-23M23S1,55,experiment,65,←,left,←,0.5971232999581844,True,36,1
KN-M-23M23S1,56,experiment,100,→,right,→,0.6595594999962486,True,36,1
KN-M-23M23S1,57,experiment,83,↑,up,↑,0.6131565000396222,True,36,1
KN-M-23M23S1,58,experiment,84,→,right,→,0.712411200045608,True,36,1
KN-M-23M23S1,59,experiment,55,↑,up,↑,0.817291599989403,True,36,1
KN-M-23M23S1,60,experiment,92,↑,up,↑,0.49790100002428517,True,36,1
KN-M-23M23S1,61,experiment,79,→,right,→,0.6751285999780521,True,36,1
KN-M-23M23S1,62,experiment,68,←,left,←,0.8571082999696955,True,36,1
KN-M-23M23S1,63,experiment,96,→,right,→,0.6624989000265487,True,36,1
KN-M-23M23S1,64,experiment,95,←,left,←,0.667959599988535,True,36,1
KN-M-23M23S1,65,experiment,80,←,left,←,0.7502391000161879,True,36,1
KN-M-23M23S1,66,experiment,60,→,right,→,0.7080241999938153,True,36,1
KN-M-23M23S1,67,experiment,73,↑,up,↑,1.3027900999877602,True,36,1
KN-M-23M23S1,68,experiment,56,↓,down,↓,0.6159658000105992,True,36,1
KN-M-23M23S1,69,experiment,108,↓,down,↓,0.6752661999780685,True,36,1
KN-M-23M23S1,70,experiment,107,←,left,←,0.49222750001354143,True,36,1
KN-M-23M23S1,71,experiment,74,→,right,→,0.6315508999978192,True,36,1
KN-M-23M23S1,72,experiment,51,↓,down,↓,0.6370875000138767,True,36,1
KN-M-23M23S1,73,experiment,50,↑,up,↑,0.4341308999573812,True,36,1
KN-M-23M23S1,74,experiment,87,←,right,→,0.46828849997837096,False,36,0
KN-M-23M23S1,75,experiment,81,←,no_key,no_letter,-1.0,False,36,0
KN-M-23M23S1,76,experiment,86,→,right,→,0.5538396000047214,True,36,1
KN-M-23M23S1,77,experiment,72,←,left,←,0.6360635999590158,True,36,1
KN-M-23M23S1,78,experiment,88,→,right,→,0.7244006000109948,True,36,1
KN-M-23M23S1,79,experiment,57,→,right,→,0.7240953999571502,True,36,1
KN-M-23M23S1,80,experiment,62,↓,down,↓,0.6661725000012666,True,36,1
KN-M-23M23S1,81,experiment,105,→,right,→,0.6522128999931738,True,36,1
KN-M-23M23S1,82,experiment,82,←,left,←,1.0067515999544412,True,36,1
KN-M-23M23S1,83,experiment,103,↑,up,↑,0.6515090999891981,True,36,1
KN-M-23M23S1,84,experiment,64,↓,down,↓,0.6361018999596126,True,36,1
KN-M-23M23S1,85,experiment,58,→,right,→,0.5911750999512151,True,36,1
KN-M-23M23S1,86,experiment,63,↑,up,↑,0.5699756999965757,True,36,1
KN-M-23M23S1,87,experiment,53,→,right,→,0.6013056000228971,True,36,1
KN-M-23M23S1,88,experiment,90,→,right,→,0.619020999991335,True,36,1
KN-M-23M23S1,89,experiment,71,←,right,→,0.65031729999464,False,36,1
KN-M-23M23S1,90,experiment,94,↑,up,↑,0.624698800034821,True,36,1
KN-M-23M23S1,91,experiment,48,↓,down,↓,0.6633591999998316,True,36,1
KN-M-23M23S1,92,experiment,97,↓,down,↓,0.7160977000021376,True,36,1
KN-M-23M23S1,93,experiment,66,→,right,→,0.5933397999615408,True,36,1
KN-M-23M23S1,94,experiment,69,↓,down,↓,0.5222508999868296,True,36,1
KN-M-23M23S1,95,experiment,61,←,left,←,0.7686383000109345,True,36,1
KN-M-23M23S1,96,experiment,76,←,left,←,0.6486245999694802,True,36,1
KN-M-23M23S1,97,experiment,70,←,left,←,0.6708523000124842,True,36,1
KN-M-23M23S1,98,experiment,99,↓,down,↓,0.6430744000244886,True,36,1
KN-M-23M23S1,99,experiment,106,←,left,←,0.781379799998831,True,36,1
KN-M-23M23S1,100,experiment,75,→,right,→,0.5725665999925695,True,36,1
KN-M-23M23S1,101,experiment,101,←,left,←,0.739452000008896,True,36,1
KN-M-23M23S1,102,experiment,49,←,left,←,0.7973288000212051,True,36,1
KN-M-23M23S1,103,experiment,102,↓,down,↓,0.6111062000272796,True,36,1
KN-M-23M23S1,104,training,80,←,left,←,0.6063053999678232,True,35,0
KN-M-23M23S1,105,training,87,↑,up,↑,0.5768109000055119,True,35,1
KN-M-23M23S1,106,experiment,70,←,left,←,0.5062645000289194,True,35,1
KN-M-23M23S1,107,experiment,67,↓,down,↓,0.6313544000149705,True,35,1
KN-M-23M23S1,108,experiment,91,↑,up,↑,0.6072024999884889,True,35,1
KN-M-23M23S1,109,experiment,89,←,left,←,0.5291337000089698,True,35,1
KN-M-23M23S1,110,experiment,59,→,right,→,0.703993100032676,True,35,1
KN-M-23M23S1,111,experiment,57,↓,down,↓,0.6643096000188962,True,35,1
KN-M-23M23S1,112,experiment,94,→,right,→,0.6620202999911271,True,35,1
KN-M-23M23S1,113,experiment,81,↓,down,↓,0.5204026999999769,True,35,1
KN-M-23M23S1,114,experiment,63,↑,up,↑,0.5667452000197954,True,35,1
KN-M-23M23S1,115,experiment,107,←,left,←,0.5799463999574073,True,35,1
KN-M-23M23S1,116,experiment,65,↑,up,↑,0.7667892999597825,True,35,1
KN-M-23M23S1,117,experiment,97,↓,down,↓,0.7593080999795347,True,35,1
KN-M-23M23S1,118,experiment,74,→,right,→,0.784004700020887,True,35,1
KN-M-23M23S1,119,experiment,64,←,left,←,0.6269833000260405,True,35,1
KN-M-23M23S1,120,experiment,77,→,right,→,0.5602773000136949,True,35,1
KN-M-23M23S1,121,experiment,66,→,right,→,0.7795446999953128,True,35,1
KN-M-23M23S1,122,experiment,86,↑,up,↑,0.5592779000289738,True,35,1
KN-M-23M23S1,123,experiment,92,↓,down,↓,0.6819433000055142,True,35,1
KN-M-23M23S1,124,experiment,84,↑,up,↑,0.7382288999506272,True,35,1
KN-M-23M23S1,125,experiment,93,↑,up,↑,0.5256523000425659,True,35,1
KN-M-23M23S1,126,experiment,53,↑,up,↑,0.5987835999694653,True,35,1
KN-M-23M23S1,127,experiment,76,→,right,→,0.5733569000149146,True,35,1
KN-M-23M23S1,128,experiment,98,→,right,→,0.5973759000189602,True,35,1
KN-M-23M23S1,129,experiment,58,↑,up,↑,0.6097420000005513,True,35,1
KN-M-23M23S1,130,experiment,60,↑,up,↑,0.6851086000096984,True,35,1
KN-M-23M23S1,131,experiment,48,←,left,←,0.7136312000220641,True,35,1
KN-M-23M23S1,132,experiment,88,↓,down,↓,0.7030968999606557,True,35,1
KN-M-23M23S1,133,experiment,99,→,right,→,0.7220419000368565,True,35,1
KN-M-23M23S1,134,experiment,55,←,left,←,0.7302140000392683,True,35,1
KN-M-23M23S1,135,experiment,71,←,left,←,0.6608715999755077,True,35,1
KN-M-23M23S1,136,experiment,79,↑,up,↑,0.6881106999935582,True,35,1
KN-M-23M23S1,137,experiment,54,↑,up,↑,0.7543393000378273,True,35,1
KN-M-23M23S1,138,experiment,104,←,left,←,0.6730648999800906,True,35,1
KN-M-23M23S1,139,experiment,73,←,left,←,0.6136956999544054,True,35,1
KN-M-23M23S1,140,experiment,82,↓,down,↓,0.6811987000401132,True,35,1
KN-M-23M23S1,141,experiment,75,↑,up,↑,0.7244466999545693,True,35,1
KN-M-23M23S1,142,experiment,105,←,left,←,0.6922504000249319,True,35,1
KN-M-23M23S1,143,experiment,68,→,right,→,0.5375677000265568,True,35,1
KN-M-23M23S1,144,experiment,95,←,left,←,0.6519605000503361,True,35,1
KN-M-23M23S1,145,experiment,106,→,right,→,0.6946759999846108,True,35,1
KN-M-23M23S1,146,experiment,96,↓,down,↓,0.6583958999835886,True,35,1
KN-M-23M23S1,147,experiment,108,↓,up,↑,1.099969599978067,False,35,1
KN-M-23M23S1,148,experiment,87,←,left,←,0.5383766000159085,True,35,1
KN-M-23M23S1,149,experiment,72,→,right,→,0.5965829000342637,True,35,1
KN-M-23M23S1,150,experiment,101,↓,left,←,0.4905550999683328,False,35,1
KN-M-23M23S1,151,experiment,49,↓,no_key,no_letter,-1.0,False,35,1
KN-M-23M23S1,152,experiment,80,→,right,→,0.5970859000226483,True,35,1
KN-M-23M23S1,153,experiment,85,↓,up,↑,0.9841765000019222,False,35,1
KN-M-23M23S1,154,experiment,69,↓,down,↓,0.8016984999994747,True,35,1
KN-M-23M23S1,155,experiment,61,→,right,→,0.4929328999714926,True,35,1
KN-M-23M23S1,156,experiment,90,↑,up,↑,0.7148021999746561,True,35,1
KN-M-23M23S1,157,experiment,52,←,left,←,0.7085013000178151,True,35,1
KN-M-23M23S1,158,experiment,100,←,left,←,0.5907188000273891,True,35,1
KN-M-23M23S1,159,experiment,103,↑,up,↑,0.7167852999991737,True,35,1
KN-M-23M23S1,160,experiment,83,←,left,←,0.6278724999865517,True,35,1
KN-M-23M23S1,161,experiment,62,↓,down,↓,0.685744300018996,True,35,1
KN-M-23M23S1,162,experiment,102,↓,down,↓,0.6723778999876231,True,35,1
KN-M-23M23S1,163,experiment,51,→,right,→,0.6520282000419684,True,35,1
KN-M-23M23S1,164,experiment,56,→,right,→,0.6791700000176206,True,35,1
KN-M-23M23S1,165,experiment,78,←,left,←,0.42580130003625527,True,35,1
KN-M-23M23S1,166,experiment,50,→,left,←,0.3766139000072144,False,35,0
KN-M-23M23S1,167,training,97,←,left,←,0.6187962000258267,True,34,0
KN-M-23M23S1,168,training,54,↓,down,↓,0.7119127999758348,True,34,1
KN-M-23M23S1,169,experiment,93,↑,up,↑,0.7002106999862008,True,34,1
KN-M-23M23S1,170,experiment,51,↓,down,↓,0.5510509999585338,True,34,1
KN-M-23M23S1,171,experiment,98,↓,down,↓,0.576006600051187,True,34,1
KN-M-23M23S1,172,experiment,86,↓,down,↓,0.5800213000038639,True,34,1
KN-M-23M23S1,173,experiment,100,←,left,←,0.6270855000475422,True,34,1
KN-M-23M23S1,174,experiment,73,↑,up,↑,0.6976220000069588,True,34,1
KN-M-23M23S1,175,experiment,92,↑,up,↑,0.6944597000256181,True,34,1
KN-M-23M23S1,176,experiment,94,→,right,→,0.6593670000438578,True,34,1
KN-M-23M23S1,177,experiment,60,→,right,→,0.6045861000311561,True,34,1
KN-M-23M23S1,178,experiment,55,↑,up,↑,0.5376450999756344,True,34,1
KN-M-23M23S1,179,experiment,74,↓,down,↓,0.6273866000119597,True,34,1
KN-M-23M23S1,180,experiment,97,↓,down,↓,0.649433400016278,True,34,1
KN-M-23M23S1,181,experiment,101,↓,down,↓,0.4777822000323795,True,34,1
KN-M-23M23S1,182,experiment,79,↓,down,↓,0.6563412999967113,True,34,1
KN-M-23M23S1,183,experiment,81,↓,up,↑,1.2665157999726944,False,34,1
KN-M-23M23S1,184,experiment,76,←,left,←,0.60590319999028,True,34,1
KN-M-23M23S1,185,experiment,80,↑,up,↑,0.5787865000311285,True,34,1
KN-M-23M23S1,186,experiment,83,←,left,←,0.5516634999657981,True,34,1
KN-M-23M23S1,187,experiment,104,←,left,←,0.5828336999984458,True,34,1
KN-M-23M23S1,188,experiment,69,↓,down,↓,0.6160297999740578,True,34,1
KN-M-23M23S1,189,experiment,106,↑,up,↑,0.7081864000065252,True,34,1
KN-M-23M23S1,190,experiment,50,←,left,←,0.6867088999715634,True,34,1
KN-M-23M23S1,191,experiment,72,→,right,→,0.6669706999673508,True,34,1
KN-M-23M23S1,192,experiment,103,↑,up,↑,0.5818749000318348,True,34,1
KN-M-23M23S1,193,experiment,96,←,left,←,0.6860290999757126,True,34,1
KN-M-23M23S1,194,experiment,85,↑,up,↑,0.5500238999957219,True,34,1
KN-M-23M23S1,195,experiment,62,→,right,→,0.7231193999759853,True,34,1
KN-M-23M23S1,196,experiment,91,↑,up,↑,0.5996384999598376,True,34,1
KN-M-23M23S1,197,experiment,59,←,left,←,0.6755217000027187,True,34,1
KN-M-23M23S1,198,experiment,75,→,right,→,0.5913206999539398,True,34,1
KN-M-23M23S1,199,experiment,99,↓,down,↓,0.678378899989184,True,34,1
KN-M-23M23S1,200,experiment,49,↑,up,↑,0.5869209000375122,True,34,1
KN-M-23M23S1,201,experiment,54,↓,down,↓,0.5692214000155218,True,34,1
KN-M-23M23S1,202,experiment,48,←,left,←,0.5302002999815159,True,34,1
KN-M-23M23S1,203,experiment,77,←,left,←,0.6750748999766074,True,34,1
KN-M-23M23S1,204,experiment,88,↑,up,↑,0.6104845000081696,True,34,1
KN-M-23M23S1,205,experiment,78,→,right,→,0.5356502000358887,True,34,1
KN-M-23M23S1,206,experiment,105,←,left,←,0.5992355999769643,True,34,1
KN-M-23M23S1,207,experiment,84,→,right,→,0.49898400000529364,True,34,1
KN-M-23M23S1,208,experiment,95,←,left,←,0.5188060000073165,True,34,1
KN-M-23M23S1,209,experiment,71,←,left,←,0.7621937000076286,True,34,1
KN-M-23M23S1,210,experiment,52,→,left,←,0.7546277000219561,False,34,1
KN-M-23M23S1,211,experiment,67,→,right,→,0.5977698000497185,True,34,1
KN-M-23M23S1,212,experiment,61,↓,down,↓,0.6972767999977805,True,34,1
KN-M-23M23S1,213,experiment,64,→,left,←,0.5434711000416428,False,34,1
KN-M-23M23S1,214,experiment,68,↓,down,↓,0.6909660999663174,True,34,1
KN-M-23M23S1,215,experiment,87,→,right,→,0.5940584999625571,True,34,1
KN-M-23M23S1,216,experiment,82,↓,down,↓,0.606897099991329,True,34,1
KN-M-23M23S1,217,experiment,70,↓,down,↓,0.5588118999730796,True,34,1
KN-M-23M23S1,218,experiment,58,↑,up,↑,0.6449090999667533,True,34,1
KN-M-23M23S1,219,experiment,65,←,left,←,0.5812922000186518,True,34,1
KN-M-23M23S1,220,experiment,102,→,right,→,0.6516641000052914,True,34,1
KN-M-23M23S1,221,experiment,63,←,left,←,0.8125583999790251,True,34,1
KN-M-23M23S1,222,experiment,108,→,right,→,0.5435545000364073,True,34,1
KN-M-23M23S1,223,experiment,90,↑,up,↑,0.6754664000472985,True,34,1
KN-M-23M23S1,224,experiment,89,↓,down,↓,0.6344128000200726,True,34,1
KN-M-23M23S1,225,experiment,53,←,left,←,0.5353950000135228,True,34,1
KN-M-23M23S1,226,experiment,57,↓,down,↓,0.6944594000233337,True,34,1
KN-M-23M23S1,227,experiment,107,→,right,→,0.6308895000256598,True,34,1
KN-M-23M23S1,228,experiment,66,→,right,→,0.7114723999984562,True,34,1
KN-M-23M23S1,229,experiment,56,↓,down,↓,0.552188900008332,True,34,1
KN-M-23M23S1,230,training,89,←,left,←,0.5879133000271395,True,33,0
KN-M-23M23S1,231,training,77,→,right,→,0.5940112000098452,True,33,1
KN-M-23M23S1,232,experiment,78,↓,up,↑,0.8081233000266366,False,33,1
KN-M-23M23S1,233,experiment,49,←,left,←,0.6233985999715514,True,33,1
KN-M-23M23S1,234,experiment,75,↓,down,↓,0.5888863000436686,True,33,1
KN-M-23M23S1,235,experiment,48,←,left,←,0.6454814999597147,True,33,1
KN-M-23M23S1,236,experiment,86,→,right,→,0.6785528000327758,True,33,1
KN-M-23M23S1,237,experiment,99,←,left,←,0.698121200024616,True,33,1
KN-M-23M23S1,238,experiment,62,↑,up,↑,0.7215084999916144,True,33,1
KN-M-23M23S1,239,experiment,90,→,right,→,0.6059618000290357,True,33,1
KN-M-23M23S1,240,experiment,50,↑,up,↑,0.7806486000190489,True,33,1
KN-M-23M23S1,241,experiment,85,←,left,←,0.8005845000152476,True,33,1
KN-M-23M23S1,242,experiment,51,←,left,←,0.823532400012482,True,33,1
KN-M-23M23S1,243,experiment,79,↑,up,↑,0.5559856999898329,True,33,1
KN-M-23M23S1,244,experiment,91,→,right,→,0.6228139000013471,True,33,1
KN-M-23M23S1,245,experiment,103,↓,down,↓,0.6352037999895401,True,33,1
KN-M-23M23S1,246,experiment,105,→,right,→,0.6546383000095375,True,33,1
KN-M-23M23S1,247,experiment,93,↓,down,↓,0.5968787000165321,True,33,1
KN-M-23M23S1,248,experiment,87,↓,down,↓,0.7595637000049464,True,33,1
KN-M-23M23S1,249,experiment,54,↓,down,↓,0.4710398999741301,True,33,1
KN-M-23M23S1,250,experiment,59,↓,down,↓,0.44850629998836666,True,33,1
KN-M-23M23S1,251,experiment,88,←,left,←,0.5527961999760009,True,33,0
KN-M-23M23S1,252,experiment,70,↑,up,↑,0.5232267999672331,True,33,1
KN-M-23M23S1,253,experiment,83,←,left,←,0.54689400002826,True,33,1
KN-M-23M23S1,254,experiment,76,↓,down,↓,0.49869889998808503,True,33,1
KN-M-23M23S1,255,experiment,96,→,right,→,0.5105940999928862,True,33,1
KN-M-23M23S1,256,experiment,81,→,right,→,0.591022000007797,True,33,1
KN-M-23M23S1,257,experiment,80,↑,up,↑,0.5402183000114746,True,33,1
KN-M-23M23S1,258,experiment,56,←,left,←,0.6115610999986529,True,33,1
KN-M-23M23S1,259,experiment,77,↑,up,↑,0.48955109994858503,True,33,1
KN-M-23M23S1,260,experiment,71,↑,up,↑,0.4621136999921873,True,33,1
KN-M-23M23S1,261,experiment,97,↓,down,↓,0.5386981999618001,True,33,1
KN-M-23M23S1,262,experiment,101,←,left,←,0.44374670000979677,True,33,1
KN-M-23M23S1,263,experiment,64,↑,up,↑,0.8590480000129901,True,33,0
KN-M-23M23S1,264,experiment,98,↑,up,↑,0.4558403000119142,True,33,1
KN-M-23M23S1,265,experiment,92,←,left,←,0.47065639996435493,True,33,1
KN-M-23M23S1,266,experiment,107,←,no_key,no_letter,-1.0,False,33,1
KN-M-23M23S1,267,experiment,95,↓,down,↓,0.5703348999959417,True,33,1
KN-M-23M23S1,268,experiment,84,↑,up,↑,0.5832259999588132,True,33,1
KN-M-23M23S1,269,experiment,60,↓,down,↓,0.7559430999681354,True,33,1
KN-M-23M23S1,270,experiment,72,↓,up,↑,1.0211729000438936,False,33,1
KN-M-23M23S1,271,experiment,104,↑,up,↑,0.561023100046441,True,33,1
KN-M-23M23S1,272,experiment,100,→,right,→,0.6330944999936037,True,33,1
KN-M-23M23S1,273,experiment,63,→,right,→,0.5785360999871045,True,33,1
KN-M-23M23S1,274,experiment,67,↓,down,↓,0.6208506000111811,True,33,1
KN-M-23M23S1,275,experiment,94,←,left,←,0.6366921999724582,True,33,1
KN-M-23M23S1,276,experiment,52,→,right,→,0.5535327999969013,True,33,1
KN-M-23M23S1,277,experiment,68,↑,up,↑,0.5083893000264652,True,33,1
KN-M-23M23S1,278,experiment,66,←,left,←,0.6261061999830417,True,33,1
KN-M-23M23S1,279,experiment,53,→,right,→,0.6148685000371188,True,33,1
KN-M-23M23S1,280,experiment,102,↓,down,↓,0.6678727999678813,True,33,1
KN-M-23M23S1,281,experiment,55,←,right,→,0.662847800005693,False,33,1
KN-M-23M23S1,282,experiment,106,↓,down,↓,0.6964021000312641,True,33,1
KN-M-23M23S1,283,experiment,61,↑,up,↑,0.5757940000039525,True,33,1
KN-M-23M23S1,284,experiment,73,↑,up,↑,0.5283104000263847,True,33,1
KN-M-23M23S1,285,experiment,69,↓,down,↓,0.604088399966713,True,33,1
KN-M-23M23S1,286,experiment,82,←,left,←,0.48833409999497235,True,33,1
KN-M-23M23S1,287,experiment,89,↓,down,↓,0.5348358000046574,True,33,1
KN-M-23M23S1,288,experiment,74,→,left,←,0.44906399998581037,False,33,1
KN-M-23M23S1,289,experiment,65,→,right,→,0.5124235000112094,True,33,0
KN-M-23M23S1,290,experiment,58,↓,down,↓,0.5764645999879576,True,33,1
KN-M-23M23S1,291,experiment,108,←,left,←,0.5570102999918163,True,33,1
KN-M-23M23S1,292,experiment,57,←,left,←,0.4834283000091091,True,33,1
KN-M-23M23S1,293,training,61,↑,up,↑,0.4689290000242181,True,32,0
KN-M-23M23S1,294,training,71,←,left,←,0.5621003999840468,True,32,1
KN-M-23M23S1,295,experiment,77,←,left,←,0.5539244000101462,True,32,1
KN-M-23M23S1,296,experiment,51,→,right,→,0.4665662000188604,True,32,1
KN-M-23M23S1,297,experiment,66,→,right,→,0.44245829997817054,True,32,1
KN-M-23M23S1,298,experiment,74,→,right,→,0.511280499980785,True,32,1
KN-M-23M23S1,299,experiment,101,←,left,←,0.5687403000192717,True,32,1
KN-M-23M23S1,300,experiment,60,←,left,←,0.5578011000179686,True,32,1
KN-M-23M23S1,301,experiment,50,↑,up,↑,0.45493000000715256,True,32,1
KN-M-23M23S1,302,experiment,79,←,left,←,0.3923981999978423,True,32,1
KN-M-23M23S1,303,experiment,56,↑,no_key,no_letter,-1.0,False,32,0
KN-M-23M23S1,304,experiment,98,↓,down,↓,0.6083389000268653,True,32,1
KN-M-23M23S1,305,experiment,54,←,left,←,0.5019982999656349,True,32,1
KN-M-23M23S1,306,experiment,62,↑,up,↑,0.5490888999775052,True,32,1
KN-M-23M23S1,307,experiment,92,↓,down,↓,0.5999284000135958,True,32,1
KN-M-23M23S1,308,experiment,107,→,right,→,0.6600761000299826,True,32,1
KN-M-23M23S1,309,experiment,48,↑,up,↑,0.51327689999016,True,32,1
KN-M-23M23S1,310,experiment,106,↓,down,↓,0.5769242999958806,True,32,1
KN-M-23M23S1,311,experiment,84,→,right,→,0.5737571999779902,True,32,1
KN-M-23M23S1,312,experiment,61,←,left,←,0.5141558999894187,True,32,1
KN-M-23M23S1,313,experiment,70,→,right,→,0.4861581999575719,True,32,1
KN-M-23M23S1,314,experiment,82,←,left,←,0.4875262000132352,True,32,1
KN-M-23M23S1,315,experiment,89,→,right,→,0.5812549000256695,True,32,1
KN-M-23M23S1,316,experiment,95,←,left,←,0.6220862000482157,True,32,1
KN-M-23M23S1,317,experiment,67,←,right,→,0.8624596000299789,False,32,1
KN-M-23M23S1,318,experiment,108,↓,down,↓,0.5914977000211366,True,32,1
KN-M-23M23S1,319,experiment,94,↓,down,↓,0.5763493999838829,True,32,1
KN-M-23M23S1,320,experiment,105,→,right,→,0.5743665999616496,True,32,1
KN-M-23M23S1,321,experiment,97,↓,down,↓,0.5104385999729857,True,32,1
KN-M-23M23S1,322,experiment,88,→,right,→,0.612118300050497,True,32,1
KN-M-23M23S1,323,experiment,55,↑,up,↑,0.6010308000259101,True,32,1
KN-M-23M23S1,324,experiment,71,↑,up,↑,0.553339300036896,True,32,1
KN-M-23M23S1,325,experiment,102,→,right,→,0.592592999979388,True,32,1
KN-M-23M23S1,326,experiment,72,↑,up,↑,0.5688217999995686,True,32,1
KN-M-23M23S1,327,experiment,65,↑,up,↑,0.4840612999978475,True,32,1
KN-M-23M23S1,328,experiment,57,↓,down,↓,0.5978539999923669,True,32,1
KN-M-23M23S1,329,experiment,68,←,right,→,0.5027970999944955,False,32,1
KN-M-23M23S1,330,experiment,76,→,right,→,0.6172630999935791,True,32,1
KN-M-23M23S1,331,experiment,69,→,right,→,0.6414793999865651,True,32,1
KN-M-23M23S1,332,experiment,103,↑,up,↑,0.5810601999983191,True,32,1
KN-M-23M23S1,333,experiment,93,↓,down,↓,0.6226731999777257,True,32,1
KN-M-23M23S1,334,experiment,91,←,left,←,0.5428599999868311,True,32,1
KN-M-23M23S1,335,experiment,100,↓,down,↓,0.5991996999946423,True,32,1
KN-M-23M23S1,336,experiment,80,↓,down,↓,0.5084631000063382,True,32,1
KN-M-23M23S1,337,experiment,104,→,right,→,0.6054959999746643,True,32,1
KN-M-23M23S1,338,experiment,90,←,left,←,0.5987490999978036,True,32,1
KN-M-23M23S1,339,experiment,85,→,right,→,0.5139843000215478,True,32,1
KN-M-23M23S1,340,experiment,87,←,left,←,0.6561356000020169,True,32,1
KN-M-23M23S1,341,experiment,83,→,right,→,0.5698143999907188,True,32,1
KN-M-23M23S1,342,experiment,52,→,right,→,0.6177535000024363,True,32,1
KN-M-23M23S1,343,experiment,96,→,right,→,0.6005346999736503,True,32,1
KN-M-23M23S1,344,experiment,81,↓,left,←,0.46147199999541044,False,32,1
KN-M-23M23S1,345,experiment,64,↓,down,↓,0.8052444999921136,True,32,1
KN-M-23M23S1,346,experiment,63,→,right,→,0.6397440999862738,True,32,1
KN-M-23M23S1,347,experiment,53,↑,up,↑,0.6046627999749035,True,32,1
KN-M-23M23S1,348,experiment,99,→,right,→,0.5146308999974281,True,32,1
KN-M-23M23S1,349,experiment,73,→,right,→,0.5171883000293747,True,32,1
KN-M-23M23S1,350,experiment,58,↓,down,↓,0.525034999998752,True,32,1
KN-M-23M23S1,351,experiment,78,→,right,→,0.5501147999893874,True,32,1
KN-M-23M23S1,352,experiment,86,←,right,→,0.4669106000219472,False,32,1
KN-M-23M23S1,353,experiment,75,←,left,←,0.5749207999906503,True,32,1
KN-M-23M23S1,354,experiment,49,↓,down,↓,0.6153068999992684,True,32,1
KN-M-23M23S1,355,experiment,59,↓,down,↓,0.5629456000169739,True,32,1
KN-M-23M23S1,356,training,99,↑,up,↑,0.5702211000025272,True,31,0
KN-M-23M23S1,357,training,83,→,right,→,0.5996129999984987,True,31,1
KN-M-23M23S1,358,experiment,57,↓,down,↓,0.5965751000330783,True,31,1
KN-M-23M23S1,359,experiment,54,→,right,→,0.5860922000138089,True,31,1
KN-M-23M23S1,360,experiment,68,↑,up,↑,0.5638434999855235,True,31,1
KN-M-23M23S1,361,experiment,73,←,left,←,0.660648399963975,True,31,1
KN-M-23M23S1,362,experiment,88,←,left,←,0.6283303000382148,True,31,1
KN-M-23M23S1,363,experiment,87,→,right,→,0.49448860000120476,True,31,1
KN-M-23M23S1,364,experiment,98,↓,down,↓,0.681891500018537,True,31,1
KN-M-23M23S1,365,experiment,92,↓,down,↓,0.5195439000381157,True,31,1
KN-M-23M23S1,366,experiment,69,↑,up,↑,0.5794931999989785,True,31,1
KN-M-23M23S1,367,experiment,64,→,right,→,0.5825219000107609,True,31,1
KN-M-23M23S1,368,experiment,95,↑,up,↑,0.5913540000328794,True,31,1
KN-M-23M23S1,369,experiment,60,↑,up,↑,0.5472558000474237,True,31,1
KN-M-23M23S1,370,experiment,49,←,left,←,0.628709800017532,True,31,1
KN-M-23M23S1,371,experiment,48,↑,up,↑,0.49145959998713806,True,31,1
KN-M-23M23S1,372,experiment,61,↓,down,↓,0.6434663999825716,True,31,1
KN-M-23M23S1,373,experiment,82,←,left,←,0.5420628999709152,True,31,1
KN-M-23M23S1,374,experiment,53,↓,down,↓,0.5585166999953799,True,31,1
KN-M-23M23S1,375,experiment,94,→,right,→,0.6564467999851331,True,31,1
KN-M-23M23S1,376,experiment,59,→,right,→,0.5702385000186041,True,31,1
KN-M-23M23S1,377,experiment,70,↑,up,↑,0.5720848999917507,True,31,1
KN-M-23M23S1,378,experiment,66,←,left,←,0.5586562999524176,True,31,1
KN-M-23M23S1,379,experiment,50,↓,down,↓,0.4555181000032462,True,31,1
KN-M-23M23S1,380,experiment,56,→,right,→,0.4585704999626614,True,31,1
KN-M-23M23S1,381,experiment,104,←,left,←,0.4452488999813795,True,31,1
KN-M-23M23S1,382,experiment,97,↑,up,↑,0.5143878000089899,True,31,1
KN-M-23M23S1,383,experiment,52,→,left,←,0.5081906000268646,False,31,1
KN-M-23M23S1,384,experiment,100,↑,up,↑,0.6381149000371806,True,31,1
KN-M-23M23S1,385,experiment,81,↓,down,↓,0.6013582999585196,True,31,1
KN-M-23M23S1,386,experiment,55,←,left,←,0.4868869000347331,True,31,1
KN-M-23M23S1,387,experiment,105,↓,down,↓,0.49603949999436736,True,31,1
KN-M-23M23S1,388,experiment,106,←,left,←,0.5529831000021659,True,31,1
KN-M-23M23S1,389,experiment,99,↓,down,↓,0.5050084000104107,True,31,1
KN-M-23M23S1,390,experiment,78,←,left,←,0.5224657999933697,True,31,1
KN-M-23M23S1,391,experiment,76,→,left,←,0.4092532999929972,False,31,1
KN-M-23M23S1,392,experiment,75,→,right,→,0.44213089998811483,True,31,0
KN-M-23M23S1,393,experiment,65,↑,up,↑,0.5703852000297047,True,31,1
KN-M-23M23S1,394,experiment,103,→,right,→,0.5531756000127643,True,31,1
KN-M-23M23S1,395,experiment,102,↑,up,↑,0.5608520999667235,True,31,1
KN-M-23M23S1,396,experiment,91,↑,up,↑,0.6040918999933638,True,31,1
KN-M-23M23S1,397,experiment,51,↑,up,↑,0.5306482999585569,True,31,1
KN-M-23M23S1,398,experiment,89,↑,up,↑,0.4955185999860987,True,31,1
KN-M-23M23S1,399,experiment,72,→,right,→,0.5796533999964595,True,31,1
KN-M-23M23S1,400,experiment,96,↓,down,↓,0.6437728999881074,True,31,1
KN-M-23M23S1,401,experiment,79,↓,down,↓,0.4479660000069998,True,31,1
KN-M-23M23S1,402,experiment,63,↓,up,↑,1.1923441999824718,False,31,1
KN-M-23M23S1,403,experiment,101,←,left,←,0.5505221000057645,True,31,1
KN-M-23M23S1,404,experiment,83,↑,up,↑,0.5409515000064857,True,31,1
KN-M-23M23S1,405,experiment,62,→,right,→,0.5380869999644347,True,31,1
KN-M-23M23S1,406,experiment,80,→,right,→,0.46586649998789653,True,31,1
KN-M-23M23S1,407,experiment,71,↑,up,↑,1.4394022999913432,True,31,1
KN-M-23M23S1,408,experiment,85,↓,down,↓,0.5927968000178225,True,31,1
KN-M-23M23S1,409,experiment,107,↑,up,↑,0.5731254999991506,True,31,1
KN-M-23M23S1,410,experiment,67,←,left,←,0.4638221000204794,True,31,1
KN-M-23M23S1,411,experiment,93,↑,up,↑,0.5656564999953844,True,31,1
KN-M-23M23S1,412,experiment,77,←,left,←,0.509031200024765,True,31,1
KN-M-23M23S1,413,experiment,84,←,left,←,0.6683898000046611,True,31,1
KN-M-23M23S1,414,experiment,58,↓,down,↓,0.8783856999943964,True,31,1
KN-M-23M23S1,415,experiment,108,←,left,←,0.638769700017292,True,31,1
KN-M-23M23S1,416,experiment,86,←,left,←,0.5842294999747537,True,31,1
KN-M-23M23S1,417,experiment,90,↓,down,↓,0.5945966000435874,True,31,1
KN-M-23M23S1,418,experiment,74,↑,up,↑,0.5700233999523334,True,31,1
KN-M-23M23S1,419,training,67,↓,down,↓,0.5759260000195354,True,30,0
KN-M-23M23S1,420,training,78,↓,down,↓,0.46244049997767434,True,30,1
KN-M-23M23S1,421,experiment,69,↓,down,↓,0.3589030999573879,True,30,1
KN-M-23M23S1,422,experiment,73,↑,down,↓,0.3838461000123061,False,30,0
KN-M-23M23S1,423,experiment,107,←,left,←,0.5859838000033051,True,30,0
KN-M-23M23S1,424,experiment,60,←,left,←,0.47838370001409203,True,30,1
KN-M-23M23S1,425,experiment,101,→,left,←,0.3840551000321284,False,30,1
KN-M-23M23S1,426,experiment,77,→,right,→,0.5678724000463262,True,30,0
KN-M-23M23S1,427,experiment,65,↑,up,↑,0.5472673999611288,True,30,1
KN-M-23M23S1,428,experiment,79,↓,down,↓,0.7709407000220381,True,30,1
KN-M-23M23S1,429,experiment,71,←,left,←,0.5157229999895208,True,30,1
KN-M-23M23S1,430,experiment,99,←,left,←,0.6058145000133663,True,30,1
KN-M-23M23S1,431,experiment,51,↓,down,↓,0.6761603000340983,True,30,1
KN-M-23M23S1,432,experiment,84,←,left,←,0.4849572000093758,True,30,1
KN-M-23M23S1,433,experiment,95,↓,down,↓,0.49760350002907217,True,30,1
KN-M-23M23S1,434,experiment,75,↑,up,↑,0.4604844000423327,True,30,1
KN-M-23M23S1,435,experiment,49,←,left,←,0.49730709998402745,True,30,1
KN-M-23M23S1,436,experiment,59,←,left,←,0.39234690001467243,True,30,1
KN-M-23M23S1,437,experiment,72,←,left,←,0.44160100002773106,True,30,0
KN-M-23M23S1,438,experiment,82,↓,left,←,0.27549730002647266,False,30,1
KN-M-23M23S1,439,experiment,67,↑,up,↑,0.5701566000352614,True,30,0
KN-M-23M23S1,440,experiment,62,↑,up,↑,0.4305843999609351,True,30,1
KN-M-23M23S1,441,experiment,48,↓,down,↓,0.5811363999964669,True,30,1
KN-M-23M23S1,442,experiment,104,→,right,→,0.6427272000000812,True,30,1
KN-M-23M23S1,443,experiment,74,↓,no_key,no_letter,-1.0,False,30,1
KN-M-23M23S1,444,experiment,80,↑,up,↑,0.4724885000032373,True,30,1
KN-M-23M23S1,445,experiment,70,→,right,→,0.6217689999612048,True,30,1
KN-M-23M23S1,446,experiment,56,→,right,→,0.5465690999990329,True,30,1
KN-M-23M23S1,447,experiment,102,↑,left,←,0.3422578999889083,False,30,1
KN-M-23M23S1,448,experiment,61,↑,up,↑,0.4552987999632023,True,30,0
KN-M-23M23S1,449,experiment,89,↑,up,↑,0.5589864000212401,True,30,1
KN-M-23M23S1,450,experiment,76,←,left,←,0.5266919999849051,True,30,1
KN-M-23M23S1,451,experiment,57,↓,down,↓,0.5826053000055254,True,30,1
KN-M-23M23S1,452,experiment,78,→,right,→,0.5009837000397965,True,30,1
KN-M-23M23S1,453,experiment,108,→,right,→,0.5968700999510475,True,30,1
KN-M-23M23S1,454,experiment,54,↓,down,↓,0.5784521999885328,True,30,1
KN-M-23M23S1,455,experiment,106,↓,down,↓,0.4481965000159107,True,30,1
KN-M-23M23S1,456,experiment,55,↓,no_key,no_letter,-1.0,False,30,1
KN-M-23M23S1,457,experiment,64,←,left,←,0.7130063999793492,True,30,1
KN-M-23M23S1,458,experiment,66,↓,down,↓,0.4299114999594167,True,30,1
KN-M-23M23S1,459,experiment,98,→,right,→,0.5235776000190526,True,30,1
KN-M-23M23S1,460,experiment,93,↓,down,↓,0.4486287999898195,True,30,1
KN-M-23M23S1,461,experiment,88,↑,up,↑,0.5918683000491001,True,30,1
KN-M-23M23S1,462,experiment,91,←,left,←,0.5139898000052199,True,30,1
KN-M-23M23S1,463,experiment,63,←,left,←,0.5996422999887727,True,30,1
KN-M-23M23S1,464,experiment,90,↓,up,↑,0.48912120005115867,False,30,1
KN-M-23M23S1,465,experiment,103,→,right,→,0.5216654000105336,True,30,1
KN-M-23M23S1,466,experiment,96,↑,up,↑,0.5562011000001803,True,30,1
KN-M-23M23S1,467,experiment,94,→,right,→,0.5903035000083037,True,30,1
KN-M-23M23S1,468,experiment,105,↑,up,↑,0.6116110000293702,True,30,1
KN-M-23M23S1,469,experiment,100,→,right,→,1.3936374000040814,True,30,1
KN-M-23M23S1,470,experiment,58,↓,down,↓,0.5499913999810815,True,30,1
KN-M-23M23S1,471,experiment,92,↓,down,↓,0.48115429998142645,True,30,1
KN-M-23M23S1,472,experiment,87,↑,up,↑,0.5366652000229806,True,30,1
KN-M-23M23S1,473,experiment,50,↓,down,↓,0.4263089999440126,True,30,1
KN-M-23M23S1,474,experiment,97,↑,up,↑,0.42514179996214807,True,30,1
KN-M-23M23S1,475,experiment,85,→,right,→,0.5546425000065938,True,30,1
KN-M-23M23S1,476,experiment,52,→,right,→,0.5152679000166245,True,30,1
KN-M-23M23S1,477,experiment,68,↑,up,↑,0.5435624000383541,True,30,1
KN-M-23M23S1,478,experiment,86,↓,down,↓,0.42958279995946214,True,30,1
KN-M-23M23S1,479,experiment,53,←,left,←,0.4977950000320561,True,30,1
KN-M-23M23S1,480,experiment,81,↑,up,↑,0.4826659999671392,True,30,1
KN-M-23M23S1,481,experiment,83,←,left,←,0.5551675999886356,True,30,1
KN-M-23M23S1,482,training,61,→,right,→,0.5942648000200279,True,30,0
KN-M-23M23S1,483,training,89,↑,up,↑,0.5246866999659687,True,30,1
KN-M-23M23S1,484,experiment,78,→,right,→,0.8774146999930963,True,30,1
KN-M-23M23S1,485,experiment,71,↑,up,↑,0.5544453000184149,True,30,1
KN-M-23M23S1,486,experiment,79,→,right,→,0.5615047999890521,True,30,1
KN-M-23M23S1,487,experiment,54,↓,down,↓,0.5127739000017755,True,30,1
KN-M-23M23S1,488,experiment,59,→,right,→,0.4885405999957584,True,30,1
KN-M-23M23S1,489,experiment,105,↑,up,↑,0.529499800002668,True,30,1
KN-M-23M23S1,490,experiment,62,↓,down,↓,0.5032358000171371,True,30,1
KN-M-23M23S1,491,experiment,85,↓,down,↓,0.494781699962914,True,30,1
KN-M-23M23S1,492,experiment,81,→,left,←,0.4014822000171989,False,30,1
KN-M-23M23S1,493,experiment,74,←,left,←,0.5024365000426769,True,30,0
KN-M-23M23S1,494,experiment,90,↓,down,↓,0.4603221000288613,True,30,1
KN-M-23M23S1,495,experiment,104,←,left,←,0.5348308000247926,True,30,1
KN-M-23M23S1,496,experiment,106,→,right,→,0.43829670001287013,True,30,1
KN-M-23M23S1,497,experiment,52,↓,up,↑,0.6988879999844357,False,30,1
KN-M-23M23S1,498,experiment,51,↑,up,↑,0.5574527999851853,True,30,1
KN-M-23M23S1,499,experiment,100,↑,up,↑,0.5497018999885768,True,30,1
KN-M-23M23S1,500,experiment,56,↓,down,↓,0.5325880000018515,True,30,1
KN-M-23M23S1,501,experiment,83,←,left,←,0.7473083000513725,True,30,1
KN-M-23M23S1,502,experiment,67,←,left,←,0.6785859999945387,True,30,1
KN-M-23M23S1,503,experiment,91,←,left,←,0.5409265999915078,True,30,1
KN-M-23M23S1,504,experiment,66,↑,left,←,1.697317500016652,False,30,1
KN-M-23M23S1,505,experiment,68,→,right,→,0.4782286999979988,True,30,1
KN-M-23M23S1,506,experiment,97,→,left,←,0.6985514999832958,False,30,1
KN-M-23M23S1,507,experiment,82,↑,up,↑,0.6668184999725781,True,30,1
KN-M-23M23S1,508,experiment,63,↓,down,↓,0.5150882000452839,True,30,1
KN-M-23M23S1,509,experiment,102,→,right,→,0.5319078999455087,True,30,1
KN-M-23M23S1,510,experiment,89,→,right,→,0.4566981999669224,True,30,1
KN-M-23M23S1,511,experiment,61,←,left,←,0.4416108999866992,True,30,1
KN-M-23M23S1,512,experiment,76,→,right,→,0.6470917999977246,True,30,1
KN-M-23M23S1,513,experiment,101,↓,down,↓,0.5866902999696322,True,30,1
KN-M-23M23S1,514,experiment,103,←,left,←,0.5287714000442065,True,30,1
KN-M-23M23S1,515,experiment,75,↑,up,↑,0.5862083000247367,True,30,1
KN-M-23M23S1,516,experiment,99,→,right,→,0.7456233000266366,True,30,1
KN-M-23M23S1,517,experiment,49,↑,up,↑,0.6912862999597564,True,30,1
KN-M-23M23S1,518,experiment,55,↑,up,↑,0.5732669000281021,True,30,1
KN-M-23M23S1,519,experiment,86,→,left,←,0.5290786999976262,False,30,1
KN-M-23M23S1,520,experiment,93,↓,down,↓,0.508471000008285,True,30,1
KN-M-23M23S1,521,experiment,108,↑,up,↑,1.284110900014639,True,30,1
KN-M-23M23S1,522,experiment,84,↓,down,↓,0.5241961000137962,True,30,1
KN-M-23M23S1,523,experiment,80,→,right,→,0.5721157999942079,True,30,1
KN-M-23M23S1,524,experiment,87,→,right,→,0.5919739999808371,True,30,1
KN-M-23M23S1,525,experiment,73,→,right,→,0.5677129999967292,True,30,1
KN-M-23M23S1,526,experiment,65,↓,down,↓,0.4916772000142373,True,30,1
KN-M-23M23S1,527,experiment,88,↑,up,↑,0.49783690000185743,True,30,1
KN-M-23M23S1,528,experiment,58,→,right,→,0.4345072000287473,True,30,1
KN-M-23M23S1,529,experiment,92,↓,up,↑,0.46589930000482127,False,30,1
KN-M-23M23S1,530,experiment,77,←,left,←,0.5410889000049792,True,30,1
KN-M-23M23S1,531,experiment,53,↑,up,↑,0.565945099981036,True,30,1
KN-M-23M23S1,532,experiment,70,↓,no_key,no_letter,-1.0,False,30,1
KN-M-23M23S1,533,experiment,64,→,right,→,0.44493459997465834,True,30,1
KN-M-23M23S1,534,experiment,60,↑,up,↑,0.5505867999745533,True,30,1
KN-M-23M23S1,535,experiment,48,↓,down,↓,0.5523806000128388,True,30,1
KN-M-23M23S1,536,experiment,72,←,left,←,0.4902746999869123,True,30,1
KN-M-23M23S1,537,experiment,95,←,left,←,0.3926332999835722,True,30,1
KN-M-23M23S1,538,experiment,94,→,left,←,0.3680608999566175,False,30,0
KN-M-23M23S1,539,experiment,96,↓,down,↓,0.5192951999488287,True,30,0
KN-M-23M23S1,540,experiment,107,→,right,→,0.3842741000116803,True,30,1
KN-M-23M23S1,541,experiment,57,→,right,→,0.5800057000014931,True,30,0
KN-M-23M23S1,542,experiment,69,←,left,←,0.5413478999980725,True,30,1
KN-M-23M23S1,543,experiment,98,←,left,←,0.5025646999711171,True,30,1
KN-M-23M23S1,544,experiment,50,↓,down,↓,0.5538347999681719,True,30,1
KN-M-23M23S1,545,training,88,←,left,←,0.4744592999923043,True,30,0
KN-M-23M23S1,546,training,79,→,right,→,0.48484829999506474,True,30,1
KN-M-23M23S1,547,experiment,86,↓,down,↓,0.5006266999989748,True,30,1
KN-M-23M23S1,548,experiment,100,↓,down,↓,0.48671120003564283,True,30,1
KN-M-23M23S1,549,experiment,67,→,right,→,0.5409433000022545,True,30,1
KN-M-23M23S1,550,experiment,48,←,left,←,0.40102830005344003,True,30,1
KN-M-23M23S1,551,experiment,53,←,left,←,0.6449729999876581,True,30,0
KN-M-23M23S1,552,experiment,94,↑,up,↑,0.6355841000331566,True,30,1
KN-M-23M23S1,553,experiment,61,→,right,→,0.48575569997774437,True,30,1
KN-M-23M23S1,554,experiment,74,↑,up,↑,0.44980080000823364,True,30,1
KN-M-23M23S1,555,experiment,72,↓,down,↓,0.5272106999764219,True,30,1
KN-M-23M23S1,556,experiment,77,←,left,←,0.43261590000474826,True,30,1
KN-M-23M23S1,557,experiment,64,←,left,←,0.49738420004723594,True,30,1
KN-M-23M23S1,558,experiment,84,↓,down,↓,0.5371084000216797,True,30,1
KN-M-23M23S1,559,experiment,85,↓,down,↓,0.7672029999666847,True,30,1
KN-M-23M23S1,560,experiment,90,↓,down,↓,0.46636919997399673,True,30,1
KN-M-23M23S1,561,experiment,81,←,left,←,0.44438760000048205,True,30,1
KN-M-23M23S1,562,experiment,55,→,right,→,0.4797466000309214,True,30,1
KN-M-23M23S1,563,experiment,104,↑,up,↑,0.8415870999451727,True,30,1
KN-M-23M23S1,564,experiment,108,←,left,←,0.5554083999595605,True,30,1
KN-M-23M23S1,565,experiment,99,↑,up,↑,0.5879022000008263,True,30,1
KN-M-23M23S1,566,experiment,89,↓,down,↓,0.4700386000331491,True,30,1
KN-M-23M23S1,567,experiment,63,↓,up,↑,0.8222664000350051,False,30,1
KN-M-23M23S1,568,experiment,69,→,right,→,0.4859685000265017,True,30,1
KN-M-23M23S1,569,experiment,60,↓,down,↓,0.5186383999534883,True,30,1
KN-M-23M23S1,570,experiment,50,↓,no_key,no_letter,-1.0,False,30,1
KN-M-23M23S1,571,experiment,95,↑,up,↑,0.5563082000007853,True,30,1
KN-M-23M23S1,572,experiment,88,←,no_key,no_letter,-1.0,False,30,1
KN-M-23M23S1,573,experiment,75,↑,up,↑,0.4339017000165768,True,30,1
KN-M-23M23S1,574,experiment,93,↓,down,↓,0.5452662999741733,True,30,1
KN-M-23M23S1,575,experiment,49,↑,down,↓,0.6671005000243895,False,30,1
KN-M-23M23S1,576,experiment,80,↑,up,↑,0.4854856000165455,True,30,1
KN-M-23M23S1,577,experiment,58,↑,up,↑,0.5432781000272371,True,30,1
KN-M-23M23S1,578,experiment,103,→,right,→,0.686714600014966,True,30,1
KN-M-23M23S1,579,experiment,66,↓,down,↓,0.5413027000031434,True,30,1
KN-M-23M23S1,580,experiment,87,↑,up,↑,0.5218956000171602,True,30,1
KN-M-23M23S1,581,experiment,73,←,left,←,0.5005062999553047,True,30,1
KN-M-23M23S1,582,experiment,96,↓,down,↓,0.5839569999952801,True,30,1
KN-M-23M23S1,583,experiment,62,→,right,→,0.5082857999950647,True,30,1
KN-M-23M23S1,584,experiment,91,→,right,→,0.5606043000007048,True,30,1
KN-M-23M23S1,585,experiment,82,←,left,←,0.7027976000099443,True,30,1
KN-M-23M23S1,586,experiment,54,↑,up,↑,0.6406823000288568,True,30,1
KN-M-23M23S1,587,experiment,71,↓,down,↓,0.5508386999717914,True,30,1
KN-M-23M23S1,588,experiment,78,→,right,→,0.6228350000455976,True,30,1
KN-M-23M23S1,589,experiment,106,↑,up,↑,0.586085400020238,True,30,1
KN-M-23M23S1,590,experiment,59,↓,down,↓,0.5187422999879345,True,30,1
KN-M-23M23S1,591,experiment,97,↓,down,↓,0.505388599995058,True,30,1
KN-M-23M23S1,592,experiment,79,↑,up,↑,0.45827770000323653,True,30,1
KN-M-23M23S1,593,experiment,102,↓,down,↓,0.5338100999942981,True,30,1
KN-M-23M23S1,594,experiment,70,↓,down,↓,0.4571989999967627,True,30,1
KN-M-23M23S1,595,experiment,98,←,left,←,0.45373729994753376,True,30,1
KN-M-23M23S1,596,experiment,76,↓,down,↓,0.42589909996604547,True,30,1
KN-M-23M23S1,597,experiment,107,↓,down,↓,0.4526159000233747,True,30,0
KN-M-23M23S1,598,experiment,65,↓,down,↓,0.42984410002827644,True,30,1
KN-M-23M23S1,599,experiment,57,↓,no_key,no_letter,-1.0,False,30,1
KN-M-23M23S1,600,experiment,68,←,no_key,no_letter,-1.0,False,30,1
KN-M-23M23S1,601,experiment,92,↑,down,↓,0.3841357999481261,False,30,1
KN-M-23M23S1,602,experiment,51,←,right,→,0.5038828999968246,False,30,0
KN-M-23M23S1,603,experiment,52,←,left,←,0.6184593999641947,True,30,1
KN-M-23M23S1,604,experiment,56,←,left,←,0.5509316999814473,True,30,1
KN-M-23M23S1,605,experiment,101,↑,up,↑,0.5269943000166677,True,30,1
KN-M-23M23S1,606,experiment,83,↓,down,↓,0.5659590999712236,True,30,1
KN-M-23M23S1,607,experiment,105,↓,down,↓,0.5237191000487655,True,30,1
KN-M-23M23S1,608,training,56,←,left,←,0.4300175000098534,True,30,0
KN-M-23M23S1,609,training,98,↓,down,↓,0.46764700004132465,True,30,1
KN-M-23M23S1,610,experiment,103,↓,down,↓,0.40116090001538396,True,30,1
KN-M-23M23S1,611,experiment,83,↑,up,↑,0.6180773000232875,True,30,0
KN-M-23M23S1,612,experiment,87,↓,down,↓,1.075984499999322,True,30,1
KN-M-23M23S1,613,experiment,75,↓,down,↓,0.4318483000388369,True,30,1
KN-M-23M23S1,614,experiment,99,→,right,→,0.5170624000020325,True,30,1
KN-M-23M23S1,615,experiment,80,←,left,←,0.47744930000044405,True,30,1
KN-M-23M23S1,616,experiment,54,↑,up,↑,0.4883892000070773,True,30,1
KN-M-23M23S1,617,experiment,55,↑,up,↑,0.5065073999576271,True,30,1
KN-M-23M23S1,618,experiment,92,→,right,→,0.5110157000017352,True,30,1
KN-M-23M23S1,619,experiment,98,↓,down,↓,0.6017437999835238,True,30,1
KN-M-23M23S1,620,experiment,53,→,right,→,0.503995799983386,True,30,1
KN-M-23M23S1,621,experiment,95,↑,up,↑,0.531838399998378,True,30,1
KN-M-23M23S1,622,experiment,91,↓,down,↓,0.5838930000318214,True,30,1
KN-M-23M23S1,623,experiment,106,↑,up,↑,0.5649154999991879,True,30,1
KN-M-23M23S1,624,experiment,66,↑,up,↑,0.48005379998357967,True,30,1
KN-M-23M23S1,625,experiment,108,→,right,→,0.5208253000164405,True,30,1
KN-M-23M23S1,626,experiment,59,↓,down,↓,0.5120628000004217,True,30,1
KN-M-23M23S1,627,experiment,102,←,left,←,0.4733450000057928,True,30,1
KN-M-23M23S1,628,experiment,51,←,left,←,0.4850489000091329,True,30,1
KN-M-23M23S1,629,experiment,65,↑,up,↑,0.5558958000037819,True,30,1
KN-M-23M23S1,630,experiment,89,→,right,→,0.5194840999902226,True,30,1
KN-M-23M23S1,631,experiment,56,↑,up,↑,0.47232629999052733,True,30,1
KN-M-23M23S1,632,experiment,77,←,left,←,0.482979400025215,True,30,1
KN-M-23M23S1,633,experiment,70,→,right,→,0.4801020000013523,True,30,1
KN-M-23M23S1,634,experiment,79,→,left,←,0.3927920000278391,False,30,1
KN-M-23M23S1,635,experiment,71,←,left,←,0.5468110999790952,True,30,0
KN-M-23M23S1,636,experiment,67,↓,down,↓,0.5741731000016443,True,30,1
KN-M-23M23S1,637,experiment,101,↑,up,↑,0.5648001000517979,True,30,1
KN-M-23M23S1,638,experiment,93,↓,down,↓,0.5272607000079006,True,30,1
KN-M-23M23S1,639,experiment,107,→,right,→,0.7098653000430204,True,30,1
KN-M-23M23S1,640,experiment,74,↑,up,↑,0.5288474999833852,True,30,1
KN-M-23M23S1,641,experiment,88,↑,up,↑,0.47016580001218244,True,30,1
KN-M-23M23S1,642,experiment,68,↓,down,↓,0.47663340001599863,True,30,1
KN-M-23M23S1,643,experiment,104,→,right,→,0.5193987000384368,True,30,1
KN-M-23M23S1,644,experiment,69,↑,up,↑,0.4827950999606401,True,30,1
KN-M-23M23S1,645,experiment,78,↓,down,↓,0.5571152999764308,True,30,1
KN-M-23M23S1,646,experiment,60,←,no_key,no_letter,-1.0,False,30,1
KN-M-23M23S1,647,experiment,49,↑,right,→,1.3410623000236228,False,30,1
KN-M-23M23S1,648,experiment,57,→,right,→,0.4843700000201352,True,30,1
KN-M-23M23S1,649,experiment,58,←,left,←,0.701253600011114,True,30,1
KN-M-23M23S1,650,experiment,97,→,left,←,0.38356129999738187,False,30,1
KN-M-23M23S1,651,experiment,63,→,no_key,no_letter,-1.0,False,30,0
KN-M-23M23S1,652,experiment,76,→,right,→,0.5171682000509463,True,30,1
KN-M-23M23S1,653,experiment,82,↑,up,↑,0.6050384000409395,True,30,1
KN-M-23M23S1,654,experiment,81,↓,down,↓,0.5293923999997787,True,30,1
KN-M-23M23S1,655,experiment,85,→,right,→,0.4396347000147216,True,30,1
KN-M-23M23S1,656,experiment,84,→,right,→,0.4816825999878347,True,30,1
KN-M-23M23S1,657,experiment,61,↓,down,↓,0.4420667000231333,True,30,1
KN-M-23M23S1,658,experiment,72,↑,up,↑,0.5036554000107571,True,30,1
KN-M-23M23S1,659,experiment,52,↑,no_key,no_letter,-1.0,False,30,1
KN-M-23M23S1,660,experiment,94,←,left,←,0.5498310999828391,True,30,1
KN-M-23M23S1,661,experiment,62,←,left,←,0.5388937999960035,True,30,1
KN-M-23M23S1,662,experiment,86,←,left,←,0.5040777000249363,True,30,1
KN-M-23M23S1,663,experiment,48,↓,down,↓,0.6113281000289135,True,30,1
KN-M-23M23S1,664,experiment,90,↑,up,↑,0.48490969999693334,True,30,1
KN-M-23M23S1,665,experiment,96,→,right,→,0.6174592999741435,True,30,1
KN-M-23M23S1,666,experiment,105,→,right,→,0.4614255999913439,True,30,1
KN-M-23M23S1,667,experiment,50,→,right,→,0.4820213000057265,True,30,1
KN-M-23M23S1,668,experiment,73,↓,down,↓,0.5261732999933884,True,30,1
KN-M-23M23S1,669,experiment,64,↓,down,↓,0.5234270999790169,True,30,1
KN-M-23M23S1,670,experiment,100,↑,up,↑,0.4930195999913849,True,30,1
KN-M-23M23S1,671,training,60,↑,up,↑,0.5264127000118606,True,29,0
KN-M-23M23S1,672,training,106,↓,down,↓,0.5737440000521019,True,29,1
KN-M-23M23S1,673,experiment,88,↑,up,↑,0.5210784000228159,True,29,1
KN-M-23M23S1,674,experiment,57,→,right,→,0.6008586999960244,True,29,1
KN-M-23M23S1,675,experiment,87,↓,down,↓,0.4435809999704361,True,29,1
KN-M-23M23S1,676,experiment,68,↑,up,↑,0.5390265000169165,True,29,1
KN-M-23M23S1,677,experiment,98,←,left,←,0.4365168000222184,True,29,1
KN-M-23M23S1,678,experiment,104,↓,down,↓,0.4957337999949232,True,29,1
KN-M-23M23S1,679,experiment,89,→,right,→,0.6779501000419259,True,29,1
KN-M-23M23S1,680,experiment,95,→,right,→,0.57114149996778,True,29,1
KN-M-23M23S1,681,experiment,52,↑,down,↓,0.4589226999669336,False,29,1
KN-M-23M23S1,682,experiment,63,←,left,←,0.5790483999880962,True,29,1
KN-M-23M23S1,683,experiment,100,←,left,←,0.44236010004533455,True,29,1
KN-M-23M23S1,684,experiment,85,→,right,→,0.44435609999345616,True,29,1
KN-M-23M23S1,685,experiment,82,↑,up,↑,0.5588248000130989,True,29,1
KN-M-23M23S1,686,experiment,106,→,right,→,0.6848087999969721,True,29,1
KN-M-23M23S1,687,experiment,70,←,left,←,0.5620448999688961,True,29,1
KN-M-23M23S1,688,experiment,66,↓,down,↓,0.6139744000392966,True,29,1
KN-M-23M23S1,689,experiment,72,↑,up,↑,0.5803318999824114,True,29,1
KN-M-23M23S1,690,experiment,93,↓,down,↓,0.4697710999753326,True,29,1
KN-M-23M23S1,691,experiment,107,↑,up,↑,0.5111478000180796,True,29,1
KN-M-23M23S1,692,experiment,77,↓,down,↓,0.4971584999584593,True,29,1
KN-M-23M23S1,693,experiment,81,→,left,←,0.4897074000327848,False,29,1
KN-M-23M23S1,694,experiment,62,→,right,→,0.5053133000037633,True,29,1
KN-M-23M23S1,695,experiment,92,↓,down,↓,0.5496955999988131,True,29,1
KN-M-23M23S1,696,experiment,80,→,right,→,0.652894800005015,True,29,1
KN-M-23M23S1,697,experiment,58,→,right,→,0.6632618000148796,True,29,1
KN-M-23M23S1,698,experiment,101,→,right,→,0.6188251999556087,True,29,1
KN-M-23M23S1,699,experiment,59,↑,up,↑,0.5025276000378653,True,29,1
KN-M-23M23S1,700,experiment,73,←,left,←,0.4418236000346951,True,29,1
KN-M-23M23S1,701,experiment,105,↓,down,↓,0.4845801000483334,True,29,1
KN-M-23M23S1,702,experiment,79,↑,up,↑,0.5907368000480346,True,29,1
KN-M-23M23S1,703,experiment,60,←,left,←,0.4832318999688141,True,29,1
KN-M-23M23S1,704,experiment,83,←,right,→,0.41229250002652407,False,29,1
KN-M-23M23S1,705,experiment,86,←,left,←,0.6141153000062332,True,29,0
KN-M-23M23S1,706,experiment,84,→,right,→,0.4253036000300199,True,29,1
KN-M-23M23S1,707,experiment,91,→,right,→,0.6655978999915533,True,29,1
KN-M-23M23S1,708,experiment,67,↑,up,↑,0.5123982999939471,True,29,1
KN-M-23M23S1,709,experiment,51,←,left,←,0.43524130003061146,True,29,1
KN-M-23M23S1,710,experiment,56,↑,up,↑,0.5026293999981135,True,29,1
KN-M-23M23S1,711,experiment,94,→,right,→,0.45093410002300516,True,29,1
KN-M-23M23S1,712,experiment,108,←,left,←,0.6206192999961786,True,29,1
KN-M-23M23S1,713,experiment,64,←,left,←,0.4230079999542795,True,29,1
KN-M-23M23S1,714,experiment,61,←,left,←,0.41763799998443574,True,29,1
KN-M-23M23S1,715,experiment,69,→,left,←,0.45660989999305457,False,29,1
KN-M-23M23S1,716,experiment,48,↑,down,↓,0.5662631999584846,False,29,1
KN-M-23M23S1,717,experiment,90,↑,up,↑,0.5217051000217907,True,29,1
KN-M-23M23S1,718,experiment,99,→,right,→,0.4989725000341423,True,29,1
KN-M-23M23S1,719,experiment,65,↑,up,↑,0.48098699998809025,True,29,1
KN-M-23M23S1,720,experiment,49,↓,down,↓,0.604963099991437,True,29,1
KN-M-23M23S1,721,experiment,78,→,right,→,0.474576500011608,True,29,1
KN-M-23M23S1,722,experiment,75,←,right,→,0.42265409999527037,False,29,1
KN-M-23M23S1,723,experiment,97,↑,up,↑,0.5247295000008307,True,29,1
KN-M-23M23S1,724,experiment,103,→,right,→,0.8128943999763578,True,29,1
KN-M-23M23S1,725,experiment,54,←,right,→,0.6420131000340916,False,29,1
KN-M-23M23S1,726,experiment,71,↑,up,↑,0.5045250999974087,True,29,1
KN-M-23M23S1,727,experiment,74,→,right,→,0.515238199965097,True,29,1
KN-M-23M23S1,728,experiment,76,↑,up,↑,0.4849040000117384,True,29,1
KN-M-23M23S1,729,experiment,55,↓,down,↓,0.5591520000016317,True,29,1
KN-M-23M23S1,730,experiment,96,←,left,←,0.49635259999195114,True,29,1
KN-M-23M23S1,731,experiment,102,←,left,←,0.6264196000411175,True,29,1
KN-M-23M23S1,732,experiment,50,→,right,→,0.5045899000251666,True,29,1
KN-M-23M23S1,733,experiment,53,↑,up,↑,0.530635799979791,True,29,1
KN-M-23M23S1,734,training,62,←,left,←,0.5251655000029132,True,29,0
KN-M-23M23S1,735,training,65,↓,down,↓,0.490425200026948,True,29,1
KN-M-23M23S1,736,experiment,98,←,left,←,0.4377699999604374,True,29,1
KN-M-23M23S1,737,experiment,96,←,right,→,0.45212790003279224,False,29,1
KN-M-23M23S1,738,experiment,64,→,right,→,0.7002978000091389,True,29,1
KN-M-23M23S1,739,experiment,108,↓,down,↓,0.4441852999734692,True,29,1
KN-M-23M23S1,740,experiment,101,←,left,←,0.4886751000303775,True,29,1
KN-M-23M23S1,741,experiment,59,↑,up,↑,0.5609254000009969,True,29,1
KN-M-23M23S1,742,experiment,102,←,left,←,0.4723744000075385,True,29,1
KN-M-23M23S1,743,experiment,76,→,no_key,no_letter,-1.0,False,29,1
KN-M-23M23S1,744,experiment,103,↓,down,↓,0.5326742000179365,True,29,1
KN-M-23M23S1,745,experiment,48,→,right,→,0.5750091999652795,True,29,1
KN-M-23M23S1,746,experiment,60,↓,down,↓,0.45209939999040216,True,29,1
KN-M-23M23S1,747,experiment,93,↑,up,↑,0.5785548000130802,True,29,1
KN-M-23M23S1,748,experiment,50,→,right,→,0.5627835000050254,True,29,1
KN-M-23M23S1,749,experiment,106,↑,up,↑,0.46450840000761673,True,29,1
KN-M-23M23S1,750,experiment,61,→,right,→,0.4487995999515988,True,29,1
KN-M-23M23S1,751,experiment,83,↑,up,↑,0.4591630999930203,True,29,1
KN-M-23M23S1,752,experiment,95,←,left,←,0.5608389000408351,True,29,1
KN-M-23M23S1,753,experiment,92,↑,up,↑,0.44362470001215115,True,29,1
KN-M-23M23S1,754,experiment,73,←,left,←,0.5293050000327639,True,29,1
KN-M-23M23S1,755,experiment,63,↓,down,↓,0.5106904999702238,True,29,1
KN-M-23M23S1,756,experiment,104,↑,up,↑,0.5434362999512814,True,29,1
KN-M-23M23S1,757,experiment,100,←,left,←,0.47225429996615276,True,29,1
KN-M-23M23S1,758,experiment,52,←,left,←,0.5155846000416204,True,29,1
KN-M-23M23S1,759,experiment,53,↑,up,↑,0.5172141999937594,True,29,1
KN-M-23M23S1,760,experiment,58,→,right,→,0.5088779000216164,True,29,1
KN-M-23M23S1,761,experiment,68,←,left,←,1.5217018999974243,True,29,1
KN-M-23M23S1,762,experiment,69,→,right,→,0.48557400004938245,True,29,1
KN-M-23M23S1,763,experiment,67,↑,up,↑,0.5074138000491075,True,29,1
KN-M-23M23S1,764,experiment,70,←,left,←,0.5112785999663174,True,29,1
KN-M-23M23S1,765,experiment,72,↓,down,↓,0.5388856999925338,True,29,1
KN-M-23M23S1,766,experiment,51,↓,down,↓,0.6038604999775998,True,29,1
KN-M-23M23S1,767,experiment,62,→,right,→,0.5590039000380784,True,29,1
KN-M-23M23S1,768,experiment,85,←,left,←,0.5319784000166692,True,29,1
KN-M-23M23S1,769,experiment,79,↑,up,↑,0.6362533000065014,True,29,1
KN-M-23M23S1,770,experiment,65,→,right,→,1.1808381999726407,True,29,1
KN-M-23M23S1,771,experiment,81,←,left,←,0.4659608999500051,True,29,1
KN-M-23M23S1,772,experiment,49,←,left,←,0.6228310999576934,True,29,1
KN-M-23M23S1,773,experiment,66,↓,down,↓,0.5035778000019491,True,29,1
KN-M-23M23S1,774,experiment,71,←,left,←,0.49984299996867776,True,29,1
KN-M-23M23S1,775,experiment,90,←,left,←,0.47352180001325905,True,29,1
KN-M-23M23S1,776,experiment,99,←,left,←,0.5330312000005506,True,29,1
KN-M-23M23S1,777,experiment,86,↑,up,↑,0.5389515000279061,True,29,1
KN-M-23M23S1,778,experiment,74,↓,down,↓,0.556274599977769,True,29,1
KN-M-23M23S1,779,experiment,57,←,left,←,0.45864379999693483,True,29,1
KN-M-23M23S1,780,experiment,88,↓,down,↓,0.47475890000350773,True,29,1
KN-M-23M23S1,781,experiment,107,↓,left,←,1.2039145000162534,False,29,1
KN-M-23M23S1,782,experiment,105,↓,down,↓,0.4805585999856703,True,29,1
KN-M-23M23S1,783,experiment,75,←,left,←,0.46768629999132827,True,29,1
KN-M-23M23S1,784,experiment,94,↓,down,↓,0.46543530002236366,True,29,1
KN-M-23M23S1,785,experiment,55,↑,up,↑,0.5722013000049628,True,29,1
KN-M-23M23S1,786,experiment,89,←,left,←,0.45549530000425875,True,29,1
KN-M-23M23S1,787,experiment,80,→,right,→,0.6657992999535054,True,29,1
KN-M-23M23S1,788,experiment,78,↑,up,↑,0.6130879000411369,True,29,1
KN-M-23M23S1,789,experiment,87,↑,up,↑,0.44751470000483096,True,29,1
KN-M-23M23S1,790,experiment,54,↑,up,↑,1.8674885000218637,True,29,1
KN-M-23M23S1,791,experiment,91,↑,up,↑,0.5137914000079036,True,29,1
KN-M-23M23S1,792,experiment,97,←,right,→,0.8365906999679282,False,29,1
KN-M-23M23S1,793,experiment,77,↑,up,↑,0.6571914000087418,True,29,1
KN-M-23M23S1,794,experiment,56,↓,down,↓,0.5799295000033453,True,29,1
KN-M-23M23S1,795,experiment,84,←,left,←,0.6245671000215225,True,29,1
KN-M-23M23S1,796,experiment,82,→,right,→,0.6675337000051513,True,29,1
KN-M-23M23S1,797,training,94,↑,up,↑,0.7668130000238307,True,28,0
KN-M-23M23S1,798,training,91,←,left,←,0.40218680002726614,True,28,1
KN-M-23M23S1,799,experiment,49,↑,up,↑,0.5126103999791667,True,28,0
KN-M-23M23S1,800,experiment,105,↑,up,↑,0.4331318000331521,True,28,1
KN-M-23M23S1,801,experiment,107,→,right,→,0.4916939999675378,True,28,1
KN-M-23M23S1,802,experiment,65,→,right,→,0.4502242000307888,True,28,1
KN-M-23M23S1,803,experiment,67,→,right,→,0.5137589999940246,True,28,1
KN-M-23M23S1,804,experiment,61,↓,down,↓,0.5442027000244707,True,28,1
KN-M-23M23S1,805,experiment,73,→,right,→,0.5060263000195846,True,28,1
KN-M-23M23S1,806,experiment,48,↑,up,↑,0.5416574000264518,True,28,1
KN-M-23M23S1,807,experiment,56,↑,up,↑,0.4849343999521807,True,28,1
KN-M-23M23S1,808,experiment,83,→,right,→,0.4458767999894917,True,28,1
KN-M-23M23S1,809,experiment,71,→,right,→,0.4840745000401512,True,28,1
KN-M-23M23S1,810,experiment,64,↓,down,↓,0.627176399983,True,28,1
KN-M-23M23S1,811,experiment,98,↑,up,↑,0.5771933000069112,True,28,1
KN-M-23M23S1,812,experiment,53,↑,up,↑,0.4884209000156261,True,28,1
KN-M-23M23S1,813,experiment,100,→,right,→,0.5790681000216864,True,28,1
KN-M-23M23S1,814,experiment,103,↓,down,↓,0.6497358999913558,True,28,1
KN-M-23M23S1,815,experiment,101,←,left,←,0.5330242000054568,True,28,1
KN-M-23M23S1,816,experiment,102,↓,down,↓,0.46941929997410625,True,28,1
KN-M-23M23S1,817,experiment,68,↑,up,↑,0.6358112000161782,True,28,1
KN-M-23M23S1,818,experiment,58,→,right,→,0.5110991999972612,True,28,1
KN-M-23M23S1,819,experiment,91,→,left,←,0.4759802000480704,False,28,1
KN-M-23M23S1,820,experiment,106,↑,up,↑,0.621588799986057,True,28,1
KN-M-23M23S1,821,experiment,75,↓,down,↓,0.5390543999965303,True,28,1
KN-M-23M23S1,822,experiment,60,↓,down,↓,0.649058899958618,True,28,1
KN-M-23M23S1,823,experiment,92,←,left,←,0.5044264000025578,True,28,1
KN-M-23M23S1,824,experiment,54,←,left,←,0.6181844000238925,True,28,1
KN-M-23M23S1,825,experiment,89,→,left,←,0.5953437000280246,False,28,1
KN-M-23M23S1,826,experiment,94,→,right,→,0.5082017999957316,True,28,1
KN-M-23M23S1,827,experiment,80,←,left,←,0.45299229997908697,True,28,1
KN-M-23M23S1,828,experiment,81,↑,up,↑,0.5115340999909677,True,28,1
KN-M-23M23S1,829,experiment,79,←,left,←,0.4093055999837816,True,28,1
KN-M-23M23S1,830,experiment,95,↓,down,↓,0.5439658000250347,True,28,1
KN-M-23M23S1,831,experiment,74,←,left,←,0.4814559000078589,True,28,1
KN-M-23M23S1,832,experiment,104,↓,down,↓,0.49914590001571923,True,28,1
KN-M-23M23S1,833,experiment,55,→,left,←,0.5086137999896891,False,28,1
KN-M-23M23S1,834,experiment,52,↓,down,↓,0.5345503999851644,True,28,1
KN-M-23M23S1,835,experiment,86,→,right,→,0.4366130999987945,True,28,1
KN-M-23M23S1,836,experiment,51,←,left,←,0.5297992999549024,True,28,1
KN-M-23M23S1,837,experiment,62,→,right,→,0.6877042000414804,True,28,1
KN-M-23M23S1,838,experiment,82,←,right,→,0.5284381999517791,False,28,1
KN-M-23M23S1,839,experiment,93,↑,up,↑,0.587913999974262,True,28,1
KN-M-23M23S1,840,experiment,69,↑,up,↑,0.5815926999785006,True,28,1
KN-M-23M23S1,841,experiment,72,→,right,→,0.6058213000069372,True,28,1
KN-M-23M23S1,842,experiment,76,↑,up,↑,0.45180789998266846,True,28,1
KN-M-23M23S1,843,experiment,85,↑,up,↑,0.47724249999737367,True,28,1
KN-M-23M23S1,844,experiment,96,↑,up,↑,0.8581225000089034,True,28,1
KN-M-23M23S1,845,experiment,50,←,left,←,0.48685919999843463,True,28,1
KN-M-23M23S1,846,experiment,59,↓,down,↓,0.6157336000469513,True,28,1
KN-M-23M23S1,847,experiment,63,↓,down,↓,0.5055165000376292,True,28,1
KN-M-23M23S1,848,experiment,99,→,right,→,0.5799103999743238,True,28,1
KN-M-23M23S1,849,experiment,108,←,right,→,0.656141999992542,False,28,1
KN-M-23M23S1,850,experiment,87,↓,up,↑,0.6726422000210732,False,28,1
KN-M-23M23S1,851,experiment,70,←,left,←,0.5020898000220768,True,28,1
KN-M-23M23S1,852,experiment,78,←,left,←,0.4798425000044517,True,28,1
KN-M-23M23S1,853,experiment,77,→,right,→,0.4905404000310227,True,28,1
KN-M-23M23S1,854,experiment,88,↓,down,↓,0.4572289999923669,True,28,1
KN-M-23M23S1,855,experiment,66,←,left,←,0.5047132999752648,True,28,1
KN-M-23M23S1,856,experiment,90,↓,down,↓,0.5180246999952942,True,28,1
KN-M-23M23S1,857,experiment,84,↑,up,↑,0.5251669000135735,True,28,1
KN-M-23M23S1,858,experiment,57,→,right,→,0.6049062000238337,True,28,1
KN-M-23M23S1,859,experiment,97,←,left,←,0.42015970003558323,True,28,1
KN-M-23M23S1,860,training,57,→,right,→,0.5902249999926426,True,28,0
KN-M-23M23S1,861,training,90,→,right,→,0.42455450003035367,True,28,1
KN-M-23M23S1,862,experiment,85,→,right,→,0.5147962000337429,True,28,1
KN-M-23M23S1,863,experiment,77,←,left,←,0.4282202000031248,True,28,1
KN-M-23M23S1,864,experiment,61,→,right,→,0.4703944000066258,True,28,1
KN-M-23M23S1,865,experiment,99,←,left,←,0.5543175999773666,True,28,1
KN-M-23M23S1,866,experiment,70,→,left,←,0.4446329000056721,False,28,1
KN-M-23M23S1,867,experiment,84,↑,up,↑,0.5264348000055179,True,28,1
KN-M-23M23S1,868,experiment,67,↓,down,↓,0.5868443000363186,True,28,1
KN-M-23M23S1,869,experiment,87,→,right,→,0.49417119997087866,True,28,1
KN-M-23M23S1,870,experiment,95,←,left,←,0.47467710002092645,True,28,1
KN-M-23M23S1,871,experiment,82,↓,down,↓,0.4681331000174396,True,28,1
KN-M-23M23S1,872,experiment,90,↑,up,↑,0.6511644999845885,True,28,1
KN-M-23M23S1,873,experiment,71,↓,down,↓,0.7372365000192076,True,28,1
KN-M-23M23S1,874,experiment,104,←,left,←,0.5049209999851882,True,28,1
KN-M-23M23S1,875,experiment,81,→,right,→,0.5376489000045694,True,28,1
KN-M-23M23S1,876,experiment,66,↑,up,↑,0.5654557999805547,True,28,1
KN-M-23M23S1,877,experiment,53,↑,up,↑,0.47666529996786267,True,28,1
KN-M-23M23S1,878,experiment,54,↓,down,↓,0.49549330002628267,True,28,1
KN-M-23M23S1,879,experiment,101,↑,up,↑,0.45816139999078587,True,28,1
KN-M-23M23S1,880,experiment,59,↑,up,↑,0.5078656999976374,True,28,1
KN-M-23M23S1,881,experiment,88,←,left,←,0.5137324000243098,True,28,1
KN-M-23M23S1,882,experiment,89,↑,up,↑,0.4631559000117704,True,28,1
KN-M-23M23S1,883,experiment,94,→,right,→,0.500888800015673,True,28,1
KN-M-23M23S1,884,experiment,96,↓,down,↓,0.8088264999678358,True,28,1
KN-M-23M23S1,885,experiment,73,↓,down,↓,0.46364039997570217,True,28,1
KN-M-23M23S1,886,experiment,57,←,left,←,0.4817979999934323,True,28,1
KN-M-23M23S1,887,experiment,107,↑,up,↑,0.5146345000248402,True,28,1
KN-M-23M23S1,888,experiment,108,↑,up,↑,0.8014537999988534,True,28,1
KN-M-23M23S1,889,experiment,62,↑,up,↑,0.46091429999796674,True,28,1
KN-M-23M23S1,890,experiment,69,→,right,→,0.4670662000426091,True,28,1
KN-M-23M23S1,891,experiment,49,←,left,←,0.67193650000263,True,28,1
KN-M-23M23S1,892,experiment,92,↓,down,↓,0.7577180999796838,True,28,1
KN-M-23M23S1,893,experiment,83,←,left,←,0.4834504000027664,True,28,1
KN-M-23M23S1,894,experiment,102,←,left,←,0.5982108000316657,True,28,1
KN-M-23M23S1,895,experiment,74,↓,down,↓,0.5326719000004232,True,28,1
KN-M-23M23S1,896,experiment,65,←,left,←,0.497660499997437,True,28,1
KN-M-23M23S1,897,experiment,56,↓,down,↓,0.5066974000073969,True,28,1
KN-M-23M23S1,898,experiment,55,←,left,←,0.4759932999731973,True,28,1
KN-M-23M23S1,899,experiment,68,↓,down,↓,0.489910600008443,True,28,1
KN-M-23M23S1,900,experiment,105,↓,down,↓,0.507126500015147,True,28,1
KN-M-23M23S1,901,experiment,63,↓,down,↓,0.4494523999746889,True,28,1
KN-M-23M23S1,902,experiment,50,↑,up,↑,0.5985813000006601,True,28,1
KN-M-23M23S1,903,experiment,103,→,right,→,0.5158286999794655,True,28,1
KN-M-23M23S1,904,experiment,51,→,right,→,0.5102080999640748,True,28,1
KN-M-23M23S1,905,experiment,91,↑,up,↑,0.5711260000243783,True,28,1
KN-M-23M23S1,906,experiment,100,↑,up,↑,0.4666436000261456,True,28,1
KN-M-23M23S1,907,experiment,106,↑,up,↑,0.5006384000298567,True,28,1
KN-M-23M23S1,908,experiment,60,←,left,←,0.5724796000286005,True,28,1
KN-M-23M23S1,909,experiment,78,←,left,←,0.5233856000122614,True,28,1
KN-M-23M23S1,910,experiment,79,↓,down,↓,0.5713318000198342,True,28,1
KN-M-23M23S1,911,experiment,64,↑,up,↑,0.4547681999974884,True,28,1
KN-M-23M23S1,912,experiment,76,←,no_key,no_letter,-1.0,False,28,1
KN-M-23M23S1,913,experiment,86,↓,down,↓,0.537909300008323,True,28,1
KN-M-23M23S1,914,experiment,80,↓,down,↓,0.5215182999963872,True,28,1
KN-M-23M23S1,915,experiment,58,↑,up,↑,0.6570946999709122,True,28,1
KN-M-23M23S1,916,experiment,97,↑,up,↑,0.6057692999602295,True,28,1
KN-M-23M23S1,917,experiment,93,→,right,→,0.9502248999779113,True,28,1
KN-M-23M23S1,918,experiment,52,←,left,←,0.790557499974966,True,28,1
KN-M-23M23S1,919,experiment,75,→,right,→,0.5097625000053085,True,28,1
KN-M-23M23S1,920,experiment,72,↓,down,↓,0.5531532999593765,True,28,1
KN-M-23M23S1,921,experiment,48,↓,down,↓,0.4988405000185594,True,28,1
KN-M-23M23S1,922,experiment,98,↑,up,↑,0.5579824000014924,True,28,1
KN-M-23M23S1,923,training,59,↑,up,↑,0.5872057999949902,True,28,0
KN-M-23M23S1,924,training,93,↑,up,↑,0.5167105000000447,True,28,1
KN-M-23M23S1,925,experiment,58,↑,up,↑,0.4524907000013627,True,28,1
KN-M-23M23S1,926,experiment,60,↓,down,↓,0.5909041999839246,True,28,1
KN-M-23M23S1,927,experiment,67,↑,up,↑,0.4878663999843411,True,28,1
KN-M-23M23S1,928,experiment,83,↑,up,↑,0.4645090999547392,True,28,1
KN-M-23M23S1,929,experiment,65,↑,up,↑,0.48039710003649816,True,28,1
KN-M-23M23S1,930,experiment,70,↓,up,↑,0.37566909997258335,False,28,1
KN-M-23M23S1,931,experiment,49,↓,down,↓,0.46132189995842054,True,28,0
KN-M-23M23S1,932,experiment,66,←,left,←,0.42868049995740876,True,28,1
KN-M-23M23S1,933,experiment,81,→,left,←,0.44828180002514273,False,28,1
KN-M-23M23S1,934,experiment,96,↓,down,↓,0.44595409999601543,True,28,1
KN-M-23M23S1,935,experiment,74,→,left,←,1.0749443999957293,False,28,1
KN-M-23M23S1,936,experiment,76,↑,down,↓,1.446213399991393,False,28,1
KN-M-23M23S1,937,experiment,64,→,right,→,0.5347464999649674,True,28,1
KN-M-23M23S1,938,experiment,48,↑,up,↑,0.5130811000126414,True,28,1
KN-M-23M23S1,939,experiment,69,→,right,→,0.5172264000284486,True,28,1
KN-M-23M23S1,940,experiment,50,→,right,→,0.4556128999684006,True,28,1
KN-M-23M23S1,941,experiment,72,↓,left,←,1.8689799000276253,False,28,1
KN-M-23M23S1,942,experiment,105,←,left,←,0.5026582000427879,True,28,1
KN-M-23M23S1,943,experiment,52,→,right,→,0.4974455999908969,True,28,1
KN-M-23M23S1,944,experiment,57,←,left,←,0.6420577999670058,True,28,1
KN-M-23M23S1,945,experiment,92,↓,down,↓,0.5453182000201195,True,28,1
KN-M-23M23S1,946,experiment,93,↑,up,↑,0.5724887000396848,True,28,1
KN-M-23M23S1,947,experiment,82,←,left,←,0.4104556000092998,True,28,1
KN-M-23M23S1,948,experiment,79,↑,up,↑,0.47909319994505495,True,28,1
KN-M-23M23S1,949,experiment,56,↑,up,↑,0.6170357000082731,True,28,1
KN-M-23M23S1,950,experiment,51,→,left,←,0.42335800000000745,False,28,1
KN-M-23M23S1,951,experiment,54,→,right,→,0.6038548999931663,True,28,1
KN-M-23M23S1,952,experiment,63,↓,down,↓,0.542277800035663,True,28,1
KN-M-23M23S1,953,experiment,77,↑,up,↑,0.5584988999762572,True,28,1
KN-M-23M23S1,954,experiment,55,↓,down,↓,0.4859934999840334,True,28,1
KN-M-23M23S1,955,experiment,61,→,right,→,0.4778060999815352,True,28,1
KN-M-23M23S1,956,experiment,88,→,right,→,0.5333997000125237,True,28,1
KN-M-23M23S1,957,experiment,95,→,right,→,0.42430529999546707,True,28,1
KN-M-23M23S1,958,experiment,103,↓,down,↓,0.8044722999911755,True,28,1
KN-M-23M23S1,959,experiment,108,↑,up,↑,0.6078345000278205,True,28,1
KN-M-23M23S1,960,experiment,89,↑,up,↑,0.6018903000513092,True,28,1
KN-M-23M23S1,961,experiment,102,↓,down,↓,0.6711063000257127,True,28,1
KN-M-23M23S1,962,experiment,106,→,right,→,0.41673290001926944,True,28,1
KN-M-23M23S1,963,experiment,59,←,left,←,0.8758964999578893,True,28,1
KN-M-23M23S1,964,experiment,90,→,right,→,0.4585459000081755,True,28,1
KN-M-23M23S1,965,experiment,68,↑,up,↑,0.5057766999816522,True,28,1
KN-M-23M23S1,966,experiment,53,→,left,←,0.7072352999821305,False,28,1
KN-M-23M23S1,967,experiment,73,←,left,←,0.590081200003624,True,28,1
KN-M-23M23S1,968,experiment,91,←,left,←,0.4559881999739446,True,28,1
KN-M-23M23S1,969,experiment,78,↑,up,↑,0.7631808000151068,True,28,1
KN-M-23M23S1,970,experiment,85,↑,up,↑,0.4643832999863662,True,28,1
KN-M-23M23S1,971,experiment,107,↑,up,↑,0.5616669000010006,True,28,1
KN-M-23M23S1,972,experiment,98,→,right,→,0.5303630999987945,True,28,1
KN-M-23M23S1,973,experiment,75,↑,up,↑,0.4759944999823347,True,28,1
KN-M-23M23S1,974,experiment,84,→,right,→,0.4687003000290133,True,28,1
KN-M-23M23S1,975,experiment,101,→,left,←,0.6079477000166662,False,28,1
KN-M-23M23S1,976,experiment,80,←,right,→,0.8686827999772504,False,28,1
KN-M-23M23S1,977,experiment,87,→,right,→,0.444837799994275,True,28,1
KN-M-23M23S1,978,experiment,94,↓,down,↓,0.6595891999895684,True,28,1
KN-M-23M23S1,979,experiment,99,→,right,→,0.4959367000265047,True,28,1
KN-M-23M23S1,980,experiment,104,→,right,→,0.4812548999907449,True,28,1
KN-M-23M23S1,981,experiment,100,→,right,→,0.42028739996021613,True,28,1
KN-M-23M23S1,982,experiment,86,↓,down,↓,0.44643640000140294,True,28,1
KN-M-23M23S1,983,experiment,97,←,left,←,0.49199479998787865,True,28,1
KN-M-23M23S1,984,experiment,62,→,right,→,0.4912672000355087,True,28,1
KN-M-23M23S1,985,experiment,71,↑,up,↑,0.6237460999982432,True,28,1
KN-M-23M23S1,986,training,77,→,right,→,0.4381538999732584,True,28,0
KN-M-23M23S1,987,training,85,→,right,→,0.46401090000290424,True,28,1
KN-M-23M23S1,988,experiment,69,←,no_key,no_letter,-1.0,False,28,1
KN-M-23M23S1,989,experiment,98,↑,up,↑,0.7050004000193439,True,28,1
KN-M-23M23S1,990,experiment,63,→,right,→,0.439390400017146,True,28,1
KN-M-23M23S1,991,experiment,105,←,left,←,0.6505618999945,True,28,1
KN-M-23M23S1,992,experiment,59,→,right,→,0.5163747000042349,True,28,1
KN-M-23M23S1,993,experiment,56,→,right,→,0.4208686999627389,True,28,1
KN-M-23M23S1,994,experiment,81,↑,up,↑,0.47267440002178773,True,28,1
KN-M-23M23S1,995,experiment,83,↓,down,↓,0.4815290999831632,True,28,1
KN-M-23M23S1,996,experiment,79,←,left,←,0.4678991999826394,True,28,1
KN-M-23M23S1,997,experiment,51,↑,up,↑,0.5440784000093117,True,28,1
KN-M-23M23S1,998,experiment,82,→,right,→,0.4626521000172943,True,28,1
KN-M-23M23S1,999,experiment,100,→,left,←,0.4348247000016272,False,28,1
KN-M-23M23S1,1000,experiment,80,↓,down,↓,0.6144144000136293,True,28,1
KN-M-23M23S1,1001,experiment,70,←,left,←,0.47030579997226596,True,28,1
KN-M-23M23S1,1002,experiment,99,→,right,→,0.44232129998272285,True,28,1
KN-M-23M23S1,1003,experiment,73,↑,up,↑,0.503919999988284,True,28,1
KN-M-23M23S1,1004,experiment,86,←,left,←,0.4868906000046991,True,28,1
KN-M-23M23S1,1005,experiment,61,↑,up,↑,0.4790080999955535,True,28,1
KN-M-23M23S1,1006,experiment,93,←,left,←,0.6525803999975324,True,28,1
KN-M-23M23S1,1007,experiment,55,↓,down,↓,0.6719344999874011,True,28,1
KN-M-23M23S1,1008,experiment,106,←,left,←,0.5694203000166453,True,28,1
KN-M-23M23S1,1009,experiment,90,←,left,←,0.5323426999966614,True,28,1
KN-M-23M23S1,1010,experiment,87,←,left,←,0.4738927999860607,True,28,1
KN-M-23M23S1,1011,experiment,85,↑,up,↑,0.5061426000320353,True,28,1
KN-M-23M23S1,1012,experiment,101,←,right,→,1.3318811999633908,False,28,1
KN-M-23M23S1,1013,experiment,65,↓,down,↓,0.4645019000163302,True,28,1
KN-M-23M23S1,1014,experiment,48,↓,up,↑,0.5096269000205211,False,28,1
KN-M-23M23S1,1015,experiment,92,←,left,←,0.49852099997224286,True,28,1
KN-M-23M23S1,1016,experiment,64,←,left,←,0.417029999953229,True,28,1
KN-M-23M23S1,1017,experiment,78,←,left,←,0.4857672000071034,True,28,1
KN-M-23M23S1,1018,experiment,62,↑,up,↑,0.5415632999502122,True,28,1
KN-M-23M23S1,1019,experiment,108,↑,up,↑,0.4917011000216007,True,28,1
KN-M-23M23S1,1020,experiment,52,←,left,←,0.5984381000162102,True,28,1
KN-M-23M23S1,1021,experiment,97,↑,up,↑,0.49391650001052767,True,28,1
KN-M-23M23S1,1022,experiment,58,↑,up,↑,0.4783329999772832,True,28,1
KN-M-23M23S1,1023,experiment,57,←,left,←,0.4562800999847241,True,28,1
KN-M-23M23S1,1024,experiment,107,→,right,→,0.7059981999918818,True,28,1
KN-M-23M23S1,1025,experiment,60,←,left,←,0.537355300039053,True,28,1
KN-M-23M23S1,1026,experiment,89,↑,up,↑,0.429671399993822,True,28,1
KN-M-23M23S1,1027,experiment,104,←,left,←,0.43368129996815696,True,28,1
KN-M-23M23S1,1028,experiment,84,↓,down,↓,0.5641011000261642,True,28,1
KN-M-23M23S1,1029,experiment,71,↓,down,↓,0.7413610999938101,True,28,1
KN-M-23M23S1,1030,experiment,76,→,right,→,0.5100238000159152,True,28,1
KN-M-23M23S1,1031,experiment,103,←,left,←,0.48699850001139566,True,28,1
KN-M-23M23S1,1032,experiment,49,→,right,→,0.5951665999600664,True,28,1
KN-M-23M23S1,1033,experiment,68,↓,down,↓,0.5565005000098608,True,28,1
KN-M-23M23S1,1034,experiment,94,←,left,←,0.478647300042212,True,28,1
KN-M-23M23S1,1035,experiment,53,↑,up,↑,0.5297694000182673,True,28,1
KN-M-23M23S1,1036,experiment,96,↓,down,↓,0.48420500004431233,True,28,1
KN-M-23M23S1,1037,experiment,72,↓,down,↓,0.6406495999544859,True,28,1
KN-M-23M23S1,1038,experiment,95,↓,down,↓,0.4469941999996081,True,28,1
KN-M-23M23S1,1039,experiment,66,↑,up,↑,0.5748193000326864,True,28,1
KN-M-23M23S1,1040,experiment,74,↑,up,↑,0.5748447999940254,True,28,1
KN-M-23M23S1,1041,experiment,102,↓,down,↓,0.48526220000348985,True,28,1
KN-M-23M23S1,1042,experiment,75,↓,down,↓,0.5448052999563515,True,28,1
KN-M-23M23S1,1043,experiment,50,↑,up,↑,0.6904973000055179,True,28,1
KN-M-23M23S1,1044,experiment,77,↓,down,↓,0.4687131000100635,True,28,1
KN-M-23M23S1,1045,experiment,54,←,left,←,0.5116886000032537,True,28,1
KN-M-23M23S1,1046,experiment,88,↓,down,↓,0.4300595999811776,True,28,1
KN-M-23M23S1,1047,experiment,91,↑,up,↑,0.47026450000703335,True,28,1
KN-M-23M23S1,1048,experiment,67,↓,down,↓,0.6445795999607071,True,28,1
KN-M-23M23S1,1049,training,108,↓,down,↓,0.4409713000059128,True,28,0
KN-M-23M23S1,1050,training,73,←,left,←,0.4626909999642521,True,28,1
KN-M-23M23S1,1051,experiment,83,→,right,→,0.5122550999512896,True,28,1
KN-M-23M23S1,1052,experiment,91,↓,down,↓,0.4610714999726042,True,28,1
KN-M-23M23S1,1053,experiment,92,←,left,←,0.4997420000145212,True,28,1
KN-M-23M23S1,1054,experiment,50,→,right,→,0.42322980001335964,True,28,1
KN-M-23M23S1,1055,experiment,52,←,left,←,0.46848689997568727,True,28,1
KN-M-23M23S1,1056,experiment,67,→,right,→,0.5150989000103436,True,28,1
KN-M-23M23S1,1057,experiment,73,↓,down,↓,0.4219806999899447,True,28,1
KN-M-23M23S1,1058,experiment,105,←,left,←,0.4734776000259444,True,28,1
KN-M-23M23S1,1059,experiment,80,→,right,→,0.4836535999784246,True,28,1
KN-M-23M23S1,1060,experiment,72,←,left,←,0.5442793999682181,True,28,1
KN-M-23M23S1,1061,experiment,102,→,right,→,1.1042742999852635,True,28,1
KN-M-23M23S1,1062,experiment,103,→,right,→,0.4894442999502644,True,28,1
KN-M-23M23S1,1063,experiment,53,↑,up,↑,0.6999032000312582,True,28,1
KN-M-23M23S1,1064,experiment,95,←,left,←,0.4241738999844529,True,28,1
KN-M-23M23S1,1065,experiment,54,→,right,→,0.4848360000178218,True,28,1
KN-M-23M23S1,1066,experiment,108,←,left,←,0.5251548999804072,True,28,1
KN-M-23M23S1,1067,experiment,79,↑,up,↑,0.517437800008338,True,28,1
KN-M-23M23S1,1068,experiment,56,→,right,→,0.725866099994164,True,28,1
KN-M-23M23S1,1069,experiment,106,→,right,→,0.46104029996786267,True,28,1
KN-M-23M23S1,1070,experiment,60,←,left,←,0.4866234000073746,True,28,1
KN-M-23M23S1,1071,experiment,59,↓,down,↓,0.6475792999844998,True,28,1
KN-M-23M23S1,1072,experiment,94,←,left,←,0.5098600000492297,True,28,1
KN-M-23M23S1,1073,experiment,90,→,right,→,0.5318226999952458,True,28,1
KN-M-23M23S1,1074,experiment,66,→,right,→,0.4716998999938369,True,28,1
KN-M-23M23S1,1075,experiment,85,↑,up,↑,0.5201309000258334,True,28,1
KN-M-23M23S1,1076,experiment,48,↑,up,↑,0.5472924000350758,True,28,1
KN-M-23M23S1,1077,experiment,87,→,right,→,0.5838706999784335,True,28,1
KN-M-23M23S1,1078,experiment,82,←,left,←,0.5488934000022709,True,28,1
KN-M-23M23S1,1079,experiment,98,↓,down,↓,0.5498895999626257,True,28,1
KN-M-23M23S1,1080,experiment,78,←,left,←,0.6216156000155024,True,28,1
KN-M-23M23S1,1081,experiment,57,←,left,←,0.9296649000025354,True,28,1
KN-M-23M23S1,1082,experiment,68,↓,down,↓,0.5251518000150099,True,28,1
KN-M-23M23S1,1083,experiment,86,↑,up,↑,0.6271573000121862,True,28,1
KN-M-23M23S1,1084,experiment,65,→,right,→,0.580450400011614,True,28,1
KN-M-23M23S1,1085,experiment,62,→,right,→,0.663992399990093,True,28,1
KN-M-23M23S1,1086,experiment,61,→,right,→,0.48092290002387017,True,28,1
KN-M-23M23S1,1087,experiment,58,↓,down,↓,0.6418703999952413,True,28,1
KN-M-23M23S1,1088,experiment,88,↑,up,↑,0.6264678000006825,True,28,1
KN-M-23M23S1,1089,experiment,51,←,left,←,0.5042151000234298,True,28,1
KN-M-23M23S1,1090,experiment,100,←,left,←,0.6592745999805629,True,28,1
KN-M-23M23S1,1091,experiment,49,↓,down,↓,0.5197824999922886,True,28,1
KN-M-23M23S1,1092,experiment,77,←,left,←,0.5290672999690287,True,28,1
KN-M-23M23S1,1093,experiment,97,↑,up,↑,0.5550527000450529,True,28,1
KN-M-23M23S1,1094,experiment,93,←,left,←,0.509642300021369,True,28,1
KN-M-23M23S1,1095,experiment,74,↓,down,↓,0.46433680003974587,True,28,1
KN-M-23M23S1,1096,experiment,76,↓,down,↓,0.48403849999886006,True,28,1
KN-M-23M23S1,1097,experiment,84,←,left,←,0.5724662999855354,True,28,1
KN-M-23M23S1,1098,experiment,55,↓,down,↓,0.5229500000132248,True,28,1
KN-M-23M23S1,1099,experiment,69,→,right,→,0.8626768999965861,True,28,1
KN-M-23M23S1,1100,experiment,107,↑,up,↑,0.5360622000298463,True,28,1
KN-M-23M23S1,1101,experiment,89,→,left,←,0.4046947000315413,False,28,1
KN-M-23M23S1,1102,experiment,104,←,left,←,0.5214398999814875,True,28,0
KN-M-23M23S1,1103,experiment,70,↓,down,↓,0.48475110001163557,True,28,1
KN-M-23M23S1,1104,experiment,101,←,left,←,0.487495300010778,True,28,1
KN-M-23M23S1,1105,experiment,96,↑,up,↑,0.49161450000246987,True,28,1
KN-M-23M23S1,1106,experiment,63,←,left,←,0.4824934999924153,True,28,1
KN-M-23M23S1,1107,experiment,64,↓,down,↓,0.4737252999912016,True,28,1
KN-M-23M23S1,1108,experiment,99,↓,down,↓,0.6296459000441246,True,28,1
KN-M-23M23S1,1109,experiment,71,←,left,←,0.452288500033319,True,28,1
KN-M-23M23S1,1110,experiment,81,↓,down,↓,0.5109725999645889,True,28,1
KN-M-23M23S1,1111,experiment,75,↓,down,↓,0.7211258999886923,True,28,1
KN-M-23M23S1,1112,training,66,↓,down,↓,0.5708189000142738,True,28,0
KN-M-23M23S1,1113,training,81,←,left,←,0.5368186000268906,True,28,1
KN-M-23M23S1,1114,experiment,74,←,left,←,0.44259819999570027,True,28,1
KN-M-23M23S1,1115,experiment,93,↑,up,↑,0.5455040999804623,True,28,1
KN-M-23M23S1,1116,experiment,72,←,left,←,0.579490500036627,True,28,1
KN-M-23M23S1,1117,experiment,54,←,left,←,0.4903854000149295,True,28,1
KN-M-23M23S1,1118,experiment,66,→,right,→,0.5761758000007831,True,28,1
KN-M-23M23S1,1119,experiment,63,→,left,←,0.5960791999823414,False,28,1
KN-M-23M23S1,1120,experiment,103,→,right,→,0.5057662999606691,True,28,1
KN-M-23M23S1,1121,experiment,76,→,right,→,0.8437819000100717,True,28,1
KN-M-23M23S1,1122,experiment,48,↑,up,↑,0.7777242999873124,True,28,1
KN-M-23M23S1,1123,experiment,77,↓,down,↓,0.6009744000039063,True,28,1
KN-M-23M23S1,1124,experiment,52,→,right,→,0.7193466000026092,True,28,1
KN-M-23M23S1,1125,experiment,59,↓,down,↓,1.1505527999834158,True,28,1
KN-M-23M23S1,1126,experiment,78,←,left,←,0.4463523000013083,True,28,1
KN-M-23M23S1,1127,experiment,64,→,right,→,0.4948817000258714,True,28,1
KN-M-23M23S1,1128,experiment,101,→,right,→,0.5851203000056557,True,28,1
KN-M-23M23S1,1129,experiment,51,↑,up,↑,0.616541999974288,True,28,1
KN-M-23M23S1,1130,experiment,68,↑,up,↑,0.5130567999440245,True,28,1
KN-M-23M23S1,1131,experiment,55,↓,down,↓,0.5696559999487363,True,28,1
KN-M-23M23S1,1132,experiment,65,↑,up,↑,0.5652657000464387,True,28,1
KN-M-23M23S1,1133,experiment,57,←,left,←,0.5633253999985754,True,28,1
KN-M-23M23S1,1134,experiment,62,↑,up,↑,0.5354714000131935,True,28,1
KN-M-23M23S1,1135,experiment,92,→,right,→,0.6192581999930553,True,28,1
KN-M-23M23S1,1136,experiment,71,→,right,→,0.5868618999957107,True,28,1
KN-M-23M23S1,1137,experiment,61,↑,up,↑,1.1668675999972038,True,28,1
KN-M-23M23S1,1138,experiment,94,↓,down,↓,0.5362211000174284,True,28,1
KN-M-23M23S1,1139,experiment,70,←,left,←,0.499850099964533,True,28,1
KN-M-23M23S1,1140,experiment,108,↑,up,↑,0.8270728000206873,True,28,1
KN-M-23M23S1,1141,experiment,104,↓,down,↓,0.6790901999920607,True,28,1
KN-M-23M23S1,1142,experiment,90,↑,up,↑,0.6215494999778457,True,28,1
KN-M-23M23S1,1143,experiment,96,↓,down,↓,0.7724266999866813,True,28,1
KN-M-23M23S1,1144,experiment,79,←,left,←,0.57071309996536,True,28,1
KN-M-23M23S1,1145,experiment,100,←,left,←,0.5304456999874674,True,28,1
KN-M-23M23S1,1146,experiment,95,→,right,→,0.5809937000158243,True,28,1
KN-M-23M23S1,1147,experiment,85,←,left,←,0.4653345000115223,True,28,1
KN-M-23M23S1,1148,experiment,58,↓,down,↓,0.5308653999818489,True,28,1
KN-M-23M23S1,1149,experiment,106,↑,up,↑,0.5378233000519685,True,28,1
KN-M-23M23S1,1150,experiment,98,←,left,←,0.4833919000229798,True,28,1
KN-M-23M23S1,1151,experiment,107,→,right,→,0.5240776999853551,True,28,1
KN-M-23M23S1,1152,experiment,75,↑,up,↑,0.7096249000169337,True,28,1
KN-M-23M23S1,1153,experiment,105,←,left,←,0.47003299999050796,True,28,1
KN-M-23M23S1,1154,experiment,56,→,right,→,0.5444182999781333,True,28,1
KN-M-23M23S1,1155,experiment,69,→,right,→,0.5554796000360511,True,28,1
KN-M-23M23S1,1156,experiment,91,→,right,→,0.47850070003187284,True,28,1
KN-M-23M23S1,1157,experiment,88,↑,up,↑,0.6777624000096694,True,28,1
KN-M-23M23S1,1158,experiment,87,→,right,→,0.5336551999789663,True,28,1
KN-M-23M23S1,1159,experiment,73,↓,up,↑,0.7279578999732621,False,28,1
KN-M-23M23S1,1160,experiment,80,↑,up,↑,0.704081000003498,True,28,1
KN-M-23M23S1,1161,experiment,67,→,right,→,0.6771874999976717,True,28,1
KN-M-23M23S1,1162,experiment,86,↓,down,↓,0.6453173999907449,True,28,1
KN-M-23M23S1,1163,experiment,50,↓,down,↓,0.5066071999608539,True,28,1
KN-M-23M23S1,1164,experiment,97,→,no_key,no_letter,-1.0,False,28,1
KN-M-23M23S1,1165,experiment,84,←,left,←,0.48524329997599125,True,28,1
KN-M-23M23S1,1166,experiment,53,↑,up,↑,0.5119358000229113,True,28,1
KN-M-23M23S1,1167,experiment,81,↑,up,↑,0.608224599971436,True,28,1
KN-M-23M23S1,1168,experiment,82,→,right,→,0.5166715999948792,True,28,1
KN-M-23M23S1,1169,experiment,89,→,right,→,0.4820140000083484,True,28,1
KN-M-23M23S1,1170,experiment,49,↑,up,↑,0.5659600999788381,True,28,1
KN-M-23M23S1,1171,experiment,102,→,right,→,0.6451871999888681,True,28,1
KN-M-23M23S1,1172,experiment,60,↑,up,↑,0.575146000017412,True,28,1
KN-M-23M23S1,1173,experiment,99,↑,up,↑,0.7110811999882571,True,28,1
KN-M-23M23S1,1174,experiment,83,↑,up,↑,0.5583330999943428,True,28,1
KN-M-23M23S1,1175,training,101,←,left,←,0.45980599999893457,True,28,0
KN-M-23M23S1,1176,training,69,→,right,→,0.4982276000082493,True,28,1
KN-M-23M23S1,1177,experiment,106,→,right,→,0.5786561000277288,True,28,1
KN-M-23M23S1,1178,experiment,78,↓,down,↓,0.4734776000259444,True,28,1
KN-M-23M23S1,1179,experiment,59,→,right,→,0.5305084999999963,True,28,1
KN-M-23M23S1,1180,experiment,48,↑,up,↑,0.5488683999865316,True,28,1
KN-M-23M23S1,1181,experiment,105,→,right,→,0.4438082000124268,True,28,1
KN-M-23M23S1,1182,experiment,65,→,right,→,0.49998199997935444,True,28,1
KN-M-23M23S1,1183,experiment,53,↓,down,↓,0.589864099980332,True,28,1
KN-M-23M23S1,1184,experiment,55,→,right,→,0.45177960000000894,True,28,1
KN-M-23M23S1,1185,experiment,52,←,left,←,0.5442211999907158,True,28,1
KN-M-23M23S1,1186,experiment,67,↓,left,←,0.4047150000114925,False,28,1
KN-M-23M23S1,1187,experiment,71,→,right,→,0.5716206000070088,True,28,0
KN-M-23M23S1,1188,experiment,102,↑,up,↑,0.5543494999874383,True,28,1
KN-M-23M23S1,1189,experiment,85,↑,up,↑,0.5355830999906175,True,28,1
KN-M-23M23S1,1190,experiment,96,↑,up,↑,0.5461596999666654,True,28,1
KN-M-23M23S1,1191,experiment,60,↑,up,↑,0.6564138000248931,True,28,1
KN-M-23M23S1,1192,experiment,68,←,left,←,0.5991400999482721,True,28,1
KN-M-23M23S1,1193,experiment,95,↓,down,↓,1.3912474000244401,True,28,1
KN-M-23M23S1,1194,experiment,72,→,right,→,0.6388688000151888,True,28,1
KN-M-23M23S1,1195,experiment,73,↓,down,↓,0.4447556000086479,True,28,1
KN-M-23M23S1,1196,experiment,77,←,left,←,0.633544999989681,True,28,1
KN-M-23M23S1,1197,experiment,64,→,right,→,0.5539786000153981,True,28,1
KN-M-23M23S1,1198,experiment,88,→,right,→,0.44664679997367784,True,28,1
KN-M-23M23S1,1199,experiment,89,↓,down,↓,0.9426377000054345,True,28,1
KN-M-23M23S1,1200,experiment,57,↑,up,↑,0.581678600050509,True,28,1
KN-M-23M23S1,1201,experiment,93,↓,down,↓,0.5589740999857895,True,28,1
KN-M-23M23S1,1202,experiment,54,↑,up,↑,0.6622596000088379,True,28,1
KN-M-23M23S1,1203,experiment,107,←,left,←,0.6077529999893159,True,28,1
KN-M-23M23S1,1204,experiment,56,↑,up,↑,0.7409730000072159,True,28,1
KN-M-23M23S1,1205,experiment,51,→,left,←,0.6697417000541463,False,28,1
KN-M-23M23S1,1206,experiment,97,←,left,←,0.6023654000018723,True,28,1
KN-M-23M23S1,1207,experiment,98,↑,up,↑,0.6334763999911956,True,28,1
KN-M-23M23S1,1208,experiment,61,←,left,←,0.45955879997927696,True,28,1
KN-M-23M23S1,1209,experiment,90,→,right,→,0.41384529997594655,True,28,1
KN-M-23M23S1,1210,experiment,74,↓,down,↓,0.5615415000356734,True,28,1
KN-M-23M23S1,1211,experiment,104,↓,up,↑,0.840217900054995,False,28,1
KN-M-23M23S1,1212,experiment,75,→,right,→,0.43729989998973906,True,28,1
KN-M-23M23S1,1213,experiment,100,←,left,←,0.45789189997594804,True,28,1
KN-M-23M23S1,1214,experiment,76,↓,down,↓,0.5659485000069253,True,28,1
KN-M-23M23S1,1215,experiment,82,↑,up,↑,0.6035050000064075,True,28,1
KN-M-23M23S1,1216,experiment,50,→,right,→,1.034771999984514,True,28,1
KN-M-23M23S1,1217,experiment,101,↓,down,↓,0.4951722000259906,True,28,1
KN-M-23M23S1,1218,experiment,103,↓,down,↓,0.681188500020653,True,28,1
KN-M-23M23S1,1219,experiment,79,→,right,→,0.7712002000189386,True,28,1
KN-M-23M23S1,1220,experiment,84,←,left,←,0.5115326000377536,True,28,1
KN-M-23M23S1,1221,experiment,80,↓,down,↓,0.4644520999863744,True,28,1
KN-M-23M23S1,1222,experiment,91,→,left,←,0.823315099987667,False,28,1
KN-M-23M23S1,1223,experiment,81,↓,left,←,1.2188680000253953,False,28,1
KN-M-23M23S1,1224,experiment,94,↓,down,↓,0.5706417000037618,True,28,1
KN-M-23M23S1,1225,experiment,66,←,left,←,0.4936897999723442,True,28,1
KN-M-23M23S1,1226,experiment,92,→,right,→,0.6748670000233687,True,28,1
KN-M-23M23S1,1227,experiment,63,↓,down,↓,0.4826988999848254,True,28,1
KN-M-23M23S1,1228,experiment,86,↑,up,↑,1.1626020999974571,True,28,1
KN-M-23M23S1,1229,experiment,108,←,left,←,0.44738639995921403,True,28,1
KN-M-23M23S1,1230,experiment,99,↑,up,↑,0.5562298999866471,True,28,1
KN-M-23M23S1,1231,experiment,62,←,left,←,0.8008001999696717,True,28,1
KN-M-23M23S1,1232,experiment,58,↓,down,↓,0.8690118999802507,True,28,1
KN-M-23M23S1,1233,experiment,87,↓,down,↓,0.7172326000290923,True,28,1
KN-M-23M23S1,1234,experiment,83,↓,down,↓,0.628715300001204,True,28,1
KN-M-23M23S1,1235,experiment,70,↑,up,↑,0.8600716000073589,True,28,1
KN-M-23M23S1,1236,experiment,69,↑,up,↑,0.6825610999949276,True,28,1
KN-M-23M23S1,1237,experiment,49,←,left,←,0.5741950999945402,True,28,1
KN-M-23M23S1,1238,training,94,↓,down,↓,0.4577724999981001,True,28,0
KN-M-23M23S1,1239,training,53,←,left,←,0.49372970004333183,True,28,1
KN-M-23M23S1,1240,experiment,93,↓,down,↓,0.4508098999504,True,28,1
KN-M-23M23S1,1241,experiment,78,←,left,←,0.5183598999865353,True,28,1
KN-M-23M23S1,1242,experiment,107,→,right,→,0.5579303000122309,True,28,1
KN-M-23M23S1,1243,experiment,66,←,left,←,0.6572464000200853,True,28,1
KN-M-23M23S1,1244,experiment,74,←,left,←,0.678164699987974,True,28,1
KN-M-23M23S1,1245,experiment,55,↑,up,↑,0.6963768000132404,True,28,1
KN-M-23M23S1,1246,experiment,70,←,left,←,0.6848127999692224,True,28,1
KN-M-23M23S1,1247,experiment,105,←,left,←,0.558318399998825,True,28,1
KN-M-23M23S1,1248,experiment,81,↑,up,↑,0.5406401999644004,True,28,1
KN-M-23M23S1,1249,experiment,104,←,left,←,0.48377849999815226,True,28,1
KN-M-23M23S1,1250,experiment,77,←,left,←,0.47881379997124895,True,28,1
KN-M-23M23S1,1251,experiment,67,←,left,←,0.6130156999570318,True,28,1
KN-M-23M23S1,1252,experiment,100,↓,down,↓,0.6829546000226401,True,28,1
KN-M-23M23S1,1253,experiment,92,←,left,←,0.4644079999998212,True,28,1
KN-M-23M23S1,1254,experiment,106,↑,up,↑,0.5221509999828413,True,28,1
KN-M-23M23S1,1255,experiment,59,←,left,←,0.5694572000065818,True,28,1
KN-M-23M23S1,1256,experiment,98,↑,up,↑,0.5058181000058539,True,28,1
KN-M-23M23S1,1257,experiment,76,↑,up,↑,0.5076991000096314,True,28,1
KN-M-23M23S1,1258,experiment,71,↑,up,↑,0.4874600999755785,True,28,1
KN-M-23M23S1,1259,experiment,54,↑,up,↑,0.44193660002201796,True,28,1
KN-M-23M23S1,1260,experiment,101,↓,down,↓,0.5344865000224672,True,28,1
KN-M-23M23S1,1261,experiment,108,←,left,←,0.4290290999924764,True,28,1
KN-M-23M23S1,1262,experiment,85,↓,down,↓,0.4547125999815762,True,28,1
KN-M-23M23S1,1263,experiment,103,→,right,→,0.6577947000041604,True,28,1
KN-M-23M23S1,1264,experiment,56,↑,up,↑,0.6125422000186518,True,28,1
KN-M-23M23S1,1265,experiment,60,→,right,→,0.7195891999872401,True,28,1
KN-M-23M23S1,1266,experiment,65,←,left,←,0.5891668999684043,True,28,1
KN-M-23M23S1,1267,experiment,102,←,left,←,0.5076789000304416,True,28,1
KN-M-23M23S1,1268,experiment,95,←,left,←,0.4786599000217393,True,28,1
KN-M-23M23S1,1269,experiment,83,→,right,→,0.6959392999997362,True,28,1
KN-M-23M23S1,1270,experiment,84,↑,up,↑,0.5596767000388354,True,28,1
KN-M-23M23S1,1271,experiment,99,←,left,←,0.7123516999999993,True,28,1
KN-M-23M23S1,1272,experiment,48,↓,down,↓,0.6832237000344321,True,28,1
KN-M-23M23S1,1273,experiment,51,↑,up,↑,0.6865427999873646,True,28,1
KN-M-23M23S1,1274,experiment,79,↑,up,↑,0.6728100000182167,True,28,1
KN-M-23M23S1,1275,experiment,52,↑,up,↑,0.6681380000081845,True,28,1
KN-M-23M23S1,1276,experiment,62,←,left,←,0.6767071000067517,True,28,1
KN-M-23M23S1,1277,experiment,94,↑,up,↑,0.8018586999969557,True,28,1
KN-M-23M23S1,1278,experiment,49,↑,up,↑,0.6574175999849103,True,28,1
KN-M-23M23S1,1279,experiment,63,↓,down,↓,0.6894497000030242,True,28,1
KN-M-23M23S1,1280,experiment,53,→,right,→,0.6119834999553859,True,28,1
KN-M-23M23S1,1281,experiment,58,→,right,→,0.6003863999503665,True,28,1
KN-M-23M23S1,1282,experiment,61,↓,down,↓,0.5555953000439331,True,28,1
KN-M-23M23S1,1283,experiment,73,↓,down,↓,0.8127123000449501,True,28,1
KN-M-23M23S1,1284,experiment,75,↑,up,↑,0.6988337999791838,True,28,1
KN-M-23M23S1,1285,experiment,88,↓,down,↓,0.6570735000423156,True,28,1
KN-M-23M23S1,1286,experiment,72,↓,down,↓,0.6944755999720655,True,28,1
KN-M-23M23S1,1287,experiment,64,→,right,→,0.741132800001651,True,28,1
KN-M-23M23S1,1288,experiment,82,↓,down,↓,0.5000817000400275,True,28,1
KN-M-23M23S1,1289,experiment,86,↑,up,↑,0.6031499999808148,True,28,1
KN-M-23M23S1,1290,experiment,69,↓,down,↓,0.7718944000080228,True,28,1
KN-M-23M23S1,1291,experiment,96,→,right,→,0.7005974000203423,True,28,1
KN-M-23M23S1,1292,experiment,90,↓,down,↓,0.626331300009042,True,28,1
KN-M-23M23S1,1293,experiment,57,←,left,←,0.5418399999616668,True,28,1
KN-M-23M23S1,1294,experiment,87,→,right,→,0.5551009000046179,True,28,1
KN-M-23M23S1,1295,experiment,91,↓,down,↓,0.5899860000354238,True,28,1
KN-M-23M23S1,1296,experiment,80,←,left,←,0.6754932000185363,True,28,1
KN-M-23M23S1,1297,experiment,89,↑,up,↑,0.6423239000141621,True,28,1
KN-M-23M23S1,1298,experiment,97,↑,up,↑,0.6640188999590464,True,28,1
KN-M-23M23S1,1299,experiment,50,→,right,→,0.7164413999998942,True,28,1
KN-M-23M23S1,1300,experiment,68,←,left,←,0.6009739000000991,True,28,1
KN-M-23M23S1,1301,training,64,↑,left,←,1.0155989000340924,False,28,0
KN-M-23M23S1,1302,training,107,←,left,←,0.6030864000204019,True,28,1
KN-M-23M23S1,1303,experiment,88,←,left,←,0.5893228000495583,True,28,1
KN-M-23M23S1,1304,experiment,96,→,right,→,0.5812914000125602,True,28,1
KN-M-23M23S1,1305,experiment,90,↑,up,↑,0.6720217000111006,True,28,1
KN-M-23M23S1,1306,experiment,83,↓,down,↓,0.8646182000520639,True,28,1
KN-M-23M23S1,1307,experiment,86,↑,up,↑,0.8011072000372224,True,28,1
KN-M-23M23S1,1308,experiment,73,←,left,←,0.6645294000045396,True,28,1
KN-M-23M23S1,1309,experiment,56,↑,up,↑,0.6670138000044972,True,28,1
KN-M-23M23S1,1310,experiment,53,←,left,←,0.8622081999783404,True,28,1
KN-M-23M23S1,1311,experiment,98,→,right,→,0.7627552000340074,True,28,1
KN-M-23M23S1,1312,experiment,93,←,left,←,0.8686364999739453,True,28,1
KN-M-23M23S1,1313,experiment,102,→,left,←,1.0799579999875277,False,28,1
KN-M-23M23S1,1314,experiment,48,←,left,←,0.8123840999905951,True,28,1
KN-M-23M23S1,1315,experiment,79,→,right,→,0.5932045999797992,True,28,1
KN-M-23M23S1,1316,experiment,58,→,right,→,0.5738449999480508,True,28,1
KN-M-23M23S1,1317,experiment,68,←,left,←,0.6400769000174478,True,28,1
KN-M-23M23S1,1318,experiment,106,←,left,←,0.7708195999730378,True,28,1
KN-M-23M23S1,1319,experiment,71,→,right,→,0.6757443999522366,True,28,1
KN-M-23M23S1,1320,experiment,103,↑,up,↑,0.6864052999881096,True,28,1
KN-M-23M23S1,1321,experiment,104,↑,up,↑,0.6400533999549225,True,28,1
KN-M-23M23S1,1322,experiment,74,→,right,→,0.5253530999762006,True,28,1
KN-M-23M23S1,1323,experiment,63,↑,up,↑,0.6912674999912269,True,28,1
KN-M-23M23S1,1324,experiment,105,←,left,←,0.620238600007724,True,28,1
KN-M-23M23S1,1325,experiment,51,↑,up,↑,0.6101753999828361,True,28,1
KN-M-23M23S1,1326,experiment,54,→,right,→,0.863688999961596,True,28,1
KN-M-23M23S1,1327,experiment,64,→,right,→,0.5753056000103243,True,28,1
KN-M-23M23S1,1328,experiment,99,→,right,→,0.5509152000304312,True,28,1
KN-M-23M23S1,1329,experiment,57,←,left,←,1.2137668000068516,True,28,1
KN-M-23M23S1,1330,experiment,72,↑,up,↑,0.6606923000072129,True,28,1
KN-M-23M23S1,1331,experiment,100,↑,up,↑,0.6169420999940485,True,28,1
KN-M-23M23S1,1332,experiment,52,↑,up,↑,0.6224702000035904,True,28,1
KN-M-23M23S1,1333,experiment,49,↓,down,↓,0.7409097999916412,True,28,1
KN-M-23M23S1,1334,experiment,85,↑,up,↑,0.6667221000534482,True,28,1
KN-M-23M23S1,1335,experiment,62,↑,up,↑,0.6829638000344858,True,28,1
KN-M-23M23S1,1336,experiment,107,←,left,←,0.6037673999671824,True,28,1
KN-M-23M23S1,1337,experiment,60,↓,down,↓,0.7034017000114545,True,28,1
KN-M-23M23S1,1338,experiment,92,←,left,←,0.588432600023225,True,28,1
KN-M-23M23S1,1339,experiment,108,↓,down,↓,0.5684140000375919,True,28,1
KN-M-23M23S1,1340,experiment,69,←,left,←,0.53871390002314,True,28,1
KN-M-23M23S1,1341,experiment,55,←,left,←,1.2904089000076056,True,28,1
KN-M-23M23S1,1342,experiment,101,→,right,→,0.6845306999748573,True,28,1
KN-M-23M23S1,1343,experiment,81,←,left,←,0.717792899988126,True,28,1
KN-M-23M23S1,1344,experiment,66,↑,up,↑,0.6031340999761596,True,28,1
KN-M-23M23S1,1345,experiment,94,←,left,←,0.5155572000076063,True,28,1
KN-M-23M23S1,1346,experiment,50,↓,left,←,0.2842315000016242,False,28,1
KN-M-23M23S1,1347,experiment,77,↓,no_key,no_letter,-1.0,False,28,0
KN-M-23M23S1,1348,experiment,78,←,left,←,0.465894200024195,True,28,1
KN-M-23M23S1,1349,experiment,87,←,left,←,0.3427640000008978,True,28,1
KN-M-23M23S1,1350,experiment,61,↓,down,↓,0.43954890000168234,True,28,0
KN-M-23M23S1,1351,experiment,84,↓,down,↓,0.5454522999934852,True,28,1
KN-M-23M23S1,1352,experiment,65,←,left,←,0.4143921999493614,True,28,1
KN-M-23M23S1,1353,experiment,89,←,left,←,0.4155122000374831,True,28,1
KN-M-23M23S1,1354,experiment,70,↓,down,↓,0.43897999997716397,True,28,1
KN-M-23M23S1,1355,experiment,76,↓,down,↓,0.4756354999844916,True,28,1
KN-M-23M23S1,1356,experiment,82,←,down,↓,0.242144699965138,False,28,1
KN-M-23M23S1,1357,experiment,91,→,right,→,0.5327974999672733,True,28,0
KN-M-23M23S1,1358,experiment,80,↑,up,↑,0.6363400000263937,True,28,1
KN-M-23M23S1,1359,experiment,67,←,left,←,0.5242100000032224,True,28,1
KN-M-23M23S1,1360,experiment,75,←,left,←,0.446007999998983,True,28,1
KN-M-23M23S1,1361,experiment,59,→,right,→,0.7123369000037201,True,28,1
KN-M-23M23S1,1362,experiment,95,←,left,←,0.5398666000110097,True,28,1
KN-M-23M23S1,1363,experiment,97,←,left,←,0.4858305999659933,True,28,1
KN-M-23M23S1,1364,training,107,←,left,←,0.4402379000093788,True,28,0
KN-M-23M23S1,1365,training,76,←,right,→,0.4215729999705218,False,28,1
KN-M-23M23S1,1366,experiment,85,↓,down,↓,0.4714594000251964,True,28,1
KN-M-23M23S1,1367,experiment,94,←,left,←,0.3090022999676876,True,28,1
KN-M-23M23S1,1368,experiment,91,→,right,→,0.5618803999968804,True,28,0
KN-M-23M23S1,1369,experiment,107,↑,up,↑,0.5512163999956101,True,28,1
KN-M-23M23S1,1370,experiment,68,→,right,→,0.6426051000016741,True,28,1
KN-M-23M23S1,1371,experiment,86,←,left,←,0.6676319999969564,True,28,1
KN-M-23M23S1,1372,experiment,88,↓,up,↑,0.6273143999860622,False,28,1
KN-M-23M23S1,1373,experiment,54,↓,down,↓,0.8002217000466771,True,28,1
KN-M-23M23S1,1374,experiment,108,↓,down,↓,0.5480559999705292,True,28,1
KN-M-23M23S1,1375,experiment,98,↓,down,↓,0.6208769000368193,True,28,1
KN-M-23M23S1,1376,experiment,59,↑,up,↑,0.6561741000041366,True,28,1
KN-M-23M23S1,1377,experiment,101,→,right,→,0.44354339997516945,True,28,1
KN-M-23M23S1,1378,experiment,83,→,right,→,0.5504284000489861,True,28,1
KN-M-23M23S1,1379,experiment,64,→,left,←,0.6027138999779709,False,28,1
KN-M-23M23S1,1380,experiment,92,↑,up,↑,0.4516458999714814,True,28,1
KN-M-23M23S1,1381,experiment,81,→,left,←,0.47855990001698956,False,28,1
KN-M-23M23S1,1382,experiment,82,←,left,←,0.45577629999024794,True,28,1
KN-M-23M23S1,1383,experiment,102,↑,up,↑,0.43518869997933507,True,28,1
KN-M-23M23S1,1384,experiment,55,→,left,←,0.46320330002345145,False,28,1
KN-M-23M23S1,1385,experiment,71,↑,up,↑,0.4769957999815233,True,28,1
KN-M-23M23S1,1386,experiment,62,↑,up,↑,0.5409863999811932,True,28,1
KN-M-23M23S1,1387,experiment,104,↑,up,↑,0.5320576999802142,True,28,1
KN-M-23M23S1,1388,experiment,87,←,right,→,0.625444500008598,False,28,1
KN-M-23M23S1,1389,experiment,74,→,right,→,0.6877411000314169,True,28,1
KN-M-23M23S1,1390,experiment,106,↑,up,↑,0.720072700001765,True,28,1
KN-M-23M23S1,1391,experiment,75,←,left,←,0.7064403000404127,True,28,1
KN-M-23M23S1,1392,experiment,103,→,right,→,0.7154455000418238,True,28,1
KN-M-23M23S1,1393,experiment,80,↓,down,↓,0.6035685999668203,True,28,1
KN-M-23M23S1,1394,experiment,105,←,left,←,0.5760893000406213,True,28,1
KN-M-23M23S1,1395,experiment,56,→,left,←,0.7506997999735177,False,28,1
KN-M-23M23S1,1396,experiment,99,↓,down,↓,0.5032416000030935,True,28,1
KN-M-23M23S1,1397,experiment,90,↑,down,↓,0.4132407000288367,False,28,1
KN-M-23M23S1,1398,experiment,72,↓,down,↓,0.6278856999706477,True,28,1
KN-M-23M23S1,1399,experiment,70,→,right,→,0.5634199000196531,True,28,1
KN-M-23M23S1,1400,experiment,95,→,right,→,1.1888819999876432,True,28,1
KN-M-23M23S1,1401,experiment,89,↑,up,↑,0.5037593999877572,True,28,1
KN-M-23M23S1,1402,experiment,76,↑,up,↑,0.45757739996770397,True,28,1
KN-M-23M23S1,1403,experiment,48,↓,up,↑,0.7747626000200398,False,28,1
KN-M-23M23S1,1404,experiment,67,↑,left,←,1.088944100018125,False,28,1
KN-M-23M23S1,1405,experiment,52,↓,down,↓,0.5718362999614328,True,28,1
KN-M-23M23S1,1406,experiment,96,→,right,→,0.5325007999781519,True,28,1
KN-M-23M23S1,1407,experiment,79,→,right,→,0.6125425000209361,True,28,1
KN-M-23M23S1,1408,experiment,61,←,left,←,0.6711861999938264,True,28,1
KN-M-23M23S1,1409,experiment,49,→,right,→,0.7155587999732234,True,28,1
KN-M-23M23S1,1410,experiment,63,↑,up,↑,0.6175992999924347,True,28,1
KN-M-23M23S1,1411,experiment,66,→,right,→,0.5146333000157028,True,28,1
KN-M-23M23S1,1412,experiment,60,↑,up,↑,0.5377252000034787,True,28,1
KN-M-23M23S1,1413,experiment,78,↓,down,↓,0.6178971999906935,True,28,1
KN-M-23M23S1,1414,experiment,53,→,right,→,0.7594569999491796,True,28,1
KN-M-23M23S1,1415,experiment,73,↑,up,↑,0.5682798999478109,True,28,1
KN-M-23M23S1,1416,experiment,100,→,right,→,0.5360859000356868,True,28,1
KN-M-23M23S1,1417,experiment,69,←,right,→,0.5959391999640502,False,28,1
KN-M-23M23S1,1418,experiment,51,↑,up,↑,0.522305500053335,True,28,1
KN-M-23M23S1,1419,experiment,65,→,right,→,0.5834238999523222,True,28,1
KN-M-23M23S1,1420,experiment,97,↑,up,↑,0.5352480000001378,True,28,1
KN-M-23M23S1,1421,experiment,50,↓,down,↓,0.8094847000320442,True,28,1
KN-M-23M23S1,1422,experiment,57,↑,up,↑,0.797288200003095,True,28,1
KN-M-23M23S1,1423,experiment,58,↑,up,↑,0.6100844999891706,True,28,1
KN-M-23M23S1,1424,experiment,84,↓,down,↓,0.5571972000179812,True,28,1
