PART_ID,Trial_no,Trial_type,CSI,Stim_letter,Key_pressed,letter_choose,Rt,Corr,Stimulus Time,nDropped
KS-K-21K21S1,1,training,120,←,no_key,no_letter,-1.0,False,60,1
KS-K-21K21S1,2,training,120,←,left,←,1.331912999972701,True,60,0
KS-K-21K21S1,3,training,120,→,right,→,1.036861200002022,True,60,0
KS-K-21K21S1,4,training,120,→,right,→,0.9145721000386402,True,60,0
KS-K-21K21S1,5,training,120,↑,up,↑,0.9170439000008628,True,60,0
KS-K-21K21S1,6,training,120,↓,down,↓,0.9994633999885991,True,60,0
KS-K-21K21S1,7,training,120,←,left,←,0.7586491999682039,True,60,0
KS-K-21K21S1,8,training,120,→,left,←,1.5351076000370085,False,60,0
KS-K-21K21S1,9,training,120,→,right,→,0.7205599000444636,True,60,0
KS-K-21K21S1,10,training,120,←,left,←,0.6747920999769121,True,60,0
KS-K-21K21S1,11,training,120,→,right,→,0.7746723999734968,True,60,0
KS-K-21K21S1,12,training,120,←,left,←,0.7108395000686869,True,60,0
KS-K-21K21S1,13,training,120,↓,down,↓,0.8738986999960616,True,60,0
KS-K-21K21S1,14,training,120,↓,down,↓,0.845885300077498,True,60,0
KS-K-21K21S1,15,training,120,→,right,→,0.8428373999195173,True,60,0
KS-K-21K21S1,16,training,120,↑,up,↑,0.7918431999860331,True,60,0
KS-K-21K21S1,17,training,120,↑,up,↑,0.8550305999815464,True,60,0
KS-K-21K21S1,18,training,120,←,left,←,0.8359150999458507,True,60,0
KS-K-21K21S1,19,training,120,→,right,→,0.9535778000717983,True,60,0
KS-K-21K21S1,20,training,120,↓,down,↓,1.8824356000404805,True,60,0
KS-K-21K21S1,21,no_adaptation,120,↓,down,↓,0.6901655000401661,True,36,0
KS-K-21K21S1,22,no_adaptation,120,→,right,→,0.5813701000297442,True,36,0
KS-K-21K21S1,23,no_adaptation,120,↓,down,↓,0.6135108000598848,True,36,0
KS-K-21K21S1,24,no_adaptation,120,→,right,→,0.8995947000803426,True,36,0
KS-K-21K21S1,25,no_adaptation,120,↓,down,↓,0.694766900036484,True,36,0
KS-K-21K21S1,26,no_adaptation,120,↑,up,↑,0.6340112000470981,True,36,0
KS-K-21K21S1,27,no_adaptation,120,↑,up,↑,0.6075225000968203,True,36,0
KS-K-21K21S1,28,no_adaptation,120,←,left,←,0.48663759999908507,True,36,0
KS-K-21K21S1,29,no_adaptation,120,←,right,→,0.521867899922654,False,36,0
KS-K-21K21S1,30,no_adaptation,120,↓,down,↓,0.8283989001065493,True,36,0
KS-K-21K21S1,31,no_adaptation,120,↑,up,↑,0.6820262999972329,True,36,0
KS-K-21K21S1,32,no_adaptation,120,←,left,←,0.7738543000305071,True,36,0
KS-K-21K21S1,33,no_adaptation,120,↑,up,↑,0.5580802999902517,True,36,0
KS-K-21K21S1,34,no_adaptation,120,→,right,→,0.534920800011605,True,36,0
KS-K-21K21S1,35,no_adaptation,120,↑,up,↑,0.5202961000613868,True,36,0
KS-K-21K21S1,36,no_adaptation,120,←,left,←,0.4907027999870479,True,36,0
KS-K-21K21S1,37,no_adaptation,120,→,left,←,0.426240999950096,False,36,0
KS-K-21K21S1,38,no_adaptation,120,↓,down,↓,0.6753949999110773,True,36,0
KS-K-21K21S1,39,no_adaptation,120,←,left,←,0.60759229992982,True,36,0
KS-K-21K21S1,40,no_adaptation,120,←,left,←,0.5584373999154195,True,36,0
KS-K-21K21S1,41,training,94,←,left,←,0.6952238000230864,True,36,0
KS-K-21K21S1,42,training,100,→,right,→,1.6818712999811396,True,36,1
KS-K-21K21S1,43,experiment,88,↓,down,↓,0.7048633000813425,True,36,1
KS-K-21K21S1,44,experiment,63,←,left,←,0.607192000024952,True,36,1
KS-K-21K21S1,45,experiment,77,→,no_key,no_letter,-1.0,False,36,1
KS-K-21K21S1,46,experiment,54,→,right,→,0.5558214000193402,True,36,1
KS-K-21K21S1,47,experiment,66,→,right,→,0.5592625000281259,True,36,1
KS-K-21K21S1,48,experiment,65,↓,down,↓,0.7308272999944165,True,36,1
KS-K-21K21S1,49,experiment,59,↓,down,↓,0.43404770002234727,True,36,1
KS-K-21K21S1,50,experiment,93,↑,down,↓,0.7523892000317574,False,36,0
KS-K-21K21S1,51,experiment,55,←,left,←,0.6316765999654308,True,36,1
KS-K-21K21S1,52,experiment,99,↓,down,↓,0.6450885001104325,True,36,1
KS-K-21K21S1,53,experiment,82,↓,down,↓,0.47958309995010495,True,36,1
KS-K-21K21S1,54,experiment,97,←,left,←,0.6756125000538304,True,36,1
KS-K-21K21S1,55,experiment,58,←,left,←,0.5410646999953315,True,36,1
KS-K-21K21S1,56,experiment,73,↓,down,↓,0.5591774000786245,True,36,1
KS-K-21K21S1,57,experiment,107,↑,up,↑,0.5322849000804126,True,36,1
KS-K-21K21S1,58,experiment,94,→,left,←,0.7274396000429988,False,36,1
KS-K-21K21S1,59,experiment,105,←,left,←,0.5107910999795422,True,36,1
KS-K-21K21S1,60,experiment,71,←,left,←,0.586514399969019,True,36,1
KS-K-21K21S1,61,experiment,90,←,left,←,0.42619370005559176,True,36,1
KS-K-21K21S1,62,experiment,86,↓,left,←,0.33527550008147955,False,36,1
KS-K-21K21S1,63,experiment,101,←,left,←,0.6948124000336975,True,36,0
KS-K-21K21S1,64,experiment,87,←,left,←,0.5818711000028998,True,36,1
KS-K-21K21S1,65,experiment,72,↓,down,↓,0.6941287000663579,True,36,1
KS-K-21K21S1,66,experiment,75,↑,up,↑,0.49733510008081794,True,36,1
KS-K-21K21S1,67,experiment,52,→,right,→,0.7000251000281423,True,36,1
KS-K-21K21S1,68,experiment,85,→,right,→,0.5390677000395954,True,36,1
KS-K-21K21S1,69,experiment,50,↓,down,↓,0.7163912000833079,True,36,1
KS-K-21K21S1,70,experiment,51,→,right,→,0.5426156000467017,True,36,1
KS-K-21K21S1,71,experiment,48,→,right,→,0.5604904000647366,True,36,1
KS-K-21K21S1,72,experiment,98,←,left,←,0.4549719999777153,True,36,1
KS-K-21K21S1,73,experiment,100,↓,down,↓,0.6211767999920994,True,36,1
KS-K-21K21S1,74,experiment,57,↑,up,↑,0.6007931999629363,True,36,1
KS-K-21K21S1,75,experiment,96,↓,down,↓,0.6804888000478968,True,36,1
KS-K-21K21S1,76,experiment,69,←,left,←,0.5820204999763519,True,36,1
KS-K-21K21S1,77,experiment,84,↑,up,↑,0.6583698999602348,True,36,1
KS-K-21K21S1,78,experiment,61,→,right,→,0.675464199972339,True,36,1
KS-K-21K21S1,79,experiment,95,←,left,←,0.4337115999078378,True,36,1
KS-K-21K21S1,80,experiment,76,→,right,→,0.6852224000031129,True,36,0
KS-K-21K21S1,81,experiment,103,←,left,←,0.5111918000038713,True,36,1
KS-K-21K21S1,82,experiment,49,→,right,→,0.5544648000504822,True,36,1
KS-K-21K21S1,83,experiment,74,↓,down,↓,0.6109956000000238,True,36,1
KS-K-21K21S1,84,experiment,78,←,left,←,0.47267639997880906,True,36,1
KS-K-21K21S1,85,experiment,68,↑,up,↑,0.47062489995732903,True,36,1
KS-K-21K21S1,86,experiment,62,↑,up,↑,0.3837396999588236,True,36,0
KS-K-21K21S1,87,experiment,104,→,right,→,0.6279205998871475,True,36,0
KS-K-21K21S1,88,experiment,102,←,left,←,0.5526847000000998,True,36,1
KS-K-21K21S1,89,experiment,108,←,left,←,0.6699790999991819,True,36,1
KS-K-21K21S1,90,experiment,81,→,no_key,no_letter,-1.0,False,36,1
KS-K-21K21S1,91,experiment,70,←,left,←,0.7135747000575066,True,36,1
KS-K-21K21S1,92,experiment,67,←,left,←,0.5023139999248087,True,36,1
KS-K-21K21S1,93,experiment,64,↑,up,↑,0.6847739999648184,True,36,1
KS-K-21K21S1,94,experiment,106,←,left,←,0.5817255000583827,True,36,1
KS-K-21K21S1,95,experiment,56,→,left,←,0.6755258999764919,False,36,1
KS-K-21K21S1,96,experiment,53,↓,down,↓,0.7265821000328287,True,36,1
KS-K-21K21S1,97,experiment,80,↓,down,↓,0.6067045000381768,True,36,1
KS-K-21K21S1,98,experiment,91,→,right,→,0.6797064000274986,True,36,1
KS-K-21K21S1,99,experiment,83,↓,down,↓,0.6723556999349967,True,36,1
KS-K-21K21S1,100,experiment,89,↑,up,↑,0.615372599917464,True,36,1
KS-K-21K21S1,101,experiment,92,←,left,←,1.8317742000799626,True,36,1
KS-K-21K21S1,102,experiment,79,←,left,←,0.6276187000330538,True,36,1
KS-K-21K21S1,103,experiment,60,→,right,→,0.6303994000190869,True,36,1
KS-K-21K21S1,104,training,92,→,left,←,1.1824405000079423,False,35,0
KS-K-21K21S1,105,training,70,←,no_key,no_letter,-1.0,False,35,1
KS-K-21K21S1,106,experiment,59,↑,up,↑,0.532872200012207,True,35,1
KS-K-21K21S1,107,experiment,96,→,right,→,0.7592628999846056,True,35,1
KS-K-21K21S1,108,experiment,84,←,no_key,no_letter,-1.0,False,35,1
KS-K-21K21S1,109,experiment,66,→,right,→,0.6155068000080064,True,35,1
KS-K-21K21S1,110,experiment,55,→,right,→,0.5402781999437138,True,35,1
KS-K-21K21S1,111,experiment,67,↓,right,→,0.36833550001028925,False,35,1
KS-K-21K21S1,112,experiment,101,→,right,→,0.6067291999934241,True,35,0
KS-K-21K21S1,113,experiment,89,↓,down,↓,0.520606099977158,True,35,1
KS-K-21K21S1,114,experiment,92,←,left,←,0.5083990000421181,True,35,1
KS-K-21K21S1,115,experiment,102,→,right,→,0.4005281999707222,True,35,1
KS-K-21K21S1,116,experiment,85,←,left,←,0.5451248999452218,True,35,0
KS-K-21K21S1,117,experiment,69,→,right,→,0.5080857999855652,True,35,1
KS-K-21K21S1,118,experiment,77,↑,up,↑,0.4703870000084862,True,35,1
KS-K-21K21S1,119,experiment,64,→,right,→,0.469660900067538,True,35,1
KS-K-21K21S1,120,experiment,87,←,left,←,0.5889616999775171,True,35,1
KS-K-21K21S1,121,experiment,100,→,right,→,0.5156906999181956,True,35,1
KS-K-21K21S1,122,experiment,61,←,left,←,0.626390999997966,True,35,1
KS-K-21K21S1,123,experiment,88,→,right,→,0.5638736999826506,True,35,1
KS-K-21K21S1,124,experiment,99,→,right,→,0.40882230002898723,True,35,1
KS-K-21K21S1,125,experiment,48,↓,right,→,1.2829781000036746,False,35,0
KS-K-21K21S1,126,experiment,105,↓,down,↓,1.0840982000809163,True,35,1
KS-K-21K21S1,127,experiment,65,←,left,←,0.5711263000266626,True,35,1
KS-K-21K21S1,128,experiment,94,→,right,→,0.46865210006944835,True,35,1
KS-K-21K21S1,129,experiment,104,↓,down,↓,1.5823640000307932,True,35,1
KS-K-21K21S1,130,experiment,50,↑,up,↑,0.7177898000227287,True,35,1
KS-K-21K21S1,131,experiment,80,↑,no_key,no_letter,-1.0,False,35,1
KS-K-21K21S1,132,experiment,97,←,left,←,0.5912521999562159,True,35,1
KS-K-21K21S1,133,experiment,72,↓,down,↓,0.6872001000447199,True,35,1
KS-K-21K21S1,134,experiment,58,←,left,←,0.6400815999368206,True,35,1
KS-K-21K21S1,135,experiment,98,→,right,→,0.5734550999477506,True,35,1
KS-K-21K21S1,136,experiment,76,↑,up,↑,0.572729800012894,True,35,1
KS-K-21K21S1,137,experiment,54,←,left,←,0.4346002000384033,True,35,1
KS-K-21K21S1,138,experiment,81,←,no_key,no_letter,-1.0,False,35,0
KS-K-21K21S1,139,experiment,83,↓,down,↓,0.8117127000587061,True,35,1
KS-K-21K21S1,140,experiment,49,→,right,→,0.6827277999836951,True,35,1
KS-K-21K21S1,141,experiment,91,→,right,→,0.4967649000464007,True,35,1
KS-K-21K21S1,142,experiment,71,↓,down,↓,0.7410137000260875,True,35,1
KS-K-21K21S1,143,experiment,70,→,left,←,0.8237860000226647,False,35,1
KS-K-21K21S1,144,experiment,74,←,left,←,0.5894619999453425,True,35,1
KS-K-21K21S1,145,experiment,106,↓,down,↓,0.6823581999633461,True,35,1
KS-K-21K21S1,146,experiment,62,←,left,←,0.7542062000138685,True,35,1
KS-K-21K21S1,147,experiment,108,←,left,←,1.7357115000486374,True,35,1
KS-K-21K21S1,148,experiment,95,←,left,←,0.562155400053598,True,35,1
KS-K-21K21S1,149,experiment,93,↑,up,↑,1.1804585999343544,True,35,1
KS-K-21K21S1,150,experiment,51,←,left,←,0.4596834999974817,True,35,1
KS-K-21K21S1,151,experiment,52,→,right,→,0.671786000020802,True,35,0
KS-K-21K21S1,152,experiment,78,←,left,←,0.5302521999692544,True,35,1
KS-K-21K21S1,153,experiment,90,←,left,←,0.4176624999381602,True,35,1
KS-K-21K21S1,154,experiment,73,↓,down,↓,0.7249184000538662,True,35,1
KS-K-21K21S1,155,experiment,63,↑,down,↓,0.6746306999120861,False,35,1
KS-K-21K21S1,156,experiment,68,↑,up,↑,1.0167475000489503,True,35,1
KS-K-21K21S1,157,experiment,82,↓,down,↓,0.6447569999145344,True,35,1
KS-K-21K21S1,158,experiment,60,←,left,←,0.6705577000975609,True,35,1
KS-K-21K21S1,159,experiment,79,→,right,→,0.5768510999623686,True,35,1
KS-K-21K21S1,160,experiment,75,↑,up,↑,0.7442771000787616,True,35,1
KS-K-21K21S1,161,experiment,53,↓,down,↓,0.6965373000130057,True,35,1
KS-K-21K21S1,162,experiment,56,↑,down,↓,0.889522600104101,False,35,1
KS-K-21K21S1,163,experiment,107,←,left,←,0.7061728000408038,True,35,1
KS-K-21K21S1,164,experiment,57,→,right,→,0.49041179998312145,True,35,1
KS-K-21K21S1,165,experiment,86,↑,up,↑,0.4666601000353694,True,35,1
KS-K-21K21S1,166,experiment,103,↑,up,↑,0.5085724999662489,True,35,1
KS-K-21K21S1,167,training,77,↓,down,↓,0.6772422000067309,True,35,0
KS-K-21K21S1,168,training,71,←,left,←,0.498145499965176,True,35,1
KS-K-21K21S1,169,experiment,77,→,right,→,0.5643550999229774,True,35,1
KS-K-21K21S1,170,experiment,49,→,no_key,no_letter,-1.0,False,35,1
KS-K-21K21S1,171,experiment,85,↑,up,↑,0.7777013999875635,True,35,1
KS-K-21K21S1,172,experiment,66,→,right,→,0.6042589000426233,True,35,1
KS-K-21K21S1,173,experiment,95,←,left,←,0.41785510000772774,True,35,1
KS-K-21K21S1,174,experiment,62,↑,up,↑,0.425325799966231,True,35,0
KS-K-21K21S1,175,experiment,75,←,left,←,0.4679327999474481,True,35,0
KS-K-21K21S1,176,experiment,69,↑,up,↑,0.5052755000069737,True,35,1
KS-K-21K21S1,177,experiment,55,↓,down,↓,0.7062845999607816,True,35,1
KS-K-21K21S1,178,experiment,104,↓,down,↓,0.6990506999427453,True,35,1
KS-K-21K21S1,179,experiment,57,↑,up,↑,0.483868999988772,True,35,1
KS-K-21K21S1,180,experiment,71,↓,down,↓,0.7204302001046017,True,35,1
KS-K-21K21S1,181,experiment,60,→,left,←,0.5512583999661729,False,35,1
KS-K-21K21S1,182,experiment,61,→,no_key,no_letter,-1.0,False,35,1
KS-K-21K21S1,183,experiment,97,→,right,→,0.5095132000278682,True,35,1
KS-K-21K21S1,184,experiment,99,↓,down,↓,0.5519269000506029,True,35,1
KS-K-21K21S1,185,experiment,88,→,right,→,0.4686422999948263,True,35,1
KS-K-21K21S1,186,experiment,83,←,left,←,0.36719190003350377,True,35,1
KS-K-21K21S1,187,experiment,78,↑,up,↑,0.5722177000716329,True,35,0
KS-K-21K21S1,188,experiment,92,↑,up,↑,0.4004875000100583,True,35,1
KS-K-21K21S1,189,experiment,103,→,right,→,0.47517790005076677,True,35,0
KS-K-21K21S1,190,experiment,72,→,right,→,0.40062590001616627,True,35,1
KS-K-21K21S1,191,experiment,107,→,right,→,0.47580599994398654,True,35,0
KS-K-21K21S1,192,experiment,53,→,right,→,0.5025704000145197,True,35,1
KS-K-21K21S1,193,experiment,56,←,left,←,0.7435334000037983,True,35,1
KS-K-21K21S1,194,experiment,67,→,right,→,0.5712089999578893,True,35,1
KS-K-21K21S1,195,experiment,93,←,left,←,0.5328962999628857,True,35,1
KS-K-21K21S1,196,experiment,65,←,left,←,0.6018671999918297,True,35,1
KS-K-21K21S1,197,experiment,51,←,left,←,0.4086254999274388,True,35,1
KS-K-21K21S1,198,experiment,59,↓,down,↓,0.7319960999302566,True,35,0
KS-K-21K21S1,199,experiment,86,↑,up,↑,0.4661006999667734,True,35,1
KS-K-21K21S1,200,experiment,54,↑,up,↑,0.5726509999949485,True,35,0
KS-K-21K21S1,201,experiment,48,↓,down,↓,0.7575066999997944,True,35,1
KS-K-21K21S1,202,experiment,82,→,right,→,0.4171549000311643,True,35,1
KS-K-21K21S1,203,experiment,106,→,right,→,0.42616340005770326,True,35,0
KS-K-21K21S1,204,experiment,81,↓,down,↓,0.6583197999279946,True,35,1
KS-K-21K21S1,205,experiment,96,←,left,←,0.4645376999396831,True,35,1
KS-K-21K21S1,206,experiment,70,↓,down,↓,0.7895219000056386,True,35,1
KS-K-21K21S1,207,experiment,79,←,left,←,0.6590141999768093,True,35,1
KS-K-21K21S1,208,experiment,63,→,right,→,1.0114453000715002,True,35,1
KS-K-21K21S1,209,experiment,100,↑,up,↑,0.6650415000040084,True,35,1
KS-K-21K21S1,210,experiment,80,↓,down,↓,0.5795346999075264,True,35,1
KS-K-21K21S1,211,experiment,68,↓,down,↓,0.5336312999716029,True,35,1
KS-K-21K21S1,212,experiment,101,←,left,←,0.6862783000105992,True,35,1
KS-K-21K21S1,213,experiment,76,↓,down,↓,0.5694434000179172,True,35,1
KS-K-21K21S1,214,experiment,87,←,left,←,0.5413732000160962,True,35,1
KS-K-21K21S1,215,experiment,74,→,right,→,0.4258677000179887,True,35,1
KS-K-21K21S1,216,experiment,102,↓,down,↓,0.5711749000474811,True,35,0
KS-K-21K21S1,217,experiment,58,→,right,→,0.5447635999880731,True,35,1
KS-K-21K21S1,218,experiment,84,↑,up,↑,0.558357400004752,True,35,1
KS-K-21K21S1,219,experiment,108,↓,down,↓,0.7477217999985442,True,35,1
KS-K-21K21S1,220,experiment,50,↓,down,↓,0.6767113000387326,True,35,1
KS-K-21K21S1,221,experiment,105,↑,up,↑,0.5985438000643626,True,35,1
KS-K-21K21S1,222,experiment,98,→,right,→,0.6135148000903428,True,35,1
KS-K-21K21S1,223,experiment,94,↓,down,↓,0.5893251999514177,True,35,1
KS-K-21K21S1,224,experiment,90,↑,up,↑,0.5912601000163704,True,35,1
KS-K-21K21S1,225,experiment,89,↑,up,↑,0.49762729997746646,True,35,1
KS-K-21K21S1,226,experiment,91,→,right,→,0.7429146999493241,True,35,1
KS-K-21K21S1,227,experiment,73,↓,down,↓,0.5206348999636248,True,35,1
KS-K-21K21S1,228,experiment,52,↑,up,↑,0.6023728000000119,True,35,1
KS-K-21K21S1,229,experiment,64,↓,down,↓,0.6766940000234172,True,35,1
KS-K-21K21S1,230,training,80,←,left,←,0.42603430000599474,True,34,0
KS-K-21K21S1,231,training,49,→,right,→,0.5237450000131503,True,34,0
KS-K-21K21S1,232,experiment,80,↓,down,↓,0.5636988000478595,True,34,1
KS-K-21K21S1,233,experiment,106,→,right,→,0.3671814000699669,True,34,1
KS-K-21K21S1,234,experiment,50,←,left,←,0.5615396000212058,True,34,0
KS-K-21K21S1,235,experiment,78,→,left,←,0.48890060000121593,False,34,1
KS-K-21K21S1,236,experiment,83,←,left,←,0.4004599000327289,True,34,1
KS-K-21K21S1,237,experiment,64,↑,up,↑,0.46738529996946454,True,34,0
KS-K-21K21S1,238,experiment,74,↑,up,↑,0.5759857000084594,True,34,1
KS-K-21K21S1,239,experiment,66,↑,up,↑,1.0825610000174493,True,34,1
KS-K-21K21S1,240,experiment,107,↑,no_key,no_letter,-1.0,False,34,1
KS-K-21K21S1,241,experiment,88,↓,up,↑,1.535520000034012,False,34,1
KS-K-21K21S1,242,experiment,57,↓,down,↓,0.5987355000106618,True,34,1
KS-K-21K21S1,243,experiment,69,↑,up,↑,0.5915801000082865,True,34,1
KS-K-21K21S1,244,experiment,48,←,left,←,0.6075803000712767,True,34,1
KS-K-21K21S1,245,experiment,90,↑,up,↑,0.417873099911958,True,34,1
KS-K-21K21S1,246,experiment,108,→,right,→,0.4336835000431165,True,34,1
KS-K-21K21S1,247,experiment,91,←,left,←,0.5873846999602392,True,34,0
KS-K-21K21S1,248,experiment,87,↓,down,↓,0.5424621999263763,True,34,1
KS-K-21K21S1,249,experiment,51,←,left,←,0.6954303999664262,True,34,1
KS-K-21K21S1,250,experiment,103,→,right,→,0.3863808000460267,True,34,1
KS-K-21K21S1,251,experiment,65,→,right,→,0.5950212000170723,True,34,0
KS-K-21K21S1,252,experiment,76,↑,up,↑,0.7621895000338554,True,34,1
KS-K-21K21S1,253,experiment,97,→,down,↓,1.0744491999503225,False,34,1
KS-K-21K21S1,254,experiment,99,↓,down,↓,0.9180428999243304,True,34,1
KS-K-21K21S1,255,experiment,105,←,left,←,0.4260421999497339,True,34,1
KS-K-21K21S1,256,experiment,59,↑,up,↑,0.39451539993751794,True,34,1
KS-K-21K21S1,257,experiment,73,→,right,→,0.5278979999711737,True,34,0
KS-K-21K21S1,258,experiment,84,↓,down,↓,0.686765699996613,True,34,1
KS-K-21K21S1,259,experiment,61,↓,down,↓,0.7186357999453321,True,34,1
KS-K-21K21S1,260,experiment,92,↑,no_key,no_letter,-1.0,False,34,1
KS-K-21K21S1,261,experiment,89,→,no_key,no_letter,-1.0,False,34,1
KS-K-21K21S1,262,experiment,77,↑,up,↑,0.5824310999596491,True,34,1
KS-K-21K21S1,263,experiment,100,→,right,→,0.7816147999837995,True,34,1
KS-K-21K21S1,264,experiment,81,↑,up,↑,0.5707987999776378,True,34,1
KS-K-21K21S1,265,experiment,49,→,right,→,0.45955469994805753,True,34,1
KS-K-21K21S1,266,experiment,63,↓,up,↑,1.1235981999197975,False,34,1
KS-K-21K21S1,267,experiment,58,←,left,←,0.4257354000583291,True,34,1
KS-K-21K21S1,268,experiment,82,←,left,←,0.47762230003718287,True,34,0
KS-K-21K21S1,269,experiment,98,↑,up,↑,0.40273380000144243,True,34,1
KS-K-21K21S1,270,experiment,101,←,left,←,0.4177168000023812,True,34,0
KS-K-21K21S1,271,experiment,72,←,left,←,0.34233229991514236,True,34,0
KS-K-21K21S1,272,experiment,96,↓,left,←,0.9034284999361262,False,34,0
KS-K-21K21S1,273,experiment,71,→,right,→,0.3929273000685498,True,34,1
KS-K-21K21S1,274,experiment,53,→,right,→,0.5937926999758929,True,34,0
KS-K-21K21S1,275,experiment,67,→,right,→,0.5712675000540912,True,34,1
KS-K-21K21S1,276,experiment,62,←,right,→,0.7517765000229701,False,34,1
KS-K-21K21S1,277,experiment,104,↓,down,↓,0.5661760000512004,True,34,1
KS-K-21K21S1,278,experiment,56,←,left,←,0.5168118999572471,True,34,1
KS-K-21K21S1,279,experiment,79,→,right,→,0.6294487999984995,True,34,1
KS-K-21K21S1,280,experiment,52,←,no_key,no_letter,-1.0,False,34,1
KS-K-21K21S1,281,experiment,85,←,left,←,0.7357937000924721,True,34,1
KS-K-21K21S1,282,experiment,86,↓,down,↓,0.6535083000781015,True,34,1
KS-K-21K21S1,283,experiment,54,↑,up,↑,0.6332192999543622,True,34,1
KS-K-21K21S1,284,experiment,95,↓,down,↓,0.7437820999184623,True,34,1
KS-K-21K21S1,285,experiment,102,←,left,←,0.6879365999484435,True,34,1
KS-K-21K21S1,286,experiment,55,←,left,←,0.4109009000239894,True,34,1
KS-K-21K21S1,287,experiment,60,→,right,→,0.39239359996281564,True,34,1
KS-K-21K21S1,288,experiment,70,↑,up,↑,0.5651230000657961,True,34,0
KS-K-21K21S1,289,experiment,75,↓,down,↓,0.8132110999431461,True,34,1
KS-K-21K21S1,290,experiment,68,↓,down,↓,0.5175245000282302,True,34,1
KS-K-21K21S1,291,experiment,94,←,left,←,0.4110107999294996,True,34,1
KS-K-21K21S1,292,experiment,93,→,left,←,0.7292296999366954,False,34,0
KS-K-21K21S1,293,training,100,←,left,←,0.4342068999540061,True,34,0
KS-K-21K21S1,294,training,78,→,right,→,0.31714679999276996,True,34,0
KS-K-21K21S1,295,experiment,50,→,right,→,0.5070310999872163,True,34,0
KS-K-21K21S1,296,experiment,79,→,left,←,0.4550065000075847,False,34,1
KS-K-21K21S1,297,experiment,92,↑,up,↑,0.5707177999429405,True,34,0
KS-K-21K21S1,298,experiment,97,←,left,←,0.38417029997799546,True,34,1
KS-K-21K21S1,299,experiment,61,↓,down,↓,0.5668362000724301,True,34,0
KS-K-21K21S1,300,experiment,98,←,no_key,no_letter,-1.0,False,34,1
KS-K-21K21S1,301,experiment,75,→,left,←,0.40953730000182986,False,34,1
KS-K-21K21S1,302,experiment,99,↑,up,↑,0.38358429993968457,True,34,0
KS-K-21K21S1,303,experiment,107,↑,up,↑,0.4090307999867946,True,34,0
KS-K-21K21S1,304,experiment,88,↑,up,↑,0.3921427000313997,True,34,0
KS-K-21K21S1,305,experiment,81,↑,up,↑,0.5447449999628589,True,34,0
KS-K-21K21S1,306,experiment,68,↑,up,↑,0.4006198999704793,True,34,1
KS-K-21K21S1,307,experiment,65,←,left,←,0.46226969989947975,True,34,0
KS-K-21K21S1,308,experiment,102,↑,up,↑,0.39422679995186627,True,34,1
KS-K-21K21S1,309,experiment,85,→,right,→,0.6844494000542909,True,34,0
KS-K-21K21S1,310,experiment,86,↑,up,↑,0.36732119997031987,True,34,1
KS-K-21K21S1,311,experiment,51,→,right,→,0.7395593000110239,True,34,0
KS-K-21K21S1,312,experiment,89,↑,up,↑,0.6318353000096977,True,34,1
KS-K-21K21S1,313,experiment,106,→,right,→,0.7389818999217823,True,34,1
KS-K-21K21S1,314,experiment,76,↓,up,↑,1.0277725000632927,False,34,1
KS-K-21K21S1,315,experiment,74,←,left,←,0.522045599995181,True,34,1
KS-K-21K21S1,316,experiment,104,↑,up,↑,0.37613480002619326,True,34,1
KS-K-21K21S1,317,experiment,64,←,left,←,0.6528380999807268,True,34,1
KS-K-21K21S1,318,experiment,54,←,left,←,0.4333663999568671,True,34,1
KS-K-21K21S1,319,experiment,63,←,left,←,0.5935812001116574,True,34,0
KS-K-21K21S1,320,experiment,72,↑,up,↑,0.6014362999703735,True,34,1
KS-K-21K21S1,321,experiment,90,↓,up,↑,1.3470950999762863,False,34,1
KS-K-21K21S1,322,experiment,94,↑,up,↑,0.7174413999309763,True,34,1
KS-K-21K21S1,323,experiment,69,↓,down,↓,0.7374837999232113,True,34,1
KS-K-21K21S1,324,experiment,93,←,left,←,0.7325395999941975,True,34,1
KS-K-21K21S1,325,experiment,52,↑,up,↑,0.43454529996961355,True,34,1
KS-K-21K21S1,326,experiment,103,←,left,←,0.6570992000633851,True,34,1
KS-K-21K21S1,327,experiment,105,↑,up,↑,0.595663100015372,True,34,1
KS-K-21K21S1,328,experiment,71,←,left,←,0.5557111999951303,True,34,1
KS-K-21K21S1,329,experiment,77,↑,up,↑,0.4258210000116378,True,34,1
KS-K-21K21S1,330,experiment,67,↓,down,↓,0.8194445000262931,True,34,0
KS-K-21K21S1,331,experiment,95,↑,up,↑,0.6027762000449002,True,34,1
KS-K-21K21S1,332,experiment,55,→,right,→,0.4958834000863135,True,34,1
KS-K-21K21S1,333,experiment,62,↑,up,↑,0.6072376000229269,True,34,1
KS-K-21K21S1,334,experiment,91,↓,down,↓,0.8079877001000568,True,34,1
KS-K-21K21S1,335,experiment,58,↓,down,↓,0.8281594000291079,True,34,1
KS-K-21K21S1,336,experiment,53,↑,down,↓,0.9930012999102473,False,34,1
KS-K-21K21S1,337,experiment,108,↑,up,↑,0.46940259996335953,True,34,1
KS-K-21K21S1,338,experiment,83,↑,up,↑,0.5021118000149727,True,34,1
KS-K-21K21S1,339,experiment,82,↓,down,↓,0.7345937999198213,True,34,1
KS-K-21K21S1,340,experiment,73,←,left,←,0.6405110999476165,True,34,1
KS-K-21K21S1,341,experiment,56,↓,down,↓,0.5961787999840453,True,34,1
KS-K-21K21S1,342,experiment,96,←,left,←,0.6757622000295669,True,34,1
KS-K-21K21S1,343,experiment,60,↑,up,↑,1.2924934000475332,True,34,1
KS-K-21K21S1,344,experiment,87,→,right,→,0.6195387999759987,True,34,1
KS-K-21K21S1,345,experiment,80,↑,up,↑,0.6078706999542192,True,34,1
KS-K-21K21S1,346,experiment,57,↑,up,↑,0.4262170000001788,True,34,1
KS-K-21K21S1,347,experiment,100,↓,down,↓,0.8653454999439418,True,34,1
KS-K-21K21S1,348,experiment,70,←,no_key,no_letter,-1.0,False,34,1
KS-K-21K21S1,349,experiment,59,→,right,→,1.0929415000136942,True,34,1
KS-K-21K21S1,350,experiment,49,←,left,←,0.5205482998862863,True,34,1
KS-K-21K21S1,351,experiment,78,←,left,←,0.5456746000563726,True,34,1
KS-K-21K21S1,352,experiment,84,→,no_key,no_letter,-1.0,False,34,1
KS-K-21K21S1,353,experiment,48,→,right,→,0.768784899963066,True,34,1
KS-K-21K21S1,354,experiment,101,←,left,←,0.6001840999815613,True,34,1
KS-K-21K21S1,355,experiment,66,↓,down,↓,1.2420011999784037,True,34,1
KS-K-21K21S1,356,training,92,←,left,←,0.4804562999634072,True,34,0
KS-K-21K21S1,357,training,60,←,left,←,0.5126847999636084,True,34,1
KS-K-21K21S1,358,experiment,48,→,right,→,0.4918895000591874,True,34,1
KS-K-21K21S1,359,experiment,51,←,left,←,0.5430500999791548,True,34,1
KS-K-21K21S1,360,experiment,80,↑,up,↑,0.5266064000315964,True,34,1
KS-K-21K21S1,361,experiment,83,↑,up,↑,0.3340923000359908,True,34,1
KS-K-21K21S1,362,experiment,104,←,left,←,0.359455700032413,True,34,0
KS-K-21K21S1,363,experiment,81,↓,down,↓,1.0189670999534428,True,34,1
KS-K-21K21S1,364,experiment,55,→,right,→,0.5598723000148311,True,34,1
KS-K-21K21S1,365,experiment,63,→,right,→,0.5242086000507697,True,34,1
KS-K-21K21S1,366,experiment,107,←,left,←,0.5237348999362439,True,34,1
KS-K-21K21S1,367,experiment,58,↓,down,↓,0.6184245999902487,True,34,1
KS-K-21K21S1,368,experiment,96,↓,down,↓,0.4345144000835717,True,34,1
KS-K-21K21S1,369,experiment,62,↑,up,↑,0.5631865999894217,True,34,0
KS-K-21K21S1,370,experiment,102,→,right,→,0.39229660003911704,True,34,1
KS-K-21K21S1,371,experiment,53,↑,up,↑,0.5841379000339657,True,34,0
KS-K-21K21S1,372,experiment,56,→,right,→,0.6380401999922469,True,34,1
KS-K-21K21S1,373,experiment,94,←,left,←,0.41800329997204244,True,34,1
KS-K-21K21S1,374,experiment,97,↑,up,↑,0.3679717000341043,True,34,1
KS-K-21K21S1,375,experiment,87,←,left,←,0.39254489995073527,True,34,1
KS-K-21K21S1,376,experiment,67,→,left,←,0.3930145000340417,False,34,0
KS-K-21K21S1,377,experiment,74,↑,up,↑,0.3677229000022635,True,34,0
KS-K-21K21S1,378,experiment,106,↑,up,↑,0.5165165999205783,True,34,0
KS-K-21K21S1,379,experiment,79,→,right,→,0.6770686000818387,True,34,1
KS-K-21K21S1,380,experiment,68,↑,up,↑,0.5788276999955997,True,34,1
KS-K-21K21S1,381,experiment,100,→,right,→,0.5698323999531567,True,34,1
KS-K-21K21S1,382,experiment,95,→,right,→,0.5234921999508515,True,34,1
KS-K-21K21S1,383,experiment,108,↑,up,↑,0.4979928999673575,True,34,1
KS-K-21K21S1,384,experiment,50,→,right,→,0.6451094999210909,True,34,1
KS-K-21K21S1,385,experiment,98,↑,up,↑,0.4983205000171438,True,34,1
KS-K-21K21S1,386,experiment,84,↑,up,↑,0.546132699935697,True,34,1
KS-K-21K21S1,387,experiment,89,↓,down,↓,0.6943788999924436,True,34,1
KS-K-21K21S1,388,experiment,69,→,right,→,0.5872490999754518,True,34,1
KS-K-21K21S1,389,experiment,86,↓,down,↓,0.6384908999316394,True,34,1
KS-K-21K21S1,390,experiment,57,←,left,←,0.40129179996438324,True,34,1
KS-K-21K21S1,391,experiment,78,↑,up,↑,0.5352618999313563,True,34,0
KS-K-21K21S1,392,experiment,101,↑,up,↑,0.47198030003346503,True,34,1
KS-K-21K21S1,393,experiment,60,↑,up,↑,0.5927690000971779,True,34,1
KS-K-21K21S1,394,experiment,64,→,right,→,0.4597166000166908,True,34,1
KS-K-21K21S1,395,experiment,99,←,left,←,0.38443229999393225,True,34,1
KS-K-21K21S1,396,experiment,93,←,no_key,no_letter,-1.0,False,34,0
KS-K-21K21S1,397,experiment,54,↑,up,↑,0.3694918999681249,True,34,1
KS-K-21K21S1,398,experiment,92,↓,no_key,no_letter,-1.0,False,34,0
KS-K-21K21S1,399,experiment,76,↓,down,↓,0.48208920005708933,True,34,1
KS-K-21K21S1,400,experiment,61,←,left,←,0.5062887000385672,True,34,1
KS-K-21K21S1,401,experiment,90,↑,up,↑,0.4091175999492407,True,34,1
KS-K-21K21S1,402,experiment,77,→,right,→,0.4178472999483347,True,34,0
KS-K-21K21S1,403,experiment,72,↑,up,↑,0.3841398999793455,True,34,1
KS-K-21K21S1,404,experiment,70,←,left,←,0.4178029999602586,True,34,0
KS-K-21K21S1,405,experiment,88,→,right,→,0.5979544000001624,True,34,0
KS-K-21K21S1,406,experiment,85,↑,up,↑,0.5294627998955548,True,34,1
KS-K-21K21S1,407,experiment,52,←,left,←,0.4009185000322759,True,34,1
KS-K-21K21S1,408,experiment,65,←,left,←,0.35884840006474406,True,34,0
KS-K-21K21S1,409,experiment,73,↓,down,↓,0.6851270000915974,True,34,0
KS-K-21K21S1,410,experiment,82,↓,down,↓,0.4938317999476567,True,34,1
KS-K-21K21S1,411,experiment,91,←,left,←,0.4094115999760106,True,34,1
KS-K-21K21S1,412,experiment,59,↓,down,↓,0.5830317999934778,True,34,1
KS-K-21K21S1,413,experiment,75,↓,down,↓,0.60653440002352,True,34,1
KS-K-21K21S1,414,experiment,103,↓,no_key,no_letter,-1.0,False,34,1
KS-K-21K21S1,415,experiment,66,→,right,→,0.935230000060983,True,34,1
KS-K-21K21S1,416,experiment,71,←,left,←,0.3756586000090465,True,34,1
KS-K-21K21S1,417,experiment,105,↑,up,↑,1.4393047000048682,True,34,0
KS-K-21K21S1,418,experiment,49,←,left,←,0.5728110000491142,True,34,1
KS-K-21K21S1,419,training,107,→,right,→,0.5867389000486583,True,33,0
KS-K-21K21S1,420,training,69,↑,up,↑,0.3929531000321731,True,33,1
KS-K-21K21S1,421,experiment,71,↓,down,↓,0.49192760000005364,True,33,1
KS-K-21K21S1,422,experiment,100,↑,up,↑,0.6387463000137359,True,33,1
KS-K-21K21S1,423,experiment,102,→,right,→,0.6266050999984145,True,33,1
KS-K-21K21S1,424,experiment,73,→,right,→,0.3756917000282556,True,33,1
KS-K-21K21S1,425,experiment,84,→,right,→,0.35930600005667657,True,33,0
KS-K-21K21S1,426,experiment,82,→,right,→,0.3846104999538511,True,33,0
KS-K-21K21S1,427,experiment,63,↓,down,↓,0.7982041999930516,True,33,1
KS-K-21K21S1,428,experiment,78,←,left,←,0.9399307999992743,True,33,1
KS-K-21K21S1,429,experiment,74,↑,up,↑,0.6211497000185773,True,33,1
KS-K-21K21S1,430,experiment,106,↑,up,↑,0.688907100004144,True,33,1
KS-K-21K21S1,431,experiment,49,→,no_key,no_letter,-1.0,False,33,1
KS-K-21K21S1,432,experiment,96,←,left,←,0.5665118000470102,True,33,1
KS-K-21K21S1,433,experiment,85,↓,down,↓,0.4912383999908343,True,33,1
KS-K-21K21S1,434,experiment,67,←,right,→,0.44903880008496344,False,33,1
KS-K-21K21S1,435,experiment,95,↑,up,↑,0.4869332999223843,True,33,0
KS-K-21K21S1,436,experiment,103,→,right,→,0.5532050000037998,True,33,1
KS-K-21K21S1,437,experiment,70,←,left,←,0.5072493000188842,True,33,1
KS-K-21K21S1,438,experiment,97,←,left,←,0.4465491999872029,True,33,1
KS-K-21K21S1,439,experiment,52,↑,up,↑,0.7867462000576779,True,33,0
KS-K-21K21S1,440,experiment,75,↓,up,↑,1.5616633999161422,False,33,1
KS-K-21K21S1,441,experiment,90,←,left,←,0.37587069999426603,True,33,1
KS-K-21K21S1,442,experiment,104,↓,down,↓,0.6106689999578521,True,33,0
KS-K-21K21S1,443,experiment,92,→,right,→,0.6828959999838844,True,33,1
KS-K-21K21S1,444,experiment,87,→,right,→,0.3758958999533206,True,33,1
KS-K-21K21S1,445,experiment,56,→,right,→,0.5444154000142589,True,33,0
KS-K-21K21S1,446,experiment,89,↑,up,↑,0.42547919997014105,True,33,1
KS-K-21K21S1,447,experiment,72,→,right,→,0.41789579996839166,True,33,0
KS-K-21K21S1,448,experiment,77,←,left,←,0.40950070007238537,True,33,1
KS-K-21K21S1,449,experiment,99,↓,down,↓,0.9578529000282288,True,33,1
KS-K-21K21S1,450,experiment,80,↓,left,←,1.9406301999697462,False,33,1
KS-K-21K21S1,451,experiment,81,↑,up,↑,0.4674900999525562,True,33,1
KS-K-21K21S1,452,experiment,98,←,left,←,0.591735600028187,True,33,1
KS-K-21K21S1,453,experiment,54,←,left,←,0.47782670008018613,True,33,1
KS-K-21K21S1,454,experiment,48,↓,down,↓,0.7946617000270635,True,33,1
KS-K-21K21S1,455,experiment,76,→,right,→,0.4097388000227511,True,33,1
KS-K-21K21S1,456,experiment,93,↓,down,↓,0.48895819997414947,True,33,1
KS-K-21K21S1,457,experiment,64,↓,down,↓,0.583753400016576,True,33,1
KS-K-21K21S1,458,experiment,58,←,left,←,0.4530335000017658,True,33,1
KS-K-21K21S1,459,experiment,94,↑,up,↑,0.4173555000452325,True,33,1
KS-K-21K21S1,460,experiment,51,←,left,←,0.40960250003263354,True,33,0
KS-K-21K21S1,461,experiment,62,↑,up,↑,0.6831869999878109,True,33,1
KS-K-21K21S1,462,experiment,105,↑,up,↑,0.5564845999469981,True,33,1
KS-K-21K21S1,463,experiment,50,↓,down,↓,0.7416141999419779,True,33,1
KS-K-21K21S1,464,experiment,108,←,left,←,0.44419619999825954,True,33,1
KS-K-21K21S1,465,experiment,86,↑,up,↑,1.6360949999652803,True,33,0
KS-K-21K21S1,466,experiment,61,→,right,→,0.6301857000216842,True,33,1
KS-K-21K21S1,467,experiment,107,↓,down,↓,0.7452602999983355,True,33,1
KS-K-21K21S1,468,experiment,55,←,left,←,0.4261899000266567,True,33,1
KS-K-21K21S1,469,experiment,53,↓,down,↓,0.54957600007765,True,33,0
KS-K-21K21S1,470,experiment,79,→,no_key,no_letter,-1.0,False,33,1
KS-K-21K21S1,471,experiment,57,↑,no_key,no_letter,-1.0,False,33,1
KS-K-21K21S1,472,experiment,101,↓,down,↓,0.5880420999601483,True,33,1
KS-K-21K21S1,473,experiment,66,↓,down,↓,0.677867199992761,True,33,1
KS-K-21K21S1,474,experiment,59,↑,up,↑,0.6150738999713212,True,33,1
KS-K-21K21S1,475,experiment,83,↓,down,↓,0.5225065000122413,True,33,1
KS-K-21K21S1,476,experiment,88,→,right,→,0.45682940003462136,True,33,1
KS-K-21K21S1,477,experiment,60,↓,down,↓,0.4973451999248937,True,33,1
KS-K-21K21S1,478,experiment,69,←,left,←,0.3841250999830663,True,33,1
KS-K-21K21S1,479,experiment,65,↓,down,↓,0.616534800035879,True,33,1
KS-K-21K21S1,480,experiment,68,↑,up,↑,0.6088941999478266,True,33,1
KS-K-21K21S1,481,experiment,91,←,left,←,0.5059064000379294,True,33,1
KS-K-21K21S1,482,training,99,↓,down,↓,0.5700795999728143,True,32,0
KS-K-21K21S1,483,training,57,→,no_key,no_letter,-1.0,False,32,1
KS-K-21K21S1,484,experiment,51,→,right,→,0.6413860999746248,True,32,1
KS-K-21K21S1,485,experiment,59,←,left,←,0.4086746000684798,True,32,1
KS-K-21K21S1,486,experiment,78,↑,up,↑,0.35894090007059276,True,32,0
KS-K-21K21S1,487,experiment,61,→,right,→,0.5179154999786988,True,32,0
KS-K-21K21S1,488,experiment,56,↑,up,↑,0.3338522999547422,True,32,1
KS-K-21K21S1,489,experiment,89,→,right,→,0.6579741999739781,True,32,0
KS-K-21K21S1,490,experiment,58,→,right,→,0.5961791999870911,True,32,1
KS-K-21K21S1,491,experiment,90,←,left,←,0.5337822999572381,True,32,1
KS-K-21K21S1,492,experiment,68,←,no_key,no_letter,-1.0,False,32,1
KS-K-21K21S1,493,experiment,98,→,right,→,0.5950526000233367,True,32,1
KS-K-21K21S1,494,experiment,108,↑,up,↑,0.5268382999347523,True,32,1
KS-K-21K21S1,495,experiment,63,↑,up,↑,0.5085511000361294,True,32,1
KS-K-21K21S1,496,experiment,67,→,right,→,0.6899362999247387,True,32,1
KS-K-21K21S1,497,experiment,60,←,left,←,0.49776389996986836,True,32,1
KS-K-21K21S1,498,experiment,81,↓,down,↓,0.7624100999673828,True,32,1
KS-K-21K21S1,499,experiment,64,←,left,←,0.43893279996700585,True,32,1
KS-K-21K21S1,500,experiment,76,↑,up,↑,0.5711423000320792,True,32,1
KS-K-21K21S1,501,experiment,94,↑,up,↑,0.9166817999212071,True,32,1
KS-K-21K21S1,502,experiment,75,↓,down,↓,0.6626208999659866,True,32,1
KS-K-21K21S1,503,experiment,105,→,right,→,0.3840001999633387,True,32,1
KS-K-21K21S1,504,experiment,48,↓,down,↓,0.6009168999735266,True,32,0
KS-K-21K21S1,505,experiment,80,↓,down,↓,0.49393720005173236,True,32,1
KS-K-21K21S1,506,experiment,91,←,left,←,0.507215499994345,True,32,1
KS-K-21K21S1,507,experiment,53,↑,up,↑,0.6770796999335289,True,32,1
KS-K-21K21S1,508,experiment,50,↓,down,↓,0.7530674999579787,True,32,1
KS-K-21K21S1,509,experiment,93,←,left,←,0.4367043999955058,True,32,1
KS-K-21K21S1,510,experiment,69,↑,no_key,no_letter,-1.0,False,32,0
KS-K-21K21S1,511,experiment,65,↓,down,↓,0.5435778999235481,True,32,1
KS-K-21K21S1,512,experiment,103,↑,up,↑,0.45476899994537234,True,32,1
KS-K-21K21S1,513,experiment,102,↑,up,↑,0.6343020999338478,True,32,1
KS-K-21K21S1,514,experiment,57,↑,no_key,no_letter,-1.0,False,32,1
KS-K-21K21S1,515,experiment,71,→,right,→,0.7601736000506207,True,32,1
KS-K-21K21S1,516,experiment,97,↑,up,↑,0.6653178998967633,True,32,1
KS-K-21K21S1,517,experiment,83,↓,down,↓,0.7464856000151485,True,32,1
KS-K-21K21S1,518,experiment,88,→,right,→,0.5427399999462068,True,32,1
KS-K-21K21S1,519,experiment,95,↓,down,↓,0.5293438999215141,True,32,1
KS-K-21K21S1,520,experiment,86,→,right,→,0.6229736999375746,True,32,1
KS-K-21K21S1,521,experiment,101,→,no_key,no_letter,-1.0,False,32,1
KS-K-21K21S1,522,experiment,72,←,left,←,0.7425080001121387,True,32,1
KS-K-21K21S1,523,experiment,104,←,left,←,0.5336382000241429,True,32,1
KS-K-21K21S1,524,experiment,106,→,no_key,no_letter,-1.0,False,32,1
KS-K-21K21S1,525,experiment,66,→,right,→,0.3860042999731377,True,32,1
KS-K-21K21S1,526,experiment,87,←,left,←,0.5554910999489948,True,32,0
KS-K-21K21S1,527,experiment,92,↑,up,↑,0.7102305999724194,True,32,1
KS-K-21K21S1,528,experiment,82,↑,up,↑,0.6463118999963626,True,32,1
KS-K-21K21S1,529,experiment,54,↓,down,↓,0.6821258999407291,True,32,1
KS-K-21K21S1,530,experiment,62,↓,down,↓,0.5856390999397263,True,32,1
KS-K-21K21S1,531,experiment,49,↑,up,↑,0.5700128999305889,True,32,1
KS-K-21K21S1,532,experiment,99,↑,up,↑,0.4498947000829503,True,32,1
KS-K-21K21S1,533,experiment,73,←,left,←,0.409235900035128,True,32,1
KS-K-21K21S1,534,experiment,96,→,right,→,0.5904180000070482,True,32,1
KS-K-21K21S1,535,experiment,77,↓,down,↓,0.8288041000487283,True,32,1
KS-K-21K21S1,536,experiment,107,←,left,←,0.543534699943848,True,32,1
KS-K-21K21S1,537,experiment,85,←,left,←,0.4089659000746906,True,32,1
KS-K-21K21S1,538,experiment,100,←,left,←,0.5230491999536753,True,32,0
KS-K-21K21S1,539,experiment,70,→,right,→,1.9024457999039441,True,32,1
KS-K-21K21S1,540,experiment,74,↓,down,↓,0.8412486000452191,True,32,1
KS-K-21K21S1,541,experiment,79,→,right,→,0.7167937000049278,True,32,1
KS-K-21K21S1,542,experiment,52,→,right,→,0.5025855000130832,True,32,1
KS-K-21K21S1,543,experiment,55,←,left,←,0.616009599994868,True,32,1
KS-K-21K21S1,544,experiment,84,←,left,←,0.7469780000392348,True,32,1
KS-K-21K21S1,545,training,81,←,left,←,0.5622727000154555,True,31,0
KS-K-21K21S1,546,training,63,↑,up,↑,0.3346304999431595,True,31,1
KS-K-21K21S1,547,experiment,103,↑,up,↑,0.3254535999149084,True,31,0
KS-K-21K21S1,548,experiment,74,↓,down,↓,0.5835379000054672,True,31,0
KS-K-21K21S1,549,experiment,88,↑,up,↑,0.7945494001032785,True,31,1
KS-K-21K21S1,550,experiment,73,←,left,←,0.3429489000700414,True,31,1
KS-K-21K21S1,551,experiment,99,↓,down,↓,0.7390977999893948,True,31,0
KS-K-21K21S1,552,experiment,49,↓,down,↓,0.6766853000735864,True,31,1
KS-K-21K21S1,553,experiment,75,↑,up,↑,0.37589690007735044,True,31,1
KS-K-21K21S1,554,experiment,66,↓,right,→,0.7708897999254987,False,31,0
KS-K-21K21S1,555,experiment,51,↓,right,→,0.7150881999405101,False,31,1
KS-K-21K21S1,556,experiment,50,↑,up,↑,0.565385099966079,True,31,1
KS-K-21K21S1,557,experiment,91,→,right,→,0.5761796000879258,True,31,1
KS-K-21K21S1,558,experiment,52,→,right,→,0.47946699999738485,True,31,1
KS-K-21K21S1,559,experiment,55,→,right,→,0.6419816999696195,True,31,1
KS-K-21K21S1,560,experiment,108,↓,down,↓,0.5720254000043496,True,31,1
KS-K-21K21S1,561,experiment,64,←,left,←,0.8155273000011221,True,31,1
KS-K-21K21S1,562,experiment,90,→,left,←,0.6244184999959543,False,31,1
KS-K-21K21S1,563,experiment,76,←,left,←,0.5418699999572709,True,31,1
KS-K-21K21S1,564,experiment,98,←,left,←,0.663278799969703,True,31,1
KS-K-21K21S1,565,experiment,78,↑,up,↑,0.6104747999925166,True,31,1
KS-K-21K21S1,566,experiment,89,↑,up,↑,0.5398073999676853,True,31,1
KS-K-21K21S1,567,experiment,59,←,left,←,0.43456439999863505,True,31,1
KS-K-21K21S1,568,experiment,56,→,right,→,0.5425188000081107,True,31,1
KS-K-21K21S1,569,experiment,105,↑,up,↑,0.4375729999737814,True,31,1
KS-K-21K21S1,570,experiment,63,→,right,→,0.4866506000980735,True,31,1
KS-K-21K21S1,571,experiment,87,↑,up,↑,0.653786199982278,True,31,1
KS-K-21K21S1,572,experiment,92,←,left,←,0.5883923000656068,True,31,1
KS-K-21K21S1,573,experiment,81,↓,up,↑,0.9055409000720829,False,31,1
KS-K-21K21S1,574,experiment,62,↓,down,↓,0.5204404999967664,True,31,1
KS-K-21K21S1,575,experiment,68,→,right,→,0.6203198001021519,True,31,1
KS-K-21K21S1,576,experiment,72,↑,up,↑,0.4281633999198675,True,31,1
KS-K-21K21S1,577,experiment,84,→,right,→,0.62988690007478,True,31,0
KS-K-21K21S1,578,experiment,69,↑,up,↑,0.4935503000160679,True,31,1
KS-K-21K21S1,579,experiment,97,←,left,←,0.48908219998702407,True,31,1
KS-K-21K21S1,580,experiment,79,↓,up,↑,0.8585639001103118,False,31,1
KS-K-21K21S1,581,experiment,80,↓,down,↓,0.941117399954237,True,31,1
KS-K-21K21S1,582,experiment,54,→,right,→,0.6214597999351099,True,31,1
KS-K-21K21S1,583,experiment,77,↑,up,↑,0.6024799000006169,True,31,1
KS-K-21K21S1,584,experiment,96,←,left,←,0.5137806999264285,True,31,1
KS-K-21K21S1,585,experiment,101,→,right,→,0.4006348999682814,True,31,1
KS-K-21K21S1,586,experiment,83,↓,down,↓,0.5831594999181107,True,31,0
KS-K-21K21S1,587,experiment,104,→,right,→,0.5644989999709651,True,31,1
KS-K-21K21S1,588,experiment,58,↓,down,↓,0.5463422000175342,True,31,1
KS-K-21K21S1,589,experiment,82,→,right,→,0.5847670999355614,True,31,1
KS-K-21K21S1,590,experiment,106,←,no_key,no_letter,-1.0,False,31,1
KS-K-21K21S1,591,experiment,71,↑,up,↑,0.7286092999856919,True,31,1
KS-K-21K21S1,592,experiment,60,↑,no_key,no_letter,-1.0,False,31,1
KS-K-21K21S1,593,experiment,95,↓,up,↑,1.5222981000551954,False,31,1
KS-K-21K21S1,594,experiment,67,→,right,→,0.5344930000137538,True,31,1
KS-K-21K21S1,595,experiment,61,→,right,→,0.5005874000489712,True,31,1
KS-K-21K21S1,596,experiment,102,↓,down,↓,0.5987858000444248,True,31,1
KS-K-21K21S1,597,experiment,57,←,left,←,0.5069726000074297,True,31,1
KS-K-21K21S1,598,experiment,70,→,right,→,0.495130299939774,True,31,1
KS-K-21K21S1,599,experiment,86,↓,down,↓,0.5101074000122026,True,31,1
KS-K-21K21S1,600,experiment,93,→,right,→,0.3922731000930071,True,31,1
KS-K-21K21S1,601,experiment,53,←,left,←,0.3859418999636546,True,31,0
KS-K-21K21S1,602,experiment,48,←,left,←,0.5205477999988943,True,31,0
KS-K-21K21S1,603,experiment,107,←,left,←,0.639913099934347,True,31,1
KS-K-21K21S1,604,experiment,94,↓,down,↓,0.5505440999986604,True,31,1
KS-K-21K21S1,605,experiment,65,←,left,←,0.5067225000821054,True,31,1
KS-K-21K21S1,606,experiment,100,←,left,←,0.3592737000435591,True,31,1
KS-K-21K21S1,607,experiment,85,↓,down,↓,0.689356799935922,True,31,0
KS-K-21K21S1,608,training,92,↑,up,↑,0.959054599981755,True,31,0
KS-K-21K21S1,609,training,101,↓,down,↓,0.6946470000548288,True,31,1
KS-K-21K21S1,610,experiment,82,↑,up,↑,0.3446261999197304,True,31,1
KS-K-21K21S1,611,experiment,96,→,right,→,0.6567295999266207,True,31,1
KS-K-21K21S1,612,experiment,99,←,left,←,0.597355299978517,True,31,1
KS-K-21K21S1,613,experiment,48,↑,up,↑,0.4927009999519214,True,31,1
KS-K-21K21S1,614,experiment,76,↓,down,↓,0.5997104999842122,True,31,1
KS-K-21K21S1,615,experiment,53,←,left,←,0.45370039995759726,True,31,1
KS-K-21K21S1,616,experiment,59,↓,down,↓,0.4315877999179065,True,31,1
KS-K-21K21S1,617,experiment,87,→,right,→,0.48890019999817014,True,31,1
KS-K-21K21S1,618,experiment,66,↓,down,↓,0.3678883999818936,True,31,1
KS-K-21K21S1,619,experiment,80,→,right,→,0.6450112999882549,True,31,1
KS-K-21K21S1,620,experiment,67,↓,down,↓,0.6284222000977024,True,31,1
KS-K-21K21S1,621,experiment,85,↑,up,↑,0.6708566000452265,True,31,1
KS-K-21K21S1,622,experiment,74,↓,down,↓,0.48283489991445094,True,31,1
KS-K-21K21S1,623,experiment,65,←,left,←,0.6018934999592602,True,31,1
KS-K-21K21S1,624,experiment,68,↑,up,↑,0.4909235000377521,True,31,1
KS-K-21K21S1,625,experiment,83,↓,down,↓,0.8111901000374928,True,31,1
KS-K-21K21S1,626,experiment,89,→,right,→,0.5964471000479534,True,31,1
KS-K-21K21S1,627,experiment,90,←,left,←,0.40101899998262525,True,31,1
KS-K-21K21S1,628,experiment,70,←,left,←,0.5982119999825954,True,31,0
KS-K-21K21S1,629,experiment,52,→,no_key,no_letter,-1.0,False,31,1
KS-K-21K21S1,630,experiment,57,↑,up,↑,0.384408799931407,True,31,1
KS-K-21K21S1,631,experiment,88,↑,up,↑,0.3255566000007093,True,31,0
KS-K-21K21S1,632,experiment,105,←,left,←,0.48672839999198914,True,31,0
KS-K-21K21S1,633,experiment,86,↓,down,↓,0.6782122000586241,True,31,1
KS-K-21K21S1,634,experiment,94,↓,up,↑,1.435389699996449,False,31,1
KS-K-21K21S1,635,experiment,71,↑,up,↑,0.7057375999866053,True,31,1
KS-K-21K21S1,636,experiment,81,↓,down,↓,0.7140957999508828,True,31,1
KS-K-21K21S1,637,experiment,79,←,left,←,0.5627500999253243,True,31,1
KS-K-21K21S1,638,experiment,56,→,right,→,0.8971791999647394,True,31,1
KS-K-21K21S1,639,experiment,108,→,no_key,no_letter,-1.0,False,31,1
KS-K-21K21S1,640,experiment,84,←,left,←,0.4796610999619588,True,31,1
KS-K-21K21S1,641,experiment,104,←,left,←,0.5292042000219226,True,31,1
KS-K-21K21S1,642,experiment,97,↓,down,↓,0.531269200029783,True,31,1
KS-K-21K21S1,643,experiment,98,↑,up,↑,0.741200500051491,True,31,1
KS-K-21K21S1,644,experiment,60,→,right,→,0.7709682000568137,True,31,1
KS-K-21K21S1,645,experiment,78,→,right,→,0.44187560002319515,True,31,1
KS-K-21K21S1,646,experiment,77,←,left,←,0.5584262000629678,True,31,1
KS-K-21K21S1,647,experiment,102,↓,down,↓,0.709578900015913,True,31,1
KS-K-21K21S1,648,experiment,92,↓,down,↓,0.6263592999894172,True,31,1
KS-K-21K21S1,649,experiment,63,→,right,→,0.5322623000247404,True,31,1
KS-K-21K21S1,650,experiment,69,↓,down,↓,0.5836802000412717,True,31,1
KS-K-21K21S1,651,experiment,58,↓,down,↓,0.5245550000108778,True,31,1
KS-K-21K21S1,652,experiment,49,←,left,←,0.6310807000845671,True,31,1
KS-K-21K21S1,653,experiment,95,↓,down,↓,0.5021728000137955,True,31,1
KS-K-21K21S1,654,experiment,75,↓,no_key,no_letter,-1.0,False,31,1
KS-K-21K21S1,655,experiment,73,←,left,←,0.4347710999427363,True,31,1
KS-K-21K21S1,656,experiment,101,↓,down,↓,0.6635562999872491,True,31,1
KS-K-21K21S1,657,experiment,64,↓,down,↓,0.5193778000539169,True,31,1
KS-K-21K21S1,658,experiment,61,←,left,←,1.5260393000207841,True,31,1
KS-K-21K21S1,659,experiment,62,→,right,→,0.636063399957493,True,31,1
KS-K-21K21S1,660,experiment,107,←,left,←,0.4546737000346184,True,31,1
KS-K-21K21S1,661,experiment,54,←,left,←,0.4096786000300199,True,31,1
KS-K-21K21S1,662,experiment,91,↓,down,↓,0.5871996999485418,True,31,1
KS-K-21K21S1,663,experiment,100,↑,up,↑,0.7940510000335053,True,31,1
KS-K-21K21S1,664,experiment,93,↓,down,↓,0.7066352999536321,True,31,1
KS-K-21K21S1,665,experiment,103,→,right,→,0.4758154000155628,True,31,1
KS-K-21K21S1,666,experiment,106,↑,no_key,no_letter,-1.0,False,31,1
KS-K-21K21S1,667,experiment,55,↑,up,↑,0.557892799959518,True,31,1
KS-K-21K21S1,668,experiment,51,←,no_key,no_letter,-1.0,False,31,1
KS-K-21K21S1,669,experiment,50,↑,up,↑,0.9119300999445841,True,31,1
KS-K-21K21S1,670,experiment,72,→,right,→,0.8832161999307573,True,31,1
KS-K-21K21S1,671,training,66,↓,down,↓,0.5015007000183687,True,30,0
KS-K-21K21S1,672,training,76,↓,down,↓,0.6236914000473917,True,30,1
KS-K-21K21S1,673,experiment,92,↓,down,↓,0.5441459999419749,True,30,1
KS-K-21K21S1,674,experiment,81,→,right,→,0.35135509993415326,True,30,1
KS-K-21K21S1,675,experiment,63,↓,down,↓,0.6908165999921039,True,30,0
KS-K-21K21S1,676,experiment,71,→,right,→,0.3674320001155138,True,30,1
KS-K-21K21S1,677,experiment,88,←,left,←,0.538726200000383,True,30,0
KS-K-21K21S1,678,experiment,107,↓,down,↓,0.48081310000270605,True,30,1
KS-K-21K21S1,679,experiment,50,←,left,←,0.3762168000685051,True,30,1
KS-K-21K21S1,680,experiment,59,↑,down,↓,0.7693446000339463,False,30,0
KS-K-21K21S1,681,experiment,86,→,no_key,no_letter,-1.0,False,30,1
KS-K-21K21S1,682,experiment,79,↑,up,↑,0.5982481999089941,True,30,1
KS-K-21K21S1,683,experiment,61,←,left,←,0.5215009999228641,True,30,1
KS-K-21K21S1,684,experiment,78,↓,down,↓,0.5465061001013964,True,30,1
KS-K-21K21S1,685,experiment,54,↑,up,↑,0.6182574999984354,True,30,1
KS-K-21K21S1,686,experiment,80,←,left,←,0.6145879999967292,True,30,1
KS-K-21K21S1,687,experiment,56,←,left,←,0.384590300032869,True,30,1
KS-K-21K21S1,688,experiment,68,↑,up,↑,0.36752500000875443,True,30,0
KS-K-21K21S1,689,experiment,97,↑,up,↑,0.5167661999585107,True,30,0
KS-K-21K21S1,690,experiment,62,→,right,→,0.47530759999062866,True,30,1
KS-K-21K21S1,691,experiment,91,↓,down,↓,0.5059977000346407,True,30,1
KS-K-21K21S1,692,experiment,75,←,left,←,0.38484620000235736,True,30,1
KS-K-21K21S1,693,experiment,82,→,right,→,0.6648576000006869,True,30,0
KS-K-21K21S1,694,experiment,98,↑,up,↑,0.3594030999811366,True,30,1
KS-K-21K21S1,695,experiment,49,→,left,←,0.7102484999923036,False,30,1
KS-K-21K21S1,696,experiment,105,↑,up,↑,0.5343649000860751,True,30,1
KS-K-21K21S1,697,experiment,67,↑,up,↑,0.3506534999469295,True,30,1
KS-K-21K21S1,698,experiment,64,↑,up,↑,0.5107046000193805,True,30,0
KS-K-21K21S1,699,experiment,48,↓,down,↓,0.7219638000242412,True,30,1
KS-K-21K21S1,700,experiment,60,→,right,→,0.6247419998981059,True,30,1
KS-K-21K21S1,701,experiment,55,←,left,←,0.3762942000757903,True,30,1
KS-K-21K21S1,702,experiment,106,↓,down,↓,0.5942395000020042,True,30,1
KS-K-21K21S1,703,experiment,96,↓,down,↓,0.5303628999972716,True,30,1
KS-K-21K21S1,704,experiment,89,→,right,→,0.43904279998969287,True,30,1
KS-K-21K21S1,705,experiment,74,→,right,→,0.6203509999904782,True,30,1
KS-K-21K21S1,706,experiment,85,↑,up,↑,0.7346846000291407,True,30,1
KS-K-21K21S1,707,experiment,66,↑,up,↑,0.3755362000083551,True,30,1
KS-K-21K21S1,708,experiment,90,←,left,←,0.4011512999422848,True,30,0
KS-K-21K21S1,709,experiment,72,→,right,→,0.36782040004618466,True,30,1
KS-K-21K21S1,710,experiment,52,↓,down,↓,0.8764600000577047,True,30,1
KS-K-21K21S1,711,experiment,57,↓,down,↓,0.6381534999236465,True,30,1
KS-K-21K21S1,712,experiment,101,↑,up,↑,0.6826266999123618,True,30,1
KS-K-21K21S1,713,experiment,94,→,right,→,0.6315364999463782,True,30,1
KS-K-21K21S1,714,experiment,84,↑,up,↑,0.4338603999931365,True,30,1
KS-K-21K21S1,715,experiment,51,↓,down,↓,0.7354210000485182,True,30,1
KS-K-21K21S1,716,experiment,104,←,left,←,0.6625861000502482,True,30,1
KS-K-21K21S1,717,experiment,83,↑,no_key,no_letter,-1.0,False,30,1
KS-K-21K21S1,718,experiment,58,←,left,←,1.1516755999764428,True,30,1
KS-K-21K21S1,719,experiment,53,→,right,→,0.5674929999513552,True,30,1
KS-K-21K21S1,720,experiment,65,→,no_key,no_letter,-1.0,False,30,1
KS-K-21K21S1,721,experiment,87,↓,down,↓,0.5447296999627724,True,30,1
KS-K-21K21S1,722,experiment,99,↑,up,↑,0.6260541999945417,True,30,1
KS-K-21K21S1,723,experiment,100,↓,down,↓,0.6954950999934226,True,30,1
KS-K-21K21S1,724,experiment,103,←,left,←,0.6969485000008717,True,30,1
KS-K-21K21S1,725,experiment,77,→,right,→,0.44305260002147406,True,30,1
KS-K-21K21S1,726,experiment,69,→,right,→,0.5780882000690326,True,30,1
KS-K-21K21S1,727,experiment,76,→,right,→,0.5454813999822363,True,30,1
KS-K-21K21S1,728,experiment,73,←,left,←,0.38382290001027286,True,30,1
KS-K-21K21S1,729,experiment,108,→,right,→,0.400403399951756,True,30,0
KS-K-21K21S1,730,experiment,70,↑,up,↑,0.3606127999955788,True,30,0
KS-K-21K21S1,731,experiment,95,↑,up,↑,0.35277539992239326,True,30,0
KS-K-21K21S1,732,experiment,102,↑,up,↑,0.535231199930422,True,30,0
KS-K-21K21S1,733,experiment,93,↑,up,↑,0.4744002000661567,True,30,1
KS-K-21K21S1,734,training,93,→,right,→,0.43339290004223585,True,29,0
KS-K-21K21S1,735,training,102,→,right,→,0.6300940000219271,True,29,1
KS-K-21K21S1,736,experiment,79,↓,down,↓,0.5218592999735847,True,29,1
KS-K-21K21S1,737,experiment,100,↑,no_key,no_letter,-1.0,False,29,1
KS-K-21K21S1,738,experiment,48,↓,down,↓,0.4152732000220567,True,29,1
KS-K-21K21S1,739,experiment,86,←,left,←,0.33455469994805753,True,29,1
KS-K-21K21S1,740,experiment,84,↓,down,↓,0.6785252999980003,True,29,0
KS-K-21K21S1,741,experiment,101,→,no_key,no_letter,-1.0,False,29,1
KS-K-21K21S1,742,experiment,65,→,right,→,0.6549550000345334,True,29,1
KS-K-21K21S1,743,experiment,51,↑,up,↑,0.6190928999567404,True,29,1
KS-K-21K21S1,744,experiment,69,↑,up,↑,0.5633084999863058,True,29,1
KS-K-21K21S1,745,experiment,68,→,right,→,0.5896265999181196,True,29,1
KS-K-21K21S1,746,experiment,52,↑,up,↑,0.3928141000214964,True,29,1
KS-K-21K21S1,747,experiment,64,↑,no_key,no_letter,-1.0,False,29,0
KS-K-21K21S1,748,experiment,62,↓,no_key,no_letter,-1.0,False,29,1
KS-K-21K21S1,749,experiment,78,↑,up,↑,0.5507760000182316,True,29,1
KS-K-21K21S1,750,experiment,94,↑,up,↑,0.5690430999966338,True,29,1
KS-K-21K21S1,751,experiment,89,↓,up,↑,0.3678133999928832,False,29,1
KS-K-21K21S1,752,experiment,49,←,right,→,1.6209112999495119,False,29,1
KS-K-21K21S1,753,experiment,53,→,right,→,0.6179024999728426,True,29,1
KS-K-21K21S1,754,experiment,58,←,left,←,0.5657529000891373,True,29,1
KS-K-21K21S1,755,experiment,76,→,right,→,0.4214084999402985,True,29,1
KS-K-21K21S1,756,experiment,56,↑,up,↑,0.6974648999748752,True,29,1
KS-K-21K21S1,757,experiment,55,←,left,←,0.48281880002468824,True,29,1
KS-K-21K21S1,758,experiment,87,↓,down,↓,0.6346322000026703,True,29,1
KS-K-21K21S1,759,experiment,59,↑,up,↑,0.4134607999585569,True,29,1
KS-K-21K21S1,760,experiment,54,↓,down,↓,0.8424053000053391,True,29,0
KS-K-21K21S1,761,experiment,95,←,no_key,no_letter,-1.0,False,29,1
KS-K-21K21S1,762,experiment,72,↑,up,↑,1.1075985999777913,True,29,1
KS-K-21K21S1,763,experiment,107,↓,down,↓,0.5951789999380708,True,29,1
KS-K-21K21S1,764,experiment,77,↓,down,↓,0.577219899976626,True,29,1
KS-K-21K21S1,765,experiment,85,↑,up,↑,1.325690499972552,True,29,1
KS-K-21K21S1,766,experiment,99,↓,down,↓,0.4872999000363052,True,29,1
KS-K-21K21S1,767,experiment,102,→,right,→,0.5854352000169456,True,29,1
KS-K-21K21S1,768,experiment,80,↓,down,↓,0.6870335000567138,True,29,1
KS-K-21K21S1,769,experiment,61,↓,down,↓,0.5673168000066653,True,29,1
KS-K-21K21S1,770,experiment,105,↑,up,↑,0.42175050009973347,True,29,1
KS-K-21K21S1,771,experiment,63,↑,up,↑,0.470724800019525,True,29,1
KS-K-21K21S1,772,experiment,83,↑,up,↑,0.3092237999662757,True,29,1
KS-K-21K21S1,773,experiment,93,↑,up,↑,0.44448099995497614,True,29,0
KS-K-21K21S1,774,experiment,70,↓,up,↑,0.4671149000059813,False,29,1
KS-K-21K21S1,775,experiment,88,↑,up,↑,0.9149692000355572,True,29,1
KS-K-21K21S1,776,experiment,97,↓,up,↑,1.229664899990894,False,29,1
KS-K-21K21S1,777,experiment,75,→,right,→,0.6109630999853835,True,29,1
KS-K-21K21S1,778,experiment,73,←,left,←,0.5860764000099152,True,29,1
KS-K-21K21S1,779,experiment,96,↑,no_key,no_letter,-1.0,False,29,1
KS-K-21K21S1,780,experiment,50,←,left,←,0.42860009998548776,True,29,1
KS-K-21K21S1,781,experiment,103,↑,up,↑,0.4485670999856666,True,29,1
KS-K-21K21S1,782,experiment,81,←,left,←,0.899418400018476,True,29,1
KS-K-21K21S1,783,experiment,60,←,left,←,0.5789810999995098,True,29,1
KS-K-21K21S1,784,experiment,82,←,left,←,0.3846784000052139,True,29,1
KS-K-21K21S1,785,experiment,90,←,left,←,0.3750486000208184,True,29,0
KS-K-21K21S1,786,experiment,92,↓,down,↓,0.5720398999983445,True,29,0
KS-K-21K21S1,787,experiment,91,↓,down,↓,0.4385035999584943,True,29,1
KS-K-21K21S1,788,experiment,66,→,right,→,0.44653610000386834,True,29,1
KS-K-21K21S1,789,experiment,104,→,left,←,1.1618535000598058,False,29,1
KS-K-21K21S1,790,experiment,98,↓,down,↓,0.5384299999568611,True,29,1
KS-K-21K21S1,791,experiment,71,→,left,←,0.6128354000393301,False,29,1
KS-K-21K21S1,792,experiment,108,←,left,←,0.3929545000428334,True,29,1
KS-K-21K21S1,793,experiment,74,↑,up,↑,0.46295710001140833,True,29,1
KS-K-21K21S1,794,experiment,67,←,left,←,0.6134992999723181,True,29,1
KS-K-21K21S1,795,experiment,57,↑,up,↑,0.4261625000508502,True,29,1
KS-K-21K21S1,796,experiment,106,↑,up,↑,0.34216800006106496,True,29,1
KS-K-21K21S1,797,training,67,↓,down,↓,0.6665245000040159,True,29,0
KS-K-21K21S1,798,training,104,←,no_key,no_letter,-1.0,False,29,1
KS-K-21K21S1,799,experiment,98,←,right,→,0.9912614000495523,False,29,1
KS-K-21K21S1,800,experiment,100,→,left,←,1.1018448000540957,False,29,1
KS-K-21K21S1,801,experiment,77,↓,down,↓,0.503955899970606,True,29,1
KS-K-21K21S1,802,experiment,51,↓,down,↓,0.3505288000451401,True,29,1
KS-K-21K21S1,803,experiment,88,←,left,←,0.42259140009991825,True,29,0
KS-K-21K21S1,804,experiment,80,←,left,←,0.5310751999495551,True,29,1
KS-K-21K21S1,805,experiment,89,←,left,←,0.7514443000545725,True,29,1
KS-K-21K21S1,806,experiment,92,↑,up,↑,0.6265878999838606,True,29,1
KS-K-21K21S1,807,experiment,101,→,left,←,0.5034770999336615,False,29,1
KS-K-21K21S1,808,experiment,68,↑,up,↑,0.5006643000524491,True,29,1
KS-K-21K21S1,809,experiment,65,→,right,→,0.6587514999555424,True,29,1
KS-K-21K21S1,810,experiment,55,←,left,←,0.44573070004116744,True,29,1
KS-K-21K21S1,811,experiment,108,→,no_key,no_letter,-1.0,False,29,1
KS-K-21K21S1,812,experiment,75,↓,down,↓,0.8578120999736711,True,29,1
KS-K-21K21S1,813,experiment,59,→,right,→,0.6994597000302747,True,29,1
KS-K-21K21S1,814,experiment,84,↑,right,→,0.9472134000388905,False,29,1
KS-K-21K21S1,815,experiment,83,↓,down,↓,0.5852766999742016,True,29,1
KS-K-21K21S1,816,experiment,97,↑,up,↑,0.6173154999269173,True,29,1
KS-K-21K21S1,817,experiment,50,←,left,←,0.7917624999536201,True,29,1
KS-K-21K21S1,818,experiment,86,↓,down,↓,0.7231044000945985,True,29,1
KS-K-21K21S1,819,experiment,94,→,right,→,0.6064063000958413,True,29,1
KS-K-21K21S1,820,experiment,60,→,right,→,0.44978429994080216,True,29,1
KS-K-21K21S1,821,experiment,107,→,right,→,0.6040023999521509,True,29,1
KS-K-21K21S1,822,experiment,95,↓,down,↓,0.5476793999550864,True,29,1
KS-K-21K21S1,823,experiment,58,←,left,←,0.3845509000821039,True,29,1
KS-K-21K21S1,824,experiment,53,↓,down,↓,0.9364857999607921,True,29,0
KS-K-21K21S1,825,experiment,76,↑,right,→,0.6974107000278309,False,29,1
KS-K-21K21S1,826,experiment,87,↑,up,↑,0.6880650001112372,True,29,1
KS-K-21K21S1,827,experiment,79,→,right,→,0.585786199895665,True,29,1
KS-K-21K21S1,828,experiment,49,↓,down,↓,0.5223401999101043,True,29,1
KS-K-21K21S1,829,experiment,99,↑,up,↑,0.6595416000345722,True,29,1
KS-K-21K21S1,830,experiment,72,→,right,→,0.5129806000040844,True,29,1
KS-K-21K21S1,831,experiment,78,↓,down,↓,0.6502107999986038,True,29,1
KS-K-21K21S1,832,experiment,91,←,left,←,0.3927933999802917,True,29,1
KS-K-21K21S1,833,experiment,48,→,right,→,0.36786190001294017,True,29,1
KS-K-21K21S1,834,experiment,82,↓,down,↓,0.5027119000442326,True,29,1
KS-K-21K21S1,835,experiment,56,→,right,→,0.687760700006038,True,29,1
KS-K-21K21S1,836,experiment,52,↓,down,↓,0.4985587999690324,True,29,1
KS-K-21K21S1,837,experiment,103,↓,down,↓,0.6358573000179604,True,29,1
KS-K-21K21S1,838,experiment,74,←,left,←,0.609604400000535,True,29,1
KS-K-21K21S1,839,experiment,64,←,left,←,0.38446750002913177,True,29,1
KS-K-21K21S1,840,experiment,81,↑,up,↑,0.4649668000638485,True,29,1
KS-K-21K21S1,841,experiment,106,↑,up,↑,0.31778509996365756,True,29,1
KS-K-21K21S1,842,experiment,62,↑,up,↑,0.8325919999042526,True,29,0
KS-K-21K21S1,843,experiment,54,↑,up,↑,0.3586604999145493,True,29,1
KS-K-21K21S1,844,experiment,71,↓,up,↑,0.3089625999564305,False,29,0
KS-K-21K21S1,845,experiment,69,←,left,←,0.3677408000221476,True,29,0
KS-K-21K21S1,846,experiment,96,←,left,←,0.35954259999562055,True,29,0
KS-K-21K21S1,847,experiment,90,→,right,→,0.5743004999822006,True,29,1
KS-K-21K21S1,848,experiment,70,↑,up,↑,0.6638609000947326,True,29,1
KS-K-21K21S1,849,experiment,85,→,right,→,0.3777669999981299,True,29,1
KS-K-21K21S1,850,experiment,57,←,left,←,0.3345647999085486,True,29,0
KS-K-21K21S1,851,experiment,105,←,left,←,1.0685845999978483,True,29,0
KS-K-21K21S1,852,experiment,63,←,left,←,0.5166587999556214,True,29,1
KS-K-21K21S1,853,experiment,66,↑,up,↑,0.6338749999413267,True,29,1
KS-K-21K21S1,854,experiment,104,←,left,←,0.6136053000809625,True,29,1
KS-K-21K21S1,855,experiment,61,↓,down,↓,0.5362783999880776,True,29,1
KS-K-21K21S1,856,experiment,93,↑,up,↑,0.6516674999147654,True,29,1
KS-K-21K21S1,857,experiment,73,→,no_key,no_letter,-1.0,False,29,1
KS-K-21K21S1,858,experiment,102,↑,up,↑,0.690163999912329,True,29,1
KS-K-21K21S1,859,experiment,67,↑,up,↑,0.3424856999190524,True,29,1
KS-K-21K21S1,860,training,85,↓,down,↓,0.5153335999930277,True,29,0
KS-K-21K21S1,861,training,99,→,right,→,0.3338535000802949,True,29,1
KS-K-21K21S1,862,experiment,74,←,left,←,0.3422457000706345,True,29,0
KS-K-21K21S1,863,experiment,91,→,right,→,0.6903053000569344,True,29,0
KS-K-21K21S1,864,experiment,58,→,right,→,0.5550947999581695,True,29,1
KS-K-21K21S1,865,experiment,71,←,left,←,0.3416876000119373,True,29,1
KS-K-21K21S1,866,experiment,101,→,right,→,0.49286959995515645,True,29,0
KS-K-21K21S1,867,experiment,83,←,left,←,0.35839040006976575,True,29,1
KS-K-21K21S1,868,experiment,65,↑,up,↑,0.35144370002672076,True,29,0
KS-K-21K21S1,869,experiment,108,↑,up,↑,0.5900047000031918,True,29,0
KS-K-21K21S1,870,experiment,77,←,left,←,0.6044972999952734,True,29,1
KS-K-21K21S1,871,experiment,80,→,right,→,0.5932367000496015,True,29,1
KS-K-21K21S1,872,experiment,79,←,left,←,0.582966300076805,True,29,1
KS-K-21K21S1,873,experiment,55,↑,up,↑,0.6852746999356896,True,29,1
KS-K-21K21S1,874,experiment,78,↑,up,↑,0.5673065999289975,True,29,1
KS-K-21K21S1,875,experiment,54,↑,up,↑,0.38420770002994686,True,29,1
KS-K-21K21S1,876,experiment,82,↑,up,↑,0.5712506999261677,True,29,0
KS-K-21K21S1,877,experiment,89,↓,down,↓,0.5743930999888107,True,29,1
KS-K-21K21S1,878,experiment,84,↑,up,↑,0.650914000114426,True,29,1
KS-K-21K21S1,879,experiment,99,↑,up,↑,0.5917427999665961,True,29,1
KS-K-21K21S1,880,experiment,92,↓,down,↓,0.6648416999960318,True,29,1
KS-K-21K21S1,881,experiment,81,→,no_key,no_letter,-1.0,False,29,1
KS-K-21K21S1,882,experiment,70,→,right,→,0.39248269994277507,True,29,1
KS-K-21K21S1,883,experiment,59,↓,down,↓,0.7550594999920577,True,29,0
KS-K-21K21S1,884,experiment,100,←,left,←,0.8191981000127271,True,29,1
KS-K-21K21S1,885,experiment,95,→,right,→,0.586443500011228,True,29,1
KS-K-21K21S1,886,experiment,93,↓,down,↓,0.5635707000037655,True,29,1
KS-K-21K21S1,887,experiment,61,↑,up,↑,0.5202971999533474,True,29,1
KS-K-21K21S1,888,experiment,76,←,left,←,0.44197299994993955,True,29,1
KS-K-21K21S1,889,experiment,104,↑,down,↓,0.9973828999791294,False,29,1
KS-K-21K21S1,890,experiment,75,←,left,←,0.9640421000076458,True,29,1
KS-K-21K21S1,891,experiment,96,↓,down,↓,0.5010567000135779,True,29,1
KS-K-21K21S1,892,experiment,85,→,right,→,0.3679113000398502,True,29,1
KS-K-21K21S1,893,experiment,51,←,left,←,0.3591699000680819,True,29,1
KS-K-21K21S1,894,experiment,53,↑,up,↑,0.33420100004877895,True,29,0
KS-K-21K21S1,895,experiment,49,→,left,←,0.7975089999381453,False,29,0
KS-K-21K21S1,896,experiment,87,↑,up,↑,0.8402317999862134,True,29,1
KS-K-21K21S1,897,experiment,64,↓,down,↓,0.6008315000217408,True,29,1
KS-K-21K21S1,898,experiment,48,↓,down,↓,0.5768984999740496,True,29,1
KS-K-21K21S1,899,experiment,69,→,right,→,0.3842547000385821,True,29,1
KS-K-21K21S1,900,experiment,88,←,left,←,0.540650499984622,True,29,0
KS-K-21K21S1,901,experiment,52,←,left,←,0.6376868999795988,True,29,1
KS-K-21K21S1,902,experiment,56,↓,down,↓,0.4970603999681771,True,29,1
KS-K-21K21S1,903,experiment,97,→,right,→,0.6201829999918118,True,29,1
KS-K-21K21S1,904,experiment,94,←,left,←,0.7957139000063762,True,29,1
KS-K-21K21S1,905,experiment,106,→,right,→,0.3610046999529004,True,29,1
KS-K-21K21S1,906,experiment,66,←,left,←,0.3678596999961883,True,29,0
KS-K-21K21S1,907,experiment,73,→,right,→,0.3258238999405876,True,29,1
KS-K-21K21S1,908,experiment,103,←,left,←,0.6351489999797195,True,29,0
KS-K-21K21S1,909,experiment,90,→,right,→,0.37537559994962066,True,29,1
KS-K-21K21S1,910,experiment,50,↓,down,↓,0.5395439999410883,True,29,0
KS-K-21K21S1,911,experiment,68,←,left,←,0.45522759994491935,True,29,1
KS-K-21K21S1,912,experiment,105,→,left,←,0.6091179000213742,False,29,1
KS-K-21K21S1,913,experiment,86,→,left,←,0.6519850000040606,False,29,1
KS-K-21K21S1,914,experiment,63,↓,down,↓,0.6444653000216931,True,29,1
KS-K-21K21S1,915,experiment,98,←,left,←,0.585766899981536,True,29,1
KS-K-21K21S1,916,experiment,102,←,left,←,0.44007460004650056,True,29,1
KS-K-21K21S1,917,experiment,72,←,left,←,0.7901779999956489,True,29,1
KS-K-21K21S1,918,experiment,57,→,left,←,0.9071977999992669,False,29,1
KS-K-21K21S1,919,experiment,107,←,left,←,0.3588428000221029,True,29,1
KS-K-21K21S1,920,experiment,67,←,left,←,0.5336727999383584,True,29,0
KS-K-21K21S1,921,experiment,60,←,left,←,0.37575280002783984,True,29,1
KS-K-21K21S1,922,experiment,62,↓,down,↓,0.5519194999942556,True,29,0
KS-K-21K21S1,923,training,85,↓,down,↓,0.6105343999806792,True,28,0
KS-K-21K21S1,924,training,66,↑,up,↑,0.4039483000524342,True,28,1
KS-K-21K21S1,925,experiment,55,←,left,←,0.6733686000807211,True,28,0
KS-K-21K21S1,926,experiment,75,←,left,←,0.46096019994001836,True,28,1
KS-K-21K21S1,927,experiment,98,↑,up,↑,0.33446709997951984,True,28,1
KS-K-21K21S1,928,experiment,88,↓,down,↓,0.7662269999273121,True,28,1
KS-K-21K21S1,929,experiment,65,→,right,→,0.36720750003587455,True,28,1
KS-K-21K21S1,930,experiment,76,↓,down,↓,0.4731126999249682,True,28,0
KS-K-21K21S1,931,experiment,68,←,left,←,0.5671931999968365,True,28,1
KS-K-21K21S1,932,experiment,56,←,left,←,0.35057060001417994,True,28,1
KS-K-21K21S1,933,experiment,60,↓,down,↓,0.4749659999506548,True,28,0
KS-K-21K21S1,934,experiment,89,←,right,→,0.6900446999352425,False,28,1
KS-K-21K21S1,935,experiment,106,↓,left,←,0.8105043000541627,False,28,1
KS-K-21K21S1,936,experiment,102,←,left,←,0.4798560000490397,True,28,1
KS-K-21K21S1,937,experiment,101,↑,up,↑,0.610615500016138,True,28,1
KS-K-21K21S1,938,experiment,91,↑,up,↑,0.5157536999322474,True,28,1
KS-K-21K21S1,939,experiment,52,↓,up,↑,0.5415176000678912,False,28,1
KS-K-21K21S1,940,experiment,64,→,right,→,0.4822723000543192,True,28,1
KS-K-21K21S1,941,experiment,87,←,left,←,0.5375104000559077,True,28,1
KS-K-21K21S1,942,experiment,97,←,left,←,0.4042223999276757,True,28,1
KS-K-21K21S1,943,experiment,95,↑,up,↑,0.3421313000144437,True,28,0
KS-K-21K21S1,944,experiment,99,↓,down,↓,0.7079580000136048,True,28,0
KS-K-21K21S1,945,experiment,80,→,right,→,0.42916279996279627,True,28,1
KS-K-21K21S1,946,experiment,105,←,left,←,0.4169923000736162,True,28,1
KS-K-21K21S1,947,experiment,74,→,right,→,0.6622315000277013,True,28,1
KS-K-21K21S1,948,experiment,77,→,no_key,no_letter,-1.0,False,28,1
KS-K-21K21S1,949,experiment,90,↑,up,↑,0.8957604999886826,True,28,1
KS-K-21K21S1,950,experiment,62,←,right,→,0.582582899951376,False,28,1
KS-K-21K21S1,951,experiment,71,↓,down,↓,0.575443199952133,True,28,1
KS-K-21K21S1,952,experiment,49,←,left,←,0.40766060003079474,True,28,1
KS-K-21K21S1,953,experiment,85,↑,up,↑,0.3760624999413267,True,28,1
KS-K-21K21S1,954,experiment,94,↓,down,↓,0.899804399930872,True,28,0
KS-K-21K21S1,955,experiment,53,←,left,←,0.33473700005561113,True,28,1
KS-K-21K21S1,956,experiment,84,↑,up,↑,0.36711039999499917,True,28,0
KS-K-21K21S1,957,experiment,108,→,right,→,0.5849205999402329,True,28,0
KS-K-21K21S1,958,experiment,63,→,right,→,0.892288799979724,True,28,1
KS-K-21K21S1,959,experiment,61,←,right,→,0.7878961999667808,False,28,1
KS-K-21K21S1,960,experiment,69,↑,up,↑,0.8849166999571025,True,28,1
KS-K-21K21S1,961,experiment,78,↑,up,↑,0.5513725000200793,True,28,1
KS-K-21K21S1,962,experiment,51,←,left,←,0.5120069000404328,True,28,1
KS-K-21K21S1,963,experiment,54,↓,down,↓,0.7774390999693424,True,28,1
KS-K-21K21S1,964,experiment,50,↑,up,↑,0.5536002001026645,True,28,1
KS-K-21K21S1,965,experiment,83,↓,down,↓,0.7834921999601647,True,28,1
KS-K-21K21S1,966,experiment,73,↑,down,↓,0.9193807999836281,False,28,1
KS-K-21K21S1,967,experiment,103,↓,down,↓,0.5518481000326574,True,28,1
KS-K-21K21S1,968,experiment,107,↓,down,↓,0.6539220999693498,True,28,1
KS-K-21K21S1,969,experiment,66,→,down,↓,1.2934518000110984,False,28,1
KS-K-21K21S1,970,experiment,93,↑,up,↑,0.8423450000118464,True,28,1
KS-K-21K21S1,971,experiment,72,↑,no_key,no_letter,-1.0,False,28,1
KS-K-21K21S1,972,experiment,79,↓,down,↓,0.5693838000297546,True,28,1
KS-K-21K21S1,973,experiment,67,↑,up,↑,1.0120528999250382,True,28,1
KS-K-21K21S1,974,experiment,58,↓,up,↑,0.8799853000091389,False,28,1
KS-K-21K21S1,975,experiment,104,↓,down,↓,0.7615608000196517,True,28,1
KS-K-21K21S1,976,experiment,86,→,right,→,0.7422838000347838,True,28,1
KS-K-21K21S1,977,experiment,92,↑,up,↑,0.5545118000591174,True,28,1
KS-K-21K21S1,978,experiment,81,←,left,←,0.7600747999968007,True,28,1
KS-K-21K21S1,979,experiment,59,→,right,→,0.6137046000221744,True,28,1
KS-K-21K21S1,980,experiment,48,↑,up,↑,0.48488759994506836,True,28,1
KS-K-21K21S1,981,experiment,57,→,right,→,0.5662479000166059,True,28,1
KS-K-21K21S1,982,experiment,70,↓,down,↓,0.840308399987407,True,28,1
KS-K-21K21S1,983,experiment,100,↑,up,↑,0.9004355000797659,True,28,1
KS-K-21K21S1,984,experiment,82,←,left,←,0.5099739999277517,True,28,1
KS-K-21K21S1,985,experiment,96,↑,up,↑,0.5844491000752896,True,28,1
KS-K-21K21S1,986,training,52,↓,down,↓,0.7237477999879047,True,28,0
KS-K-21K21S1,987,training,57,→,right,→,0.4755709000164643,True,28,1
KS-K-21K21S1,988,experiment,107,→,right,→,0.49250029993709177,True,28,1
KS-K-21K21S1,989,experiment,60,→,right,→,0.7006856000516564,True,28,1
KS-K-21K21S1,990,experiment,63,↑,up,↑,0.5637213999871165,True,28,1
KS-K-21K21S1,991,experiment,82,↑,up,↑,0.48119119997136295,True,28,1
KS-K-21K21S1,992,experiment,95,←,left,←,0.5260019999695942,True,28,1
KS-K-21K21S1,993,experiment,61,→,right,→,0.668231200077571,True,28,1
KS-K-21K21S1,994,experiment,83,→,right,→,0.5578504001023248,True,28,1
KS-K-21K21S1,995,experiment,49,↑,up,↑,0.6947230000514537,True,28,1
KS-K-21K21S1,996,experiment,76,←,left,←,0.48913270002231,True,28,1
KS-K-21K21S1,997,experiment,105,←,left,←,0.4982195000629872,True,28,1
KS-K-21K21S1,998,experiment,96,→,right,→,0.9099500000011176,True,28,1
KS-K-21K21S1,999,experiment,88,↑,up,↑,0.5159513000398874,True,28,1
KS-K-21K21S1,1000,experiment,66,→,right,→,0.5129965000087395,True,28,1
KS-K-21K21S1,1001,experiment,64,↓,down,↓,0.7585390999447554,True,28,1
KS-K-21K21S1,1002,experiment,97,→,right,→,0.49578370002564043,True,28,1
KS-K-21K21S1,1003,experiment,90,↑,up,↑,0.9733095999108627,True,28,1
KS-K-21K21S1,1004,experiment,93,→,right,→,0.8471872999798506,True,28,1
KS-K-21K21S1,1005,experiment,101,→,right,→,0.5630834000185132,True,28,1
KS-K-21K21S1,1006,experiment,108,↓,down,↓,1.176155099994503,True,28,1
KS-K-21K21S1,1007,experiment,73,↑,up,↑,0.6404949999414384,True,28,1
KS-K-21K21S1,1008,experiment,74,→,right,→,0.8379788999445736,True,28,1
KS-K-21K21S1,1009,experiment,55,↑,up,↑,0.40196609997656196,True,28,1
KS-K-21K21S1,1010,experiment,85,→,right,→,0.4528930999804288,True,28,0
KS-K-21K21S1,1011,experiment,91,↑,up,↑,0.5878422999521717,True,28,1
KS-K-21K21S1,1012,experiment,67,←,right,→,0.4137153000338003,False,28,1
KS-K-21K21S1,1013,experiment,80,↑,up,↑,0.47394399996846914,True,28,1
KS-K-21K21S1,1014,experiment,78,↓,up,↑,0.8609476999845356,False,28,1
KS-K-21K21S1,1015,experiment,53,↓,right,→,0.7363036000169814,False,28,1
KS-K-21K21S1,1016,experiment,69,→,right,→,0.45170500001404434,True,28,1
KS-K-21K21S1,1017,experiment,56,↓,down,↓,1.4306042999960482,True,28,1
KS-K-21K21S1,1018,experiment,50,↓,down,↓,0.9798767999745905,True,28,1
KS-K-21K21S1,1019,experiment,104,←,left,←,0.8898315000114962,True,28,1
KS-K-21K21S1,1020,experiment,100,→,right,→,0.7164473000448197,True,28,1
KS-K-21K21S1,1021,experiment,92,→,right,→,0.45659439999144524,True,28,1
KS-K-21K21S1,1022,experiment,51,←,right,→,0.7092451999196783,False,28,1
KS-K-21K21S1,1023,experiment,106,↓,down,↓,0.7972142000216991,True,28,1
KS-K-21K21S1,1024,experiment,94,←,left,←,0.757611499982886,True,28,1
KS-K-21K21S1,1025,experiment,48,→,right,→,0.5350199999520555,True,28,1
KS-K-21K21S1,1026,experiment,87,↓,left,←,0.652204200043343,False,28,1
KS-K-21K21S1,1027,experiment,79,→,right,→,0.5037369000492617,True,28,1
KS-K-21K21S1,1028,experiment,58,↑,up,↑,0.567918699933216,True,28,1
KS-K-21K21S1,1029,experiment,89,↓,down,↓,0.643406999995932,True,28,1
KS-K-21K21S1,1030,experiment,71,↑,up,↑,0.4816108999075368,True,28,1
KS-K-21K21S1,1031,experiment,81,↓,down,↓,0.6990958000533283,True,28,1
KS-K-21K21S1,1032,experiment,70,↓,down,↓,0.6155087000224739,True,28,1
KS-K-21K21S1,1033,experiment,98,→,right,→,0.7256681000581011,True,28,1
KS-K-21K21S1,1034,experiment,102,↓,down,↓,0.5103633000981063,True,28,1
KS-K-21K21S1,1035,experiment,62,←,right,→,0.48476010002195835,False,28,1
KS-K-21K21S1,1036,experiment,75,←,right,→,0.4244775000261143,False,28,1
KS-K-21K21S1,1037,experiment,54,↑,down,↓,0.5971255999756977,False,28,1
KS-K-21K21S1,1038,experiment,77,↑,down,↓,0.9070669000502676,False,28,1
KS-K-21K21S1,1039,experiment,84,↑,down,↓,0.5543166999705136,False,28,1
KS-K-21K21S1,1040,experiment,52,←,right,→,0.5305898999795318,False,28,1
KS-K-21K21S1,1041,experiment,99,↑,up,↑,0.6680500999791548,True,28,1
KS-K-21K21S1,1042,experiment,65,→,left,←,0.80350040004123,False,28,1
KS-K-21K21S1,1043,experiment,57,→,right,→,0.5680717000504956,True,28,1
KS-K-21K21S1,1044,experiment,86,↓,down,↓,0.5326121000107378,True,28,1
KS-K-21K21S1,1045,experiment,103,↓,right,→,0.9244685999583453,False,28,1
KS-K-21K21S1,1046,experiment,72,↑,up,↑,0.6952991000143811,True,28,1
KS-K-21K21S1,1047,experiment,68,↑,up,↑,0.6042109000263736,True,28,1
KS-K-21K21S1,1048,experiment,59,←,left,←,0.5600574999116361,True,28,1
KS-K-21K21S1,1049,training,48,←,left,←,0.46207170002162457,True,28,0
KS-K-21K21S1,1050,training,93,→,right,→,0.49214330001268536,True,28,1
KS-K-21K21S1,1051,experiment,55,→,left,←,0.5820397000061348,False,28,1
KS-K-21K21S1,1052,experiment,66,↑,up,↑,0.48032339999917895,True,28,1
KS-K-21K21S1,1053,experiment,87,↑,up,↑,0.4080254000145942,True,28,1
KS-K-21K21S1,1054,experiment,63,←,left,←,0.4821881999960169,True,28,1
KS-K-21K21S1,1055,experiment,92,←,right,→,0.36923579999711365,False,28,1
KS-K-21K21S1,1056,experiment,79,→,left,←,0.35943690000567585,False,28,0
KS-K-21K21S1,1057,experiment,98,↓,up,↑,0.5664746999973431,False,28,1
KS-K-21K21S1,1058,experiment,78,→,right,→,1.1574671999551356,True,28,1
KS-K-21K21S1,1059,experiment,70,←,left,←,0.543487700051628,True,28,1
KS-K-21K21S1,1060,experiment,94,←,left,←,0.6021399999735877,True,28,1
KS-K-21K21S1,1061,experiment,52,↓,up,↑,0.536955300020054,False,28,1
KS-K-21K21S1,1062,experiment,84,↓,down,↓,0.5185770000098273,True,28,1
KS-K-21K21S1,1063,experiment,71,←,left,←,0.6260984999826178,True,28,1
KS-K-21K21S1,1064,experiment,83,↑,up,↑,0.6772356999572366,True,28,1
KS-K-21K21S1,1065,experiment,91,↑,up,↑,0.499388900003396,True,28,1
KS-K-21K21S1,1066,experiment,105,↓,down,↓,0.596152100013569,True,28,1
KS-K-21K21S1,1067,experiment,90,↓,down,↓,0.5823258999735117,True,28,1
KS-K-21K21S1,1068,experiment,86,↑,up,↑,0.6420329000102356,True,28,1
KS-K-21K21S1,1069,experiment,54,↓,down,↓,0.5100759000051767,True,28,1
KS-K-21K21S1,1070,experiment,76,←,no_key,no_letter,-1.0,False,28,1
KS-K-21K21S1,1071,experiment,97,↓,down,↓,0.587303499924019,True,28,1
KS-K-21K21S1,1072,experiment,59,←,left,←,0.4557787000667304,True,28,1
KS-K-21K21S1,1073,experiment,93,→,left,←,1.062175799976103,False,28,1
KS-K-21K21S1,1074,experiment,74,↑,up,↑,0.546714499942027,True,28,1
KS-K-21K21S1,1075,experiment,73,→,left,←,0.5078197000548244,False,28,1
KS-K-21K21S1,1076,experiment,57,←,left,←,0.476350300014019,True,28,1
KS-K-21K21S1,1077,experiment,49,←,right,→,0.7766864000586793,False,28,1
KS-K-21K21S1,1078,experiment,60,↑,up,↑,0.5255034000147134,True,28,1
KS-K-21K21S1,1079,experiment,67,←,left,←,0.46591130003798753,True,28,1
KS-K-21K21S1,1080,experiment,58,↓,no_key,no_letter,-1.0,False,28,1
KS-K-21K21S1,1081,experiment,62,↑,up,↑,0.7382967999437824,True,28,1
KS-K-21K21S1,1082,experiment,82,→,left,←,0.5052285999991,False,28,1
KS-K-21K21S1,1083,experiment,81,→,right,→,0.7377796999644488,True,28,1
KS-K-21K21S1,1084,experiment,108,↓,down,↓,0.7115843000356108,True,28,1
KS-K-21K21S1,1085,experiment,88,←,left,←,0.6456018999451771,True,28,1
KS-K-21K21S1,1086,experiment,107,↑,up,↑,1.48758249997627,True,28,1
KS-K-21K21S1,1087,experiment,53,→,left,←,0.49819539999589324,False,28,1
KS-K-21K21S1,1088,experiment,80,→,right,→,0.4750638999976218,True,28,1
KS-K-21K21S1,1089,experiment,102,→,right,→,1.0057126000756398,True,28,1
KS-K-21K21S1,1090,experiment,101,↓,down,↓,0.5473854000447318,True,28,1
KS-K-21K21S1,1091,experiment,99,↓,left,←,0.907945700106211,False,28,1
KS-K-21K21S1,1092,experiment,77,↓,down,↓,0.517733299988322,True,28,1
KS-K-21K21S1,1093,experiment,72,←,left,←,0.4648221000097692,True,28,1
KS-K-21K21S1,1094,experiment,75,→,right,→,0.5809368999907747,True,28,1
KS-K-21K21S1,1095,experiment,65,←,left,←,0.6636878999415785,True,28,1
KS-K-21K21S1,1096,experiment,103,→,right,→,0.5302866999991238,True,28,1
KS-K-21K21S1,1097,experiment,95,↓,down,↓,0.5889415999408811,True,28,1
KS-K-21K21S1,1098,experiment,48,↓,down,↓,0.5171222001081333,True,28,1
KS-K-21K21S1,1099,experiment,56,→,right,→,0.7097097999649122,True,28,1
KS-K-21K21S1,1100,experiment,89,↓,down,↓,0.5234221999999136,True,28,1
KS-K-21K21S1,1101,experiment,64,→,no_key,no_letter,-1.0,False,28,1
KS-K-21K21S1,1102,experiment,68,←,right,→,0.7015986000187695,False,28,1
KS-K-21K21S1,1103,experiment,61,↑,up,↑,0.6770413999911398,True,28,1
KS-K-21K21S1,1104,experiment,69,←,right,→,0.5622974999714643,False,28,1
KS-K-21K21S1,1105,experiment,85,↓,up,↑,0.638989600003697,False,28,1
KS-K-21K21S1,1106,experiment,106,↑,up,↑,0.4419024999951944,True,28,1
KS-K-21K21S1,1107,experiment,51,↑,up,↑,0.41556180000770837,True,28,1
KS-K-21K21S1,1108,experiment,96,↓,down,↓,0.66961620002985,True,28,1
KS-K-21K21S1,1109,experiment,104,→,right,→,0.6000772999832407,True,28,1
KS-K-21K21S1,1110,experiment,100,↑,up,↑,0.47052650002297014,True,28,1
KS-K-21K21S1,1111,experiment,50,←,left,←,0.40326070005539805,True,28,1
KS-K-21K21S1,1112,training,58,↓,down,↓,0.5133669999195263,True,28,0
KS-K-21K21S1,1113,training,97,→,left,←,0.6439416999928653,False,28,1
KS-K-21K21S1,1114,experiment,55,↑,up,↑,0.5838318000314757,True,28,1
KS-K-21K21S1,1115,experiment,85,→,right,→,0.7239315999904647,True,28,1
KS-K-21K21S1,1116,experiment,76,↓,down,↓,1.3891510999528691,True,28,1
KS-K-21K21S1,1117,experiment,64,←,left,←,0.5597635000012815,True,28,1
KS-K-21K21S1,1118,experiment,78,←,right,→,0.7360506999539211,False,28,1
KS-K-21K21S1,1119,experiment,103,↓,left,←,0.7268808999797329,False,28,1
KS-K-21K21S1,1120,experiment,87,←,left,←,0.6768186000408605,True,28,1
KS-K-21K21S1,1121,experiment,106,↑,up,↑,0.5419266000390053,True,28,1
KS-K-21K21S1,1122,experiment,104,↑,left,←,0.8772187000140548,False,28,1
KS-K-21K21S1,1123,experiment,98,→,right,→,0.5772706000134349,True,28,1
KS-K-21K21S1,1124,experiment,93,←,right,→,0.5312100000446662,False,28,1
KS-K-21K21S1,1125,experiment,102,→,right,→,0.5074078000616282,True,28,1
KS-K-21K21S1,1126,experiment,88,→,right,→,0.5453925998881459,True,28,1
KS-K-21K21S1,1127,experiment,79,↓,down,↓,1.4729482000693679,True,28,1
KS-K-21K21S1,1128,experiment,74,↑,up,↑,0.42889560002367944,True,28,1
KS-K-21K21S1,1129,experiment,100,↑,up,↑,0.6101264000171795,True,28,1
KS-K-21K21S1,1130,experiment,90,↓,up,↑,0.643627299927175,False,28,1
KS-K-21K21S1,1131,experiment,65,↓,down,↓,1.139935199986212,True,28,1
KS-K-21K21S1,1132,experiment,101,→,right,→,0.4042468999978155,True,28,1
KS-K-21K21S1,1133,experiment,99,↑,up,↑,0.384563299943693,True,28,0
KS-K-21K21S1,1134,experiment,61,↓,down,↓,0.5265053999610245,True,28,1
KS-K-21K21S1,1135,experiment,68,←,left,←,0.48264359997119755,True,28,1
KS-K-21K21S1,1136,experiment,95,←,right,→,0.6232627000426874,False,28,1
KS-K-21K21S1,1137,experiment,58,↓,down,↓,0.5707464000442997,True,28,1
KS-K-21K21S1,1138,experiment,53,←,left,←,1.0496837999671698,True,28,1
KS-K-21K21S1,1139,experiment,108,↑,up,↑,0.3678931000176817,True,28,1
KS-K-21K21S1,1140,experiment,97,←,left,←,0.6036753000225872,True,28,1
KS-K-21K21S1,1141,experiment,57,↑,up,↑,0.9282172999810427,True,28,1
KS-K-21K21S1,1142,experiment,96,←,left,←,0.5468218999449164,True,28,1
KS-K-21K21S1,1143,experiment,83,↓,down,↓,0.592804400017485,True,28,1
KS-K-21K21S1,1144,experiment,73,→,right,→,0.5926596999634057,True,28,1
KS-K-21K21S1,1145,experiment,72,↓,down,↓,0.584659600048326,True,28,1
KS-K-21K21S1,1146,experiment,62,↓,down,↓,0.660379400011152,True,28,1
KS-K-21K21S1,1147,experiment,105,←,left,←,0.5587481000693515,True,28,1
KS-K-21K21S1,1148,experiment,48,↑,up,↑,0.3766933000879362,True,28,1
KS-K-21K21S1,1149,experiment,92,←,left,←,0.3592701000161469,True,28,0
KS-K-21K21S1,1150,experiment,63,↓,down,↓,0.4938306000549346,True,28,0
KS-K-21K21S1,1151,experiment,82,↓,down,↓,0.6706264000386,True,28,1
KS-K-21K21S1,1152,experiment,50,↑,up,↑,0.4426763999508694,True,28,1
KS-K-21K21S1,1153,experiment,52,→,right,→,0.6156948999268934,True,28,1
KS-K-21K21S1,1154,experiment,75,↓,down,↓,0.6773544000461698,True,28,1
KS-K-21K21S1,1155,experiment,69,↓,down,↓,0.5390569999581203,True,28,1
KS-K-21K21S1,1156,experiment,81,↓,down,↓,0.546095099998638,True,28,1
KS-K-21K21S1,1157,experiment,66,←,no_key,no_letter,-1.0,False,28,1
KS-K-21K21S1,1158,experiment,71,↓,right,→,0.8496768999611959,False,28,1
KS-K-21K21S1,1159,experiment,89,↓,down,↓,0.5378216999815777,True,28,1
KS-K-21K21S1,1160,experiment,77,↑,up,↑,0.3761948000174016,True,28,1
KS-K-21K21S1,1161,experiment,56,→,right,→,0.4477993999607861,True,28,0
KS-K-21K21S1,1162,experiment,70,↓,down,↓,0.5103802001103759,True,28,1
KS-K-21K21S1,1163,experiment,67,↑,no_key,no_letter,-1.0,False,28,1
KS-K-21K21S1,1164,experiment,51,↑,right,→,0.7739110999973491,False,28,1
KS-K-21K21S1,1165,experiment,84,↓,left,←,0.8666141999419779,False,28,1
KS-K-21K21S1,1166,experiment,107,↑,up,↑,0.6759010000387207,True,28,1
KS-K-21K21S1,1167,experiment,54,→,right,→,0.41506619995925575,True,28,1
KS-K-21K21S1,1168,experiment,86,→,right,→,0.4252533999970183,True,28,1
KS-K-21K21S1,1169,experiment,49,↓,down,↓,0.5196714999619871,True,28,1
KS-K-21K21S1,1170,experiment,59,↑,up,↑,0.5832326000090688,True,28,1
KS-K-21K21S1,1171,experiment,91,↓,down,↓,0.6252090999623761,True,28,1
KS-K-21K21S1,1172,experiment,94,↑,down,↓,0.7765647999476641,False,28,1
KS-K-21K21S1,1173,experiment,60,↑,up,↑,0.6133868999313563,True,28,1
KS-K-21K21S1,1174,experiment,80,↑,up,↑,0.3678109000902623,True,28,1
KS-K-21K21S1,1175,training,72,↑,up,↑,0.4674659000011161,True,28,0
KS-K-21K21S1,1176,training,90,←,left,←,0.5302264000056311,True,28,1
KS-K-21K21S1,1177,experiment,83,↑,up,↑,0.4411908999318257,True,28,1
KS-K-21K21S1,1178,experiment,106,→,right,→,0.5077377000125125,True,28,1
KS-K-21K21S1,1179,experiment,76,↓,up,↑,1.0616307000163943,False,28,1
KS-K-21K21S1,1180,experiment,108,←,left,←,0.5590801999205723,True,28,1
KS-K-21K21S1,1181,experiment,93,↑,up,↑,0.41736890003085136,True,28,1
KS-K-21K21S1,1182,experiment,99,↓,down,↓,0.6631194000365213,True,28,1
KS-K-21K21S1,1183,experiment,104,↑,up,↑,0.441432400024496,True,28,1
KS-K-21K21S1,1184,experiment,71,↓,no_key,no_letter,-1.0,False,28,1
KS-K-21K21S1,1185,experiment,54,↓,down,↓,1.041414099978283,True,28,1
KS-K-21K21S1,1186,experiment,63,↓,down,↓,0.7543709999881685,True,28,1
KS-K-21K21S1,1187,experiment,69,→,right,→,0.40525690000504255,True,28,1
KS-K-21K21S1,1188,experiment,92,↑,down,↓,0.9255141000030562,False,28,1
KS-K-21K21S1,1189,experiment,96,↓,down,↓,0.8642182999756187,True,28,1
KS-K-21K21S1,1190,experiment,85,↓,down,↓,0.5127722999313846,True,28,1
KS-K-21K21S1,1191,experiment,68,←,left,←,0.9092922999989241,True,28,1
KS-K-21K21S1,1192,experiment,60,→,right,→,0.4606344000203535,True,28,1
KS-K-21K21S1,1193,experiment,87,→,right,→,0.700986500014551,True,28,1
KS-K-21K21S1,1194,experiment,74,↓,down,↓,0.5843457999872044,True,28,1
KS-K-21K21S1,1195,experiment,79,←,right,→,0.4621870999690145,False,28,1
KS-K-21K21S1,1196,experiment,86,→,right,→,0.4949829999823123,True,28,1
KS-K-21K21S1,1197,experiment,81,→,right,→,0.727254300029017,True,28,1
KS-K-21K21S1,1198,experiment,80,↑,up,↑,1.7193454001098871,True,28,1
KS-K-21K21S1,1199,experiment,49,↑,up,↑,0.49787890003062785,True,28,1
KS-K-21K21S1,1200,experiment,67,↑,up,↑,0.36684549995698035,True,28,1
KS-K-21K21S1,1201,experiment,82,←,left,←,0.47666649997700006,True,28,0
KS-K-21K21S1,1202,experiment,51,↑,right,→,0.4086539000272751,False,28,1
KS-K-21K21S1,1203,experiment,105,↑,up,↑,0.3838282999349758,True,28,1
KS-K-21K21S1,1204,experiment,97,↑,no_key,no_letter,-1.0,False,28,0
KS-K-21K21S1,1205,experiment,88,←,left,←,0.6589293000288308,True,28,1
KS-K-21K21S1,1206,experiment,73,↑,up,↑,0.639837900060229,True,28,1
KS-K-21K21S1,1207,experiment,72,↓,down,↓,0.4860742000164464,True,28,1
KS-K-21K21S1,1208,experiment,101,↓,down,↓,0.5207478000083938,True,28,1
KS-K-21K21S1,1209,experiment,58,→,right,→,0.3509162999689579,True,28,1
KS-K-21K21S1,1210,experiment,65,↓,down,↓,0.41244290000759065,True,28,0
KS-K-21K21S1,1211,experiment,77,↑,down,↓,0.6813579999143258,False,28,1
KS-K-21K21S1,1212,experiment,90,←,no_key,no_letter,-1.0,False,28,1
KS-K-21K21S1,1213,experiment,102,←,left,←,0.617289200075902,True,28,1
KS-K-21K21S1,1214,experiment,56,→,right,→,0.30047250003553927,True,28,1
KS-K-21K21S1,1215,experiment,66,↓,down,↓,0.6190282000461593,True,28,0
KS-K-21K21S1,1216,experiment,75,↑,up,↑,0.8970885999733582,True,28,1
KS-K-21K21S1,1217,experiment,91,←,left,←,0.3350378000177443,True,28,1
KS-K-21K21S1,1218,experiment,78,↑,right,→,0.7742099000606686,False,28,0
KS-K-21K21S1,1219,experiment,62,→,left,←,0.5862507000565529,False,28,1
KS-K-21K21S1,1220,experiment,50,→,left,←,0.5219330999534577,False,28,1
KS-K-21K21S1,1221,experiment,84,→,right,→,0.35124730004463345,True,28,1
KS-K-21K21S1,1222,experiment,52,↑,up,↑,0.8809059999184683,True,28,0
KS-K-21K21S1,1223,experiment,53,↑,up,↑,0.5475652000168338,True,28,1
KS-K-21K21S1,1224,experiment,94,→,left,←,0.7579532000236213,False,28,1
KS-K-21K21S1,1225,experiment,95,→,right,→,0.5915271000703797,True,28,1
KS-K-21K21S1,1226,experiment,98,→,right,→,0.591040899977088,True,28,1
KS-K-21K21S1,1227,experiment,103,↓,down,↓,0.44474669999908656,True,28,1
KS-K-21K21S1,1228,experiment,100,←,right,→,0.6977980999508873,False,28,1
KS-K-21K21S1,1229,experiment,48,↑,up,↑,0.5092823000159115,True,28,1
KS-K-21K21S1,1230,experiment,59,←,left,←,0.34272580000106245,True,28,1
KS-K-21K21S1,1231,experiment,107,↓,down,↓,0.5150140000041574,True,28,0
KS-K-21K21S1,1232,experiment,89,↑,left,←,1.336874600034207,False,28,1
KS-K-21K21S1,1233,experiment,55,↑,up,↑,0.7999353000195697,True,28,1
KS-K-21K21S1,1234,experiment,64,↓,down,↓,0.7944099000887945,True,28,1
KS-K-21K21S1,1235,experiment,61,↑,up,↑,0.8301378999603912,True,28,1
KS-K-21K21S1,1236,experiment,70,↑,up,↑,0.6690539999399334,True,28,1
KS-K-21K21S1,1237,experiment,57,↑,up,↑,0.46323340001981705,True,28,1
KS-K-21K21S1,1238,training,81,↓,up,↑,1.5776596000650898,False,28,0
KS-K-21K21S1,1239,training,65,↑,down,↓,0.620292600011453,False,28,1
KS-K-21K21S1,1240,experiment,58,↓,down,↓,0.527685199980624,True,28,1
KS-K-21K21S1,1241,experiment,75,←,right,→,0.5614376000594348,False,28,1
KS-K-21K21S1,1242,experiment,92,↑,down,↓,0.5636865999549627,False,28,1
KS-K-21K21S1,1243,experiment,64,↑,up,↑,0.6636794999940321,True,28,1
KS-K-21K21S1,1244,experiment,97,←,left,←,0.45213130000047386,True,28,1
KS-K-21K21S1,1245,experiment,59,↑,up,↑,0.5024534000549465,True,28,1
KS-K-21K21S1,1246,experiment,99,↑,up,↑,0.37633660004939884,True,28,1
KS-K-21K21S1,1247,experiment,69,→,right,→,0.5225482999812812,True,28,0
KS-K-21K21S1,1248,experiment,54,↓,down,↓,0.5472132000140846,True,28,1
KS-K-21K21S1,1249,experiment,63,→,right,→,0.824109899927862,True,28,1
KS-K-21K21S1,1250,experiment,73,↑,up,↑,1.0386309999739751,True,28,1
KS-K-21K21S1,1251,experiment,76,→,left,←,1.3390441000228748,False,28,1
KS-K-21K21S1,1252,experiment,108,→,left,←,1.3689921000041068,False,28,1
KS-K-21K21S1,1253,experiment,80,↓,down,↓,0.559209999977611,True,28,1
KS-K-21K21S1,1254,experiment,56,↑,right,→,0.7259280000580475,False,28,1
KS-K-21K21S1,1255,experiment,86,←,right,→,0.46817930007819086,False,28,1
KS-K-21K21S1,1256,experiment,72,↑,down,↓,0.5770011000568047,False,28,1
KS-K-21K21S1,1257,experiment,66,←,left,←,0.5473690000362694,True,28,1
KS-K-21K21S1,1258,experiment,61,↓,down,↓,0.5448169000446796,True,28,1
KS-K-21K21S1,1259,experiment,90,→,right,→,0.4689326999941841,True,28,1
KS-K-21K21S1,1260,experiment,81,↓,down,↓,0.5187872999813408,True,28,1
KS-K-21K21S1,1261,experiment,50,↓,down,↓,0.753191800089553,True,28,1
KS-K-21K21S1,1262,experiment,74,←,left,←,0.37607580004259944,True,28,1
KS-K-21K21S1,1263,experiment,98,↓,down,↓,0.5300130000105128,True,28,1
KS-K-21K21S1,1264,experiment,102,←,right,→,0.5223097000271082,False,28,1
KS-K-21K21S1,1265,experiment,83,←,left,←,0.497331399936229,True,28,1
KS-K-21K21S1,1266,experiment,60,↑,left,←,0.6493564000120386,False,28,1
KS-K-21K21S1,1267,experiment,88,←,left,←,0.4254666999913752,True,28,1
KS-K-21K21S1,1268,experiment,103,←,right,→,0.47786210000049323,False,28,1
KS-K-21K21S1,1269,experiment,104,↓,up,↑,0.6556086000055075,False,28,1
KS-K-21K21S1,1270,experiment,100,↑,up,↑,0.8437791999895126,True,28,1
KS-K-21K21S1,1271,experiment,107,↓,left,←,0.5982633999083191,False,28,1
KS-K-21K21S1,1272,experiment,84,↑,left,←,0.7060623000143096,False,28,1
KS-K-21K21S1,1273,experiment,49,↓,up,↑,0.8448232000228018,False,28,1
KS-K-21K21S1,1274,experiment,53,↑,down,↓,1.081124100019224,False,28,1
KS-K-21K21S1,1275,experiment,101,↑,up,↑,0.47573810000903904,True,28,1
KS-K-21K21S1,1276,experiment,96,↓,down,↓,0.7205046000890434,True,28,1
KS-K-21K21S1,1277,experiment,105,↓,up,↑,0.4486072000581771,False,28,1
KS-K-21K21S1,1278,experiment,87,↓,down,↓,0.529330899938941,True,28,1
KS-K-21K21S1,1279,experiment,91,→,right,→,0.6532725000288337,True,28,1
KS-K-21K21S1,1280,experiment,89,→,right,→,0.3844073999207467,True,28,1
KS-K-21K21S1,1281,experiment,71,↑,right,→,0.7576978999422863,False,28,1
KS-K-21K21S1,1282,experiment,55,←,left,←,0.4134992000181228,True,28,1
KS-K-21K21S1,1283,experiment,70,←,left,←,0.4605676999781281,True,28,1
KS-K-21K21S1,1284,experiment,62,↑,up,↑,0.6610973000060767,True,28,1
KS-K-21K21S1,1285,experiment,79,→,right,→,0.5684139999793842,True,28,1
KS-K-21K21S1,1286,experiment,65,←,no_key,no_letter,-1.0,False,28,1
KS-K-21K21S1,1287,experiment,106,↑,up,↑,0.4276556000113487,True,28,1
KS-K-21K21S1,1288,experiment,57,↓,down,↓,0.807159100077115,True,28,1
KS-K-21K21S1,1289,experiment,52,→,left,←,0.7972148000262678,False,28,1
KS-K-21K21S1,1290,experiment,94,↓,down,↓,1.2696103999624029,True,28,1
KS-K-21K21S1,1291,experiment,51,←,left,←,0.9216645999113098,True,28,1
KS-K-21K21S1,1292,experiment,82,↑,up,↑,0.6167994999559596,True,28,1
KS-K-21K21S1,1293,experiment,95,↑,up,↑,0.5522700999863446,True,28,1
KS-K-21K21S1,1294,experiment,77,↑,up,↑,0.7202343000099063,True,28,1
KS-K-21K21S1,1295,experiment,48,↓,up,↑,0.7629832999082282,False,28,1
KS-K-21K21S1,1296,experiment,68,↑,right,→,1.0694115000078455,False,28,1
KS-K-21K21S1,1297,experiment,93,↓,down,↓,0.9153179000131786,True,28,1
KS-K-21K21S1,1298,experiment,67,↑,up,↑,0.47991929994896054,True,28,1
KS-K-21K21S1,1299,experiment,78,↑,left,←,1.810604099999182,False,28,1
KS-K-21K21S1,1300,experiment,85,↑,up,↑,0.4531241999939084,True,28,1
KS-K-21K21S1,1301,training,55,↑,left,←,0.7413940000114962,False,28,0
KS-K-21K21S1,1302,training,95,↓,up,↑,0.4632222999352962,False,28,1
KS-K-21K21S1,1303,experiment,104,↓,down,↓,0.5456590000540018,True,28,1
KS-K-21K21S1,1304,experiment,83,←,left,←,0.3847201999742538,True,28,1
KS-K-21K21S1,1305,experiment,52,←,left,←,0.4706100000767037,True,28,0
KS-K-21K21S1,1306,experiment,69,↑,up,↑,0.5485875000013039,True,28,1
KS-K-21K21S1,1307,experiment,72,←,left,←,0.4620917000574991,True,28,1
KS-K-21K21S1,1308,experiment,64,←,right,→,0.37593189999461174,False,28,1
KS-K-21K21S1,1309,experiment,61,←,no_key,no_letter,-1.0,False,28,0
KS-K-21K21S1,1310,experiment,87,→,no_key,no_letter,-1.0,False,28,1
KS-K-21K21S1,1311,experiment,85,←,left,←,0.4158295999513939,True,28,1
KS-K-21K21S1,1312,experiment,58,←,left,←,0.5794946999521926,True,28,1
KS-K-21K21S1,1313,experiment,57,→,left,←,0.4808341999305412,False,28,1
KS-K-21K21S1,1314,experiment,54,↓,down,↓,0.8273291999939829,True,28,1
KS-K-21K21S1,1315,experiment,97,↓,down,↓,0.457690600072965,True,28,1
KS-K-21K21S1,1316,experiment,62,←,left,←,0.6424464000156149,True,28,1
KS-K-21K21S1,1317,experiment,78,↓,down,↓,0.5904798000119627,True,28,1
KS-K-21K21S1,1318,experiment,101,→,left,←,0.653291399939917,False,28,1
KS-K-21K21S1,1319,experiment,56,↓,down,↓,0.71981479995884,True,28,1
KS-K-21K21S1,1320,experiment,59,↓,down,↓,0.6869454000843689,True,28,1
KS-K-21K21S1,1321,experiment,63,↑,up,↑,0.7263032000046223,True,28,1
KS-K-21K21S1,1322,experiment,70,↑,left,←,0.8018606000114232,False,28,1
KS-K-21K21S1,1323,experiment,106,←,left,←,0.4861189000075683,True,28,1
KS-K-21K21S1,1324,experiment,103,↓,up,↑,1.6400659000501037,False,28,1
KS-K-21K21S1,1325,experiment,73,↑,up,↑,0.6617657999740914,True,28,1
KS-K-21K21S1,1326,experiment,71,↓,down,↓,0.9711068000178784,True,28,1
KS-K-21K21S1,1327,experiment,48,↓,down,↓,0.7003165999194607,True,28,1
KS-K-21K21S1,1328,experiment,79,↑,up,↑,0.5975003999192268,True,28,1
KS-K-21K21S1,1329,experiment,67,↑,up,↑,0.5509851999813691,True,28,1
KS-K-21K21S1,1330,experiment,55,→,left,←,0.5023535001091659,False,28,1
KS-K-21K21S1,1331,experiment,80,←,left,←,0.6792838999535888,True,28,1
KS-K-21K21S1,1332,experiment,94,↑,up,↑,0.5563959000864998,True,28,1
KS-K-21K21S1,1333,experiment,50,↓,up,↑,0.6291633000364527,False,28,1
KS-K-21K21S1,1334,experiment,60,←,left,←,0.5116827000165358,True,28,1
KS-K-21K21S1,1335,experiment,76,→,no_key,no_letter,-1.0,False,28,1
KS-K-21K21S1,1336,experiment,102,←,left,←,0.6990480999229476,True,28,1
KS-K-21K21S1,1337,experiment,84,→,right,→,0.6665976999793202,True,28,1
KS-K-21K21S1,1338,experiment,49,↓,down,↓,1.0872454999480397,True,28,1
KS-K-21K21S1,1339,experiment,77,←,left,←,0.5295811999822035,True,28,1
KS-K-21K21S1,1340,experiment,51,←,left,←,0.4913476000074297,True,28,1
KS-K-21K21S1,1341,experiment,90,↑,up,↑,0.6974551999010146,True,28,1
KS-K-21K21S1,1342,experiment,74,←,left,←,0.7723664999939501,True,28,1
KS-K-21K21S1,1343,experiment,99,←,left,←,0.6283353999024257,True,28,1
KS-K-21K21S1,1344,experiment,89,→,right,→,0.5969454000005499,True,28,1
KS-K-21K21S1,1345,experiment,93,↑,up,↑,0.6456118000205606,True,28,1
KS-K-21K21S1,1346,experiment,95,↓,down,↓,1.099742399994284,True,28,1
KS-K-21K21S1,1347,experiment,86,→,right,→,0.6425642999820411,True,28,1
KS-K-21K21S1,1348,experiment,53,↑,up,↑,0.7271334000397474,True,28,1
KS-K-21K21S1,1349,experiment,92,→,right,→,0.4991340000415221,True,28,1
KS-K-21K21S1,1350,experiment,105,→,right,→,0.5478895000414923,True,28,1
KS-K-21K21S1,1351,experiment,68,←,left,←,0.8708201000699773,True,28,1
KS-K-21K21S1,1352,experiment,108,→,right,→,0.6713619000511244,True,28,1
KS-K-21K21S1,1353,experiment,82,↑,up,↑,0.4648805999895558,True,28,1
KS-K-21K21S1,1354,experiment,81,↓,right,→,0.5790094999829307,False,28,1
KS-K-21K21S1,1355,experiment,91,↑,left,←,0.6449592000572011,False,28,1
KS-K-21K21S1,1356,experiment,98,↓,right,→,0.6339862999739125,False,28,1
KS-K-21K21S1,1357,experiment,96,←,no_key,no_letter,-1.0,False,28,1
KS-K-21K21S1,1358,experiment,66,←,left,←,0.48592160001862794,True,28,1
KS-K-21K21S1,1359,experiment,75,←,left,←,0.3594687998993322,True,28,1
KS-K-21K21S1,1360,experiment,107,←,left,←,0.3673326999414712,True,28,0
KS-K-21K21S1,1361,experiment,88,↓,down,↓,0.8821864000055939,True,28,0
KS-K-21K21S1,1362,experiment,100,←,left,←,0.44511709990911186,True,28,1
KS-K-21K21S1,1363,experiment,65,↑,left,←,0.6137252000626177,False,28,1
KS-K-21K21S1,1364,training,89,↓,down,↓,0.6838782998966053,True,28,0
KS-K-21K21S1,1365,training,89,↑,down,↓,0.7221975000575185,False,28,1
KS-K-21K21S1,1366,experiment,75,→,left,←,0.5802075000246987,False,28,1
KS-K-21K21S1,1367,experiment,93,↓,down,↓,0.6294469999847934,True,28,1
KS-K-21K21S1,1368,experiment,83,↓,down,↓,0.6721194999990985,True,28,1
KS-K-21K21S1,1369,experiment,107,↓,down,↓,0.6411946999141946,True,28,1
KS-K-21K21S1,1370,experiment,72,→,right,→,0.5353477000026032,True,28,1
KS-K-21K21S1,1371,experiment,49,↓,down,↓,0.5929660000838339,True,28,1
KS-K-21K21S1,1372,experiment,82,←,left,←,0.4938901000423357,True,28,1
KS-K-21K21S1,1373,experiment,51,←,left,←,0.40961760003119707,True,28,1
KS-K-21K21S1,1374,experiment,100,↑,left,←,1.6467185000656173,False,28,1
KS-K-21K21S1,1375,experiment,76,↑,down,↓,0.5627168000210077,False,28,1
KS-K-21K21S1,1376,experiment,103,→,left,←,0.5777995999669656,False,28,1
KS-K-21K21S1,1377,experiment,73,↑,up,↑,0.9859131999546662,True,28,1
KS-K-21K21S1,1378,experiment,60,↑,up,↑,0.7263641000026837,True,28,1
KS-K-21K21S1,1379,experiment,96,↑,up,↑,1.1290087999077514,True,28,1
KS-K-21K21S1,1380,experiment,80,↑,up,↑,0.6086068999720737,True,28,1
KS-K-21K21S1,1381,experiment,65,←,right,→,0.778373199980706,False,28,1
KS-K-21K21S1,1382,experiment,102,↑,up,↑,0.6011379000265151,True,28,1
KS-K-21K21S1,1383,experiment,54,←,right,→,0.6469068999867886,False,28,1
KS-K-21K21S1,1384,experiment,84,↑,up,↑,0.6805679999524727,True,28,1
KS-K-21K21S1,1385,experiment,52,→,right,→,0.5716113999951631,True,28,1
KS-K-21K21S1,1386,experiment,98,↓,up,↑,0.6916411999845877,False,28,1
KS-K-21K21S1,1387,experiment,62,↑,up,↑,0.7150516000110656,True,28,1
KS-K-21K21S1,1388,experiment,90,↓,up,↑,0.7519802000606433,False,28,1
KS-K-21K21S1,1389,experiment,70,←,right,→,0.8101522999349982,False,28,1
KS-K-21K21S1,1390,experiment,79,↓,down,↓,1.2631295999744907,True,28,1
KS-K-21K21S1,1391,experiment,55,↓,up,↑,1.3138969000428915,False,28,1
KS-K-21K21S1,1392,experiment,68,↓,right,→,0.718069100053981,False,28,1
KS-K-21K21S1,1393,experiment,99,↑,up,↑,0.6164780000690371,True,28,1
KS-K-21K21S1,1394,experiment,71,↓,down,↓,0.9835175999905914,True,28,1
KS-K-21K21S1,1395,experiment,66,→,left,←,0.5380997000029311,False,28,1
KS-K-21K21S1,1396,experiment,63,↑,left,←,0.5189052000641823,False,28,1
KS-K-21K21S1,1397,experiment,94,↑,up,↑,1.0745887000812218,True,28,1
KS-K-21K21S1,1398,experiment,58,↑,left,←,0.636144099989906,False,28,1
KS-K-21K21S1,1399,experiment,88,←,no_key,no_letter,-1.0,False,28,1
KS-K-21K21S1,1400,experiment,87,↑,up,↑,0.5474866000004113,True,28,1
KS-K-21K21S1,1401,experiment,89,↑,up,↑,0.5035671000368893,True,28,1
KS-K-21K21S1,1402,experiment,48,↑,up,↑,0.5075279000448063,True,28,1
KS-K-21K21S1,1403,experiment,57,↑,right,→,0.891773600014858,False,28,1
KS-K-21K21S1,1404,experiment,104,↓,no_key,no_letter,-1.0,False,28,1
KS-K-21K21S1,1405,experiment,95,↓,down,↓,0.5287932000355795,True,28,1
KS-K-21K21S1,1406,experiment,50,↑,left,←,1.1626291000284255,False,28,1
KS-K-21K21S1,1407,experiment,101,↑,down,↓,0.7619310000445694,False,28,1
KS-K-21K21S1,1408,experiment,97,↑,up,↑,0.5071218999801204,True,28,1
KS-K-21K21S1,1409,experiment,74,↑,up,↑,0.43781130004208535,True,28,1
KS-K-21K21S1,1410,experiment,67,↓,down,↓,0.6215811000438407,True,28,1
KS-K-21K21S1,1411,experiment,53,→,right,→,0.45860239991452545,True,28,1
KS-K-21K21S1,1412,experiment,91,→,right,→,0.577767499955371,True,28,1
KS-K-21K21S1,1413,experiment,77,↓,down,↓,0.568432500003837,True,28,1
KS-K-21K21S1,1414,experiment,81,↓,down,↓,0.6065668000373989,True,28,1
KS-K-21K21S1,1415,experiment,69,←,left,←,0.5908695000689477,True,28,1
KS-K-21K21S1,1416,experiment,56,↑,up,↑,0.7641988999675959,True,28,1
KS-K-21K21S1,1417,experiment,92,↓,down,↓,1.1428895000135526,True,28,1
KS-K-21K21S1,1418,experiment,61,→,right,→,0.5805455000372604,True,28,1
KS-K-21K21S1,1419,experiment,106,↑,up,↑,0.7453992000082508,True,28,1
KS-K-21K21S1,1420,experiment,85,↓,up,↑,1.6626627000514418,False,28,1
KS-K-21K21S1,1421,experiment,59,←,left,←,0.5040672000031918,True,28,1
KS-K-21K21S1,1422,experiment,64,↑,up,↑,0.966079100035131,True,28,1
KS-K-21K21S1,1423,experiment,78,↓,up,↑,1.837073800037615,False,28,1
KS-K-21K21S1,1424,experiment,108,↓,up,↑,1.0312344999983907,False,28,1
KS-K-21K21S1,1425,experiment,105,←,left,←,0.5223055999958888,True,28,1
KS-K-21K21S1,1426,experiment,86,→,right,→,0.4008316999534145,True,28,1
KS-K-21K21S1,1427,training,70,↑,up,↑,0.5257080999435857,True,28,0
KS-K-21K21S1,1428,training,48,↓,down,↓,1.200438900035806,True,28,1
KS-K-21K21S1,1429,experiment,105,↑,up,↑,0.4689846000401303,True,28,1
KS-K-21K21S1,1430,experiment,108,↓,down,↓,0.6782027999870479,True,28,1
KS-K-21K21S1,1431,experiment,94,←,no_key,no_letter,-1.0,False,28,1
KS-K-21K21S1,1432,experiment,98,↑,up,↑,0.5498452000319958,True,28,1
KS-K-21K21S1,1433,experiment,59,↑,up,↑,0.35882500000298023,True,28,1
KS-K-21K21S1,1434,experiment,81,←,left,←,0.35888359998352826,True,28,0
KS-K-21K21S1,1435,experiment,102,↑,up,↑,0.5612447999883443,True,28,0
KS-K-21K21S1,1436,experiment,68,→,left,←,0.4838370999787003,False,28,1
KS-K-21K21S1,1437,experiment,71,↓,down,↓,0.4887867000652477,True,28,1
KS-K-21K21S1,1438,experiment,79,↑,up,↑,0.5864174999296665,True,28,1
KS-K-21K21S1,1439,experiment,89,↑,up,↑,0.5890912000322714,True,28,1
KS-K-21K21S1,1440,experiment,55,↓,up,↑,0.507000399986282,False,28,1
KS-K-21K21S1,1441,experiment,66,←,left,←,0.6084330000448972,True,28,1
KS-K-21K21S1,1442,experiment,73,←,left,←,0.575512700015679,True,28,1
KS-K-21K21S1,1443,experiment,57,↓,down,↓,0.46916560002136976,True,28,1
KS-K-21K21S1,1444,experiment,97,→,right,→,0.8660446999128908,True,28,1
KS-K-21K21S1,1445,experiment,76,↑,up,↑,0.7815679999766871,True,28,1
KS-K-21K21S1,1446,experiment,53,→,right,→,0.5963612999767065,True,28,1
