PART_ID,Trial_no,Trial_type,CSI,Stim_letter,Key_pressed,letter_choose,Rt,Corr,Stimulus Time,nDropped
LZ-K-20K20S2,1,training,120,↑,up,↑,0.795215800171718,True,60,0
LZ-K-20K20S2,2,training,120,↑,up,↑,0.5758809000253677,True,60,0
LZ-K-20K20S2,3,training,120,→,right,→,0.6258107000030577,True,60,0
LZ-K-20K20S2,4,training,120,↓,down,↓,1.1600653999485075,True,60,0
LZ-K-20K20S2,5,training,120,→,right,→,0.4684458998963237,True,60,0
LZ-K-20K20S2,6,training,120,↑,up,↑,0.5996580999344587,True,60,0
LZ-K-20K20S2,7,training,120,→,right,→,0.5425762999802828,True,60,0
LZ-K-20K20S2,8,training,120,←,left,←,0.7000651999842376,True,60,0
LZ-K-20K20S2,9,training,120,←,left,←,0.6088479000609368,True,60,0
LZ-K-20K20S2,10,training,120,→,no_key,no_letter,-1.0,False,60,0
LZ-K-20K20S2,11,training,120,←,left,←,0.5925100999884307,True,60,0
LZ-K-20K20S2,12,training,120,↑,up,↑,0.6505878998432308,True,60,0
LZ-K-20K20S2,13,training,120,↓,down,↓,0.7857816000469029,True,60,0
LZ-K-20K20S2,14,training,120,↓,down,↓,0.6424372000619769,True,60,0
LZ-K-20K20S2,15,training,120,↑,up,↑,0.7264318999368697,True,60,0
LZ-K-20K20S2,16,training,120,↓,down,↓,1.6004427000880241,True,60,0
LZ-K-20K20S2,17,training,120,↓,down,↓,0.7438052000943571,True,60,0
LZ-K-20K20S2,18,training,120,←,left,←,0.7291264999657869,True,60,0
LZ-K-20K20S2,19,training,120,→,right,→,0.7394613998476416,True,60,0
LZ-K-20K20S2,20,training,120,↓,down,↓,0.9965017000213265,True,60,0
LZ-K-20K20S2,21,no_adaptation,120,→,right,→,0.548220100114122,True,36,0
LZ-K-20K20S2,22,no_adaptation,120,→,right,→,0.5574845999944955,True,36,0
LZ-K-20K20S2,23,no_adaptation,120,→,right,→,0.5023866000119597,True,36,0
LZ-K-20K20S2,24,no_adaptation,120,↓,down,↓,0.608995399903506,True,36,0
LZ-K-20K20S2,25,no_adaptation,120,↓,down,↓,0.6958551001735032,True,36,0
LZ-K-20K20S2,26,no_adaptation,120,→,right,→,0.46794220013543963,True,36,0
LZ-K-20K20S2,27,no_adaptation,120,↓,down,↓,0.583219800144434,True,36,0
LZ-K-20K20S2,28,no_adaptation,120,↓,down,↓,0.5910920000169426,True,36,0
LZ-K-20K20S2,29,no_adaptation,120,→,right,→,0.54265660000965,True,36,0
LZ-K-20K20S2,30,no_adaptation,120,←,left,←,0.6962220000568777,True,36,0
LZ-K-20K20S2,31,no_adaptation,120,↑,up,↑,0.6115494999103248,True,36,0
LZ-K-20K20S2,32,no_adaptation,120,→,right,→,0.6819002998527139,True,36,0
LZ-K-20K20S2,33,no_adaptation,120,→,right,→,0.49374750000424683,True,36,0
LZ-K-20K20S2,34,no_adaptation,120,↑,up,↑,0.6010563999880105,True,36,0
LZ-K-20K20S2,35,no_adaptation,120,↑,up,↑,0.5520806000567973,True,36,0
LZ-K-20K20S2,36,no_adaptation,120,↑,up,↑,0.5371375000104308,True,36,0
LZ-K-20K20S2,37,no_adaptation,120,↑,up,↑,0.48303060000762343,True,36,0
LZ-K-20K20S2,38,no_adaptation,120,↑,up,↑,0.5261866999790072,True,36,0
LZ-K-20K20S2,39,no_adaptation,120,←,left,←,0.6082568999845535,True,36,0
LZ-K-20K20S2,40,no_adaptation,120,→,right,→,0.5351476999931037,True,36,0
LZ-K-20K20S2,41,training,72,→,right,→,0.6269962000660598,True,36,0
LZ-K-20K20S2,42,training,52,←,left,←,0.5922224998939782,True,36,1
LZ-K-20K20S2,43,experiment,76,→,right,→,0.3677395998965949,True,36,1
LZ-K-20K20S2,44,experiment,83,←,left,←,0.6361362000461668,True,36,0
LZ-K-20K20S2,45,experiment,107,↑,up,↑,0.4506750002037734,True,36,1
LZ-K-20K20S2,46,experiment,71,←,left,←,0.6524834998417646,True,36,0
LZ-K-20K20S2,47,experiment,95,→,right,→,0.43394419993273914,True,36,1
LZ-K-20K20S2,48,experiment,96,→,right,→,0.608703900128603,True,36,0
LZ-K-20K20S2,49,experiment,101,→,right,→,0.5104079998563975,True,36,1
LZ-K-20K20S2,50,experiment,79,↑,up,↑,0.5193877001293004,True,36,1
LZ-K-20K20S2,51,experiment,81,↑,up,↑,0.3923999001272023,True,36,1
LZ-K-20K20S2,52,experiment,86,↓,down,↓,0.5304233999922872,True,36,0
LZ-K-20K20S2,53,experiment,103,↓,down,↓,0.6825213998090476,True,36,1
LZ-K-20K20S2,54,experiment,108,↓,down,↓,0.6188670999836177,True,36,1
LZ-K-20K20S2,55,experiment,99,←,left,←,0.5208815999794751,True,36,1
LZ-K-20K20S2,56,experiment,60,↓,down,↓,0.6158131000120193,True,36,1
LZ-K-20K20S2,57,experiment,74,↓,down,↓,0.4866165998391807,True,36,1
LZ-K-20K20S2,58,experiment,54,←,left,←,0.616062100045383,True,36,1
LZ-K-20K20S2,59,experiment,66,↓,down,↓,0.6411682998295873,True,36,1
LZ-K-20K20S2,60,experiment,94,↓,down,↓,0.5599547000601888,True,36,1
LZ-K-20K20S2,61,experiment,58,↓,down,↓,0.542155500035733,True,36,1
LZ-K-20K20S2,62,experiment,82,↓,down,↓,0.516941900132224,True,36,1
LZ-K-20K20S2,63,experiment,51,↑,up,↑,0.5748016000725329,True,36,1
LZ-K-20K20S2,64,experiment,92,↑,up,↑,0.552814400056377,True,36,1
LZ-K-20K20S2,65,experiment,97,↑,up,↑,0.6663428000174463,True,36,1
LZ-K-20K20S2,66,experiment,62,←,left,←,0.5468062998261303,True,36,1
LZ-K-20K20S2,67,experiment,84,↑,up,↑,0.47320470004342496,True,36,1
LZ-K-20K20S2,68,experiment,65,→,right,→,0.6473972999956459,True,36,1
LZ-K-20K20S2,69,experiment,102,↓,down,↓,0.6031158999539912,True,36,1
LZ-K-20K20S2,70,experiment,50,←,left,←,0.5143242999911308,True,36,1
LZ-K-20K20S2,71,experiment,105,←,left,←,0.8262547999620438,True,36,1
LZ-K-20K20S2,72,experiment,90,→,right,→,0.4678389998152852,True,36,1
LZ-K-20K20S2,73,experiment,69,↑,up,↑,0.42564440006390214,True,36,0
LZ-K-20K20S2,74,experiment,87,←,left,←,0.442986800102517,True,36,0
LZ-K-20K20S2,75,experiment,75,↑,up,↑,0.6065213000401855,True,36,0
LZ-K-20K20S2,76,experiment,52,↑,up,↑,0.5646061999723315,True,36,1
LZ-K-20K20S2,77,experiment,80,↑,up,↑,0.40073870006017387,True,36,1
LZ-K-20K20S2,78,experiment,64,↑,up,↑,0.5251475998666137,True,36,0
LZ-K-20K20S2,79,experiment,63,↑,up,↑,0.3747902999166399,True,36,1
LZ-K-20K20S2,80,experiment,100,←,left,←,0.5699538998305798,True,36,0
LZ-K-20K20S2,81,experiment,91,↑,up,↑,0.4694179000798613,True,36,1
LZ-K-20K20S2,82,experiment,49,←,left,←,0.4098766001407057,True,36,0
LZ-K-20K20S2,83,experiment,78,↑,up,↑,0.5180198000743985,True,36,0
LZ-K-20K20S2,84,experiment,55,→,right,→,0.45049249986186624,True,36,1
LZ-K-20K20S2,85,experiment,70,↑,up,↑,0.48477680003270507,True,36,0
LZ-K-20K20S2,86,experiment,56,→,right,→,0.582433900097385,True,36,1
LZ-K-20K20S2,87,experiment,77,→,right,→,1.237308399984613,True,36,1
LZ-K-20K20S2,88,experiment,104,↑,up,↑,0.6246521999128163,True,36,1
LZ-K-20K20S2,89,experiment,61,↓,down,↓,0.6987523001153022,True,36,1
LZ-K-20K20S2,90,experiment,67,↑,up,↑,0.48841600003652275,True,36,1
LZ-K-20K20S2,91,experiment,93,↓,down,↓,0.469964399933815,True,36,1
LZ-K-20K20S2,92,experiment,89,↓,down,↓,0.5084544999990612,True,36,0
LZ-K-20K20S2,93,experiment,88,→,right,→,0.48307049996219575,True,36,1
LZ-K-20K20S2,94,experiment,53,↓,down,↓,0.5732520001474768,True,36,1
LZ-K-20K20S2,95,experiment,68,→,right,→,0.559283500071615,True,36,1
LZ-K-20K20S2,96,experiment,106,←,left,←,0.6379811000078917,True,36,1
LZ-K-20K20S2,97,experiment,59,←,left,←,0.48813870013691485,True,36,1
LZ-K-20K20S2,98,experiment,98,↓,down,↓,0.6992940998170525,True,36,1
LZ-K-20K20S2,99,experiment,72,↓,down,↓,0.6232139999046922,True,36,1
LZ-K-20K20S2,100,experiment,73,→,right,→,0.5817430999595672,True,36,1
LZ-K-20K20S2,101,experiment,48,↓,down,↓,0.4862559998873621,True,36,1
LZ-K-20K20S2,102,experiment,57,→,right,→,0.479675600072369,True,36,1
LZ-K-20K20S2,103,experiment,85,↓,down,↓,0.6157243999186903,True,36,1
LZ-K-20K20S2,104,training,98,←,left,←,0.6092713999096304,True,35,0
LZ-K-20K20S2,105,training,85,→,right,→,0.5961517000105232,True,35,1
LZ-K-20K20S2,106,experiment,49,←,left,←,0.6675925999879837,True,35,1
LZ-K-20K20S2,107,experiment,81,←,left,←,0.4700751001946628,True,35,1
LZ-K-20K20S2,108,experiment,97,↑,up,↑,0.4267990000080317,True,35,1
LZ-K-20K20S2,109,experiment,56,→,right,→,0.4422495998442173,True,35,0
LZ-K-20K20S2,110,experiment,84,←,left,←,0.4790198002010584,True,35,0
LZ-K-20K20S2,111,experiment,71,←,left,←,0.5884205000475049,True,35,1
LZ-K-20K20S2,112,experiment,53,→,right,→,0.5629208998288959,True,35,1
LZ-K-20K20S2,113,experiment,74,←,left,←,0.5311871999874711,True,35,1
LZ-K-20K20S2,114,experiment,101,↑,up,↑,0.5318189999088645,True,35,1
LZ-K-20K20S2,115,experiment,65,↓,down,↓,0.536749699851498,True,35,1
LZ-K-20K20S2,116,experiment,96,←,left,←,0.9308021999895573,True,35,1
LZ-K-20K20S2,117,experiment,58,→,right,→,0.46655289991758764,True,35,1
LZ-K-20K20S2,118,experiment,69,→,right,→,0.6562367000151426,True,35,1
LZ-K-20K20S2,119,experiment,60,←,left,←,0.6174608999863267,True,35,1
LZ-K-20K20S2,120,experiment,50,←,left,←,0.6238293000496924,True,35,1
LZ-K-20K20S2,121,experiment,86,↓,down,↓,0.6898696999996901,True,35,1
LZ-K-20K20S2,122,experiment,70,←,left,←,0.5026698000729084,True,35,1
LZ-K-20K20S2,123,experiment,63,→,right,→,0.557358100079,True,35,1
LZ-K-20K20S2,124,experiment,66,↑,up,↑,0.5527888999786228,True,35,1
LZ-K-20K20S2,125,experiment,51,↓,down,↓,0.529791499953717,True,35,1
LZ-K-20K20S2,126,experiment,57,←,left,←,0.43417910020798445,True,35,1
LZ-K-20K20S2,127,experiment,80,→,right,→,0.660429400159046,True,35,0
LZ-K-20K20S2,128,experiment,48,↑,up,↑,0.6018145999405533,True,35,1
LZ-K-20K20S2,129,experiment,98,←,left,←,1.216851499862969,True,35,1
LZ-K-20K20S2,130,experiment,61,↑,up,↑,1.235476000001654,True,35,1
LZ-K-20K20S2,131,experiment,92,↓,down,↓,0.7150495001114905,True,35,1
LZ-K-20K20S2,132,experiment,107,↑,up,↑,0.4174299000296742,True,35,1
LZ-K-20K20S2,133,experiment,108,←,left,←,0.6052139000967145,True,35,0
LZ-K-20K20S2,134,experiment,106,←,left,←,0.5932740001007915,True,35,1
LZ-K-20K20S2,135,experiment,68,↑,up,↑,0.5548719998914748,True,35,1
LZ-K-20K20S2,136,experiment,105,↓,down,↓,0.6814666998106986,True,35,1
LZ-K-20K20S2,137,experiment,77,←,left,←,0.5396636999212205,True,35,1
LZ-K-20K20S2,138,experiment,95,↓,down,↓,0.6380379002075642,True,35,1
LZ-K-20K20S2,139,experiment,79,↑,up,↑,0.5697369000408798,True,35,1
LZ-K-20K20S2,140,experiment,100,↑,up,↑,0.4740823998581618,True,35,1
LZ-K-20K20S2,141,experiment,62,→,right,→,0.5540263999719173,True,35,1
LZ-K-20K20S2,142,experiment,55,→,right,→,1.2568781001027673,True,35,1
LZ-K-20K20S2,143,experiment,52,↓,down,↓,0.5249652999918908,True,35,1
LZ-K-20K20S2,144,experiment,85,↑,up,↑,0.5314267000649124,True,35,1
LZ-K-20K20S2,145,experiment,76,↓,down,↓,0.5327250000555068,True,35,1
LZ-K-20K20S2,146,experiment,91,↓,down,↓,0.49675459996797144,True,35,1
LZ-K-20K20S2,147,experiment,54,↓,down,↓,1.378240399993956,True,35,1
LZ-K-20K20S2,148,experiment,83,→,right,→,0.5752852999139577,True,35,1
LZ-K-20K20S2,149,experiment,59,→,right,→,0.660304400138557,True,35,1
LZ-K-20K20S2,150,experiment,87,←,left,←,0.5007855999283493,True,35,1
LZ-K-20K20S2,151,experiment,67,→,right,→,0.46661009988747537,True,35,1
LZ-K-20K20S2,152,experiment,99,→,right,→,0.47072020010091364,True,35,1
LZ-K-20K20S2,153,experiment,64,←,left,←,0.7254790000151843,True,35,1
LZ-K-20K20S2,154,experiment,93,↑,up,↑,0.6094953999854624,True,35,1
LZ-K-20K20S2,155,experiment,94,←,left,←,0.6095242002047598,True,35,1
LZ-K-20K20S2,156,experiment,82,→,right,→,0.46967780007980764,True,35,1
LZ-K-20K20S2,157,experiment,102,↓,down,↓,0.7282497000414878,True,35,1
LZ-K-20K20S2,158,experiment,75,↑,up,↑,0.48183250008150935,True,35,1
LZ-K-20K20S2,159,experiment,72,↓,down,↓,0.6461840001866221,True,35,1
LZ-K-20K20S2,160,experiment,104,↓,down,↓,0.5295682998839766,True,35,1
LZ-K-20K20S2,161,experiment,103,↑,up,↑,1.1775263999588788,True,35,1
LZ-K-20K20S2,162,experiment,73,←,left,←,0.5061852000653744,True,35,1
LZ-K-20K20S2,163,experiment,78,↑,up,↑,0.5552950999699533,True,35,1
LZ-K-20K20S2,164,experiment,88,↓,down,↓,0.7594151000957936,True,35,1
LZ-K-20K20S2,165,experiment,89,↓,down,↓,0.6430166999343783,True,35,1
LZ-K-20K20S2,166,experiment,90,←,left,←,0.6193375000730157,True,35,1
LZ-K-20K20S2,167,training,90,←,left,←,0.6290784999728203,True,34,0
LZ-K-20K20S2,168,training,95,←,left,←,0.5082501000724733,True,34,1
LZ-K-20K20S2,169,experiment,64,↑,up,↑,0.45093239983543754,True,34,1
LZ-K-20K20S2,170,experiment,106,→,right,→,0.6121479999274015,True,34,0
LZ-K-20K20S2,171,experiment,82,←,left,←,0.6646505000535399,True,34,1
LZ-K-20K20S2,172,experiment,58,←,left,←,0.4002708999905735,True,34,1
LZ-K-20K20S2,173,experiment,78,↓,down,↓,0.575363399926573,True,34,0
LZ-K-20K20S2,174,experiment,99,→,right,→,0.7271340999286622,True,34,1
LZ-K-20K20S2,175,experiment,101,←,left,←,0.42559770005755126,True,34,1
LZ-K-20K20S2,176,experiment,66,←,left,←,0.560827599838376,True,34,0
LZ-K-20K20S2,177,experiment,108,←,left,←,0.518003299832344,True,34,1
LZ-K-20K20S2,178,experiment,68,←,left,←,0.5141480001620948,True,34,1
LZ-K-20K20S2,179,experiment,69,↑,up,↑,0.502335200086236,True,34,1
LZ-K-20K20S2,180,experiment,59,→,right,→,0.5190996997989714,True,34,1
LZ-K-20K20S2,181,experiment,70,↓,down,↓,0.7300931999925524,True,34,1
LZ-K-20K20S2,182,experiment,65,→,right,→,0.5508787001017481,True,34,1
LZ-K-20K20S2,183,experiment,85,↑,up,↑,0.43415419990196824,True,34,1
LZ-K-20K20S2,184,experiment,84,→,right,→,0.558750000083819,True,34,0
LZ-K-20K20S2,185,experiment,48,↑,up,↑,0.49591789999976754,True,34,1
LZ-K-20K20S2,186,experiment,57,←,left,←,0.4340863001998514,True,34,1
LZ-K-20K20S2,187,experiment,77,↓,down,↓,0.5731293999124318,True,34,0
LZ-K-20K20S2,188,experiment,62,→,right,→,0.5771786000113934,True,34,1
LZ-K-20K20S2,189,experiment,102,↓,down,↓,0.6958115000743419,True,34,1
LZ-K-20K20S2,190,experiment,52,↑,up,↑,0.5541434998158365,True,34,1
LZ-K-20K20S2,191,experiment,55,↓,down,↓,0.6571347999852151,True,34,1
LZ-K-20K20S2,192,experiment,71,→,right,→,0.6627362000290304,True,34,1
LZ-K-20K20S2,193,experiment,88,↑,up,↑,0.4259305000305176,True,34,1
LZ-K-20K20S2,194,experiment,76,←,left,←,0.4843440998811275,True,34,0
LZ-K-20K20S2,195,experiment,75,↑,up,↑,0.7351272001396865,True,34,1
LZ-K-20K20S2,196,experiment,56,↑,up,↑,0.6069846001919359,True,34,1
LZ-K-20K20S2,197,experiment,91,→,right,→,0.5041521000675857,True,34,1
LZ-K-20K20S2,198,experiment,81,→,right,→,0.4805509001016617,True,34,1
LZ-K-20K20S2,199,experiment,54,→,right,→,0.4089775001630187,True,34,1
LZ-K-20K20S2,200,experiment,49,←,left,←,0.8420645999722183,True,34,0
LZ-K-20K20S2,201,experiment,53,↑,up,↑,0.5182586000300944,True,34,1
LZ-K-20K20S2,202,experiment,105,→,right,→,0.5503252001944929,True,34,1
LZ-K-20K20S2,203,experiment,67,→,right,→,0.6334621999412775,True,34,1
LZ-K-20K20S2,204,experiment,100,→,right,→,0.47089180001057684,True,34,1
LZ-K-20K20S2,205,experiment,72,→,right,→,0.5078204998280853,True,34,1
LZ-K-20K20S2,206,experiment,97,↓,down,↓,0.9270378998480737,True,34,1
LZ-K-20K20S2,207,experiment,63,←,right,→,0.47673430014401674,False,34,1
LZ-K-20K20S2,208,experiment,89,←,left,←,0.5717551000416279,True,34,1
LZ-K-20K20S2,209,experiment,94,↓,down,↓,0.6766813998110592,True,34,1
LZ-K-20K20S2,210,experiment,90,↓,down,↓,0.5397061000112444,True,34,1
LZ-K-20K20S2,211,experiment,74,↓,down,↓,0.6131056000012904,True,34,1
LZ-K-20K20S2,212,experiment,92,←,left,←,0.41759710013866425,True,34,1
LZ-K-20K20S2,213,experiment,73,←,left,←,0.4092325000092387,True,34,0
LZ-K-20K20S2,214,experiment,60,→,right,→,0.6951838999520987,True,34,0
LZ-K-20K20S2,215,experiment,103,↓,down,↓,0.5127451999578625,True,34,1
LZ-K-20K20S2,216,experiment,86,↓,down,↓,0.5913909000810236,True,34,1
LZ-K-20K20S2,217,experiment,104,→,right,→,0.6367371000815183,True,34,1
LZ-K-20K20S2,218,experiment,83,←,left,←,0.6076009999960661,True,34,1
LZ-K-20K20S2,219,experiment,51,→,right,→,0.7099125001113862,True,34,1
LZ-K-20K20S2,220,experiment,80,→,right,→,0.5270140999928117,True,34,1
LZ-K-20K20S2,221,experiment,50,↓,down,↓,0.6491875001229346,True,34,1
LZ-K-20K20S2,222,experiment,79,←,left,←,0.6041584999766201,True,34,1
LZ-K-20K20S2,223,experiment,87,←,left,←,0.40886500012129545,True,34,1
LZ-K-20K20S2,224,experiment,61,→,right,→,0.6742899999953806,True,34,0
LZ-K-20K20S2,225,experiment,96,→,right,→,0.638533600140363,True,34,1
LZ-K-20K20S2,226,experiment,95,↓,down,↓,0.6687544998712838,True,34,1
LZ-K-20K20S2,227,experiment,107,←,left,←,0.5819832000415772,True,34,1
LZ-K-20K20S2,228,experiment,93,←,left,←,0.4956169000361115,True,34,1
LZ-K-20K20S2,229,experiment,98,→,right,→,0.5469855000264943,True,34,1
LZ-K-20K20S2,230,training,78,←,left,←,0.6584177000913769,True,33,0
LZ-K-20K20S2,231,training,83,↓,down,↓,0.5719464998692274,True,33,1
LZ-K-20K20S2,232,experiment,92,↓,down,↓,0.7018820000812411,True,33,1
LZ-K-20K20S2,233,experiment,60,→,right,→,0.47792920004576445,True,33,1
LZ-K-20K20S2,234,experiment,76,←,left,←,1.3770011998713017,True,33,1
LZ-K-20K20S2,235,experiment,107,↓,down,↓,0.7182535000611097,True,33,1
LZ-K-20K20S2,236,experiment,50,↑,up,↑,0.7842431000899523,True,33,1
LZ-K-20K20S2,237,experiment,94,→,right,→,0.45789459999650717,True,33,1
LZ-K-20K20S2,238,experiment,103,↑,up,↑,0.5404821999836713,True,33,1
LZ-K-20K20S2,239,experiment,83,←,left,←,0.5068893001880497,True,33,1
LZ-K-20K20S2,240,experiment,80,→,right,→,0.6034852999728173,True,33,1
LZ-K-20K20S2,241,experiment,93,↓,down,↓,0.7243043000344187,True,33,1
LZ-K-20K20S2,242,experiment,108,↑,up,↑,0.651324599981308,True,33,1
LZ-K-20K20S2,243,experiment,79,→,right,→,0.47065460006706417,True,33,1
LZ-K-20K20S2,244,experiment,72,↑,up,↑,0.5390544000547379,True,33,1
LZ-K-20K20S2,245,experiment,54,←,left,←,0.5712168999016285,True,33,1
LZ-K-20K20S2,246,experiment,61,↑,up,↑,0.41681169997900724,True,33,1
LZ-K-20K20S2,247,experiment,97,→,right,→,1.1179500001017004,True,33,0
LZ-K-20K20S2,248,experiment,67,↑,up,↑,0.5469023999758065,True,33,1
LZ-K-20K20S2,249,experiment,101,←,left,←,0.5706219999119639,True,33,1
LZ-K-20K20S2,250,experiment,71,←,left,←,0.6122326999902725,True,33,1
LZ-K-20K20S2,251,experiment,82,↓,down,↓,0.6079727001488209,True,33,1
LZ-K-20K20S2,252,experiment,65,←,left,←,0.5779508999548852,True,33,1
LZ-K-20K20S2,253,experiment,58,↑,up,↑,1.0713199998717755,True,33,1
LZ-K-20K20S2,254,experiment,98,→,right,→,0.4433842001017183,True,33,1
LZ-K-20K20S2,255,experiment,49,→,right,→,1.0892015998251736,True,33,0
LZ-K-20K20S2,256,experiment,57,→,right,→,0.449964800151065,True,33,1
LZ-K-20K20S2,257,experiment,64,↓,down,↓,0.6022260999307036,True,33,0
LZ-K-20K20S2,258,experiment,53,←,left,←,0.4488051999360323,True,33,1
LZ-K-20K20S2,259,experiment,87,↓,down,↓,0.6169418999925256,True,33,1
LZ-K-20K20S2,260,experiment,85,↑,up,↑,0.4524910000618547,True,33,1
LZ-K-20K20S2,261,experiment,68,←,left,←,0.5780895999632776,True,33,1
LZ-K-20K20S2,262,experiment,63,↑,up,↑,0.5340240998193622,True,33,1
LZ-K-20K20S2,263,experiment,51,↓,down,↓,0.4796360998880118,True,33,1
LZ-K-20K20S2,264,experiment,70,↓,down,↓,0.5408089999109507,True,33,1
LZ-K-20K20S2,265,experiment,75,↑,up,↑,0.40060499985702336,True,33,1
LZ-K-20K20S2,266,experiment,74,↓,down,↓,0.4847951999399811,True,33,0
LZ-K-20K20S2,267,experiment,56,↓,down,↓,0.6784050001297146,True,33,1
LZ-K-20K20S2,268,experiment,77,↑,up,↑,0.5134548000060022,True,33,1
LZ-K-20K20S2,269,experiment,86,←,left,←,0.5201615998521447,True,33,1
LZ-K-20K20S2,270,experiment,59,→,right,→,0.4552839999087155,True,33,1
LZ-K-20K20S2,271,experiment,48,↑,up,↑,0.45350099983625114,True,33,1
LZ-K-20K20S2,272,experiment,95,↑,up,↑,0.5067330999299884,True,33,1
LZ-K-20K20S2,273,experiment,104,↑,up,↑,0.367393699940294,True,33,1
LZ-K-20K20S2,274,experiment,105,↑,up,↑,0.49731489992700517,True,33,0
LZ-K-20K20S2,275,experiment,69,←,left,←,0.630194199969992,True,33,1
LZ-K-20K20S2,276,experiment,73,↑,up,↑,1.108391399960965,True,33,1
LZ-K-20K20S2,277,experiment,106,↑,up,↑,0.4840041999705136,True,33,1
LZ-K-20K20S2,278,experiment,90,→,right,→,0.47434319998137653,True,33,1
LZ-K-20K20S2,279,experiment,96,→,right,→,0.5510510001331568,True,33,1
LZ-K-20K20S2,280,experiment,100,↑,up,↑,0.5675177001394331,True,33,1
LZ-K-20K20S2,281,experiment,78,←,left,←,0.5264398998115212,True,33,1
LZ-K-20K20S2,282,experiment,66,←,left,←,1.1071198000572622,True,33,1
LZ-K-20K20S2,283,experiment,99,←,left,←,0.6938012999016792,True,33,1
LZ-K-20K20S2,284,experiment,62,→,right,→,0.5733706001192331,True,33,1
LZ-K-20K20S2,285,experiment,55,←,left,←,0.5953169998247176,True,33,1
LZ-K-20K20S2,286,experiment,91,←,left,←,0.5012114001438022,True,33,1
LZ-K-20K20S2,287,experiment,102,↓,down,↓,0.8708008998073637,True,33,1
LZ-K-20K20S2,288,experiment,88,→,right,→,0.5981355998665094,True,33,1
LZ-K-20K20S2,289,experiment,84,↑,up,↑,0.5220441999845207,True,33,1
LZ-K-20K20S2,290,experiment,52,→,right,→,0.5312498998828232,True,33,1
LZ-K-20K20S2,291,experiment,81,←,left,←,0.7067858001682907,True,33,1
LZ-K-20K20S2,292,experiment,89,←,left,←,0.6483815999235958,True,33,1
LZ-K-20K20S2,293,training,61,↑,up,↑,0.5586880999617279,True,32,0
LZ-K-20K20S2,294,training,66,←,left,←,0.46609610016457736,True,32,1
LZ-K-20K20S2,295,experiment,60,←,left,←,0.44350349996238947,True,32,1
LZ-K-20K20S2,296,experiment,104,↑,up,↑,0.4007331000175327,True,32,1
LZ-K-20K20S2,297,experiment,52,↓,down,↓,0.5321138000581414,True,32,0
LZ-K-20K20S2,298,experiment,55,←,left,←,0.4005785998888314,True,32,1
LZ-K-20K20S2,299,experiment,90,↓,down,↓,0.6619855999015272,True,32,0
LZ-K-20K20S2,300,experiment,99,←,left,←,0.45814920007251203,True,32,1
LZ-K-20K20S2,301,experiment,102,↑,up,↑,0.3754604000132531,True,32,1
LZ-K-20K20S2,302,experiment,71,↑,up,↑,0.5102317000273615,True,32,0
LZ-K-20K20S2,303,experiment,48,↓,down,↓,0.7217072998173535,True,32,1
LZ-K-20K20S2,304,experiment,82,←,left,←,0.3923770999535918,True,32,1
LZ-K-20K20S2,305,experiment,65,←,left,←,1.0272465001326054,True,32,0
LZ-K-20K20S2,306,experiment,53,→,right,→,0.48079929989762604,True,32,1
LZ-K-20K20S2,307,experiment,100,→,right,→,0.49113449989818037,True,32,1
LZ-K-20K20S2,308,experiment,107,→,right,→,0.40913179982453585,True,32,1
LZ-K-20K20S2,309,experiment,72,←,left,←,0.6428580000065267,True,32,0
LZ-K-20K20S2,310,experiment,63,←,left,←,0.5078835999593139,True,32,1
LZ-K-20K20S2,311,experiment,73,↑,up,↑,0.5188235999085009,True,32,1
LZ-K-20K20S2,312,experiment,84,←,left,←,0.5419010000769049,True,32,1
LZ-K-20K20S2,313,experiment,49,↓,down,↓,0.5996179999783635,True,32,1
LZ-K-20K20S2,314,experiment,92,↓,down,↓,0.680556699866429,True,32,1
LZ-K-20K20S2,315,experiment,59,→,right,→,0.48946040007285774,True,32,1
LZ-K-20K20S2,316,experiment,50,→,right,→,1.092736099846661,True,32,1
LZ-K-20K20S2,317,experiment,56,→,right,→,0.3928622000385076,True,32,1
LZ-K-20K20S2,318,experiment,93,←,left,←,0.47899929992854595,True,32,0
LZ-K-20K20S2,319,experiment,103,↑,up,↑,0.5851449999026954,True,32,1
LZ-K-20K20S2,320,experiment,79,→,right,→,0.4790335001889616,True,32,1
LZ-K-20K20S2,321,experiment,58,→,right,→,0.5766269001178443,True,32,1
LZ-K-20K20S2,322,experiment,75,←,left,←,0.6242778999730945,True,32,1
LZ-K-20K20S2,323,experiment,86,↑,up,↑,0.5381831999402493,True,32,1
LZ-K-20K20S2,324,experiment,91,→,right,→,0.4699038998223841,True,32,1
LZ-K-20K20S2,325,experiment,70,→,right,→,0.49192310008220375,True,32,1
LZ-K-20K20S2,326,experiment,68,↑,up,↑,0.46530760009773076,True,32,1
LZ-K-20K20S2,327,experiment,66,←,left,←,0.6484743000473827,True,32,1
LZ-K-20K20S2,328,experiment,97,→,right,→,0.637614700011909,True,32,1
LZ-K-20K20S2,329,experiment,57,↓,down,↓,0.7927300999872386,True,32,1
LZ-K-20K20S2,330,experiment,83,↓,down,↓,0.5090495001059026,True,32,1
LZ-K-20K20S2,331,experiment,81,↓,down,↓,0.5016258999239653,True,32,1
LZ-K-20K20S2,332,experiment,108,↓,down,↓,0.5813798999879509,True,32,1
LZ-K-20K20S2,333,experiment,76,→,right,→,0.5321836001239717,True,32,1
LZ-K-20K20S2,334,experiment,74,↑,up,↑,0.44598830002360046,True,32,1
LZ-K-20K20S2,335,experiment,80,→,right,→,0.457403700100258,True,32,1
LZ-K-20K20S2,336,experiment,87,↓,down,↓,0.7134657001588494,True,32,1
LZ-K-20K20S2,337,experiment,61,→,right,→,0.480384900001809,True,32,1
LZ-K-20K20S2,338,experiment,98,↑,up,↑,1.1557801999151707,True,32,1
LZ-K-20K20S2,339,experiment,101,←,left,←,0.4440517998300493,True,32,1
LZ-K-20K20S2,340,experiment,69,↓,down,↓,0.7224501001182944,True,32,1
LZ-K-20K20S2,341,experiment,77,↓,down,↓,0.5313077999744564,True,32,1
LZ-K-20K20S2,342,experiment,89,←,left,←,0.38526919996365905,True,32,1
LZ-K-20K20S2,343,experiment,62,→,right,→,0.4994214999023825,True,32,0
LZ-K-20K20S2,344,experiment,105,←,left,←,0.6037453999742866,True,32,1
LZ-K-20K20S2,345,experiment,67,↑,up,↑,0.6768801999278367,True,32,1
LZ-K-20K20S2,346,experiment,94,←,left,←,0.554344299947843,True,32,1
LZ-K-20K20S2,347,experiment,64,→,right,→,0.5746322998311371,True,32,1
LZ-K-20K20S2,348,experiment,85,→,right,→,0.658694599987939,True,32,1
LZ-K-20K20S2,349,experiment,96,↑,up,↑,0.6480303001590073,True,32,1
LZ-K-20K20S2,350,experiment,106,↓,down,↓,0.8426109999418259,True,32,1
LZ-K-20K20S2,351,experiment,54,→,right,→,0.47893580002710223,True,32,1
LZ-K-20K20S2,352,experiment,95,↑,up,↑,0.4519778999965638,True,32,1
LZ-K-20K20S2,353,experiment,51,↑,up,↑,0.44095130008645356,True,32,1
LZ-K-20K20S2,354,experiment,78,↑,up,↑,0.6449231000151485,True,32,0
LZ-K-20K20S2,355,experiment,88,↓,down,↓,0.7336446999106556,True,32,1
LZ-K-20K20S2,356,training,105,←,left,←,0.6263568000867963,True,31,0
LZ-K-20K20S2,357,training,107,↓,down,↓,0.5098518000449985,True,31,1
LZ-K-20K20S2,358,experiment,51,↓,down,↓,0.7199130000080913,True,31,1
LZ-K-20K20S2,359,experiment,73,←,left,←,0.6664972000289708,True,31,1
LZ-K-20K20S2,360,experiment,57,↓,down,↓,0.5485755000263453,True,31,1
LZ-K-20K20S2,361,experiment,99,←,left,←,0.43774689990095794,True,31,1
LZ-K-20K20S2,362,experiment,83,←,left,←,0.615878599928692,True,31,1
LZ-K-20K20S2,363,experiment,101,↑,up,↑,0.5811685998924077,True,31,1
LZ-K-20K20S2,364,experiment,71,↓,down,↓,0.661789100151509,True,31,1
LZ-K-20K20S2,365,experiment,49,↓,down,↓,0.5228784999344498,True,31,1
LZ-K-20K20S2,366,experiment,52,↑,up,↑,0.4008369999937713,True,31,1
LZ-K-20K20S2,367,experiment,65,↓,down,↓,0.6699749999679625,True,31,0
LZ-K-20K20S2,368,experiment,70,↑,up,↑,0.6198759998660535,True,31,1
LZ-K-20K20S2,369,experiment,53,↑,up,↑,0.6011934000998735,True,31,1
LZ-K-20K20S2,370,experiment,86,→,right,→,0.6123309000395238,True,31,1
LZ-K-20K20S2,371,experiment,93,↓,down,↓,0.5803590000141412,True,31,1
LZ-K-20K20S2,372,experiment,58,→,right,→,0.4498469999525696,True,31,1
LZ-K-20K20S2,373,experiment,56,→,right,→,0.43670119997113943,True,31,1
LZ-K-20K20S2,374,experiment,81,→,right,→,0.4401383998338133,True,31,1
LZ-K-20K20S2,375,experiment,90,←,left,←,0.5438699000515044,True,31,1
LZ-K-20K20S2,376,experiment,103,→,right,→,0.4958208000753075,True,31,1
LZ-K-20K20S2,377,experiment,76,←,left,←,0.8502644000109285,True,31,1
LZ-K-20K20S2,378,experiment,87,↓,down,↓,0.6189123999793082,True,31,1
LZ-K-20K20S2,379,experiment,92,→,right,→,0.4671674999408424,True,31,1
LZ-K-20K20S2,380,experiment,75,↓,down,↓,0.7272130998317152,True,31,1
LZ-K-20K20S2,381,experiment,68,→,right,→,1.0671997000463307,True,31,1
LZ-K-20K20S2,382,experiment,77,→,right,→,0.4308677001390606,True,31,1
LZ-K-20K20S2,383,experiment,78,←,left,←,0.547073099995032,True,31,0
LZ-K-20K20S2,384,experiment,55,↓,down,↓,0.5864911999087781,True,31,1
LZ-K-20K20S2,385,experiment,62,→,right,→,0.5101191999856383,True,31,1
LZ-K-20K20S2,386,experiment,74,←,left,←,0.5689708001445979,True,31,1
LZ-K-20K20S2,387,experiment,84,↓,down,↓,0.6939162001945078,True,31,1
LZ-K-20K20S2,388,experiment,66,↑,up,↑,0.6040807000827044,True,31,1
LZ-K-20K20S2,389,experiment,63,↓,down,↓,0.7744728999678046,True,31,1
LZ-K-20K20S2,390,experiment,106,←,left,←,0.5720252001192421,True,31,1
LZ-K-20K20S2,391,experiment,98,→,right,→,0.4524188998620957,True,31,1
LZ-K-20K20S2,392,experiment,85,→,right,→,0.9491903998423368,True,31,1
LZ-K-20K20S2,393,experiment,67,←,left,←,0.6007395000196993,True,31,1
LZ-K-20K20S2,394,experiment,61,→,right,→,0.5400129000190645,True,31,1
LZ-K-20K20S2,395,experiment,97,←,left,←,1.1981201998423785,True,31,1
LZ-K-20K20S2,396,experiment,80,→,right,→,0.6746930999215692,True,31,1
LZ-K-20K20S2,397,experiment,60,→,right,→,0.7474028000142425,True,31,1
LZ-K-20K20S2,398,experiment,88,→,right,→,0.5198106998577714,True,31,1
LZ-K-20K20S2,399,experiment,54,←,left,←,0.5927383999805897,True,31,1
LZ-K-20K20S2,400,experiment,79,↓,down,↓,0.6465874998830259,True,31,1
LZ-K-20K20S2,401,experiment,102,↑,up,↑,0.4424655002076179,True,31,1
LZ-K-20K20S2,402,experiment,91,→,right,→,0.5860913000069559,True,31,1
LZ-K-20K20S2,403,experiment,59,↑,up,↑,0.5347704000305384,True,31,1
LZ-K-20K20S2,404,experiment,48,←,left,←,0.5691982000134885,True,31,1
LZ-K-20K20S2,405,experiment,72,→,right,→,0.5541407000273466,True,31,1
LZ-K-20K20S2,406,experiment,96,→,right,→,0.43673410010524094,True,31,1
LZ-K-20K20S2,407,experiment,107,→,right,→,1.13431950006634,True,31,1
LZ-K-20K20S2,408,experiment,95,↓,down,↓,0.6970385001040995,True,31,1
LZ-K-20K20S2,409,experiment,94,→,right,→,0.5572540001012385,True,31,1
LZ-K-20K20S2,410,experiment,64,←,left,←,0.4735971000045538,True,31,1
LZ-K-20K20S2,411,experiment,105,→,right,→,0.48321500001475215,True,31,1
LZ-K-20K20S2,412,experiment,100,←,left,←,0.5342806000262499,True,31,1
LZ-K-20K20S2,413,experiment,89,↓,down,↓,0.7229719001334161,True,31,1
LZ-K-20K20S2,414,experiment,104,↑,up,↑,0.6830913000740111,True,31,1
LZ-K-20K20S2,415,experiment,108,→,right,→,0.6911816999781877,True,31,1
LZ-K-20K20S2,416,experiment,50,↓,down,↓,0.6627195999026299,True,31,1
LZ-K-20K20S2,417,experiment,69,→,right,→,0.5407279999926686,True,31,1
LZ-K-20K20S2,418,experiment,82,←,left,←,0.7234463000204414,True,31,1
LZ-K-20K20S2,419,training,54,↓,down,↓,0.6843910000752658,True,30,0
LZ-K-20K20S2,420,training,83,↑,up,↑,0.42911050003021955,True,30,1
LZ-K-20K20S2,421,experiment,108,←,left,←,0.6154877999797463,True,30,1
LZ-K-20K20S2,422,experiment,60,↓,down,↓,0.5465772999450564,True,30,1
LZ-K-20K20S2,423,experiment,57,↓,down,↓,0.5222489999141544,True,30,1
LZ-K-20K20S2,424,experiment,103,→,right,→,0.4582237999420613,True,30,1
LZ-K-20K20S2,425,experiment,101,↑,up,↑,1.5419193000998348,True,30,1
LZ-K-20K20S2,426,experiment,63,→,right,→,0.642685699975118,True,30,1
LZ-K-20K20S2,427,experiment,67,←,left,←,0.6104300001170486,True,30,1
LZ-K-20K20S2,428,experiment,99,←,left,←,0.6408840001095086,True,30,1
LZ-K-20K20S2,429,experiment,82,↓,down,↓,0.7474762001074851,True,30,1
LZ-K-20K20S2,430,experiment,80,↓,down,↓,0.7066906997933984,True,30,1
LZ-K-20K20S2,431,experiment,76,→,right,→,0.46855430002324283,True,30,1
LZ-K-20K20S2,432,experiment,78,↑,up,↑,0.5837052999995649,True,30,1
LZ-K-20K20S2,433,experiment,74,↑,up,↑,0.44763460010290146,True,30,1
LZ-K-20K20S2,434,experiment,98,↑,up,↑,0.5410664998926222,True,30,1
LZ-K-20K20S2,435,experiment,93,↑,up,↑,0.44772830000147223,True,30,1
LZ-K-20K20S2,436,experiment,53,←,left,←,0.443704399978742,True,30,1
LZ-K-20K20S2,437,experiment,72,↑,up,↑,0.5536615001037717,True,30,1
LZ-K-20K20S2,438,experiment,61,↓,down,↓,0.6952124000526965,True,30,1
LZ-K-20K20S2,439,experiment,105,←,left,←,0.5761518999934196,True,30,1
LZ-K-20K20S2,440,experiment,84,↓,down,↓,0.620874400017783,True,30,1
LZ-K-20K20S2,441,experiment,83,↓,down,↓,0.6162099000066519,True,30,1
LZ-K-20K20S2,442,experiment,71,↑,up,↑,0.40082610002718866,True,30,1
LZ-K-20K20S2,443,experiment,66,←,left,←,0.6092765000648797,True,30,0
LZ-K-20K20S2,444,experiment,56,↑,up,↑,0.4860650999471545,True,30,1
LZ-K-20K20S2,445,experiment,85,↑,up,↑,0.478103999979794,True,30,1
LZ-K-20K20S2,446,experiment,48,↓,down,↓,0.5948154998477548,True,30,1
LZ-K-20K20S2,447,experiment,54,↓,down,↓,0.536925399908796,True,30,1
LZ-K-20K20S2,448,experiment,97,→,right,→,0.5790195998270065,True,30,1
LZ-K-20K20S2,449,experiment,65,↑,up,↑,0.5416894999798387,True,30,1
LZ-K-20K20S2,450,experiment,51,↓,down,↓,0.5750984000042081,True,30,1
LZ-K-20K20S2,451,experiment,87,←,left,←,0.722681799903512,True,30,1
LZ-K-20K20S2,452,experiment,50,→,right,→,0.4930111998692155,True,30,1
LZ-K-20K20S2,453,experiment,96,→,right,→,0.5850261999294162,True,30,1
LZ-K-20K20S2,454,experiment,62,←,left,←,0.384113899897784,True,30,1
LZ-K-20K20S2,455,experiment,69,→,right,→,0.46176169998943806,True,30,0
LZ-K-20K20S2,456,experiment,107,→,right,→,0.5835971999913454,True,30,1
LZ-K-20K20S2,457,experiment,58,↓,down,↓,0.6044483999721706,True,30,1
LZ-K-20K20S2,458,experiment,52,↓,down,↓,0.6430438999086618,True,30,1
LZ-K-20K20S2,459,experiment,94,↑,up,↑,0.42620280012488365,True,30,1
LZ-K-20K20S2,460,experiment,106,←,left,←,0.42158830002881587,True,30,1
LZ-K-20K20S2,461,experiment,55,↓,down,↓,0.5609013999346644,True,30,1
LZ-K-20K20S2,462,experiment,90,←,left,←,0.3755143000744283,True,30,1
LZ-K-20K20S2,463,experiment,102,↑,up,↑,0.6190565000288188,True,30,0
LZ-K-20K20S2,464,experiment,75,←,left,←,0.5370550998486578,True,30,1
LZ-K-20K20S2,465,experiment,79,←,left,←,0.3758287001401186,True,30,1
LZ-K-20K20S2,466,experiment,86,↑,up,↑,0.5647857999429107,True,30,0
LZ-K-20K20S2,467,experiment,89,↓,down,↓,0.7363438999745995,True,30,1
LZ-K-20K20S2,468,experiment,49,←,left,←,0.5063724000938237,True,30,1
LZ-K-20K20S2,469,experiment,92,←,left,←,0.5751020000316203,True,30,1
LZ-K-20K20S2,470,experiment,104,→,right,→,0.7329617999494076,True,30,1
LZ-K-20K20S2,471,experiment,70,↓,down,↓,0.5360673000104725,True,30,1
LZ-K-20K20S2,472,experiment,68,↓,down,↓,0.6277865001466125,True,30,1
LZ-K-20K20S2,473,experiment,73,↑,up,↑,0.5943573999684304,True,30,1
LZ-K-20K20S2,474,experiment,100,←,left,←,0.5048758999910206,True,30,1
LZ-K-20K20S2,475,experiment,91,↓,down,↓,0.6139155998826027,True,30,1
LZ-K-20K20S2,476,experiment,59,→,right,→,1.0494557998608798,True,30,1
LZ-K-20K20S2,477,experiment,77,→,right,→,0.42166149988770485,True,30,1
LZ-K-20K20S2,478,experiment,88,←,left,←,1.1187807000242174,True,30,0
LZ-K-20K20S2,479,experiment,64,→,right,→,0.4530798001214862,True,30,1
LZ-K-20K20S2,480,experiment,81,←,left,←,0.5591430000495166,True,30,1
LZ-K-20K20S2,481,experiment,95,→,right,→,0.6568181000184268,True,30,1
LZ-K-20K20S2,482,training,57,↑,up,↑,0.4636310001369566,True,29,0
LZ-K-20K20S2,483,training,103,→,right,→,0.5449492998886853,True,29,1
LZ-K-20K20S2,484,experiment,83,↑,up,↑,0.4874843000434339,True,29,1
LZ-K-20K20S2,485,experiment,85,→,right,→,0.6231774999760091,True,29,1
LZ-K-20K20S2,486,experiment,52,↑,up,↑,0.5244966000318527,True,29,1
LZ-K-20K20S2,487,experiment,63,←,left,←,1.0181223000399768,True,29,1
LZ-K-20K20S2,488,experiment,55,←,left,←,0.5269244001246989,True,29,1
LZ-K-20K20S2,489,experiment,68,←,left,←,0.37576789990998805,True,29,1
LZ-K-20K20S2,490,experiment,79,↑,up,↑,0.3926808999385685,True,29,0
LZ-K-20K20S2,491,experiment,60,→,right,→,0.5090815001167357,True,29,0
LZ-K-20K20S2,492,experiment,104,←,left,←,0.42978759994730353,True,29,1
LZ-K-20K20S2,493,experiment,92,↓,down,↓,0.5174377001821995,True,29,1
LZ-K-20K20S2,494,experiment,69,↑,up,↑,0.41021499992348254,True,29,1
LZ-K-20K20S2,495,experiment,93,←,left,←,0.43364419997669756,True,29,0
LZ-K-20K20S2,496,experiment,61,↓,down,↓,0.5396296998951584,True,29,1
LZ-K-20K20S2,497,experiment,87,↑,up,↑,0.3924416000954807,True,29,1
LZ-K-20K20S2,498,experiment,81,↑,up,↑,0.438029499957338,True,29,0
LZ-K-20K20S2,499,experiment,54,←,left,←,0.729501600144431,True,29,1
LZ-K-20K20S2,500,experiment,102,↑,up,↑,1.0338753999676555,True,29,1
LZ-K-20K20S2,501,experiment,82,↓,down,↓,0.8209925000555813,True,29,1
LZ-K-20K20S2,502,experiment,103,←,left,←,0.3840413000434637,True,29,1
LZ-K-20K20S2,503,experiment,96,←,left,←,0.3674151999875903,True,29,0
LZ-K-20K20S2,504,experiment,90,↑,up,↑,0.5479524000547826,True,29,0
LZ-K-20K20S2,505,experiment,49,→,right,→,0.4775710999965668,True,29,1
LZ-K-20K20S2,506,experiment,70,↓,down,↓,0.6908782999962568,True,29,1
LZ-K-20K20S2,507,experiment,58,←,left,←,0.45160079980269074,True,29,1
LZ-K-20K20S2,508,experiment,80,↓,down,↓,0.5745664001442492,True,29,1
LZ-K-20K20S2,509,experiment,76,↑,up,↑,0.6381612999830395,True,29,1
LZ-K-20K20S2,510,experiment,66,←,left,←,0.5902162999846041,True,29,1
LZ-K-20K20S2,511,experiment,89,←,left,←,0.6404864001087844,True,29,1
LZ-K-20K20S2,512,experiment,62,↑,up,↑,0.5459211000707,True,29,1
LZ-K-20K20S2,513,experiment,64,↑,up,↑,0.4153090000618249,True,29,1
LZ-K-20K20S2,514,experiment,108,↓,down,↓,0.6093856999650598,True,29,1
LZ-K-20K20S2,515,experiment,88,↓,down,↓,0.6036059998441488,True,29,1
LZ-K-20K20S2,516,experiment,74,→,right,→,0.4828234000597149,True,29,1
LZ-K-20K20S2,517,experiment,94,←,left,←,0.4637712000403553,True,29,1
LZ-K-20K20S2,518,experiment,53,↓,down,↓,0.6111716001760215,True,29,1
LZ-K-20K20S2,519,experiment,99,↓,down,↓,0.6737871000077575,True,29,1
LZ-K-20K20S2,520,experiment,57,↓,down,↓,0.5873124999925494,True,29,1
LZ-K-20K20S2,521,experiment,71,→,right,→,0.5558910998515785,True,29,1
LZ-K-20K20S2,522,experiment,75,↑,up,↑,0.6282541998662055,True,29,1
LZ-K-20K20S2,523,experiment,97,←,left,←,1.266599099850282,True,29,1
LZ-K-20K20S2,524,experiment,50,→,left,←,1.2148536001332104,False,29,1
LZ-K-20K20S2,525,experiment,56,←,left,←,0.6672773999162018,True,29,1
LZ-K-20K20S2,526,experiment,65,↓,left,←,1.1788139001000673,False,29,1
LZ-K-20K20S2,527,experiment,67,↑,up,↑,0.9885180001147091,True,29,1
LZ-K-20K20S2,528,experiment,77,→,right,→,0.9869554000906646,True,29,1
LZ-K-20K20S2,529,experiment,107,↓,down,↓,0.8874665999319404,True,29,1
LZ-K-20K20S2,530,experiment,91,↑,up,↑,0.6134450000245124,True,29,1
LZ-K-20K20S2,531,experiment,106,↓,down,↓,0.7531665000133216,True,29,1
LZ-K-20K20S2,532,experiment,95,↓,down,↓,0.5711864999029785,True,29,1
LZ-K-20K20S2,533,experiment,59,↓,down,↓,0.5843547000549734,True,29,1
LZ-K-20K20S2,534,experiment,48,→,right,→,0.544822100084275,True,29,1
LZ-K-20K20S2,535,experiment,101,↓,down,↓,0.6330540000926703,True,29,1
LZ-K-20K20S2,536,experiment,51,↑,up,↑,0.7266098998952657,True,29,1
LZ-K-20K20S2,537,experiment,78,↓,down,↓,0.6473553001414984,True,29,1
LZ-K-20K20S2,538,experiment,72,←,left,←,0.6931687998585403,True,29,1
LZ-K-20K20S2,539,experiment,86,→,right,→,0.62876580003649,True,29,1
LZ-K-20K20S2,540,experiment,73,↓,down,↓,0.7627350999973714,True,29,1
LZ-K-20K20S2,541,experiment,84,→,right,→,0.4638284998945892,True,29,1
LZ-K-20K20S2,542,experiment,98,→,right,→,1.012081400025636,True,29,1
LZ-K-20K20S2,543,experiment,100,↑,up,↑,0.6102146001067013,True,29,1
LZ-K-20K20S2,544,experiment,105,→,right,→,0.5583742999006063,True,29,1
LZ-K-20K20S2,545,training,91,↑,up,↑,0.40553559991531074,True,28,0
LZ-K-20K20S2,546,training,94,→,right,→,0.7018647999502718,True,28,0
LZ-K-20K20S2,547,experiment,103,←,left,←,0.6072074000257999,True,28,1
LZ-K-20K20S2,548,experiment,63,→,right,→,0.6094251000322402,True,28,1
LZ-K-20K20S2,549,experiment,80,↓,down,↓,0.6222671000286937,True,28,1
LZ-K-20K20S2,550,experiment,105,↓,down,↓,0.5060105000156909,True,28,1
LZ-K-20K20S2,551,experiment,66,→,right,→,0.4155864999629557,True,28,1
LZ-K-20K20S2,552,experiment,100,→,right,→,0.42909300001338124,True,28,1
LZ-K-20K20S2,553,experiment,49,→,right,→,0.7392309999559075,True,28,1
LZ-K-20K20S2,554,experiment,52,→,right,→,0.5883591999299824,True,28,1
LZ-K-20K20S2,555,experiment,57,→,right,→,0.5296541000716388,True,28,1
LZ-K-20K20S2,556,experiment,71,↑,up,↑,0.46051359991542995,True,28,1
LZ-K-20K20S2,557,experiment,56,↓,down,↓,0.5350446000229567,True,28,1
LZ-K-20K20S2,558,experiment,86,→,right,→,0.44502929993905127,True,28,1
LZ-K-20K20S2,559,experiment,58,↑,up,↑,0.4874757998622954,True,28,1
LZ-K-20K20S2,560,experiment,108,↓,down,↓,0.7195626001339406,True,28,1
LZ-K-20K20S2,561,experiment,61,←,left,←,0.46228450001217425,True,28,1
LZ-K-20K20S2,562,experiment,106,→,right,→,0.5121703001204878,True,28,1
LZ-K-20K20S2,563,experiment,48,←,left,←,0.49950699997134507,True,28,1
LZ-K-20K20S2,564,experiment,55,↑,up,↑,0.4688961999490857,True,28,1
LZ-K-20K20S2,565,experiment,84,↑,up,↑,0.5904212000314146,True,28,1
LZ-K-20K20S2,566,experiment,89,↑,up,↑,0.5122605999931693,True,28,1
LZ-K-20K20S2,567,experiment,91,→,right,→,0.6212077001109719,True,28,1
LZ-K-20K20S2,568,experiment,85,←,left,←,0.6318047000095248,True,28,1
LZ-K-20K20S2,569,experiment,64,←,left,←,0.6488969998899847,True,28,1
LZ-K-20K20S2,570,experiment,70,→,right,→,0.44711220008321106,True,28,1
LZ-K-20K20S2,571,experiment,77,↓,down,↓,0.723130099941045,True,28,1
LZ-K-20K20S2,572,experiment,62,↑,up,↑,0.3846357997972518,True,28,1
LZ-K-20K20S2,573,experiment,69,→,right,→,0.44262160011567175,True,28,0
LZ-K-20K20S2,574,experiment,59,←,left,←,0.5648989998735487,True,28,1
LZ-K-20K20S2,575,experiment,107,←,left,←,0.6103229001164436,True,28,1
LZ-K-20K20S2,576,experiment,78,←,left,←,0.5357345999218524,True,28,1
LZ-K-20K20S2,577,experiment,94,↓,down,↓,0.7788140999618918,True,28,1
LZ-K-20K20S2,578,experiment,102,↑,up,↑,0.5776200001128018,True,28,1
LZ-K-20K20S2,579,experiment,99,↑,up,↑,0.3842447001952678,True,28,1
LZ-K-20K20S2,580,experiment,75,↑,up,↑,0.5283970998134464,True,28,0
LZ-K-20K20S2,581,experiment,98,↑,up,↑,0.4113999998662621,True,28,1
LZ-K-20K20S2,582,experiment,95,↑,up,↑,0.3844797001220286,True,28,1
LZ-K-20K20S2,583,experiment,54,↓,down,↓,0.7360793999396265,True,28,0
LZ-K-20K20S2,584,experiment,65,→,right,→,0.5889327998738736,True,28,1
LZ-K-20K20S2,585,experiment,50,↓,down,↓,0.684570400044322,True,28,1
LZ-K-20K20S2,586,experiment,82,←,left,←,0.5574022000655532,True,28,1
LZ-K-20K20S2,587,experiment,97,→,right,→,0.5983637999743223,True,28,1
LZ-K-20K20S2,588,experiment,96,↑,up,↑,0.4542559999972582,True,28,1
LZ-K-20K20S2,589,experiment,79,↓,down,↓,0.7372895998414606,True,28,1
LZ-K-20K20S2,590,experiment,83,↓,down,↓,0.5758050999138504,True,28,1
LZ-K-20K20S2,591,experiment,81,←,left,←,0.7095606001093984,True,28,1
LZ-K-20K20S2,592,experiment,87,↓,down,↓,0.5637491000816226,True,28,1
LZ-K-20K20S2,593,experiment,90,↑,up,↑,0.5512612001039088,True,28,1
LZ-K-20K20S2,594,experiment,60,↑,up,↑,0.5006695999763906,True,28,1
LZ-K-20K20S2,595,experiment,88,←,left,←,0.41200609994120896,True,28,1
LZ-K-20K20S2,596,experiment,76,→,right,→,0.5930023000109941,True,28,1
LZ-K-20K20S2,597,experiment,67,→,right,→,0.5626030000858009,True,28,1
LZ-K-20K20S2,598,experiment,72,→,right,→,0.42017209995537996,True,28,1
LZ-K-20K20S2,599,experiment,93,→,right,→,0.5241479999385774,True,28,1
LZ-K-20K20S2,600,experiment,68,←,left,←,0.5764204000588506,True,28,1
LZ-K-20K20S2,601,experiment,51,←,left,←,0.6079536001197994,True,28,1
LZ-K-20K20S2,602,experiment,53,→,right,→,0.7096979001071304,True,28,1
LZ-K-20K20S2,603,experiment,92,←,left,←,0.40317739988677204,True,28,1
LZ-K-20K20S2,604,experiment,73,←,left,←,0.42555960011668503,True,28,0
LZ-K-20K20S2,605,experiment,74,→,right,→,0.48783589992672205,True,28,1
LZ-K-20K20S2,606,experiment,104,↓,down,↓,0.7611847999505699,True,28,1
LZ-K-20K20S2,607,experiment,101,←,left,←,0.6327783002052456,True,28,1
LZ-K-20K20S2,608,training,62,↓,down,↓,0.7168902000412345,True,28,0
LZ-K-20K20S2,609,training,108,←,left,←,0.7879412998445332,True,28,1
LZ-K-20K20S2,610,experiment,84,↑,up,↑,0.6801618998870254,True,28,1
LZ-K-20K20S2,611,experiment,58,→,right,→,0.6172368000261486,True,28,1
LZ-K-20K20S2,612,experiment,69,←,left,←,0.6893488001078367,True,28,1
LZ-K-20K20S2,613,experiment,80,←,left,←,0.4984307000413537,True,28,1
LZ-K-20K20S2,614,experiment,53,→,right,→,0.7567817000672221,True,28,1
LZ-K-20K20S2,615,experiment,73,↓,down,↓,0.6536523001268506,True,28,1
LZ-K-20K20S2,616,experiment,103,→,right,→,0.6012500000651926,True,28,1
LZ-K-20K20S2,617,experiment,74,→,left,←,0.8720931999851018,False,28,1
LZ-K-20K20S2,618,experiment,90,→,right,→,0.6068843000102788,True,28,1
LZ-K-20K20S2,619,experiment,83,→,right,→,0.5386351000051945,True,28,1
LZ-K-20K20S2,620,experiment,59,←,left,←,0.6010367998387665,True,28,1
LZ-K-20K20S2,621,experiment,70,↑,up,↑,0.46531699993647635,True,28,1
LZ-K-20K20S2,622,experiment,106,→,right,→,0.5951067998539656,True,28,1
LZ-K-20K20S2,623,experiment,95,←,left,←,0.4756459000054747,True,28,1
LZ-K-20K20S2,624,experiment,82,→,right,→,0.4688808999489993,True,28,1
LZ-K-20K20S2,625,experiment,108,←,left,←,0.5499164999928325,True,28,1
LZ-K-20K20S2,626,experiment,52,←,left,←,0.4704623001161963,True,28,1
LZ-K-20K20S2,627,experiment,99,↓,down,↓,0.6664340000133961,True,28,1
LZ-K-20K20S2,628,experiment,85,←,left,←,0.5871307000052184,True,28,1
LZ-K-20K20S2,629,experiment,64,↓,down,↓,0.7421341999433935,True,28,1
LZ-K-20K20S2,630,experiment,71,→,right,→,0.5525069001596421,True,28,1
LZ-K-20K20S2,631,experiment,92,←,left,←,0.5313848999794573,True,28,1
LZ-K-20K20S2,632,experiment,50,↓,down,↓,0.5812868000939488,True,28,1
LZ-K-20K20S2,633,experiment,61,↓,down,↓,0.7371178001631051,True,28,1
LZ-K-20K20S2,634,experiment,86,→,right,→,0.4788194000720978,True,28,1
LZ-K-20K20S2,635,experiment,63,↑,up,↑,0.4386446999851614,True,28,1
LZ-K-20K20S2,636,experiment,81,↓,down,↓,0.5617352998815477,True,28,1
LZ-K-20K20S2,637,experiment,66,→,right,→,0.5009710998274386,True,28,1
LZ-K-20K20S2,638,experiment,100,→,right,→,0.5033334998879582,True,28,1
LZ-K-20K20S2,639,experiment,65,←,left,←,0.6774657999631017,True,28,1
LZ-K-20K20S2,640,experiment,49,↓,down,↓,0.7380253998562694,True,28,1
LZ-K-20K20S2,641,experiment,72,→,right,→,0.771962899947539,True,28,1
LZ-K-20K20S2,642,experiment,68,↑,up,↑,1.0219562000129372,True,28,1
LZ-K-20K20S2,643,experiment,56,←,left,←,0.5141227000858635,True,28,1
LZ-K-20K20S2,644,experiment,93,↑,no_key,no_letter,-1.0,False,28,1
LZ-K-20K20S2,645,experiment,77,↑,up,↑,0.5600367998704314,True,28,1
LZ-K-20K20S2,646,experiment,88,→,right,→,0.7559521000366658,True,28,1
LZ-K-20K20S2,647,experiment,101,↑,up,↑,0.4357528002001345,True,28,1
LZ-K-20K20S2,648,experiment,89,↓,down,↓,0.8205244999844581,True,28,1
LZ-K-20K20S2,649,experiment,60,↓,down,↓,0.591485199984163,True,28,1
LZ-K-20K20S2,650,experiment,96,↓,down,↓,0.663515199907124,True,28,1
LZ-K-20K20S2,651,experiment,87,↑,up,↑,0.5517100000288337,True,28,1
LZ-K-20K20S2,652,experiment,57,←,left,←,0.5981781000737101,True,28,1
LZ-K-20K20S2,653,experiment,48,→,right,→,0.52605350012891,True,28,1
LZ-K-20K20S2,654,experiment,94,↑,up,↑,0.49738699989393353,True,28,1
LZ-K-20K20S2,655,experiment,91,→,right,→,0.5588811999186873,True,28,1
LZ-K-20K20S2,656,experiment,75,→,right,→,0.40790480002760887,True,28,1
LZ-K-20K20S2,657,experiment,62,→,right,→,0.5860208999365568,True,28,1
LZ-K-20K20S2,658,experiment,97,←,left,←,0.6340573001652956,True,28,1
LZ-K-20K20S2,659,experiment,76,→,right,→,0.43916000006720424,True,28,1
LZ-K-20K20S2,660,experiment,55,←,left,←,0.41150639997795224,True,28,1
LZ-K-20K20S2,661,experiment,79,↓,down,↓,0.7118307999335229,True,28,1
LZ-K-20K20S2,662,experiment,105,←,left,←,0.49596159998327494,True,28,1
LZ-K-20K20S2,663,experiment,104,←,left,←,0.5773270998615772,True,28,1
LZ-K-20K20S2,664,experiment,98,←,left,←,0.6415762000251561,True,28,1
LZ-K-20K20S2,665,experiment,67,↓,down,↓,0.6171218000818044,True,28,1
LZ-K-20K20S2,666,experiment,102,↓,down,↓,0.5019423998892307,True,28,1
LZ-K-20K20S2,667,experiment,78,↑,up,↑,0.44789059995673597,True,28,1
LZ-K-20K20S2,668,experiment,54,→,left,←,0.5238165000919253,False,28,1
LZ-K-20K20S2,669,experiment,107,←,left,←,0.498915100004524,True,28,1
LZ-K-20K20S2,670,experiment,51,→,right,→,0.5415988999884576,True,28,1
LZ-K-20K20S2,671,training,76,←,left,←,1.0311475000344217,True,28,0
LZ-K-20K20S2,672,training,82,→,right,→,0.5301703999284655,True,28,1
LZ-K-20K20S2,673,experiment,74,←,no_key,no_letter,-1.0,False,28,1
LZ-K-20K20S2,674,experiment,55,↓,down,↓,0.8133962999563664,True,28,1
LZ-K-20K20S2,675,experiment,51,←,left,←,0.45946120005100965,True,28,1
LZ-K-20K20S2,676,experiment,68,←,left,←,0.6739287001546472,True,28,1
LZ-K-20K20S2,677,experiment,57,↑,up,↑,1.1637645000591874,True,28,1
LZ-K-20K20S2,678,experiment,99,←,left,←,0.5397420998197049,True,28,1
LZ-K-20K20S2,679,experiment,72,↓,down,↓,0.5018037999980152,True,28,1
LZ-K-20K20S2,680,experiment,71,→,right,→,0.5377591999713331,True,28,1
LZ-K-20K20S2,681,experiment,100,→,right,→,0.5151319999713451,True,28,1
LZ-K-20K20S2,682,experiment,92,↑,up,↑,0.503295699832961,True,28,1
LZ-K-20K20S2,683,experiment,87,↑,up,↑,0.4060388000216335,True,28,1
LZ-K-20K20S2,684,experiment,78,←,left,←,0.4122868000995368,True,28,0
LZ-K-20K20S2,685,experiment,81,↑,up,↑,0.41586979990825057,True,28,1
LZ-K-20K20S2,686,experiment,104,↓,down,↓,0.5639435998164117,True,28,1
LZ-K-20K20S2,687,experiment,85,↓,down,↓,0.6166717999149114,True,28,1
LZ-K-20K20S2,688,experiment,58,←,left,←,0.375876700039953,True,28,1
LZ-K-20K20S2,689,experiment,90,↑,up,↑,0.4308224997948855,True,28,0
LZ-K-20K20S2,690,experiment,69,→,right,→,0.41446420014835894,True,28,1
LZ-K-20K20S2,691,experiment,50,←,right,→,0.7246159000787884,False,28,1
LZ-K-20K20S2,692,experiment,77,→,right,→,0.4378126000519842,True,28,1
LZ-K-20K20S2,693,experiment,105,←,left,←,0.6486700000241399,True,28,1
LZ-K-20K20S2,694,experiment,88,↓,down,↓,0.761273399926722,True,28,1
LZ-K-20K20S2,695,experiment,66,↑,up,↑,0.5804561001714319,True,28,1
LZ-K-20K20S2,696,experiment,84,→,right,→,0.45712070004083216,True,28,1
LZ-K-20K20S2,697,experiment,108,↓,down,↓,0.5703273999970406,True,28,1
LZ-K-20K20S2,698,experiment,83,↓,down,↓,0.5436740999575704,True,28,1
LZ-K-20K20S2,699,experiment,62,←,left,←,0.5810533000621945,True,28,1
LZ-K-20K20S2,700,experiment,91,↑,up,↑,0.4235042999498546,True,28,1
LZ-K-20K20S2,701,experiment,94,↓,down,↓,0.5266682000365108,True,28,1
LZ-K-20K20S2,702,experiment,60,↑,up,↑,1.013145999982953,True,28,1
LZ-K-20K20S2,703,experiment,79,→,right,→,0.5458613999653608,True,28,1
LZ-K-20K20S2,704,experiment,59,↑,up,↑,0.5762167000211775,True,28,1
LZ-K-20K20S2,705,experiment,89,↑,up,↑,0.5232925999443978,True,28,1
LZ-K-20K20S2,706,experiment,65,↓,down,↓,0.5841387999244034,True,28,1
LZ-K-20K20S2,707,experiment,86,↓,down,↓,0.611968900077045,True,28,1
LZ-K-20K20S2,708,experiment,107,↑,up,↑,0.5516369000542909,True,28,1
LZ-K-20K20S2,709,experiment,76,↓,down,↓,0.615999500034377,True,28,1
LZ-K-20K20S2,710,experiment,95,↓,down,↓,0.7353074999991804,True,28,1
LZ-K-20K20S2,711,experiment,63,↑,up,↑,0.4132138001732528,True,28,1
LZ-K-20K20S2,712,experiment,97,→,right,→,0.5795909001026303,True,28,1
LZ-K-20K20S2,713,experiment,73,↓,down,↓,0.5795545000582933,True,28,1
LZ-K-20K20S2,714,experiment,54,↑,up,↑,0.5700659998692572,True,28,1
LZ-K-20K20S2,715,experiment,102,↑,up,↑,0.5690065000671893,True,28,1
LZ-K-20K20S2,716,experiment,101,→,right,→,0.46431199996732175,True,28,1
LZ-K-20K20S2,717,experiment,96,↓,down,↓,0.7734964000992477,True,28,1
LZ-K-20K20S2,718,experiment,67,→,right,→,0.600053200032562,True,28,1
LZ-K-20K20S2,719,experiment,82,↓,down,↓,0.5402547002304345,True,28,1
LZ-K-20K20S2,720,experiment,93,↑,up,↑,0.5832624000031501,True,28,1
LZ-K-20K20S2,721,experiment,70,←,left,←,0.5923642998095602,True,28,1
LZ-K-20K20S2,722,experiment,103,→,right,→,0.6219041000586003,True,28,1
LZ-K-20K20S2,723,experiment,48,↑,up,↑,0.5486728001851588,True,28,1
LZ-K-20K20S2,724,experiment,56,↑,up,↑,0.40447079995647073,True,28,1
LZ-K-20K20S2,725,experiment,75,↑,up,↑,0.4424416001420468,True,28,0
LZ-K-20K20S2,726,experiment,106,↓,down,↓,0.6773887001909316,True,28,1
LZ-K-20K20S2,727,experiment,53,↑,up,↑,0.5521378999110311,True,28,1
LZ-K-20K20S2,728,experiment,64,↓,down,↓,0.6124901999719441,True,28,1
LZ-K-20K20S2,729,experiment,80,→,right,→,0.5930538999382406,True,28,1
LZ-K-20K20S2,730,experiment,61,→,right,→,0.6684859001543373,True,28,1
LZ-K-20K20S2,731,experiment,52,→,right,→,0.46462469990365207,True,28,1
LZ-K-20K20S2,732,experiment,49,→,right,→,0.5093572000041604,True,28,1
LZ-K-20K20S2,733,experiment,98,↑,up,↑,0.5759014999493957,True,28,1
LZ-K-20K20S2,734,training,105,←,left,←,0.6280011001508683,True,28,0
LZ-K-20K20S2,735,training,63,↓,down,↓,0.7257197999861091,True,28,1
LZ-K-20K20S2,736,experiment,64,↑,up,↑,0.5153653000015765,True,28,1
LZ-K-20K20S2,737,experiment,106,←,left,←,0.4909220999106765,True,28,1
LZ-K-20K20S2,738,experiment,82,↓,down,↓,0.6277222000062466,True,28,1
LZ-K-20K20S2,739,experiment,48,↓,down,↓,0.7225546999834478,True,28,1
LZ-K-20K20S2,740,experiment,61,→,right,→,0.6007857001386583,True,28,1
LZ-K-20K20S2,741,experiment,52,↓,down,↓,0.6952101001515985,True,28,1
LZ-K-20K20S2,742,experiment,58,↑,up,↑,0.5199204999953508,True,28,1
LZ-K-20K20S2,743,experiment,83,→,right,→,0.48733419994823635,True,28,1
LZ-K-20K20S2,744,experiment,91,→,right,→,0.40607360005378723,True,28,1
LZ-K-20K20S2,745,experiment,55,←,left,←,0.4345168999861926,True,28,1
LZ-K-20K20S2,746,experiment,59,→,right,→,0.45343629992567,True,28,1
LZ-K-20K20S2,747,experiment,63,←,left,←,0.5179868000559509,True,28,1
LZ-K-20K20S2,748,experiment,98,→,right,→,0.4643175997771323,True,28,1
LZ-K-20K20S2,749,experiment,93,→,right,→,0.5424277998972684,True,28,1
LZ-K-20K20S2,750,experiment,88,←,left,←,0.41173549997620285,True,28,1
LZ-K-20K20S2,751,experiment,54,↑,up,↑,0.5123527999967337,True,28,1
LZ-K-20K20S2,752,experiment,70,←,left,←,0.4367234001401812,True,28,1
LZ-K-20K20S2,753,experiment,87,←,left,←,0.5734981000423431,True,28,1
LZ-K-20K20S2,754,experiment,108,↑,up,↑,0.4027174001093954,True,28,1
LZ-K-20K20S2,755,experiment,68,↑,up,↑,1.1947464998811483,True,28,0
LZ-K-20K20S2,756,experiment,105,←,left,←,0.6158075002022088,True,28,1
LZ-K-20K20S2,757,experiment,53,←,left,←,0.48543010000139475,True,28,1
LZ-K-20K20S2,758,experiment,76,→,right,→,0.7685268002096564,True,28,1
LZ-K-20K20S2,759,experiment,97,→,right,→,0.40150459995493293,True,28,1
LZ-K-20K20S2,760,experiment,104,↑,up,↑,0.5658058000262827,True,28,0
LZ-K-20K20S2,761,experiment,72,↑,up,↑,0.9504164000973105,True,28,1
LZ-K-20K20S2,762,experiment,89,↓,down,↓,0.8506074000615627,True,28,1
LZ-K-20K20S2,763,experiment,100,→,right,→,0.5351166999898851,True,28,1
LZ-K-20K20S2,764,experiment,101,←,left,←,0.4878646000288427,True,28,1
LZ-K-20K20S2,765,experiment,96,↓,down,↓,0.7158730998635292,True,28,1
LZ-K-20K20S2,766,experiment,84,→,right,→,0.6589408998843282,True,28,1
LZ-K-20K20S2,767,experiment,56,↑,up,↑,0.5656739000696689,True,28,1
LZ-K-20K20S2,768,experiment,103,↓,down,↓,0.5242890999652445,True,28,1
LZ-K-20K20S2,769,experiment,85,→,right,→,0.5467787999659777,True,28,1
LZ-K-20K20S2,770,experiment,94,→,right,→,0.4696625000797212,True,28,1
LZ-K-20K20S2,771,experiment,49,←,left,←,0.43425010005012155,True,28,1
LZ-K-20K20S2,772,experiment,75,↓,down,↓,0.7118983999826014,True,28,1
LZ-K-20K20S2,773,experiment,95,→,right,→,0.4835417000576854,True,28,1
LZ-K-20K20S2,774,experiment,107,↓,down,↓,0.5319960999768227,True,28,1
LZ-K-20K20S2,775,experiment,50,→,right,→,0.5019248998723924,True,28,1
LZ-K-20K20S2,776,experiment,81,→,right,→,0.45458469982258976,True,28,1
LZ-K-20K20S2,777,experiment,57,↑,up,↑,0.45714939991012216,True,28,1
LZ-K-20K20S2,778,experiment,60,↓,down,↓,0.5222602998837829,True,28,1
LZ-K-20K20S2,779,experiment,78,↑,up,↑,0.49919090000912547,True,28,1
LZ-K-20K20S2,780,experiment,73,→,right,→,0.5828325001057237,True,28,1
LZ-K-20K20S2,781,experiment,80,↑,up,↑,0.47634669998660684,True,28,1
LZ-K-20K20S2,782,experiment,102,↑,up,↑,0.5270374999381602,True,28,1
LZ-K-20K20S2,783,experiment,77,←,left,←,0.3838786000851542,True,28,1
LZ-K-20K20S2,784,experiment,71,→,right,→,0.5925886000040919,True,28,0
LZ-K-20K20S2,785,experiment,66,→,right,→,0.4105431998614222,True,28,1
LZ-K-20K20S2,786,experiment,65,↓,down,↓,0.7003695999737829,True,28,1
LZ-K-20K20S2,787,experiment,74,→,right,→,0.5116495001129806,True,28,1
LZ-K-20K20S2,788,experiment,99,↓,down,↓,0.6416782999876887,True,28,1
LZ-K-20K20S2,789,experiment,86,←,left,←,0.7233488000929356,True,28,1
LZ-K-20K20S2,790,experiment,62,←,left,←,0.729449599981308,True,28,1
LZ-K-20K20S2,791,experiment,92,↑,up,↑,0.556944000069052,True,28,1
LZ-K-20K20S2,792,experiment,67,↑,up,↑,0.4479892998933792,True,28,1
LZ-K-20K20S2,793,experiment,51,→,right,→,0.6532162001822144,True,28,1
LZ-K-20K20S2,794,experiment,90,←,left,←,0.44446240016259253,True,28,1
LZ-K-20K20S2,795,experiment,69,↓,down,↓,0.7475748001597822,True,28,1
LZ-K-20K20S2,796,experiment,79,→,right,→,0.47501560021191835,True,28,1
LZ-K-20K20S2,797,training,99,↑,up,↑,0.612593799829483,True,28,0
LZ-K-20K20S2,798,training,71,→,right,→,0.4680125000886619,True,28,1
LZ-K-20K20S2,799,experiment,76,↓,down,↓,0.7516471999697387,True,28,1
LZ-K-20K20S2,800,experiment,70,←,left,←,0.41802930017001927,True,28,1
LZ-K-20K20S2,801,experiment,94,↓,down,↓,0.5537700999993831,True,28,1
LZ-K-20K20S2,802,experiment,88,↓,down,↓,0.7262083999812603,True,28,1
LZ-K-20K20S2,803,experiment,83,←,left,←,0.6451417999342084,True,28,1
LZ-K-20K20S2,804,experiment,73,↑,up,↑,0.42696549999527633,True,28,1
LZ-K-20K20S2,805,experiment,80,↓,down,↓,0.5909806999843568,True,28,1
LZ-K-20K20S2,806,experiment,56,↑,up,↑,0.4208661001175642,True,28,1
LZ-K-20K20S2,807,experiment,62,↓,down,↓,0.6945852001663297,True,28,1
LZ-K-20K20S2,808,experiment,59,↑,up,↑,0.42360069998539984,True,28,1
LZ-K-20K20S2,809,experiment,61,←,left,←,0.5379360001534224,True,28,1
LZ-K-20K20S2,810,experiment,69,←,left,←,0.4527487000450492,True,28,1
LZ-K-20K20S2,811,experiment,72,→,right,→,0.6345474999397993,True,28,1
LZ-K-20K20S2,812,experiment,50,↑,up,↑,0.424259299878031,True,28,1
LZ-K-20K20S2,813,experiment,95,↓,down,↓,0.807404600083828,True,28,1
LZ-K-20K20S2,814,experiment,51,↓,down,↓,0.67769749998115,True,28,1
LZ-K-20K20S2,815,experiment,102,←,left,←,0.576486999867484,True,28,1
LZ-K-20K20S2,816,experiment,66,↓,down,↓,0.7233360998798162,True,28,1
LZ-K-20K20S2,817,experiment,103,←,left,←,0.5557337000500411,True,28,1
LZ-K-20K20S2,818,experiment,52,↓,down,↓,0.9638879999984056,True,28,1
LZ-K-20K20S2,819,experiment,81,←,left,←,0.40207099984399974,True,28,1
LZ-K-20K20S2,820,experiment,82,←,left,←,0.5177383001428097,True,28,0
LZ-K-20K20S2,821,experiment,107,←,left,←,0.5331386001780629,True,28,1
LZ-K-20K20S2,822,experiment,68,↑,up,↑,0.4568335001822561,True,28,1
LZ-K-20K20S2,823,experiment,57,←,left,←,0.5152614999096841,True,28,1
LZ-K-20K20S2,824,experiment,74,↑,up,↑,1.0854245000518858,True,28,1
LZ-K-20K20S2,825,experiment,58,↑,up,↑,0.4548874997999519,True,28,1
LZ-K-20K20S2,826,experiment,75,↓,down,↓,0.7472655999008566,True,28,1
LZ-K-20K20S2,827,experiment,64,→,right,→,0.6319202999584377,True,28,1
LZ-K-20K20S2,828,experiment,63,↓,down,↓,0.633155400166288,True,28,1
LZ-K-20K20S2,829,experiment,106,←,left,←,0.6438544001430273,True,28,1
LZ-K-20K20S2,830,experiment,97,→,right,→,0.47369679994881153,True,28,1
LZ-K-20K20S2,831,experiment,91,→,right,→,0.46472829999402165,True,28,1
LZ-K-20K20S2,832,experiment,67,←,left,←,0.6469267997890711,True,28,1
LZ-K-20K20S2,833,experiment,98,←,left,←,0.5957687001209706,True,28,1
LZ-K-20K20S2,834,experiment,87,→,right,→,0.6305343999993056,True,28,1
LZ-K-20K20S2,835,experiment,108,↑,up,↑,0.4890564000234008,True,28,1
LZ-K-20K20S2,836,experiment,48,←,left,←,0.5729117000009865,True,28,1
LZ-K-20K20S2,837,experiment,89,↑,up,↑,0.6159610999748111,True,28,1
LZ-K-20K20S2,838,experiment,53,→,right,→,0.5334359998814762,True,28,1
LZ-K-20K20S2,839,experiment,55,↓,up,↑,0.5093890000134706,False,28,1
LZ-K-20K20S2,840,experiment,78,↑,up,↑,0.43896430009044707,True,28,1
LZ-K-20K20S2,841,experiment,79,↓,down,↓,0.8667375000659376,True,28,1
LZ-K-20K20S2,842,experiment,85,↓,down,↓,0.8354082000441849,True,28,1
LZ-K-20K20S2,843,experiment,92,↓,down,↓,0.5310738999396563,True,28,1
LZ-K-20K20S2,844,experiment,65,←,left,←,0.5517994000110775,True,28,1
LZ-K-20K20S2,845,experiment,96,→,right,→,0.6415398002136499,True,28,1
LZ-K-20K20S2,846,experiment,101,→,right,→,0.6058760997839272,True,28,1
LZ-K-20K20S2,847,experiment,77,↑,up,↑,0.4595997000578791,True,28,1
LZ-K-20K20S2,848,experiment,49,→,right,→,0.49676960008218884,True,28,1
LZ-K-20K20S2,849,experiment,104,→,right,→,0.47385110007598996,True,28,1
LZ-K-20K20S2,850,experiment,60,→,right,→,0.3842439998406917,True,28,1
LZ-K-20K20S2,851,experiment,86,↓,down,↓,0.7659658999182284,True,28,0
LZ-K-20K20S2,852,experiment,105,↑,up,↑,0.7399420998990536,True,28,1
LZ-K-20K20S2,853,experiment,99,←,left,←,0.5329817999154329,True,28,1
LZ-K-20K20S2,854,experiment,90,↑,up,↑,0.4572560000233352,True,28,1
LZ-K-20K20S2,855,experiment,93,↓,down,↓,0.6959212999790907,True,28,1
LZ-K-20K20S2,856,experiment,54,←,left,←,0.5854805000126362,True,28,1
LZ-K-20K20S2,857,experiment,100,←,left,←,0.5686131999827921,True,28,1
LZ-K-20K20S2,858,experiment,71,←,left,←,0.4819696000777185,True,28,1
LZ-K-20K20S2,859,experiment,84,←,left,←,0.706262799911201,True,28,1
LZ-K-20K20S2,860,training,76,↓,down,↓,0.7506066998466849,True,28,0
LZ-K-20K20S2,861,training,95,←,left,←,0.7766581999603659,True,28,1
LZ-K-20K20S2,862,experiment,105,↓,down,↓,0.8062434000894427,True,28,1
LZ-K-20K20S2,863,experiment,73,↓,down,↓,0.629333000164479,True,28,1
LZ-K-20K20S2,864,experiment,69,→,right,→,0.4527300999034196,True,28,1
LZ-K-20K20S2,865,experiment,106,←,left,←,0.4633623000700027,True,28,1
LZ-K-20K20S2,866,experiment,82,→,right,→,0.41695480002090335,True,28,1
LZ-K-20K20S2,867,experiment,66,←,left,←,0.5781855001114309,True,28,1
LZ-K-20K20S2,868,experiment,70,↓,down,↓,0.5795991998165846,True,28,1
LZ-K-20K20S2,869,experiment,79,→,right,→,0.4896530001424253,True,28,1
LZ-K-20K20S2,870,experiment,86,←,left,←,0.6329844000283629,True,28,1
LZ-K-20K20S2,871,experiment,100,↑,up,↑,0.4220768001396209,True,28,1
LZ-K-20K20S2,872,experiment,77,↓,down,↓,0.6269773000385612,True,28,1
LZ-K-20K20S2,873,experiment,91,←,left,←,0.5474463000427932,True,28,1
LZ-K-20K20S2,874,experiment,71,↑,up,↑,0.5493026999756694,True,28,1
LZ-K-20K20S2,875,experiment,48,↑,up,↑,0.5272003998979926,True,28,1
LZ-K-20K20S2,876,experiment,52,↑,up,↑,0.5126244002021849,True,28,1
LZ-K-20K20S2,877,experiment,81,→,right,→,0.6246231999248266,True,28,1
LZ-K-20K20S2,878,experiment,103,←,left,←,0.44524329993873835,True,28,1
LZ-K-20K20S2,879,experiment,107,↓,down,↓,0.7994069000706077,True,28,1
LZ-K-20K20S2,880,experiment,97,↑,up,↑,0.4548104000277817,True,28,1
LZ-K-20K20S2,881,experiment,89,↑,up,↑,0.4708595999982208,True,28,1
LZ-K-20K20S2,882,experiment,76,←,left,←,0.4027442999649793,True,28,1
LZ-K-20K20S2,883,experiment,59,→,right,→,0.5261556999757886,True,28,0
LZ-K-20K20S2,884,experiment,108,↓,down,↓,0.7646643000189215,True,28,1
LZ-K-20K20S2,885,experiment,64,↑,up,↑,0.42454799986444414,True,28,1
LZ-K-20K20S2,886,experiment,75,↓,down,↓,0.5583963000681251,True,28,1
LZ-K-20K20S2,887,experiment,80,↑,up,↑,0.532841500127688,True,28,1
LZ-K-20K20S2,888,experiment,83,↓,down,↓,0.5960076998453587,True,28,1
LZ-K-20K20S2,889,experiment,99,↓,down,↓,0.8030426001641899,True,28,1
LZ-K-20K20S2,890,experiment,72,→,right,→,0.5783951999619603,True,28,1
LZ-K-20K20S2,891,experiment,101,↑,up,↑,0.47358480002731085,True,28,1
LZ-K-20K20S2,892,experiment,53,↓,down,↓,0.7647046998608857,True,28,1
LZ-K-20K20S2,893,experiment,92,↑,up,↑,0.41517089982517064,True,28,1
LZ-K-20K20S2,894,experiment,63,↑,up,↑,0.409851600183174,True,28,1
LZ-K-20K20S2,895,experiment,56,↑,down,↓,0.7657971000298858,False,28,1
LZ-K-20K20S2,896,experiment,74,→,right,→,0.5180492999497801,True,28,1
LZ-K-20K20S2,897,experiment,93,←,left,←,0.6260001000482589,True,28,1
LZ-K-20K20S2,898,experiment,102,←,left,←,0.5590596999973059,True,28,1
LZ-K-20K20S2,899,experiment,94,→,right,→,0.5209296001121402,True,28,1
LZ-K-20K20S2,900,experiment,104,↓,down,↓,0.6730565000325441,True,28,1
LZ-K-20K20S2,901,experiment,85,↑,up,↑,0.4493871999438852,True,28,1
LZ-K-20K20S2,902,experiment,49,←,left,←,0.4706859001889825,True,28,1
LZ-K-20K20S2,903,experiment,65,→,right,→,0.46986730000935495,True,28,1
LZ-K-20K20S2,904,experiment,90,→,right,→,0.6691610999405384,True,28,1
LZ-K-20K20S2,905,experiment,60,←,left,←,0.5579856000840664,True,28,1
LZ-K-20K20S2,906,experiment,96,↓,down,↓,0.6635173000395298,True,28,1
LZ-K-20K20S2,907,experiment,58,↑,up,↑,0.5931218999903649,True,28,1
LZ-K-20K20S2,908,experiment,98,↑,up,↑,0.5126579001080245,True,28,1
LZ-K-20K20S2,909,experiment,54,←,left,←,0.4975485000759363,True,28,1
LZ-K-20K20S2,910,experiment,51,←,left,←,0.40515520004555583,True,28,1
LZ-K-20K20S2,911,experiment,95,←,left,←,0.4120968000497669,True,28,0
LZ-K-20K20S2,912,experiment,55,←,left,←,0.6094216001220047,True,28,1
LZ-K-20K20S2,913,experiment,88,→,right,→,0.5072466998826712,True,28,1
LZ-K-20K20S2,914,experiment,50,↓,down,↓,0.7500539999455214,True,28,1
LZ-K-20K20S2,915,experiment,57,↑,up,↑,0.5253492000047117,True,28,1
LZ-K-20K20S2,916,experiment,87,→,right,→,0.5306122999172658,True,28,1
LZ-K-20K20S2,917,experiment,78,→,right,→,0.42688299994915724,True,28,1
LZ-K-20K20S2,918,experiment,62,←,left,←,0.46103949984535575,True,28,1
LZ-K-20K20S2,919,experiment,67,↓,down,↓,0.7880847998894751,True,28,1
LZ-K-20K20S2,920,experiment,61,↑,up,↑,1.0718106001149863,True,28,1
LZ-K-20K20S2,921,experiment,68,→,right,→,0.5338171999901533,True,28,1
LZ-K-20K20S2,922,experiment,84,←,left,←,0.5323252000380307,True,28,1
LZ-K-20K20S2,923,training,92,←,left,←,0.9832424998749048,True,28,0
LZ-K-20K20S2,924,training,87,→,left,←,0.3592233001254499,False,28,1
LZ-K-20K20S2,925,experiment,101,↓,down,↓,0.6658183999825269,True,28,0
LZ-K-20K20S2,926,experiment,104,→,right,→,0.5801162000279874,True,28,1
LZ-K-20K20S2,927,experiment,89,←,left,←,0.4232028000988066,True,28,1
LZ-K-20K20S2,928,experiment,80,↓,down,↓,0.8031720998696983,True,28,1
LZ-K-20K20S2,929,experiment,84,↓,down,↓,0.7108524001669139,True,28,1
LZ-K-20K20S2,930,experiment,67,→,right,→,0.5475932999979705,True,28,1
LZ-K-20K20S2,931,experiment,103,↑,up,↑,0.5231101999524981,True,28,1
LZ-K-20K20S2,932,experiment,78,↓,down,↓,0.6677076001651585,True,28,1
LZ-K-20K20S2,933,experiment,82,←,left,←,0.573185499990359,True,28,1
LZ-K-20K20S2,934,experiment,70,↓,down,↓,0.614739399868995,True,28,1
LZ-K-20K20S2,935,experiment,66,→,right,→,0.49619019986130297,True,28,1
LZ-K-20K20S2,936,experiment,72,↑,up,↑,0.675879699876532,True,28,1
LZ-K-20K20S2,937,experiment,94,→,right,→,0.5052738001104444,True,28,1
LZ-K-20K20S2,938,experiment,107,↑,up,↑,0.6246340998914093,True,28,1
LZ-K-20K20S2,939,experiment,60,↓,down,↓,0.8035124000161886,True,28,1
LZ-K-20K20S2,940,experiment,81,↑,up,↑,1.0080989999696612,True,28,1
LZ-K-20K20S2,941,experiment,102,↓,down,↓,0.7014643000438809,True,28,1
LZ-K-20K20S2,942,experiment,105,→,right,→,0.6544164998922497,True,28,1
LZ-K-20K20S2,943,experiment,74,↑,up,↑,0.5149350001011044,True,28,1
LZ-K-20K20S2,944,experiment,83,→,right,→,0.4346592000219971,True,28,1
LZ-K-20K20S2,945,experiment,76,→,right,→,0.567504100035876,True,28,1
LZ-K-20K20S2,946,experiment,79,←,left,←,0.5744146998040378,True,28,1
LZ-K-20K20S2,947,experiment,65,↑,up,↑,0.481266199843958,True,28,1
LZ-K-20K20S2,948,experiment,95,↓,down,↓,0.8859288000967354,True,28,1
LZ-K-20K20S2,949,experiment,62,←,left,←,0.5576786000747234,True,28,1
LZ-K-20K20S2,950,experiment,54,→,right,→,0.445314799901098,True,28,1
LZ-K-20K20S2,951,experiment,98,↑,up,↑,0.5786677999421954,True,28,1
LZ-K-20K20S2,952,experiment,88,↑,up,↑,0.43786800000816584,True,28,1
LZ-K-20K20S2,953,experiment,90,→,right,→,0.5899318000301719,True,28,1
LZ-K-20K20S2,954,experiment,51,↑,up,↑,0.5330107999034226,True,28,1
LZ-K-20K20S2,955,experiment,55,←,left,←,0.6530632998328656,True,28,1
LZ-K-20K20S2,956,experiment,91,→,right,→,0.5004873999860138,True,28,1
LZ-K-20K20S2,957,experiment,85,→,right,→,0.42786649987101555,True,28,1
LZ-K-20K20S2,958,experiment,75,↓,down,↓,0.8255640999414027,True,28,1
LZ-K-20K20S2,959,experiment,71,→,right,→,0.5526254000142217,True,28,1
LZ-K-20K20S2,960,experiment,58,↑,up,↑,0.4552618998568505,True,28,1
LZ-K-20K20S2,961,experiment,52,↓,down,↓,0.8194807998370379,True,28,1
LZ-K-20K20S2,962,experiment,56,←,left,←,0.5835885999258608,True,28,1
LZ-K-20K20S2,963,experiment,108,←,left,←,0.5317228001076728,True,28,1
LZ-K-20K20S2,964,experiment,48,←,left,←,0.5585590000264347,True,28,1
LZ-K-20K20S2,965,experiment,57,→,right,→,0.7328987999353558,True,28,1
LZ-K-20K20S2,966,experiment,49,↓,down,↓,0.7668695000465959,True,28,1
LZ-K-20K20S2,967,experiment,69,←,left,←,0.464838300133124,True,28,1
LZ-K-20K20S2,968,experiment,64,↓,down,↓,0.7605406998191029,True,28,1
LZ-K-20K20S2,969,experiment,96,→,right,→,0.48205069988034666,True,28,1
LZ-K-20K20S2,970,experiment,106,→,right,→,0.49932339997030795,True,28,1
LZ-K-20K20S2,971,experiment,99,←,left,←,0.4937781998887658,True,28,1
LZ-K-20K20S2,972,experiment,53,→,right,→,0.6007552999071777,True,28,1
LZ-K-20K20S2,973,experiment,50,↑,up,↑,0.6233606999740005,True,28,1
LZ-K-20K20S2,974,experiment,93,↓,down,↓,0.7511563000734895,True,28,1
LZ-K-20K20S2,975,experiment,73,→,right,→,0.49636980006471276,True,28,1
LZ-K-20K20S2,976,experiment,100,→,right,→,0.5711555001325905,True,28,1
LZ-K-20K20S2,977,experiment,92,↓,down,↓,0.6771571000572294,True,28,1
LZ-K-20K20S2,978,experiment,97,←,right,→,0.5775138998869807,False,28,1
LZ-K-20K20S2,979,experiment,77,↑,up,↑,0.4809697000309825,True,28,1
LZ-K-20K20S2,980,experiment,87,→,right,→,0.48803870007395744,True,28,1
LZ-K-20K20S2,981,experiment,63,↓,down,↓,0.7910989001393318,True,28,1
LZ-K-20K20S2,982,experiment,61,→,right,→,0.8669920000247657,True,28,1
LZ-K-20K20S2,983,experiment,59,↓,down,↓,0.7242479000706226,True,28,1
LZ-K-20K20S2,984,experiment,68,↓,down,↓,0.5929034999571741,True,28,1
LZ-K-20K20S2,985,experiment,86,←,left,←,0.4516116001177579,True,28,1
LZ-K-20K20S2,986,training,93,←,left,←,0.6546128999907523,True,28,0
LZ-K-20K20S2,987,training,102,↑,up,↑,0.5619679999072105,True,28,1
LZ-K-20K20S2,988,experiment,99,↑,up,↑,0.5543474999722093,True,28,1
LZ-K-20K20S2,989,experiment,49,↓,down,↓,0.7153109998907894,True,28,1
LZ-K-20K20S2,990,experiment,76,↓,down,↓,0.8929347998928279,True,28,1
LZ-K-20K20S2,991,experiment,52,↑,up,↑,0.42462099995464087,True,28,1
LZ-K-20K20S2,992,experiment,83,↑,up,↑,0.3589629998896271,True,28,1
LZ-K-20K20S2,993,experiment,61,←,left,←,0.4477095000911504,True,28,0
LZ-K-20K20S2,994,experiment,73,↓,down,↓,0.8132646000012755,True,28,1
LZ-K-20K20S2,995,experiment,96,←,left,←,0.45240599988028407,True,28,1
LZ-K-20K20S2,996,experiment,98,↑,up,↑,0.633733700029552,True,28,1
LZ-K-20K20S2,997,experiment,82,↓,down,↓,0.7480840999633074,True,28,1
LZ-K-20K20S2,998,experiment,50,←,left,←,0.66131899994798,True,28,1
LZ-K-20K20S2,999,experiment,75,←,left,←,0.46568779996596277,True,28,1
LZ-K-20K20S2,1000,experiment,95,↓,down,↓,0.7512138998135924,True,28,1
LZ-K-20K20S2,1001,experiment,103,→,right,→,0.726540100062266,True,28,1
LZ-K-20K20S2,1002,experiment,64,→,right,→,0.4439802998676896,True,28,1
LZ-K-20K20S2,1003,experiment,62,←,left,←,0.5974672001320869,True,28,1
LZ-K-20K20S2,1004,experiment,81,↑,up,↑,0.5619528000243008,True,28,1
LZ-K-20K20S2,1005,experiment,65,←,left,←,0.41405260004103184,True,28,1
LZ-K-20K20S2,1006,experiment,89,↑,up,↑,0.5992721000220627,True,28,1
LZ-K-20K20S2,1007,experiment,70,→,right,→,0.42366739991120994,True,28,1
LZ-K-20K20S2,1008,experiment,84,↓,down,↓,0.794221900170669,True,28,1
LZ-K-20K20S2,1009,experiment,97,↓,down,↓,0.8339881000574678,True,28,1
LZ-K-20K20S2,1010,experiment,69,↓,down,↓,0.6574321000371128,True,28,1
LZ-K-20K20S2,1011,experiment,63,←,left,←,0.5616933999117464,True,28,1
LZ-K-20K20S2,1012,experiment,72,→,right,→,0.41205810010433197,True,28,1
LZ-K-20K20S2,1013,experiment,90,↑,up,↑,0.40470800013281405,True,28,1
LZ-K-20K20S2,1014,experiment,101,↑,up,↑,0.6020169998519123,True,28,0
LZ-K-20K20S2,1015,experiment,79,↑,up,↑,0.4156667999923229,True,28,1
LZ-K-20K20S2,1016,experiment,88,↑,up,↑,0.5291106998920441,True,28,1
LZ-K-20K20S2,1017,experiment,59,↓,down,↓,0.5362943999934942,True,28,1
LZ-K-20K20S2,1018,experiment,71,↓,down,↓,0.5788598000071943,True,28,1
LZ-K-20K20S2,1019,experiment,53,←,left,←,0.4186411998234689,True,28,1
LZ-K-20K20S2,1020,experiment,51,→,right,→,0.7843893999233842,True,28,1
LZ-K-20K20S2,1021,experiment,68,↓,down,↓,0.8813372999429703,True,28,1
LZ-K-20K20S2,1022,experiment,100,↑,up,↑,0.492644099984318,True,28,1
LZ-K-20K20S2,1023,experiment,85,↓,down,↓,0.7243276999797672,True,28,1
LZ-K-20K20S2,1024,experiment,66,↓,down,↓,0.6248626001179218,True,28,1
LZ-K-20K20S2,1025,experiment,102,←,left,←,0.45360789983533323,True,28,1
LZ-K-20K20S2,1026,experiment,77,↓,down,↓,0.6818172999192029,True,28,1
LZ-K-20K20S2,1027,experiment,106,↓,down,↓,0.698690899880603,True,28,1
LZ-K-20K20S2,1028,experiment,67,→,right,→,0.6160665999632329,True,28,1
LZ-K-20K20S2,1029,experiment,92,→,right,→,0.5605063999537379,True,28,1
LZ-K-20K20S2,1030,experiment,87,←,left,←,0.6927886998746544,True,28,1
LZ-K-20K20S2,1031,experiment,104,→,right,→,0.5821261999662966,True,28,1
LZ-K-20K20S2,1032,experiment,55,↑,up,↑,0.4364795999135822,True,28,1
LZ-K-20K20S2,1033,experiment,56,←,left,←,0.41691090003587306,True,28,1
LZ-K-20K20S2,1034,experiment,93,→,right,→,0.6322405999526381,True,28,1
LZ-K-20K20S2,1035,experiment,54,←,left,←,0.6204847998451442,True,28,1
LZ-K-20K20S2,1036,experiment,105,→,right,→,0.4964809000957757,True,28,1
LZ-K-20K20S2,1037,experiment,60,←,left,←,0.4244135001208633,True,28,1
LZ-K-20K20S2,1038,experiment,48,→,right,→,0.5271552999038249,True,28,1
LZ-K-20K20S2,1039,experiment,78,←,left,←,0.6477642001118511,True,28,1
LZ-K-20K20S2,1040,experiment,94,→,right,→,0.64637909992598,True,28,1
LZ-K-20K20S2,1041,experiment,107,←,left,←,0.5521917000878602,True,28,1
LZ-K-20K20S2,1042,experiment,58,↑,up,↑,0.5026390000712126,True,28,1
LZ-K-20K20S2,1043,experiment,108,↑,up,↑,0.6145997000858188,True,28,1
LZ-K-20K20S2,1044,experiment,74,←,left,←,0.5651637997943908,True,28,1
LZ-K-20K20S2,1045,experiment,57,↑,up,↑,0.5069744999054819,True,28,1
LZ-K-20K20S2,1046,experiment,86,→,right,→,0.6175720000173897,True,28,1
LZ-K-20K20S2,1047,experiment,91,↑,up,↑,0.4420401998795569,True,28,1
LZ-K-20K20S2,1048,experiment,80,↓,down,↓,0.6296894999686629,True,28,1
LZ-K-20K20S2,1049,training,52,→,right,→,0.45126980007626116,True,28,0
LZ-K-20K20S2,1050,training,53,←,left,←,0.42370739998295903,True,28,1
LZ-K-20K20S2,1051,experiment,69,←,left,←,0.41548880003392696,True,28,1
LZ-K-20K20S2,1052,experiment,93,←,left,←,0.5673183999024332,True,28,1
LZ-K-20K20S2,1053,experiment,59,↓,down,↓,0.7008148999884725,True,28,1
LZ-K-20K20S2,1054,experiment,88,←,left,←,0.5789020000956953,True,28,1
LZ-K-20K20S2,1055,experiment,85,←,left,←,0.5195239000022411,True,28,1
LZ-K-20K20S2,1056,experiment,78,←,left,←,0.5122871999628842,True,28,1
LZ-K-20K20S2,1057,experiment,81,→,right,→,0.4805719999130815,True,28,1
LZ-K-20K20S2,1058,experiment,107,→,right,→,0.5453853998333216,True,28,1
LZ-K-20K20S2,1059,experiment,49,→,right,→,0.5550512000918388,True,28,1
LZ-K-20K20S2,1060,experiment,90,←,left,←,0.5503320000134408,True,28,1
LZ-K-20K20S2,1061,experiment,77,→,right,→,1.206528800074011,True,28,1
LZ-K-20K20S2,1062,experiment,92,→,right,→,0.5752030999865383,True,28,1
LZ-K-20K20S2,1063,experiment,96,↓,down,↓,0.6317036000546068,True,28,1
LZ-K-20K20S2,1064,experiment,80,←,left,←,0.47561849979683757,True,28,1
LZ-K-20K20S2,1065,experiment,98,←,left,←,0.5594495998229831,True,28,1
LZ-K-20K20S2,1066,experiment,84,↑,up,↑,0.6368955001235008,True,28,1
LZ-K-20K20S2,1067,experiment,50,→,right,→,0.44237939990125597,True,28,1
LZ-K-20K20S2,1068,experiment,102,→,right,→,0.4466427001170814,True,28,1
LZ-K-20K20S2,1069,experiment,105,↑,up,↑,0.48110869992524385,True,28,1
LZ-K-20K20S2,1070,experiment,108,↑,up,↑,0.5775518000591546,True,28,1
LZ-K-20K20S2,1071,experiment,52,←,left,←,0.5369305999483913,True,28,1
LZ-K-20K20S2,1072,experiment,94,→,right,→,0.4760773000307381,True,28,1
LZ-K-20K20S2,1073,experiment,101,↓,down,↓,0.6789904998149723,True,28,1
LZ-K-20K20S2,1074,experiment,86,↓,down,↓,0.5510235999245197,True,28,1
LZ-K-20K20S2,1075,experiment,53,←,left,←,0.36807060008868575,True,28,1
LZ-K-20K20S2,1076,experiment,72,←,left,←,0.5115218001883477,True,28,0
LZ-K-20K20S2,1077,experiment,73,→,right,→,0.7308129998855293,True,28,1
LZ-K-20K20S2,1078,experiment,68,→,right,→,0.4625362998340279,True,28,1
LZ-K-20K20S2,1079,experiment,103,↓,down,↓,0.6251161999534816,True,28,1
LZ-K-20K20S2,1080,experiment,65,←,right,→,0.7141311999876052,False,28,1
LZ-K-20K20S2,1081,experiment,106,↑,up,↑,0.48162700003013015,True,28,1
LZ-K-20K20S2,1082,experiment,104,←,left,←,0.4515831000171602,True,28,1
LZ-K-20K20S2,1083,experiment,71,→,right,→,0.6656448999419808,True,28,1
LZ-K-20K20S2,1084,experiment,51,↓,down,↓,0.741730900015682,True,28,1
LZ-K-20K20S2,1085,experiment,58,↓,down,↓,0.8046244001016021,True,28,1
LZ-K-20K20S2,1086,experiment,76,←,left,←,0.5144464999902993,True,28,1
LZ-K-20K20S2,1087,experiment,63,←,left,←,0.38385760015808046,True,28,1
LZ-K-20K20S2,1088,experiment,99,↓,down,↓,0.7356583999935538,True,28,0
LZ-K-20K20S2,1089,experiment,95,↓,down,↓,0.7140992998611182,True,28,1
LZ-K-20K20S2,1090,experiment,83,→,right,→,0.6175885000266135,True,28,1
LZ-K-20K20S2,1091,experiment,70,←,left,←,0.43364190007559955,True,28,1
LZ-K-20K20S2,1092,experiment,60,↓,down,↓,0.6597223998978734,True,28,1
LZ-K-20K20S2,1093,experiment,79,↑,up,↑,0.7747693001292646,True,28,1
LZ-K-20K20S2,1094,experiment,64,→,right,→,0.762252900050953,True,28,1
LZ-K-20K20S2,1095,experiment,87,←,left,←,0.40668109990656376,True,28,1
LZ-K-20K20S2,1096,experiment,82,←,left,←,0.350922399898991,True,28,0
LZ-K-20K20S2,1097,experiment,57,←,left,←,0.42501959996297956,True,28,0
LZ-K-20K20S2,1098,experiment,91,↓,down,↓,0.7852258998900652,True,28,1
LZ-K-20K20S2,1099,experiment,74,←,up,↑,0.4809343998786062,False,28,1
LZ-K-20K20S2,1100,experiment,54,→,right,→,0.61151840002276,True,28,1
LZ-K-20K20S2,1101,experiment,97,↓,down,↓,0.7704829000867903,True,28,1
LZ-K-20K20S2,1102,experiment,67,→,right,→,0.5091176999267191,True,28,1
LZ-K-20K20S2,1103,experiment,48,↓,down,↓,0.817013599909842,True,28,1
LZ-K-20K20S2,1104,experiment,89,←,left,←,0.5620263000018895,True,28,1
LZ-K-20K20S2,1105,experiment,61,↓,down,↓,0.6231501000002027,True,28,1
LZ-K-20K20S2,1106,experiment,66,↓,down,↓,0.6799143999814987,True,28,1
LZ-K-20K20S2,1107,experiment,55,↓,down,↓,0.6101434000302106,True,28,1
LZ-K-20K20S2,1108,experiment,56,→,right,→,0.47072599991224706,True,28,1
LZ-K-20K20S2,1109,experiment,100,→,right,→,0.547335600014776,True,28,1
LZ-K-20K20S2,1110,experiment,75,→,right,→,0.367203600006178,True,28,1
LZ-K-20K20S2,1111,experiment,62,←,left,←,0.4164975001476705,True,28,0
LZ-K-20K20S2,1112,training,88,←,left,←,0.46184740005992353,True,28,0
LZ-K-20K20S2,1113,training,82,↓,down,↓,0.7998669999651611,True,28,1
LZ-K-20K20S2,1114,experiment,66,→,right,→,0.5056860998738557,True,28,1
LZ-K-20K20S2,1115,experiment,91,↑,up,↑,0.6472989998292178,True,28,1
LZ-K-20K20S2,1116,experiment,98,→,right,→,0.563841300085187,True,28,1
LZ-K-20K20S2,1117,experiment,103,→,right,→,0.5463590000290424,True,28,1
LZ-K-20K20S2,1118,experiment,82,←,right,→,0.6487956000491977,False,28,1
LZ-K-20K20S2,1119,experiment,61,←,left,←,0.3757446000818163,True,28,1
LZ-K-20K20S2,1120,experiment,59,↑,up,↑,0.5509396002162248,True,28,0
LZ-K-20K20S2,1121,experiment,51,↑,up,↑,0.487946999957785,True,28,1
LZ-K-20K20S2,1122,experiment,88,↓,down,↓,0.6469793000724167,True,28,1
LZ-K-20K20S2,1123,experiment,54,↑,up,↑,0.5144245000556111,True,28,1
LZ-K-20K20S2,1124,experiment,96,→,right,→,0.6212843998800963,True,28,1
LZ-K-20K20S2,1125,experiment,108,↓,down,↓,0.7761340001598,True,28,1
LZ-K-20K20S2,1126,experiment,104,←,left,←,0.5899088999722153,True,28,1
LZ-K-20K20S2,1127,experiment,77,↑,up,↑,0.5247598001733422,True,28,1
LZ-K-20K20S2,1128,experiment,62,→,right,→,0.4984277000185102,True,28,1
LZ-K-20K20S2,1129,experiment,56,↓,down,↓,0.5237016000319272,True,28,1
LZ-K-20K20S2,1130,experiment,102,←,left,←,0.44446170004084706,True,28,1
LZ-K-20K20S2,1131,experiment,78,→,right,→,0.5124480000231415,True,28,1
LZ-K-20K20S2,1132,experiment,49,↓,down,↓,0.7549972000997514,True,28,1
LZ-K-20K20S2,1133,experiment,92,↑,up,↑,0.5176866000983864,True,28,1
LZ-K-20K20S2,1134,experiment,60,→,right,→,0.4608547000680119,True,28,1
LZ-K-20K20S2,1135,experiment,71,←,left,←,0.4186386000365019,True,28,1
LZ-K-20K20S2,1136,experiment,107,→,right,→,0.565982999978587,True,28,1
LZ-K-20K20S2,1137,experiment,70,↑,up,↑,0.6077535999938846,True,28,1
LZ-K-20K20S2,1138,experiment,83,↓,down,↓,0.7555042998865247,True,28,1
LZ-K-20K20S2,1139,experiment,85,↓,down,↓,0.632687599863857,True,28,1
LZ-K-20K20S2,1140,experiment,80,←,left,←,0.5963210999034345,True,28,1
LZ-K-20K20S2,1141,experiment,79,↑,up,↑,0.4815936000086367,True,28,1
LZ-K-20K20S2,1142,experiment,94,↓,down,↓,0.7746892001014203,True,28,1
LZ-K-20K20S2,1143,experiment,100,←,left,←,0.4223299000877887,True,28,1
LZ-K-20K20S2,1144,experiment,106,←,left,←,0.5451835000421852,True,28,1
LZ-K-20K20S2,1145,experiment,75,↓,down,↓,0.7143715999554843,True,28,1
LZ-K-20K20S2,1146,experiment,74,←,left,←,0.47679710015654564,True,28,1
LZ-K-20K20S2,1147,experiment,53,←,left,←,0.424131799954921,True,28,1
LZ-K-20K20S2,1148,experiment,101,↓,down,↓,0.6848593999166042,True,28,1
LZ-K-20K20S2,1149,experiment,99,←,left,←,0.44052039994858205,True,28,1
LZ-K-20K20S2,1150,experiment,87,↓,down,↓,0.6816342000383884,True,28,1
LZ-K-20K20S2,1151,experiment,52,←,left,←,0.43654790008440614,True,28,1
LZ-K-20K20S2,1152,experiment,95,↓,down,↓,0.6912416000850499,True,28,1
LZ-K-20K20S2,1153,experiment,63,↓,down,↓,0.6663291999138892,True,28,1
LZ-K-20K20S2,1154,experiment,84,→,right,→,0.7474783000070602,True,28,1
LZ-K-20K20S2,1155,experiment,97,←,left,←,0.7086777000222355,True,28,1
LZ-K-20K20S2,1156,experiment,55,↑,up,↑,0.8137018999550492,True,28,1
LZ-K-20K20S2,1157,experiment,86,←,left,←,1.288121699821204,True,28,1
LZ-K-20K20S2,1158,experiment,73,←,left,←,0.4125590000767261,True,28,1
LZ-K-20K20S2,1159,experiment,105,↑,up,↑,0.4246554998680949,True,28,1
LZ-K-20K20S2,1160,experiment,57,↑,up,↑,0.42006639996543527,True,28,1
LZ-K-20K20S2,1161,experiment,65,→,right,→,0.4613773999735713,True,28,1
LZ-K-20K20S2,1162,experiment,68,→,right,→,1.1162133000325412,True,28,1
LZ-K-20K20S2,1163,experiment,89,←,left,←,0.46535700000822544,True,28,1
LZ-K-20K20S2,1164,experiment,67,↓,down,↓,0.6321126001421362,True,28,1
LZ-K-20K20S2,1165,experiment,76,↓,down,↓,0.7253143000416458,True,28,1
LZ-K-20K20S2,1166,experiment,93,→,right,→,0.4173024999909103,True,28,1
LZ-K-20K20S2,1167,experiment,48,↓,down,↓,0.7121344998013228,True,28,1
LZ-K-20K20S2,1168,experiment,69,↑,up,↑,0.44465620000846684,True,28,1
LZ-K-20K20S2,1169,experiment,81,→,right,→,0.5915045998990536,True,28,1
LZ-K-20K20S2,1170,experiment,64,←,left,←,0.4106704001314938,True,28,1
LZ-K-20K20S2,1171,experiment,50,←,left,←,0.6329709999263287,True,28,1
LZ-K-20K20S2,1172,experiment,72,↑,up,↑,1.1592676001600921,True,28,1
LZ-K-20K20S2,1173,experiment,90,↑,up,↑,0.6188913001678884,True,28,1
LZ-K-20K20S2,1174,experiment,58,↑,up,↑,0.414676999906078,True,28,1
LZ-K-20K20S2,1175,training,89,←,left,←,0.4682326999027282,True,28,0
LZ-K-20K20S2,1176,training,59,→,right,→,0.49352119979448617,True,28,1
LZ-K-20K20S2,1177,experiment,48,↓,down,↓,0.6177139000501484,True,28,1
LZ-K-20K20S2,1178,experiment,87,←,left,←,0.7875170998740941,True,28,1
LZ-K-20K20S2,1179,experiment,86,←,left,←,1.0715928000863642,True,28,1
LZ-K-20K20S2,1180,experiment,53,→,right,→,0.44277510000392795,True,28,1
LZ-K-20K20S2,1181,experiment,57,→,right,→,0.38338589994236827,True,28,1
LZ-K-20K20S2,1182,experiment,75,→,right,→,1.0443311999551952,True,28,0
LZ-K-20K20S2,1183,experiment,71,↓,down,↓,0.818753199884668,True,28,1
LZ-K-20K20S2,1184,experiment,66,↓,down,↓,0.5318658000323921,True,28,1
LZ-K-20K20S2,1185,experiment,55,↓,down,↓,0.6838181000202894,True,28,1
LZ-K-20K20S2,1186,experiment,69,↓,down,↓,0.673485100036487,True,28,1
LZ-K-20K20S2,1187,experiment,104,↓,down,↓,0.6112991000991315,True,28,1
LZ-K-20K20S2,1188,experiment,85,←,left,←,1.0621803998947144,True,28,1
LZ-K-20K20S2,1189,experiment,78,↓,down,↓,0.5860576000995934,True,28,1
LZ-K-20K20S2,1190,experiment,54,→,right,→,0.5680611999705434,True,28,1
LZ-K-20K20S2,1191,experiment,91,↓,down,↓,0.6108180000446737,True,28,1
LZ-K-20K20S2,1192,experiment,107,←,left,←,0.5504558000247926,True,28,1
LZ-K-20K20S2,1193,experiment,99,↑,up,↑,0.44726809998974204,True,28,1
LZ-K-20K20S2,1194,experiment,80,→,right,→,0.410215700045228,True,28,1
LZ-K-20K20S2,1195,experiment,93,↓,down,↓,0.835143500007689,True,28,1
LZ-K-20K20S2,1196,experiment,49,←,left,←,0.5129249000456184,True,28,1
LZ-K-20K20S2,1197,experiment,65,←,left,←,0.6146897999569774,True,28,1
LZ-K-20K20S2,1198,experiment,60,→,right,→,0.47359530022367835,True,28,1
LZ-K-20K20S2,1199,experiment,98,←,left,←,0.4220624000299722,True,28,1
LZ-K-20K20S2,1200,experiment,58,↓,down,↓,0.5770180998370051,True,28,1
LZ-K-20K20S2,1201,experiment,50,→,right,→,0.4176167999394238,True,28,1
LZ-K-20K20S2,1202,experiment,63,↑,up,↑,0.4912908000405878,True,28,1
LZ-K-20K20S2,1203,experiment,70,↑,left,←,1.2481444999575615,False,28,1
LZ-K-20K20S2,1204,experiment,64,↓,down,↓,0.7603178001008928,True,28,1
LZ-K-20K20S2,1205,experiment,82,↑,up,↑,0.6623500999994576,True,28,1
LZ-K-20K20S2,1206,experiment,101,↑,up,↑,1.0181358000263572,True,28,1
LZ-K-20K20S2,1207,experiment,76,↑,up,↑,0.5516941000241786,True,28,1
LZ-K-20K20S2,1208,experiment,61,→,right,→,0.7012777999043465,True,28,1
LZ-K-20K20S2,1209,experiment,73,↓,down,↓,0.5845589998643845,True,28,1
LZ-K-20K20S2,1210,experiment,81,↓,down,↓,0.6223307000473142,True,28,1
LZ-K-20K20S2,1211,experiment,67,→,right,→,0.9982002999167889,True,28,1
LZ-K-20K20S2,1212,experiment,95,←,left,←,0.46227189991623163,True,28,1
LZ-K-20K20S2,1213,experiment,96,↑,up,↑,0.47581290011294186,True,28,1
LZ-K-20K20S2,1214,experiment,100,↑,up,↑,0.4238073001615703,True,28,1
LZ-K-20K20S2,1215,experiment,77,→,right,→,0.5242079000454396,True,28,1
LZ-K-20K20S2,1216,experiment,74,→,right,→,0.42242030007764697,True,28,1
LZ-K-20K20S2,1217,experiment,90,↑,up,↑,0.4709400001447648,True,28,1
LZ-K-20K20S2,1218,experiment,103,↑,up,↑,0.47387939994223416,True,28,1
LZ-K-20K20S2,1219,experiment,62,←,left,←,0.5937328999862075,True,28,1
LZ-K-20K20S2,1220,experiment,79,→,right,→,0.559582700021565,True,28,1
LZ-K-20K20S2,1221,experiment,106,→,left,←,0.8695241999812424,False,28,1
LZ-K-20K20S2,1222,experiment,68,↑,up,↑,0.4358367999084294,True,28,1
LZ-K-20K20S2,1223,experiment,105,↓,down,↓,0.6633200999349356,True,28,1
LZ-K-20K20S2,1224,experiment,92,→,right,→,0.406413699965924,True,28,1
LZ-K-20K20S2,1225,experiment,88,←,left,←,0.5517337000928819,True,28,1
LZ-K-20K20S2,1226,experiment,94,→,right,→,0.3843557999935001,True,28,1
LZ-K-20K20S2,1227,experiment,59,→,right,→,0.4944668000098318,True,28,0
LZ-K-20K20S2,1228,experiment,84,↑,up,↑,0.5505952001549304,True,28,1
LZ-K-20K20S2,1229,experiment,52,→,right,→,0.408280499977991,True,28,1
LZ-K-20K20S2,1230,experiment,102,↑,up,↑,0.6281067000236362,True,28,1
LZ-K-20K20S2,1231,experiment,97,←,left,←,0.38416889985091984,True,28,1
LZ-K-20K20S2,1232,experiment,56,↓,down,↓,0.5518441998865455,True,28,0
LZ-K-20K20S2,1233,experiment,51,→,right,→,0.4013683998491615,True,28,1
LZ-K-20K20S2,1234,experiment,89,→,right,→,0.5226373998448253,True,28,0
LZ-K-20K20S2,1235,experiment,83,↑,up,↑,0.529660000000149,True,28,1
LZ-K-20K20S2,1236,experiment,72,→,right,→,0.7397176998201758,True,28,1
LZ-K-20K20S2,1237,experiment,108,←,left,←,0.537858699914068,True,28,1
LZ-K-20K20S2,1238,training,50,→,right,→,0.4363166999537498,True,28,0
LZ-K-20K20S2,1239,training,65,↑,up,↑,0.6207976001314819,True,28,1
LZ-K-20K20S2,1240,experiment,70,↑,up,↑,0.4606224000453949,True,28,1
LZ-K-20K20S2,1241,experiment,107,↑,up,↑,1.3502851999364793,True,28,1
LZ-K-20K20S2,1242,experiment,78,↑,up,↑,1.254012499935925,True,28,1
LZ-K-20K20S2,1243,experiment,86,←,left,←,0.726787299849093,True,28,1
LZ-K-20K20S2,1244,experiment,75,←,left,←,0.48022609995678067,True,28,1
LZ-K-20K20S2,1245,experiment,99,↓,down,↓,0.5797227998264134,True,28,1
LZ-K-20K20S2,1246,experiment,91,↓,down,↓,0.47031469992361963,True,28,1
LZ-K-20K20S2,1247,experiment,53,↓,down,↓,0.5455312998965383,True,28,1
LZ-K-20K20S2,1248,experiment,55,↑,up,↑,0.47326200013048947,True,28,1
LZ-K-20K20S2,1249,experiment,48,←,left,←,0.40732720005325973,True,28,1
LZ-K-20K20S2,1250,experiment,92,↑,up,↑,0.4309910999145359,True,28,1
LZ-K-20K20S2,1251,experiment,88,←,right,→,0.5439857000019401,False,28,1
LZ-K-20K20S2,1252,experiment,85,↑,up,↑,0.5495193998795003,True,28,1
LZ-K-20K20S2,1253,experiment,102,↓,left,←,1.0852779999841005,False,28,1
LZ-K-20K20S2,1254,experiment,58,→,right,→,0.4785253999289125,True,28,1
LZ-K-20K20S2,1255,experiment,69,←,left,←,0.43636019993573427,True,28,1
LZ-K-20K20S2,1256,experiment,65,→,right,→,0.549100800184533,True,28,1
LZ-K-20K20S2,1257,experiment,54,↓,down,↓,0.6528384999837726,True,28,1
LZ-K-20K20S2,1258,experiment,79,↓,down,↓,0.7438960000872612,True,28,1
LZ-K-20K20S2,1259,experiment,81,↓,left,←,0.4950490000192076,False,28,1
LZ-K-20K20S2,1260,experiment,59,↓,down,↓,0.5998140000738204,True,28,1
LZ-K-20K20S2,1261,experiment,103,→,right,→,0.6769317998550832,True,28,1
LZ-K-20K20S2,1262,experiment,49,←,left,←,0.4732596999965608,True,28,1
LZ-K-20K20S2,1263,experiment,93,↓,down,↓,0.5188049001153558,True,28,1
LZ-K-20K20S2,1264,experiment,106,→,right,→,0.574844699818641,True,28,1
LZ-K-20K20S2,1265,experiment,68,↑,up,↑,0.6087468999903649,True,28,1
LZ-K-20K20S2,1266,experiment,96,↓,down,↓,0.5441993998829275,True,28,1
LZ-K-20K20S2,1267,experiment,73,←,left,←,0.5779567998833954,True,28,1
LZ-K-20K20S2,1268,experiment,87,↑,up,↑,0.44572289986535907,True,28,1
LZ-K-20K20S2,1269,experiment,61,→,right,→,0.45497409999370575,True,28,1
LZ-K-20K20S2,1270,experiment,90,←,left,←,0.5583564001135528,True,28,1
LZ-K-20K20S2,1271,experiment,64,←,left,←,0.5865658998955041,True,28,1
LZ-K-20K20S2,1272,experiment,52,↓,down,↓,0.6735995998606086,True,28,1
LZ-K-20K20S2,1273,experiment,98,↓,down,↓,0.5016456998419017,True,28,1
LZ-K-20K20S2,1274,experiment,82,↓,down,↓,0.629963600076735,True,28,1
LZ-K-20K20S2,1275,experiment,63,→,right,→,0.7113856000360101,True,28,1
LZ-K-20K20S2,1276,experiment,104,↑,up,↑,0.4961007998790592,True,28,1
LZ-K-20K20S2,1277,experiment,97,↓,down,↓,0.5561971000861377,True,28,1
LZ-K-20K20S2,1278,experiment,108,↑,up,↑,0.513196799904108,True,28,1
LZ-K-20K20S2,1279,experiment,71,↓,down,↓,0.6602056999690831,True,28,1
LZ-K-20K20S2,1280,experiment,83,→,right,→,0.4066158998757601,True,28,1
LZ-K-20K20S2,1281,experiment,72,↓,down,↓,0.6294750000815839,True,28,0
LZ-K-20K20S2,1282,experiment,66,↓,down,↓,0.6141323000192642,True,28,1
LZ-K-20K20S2,1283,experiment,51,←,left,←,0.4601961001753807,True,28,1
LZ-K-20K20S2,1284,experiment,80,←,left,←,0.43895229999907315,True,28,1
LZ-K-20K20S2,1285,experiment,76,↓,down,↓,0.49165400001220405,True,28,1
LZ-K-20K20S2,1286,experiment,95,↓,down,↓,0.5681362999603152,True,28,1
LZ-K-20K20S2,1287,experiment,77,↓,down,↓,0.5035431000869721,True,28,1
LZ-K-20K20S2,1288,experiment,101,←,left,←,0.40226120012812316,True,28,1
LZ-K-20K20S2,1289,experiment,105,↓,down,↓,0.622208199929446,True,28,0
LZ-K-20K20S2,1290,experiment,56,→,right,→,0.6262070001102984,True,28,1
LZ-K-20K20S2,1291,experiment,62,←,left,←,0.5880746999755502,True,28,1
LZ-K-20K20S2,1292,experiment,94,←,left,←,0.5249057000037283,True,28,1
LZ-K-20K20S2,1293,experiment,57,↓,down,↓,0.6130056998226792,True,28,1
LZ-K-20K20S2,1294,experiment,84,→,right,→,0.4400069999974221,True,28,1
LZ-K-20K20S2,1295,experiment,74,↓,down,↓,0.5093724001199007,True,28,1
LZ-K-20K20S2,1296,experiment,89,→,right,→,0.5081652998924255,True,28,1
LZ-K-20K20S2,1297,experiment,50,←,left,←,0.6937900001648813,True,28,1
LZ-K-20K20S2,1298,experiment,100,↑,up,↑,0.5605703999754041,True,28,1
LZ-K-20K20S2,1299,experiment,67,↑,up,↑,0.41245469986461103,True,28,1
LZ-K-20K20S2,1300,experiment,60,←,left,←,0.6867992000188679,True,28,1
LZ-K-20K20S2,1301,training,55,←,left,←,0.6609483999200165,True,28,0
LZ-K-20K20S2,1302,training,103,→,right,→,0.45582640008069575,True,28,1
LZ-K-20K20S2,1303,experiment,48,↓,down,↓,0.5572681999765337,True,28,1
LZ-K-20K20S2,1304,experiment,107,←,left,←,0.4752304998692125,True,28,1
LZ-K-20K20S2,1305,experiment,91,↑,up,↑,0.6656203998718411,True,28,1
LZ-K-20K20S2,1306,experiment,78,←,left,←,0.4684330001473427,True,28,1
LZ-K-20K20S2,1307,experiment,96,↓,down,↓,0.5294967000372708,True,28,1
LZ-K-20K20S2,1308,experiment,95,→,right,→,0.45219799992628396,True,28,1
LZ-K-20K20S2,1309,experiment,68,↓,down,↓,0.7232599998824298,True,28,1
LZ-K-20K20S2,1310,experiment,54,→,right,→,0.5803153999149799,True,28,1
LZ-K-20K20S2,1311,experiment,77,↓,down,↓,0.5870003998279572,True,28,1
LZ-K-20K20S2,1312,experiment,102,→,right,→,0.529229000210762,True,28,1
LZ-K-20K20S2,1313,experiment,73,→,right,→,0.5238124001771212,True,28,1
LZ-K-20K20S2,1314,experiment,76,↑,up,↑,0.6451458998490125,True,28,1
LZ-K-20K20S2,1315,experiment,64,↑,up,↑,0.47774260002188385,True,28,1
LZ-K-20K20S2,1316,experiment,57,↓,down,↓,0.5917640998959541,True,28,1
LZ-K-20K20S2,1317,experiment,61,←,left,←,0.5873122999910265,True,28,1
LZ-K-20K20S2,1318,experiment,67,←,left,←,0.5495048000011593,True,28,1
LZ-K-20K20S2,1319,experiment,85,↑,up,↑,0.4746822000015527,True,28,1
LZ-K-20K20S2,1320,experiment,62,↑,up,↑,0.5549652001354843,True,28,1
LZ-K-20K20S2,1321,experiment,49,→,right,→,0.5558711998164654,True,28,1
LZ-K-20K20S2,1322,experiment,106,↑,up,↑,0.4025343998800963,True,28,1
LZ-K-20K20S2,1323,experiment,100,↓,down,↓,0.7040316998027265,True,28,0
LZ-K-20K20S2,1324,experiment,98,↑,up,↑,0.45119849988259375,True,28,1
LZ-K-20K20S2,1325,experiment,105,↓,down,↓,0.5897935000248253,True,28,1
LZ-K-20K20S2,1326,experiment,108,↓,down,↓,0.6099265001248568,True,28,1
LZ-K-20K20S2,1327,experiment,97,↓,down,↓,0.568805200047791,True,28,1
LZ-K-20K20S2,1328,experiment,60,↓,down,↓,0.5737810998689383,True,28,1
LZ-K-20K20S2,1329,experiment,53,←,left,←,0.5649359999224544,True,28,1
LZ-K-20K20S2,1330,experiment,88,↑,up,↑,0.4887440998572856,True,28,1
LZ-K-20K20S2,1331,experiment,92,↑,up,↑,0.5822461000643671,True,28,1
LZ-K-20K20S2,1332,experiment,104,↑,up,↑,0.57977159996517,True,28,1
LZ-K-20K20S2,1333,experiment,51,→,right,→,0.5951691998634487,True,28,1
LZ-K-20K20S2,1334,experiment,58,←,left,←,0.480098299914971,True,28,1
LZ-K-20K20S2,1335,experiment,84,↓,down,↓,0.48839790001511574,True,28,1
LZ-K-20K20S2,1336,experiment,99,↑,up,↑,0.5394245001953095,True,28,1
LZ-K-20K20S2,1337,experiment,66,↑,up,↑,0.5915171999949962,True,28,1
LZ-K-20K20S2,1338,experiment,70,→,right,→,0.45626080012880266,True,28,1
LZ-K-20K20S2,1339,experiment,71,↓,down,↓,0.9821289000101388,True,28,1
LZ-K-20K20S2,1340,experiment,103,↓,down,↓,0.5719205001369119,True,28,1
LZ-K-20K20S2,1341,experiment,63,↑,up,↑,0.46435769996605814,True,28,1
LZ-K-20K20S2,1342,experiment,72,↑,up,↑,0.44479970005340874,True,28,1
LZ-K-20K20S2,1343,experiment,82,←,right,→,0.5276856001000851,False,28,1
LZ-K-20K20S2,1344,experiment,101,↑,up,↑,0.5447994000278413,True,28,1
LZ-K-20K20S2,1345,experiment,90,↓,down,↓,0.4927091000135988,True,28,1
LZ-K-20K20S2,1346,experiment,65,→,right,→,0.45891950000077486,True,28,1
LZ-K-20K20S2,1347,experiment,52,←,left,←,0.6311699999496341,True,28,1
LZ-K-20K20S2,1348,experiment,86,↓,down,↓,0.49695560010150075,True,28,1
LZ-K-20K20S2,1349,experiment,69,←,left,←,0.6616783998906612,True,28,1
LZ-K-20K20S2,1350,experiment,94,↓,down,↓,0.6036408999934793,True,28,1
LZ-K-20K20S2,1351,experiment,83,↑,up,↑,0.6238178999628872,True,28,1
LZ-K-20K20S2,1352,experiment,80,↑,up,↑,0.4677655000705272,True,28,1
LZ-K-20K20S2,1353,experiment,74,←,left,←,0.4402425999287516,True,28,1
LZ-K-20K20S2,1354,experiment,81,←,left,←,0.5556761000771075,True,28,1
LZ-K-20K20S2,1355,experiment,55,←,left,←,0.4188567001838237,True,28,1
LZ-K-20K20S2,1356,experiment,89,↓,down,↓,0.6838483999017626,True,28,1
LZ-K-20K20S2,1357,experiment,56,→,right,→,0.5735905999317765,True,28,1
LZ-K-20K20S2,1358,experiment,79,↑,up,↑,0.47572879982180893,True,28,1
LZ-K-20K20S2,1359,experiment,75,↑,up,↑,0.5596473000478,True,28,1
LZ-K-20K20S2,1360,experiment,93,←,left,←,0.6266594000626355,True,28,1
LZ-K-20K20S2,1361,experiment,59,↑,up,↑,0.5091044998262078,True,28,1
LZ-K-20K20S2,1362,experiment,50,←,left,←,0.504038899904117,True,28,1
LZ-K-20K20S2,1363,experiment,87,↑,up,↑,0.3844128998462111,True,28,1
LZ-K-20K20S2,1364,training,68,→,right,→,0.46220099995844066,True,28,0
LZ-K-20K20S2,1365,training,86,→,right,→,1.0307538001798093,True,28,1
LZ-K-20K20S2,1366,experiment,77,→,right,→,0.4358286000788212,True,28,1
LZ-K-20K20S2,1367,experiment,60,↓,down,↓,0.5979174000676721,True,28,1
LZ-K-20K20S2,1368,experiment,62,←,left,←,0.40186500013805926,True,28,1
LZ-K-20K20S2,1369,experiment,69,↓,down,↓,0.4739634001161903,True,28,0
LZ-K-20K20S2,1370,experiment,93,←,left,←,0.4472531999927014,True,28,1
LZ-K-20K20S2,1371,experiment,67,↓,down,↓,0.5585166001692414,True,28,1
LZ-K-20K20S2,1372,experiment,80,←,left,←,1.0133924998808652,True,28,1
LZ-K-20K20S2,1373,experiment,81,←,left,←,0.5377578001935035,True,28,1
LZ-K-20K20S2,1374,experiment,94,→,right,→,0.5722723000217229,True,28,1
LZ-K-20K20S2,1375,experiment,72,←,left,←,0.4059883998706937,True,28,1
LZ-K-20K20S2,1376,experiment,86,↑,up,↑,0.5678183001000434,True,28,1
LZ-K-20K20S2,1377,experiment,63,↑,up,↑,1.003840500023216,True,28,1
LZ-K-20K20S2,1378,experiment,68,↓,down,↓,0.6289550000801682,True,28,1
LZ-K-20K20S2,1379,experiment,90,↑,up,↑,0.4219986000098288,True,28,1
LZ-K-20K20S2,1380,experiment,76,↑,up,↑,0.4117238000035286,True,28,1
LZ-K-20K20S2,1381,experiment,50,↑,up,↑,1.0579458000138402,True,28,1
LZ-K-20K20S2,1382,experiment,106,↓,down,↓,0.5078436001203954,True,28,1
LZ-K-20K20S2,1383,experiment,59,→,right,→,0.43584499997086823,True,28,1
LZ-K-20K20S2,1384,experiment,65,←,left,←,0.7483938001096249,True,28,1
LZ-K-20K20S2,1385,experiment,56,↓,down,↓,0.627521299989894,True,28,1
LZ-K-20K20S2,1386,experiment,83,←,left,←,0.4070474999025464,True,28,1
LZ-K-20K20S2,1387,experiment,85,←,left,←,0.5215102999936789,True,28,0
LZ-K-20K20S2,1388,experiment,78,↑,up,↑,0.46627250011079013,True,28,1
LZ-K-20K20S2,1389,experiment,91,→,right,→,0.5690070998389274,True,28,1
LZ-K-20K20S2,1390,experiment,100,↓,down,↓,0.528940899996087,True,28,1
LZ-K-20K20S2,1391,experiment,54,→,right,→,0.6013016998767853,True,28,1
LZ-K-20K20S2,1392,experiment,51,→,right,→,0.4004184000659734,True,28,1
LZ-K-20K20S2,1393,experiment,89,→,right,→,0.5139973000623286,True,28,0
LZ-K-20K20S2,1394,experiment,53,↑,up,↑,0.5713806999847293,True,28,1
LZ-K-20K20S2,1395,experiment,101,↑,up,↑,0.4034291999414563,True,28,1
LZ-K-20K20S2,1396,experiment,75,→,right,→,0.769150499952957,True,28,1
LZ-K-20K20S2,1397,experiment,70,↑,up,↑,0.41117719979956746,True,28,1
LZ-K-20K20S2,1398,experiment,88,↓,down,↓,0.6772487999405712,True,28,1
LZ-K-20K20S2,1399,experiment,84,←,left,←,1.077577899908647,True,28,1
LZ-K-20K20S2,1400,experiment,96,↓,down,↓,0.6183394000399858,True,28,1
LZ-K-20K20S2,1401,experiment,104,↓,down,↓,0.5992705000098795,True,28,1
LZ-K-20K20S2,1402,experiment,95,↑,up,↑,0.6307677999138832,True,28,1
LZ-K-20K20S2,1403,experiment,92,↓,down,↓,0.6304118998814374,True,28,1
LZ-K-20K20S2,1404,experiment,64,↓,down,↓,0.4396095001138747,True,28,1
LZ-K-20K20S2,1405,experiment,55,↑,up,↑,0.6032104000914842,True,28,1
LZ-K-20K20S2,1406,experiment,102,←,left,←,0.5689890999346972,True,28,1
LZ-K-20K20S2,1407,experiment,103,→,right,→,0.471887799911201,True,28,1
LZ-K-20K20S2,1408,experiment,48,↑,up,↑,0.44458990008570254,True,28,1
LZ-K-20K20S2,1409,experiment,97,↓,down,↓,0.5861160999629647,True,28,1
LZ-K-20K20S2,1410,experiment,105,←,left,←,0.5035057000350207,True,28,1
LZ-K-20K20S2,1411,experiment,73,↓,down,↓,0.5306522999890149,True,28,1
LZ-K-20K20S2,1412,experiment,99,←,left,←,0.36773190018720925,True,28,1
LZ-K-20K20S2,1413,experiment,52,←,left,←,0.36742400005459785,True,28,0
LZ-K-20K20S2,1414,experiment,108,→,right,→,0.48052280000410974,True,28,0
LZ-K-20K20S2,1415,experiment,58,←,left,←,0.441653799964115,True,28,1
LZ-K-20K20S2,1416,experiment,49,↓,down,↓,0.6233874000608921,True,28,1
LZ-K-20K20S2,1417,experiment,82,→,right,→,0.7146817999891937,True,28,1
LZ-K-20K20S2,1418,experiment,74,→,right,→,0.42938350001350045,True,28,1
LZ-K-20K20S2,1419,experiment,107,←,left,←,0.45588419982232153,True,28,1
LZ-K-20K20S2,1420,experiment,61,↓,down,↓,0.5290874000638723,True,28,1
LZ-K-20K20S2,1421,experiment,87,←,left,←,0.40659839985892177,True,28,1
LZ-K-20K20S2,1422,experiment,98,↓,down,↓,0.5493930999655277,True,28,0
LZ-K-20K20S2,1423,experiment,57,↑,up,↑,0.44420459982939065,True,28,1
