PART_ID,Trial_no,Trial_type,CSI,Stim_letter,Key_pressed,letter_choose,Rt,Corr,Stimulus Time,nDropped
LZ-K-20K20S1,1,training,120,↓,no_key,no_letter,-1.0,False,60,1
LZ-K-20K20S1,2,training,120,←,left,←,0.844875699840486,True,60,0
LZ-K-20K20S1,3,training,120,←,left,←,1.4982559999916703,True,60,0
LZ-K-20K20S1,4,training,120,↑,up,↑,1.0052250002045184,True,60,0
LZ-K-20K20S1,5,training,120,↑,up,↑,0.700031999964267,True,60,0
LZ-K-20K20S1,6,training,120,↓,up,↑,0.5006515001878142,False,60,0
LZ-K-20K20S1,7,training,120,↓,down,↓,0.6823995001614094,True,60,0
LZ-K-20K20S1,8,training,120,↑,up,↑,0.7094928999431431,True,60,0
LZ-K-20K20S1,9,training,120,→,right,→,0.8000814002007246,True,60,0
LZ-K-20K20S1,10,training,120,→,right,→,0.7033236999996006,True,60,0
LZ-K-20K20S1,11,training,120,←,left,←,0.6823317999951541,True,60,0
LZ-K-20K20S1,12,training,120,↑,up,↑,0.6513006999157369,True,60,0
LZ-K-20K20S1,13,training,120,→,right,→,0.5761673001106828,True,60,0
LZ-K-20K20S1,14,training,120,→,right,→,0.5172145999968052,True,60,0
LZ-K-20K20S1,15,training,120,→,right,→,0.7398222000338137,True,60,0
LZ-K-20K20S1,16,training,120,↑,up,↑,0.584448599955067,True,60,0
LZ-K-20K20S1,17,training,120,↓,down,↓,0.8529886999167502,True,60,0
LZ-K-20K20S1,18,training,120,↓,down,↓,0.7695096000097692,True,60,0
LZ-K-20K20S1,19,training,120,↑,up,↑,0.5752556000370532,True,60,0
LZ-K-20K20S1,20,training,120,↓,down,↓,0.6342529999092221,True,60,0
LZ-K-20K20S1,21,no_adaptation,120,←,left,←,0.7574097001925111,True,36,0
LZ-K-20K20S1,22,no_adaptation,120,↓,down,↓,0.9177788000088185,True,36,0
LZ-K-20K20S1,23,no_adaptation,120,→,right,→,0.6240649002138525,True,36,0
LZ-K-20K20S1,24,no_adaptation,120,↓,down,↓,0.9425335000269115,True,36,0
LZ-K-20K20S1,25,no_adaptation,120,←,right,→,0.6472805000375956,False,36,0
LZ-K-20K20S1,26,no_adaptation,120,↑,up,↑,0.5886794000398368,True,36,0
LZ-K-20K20S1,27,no_adaptation,120,←,left,←,0.6440258000511676,True,36,0
LZ-K-20K20S1,28,no_adaptation,120,→,right,→,0.5372780999168754,True,36,0
LZ-K-20K20S1,29,no_adaptation,120,←,right,→,0.6348083999473602,False,36,0
LZ-K-20K20S1,30,no_adaptation,120,↑,up,↑,0.5523282000795007,True,36,0
LZ-K-20K20S1,31,no_adaptation,120,→,right,→,0.513152499916032,True,36,0
LZ-K-20K20S1,32,no_adaptation,120,←,right,→,0.5076989999506623,False,36,0
LZ-K-20K20S1,33,no_adaptation,120,←,left,←,0.68650360009633,True,36,0
LZ-K-20K20S1,34,no_adaptation,120,↓,down,↓,0.8101025999058038,True,36,0
LZ-K-20K20S1,35,no_adaptation,120,↑,up,↑,0.584563700016588,True,36,0
LZ-K-20K20S1,36,no_adaptation,120,→,right,→,0.6959917000494897,True,36,0
LZ-K-20K20S1,37,no_adaptation,120,←,left,←,0.6032344000414014,True,36,0
LZ-K-20K20S1,38,no_adaptation,120,↑,up,↑,0.5861086000222713,True,36,0
LZ-K-20K20S1,39,no_adaptation,120,→,right,→,0.45125310006551445,True,36,0
LZ-K-20K20S1,40,no_adaptation,120,↑,up,↑,0.542200000025332,True,36,0
LZ-K-20K20S1,41,training,70,←,right,→,0.5535083999857306,False,36,0
LZ-K-20K20S1,42,training,50,←,left,←,0.5306265000253916,True,36,1
LZ-K-20K20S1,43,experiment,100,↑,up,↑,0.5557386998552829,True,36,1
LZ-K-20K20S1,44,experiment,69,→,right,→,0.6140238000079989,True,36,1
LZ-K-20K20S1,45,experiment,104,↓,down,↓,0.7625130999367684,True,36,1
LZ-K-20K20S1,46,experiment,64,←,left,←,0.6380504001863301,True,36,1
LZ-K-20K20S1,47,experiment,83,↓,down,↓,0.720491599990055,True,36,1
LZ-K-20K20S1,48,experiment,78,→,right,→,0.6171063999645412,True,36,1
LZ-K-20K20S1,49,experiment,70,→,right,→,0.5130181000567973,True,36,1
LZ-K-20K20S1,50,experiment,60,↓,down,↓,0.8558730999939144,True,36,1
LZ-K-20K20S1,51,experiment,99,↓,down,↓,0.7483357000164688,True,36,1
LZ-K-20K20S1,52,experiment,84,↑,up,↑,0.4980882001109421,True,36,1
LZ-K-20K20S1,53,experiment,94,→,right,→,0.5744932000525296,True,36,1
LZ-K-20K20S1,54,experiment,71,↑,up,↑,0.7040677000768483,True,36,1
LZ-K-20K20S1,55,experiment,80,↑,up,↑,0.6965983998961747,True,36,1
LZ-K-20K20S1,56,experiment,93,←,right,→,0.6052819998003542,False,36,1
LZ-K-20K20S1,57,experiment,65,↑,up,↑,0.5669762000907212,True,36,1
LZ-K-20K20S1,58,experiment,48,↑,up,↑,0.5198649999219924,True,36,1
LZ-K-20K20S1,59,experiment,53,←,right,→,0.7770785999018699,False,36,1
LZ-K-20K20S1,60,experiment,98,↓,down,↓,0.7450961000286043,True,36,1
LZ-K-20K20S1,61,experiment,89,←,left,←,0.5813382000196725,True,36,1
LZ-K-20K20S1,62,experiment,49,←,left,←,0.7577137001790106,True,36,1
LZ-K-20K20S1,63,experiment,105,→,right,→,0.4998190999031067,True,36,1
LZ-K-20K20S1,64,experiment,81,→,right,→,0.5726768998429179,True,36,1
LZ-K-20K20S1,65,experiment,96,←,left,←,0.6531986999325454,True,36,1
LZ-K-20K20S1,66,experiment,72,→,right,→,0.6109296001959592,True,36,1
LZ-K-20K20S1,67,experiment,108,↓,down,↓,0.7983003000263125,True,36,1
LZ-K-20K20S1,68,experiment,86,↑,up,↑,0.6415160000324249,True,36,1
LZ-K-20K20S1,69,experiment,57,←,left,←,0.6042704998981208,True,36,1
LZ-K-20K20S1,70,experiment,61,→,right,→,0.5995595999993384,True,36,1
LZ-K-20K20S1,71,experiment,76,↑,up,↑,0.6300690998323262,True,36,1
LZ-K-20K20S1,72,experiment,77,↑,up,↑,0.5548590000253171,True,36,1
LZ-K-20K20S1,73,experiment,79,↓,down,↓,0.8579882001504302,True,36,1
LZ-K-20K20S1,74,experiment,101,→,right,→,0.6054801000282168,True,36,1
LZ-K-20K20S1,75,experiment,59,←,left,←,0.5932434999849647,True,36,1
LZ-K-20K20S1,76,experiment,52,↓,down,↓,0.711870800005272,True,36,1
LZ-K-20K20S1,77,experiment,51,↓,down,↓,0.8986121001653373,True,36,1
LZ-K-20K20S1,78,experiment,103,←,left,←,0.4920649998821318,True,36,1
LZ-K-20K20S1,79,experiment,56,↓,down,↓,0.6531066000461578,True,36,1
LZ-K-20K20S1,80,experiment,87,←,left,←,0.49397700000554323,True,36,1
LZ-K-20K20S1,81,experiment,92,→,right,→,0.5792881001252681,True,36,1
LZ-K-20K20S1,82,experiment,62,↑,up,↑,0.5591109001543373,True,36,1
LZ-K-20K20S1,83,experiment,85,→,right,→,0.44284419994801283,True,36,1
LZ-K-20K20S1,84,experiment,58,↑,up,↑,0.590592100052163,True,36,1
LZ-K-20K20S1,85,experiment,107,↑,up,↑,0.7230775998905301,True,36,1
LZ-K-20K20S1,86,experiment,97,←,left,←,0.6852003999520093,True,36,1
LZ-K-20K20S1,87,experiment,73,↑,up,↑,0.6097632998134941,True,36,1
LZ-K-20K20S1,88,experiment,50,↓,down,↓,0.8320999999996275,True,36,1
LZ-K-20K20S1,89,experiment,67,→,right,→,0.5438525001518428,True,36,1
LZ-K-20K20S1,90,experiment,88,→,right,→,0.5727464999072254,True,36,1
LZ-K-20K20S1,91,experiment,91,→,right,→,0.535465800203383,True,36,1
LZ-K-20K20S1,92,experiment,74,→,right,→,0.5446843998506665,True,36,1
LZ-K-20K20S1,93,experiment,63,→,right,→,0.5900790998712182,True,36,1
LZ-K-20K20S1,94,experiment,82,↓,down,↓,0.6907004998065531,True,36,1
LZ-K-20K20S1,95,experiment,106,→,right,→,0.5313693999778479,True,36,1
LZ-K-20K20S1,96,experiment,55,→,right,→,0.7554930998012424,True,36,1
LZ-K-20K20S1,97,experiment,66,→,right,→,0.5028905998915434,True,36,1
LZ-K-20K20S1,98,experiment,90,←,left,←,0.5084926001727581,True,36,1
LZ-K-20K20S1,99,experiment,102,←,left,←,0.7738300999626517,True,36,1
LZ-K-20K20S1,100,experiment,54,←,left,←,0.5486974001396447,True,36,1
LZ-K-20K20S1,101,experiment,75,←,left,←,0.7252398000564426,True,36,1
LZ-K-20K20S1,102,experiment,95,↓,down,↓,0.7202304999809712,True,36,1
LZ-K-20K20S1,103,experiment,68,→,right,→,0.6609071001876146,True,36,1
LZ-K-20K20S1,104,training,108,↑,up,↑,0.7181004998274148,True,35,0
LZ-K-20K20S1,105,training,69,→,right,→,0.5701216999441385,True,35,1
LZ-K-20K20S1,106,experiment,51,↓,down,↓,1.6103028999641538,True,35,1
LZ-K-20K20S1,107,experiment,53,→,right,→,0.568073800066486,True,35,1
LZ-K-20K20S1,108,experiment,69,↓,down,↓,0.7461520999204367,True,35,1
LZ-K-20K20S1,109,experiment,61,→,right,→,0.5195881000254303,True,35,1
LZ-K-20K20S1,110,experiment,62,↓,down,↓,0.6297600001562387,True,35,1
LZ-K-20K20S1,111,experiment,83,←,left,←,0.600580400088802,True,35,1
LZ-K-20K20S1,112,experiment,82,↓,down,↓,0.7010987000539899,True,35,1
LZ-K-20K20S1,113,experiment,73,←,left,←,0.6323266997933388,True,35,1
LZ-K-20K20S1,114,experiment,95,←,left,←,0.4949803000781685,True,35,1
LZ-K-20K20S1,115,experiment,90,→,right,→,0.685063200071454,True,35,1
LZ-K-20K20S1,116,experiment,64,↓,down,↓,0.7242117000278085,True,35,1
LZ-K-20K20S1,117,experiment,66,←,left,←,0.6007268000394106,True,35,1
LZ-K-20K20S1,118,experiment,70,↓,down,↓,0.6813923001755029,True,35,1
LZ-K-20K20S1,119,experiment,94,→,right,→,0.6701974000316113,True,35,1
LZ-K-20K20S1,120,experiment,49,↓,down,↓,0.6750780001748353,True,35,1
LZ-K-20K20S1,121,experiment,85,↑,up,↑,0.6753424999769777,True,35,1
LZ-K-20K20S1,122,experiment,102,↑,up,↑,0.8860766999423504,True,35,1
LZ-K-20K20S1,123,experiment,58,←,left,←,0.6550143000204116,True,35,1
LZ-K-20K20S1,124,experiment,89,↓,down,↓,0.7507158999796957,True,35,1
LZ-K-20K20S1,125,experiment,67,→,right,→,0.5300348000600934,True,35,1
LZ-K-20K20S1,126,experiment,75,↑,up,↑,0.515562399988994,True,35,1
LZ-K-20K20S1,127,experiment,107,↑,up,↑,0.5550698998849839,True,35,1
LZ-K-20K20S1,128,experiment,101,↓,down,↓,0.7143181001301855,True,35,1
LZ-K-20K20S1,129,experiment,97,↑,up,↑,0.5893721000757068,True,35,1
LZ-K-20K20S1,130,experiment,106,→,right,→,0.6184339998289943,True,35,1
LZ-K-20K20S1,131,experiment,92,←,left,←,0.6344293998554349,True,35,1
LZ-K-20K20S1,132,experiment,91,←,left,←,0.5865260998252779,True,35,1
LZ-K-20K20S1,133,experiment,60,→,right,→,0.5109689000528306,True,35,1
LZ-K-20K20S1,134,experiment,68,↑,up,↑,0.603675700025633,True,35,1
LZ-K-20K20S1,135,experiment,104,↓,down,↓,0.7202155000995845,True,35,1
LZ-K-20K20S1,136,experiment,100,↓,down,↓,0.7382670000661165,True,35,1
LZ-K-20K20S1,137,experiment,78,↑,up,↑,0.43486820021644235,True,35,1
LZ-K-20K20S1,138,experiment,59,↑,no_key,no_letter,-1.0,False,35,0
LZ-K-20K20S1,139,experiment,79,→,right,→,0.7792007999960333,True,35,1
LZ-K-20K20S1,140,experiment,48,↓,down,↓,0.6997484001331031,True,35,1
LZ-K-20K20S1,141,experiment,108,←,left,←,0.6276775000151247,True,35,1
LZ-K-20K20S1,142,experiment,76,→,right,→,0.5446119999978691,True,35,1
LZ-K-20K20S1,143,experiment,87,→,right,→,0.5013661000411958,True,35,1
LZ-K-20K20S1,144,experiment,72,→,right,→,0.43425199994817376,True,35,1
LZ-K-20K20S1,145,experiment,80,→,right,→,0.5327870000619441,True,35,0
LZ-K-20K20S1,146,experiment,105,→,right,→,0.532025899970904,True,35,1
LZ-K-20K20S1,147,experiment,86,↑,up,↑,0.6017150001134723,True,35,1
LZ-K-20K20S1,148,experiment,98,↓,down,↓,0.6646424999926239,True,35,1
LZ-K-20K20S1,149,experiment,55,←,left,←,0.6274625000078231,True,35,1
LZ-K-20K20S1,150,experiment,63,↓,down,↓,0.6375134000554681,True,35,1
LZ-K-20K20S1,151,experiment,65,↑,up,↑,0.6055967002175748,True,35,1
LZ-K-20K20S1,152,experiment,88,→,right,→,0.6237240000627935,True,35,1
LZ-K-20K20S1,153,experiment,99,↑,up,↑,0.5654774999711663,True,35,1
LZ-K-20K20S1,154,experiment,96,→,right,→,0.6466119999531657,True,35,1
LZ-K-20K20S1,155,experiment,74,↓,down,↓,0.6994503999594599,True,35,1
LZ-K-20K20S1,156,experiment,93,↑,up,↑,0.5604578999336809,True,35,1
LZ-K-20K20S1,157,experiment,84,↑,up,↑,0.5334189001005143,True,35,1
LZ-K-20K20S1,158,experiment,103,→,right,→,0.6776519999839365,True,35,1
LZ-K-20K20S1,159,experiment,57,→,right,→,0.5513680998701602,True,35,1
LZ-K-20K20S1,160,experiment,77,←,left,←,0.559599099913612,True,35,1
LZ-K-20K20S1,161,experiment,71,←,left,←,0.625163400080055,True,35,1
LZ-K-20K20S1,162,experiment,50,↓,down,↓,0.6708154999651015,True,35,1
LZ-K-20K20S1,163,experiment,52,←,left,←,0.6988649000413716,True,35,1
LZ-K-20K20S1,164,experiment,56,←,left,←,0.9237230999860913,True,35,1
LZ-K-20K20S1,165,experiment,81,→,right,→,0.5635133001487702,True,35,1
LZ-K-20K20S1,166,experiment,54,→,right,→,0.5706424999516457,True,35,1
LZ-K-20K20S1,167,training,53,↓,down,↓,0.6774846999906003,True,34,0
LZ-K-20K20S1,168,training,71,→,right,→,0.4584915000014007,True,34,1
LZ-K-20K20S1,169,experiment,87,↑,up,↑,0.4663157998584211,True,34,1
LZ-K-20K20S1,170,experiment,73,↑,up,↑,0.7031550998799503,True,34,1
LZ-K-20K20S1,171,experiment,77,←,right,→,0.7447981999721378,False,34,1
LZ-K-20K20S1,172,experiment,65,↑,up,↑,0.6450913001317531,True,34,1
LZ-K-20K20S1,173,experiment,92,↓,down,↓,0.5244240001775324,True,34,1
LZ-K-20K20S1,174,experiment,53,↓,down,↓,0.6215615998953581,True,34,1
LZ-K-20K20S1,175,experiment,51,↑,up,↑,0.7471191000659019,True,34,1
LZ-K-20K20S1,176,experiment,98,→,right,→,0.7162405999843031,True,34,1
LZ-K-20K20S1,177,experiment,88,↓,down,↓,0.7299861998762935,True,34,1
LZ-K-20K20S1,178,experiment,106,↓,down,↓,0.664989999961108,True,34,1
LZ-K-20K20S1,179,experiment,103,↓,down,↓,0.61187560018152,True,34,1
LZ-K-20K20S1,180,experiment,95,→,right,→,0.5553407999686897,True,34,1
LZ-K-20K20S1,181,experiment,74,↓,down,↓,0.628203900065273,True,34,1
LZ-K-20K20S1,182,experiment,64,←,left,←,0.5654448000714183,True,34,1
LZ-K-20K20S1,183,experiment,61,←,left,←,0.5698820999823511,True,34,1
LZ-K-20K20S1,184,experiment,107,←,left,←,0.7433663001284003,True,34,1
LZ-K-20K20S1,185,experiment,62,←,left,←,0.43555619986727834,True,34,1
LZ-K-20K20S1,186,experiment,52,↑,up,↑,0.5135009000077844,True,34,1
LZ-K-20K20S1,187,experiment,100,↓,down,↓,0.7151283998973668,True,34,1
LZ-K-20K20S1,188,experiment,50,↑,up,↑,0.6456385999917984,True,34,1
LZ-K-20K20S1,189,experiment,57,→,right,→,0.57642209995538,True,34,1
LZ-K-20K20S1,190,experiment,70,→,right,→,0.5938838000874966,True,34,1
LZ-K-20K20S1,191,experiment,54,↑,up,↑,0.6639423000160605,True,34,1
LZ-K-20K20S1,192,experiment,102,←,left,←,0.49915229994803667,True,34,1
LZ-K-20K20S1,193,experiment,81,↓,down,↓,0.8917408999986947,True,34,1
LZ-K-20K20S1,194,experiment,86,↓,down,↓,0.6109560001641512,True,34,1
LZ-K-20K20S1,195,experiment,105,↓,down,↓,0.7192804999649525,True,34,1
LZ-K-20K20S1,196,experiment,93,←,left,←,0.4262092001736164,True,34,1
LZ-K-20K20S1,197,experiment,58,→,right,→,0.4704199000261724,True,34,1
LZ-K-20K20S1,198,experiment,67,←,right,→,0.7648312000092119,False,34,1
LZ-K-20K20S1,199,experiment,56,↓,down,↓,0.5802519998978823,True,34,1
LZ-K-20K20S1,200,experiment,76,↑,up,↑,0.6583235999569297,True,34,1
LZ-K-20K20S1,201,experiment,83,↓,down,↓,0.6202266998589039,True,34,1
LZ-K-20K20S1,202,experiment,69,→,right,→,0.4602481001056731,True,34,1
LZ-K-20K20S1,203,experiment,108,←,left,←,0.5811618000734597,True,34,1
LZ-K-20K20S1,204,experiment,94,↑,up,↑,0.5263569001108408,True,34,1
LZ-K-20K20S1,205,experiment,89,↑,up,↑,0.675622200127691,True,34,1
LZ-K-20K20S1,206,experiment,68,↑,up,↑,0.497333399951458,True,34,1
LZ-K-20K20S1,207,experiment,91,←,left,←,0.46282600006088614,True,34,1
LZ-K-20K20S1,208,experiment,90,↑,up,↑,0.4622603999450803,True,34,1
LZ-K-20K20S1,209,experiment,60,←,left,←,0.45547230006195605,True,34,1
LZ-K-20K20S1,210,experiment,48,↓,down,↓,0.6922063000965863,True,34,1
LZ-K-20K20S1,211,experiment,97,↑,up,↑,0.7359921000897884,True,34,1
LZ-K-20K20S1,212,experiment,99,→,left,←,0.617226299829781,False,34,1
LZ-K-20K20S1,213,experiment,66,←,left,←,0.634440999943763,True,34,1
LZ-K-20K20S1,214,experiment,85,→,right,→,0.47663679998368025,True,34,1
LZ-K-20K20S1,215,experiment,78,→,right,→,0.8072124000173062,True,34,1
LZ-K-20K20S1,216,experiment,84,↑,up,↑,0.8906340999528766,True,34,1
LZ-K-20K20S1,217,experiment,75,→,right,→,0.6694313997868448,True,34,1
LZ-K-20K20S1,218,experiment,59,↑,up,↑,0.5670505999587476,True,34,1
LZ-K-20K20S1,219,experiment,80,↓,down,↓,0.637482900172472,True,34,1
LZ-K-20K20S1,220,experiment,72,↑,no_key,no_letter,-1.0,False,34,1
LZ-K-20K20S1,221,experiment,63,→,right,→,0.5998696000315249,True,34,1
LZ-K-20K20S1,222,experiment,101,↓,down,↓,0.781928600044921,True,34,1
LZ-K-20K20S1,223,experiment,49,↓,down,↓,0.5580398000311106,True,34,1
LZ-K-20K20S1,224,experiment,71,←,left,←,0.4878249999601394,True,34,1
LZ-K-20K20S1,225,experiment,96,↓,down,↓,0.5316570000723004,True,34,1
LZ-K-20K20S1,226,experiment,104,↓,down,↓,0.523354500066489,True,34,1
LZ-K-20K20S1,227,experiment,82,←,left,←,0.6429543001577258,True,34,1
LZ-K-20K20S1,228,experiment,55,↑,down,↓,0.7268123999238014,False,34,1
LZ-K-20K20S1,229,experiment,79,→,right,→,0.526966999983415,True,34,1
LZ-K-20K20S1,230,training,100,→,right,→,0.5571437000762671,True,33,0
LZ-K-20K20S1,231,training,50,→,right,→,0.5258715997915715,True,33,1
LZ-K-20K20S1,232,experiment,63,→,right,→,0.6115637000184506,True,33,1
LZ-K-20K20S1,233,experiment,92,↓,down,↓,0.6842326000332832,True,33,1
LZ-K-20K20S1,234,experiment,59,↓,down,↓,0.6851999000646174,True,33,1
LZ-K-20K20S1,235,experiment,93,↓,down,↓,0.5064230000134557,True,33,1
LZ-K-20K20S1,236,experiment,75,→,right,→,0.6448216000571847,True,33,1
LZ-K-20K20S1,237,experiment,84,↑,up,↑,0.542982499813661,True,33,1
LZ-K-20K20S1,238,experiment,66,←,left,←,0.46694259997457266,True,33,1
LZ-K-20K20S1,239,experiment,106,↑,up,↑,0.4925289999227971,True,33,1
LZ-K-20K20S1,240,experiment,72,→,right,→,0.5367457000538707,True,33,1
LZ-K-20K20S1,241,experiment,80,→,right,→,0.5528917999472469,True,33,1
LZ-K-20K20S1,242,experiment,71,→,right,→,0.4825730000156909,True,33,1
LZ-K-20K20S1,243,experiment,100,↑,up,↑,0.5414975001476705,True,33,1
LZ-K-20K20S1,244,experiment,81,↑,up,↑,0.46875820006243885,True,33,1
LZ-K-20K20S1,245,experiment,70,→,right,→,0.5460378997959197,True,33,1
LZ-K-20K20S1,246,experiment,107,←,left,←,0.5440747998654842,True,33,1
LZ-K-20K20S1,247,experiment,97,←,left,←,0.4575856998562813,True,33,1
LZ-K-20K20S1,248,experiment,90,←,left,←,0.3862133000511676,True,33,1
LZ-K-20K20S1,249,experiment,78,↓,down,↓,0.8067167999688536,True,33,0
LZ-K-20K20S1,250,experiment,48,←,left,←,0.750464600045234,True,33,1
LZ-K-20K20S1,251,experiment,103,→,right,→,0.48558929981663823,True,33,1
LZ-K-20K20S1,252,experiment,69,↑,up,↑,0.5554861999116838,True,33,1
LZ-K-20K20S1,253,experiment,86,↑,up,↑,0.48797610006295145,True,33,1
LZ-K-20K20S1,254,experiment,76,→,right,→,0.5224931000266224,True,33,1
LZ-K-20K20S1,255,experiment,82,←,left,←,0.6822029000613838,True,33,1
LZ-K-20K20S1,256,experiment,98,↓,down,↓,0.7416804998647422,True,33,1
LZ-K-20K20S1,257,experiment,85,←,left,←,0.6034444998949766,True,33,1
LZ-K-20K20S1,258,experiment,54,→,left,←,0.49713830021210015,False,33,1
LZ-K-20K20S1,259,experiment,95,↓,down,↓,0.7492392999120057,True,33,1
LZ-K-20K20S1,260,experiment,74,←,left,←,0.6060401999857277,True,33,1
LZ-K-20K20S1,261,experiment,52,←,left,←,0.8924215000588447,True,33,1
LZ-K-20K20S1,262,experiment,53,↓,down,↓,0.6867726999334991,True,33,1
LZ-K-20K20S1,263,experiment,57,↓,down,↓,0.5757943000644445,True,33,1
LZ-K-20K20S1,264,experiment,101,↑,up,↑,0.622627800097689,True,33,1
LZ-K-20K20S1,265,experiment,94,↑,up,↑,0.5981636000797153,True,33,1
LZ-K-20K20S1,266,experiment,50,←,left,←,0.4851823002099991,True,33,1
LZ-K-20K20S1,267,experiment,56,→,right,→,0.6628525000996888,True,33,1
LZ-K-20K20S1,268,experiment,105,↓,down,↓,0.8970806000288576,True,33,1
LZ-K-20K20S1,269,experiment,51,→,right,→,0.5395420000422746,True,33,1
LZ-K-20K20S1,270,experiment,77,←,left,←,0.652644099900499,True,33,1
LZ-K-20K20S1,271,experiment,65,↑,up,↑,0.6123744999058545,True,33,1
LZ-K-20K20S1,272,experiment,88,↑,up,↑,0.47811380005441606,True,33,1
LZ-K-20K20S1,273,experiment,87,↑,up,↑,0.6060550999827683,True,33,1
LZ-K-20K20S1,274,experiment,102,←,left,←,0.6035356000065804,True,33,1
LZ-K-20K20S1,275,experiment,60,←,left,←,0.46324259997345507,True,33,1
LZ-K-20K20S1,276,experiment,89,←,left,←,0.4009103998541832,True,33,1
LZ-K-20K20S1,277,experiment,58,←,left,←,0.6104623998980969,True,33,0
LZ-K-20K20S1,278,experiment,108,→,right,→,0.4780041999183595,True,33,1
LZ-K-20K20S1,279,experiment,61,←,left,←,0.670719200046733,True,33,1
LZ-K-20K20S1,280,experiment,104,↓,down,↓,0.880854899995029,True,33,1
LZ-K-20K20S1,281,experiment,73,↑,up,↑,0.4686233999673277,True,33,1
LZ-K-20K20S1,282,experiment,62,↓,down,↓,0.7094343998469412,True,33,1
LZ-K-20K20S1,283,experiment,83,↑,up,↑,0.6530470000579953,True,33,1
LZ-K-20K20S1,284,experiment,68,→,right,→,0.7640992000233382,True,33,1
LZ-K-20K20S1,285,experiment,64,↓,down,↓,0.7276190998964012,True,33,1
LZ-K-20K20S1,286,experiment,49,←,left,←,0.5701403000857681,True,33,1
LZ-K-20K20S1,287,experiment,99,←,left,←,0.5779056001920253,True,33,1
LZ-K-20K20S1,288,experiment,96,↓,down,↓,0.5947927997913212,True,33,1
LZ-K-20K20S1,289,experiment,55,→,right,→,0.60852269991301,True,33,1
LZ-K-20K20S1,290,experiment,67,←,left,←,0.6093607000075281,True,33,1
LZ-K-20K20S1,291,experiment,79,↓,down,↓,0.7183958999812603,True,33,1
LZ-K-20K20S1,292,experiment,91,↑,up,↑,0.5952175999991596,True,33,1
LZ-K-20K20S1,293,training,94,↓,down,↓,1.0066908998414874,True,32,0
LZ-K-20K20S1,294,training,84,↑,up,↑,0.530048199929297,True,32,1
LZ-K-20K20S1,295,experiment,71,↓,down,↓,0.556790400063619,True,32,1
LZ-K-20K20S1,296,experiment,91,↓,down,↓,0.5679238999728113,True,32,1
LZ-K-20K20S1,297,experiment,54,→,left,←,0.718758299946785,False,32,1
LZ-K-20K20S1,298,experiment,50,↑,up,↑,0.5781566000077873,True,32,1
LZ-K-20K20S1,299,experiment,82,→,right,→,0.5906132999807596,True,32,1
LZ-K-20K20S1,300,experiment,100,←,left,←,0.4693892002105713,True,32,1
LZ-K-20K20S1,301,experiment,67,←,left,←,0.40949969994835556,True,32,1
LZ-K-20K20S1,302,experiment,73,→,right,→,0.6589095999952406,True,32,0
LZ-K-20K20S1,303,experiment,89,↓,down,↓,0.7624449001159519,True,32,1
LZ-K-20K20S1,304,experiment,104,↓,down,↓,0.6253576998133212,True,32,1
LZ-K-20K20S1,305,experiment,80,←,left,←,0.5575254999566823,True,32,1
LZ-K-20K20S1,306,experiment,84,→,left,←,0.7307575999293476,False,32,1
LZ-K-20K20S1,307,experiment,48,↓,down,↓,0.6770454999059439,True,32,1
LZ-K-20K20S1,308,experiment,57,←,left,←,0.518911300227046,True,32,1
LZ-K-20K20S1,309,experiment,97,↓,down,↓,0.6664356000255793,True,32,1
LZ-K-20K20S1,310,experiment,83,→,right,→,0.6744292001239955,True,32,1
LZ-K-20K20S1,311,experiment,90,↓,down,↓,0.7773486999794841,True,32,1
LZ-K-20K20S1,312,experiment,55,↓,down,↓,0.6956698000431061,True,32,1
LZ-K-20K20S1,313,experiment,93,↓,down,↓,0.4768314000684768,True,32,1
LZ-K-20K20S1,314,experiment,98,→,right,→,0.6888200000394136,True,32,1
LZ-K-20K20S1,315,experiment,77,←,left,←,0.5873734999913722,True,32,1
LZ-K-20K20S1,316,experiment,86,→,right,→,0.6224699998274446,True,32,1
LZ-K-20K20S1,317,experiment,74,←,left,←,0.5724420000333339,True,32,1
LZ-K-20K20S1,318,experiment,87,↑,up,↑,0.6163099000696093,True,32,1
LZ-K-20K20S1,319,experiment,105,↑,up,↑,0.6123383000958711,True,32,1
LZ-K-20K20S1,320,experiment,95,→,right,→,0.4921594001352787,True,32,1
LZ-K-20K20S1,321,experiment,59,←,no_key,no_letter,-1.0,False,32,1
LZ-K-20K20S1,322,experiment,107,↑,up,↑,0.666686300188303,True,32,1
LZ-K-20K20S1,323,experiment,94,→,right,→,0.6805954999290407,True,32,1
LZ-K-20K20S1,324,experiment,101,↓,down,↓,0.7311485998798162,True,32,1
LZ-K-20K20S1,325,experiment,49,←,left,←,0.39299400011077523,True,32,1
LZ-K-20K20S1,326,experiment,52,↓,down,↓,0.5394311000127345,True,32,1
LZ-K-20K20S1,327,experiment,106,↑,up,↑,0.4821948998142034,True,32,1
LZ-K-20K20S1,328,experiment,51,←,left,←,1.677549900021404,True,32,1
LZ-K-20K20S1,329,experiment,103,←,left,←,0.616286699892953,True,32,1
LZ-K-20K20S1,330,experiment,72,←,left,←,0.40078360005281866,True,32,1
LZ-K-20K20S1,331,experiment,88,↑,up,↑,0.4649550998583436,True,32,0
LZ-K-20K20S1,332,experiment,75,→,right,→,0.6052787001244724,True,32,1
LZ-K-20K20S1,333,experiment,60,←,left,←,0.6246066000312567,True,32,1
LZ-K-20K20S1,334,experiment,56,↑,up,↑,0.44486639997921884,True,32,1
LZ-K-20K20S1,335,experiment,64,←,left,←,0.40123790013603866,True,32,1
LZ-K-20K20S1,336,experiment,81,↑,up,↑,0.5773272998631,True,32,1
LZ-K-20K20S1,337,experiment,102,↑,up,↑,0.44859939999878407,True,32,1
LZ-K-20K20S1,338,experiment,66,↑,up,↑,0.4479839999694377,True,32,1
LZ-K-20K20S1,339,experiment,76,↓,down,↓,0.7724439001176506,True,32,1
LZ-K-20K20S1,340,experiment,65,↓,down,↓,0.5835898001678288,True,32,1
LZ-K-20K20S1,341,experiment,70,↑,up,↑,0.46439290000125766,True,32,1
LZ-K-20K20S1,342,experiment,99,↑,up,↑,0.45314720016904175,True,32,1
LZ-K-20K20S1,343,experiment,63,↓,down,↓,0.5568945999257267,True,32,1
LZ-K-20K20S1,344,experiment,53,←,left,←,0.6367148000281304,True,32,1
LZ-K-20K20S1,345,experiment,92,↑,up,↑,0.49209249997511506,True,32,1
LZ-K-20K20S1,346,experiment,96,↓,down,↓,0.6399309001863003,True,32,1
LZ-K-20K20S1,347,experiment,69,↑,up,↑,0.687079300172627,True,32,1
LZ-K-20K20S1,348,experiment,79,↑,up,↑,0.5932721998542547,True,32,1
LZ-K-20K20S1,349,experiment,58,→,right,→,0.5979806000832468,True,32,1
LZ-K-20K20S1,350,experiment,68,→,right,→,0.5988749000243843,True,32,1
LZ-K-20K20S1,351,experiment,62,↓,down,↓,0.5703553000930697,True,32,1
LZ-K-20K20S1,352,experiment,78,↓,down,↓,0.5772242001257837,True,32,1
LZ-K-20K20S1,353,experiment,85,←,left,←,0.7331489999778569,True,32,1
LZ-K-20K20S1,354,experiment,108,←,left,←,0.595673399977386,True,32,1
LZ-K-20K20S1,355,experiment,61,←,left,←,0.527668199967593,True,32,1
LZ-K-20K20S1,356,training,48,←,left,←,0.512961900094524,True,31,0
LZ-K-20K20S1,357,training,81,↑,up,↑,0.5213167001493275,True,31,1
LZ-K-20K20S1,358,experiment,95,→,right,→,0.5564009000081569,True,31,1
LZ-K-20K20S1,359,experiment,103,↓,down,↓,0.6114326000679284,True,31,1
LZ-K-20K20S1,360,experiment,67,→,right,→,0.6204448000062257,True,31,1
LZ-K-20K20S1,361,experiment,83,↑,up,↑,0.5435629000421613,True,31,1
LZ-K-20K20S1,362,experiment,89,↓,down,↓,0.5478978999890387,True,31,1
LZ-K-20K20S1,363,experiment,82,←,left,←,0.5623625998850912,True,31,1
LZ-K-20K20S1,364,experiment,106,→,right,→,0.4799074998591095,True,31,1
LZ-K-20K20S1,365,experiment,102,→,right,→,0.442684100009501,True,31,1
LZ-K-20K20S1,366,experiment,87,←,left,←,0.6355487999971956,True,31,1
LZ-K-20K20S1,367,experiment,81,→,right,→,0.5272379999514669,True,31,1
LZ-K-20K20S1,368,experiment,58,←,left,←,0.5900659000035375,True,31,1
LZ-K-20K20S1,369,experiment,100,↓,down,↓,0.7248859999235719,True,31,1
LZ-K-20K20S1,370,experiment,92,↓,down,↓,0.6248739000875503,True,31,1
LZ-K-20K20S1,371,experiment,94,↑,up,↑,0.488249400164932,True,31,1
LZ-K-20K20S1,372,experiment,84,↑,up,↑,0.48833839991129935,True,31,1
LZ-K-20K20S1,373,experiment,85,↑,up,↑,0.5522215000819415,True,31,1
LZ-K-20K20S1,374,experiment,99,↓,down,↓,0.7284991000778973,True,31,1
LZ-K-20K20S1,375,experiment,70,↑,up,↑,0.5157415999565274,True,31,1
LZ-K-20K20S1,376,experiment,55,→,right,→,0.6366572000551969,True,31,1
LZ-K-20K20S1,377,experiment,57,↓,down,↓,0.8001149999909103,True,31,1
LZ-K-20K20S1,378,experiment,52,↓,down,↓,0.6463174000382423,True,31,1
LZ-K-20K20S1,379,experiment,98,→,right,→,0.6193676001857966,True,31,1
LZ-K-20K20S1,380,experiment,74,↓,down,↓,0.705915299942717,True,31,1
LZ-K-20K20S1,381,experiment,107,↑,up,↑,0.5775405999738723,True,31,1
LZ-K-20K20S1,382,experiment,65,↑,up,↑,0.5887828001286834,True,31,1
LZ-K-20K20S1,383,experiment,97,↑,up,↑,0.5403474001213908,True,31,1
LZ-K-20K20S1,384,experiment,61,←,left,←,0.7220095000229776,True,31,1
LZ-K-20K20S1,385,experiment,105,←,left,←,1.2255939999595284,True,31,1
LZ-K-20K20S1,386,experiment,96,↑,down,↓,0.816354300128296,False,31,1
LZ-K-20K20S1,387,experiment,79,↑,down,↓,0.781159000005573,False,31,1
LZ-K-20K20S1,388,experiment,59,↓,down,↓,0.5538667999207973,True,31,1
LZ-K-20K20S1,389,experiment,91,→,right,→,0.500780199887231,True,31,1
LZ-K-20K20S1,390,experiment,78,↓,down,↓,0.6384519001003355,True,31,1
LZ-K-20K20S1,391,experiment,49,↑,up,↑,0.6682559000328183,True,31,1
LZ-K-20K20S1,392,experiment,104,↑,up,↑,0.7346000999677926,True,31,1
LZ-K-20K20S1,393,experiment,77,→,right,→,0.6313166001345962,True,31,1
LZ-K-20K20S1,394,experiment,90,↑,up,↑,0.4094514998141676,True,31,1
LZ-K-20K20S1,395,experiment,76,↑,up,↑,0.38468279992230237,True,31,0
LZ-K-20K20S1,396,experiment,88,↓,down,↓,0.5843900998588651,True,31,1
LZ-K-20K20S1,397,experiment,86,→,right,→,0.6037566000595689,True,31,1
LZ-K-20K20S1,398,experiment,54,→,right,→,0.6338728999253362,True,31,1
LZ-K-20K20S1,399,experiment,69,↑,up,↑,0.5452371002174914,True,31,1
LZ-K-20K20S1,400,experiment,93,↑,up,↑,0.49979849997907877,True,31,1
LZ-K-20K20S1,401,experiment,68,↓,down,↓,0.6730327000841498,True,31,1
LZ-K-20K20S1,402,experiment,63,↓,down,↓,0.6726504999678582,True,31,1
LZ-K-20K20S1,403,experiment,53,↓,up,↑,0.7316864999011159,False,31,1
LZ-K-20K20S1,404,experiment,101,←,left,←,0.6682963001076132,True,31,1
LZ-K-20K20S1,405,experiment,66,→,right,→,0.4756345001515001,True,31,1
LZ-K-20K20S1,406,experiment,48,↑,up,↑,0.5763022999744862,True,31,1
LZ-K-20K20S1,407,experiment,64,←,left,←,0.4922852001618594,True,31,1
LZ-K-20K20S1,408,experiment,50,↑,up,↑,0.5273208001162857,True,31,1
LZ-K-20K20S1,409,experiment,56,→,right,→,0.5510380999185145,True,31,1
LZ-K-20K20S1,410,experiment,75,←,left,←,0.6396447999868542,True,31,1
LZ-K-20K20S1,411,experiment,51,→,right,→,0.588668700074777,True,31,1
LZ-K-20K20S1,412,experiment,108,↑,up,↑,0.432809499790892,True,31,1
LZ-K-20K20S1,413,experiment,60,↓,down,↓,0.5312251001596451,True,31,0
LZ-K-20K20S1,414,experiment,72,↓,down,↓,0.7496273999568075,True,31,1
LZ-K-20K20S1,415,experiment,62,↓,down,↓,0.5865084000397474,True,31,1
LZ-K-20K20S1,416,experiment,73,→,right,→,0.6187438000924885,True,31,1
LZ-K-20K20S1,417,experiment,80,↑,down,↓,0.7026805998757482,False,31,1
LZ-K-20K20S1,418,experiment,71,←,left,←,0.4510317000094801,True,31,1
LZ-K-20K20S1,419,training,56,→,right,→,0.729071700014174,True,30,0
LZ-K-20K20S1,420,training,76,←,left,←,0.5939738999586552,True,30,1
LZ-K-20K20S1,421,experiment,83,↑,up,↑,0.4786903001368046,True,30,1
LZ-K-20K20S1,422,experiment,56,↑,up,↑,0.5525322000030428,True,30,1
LZ-K-20K20S1,423,experiment,70,→,right,→,0.5466909999959171,True,30,1
LZ-K-20K20S1,424,experiment,72,→,right,→,0.4602370001375675,True,30,1
LZ-K-20K20S1,425,experiment,77,↓,down,↓,0.7440061999950558,True,30,1
LZ-K-20K20S1,426,experiment,69,↓,down,↓,0.5310802001040429,True,30,1
LZ-K-20K20S1,427,experiment,95,←,right,→,0.573938800022006,False,30,1
LZ-K-20K20S1,428,experiment,90,←,left,←,0.49686139984987676,True,30,1
LZ-K-20K20S1,429,experiment,67,←,left,←,0.3759110001847148,True,30,1
LZ-K-20K20S1,430,experiment,63,↑,up,↑,0.42598639987409115,True,30,1
LZ-K-20K20S1,431,experiment,57,↓,down,↓,0.7008899000938982,True,30,1
LZ-K-20K20S1,432,experiment,59,←,left,←,0.5169275999069214,True,30,1
LZ-K-20K20S1,433,experiment,51,↑,up,↑,0.5511221999768168,True,30,1
LZ-K-20K20S1,434,experiment,48,↑,up,↑,0.5207815000321716,True,30,1
LZ-K-20K20S1,435,experiment,75,↓,down,↓,0.5464580999687314,True,30,1
LZ-K-20K20S1,436,experiment,52,←,left,←,0.6108106998726726,True,30,1
LZ-K-20K20S1,437,experiment,80,←,left,←,1.5601115999743342,True,30,1
LZ-K-20K20S1,438,experiment,87,→,right,→,0.5560926001053303,True,30,1
LZ-K-20K20S1,439,experiment,68,↑,up,↑,0.6306716001126915,True,30,1
LZ-K-20K20S1,440,experiment,98,↓,down,↓,0.7324101999402046,True,30,1
LZ-K-20K20S1,441,experiment,50,↓,down,↓,0.4781480000820011,True,30,1
LZ-K-20K20S1,442,experiment,105,↓,down,↓,0.4959355001337826,True,30,1
LZ-K-20K20S1,443,experiment,71,←,left,←,0.5638425000943244,True,30,1
LZ-K-20K20S1,444,experiment,91,↓,down,↓,0.6148608999792486,True,30,1
LZ-K-20K20S1,445,experiment,106,←,left,←,0.5947968999389559,True,30,1
LZ-K-20K20S1,446,experiment,61,↓,down,↓,0.5580450999550521,True,30,1
LZ-K-20K20S1,447,experiment,55,←,left,←,0.5891887000761926,True,30,1
LZ-K-20K20S1,448,experiment,79,→,right,→,0.6668245999608189,True,30,1
LZ-K-20K20S1,449,experiment,89,↓,down,↓,0.578238100046292,True,30,1
LZ-K-20K20S1,450,experiment,100,←,left,←,0.6253859999123961,True,30,1
LZ-K-20K20S1,451,experiment,84,←,left,←,0.5800131000578403,True,30,1
LZ-K-20K20S1,452,experiment,73,↑,up,↑,0.620165399974212,True,30,1
LZ-K-20K20S1,453,experiment,86,←,left,←,0.5424706998746842,True,30,1
LZ-K-20K20S1,454,experiment,101,→,right,→,0.6947618999984115,True,30,1
LZ-K-20K20S1,455,experiment,78,←,left,←,0.8170646000653505,True,30,1
LZ-K-20K20S1,456,experiment,54,→,right,→,0.5899976999498904,True,30,1
LZ-K-20K20S1,457,experiment,103,↑,up,↑,0.8755737999454141,True,30,1
LZ-K-20K20S1,458,experiment,92,↓,up,↑,0.889651200035587,False,30,1
LZ-K-20K20S1,459,experiment,62,→,right,→,0.5531005999073386,True,30,1
LZ-K-20K20S1,460,experiment,104,→,right,→,0.7600296000018716,True,30,1
LZ-K-20K20S1,461,experiment,53,↑,up,↑,0.6078248999547213,True,30,1
LZ-K-20K20S1,462,experiment,85,→,right,→,0.41973079997114837,True,30,1
LZ-K-20K20S1,463,experiment,64,→,right,→,0.44436859991401434,True,30,0
LZ-K-20K20S1,464,experiment,88,→,right,→,0.6369143000338227,True,30,1
LZ-K-20K20S1,465,experiment,82,↓,down,↓,0.7040615000296384,True,30,1
LZ-K-20K20S1,466,experiment,60,↓,down,↓,0.6394555999431759,True,30,1
LZ-K-20K20S1,467,experiment,96,↓,down,↓,0.5417819998692721,True,30,1
LZ-K-20K20S1,468,experiment,107,→,right,→,0.4763783998787403,True,30,1
LZ-K-20K20S1,469,experiment,108,↑,up,↑,0.740898699965328,True,30,1
LZ-K-20K20S1,470,experiment,93,→,right,→,0.6480715998914093,True,30,1
LZ-K-20K20S1,471,experiment,81,←,left,←,0.6267151001375169,True,30,1
LZ-K-20K20S1,472,experiment,49,→,right,→,0.5930489001329988,True,30,1
LZ-K-20K20S1,473,experiment,97,↑,up,↑,0.4174454000312835,True,30,1
LZ-K-20K20S1,474,experiment,99,←,left,←,0.49457670003175735,True,30,0
LZ-K-20K20S1,475,experiment,66,→,right,→,0.6685499998275191,True,30,1
LZ-K-20K20S1,476,experiment,74,↓,down,↓,0.5610746000893414,True,30,1
LZ-K-20K20S1,477,experiment,94,↓,down,↓,0.6911908001638949,True,30,1
LZ-K-20K20S1,478,experiment,65,→,right,→,0.5214483998715878,True,30,1
LZ-K-20K20S1,479,experiment,102,→,right,→,0.4420444001443684,True,30,1
LZ-K-20K20S1,480,experiment,76,←,left,←,0.7108819000422955,True,30,1
LZ-K-20K20S1,481,experiment,58,→,right,→,0.6469385998789221,True,30,1
LZ-K-20K20S1,482,training,87,↓,down,↓,0.6771036998834461,True,29,0
LZ-K-20K20S1,483,training,67,↑,up,↑,0.6673747999593616,True,29,1
LZ-K-20K20S1,484,experiment,108,→,left,←,0.692290100036189,False,29,1
LZ-K-20K20S1,485,experiment,91,↑,up,↑,0.5541542998980731,True,29,1
LZ-K-20K20S1,486,experiment,86,↓,down,↓,0.558872900204733,True,29,1
LZ-K-20K20S1,487,experiment,101,↓,down,↓,0.5506151001900434,True,29,1
LZ-K-20K20S1,488,experiment,88,←,left,←,0.5869835999328643,True,29,1
LZ-K-20K20S1,489,experiment,62,↑,up,↑,0.5266382999252528,True,29,1
LZ-K-20K20S1,490,experiment,69,←,left,←,1.4748715998139232,True,29,1
LZ-K-20K20S1,491,experiment,70,→,right,→,0.495770099805668,True,29,1
LZ-K-20K20S1,492,experiment,67,→,right,→,0.6213874998502433,True,29,1
LZ-K-20K20S1,493,experiment,49,↓,down,↓,0.7157468998339027,True,29,1
LZ-K-20K20S1,494,experiment,50,↑,up,↑,0.5502528001088649,True,29,1
LZ-K-20K20S1,495,experiment,79,→,right,→,0.5015834998339415,True,29,1
LZ-K-20K20S1,496,experiment,60,↓,down,↓,0.6853163000196218,True,29,1
LZ-K-20K20S1,497,experiment,71,←,left,←,0.6422721999697387,True,29,1
LZ-K-20K20S1,498,experiment,92,→,right,→,0.5055072999093682,True,29,1
LZ-K-20K20S1,499,experiment,77,←,left,←,0.49913519993424416,True,29,1
LZ-K-20K20S1,500,experiment,51,←,left,←,0.6460059999953955,True,29,1
LZ-K-20K20S1,501,experiment,107,→,right,→,0.5039290999993682,True,29,1
LZ-K-20K20S1,502,experiment,57,↑,up,↑,0.7443882001098245,True,29,1
LZ-K-20K20S1,503,experiment,103,←,left,←,0.6080419002100825,True,29,1
LZ-K-20K20S1,504,experiment,95,↓,down,↓,0.7038990999571979,True,29,1
LZ-K-20K20S1,505,experiment,54,↑,up,↑,0.5212445999495685,True,29,1
LZ-K-20K20S1,506,experiment,90,←,left,←,0.5020824000239372,True,29,1
LZ-K-20K20S1,507,experiment,56,↑,up,↑,0.5428691999986768,True,29,1
LZ-K-20K20S1,508,experiment,68,←,left,←,0.4822235000319779,True,29,1
LZ-K-20K20S1,509,experiment,76,→,right,→,0.4852771998848766,True,29,1
LZ-K-20K20S1,510,experiment,53,→,right,→,0.6558932000771165,True,29,1
LZ-K-20K20S1,511,experiment,55,↓,down,↓,0.7392197998706251,True,29,1
LZ-K-20K20S1,512,experiment,104,←,left,←,0.59438810008578,True,29,1
LZ-K-20K20S1,513,experiment,83,↑,down,↓,0.7908494998700917,False,29,1
LZ-K-20K20S1,514,experiment,99,↑,up,↑,0.5981232998892665,True,29,1
LZ-K-20K20S1,515,experiment,105,←,left,←,0.6344393000472337,True,29,1
LZ-K-20K20S1,516,experiment,97,←,left,←,0.5206296001560986,True,29,1
LZ-K-20K20S1,517,experiment,80,←,left,←,0.4488617000170052,True,29,1
LZ-K-20K20S1,518,experiment,106,↑,up,↑,0.7551593000534922,True,29,1
LZ-K-20K20S1,519,experiment,52,→,right,→,0.5954102999530733,True,29,1
LZ-K-20K20S1,520,experiment,73,→,right,→,0.4992854001466185,True,29,1
LZ-K-20K20S1,521,experiment,89,←,left,←,0.6731204001698643,True,29,1
LZ-K-20K20S1,522,experiment,93,↓,down,↓,0.9027930998709053,True,29,1
LZ-K-20K20S1,523,experiment,66,↓,down,↓,0.6924328999593854,True,29,1
LZ-K-20K20S1,524,experiment,96,←,left,←,0.4807524001225829,True,29,1
LZ-K-20K20S1,525,experiment,58,↓,left,←,0.7216614000499249,False,29,1
LZ-K-20K20S1,526,experiment,75,↑,up,↑,0.6994253001175821,True,29,1
LZ-K-20K20S1,527,experiment,81,←,left,←,0.5239583000075072,True,29,1
LZ-K-20K20S1,528,experiment,100,↓,down,↓,0.6455604999791831,True,29,1
LZ-K-20K20S1,529,experiment,82,→,right,→,0.6961953998543322,True,29,1
LZ-K-20K20S1,530,experiment,98,→,right,→,0.6833909000270069,True,29,1
LZ-K-20K20S1,531,experiment,78,↓,down,↓,0.7259682000149041,True,29,1
LZ-K-20K20S1,532,experiment,74,↑,up,↑,0.5998988999053836,True,29,1
LZ-K-20K20S1,533,experiment,61,↓,down,↓,0.5473350000102073,True,29,1
LZ-K-20K20S1,534,experiment,84,→,left,←,0.7210780999157578,False,29,1
LZ-K-20K20S1,535,experiment,65,↓,down,↓,0.6860340000130236,True,29,1
LZ-K-20K20S1,536,experiment,64,↓,down,↓,0.5807753999251872,True,29,1
LZ-K-20K20S1,537,experiment,102,↓,down,↓,0.5311515000648797,True,29,1
LZ-K-20K20S1,538,experiment,85,↑,up,↑,0.6172854001633823,True,29,1
LZ-K-20K20S1,539,experiment,48,←,left,←,0.6083891000598669,True,29,1
LZ-K-20K20S1,540,experiment,63,←,left,←,0.4508332998957485,True,29,1
LZ-K-20K20S1,541,experiment,72,↓,down,↓,0.568725099787116,True,29,1
LZ-K-20K20S1,542,experiment,94,↓,down,↓,0.6902284000534564,True,29,1
LZ-K-20K20S1,543,experiment,59,↓,down,↓,0.5146976998075843,True,29,1
LZ-K-20K20S1,544,experiment,87,↓,down,↓,0.4887618999928236,True,29,1
LZ-K-20K20S1,545,training,67,↑,up,↑,0.5425505999010056,True,28,0
LZ-K-20K20S1,546,training,48,↑,up,↑,0.7047924001235515,True,28,1
LZ-K-20K20S1,547,experiment,107,↓,down,↓,0.5764559998642653,True,28,1
LZ-K-20K20S1,548,experiment,50,↑,up,↑,0.41637209989130497,True,28,1
LZ-K-20K20S1,549,experiment,108,←,left,←,0.4594696999993175,True,28,1
LZ-K-20K20S1,550,experiment,60,←,left,←,0.5812483998015523,True,28,1
LZ-K-20K20S1,551,experiment,79,←,left,←,0.467077299952507,True,28,1
LZ-K-20K20S1,552,experiment,102,↑,up,↑,0.6380201999563724,True,28,1
LZ-K-20K20S1,553,experiment,63,↓,down,↓,0.7194614000618458,True,28,1
LZ-K-20K20S1,554,experiment,106,←,left,←,0.5665746000595391,True,28,1
LZ-K-20K20S1,555,experiment,95,→,left,←,0.6080357001628727,False,28,1
LZ-K-20K20S1,556,experiment,67,↓,down,↓,0.5608945998828858,True,28,1
LZ-K-20K20S1,557,experiment,69,↓,down,↓,0.6993732000701129,True,28,1
LZ-K-20K20S1,558,experiment,105,←,left,←,0.7160300000105053,True,28,1
LZ-K-20K20S1,559,experiment,96,←,left,←,0.51114990003407,True,28,1
LZ-K-20K20S1,560,experiment,61,↓,down,↓,0.6060218999627978,True,28,1
LZ-K-20K20S1,561,experiment,62,←,left,←,0.5448984000831842,True,28,1
LZ-K-20K20S1,562,experiment,74,→,right,→,0.5703389998525381,True,28,1
LZ-K-20K20S1,563,experiment,81,↑,up,↑,0.5206806999631226,True,28,1
LZ-K-20K20S1,564,experiment,55,↑,up,↑,0.6970655999612063,True,28,1
LZ-K-20K20S1,565,experiment,70,→,right,→,0.6534537000115961,True,28,1
LZ-K-20K20S1,566,experiment,98,→,right,→,0.5144138000905514,True,28,1
LZ-K-20K20S1,567,experiment,49,↓,down,↓,0.845334499841556,True,28,1
LZ-K-20K20S1,568,experiment,73,↓,down,↓,0.6668071001768112,True,28,1
LZ-K-20K20S1,569,experiment,53,↑,up,↑,0.5984630000311881,True,28,1
LZ-K-20K20S1,570,experiment,89,←,right,→,0.6566488000098616,False,28,1
LZ-K-20K20S1,571,experiment,94,↑,up,↑,0.6303993999026716,True,28,1
LZ-K-20K20S1,572,experiment,104,↓,down,↓,0.6901640000287443,True,28,1
LZ-K-20K20S1,573,experiment,77,↑,up,↑,0.7085931000765413,True,28,1
LZ-K-20K20S1,574,experiment,92,→,right,→,0.5053670001216233,True,28,1
LZ-K-20K20S1,575,experiment,51,→,right,→,0.4597247999627143,True,28,1
LZ-K-20K20S1,576,experiment,76,→,right,→,0.5597715999465436,True,28,1
LZ-K-20K20S1,577,experiment,75,→,no_key,no_letter,-1.0,False,28,1
LZ-K-20K20S1,578,experiment,48,↑,up,↑,0.555800300091505,True,28,1
LZ-K-20K20S1,579,experiment,59,↑,up,↑,0.48953880020417273,True,28,1
LZ-K-20K20S1,580,experiment,91,↓,up,↑,0.5912111999932677,False,28,1
LZ-K-20K20S1,581,experiment,87,↑,up,↑,0.4583485000766814,True,28,1
LZ-K-20K20S1,582,experiment,66,←,left,←,0.6018058999907225,True,28,1
LZ-K-20K20S1,583,experiment,90,↑,up,↑,0.5150130998808891,True,28,1
LZ-K-20K20S1,584,experiment,57,→,right,→,0.6512255000416189,True,28,1
LZ-K-20K20S1,585,experiment,88,↑,up,↑,0.5395577000454068,True,28,1
LZ-K-20K20S1,586,experiment,65,↓,down,↓,0.7601044001057744,True,28,1
LZ-K-20K20S1,587,experiment,103,←,left,←,0.5109015998896211,True,28,1
LZ-K-20K20S1,588,experiment,82,↓,down,↓,0.6468670000322163,True,28,1
LZ-K-20K20S1,589,experiment,72,←,left,←,0.6527506001293659,True,28,1
LZ-K-20K20S1,590,experiment,64,←,left,←,0.40580149996094406,True,28,1
LZ-K-20K20S1,591,experiment,97,↓,down,↓,0.7402816999237984,True,28,1
LZ-K-20K20S1,592,experiment,80,←,left,←,0.4994967000093311,True,28,1
LZ-K-20K20S1,593,experiment,78,←,left,←,0.4373351000249386,True,28,1
LZ-K-20K20S1,594,experiment,56,←,left,←,0.3674054001457989,True,28,1
LZ-K-20K20S1,595,experiment,68,←,left,←,0.3596749999560416,True,28,0
LZ-K-20K20S1,596,experiment,101,↑,up,↑,0.5065321000292897,True,28,0
LZ-K-20K20S1,597,experiment,99,→,right,→,0.6290178999770433,True,28,1
LZ-K-20K20S1,598,experiment,84,↓,down,↓,0.7835985999554396,True,28,1
LZ-K-20K20S1,599,experiment,52,↑,up,↑,0.6063806000165641,True,28,1
LZ-K-20K20S1,600,experiment,58,←,left,←,0.44260250008665025,True,28,1
LZ-K-20K20S1,601,experiment,86,↓,down,↓,0.7400181000120938,True,28,1
LZ-K-20K20S1,602,experiment,83,↑,up,↑,0.4823668000753969,True,28,1
LZ-K-20K20S1,603,experiment,71,↓,down,↓,0.686847599921748,True,28,1
LZ-K-20K20S1,604,experiment,85,←,left,←,0.5668397999834269,True,28,1
LZ-K-20K20S1,605,experiment,93,→,right,→,0.5048720000777394,True,28,1
LZ-K-20K20S1,606,experiment,54,←,left,←,0.45003770012408495,True,28,1
LZ-K-20K20S1,607,experiment,100,↓,down,↓,0.7585553999524564,True,28,1
LZ-K-20K20S1,608,training,100,↑,up,↑,0.63275790004991,True,28,0
LZ-K-20K20S1,609,training,85,↓,down,↓,0.6910198999103159,True,28,1
LZ-K-20K20S1,610,experiment,95,←,left,←,0.43926639994606376,True,28,1
LZ-K-20K20S1,611,experiment,82,↓,down,↓,0.6019604001194239,True,28,1
LZ-K-20K20S1,612,experiment,49,↑,up,↑,0.4413215999957174,True,28,1
LZ-K-20K20S1,613,experiment,57,↑,up,↑,0.43649499979801476,True,28,1
LZ-K-20K20S1,614,experiment,104,↓,down,↓,0.5677748001180589,True,28,1
LZ-K-20K20S1,615,experiment,74,←,left,←,0.5525664000306278,True,28,1
LZ-K-20K20S1,616,experiment,70,↓,down,↓,0.5147458999417722,True,28,1
LZ-K-20K20S1,617,experiment,72,↓,down,↓,0.5095265998970717,True,28,1
LZ-K-20K20S1,618,experiment,97,↓,down,↓,0.5686715000774711,True,28,1
LZ-K-20K20S1,619,experiment,83,↑,up,↑,0.4541285999584943,True,28,1
LZ-K-20K20S1,620,experiment,103,↓,down,↓,0.5373132999520749,True,28,1
LZ-K-20K20S1,621,experiment,94,←,left,←,0.6199482001829892,True,28,1
LZ-K-20K20S1,622,experiment,53,→,right,→,0.47344960016198456,True,28,1
LZ-K-20K20S1,623,experiment,96,↑,up,↑,0.47841789992526174,True,28,1
LZ-K-20K20S1,624,experiment,67,←,left,←,0.5803054999560118,True,28,1
LZ-K-20K20S1,625,experiment,101,→,right,→,0.45083809993229806,True,28,1
LZ-K-20K20S1,626,experiment,87,→,right,→,0.5317342998459935,True,28,1
LZ-K-20K20S1,627,experiment,90,←,left,←,0.45642569987103343,True,28,1
LZ-K-20K20S1,628,experiment,93,→,left,←,0.6544590000994503,False,28,1
LZ-K-20K20S1,629,experiment,50,→,left,←,0.9793656999245286,False,28,1
LZ-K-20K20S1,630,experiment,77,←,left,←,0.44210659991949797,True,28,1
LZ-K-20K20S1,631,experiment,60,←,left,←,0.6042961999773979,True,28,1
LZ-K-20K20S1,632,experiment,102,↑,left,←,0.7296639999840409,False,28,1
LZ-K-20K20S1,633,experiment,98,↓,down,↓,0.667587999952957,True,28,1
LZ-K-20K20S1,634,experiment,107,←,left,←,0.6127183998469263,True,28,1
LZ-K-20K20S1,635,experiment,68,→,right,→,0.44498770008794963,True,28,1
LZ-K-20K20S1,636,experiment,58,↑,up,↑,0.44789889990352094,True,28,1
LZ-K-20K20S1,637,experiment,69,←,left,←,0.5905788999516517,True,28,1
LZ-K-20K20S1,638,experiment,79,↓,down,↓,0.8124493998475373,True,28,1
LZ-K-20K20S1,639,experiment,80,↓,down,↓,0.5606151998508722,True,28,1
LZ-K-20K20S1,640,experiment,55,↑,up,↑,0.7437718999572098,True,28,1
LZ-K-20K20S1,641,experiment,78,↑,up,↑,0.6238393997773528,True,28,1
LZ-K-20K20S1,642,experiment,89,↓,down,↓,0.5930091000627726,True,28,1
LZ-K-20K20S1,643,experiment,76,↓,down,↓,0.6636461999733001,True,28,1
LZ-K-20K20S1,644,experiment,85,↑,up,↑,0.6641299000475556,True,28,1
LZ-K-20K20S1,645,experiment,81,↑,up,↑,0.6983365998603404,True,28,1
LZ-K-20K20S1,646,experiment,84,→,right,→,0.5704381000250578,True,28,1
LZ-K-20K20S1,647,experiment,65,↑,down,↓,0.8291287999600172,False,28,1
LZ-K-20K20S1,648,experiment,91,←,left,←,0.5971031000372022,True,28,1
LZ-K-20K20S1,649,experiment,99,↓,down,↓,0.6919531999155879,True,28,1
LZ-K-20K20S1,650,experiment,63,↓,down,↓,0.7068433000240475,True,28,1
LZ-K-20K20S1,651,experiment,73,←,left,←,0.582084699999541,True,28,1
LZ-K-20K20S1,652,experiment,59,↑,up,↑,0.5548009001649916,True,28,1
LZ-K-20K20S1,653,experiment,62,←,left,←,0.5435409999918193,True,28,1
LZ-K-20K20S1,654,experiment,56,↓,down,↓,0.694979100022465,True,28,1
LZ-K-20K20S1,655,experiment,75,→,right,→,0.5535577000118792,True,28,1
LZ-K-20K20S1,656,experiment,105,↑,up,↑,0.5282517999876291,True,28,1
LZ-K-20K20S1,657,experiment,88,←,left,←,0.44573809998109937,True,28,1
LZ-K-20K20S1,658,experiment,92,←,left,←,0.5650738999247551,True,28,1
LZ-K-20K20S1,659,experiment,61,←,left,←,0.410559399984777,True,28,1
LZ-K-20K20S1,660,experiment,108,↑,up,↑,0.5167956000659615,True,28,1
LZ-K-20K20S1,661,experiment,48,→,right,→,1.0719308000989258,True,28,1
LZ-K-20K20S1,662,experiment,64,↑,up,↑,0.5513311999384314,True,28,1
LZ-K-20K20S1,663,experiment,71,↓,down,↓,0.7452792001422495,True,28,1
LZ-K-20K20S1,664,experiment,100,→,right,→,0.4662052998319268,True,28,1
LZ-K-20K20S1,665,experiment,54,→,right,→,0.8528003999963403,True,28,1
LZ-K-20K20S1,666,experiment,52,←,left,←,0.48113409988582134,True,28,1
LZ-K-20K20S1,667,experiment,86,←,left,←,0.46498050005175173,True,28,1
LZ-K-20K20S1,668,experiment,106,↓,down,↓,0.6588000000920147,True,28,1
LZ-K-20K20S1,669,experiment,51,→,right,→,0.455222399905324,True,28,1
LZ-K-20K20S1,670,experiment,66,↑,up,↑,0.48660649987868965,True,28,1
LZ-K-20K20S1,671,training,58,↓,down,↓,0.504450700012967,True,28,0
LZ-K-20K20S1,672,training,99,←,left,←,0.7867189000826329,True,28,1
LZ-K-20K20S1,673,experiment,78,↑,up,↑,0.5771180000156164,True,28,1
LZ-K-20K20S1,674,experiment,92,↑,up,↑,0.5952777999918908,True,28,1
LZ-K-20K20S1,675,experiment,68,←,left,←,0.5722435000352561,True,28,1
LZ-K-20K20S1,676,experiment,89,↓,down,↓,0.7193788001313806,True,28,1
LZ-K-20K20S1,677,experiment,108,→,right,→,0.4865252999588847,True,28,1
LZ-K-20K20S1,678,experiment,94,↑,up,↑,0.4513123999349773,True,28,1
LZ-K-20K20S1,679,experiment,55,←,left,←,0.710777300177142,True,28,1
LZ-K-20K20S1,680,experiment,100,↑,up,↑,0.4249125998467207,True,28,1
LZ-K-20K20S1,681,experiment,97,↑,up,↑,1.4870789998676628,True,28,1
LZ-K-20K20S1,682,experiment,50,→,right,→,0.5067538002040237,True,28,1
LZ-K-20K20S1,683,experiment,96,↑,up,↑,0.6383978000376374,True,28,1
LZ-K-20K20S1,684,experiment,107,←,left,←,0.6167033999226987,True,28,1
LZ-K-20K20S1,685,experiment,82,→,right,→,0.7963835999835283,True,28,1
LZ-K-20K20S1,686,experiment,83,←,left,←,0.5203821000177413,True,28,1
LZ-K-20K20S1,687,experiment,73,↑,no_key,no_letter,-1.0,False,28,1
LZ-K-20K20S1,688,experiment,71,→,right,→,0.6471633999608457,True,28,1
LZ-K-20K20S1,689,experiment,101,→,right,→,0.7788716999348253,True,28,1
LZ-K-20K20S1,690,experiment,49,↓,down,↓,0.8354652000125498,True,28,1
LZ-K-20K20S1,691,experiment,95,→,right,→,0.4978267999831587,True,28,1
LZ-K-20K20S1,692,experiment,86,←,left,←,0.6008836000692099,True,28,1
LZ-K-20K20S1,693,experiment,99,→,right,→,1.4633101001381874,True,28,1
LZ-K-20K20S1,694,experiment,53,↓,down,↓,0.7389111998490989,True,28,1
LZ-K-20K20S1,695,experiment,63,←,left,←,0.47998179984278977,True,28,1
LZ-K-20K20S1,696,experiment,87,→,right,→,0.47922810004092753,True,28,1
LZ-K-20K20S1,697,experiment,67,←,right,→,0.7414140999317169,False,28,1
LZ-K-20K20S1,698,experiment,102,↓,down,↓,0.6853499999269843,True,28,1
LZ-K-20K20S1,699,experiment,72,↓,down,↓,0.6658559001516551,True,28,1
LZ-K-20K20S1,700,experiment,69,→,right,→,0.6317618999164551,True,28,1
LZ-K-20K20S1,701,experiment,76,←,left,←,0.6367971999570727,True,28,1
LZ-K-20K20S1,702,experiment,52,→,right,→,0.5299563000444323,True,28,1
LZ-K-20K20S1,703,experiment,93,←,left,←,0.43730040010996163,True,28,1
LZ-K-20K20S1,704,experiment,84,↓,down,↓,0.7673939999658614,True,28,1
LZ-K-20K20S1,705,experiment,88,↓,down,↓,0.547000499907881,True,28,1
LZ-K-20K20S1,706,experiment,60,→,right,→,0.464925300097093,True,28,1
LZ-K-20K20S1,707,experiment,98,↓,down,↓,0.6852351000998169,True,28,1
LZ-K-20K20S1,708,experiment,103,↑,up,↑,0.8073086000513285,True,28,1
LZ-K-20K20S1,709,experiment,90,↑,up,↑,0.672849299851805,True,28,1
LZ-K-20K20S1,710,experiment,91,→,right,→,0.5669639999978244,True,28,1
LZ-K-20K20S1,711,experiment,79,↓,down,↓,0.573674299987033,True,28,1
LZ-K-20K20S1,712,experiment,75,←,left,←,0.5974334999918938,True,28,1
LZ-K-20K20S1,713,experiment,106,→,right,→,0.5616828999482095,True,28,1
LZ-K-20K20S1,714,experiment,64,↓,down,↓,0.613480000058189,True,28,1
LZ-K-20K20S1,715,experiment,81,↓,down,↓,0.6335926000028849,True,28,1
LZ-K-20K20S1,716,experiment,61,↓,down,↓,0.6676793999504298,True,28,1
LZ-K-20K20S1,717,experiment,74,←,left,←,0.592153999954462,True,28,1
LZ-K-20K20S1,718,experiment,58,→,right,→,0.43668510019779205,True,28,1
LZ-K-20K20S1,719,experiment,77,←,left,←,0.40947060007601976,True,28,1
LZ-K-20K20S1,720,experiment,105,↑,up,↑,0.5099584998097271,True,28,1
LZ-K-20K20S1,721,experiment,54,↑,up,↑,0.5756353999022394,True,28,1
LZ-K-20K20S1,722,experiment,48,←,left,←,0.44002149999141693,True,28,1
LZ-K-20K20S1,723,experiment,66,↓,down,↓,0.736346400110051,True,28,1
LZ-K-20K20S1,724,experiment,85,↑,up,↑,0.6218391000293195,True,28,1
LZ-K-20K20S1,725,experiment,65,→,right,→,0.5190353998914361,True,28,1
LZ-K-20K20S1,726,experiment,57,↓,down,↓,0.7270076998975128,True,28,1
LZ-K-20K20S1,727,experiment,59,←,left,←,0.41413799999281764,True,28,1
LZ-K-20K20S1,728,experiment,51,→,right,→,0.7959700999781489,True,28,1
LZ-K-20K20S1,729,experiment,104,←,left,←,0.5928758000954986,True,28,1
LZ-K-20K20S1,730,experiment,56,←,left,←,0.5902233000379056,True,28,1
LZ-K-20K20S1,731,experiment,80,←,left,←,0.41198650002479553,True,28,1
LZ-K-20K20S1,732,experiment,62,←,left,←,0.5662209999281913,True,28,1
LZ-K-20K20S1,733,experiment,70,↑,up,↑,0.5998541000299156,True,28,1
LZ-K-20K20S1,734,training,97,→,right,→,0.5708469001110643,True,28,0
LZ-K-20K20S1,735,training,83,↓,down,↓,0.6719247000291944,True,28,1
LZ-K-20K20S1,736,experiment,76,↑,up,↑,0.4912900000344962,True,28,1
LZ-K-20K20S1,737,experiment,98,↑,up,↑,0.42295129992999136,True,28,1
LZ-K-20K20S1,738,experiment,68,←,left,←,0.6310134001541883,True,28,1
LZ-K-20K20S1,739,experiment,84,↑,up,↑,0.44933660002425313,True,28,1
LZ-K-20K20S1,740,experiment,92,↓,up,↑,0.5923876001033932,False,28,1
LZ-K-20K20S1,741,experiment,74,←,left,←,0.5117836999706924,True,28,1
LZ-K-20K20S1,742,experiment,78,↑,up,↑,0.4886753000319004,True,28,1
LZ-K-20K20S1,743,experiment,80,↓,down,↓,0.6902382001280785,True,28,1
LZ-K-20K20S1,744,experiment,53,↑,up,↑,0.42855049995705485,True,28,1
LZ-K-20K20S1,745,experiment,88,↑,up,↑,0.5981337998528033,True,28,1
LZ-K-20K20S1,746,experiment,105,↓,down,↓,0.5865909999702126,True,28,1
LZ-K-20K20S1,747,experiment,62,→,right,→,0.542214100016281,True,28,1
LZ-K-20K20S1,748,experiment,64,→,right,→,0.4430744000710547,True,28,1
LZ-K-20K20S1,749,experiment,103,↑,up,↑,0.7023065998218954,True,28,1
LZ-K-20K20S1,750,experiment,49,←,left,←,0.5940789999440312,True,28,1
LZ-K-20K20S1,751,experiment,107,→,right,→,0.6382858001161367,True,28,1
LZ-K-20K20S1,752,experiment,102,↓,down,↓,0.5866618000436574,True,28,1
LZ-K-20K20S1,753,experiment,79,↓,down,↓,0.5605511001776904,True,28,1
LZ-K-20K20S1,754,experiment,67,→,right,→,0.43551289988681674,True,28,1
LZ-K-20K20S1,755,experiment,50,↓,down,↓,0.601402800064534,True,28,1
LZ-K-20K20S1,756,experiment,73,→,right,→,0.48836580011993647,True,28,1
LZ-K-20K20S1,757,experiment,108,→,right,→,0.4485677001066506,True,28,1
LZ-K-20K20S1,758,experiment,97,↑,up,↑,0.6298525000456721,True,28,1
LZ-K-20K20S1,759,experiment,83,←,left,←,0.41649150010198355,True,28,1
LZ-K-20K20S1,760,experiment,58,→,right,→,0.5162033999804407,True,28,1
LZ-K-20K20S1,761,experiment,81,←,left,←,0.6124003001023084,True,28,1
LZ-K-20K20S1,762,experiment,86,←,left,←,0.3840632999781519,True,28,1
LZ-K-20K20S1,763,experiment,90,↑,up,↑,0.5207265999633819,True,28,0
LZ-K-20K20S1,764,experiment,100,→,right,→,0.45815579988993704,True,28,1
LZ-K-20K20S1,765,experiment,69,↑,up,↑,0.4488917998969555,True,28,1
LZ-K-20K20S1,766,experiment,63,↓,down,↓,0.6172042000107467,True,28,1
LZ-K-20K20S1,767,experiment,55,↓,down,↓,0.7741216002032161,True,28,1
LZ-K-20K20S1,768,experiment,99,↑,up,↑,0.6938387001864612,True,28,1
LZ-K-20K20S1,769,experiment,60,↓,down,↓,0.5260910999495536,True,28,1
LZ-K-20K20S1,770,experiment,48,→,right,→,0.4485243000090122,True,28,1
LZ-K-20K20S1,771,experiment,52,↓,down,↓,0.5730127000715584,True,28,1
LZ-K-20K20S1,772,experiment,87,→,right,→,0.5847341998014599,True,28,1
LZ-K-20K20S1,773,experiment,56,↑,up,↑,0.4545692999381572,True,28,1
LZ-K-20K20S1,774,experiment,106,↑,up,↑,0.616664299974218,True,28,1
LZ-K-20K20S1,775,experiment,77,↑,up,↑,0.4938757000491023,True,28,1
LZ-K-20K20S1,776,experiment,70,←,left,←,0.7945822000037879,True,28,1
LZ-K-20K20S1,777,experiment,57,↓,down,↓,0.5678141999524087,True,28,1
LZ-K-20K20S1,778,experiment,72,↓,down,↓,0.6489633000455797,True,28,1
LZ-K-20K20S1,779,experiment,93,↓,down,↓,0.5516437001060694,True,28,1
LZ-K-20K20S1,780,experiment,94,←,left,←,0.6019015000201762,True,28,1
LZ-K-20K20S1,781,experiment,95,↑,up,↑,0.46600389992818236,True,28,1
LZ-K-20K20S1,782,experiment,91,←,left,←,0.5128101999871433,True,28,1
LZ-K-20K20S1,783,experiment,101,←,left,←,0.5864048998337239,True,28,1
LZ-K-20K20S1,784,experiment,82,←,left,←,1.583383799996227,True,28,1
LZ-K-20K20S1,785,experiment,71,↓,down,↓,0.695999399991706,True,28,1
LZ-K-20K20S1,786,experiment,65,→,right,→,0.6460973999928683,True,28,1
LZ-K-20K20S1,787,experiment,85,↑,up,↑,0.487518000183627,True,28,1
LZ-K-20K20S1,788,experiment,54,↓,down,↓,0.6579075001645833,True,28,1
LZ-K-20K20S1,789,experiment,61,↓,down,↓,0.578753300011158,True,28,1
LZ-K-20K20S1,790,experiment,75,↓,down,↓,0.7141790001187474,True,28,1
LZ-K-20K20S1,791,experiment,51,↑,up,↑,0.46015869989059865,True,28,1
LZ-K-20K20S1,792,experiment,104,→,right,→,0.4549522001761943,True,28,1
LZ-K-20K20S1,793,experiment,96,↓,down,↓,0.7721804000902921,True,28,1
LZ-K-20K20S1,794,experiment,59,→,right,→,0.4013756001368165,True,28,1
LZ-K-20K20S1,795,experiment,66,←,left,←,0.426822799956426,True,28,0
LZ-K-20K20S1,796,experiment,89,←,left,←,0.587872700067237,True,28,1
LZ-K-20K20S1,797,training,86,←,left,←,0.432711600093171,True,28,0
LZ-K-20K20S1,798,training,98,↓,down,↓,0.6380760001484305,True,28,1
LZ-K-20K20S1,799,experiment,89,←,left,←,0.6225554998964071,True,28,1
LZ-K-20K20S1,800,experiment,57,→,right,→,0.49827630002982914,True,28,1
LZ-K-20K20S1,801,experiment,72,↓,down,↓,0.654031699988991,True,28,1
LZ-K-20K20S1,802,experiment,102,←,left,←,0.41741400002501905,True,28,1
LZ-K-20K20S1,803,experiment,87,←,left,←,0.5315482998266816,True,28,1
LZ-K-20K20S1,804,experiment,66,→,right,→,0.48782919999212027,True,28,1
LZ-K-20K20S1,805,experiment,101,→,right,→,0.5384368000086397,True,28,1
LZ-K-20K20S1,806,experiment,79,↑,up,↑,0.49852679995819926,True,28,1
LZ-K-20K20S1,807,experiment,56,→,right,→,0.5793714998289943,True,28,1
LZ-K-20K20S1,808,experiment,67,→,left,←,0.9175978000275791,False,28,1
LZ-K-20K20S1,809,experiment,95,→,right,→,0.5688449000008404,True,28,1
LZ-K-20K20S1,810,experiment,68,←,left,←,0.611251899972558,True,28,1
LZ-K-20K20S1,811,experiment,58,→,right,→,0.6313040000386536,True,28,1
LZ-K-20K20S1,812,experiment,80,↑,up,↑,0.6111479999963194,True,28,1
LZ-K-20K20S1,813,experiment,104,→,right,→,0.623769500060007,True,28,1
LZ-K-20K20S1,814,experiment,75,↓,down,↓,0.7415181000251323,True,28,1
LZ-K-20K20S1,815,experiment,86,↑,up,↑,0.5627147001214325,True,28,1
LZ-K-20K20S1,816,experiment,78,→,right,→,0.5458371001295745,True,28,1
LZ-K-20K20S1,817,experiment,73,↓,down,↓,0.5793703000526875,True,28,1
LZ-K-20K20S1,818,experiment,59,→,right,→,0.5124035999178886,True,28,1
LZ-K-20K20S1,819,experiment,92,↑,up,↑,0.6527315001003444,True,28,1
LZ-K-20K20S1,820,experiment,63,→,right,→,0.6210745999123901,True,28,1
LZ-K-20K20S1,821,experiment,103,→,right,→,0.5217240999918431,True,28,1
LZ-K-20K20S1,822,experiment,70,↑,up,↑,0.5810644000303,True,28,1
LZ-K-20K20S1,823,experiment,93,←,left,←,0.48668120009824634,True,28,1
LZ-K-20K20S1,824,experiment,71,←,left,←,0.43504410004243255,True,28,1
LZ-K-20K20S1,825,experiment,83,↑,up,↑,0.4696763001848012,True,28,1
LZ-K-20K20S1,826,experiment,99,↓,down,↓,0.7459408999420702,True,28,1
LZ-K-20K20S1,827,experiment,51,←,left,←,0.6185500998981297,True,28,1
LZ-K-20K20S1,828,experiment,65,←,left,←,0.37582190008834004,True,28,1
LZ-K-20K20S1,829,experiment,96,↑,up,↑,0.48430459992960095,True,28,0
LZ-K-20K20S1,830,experiment,100,↑,up,↑,0.4315857000183314,True,28,1
LZ-K-20K20S1,831,experiment,91,←,left,←,0.7355552001390606,True,28,1
LZ-K-20K20S1,832,experiment,94,→,left,←,0.5705616001505405,False,28,1
LZ-K-20K20S1,833,experiment,81,↑,up,↑,0.4801092999987304,True,28,1
LZ-K-20K20S1,834,experiment,50,←,left,←,0.44392929994501173,True,28,1
LZ-K-20K20S1,835,experiment,97,↑,up,↑,0.4416876998730004,True,28,1
LZ-K-20K20S1,836,experiment,60,→,right,→,0.4358481999952346,True,28,1
LZ-K-20K20S1,837,experiment,88,↓,down,↓,0.5569949999917299,True,28,1
LZ-K-20K20S1,838,experiment,108,←,left,←,0.42641959991306067,True,28,1
LZ-K-20K20S1,839,experiment,98,↓,up,↑,0.6323329999577254,False,28,1
LZ-K-20K20S1,840,experiment,62,↓,down,↓,0.4980089000891894,True,28,1
LZ-K-20K20S1,841,experiment,64,→,right,→,0.632388399913907,True,28,1
LZ-K-20K20S1,842,experiment,105,←,left,←,0.6838289999868721,True,28,1
LZ-K-20K20S1,843,experiment,85,↓,down,↓,0.5317605000454932,True,28,1
LZ-K-20K20S1,844,experiment,77,↑,up,↑,0.42850150004960597,True,28,1
LZ-K-20K20S1,845,experiment,90,←,left,←,0.7173705999739468,True,28,1
LZ-K-20K20S1,846,experiment,107,→,left,←,0.6368426000699401,False,28,1
LZ-K-20K20S1,847,experiment,52,←,left,←,0.6257539999205619,True,28,1
LZ-K-20K20S1,848,experiment,48,→,right,→,0.7447695001028478,True,28,1
LZ-K-20K20S1,849,experiment,53,↓,down,↓,0.6013156000990421,True,28,1
LZ-K-20K20S1,850,experiment,54,↑,up,↑,0.5665653999894857,True,28,1
LZ-K-20K20S1,851,experiment,49,←,left,←,0.38460629992187023,True,28,1
LZ-K-20K20S1,852,experiment,82,↑,up,↑,0.48400240018963814,True,28,1
LZ-K-20K20S1,853,experiment,76,↓,down,↓,0.6955594001337886,True,28,1
LZ-K-20K20S1,854,experiment,106,↓,down,↓,0.7517709000967443,True,28,1
LZ-K-20K20S1,855,experiment,61,↑,up,↑,0.42946629994548857,True,28,1
LZ-K-20K20S1,856,experiment,69,←,left,←,0.4207590001169592,True,28,1
LZ-K-20K20S1,857,experiment,55,←,left,←,0.4175622998736799,True,28,1
LZ-K-20K20S1,858,experiment,84,→,right,→,0.5084765998180956,True,28,1
LZ-K-20K20S1,859,experiment,74,←,left,←,0.8232568001840264,True,28,1
LZ-K-20K20S1,860,training,88,↓,down,↓,0.5308638999704272,True,28,0
LZ-K-20K20S1,861,training,93,↓,down,↓,0.7259653999935836,True,28,1
LZ-K-20K20S1,862,experiment,82,←,left,←,0.4371410000603646,True,28,1
LZ-K-20K20S1,863,experiment,83,←,left,←,0.3611979999113828,True,28,1
LZ-K-20K20S1,864,experiment,50,↓,down,↓,0.5202472999226302,True,28,0
LZ-K-20K20S1,865,experiment,66,→,left,←,0.5653927999082953,False,28,1
LZ-K-20K20S1,866,experiment,60,←,left,←,0.4583618000615388,True,28,1
LZ-K-20K20S1,867,experiment,106,→,left,←,0.5085187000222504,False,28,1
LZ-K-20K20S1,868,experiment,91,↓,down,↓,0.6495101000182331,True,28,1
LZ-K-20K20S1,869,experiment,55,←,left,←,0.3762089000083506,True,28,1
LZ-K-20K20S1,870,experiment,54,↑,up,↑,0.45927220000885427,True,28,1
LZ-K-20K20S1,871,experiment,68,←,left,←,0.5539743998087943,True,28,1
LZ-K-20K20S1,872,experiment,96,←,left,←,0.5794911999255419,True,28,1
LZ-K-20K20S1,873,experiment,84,↓,down,↓,0.6237349000293761,True,28,1
LZ-K-20K20S1,874,experiment,77,↓,down,↓,0.5650808999780566,True,28,1
LZ-K-20K20S1,875,experiment,71,↓,down,↓,0.5663577001541853,True,28,1
LZ-K-20K20S1,876,experiment,89,→,right,→,0.4975582999177277,True,28,1
LZ-K-20K20S1,877,experiment,93,←,left,←,0.4943341000471264,True,28,1
LZ-K-20K20S1,878,experiment,95,↑,up,↑,0.4587164002005011,True,28,1
LZ-K-20K20S1,879,experiment,92,←,left,←,0.43374130013398826,True,28,1
LZ-K-20K20S1,880,experiment,59,↑,up,↑,0.500220000045374,True,28,1
LZ-K-20K20S1,881,experiment,76,↓,down,↓,0.6707005000207573,True,28,1
LZ-K-20K20S1,882,experiment,79,←,left,←,0.6330477001611143,True,28,1
LZ-K-20K20S1,883,experiment,102,→,right,→,0.8213845000136644,True,28,1
LZ-K-20K20S1,884,experiment,100,←,left,←,0.6591805999632925,True,28,1
LZ-K-20K20S1,885,experiment,57,↑,up,↑,0.5090075000189245,True,28,1
LZ-K-20K20S1,886,experiment,78,↓,down,↓,0.7345259999856353,True,28,1
LZ-K-20K20S1,887,experiment,53,→,right,→,0.7512691000010818,True,28,1
LZ-K-20K20S1,888,experiment,99,↓,down,↓,0.6479095998220146,True,28,1
LZ-K-20K20S1,889,experiment,90,↑,up,↑,0.6396485997829586,True,28,1
LZ-K-20K20S1,890,experiment,72,↓,down,↓,0.701819300185889,True,28,1
LZ-K-20K20S1,891,experiment,98,↓,down,↓,0.6728046000935137,True,28,1
LZ-K-20K20S1,892,experiment,74,←,left,←,0.48494299990125,True,28,1
LZ-K-20K20S1,893,experiment,88,↓,down,↓,0.7878930999431759,True,28,1
LZ-K-20K20S1,894,experiment,108,←,left,←,0.615888400003314,True,28,1
LZ-K-20K20S1,895,experiment,65,←,left,←,0.6172371001448482,True,28,1
LZ-K-20K20S1,896,experiment,62,↑,up,↑,0.6597983001265675,True,28,1
LZ-K-20K20S1,897,experiment,101,←,left,←,0.6154289001133293,True,28,1
LZ-K-20K20S1,898,experiment,48,←,left,←,0.5664853998459876,True,28,1
LZ-K-20K20S1,899,experiment,67,←,left,←,0.4412831000518054,True,28,1
LZ-K-20K20S1,900,experiment,80,↑,up,↑,0.6765116001479328,True,28,1
LZ-K-20K20S1,901,experiment,87,↓,down,↓,0.5644392999820411,True,28,1
LZ-K-20K20S1,902,experiment,70,↓,down,↓,0.7020324999466538,True,28,1
LZ-K-20K20S1,903,experiment,104,↑,up,↑,0.4947732000146061,True,28,1
LZ-K-20K20S1,904,experiment,58,→,up,↑,0.8317410000599921,False,28,1
LZ-K-20K20S1,905,experiment,73,↑,up,↑,0.5256083998829126,True,28,1
LZ-K-20K20S1,906,experiment,86,→,right,→,0.6756986998952925,True,28,1
LZ-K-20K20S1,907,experiment,61,↑,up,↑,0.5001181999687105,True,28,1
LZ-K-20K20S1,908,experiment,85,↑,up,↑,0.4434773998800665,True,28,1
LZ-K-20K20S1,909,experiment,94,→,right,→,0.681980499997735,True,28,1
LZ-K-20K20S1,910,experiment,52,↓,down,↓,0.5492222001776099,True,28,1
LZ-K-20K20S1,911,experiment,97,↑,up,↑,0.47075359988957644,True,28,1
LZ-K-20K20S1,912,experiment,103,↑,up,↑,0.4255991999525577,True,28,1
LZ-K-20K20S1,913,experiment,69,↓,up,↑,0.5530218000058085,False,28,1
LZ-K-20K20S1,914,experiment,49,←,left,←,0.6505541999358684,True,28,1
LZ-K-20K20S1,915,experiment,51,↓,down,↓,0.8232713998295367,True,28,1
LZ-K-20K20S1,916,experiment,64,→,right,→,0.47262949985451996,True,28,1
LZ-K-20K20S1,917,experiment,107,→,right,→,0.5296205000486225,True,28,1
LZ-K-20K20S1,918,experiment,81,↓,down,↓,0.5450690998695791,True,28,1
LZ-K-20K20S1,919,experiment,105,↓,down,↓,0.6881192000582814,True,28,1
LZ-K-20K20S1,920,experiment,63,↑,down,↓,1.311249200021848,False,28,1
LZ-K-20K20S1,921,experiment,56,←,left,←,0.4718577000312507,True,28,1
LZ-K-20K20S1,922,experiment,75,↑,up,↑,0.47552100010216236,True,28,1
LZ-K-20K20S1,923,training,97,↑,up,↑,0.6752960998564959,True,28,0
LZ-K-20K20S1,924,training,80,↓,down,↓,0.5015334999188781,True,28,1
LZ-K-20K20S1,925,experiment,48,↑,up,↑,0.4012990000192076,True,28,1
LZ-K-20K20S1,926,experiment,106,↑,up,↑,0.48511300003156066,True,28,0
LZ-K-20K20S1,927,experiment,69,↓,down,↓,0.6822755001485348,True,28,1
LZ-K-20K20S1,928,experiment,87,↓,down,↓,0.593882700195536,True,28,1
LZ-K-20K20S1,929,experiment,81,↓,down,↓,0.5588273999746889,True,28,1
LZ-K-20K20S1,930,experiment,95,←,left,←,0.6249177998397499,True,28,1
LZ-K-20K20S1,931,experiment,101,→,right,→,0.48557160003110766,True,28,1
LZ-K-20K20S1,932,experiment,49,←,left,←,0.41778889996930957,True,28,1
LZ-K-20K20S1,933,experiment,97,←,left,←,0.5843711998313665,True,28,1
LZ-K-20K20S1,934,experiment,102,↓,down,↓,0.71086630015634,True,28,1
LZ-K-20K20S1,935,experiment,105,↓,down,↓,0.5911443999502808,True,28,1
LZ-K-20K20S1,936,experiment,77,↑,up,↑,0.613539099926129,True,28,1
LZ-K-20K20S1,937,experiment,104,↓,down,↓,0.5700910999439657,True,28,1
LZ-K-20K20S1,938,experiment,103,→,right,→,0.6327426000498235,True,28,1
LZ-K-20K20S1,939,experiment,85,→,right,→,0.47443610010668635,True,28,1
LZ-K-20K20S1,940,experiment,89,←,left,←,0.5857480000704527,True,28,1
LZ-K-20K20S1,941,experiment,107,↑,up,↑,0.5740869999863207,True,28,1
LZ-K-20K20S1,942,experiment,92,↑,up,↑,0.5680867999326438,True,28,1
LZ-K-20K20S1,943,experiment,50,↓,down,↓,0.6967992000281811,True,28,1
LZ-K-20K20S1,944,experiment,52,↓,down,↓,0.6109745998401195,True,28,1
LZ-K-20K20S1,945,experiment,60,←,left,←,0.4862957999575883,True,28,1
LZ-K-20K20S1,946,experiment,70,↓,down,↓,0.5633175000548363,True,28,1
LZ-K-20K20S1,947,experiment,59,↑,up,↑,0.6407773999962956,True,28,1
LZ-K-20K20S1,948,experiment,61,←,left,←,0.45060590002685785,True,28,1
LZ-K-20K20S1,949,experiment,53,↑,up,↑,0.6307474998757243,True,28,1
LZ-K-20K20S1,950,experiment,96,←,left,←,0.40584130003117025,True,28,1
LZ-K-20K20S1,951,experiment,94,↓,down,↓,0.6131598998326808,True,28,1
LZ-K-20K20S1,952,experiment,78,↑,up,↑,0.42610520008020103,True,28,1
LZ-K-20K20S1,953,experiment,82,←,left,←,1.565631499979645,True,28,1
LZ-K-20K20S1,954,experiment,62,↑,up,↑,0.4339040999766439,True,28,1
LZ-K-20K20S1,955,experiment,55,↓,down,↓,0.6139363998081535,True,28,1
LZ-K-20K20S1,956,experiment,74,→,left,←,0.7404371001757681,False,28,1
LZ-K-20K20S1,957,experiment,79,↑,up,↑,0.5000068999361247,True,28,1
LZ-K-20K20S1,958,experiment,51,←,left,←,0.6868744001258165,True,28,1
LZ-K-20K20S1,959,experiment,98,↓,down,↓,0.5865644998848438,True,28,1
LZ-K-20K20S1,960,experiment,75,↑,up,↑,0.5456799000967294,True,28,1
LZ-K-20K20S1,961,experiment,73,↓,down,↓,0.554994799895212,True,28,1
LZ-K-20K20S1,962,experiment,80,↓,down,↓,0.4978589001111686,True,28,1
LZ-K-20K20S1,963,experiment,67,↑,up,↑,0.47109410003758967,True,28,1
LZ-K-20K20S1,964,experiment,57,←,left,←,0.4569467999972403,True,28,1
LZ-K-20K20S1,965,experiment,72,→,left,←,0.6784127000719309,False,28,1
LZ-K-20K20S1,966,experiment,58,↓,down,↓,0.5353618999943137,True,28,1
LZ-K-20K20S1,967,experiment,76,→,right,→,0.4725492999423295,True,28,1
LZ-K-20K20S1,968,experiment,68,→,right,→,0.4147188998758793,True,28,1
LZ-K-20K20S1,969,experiment,84,↑,up,↑,0.7216735000256449,True,28,1
LZ-K-20K20S1,970,experiment,90,↑,up,↑,0.4544404000043869,True,28,1
LZ-K-20K20S1,971,experiment,65,↓,down,↓,0.5179061000235379,True,28,1
LZ-K-20K20S1,972,experiment,91,↑,up,↑,0.6188767999410629,True,28,1
LZ-K-20K20S1,973,experiment,100,→,right,→,0.4884973999578506,True,28,1
LZ-K-20K20S1,974,experiment,71,→,right,→,0.4289707001298666,True,28,1
LZ-K-20K20S1,975,experiment,56,↑,up,↑,0.6005843998864293,True,28,1
LZ-K-20K20S1,976,experiment,54,→,right,→,0.670426799915731,True,28,1
LZ-K-20K20S1,977,experiment,83,↓,up,↑,0.6235704999417067,False,28,1
LZ-K-20K20S1,978,experiment,64,↑,up,↑,0.44878290011547506,True,28,1
LZ-K-20K20S1,979,experiment,86,↓,down,↓,0.5300117000006139,True,28,1
LZ-K-20K20S1,980,experiment,63,←,left,←,0.42356309993192554,True,28,1
LZ-K-20K20S1,981,experiment,66,←,right,→,0.72048159991391,False,28,1
LZ-K-20K20S1,982,experiment,88,←,left,←,0.4779372999910265,True,28,1
LZ-K-20K20S1,983,experiment,93,↑,up,↑,0.46802949998527765,True,28,1
LZ-K-20K20S1,984,experiment,108,→,right,→,0.7646478000096977,True,28,1
LZ-K-20K20S1,985,experiment,99,↑,up,↑,0.4285846999846399,True,28,1
LZ-K-20K20S1,986,training,72,↑,up,↑,0.4863573000766337,True,28,0
LZ-K-20K20S1,987,training,85,←,left,←,0.5582648999989033,True,28,1
LZ-K-20K20S1,988,experiment,51,←,left,←,1.4144538999535143,True,28,1
LZ-K-20K20S1,989,experiment,78,↑,up,↑,0.5394547998439521,True,28,1
LZ-K-20K20S1,990,experiment,82,←,left,←,0.5303414999507368,True,28,1
LZ-K-20K20S1,991,experiment,89,←,left,←,0.38382799993269145,True,28,1
LZ-K-20K20S1,992,experiment,53,←,left,←,0.3513250998221338,True,28,0
LZ-K-20K20S1,993,experiment,76,→,left,←,0.7332245998550206,False,28,1
LZ-K-20K20S1,994,experiment,62,↓,down,↓,0.5868774000555277,True,28,1
LZ-K-20K20S1,995,experiment,54,←,left,←,0.5771864999551326,True,28,1
LZ-K-20K20S1,996,experiment,57,←,left,←,0.5989129999652505,True,28,1
LZ-K-20K20S1,997,experiment,91,→,right,→,0.6245711001101881,True,28,1
LZ-K-20K20S1,998,experiment,65,↑,up,↑,0.6172690999228507,True,28,1
LZ-K-20K20S1,999,experiment,83,←,left,←,0.4765558000653982,True,28,1
LZ-K-20K20S1,1000,experiment,56,←,left,←,0.36788989999331534,True,28,1
LZ-K-20K20S1,1001,experiment,100,←,left,←,0.526203399989754,True,28,0
LZ-K-20K20S1,1002,experiment,64,→,right,→,0.7154838999267668,True,28,1
LZ-K-20K20S1,1003,experiment,66,↓,down,↓,0.6408948998432606,True,28,1
LZ-K-20K20S1,1004,experiment,92,←,left,←,0.5838782000355422,True,28,1
LZ-K-20K20S1,1005,experiment,87,←,left,←,0.49923439999110997,True,28,1
LZ-K-20K20S1,1006,experiment,68,↑,up,↑,0.4562770000193268,True,28,1
LZ-K-20K20S1,1007,experiment,84,↑,up,↑,0.5778761999681592,True,28,1
LZ-K-20K20S1,1008,experiment,77,↓,down,↓,0.5608485999982804,True,28,1
LZ-K-20K20S1,1009,experiment,63,↓,down,↓,0.5892317998223007,True,28,1
LZ-K-20K20S1,1010,experiment,52,↓,down,↓,0.6922026998363435,True,28,1
LZ-K-20K20S1,1011,experiment,48,↑,up,↑,0.7124758998397738,True,28,1
LZ-K-20K20S1,1012,experiment,99,→,right,→,0.7222657001111656,True,28,1
LZ-K-20K20S1,1013,experiment,102,→,right,→,0.5229321999941021,True,28,1
LZ-K-20K20S1,1014,experiment,108,←,left,←,0.6334093001205474,True,28,1
LZ-K-20K20S1,1015,experiment,80,↑,up,↑,0.5573807000182569,True,28,1
LZ-K-20K20S1,1016,experiment,55,←,left,←,0.4283413998782635,True,28,1
LZ-K-20K20S1,1017,experiment,96,←,left,←,0.45132160000503063,True,28,1
LZ-K-20K20S1,1018,experiment,74,↑,up,↑,0.6881035999394953,True,28,1
LZ-K-20K20S1,1019,experiment,61,↑,up,↑,0.4964894000440836,True,28,1
LZ-K-20K20S1,1020,experiment,60,↑,up,↑,0.5121305999346077,True,28,1
LZ-K-20K20S1,1021,experiment,95,←,left,←,0.5477100000716746,True,28,1
LZ-K-20K20S1,1022,experiment,88,↑,up,↑,0.4562615000177175,True,28,1
LZ-K-20K20S1,1023,experiment,90,←,left,←,0.4156474000774324,True,28,1
LZ-K-20K20S1,1024,experiment,75,→,right,→,0.613528799964115,True,28,1
LZ-K-20K20S1,1025,experiment,97,←,left,←,0.4125622999854386,True,28,1
LZ-K-20K20S1,1026,experiment,73,→,right,→,0.5712190999183804,True,28,1
LZ-K-20K20S1,1027,experiment,93,↑,up,↑,0.6367091999854892,True,28,1
LZ-K-20K20S1,1028,experiment,79,→,right,→,0.44889889983460307,True,28,1
LZ-K-20K20S1,1029,experiment,98,→,right,→,0.6618488999083638,True,28,1
LZ-K-20K20S1,1030,experiment,81,←,left,←,0.4322599000297487,True,28,1
LZ-K-20K20S1,1031,experiment,107,↑,up,↑,0.6585984998382628,True,28,1
LZ-K-20K20S1,1032,experiment,59,→,right,→,0.6286428000312299,True,28,1
LZ-K-20K20S1,1033,experiment,50,←,left,←,0.4345124000683427,True,28,1
LZ-K-20K20S1,1034,experiment,94,→,right,→,0.6494980999268591,True,28,1
LZ-K-20K20S1,1035,experiment,101,←,left,←,0.6057933000847697,True,28,1
LZ-K-20K20S1,1036,experiment,106,↓,down,↓,0.8577403000090271,True,28,1
LZ-K-20K20S1,1037,experiment,49,↑,up,↑,0.5346729999873787,True,28,1
LZ-K-20K20S1,1038,experiment,103,↑,up,↑,0.6307846999261528,True,28,1
LZ-K-20K20S1,1039,experiment,70,↑,up,↑,0.4141470999456942,True,28,1
LZ-K-20K20S1,1040,experiment,86,→,right,→,0.5122464001178741,True,28,1
LZ-K-20K20S1,1041,experiment,72,↓,down,↓,0.5871934001334012,True,28,1
LZ-K-20K20S1,1042,experiment,105,→,right,→,0.6642433998640627,True,28,1
LZ-K-20K20S1,1043,experiment,67,→,right,→,0.5590053999330848,True,28,1
LZ-K-20K20S1,1044,experiment,58,↓,down,↓,0.6931048999540508,True,28,1
LZ-K-20K20S1,1045,experiment,85,↑,up,↑,0.4446884000208229,True,28,1
LZ-K-20K20S1,1046,experiment,71,→,right,→,0.57924610003829,True,28,1
LZ-K-20K20S1,1047,experiment,69,→,right,→,0.42903930018655956,True,28,1
LZ-K-20K20S1,1048,experiment,104,←,left,←,0.4085376998409629,True,28,1
LZ-K-20K20S1,1049,training,74,←,left,←,0.38469370012171566,True,28,0
LZ-K-20K20S1,1050,training,65,↑,up,↑,0.6202299001161009,True,28,0
LZ-K-20K20S1,1051,experiment,77,↓,down,↓,0.7697630000766367,True,28,1
LZ-K-20K20S1,1052,experiment,55,↓,down,↓,0.7124549997970462,True,28,1
LZ-K-20K20S1,1053,experiment,82,→,right,→,0.5441052000969648,True,28,1
LZ-K-20K20S1,1054,experiment,66,←,left,←,0.4361399000044912,True,28,1
LZ-K-20K20S1,1055,experiment,95,←,left,←,0.6749001999851316,True,28,1
LZ-K-20K20S1,1056,experiment,88,←,left,←,0.44221689994446933,True,28,1
LZ-K-20K20S1,1057,experiment,90,←,left,←,0.618312899954617,True,28,1
LZ-K-20K20S1,1058,experiment,78,←,left,←,0.5433449000120163,True,28,1
LZ-K-20K20S1,1059,experiment,86,↓,down,↓,0.6368527000304312,True,28,1
LZ-K-20K20S1,1060,experiment,108,↓,down,↓,0.6071476000361145,True,28,1
LZ-K-20K20S1,1061,experiment,50,←,left,←,0.6620344000402838,True,28,1
LZ-K-20K20S1,1062,experiment,53,↑,up,↑,0.48123409994877875,True,28,1
LZ-K-20K20S1,1063,experiment,76,→,right,→,0.5084299999289215,True,28,1
LZ-K-20K20S1,1064,experiment,51,↓,down,↓,0.5347122000530362,True,28,1
LZ-K-20K20S1,1065,experiment,75,→,right,→,0.4401145000010729,True,28,1
LZ-K-20K20S1,1066,experiment,74,←,left,←,0.6538197998888791,True,28,1
LZ-K-20K20S1,1067,experiment,106,→,right,→,0.4797952000517398,True,28,1
LZ-K-20K20S1,1068,experiment,68,←,left,←,0.5732662999071181,True,28,1
LZ-K-20K20S1,1069,experiment,67,→,right,→,0.4558062998112291,True,28,1
LZ-K-20K20S1,1070,experiment,101,↓,down,↓,0.5720480000600219,True,28,1
LZ-K-20K20S1,1071,experiment,107,↓,down,↓,0.7605455000884831,True,28,1
LZ-K-20K20S1,1072,experiment,96,→,right,→,0.6338870001491159,True,28,1
LZ-K-20K20S1,1073,experiment,62,→,right,→,0.4196621000301093,True,28,1
LZ-K-20K20S1,1074,experiment,79,→,right,→,0.6093117001000792,True,28,1
LZ-K-20K20S1,1075,experiment,70,→,right,→,0.5445433999411762,True,28,1
LZ-K-20K20S1,1076,experiment,59,→,right,→,1.1268825000151992,True,28,1
LZ-K-20K20S1,1077,experiment,52,←,left,←,0.5762521000579,True,28,1
LZ-K-20K20S1,1078,experiment,93,↓,down,↓,0.6340874000452459,True,28,1
LZ-K-20K20S1,1079,experiment,72,←,left,←,0.7683007998857647,True,28,1
LZ-K-20K20S1,1080,experiment,84,↑,up,↑,0.685239200014621,True,28,1
LZ-K-20K20S1,1081,experiment,87,↑,up,↑,0.6128909001126885,True,28,1
LZ-K-20K20S1,1082,experiment,94,→,right,→,0.5724637999664992,True,28,1
LZ-K-20K20S1,1083,experiment,81,↓,down,↓,0.7219549000728875,True,28,1
LZ-K-20K20S1,1084,experiment,54,←,left,←,0.4035557999741286,True,28,1
LZ-K-20K20S1,1085,experiment,71,→,right,→,0.6746293001342565,True,28,0
LZ-K-20K20S1,1086,experiment,104,↓,down,↓,0.7487981000449508,True,28,1
LZ-K-20K20S1,1087,experiment,100,←,left,←,0.5250705999787897,True,28,1
LZ-K-20K20S1,1088,experiment,69,↑,up,↑,0.59272940014489,True,28,1
LZ-K-20K20S1,1089,experiment,92,←,left,←,0.5941389000508934,True,28,1
LZ-K-20K20S1,1090,experiment,60,←,left,←,0.5661253000143915,True,28,1
LZ-K-20K20S1,1091,experiment,105,←,left,←,0.7642281998414546,True,28,1
LZ-K-20K20S1,1092,experiment,49,↑,up,↑,0.4848729001823813,True,28,1
LZ-K-20K20S1,1093,experiment,65,↓,down,↓,0.5799406000878662,True,28,1
LZ-K-20K20S1,1094,experiment,48,←,left,←,0.3836507999803871,True,28,1
LZ-K-20K20S1,1095,experiment,89,→,right,→,0.5106378998607397,True,28,0
LZ-K-20K20S1,1096,experiment,58,↓,down,↓,0.7185007000807673,True,28,1
LZ-K-20K20S1,1097,experiment,80,↑,up,↑,0.6308363999705762,True,28,1
LZ-K-20K20S1,1098,experiment,61,↓,down,↓,0.6169034000486135,True,28,1
LZ-K-20K20S1,1099,experiment,103,→,right,→,0.525419999845326,True,28,1
LZ-K-20K20S1,1100,experiment,91,↓,down,↓,0.6899635000154376,True,28,1
LZ-K-20K20S1,1101,experiment,83,↓,down,↓,0.6822778999339789,True,28,1
LZ-K-20K20S1,1102,experiment,85,→,right,→,0.5944026000797749,True,28,1
LZ-K-20K20S1,1103,experiment,56,←,left,←,0.41559370001778007,True,28,1
LZ-K-20K20S1,1104,experiment,98,→,right,→,0.6136157000437379,True,28,1
LZ-K-20K20S1,1105,experiment,99,↑,up,↑,0.483516100095585,True,28,1
LZ-K-20K20S1,1106,experiment,102,↑,up,↑,0.5661469998303801,True,28,1
LZ-K-20K20S1,1107,experiment,97,→,right,→,0.5589159000664949,True,28,1
LZ-K-20K20S1,1108,experiment,64,→,right,→,0.5390296000987291,True,28,1
LZ-K-20K20S1,1109,experiment,73,←,left,←,0.4847400998696685,True,28,1
LZ-K-20K20S1,1110,experiment,63,↓,down,↓,0.6040159000549465,True,28,1
LZ-K-20K20S1,1111,experiment,57,←,left,←,0.5925453999079764,True,28,1
LZ-K-20K20S1,1112,training,78,←,left,←,0.5714306000154465,True,28,0
LZ-K-20K20S1,1113,training,99,↓,down,↓,0.77907619997859,True,28,1
LZ-K-20K20S1,1114,experiment,75,→,right,→,0.6824515999760479,True,28,1
LZ-K-20K20S1,1115,experiment,67,→,right,→,0.4885515000205487,True,28,1
LZ-K-20K20S1,1116,experiment,84,↑,up,↑,0.47240090020932257,True,28,1
LZ-K-20K20S1,1117,experiment,58,→,right,→,0.4579924000427127,True,28,1
LZ-K-20K20S1,1118,experiment,92,→,right,→,0.4329687999561429,True,28,1
LZ-K-20K20S1,1119,experiment,103,←,left,←,0.428776599932462,True,28,1
LZ-K-20K20S1,1120,experiment,104,←,left,←,1.1287948000244796,True,28,1
LZ-K-20K20S1,1121,experiment,107,→,left,←,0.679321700008586,False,28,1
LZ-K-20K20S1,1122,experiment,76,→,right,→,0.45887480000965297,True,28,1
LZ-K-20K20S1,1123,experiment,78,↑,up,↑,0.7822394000831991,True,28,1
LZ-K-20K20S1,1124,experiment,83,↓,down,↓,0.6189672998152673,True,28,1
LZ-K-20K20S1,1125,experiment,64,↓,down,↓,0.7164076999761164,True,28,1
LZ-K-20K20S1,1126,experiment,93,→,right,→,0.5127733000554144,True,28,1
LZ-K-20K20S1,1127,experiment,51,↑,up,↑,0.45070610009133816,True,28,1
LZ-K-20K20S1,1128,experiment,53,↓,down,↓,0.6469258000142872,True,28,1
LZ-K-20K20S1,1129,experiment,61,→,right,→,0.44860569993034005,True,28,1
LZ-K-20K20S1,1130,experiment,88,↓,down,↓,0.6486500001046807,True,28,1
LZ-K-20K20S1,1131,experiment,74,↑,up,↑,0.5017337000463158,True,28,1
LZ-K-20K20S1,1132,experiment,86,↓,down,↓,0.6612211999017745,True,28,1
LZ-K-20K20S1,1133,experiment,52,↓,down,↓,0.4966979001183063,True,28,1
LZ-K-20K20S1,1134,experiment,57,→,right,→,0.5217615999281406,True,28,1
LZ-K-20K20S1,1135,experiment,77,←,left,←,0.4032914999406785,True,28,1
LZ-K-20K20S1,1136,experiment,90,↓,down,↓,0.6679310000035912,True,28,0
LZ-K-20K20S1,1137,experiment,89,↑,up,↑,0.5795546001754701,True,28,1
LZ-K-20K20S1,1138,experiment,99,←,left,←,0.6109857999254018,True,28,1
LZ-K-20K20S1,1139,experiment,49,→,right,→,0.44949929998256266,True,28,1
LZ-K-20K20S1,1140,experiment,68,↓,down,↓,0.7205769999418408,True,28,1
LZ-K-20K20S1,1141,experiment,105,↑,up,↑,0.8725584000349045,True,28,1
LZ-K-20K20S1,1142,experiment,82,↓,down,↓,0.6658350999932736,True,28,1
LZ-K-20K20S1,1143,experiment,91,↑,up,↑,0.4645237000659108,True,28,1
LZ-K-20K20S1,1144,experiment,85,←,left,←,0.5772758000530303,True,28,1
LZ-K-20K20S1,1145,experiment,70,↑,up,↑,0.5061234999448061,True,28,1
LZ-K-20K20S1,1146,experiment,66,→,right,→,0.8395964000374079,True,28,1
LZ-K-20K20S1,1147,experiment,54,↑,up,↑,0.49964960012584925,True,28,1
LZ-K-20K20S1,1148,experiment,50,↑,up,↑,0.5748360001016408,True,28,1
LZ-K-20K20S1,1149,experiment,55,↑,up,↑,0.6132533999625593,True,28,1
LZ-K-20K20S1,1150,experiment,73,↓,down,↓,0.7400846998207271,True,28,1
LZ-K-20K20S1,1151,experiment,69,→,right,→,0.5750406000297517,True,28,1
LZ-K-20K20S1,1152,experiment,81,→,right,→,0.43676500022411346,True,28,1
LZ-K-20K20S1,1153,experiment,79,↓,down,↓,0.75266889994964,True,28,1
LZ-K-20K20S1,1154,experiment,72,↓,down,↓,0.5543824001215398,True,28,1
LZ-K-20K20S1,1155,experiment,87,←,left,←,0.5826811001170427,True,28,1
LZ-K-20K20S1,1156,experiment,97,→,right,→,0.6146527000237256,True,28,1
LZ-K-20K20S1,1157,experiment,71,↓,down,↓,0.6301176999695599,True,28,1
LZ-K-20K20S1,1158,experiment,95,←,left,←,0.46886639995500445,True,28,1
LZ-K-20K20S1,1159,experiment,56,←,left,←,1.1830112000461668,True,28,1
LZ-K-20K20S1,1160,experiment,63,↓,down,↓,0.5865006998647004,True,28,1
LZ-K-20K20S1,1161,experiment,48,←,left,←,0.5070587999653071,True,28,1
LZ-K-20K20S1,1162,experiment,80,→,right,→,0.7476256000809371,True,28,1
LZ-K-20K20S1,1163,experiment,101,←,left,←,0.6840816999319941,True,28,1
LZ-K-20K20S1,1164,experiment,62,↑,up,↑,0.6035883999429643,True,28,1
LZ-K-20K20S1,1165,experiment,96,↓,left,←,1.4271723001729697,False,28,1
LZ-K-20K20S1,1166,experiment,65,↓,down,↓,0.5640235999599099,True,28,1
LZ-K-20K20S1,1167,experiment,60,↓,down,↓,0.6971676000393927,True,28,1
LZ-K-20K20S1,1168,experiment,100,→,right,→,0.49151359987445176,True,28,1
LZ-K-20K20S1,1169,experiment,98,←,left,←,0.4947989000938833,True,28,1
LZ-K-20K20S1,1170,experiment,106,↑,up,↑,0.48764639999717474,True,28,1
LZ-K-20K20S1,1171,experiment,94,↓,down,↓,0.6364218001253903,True,28,1
LZ-K-20K20S1,1172,experiment,108,↓,down,↓,0.5668389999773353,True,28,1
LZ-K-20K20S1,1173,experiment,59,↑,up,↑,0.5080945999361575,True,28,1
LZ-K-20K20S1,1174,experiment,102,↑,up,↑,0.5894166000653058,True,28,1
LZ-K-20K20S1,1175,training,86,↑,up,↑,0.5592294000089169,True,28,0
LZ-K-20K20S1,1176,training,90,↑,up,↑,0.41855900012888014,True,28,1
LZ-K-20K20S1,1177,experiment,54,↓,down,↓,0.5435919999144971,True,28,1
LZ-K-20K20S1,1178,experiment,88,↑,up,↑,0.5400171000510454,True,28,1
LZ-K-20K20S1,1179,experiment,97,↓,down,↓,0.7977462001144886,True,28,1
LZ-K-20K20S1,1180,experiment,90,←,left,←,0.4714309999253601,True,28,1
LZ-K-20K20S1,1181,experiment,55,→,right,→,0.45819509983994067,True,28,1
LZ-K-20K20S1,1182,experiment,94,↓,down,↓,0.6879298000130802,True,28,1
LZ-K-20K20S1,1183,experiment,103,←,left,←,0.6576104001142085,True,28,1
LZ-K-20K20S1,1184,experiment,53,→,right,→,0.6533096998464316,True,28,1
LZ-K-20K20S1,1185,experiment,104,↑,up,↑,0.6642815000377595,True,28,1
LZ-K-20K20S1,1186,experiment,100,→,right,→,0.4599999999627471,True,28,1
LZ-K-20K20S1,1187,experiment,95,←,left,←,0.4578157998621464,True,28,1
LZ-K-20K20S1,1188,experiment,58,↓,down,↓,0.5800690001342446,True,28,1
LZ-K-20K20S1,1189,experiment,86,→,right,→,0.4403478999156505,True,28,1
LZ-K-20K20S1,1190,experiment,51,→,right,→,0.7966620000079274,True,28,1
LZ-K-20K20S1,1191,experiment,67,↓,down,↓,0.7181436999235302,True,28,1
LZ-K-20K20S1,1192,experiment,77,↑,up,↑,0.7033923000562936,True,28,1
LZ-K-20K20S1,1193,experiment,48,↓,down,↓,0.7872382998466492,True,28,1
LZ-K-20K20S1,1194,experiment,99,↓,down,↓,0.5708486000075936,True,28,1
LZ-K-20K20S1,1195,experiment,65,→,right,→,0.6377552999183536,True,28,1
LZ-K-20K20S1,1196,experiment,101,↑,up,↑,0.4260616998653859,True,28,1
LZ-K-20K20S1,1197,experiment,56,↓,down,↓,0.558085999917239,True,28,1
LZ-K-20K20S1,1198,experiment,66,←,left,←,0.42556170001626015,True,28,1
LZ-K-20K20S1,1199,experiment,92,↓,down,↓,0.5536233000457287,True,28,1
LZ-K-20K20S1,1200,experiment,68,↓,down,↓,0.49299119994975626,True,28,1
LZ-K-20K20S1,1201,experiment,80,←,left,←,1.7184695000760257,True,28,1
LZ-K-20K20S1,1202,experiment,91,↑,down,↓,0.8506487999111414,False,28,1
LZ-K-20K20S1,1203,experiment,69,←,left,←,0.42553530004806817,True,28,1
LZ-K-20K20S1,1204,experiment,49,→,right,→,0.4881176999770105,True,28,1
LZ-K-20K20S1,1205,experiment,78,→,right,→,0.426127300132066,True,28,1
LZ-K-20K20S1,1206,experiment,61,←,left,←,0.4053388999309391,True,28,1
LZ-K-20K20S1,1207,experiment,50,→,right,→,0.43536349991336465,True,28,0
LZ-K-20K20S1,1208,experiment,59,↓,down,↓,0.6777624997776002,True,28,1
LZ-K-20K20S1,1209,experiment,102,←,left,←,0.7526531000621617,True,28,1
LZ-K-20K20S1,1210,experiment,107,↓,up,↑,0.8317166999913752,False,28,1
LZ-K-20K20S1,1211,experiment,62,↑,up,↑,0.4243137000594288,True,28,1
LZ-K-20K20S1,1212,experiment,98,←,left,←,0.646400999976322,True,28,1
LZ-K-20K20S1,1213,experiment,74,→,right,→,0.45132999983616173,True,28,1
LZ-K-20K20S1,1214,experiment,70,←,left,←,0.36792500014416873,True,28,1
LZ-K-20K20S1,1215,experiment,52,→,left,←,0.5932938999030739,False,28,1
LZ-K-20K20S1,1216,experiment,93,←,left,←,1.066326200030744,True,28,1
LZ-K-20K20S1,1217,experiment,75,←,left,←,0.4067641000729054,True,28,1
LZ-K-20K20S1,1218,experiment,83,↑,up,↑,0.4977460999507457,True,28,1
LZ-K-20K20S1,1219,experiment,71,↓,up,↑,0.6783009001519531,False,28,1
LZ-K-20K20S1,1220,experiment,108,→,right,→,0.4786987002007663,True,28,1
LZ-K-20K20S1,1221,experiment,63,→,right,→,0.38419990008696914,True,28,1
LZ-K-20K20S1,1222,experiment,87,→,right,→,0.3761777998879552,True,28,0
LZ-K-20K20S1,1223,experiment,76,↓,down,↓,0.6726164000574499,True,28,1
LZ-K-20K20S1,1224,experiment,89,→,right,→,0.44777329987846315,True,28,1
LZ-K-20K20S1,1225,experiment,79,→,right,→,0.37626080005429685,True,28,1
LZ-K-20K20S1,1226,experiment,73,←,left,←,0.9873574001248926,True,28,1
LZ-K-20K20S1,1227,experiment,105,↑,down,↓,0.7920822999440134,False,28,1
LZ-K-20K20S1,1228,experiment,82,←,left,←,1.052726399851963,True,28,1
LZ-K-20K20S1,1229,experiment,64,→,right,→,0.5012656000908464,True,28,1
LZ-K-20K20S1,1230,experiment,81,←,left,←,1.0538788998965174,True,28,1
LZ-K-20K20S1,1231,experiment,106,↑,left,←,0.7919940000865608,False,28,1
LZ-K-20K20S1,1232,experiment,85,↑,up,↑,0.6116341999731958,True,28,1
LZ-K-20K20S1,1233,experiment,72,↓,down,↓,0.8430036997888237,True,28,1
LZ-K-20K20S1,1234,experiment,84,↑,up,↑,0.6610864999238402,True,28,1
LZ-K-20K20S1,1235,experiment,60,↓,down,↓,0.7667686000932008,True,28,1
LZ-K-20K20S1,1236,experiment,96,←,right,→,0.8235337999649346,False,28,1
LZ-K-20K20S1,1237,experiment,57,↓,down,↓,0.6193016001489013,True,28,1
LZ-K-20K20S1,1238,training,64,←,left,←,0.6184501999523491,True,28,0
LZ-K-20K20S1,1239,training,96,←,left,←,1.0335840999614447,True,28,1
LZ-K-20K20S1,1240,experiment,86,→,right,→,0.5234092001337558,True,28,1
LZ-K-20K20S1,1241,experiment,78,→,right,→,0.5960399999748915,True,28,1
LZ-K-20K20S1,1242,experiment,68,→,right,→,0.5571261998265982,True,28,1
LZ-K-20K20S1,1243,experiment,76,←,left,←,0.40630649984814227,True,28,1
LZ-K-20K20S1,1244,experiment,94,↓,down,↓,0.6053337000776082,True,28,1
LZ-K-20K20S1,1245,experiment,107,↓,down,↓,0.5689475999679416,True,28,1
LZ-K-20K20S1,1246,experiment,61,→,right,→,0.4936620998196304,True,28,1
LZ-K-20K20S1,1247,experiment,83,←,left,←,0.5500998999923468,True,28,1
LZ-K-20K20S1,1248,experiment,57,↑,up,↑,0.6207942001055926,True,28,1
LZ-K-20K20S1,1249,experiment,93,↑,up,↑,0.4688101999927312,True,28,1
LZ-K-20K20S1,1250,experiment,81,→,right,→,0.47097030002623796,True,28,1
LZ-K-20K20S1,1251,experiment,72,→,right,→,0.6440779000986367,True,28,1
LZ-K-20K20S1,1252,experiment,82,←,left,←,0.41447279998101294,True,28,1
LZ-K-20K20S1,1253,experiment,60,→,right,→,0.705658300081268,True,28,1
LZ-K-20K20S1,1254,experiment,99,↑,up,↑,0.5398921000305563,True,28,1
LZ-K-20K20S1,1255,experiment,63,→,left,←,0.7050574999302626,False,28,1
LZ-K-20K20S1,1256,experiment,56,↑,up,↑,0.47371609997935593,True,28,1
LZ-K-20K20S1,1257,experiment,102,→,right,→,0.46841069986112416,True,28,1
LZ-K-20K20S1,1258,experiment,92,←,left,←,0.4666200999636203,True,28,1
LZ-K-20K20S1,1259,experiment,50,↓,down,↓,0.7431326999794692,True,28,1
LZ-K-20K20S1,1260,experiment,104,←,left,←,0.46232479996979237,True,28,1
LZ-K-20K20S1,1261,experiment,105,→,right,→,0.8562570000067353,True,28,1
LZ-K-20K20S1,1262,experiment,80,←,left,←,0.5555944999214262,True,28,1
LZ-K-20K20S1,1263,experiment,98,←,right,→,0.5476290001533926,False,28,1
LZ-K-20K20S1,1264,experiment,75,↓,down,↓,0.7725171998608857,True,28,1
LZ-K-20K20S1,1265,experiment,53,→,right,→,0.4915114000905305,True,28,1
LZ-K-20K20S1,1266,experiment,90,↓,down,↓,0.6979400001000613,True,28,1
LZ-K-20K20S1,1267,experiment,70,↑,up,↑,0.4460658000316471,True,28,1
LZ-K-20K20S1,1268,experiment,108,←,left,←,0.5837052001152188,True,28,1
LZ-K-20K20S1,1269,experiment,48,↓,down,↓,0.5759817000944167,True,28,1
LZ-K-20K20S1,1270,experiment,49,↓,down,↓,0.5124804000370204,True,28,1
LZ-K-20K20S1,1271,experiment,64,↑,up,↑,0.43825930007733405,True,28,1
LZ-K-20K20S1,1272,experiment,106,→,right,→,0.48084930004552007,True,28,1
LZ-K-20K20S1,1273,experiment,96,↓,down,↓,0.7655009999871254,True,28,1
LZ-K-20K20S1,1274,experiment,55,←,left,←,0.6202615001238883,True,28,1
LZ-K-20K20S1,1275,experiment,77,↓,down,↓,0.649687500204891,True,28,1
LZ-K-20K20S1,1276,experiment,67,←,left,←,1.1529157001059502,True,28,1
LZ-K-20K20S1,1277,experiment,95,←,left,←,0.5787344998680055,True,28,1
LZ-K-20K20S1,1278,experiment,100,→,right,→,0.7378746001049876,True,28,1
LZ-K-20K20S1,1279,experiment,79,↓,down,↓,0.6895681000314653,True,28,1
LZ-K-20K20S1,1280,experiment,58,←,left,←,0.6582440000493079,True,28,1
LZ-K-20K20S1,1281,experiment,85,→,right,→,0.46740159997716546,True,28,1
LZ-K-20K20S1,1282,experiment,52,←,left,←,0.6553056000266224,True,28,1
LZ-K-20K20S1,1283,experiment,51,→,right,→,0.4996239000465721,True,28,1
LZ-K-20K20S1,1284,experiment,59,→,right,→,0.627529899822548,True,28,1
LZ-K-20K20S1,1285,experiment,65,→,right,→,0.4208533999044448,True,28,1
LZ-K-20K20S1,1286,experiment,87,→,right,→,0.36781309987418354,True,28,1
LZ-K-20K20S1,1287,experiment,66,↓,down,↓,0.7855398000683635,True,28,1
LZ-K-20K20S1,1288,experiment,91,↓,down,↓,0.6517178998328745,True,28,1
LZ-K-20K20S1,1289,experiment,62,←,left,←,1.0767777001019567,True,28,1
LZ-K-20K20S1,1290,experiment,74,↓,down,↓,0.6645382000133395,True,28,1
LZ-K-20K20S1,1291,experiment,103,→,right,→,0.4754847998265177,True,28,1
LZ-K-20K20S1,1292,experiment,71,←,right,→,0.5524481998290867,False,28,1
LZ-K-20K20S1,1293,experiment,88,←,left,←,0.6127057999838144,True,28,1
LZ-K-20K20S1,1294,experiment,89,↓,down,↓,0.7822024999186397,True,28,1
LZ-K-20K20S1,1295,experiment,54,→,left,←,0.5808470000047237,False,28,1
LZ-K-20K20S1,1296,experiment,69,←,left,←,0.5743372000288218,True,28,1
LZ-K-20K20S1,1297,experiment,97,↑,up,↑,0.7023305001202971,True,28,1
LZ-K-20K20S1,1298,experiment,101,→,right,→,0.5925046999473125,True,28,1
LZ-K-20K20S1,1299,experiment,73,←,left,←,0.5760007000062615,True,28,1
LZ-K-20K20S1,1300,experiment,84,↓,down,↓,0.6527368000242859,True,28,1
LZ-K-20K20S1,1301,training,69,↓,up,↑,1.076431900030002,False,28,0
LZ-K-20K20S1,1302,training,68,→,right,→,0.5305974001530558,True,28,1
LZ-K-20K20S1,1303,experiment,56,→,right,→,0.4261433999054134,True,28,1
LZ-K-20K20S1,1304,experiment,86,↓,down,↓,0.5559435000177473,True,28,1
LZ-K-20K20S1,1305,experiment,57,↑,down,↓,0.8184297000989318,False,28,1
LZ-K-20K20S1,1306,experiment,103,→,right,→,0.542765200138092,True,28,1
LZ-K-20K20S1,1307,experiment,99,↑,up,↑,0.6240265001542866,True,28,1
LZ-K-20K20S1,1308,experiment,89,↑,up,↑,0.585010000038892,True,28,1
LZ-K-20K20S1,1309,experiment,73,↑,up,↑,0.4409741999115795,True,28,1
LZ-K-20K20S1,1310,experiment,70,←,left,←,0.6236055998597294,True,28,1
LZ-K-20K20S1,1311,experiment,81,↑,up,↑,0.45140070002526045,True,28,1
LZ-K-20K20S1,1312,experiment,91,←,left,←,0.5628250997979194,True,28,1
LZ-K-20K20S1,1313,experiment,49,→,right,→,0.6275281999260187,True,28,1
LZ-K-20K20S1,1314,experiment,66,→,right,→,0.5483486000448465,True,28,1
LZ-K-20K20S1,1315,experiment,97,←,left,←,0.6216349999886006,True,28,1
LZ-K-20K20S1,1316,experiment,61,↓,down,↓,0.8157911000307649,True,28,1
LZ-K-20K20S1,1317,experiment,76,←,left,←,0.4616320999339223,True,28,1
LZ-K-20K20S1,1318,experiment,105,←,left,←,0.6001026001758873,True,28,1
LZ-K-20K20S1,1319,experiment,102,↓,down,↓,0.5900598000735044,True,28,1
LZ-K-20K20S1,1320,experiment,74,↓,down,↓,0.6211833001580089,True,28,1
LZ-K-20K20S1,1321,experiment,64,←,left,←,0.5266225999221206,True,28,1
LZ-K-20K20S1,1322,experiment,50,↓,down,↓,0.6328181000426412,True,28,1
LZ-K-20K20S1,1323,experiment,106,→,right,→,0.6198509999085218,True,28,1
LZ-K-20K20S1,1324,experiment,71,↑,up,↑,0.5709752000402659,True,28,1
LZ-K-20K20S1,1325,experiment,67,→,right,→,0.6136062999721617,True,28,1
LZ-K-20K20S1,1326,experiment,48,→,left,←,0.8048792998306453,False,28,1
LZ-K-20K20S1,1327,experiment,51,↑,up,↑,0.603162799961865,True,28,1
LZ-K-20K20S1,1328,experiment,84,←,left,←,0.5427926001138985,True,28,1
LZ-K-20K20S1,1329,experiment,93,↓,down,↓,0.7457258999347687,True,28,1
LZ-K-20K20S1,1330,experiment,79,↓,down,↓,0.8255197999533266,True,28,1
LZ-K-20K20S1,1331,experiment,104,→,right,→,0.49363699997775257,True,28,1
LZ-K-20K20S1,1332,experiment,62,↑,up,↑,0.5808906001038849,True,28,1
LZ-K-20K20S1,1333,experiment,58,←,left,←,0.5618239999748766,True,28,1
LZ-K-20K20S1,1334,experiment,60,↑,up,↑,0.5115749000106007,True,28,1
LZ-K-20K20S1,1335,experiment,54,→,right,→,0.46461229980923235,True,28,1
LZ-K-20K20S1,1336,experiment,92,→,right,→,0.5589414001442492,True,28,1
LZ-K-20K20S1,1337,experiment,100,↑,up,↑,0.6391493999399245,True,28,1
LZ-K-20K20S1,1338,experiment,107,→,right,→,0.5294464000035077,True,28,1
LZ-K-20K20S1,1339,experiment,90,↑,up,↑,0.6056297000031918,True,28,1
LZ-K-20K20S1,1340,experiment,52,←,left,←,0.5637119999155402,True,28,1
LZ-K-20K20S1,1341,experiment,69,↑,up,↑,0.46988929994404316,True,28,1
LZ-K-20K20S1,1342,experiment,77,←,left,←,0.4332872999366373,True,28,1
LZ-K-20K20S1,1343,experiment,82,↓,down,↓,0.8043555999174714,True,28,1
LZ-K-20K20S1,1344,experiment,83,←,left,←,1.0719059000257403,True,28,1
LZ-K-20K20S1,1345,experiment,59,↑,up,↑,0.6490952998865396,True,28,1
LZ-K-20K20S1,1346,experiment,53,→,right,→,0.5091154999099672,True,28,1
LZ-K-20K20S1,1347,experiment,72,↓,down,↓,0.5767292999662459,True,28,1
LZ-K-20K20S1,1348,experiment,108,↓,down,↓,0.5730220000259578,True,28,1
LZ-K-20K20S1,1349,experiment,96,→,right,→,0.5740265001077205,True,28,1
LZ-K-20K20S1,1350,experiment,80,→,right,→,0.37613230012357235,True,28,1
LZ-K-20K20S1,1351,experiment,87,→,right,→,0.5515127999242395,True,28,0
LZ-K-20K20S1,1352,experiment,94,↓,down,↓,0.5856198000255972,True,28,1
LZ-K-20K20S1,1353,experiment,68,↑,up,↑,0.6598203000612557,True,28,1
LZ-K-20K20S1,1354,experiment,55,↑,up,↑,0.5989518000278622,True,28,1
LZ-K-20K20S1,1355,experiment,75,←,left,←,0.4851576001383364,True,28,1
LZ-K-20K20S1,1356,experiment,63,←,left,←,0.3761899000965059,True,28,1
LZ-K-20K20S1,1357,experiment,85,↓,up,↑,0.800836400128901,False,28,1
LZ-K-20K20S1,1358,experiment,98,←,left,←,0.6079265000298619,True,28,1
LZ-K-20K20S1,1359,experiment,78,↑,up,↑,0.6215498999226838,True,28,1
LZ-K-20K20S1,1360,experiment,95,→,right,→,0.5004208001773804,True,28,1
LZ-K-20K20S1,1361,experiment,101,←,left,←,0.5905387999955565,True,28,1
LZ-K-20K20S1,1362,experiment,65,↑,up,↑,0.6167637999169528,True,28,1
LZ-K-20K20S1,1363,experiment,88,↑,up,↑,0.4747071999590844,True,28,1
LZ-K-20K20S1,1364,training,53,→,right,→,0.43010470014996827,True,28,0
LZ-K-20K20S1,1365,training,66,→,right,→,0.43045809981413186,True,28,1
LZ-K-20K20S1,1366,experiment,91,↓,down,↓,0.7424130002036691,True,28,1
LZ-K-20K20S1,1367,experiment,68,←,left,←,0.40170729998499155,True,28,1
LZ-K-20K20S1,1368,experiment,93,←,left,←,1.066221399931237,True,28,0
LZ-K-20K20S1,1369,experiment,79,↑,left,←,0.7328410998452455,False,28,1
LZ-K-20K20S1,1370,experiment,72,←,left,←,0.4391675000078976,True,28,1
LZ-K-20K20S1,1371,experiment,78,↓,down,↓,0.683180799940601,True,28,1
LZ-K-20K20S1,1372,experiment,66,↑,up,↑,0.5457856000866741,True,28,1
LZ-K-20K20S1,1373,experiment,48,↑,up,↑,0.4518533998634666,True,28,1
LZ-K-20K20S1,1374,experiment,57,←,left,←,0.6704379997681826,True,28,1
LZ-K-20K20S1,1375,experiment,104,→,right,→,0.6085028999950737,True,28,1
LZ-K-20K20S1,1376,experiment,108,↓,down,↓,0.5799726999830455,True,28,1
LZ-K-20K20S1,1377,experiment,82,→,right,→,0.4329767001327127,True,28,1
LZ-K-20K20S1,1378,experiment,67,←,left,←,0.441017999779433,True,28,1
LZ-K-20K20S1,1379,experiment,95,←,left,←,0.5993349000345916,True,28,1
LZ-K-20K20S1,1380,experiment,99,←,left,←,0.5741433999501169,True,28,1
LZ-K-20K20S1,1381,experiment,84,→,right,→,0.4428709999192506,True,28,1
LZ-K-20K20S1,1382,experiment,106,←,left,←,0.5415793999563903,True,28,1
LZ-K-20K20S1,1383,experiment,97,←,left,←,0.5913183998782188,True,28,1
LZ-K-20K20S1,1384,experiment,81,↓,down,↓,0.6684365998953581,True,28,1
LZ-K-20K20S1,1385,experiment,85,↓,down,↓,0.5730724001768976,True,28,1
LZ-K-20K20S1,1386,experiment,49,→,right,→,0.5655724999960512,True,28,1
LZ-K-20K20S1,1387,experiment,75,←,left,←,0.4219190999865532,True,28,1
LZ-K-20K20S1,1388,experiment,70,↑,up,↑,0.6133018000982702,True,28,1
LZ-K-20K20S1,1389,experiment,55,↓,down,↓,0.7698337999172509,True,28,1
LZ-K-20K20S1,1390,experiment,64,↑,up,↑,0.4612235000822693,True,28,1
LZ-K-20K20S1,1391,experiment,71,↑,up,↑,0.4589114000555128,True,28,1
LZ-K-20K20S1,1392,experiment,101,←,left,←,0.5026308998931199,True,28,1
LZ-K-20K20S1,1393,experiment,88,↓,down,↓,0.6287114000879228,True,28,1
LZ-K-20K20S1,1394,experiment,60,→,right,→,0.45532599999569356,True,28,1
LZ-K-20K20S1,1395,experiment,105,↓,down,↓,0.7617212999612093,True,28,1
LZ-K-20K20S1,1396,experiment,50,→,right,→,0.49058660003356636,True,28,1
LZ-K-20K20S1,1397,experiment,73,↑,up,↑,0.4062049000058323,True,28,1
LZ-K-20K20S1,1398,experiment,56,↑,up,↑,0.6430802999529988,True,28,0
LZ-K-20K20S1,1399,experiment,59,←,left,←,0.5817732000723481,True,28,1
LZ-K-20K20S1,1400,experiment,76,↓,down,↓,0.7884470999706537,True,28,1
LZ-K-20K20S1,1401,experiment,90,←,left,←,0.526631300104782,True,28,1
LZ-K-20K20S1,1402,experiment,63,↓,down,↓,0.5883868001401424,True,28,1
LZ-K-20K20S1,1403,experiment,96,←,left,←,0.4282255999278277,True,28,1
LZ-K-20K20S1,1404,experiment,92,←,left,←,0.5085412000771612,True,28,1
LZ-K-20K20S1,1405,experiment,98,→,right,→,0.43901100009679794,True,28,1
LZ-K-20K20S1,1406,experiment,103,←,left,←,0.43465119996108115,True,28,1
LZ-K-20K20S1,1407,experiment,69,→,right,→,0.6258294000290334,True,28,1
LZ-K-20K20S1,1408,experiment,86,↑,up,↑,0.5962219999637455,True,28,1
LZ-K-20K20S1,1409,experiment,58,←,left,←,0.5843789998907596,True,28,1
LZ-K-20K20S1,1410,experiment,74,→,right,→,0.6244838000275195,True,28,1
LZ-K-20K20S1,1411,experiment,87,←,left,←,0.48218840011395514,True,28,1
LZ-K-20K20S1,1412,experiment,94,←,left,←,0.5508156998548657,True,28,1
LZ-K-20K20S1,1413,experiment,62,→,right,→,0.5399803998880088,True,28,1
LZ-K-20K20S1,1414,experiment,102,→,right,→,1.4999991001095623,True,28,1
LZ-K-20K20S1,1415,experiment,83,↑,up,↑,0.6283998000435531,True,28,1
LZ-K-20K20S1,1416,experiment,107,↓,down,↓,0.606627699919045,True,28,1
LZ-K-20K20S1,1417,experiment,77,↓,down,↓,0.788161400007084,True,28,1
LZ-K-20K20S1,1418,experiment,100,↓,down,↓,0.6190128999296576,True,28,1
LZ-K-20K20S1,1419,experiment,80,↓,down,↓,0.6476884000003338,True,28,1
LZ-K-20K20S1,1420,experiment,52,↓,down,↓,0.6277278000488877,True,28,1
LZ-K-20K20S1,1421,experiment,89,→,right,→,0.6206680000759661,True,28,1
LZ-K-20K20S1,1422,experiment,53,←,left,←,1.5696737999096513,True,28,1
LZ-K-20K20S1,1423,experiment,51,↑,up,↑,0.6335420999675989,True,28,1
LZ-K-20K20S1,1424,experiment,65,↑,up,↑,0.7302977000363171,True,28,1
