PART_ID,Trial_no,Trial_type,CSI,Stim_letter,Key_pressed,letter_choose,Rt,Corr,Stimulus Time,nDropped
MG-M-33M33S2,1,training,120,←,no_key,no_letter,-1.0,False,60,1
MG-M-33M33S2,2,training,120,↓,left,←,0.6091229000594467,False,60,0
MG-M-33M33S2,3,training,120,↑,no_key,no_letter,-1.0,False,60,0
MG-M-33M33S2,4,training,120,→,right,→,0.5169413001276553,True,60,0
MG-M-33M33S2,5,training,120,↑,right,→,0.4590167000424117,False,60,0
MG-M-33M33S2,6,training,120,↑,up,↑,0.38368189986795187,True,60,0
MG-M-33M33S2,7,training,120,→,right,→,0.4185793998185545,True,60,0
MG-M-33M33S2,8,training,120,↑,left,←,0.4924564000684768,False,60,0
MG-M-33M33S2,9,training,120,→,right,→,0.54241479979828,True,60,0
MG-M-33M33S2,10,training,120,↓,up,↑,0.47765420004725456,False,60,0
MG-M-33M33S2,11,training,120,→,right,→,0.46838110010139644,True,60,0
MG-M-33M33S2,12,training,120,↓,no_key,no_letter,-1.0,False,60,0
MG-M-33M33S2,13,training,120,↑,up,↑,0.6505461998749524,True,60,0
MG-M-33M33S2,14,training,120,↑,up,↑,0.5677815000526607,True,60,0
MG-M-33M33S2,15,training,120,→,right,→,0.5678582000546157,True,60,0
MG-M-33M33S2,16,training,120,↓,down,↓,0.7366820999886841,True,60,0
MG-M-33M33S2,17,training,120,↓,down,↓,0.5924278001766652,True,60,0
MG-M-33M33S2,18,training,120,↑,up,↑,0.721786400070414,True,60,0
MG-M-33M33S2,19,training,120,↓,down,↓,0.7395462999120355,True,60,0
MG-M-33M33S2,20,training,120,←,no_key,no_letter,-1.0,False,60,0
MG-M-33M33S2,21,no_adaptation,120,↑,up,↑,0.5176075000781566,True,36,0
MG-M-33M33S2,22,no_adaptation,120,←,right,→,0.5276951999403536,False,36,0
MG-M-33M33S2,23,no_adaptation,120,↑,up,↑,0.5616421001031995,True,36,0
MG-M-33M33S2,24,no_adaptation,120,↓,down,↓,0.6741754000540823,True,36,0
MG-M-33M33S2,25,no_adaptation,120,↓,down,↓,0.4090147998649627,True,36,0
MG-M-33M33S2,26,no_adaptation,120,↓,down,↓,0.4091376999858767,True,36,0
MG-M-33M33S2,27,no_adaptation,120,↓,down,↓,0.40063400007784367,True,36,0
MG-M-33M33S2,28,no_adaptation,120,←,left,←,0.4826849999371916,True,36,0
MG-M-33M33S2,29,no_adaptation,120,↑,no_key,no_letter,-1.0,False,36,0
MG-M-33M33S2,30,no_adaptation,120,↑,up,↑,0.6062529999762774,True,36,0
MG-M-33M33S2,31,no_adaptation,120,←,left,←,0.5090233001392335,True,36,0
MG-M-33M33S2,32,no_adaptation,120,→,right,→,0.6556224001105875,True,36,0
MG-M-33M33S2,33,no_adaptation,120,↓,right,→,0.6687912000343204,False,36,0
MG-M-33M33S2,34,no_adaptation,120,←,left,←,0.8244159000460058,True,36,0
MG-M-33M33S2,35,no_adaptation,120,↓,no_key,no_letter,-1.0,False,36,0
MG-M-33M33S2,36,no_adaptation,120,↑,up,↑,0.6391425000037998,True,36,0
MG-M-33M33S2,37,no_adaptation,120,↓,left,←,0.8286073000635952,False,36,0
MG-M-33M33S2,38,no_adaptation,120,↓,no_key,no_letter,-1.0,False,36,0
MG-M-33M33S2,39,no_adaptation,120,↓,down,↓,0.5786127999890596,True,36,0
MG-M-33M33S2,40,no_adaptation,120,↓,down,↓,0.5147275999188423,True,36,0
MG-M-33M33S2,41,training,61,→,left,←,0.7883579998742789,False,36,0
MG-M-33M33S2,42,training,70,←,left,←,0.7488962998613715,True,36,1
MG-M-33M33S2,43,experiment,54,→,right,→,0.4850787001196295,True,36,1
MG-M-33M33S2,44,experiment,89,↑,up,↑,0.6909077998716384,True,36,1
MG-M-33M33S2,45,experiment,75,↑,up,↑,0.4257441000081599,True,36,1
MG-M-33M33S2,46,experiment,76,→,right,→,0.4912888000253588,True,36,0
MG-M-33M33S2,47,experiment,78,←,left,←,0.5172689000610262,True,36,1
MG-M-33M33S2,48,experiment,101,↓,no_key,no_letter,-1.0,False,36,1
MG-M-33M33S2,49,experiment,98,←,right,→,0.5509846999775618,False,36,1
MG-M-33M33S2,50,experiment,105,↑,right,→,0.3505080998875201,False,36,1
MG-M-33M33S2,51,experiment,64,↑,up,↑,0.4900331001263112,True,36,0
MG-M-33M33S2,52,experiment,62,↑,up,↑,0.6576974999625236,True,36,1
MG-M-33M33S2,53,experiment,74,→,right,→,0.45090509997680783,True,36,1
MG-M-33M33S2,54,experiment,90,↑,up,↑,0.4934821000788361,True,36,0
MG-M-33M33S2,55,experiment,66,←,right,→,0.5312803001143038,False,36,1
MG-M-33M33S2,56,experiment,61,←,no_key,no_letter,-1.0,False,36,1
MG-M-33M33S2,57,experiment,52,→,right,→,0.36729370011016726,True,36,1
MG-M-33M33S2,58,experiment,82,↑,up,↑,0.4341733001638204,True,36,0
MG-M-33M33S2,59,experiment,77,→,right,→,0.4173878999426961,True,36,0
MG-M-33M33S2,60,experiment,94,→,right,→,0.36736469995230436,True,36,0
MG-M-33M33S2,61,experiment,97,←,left,←,0.5865893999580294,True,36,0
MG-M-33M33S2,62,experiment,65,←,right,→,0.5093736997805536,False,36,1
MG-M-33M33S2,63,experiment,80,←,left,←,0.5579540999606252,True,36,1
MG-M-33M33S2,64,experiment,49,↓,down,↓,0.5351147998590022,True,36,1
MG-M-33M33S2,65,experiment,86,→,right,→,0.5648282000329345,True,36,1
MG-M-33M33S2,66,experiment,104,↑,up,↑,0.47547529987059534,True,36,1
MG-M-33M33S2,67,experiment,73,↑,up,↑,0.6236136998049915,True,36,1
MG-M-33M33S2,68,experiment,88,↑,up,↑,0.4340123999863863,True,36,1
MG-M-33M33S2,69,experiment,55,↑,up,↑,0.5329753002151847,True,36,0
MG-M-33M33S2,70,experiment,95,→,right,→,0.4342183000408113,True,36,1
MG-M-33M33S2,71,experiment,57,→,right,→,0.3675619999412447,True,36,0
MG-M-33M33S2,72,experiment,72,→,right,→,0.4341728000435978,True,36,0
MG-M-33M33S2,73,experiment,106,→,right,→,0.4254799000918865,True,36,0
MG-M-33M33S2,74,experiment,92,←,left,←,0.6378122998867184,True,36,0
MG-M-33M33S2,75,experiment,50,→,left,←,0.6592310001142323,False,36,1
MG-M-33M33S2,76,experiment,81,↑,right,→,0.5900169999804348,False,36,1
MG-M-33M33S2,77,experiment,59,←,right,→,0.5221554001327604,False,36,1
MG-M-33M33S2,78,experiment,108,↑,up,↑,0.5767879001796246,True,36,1
MG-M-33M33S2,79,experiment,60,↓,right,→,0.7098108001518995,False,36,1
MG-M-33M33S2,80,experiment,71,↓,down,↓,0.6333865998312831,True,36,1
MG-M-33M33S2,81,experiment,51,←,left,←,0.43423649994656444,True,36,1
MG-M-33M33S2,82,experiment,53,↓,down,↓,0.5472035000566393,True,36,0
MG-M-33M33S2,83,experiment,48,←,left,←,0.5809294998180121,True,36,1
MG-M-33M33S2,84,experiment,79,←,right,→,0.38343039993196726,False,36,1
MG-M-33M33S2,85,experiment,84,←,left,←,0.5589755999390036,True,36,0
MG-M-33M33S2,86,experiment,85,←,left,←,0.4759555000346154,True,36,1
MG-M-33M33S2,87,experiment,63,←,left,←,0.42564440006390214,True,36,0
MG-M-33M33S2,88,experiment,102,↓,right,→,0.6325471999589354,False,36,0
MG-M-33M33S2,89,experiment,99,→,left,←,0.4783472002018243,False,36,1
MG-M-33M33S2,90,experiment,100,↑,up,↑,0.6245220000855625,True,36,1
MG-M-33M33S2,91,experiment,69,↑,up,↑,0.4018803001381457,True,36,1
MG-M-33M33S2,92,experiment,56,→,right,→,0.636930099921301,True,36,0
MG-M-33M33S2,93,experiment,103,↑,no_key,no_letter,-1.0,False,36,1
MG-M-33M33S2,94,experiment,67,↓,down,↓,0.6754866000264883,True,36,1
MG-M-33M33S2,95,experiment,107,→,right,→,0.42604169994592667,True,36,1
MG-M-33M33S2,96,experiment,91,↑,up,↑,0.4504972000140697,True,36,0
MG-M-33M33S2,97,experiment,70,↓,down,↓,0.44314999994821846,True,36,0
MG-M-33M33S2,98,experiment,96,←,left,←,0.4425532999448478,True,36,0
MG-M-33M33S2,99,experiment,83,←,left,←,0.4092495001386851,True,36,0
MG-M-33M33S2,100,experiment,87,→,right,→,0.4256162999663502,True,36,0
MG-M-33M33S2,101,experiment,58,←,right,→,0.49517049989663064,False,36,0
MG-M-33M33S2,102,experiment,68,→,right,→,0.5644014000426978,True,36,1
MG-M-33M33S2,103,experiment,93,→,right,→,0.5424521001987159,True,36,1
MG-M-33M33S2,104,training,56,→,right,→,0.555422600125894,True,36,0
MG-M-33M33S2,105,training,100,→,right,→,0.392329900059849,True,36,1
MG-M-33M33S2,106,experiment,56,←,left,←,0.44233809993602335,True,36,0
MG-M-33M33S2,107,experiment,93,←,left,←,0.47966319997794926,True,36,0
MG-M-33M33S2,108,experiment,51,↑,up,↑,0.5467485000845045,True,36,1
MG-M-33M33S2,109,experiment,91,→,left,←,0.5741960001178086,False,36,1
MG-M-33M33S2,110,experiment,99,←,left,←,0.4091729000210762,True,36,1
MG-M-33M33S2,111,experiment,81,←,left,←,0.4899782999418676,True,36,0
MG-M-33M33S2,112,experiment,87,↑,right,→,0.5289147000294179,False,36,1
MG-M-33M33S2,113,experiment,106,←,left,←,0.4509737000335008,True,36,1
MG-M-33M33S2,114,experiment,71,↑,up,↑,0.605877700028941,True,36,0
MG-M-33M33S2,115,experiment,63,←,left,←,0.4007920001167804,True,36,1
MG-M-33M33S2,116,experiment,83,→,right,→,0.39244340010918677,True,36,0
MG-M-33M33S2,117,experiment,62,→,right,→,0.35207859985530376,True,36,0
MG-M-33M33S2,118,experiment,76,↑,right,→,0.47229499998502433,False,36,0
MG-M-33M33S2,119,experiment,96,↓,left,←,0.4507987000979483,False,36,1
MG-M-33M33S2,120,experiment,59,←,left,←,0.417147200088948,True,36,0
MG-M-33M33S2,121,experiment,107,→,left,←,0.5044289999641478,False,36,0
MG-M-33M33S2,122,experiment,85,↓,right,→,0.49647710006684065,False,36,1
MG-M-33M33S2,123,experiment,50,←,left,←,0.5229922998696566,True,36,1
MG-M-33M33S2,124,experiment,104,←,left,←,0.44244929985143244,True,36,1
MG-M-33M33S2,125,experiment,65,↑,up,↑,0.4697515999432653,True,36,0
MG-M-33M33S2,126,experiment,77,→,right,→,0.41742640011943877,True,36,0
MG-M-33M33S2,127,experiment,108,→,right,→,0.6088700999971479,True,36,0
MG-M-33M33S2,128,experiment,60,↑,up,↑,0.5001962999813259,True,36,1
MG-M-33M33S2,129,experiment,80,↓,right,→,0.6374435999896377,False,36,1
MG-M-33M33S2,130,experiment,64,↓,down,↓,0.3667089999653399,True,36,1
MG-M-33M33S2,131,experiment,49,↑,up,↑,0.47139049996621907,True,36,0
MG-M-33M33S2,132,experiment,103,→,right,→,0.4422993999905884,True,36,0
MG-M-33M33S2,133,experiment,52,↑,up,↑,0.4500417001545429,True,36,0
MG-M-33M33S2,134,experiment,68,↓,right,→,0.4687178998719901,False,36,0
MG-M-33M33S2,135,experiment,102,→,left,←,0.6391912000253797,False,36,0
MG-M-33M33S2,136,experiment,72,↑,up,↑,0.5733171000611037,True,36,1
MG-M-33M33S2,137,experiment,75,→,right,→,0.4852297001052648,True,36,1
MG-M-33M33S2,138,experiment,105,→,right,→,0.3430820000357926,True,36,1
MG-M-33M33S2,139,experiment,94,→,no_key,no_letter,-1.0,False,36,0
MG-M-33M33S2,140,experiment,69,→,right,→,0.9301280998624861,True,36,1
MG-M-33M33S2,141,experiment,82,↓,no_key,no_letter,-1.0,False,36,1
MG-M-33M33S2,142,experiment,100,↓,no_key,no_letter,-1.0,False,36,1
MG-M-33M33S2,143,experiment,84,↑,no_key,no_letter,-1.0,False,36,1
MG-M-33M33S2,144,experiment,92,↑,right,→,0.5117392998654395,False,36,1
MG-M-33M33S2,145,experiment,70,←,left,←,0.40836540004238486,True,36,1
MG-M-33M33S2,146,experiment,58,↑,up,↑,0.4170156999025494,True,36,0
MG-M-33M33S2,147,experiment,78,↓,down,↓,0.4509111000224948,True,36,0
MG-M-33M33S2,148,experiment,67,←,left,←,0.6992357999552041,True,36,0
MG-M-33M33S2,149,experiment,73,←,left,←,0.47925069998018444,True,36,1
MG-M-33M33S2,150,experiment,98,→,left,←,0.5144421001896262,False,36,1
MG-M-33M33S2,151,experiment,88,↓,right,→,0.4421777001116425,False,36,1
MG-M-33M33S2,152,experiment,97,→,right,→,0.40037929988466203,True,36,0
MG-M-33M33S2,153,experiment,74,↑,up,↑,0.44303930015303195,True,36,0
MG-M-33M33S2,154,experiment,79,↑,up,↑,0.32488640001975,True,36,0
MG-M-33M33S2,155,experiment,48,↓,down,↓,0.4830189000349492,True,36,0
MG-M-33M33S2,156,experiment,55,←,left,←,0.5803572000004351,True,36,1
MG-M-33M33S2,157,experiment,54,↑,no_key,no_letter,-1.0,False,36,1
MG-M-33M33S2,158,experiment,53,←,left,←,0.3676499000284821,True,36,1
MG-M-33M33S2,159,experiment,90,←,left,←,0.40889000007882714,True,36,0
MG-M-33M33S2,160,experiment,57,↑,up,↑,0.6490765998605639,True,36,0
MG-M-33M33S2,161,experiment,61,↓,no_key,no_letter,-1.0,False,36,1
MG-M-33M33S2,162,experiment,89,→,right,→,0.501424000132829,True,36,1
MG-M-33M33S2,163,experiment,66,→,right,→,0.38401719997636974,True,36,1
MG-M-33M33S2,164,experiment,95,↓,down,↓,0.43404569989070296,True,36,0
MG-M-33M33S2,165,experiment,101,→,right,→,0.48037620005197823,True,36,0
MG-M-33M33S2,166,experiment,86,←,no_key,no_letter,-1.0,False,36,1
MG-M-33M33S2,167,training,93,↓,down,↓,0.4502433000598103,True,36,0
MG-M-33M33S2,168,training,103,←,right,→,0.400676199933514,False,36,0
MG-M-33M33S2,169,experiment,81,→,right,→,0.49571319995447993,True,36,0
MG-M-33M33S2,170,experiment,77,→,right,→,0.4088147000875324,True,36,1
MG-M-33M33S2,171,experiment,72,←,left,←,0.48095480003394186,True,36,0
MG-M-33M33S2,172,experiment,96,↓,down,↓,0.47809370001778007,True,36,1
MG-M-33M33S2,173,experiment,86,↓,down,↓,0.5650909999385476,True,36,1
MG-M-33M33S2,174,experiment,106,→,right,→,0.45061219995841384,True,36,1
MG-M-33M33S2,175,experiment,90,→,right,→,0.35909699997864664,True,36,0
MG-M-33M33S2,176,experiment,78,↓,no_key,no_letter,-1.0,False,36,0
MG-M-33M33S2,177,experiment,98,→,right,→,0.40891420003026724,True,36,1
MG-M-33M33S2,178,experiment,60,↑,no_key,no_letter,-1.0,False,36,0
MG-M-33M33S2,179,experiment,53,→,right,→,0.5078866998665035,True,36,1
MG-M-33M33S2,180,experiment,108,↑,no_key,no_letter,-1.0,False,36,1
MG-M-33M33S2,181,experiment,79,←,left,←,0.43493339978158474,True,36,1
MG-M-33M33S2,182,experiment,92,↓,down,↓,0.560987199889496,True,36,0
MG-M-33M33S2,183,experiment,54,↑,down,↓,0.6162813000846654,False,36,1
MG-M-33M33S2,184,experiment,105,↓,right,→,0.5567002999596298,False,36,1
MG-M-33M33S2,185,experiment,55,↑,up,↑,0.6993538998067379,True,36,1
MG-M-33M33S2,186,experiment,107,↑,up,↑,0.6995486000087112,True,36,1
MG-M-33M33S2,187,experiment,97,→,right,→,0.6707263998687267,True,36,1
MG-M-33M33S2,188,experiment,91,↓,no_key,no_letter,-1.0,False,36,1
MG-M-33M33S2,189,experiment,65,→,right,→,0.375901399878785,True,36,1
MG-M-33M33S2,190,experiment,83,↓,down,↓,0.42584360018372536,True,36,0
MG-M-33M33S2,191,experiment,80,→,right,→,0.4178502999711782,True,36,0
MG-M-33M33S2,192,experiment,102,←,left,←,0.5496300999075174,True,36,0
MG-M-33M33S2,193,experiment,73,↑,up,↑,0.6471255000215024,True,36,1
MG-M-33M33S2,194,experiment,69,→,right,→,0.4695659000426531,True,36,1
MG-M-33M33S2,195,experiment,93,→,right,→,0.4914764999412,True,36,0
MG-M-33M33S2,196,experiment,99,←,left,←,0.5503980000503361,True,36,1
MG-M-33M33S2,197,experiment,49,↓,right,→,0.4338038999121636,False,36,1
MG-M-33M33S2,198,experiment,63,↑,up,↑,0.43380860006436706,True,36,0
MG-M-33M33S2,199,experiment,70,↓,no_key,no_letter,-1.0,False,36,0
MG-M-33M33S2,200,experiment,89,←,left,←,0.5149872000329196,True,36,1
MG-M-33M33S2,201,experiment,74,←,right,→,0.3924352000467479,False,36,1
MG-M-33M33S2,202,experiment,64,↑,no_key,no_letter,-1.0,False,36,0
MG-M-33M33S2,203,experiment,61,→,right,→,0.42588739981874824,True,36,1
MG-M-33M33S2,204,experiment,51,→,no_key,no_letter,-1.0,False,36,0
MG-M-33M33S2,205,experiment,82,↓,right,→,0.8153606001287699,False,36,1
MG-M-33M33S2,206,experiment,66,→,right,→,0.5364864999428391,True,36,1
MG-M-33M33S2,207,experiment,94,←,left,←,0.5792837999761105,True,36,1
MG-M-33M33S2,208,experiment,104,→,right,→,0.42587290005758405,True,36,1
MG-M-33M33S2,209,experiment,59,↑,up,↑,0.611953399842605,True,36,0
MG-M-33M33S2,210,experiment,76,↓,right,→,0.6742728999815881,False,36,1
MG-M-33M33S2,211,experiment,100,→,right,→,0.6132141000125557,True,36,1
MG-M-33M33S2,212,experiment,75,↑,up,↑,0.6352903000079095,True,36,1
MG-M-33M33S2,213,experiment,57,↓,right,→,0.5109168000053614,False,36,1
MG-M-33M33S2,214,experiment,87,←,left,←,0.5331965000368655,True,36,1
MG-M-33M33S2,215,experiment,85,↓,down,↓,0.5153858000412583,True,36,1
MG-M-33M33S2,216,experiment,95,←,left,←,0.4094106999691576,True,36,1
MG-M-33M33S2,217,experiment,56,→,right,→,0.4257955001667142,True,36,0
MG-M-33M33S2,218,experiment,101,↑,up,↑,0.696132899960503,True,36,0
MG-M-33M33S2,219,experiment,88,↓,down,↓,0.8860842001158744,True,36,1
MG-M-33M33S2,220,experiment,103,→,right,→,0.4175911999773234,True,36,1
MG-M-33M33S2,221,experiment,50,→,right,→,0.6301388998981565,True,36,0
MG-M-33M33S2,222,experiment,62,↑,up,↑,0.5680732999462634,True,36,1
MG-M-33M33S2,223,experiment,48,↑,up,↑,0.6970200999639928,True,36,1
MG-M-33M33S2,224,experiment,68,→,right,→,0.5419787000864744,True,36,1
MG-M-33M33S2,225,experiment,71,→,right,→,0.5204264000058174,True,36,1
MG-M-33M33S2,226,experiment,67,↓,no_key,no_letter,-1.0,False,36,1
MG-M-33M33S2,227,experiment,58,→,right,→,0.5147816999815404,True,36,1
MG-M-33M33S2,228,experiment,84,←,left,←,0.40018230001442134,True,36,1
MG-M-33M33S2,229,experiment,52,→,right,→,0.41759650013409555,True,36,0
MG-M-33M33S2,230,training,104,↑,up,↑,0.5104110999964178,True,36,0
MG-M-33M33S2,231,training,78,→,right,→,0.3590186000801623,True,36,1
MG-M-33M33S2,232,experiment,91,→,right,→,0.35927959997206926,True,36,0
MG-M-33M33S2,233,experiment,83,↑,up,↑,0.5594389999751002,True,36,0
MG-M-33M33S2,234,experiment,92,↓,down,↓,0.570096799870953,True,36,1
MG-M-33M33S2,235,experiment,77,↑,up,↑,0.5535063000861555,True,36,1
MG-M-33M33S2,236,experiment,70,↓,down,↓,0.5640549000818282,True,36,1
MG-M-33M33S2,237,experiment,102,↑,down,↓,0.5547823999077082,False,36,1
MG-M-33M33S2,238,experiment,59,←,right,→,0.424966299906373,False,36,1
MG-M-33M33S2,239,experiment,67,←,left,←,0.513022200204432,True,36,0
MG-M-33M33S2,240,experiment,61,←,left,←,0.5518455998972058,True,36,1
MG-M-33M33S2,241,experiment,56,→,right,→,0.4504970998968929,True,36,1
MG-M-33M33S2,242,experiment,90,↓,down,↓,0.5424163001589477,True,36,0
MG-M-33M33S2,243,experiment,48,↑,down,↓,0.48891959991306067,False,36,1
MG-M-33M33S2,244,experiment,62,←,left,←,0.3590788000728935,True,36,1
MG-M-33M33S2,245,experiment,80,↑,up,↑,0.45052499999292195,True,36,0
MG-M-33M33S2,246,experiment,98,←,left,←,0.5310502999927849,True,36,0
MG-M-33M33S2,247,experiment,49,↑,no_key,no_letter,-1.0,False,36,1
MG-M-33M33S2,248,experiment,86,↓,down,↓,0.6895155000966042,True,36,1
MG-M-33M33S2,249,experiment,93,←,left,←,0.39221129985526204,True,36,1
MG-M-33M33S2,250,experiment,64,↓,right,→,0.6092757000587881,False,36,0
MG-M-33M33S2,251,experiment,57,→,no_key,no_letter,-1.0,False,36,1
MG-M-33M33S2,252,experiment,53,→,right,→,0.4257975001819432,True,36,1
MG-M-33M33S2,253,experiment,72,↑,up,↑,0.45073839998804033,True,36,0
MG-M-33M33S2,254,experiment,99,↑,up,↑,0.6951071000657976,True,36,0
MG-M-33M33S2,255,experiment,95,↑,up,↑,0.7557858000509441,True,36,1
MG-M-33M33S2,256,experiment,82,→,right,→,0.41715660016052425,True,36,1
MG-M-33M33S2,257,experiment,52,↑,up,↑,0.6392480998765677,True,36,0
MG-M-33M33S2,258,experiment,76,↑,up,↑,0.4418226999696344,True,36,1
MG-M-33M33S2,259,experiment,68,→,right,→,0.4263607000466436,True,36,0
MG-M-33M33S2,260,experiment,107,↑,up,↑,0.5974207001272589,True,36,0
MG-M-33M33S2,261,experiment,73,↓,down,↓,0.5971892999950796,True,36,1
MG-M-33M33S2,262,experiment,58,↓,down,↓,0.45075249997898936,True,36,1
MG-M-33M33S2,263,experiment,60,↑,up,↑,0.6268567000515759,True,36,0
MG-M-33M33S2,264,experiment,55,→,right,→,0.4008646998554468,True,36,1
MG-M-33M33S2,265,experiment,66,↓,right,→,0.4342616000212729,False,36,0
MG-M-33M33S2,266,experiment,51,←,left,←,0.442146000219509,True,36,0
MG-M-33M33S2,267,experiment,84,←,left,←,0.6235575000755489,True,36,0
MG-M-33M33S2,268,experiment,78,↑,up,↑,0.4510462998878211,True,36,1
MG-M-33M33S2,269,experiment,69,←,left,←,0.38331039994955063,True,36,0
MG-M-33M33S2,270,experiment,75,→,right,→,0.4254723999183625,True,36,0
MG-M-33M33S2,271,experiment,71,↓,down,↓,0.4811799000017345,True,36,0
MG-M-33M33S2,272,experiment,106,↑,up,↑,0.60957260010764,True,36,1
MG-M-33M33S2,273,experiment,94,↑,up,↑,0.6975435998756438,True,36,1
MG-M-33M33S2,274,experiment,108,↓,down,↓,0.4099016999825835,True,36,1
MG-M-33M33S2,275,experiment,88,←,left,←,0.5307665001600981,True,36,0
MG-M-33M33S2,276,experiment,79,←,left,←,0.3423685000743717,True,36,1
MG-M-33M33S2,277,experiment,74,→,right,→,0.5159292002208531,True,36,0
MG-M-33M33S2,278,experiment,85,↑,up,↑,0.4504738000687212,True,36,1
MG-M-33M33S2,279,experiment,63,↓,down,↓,0.6909260000102222,True,36,0
MG-M-33M33S2,280,experiment,96,↓,down,↓,0.41743030003271997,True,36,1
MG-M-33M33S2,281,experiment,50,←,left,←,0.6211638997774571,True,36,0
MG-M-33M33S2,282,experiment,81,↓,down,↓,0.473062900127843,True,36,1
MG-M-33M33S2,283,experiment,104,←,left,←,0.5709746000356972,True,36,0
MG-M-33M33S2,284,experiment,87,←,left,←,0.37594390008598566,True,36,1
MG-M-33M33S2,285,experiment,65,↓,down,↓,0.489919199841097,True,36,0
MG-M-33M33S2,286,experiment,103,→,right,→,0.507495499914512,True,36,1
MG-M-33M33S2,287,experiment,105,→,right,→,0.3592083000112325,True,36,1
MG-M-33M33S2,288,experiment,89,←,left,←,0.5834218000527471,True,36,0
MG-M-33M33S2,289,experiment,101,↑,up,↑,0.702155799837783,True,36,1
MG-M-33M33S2,290,experiment,97,↓,down,↓,0.6412263999227434,True,36,1
MG-M-33M33S2,291,experiment,54,↓,no_key,no_letter,-1.0,False,36,1
MG-M-33M33S2,292,experiment,100,↑,up,↑,0.7727866000495851,True,36,1
MG-M-33M33S2,293,training,100,←,left,←,0.528554999968037,True,36,0
MG-M-33M33S2,294,training,61,←,no_key,no_letter,-1.0,False,36,1
MG-M-33M33S2,295,experiment,93,↓,no_key,no_letter,-1.0,False,36,1
MG-M-33M33S2,296,experiment,83,→,right,→,0.4177540000528097,True,36,1
MG-M-33M33S2,297,experiment,108,←,left,←,0.48895899998024106,True,36,0
MG-M-33M33S2,298,experiment,80,→,right,→,0.38426439999602735,True,36,1
MG-M-33M33S2,299,experiment,49,←,left,←,0.5858821999281645,True,36,0
MG-M-33M33S2,300,experiment,59,↑,up,↑,0.5345691998954862,True,36,1
MG-M-33M33S2,301,experiment,96,↓,down,↓,0.5929093000013381,True,36,1
MG-M-33M33S2,302,experiment,91,←,left,←,0.4752974999137223,True,36,1
MG-M-33M33S2,303,experiment,58,↑,up,↑,0.5076977000571787,True,36,1
MG-M-33M33S2,304,experiment,86,↓,down,↓,0.5705043999478221,True,36,1
MG-M-33M33S2,305,experiment,98,↑,up,↑,0.5468659000471234,True,36,1
MG-M-33M33S2,306,experiment,55,↓,down,↓,0.4983667000196874,True,36,1
MG-M-33M33S2,307,experiment,101,←,left,←,0.3507719999179244,True,36,1
MG-M-33M33S2,308,experiment,104,↑,up,↑,0.5714569999836385,True,36,0
MG-M-33M33S2,309,experiment,50,→,right,→,0.563177399802953,True,36,1
MG-M-33M33S2,310,experiment,54,↓,down,↓,0.6664361001458019,True,36,1
MG-M-33M33S2,311,experiment,84,↑,up,↑,0.6273120001424104,True,36,1
MG-M-33M33S2,312,experiment,71,↑,up,↑,0.5862852998543531,True,36,1
MG-M-33M33S2,313,experiment,69,←,left,←,0.523845000192523,True,36,1
MG-M-33M33S2,314,experiment,79,←,left,←,0.4925871999002993,True,36,1
MG-M-33M33S2,315,experiment,81,←,left,←,0.5493190998677164,True,36,1
MG-M-33M33S2,316,experiment,100,↑,up,↑,0.5097042999695987,True,36,1
MG-M-33M33S2,317,experiment,78,↑,up,↑,0.47931739990599453,True,36,1
MG-M-33M33S2,318,experiment,107,→,right,→,0.5198965000454336,True,36,1
MG-M-33M33S2,319,experiment,65,←,left,←,0.5973798998165876,True,36,1
MG-M-33M33S2,320,experiment,56,←,left,←,0.4007755001075566,True,36,1
MG-M-33M33S2,321,experiment,57,→,left,←,0.4714031000621617,False,36,0
MG-M-33M33S2,322,experiment,105,↓,down,↓,0.48080049990676343,True,36,0
MG-M-33M33S2,323,experiment,53,↓,down,↓,0.417589700082317,True,36,1
MG-M-33M33S2,324,experiment,94,↑,no_key,no_letter,-1.0,False,36,0
MG-M-33M33S2,325,experiment,106,→,right,→,0.5442480999045074,True,36,1
MG-M-33M33S2,326,experiment,74,→,right,→,0.4814712000079453,True,36,1
MG-M-33M33S2,327,experiment,64,→,right,→,0.5446172000374645,True,36,1
MG-M-33M33S2,328,experiment,89,↓,down,↓,0.5647684000432491,True,36,1
MG-M-33M33S2,329,experiment,82,↓,no_key,no_letter,-1.0,False,36,1
MG-M-33M33S2,330,experiment,76,←,no_key,no_letter,-1.0,False,36,1
MG-M-33M33S2,331,experiment,72,→,right,→,0.4090913000982255,True,36,1
MG-M-33M33S2,332,experiment,68,←,left,←,0.40102950017899275,True,36,0
MG-M-33M33S2,333,experiment,88,→,no_key,no_letter,-1.0,False,36,0
MG-M-33M33S2,334,experiment,70,→,right,→,0.36824329989030957,True,36,1
MG-M-33M33S2,335,experiment,66,←,left,←,0.49748379993252456,True,36,0
MG-M-33M33S2,336,experiment,92,↓,right,→,0.5829536998644471,False,36,1
MG-M-33M33S2,337,experiment,99,→,right,→,0.45067669986747205,True,36,1
MG-M-33M33S2,338,experiment,62,↓,down,↓,0.43404649989679456,True,36,0
MG-M-33M33S2,339,experiment,51,←,left,←,0.5719995000399649,True,36,0
MG-M-33M33S2,340,experiment,61,←,right,→,0.4332530000247061,False,36,1
MG-M-33M33S2,341,experiment,95,↑,up,↑,0.4869683999568224,True,36,0
MG-M-33M33S2,342,experiment,85,↑,up,↑,0.6866990998387337,True,36,1
MG-M-33M33S2,343,experiment,60,←,no_key,no_letter,-1.0,False,36,1
MG-M-33M33S2,344,experiment,63,→,right,→,0.4507150000426918,True,36,1
MG-M-33M33S2,345,experiment,48,↓,down,↓,0.5124508000444621,True,36,0
MG-M-33M33S2,346,experiment,103,↑,up,↑,0.6651781999971718,True,36,1
MG-M-33M33S2,347,experiment,90,→,right,→,0.5121683001052588,True,36,1
MG-M-33M33S2,348,experiment,67,↓,left,←,0.613189899828285,False,36,1
MG-M-33M33S2,349,experiment,52,↑,up,↑,0.6746493999380618,True,36,1
MG-M-33M33S2,350,experiment,73,↓,down,↓,0.6715489998459816,True,36,1
MG-M-33M33S2,351,experiment,75,→,right,→,0.41764530004002154,True,36,1
MG-M-33M33S2,352,experiment,102,↓,down,↓,0.5834723000880331,True,36,0
MG-M-33M33S2,353,experiment,87,→,right,→,0.4091270000208169,True,36,1
MG-M-33M33S2,354,experiment,97,→,right,→,0.417547499993816,True,36,0
MG-M-33M33S2,355,experiment,77,←,left,←,0.5426966999657452,True,36,0
MG-M-33M33S2,356,training,92,↓,down,↓,0.5965530001558363,True,36,0
MG-M-33M33S2,357,training,54,→,right,→,0.3755362001247704,True,36,1
MG-M-33M33S2,358,experiment,88,↑,up,↑,0.45103520015254617,True,36,0
MG-M-33M33S2,359,experiment,99,←,left,←,0.5455402999650687,True,36,0
MG-M-33M33S2,360,experiment,79,←,left,←,0.4098817000631243,True,36,1
MG-M-33M33S2,361,experiment,102,←,left,←,0.5101112998090684,True,36,0
MG-M-33M33S2,362,experiment,76,→,right,→,0.5122099001891911,True,36,1
MG-M-33M33S2,363,experiment,69,→,right,→,0.3756520999595523,True,36,1
MG-M-33M33S2,364,experiment,80,→,right,→,0.38422940019518137,True,36,0
MG-M-33M33S2,365,experiment,71,←,left,←,0.5465528001077473,True,36,0
MG-M-33M33S2,366,experiment,106,←,left,←,0.5287870999891311,True,36,1
MG-M-33M33S2,367,experiment,48,↑,up,↑,0.539797900011763,True,36,1
MG-M-33M33S2,368,experiment,84,↑,up,↑,0.4745990000665188,True,36,1
MG-M-33M33S2,369,experiment,105,↑,up,↑,0.43408369994722307,True,36,1
MG-M-33M33S2,370,experiment,54,→,right,→,0.6317949001677334,True,36,0
MG-M-33M33S2,371,experiment,95,→,right,→,0.40929310000501573,True,36,1
MG-M-33M33S2,372,experiment,65,→,right,→,0.3423849001992494,True,36,0
MG-M-33M33S2,373,experiment,62,↑,up,↑,0.42570969997905195,True,36,0
MG-M-33M33S2,374,experiment,94,↑,up,↑,0.5159961001481861,True,36,0
MG-M-33M33S2,375,experiment,63,→,right,→,0.5940101000014693,True,36,1
MG-M-33M33S2,376,experiment,101,→,right,→,0.4175388999283314,True,36,1
MG-M-33M33S2,377,experiment,53,↑,up,↑,0.5095187998376787,True,36,0
MG-M-33M33S2,378,experiment,73,↓,down,↓,0.6966431001201272,True,36,1
MG-M-33M33S2,379,experiment,66,←,left,←,0.425891499966383,True,36,1
MG-M-33M33S2,380,experiment,67,↑,up,↑,0.4257869999855757,True,36,0
MG-M-33M33S2,381,experiment,90,↓,right,→,0.5991557000670582,False,36,0
MG-M-33M33S2,382,experiment,68,→,right,→,0.6079893000423908,True,36,1
MG-M-33M33S2,383,experiment,55,↑,down,↓,0.6610157999675721,False,36,1
MG-M-33M33S2,384,experiment,52,←,left,←,0.633047099923715,True,36,1
MG-M-33M33S2,385,experiment,98,↑,up,↑,0.43406210001558065,True,36,1
MG-M-33M33S2,386,experiment,103,→,right,→,0.5622524998616427,True,36,0
MG-M-33M33S2,387,experiment,91,↓,down,↓,0.6055368001107126,True,36,1
MG-M-33M33S2,388,experiment,61,←,left,←,0.6003719000145793,True,36,1
MG-M-33M33S2,389,experiment,86,→,right,→,0.5956045999191701,True,36,1
MG-M-33M33S2,390,experiment,97,→,right,→,0.5153675000183284,True,36,1
MG-M-33M33S2,391,experiment,87,↑,up,↑,0.48201770009472966,True,36,1
MG-M-33M33S2,392,experiment,78,↑,up,↑,0.39258649991825223,True,36,1
MG-M-33M33S2,393,experiment,49,→,right,→,0.635435099946335,True,36,0
MG-M-33M33S2,394,experiment,92,→,no_key,no_letter,-1.0,False,36,1
MG-M-33M33S2,395,experiment,56,→,no_key,no_letter,-1.0,False,36,1
MG-M-33M33S2,396,experiment,50,↓,right,→,0.4818700000178069,False,36,1
MG-M-33M33S2,397,experiment,89,←,left,←,0.6081276000477374,True,36,1
MG-M-33M33S2,398,experiment,64,→,right,→,0.48243179987184703,True,36,1
MG-M-33M33S2,399,experiment,77,→,right,→,0.3674369999207556,True,36,1
MG-M-33M33S2,400,experiment,72,↑,up,↑,0.6537992001976818,True,36,0
MG-M-33M33S2,401,experiment,74,←,left,←,0.4916052999906242,True,36,1
MG-M-33M33S2,402,experiment,59,→,right,→,0.4673897000029683,True,36,1
MG-M-33M33S2,403,experiment,75,↓,no_key,no_letter,-1.0,False,36,0
MG-M-33M33S2,404,experiment,93,←,left,←,0.5367258999031037,True,36,1
MG-M-33M33S2,405,experiment,104,←,right,→,0.5604711999185383,False,36,1
MG-M-33M33S2,406,experiment,51,↑,no_key,no_letter,-1.0,False,36,1
MG-M-33M33S2,407,experiment,58,←,no_key,no_letter,-1.0,False,36,1
MG-M-33M33S2,408,experiment,108,↓,right,→,0.5477058000396937,False,36,1
MG-M-33M33S2,409,experiment,70,↓,no_key,no_letter,-1.0,False,36,1
MG-M-33M33S2,410,experiment,60,↓,right,→,0.7632200000807643,False,36,1
MG-M-33M33S2,411,experiment,57,←,left,←,0.6566635000053793,True,36,1
MG-M-33M33S2,412,experiment,85,↑,up,↑,0.4822348998859525,True,36,1
MG-M-33M33S2,413,experiment,96,←,left,←,0.5660527998115867,True,36,1
MG-M-33M33S2,414,experiment,107,↑,up,↑,0.5955165000632405,True,36,1
MG-M-33M33S2,415,experiment,82,→,right,→,0.6403055998962373,True,36,1
MG-M-33M33S2,416,experiment,100,↓,no_key,no_letter,-1.0,False,36,1
MG-M-33M33S2,417,experiment,83,←,left,←,0.5382474998477846,True,36,1
MG-M-33M33S2,418,experiment,81,↑,up,↑,0.5850750000681728,True,36,1
MG-M-33M33S2,419,training,56,→,right,→,0.6009745001792908,True,36,0
MG-M-33M33S2,420,training,100,↑,up,↑,0.5433277999982238,True,36,1
MG-M-33M33S2,421,experiment,48,↓,no_key,no_letter,-1.0,False,36,1
MG-M-33M33S2,422,experiment,75,→,right,→,0.4895522999577224,True,36,1
MG-M-33M33S2,423,experiment,94,←,right,→,0.40068709990009665,False,36,1
MG-M-33M33S2,424,experiment,54,↓,down,↓,0.6595434001646936,True,36,0
MG-M-33M33S2,425,experiment,84,→,right,→,0.5246540999505669,True,36,1
MG-M-33M33S2,426,experiment,83,←,left,←,0.4090615001041442,True,36,1
MG-M-33M33S2,427,experiment,71,↓,right,→,0.5875816000625491,False,36,0
MG-M-33M33S2,428,experiment,96,↓,down,↓,0.4342922999057919,True,36,1
MG-M-33M33S2,429,experiment,74,↓,down,↓,0.5688775999005884,True,36,0
MG-M-33M33S2,430,experiment,106,↓,down,↓,0.4949880000203848,True,36,1
MG-M-33M33S2,431,experiment,103,↑,up,↑,0.48869489994831383,True,36,1
MG-M-33M33S2,432,experiment,53,↓,down,↓,0.47481580008752644,True,36,1
MG-M-33M33S2,433,experiment,93,→,right,→,0.568510599900037,True,36,0
MG-M-33M33S2,434,experiment,89,↓,down,↓,0.5556555001530796,True,36,1
MG-M-33M33S2,435,experiment,85,←,left,←,0.40948709985241294,True,36,1
MG-M-33M33S2,436,experiment,55,←,left,←,0.43349949992261827,True,36,0
MG-M-33M33S2,437,experiment,58,←,left,←,0.6318730998318642,True,36,0
MG-M-33M33S2,438,experiment,107,→,left,←,0.5307259999681264,False,36,1
MG-M-33M33S2,439,experiment,95,←,left,←,0.5975783001631498,True,36,1
MG-M-33M33S2,440,experiment,104,←,left,←,0.522587199928239,True,36,1
MG-M-33M33S2,441,experiment,57,→,right,→,0.4826030000112951,True,36,1
MG-M-33M33S2,442,experiment,80,↓,down,↓,0.4923724001273513,True,36,1
MG-M-33M33S2,443,experiment,56,↓,down,↓,0.5653597000055015,True,36,1
MG-M-33M33S2,444,experiment,101,↑,down,↓,0.9168905999977142,False,36,1
MG-M-33M33S2,445,experiment,86,↓,down,↓,0.4173151000868529,True,36,1
MG-M-33M33S2,446,experiment,51,↓,down,↓,0.6488312999717891,True,36,0
MG-M-33M33S2,447,experiment,77,↓,down,↓,0.38390460005030036,True,36,1
MG-M-33M33S2,448,experiment,67,←,left,←,0.41745620011352,True,36,0
MG-M-33M33S2,449,experiment,91,→,right,→,0.5190034001134336,True,36,0
MG-M-33M33S2,450,experiment,92,↑,up,↑,0.5874022000934929,True,36,1
MG-M-33M33S2,451,experiment,52,↓,down,↓,0.6102273999713361,True,36,1
MG-M-33M33S2,452,experiment,64,→,right,→,0.6047217999584973,True,36,1
MG-M-33M33S2,453,experiment,69,↓,down,↓,0.4506190000101924,True,36,1
MG-M-33M33S2,454,experiment,76,→,right,→,0.39239439996890724,True,36,0
MG-M-33M33S2,455,experiment,102,→,right,→,0.37589229992590845,True,36,0
MG-M-33M33S2,456,experiment,88,↑,up,↑,0.5136124000418931,True,36,0
MG-M-33M33S2,457,experiment,99,↑,up,↑,0.4508690999355167,True,36,1
MG-M-33M33S2,458,experiment,50,↓,down,↓,0.5445598000660539,True,36,0
MG-M-33M33S2,459,experiment,108,←,left,←,0.40903520002029836,True,36,1
MG-M-33M33S2,460,experiment,59,←,left,←,0.4083937997929752,True,36,0
MG-M-33M33S2,461,experiment,49,↓,right,→,0.4821778000332415,False,36,0
MG-M-33M33S2,462,experiment,78,→,right,→,0.3840451999567449,True,36,1
MG-M-33M33S2,463,experiment,63,←,left,←,0.6222865998279303,True,36,0
MG-M-33M33S2,464,experiment,70,→,right,→,0.39241329999640584,True,36,1
MG-M-33M33S2,465,experiment,100,←,left,←,0.515964699909091,True,36,0
MG-M-33M33S2,466,experiment,81,→,right,→,0.5321136999409646,True,36,1
MG-M-33M33S2,467,experiment,79,↑,up,↑,0.5881660999730229,True,36,1
MG-M-33M33S2,468,experiment,62,→,right,→,0.5435816999524832,True,36,1
MG-M-33M33S2,469,experiment,61,←,left,←,0.4693416999652982,True,36,1
MG-M-33M33S2,470,experiment,66,↓,right,→,0.45071950019337237,False,36,0
MG-M-33M33S2,471,experiment,72,←,left,←,0.4740160000510514,True,36,0
MG-M-33M33S2,472,experiment,105,←,left,←,0.48356580012477934,True,36,0
MG-M-33M33S2,473,experiment,98,↓,right,→,0.6074007998686284,False,36,1
MG-M-33M33S2,474,experiment,73,↓,down,↓,0.4864657998550683,True,36,1
MG-M-33M33S2,475,experiment,87,←,left,←,0.5810436999890953,True,36,1
MG-M-33M33S2,476,experiment,97,↑,up,↑,0.5970699000172317,True,36,1
MG-M-33M33S2,477,experiment,90,↑,up,↑,0.5750029999762774,True,36,1
MG-M-33M33S2,478,experiment,68,↑,up,↑,0.5207483998965472,True,36,1
MG-M-33M33S2,479,experiment,82,←,left,←,0.5042739000637084,True,36,1
MG-M-33M33S2,480,experiment,60,↓,down,↓,0.7424995999317616,True,36,1
MG-M-33M33S2,481,experiment,65,→,right,→,0.43452490004710853,True,36,1
MG-M-33M33S2,482,training,96,↓,down,↓,0.5845586999785155,True,36,0
MG-M-33M33S2,483,training,49,↑,up,↑,0.4256553000304848,True,36,1
MG-M-33M33S2,484,experiment,52,←,left,←,0.4003820000216365,True,36,0
MG-M-33M33S2,485,experiment,102,←,right,→,0.42566749989055097,False,36,0
MG-M-33M33S2,486,experiment,107,→,right,→,0.40916609996929765,True,36,0
MG-M-33M33S2,487,experiment,48,←,left,←,0.41653480008244514,True,36,0
MG-M-33M33S2,488,experiment,81,↑,up,↑,0.42505210009403527,True,36,0
MG-M-33M33S2,489,experiment,64,←,left,←,0.4266556999646127,True,36,0
MG-M-33M33S2,490,experiment,99,→,left,←,0.48712489986792207,False,36,0
MG-M-33M33S2,491,experiment,50,←,right,→,0.5068437000736594,False,36,1
MG-M-33M33S2,492,experiment,72,←,left,←,0.49430599994957447,True,36,1
MG-M-33M33S2,493,experiment,82,↑,up,↑,0.47953060013242066,True,36,1
MG-M-33M33S2,494,experiment,80,→,right,→,0.3835721001960337,True,36,1
MG-M-33M33S2,495,experiment,63,↓,down,↓,0.5074579999782145,True,36,0
MG-M-33M33S2,496,experiment,71,↑,up,↑,0.5754761998541653,True,36,1
MG-M-33M33S2,497,experiment,59,→,right,→,0.3760822000913322,True,36,1
MG-M-33M33S2,498,experiment,74,←,left,←,0.47677560010924935,True,36,0
MG-M-33M33S2,499,experiment,91,↓,down,↓,0.6504952001851052,True,36,1
MG-M-33M33S2,500,experiment,86,↓,down,↓,0.6193026001565158,True,36,1
MG-M-33M33S2,501,experiment,66,←,left,←,0.6682920998428017,True,36,1
MG-M-33M33S2,502,experiment,62,→,right,→,0.6289007000159472,True,36,1
MG-M-33M33S2,503,experiment,106,←,left,←,0.47247080015949905,True,36,1
MG-M-33M33S2,504,experiment,75,←,left,←,0.4769377000629902,True,36,0
MG-M-33M33S2,505,experiment,93,→,right,→,0.4972641000058502,True,36,1
MG-M-33M33S2,506,experiment,67,←,right,→,0.542500999988988,False,36,1
MG-M-33M33S2,507,experiment,88,←,left,←,0.49119929992593825,True,36,1
MG-M-33M33S2,508,experiment,60,↓,right,→,0.4842910999432206,False,36,1
MG-M-33M33S2,509,experiment,96,←,left,←,0.5992804998531938,True,36,1
MG-M-33M33S2,510,experiment,79,→,right,→,0.42488980013877153,True,36,1
MG-M-33M33S2,511,experiment,98,↑,up,↑,0.6984105999581516,True,36,0
MG-M-33M33S2,512,experiment,51,↑,up,↑,0.6533915000036359,True,36,1
MG-M-33M33S2,513,experiment,68,↓,down,↓,0.6202392000705004,True,36,1
MG-M-33M33S2,514,experiment,61,↑,up,↑,0.4500348998699337,True,36,1
MG-M-33M33S2,515,experiment,78,↓,down,↓,0.6422845998313278,True,36,0
MG-M-33M33S2,516,experiment,104,↓,down,↓,0.5497567001730204,True,36,1
MG-M-33M33S2,517,experiment,100,→,right,→,0.606096199946478,True,36,1
MG-M-33M33S2,518,experiment,65,→,right,→,0.5680659001227468,True,36,1
MG-M-33M33S2,519,experiment,53,↑,up,↑,0.5912874999921769,True,36,1
MG-M-33M33S2,520,experiment,87,←,left,←,0.5223713000304997,True,36,1
MG-M-33M33S2,521,experiment,105,↑,no_key,no_letter,-1.0,False,36,1
MG-M-33M33S2,522,experiment,84,↑,up,↑,0.45075040007941425,True,36,1
MG-M-33M33S2,523,experiment,70,←,no_key,no_letter,-1.0,False,36,0
MG-M-33M33S2,524,experiment,69,↓,right,→,0.575262299971655,False,36,1
MG-M-33M33S2,525,experiment,97,→,left,←,0.75936029991135,False,36,1
MG-M-33M33S2,526,experiment,55,↓,down,↓,0.4422019000630826,True,36,1
MG-M-33M33S2,527,experiment,73,→,right,→,0.36667030001990497,True,36,0
MG-M-33M33S2,528,experiment,85,←,left,←,0.42581719998270273,True,36,0
MG-M-33M33S2,529,experiment,92,↑,up,↑,0.5924045001156628,True,36,0
MG-M-33M33S2,530,experiment,95,→,no_key,no_letter,-1.0,False,36,1
MG-M-33M33S2,531,experiment,108,↓,down,↓,0.46986850001849234,True,36,1
MG-M-33M33S2,532,experiment,76,↓,down,↓,0.5922988001257181,True,36,0
MG-M-33M33S2,533,experiment,94,↑,right,→,0.44216839992441237,False,36,1
MG-M-33M33S2,534,experiment,77,↑,up,↑,0.42460529995150864,True,36,0
MG-M-33M33S2,535,experiment,58,↓,down,↓,0.5204834998585284,True,36,0
MG-M-33M33S2,536,experiment,90,↑,up,↑,0.6211300999857485,True,36,1
MG-M-33M33S2,537,experiment,56,↑,up,↑,0.4343884999398142,True,36,1
MG-M-33M33S2,538,experiment,101,←,left,←,0.6699103000573814,True,36,0
MG-M-33M33S2,539,experiment,89,↓,down,↓,0.7014992998447269,True,36,1
MG-M-33M33S2,540,experiment,57,←,left,←,0.5901492999400944,True,36,1
MG-M-33M33S2,541,experiment,103,↓,down,↓,0.6756596001796424,True,36,1
MG-M-33M33S2,542,experiment,49,↑,up,↑,0.42549600009806454,True,36,1
MG-M-33M33S2,543,experiment,83,↓,down,↓,0.4755003999453038,True,36,0
MG-M-33M33S2,544,experiment,54,↑,up,↑,0.549234899925068,True,36,1
MG-M-33M33S2,545,training,51,↓,down,↓,0.486736899940297,True,36,0
MG-M-33M33S2,546,training,59,←,left,←,0.4799659999553114,True,36,1
MG-M-33M33S2,547,experiment,78,↓,down,↓,0.505887100007385,True,36,1
MG-M-33M33S2,548,experiment,68,→,right,→,0.4791139999870211,True,36,1
MG-M-33M33S2,549,experiment,73,←,left,←,0.546761600067839,True,36,1
MG-M-33M33S2,550,experiment,94,←,left,←,0.4854838999453932,True,36,1
MG-M-33M33S2,551,experiment,62,↑,up,↑,0.5726811999920756,True,36,1
MG-M-33M33S2,552,experiment,99,↓,down,↓,0.6443637001793832,True,36,1
MG-M-33M33S2,553,experiment,55,↓,no_key,no_letter,-1.0,False,36,1
MG-M-33M33S2,554,experiment,51,→,left,←,0.5040645999833941,False,36,1
MG-M-33M33S2,555,experiment,90,←,left,←,0.4172183000482619,True,36,1
MG-M-33M33S2,556,experiment,59,→,right,→,0.39334610011428595,True,36,0
MG-M-33M33S2,557,experiment,85,→,right,→,0.5476651000790298,True,36,0
MG-M-33M33S2,558,experiment,93,↑,up,↑,0.5663214998785406,True,36,1
MG-M-33M33S2,559,experiment,80,↑,up,↑,0.44260860001668334,True,36,1
MG-M-33M33S2,560,experiment,70,←,left,←,0.6029616000596434,True,36,0
MG-M-33M33S2,561,experiment,91,↓,down,↓,0.6043471999000758,True,36,1
MG-M-33M33S2,562,experiment,86,→,right,→,0.4501588998828083,True,36,1
MG-M-33M33S2,563,experiment,75,↑,up,↑,0.6035955001134425,True,36,0
MG-M-33M33S2,564,experiment,108,↓,down,↓,0.583213800098747,True,36,1
MG-M-33M33S2,565,experiment,89,→,right,→,0.39231169992126524,True,36,1
MG-M-33M33S2,566,experiment,56,→,right,→,0.36715979990549386,True,36,0
MG-M-33M33S2,567,experiment,81,↑,up,↑,0.6045053000561893,True,36,0
MG-M-33M33S2,568,experiment,96,←,left,←,0.6837523998692632,True,36,1
MG-M-33M33S2,569,experiment,63,←,left,←,0.5391135001555085,True,36,1
MG-M-33M33S2,570,experiment,98,↑,up,↑,0.44227409991435707,True,36,1
MG-M-33M33S2,571,experiment,105,↓,down,↓,0.6711462000384927,True,36,0
MG-M-33M33S2,572,experiment,95,↑,up,↑,0.468752000015229,True,36,1
MG-M-33M33S2,573,experiment,52,↑,up,↑,0.4255218000616878,True,36,0
MG-M-33M33S2,574,experiment,66,↑,up,↑,0.3673928000498563,True,36,0
MG-M-33M33S2,575,experiment,57,↓,up,↑,0.8139165001921356,False,36,0
MG-M-33M33S2,576,experiment,76,↑,up,↑,0.7236138998996466,True,36,1
MG-M-33M33S2,577,experiment,74,→,no_key,no_letter,-1.0,False,36,1
MG-M-33M33S2,578,experiment,84,↓,down,↓,0.5544983998406678,True,36,1
MG-M-33M33S2,579,experiment,77,←,left,←,0.41724080010317266,True,36,1
MG-M-33M33S2,580,experiment,100,←,right,→,0.45100799994543195,False,36,0
MG-M-33M33S2,581,experiment,64,→,right,→,0.5836608000099659,True,36,0
MG-M-33M33S2,582,experiment,61,↓,down,↓,0.46844359999522567,True,36,1
MG-M-33M33S2,583,experiment,106,↓,down,↓,0.6532302000559866,True,36,0
MG-M-33M33S2,584,experiment,67,↓,down,↓,0.4176537001039833,True,36,1
MG-M-33M33S2,585,experiment,92,→,right,→,0.3339832997880876,True,36,0
MG-M-33M33S2,586,experiment,83,←,left,←,0.4340506000444293,True,36,0
MG-M-33M33S2,587,experiment,88,↓,down,↓,0.4919756001327187,True,36,0
MG-M-33M33S2,588,experiment,50,↓,down,↓,0.4800362999085337,True,36,1
MG-M-33M33S2,589,experiment,53,↓,down,↓,0.6180624000262469,True,36,1
MG-M-33M33S2,590,experiment,103,←,left,←,0.42576869996264577,True,36,1
MG-M-33M33S2,591,experiment,82,←,right,→,0.4742465999443084,False,36,0
MG-M-33M33S2,592,experiment,97,→,right,→,0.5019805000629276,True,36,1
MG-M-33M33S2,593,experiment,79,←,left,←,0.4090601000934839,True,36,1
MG-M-33M33S2,594,experiment,69,↑,up,↑,0.679588400060311,True,36,0
MG-M-33M33S2,595,experiment,102,↓,down,↓,0.4976954001467675,True,36,1
MG-M-33M33S2,596,experiment,65,→,right,→,0.5438665999099612,True,36,1
MG-M-33M33S2,597,experiment,54,↓,down,↓,0.632186200004071,True,36,1
MG-M-33M33S2,598,experiment,72,↓,no_key,no_letter,-1.0,False,36,1
MG-M-33M33S2,599,experiment,49,←,left,←,0.527358700055629,True,36,1
MG-M-33M33S2,600,experiment,48,←,left,←,0.49765659985132515,True,36,1
MG-M-33M33S2,601,experiment,87,→,right,→,0.5050472998991609,True,36,1
MG-M-33M33S2,602,experiment,58,↑,up,↑,0.6244916000869125,True,36,1
MG-M-33M33S2,603,experiment,71,↓,down,↓,0.6395596999209374,True,36,1
MG-M-33M33S2,604,experiment,104,←,left,←,0.4257386999670416,True,36,1
MG-M-33M33S2,605,experiment,101,←,no_key,no_letter,-1.0,False,36,0
MG-M-33M33S2,606,experiment,107,→,right,→,0.4094729998614639,True,36,1
MG-M-33M33S2,607,experiment,60,←,left,←,0.4338197000324726,True,36,0
MG-M-33M33S2,608,training,87,↓,down,↓,0.5996701999101788,True,36,0
MG-M-33M33S2,609,training,53,↓,down,↓,0.5817901999689639,True,36,1
MG-M-33M33S2,610,experiment,64,→,right,→,0.40149670001119375,True,36,1
MG-M-33M33S2,611,experiment,76,→,right,→,0.4501340000424534,True,36,0
MG-M-33M33S2,612,experiment,71,↑,up,↑,0.5643981001339853,True,36,0
MG-M-33M33S2,613,experiment,70,↑,no_key,no_letter,-1.0,False,36,1
MG-M-33M33S2,614,experiment,48,↑,up,↑,0.5913256998173892,True,36,1
MG-M-33M33S2,615,experiment,67,↑,up,↑,0.41678180010057986,True,36,1
MG-M-33M33S2,616,experiment,97,→,right,→,0.383968299953267,True,36,0
MG-M-33M33S2,617,experiment,96,→,right,→,0.42580480012111366,True,36,0
MG-M-33M33S2,618,experiment,60,↑,up,↑,0.424782200017944,True,36,0
MG-M-33M33S2,619,experiment,102,↑,up,↑,0.5341183999553323,True,36,0
MG-M-33M33S2,620,experiment,103,←,left,←,0.606372700072825,True,36,1
MG-M-33M33S2,621,experiment,52,→,right,→,0.5647130000870675,True,36,1
MG-M-33M33S2,622,experiment,89,→,right,→,0.4177200999110937,True,36,1
MG-M-33M33S2,623,experiment,100,↑,up,↑,0.5729152001440525,True,36,0
MG-M-33M33S2,624,experiment,99,→,right,→,0.40128670004196465,True,36,1
MG-M-33M33S2,625,experiment,55,←,right,→,0.45084089995361865,False,36,0
MG-M-33M33S2,626,experiment,81,↓,down,↓,0.6682394999079406,True,36,0
MG-M-33M33S2,627,experiment,62,↓,down,↓,0.5886470000259578,True,36,1
MG-M-33M33S2,628,experiment,59,↓,down,↓,0.545121000148356,True,36,1
MG-M-33M33S2,629,experiment,92,↓,down,↓,0.5642830000724643,True,36,1
MG-M-33M33S2,630,experiment,101,←,left,←,0.555786499986425,True,36,1
MG-M-33M33S2,631,experiment,79,←,left,←,0.5555068999528885,True,36,1
MG-M-33M33S2,632,experiment,83,←,no_key,no_letter,-1.0,False,36,1
MG-M-33M33S2,633,experiment,85,↑,up,↑,0.7019793998915702,True,36,1
MG-M-33M33S2,634,experiment,69,→,no_key,no_letter,-1.0,False,36,1
MG-M-33M33S2,635,experiment,72,↓,down,↓,0.6353505000006407,True,36,1
MG-M-33M33S2,636,experiment,77,←,no_key,no_letter,-1.0,False,36,1
MG-M-33M33S2,637,experiment,65,→,right,→,0.35044430010020733,True,36,1
MG-M-33M33S2,638,experiment,93,↑,up,↑,0.5974524999037385,True,36,0
MG-M-33M33S2,639,experiment,78,→,no_key,no_letter,-1.0,False,36,1
MG-M-33M33S2,640,experiment,63,→,right,→,0.450248499866575,True,36,1
MG-M-33M33S2,641,experiment,104,→,right,→,0.4174928998108953,True,36,0
MG-M-33M33S2,642,experiment,84,→,right,→,0.548557800007984,True,36,0
MG-M-33M33S2,643,experiment,108,↓,right,→,0.7461736002005637,False,36,1
MG-M-33M33S2,644,experiment,49,←,left,←,0.4091097000055015,True,36,1
MG-M-33M33S2,645,experiment,106,←,left,←,0.4421518000308424,True,36,0
MG-M-33M33S2,646,experiment,53,←,left,←,0.41723149991594255,True,36,0
MG-M-33M33S2,647,experiment,94,→,right,→,0.40913309995085,True,36,0
MG-M-33M33S2,648,experiment,51,↑,up,↑,0.5771095999516547,True,36,0
MG-M-33M33S2,649,experiment,58,→,right,→,0.400667899986729,True,36,1
MG-M-33M33S2,650,experiment,61,→,right,→,0.6173619001638144,True,36,0
MG-M-33M33S2,651,experiment,91,↓,down,↓,0.4980818999465555,True,36,1
MG-M-33M33S2,652,experiment,54,↓,down,↓,0.6680356999859214,True,36,1
MG-M-33M33S2,653,experiment,80,←,left,←,0.5983677001204342,True,36,1
MG-M-33M33S2,654,experiment,87,→,right,→,0.37574609997682273,True,36,1
MG-M-33M33S2,655,experiment,95,↓,down,↓,0.5378799999598414,True,36,0
MG-M-33M33S2,656,experiment,98,↓,down,↓,0.6354729000013322,True,36,1
MG-M-33M33S2,657,experiment,57,←,left,←,0.5588641001377255,True,36,1
MG-M-33M33S2,658,experiment,88,↓,down,↓,0.5469587000552565,True,36,1
MG-M-33M33S2,659,experiment,74,↓,down,↓,0.6600969000719488,True,36,1
MG-M-33M33S2,660,experiment,56,↑,up,↑,0.5829331001732498,True,36,1
MG-M-33M33S2,661,experiment,107,→,right,→,0.5555807999335229,True,36,1
MG-M-33M33S2,662,experiment,75,↓,down,↓,0.571851999964565,True,36,1
MG-M-33M33S2,663,experiment,50,↑,no_key,no_letter,-1.0,False,36,1
MG-M-33M33S2,664,experiment,66,←,left,←,0.62282619997859,True,36,1
MG-M-33M33S2,665,experiment,73,→,right,→,0.6851863998454064,True,36,1
MG-M-33M33S2,666,experiment,82,→,right,→,0.5024706001859158,True,36,1
MG-M-33M33S2,667,experiment,86,←,left,←,0.46978439996019006,True,36,1
MG-M-33M33S2,668,experiment,68,↑,up,↑,0.49168169987387955,True,36,1
MG-M-33M33S2,669,experiment,90,↑,no_key,no_letter,-1.0,False,36,1
MG-M-33M33S2,670,experiment,105,→,right,→,0.35909619997255504,True,36,1
MG-M-33M33S2,671,training,96,↑,up,↑,0.530373299960047,True,36,0
MG-M-33M33S2,672,training,55,←,left,←,0.43341910000890493,True,36,1
MG-M-33M33S2,673,experiment,55,→,right,→,0.40904519986361265,True,36,0
MG-M-33M33S2,674,experiment,89,↓,down,↓,0.5035424998495728,True,36,0
MG-M-33M33S2,675,experiment,72,→,right,→,0.42603230010718107,True,36,1
MG-M-33M33S2,676,experiment,76,↑,up,↑,0.5518757998943329,True,36,0
MG-M-33M33S2,677,experiment,58,←,no_key,no_letter,-1.0,False,36,1
MG-M-33M33S2,678,experiment,84,→,right,→,0.48365770000964403,True,36,1
MG-M-33M33S2,679,experiment,82,→,right,→,0.4418309999164194,True,36,1
MG-M-33M33S2,680,experiment,95,→,right,→,0.4826312998775393,True,36,0
MG-M-33M33S2,681,experiment,91,→,no_key,no_letter,-1.0,False,36,1
MG-M-33M33S2,682,experiment,57,↑,no_key,no_letter,-1.0,False,36,1
MG-M-33M33S2,683,experiment,74,↓,right,→,0.5356829001102597,False,36,1
MG-M-33M33S2,684,experiment,48,←,left,←,0.450438299914822,True,36,1
MG-M-33M33S2,685,experiment,53,→,right,→,0.5887252001557499,True,36,0
MG-M-33M33S2,686,experiment,64,↓,down,↓,0.5115404999814928,True,36,1
MG-M-33M33S2,687,experiment,105,→,no_key,no_letter,-1.0,False,36,1
MG-M-33M33S2,688,experiment,71,←,right,→,0.4342566002160311,False,36,1
MG-M-33M33S2,689,experiment,67,↑,up,↑,0.6092969998717308,True,36,0
MG-M-33M33S2,690,experiment,70,←,left,←,0.5367622999474406,True,36,1
MG-M-33M33S2,691,experiment,87,↓,right,→,0.5582622999791056,False,36,1
MG-M-33M33S2,692,experiment,65,↓,down,↓,0.5063073001801968,True,36,1
MG-M-33M33S2,693,experiment,59,←,left,←,0.5379706998355687,True,36,1
MG-M-33M33S2,694,experiment,79,←,left,←,0.4264318998903036,True,36,1
MG-M-33M33S2,695,experiment,104,↑,up,↑,0.6131859999150038,True,36,0
MG-M-33M33S2,696,experiment,102,↓,no_key,no_letter,-1.0,False,36,1
MG-M-33M33S2,697,experiment,108,↓,down,↓,0.5671004001051188,True,36,1
MG-M-33M33S2,698,experiment,90,↓,down,↓,0.5460797999985516,True,36,1
MG-M-33M33S2,699,experiment,103,↓,down,↓,0.577993799932301,True,36,1
MG-M-33M33S2,700,experiment,94,↑,up,↑,0.6034140998963267,True,36,1
MG-M-33M33S2,701,experiment,66,→,right,→,0.57281140005216,True,36,1
MG-M-33M33S2,702,experiment,93,↑,down,↓,0.5273682000115514,False,36,1
MG-M-33M33S2,703,experiment,97,→,right,→,0.37576919980347157,True,36,1
MG-M-33M33S2,704,experiment,96,↓,down,↓,0.5373682000208646,True,36,0
MG-M-33M33S2,705,experiment,49,←,left,←,0.48403359996154904,True,36,1
MG-M-33M33S2,706,experiment,56,↓,down,↓,0.4939746998716146,True,36,1
MG-M-33M33S2,707,experiment,77,→,right,→,0.5680168999824673,True,36,1
MG-M-33M33S2,708,experiment,63,→,right,→,0.3344320000614971,True,36,1
MG-M-33M33S2,709,experiment,107,↓,down,↓,0.7222467998508364,True,36,0
MG-M-33M33S2,710,experiment,75,→,right,→,0.36756169982254505,True,36,1
MG-M-33M33S2,711,experiment,52,↑,no_key,no_letter,-1.0,False,36,0
MG-M-33M33S2,712,experiment,73,→,right,→,0.3339220001362264,True,36,1
MG-M-33M33S2,713,experiment,60,→,right,→,0.37585099996067584,True,36,0
MG-M-33M33S2,714,experiment,100,↑,up,↑,0.6012422000057995,True,36,0
MG-M-33M33S2,715,experiment,61,↑,up,↑,0.5327145999763161,True,36,1
MG-M-33M33S2,716,experiment,51,←,left,←,0.40921549987979233,True,36,1
MG-M-33M33S2,717,experiment,98,→,right,→,0.684360499959439,True,36,0
MG-M-33M33S2,718,experiment,69,→,right,→,0.5138376001268625,True,36,1
MG-M-33M33S2,719,experiment,50,↓,down,↓,0.6522615998983383,True,36,1
MG-M-33M33S2,720,experiment,78,←,left,←,0.4964134998153895,True,36,1
MG-M-33M33S2,721,experiment,68,←,left,←,0.5893912999890745,True,36,1
MG-M-33M33S2,722,experiment,88,↓,down,↓,0.560083799995482,True,36,1
MG-M-33M33S2,723,experiment,86,↓,no_key,no_letter,-1.0,False,36,1
MG-M-33M33S2,724,experiment,106,→,right,→,0.40939539996907115,True,36,1
MG-M-33M33S2,725,experiment,62,↑,up,↑,0.6126743999775499,True,36,0
MG-M-33M33S2,726,experiment,81,←,left,←,0.4341581000480801,True,36,1
MG-M-33M33S2,727,experiment,83,←,left,←,0.5870581998024136,True,36,0
MG-M-33M33S2,728,experiment,80,→,right,→,0.3583730000536889,True,36,1
MG-M-33M33S2,729,experiment,85,↑,up,↑,0.5015934999100864,True,36,0
MG-M-33M33S2,730,experiment,54,↑,no_key,no_letter,-1.0,False,36,1
MG-M-33M33S2,731,experiment,92,↓,down,↓,0.6095103998668492,True,36,1
MG-M-33M33S2,732,experiment,101,←,left,←,0.4342845999635756,True,36,1
MG-M-33M33S2,733,experiment,99,→,no_key,no_letter,-1.0,False,36,0
MG-M-33M33S2,734,training,89,↓,down,↓,0.5819166000001132,True,36,0
MG-M-33M33S2,735,training,77,↑,up,↑,0.4092333000153303,True,36,1
MG-M-33M33S2,736,experiment,70,↓,down,↓,0.5646171001717448,True,36,0
MG-M-33M33S2,737,experiment,104,→,no_key,no_letter,-1.0,False,36,1
MG-M-33M33S2,738,experiment,57,↓,up,↑,0.5364766998682171,False,36,1
MG-M-33M33S2,739,experiment,50,↓,down,↓,0.5463642999529839,True,36,1
MG-M-33M33S2,740,experiment,62,→,right,→,0.4426211998797953,True,36,1
MG-M-33M33S2,741,experiment,105,↓,down,↓,0.5542793001513928,True,36,0
MG-M-33M33S2,742,experiment,84,↓,down,↓,0.5761295999400318,True,36,1
MG-M-33M33S2,743,experiment,73,↓,down,↓,0.5045485000591725,True,36,1
MG-M-33M33S2,744,experiment,89,↓,down,↓,0.4175054000224918,True,36,1
MG-M-33M33S2,745,experiment,97,←,no_key,no_letter,-1.0,False,36,0
MG-M-33M33S2,746,experiment,48,↓,down,↓,0.685835599899292,True,36,1
MG-M-33M33S2,747,experiment,81,↓,down,↓,0.48727359995245934,True,36,1
MG-M-33M33S2,748,experiment,80,↑,up,↑,0.6003612000495195,True,36,1
MG-M-33M33S2,749,experiment,53,→,right,→,0.558455599937588,True,36,1
MG-M-33M33S2,750,experiment,102,↓,down,↓,0.5738846999593079,True,36,1
MG-M-33M33S2,751,experiment,55,→,right,→,0.5325673001352698,True,36,1
MG-M-33M33S2,752,experiment,78,↑,up,↑,0.5886569998692721,True,36,1
MG-M-33M33S2,753,experiment,101,↓,up,↑,0.7710835000034422,False,36,1
MG-M-33M33S2,754,experiment,49,→,right,→,0.5155412000603974,True,36,1
MG-M-33M33S2,755,experiment,61,←,no_key,no_letter,-1.0,False,36,1
MG-M-33M33S2,756,experiment,63,↑,up,↑,0.44285680004395545,True,36,1
MG-M-33M33S2,757,experiment,76,←,left,←,0.5944357998669147,True,36,0
MG-M-33M33S2,758,experiment,72,→,right,→,0.562833399977535,True,36,1
MG-M-33M33S2,759,experiment,93,→,right,→,0.37570829992182553,True,36,1
MG-M-33M33S2,760,experiment,64,→,right,→,0.36758029996417463,True,36,0
MG-M-33M33S2,761,experiment,66,↓,down,↓,0.4676824000198394,True,36,0
MG-M-33M33S2,762,experiment,85,←,left,←,0.7154910999815911,True,36,0
MG-M-33M33S2,763,experiment,71,↑,up,↑,0.5590115999802947,True,36,1
MG-M-33M33S2,764,experiment,58,↑,up,↑,0.40887829987332225,True,36,1
MG-M-33M33S2,765,experiment,99,↓,down,↓,0.570884799817577,True,36,0
MG-M-33M33S2,766,experiment,96,↓,no_key,no_letter,-1.0,False,36,1
MG-M-33M33S2,767,experiment,67,→,right,→,0.5746575000230223,True,36,1
MG-M-33M33S2,768,experiment,86,↓,down,↓,0.5624828999862075,True,36,1
MG-M-33M33S2,769,experiment,91,↓,down,↓,0.7015121998265386,True,36,1
MG-M-33M33S2,770,experiment,92,↑,up,↑,0.4752037001308054,True,36,1
MG-M-33M33S2,771,experiment,52,↑,right,→,0.7259894001763314,False,36,1
MG-M-33M33S2,772,experiment,60,↑,up,↑,0.6607350001577288,True,36,1
MG-M-33M33S2,773,experiment,51,→,no_key,no_letter,-1.0,False,36,1
MG-M-33M33S2,774,experiment,90,↓,down,↓,0.48409339995123446,True,36,1
MG-M-33M33S2,775,experiment,100,↓,down,↓,0.6310652999673039,True,36,1
MG-M-33M33S2,776,experiment,69,→,right,→,0.4255331999156624,True,36,1
MG-M-33M33S2,777,experiment,103,←,left,←,0.4424676999915391,True,36,0
MG-M-33M33S2,778,experiment,87,↓,down,↓,0.5872727001551539,True,36,0
MG-M-33M33S2,779,experiment,68,↓,down,↓,0.4851934998296201,True,36,1
MG-M-33M33S2,780,experiment,107,↑,up,↑,0.49352880008518696,True,36,1
MG-M-33M33S2,781,experiment,82,←,left,←,0.47088300017639995,True,36,1
MG-M-33M33S2,782,experiment,59,→,right,→,0.4504535999149084,True,36,1
MG-M-33M33S2,783,experiment,108,↓,down,↓,0.5446999999694526,True,36,0
MG-M-33M33S2,784,experiment,79,↑,up,↑,0.4962752000428736,True,36,1
MG-M-33M33S2,785,experiment,77,←,left,←,0.4430138999596238,True,36,1
MG-M-33M33S2,786,experiment,94,↓,down,↓,0.6564154999796301,True,36,0
MG-M-33M33S2,787,experiment,54,←,left,←,0.5718370999675244,True,36,1
MG-M-33M33S2,788,experiment,98,→,no_key,no_letter,-1.0,False,36,1
MG-M-33M33S2,789,experiment,88,↑,up,↑,0.4506143000908196,True,36,1
MG-M-33M33S2,790,experiment,83,↓,down,↓,0.5853263998869807,True,36,0
MG-M-33M33S2,791,experiment,75,←,right,→,0.5366925001144409,False,36,1
MG-M-33M33S2,792,experiment,56,↑,no_key,no_letter,-1.0,False,36,1
MG-M-33M33S2,793,experiment,74,→,right,→,0.4173080001492053,True,36,1
MG-M-33M33S2,794,experiment,95,↑,no_key,no_letter,-1.0,False,36,0
MG-M-33M33S2,795,experiment,106,←,left,←,0.6531921999994665,True,36,1
MG-M-33M33S2,796,experiment,65,↑,no_key,no_letter,-1.0,False,36,1
MG-M-33M33S2,797,training,82,↑,up,↑,0.4091019001789391,True,36,0
MG-M-33M33S2,798,training,68,↑,up,↑,0.5590230999514461,True,36,0
MG-M-33M33S2,799,experiment,76,↓,down,↓,0.5109486000146717,True,36,1
MG-M-33M33S2,800,experiment,104,↑,up,↑,0.5115181000437587,True,36,1
MG-M-33M33S2,801,experiment,72,↓,down,↓,0.45069089997559786,True,36,1
MG-M-33M33S2,802,experiment,51,←,left,←,0.5834837998263538,True,36,0
MG-M-33M33S2,803,experiment,67,←,no_key,no_letter,-1.0,False,36,1
MG-M-33M33S2,804,experiment,102,↓,down,↓,0.6086715999990702,True,36,1
MG-M-33M33S2,805,experiment,101,↓,down,↓,0.5580621999688447,True,36,1
MG-M-33M33S2,806,experiment,106,↓,no_key,no_letter,-1.0,False,36,1
MG-M-33M33S2,807,experiment,93,↑,up,↑,0.6220364000182599,True,36,1
MG-M-33M33S2,808,experiment,56,←,left,←,0.6179889000486583,True,36,1
MG-M-33M33S2,809,experiment,61,→,right,→,0.3917847000993788,True,36,1
MG-M-33M33S2,810,experiment,62,←,no_key,no_letter,-1.0,False,36,0
MG-M-33M33S2,811,experiment,53,↓,down,↓,0.6151297001633793,True,36,1
MG-M-33M33S2,812,experiment,50,←,left,←,0.557737700175494,True,36,1
MG-M-33M33S2,813,experiment,59,↑,up,↑,0.6672375998459756,True,36,1
MG-M-33M33S2,814,experiment,63,→,right,→,0.5233010998927057,True,36,1
MG-M-33M33S2,815,experiment,74,→,right,→,0.45072319987230003,True,36,1
MG-M-33M33S2,816,experiment,108,←,left,←,0.45049980003386736,True,36,0
MG-M-33M33S2,817,experiment,70,→,right,→,0.6370715000666678,True,36,0
MG-M-33M33S2,818,experiment,103,→,right,→,0.4254918999504298,True,36,1
MG-M-33M33S2,819,experiment,48,↑,up,↑,0.6395338999573141,True,36,0
MG-M-33M33S2,820,experiment,80,→,right,→,0.6027609000448138,True,36,1
MG-M-33M33S2,821,experiment,55,→,right,→,0.5041688000783324,True,36,1
MG-M-33M33S2,822,experiment,92,→,right,→,0.5573050000239164,True,36,1
MG-M-33M33S2,823,experiment,99,←,left,←,0.44976089987903833,True,36,1
MG-M-33M33S2,824,experiment,73,→,right,→,0.4007524000480771,True,36,0
MG-M-33M33S2,825,experiment,60,←,left,←,0.43426029989495873,True,36,0
MG-M-33M33S2,826,experiment,66,→,no_key,no_letter,-1.0,False,36,0
MG-M-33M33S2,827,experiment,105,→,right,→,0.4844823000021279,True,36,1
MG-M-33M33S2,828,experiment,87,→,right,→,0.42538239993155,True,36,1
MG-M-33M33S2,829,experiment,83,←,left,←,0.47881549992598593,True,36,0
MG-M-33M33S2,830,experiment,95,←,left,←,0.6349650998599827,True,36,1
MG-M-33M33S2,831,experiment,77,↑,no_key,no_letter,-1.0,False,36,1
MG-M-33M33S2,832,experiment,100,→,right,→,0.42562290001660585,True,36,1
MG-M-33M33S2,833,experiment,84,→,right,→,0.384206100134179,True,36,0
MG-M-33M33S2,834,experiment,57,↓,down,↓,0.6706457999534905,True,36,0
MG-M-33M33S2,835,experiment,49,←,no_key,no_letter,-1.0,False,36,1
MG-M-33M33S2,836,experiment,75,↓,down,↓,0.48378499993123114,True,36,1
MG-M-33M33S2,837,experiment,78,→,right,→,0.3922323000151664,True,36,1
MG-M-33M33S2,838,experiment,96,→,right,→,0.42493460001423955,True,36,0
MG-M-33M33S2,839,experiment,64,↓,down,↓,0.48658069991506636,True,36,0
MG-M-33M33S2,840,experiment,52,↑,up,↑,0.7692128999624401,True,36,1
MG-M-33M33S2,841,experiment,54,↓,down,↓,0.4808123998809606,True,36,1
MG-M-33M33S2,842,experiment,97,→,right,→,0.4089069999754429,True,36,1
MG-M-33M33S2,843,experiment,86,→,right,→,0.4081307000014931,True,36,0
MG-M-33M33S2,844,experiment,79,←,left,←,0.6035161998588592,True,36,0
MG-M-33M33S2,845,experiment,91,↑,up,↑,0.6610651998780668,True,36,1
MG-M-33M33S2,846,experiment,88,→,right,→,0.4008349000941962,True,36,1
MG-M-33M33S2,847,experiment,107,→,right,→,0.4813113999553025,True,36,0
MG-M-33M33S2,848,experiment,85,←,left,←,0.6807356001809239,True,36,1
MG-M-33M33S2,849,experiment,98,↑,up,↑,0.5246114002075046,True,36,1
MG-M-33M33S2,850,experiment,90,↑,up,↑,0.36750910012051463,True,36,1
MG-M-33M33S2,851,experiment,58,↓,up,↑,0.5427885998506099,False,36,0
MG-M-33M33S2,852,experiment,81,→,right,→,0.40939359995536506,True,36,1
MG-M-33M33S2,853,experiment,65,↓,down,↓,0.5910428001079708,True,36,0
MG-M-33M33S2,854,experiment,69,←,left,←,0.401118699926883,True,36,1
MG-M-33M33S2,855,experiment,89,→,no_key,no_letter,-1.0,False,36,0
MG-M-33M33S2,856,experiment,82,↑,up,↑,0.6714339000172913,True,36,1
MG-M-33M33S2,857,experiment,68,↓,down,↓,0.4514008997939527,True,36,1
MG-M-33M33S2,858,experiment,94,→,right,→,0.5954746000934392,True,36,0
MG-M-33M33S2,859,experiment,71,↓,down,↓,0.6842366999480873,True,36,1
MG-M-33M33S2,860,training,56,↓,down,↓,0.48911589989438653,True,36,0
MG-M-33M33S2,861,training,61,↓,down,↓,0.5600787999574095,True,36,1
MG-M-33M33S2,862,experiment,62,→,right,→,0.4421796998940408,True,36,1
MG-M-33M33S2,863,experiment,82,→,right,→,0.4087964999489486,True,36,0
MG-M-33M33S2,864,experiment,92,↑,right,→,0.44236690015532076,False,36,0
MG-M-33M33S2,865,experiment,97,↓,no_key,no_letter,-1.0,False,36,0
MG-M-33M33S2,866,experiment,65,→,right,→,0.4258051000069827,True,36,1
MG-M-33M33S2,867,experiment,88,→,right,→,0.4499087000731379,True,36,0
MG-M-33M33S2,868,experiment,100,↑,up,↑,0.4425077000632882,True,36,0
MG-M-33M33S2,869,experiment,50,↓,down,↓,0.5466893999837339,True,36,0
MG-M-33M33S2,870,experiment,78,↑,up,↑,0.538165400037542,True,36,1
MG-M-33M33S2,871,experiment,58,→,right,→,0.3923808999825269,True,36,1
MG-M-33M33S2,872,experiment,108,←,left,←,0.5085503000300378,True,36,0
MG-M-33M33S2,873,experiment,70,↓,down,↓,0.5847815000452101,True,36,1
MG-M-33M33S2,874,experiment,54,↓,down,↓,0.5514112000819296,True,36,1
MG-M-33M33S2,875,experiment,76,↓,down,↓,0.639564799843356,True,36,1
MG-M-33M33S2,876,experiment,103,↓,down,↓,0.4507322998251766,True,36,1
MG-M-33M33S2,877,experiment,55,←,left,←,0.5105964997783303,True,36,0
MG-M-33M33S2,878,experiment,86,←,no_key,no_letter,-1.0,False,36,1
MG-M-33M33S2,879,experiment,49,↓,down,↓,0.49418619996868074,True,36,1
MG-M-33M33S2,880,experiment,90,↑,no_key,no_letter,-1.0,False,36,1
MG-M-33M33S2,881,experiment,94,→,left,←,0.6054563000798225,False,36,1
MG-M-33M33S2,882,experiment,57,↑,up,↑,0.5377094000577927,True,36,1
MG-M-33M33S2,883,experiment,93,→,right,→,0.660690400050953,True,36,1
MG-M-33M33S2,884,experiment,104,←,left,←,0.4422003000508994,True,36,1
MG-M-33M33S2,885,experiment,79,↑,up,↑,0.4416924000252038,True,36,0
MG-M-33M33S2,886,experiment,102,←,right,→,0.6223507998511195,False,36,0
MG-M-33M33S2,887,experiment,63,↑,up,↑,0.4258327998686582,True,36,1
MG-M-33M33S2,888,experiment,77,↑,up,↑,0.5490947000216693,True,36,0
MG-M-33M33S2,889,experiment,89,←,left,←,0.6092430001590401,True,36,1
MG-M-33M33S2,890,experiment,87,↓,down,↓,0.6755267998669297,True,36,1
MG-M-33M33S2,891,experiment,67,↑,up,↑,0.5463966999668628,True,36,1
MG-M-33M33S2,892,experiment,69,→,right,→,0.44243970001116395,True,36,1
MG-M-33M33S2,893,experiment,107,↓,down,↓,0.5027502998709679,True,36,0
MG-M-33M33S2,894,experiment,99,→,right,→,0.39239889988675714,True,36,1
MG-M-33M33S2,895,experiment,101,→,right,→,0.3917080999817699,True,36,0
MG-M-33M33S2,896,experiment,68,↑,up,↑,0.4966434999369085,True,36,0
MG-M-33M33S2,897,experiment,75,↓,down,↓,0.627083099912852,True,36,1
MG-M-33M33S2,898,experiment,51,←,no_key,no_letter,-1.0,False,36,1
MG-M-33M33S2,899,experiment,98,↓,down,↓,0.5290714001748711,True,36,1
MG-M-33M33S2,900,experiment,84,→,right,→,0.38405729993246496,True,36,1
MG-M-33M33S2,901,experiment,85,→,right,→,0.35927410004660487,True,36,0
MG-M-33M33S2,902,experiment,73,←,left,←,0.7719537001103163,True,36,0
MG-M-33M33S2,903,experiment,81,↑,up,↑,0.7617026001680642,True,36,1
MG-M-33M33S2,904,experiment,59,←,no_key,no_letter,-1.0,False,36,1
MG-M-33M33S2,905,experiment,91,←,left,←,0.5856948001310229,True,36,1
MG-M-33M33S2,906,experiment,96,←,left,←,0.5698609999381006,True,36,1
MG-M-33M33S2,907,experiment,71,↑,up,↑,0.6755776000209153,True,36,1
MG-M-33M33S2,908,experiment,61,→,right,→,0.5719256000593305,True,36,1
MG-M-33M33S2,909,experiment,106,←,left,←,0.45087180007249117,True,36,1
MG-M-33M33S2,910,experiment,60,→,right,→,0.4824733999557793,True,36,0
MG-M-33M33S2,911,experiment,66,←,left,←,0.5129949999973178,True,36,1
MG-M-33M33S2,912,experiment,53,↑,up,↑,0.6746499999426305,True,36,1
MG-M-33M33S2,913,experiment,72,←,left,←,0.3924282998777926,True,36,1
MG-M-33M33S2,914,experiment,83,↑,up,↑,0.4505362999625504,True,36,0
MG-M-33M33S2,915,experiment,64,←,left,←,0.4094729998614639,True,36,0
MG-M-33M33S2,916,experiment,74,→,right,→,0.48185690003447235,True,36,0
MG-M-33M33S2,917,experiment,80,→,right,→,0.5318078999407589,True,36,1
MG-M-33M33S2,918,experiment,48,←,left,←,0.3433159999549389,True,36,1
MG-M-33M33S2,919,experiment,56,↑,up,↑,0.5009204000234604,True,36,0
MG-M-33M33S2,920,experiment,95,↓,down,↓,0.5049448001664132,True,36,1
MG-M-33M33S2,921,experiment,52,↓,down,↓,0.6349584001582116,True,36,1
MG-M-33M33S2,922,experiment,105,↓,down,↓,0.4508265000768006,True,36,1
MG-M-33M33S2,923,training,51,←,left,←,0.4093871999066323,True,36,0
MG-M-33M33S2,924,training,53,↑,up,↑,0.5285350000485778,True,36,0
MG-M-33M33S2,925,experiment,50,↓,down,↓,0.41739340010099113,True,36,1
MG-M-33M33S2,926,experiment,94,←,left,←,0.6341786999255419,True,36,0
MG-M-33M33S2,927,experiment,91,←,left,←,0.4266519001685083,True,36,1
MG-M-33M33S2,928,experiment,69,↑,up,↑,0.41849760012701154,True,36,0
MG-M-33M33S2,929,experiment,49,→,right,→,0.48747170018032193,True,36,0
MG-M-33M33S2,930,experiment,95,↑,up,↑,0.5400280000176281,True,36,1
MG-M-33M33S2,931,experiment,97,←,left,←,0.44963140017353,True,36,1
MG-M-33M33S2,932,experiment,89,←,left,←,0.4260535999201238,True,36,0
MG-M-33M33S2,933,experiment,106,→,right,→,0.47269229986704886,True,36,0
MG-M-33M33S2,934,experiment,56,↓,down,↓,0.6348012001253664,True,36,0
MG-M-33M33S2,935,experiment,81,↑,up,↑,0.5899141000118107,True,36,1
MG-M-33M33S2,936,experiment,100,↑,up,↑,0.43423140002414584,True,36,1
MG-M-33M33S2,937,experiment,74,↑,up,↑,0.5140609999652952,True,36,0
MG-M-33M33S2,938,experiment,83,↑,up,↑,0.3676196001470089,True,36,1
MG-M-33M33S2,939,experiment,65,↑,right,→,0.35917999991215765,False,36,0
MG-M-33M33S2,940,experiment,80,→,right,→,0.5870713000185788,True,36,0
MG-M-33M33S2,941,experiment,87,→,right,→,0.42581649986095726,True,36,1
MG-M-33M33S2,942,experiment,96,→,right,→,0.4258580000605434,True,36,0
MG-M-33M33S2,943,experiment,53,↓,up,↑,0.5222412999719381,False,36,0
MG-M-33M33S2,944,experiment,105,→,no_key,no_letter,-1.0,False,36,1
MG-M-33M33S2,945,experiment,75,↓,down,↓,0.5533244998659939,True,36,1
MG-M-33M33S2,946,experiment,71,↑,up,↑,0.4505557999946177,True,36,1
MG-M-33M33S2,947,experiment,76,←,left,←,0.5594115001149476,True,36,0
MG-M-33M33S2,948,experiment,86,↑,up,↑,0.4331388999707997,True,36,1
MG-M-33M33S2,949,experiment,66,↓,up,↑,0.5162006001919508,False,36,0
MG-M-33M33S2,950,experiment,88,↓,down,↓,0.36734410002827644,True,36,1
MG-M-33M33S2,951,experiment,55,↑,up,↑,0.4338032999075949,True,36,0
MG-M-33M33S2,952,experiment,64,↓,down,↓,0.4342185000423342,True,36,0
MG-M-33M33S2,953,experiment,98,↓,down,↓,0.41706070001237094,True,36,0
MG-M-33M33S2,954,experiment,77,↑,up,↑,0.4681320998352021,True,36,0
MG-M-33M33S2,955,experiment,101,→,right,→,0.5345425999257714,True,36,0
MG-M-33M33S2,956,experiment,58,↑,up,↑,0.5819304999895394,True,36,1
MG-M-33M33S2,957,experiment,104,↑,up,↑,0.507632999913767,True,36,1
MG-M-33M33S2,958,experiment,90,↓,down,↓,0.6168569000437856,True,36,1
MG-M-33M33S2,959,experiment,62,→,right,→,0.5553780999034643,True,36,1
MG-M-33M33S2,960,experiment,78,↑,up,↑,0.4422210000921041,True,36,1
MG-M-33M33S2,961,experiment,67,→,right,→,0.601990400115028,True,36,0
MG-M-33M33S2,962,experiment,68,↓,down,↓,0.5711680001113564,True,36,1
MG-M-33M33S2,963,experiment,63,↓,down,↓,0.4087159999180585,True,36,1
MG-M-33M33S2,964,experiment,61,←,left,←,0.5859107000287622,True,36,0
MG-M-33M33S2,965,experiment,60,↓,down,↓,0.5743376999162138,True,36,1
MG-M-33M33S2,966,experiment,73,↑,no_key,no_letter,-1.0,False,36,1
MG-M-33M33S2,967,experiment,52,→,right,→,0.3844622001051903,True,36,1
MG-M-33M33S2,968,experiment,92,←,left,←,0.3509957001078874,True,36,0
MG-M-33M33S2,969,experiment,57,↓,down,↓,0.4506773001048714,True,36,0
MG-M-33M33S2,970,experiment,108,↓,down,↓,0.5355022000148892,True,36,0
MG-M-33M33S2,971,experiment,70,←,right,→,0.40886790002696216,False,36,1
MG-M-33M33S2,972,experiment,85,→,right,→,0.3756818000692874,True,36,0
MG-M-33M33S2,973,experiment,103,→,right,→,0.4171349999960512,True,36,0
MG-M-33M33S2,974,experiment,72,↑,up,↑,0.610308300005272,True,36,0
MG-M-33M33S2,975,experiment,82,↑,no_key,no_letter,-1.0,False,36,1
MG-M-33M33S2,976,experiment,48,↓,down,↓,0.6152249001897871,True,36,1
MG-M-33M33S2,977,experiment,107,←,left,←,0.4350765000563115,True,36,1
MG-M-33M33S2,978,experiment,79,→,right,→,0.41717980010434985,True,36,0
MG-M-33M33S2,979,experiment,99,←,left,←,0.5557947000488639,True,36,0
MG-M-33M33S2,980,experiment,51,↓,down,↓,0.5558658000081778,True,36,1
MG-M-33M33S2,981,experiment,102,↑,up,↑,0.4916397000197321,True,36,1
MG-M-33M33S2,982,experiment,59,↑,up,↑,0.515818300191313,True,36,1
MG-M-33M33S2,983,experiment,93,→,no_key,no_letter,-1.0,False,36,1
MG-M-33M33S2,984,experiment,84,↑,up,↑,0.469590499997139,True,36,1
MG-M-33M33S2,985,experiment,54,←,left,←,0.5277694000396878,True,36,0
MG-M-33M33S2,986,training,89,→,right,→,0.42574680014513433,True,36,0
MG-M-33M33S2,987,training,74,→,left,←,0.43410259997472167,False,36,0
MG-M-33M33S2,988,experiment,74,→,right,→,0.5205079999286681,True,36,0
MG-M-33M33S2,989,experiment,68,←,no_key,no_letter,-1.0,False,36,1
MG-M-33M33S2,990,experiment,60,←,no_key,no_letter,-1.0,False,36,1
MG-M-33M33S2,991,experiment,73,←,left,←,0.5147863000165671,True,36,1
MG-M-33M33S2,992,experiment,62,→,no_key,no_letter,-1.0,False,36,1
MG-M-33M33S2,993,experiment,80,←,no_key,no_letter,-1.0,False,36,1
MG-M-33M33S2,994,experiment,52,↑,up,↑,0.5022625999990851,True,36,1
MG-M-33M33S2,995,experiment,67,↓,down,↓,0.4683693000115454,True,36,1
MG-M-33M33S2,996,experiment,76,→,right,→,0.4089161998126656,True,36,0
MG-M-33M33S2,997,experiment,104,↓,down,↓,0.49984499998390675,True,36,0
MG-M-33M33S2,998,experiment,87,←,left,←,0.4504128999542445,True,36,1
MG-M-33M33S2,999,experiment,105,←,right,→,0.43430640012957156,False,36,0
MG-M-33M33S2,1000,experiment,94,→,left,←,0.4994338999968022,False,36,0
MG-M-33M33S2,1001,experiment,86,←,left,←,0.5626193000935018,True,36,1
MG-M-33M33S2,1002,experiment,92,←,left,←,0.3674505001399666,True,36,1
MG-M-33M33S2,1003,experiment,99,→,left,←,0.5010366002097726,False,36,0
MG-M-33M33S2,1004,experiment,103,↓,down,↓,0.6302749998867512,True,36,1
MG-M-33M33S2,1005,experiment,69,→,right,→,0.4425481001380831,True,36,1
MG-M-33M33S2,1006,experiment,98,↑,up,↑,0.44232589984312654,True,36,0
MG-M-33M33S2,1007,experiment,75,↑,up,↑,0.5192299000918865,True,36,0
MG-M-33M33S2,1008,experiment,89,→,right,→,0.65291089983657,True,36,1
MG-M-33M33S2,1009,experiment,93,↑,up,↑,0.5158456000499427,True,36,1
MG-M-33M33S2,1010,experiment,85,←,left,←,0.4423117998521775,True,36,1
MG-M-33M33S2,1011,experiment,108,↑,up,↑,0.5397651998791844,True,36,0
MG-M-33M33S2,1012,experiment,57,←,left,←,0.4680283998604864,True,36,1
MG-M-33M33S2,1013,experiment,79,→,right,→,0.5972738999407738,True,36,0
MG-M-33M33S2,1014,experiment,55,↑,up,↑,0.4342026000376791,True,36,1
MG-M-33M33S2,1015,experiment,77,↓,down,↓,0.48808309994637966,True,36,0
MG-M-33M33S2,1016,experiment,100,↓,down,↓,0.6342738999519497,True,36,1
MG-M-33M33S2,1017,experiment,88,→,right,→,0.4835355000104755,True,36,1
MG-M-33M33S2,1018,experiment,66,→,right,→,0.4424398001283407,True,36,1
MG-M-33M33S2,1019,experiment,50,→,right,→,0.3598503000102937,True,36,0
MG-M-33M33S2,1020,experiment,102,→,right,→,0.3755004999693483,True,36,0
MG-M-33M33S2,1021,experiment,58,←,left,←,0.6107357998844236,True,36,0
MG-M-33M33S2,1022,experiment,65,←,left,←,0.49244960001669824,True,36,1
MG-M-33M33S2,1023,experiment,51,←,no_key,no_letter,-1.0,False,36,1
MG-M-33M33S2,1024,experiment,78,↓,right,→,0.4508072000462562,False,36,1
MG-M-33M33S2,1025,experiment,107,→,no_key,no_letter,-1.0,False,36,0
MG-M-33M33S2,1026,experiment,81,↑,up,↑,0.541753500001505,True,36,1
MG-M-33M33S2,1027,experiment,97,→,right,→,0.5115761999040842,True,36,1
MG-M-33M33S2,1028,experiment,101,→,right,→,0.38406900013796985,True,36,1
MG-M-33M33S2,1029,experiment,64,↑,no_key,no_letter,-1.0,False,36,0
MG-M-33M33S2,1030,experiment,54,→,right,→,0.40911100013181567,True,36,1
MG-M-33M33S2,1031,experiment,63,↑,up,↑,0.43411960010416806,True,36,0
MG-M-33M33S2,1032,experiment,56,↓,down,↓,0.4508505000267178,True,36,0
MG-M-33M33S2,1033,experiment,70,↑,up,↑,0.35126259992830455,True,36,0
MG-M-33M33S2,1034,experiment,61,↓,down,↓,0.43401710013858974,True,36,0
MG-M-33M33S2,1035,experiment,49,←,left,←,0.6090826999861747,True,36,0
MG-M-33M33S2,1036,experiment,91,↑,up,↑,0.5700208998750895,True,36,1
MG-M-33M33S2,1037,experiment,83,←,left,←,0.5034622999373823,True,36,1
MG-M-33M33S2,1038,experiment,48,↓,down,↓,0.4676598000805825,True,36,1
MG-M-33M33S2,1039,experiment,84,←,left,←,0.4761860000435263,True,36,0
MG-M-33M33S2,1040,experiment,82,→,right,→,0.4090303999837488,True,36,1
MG-M-33M33S2,1041,experiment,59,→,left,←,0.43383620004169643,False,36,0
MG-M-33M33S2,1042,experiment,71,↑,no_key,no_letter,-1.0,False,36,0
MG-M-33M33S2,1043,experiment,96,↑,up,↑,0.4419385001529008,True,36,1
MG-M-33M33S2,1044,experiment,53,→,right,→,0.44241490005515516,True,36,0
MG-M-33M33S2,1045,experiment,95,←,left,←,0.5376134000252932,True,36,0
MG-M-33M33S2,1046,experiment,72,→,right,→,0.43379329983145,True,36,1
MG-M-33M33S2,1047,experiment,90,→,left,←,0.4508867999538779,False,36,0
MG-M-33M33S2,1048,experiment,106,→,right,→,0.5178384999744594,True,36,0
MG-M-33M33S2,1049,training,100,→,right,→,0.41727269999682903,True,36,0
MG-M-33M33S2,1050,training,49,↑,no_key,no_letter,-1.0,False,36,0
MG-M-33M33S2,1051,experiment,62,→,right,→,0.3917527999728918,True,36,1
MG-M-33M33S2,1052,experiment,70,↓,no_key,no_letter,-1.0,False,36,0
MG-M-33M33S2,1053,experiment,92,↑,up,↑,0.5459350999444723,True,36,1
MG-M-33M33S2,1054,experiment,48,→,right,→,0.4174236000981182,True,36,1
MG-M-33M33S2,1055,experiment,88,→,right,→,0.3842180999927223,True,36,0
MG-M-33M33S2,1056,experiment,59,↑,up,↑,0.49750789999961853,True,36,0
MG-M-33M33S2,1057,experiment,94,→,right,→,0.5339774000458419,True,36,1
MG-M-33M33S2,1058,experiment,102,↑,up,↑,0.47090620012022555,True,36,1
MG-M-33M33S2,1059,experiment,95,←,left,←,0.603158300044015,True,36,1
MG-M-33M33S2,1060,experiment,53,→,right,→,0.5853115001227707,True,36,1
MG-M-33M33S2,1061,experiment,87,↑,up,↑,0.43394359992817044,True,36,1
MG-M-33M33S2,1062,experiment,107,↓,down,↓,0.5029755001887679,True,36,0
MG-M-33M33S2,1063,experiment,58,←,right,→,0.48757650004699826,False,36,1
MG-M-33M33S2,1064,experiment,90,←,left,←,0.41670800000429153,True,36,1
MG-M-33M33S2,1065,experiment,84,→,right,→,0.4092070001643151,True,36,0
MG-M-33M33S2,1066,experiment,77,←,left,←,0.4507521998602897,True,36,0
MG-M-33M33S2,1067,experiment,73,↑,up,↑,0.5707440001424402,True,36,0
MG-M-33M33S2,1068,experiment,96,←,left,←,0.5234745000489056,True,36,1
MG-M-33M33S2,1069,experiment,83,↑,no_key,no_letter,-1.0,False,36,1
MG-M-33M33S2,1070,experiment,69,←,left,←,0.43406739993952215,True,36,1
MG-M-33M33S2,1071,experiment,66,→,right,→,0.3673972000833601,True,36,0
MG-M-33M33S2,1072,experiment,51,←,left,←,0.6682619999628514,True,36,0
MG-M-33M33S2,1073,experiment,63,←,left,←,0.5084838001057506,True,36,1
MG-M-33M33S2,1074,experiment,79,↓,down,↓,0.653471700148657,True,36,1
MG-M-33M33S2,1075,experiment,56,↓,down,↓,0.4016744999680668,True,36,1
MG-M-33M33S2,1076,experiment,101,←,left,←,0.43400689982809126,True,36,0
MG-M-33M33S2,1077,experiment,65,↑,up,↑,0.45030890009365976,True,36,0
MG-M-33M33S2,1078,experiment,108,↓,down,↓,0.4507442999165505,True,36,0
MG-M-33M33S2,1079,experiment,105,←,left,←,0.40927139995619655,True,36,0
MG-M-33M33S2,1080,experiment,49,→,right,→,0.4504844001494348,True,36,0
MG-M-33M33S2,1081,experiment,103,↑,down,↓,0.5724112999159843,False,36,0
MG-M-33M33S2,1082,experiment,80,↑,up,↑,0.3843488998245448,True,36,1
MG-M-33M33S2,1083,experiment,67,→,right,→,0.4007943000178784,True,36,0
MG-M-33M33S2,1084,experiment,93,↓,up,↑,0.47688740002922714,False,36,0
MG-M-33M33S2,1085,experiment,68,↑,up,↑,0.49042339995503426,True,36,1
MG-M-33M33S2,1086,experiment,106,↓,down,↓,0.6108456999063492,True,36,1
MG-M-33M33S2,1087,experiment,86,↓,down,↓,0.42497010016813874,True,36,1
MG-M-33M33S2,1088,experiment,71,→,right,→,0.42508499999530613,True,36,0
MG-M-33M33S2,1089,experiment,74,→,right,→,0.5778890000656247,True,36,0
MG-M-33M33S2,1090,experiment,82,←,left,←,0.40066619985736907,True,36,1
MG-M-33M33S2,1091,experiment,52,→,right,→,0.4508113998454064,True,36,0
MG-M-33M33S2,1092,experiment,50,↑,up,↑,0.4088153000921011,True,36,0
MG-M-33M33S2,1093,experiment,97,↓,no_key,no_letter,-1.0,False,36,0
MG-M-33M33S2,1094,experiment,85,↓,down,↓,0.4424004000611603,True,36,1
MG-M-33M33S2,1095,experiment,54,↓,down,↓,0.39259140007197857,True,36,0
MG-M-33M33S2,1096,experiment,75,↓,down,↓,0.6319137001410127,True,36,0
MG-M-33M33S2,1097,experiment,81,→,right,→,0.5476017999462783,True,36,1
MG-M-33M33S2,1098,experiment,89,→,right,→,0.3680534998420626,True,36,1
MG-M-33M33S2,1099,experiment,99,→,no_key,no_letter,-1.0,False,36,0
MG-M-33M33S2,1100,experiment,64,→,right,→,0.37583129992708564,True,36,1
MG-M-33M33S2,1101,experiment,91,↓,right,→,0.5086912999395281,False,36,0
MG-M-33M33S2,1102,experiment,76,↓,down,↓,0.5265516000799835,True,36,1
MG-M-33M33S2,1103,experiment,60,↓,down,↓,0.40922939986921847,True,36,1
MG-M-33M33S2,1104,experiment,57,→,right,→,0.38364050001837313,True,36,0
MG-M-33M33S2,1105,experiment,72,↓,down,↓,0.537476500030607,True,36,0
MG-M-33M33S2,1106,experiment,55,→,right,→,0.5853377000894397,True,36,1
MG-M-33M33S2,1107,experiment,104,↑,up,↑,0.4501057001762092,True,36,1
MG-M-33M33S2,1108,experiment,98,←,right,→,0.45062889996916056,False,36,0
MG-M-33M33S2,1109,experiment,78,→,right,→,0.4088039000052959,True,36,0
MG-M-33M33S2,1110,experiment,100,↑,up,↑,0.41764140012674034,True,36,0
MG-M-33M33S2,1111,experiment,61,↑,up,↑,0.425893799867481,True,36,0
MG-M-33M33S2,1112,training,49,→,right,→,0.40939190005883574,True,36,0
MG-M-33M33S2,1113,training,68,←,left,←,0.41676180018112063,True,36,0
MG-M-33M33S2,1114,experiment,89,↓,no_key,no_letter,-1.0,False,36,0
MG-M-33M33S2,1115,experiment,104,←,left,←,0.6319968998432159,True,36,1
MG-M-33M33S2,1116,experiment,64,↑,up,↑,0.45083430013619363,True,36,1
MG-M-33M33S2,1117,experiment,48,↓,down,↓,0.6145021000411361,True,36,0
MG-M-33M33S2,1118,experiment,71,↑,right,→,0.49403960001654923,False,36,1
MG-M-33M33S2,1119,experiment,106,↑,up,↑,0.5106430999003351,True,36,1
MG-M-33M33S2,1120,experiment,99,←,left,←,0.4341170000843704,True,36,1
MG-M-33M33S2,1121,experiment,98,←,left,←,0.47089789994060993,True,36,0
MG-M-33M33S2,1122,experiment,92,→,right,→,0.4846376001369208,True,36,1
MG-M-33M33S2,1123,experiment,77,↑,up,↑,0.5431216000579298,True,36,1
MG-M-33M33S2,1124,experiment,58,↑,up,↑,0.40058419993147254,True,36,1
MG-M-33M33S2,1125,experiment,72,↑,no_key,no_letter,-1.0,False,36,0
MG-M-33M33S2,1126,experiment,95,←,left,←,0.4506675999145955,True,36,1
MG-M-33M33S2,1127,experiment,49,↑,up,↑,0.41749939997680485,True,36,0
MG-M-33M33S2,1128,experiment,85,↓,down,↓,0.47082430007867515,True,36,0
MG-M-33M33S2,1129,experiment,105,↓,no_key,no_letter,-1.0,False,36,0
MG-M-33M33S2,1130,experiment,90,→,no_key,no_letter,-1.0,False,36,1
MG-M-33M33S2,1131,experiment,94,↓,down,↓,0.48454660014249384,True,36,1
MG-M-33M33S2,1132,experiment,57,↑,up,↑,0.451082699932158,True,36,1
MG-M-33M33S2,1133,experiment,52,←,left,←,0.4416787999216467,True,36,0
MG-M-33M33S2,1134,experiment,56,→,right,→,0.628367300145328,True,36,0
MG-M-33M33S2,1135,experiment,87,←,no_key,no_letter,-1.0,False,36,1
MG-M-33M33S2,1136,experiment,60,←,right,→,0.3922424998600036,False,36,1
MG-M-33M33S2,1137,experiment,84,↓,down,↓,0.5107187000103295,True,36,0
MG-M-33M33S2,1138,experiment,53,←,left,←,0.48114919988438487,True,36,1
MG-M-33M33S2,1139,experiment,79,↑,up,↑,0.47520430013537407,True,36,1
MG-M-33M33S2,1140,experiment,54,←,right,→,0.509133700048551,False,36,1
MG-M-33M33S2,1141,experiment,88,→,right,→,0.4175409998279065,True,36,1
MG-M-33M33S2,1142,experiment,80,→,right,→,0.37635369994677603,True,36,0
MG-M-33M33S2,1143,experiment,91,↑,up,↑,0.6168029999826103,True,36,0
MG-M-33M33S2,1144,experiment,68,↓,down,↓,0.4264037001412362,True,36,1
MG-M-33M33S2,1145,experiment,65,→,right,→,0.6498956000432372,True,36,0
MG-M-33M33S2,1146,experiment,55,↓,down,↓,0.6130870999768376,True,36,1
MG-M-33M33S2,1147,experiment,97,→,right,→,0.40067560016177595,True,36,1
MG-M-33M33S2,1148,experiment,75,→,right,→,0.3924054999370128,True,36,0
MG-M-33M33S2,1149,experiment,101,←,left,←,0.5765949001070112,True,36,0
MG-M-33M33S2,1150,experiment,107,←,left,←,0.45053780009038746,True,36,1
MG-M-33M33S2,1151,experiment,102,←,left,←,0.504841199843213,True,36,0
MG-M-33M33S2,1152,experiment,76,→,right,→,0.522877800045535,True,36,1
MG-M-33M33S2,1153,experiment,70,←,left,←,0.6144773999694735,True,36,1
MG-M-33M33S2,1154,experiment,83,←,right,→,0.5056241999845952,False,36,1
MG-M-33M33S2,1155,experiment,100,↑,up,↑,0.5395798999816179,True,36,1
MG-M-33M33S2,1156,experiment,51,←,left,←,0.4696243000216782,True,36,1
MG-M-33M33S2,1157,experiment,86,→,right,→,0.6048489999957383,True,36,1
MG-M-33M33S2,1158,experiment,50,↑,no_key,no_letter,-1.0,False,36,1
MG-M-33M33S2,1159,experiment,74,←,left,←,0.6197844999842346,True,36,1
MG-M-33M33S2,1160,experiment,66,↓,down,↓,0.6848542001098394,True,36,1
MG-M-33M33S2,1161,experiment,67,↑,no_key,no_letter,-1.0,False,36,1
MG-M-33M33S2,1162,experiment,103,↑,up,↑,0.3834528001025319,True,36,1
MG-M-33M33S2,1163,experiment,108,↓,down,↓,0.47819819999858737,True,36,0
MG-M-33M33S2,1164,experiment,82,↑,up,↑,0.3839066999498755,True,36,1
MG-M-33M33S2,1165,experiment,62,←,left,←,0.4431219999678433,True,36,0
MG-M-33M33S2,1166,experiment,59,↓,no_key,no_letter,-1.0,False,36,0
MG-M-33M33S2,1167,experiment,78,→,right,→,0.44246160006150603,True,36,1
MG-M-33M33S2,1168,experiment,73,←,right,→,0.473372699925676,False,36,0
MG-M-33M33S2,1169,experiment,69,↑,up,↑,0.3748312999960035,True,36,1
MG-M-33M33S2,1170,experiment,63,←,left,←,0.5132162999361753,True,36,0
MG-M-33M33S2,1171,experiment,61,→,right,→,0.3585985000245273,True,36,1
MG-M-33M33S2,1172,experiment,81,↑,up,↑,0.3759183001238853,True,36,0
MG-M-33M33S2,1173,experiment,96,→,no_key,no_letter,-1.0,False,36,0
MG-M-33M33S2,1174,experiment,93,↓,down,↓,0.5685755999293178,True,36,1
MG-M-33M33S2,1175,training,78,↑,no_key,no_letter,-1.0,False,36,0
MG-M-33M33S2,1176,training,58,↑,up,↑,0.4732242999598384,True,36,1
MG-M-33M33S2,1177,experiment,62,↑,up,↑,0.38384989998303354,True,36,0
MG-M-33M33S2,1178,experiment,76,→,right,→,0.4254995998926461,True,36,0
MG-M-33M33S2,1179,experiment,51,↓,up,↑,0.4932291000150144,False,36,0
MG-M-33M33S2,1180,experiment,84,↓,down,↓,0.46973650017753243,True,36,1
MG-M-33M33S2,1181,experiment,91,→,right,→,0.5153862999286503,True,36,0
MG-M-33M33S2,1182,experiment,52,←,left,←,0.6372930998913944,True,36,1
MG-M-33M33S2,1183,experiment,89,←,no_key,no_letter,-1.0,False,36,1
MG-M-33M33S2,1184,experiment,66,↓,down,↓,0.47276050015352666,True,36,1
MG-M-33M33S2,1185,experiment,107,↑,up,↑,0.425988300004974,True,36,0
MG-M-33M33S2,1186,experiment,87,↓,down,↓,0.4507704998832196,True,36,0
MG-M-33M33S2,1187,experiment,94,←,left,←,0.5213621999137104,True,36,0
MG-M-33M33S2,1188,experiment,97,↓,no_key,no_letter,-1.0,False,36,1
MG-M-33M33S2,1189,experiment,59,↑,up,↑,0.5768818999640644,True,36,1
MG-M-33M33S2,1190,experiment,101,←,left,←,0.44246999989263713,True,36,1
MG-M-33M33S2,1191,experiment,48,↓,down,↓,0.4781962998677045,True,36,0
MG-M-33M33S2,1192,experiment,90,→,no_key,no_letter,-1.0,False,36,1
MG-M-33M33S2,1193,experiment,80,↑,up,↑,0.43504889984615147,True,36,1
MG-M-33M33S2,1194,experiment,69,↑,up,↑,0.60911830002442,True,36,0
MG-M-33M33S2,1195,experiment,79,↑,up,↑,0.40059949993155897,True,36,1
MG-M-33M33S2,1196,experiment,74,↓,down,↓,0.6529884999617934,True,36,0
MG-M-33M33S2,1197,experiment,92,↓,down,↓,0.5239772000350058,True,36,1
MG-M-33M33S2,1198,experiment,77,↓,down,↓,0.4255274999886751,True,36,1
MG-M-33M33S2,1199,experiment,104,→,right,→,0.42615950014442205,True,36,0
MG-M-33M33S2,1200,experiment,82,←,left,←,0.6038156999275088,True,36,0
MG-M-33M33S2,1201,experiment,108,→,right,→,0.40068680001422763,True,36,1
MG-M-33M33S2,1202,experiment,49,↓,down,↓,0.6306710001081228,True,36,0
MG-M-33M33S2,1203,experiment,95,↑,up,↑,0.5651084000710398,True,36,1
MG-M-33M33S2,1204,experiment,58,↑,up,↑,0.5550549000035971,True,36,1
MG-M-33M33S2,1205,experiment,72,↓,down,↓,0.4347409000620246,True,36,1
MG-M-33M33S2,1206,experiment,61,←,left,←,0.5662992999423295,True,36,0
MG-M-33M33S2,1207,experiment,93,↓,down,↓,0.5760532999411225,True,36,1
MG-M-33M33S2,1208,experiment,73,←,left,←,0.3836778998374939,True,36,1
MG-M-33M33S2,1209,experiment,96,↑,up,↑,0.442270299885422,True,36,0
MG-M-33M33S2,1210,experiment,106,→,no_key,no_letter,-1.0,False,36,0
MG-M-33M33S2,1211,experiment,54,←,left,←,0.4821248999796808,True,36,1
MG-M-33M33S2,1212,experiment,56,↓,no_key,no_letter,-1.0,False,36,1
MG-M-33M33S2,1213,experiment,99,↑,up,↑,0.48376449989154935,True,36,1
MG-M-33M33S2,1214,experiment,78,↑,up,↑,0.392647200031206,True,36,1
MG-M-33M33S2,1215,experiment,50,←,left,←,0.7170148999430239,True,36,0
MG-M-33M33S2,1216,experiment,103,↑,up,↑,0.4259665000718087,True,36,1
MG-M-33M33S2,1217,experiment,65,↓,no_key,no_letter,-1.0,False,36,0
MG-M-33M33S2,1218,experiment,102,→,no_key,no_letter,-1.0,False,36,1
MG-M-33M33S2,1219,experiment,68,→,right,→,0.4424954999703914,True,36,1
MG-M-33M33S2,1220,experiment,71,←,right,→,0.4426760000642389,False,36,0
MG-M-33M33S2,1221,experiment,83,←,left,←,0.5036844999995083,True,36,0
MG-M-33M33S2,1222,experiment,67,↓,down,↓,0.5246651000343263,True,36,1
MG-M-33M33S2,1223,experiment,100,→,right,→,0.5103648998774588,True,36,1
MG-M-33M33S2,1224,experiment,64,→,right,→,0.37616099999286234,True,36,1
MG-M-33M33S2,1225,experiment,53,→,right,→,0.5790919999126345,True,36,0
MG-M-33M33S2,1226,experiment,55,↑,up,↑,0.5130952999461442,True,36,1
MG-M-33M33S2,1227,experiment,63,↑,up,↑,0.4876924999989569,True,36,1
MG-M-33M33S2,1228,experiment,75,↓,down,↓,0.6347383998800069,True,36,1
MG-M-33M33S2,1229,experiment,98,←,right,→,0.5201980001293123,False,36,1
MG-M-33M33S2,1230,experiment,70,↓,down,↓,0.4508954999037087,True,36,1
MG-M-33M33S2,1231,experiment,81,←,left,←,0.5584167998749763,True,36,0
MG-M-33M33S2,1232,experiment,85,↓,down,↓,0.5955312999431044,True,36,1
MG-M-33M33S2,1233,experiment,57,←,left,←,0.5605536999646574,True,36,1
MG-M-33M33S2,1234,experiment,105,↑,up,↑,0.5988559999968857,True,36,1
MG-M-33M33S2,1235,experiment,60,↑,up,↑,0.47544820001348853,True,36,1
MG-M-33M33S2,1236,experiment,86,←,no_key,no_letter,-1.0,False,36,1
MG-M-33M33S2,1237,experiment,88,↓,down,↓,0.59815219999291,True,36,1
MG-M-33M33S2,1238,training,65,↓,no_key,no_letter,-1.0,False,36,0
MG-M-33M33S2,1239,training,80,↑,up,↑,0.40079210000112653,True,36,1
MG-M-33M33S2,1240,experiment,62,↓,down,↓,0.6961851001251489,True,36,0
MG-M-33M33S2,1241,experiment,54,↓,down,↓,0.5540490001440048,True,36,1
MG-M-33M33S2,1242,experiment,48,↓,down,↓,0.4507297999225557,True,36,1
MG-M-33M33S2,1243,experiment,81,→,right,→,0.43400640017353,True,36,0
MG-M-33M33S2,1244,experiment,60,↑,up,↑,0.43398429988883436,True,36,0
MG-M-33M33S2,1245,experiment,71,↓,down,↓,0.5428035000804812,True,36,0
MG-M-33M33S2,1246,experiment,66,←,left,←,0.5709142000414431,True,36,1
MG-M-33M33S2,1247,experiment,98,←,left,←,0.603330299956724,True,36,1
MG-M-33M33S2,1248,experiment,55,→,right,→,0.48111700010485947,True,36,1
MG-M-33M33S2,1249,experiment,65,↓,down,↓,0.5757677999790758,True,36,1
MG-M-33M33S2,1250,experiment,51,→,right,→,0.4507625999394804,True,36,1
MG-M-33M33S2,1251,experiment,63,→,right,→,0.4803507002070546,True,36,0
MG-M-33M33S2,1252,experiment,106,→,no_key,no_letter,-1.0,False,36,1
MG-M-33M33S2,1253,experiment,49,→,right,→,0.4183926999103278,True,36,1
MG-M-33M33S2,1254,experiment,72,←,left,←,0.6476225000806153,True,36,0
MG-M-33M33S2,1255,experiment,74,←,left,←,0.43426230014301836,True,36,1
MG-M-33M33S2,1256,experiment,108,↓,down,↓,0.4948109001852572,True,36,0
MG-M-33M33S2,1257,experiment,102,→,right,→,0.409933399874717,True,36,1
MG-M-33M33S2,1258,experiment,69,→,right,→,0.3932763999328017,True,36,0
MG-M-33M33S2,1259,experiment,67,↓,down,↓,0.44248039997182786,True,36,0
MG-M-33M33S2,1260,experiment,107,↑,up,↑,0.6194243000354618,True,36,0
MG-M-33M33S2,1261,experiment,89,→,right,→,0.4335145999211818,True,36,1
MG-M-33M33S2,1262,experiment,76,↓,down,↓,0.40071630012243986,True,36,0
MG-M-33M33S2,1263,experiment,50,↑,up,↑,0.441675600130111,True,36,0
MG-M-33M33S2,1264,experiment,57,↓,down,↓,0.6751695999410003,True,36,0
MG-M-33M33S2,1265,experiment,52,→,right,→,0.40903660003095865,True,36,1
MG-M-33M33S2,1266,experiment,61,↓,down,↓,0.5532182001043111,True,36,0
MG-M-33M33S2,1267,experiment,85,↑,up,↑,0.4257175999227911,True,36,1
MG-M-33M33S2,1268,experiment,101,←,left,←,0.4514827998355031,True,36,0
MG-M-33M33S2,1269,experiment,92,←,left,←,0.45092289987951517,True,36,0
MG-M-33M33S2,1270,experiment,83,↓,no_key,no_letter,-1.0,False,36,0
MG-M-33M33S2,1271,experiment,105,←,left,←,0.48219779995270073,True,36,1
MG-M-33M33S2,1272,experiment,70,↑,no_key,no_letter,-1.0,False,36,1
MG-M-33M33S2,1273,experiment,93,↓,down,↓,0.568530100164935,True,36,1
MG-M-33M33S2,1274,experiment,95,←,left,←,0.48244010005146265,True,36,1
MG-M-33M33S2,1275,experiment,96,↑,up,↑,0.5903346999548376,True,36,1
MG-M-33M33S2,1276,experiment,99,→,no_key,no_letter,-1.0,False,36,1
MG-M-33M33S2,1277,experiment,82,↓,down,↓,0.5070967001374811,True,36,1
MG-M-33M33S2,1278,experiment,64,↓,down,↓,0.48138109990395606,True,36,1
MG-M-33M33S2,1279,experiment,53,↑,up,↑,0.41759900003671646,True,36,1
MG-M-33M33S2,1280,experiment,68,↓,down,↓,0.5478509999811649,True,36,0
MG-M-33M33S2,1281,experiment,104,↑,up,↑,0.4250111998990178,True,36,1
MG-M-33M33S2,1282,experiment,77,↑,up,↑,0.4499065999407321,True,36,0
MG-M-33M33S2,1283,experiment,86,→,right,→,0.568282000022009,True,36,0
MG-M-33M33S2,1284,experiment,90,→,right,→,0.4839816000312567,True,36,1
MG-M-33M33S2,1285,experiment,75,↑,up,↑,0.5188692000228912,True,36,1
MG-M-33M33S2,1286,experiment,56,←,left,←,0.62338039977476,True,36,1
MG-M-33M33S2,1287,experiment,73,↓,down,↓,0.442476199939847,True,36,1
MG-M-33M33S2,1288,experiment,84,→,right,→,0.4423048999160528,True,36,0
MG-M-33M33S2,1289,experiment,94,↓,down,↓,0.6618997999466956,True,36,0
MG-M-33M33S2,1290,experiment,58,↓,up,↑,0.560449399985373,False,36,1
MG-M-33M33S2,1291,experiment,100,→,right,→,0.4425517001654953,True,36,1
MG-M-33M33S2,1292,experiment,97,→,right,→,0.342469799797982,True,36,0
MG-M-33M33S2,1293,experiment,80,↑,up,↑,0.40910329995676875,True,36,0
MG-M-33M33S2,1294,experiment,79,↑,up,↑,0.4263832999859005,True,36,0
MG-M-33M33S2,1295,experiment,59,↑,up,↑,0.39263979997485876,True,36,0
MG-M-33M33S2,1296,experiment,103,↓,down,↓,0.552903400035575,True,36,0
MG-M-33M33S2,1297,experiment,87,↑,up,↑,0.7336663000751287,True,36,1
MG-M-33M33S2,1298,experiment,78,→,right,→,0.5900597001891583,True,36,1
MG-M-33M33S2,1299,experiment,91,←,no_key,no_letter,-1.0,False,36,1
MG-M-33M33S2,1300,experiment,88,←,right,→,0.5554592998232692,False,36,1
MG-M-33M33S2,1301,training,88,↓,up,↑,0.5032050998415798,False,36,0
MG-M-33M33S2,1302,training,77,↑,up,↑,0.4422247998882085,True,36,1
MG-M-33M33S2,1303,experiment,95,↓,up,↑,0.3669505000580102,False,36,0
MG-M-33M33S2,1304,experiment,51,→,no_key,no_letter,-1.0,False,36,0
MG-M-33M33S2,1305,experiment,62,→,right,→,0.4834602999035269,True,36,1
MG-M-33M33S2,1306,experiment,57,↑,up,↑,0.4415450000669807,True,36,1
MG-M-33M33S2,1307,experiment,60,←,left,←,0.4421519001480192,True,36,0
MG-M-33M33S2,1308,experiment,70,↑,up,↑,0.40905819996260107,True,36,0
MG-M-33M33S2,1309,experiment,68,→,right,→,0.4174697999842465,True,36,0
MG-M-33M33S2,1310,experiment,48,←,left,←,0.42600159998983145,True,36,0
MG-M-33M33S2,1311,experiment,78,↓,down,↓,0.592459199950099,True,36,0
MG-M-33M33S2,1312,experiment,105,↓,down,↓,0.5737270000390708,True,36,1
MG-M-33M33S2,1313,experiment,98,←,no_key,no_letter,-1.0,False,36,1
MG-M-33M33S2,1314,experiment,92,↓,down,↓,0.4878445998765528,True,36,1
MG-M-33M33S2,1315,experiment,71,→,right,→,0.4340489001479,True,36,1
MG-M-33M33S2,1316,experiment,67,↓,down,↓,0.5478835999965668,True,36,0
MG-M-33M33S2,1317,experiment,82,↓,no_key,no_letter,-1.0,False,36,1
MG-M-33M33S2,1318,experiment,86,←,right,→,0.3845061999745667,False,36,1
MG-M-33M33S2,1319,experiment,93,←,left,←,0.3764936998486519,True,36,0
MG-M-33M33S2,1320,experiment,104,→,right,→,0.4499995999503881,True,36,0
MG-M-33M33S2,1321,experiment,106,→,right,→,0.43430079985409975,True,36,0
MG-M-33M33S2,1322,experiment,56,↑,up,↑,0.6264365999959409,True,36,0
MG-M-33M33S2,1323,experiment,108,→,no_key,no_letter,-1.0,False,36,1
MG-M-33M33S2,1324,experiment,100,→,right,→,0.44227669993415475,True,36,1
MG-M-33M33S2,1325,experiment,53,→,right,→,0.3758737000171095,True,36,0
MG-M-33M33S2,1326,experiment,75,↓,down,↓,0.5361705000977963,True,36,0
MG-M-33M33S2,1327,experiment,77,←,left,←,0.44254800002090633,True,36,1
MG-M-33M33S2,1328,experiment,58,→,right,→,0.44222720013931394,True,36,0
MG-M-33M33S2,1329,experiment,101,←,left,←,0.43433750001713634,True,36,0
MG-M-33M33S2,1330,experiment,49,↑,up,↑,0.725336299976334,True,36,0
MG-M-33M33S2,1331,experiment,97,→,right,→,0.7197114999871701,True,36,1
MG-M-33M33S2,1332,experiment,83,↓,no_key,no_letter,-1.0,False,36,1
MG-M-33M33S2,1333,experiment,102,→,no_key,no_letter,-1.0,False,36,1
MG-M-33M33S2,1334,experiment,88,↓,right,→,0.4732503998093307,False,36,1
MG-M-33M33S2,1335,experiment,87,→,right,→,0.5768840999808162,True,36,0
MG-M-33M33S2,1336,experiment,107,→,no_key,no_letter,-1.0,False,36,1
MG-M-33M33S2,1337,experiment,91,↓,down,↓,0.6887269001454115,True,36,1
MG-M-33M33S2,1338,experiment,76,←,left,←,0.563074299832806,True,36,1
MG-M-33M33S2,1339,experiment,63,→,right,→,0.48743560002185404,True,36,1
MG-M-33M33S2,1340,experiment,52,↑,up,↑,0.6184122001286596,True,36,1
MG-M-33M33S2,1341,experiment,64,↑,up,↑,0.5641837001312524,True,36,1
MG-M-33M33S2,1342,experiment,72,↑,up,↑,0.5252121998928487,True,36,1
MG-M-33M33S2,1343,experiment,90,↓,down,↓,0.48244319995865226,True,36,1
MG-M-33M33S2,1344,experiment,74,↑,up,↑,0.5017025999259204,True,36,1
MG-M-33M33S2,1345,experiment,55,→,right,→,0.607255500042811,True,36,1
MG-M-33M33S2,1346,experiment,89,←,right,→,0.5368642001412809,False,36,1
MG-M-33M33S2,1347,experiment,96,→,right,→,0.48358969995751977,True,36,1
MG-M-33M33S2,1348,experiment,66,←,left,←,0.6338476999662817,True,36,1
MG-M-33M33S2,1349,experiment,80,↑,up,↑,0.3834666998591274,True,36,1
MG-M-33M33S2,1350,experiment,54,←,left,←,0.44237580010667443,True,36,0
MG-M-33M33S2,1351,experiment,94,↑,up,↑,0.553854500176385,True,36,0
MG-M-33M33S2,1352,experiment,103,→,right,→,0.4014825997874141,True,36,1
MG-M-33M33S2,1353,experiment,69,↑,up,↑,0.5611179999541491,True,36,0
MG-M-33M33S2,1354,experiment,85,→,right,→,0.6379809000063688,True,36,1
MG-M-33M33S2,1355,experiment,84,↓,down,↓,0.648199399933219,True,36,1
MG-M-33M33S2,1356,experiment,61,→,right,→,0.40896569984033704,True,36,1
MG-M-33M33S2,1357,experiment,59,↓,down,↓,0.6129598000552505,True,36,0
MG-M-33M33S2,1358,experiment,79,↑,up,↑,0.6336511999834329,True,36,1
MG-M-33M33S2,1359,experiment,99,↓,down,↓,0.5590562999714166,True,36,1
MG-M-33M33S2,1360,experiment,50,↓,down,↓,0.5516081000678241,True,36,1
MG-M-33M33S2,1361,experiment,65,→,right,→,0.652065500151366,True,36,1
MG-M-33M33S2,1362,experiment,73,↓,down,↓,0.45085670007392764,True,36,1
MG-M-33M33S2,1363,experiment,81,↓,down,↓,0.4507480999454856,True,36,0
MG-M-33M33S2,1364,training,104,↓,no_key,no_letter,-1.0,False,36,0
MG-M-33M33S2,1365,training,68,↑,up,↑,0.4009914000052959,True,36,1
MG-M-33M33S2,1366,experiment,83,←,left,←,0.43412320013158023,True,36,0
MG-M-33M33S2,1367,experiment,60,→,right,→,0.498888400150463,True,36,0
MG-M-33M33S2,1368,experiment,96,↓,down,↓,0.5505051000509411,True,36,1
MG-M-33M33S2,1369,experiment,107,↓,down,↓,0.40908210002817214,True,36,1
MG-M-33M33S2,1370,experiment,62,←,left,←,0.47959690005518496,True,36,0
MG-M-33M33S2,1371,experiment,80,↑,up,↑,0.4344335999339819,True,36,1
MG-M-33M33S2,1372,experiment,92,←,left,←,0.49599929992109537,True,36,0
MG-M-33M33S2,1373,experiment,67,←,right,→,0.5738429001066834,False,36,1
MG-M-33M33S2,1374,experiment,84,←,left,←,0.5866367998532951,True,36,1
MG-M-33M33S2,1375,experiment,88,↓,no_key,no_letter,-1.0,False,36,1
MG-M-33M33S2,1376,experiment,89,↑,up,↑,0.48873089998960495,True,36,1
MG-M-33M33S2,1377,experiment,54,↓,down,↓,0.691162700066343,True,36,1
MG-M-33M33S2,1378,experiment,81,↑,up,↑,0.6204177001491189,True,36,1
MG-M-33M33S2,1379,experiment,91,↑,up,↑,0.5327379999216646,True,36,1
MG-M-33M33S2,1380,experiment,66,→,right,→,0.6972952000796795,True,36,1
MG-M-33M33S2,1381,experiment,87,←,left,←,0.4251507001463324,True,36,1
MG-M-33M33S2,1382,experiment,73,↓,down,↓,0.6059336999896914,True,36,0
MG-M-33M33S2,1383,experiment,48,↑,up,↑,0.4424922000616789,True,36,1
MG-M-33M33S2,1384,experiment,101,←,left,←,0.49762520007789135,True,36,0
MG-M-33M33S2,1385,experiment,52,→,right,→,0.44998539984226227,True,36,1
MG-M-33M33S2,1386,experiment,71,↑,right,→,0.521673999959603,False,36,0
MG-M-33M33S2,1387,experiment,57,↑,up,↑,0.41828119987621903,True,36,1
MG-M-33M33S2,1388,experiment,61,↑,up,↑,0.7476214999333024,True,36,0
MG-M-33M33S2,1389,experiment,108,↑,up,↑,0.4974663998000324,True,36,1
MG-M-33M33S2,1390,experiment,74,↓,down,↓,0.4247248999308795,True,36,1
MG-M-33M33S2,1391,experiment,79,←,left,←,0.5445941998623312,True,36,0
MG-M-33M33S2,1392,experiment,72,→,right,→,0.49847539979964495,True,36,1
MG-M-33M33S2,1393,experiment,55,←,left,←,0.43382930010557175,True,36,1
MG-M-33M33S2,1394,experiment,56,←,left,←,0.4259071999695152,True,36,0
MG-M-33M33S2,1395,experiment,77,→,no_key,no_letter,-1.0,False,36,0
MG-M-33M33S2,1396,experiment,78,←,left,←,0.4757522998843342,True,36,1
MG-M-33M33S2,1397,experiment,104,→,right,→,0.3924865999724716,True,36,1
MG-M-33M33S2,1398,experiment,99,↓,down,↓,0.5311885999981314,True,36,0
MG-M-33M33S2,1399,experiment,53,↑,up,↑,0.5561957000754774,True,36,1
MG-M-33M33S2,1400,experiment,63,↓,down,↓,0.5845137999858707,True,36,1
MG-M-33M33S2,1401,experiment,51,↓,down,↓,0.441850199829787,True,36,1
MG-M-33M33S2,1402,experiment,69,←,left,←,0.5187174000311643,True,36,0
MG-M-33M33S2,1403,experiment,75,→,right,→,0.45056689996272326,True,36,1
MG-M-33M33S2,1404,experiment,105,→,no_key,no_letter,-1.0,False,36,0
MG-M-33M33S2,1405,experiment,95,↓,down,↓,0.44250370003283024,True,36,1
MG-M-33M33S2,1406,experiment,68,→,right,→,0.45063800015486777,True,36,0
MG-M-33M33S2,1407,experiment,102,↓,down,↓,0.4255361999385059,True,36,0
MG-M-33M33S2,1408,experiment,58,↑,up,↑,0.5699453998822719,True,36,0
MG-M-33M33S2,1409,experiment,93,↑,up,↑,0.5241145000327379,True,36,1
MG-M-33M33S2,1410,experiment,76,→,right,→,0.5495100999251008,True,36,1
MG-M-33M33S2,1411,experiment,70,↓,no_key,no_letter,-1.0,False,36,1
MG-M-33M33S2,1412,experiment,86,←,left,←,0.5881559001281857,True,36,1
MG-M-33M33S2,1413,experiment,59,↓,down,↓,0.6164951000828296,True,36,1
MG-M-33M33S2,1414,experiment,97,↓,down,↓,0.4087167999241501,True,36,1
MG-M-33M33S2,1415,experiment,85,←,left,←,0.443169399863109,True,36,0
MG-M-33M33S2,1416,experiment,82,←,right,→,0.4848272001836449,False,36,0
MG-M-33M33S2,1417,experiment,94,↑,up,↑,0.4340786999091506,True,36,1
MG-M-33M33S2,1418,experiment,100,↑,up,↑,0.4090749998576939,True,36,0
MG-M-33M33S2,1419,experiment,103,↓,down,↓,0.5145388001110405,True,36,0
MG-M-33M33S2,1420,experiment,50,→,right,→,0.4419925999827683,True,36,1
MG-M-33M33S2,1421,experiment,65,←,left,←,0.6688671999145299,True,36,0
MG-M-33M33S2,1422,experiment,64,→,right,→,0.4932327999267727,True,36,1
MG-M-33M33S2,1423,experiment,106,←,left,←,0.7733688000589609,True,36,1
MG-M-33M33S2,1424,experiment,98,→,right,→,0.5495451998431236,True,36,1
MG-M-33M33S2,1425,experiment,49,↓,down,↓,0.7108467000070959,True,36,1
MG-M-33M33S2,1426,experiment,90,→,right,→,0.4761941998731345,True,36,1
MG-M-33M33S2,1427,training,108,↑,up,↑,0.5286484002135694,True,36,0
MG-M-33M33S2,1428,training,97,↓,no_key,no_letter,-1.0,False,36,1
MG-M-33M33S2,1429,experiment,94,←,left,←,0.5247603999450803,True,36,1
MG-M-33M33S2,1430,experiment,85,↑,up,↑,0.4422834999859333,True,36,1
MG-M-33M33S2,1431,experiment,95,←,left,←,0.5052915001288056,True,36,0
MG-M-33M33S2,1432,experiment,56,←,left,←,0.4174685999751091,True,36,1
MG-M-33M33S2,1433,experiment,74,→,right,→,0.4805223001167178,True,36,0
MG-M-33M33S2,1434,experiment,106,↑,up,↑,0.5690007000230253,True,36,1
MG-M-33M33S2,1435,experiment,57,↑,up,↑,0.4008140000514686,True,36,1
MG-M-33M33S2,1436,experiment,64,→,right,→,0.41004910017363727,True,36,0
MG-M-33M33S2,1437,experiment,75,→,right,→,0.4088657000102103,True,36,0
MG-M-33M33S2,1438,experiment,86,→,right,→,0.4091174998320639,True,36,0
MG-M-33M33S2,1439,experiment,59,→,left,←,0.588782399892807,False,36,0
MG-M-33M33S2,1440,experiment,80,↓,no_key,no_letter,-1.0,False,36,1
MG-M-33M33S2,1441,experiment,70,↓,down,↓,0.5716311000287533,True,36,1
MG-M-33M33S2,1442,experiment,107,←,left,←,0.5527435999829322,True,36,1
MG-M-33M33S2,1443,experiment,83,↑,up,↑,0.4426587999332696,True,36,1
MG-M-33M33S2,1444,experiment,68,→,right,→,0.5818293998017907,True,36,0
MG-M-33M33S2,1445,experiment,88,↓,down,↓,0.5849856999702752,True,36,1
