PART_ID,Trial_no,Trial_type,CSI,Stim_letter,Key_pressed,letter_choose,Rt,Corr,Stimulus Time,nDropped
MG-M-33M33S1,1,training,120,↑,no_key,no_letter,-1.0,False,60,0
MG-M-33M33S1,2,training,120,→,no_key,no_letter,-1.0,False,60,0
MG-M-33M33S1,3,training,120,↑,no_key,no_letter,-1.0,False,60,0
MG-M-33M33S1,4,training,120,→,no_key,no_letter,-1.0,False,60,0
MG-M-33M33S1,5,training,120,↑,left,←,1.4169139000587165,False,60,0
MG-M-33M33S1,6,training,120,→,no_key,no_letter,-1.0,False,60,0
MG-M-33M33S1,7,training,120,↑,no_key,no_letter,-1.0,False,60,0
MG-M-33M33S1,8,training,120,→,no_key,no_letter,-1.0,False,60,0
MG-M-33M33S1,9,training,120,←,no_key,no_letter,-1.0,False,60,0
MG-M-33M33S1,10,training,120,↓,no_key,no_letter,-1.0,False,60,0
MG-M-33M33S1,11,training,120,←,no_key,no_letter,-1.0,False,60,0
MG-M-33M33S1,12,training,120,→,no_key,no_letter,-1.0,False,60,0
MG-M-33M33S1,13,training,120,↓,no_key,no_letter,-1.0,False,60,0
MG-M-33M33S1,14,training,120,↑,no_key,no_letter,-1.0,False,60,0
MG-M-33M33S1,15,training,120,↑,no_key,no_letter,-1.0,False,60,0
MG-M-33M33S1,16,training,120,→,no_key,no_letter,-1.0,False,60,0
MG-M-33M33S1,17,training,120,←,no_key,no_letter,-1.0,False,60,0
MG-M-33M33S1,18,training,120,↑,no_key,no_letter,-1.0,False,60,0
MG-M-33M33S1,19,training,120,↑,no_key,no_letter,-1.0,False,60,0
MG-M-33M33S1,20,training,120,↑,no_key,no_letter,-1.0,False,60,0
MG-M-33M33S1,21,no_adaptation,120,↑,no_key,no_letter,-1.0,False,36,0
MG-M-33M33S1,22,no_adaptation,120,↑,no_key,no_letter,-1.0,False,36,0
MG-M-33M33S1,23,no_adaptation,120,↓,no_key,no_letter,-1.0,False,36,0
MG-M-33M33S1,24,no_adaptation,120,→,no_key,no_letter,-1.0,False,36,0
MG-M-33M33S1,25,no_adaptation,120,←,no_key,no_letter,-1.0,False,36,0
MG-M-33M33S1,26,no_adaptation,120,→,no_key,no_letter,-1.0,False,36,0
MG-M-33M33S1,27,no_adaptation,120,↓,no_key,no_letter,-1.0,False,36,0
MG-M-33M33S1,28,no_adaptation,120,↓,no_key,no_letter,-1.0,False,36,0
MG-M-33M33S1,29,no_adaptation,120,←,no_key,no_letter,-1.0,False,36,0
MG-M-33M33S1,30,no_adaptation,120,→,no_key,no_letter,-1.0,False,36,0
MG-M-33M33S1,31,no_adaptation,120,↓,no_key,no_letter,-1.0,False,36,0
MG-M-33M33S1,32,no_adaptation,120,←,no_key,no_letter,-1.0,False,36,0
MG-M-33M33S1,33,no_adaptation,120,←,no_key,no_letter,-1.0,False,36,0
MG-M-33M33S1,34,no_adaptation,120,←,no_key,no_letter,-1.0,False,36,0
MG-M-33M33S1,35,no_adaptation,120,←,no_key,no_letter,-1.0,False,36,0
MG-M-33M33S1,36,no_adaptation,120,↓,no_key,no_letter,-1.0,False,36,0
MG-M-33M33S1,37,no_adaptation,120,←,no_key,no_letter,-1.0,False,36,0
MG-M-33M33S1,38,no_adaptation,120,↑,no_key,no_letter,-1.0,False,36,0
MG-M-33M33S1,39,no_adaptation,120,←,no_key,no_letter,-1.0,False,36,0
MG-M-33M33S1,40,no_adaptation,120,→,no_key,no_letter,-1.0,False,36,0
MG-M-33M33S1,41,training,71,←,no_key,no_letter,-1.0,False,36,0
MG-M-33M33S1,42,training,72,↑,no_key,no_letter,-1.0,False,36,1
MG-M-33M33S1,43,experiment,75,↑,no_key,no_letter,-1.0,False,36,1
MG-M-33M33S1,44,experiment,61,↓,no_key,no_letter,-1.0,False,36,1
MG-M-33M33S1,45,experiment,97,↓,no_key,no_letter,-1.0,False,36,1
MG-M-33M33S1,46,experiment,67,↓,no_key,no_letter,-1.0,False,36,1
MG-M-33M33S1,47,experiment,73,←,left,←,1.388899999903515,True,36,1
MG-M-33M33S1,48,experiment,70,↑,no_key,no_letter,-1.0,False,36,1
MG-M-33M33S1,49,experiment,72,↓,no_key,no_letter,-1.0,False,36,1
MG-M-33M33S1,50,experiment,84,↓,no_key,no_letter,-1.0,False,36,1
MG-M-33M33S1,51,experiment,98,↓,no_key,no_letter,-1.0,False,36,1
MG-M-33M33S1,52,experiment,105,←,left,←,1.257180199958384,True,36,1
MG-M-33M33S1,53,experiment,51,→,right,→,0.6056341999210417,True,36,1
MG-M-33M33S1,54,experiment,95,↓,no_key,no_letter,-1.0,False,36,1
MG-M-33M33S1,55,experiment,49,↓,no_key,no_letter,-1.0,False,36,1
MG-M-33M33S1,56,experiment,81,↑,up,↑,0.6598063998389989,True,36,1
MG-M-33M33S1,57,experiment,62,↑,no_key,no_letter,-1.0,False,36,1
MG-M-33M33S1,58,experiment,87,→,left,←,0.42553970008157194,False,36,1
MG-M-33M33S1,59,experiment,108,↑,no_key,no_letter,-1.0,False,36,0
MG-M-33M33S1,60,experiment,92,↓,left,←,0.36735810013487935,False,36,1
MG-M-33M33S1,61,experiment,74,←,left,←,0.628703499911353,True,36,0
MG-M-33M33S1,62,experiment,52,↑,no_key,no_letter,-1.0,False,36,1
MG-M-33M33S1,63,experiment,107,↓,no_key,no_letter,-1.0,False,36,1
MG-M-33M33S1,64,experiment,88,↑,no_key,no_letter,-1.0,False,36,1
MG-M-33M33S1,65,experiment,65,←,left,←,0.3590975000988692,True,36,1
MG-M-33M33S1,66,experiment,91,→,no_key,no_letter,-1.0,False,36,0
MG-M-33M33S1,67,experiment,64,↑,no_key,no_letter,-1.0,False,36,1
MG-M-33M33S1,68,experiment,58,↓,down,↓,0.7143848000559956,True,36,1
MG-M-33M33S1,69,experiment,93,↓,no_key,no_letter,-1.0,False,36,1
MG-M-33M33S1,70,experiment,79,↑,no_key,no_letter,-1.0,False,36,1
MG-M-33M33S1,71,experiment,55,←,no_key,no_letter,-1.0,False,36,1
MG-M-33M33S1,72,experiment,100,←,left,←,0.7626404000911862,True,36,1
MG-M-33M33S1,73,experiment,96,↑,no_key,no_letter,-1.0,False,36,1
MG-M-33M33S1,74,experiment,86,←,no_key,no_letter,-1.0,False,36,1
MG-M-33M33S1,75,experiment,82,←,left,←,0.4424800002016127,True,36,1
MG-M-33M33S1,76,experiment,99,→,no_key,no_letter,-1.0,False,36,0
MG-M-33M33S1,77,experiment,83,←,no_key,no_letter,-1.0,False,36,1
MG-M-33M33S1,78,experiment,102,→,no_key,no_letter,-1.0,False,36,1
MG-M-33M33S1,79,experiment,53,↓,no_key,no_letter,-1.0,False,36,1
MG-M-33M33S1,80,experiment,69,←,left,←,0.5589495000895113,True,36,1
MG-M-33M33S1,81,experiment,90,↑,no_key,no_letter,-1.0,False,36,1
MG-M-33M33S1,82,experiment,48,↑,no_key,no_letter,-1.0,False,36,1
MG-M-33M33S1,83,experiment,68,←,left,←,0.5336147998459637,True,36,1
MG-M-33M33S1,84,experiment,104,↑,up,↑,0.6452438000123948,True,36,1
MG-M-33M33S1,85,experiment,60,←,left,←,0.5759010000620037,True,36,1
MG-M-33M33S1,86,experiment,71,→,no_key,no_letter,-1.0,False,36,1
MG-M-33M33S1,87,experiment,59,↑,no_key,no_letter,-1.0,False,36,1
MG-M-33M33S1,88,experiment,54,↓,no_key,no_letter,-1.0,False,36,1
MG-M-33M33S1,89,experiment,66,↑,no_key,no_letter,-1.0,False,36,1
MG-M-33M33S1,90,experiment,57,→,no_key,no_letter,-1.0,False,36,1
MG-M-33M33S1,91,experiment,76,↓,up,↑,0.7170733998063952,False,36,1
MG-M-33M33S1,92,experiment,106,↑,left,←,0.6446968999225646,False,36,1
MG-M-33M33S1,93,experiment,78,←,no_key,no_letter,-1.0,False,36,1
MG-M-33M33S1,94,experiment,85,↑,no_key,no_letter,-1.0,False,36,1
MG-M-33M33S1,95,experiment,56,↑,left,←,0.40912199998274446,False,36,1
MG-M-33M33S1,96,experiment,80,←,no_key,no_letter,-1.0,False,36,0
MG-M-33M33S1,97,experiment,103,↓,down,↓,0.6864183999132365,True,36,1
MG-M-33M33S1,98,experiment,63,↑,no_key,no_letter,-1.0,False,36,1
MG-M-33M33S1,99,experiment,50,←,no_key,no_letter,-1.0,False,36,1
MG-M-33M33S1,100,experiment,94,←,down,↓,0.5195965999737382,False,36,1
MG-M-33M33S1,101,experiment,89,→,no_key,no_letter,-1.0,False,36,1
MG-M-33M33S1,102,experiment,101,↓,no_key,no_letter,-1.0,False,36,1
MG-M-33M33S1,103,experiment,77,→,no_key,no_letter,-1.0,False,36,1
MG-M-33M33S1,104,training,53,→,no_key,no_letter,-1.0,False,37,0
MG-M-33M33S1,105,training,55,→,no_key,no_letter,-1.0,False,37,1
MG-M-33M33S1,106,experiment,50,↑,no_key,no_letter,-1.0,False,37,1
MG-M-33M33S1,107,experiment,51,←,left,←,0.4857440998312086,True,37,1
MG-M-33M33S1,108,experiment,81,←,no_key,no_letter,-1.0,False,37,1
MG-M-33M33S1,109,experiment,93,→,left,←,0.4174133001361042,False,37,1
MG-M-33M33S1,110,experiment,91,↓,down,↓,0.6001652001868933,True,37,0
MG-M-33M33S1,111,experiment,101,↑,no_key,no_letter,-1.0,False,37,1
MG-M-33M33S1,112,experiment,82,↓,no_key,no_letter,-1.0,False,37,1
MG-M-33M33S1,113,experiment,88,←,no_key,no_letter,-1.0,False,37,1
MG-M-33M33S1,114,experiment,73,↓,left,←,0.3678388998378068,False,37,1
MG-M-33M33S1,115,experiment,72,↓,no_key,no_letter,-1.0,False,37,0
MG-M-33M33S1,116,experiment,86,↑,down,↓,0.43432129989378154,False,37,1
MG-M-33M33S1,117,experiment,87,↓,right,→,0.5729654999449849,False,37,0
MG-M-33M33S1,118,experiment,79,↓,down,↓,0.4988473001867533,True,37,1
MG-M-33M33S1,119,experiment,78,←,left,←,0.540577600011602,True,37,1
MG-M-33M33S1,120,experiment,97,→,right,→,0.6543133000377566,True,37,1
MG-M-33M33S1,121,experiment,54,↓,right,→,0.6822214999701828,False,37,1
MG-M-33M33S1,122,experiment,107,←,left,←,0.6185676001477987,True,37,1
MG-M-33M33S1,123,experiment,94,↓,no_key,no_letter,-1.0,False,37,1
MG-M-33M33S1,124,experiment,64,→,right,→,0.6453257000539452,True,37,1
MG-M-33M33S1,125,experiment,70,↑,no_key,no_letter,-1.0,False,37,1
MG-M-33M33S1,126,experiment,67,→,right,→,0.5026281999889761,True,37,1
MG-M-33M33S1,127,experiment,80,↑,no_key,no_letter,-1.0,False,37,1
MG-M-33M33S1,128,experiment,58,←,no_key,no_letter,-1.0,False,37,1
MG-M-33M33S1,129,experiment,106,↓,right,→,0.5060960000846535,False,37,1
MG-M-33M33S1,130,experiment,74,↓,no_key,no_letter,-1.0,False,37,1
MG-M-33M33S1,131,experiment,56,←,left,←,0.5862807999365032,True,37,1
MG-M-33M33S1,132,experiment,76,↓,right,→,0.5617488999851048,False,37,1
MG-M-33M33S1,133,experiment,83,↑,no_key,no_letter,-1.0,False,37,1
MG-M-33M33S1,134,experiment,59,←,no_key,no_letter,-1.0,False,37,1
MG-M-33M33S1,135,experiment,95,↓,down,↓,0.5890826999675483,True,37,1
MG-M-33M33S1,136,experiment,61,↑,up,↑,0.5692136001307517,True,37,1
MG-M-33M33S1,137,experiment,69,←,no_key,no_letter,-1.0,False,37,1
MG-M-33M33S1,138,experiment,60,↓,down,↓,0.6314639002084732,True,37,1
MG-M-33M33S1,139,experiment,92,←,no_key,no_letter,-1.0,False,37,1
MG-M-33M33S1,140,experiment,57,↑,no_key,no_letter,-1.0,False,37,1
MG-M-33M33S1,141,experiment,102,↓,no_key,no_letter,-1.0,False,37,1
MG-M-33M33S1,142,experiment,84,←,no_key,no_letter,-1.0,False,37,1
MG-M-33M33S1,143,experiment,105,↑,no_key,no_letter,-1.0,False,37,1
MG-M-33M33S1,144,experiment,89,→,no_key,no_letter,-1.0,False,37,1
MG-M-33M33S1,145,experiment,65,↑,no_key,no_letter,-1.0,False,37,1
MG-M-33M33S1,146,experiment,55,←,down,↓,0.4102333001792431,False,37,1
MG-M-33M33S1,147,experiment,49,→,right,→,0.5194037999026477,True,37,0
MG-M-33M33S1,148,experiment,108,↓,no_key,no_letter,-1.0,False,37,1
MG-M-33M33S1,149,experiment,53,←,left,←,0.39968649996444583,True,37,1
MG-M-33M33S1,150,experiment,77,←,left,←,0.5631975999567658,True,37,0
MG-M-33M33S1,151,experiment,52,↓,down,↓,0.5630986001342535,True,37,1
MG-M-33M33S1,152,experiment,104,↓,down,↓,0.5135486000217497,True,37,1
MG-M-33M33S1,153,experiment,68,←,left,←,0.4174126998987049,True,37,1
MG-M-33M33S1,154,experiment,103,↑,no_key,no_letter,-1.0,False,37,0
MG-M-33M33S1,155,experiment,99,←,no_key,no_letter,-1.0,False,37,1
MG-M-33M33S1,156,experiment,75,←,no_key,no_letter,-1.0,False,37,1
MG-M-33M33S1,157,experiment,98,↓,no_key,no_letter,-1.0,False,37,1
MG-M-33M33S1,158,experiment,62,→,right,→,0.4508030000142753,True,37,1
MG-M-33M33S1,159,experiment,100,←,left,←,0.4264660000335425,True,37,0
MG-M-33M33S1,160,experiment,66,↑,up,↑,0.4590372999664396,True,37,0
MG-M-33M33S1,161,experiment,48,←,left,←,0.48687789984978735,True,37,0
MG-M-33M33S1,162,experiment,85,↑,up,↑,0.7019323999993503,True,37,1
MG-M-33M33S1,163,experiment,71,↓,no_key,no_letter,-1.0,False,37,1
MG-M-33M33S1,164,experiment,90,→,no_key,no_letter,-1.0,False,37,1
MG-M-33M33S1,165,experiment,96,↓,no_key,no_letter,-1.0,False,37,1
MG-M-33M33S1,166,experiment,63,←,no_key,no_letter,-1.0,False,37,1
MG-M-33M33S1,167,training,73,↓,no_key,no_letter,-1.0,False,38,0
MG-M-33M33S1,168,training,65,↓,down,↓,0.5890482999384403,True,38,1
MG-M-33M33S1,169,experiment,106,→,right,→,0.45912339980714023,True,38,1
MG-M-33M33S1,170,experiment,49,↑,up,↑,0.4870502999983728,True,38,0
MG-M-33M33S1,171,experiment,101,→,no_key,no_letter,-1.0,False,38,1
MG-M-33M33S1,172,experiment,83,↑,no_key,no_letter,-1.0,False,38,1
MG-M-33M33S1,173,experiment,66,↓,down,↓,0.5438242999371141,True,38,1
MG-M-33M33S1,174,experiment,80,←,no_key,no_letter,-1.0,False,38,1
MG-M-33M33S1,175,experiment,63,↓,down,↓,0.5302780999336392,True,38,1
MG-M-33M33S1,176,experiment,88,↑,up,↑,0.4422086998820305,True,38,1
MG-M-33M33S1,177,experiment,73,→,no_key,no_letter,-1.0,False,38,0
MG-M-33M33S1,178,experiment,67,→,no_key,no_letter,-1.0,False,38,1
MG-M-33M33S1,179,experiment,56,↑,no_key,no_letter,-1.0,False,38,1
MG-M-33M33S1,180,experiment,107,↑,no_key,no_letter,-1.0,False,38,1
MG-M-33M33S1,181,experiment,77,←,left,←,0.33351780008524656,True,38,1
MG-M-33M33S1,182,experiment,78,←,left,←,0.5511918000411242,True,38,0
MG-M-33M33S1,183,experiment,51,↓,right,→,0.5443549000192434,False,38,1
MG-M-33M33S1,184,experiment,79,←,left,←,0.43340890016406775,True,38,1
MG-M-33M33S1,185,experiment,89,→,right,→,0.4338704999536276,True,38,0
MG-M-33M33S1,186,experiment,81,←,left,←,0.5237151000183076,True,38,0
MG-M-33M33S1,187,experiment,54,↓,down,↓,0.4924584999680519,True,38,1
MG-M-33M33S1,188,experiment,68,↑,no_key,no_letter,-1.0,False,38,1
MG-M-33M33S1,189,experiment,71,↓,no_key,no_letter,-1.0,False,38,1
MG-M-33M33S1,190,experiment,70,↑,up,↑,0.4518528999760747,True,38,1
MG-M-33M33S1,191,experiment,65,↑,no_key,no_letter,-1.0,False,38,0
MG-M-33M33S1,192,experiment,86,←,no_key,no_letter,-1.0,False,38,1
MG-M-33M33S1,193,experiment,97,←,left,←,0.4008489998523146,True,38,1
MG-M-33M33S1,194,experiment,94,↑,no_key,no_letter,-1.0,False,38,0
MG-M-33M33S1,195,experiment,60,↑,up,↑,0.8020681999623775,True,38,1
MG-M-33M33S1,196,experiment,48,→,no_key,no_letter,-1.0,False,38,1
MG-M-33M33S1,197,experiment,84,→,no_key,no_letter,-1.0,False,38,1
MG-M-33M33S1,198,experiment,103,↓,no_key,no_letter,-1.0,False,38,1
MG-M-33M33S1,199,experiment,98,↓,no_key,no_letter,-1.0,False,38,1
MG-M-33M33S1,200,experiment,93,↓,down,↓,0.46754530002363026,True,38,1
MG-M-33M33S1,201,experiment,108,→,right,→,0.46740709990262985,True,38,0
MG-M-33M33S1,202,experiment,61,↓,no_key,no_letter,-1.0,False,38,0
MG-M-33M33S1,203,experiment,87,←,no_key,no_letter,-1.0,False,38,1
MG-M-33M33S1,204,experiment,76,↑,right,→,0.32485649990849197,False,38,1
MG-M-33M33S1,205,experiment,74,↑,no_key,no_letter,-1.0,False,38,0
MG-M-33M33S1,206,experiment,55,→,no_key,no_letter,-1.0,False,38,1
MG-M-33M33S1,207,experiment,72,↑,up,↑,0.4424947998486459,True,38,1
MG-M-33M33S1,208,experiment,91,↑,up,↑,0.39168070000596344,True,38,0
MG-M-33M33S1,209,experiment,75,↑,no_key,no_letter,-1.0,False,38,0
MG-M-33M33S1,210,experiment,85,↑,up,↑,0.41862150002270937,True,38,1
MG-M-33M33S1,211,experiment,52,↑,no_key,no_letter,-1.0,False,38,0
MG-M-33M33S1,212,experiment,62,↑,no_key,no_letter,-1.0,False,38,1
MG-M-33M33S1,213,experiment,104,←,no_key,no_letter,-1.0,False,38,1
MG-M-33M33S1,214,experiment,102,→,no_key,no_letter,-1.0,False,38,1
MG-M-33M33S1,215,experiment,53,←,no_key,no_letter,-1.0,False,38,1
MG-M-33M33S1,216,experiment,100,↓,down,↓,0.5551865000743419,True,38,1
MG-M-33M33S1,217,experiment,57,←,left,←,0.5217957000713795,True,38,1
MG-M-33M33S1,218,experiment,82,↑,no_key,no_letter,-1.0,False,38,1
MG-M-33M33S1,219,experiment,69,→,right,→,0.4339003001805395,True,38,1
MG-M-33M33S1,220,experiment,64,↑,no_key,no_letter,-1.0,False,38,0
MG-M-33M33S1,221,experiment,59,↓,down,↓,0.6312838001176715,True,38,1
MG-M-33M33S1,222,experiment,50,←,left,←,0.40081959986127913,True,38,1
MG-M-33M33S1,223,experiment,99,→,right,→,0.36742019979283214,True,38,0
MG-M-33M33S1,224,experiment,105,↓,right,→,0.5220264999661595,False,38,0
MG-M-33M33S1,225,experiment,95,↑,no_key,no_letter,-1.0,False,38,1
MG-M-33M33S1,226,experiment,58,↑,no_key,no_letter,-1.0,False,38,1
MG-M-33M33S1,227,experiment,96,←,left,←,0.367688300088048,True,38,1
MG-M-33M33S1,228,experiment,92,↓,no_key,no_letter,-1.0,False,38,0
MG-M-33M33S1,229,experiment,90,←,no_key,no_letter,-1.0,False,38,1
MG-M-33M33S1,230,training,61,↑,no_key,no_letter,-1.0,False,39,0
MG-M-33M33S1,231,training,96,↓,no_key,no_letter,-1.0,False,39,1
MG-M-33M33S1,232,experiment,54,→,no_key,no_letter,-1.0,False,39,1
MG-M-33M33S1,233,experiment,74,→,right,→,0.5736160001251847,True,39,1
MG-M-33M33S1,234,experiment,66,↑,up,↑,0.528924300102517,True,39,1
MG-M-33M33S1,235,experiment,50,→,right,→,0.4174244999885559,True,39,1
MG-M-33M33S1,236,experiment,75,↑,up,↑,0.47576699987985194,True,39,0
MG-M-33M33S1,237,experiment,81,←,no_key,no_letter,-1.0,False,39,0
MG-M-33M33S1,238,experiment,77,→,no_key,no_letter,-1.0,False,39,1
MG-M-33M33S1,239,experiment,51,←,left,←,0.5589812998659909,True,39,1
MG-M-33M33S1,240,experiment,89,↓,no_key,no_letter,-1.0,False,39,1
MG-M-33M33S1,241,experiment,91,↑,no_key,no_letter,-1.0,False,39,1
MG-M-33M33S1,242,experiment,98,↑,left,←,0.32579999999143183,False,39,1
MG-M-33M33S1,243,experiment,104,↑,up,↑,0.4599694001954049,True,39,0
MG-M-33M33S1,244,experiment,101,↑,no_key,no_letter,-1.0,False,39,0
MG-M-33M33S1,245,experiment,99,←,no_key,no_letter,-1.0,False,39,1
MG-M-33M33S1,246,experiment,48,→,no_key,no_letter,-1.0,False,39,1
MG-M-33M33S1,247,experiment,88,←,left,←,0.45050809998065233,True,39,1
MG-M-33M33S1,248,experiment,52,↑,up,↑,0.5710742000956088,True,39,0
MG-M-33M33S1,249,experiment,55,←,no_key,no_letter,-1.0,False,39,1
MG-M-33M33S1,250,experiment,61,←,left,←,0.4005468999966979,True,39,1
MG-M-33M33S1,251,experiment,107,↓,no_key,no_letter,-1.0,False,39,0
MG-M-33M33S1,252,experiment,83,←,no_key,no_letter,-1.0,False,39,1
MG-M-33M33S1,253,experiment,63,←,left,←,0.42577109998092055,True,39,1
MG-M-33M33S1,254,experiment,82,→,no_key,no_letter,-1.0,False,39,0
MG-M-33M33S1,255,experiment,68,↑,up,↑,0.572563299909234,True,39,1
MG-M-33M33S1,256,experiment,64,→,no_key,no_letter,-1.0,False,39,1
MG-M-33M33S1,257,experiment,96,↑,no_key,no_letter,-1.0,False,39,1
MG-M-33M33S1,258,experiment,106,↓,no_key,no_letter,-1.0,False,39,1
MG-M-33M33S1,259,experiment,71,←,left,←,0.5003172000870109,True,39,1
MG-M-33M33S1,260,experiment,67,→,no_key,no_letter,-1.0,False,39,1
MG-M-33M33S1,261,experiment,49,↑,no_key,no_letter,-1.0,False,39,1
MG-M-33M33S1,262,experiment,90,→,no_key,no_letter,-1.0,False,39,1
MG-M-33M33S1,263,experiment,85,↓,right,→,0.5830047000199556,False,39,1
MG-M-33M33S1,264,experiment,97,↑,no_key,no_letter,-1.0,False,39,1
MG-M-33M33S1,265,experiment,65,←,left,←,0.4972390001639724,True,39,1
MG-M-33M33S1,266,experiment,76,↓,down,↓,0.7149940000381321,True,39,1
MG-M-33M33S1,267,experiment,78,→,no_key,no_letter,-1.0,False,39,1
MG-M-33M33S1,268,experiment,73,→,right,→,0.41649460000917315,True,39,1
MG-M-33M33S1,269,experiment,58,→,no_key,no_letter,-1.0,False,39,0
MG-M-33M33S1,270,experiment,53,↓,down,↓,0.5495004998520017,True,39,1
MG-M-33M33S1,271,experiment,69,→,no_key,no_letter,-1.0,False,39,1
MG-M-33M33S1,272,experiment,79,→,no_key,no_letter,-1.0,False,39,1
MG-M-33M33S1,273,experiment,87,↓,no_key,no_letter,-1.0,False,39,1
MG-M-33M33S1,274,experiment,95,↑,up,↑,0.5285147000104189,True,39,1
MG-M-33M33S1,275,experiment,84,←,left,←,0.4423735998570919,True,39,1
MG-M-33M33S1,276,experiment,86,→,no_key,no_letter,-1.0,False,39,0
MG-M-33M33S1,277,experiment,100,↑,up,↑,0.591032600030303,True,39,1
MG-M-33M33S1,278,experiment,103,←,no_key,no_letter,-1.0,False,39,1
MG-M-33M33S1,279,experiment,57,↓,down,↓,0.6892171998042613,True,39,1
MG-M-33M33S1,280,experiment,80,↑,up,↑,0.5548068999778479,True,39,1
MG-M-33M33S1,281,experiment,56,→,no_key,no_letter,-1.0,False,39,1
MG-M-33M33S1,282,experiment,72,←,left,←,0.4006966999731958,True,39,1
MG-M-33M33S1,283,experiment,59,↓,no_key,no_letter,-1.0,False,39,0
MG-M-33M33S1,284,experiment,60,→,no_key,no_letter,-1.0,False,39,1
MG-M-33M33S1,285,experiment,62,→,no_key,no_letter,-1.0,False,39,1
MG-M-33M33S1,286,experiment,105,↑,no_key,no_letter,-1.0,False,39,1
MG-M-33M33S1,287,experiment,102,↑,no_key,no_letter,-1.0,False,39,1
MG-M-33M33S1,288,experiment,93,←,no_key,no_letter,-1.0,False,39,1
MG-M-33M33S1,289,experiment,94,→,right,→,0.42583200009539723,True,39,1
MG-M-33M33S1,290,experiment,92,↑,up,↑,0.5998827000148594,True,39,0
MG-M-33M33S1,291,experiment,108,↓,down,↓,0.6996070998720825,True,39,1
MG-M-33M33S1,292,experiment,70,↑,no_key,no_letter,-1.0,False,39,1
MG-M-33M33S1,293,training,75,↓,down,↓,0.6801583000924438,True,40,0
MG-M-33M33S1,294,training,60,←,left,←,0.5444665998220444,True,40,1
MG-M-33M33S1,295,experiment,92,←,no_key,no_letter,-1.0,False,40,1
MG-M-33M33S1,296,experiment,60,←,no_key,no_letter,-1.0,False,40,1
MG-M-33M33S1,297,experiment,96,←,no_key,no_letter,-1.0,False,40,1
MG-M-33M33S1,298,experiment,87,←,no_key,no_letter,-1.0,False,40,1
MG-M-33M33S1,299,experiment,84,←,no_key,no_letter,-1.0,False,40,1
MG-M-33M33S1,300,experiment,105,↑,no_key,no_letter,-1.0,False,40,1
MG-M-33M33S1,301,experiment,98,←,left,←,0.3426037998870015,True,40,1
MG-M-33M33S1,302,experiment,106,←,left,←,0.4090653001330793,True,40,0
MG-M-33M33S1,303,experiment,102,←,no_key,no_letter,-1.0,False,40,0
MG-M-33M33S1,304,experiment,49,↑,left,←,0.46788719994947314,False,40,1
MG-M-33M33S1,305,experiment,85,↑,no_key,no_letter,-1.0,False,40,0
MG-M-33M33S1,306,experiment,59,↓,down,↓,0.8150823002215475,True,40,1
MG-M-33M33S1,307,experiment,57,↑,no_key,no_letter,-1.0,False,40,1
MG-M-33M33S1,308,experiment,91,↑,no_key,no_letter,-1.0,False,40,1
MG-M-33M33S1,309,experiment,78,→,right,→,0.47585419984534383,True,40,1
MG-M-33M33S1,310,experiment,104,→,right,→,0.40083979978226125,True,40,0
MG-M-33M33S1,311,experiment,61,→,no_key,no_letter,-1.0,False,40,0
MG-M-33M33S1,312,experiment,80,↑,down,↓,0.4852007001172751,False,40,1
MG-M-33M33S1,313,experiment,70,↓,no_key,no_letter,-1.0,False,40,0
MG-M-33M33S1,314,experiment,69,→,no_key,no_letter,-1.0,False,40,1
MG-M-33M33S1,315,experiment,83,↓,right,→,0.3924420999828726,False,40,1
MG-M-33M33S1,316,experiment,53,↑,no_key,no_letter,-1.0,False,40,0
MG-M-33M33S1,317,experiment,58,→,no_key,no_letter,-1.0,False,40,1
MG-M-33M33S1,318,experiment,66,↑,down,↓,0.3841202000621706,False,40,1
MG-M-33M33S1,319,experiment,88,←,no_key,no_letter,-1.0,False,40,0
MG-M-33M33S1,320,experiment,65,→,no_key,no_letter,-1.0,False,40,1
MG-M-33M33S1,321,experiment,55,↓,no_key,no_letter,-1.0,False,40,1
MG-M-33M33S1,322,experiment,100,←,left,←,0.5924700000323355,True,40,1
MG-M-33M33S1,323,experiment,95,↓,no_key,no_letter,-1.0,False,40,1
MG-M-33M33S1,324,experiment,79,←,no_key,no_letter,-1.0,False,40,1
MG-M-33M33S1,325,experiment,97,↓,no_key,no_letter,-1.0,False,40,1
MG-M-33M33S1,326,experiment,101,→,right,→,0.4762699001003057,True,40,1
MG-M-33M33S1,327,experiment,52,→,no_key,no_letter,-1.0,False,40,0
MG-M-33M33S1,328,experiment,107,↑,no_key,no_letter,-1.0,False,40,1
MG-M-33M33S1,329,experiment,75,↓,no_key,no_letter,-1.0,False,40,1
MG-M-33M33S1,330,experiment,62,↑,no_key,no_letter,-1.0,False,40,1
MG-M-33M33S1,331,experiment,54,←,left,←,0.434440900105983,True,40,1
MG-M-33M33S1,332,experiment,56,↓,no_key,no_letter,-1.0,False,40,0
MG-M-33M33S1,333,experiment,99,→,no_key,no_letter,-1.0,False,40,1
MG-M-33M33S1,334,experiment,72,↓,left,←,0.3507213001139462,False,40,1
MG-M-33M33S1,335,experiment,76,↑,up,↑,0.5061385999433696,True,40,0
MG-M-33M33S1,336,experiment,77,←,no_key,no_letter,-1.0,False,40,0
MG-M-33M33S1,337,experiment,93,→,no_key,no_letter,-1.0,False,40,1
MG-M-33M33S1,338,experiment,67,→,no_key,no_letter,-1.0,False,40,1
MG-M-33M33S1,339,experiment,50,↑,no_key,no_letter,-1.0,False,40,1
MG-M-33M33S1,340,experiment,103,→,right,→,0.43507500016130507,True,40,1
MG-M-33M33S1,341,experiment,48,→,no_key,no_letter,-1.0,False,40,0
MG-M-33M33S1,342,experiment,74,↓,no_key,no_letter,-1.0,False,40,1
MG-M-33M33S1,343,experiment,94,↓,down,↓,0.5344559999648482,True,40,1
MG-M-33M33S1,344,experiment,68,←,no_key,no_letter,-1.0,False,40,1
MG-M-33M33S1,345,experiment,71,↓,down,↓,0.5060131999198347,True,40,1
MG-M-33M33S1,346,experiment,86,←,no_key,no_letter,-1.0,False,40,0
MG-M-33M33S1,347,experiment,81,↑,no_key,no_letter,-1.0,False,40,1
MG-M-33M33S1,348,experiment,82,→,right,→,0.4672697999048978,True,40,1
MG-M-33M33S1,349,experiment,89,↓,down,↓,0.5210315999574959,True,40,0
MG-M-33M33S1,350,experiment,63,→,no_key,no_letter,-1.0,False,40,1
MG-M-33M33S1,351,experiment,51,→,right,→,0.5329271999653429,True,40,1
MG-M-33M33S1,352,experiment,73,→,no_key,no_letter,-1.0,False,40,1
MG-M-33M33S1,353,experiment,108,→,right,→,0.39252610015682876,True,40,1
MG-M-33M33S1,354,experiment,90,→,right,→,0.5800600999500602,True,40,0
MG-M-33M33S1,355,experiment,64,↓,right,→,0.7755571999587119,False,40,1
MG-M-33M33S1,356,training,66,←,no_key,no_letter,-1.0,False,41,0
MG-M-33M33S1,357,training,77,←,left,←,0.425858800066635,True,41,1
MG-M-33M33S1,358,experiment,53,←,no_key,no_letter,-1.0,False,41,0
MG-M-33M33S1,359,experiment,107,↓,down,↓,0.5307217000517994,True,41,1
MG-M-33M33S1,360,experiment,90,↑,up,↑,0.4589016998652369,True,41,1
MG-M-33M33S1,361,experiment,99,→,right,→,0.7152859999332577,True,41,0
MG-M-33M33S1,362,experiment,62,→,right,→,0.4261982999742031,True,41,1
MG-M-33M33S1,363,experiment,81,↓,down,↓,0.5561246001161635,True,41,0
MG-M-33M33S1,364,experiment,97,↑,up,↑,0.5252060999628156,True,41,1
MG-M-33M33S1,365,experiment,52,→,right,→,0.4345335001125932,True,41,1
MG-M-33M33S1,366,experiment,66,←,no_key,no_letter,-1.0,False,41,0
MG-M-33M33S1,367,experiment,93,↓,down,↓,0.5671411000657827,True,41,1
MG-M-33M33S1,368,experiment,54,↓,down,↓,0.47545269993133843,True,41,1
MG-M-33M33S1,369,experiment,48,↑,no_key,no_letter,-1.0,False,41,0
MG-M-33M33S1,370,experiment,103,↓,no_key,no_letter,-1.0,False,41,1
MG-M-33M33S1,371,experiment,72,←,no_key,no_letter,-1.0,False,41,1
MG-M-33M33S1,372,experiment,59,←,no_key,no_letter,-1.0,False,41,1
MG-M-33M33S1,373,experiment,68,←,no_key,no_letter,-1.0,False,41,1
MG-M-33M33S1,374,experiment,80,←,no_key,no_letter,-1.0,False,41,1
MG-M-33M33S1,375,experiment,65,←,right,→,0.32692230003885925,False,41,1
MG-M-33M33S1,376,experiment,71,→,no_key,no_letter,-1.0,False,41,0
MG-M-33M33S1,377,experiment,55,←,left,←,0.4666064998600632,True,41,1
MG-M-33M33S1,378,experiment,95,↑,up,↑,0.4675085998605937,True,41,0
MG-M-33M33S1,379,experiment,85,↓,down,↓,0.5334022000897676,True,41,0
MG-M-33M33S1,380,experiment,101,→,no_key,no_letter,-1.0,False,41,1
MG-M-33M33S1,381,experiment,74,←,no_key,no_letter,-1.0,False,41,1
MG-M-33M33S1,382,experiment,69,←,no_key,no_letter,-1.0,False,41,1
MG-M-33M33S1,383,experiment,51,↑,no_key,no_letter,-1.0,False,41,1
MG-M-33M33S1,384,experiment,58,←,left,←,0.47598000010475516,True,41,1
MG-M-33M33S1,385,experiment,94,↓,no_key,no_letter,-1.0,False,41,0
MG-M-33M33S1,386,experiment,105,↓,no_key,no_letter,-1.0,False,41,1
MG-M-33M33S1,387,experiment,61,↓,right,→,0.6592934001237154,False,41,1
MG-M-33M33S1,388,experiment,89,↓,no_key,no_letter,-1.0,False,41,1
MG-M-33M33S1,389,experiment,77,↑,no_key,no_letter,-1.0,False,41,1
MG-M-33M33S1,390,experiment,73,↑,no_key,no_letter,-1.0,False,41,1
MG-M-33M33S1,391,experiment,75,←,no_key,no_letter,-1.0,False,41,1
MG-M-33M33S1,392,experiment,87,↑,no_key,no_letter,-1.0,False,41,1
MG-M-33M33S1,393,experiment,67,→,left,←,0.4840351000893861,False,41,1
MG-M-33M33S1,394,experiment,56,↑,no_key,no_letter,-1.0,False,41,0
MG-M-33M33S1,395,experiment,70,↓,down,↓,0.5141095998696983,True,41,1
MG-M-33M33S1,396,experiment,50,↓,down,↓,0.4677607000339776,True,41,0
MG-M-33M33S1,397,experiment,108,←,left,←,0.4926014000084251,True,41,0
MG-M-33M33S1,398,experiment,79,→,no_key,no_letter,-1.0,False,41,0
MG-M-33M33S1,399,experiment,64,↑,no_key,no_letter,-1.0,False,41,1
MG-M-33M33S1,400,experiment,83,←,no_key,no_letter,-1.0,False,41,1
MG-M-33M33S1,401,experiment,82,→,right,→,0.7514346998650581,True,41,1
MG-M-33M33S1,402,experiment,106,←,left,←,0.38381720008328557,True,41,1
MG-M-33M33S1,403,experiment,98,↑,no_key,no_letter,-1.0,False,41,0
MG-M-33M33S1,404,experiment,102,←,right,→,0.7702184999361634,False,41,1
MG-M-33M33S1,405,experiment,92,→,left,←,0.3924016000237316,False,41,1
MG-M-33M33S1,406,experiment,84,←,left,←,0.45882619987241924,True,41,0
MG-M-33M33S1,407,experiment,49,←,no_key,no_letter,-1.0,False,41,0
MG-M-33M33S1,408,experiment,91,→,right,→,0.38401679997332394,True,41,1
MG-M-33M33S1,409,experiment,78,←,no_key,no_letter,-1.0,False,41,0
MG-M-33M33S1,410,experiment,100,→,no_key,no_letter,-1.0,False,41,1
MG-M-33M33S1,411,experiment,57,→,right,→,0.4422238999977708,True,41,1
MG-M-33M33S1,412,experiment,60,↑,no_key,no_letter,-1.0,False,41,0
MG-M-33M33S1,413,experiment,96,↑,no_key,no_letter,-1.0,False,41,1
MG-M-33M33S1,414,experiment,76,←,no_key,no_letter,-1.0,False,41,1
MG-M-33M33S1,415,experiment,104,→,right,→,0.3508733999915421,True,41,1
MG-M-33M33S1,416,experiment,86,↑,up,↑,0.5261603998951614,True,41,0
MG-M-33M33S1,417,experiment,88,↑,no_key,no_letter,-1.0,False,41,1
MG-M-33M33S1,418,experiment,63,←,no_key,no_letter,-1.0,False,41,1
MG-M-33M33S1,419,training,55,←,no_key,no_letter,-1.0,False,42,0
MG-M-33M33S1,420,training,52,↓,no_key,no_letter,-1.0,False,42,1
MG-M-33M33S1,421,experiment,87,→,right,→,0.39198780013248324,True,42,1
MG-M-33M33S1,422,experiment,62,←,left,←,0.4340674998238683,True,42,0
MG-M-33M33S1,423,experiment,94,←,left,←,0.4087171999271959,True,42,0
MG-M-33M33S1,424,experiment,50,→,right,→,0.3841120998840779,True,42,0
MG-M-33M33S1,425,experiment,86,↑,up,↑,0.5010170000605285,True,42,0
MG-M-33M33S1,426,experiment,99,→,right,→,0.359187199966982,True,42,0
MG-M-33M33S1,427,experiment,56,↑,up,↑,0.4507464000489563,True,42,0
MG-M-33M33S1,428,experiment,82,↑,up,↑,0.48395940009504557,True,42,0
MG-M-33M33S1,429,experiment,59,→,no_key,no_letter,-1.0,False,42,0
MG-M-33M33S1,430,experiment,71,↑,no_key,no_letter,-1.0,False,42,1
MG-M-33M33S1,431,experiment,49,↑,no_key,no_letter,-1.0,False,42,1
MG-M-33M33S1,432,experiment,66,↑,no_key,no_letter,-1.0,False,42,1
MG-M-33M33S1,433,experiment,75,→,right,→,0.45100699993781745,True,42,1
MG-M-33M33S1,434,experiment,103,←,left,←,0.40941570000723004,True,42,0
MG-M-33M33S1,435,experiment,105,↓,down,↓,0.5253840999212116,True,42,0
MG-M-33M33S1,436,experiment,90,→,no_key,no_letter,-1.0,False,42,1
MG-M-33M33S1,437,experiment,54,↑,no_key,no_letter,-1.0,False,42,1
MG-M-33M33S1,438,experiment,101,→,right,→,0.7469933999236673,True,42,1
MG-M-33M33S1,439,experiment,96,→,right,→,0.43385499995201826,True,42,1
MG-M-33M33S1,440,experiment,85,↑,no_key,no_letter,-1.0,False,42,0
MG-M-33M33S1,441,experiment,107,↓,down,↓,0.5376492999494076,True,42,1
MG-M-33M33S1,442,experiment,83,→,right,→,0.40940339979715645,True,42,1
MG-M-33M33S1,443,experiment,80,↑,no_key,no_letter,-1.0,False,42,0
MG-M-33M33S1,444,experiment,77,←,right,→,0.5455040000379086,False,42,1
MG-M-33M33S1,445,experiment,52,↓,no_key,no_letter,-1.0,False,42,1
MG-M-33M33S1,446,experiment,84,↓,down,↓,0.5488677001558244,True,42,1
MG-M-33M33S1,447,experiment,65,↓,down,↓,0.40179289993830025,True,42,1
MG-M-33M33S1,448,experiment,95,↑,down,↓,0.49261899990960956,False,42,0
MG-M-33M33S1,449,experiment,97,↓,no_key,no_letter,-1.0,False,42,0
MG-M-33M33S1,450,experiment,69,←,no_key,no_letter,-1.0,False,42,1
MG-M-33M33S1,451,experiment,70,→,no_key,no_letter,-1.0,False,42,1
MG-M-33M33S1,452,experiment,89,←,left,←,0.459878999972716,True,42,1
MG-M-33M33S1,453,experiment,78,→,right,→,0.5271064999978989,True,42,0
MG-M-33M33S1,454,experiment,72,↑,no_key,no_letter,-1.0,False,42,1
MG-M-33M33S1,455,experiment,63,→,no_key,no_letter,-1.0,False,42,1
MG-M-33M33S1,456,experiment,76,→,no_key,no_letter,-1.0,False,42,1
MG-M-33M33S1,457,experiment,88,↑,no_key,no_letter,-1.0,False,42,1
MG-M-33M33S1,458,experiment,64,←,left,←,0.41787660005502403,True,42,1
MG-M-33M33S1,459,experiment,73,↓,no_key,no_letter,-1.0,False,42,0
MG-M-33M33S1,460,experiment,104,↓,no_key,no_letter,-1.0,False,42,1
MG-M-33M33S1,461,experiment,102,↑,no_key,no_letter,-1.0,False,42,1
MG-M-33M33S1,462,experiment,100,→,no_key,no_letter,-1.0,False,42,1
MG-M-33M33S1,463,experiment,81,↓,no_key,no_letter,-1.0,False,42,1
MG-M-33M33S1,464,experiment,57,↑,no_key,no_letter,-1.0,False,42,1
MG-M-33M33S1,465,experiment,53,←,left,←,0.3592282999306917,True,42,1
MG-M-33M33S1,466,experiment,106,↓,no_key,no_letter,-1.0,False,42,1
MG-M-33M33S1,467,experiment,55,→,right,→,0.38409790000878274,True,42,1
MG-M-33M33S1,468,experiment,74,←,left,←,0.43404889991506934,True,42,0
MG-M-33M33S1,469,experiment,98,←,left,←,0.4590738997794688,True,42,0
MG-M-33M33S1,470,experiment,60,→,right,→,0.5003978000022471,True,42,0
MG-M-33M33S1,471,experiment,68,→,right,→,0.9458641998935491,True,42,0
MG-M-33M33S1,472,experiment,108,↑,no_key,no_letter,-1.0,False,42,1
MG-M-33M33S1,473,experiment,61,↓,no_key,no_letter,-1.0,False,42,1
MG-M-33M33S1,474,experiment,79,↓,left,←,0.590406599920243,False,42,1
MG-M-33M33S1,475,experiment,91,→,right,→,0.7040933000389487,True,42,1
MG-M-33M33S1,476,experiment,58,↓,no_key,no_letter,-1.0,False,42,1
MG-M-33M33S1,477,experiment,67,↑,up,↑,0.7688994999043643,True,42,1
MG-M-33M33S1,478,experiment,51,↓,no_key,no_letter,-1.0,False,42,1
MG-M-33M33S1,479,experiment,92,↑,up,↑,0.657145099947229,True,42,1
MG-M-33M33S1,480,experiment,93,↓,down,↓,0.8792752001900226,True,42,1
MG-M-33M33S1,481,experiment,48,↑,up,↑,0.46106200013309717,True,42,1
MG-M-33M33S1,482,training,90,→,up,↑,0.6592991999350488,False,43,0
MG-M-33M33S1,483,training,87,↑,up,↑,0.6436344000976533,True,43,1
MG-M-33M33S1,484,experiment,63,←,left,←,0.3761820998042822,True,43,1
MG-M-33M33S1,485,experiment,61,↑,down,↓,0.7771999998949468,False,43,0
MG-M-33M33S1,486,experiment,80,↑,right,→,0.8788917001802474,False,43,1
MG-M-33M33S1,487,experiment,105,→,right,→,0.4096784999128431,True,43,1
MG-M-33M33S1,488,experiment,100,↓,down,↓,0.6378923000302166,True,43,0
MG-M-33M33S1,489,experiment,74,→,right,→,0.707512800116092,True,43,1
MG-M-33M33S1,490,experiment,68,→,right,→,0.3672080000396818,True,43,1
MG-M-33M33S1,491,experiment,79,←,left,←,0.32666410016827285,True,43,0
MG-M-33M33S1,492,experiment,49,↓,down,↓,0.5516902001108974,True,43,0
MG-M-33M33S1,493,experiment,90,→,right,→,0.4424437000416219,True,43,1
MG-M-33M33S1,494,experiment,51,↑,down,↓,0.6963031999766827,False,43,0
MG-M-33M33S1,495,experiment,87,↑,no_key,no_letter,-1.0,False,43,1
MG-M-33M33S1,496,experiment,58,←,right,→,0.3100201999768615,False,43,1
MG-M-33M33S1,497,experiment,59,←,no_key,no_letter,-1.0,False,43,0
MG-M-33M33S1,498,experiment,76,↑,left,←,0.32713799993507564,False,43,1
MG-M-33M33S1,499,experiment,57,↓,down,↓,0.5558903000783175,True,43,0
MG-M-33M33S1,500,experiment,102,→,right,→,0.5473573999479413,True,43,1
MG-M-33M33S1,501,experiment,71,←,left,←,0.44235519994981587,True,43,1
MG-M-33M33S1,502,experiment,84,↑,down,↓,0.5914616000372916,False,43,0
MG-M-33M33S1,503,experiment,86,←,left,←,0.4433214000891894,True,43,1
MG-M-33M33S1,504,experiment,75,→,right,→,0.5348785000387579,True,43,0
MG-M-33M33S1,505,experiment,95,→,right,→,0.5776474999729544,True,43,0
MG-M-33M33S1,506,experiment,67,→,right,→,0.6358877001330256,True,43,1
MG-M-33M33S1,507,experiment,53,←,no_key,no_letter,-1.0,False,43,1
MG-M-33M33S1,508,experiment,106,↓,down,↓,0.6199917001649737,True,43,1
MG-M-33M33S1,509,experiment,98,↑,right,→,0.45916710002347827,False,43,1
MG-M-33M33S1,510,experiment,48,↓,down,↓,0.536524600116536,True,43,0
MG-M-33M33S1,511,experiment,82,→,right,→,0.3504892000928521,True,43,1
MG-M-33M33S1,512,experiment,60,↑,up,↑,0.7316582000348717,True,43,0
MG-M-33M33S1,513,experiment,85,↓,no_key,no_letter,-1.0,False,43,1
MG-M-33M33S1,514,experiment,104,→,right,→,0.3763394998386502,True,43,1
MG-M-33M33S1,515,experiment,64,→,right,→,0.3757425001822412,True,43,0
MG-M-33M33S1,516,experiment,52,→,right,→,0.6794755000155419,True,43,0
MG-M-33M33S1,517,experiment,101,↓,down,↓,0.5301882999483496,True,43,1
MG-M-33M33S1,518,experiment,103,←,right,→,0.4671786001417786,False,43,0
MG-M-33M33S1,519,experiment,97,→,right,→,0.5352474001701921,True,43,0
MG-M-33M33S1,520,experiment,66,↓,down,↓,0.6671476000919938,True,43,1
MG-M-33M33S1,521,experiment,88,↓,down,↓,0.4432791001163423,True,43,1
MG-M-33M33S1,522,experiment,50,↑,up,↑,0.599354499951005,True,43,0
MG-M-33M33S1,523,experiment,99,↓,down,↓,0.5578968001063913,True,43,1
MG-M-33M33S1,524,experiment,70,↓,down,↓,0.42533160001039505,True,43,1
MG-M-33M33S1,525,experiment,55,←,right,→,0.7560453000478446,False,43,0
MG-M-33M33S1,526,experiment,73,→,no_key,no_letter,-1.0,False,43,1
MG-M-33M33S1,527,experiment,89,←,left,←,0.5269294001627713,True,43,1
MG-M-33M33S1,528,experiment,92,→,no_key,no_letter,-1.0,False,43,0
MG-M-33M33S1,529,experiment,83,↑,right,→,0.3507809001021087,False,43,1
MG-M-33M33S1,530,experiment,54,↑,up,↑,0.5559884000103921,True,43,0
MG-M-33M33S1,531,experiment,96,↑,up,↑,0.4081355999223888,True,43,1
MG-M-33M33S1,532,experiment,94,↑,up,↑,0.5010288001503795,True,43,0
MG-M-33M33S1,533,experiment,91,→,no_key,no_letter,-1.0,False,43,0
MG-M-33M33S1,534,experiment,77,←,right,→,0.4756014999002218,False,43,1
MG-M-33M33S1,535,experiment,56,↑,up,↑,0.5374936000443995,True,43,0
MG-M-33M33S1,536,experiment,78,→,right,→,0.5082972999662161,True,43,1
MG-M-33M33S1,537,experiment,108,←,right,→,0.5281400999519974,False,43,0
MG-M-33M33S1,538,experiment,107,→,right,→,0.44172370014712214,True,43,0
MG-M-33M33S1,539,experiment,62,↑,no_key,no_letter,-1.0,False,43,0
MG-M-33M33S1,540,experiment,81,↓,down,↓,0.45958330016583204,True,43,1
MG-M-33M33S1,541,experiment,69,←,right,→,0.561348999850452,False,43,0
MG-M-33M33S1,542,experiment,72,→,right,→,0.5863665000069886,True,43,1
MG-M-33M33S1,543,experiment,65,←,no_key,no_letter,-1.0,False,43,1
MG-M-33M33S1,544,experiment,93,↑,no_key,no_letter,-1.0,False,43,1
MG-M-33M33S1,545,training,108,→,no_key,no_letter,-1.0,False,43,0
MG-M-33M33S1,546,training,49,↓,down,↓,0.6873981999233365,True,43,1
MG-M-33M33S1,547,experiment,89,→,right,→,0.7657083999365568,True,43,1
MG-M-33M33S1,548,experiment,59,→,right,→,0.4340381999500096,True,43,1
MG-M-33M33S1,549,experiment,69,→,right,→,0.3256212999112904,True,43,0
MG-M-33M33S1,550,experiment,50,↑,no_key,no_letter,-1.0,False,43,0
MG-M-33M33S1,551,experiment,98,↑,no_key,no_letter,-1.0,False,43,1
MG-M-33M33S1,552,experiment,64,←,no_key,no_letter,-1.0,False,43,1
MG-M-33M33S1,553,experiment,58,↑,right,→,0.4009347001556307,False,43,1
MG-M-33M33S1,554,experiment,63,←,left,←,0.6636274999473244,True,43,0
MG-M-33M33S1,555,experiment,77,→,no_key,no_letter,-1.0,False,43,1
MG-M-33M33S1,556,experiment,108,←,left,←,0.44176310021430254,True,43,1
MG-M-33M33S1,557,experiment,80,←,right,→,0.4099705999251455,False,43,0
MG-M-33M33S1,558,experiment,72,←,left,←,0.47571050003170967,True,43,0
MG-M-33M33S1,559,experiment,48,↓,down,↓,0.7956378997769207,True,43,0
MG-M-33M33S1,560,experiment,104,↓,no_key,no_letter,-1.0,False,43,1
MG-M-33M33S1,561,experiment,52,→,no_key,no_letter,-1.0,False,43,1
MG-M-33M33S1,562,experiment,70,↓,left,←,0.3436826001852751,False,43,1
MG-M-33M33S1,563,experiment,81,→,right,→,0.6440143999643624,True,43,0
MG-M-33M33S1,564,experiment,57,←,no_key,no_letter,-1.0,False,43,1
MG-M-33M33S1,565,experiment,96,↓,down,↓,0.5009547998197377,True,43,1
MG-M-33M33S1,566,experiment,102,→,right,→,0.4756886998657137,True,43,0
MG-M-33M33S1,567,experiment,97,↓,down,↓,0.6752261000219733,True,43,0
MG-M-33M33S1,568,experiment,82,↑,up,↑,0.4757618000730872,True,43,1
MG-M-33M33S1,569,experiment,62,→,right,→,0.6518707999493927,True,43,0
MG-M-33M33S1,570,experiment,53,↑,up,↑,0.4757112998049706,True,43,1
MG-M-33M33S1,571,experiment,49,←,left,←,0.7404811999294907,True,43,0
MG-M-33M33S1,572,experiment,83,↓,right,→,0.5088857000228018,False,43,1
MG-M-33M33S1,573,experiment,51,↑,no_key,no_letter,-1.0,False,43,0
MG-M-33M33S1,574,experiment,68,↑,right,→,0.3017950998619199,False,43,1
MG-M-33M33S1,575,experiment,55,←,left,←,0.6677218999247998,True,43,0
MG-M-33M33S1,576,experiment,87,↓,down,↓,0.4766277000308037,True,43,1
MG-M-33M33S1,577,experiment,93,↑,up,↑,0.4338977001607418,True,43,0
MG-M-33M33S1,578,experiment,95,→,right,→,0.5753413001075387,True,43,0
MG-M-33M33S1,579,experiment,99,↑,up,↑,0.43403830006718636,True,43,1
MG-M-33M33S1,580,experiment,106,←,right,→,0.49259430007077754,False,43,0
MG-M-33M33S1,581,experiment,65,→,no_key,no_letter,-1.0,False,43,0
MG-M-33M33S1,582,experiment,56,→,right,→,0.43397080013528466,True,43,1
MG-M-33M33S1,583,experiment,107,→,right,→,0.32679600012488663,True,43,0
MG-M-33M33S1,584,experiment,100,←,right,→,0.367330800043419,False,43,0
MG-M-33M33S1,585,experiment,86,↓,no_key,no_letter,-1.0,False,43,0
MG-M-33M33S1,586,experiment,74,→,right,→,0.4090718999505043,True,43,1
MG-M-33M33S1,587,experiment,91,↑,up,↑,0.4588313999120146,True,43,0
MG-M-33M33S1,588,experiment,90,→,right,→,0.711882600095123,True,43,0
MG-M-33M33S1,589,experiment,103,←,left,←,0.5929116001352668,True,43,1
MG-M-33M33S1,590,experiment,78,↑,up,↑,0.6309226001612842,True,43,1
MG-M-33M33S1,591,experiment,101,←,no_key,no_letter,-1.0,False,43,1
MG-M-33M33S1,592,experiment,76,↓,up,↑,0.5449099999386817,False,43,1
MG-M-33M33S1,593,experiment,84,↑,up,↑,0.6227490999735892,True,43,1
MG-M-33M33S1,594,experiment,67,←,left,←,0.5592797000426799,True,43,1
MG-M-33M33S1,595,experiment,66,↑,up,↑,0.4598745999392122,True,43,1
MG-M-33M33S1,596,experiment,75,↑,up,↑,0.4173749000765383,True,43,0
MG-M-33M33S1,597,experiment,92,↑,up,↑,0.6622359999455512,True,43,0
MG-M-33M33S1,598,experiment,94,←,left,←,0.6607415999751538,True,43,1
MG-M-33M33S1,599,experiment,54,↓,down,↓,0.484114799881354,True,43,1
MG-M-33M33S1,600,experiment,61,→,right,→,0.45076670008711517,True,43,0
MG-M-33M33S1,601,experiment,79,→,right,→,0.7067735998425633,True,43,0
MG-M-33M33S1,602,experiment,60,←,left,←,0.6581534999422729,True,43,1
MG-M-33M33S1,603,experiment,73,↑,up,↑,0.647180600091815,True,43,1
MG-M-33M33S1,604,experiment,105,↑,up,↑,0.5620239998679608,True,43,1
MG-M-33M33S1,605,experiment,85,↑,up,↑,0.7669007999356836,True,43,1
MG-M-33M33S1,606,experiment,71,↑,up,↑,0.44226019992493093,True,43,1
MG-M-33M33S1,607,experiment,88,↓,right,→,0.7530922999139875,False,43,0
MG-M-33M33S1,608,training,61,↓,down,↓,0.4584064001683146,True,43,0
MG-M-33M33S1,609,training,67,↑,right,→,0.4339868000242859,False,43,0
MG-M-33M33S1,610,experiment,54,↓,down,↓,0.5867251001764089,True,43,0
MG-M-33M33S1,611,experiment,69,↓,up,↑,0.6841549000237137,False,43,1
MG-M-33M33S1,612,experiment,82,↑,up,↑,0.6133016999810934,True,43,1
MG-M-33M33S1,613,experiment,60,→,right,→,0.45897149993106723,True,43,1
MG-M-33M33S1,614,experiment,55,→,right,→,0.5007962000090629,True,43,0
MG-M-33M33S1,615,experiment,93,↓,down,↓,0.7195023000240326,True,43,0
MG-M-33M33S1,616,experiment,86,↑,up,↑,0.58982800017111,True,43,1
MG-M-33M33S1,617,experiment,56,←,left,←,0.43413670011796057,True,43,1
MG-M-33M33S1,618,experiment,95,↑,no_key,no_letter,-1.0,False,43,0
MG-M-33M33S1,619,experiment,78,↓,down,↓,0.5088811998721212,True,43,1
MG-M-33M33S1,620,experiment,100,↑,up,↑,0.6159701000433415,True,43,0
MG-M-33M33S1,621,experiment,75,→,right,→,0.46734119998291135,True,43,1
MG-M-33M33S1,622,experiment,80,↑,up,↑,0.43394030001945794,True,43,0
MG-M-33M33S1,623,experiment,87,→,right,→,0.5616367000620812,True,43,0
MG-M-33M33S1,624,experiment,97,↑,up,↑,0.5944026000797749,True,43,1
MG-M-33M33S1,625,experiment,106,→,right,→,0.4838511000853032,True,43,1
MG-M-33M33S1,626,experiment,81,→,right,→,0.4257203000597656,True,43,0
MG-M-33M33S1,627,experiment,79,↑,up,↑,0.5401542999316007,True,43,0
MG-M-33M33S1,628,experiment,85,→,right,→,0.35917180008254945,True,43,1
MG-M-33M33S1,629,experiment,83,→,right,→,0.4173130998387933,True,43,0
MG-M-33M33S1,630,experiment,73,↓,up,↑,0.5418267999775708,False,43,0
MG-M-33M33S1,631,experiment,72,↑,up,↑,0.7197873000986874,True,43,1
MG-M-33M33S1,632,experiment,48,←,right,→,0.6509787000250071,False,43,1
MG-M-33M33S1,633,experiment,70,↓,down,↓,0.49240440013818443,True,43,1
MG-M-33M33S1,634,experiment,76,↓,down,↓,0.4338456999976188,True,43,0
MG-M-33M33S1,635,experiment,101,↓,no_key,no_letter,-1.0,False,43,0
MG-M-33M33S1,636,experiment,51,→,right,→,0.44241430005058646,True,43,1
MG-M-33M33S1,637,experiment,53,↓,no_key,no_letter,-1.0,False,43,0
MG-M-33M33S1,638,experiment,74,←,left,←,0.671632899902761,True,43,1
MG-M-33M33S1,639,experiment,108,↓,down,↓,0.9602449999656528,True,43,1
MG-M-33M33S1,640,experiment,94,↓,right,→,0.4351152000017464,False,43,1
MG-M-33M33S1,641,experiment,102,↑,down,↓,0.7339016997721046,False,43,0
MG-M-33M33S1,642,experiment,59,↓,up,↑,0.5016681000124663,False,43,1
MG-M-33M33S1,643,experiment,91,↓,down,↓,0.617934999987483,True,43,0
MG-M-33M33S1,644,experiment,63,↑,up,↑,0.45081380009651184,True,43,1
MG-M-33M33S1,645,experiment,104,↑,up,↑,0.6140944000799209,True,43,0
MG-M-33M33S1,646,experiment,77,↓,down,↓,0.6993699001614004,True,43,1
MG-M-33M33S1,647,experiment,71,→,right,→,0.5093595001380891,True,43,1
MG-M-33M33S1,648,experiment,92,↓,right,→,0.50105269998312,False,43,0
MG-M-33M33S1,649,experiment,84,→,right,→,0.42536800005473197,True,43,0
MG-M-33M33S1,650,experiment,99,←,left,←,0.6328930000308901,True,43,0
MG-M-33M33S1,651,experiment,58,↑,up,↑,0.643732100026682,True,43,1
MG-M-33M33S1,652,experiment,105,←,left,←,0.7583574999589473,True,43,1
MG-M-33M33S1,653,experiment,103,↑,no_key,no_letter,-1.0,False,43,1
MG-M-33M33S1,654,experiment,89,→,right,→,0.6464932002127171,True,43,1
MG-M-33M33S1,655,experiment,67,←,left,←,0.3926703999750316,True,43,1
MG-M-33M33S1,656,experiment,64,↓,down,↓,0.648439500015229,True,43,0
MG-M-33M33S1,657,experiment,57,↑,down,↓,0.57147889980115,False,43,1
MG-M-33M33S1,658,experiment,50,↓,no_key,no_letter,-1.0,False,43,1
MG-M-33M33S1,659,experiment,88,←,no_key,no_letter,-1.0,False,43,1
MG-M-33M33S1,660,experiment,107,→,right,→,0.7356257999781519,True,43,1
MG-M-33M33S1,661,experiment,49,→,left,←,0.5454927000682801,False,43,1
MG-M-33M33S1,662,experiment,96,↑,up,↑,0.6431791998911649,True,43,1
MG-M-33M33S1,663,experiment,65,←,left,←,0.5395018998533487,True,43,1
MG-M-33M33S1,664,experiment,61,→,right,→,0.45054190000519156,True,43,1
MG-M-33M33S1,665,experiment,62,↓,down,↓,0.6020831000059843,True,43,0
MG-M-33M33S1,666,experiment,68,↓,down,↓,0.4092792998999357,True,43,1
MG-M-33M33S1,667,experiment,52,→,right,→,0.4672018000856042,True,43,0
MG-M-33M33S1,668,experiment,90,←,left,←,0.5437538002151996,True,43,0
MG-M-33M33S1,669,experiment,98,←,no_key,no_letter,-1.0,False,43,1
MG-M-33M33S1,670,experiment,66,↑,no_key,no_letter,-1.0,False,43,1
MG-M-33M33S1,671,training,70,↑,right,→,0.7631373000331223,False,43,0
MG-M-33M33S1,672,training,79,←,left,←,0.46740319998934865,True,43,1
MG-M-33M33S1,673,experiment,90,↑,up,↑,0.5763421000447124,True,43,0
MG-M-33M33S1,674,experiment,98,←,left,←,0.492300899932161,True,43,1
MG-M-33M33S1,675,experiment,97,→,right,→,0.5324937999248505,True,43,0
MG-M-33M33S1,676,experiment,101,↑,no_key,no_letter,-1.0,False,43,1
MG-M-33M33S1,677,experiment,106,↑,up,↑,0.5007805998902768,True,43,1
MG-M-33M33S1,678,experiment,105,↓,down,↓,0.484035300090909,True,43,0
MG-M-33M33S1,679,experiment,85,←,right,→,0.49246140010654926,False,43,0
MG-M-33M33S1,680,experiment,70,←,left,←,0.5399999001529068,True,43,0
MG-M-33M33S1,681,experiment,95,↓,left,←,0.5349055998958647,False,43,1
MG-M-33M33S1,682,experiment,68,←,down,↓,0.6495403000153601,False,43,1
MG-M-33M33S1,683,experiment,82,↑,down,↓,0.6440306000877172,False,43,1
MG-M-33M33S1,684,experiment,52,↑,up,↑,0.4506624999921769,True,43,1
MG-M-33M33S1,685,experiment,80,←,left,←,0.6676884999033064,True,43,0
MG-M-33M33S1,686,experiment,55,↓,down,↓,0.5981926000677049,True,43,1
MG-M-33M33S1,687,experiment,58,→,right,→,0.5004953998140991,True,43,1
MG-M-33M33S1,688,experiment,84,↑,up,↑,0.7700013997964561,True,43,0
MG-M-33M33S1,689,experiment,67,←,left,←,0.5414417001884431,True,43,1
MG-M-33M33S1,690,experiment,107,↓,down,↓,0.9551382998470217,True,43,1
MG-M-33M33S1,691,experiment,74,↑,up,↑,0.5797726998571306,True,43,1
MG-M-33M33S1,692,experiment,87,↓,down,↓,0.6231643999926746,True,43,1
MG-M-33M33S1,693,experiment,65,→,right,→,0.5603388999588788,True,43,1
MG-M-33M33S1,694,experiment,103,↓,down,↓,0.6393108998890966,True,43,1
MG-M-33M33S1,695,experiment,51,↓,down,↓,0.5015819000545889,True,43,1
MG-M-33M33S1,696,experiment,56,↓,up,↑,0.6289847001899034,False,43,0
MG-M-33M33S1,697,experiment,88,↑,up,↑,0.7101835999637842,True,43,1
MG-M-33M33S1,698,experiment,76,↑,no_key,no_letter,-1.0,False,43,1
MG-M-33M33S1,699,experiment,66,←,left,←,0.4928954001516104,True,43,1
MG-M-33M33S1,700,experiment,50,←,left,←,0.43383540003560483,True,43,0
MG-M-33M33S1,701,experiment,96,←,right,→,0.509218699997291,False,43,0
MG-M-33M33S1,702,experiment,59,→,right,→,0.42647350020706654,True,43,0
MG-M-33M33S1,703,experiment,89,→,left,←,0.5776972998864949,False,43,0
MG-M-33M33S1,704,experiment,94,←,left,←,0.7951283999718726,True,43,1
MG-M-33M33S1,705,experiment,78,→,right,→,0.39259930001571774,True,43,1
MG-M-33M33S1,706,experiment,64,↑,up,↑,0.45917210006155074,True,43,1
MG-M-33M33S1,707,experiment,81,→,right,→,0.5497647998854518,True,43,0
MG-M-33M33S1,708,experiment,61,←,left,←,0.46815300011076033,True,43,1
MG-M-33M33S1,709,experiment,62,↑,no_key,no_letter,-1.0,False,43,0
MG-M-33M33S1,710,experiment,57,→,right,→,0.647008900064975,True,43,1
MG-M-33M33S1,711,experiment,93,↑,up,↑,0.6854240000247955,True,43,1
MG-M-33M33S1,712,experiment,71,←,left,←,0.4342057001776993,True,43,1
MG-M-33M33S1,713,experiment,53,←,left,←,0.6226493001449853,True,43,0
MG-M-33M33S1,714,experiment,77,→,right,→,0.34316690010018647,True,43,1
MG-M-33M33S1,715,experiment,60,←,left,←,0.5532426000572741,True,43,0
MG-M-33M33S1,716,experiment,91,↓,no_key,no_letter,-1.0,False,43,1
MG-M-33M33S1,717,experiment,54,←,right,→,0.400385299930349,False,43,1
MG-M-33M33S1,718,experiment,72,←,left,←,0.6323361999820918,True,43,0
MG-M-33M33S1,719,experiment,99,←,left,←,0.3593481001444161,True,43,1
MG-M-33M33S1,720,experiment,75,→,right,→,0.4926696000620723,True,43,0
MG-M-33M33S1,721,experiment,100,↑,right,→,0.31743789999745786,False,43,0
MG-M-33M33S1,722,experiment,86,↑,up,↑,0.5809277000371367,True,43,0
MG-M-33M33S1,723,experiment,83,↓,no_key,no_letter,-1.0,False,43,1
MG-M-33M33S1,724,experiment,69,↑,up,↑,0.8651743999216706,True,43,1
MG-M-33M33S1,725,experiment,49,←,no_key,no_letter,-1.0,False,43,1
MG-M-33M33S1,726,experiment,79,→,right,→,0.45953989983536303,True,43,1
MG-M-33M33S1,727,experiment,48,←,left,←,0.4424485999625176,True,43,0
MG-M-33M33S1,728,experiment,63,↓,right,→,0.5837085999082774,False,43,0
MG-M-33M33S1,729,experiment,73,←,left,←,0.5759625998325646,True,43,1
MG-M-33M33S1,730,experiment,92,→,right,→,0.47572019998915493,True,43,1
MG-M-33M33S1,731,experiment,104,↓,down,↓,0.4174092998728156,True,43,0
MG-M-33M33S1,732,experiment,102,↓,down,↓,0.5005824000108987,True,43,0
MG-M-33M33S1,733,experiment,108,↑,no_key,no_letter,-1.0,False,43,0
MG-M-33M33S1,734,training,53,←,right,→,0.5586407999508083,False,43,0
MG-M-33M33S1,735,training,101,→,right,→,0.3185342999640852,True,43,1
MG-M-33M33S1,736,experiment,80,↓,down,↓,0.6289598001167178,True,43,0
MG-M-33M33S1,737,experiment,48,→,right,→,0.4591068997979164,True,43,1
MG-M-33M33S1,738,experiment,70,↑,up,↑,0.46905869990587234,True,43,0
MG-M-33M33S1,739,experiment,84,←,left,←,0.5542313000187278,True,43,0
MG-M-33M33S1,740,experiment,59,↑,up,↑,0.44240579986944795,True,43,1
MG-M-33M33S1,741,experiment,68,↑,up,↑,0.5590986998286098,True,43,0
MG-M-33M33S1,742,experiment,93,←,left,←,0.3668964998796582,True,43,1
MG-M-33M33S1,743,experiment,67,→,right,→,0.4088868999388069,True,43,0
MG-M-33M33S1,744,experiment,75,→,no_key,no_letter,-1.0,False,43,0
MG-M-33M33S1,745,experiment,83,←,no_key,no_letter,-1.0,False,43,1
MG-M-33M33S1,746,experiment,62,→,right,→,0.6625544999260455,True,43,1
MG-M-33M33S1,747,experiment,82,↑,up,↑,0.6964505999349058,True,43,1
MG-M-33M33S1,748,experiment,99,↑,up,↑,0.4173870000522584,True,43,1
MG-M-33M33S1,749,experiment,63,→,left,←,0.6052707000635564,False,43,0
MG-M-33M33S1,750,experiment,56,←,left,←,0.5008052000775933,True,43,1
MG-M-33M33S1,751,experiment,104,↑,no_key,no_letter,-1.0,False,43,0
MG-M-33M33S1,752,experiment,69,←,left,←,0.4350115000270307,True,43,1
MG-M-33M33S1,753,experiment,107,↑,up,↑,0.48504019994288683,True,43,0
MG-M-33M33S1,754,experiment,89,↓,down,↓,0.5541866000276059,True,43,0
MG-M-33M33S1,755,experiment,74,→,right,→,0.6431721998378634,True,43,1
MG-M-33M33S1,756,experiment,71,↑,up,↑,0.4180117999203503,True,43,1
MG-M-33M33S1,757,experiment,87,↓,down,↓,0.5307209000457078,True,43,0
MG-M-33M33S1,758,experiment,100,↑,up,↑,0.9398314000573009,True,43,0
MG-M-33M33S1,759,experiment,50,→,right,→,0.6451353000011295,True,43,1
MG-M-33M33S1,760,experiment,97,←,left,←,0.5713353999890387,True,43,1
MG-M-33M33S1,761,experiment,92,↓,down,↓,0.4842487000860274,True,43,1
MG-M-33M33S1,762,experiment,85,↓,down,↓,0.5887418000493199,True,43,0
MG-M-33M33S1,763,experiment,95,↑,up,↑,0.48408700013533235,True,43,1
MG-M-33M33S1,764,experiment,108,↑,up,↑,0.6372001999989152,True,43,0
MG-M-33M33S1,765,experiment,102,↓,down,↓,0.649718499975279,True,43,1
MG-M-33M33S1,766,experiment,79,→,right,→,0.6128130001015961,True,43,1
MG-M-33M33S1,767,experiment,105,↓,down,↓,0.6487803999334574,True,43,1
MG-M-33M33S1,768,experiment,61,↓,down,↓,0.45936509990133345,True,43,1
MG-M-33M33S1,769,experiment,94,→,right,→,0.4916368001140654,True,43,0
MG-M-33M33S1,770,experiment,51,→,right,→,0.4176137000322342,True,43,0
MG-M-33M33S1,771,experiment,55,↑,up,↑,0.5511548998765647,True,43,0
MG-M-33M33S1,772,experiment,101,←,right,→,0.5276470000389963,False,43,1
MG-M-33M33S1,773,experiment,91,↓,down,↓,0.5088692000135779,True,43,0
MG-M-33M33S1,774,experiment,52,←,left,←,0.8289764998480678,True,43,0
MG-M-33M33S1,775,experiment,72,↓,down,↓,0.46008550003170967,True,43,1
MG-M-33M33S1,776,experiment,60,↑,up,↑,0.7721394998952746,True,43,0
MG-M-33M33S1,777,experiment,66,↓,down,↓,0.44250130001455545,True,43,1
MG-M-33M33S1,778,experiment,86,↑,up,↑,0.4426442999392748,True,43,0
MG-M-33M33S1,779,experiment,88,←,no_key,no_letter,-1.0,False,43,0
MG-M-33M33S1,780,experiment,78,↓,down,↓,0.7968727999832481,True,43,1
MG-M-33M33S1,781,experiment,65,↑,up,↑,0.442476499825716,True,43,1
MG-M-33M33S1,782,experiment,54,↓,up,↑,0.5866835000924766,False,43,0
MG-M-33M33S1,783,experiment,58,↑,no_key,no_letter,-1.0,False,43,1
MG-M-33M33S1,784,experiment,96,←,no_key,no_letter,-1.0,False,43,1
MG-M-33M33S1,785,experiment,57,←,right,→,0.47556699998676777,False,43,1
MG-M-33M33S1,786,experiment,53,↓,no_key,no_letter,-1.0,False,43,0
MG-M-33M33S1,787,experiment,49,←,left,←,0.45063699991442263,True,43,1
MG-M-33M33S1,788,experiment,106,↑,up,↑,0.4759908998385072,True,43,0
MG-M-33M33S1,789,experiment,98,←,left,←,0.6806461999658495,True,43,0
MG-M-33M33S1,790,experiment,76,↑,up,↑,0.4498656999785453,True,43,1
MG-M-33M33S1,791,experiment,90,←,left,←,0.8587579999584705,True,43,0
MG-M-33M33S1,792,experiment,77,↑,up,↑,0.4506816000211984,True,43,1
MG-M-33M33S1,793,experiment,73,←,left,←,0.6597442000638694,True,43,0
MG-M-33M33S1,794,experiment,81,↓,down,↓,0.7185514001175761,True,43,1
MG-M-33M33S1,795,experiment,64,→,right,→,0.4174128999002278,True,43,1
MG-M-33M33S1,796,experiment,103,←,left,←,0.560568300075829,True,43,0
MG-M-33M33S1,797,training,65,↓,down,↓,0.5088947000913322,True,43,0
MG-M-33M33S1,798,training,89,↑,down,↓,0.5884559000842273,False,43,0
MG-M-33M33S1,799,experiment,60,↓,down,↓,0.40167760010808706,True,43,1
MG-M-33M33S1,800,experiment,56,→,right,→,0.5327560999430716,True,43,0
MG-M-33M33S1,801,experiment,96,↑,up,↑,0.6710572000592947,True,43,0
MG-M-33M33S1,802,experiment,75,↓,down,↓,0.6587942000478506,True,43,1
MG-M-33M33S1,803,experiment,49,↑,down,↓,0.5840527000837028,False,43,1
MG-M-33M33S1,804,experiment,77,↑,no_key,no_letter,-1.0,False,43,1
MG-M-33M33S1,805,experiment,72,↑,no_key,no_letter,-1.0,False,43,1
MG-M-33M33S1,806,experiment,102,↓,down,↓,0.45052499999292195,True,43,1
MG-M-33M33S1,807,experiment,81,←,right,→,0.5403114999644458,False,43,0
MG-M-33M33S1,808,experiment,65,←,left,←,0.38423940003849566,True,43,1
MG-M-33M33S1,809,experiment,84,→,right,→,0.4424513999838382,True,43,0
MG-M-33M33S1,810,experiment,85,←,left,←,0.4089401999954134,True,43,0
MG-M-33M33S1,811,experiment,63,→,right,→,0.45091470004990697,True,43,0
MG-M-33M33S1,812,experiment,108,↑,up,↑,0.633536399807781,True,43,0
MG-M-33M33S1,813,experiment,83,↓,down,↓,0.4931904999539256,True,43,1
MG-M-33M33S1,814,experiment,53,→,right,→,0.6061614998616278,True,43,0
MG-M-33M33S1,815,experiment,91,←,left,←,0.6069785000290722,True,43,1
MG-M-33M33S1,816,experiment,62,←,left,←,0.6097102998755872,True,43,1
MG-M-33M33S1,817,experiment,89,↑,up,↑,0.4764769999310374,True,43,1
MG-M-33M33S1,818,experiment,105,↑,up,↑,0.7329474000725895,True,43,0
MG-M-33M33S1,819,experiment,55,↑,up,↑,0.41728940000757575,True,43,1
MG-M-33M33S1,820,experiment,73,←,left,←,0.6832167999818921,True,43,0
MG-M-33M33S1,821,experiment,87,↑,up,↑,0.5786131999921054,True,43,1
MG-M-33M33S1,822,experiment,103,←,left,←,0.37502390006557107,True,43,1
MG-M-33M33S1,823,experiment,54,↓,right,→,0.7517244000919163,False,43,0
MG-M-33M33S1,824,experiment,50,←,left,←,0.43407160020433366,True,43,1
MG-M-33M33S1,825,experiment,92,↓,right,→,0.4249781998805702,False,43,0
MG-M-33M33S1,826,experiment,66,←,left,←,0.3846769998781383,True,43,0
MG-M-33M33S1,827,experiment,68,←,left,←,0.48399209999479353,True,43,0
MG-M-33M33S1,828,experiment,59,←,left,←,0.6497646998614073,True,43,0
MG-M-33M33S1,829,experiment,90,↓,no_key,no_letter,-1.0,False,43,1
MG-M-33M33S1,830,experiment,70,←,left,←,0.358960899990052,True,43,1
MG-M-33M33S1,831,experiment,88,→,right,→,0.5085329001303762,True,43,0
MG-M-33M33S1,832,experiment,82,→,right,→,0.4339250000193715,True,43,0
MG-M-33M33S1,833,experiment,64,←,left,←,0.5887910001911223,True,43,0
MG-M-33M33S1,834,experiment,106,↑,right,→,0.8974063000641763,False,43,1
MG-M-33M33S1,835,experiment,95,↑,up,↑,0.5346921999007463,True,43,1
MG-M-33M33S1,836,experiment,52,↑,no_key,no_letter,-1.0,False,43,1
MG-M-33M33S1,837,experiment,57,→,right,→,0.45919329999014735,True,43,1
MG-M-33M33S1,838,experiment,78,↓,down,↓,0.500700999982655,True,43,0
MG-M-33M33S1,839,experiment,86,↓,down,↓,0.6439237999729812,True,43,0
MG-M-33M33S1,840,experiment,94,→,right,→,0.6105808999855071,True,43,1
MG-M-33M33S1,841,experiment,99,↑,up,↑,0.4838165999390185,True,43,1
MG-M-33M33S1,842,experiment,93,↑,up,↑,0.4508295999839902,True,43,0
MG-M-33M33S1,843,experiment,67,↓,no_key,no_letter,-1.0,False,43,0
MG-M-33M33S1,844,experiment,71,↓,down,↓,0.6200973999220878,True,43,1
MG-M-33M33S1,845,experiment,98,→,left,←,0.5389703998807818,False,43,1
MG-M-33M33S1,846,experiment,80,→,right,→,0.6177528998814523,True,43,1
MG-M-33M33S1,847,experiment,97,↑,no_key,no_letter,-1.0,False,43,1
MG-M-33M33S1,848,experiment,48,→,right,→,0.6551670001354069,True,43,1
MG-M-33M33S1,849,experiment,61,↑,up,↑,0.4757071998901665,True,43,1
MG-M-33M33S1,850,experiment,104,→,right,→,0.5461143001448363,True,43,0
MG-M-33M33S1,851,experiment,69,→,right,→,0.38431669981218874,True,43,1
MG-M-33M33S1,852,experiment,79,↓,down,↓,0.48438989999704063,True,43,0
MG-M-33M33S1,853,experiment,100,→,right,→,0.41749979997985065,True,43,0
MG-M-33M33S1,854,experiment,51,↑,up,↑,0.4680882999673486,True,43,0
MG-M-33M33S1,855,experiment,101,↑,up,↑,0.4591171001084149,True,43,0
MG-M-33M33S1,856,experiment,74,→,right,→,0.5463014000561088,True,43,0
MG-M-33M33S1,857,experiment,107,↓,no_key,no_letter,-1.0,False,43,1
MG-M-33M33S1,858,experiment,58,→,right,→,0.47668059985153377,True,43,1
MG-M-33M33S1,859,experiment,76,↓,down,↓,0.4747707999777049,True,43,0
MG-M-33M33S1,860,training,63,↓,down,↓,0.4422591000329703,True,43,0
MG-M-33M33S1,861,training,106,↑,down,↓,0.6987433000467718,False,43,0
MG-M-33M33S1,862,experiment,102,←,right,→,0.4588864999823272,False,43,1
MG-M-33M33S1,863,experiment,58,←,right,→,0.7980050998739898,False,43,0
MG-M-33M33S1,864,experiment,85,→,no_key,no_letter,-1.0,False,43,1
MG-M-33M33S1,865,experiment,93,↓,no_key,no_letter,-1.0,False,43,1
MG-M-33M33S1,866,experiment,87,←,no_key,no_letter,-1.0,False,43,1
MG-M-33M33S1,867,experiment,79,↓,right,→,0.4675656999461353,False,43,1
MG-M-33M33S1,868,experiment,57,→,no_key,no_letter,-1.0,False,43,0
MG-M-33M33S1,869,experiment,100,←,right,→,0.45138220000080764,False,43,1
MG-M-33M33S1,870,experiment,88,→,right,→,0.6454956000670791,True,43,0
MG-M-33M33S1,871,experiment,98,→,right,→,0.6748969999607652,True,43,1
MG-M-33M33S1,872,experiment,106,↓,down,↓,0.6121984999626875,True,43,1
MG-M-33M33S1,873,experiment,105,←,left,←,0.601016900036484,True,43,1
MG-M-33M33S1,874,experiment,77,↑,up,↑,0.6867325999774039,True,43,1
MG-M-33M33S1,875,experiment,74,→,right,→,0.4596696998924017,True,43,1
MG-M-33M33S1,876,experiment,73,←,no_key,no_letter,-1.0,False,43,0
MG-M-33M33S1,877,experiment,61,↑,up,↑,0.5772626001853496,True,43,1
MG-M-33M33S1,878,experiment,99,↓,right,→,0.4588226000778377,False,43,1
MG-M-33M33S1,879,experiment,82,→,right,→,0.46817080001346767,True,43,0
MG-M-33M33S1,880,experiment,83,←,left,←,0.6114793000742793,True,43,0
MG-M-33M33S1,881,experiment,69,←,left,←,0.49331310018897057,True,43,1
MG-M-33M33S1,882,experiment,63,↑,up,↑,0.570866399910301,True,43,0
MG-M-33M33S1,883,experiment,64,→,right,→,0.5740918999072164,True,43,1
MG-M-33M33S1,884,experiment,60,↑,up,↑,0.563051899895072,True,43,1
MG-M-33M33S1,885,experiment,65,←,left,←,0.5662358000408858,True,43,1
MG-M-33M33S1,886,experiment,51,↑,up,↑,0.5825338000431657,True,43,1
MG-M-33M33S1,887,experiment,48,↑,no_key,no_letter,-1.0,False,43,1
MG-M-33M33S1,888,experiment,91,←,right,→,0.528033799957484,False,43,1
MG-M-33M33S1,889,experiment,107,↑,left,←,0.3597416998818517,False,43,0
MG-M-33M33S1,890,experiment,97,←,left,←,0.3590802999678999,True,43,0
MG-M-33M33S1,891,experiment,104,↓,down,↓,0.7408618999179453,True,43,0
MG-M-33M33S1,892,experiment,66,↑,up,↑,0.664824299979955,True,43,1
MG-M-33M33S1,893,experiment,86,→,left,←,0.5851066999603063,False,43,1
MG-M-33M33S1,894,experiment,70,←,left,←,0.890430900035426,True,43,1
MG-M-33M33S1,895,experiment,90,←,left,←,0.4174327999353409,True,43,1
MG-M-33M33S1,896,experiment,108,↑,right,→,0.5005791001021862,False,43,0
MG-M-33M33S1,897,experiment,55,↓,no_key,no_letter,-1.0,False,43,0
MG-M-33M33S1,898,experiment,56,←,right,→,0.4839667999185622,False,43,1
MG-M-33M33S1,899,experiment,103,→,right,→,0.4507157001644373,True,43,0
MG-M-33M33S1,900,experiment,84,→,right,→,0.4170695999637246,True,43,0
MG-M-33M33S1,901,experiment,54,↑,up,↑,0.6558576999232173,True,43,0
MG-M-33M33S1,902,experiment,76,↓,down,↓,0.42578950012102723,True,43,1
MG-M-33M33S1,903,experiment,62,←,left,←,0.629545999923721,True,43,0
MG-M-33M33S1,904,experiment,72,↑,up,↑,0.4760660999454558,True,43,1
MG-M-33M33S1,905,experiment,89,↓,no_key,no_letter,-1.0,False,43,0
MG-M-33M33S1,906,experiment,71,↑,up,↑,0.5937224000226706,True,43,1
MG-M-33M33S1,907,experiment,94,→,right,→,0.6021763000171632,True,43,1
MG-M-33M33S1,908,experiment,101,→,right,→,0.3842346000019461,True,43,1
MG-M-33M33S1,909,experiment,81,←,left,←,0.5335035999305546,True,43,0
MG-M-33M33S1,910,experiment,49,↑,up,↑,0.6235272998455912,True,43,0
MG-M-33M33S1,911,experiment,92,↑,up,↑,0.4007222999352962,True,43,1
MG-M-33M33S1,912,experiment,78,↑,up,↑,0.4509708001278341,True,43,0
MG-M-33M33S1,913,experiment,96,↓,down,↓,0.6745919999666512,True,43,0
MG-M-33M33S1,914,experiment,50,→,right,→,0.4509606999345124,True,43,1
MG-M-33M33S1,915,experiment,75,←,left,←,0.6672306000255048,True,43,0
MG-M-33M33S1,916,experiment,52,←,left,←,0.6073710999917239,True,43,1
MG-M-33M33S1,917,experiment,80,→,left,←,0.6033857001457363,False,43,1
MG-M-33M33S1,918,experiment,67,→,right,→,0.4258000999689102,True,43,1
MG-M-33M33S1,919,experiment,95,↑,up,↑,0.7154677999205887,True,43,0
MG-M-33M33S1,920,experiment,68,↓,down,↓,0.6719050998799503,True,43,1
MG-M-33M33S1,921,experiment,59,↓,down,↓,0.4421099000610411,True,43,1
MG-M-33M33S1,922,experiment,53,↑,no_key,no_letter,-1.0,False,43,0
MG-M-33M33S1,923,training,80,↑,up,↑,0.5006623000372201,True,43,0
MG-M-33M33S1,924,training,57,↓,down,↓,0.5431215001735836,True,43,0
MG-M-33M33S1,925,experiment,56,→,right,→,0.5352452998049557,True,43,1
MG-M-33M33S1,926,experiment,66,↓,no_key,no_letter,-1.0,False,43,1
MG-M-33M33S1,927,experiment,106,→,right,→,0.5657680998556316,True,43,1
MG-M-33M33S1,928,experiment,63,←,left,←,0.42741720005869865,True,43,1
MG-M-33M33S1,929,experiment,48,←,right,→,0.5759443999268115,False,43,0
MG-M-33M33S1,930,experiment,92,↓,down,↓,0.5619479001034051,True,43,1
MG-M-33M33S1,931,experiment,68,↑,up,↑,0.5493052999954671,True,43,1
MG-M-33M33S1,932,experiment,69,←,right,→,0.5276113001164049,False,43,1
MG-M-33M33S1,933,experiment,80,↓,down,↓,0.7108562998473644,True,43,1
MG-M-33M33S1,934,experiment,95,→,right,→,0.41733439988456666,True,43,1
MG-M-33M33S1,935,experiment,75,↓,down,↓,0.7042813999578357,True,43,0
MG-M-33M33S1,936,experiment,49,↑,up,↑,0.7235419999342412,True,43,1
MG-M-33M33S1,937,experiment,59,→,right,→,0.4669512000400573,True,43,1
MG-M-33M33S1,938,experiment,61,↑,up,↑,0.4340339000336826,True,43,0
MG-M-33M33S1,939,experiment,62,→,right,→,0.5090876000467688,True,43,0
MG-M-33M33S1,940,experiment,74,←,right,→,0.5355607999954373,False,43,0
MG-M-33M33S1,941,experiment,50,↓,down,↓,0.6003557001240551,True,43,1
MG-M-33M33S1,942,experiment,96,↑,up,↑,0.8159980999771506,True,43,1
MG-M-33M33S1,943,experiment,91,↑,down,↓,0.5689354001078755,False,43,1
MG-M-33M33S1,944,experiment,90,←,left,←,0.476582899922505,True,43,1
MG-M-33M33S1,945,experiment,88,←,left,←,0.4174368001986295,True,43,0
MG-M-33M33S1,946,experiment,67,←,right,→,0.7149351998232305,False,43,0
MG-M-33M33S1,947,experiment,82,↓,down,↓,0.5000197000335902,True,43,1
MG-M-33M33S1,948,experiment,86,→,right,→,0.6012705999892205,True,43,0
MG-M-33M33S1,949,experiment,64,↓,down,↓,0.6201680998783559,True,43,1
MG-M-33M33S1,950,experiment,99,←,right,→,0.41714429995045066,False,43,1
MG-M-33M33S1,951,experiment,87,←,left,←,0.6834107998292893,True,43,0
MG-M-33M33S1,952,experiment,79,→,left,←,0.5736066000536084,False,43,1
MG-M-33M33S1,953,experiment,57,↑,no_key,no_letter,-1.0,False,43,1
MG-M-33M33S1,954,experiment,54,↓,down,↓,0.6397059999871999,True,43,1
MG-M-33M33S1,955,experiment,73,→,right,→,0.5261180999223143,True,43,1
MG-M-33M33S1,956,experiment,71,↑,up,↑,0.6882805000059307,True,43,0
MG-M-33M33S1,957,experiment,85,↑,up,↑,0.6404116998892277,True,43,1
MG-M-33M33S1,958,experiment,70,→,right,→,0.5830504999030381,True,43,1
MG-M-33M33S1,959,experiment,84,←,left,←,0.7310780000407249,True,43,1
MG-M-33M33S1,960,experiment,72,↑,up,↑,0.5092490999959409,True,43,1
MG-M-33M33S1,961,experiment,53,→,right,→,0.4926722999662161,True,43,0
MG-M-33M33S1,962,experiment,81,→,right,→,0.4258030999917537,True,43,0
MG-M-33M33S1,963,experiment,83,←,left,←,0.4425953000318259,True,43,0
MG-M-33M33S1,964,experiment,65,→,right,→,0.6588832999113947,True,43,0
MG-M-33M33S1,965,experiment,103,→,right,→,0.6376765999011695,True,43,1
MG-M-33M33S1,966,experiment,98,↓,down,↓,0.46802320005372167,True,43,1
MG-M-33M33S1,967,experiment,104,↑,up,↑,0.4593706999439746,True,43,0
MG-M-33M33S1,968,experiment,108,↑,up,↑,0.4672900999430567,True,43,0
MG-M-33M33S1,969,experiment,93,→,no_key,no_letter,-1.0,False,43,0
MG-M-33M33S1,970,experiment,51,→,right,→,0.5087381000630558,True,43,1
MG-M-33M33S1,971,experiment,94,→,right,→,0.6288584999274462,True,43,0
MG-M-33M33S1,972,experiment,78,←,left,←,0.7212070000823587,True,43,1
MG-M-33M33S1,973,experiment,52,↓,left,←,0.5945578999817371,False,43,1
MG-M-33M33S1,974,experiment,101,↓,down,↓,0.4673600001260638,True,43,1
MG-M-33M33S1,975,experiment,107,↓,down,↓,0.6020343001000583,True,43,0
MG-M-33M33S1,976,experiment,89,↓,down,↓,0.4175810001324862,True,43,1
MG-M-33M33S1,977,experiment,100,↑,up,↑,0.48348639998584986,True,43,0
MG-M-33M33S1,978,experiment,105,→,right,→,0.5007192001212388,True,43,0
MG-M-33M33S1,979,experiment,58,↑,up,↑,0.7309860999230295,True,43,0
MG-M-33M33S1,980,experiment,77,↓,right,→,0.7082954000215977,False,43,1
MG-M-33M33S1,981,experiment,102,↓,down,↓,0.5725658999290317,True,43,1
MG-M-33M33S1,982,experiment,97,←,left,←,0.48415379994548857,True,43,1
MG-M-33M33S1,983,experiment,76,↑,up,↑,0.48409789986908436,True,43,0
MG-M-33M33S1,984,experiment,55,→,right,→,0.4672052999958396,True,43,0
MG-M-33M33S1,985,experiment,60,↓,down,↓,0.44328819983638823,True,43,0
MG-M-33M33S1,986,training,101,↓,left,←,0.4927930999547243,False,43,0
MG-M-33M33S1,987,training,55,→,right,→,0.5003006001934409,True,43,0
MG-M-33M33S1,988,experiment,105,→,right,→,0.43427200010046363,True,43,0
MG-M-33M33S1,989,experiment,64,→,right,→,0.4592639999464154,True,43,0
MG-M-33M33S1,990,experiment,101,↓,no_key,no_letter,-1.0,False,43,0
MG-M-33M33S1,991,experiment,72,→,no_key,no_letter,-1.0,False,43,1
MG-M-33M33S1,992,experiment,104,←,left,←,0.4008910001721233,True,43,1
MG-M-33M33S1,993,experiment,88,↑,up,↑,0.425380100030452,True,43,0
MG-M-33M33S1,994,experiment,62,↓,down,↓,0.6579525000415742,True,43,0
MG-M-33M33S1,995,experiment,53,↑,down,↓,0.6614880999550223,False,43,1
MG-M-33M33S1,996,experiment,86,→,left,←,0.4591157999821007,False,43,1
MG-M-33M33S1,997,experiment,81,→,right,→,0.6082317000254989,True,43,0
MG-M-33M33S1,998,experiment,59,←,left,←,0.416757799917832,True,43,1
MG-M-33M33S1,999,experiment,57,←,left,←,0.44268730003386736,True,43,0
MG-M-33M33S1,1000,experiment,48,→,right,→,0.5003537000156939,True,43,0
MG-M-33M33S1,1001,experiment,76,←,left,←,0.6238327999599278,True,43,0
MG-M-33M33S1,1002,experiment,92,↓,down,↓,0.6476894000079483,True,43,1
MG-M-33M33S1,1003,experiment,90,→,right,→,0.4509097000118345,True,43,1
MG-M-33M33S1,1004,experiment,70,→,right,→,0.6696482999250293,True,43,0
MG-M-33M33S1,1005,experiment,50,↑,up,↑,0.47578609990887344,True,43,1
MG-M-33M33S1,1006,experiment,106,↑,up,↑,0.4174677999690175,True,43,0
MG-M-33M33S1,1007,experiment,99,↑,up,↑,0.6728108001407236,True,43,0
MG-M-33M33S1,1008,experiment,56,←,left,←,0.4341341000981629,True,43,1
MG-M-33M33S1,1009,experiment,54,→,right,→,0.6868221000768244,True,43,0
MG-M-33M33S1,1010,experiment,55,↓,down,↓,0.48390739993192255,True,43,1
MG-M-33M33S1,1011,experiment,52,↓,down,↓,0.4175674000289291,True,43,0
MG-M-33M33S1,1012,experiment,93,↓,down,↓,0.6274059000425041,True,43,0
MG-M-33M33S1,1013,experiment,89,→,right,→,0.4936840001028031,True,43,1
MG-M-33M33S1,1014,experiment,66,←,left,←,0.47577750007621944,True,43,0
MG-M-33M33S1,1015,experiment,96,←,right,→,0.4676474998705089,False,43,0
MG-M-33M33S1,1016,experiment,103,↑,no_key,no_letter,-1.0,False,43,0
MG-M-33M33S1,1017,experiment,79,←,left,←,0.5728945999871939,True,43,1
MG-M-33M33S1,1018,experiment,65,→,right,→,0.43383220001123846,True,43,1
MG-M-33M33S1,1019,experiment,75,↓,no_key,no_letter,-1.0,False,43,0
MG-M-33M33S1,1020,experiment,63,←,left,←,0.654716799966991,True,43,1
MG-M-33M33S1,1021,experiment,49,↑,up,↑,0.5635531998705119,True,43,1
MG-M-33M33S1,1022,experiment,61,↓,down,↓,0.8246516999788582,True,43,1
MG-M-33M33S1,1023,experiment,84,↑,up,↑,0.45083829993382096,True,43,1
MG-M-33M33S1,1024,experiment,82,↓,no_key,no_letter,-1.0,False,43,0
MG-M-33M33S1,1025,experiment,71,→,right,→,0.5561071999836713,True,43,1
MG-M-33M33S1,1026,experiment,60,←,left,←,0.4671817000489682,True,43,1
MG-M-33M33S1,1027,experiment,69,←,left,←,0.44249720009975135,True,43,0
MG-M-33M33S1,1028,experiment,78,←,left,←,0.425505000166595,True,43,0
MG-M-33M33S1,1029,experiment,80,↓,right,→,0.5006943000480533,False,43,0
MG-M-33M33S1,1030,experiment,67,↑,down,↓,0.6278516000602394,False,43,0
MG-M-33M33S1,1031,experiment,102,←,right,→,0.5524963000789285,False,43,1
MG-M-33M33S1,1032,experiment,73,↓,down,↓,0.5005946999881417,True,43,1
MG-M-33M33S1,1033,experiment,100,→,right,→,0.6678561000153422,True,43,0
MG-M-33M33S1,1034,experiment,85,↓,down,↓,0.676678900141269,True,43,1
MG-M-33M33S1,1035,experiment,108,↑,up,↑,0.4843752000015229,True,43,1
MG-M-33M33S1,1036,experiment,98,←,right,→,0.8169935999903828,False,43,0
MG-M-33M33S1,1037,experiment,97,↓,no_key,no_letter,-1.0,False,43,1
MG-M-33M33S1,1038,experiment,77,↑,up,↑,0.6923126000910997,True,43,1
MG-M-33M33S1,1039,experiment,74,→,right,→,0.5361333999317139,True,43,1
MG-M-33M33S1,1040,experiment,51,↑,up,↑,0.9446161999367177,True,43,1
MG-M-33M33S1,1041,experiment,87,↓,down,↓,0.61375129991211,True,43,1
MG-M-33M33S1,1042,experiment,68,↑,up,↑,0.48407859983853996,True,43,1
MG-M-33M33S1,1043,experiment,95,→,right,→,0.4596251999028027,True,43,0
MG-M-33M33S1,1044,experiment,58,↑,up,↑,0.7244778999593109,True,43,0
MG-M-33M33S1,1045,experiment,91,→,right,→,0.6405005999840796,True,43,1
MG-M-33M33S1,1046,experiment,94,↑,up,↑,0.6392409999389201,True,43,1
MG-M-33M33S1,1047,experiment,83,→,right,→,0.49244880001060665,True,43,1
MG-M-33M33S1,1048,experiment,107,↑,up,↑,0.6819052000064403,True,43,0
MG-M-33M33S1,1049,training,57,→,right,→,0.40189290000125766,True,43,0
MG-M-33M33S1,1050,training,50,↓,down,↓,0.5001081000082195,True,43,0
MG-M-33M33S1,1051,experiment,77,↓,down,↓,0.4509751999285072,True,43,0
MG-M-33M33S1,1052,experiment,84,↓,down,↓,0.6912787999026477,True,43,0
MG-M-33M33S1,1053,experiment,71,↓,down,↓,0.40806329995393753,True,43,1
MG-M-33M33S1,1054,experiment,96,←,no_key,no_letter,-1.0,False,43,0
MG-M-33M33S1,1055,experiment,88,↑,up,↑,0.6552683000918478,True,43,1
MG-M-33M33S1,1056,experiment,49,→,right,→,0.604364300146699,True,43,1
MG-M-33M33S1,1057,experiment,63,↑,up,↑,0.5988251001108438,True,43,1
MG-M-33M33S1,1058,experiment,90,↑,no_key,no_letter,-1.0,False,43,1
MG-M-33M33S1,1059,experiment,68,↑,up,↑,0.5923955999314785,True,43,1
MG-M-33M33S1,1060,experiment,106,←,right,→,0.5334652999881655,False,43,1
MG-M-33M33S1,1061,experiment,60,↑,up,↑,0.6591157999355346,True,43,1
MG-M-33M33S1,1062,experiment,85,↓,right,→,0.5001403000205755,False,43,1
MG-M-33M33S1,1063,experiment,72,→,right,→,0.43421499989926815,True,43,0
MG-M-33M33S1,1064,experiment,53,←,left,←,0.44237669999711215,True,43,0
MG-M-33M33S1,1065,experiment,79,→,right,→,0.4259338998235762,True,43,0
MG-M-33M33S1,1066,experiment,64,→,right,→,0.3924449000041932,True,43,0
MG-M-33M33S1,1067,experiment,75,←,right,→,0.5353375000413507,False,43,0
MG-M-33M33S1,1068,experiment,97,↓,down,↓,0.7458960001822561,True,43,1
MG-M-33M33S1,1069,experiment,93,↑,no_key,no_letter,-1.0,False,43,1
MG-M-33M33S1,1070,experiment,67,↑,down,↓,0.7246092001441866,False,43,1
MG-M-33M33S1,1071,experiment,58,↓,down,↓,0.46752590010873973,True,43,1
MG-M-33M33S1,1072,experiment,102,←,left,←,0.6386335000861436,True,43,0
MG-M-33M33S1,1073,experiment,107,↓,no_key,no_letter,-1.0,False,43,1
MG-M-33M33S1,1074,experiment,50,↓,down,↓,0.702902700053528,True,43,1
MG-M-33M33S1,1075,experiment,103,↑,no_key,no_letter,-1.0,False,43,1
MG-M-33M33S1,1076,experiment,105,→,right,→,0.40908219991251826,True,43,1
MG-M-33M33S1,1077,experiment,56,→,right,→,0.9040951000060886,True,43,0
MG-M-33M33S1,1078,experiment,55,↑,up,↑,0.7856779999565333,True,43,1
MG-M-33M33S1,1079,experiment,98,←,left,←,0.4666822999715805,True,43,1
MG-M-33M33S1,1080,experiment,86,←,left,←,0.4172737000044435,True,43,0
MG-M-33M33S1,1081,experiment,81,↑,up,↑,0.5413679999765009,True,43,0
MG-M-33M33S1,1082,experiment,62,↓,down,↓,0.7385539999231696,True,43,1
MG-M-33M33S1,1083,experiment,61,↓,down,↓,0.4758307000156492,True,43,1
MG-M-33M33S1,1084,experiment,51,→,right,→,0.571840199874714,True,43,0
MG-M-33M33S1,1085,experiment,91,→,right,→,0.417341300053522,True,43,1
MG-M-33M33S1,1086,experiment,108,←,right,→,0.7129039999563247,False,43,0
MG-M-33M33S1,1087,experiment,83,←,left,←,0.40874470002017915,True,43,1
MG-M-33M33S1,1088,experiment,99,↑,up,↑,0.7422841000370681,True,43,0
MG-M-33M33S1,1089,experiment,65,↑,up,↑,0.46018309984356165,True,43,1
MG-M-33M33S1,1090,experiment,80,↓,up,↑,0.7093545000534505,False,43,0
MG-M-33M33S1,1091,experiment,69,↑,up,↑,0.6092811000999063,True,43,1
MG-M-33M33S1,1092,experiment,70,↓,down,↓,0.4758752000052482,True,43,1
MG-M-33M33S1,1093,experiment,101,↑,down,↓,0.5962567999958992,False,43,0
MG-M-33M33S1,1094,experiment,66,→,right,→,0.573697900166735,True,43,1
MG-M-33M33S1,1095,experiment,73,↑,up,↑,0.726505400147289,True,43,1
MG-M-33M33S1,1096,experiment,89,↓,down,↓,0.7632514999713749,True,43,1
MG-M-33M33S1,1097,experiment,54,→,right,→,0.5004902000073344,True,43,1
MG-M-33M33S1,1098,experiment,57,←,left,←,0.6106289001181722,True,43,0
MG-M-33M33S1,1099,experiment,78,←,no_key,no_letter,-1.0,False,43,1
MG-M-33M33S1,1100,experiment,104,→,right,→,0.5721689001657069,True,43,1
MG-M-33M33S1,1101,experiment,74,←,left,←,0.5321238001342863,True,43,1
MG-M-33M33S1,1102,experiment,76,←,left,←,0.7491743999999017,True,43,0
MG-M-33M33S1,1103,experiment,100,↓,down,↓,0.8134475001133978,True,43,1
MG-M-33M33S1,1104,experiment,87,→,right,→,0.5916013999376446,True,43,1
MG-M-33M33S1,1105,experiment,82,→,right,→,0.652352700009942,True,43,1
MG-M-33M33S1,1106,experiment,48,→,right,→,0.42625300004146993,True,43,1
MG-M-33M33S1,1107,experiment,92,↑,up,↑,0.633537899935618,True,43,0
MG-M-33M33S1,1108,experiment,94,↑,up,↑,0.6008652998134494,True,43,1
MG-M-33M33S1,1109,experiment,52,→,left,←,0.5993872999679297,False,43,1
MG-M-33M33S1,1110,experiment,95,↓,down,↓,0.655142400180921,True,43,1
MG-M-33M33S1,1111,experiment,59,→,right,→,0.5690041000489146,True,43,1
MG-M-33M33S1,1112,training,71,↑,right,→,0.6604159998241812,False,43,0
MG-M-33M33S1,1113,training,91,↑,up,↑,0.46736940019764006,True,43,1
MG-M-33M33S1,1114,experiment,100,←,left,←,0.6946871997788548,True,43,0
MG-M-33M33S1,1115,experiment,56,←,no_key,no_letter,-1.0,False,43,1
MG-M-33M33S1,1116,experiment,98,↑,up,↑,0.47591980011202395,True,43,1
MG-M-33M33S1,1117,experiment,51,←,right,→,0.500727399950847,False,43,0
MG-M-33M33S1,1118,experiment,54,←,left,←,0.6430150999221951,True,43,0
MG-M-33M33S1,1119,experiment,71,←,left,←,0.4926208001561463,True,43,1
MG-M-33M33S1,1120,experiment,50,↓,down,↓,0.5329907000996172,True,43,0
MG-M-33M33S1,1121,experiment,107,↑,up,↑,0.49266029987484217,True,43,1
MG-M-33M33S1,1122,experiment,90,↓,down,↓,0.5608222000300884,True,43,0
MG-M-33M33S1,1123,experiment,102,←,left,←,0.680174200097099,True,43,1
MG-M-33M33S1,1124,experiment,103,↓,no_key,no_letter,-1.0,False,43,1
MG-M-33M33S1,1125,experiment,67,←,left,←,0.6184448001440614,True,43,1
MG-M-33M33S1,1126,experiment,104,→,right,→,0.535531299887225,True,43,1
MG-M-33M33S1,1127,experiment,99,→,right,→,0.45902359997853637,True,43,1
MG-M-33M33S1,1128,experiment,60,←,right,→,0.5932640000246465,False,43,0
MG-M-33M33S1,1129,experiment,87,←,left,←,0.9004080998711288,True,43,1
MG-M-33M33S1,1130,experiment,68,↓,down,↓,0.7692030998878181,True,43,1
MG-M-33M33S1,1131,experiment,80,↑,up,↑,0.7116958999540657,True,43,1
MG-M-33M33S1,1132,experiment,91,↓,down,↓,0.5336941999848932,True,43,1
MG-M-33M33S1,1133,experiment,88,←,left,←,0.697259500157088,True,43,1
MG-M-33M33S1,1134,experiment,64,←,left,←,0.9356419998221099,True,43,1
MG-M-33M33S1,1135,experiment,48,→,right,→,0.4346894999034703,True,43,1
MG-M-33M33S1,1136,experiment,55,←,no_key,no_letter,-1.0,False,43,0
MG-M-33M33S1,1137,experiment,66,↑,up,↑,0.7026424000505358,True,43,1
MG-M-33M33S1,1138,experiment,82,→,right,→,0.7746359999291599,True,43,1
MG-M-33M33S1,1139,experiment,57,↑,up,↑,0.6926701001357287,True,43,1
MG-M-33M33S1,1140,experiment,74,↑,up,↑,0.4424318000674248,True,43,1
MG-M-33M33S1,1141,experiment,93,←,left,←,0.5425211999099702,True,43,0
MG-M-33M33S1,1142,experiment,61,↑,up,↑,0.4591451999731362,True,43,1
MG-M-33M33S1,1143,experiment,76,↑,up,↑,0.6078102001920342,True,43,0
MG-M-33M33S1,1144,experiment,59,←,left,←,0.47633900004439056,True,43,1
MG-M-33M33S1,1145,experiment,106,↓,up,↑,0.5640726001001894,False,43,0
MG-M-33M33S1,1146,experiment,78,←,left,←,0.5008590999059379,True,43,1
MG-M-33M33S1,1147,experiment,72,→,right,→,0.5350252001080662,True,43,0
MG-M-33M33S1,1148,experiment,85,↓,down,↓,0.5090596000663936,True,43,1
MG-M-33M33S1,1149,experiment,49,→,right,→,0.45098560000769794,True,43,0
MG-M-33M33S1,1150,experiment,77,↑,up,↑,0.44222950004041195,True,43,0
MG-M-33M33S1,1151,experiment,83,↓,down,↓,0.6847771999891847,True,43,0
MG-M-33M33S1,1152,experiment,62,→,right,→,0.7485466001089662,True,43,1
MG-M-33M33S1,1153,experiment,95,↓,down,↓,0.5667529001366347,True,43,1
MG-M-33M33S1,1154,experiment,63,→,right,→,0.5707560998853296,True,43,1
MG-M-33M33S1,1155,experiment,97,↑,up,↑,0.45165709988214076,True,43,1
MG-M-33M33S1,1156,experiment,81,↓,down,↓,0.4592261000070721,True,43,0
MG-M-33M33S1,1157,experiment,52,↑,up,↑,0.4425131001044065,True,43,0
MG-M-33M33S1,1158,experiment,96,←,left,←,0.6146880998276174,True,43,0
MG-M-33M33S1,1159,experiment,92,←,left,←,0.9669120998587459,True,43,1
MG-M-33M33S1,1160,experiment,94,↓,no_key,no_letter,-1.0,False,43,1
MG-M-33M33S1,1161,experiment,69,→,right,→,0.450912700034678,True,43,1
MG-M-33M33S1,1162,experiment,53,←,left,←,0.6679248998407274,True,43,0
MG-M-33M33S1,1163,experiment,84,←,right,→,0.7089092000387609,False,43,1
MG-M-33M33S1,1164,experiment,79,↓,down,↓,0.5981201999820769,True,43,1
MG-M-33M33S1,1165,experiment,73,→,right,→,0.9734060999471694,True,43,1
MG-M-33M33S1,1166,experiment,105,↑,up,↑,0.48401160002686083,True,43,1
MG-M-33M33S1,1167,experiment,70,↑,up,↑,0.7277845998760313,True,43,0
MG-M-33M33S1,1168,experiment,75,←,left,←,0.45899850013665855,True,43,1
MG-M-33M33S1,1169,experiment,86,↑,no_key,no_letter,-1.0,False,43,0
MG-M-33M33S1,1170,experiment,65,→,right,→,0.666786199901253,True,43,1
MG-M-33M33S1,1171,experiment,58,↑,no_key,no_letter,-1.0,False,43,1
MG-M-33M33S1,1172,experiment,108,←,left,←,0.8148017001803964,True,43,1
MG-M-33M33S1,1173,experiment,101,↑,no_key,no_letter,-1.0,False,43,1
MG-M-33M33S1,1174,experiment,89,↑,no_key,no_letter,-1.0,False,43,1
MG-M-33M33S1,1175,training,83,←,left,←,0.6334520000964403,True,43,0
MG-M-33M33S1,1176,training,98,↑,up,↑,0.4505326999351382,True,43,1
MG-M-33M33S1,1177,experiment,103,↓,up,↑,0.538509099977091,False,43,0
MG-M-33M33S1,1178,experiment,75,←,left,←,0.5715713000390679,True,43,1
MG-M-33M33S1,1179,experiment,54,↑,up,↑,0.4418897000141442,True,43,1
MG-M-33M33S1,1180,experiment,60,↑,up,↑,0.42571099987253547,True,43,0
MG-M-33M33S1,1181,experiment,106,↓,no_key,no_letter,-1.0,False,43,0
MG-M-33M33S1,1182,experiment,107,↓,down,↓,0.6011576000601053,True,43,1
MG-M-33M33S1,1183,experiment,100,↑,right,→,0.6320488001219928,False,43,1
MG-M-33M33S1,1184,experiment,88,↓,down,↓,0.44237409997731447,True,43,1
MG-M-33M33S1,1185,experiment,58,↓,down,↓,0.5395362998824567,True,43,0
MG-M-33M33S1,1186,experiment,108,→,left,←,0.8890263999346644,False,43,1
MG-M-33M33S1,1187,experiment,55,↑,down,↓,0.5787061001174152,False,43,1
MG-M-33M33S1,1188,experiment,57,→,down,↓,0.7606500000692904,False,43,1
MG-M-33M33S1,1189,experiment,96,→,right,→,0.38364909985102713,True,43,1
MG-M-33M33S1,1190,experiment,64,→,right,→,0.4009444999974221,True,43,0
MG-M-33M33S1,1191,experiment,48,←,left,←,0.5089684999547899,True,43,0
MG-M-33M33S1,1192,experiment,68,←,no_key,no_letter,-1.0,False,43,0
MG-M-33M33S1,1193,experiment,89,→,right,→,0.4413773000705987,True,43,1
MG-M-33M33S1,1194,experiment,65,↓,no_key,no_letter,-1.0,False,43,0
MG-M-33M33S1,1195,experiment,91,↓,no_key,no_letter,-1.0,False,43,1
MG-M-33M33S1,1196,experiment,56,↓,down,↓,0.4920519997831434,True,43,1
MG-M-33M33S1,1197,experiment,92,↑,up,↑,0.4921773001551628,True,43,0
MG-M-33M33S1,1198,experiment,66,→,right,→,0.47573649999685585,True,43,0
MG-M-33M33S1,1199,experiment,94,↑,up,↑,0.6773671000264585,True,43,0
MG-M-33M33S1,1200,experiment,90,←,left,←,0.4676323998719454,True,43,1
MG-M-33M33S1,1201,experiment,85,↓,down,↓,0.6843924000859261,True,43,0
MG-M-33M33S1,1202,experiment,87,↓,down,↓,0.5717700999230146,True,43,1
MG-M-33M33S1,1203,experiment,51,↓,no_key,no_letter,-1.0,False,43,1
MG-M-33M33S1,1204,experiment,69,↓,down,↓,0.40082410001195967,True,43,1
MG-M-33M33S1,1205,experiment,73,→,right,→,0.6667445998173207,True,43,0
MG-M-33M33S1,1206,experiment,95,↑,down,↓,0.6800607000477612,False,43,1
MG-M-33M33S1,1207,experiment,72,↑,up,↑,0.7088393999729306,True,43,1
MG-M-33M33S1,1208,experiment,79,←,left,←,0.4848116000648588,True,43,1
MG-M-33M33S1,1209,experiment,86,↑,up,↑,0.6770570001099259,True,43,0
MG-M-33M33S1,1210,experiment,67,↓,up,↑,0.7153634000569582,False,43,1
MG-M-33M33S1,1211,experiment,84,→,right,→,0.4927086001262069,True,43,1
MG-M-33M33S1,1212,experiment,99,←,left,←,0.7177742999047041,True,43,0
MG-M-33M33S1,1213,experiment,62,↑,up,↑,0.44220819999463856,True,43,1
MG-M-33M33S1,1214,experiment,59,←,left,←,0.7179149000439793,True,43,0
MG-M-33M33S1,1215,experiment,50,←,left,←,0.47591129993088543,True,43,1
MG-M-33M33S1,1216,experiment,70,→,right,→,0.9253070999402553,True,43,0
MG-M-33M33S1,1217,experiment,49,←,left,←,0.8077511000446975,True,43,1
MG-M-33M33S1,1218,experiment,80,↓,no_key,no_letter,-1.0,False,43,1
MG-M-33M33S1,1219,experiment,71,←,left,←,0.4423247000668198,True,43,1
MG-M-33M33S1,1220,experiment,78,↑,no_key,no_letter,-1.0,False,43,0
MG-M-33M33S1,1221,experiment,83,↑,no_key,no_letter,-1.0,False,43,1
MG-M-33M33S1,1222,experiment,102,→,right,→,0.6142293000593781,True,43,1
MG-M-33M33S1,1223,experiment,97,←,left,←,0.4340297000017017,True,43,1
MG-M-33M33S1,1224,experiment,105,→,right,→,0.5999165000393987,True,43,0
MG-M-33M33S1,1225,experiment,101,↑,up,↑,0.6221179999411106,True,43,1
MG-M-33M33S1,1226,experiment,104,↓,up,↑,0.5306649000849575,False,43,1
MG-M-33M33S1,1227,experiment,81,→,right,→,0.6813860000111163,True,43,1
MG-M-33M33S1,1228,experiment,77,←,left,←,0.6921131000854075,True,43,1
MG-M-33M33S1,1229,experiment,53,↑,up,↑,0.6630143998190761,True,43,1
MG-M-33M33S1,1230,experiment,93,←,left,←,0.6930750999599695,True,43,1
MG-M-33M33S1,1231,experiment,52,←,left,←,0.4588272999972105,True,43,1
MG-M-33M33S1,1232,experiment,76,→,right,→,0.4590535999741405,True,43,0
MG-M-33M33S1,1233,experiment,82,↑,no_key,no_letter,-1.0,False,43,0
MG-M-33M33S1,1234,experiment,98,→,right,→,0.5709593999199569,True,43,1
MG-M-33M33S1,1235,experiment,61,↑,up,↑,0.4675911001395434,True,43,1
MG-M-33M33S1,1236,experiment,63,→,right,→,0.4675223999656737,True,43,0
MG-M-33M33S1,1237,experiment,74,↑,up,↑,0.40881979977712035,True,43,0
MG-M-33M33S1,1238,training,86,→,right,→,0.45882399985566735,True,43,0
MG-M-33M33S1,1239,training,54,↑,right,→,0.5735786000732332,False,43,0
MG-M-33M33S1,1240,experiment,105,←,right,→,0.46673240000382066,False,43,1
MG-M-33M33S1,1241,experiment,98,↑,up,↑,0.5092354000080377,True,43,0
MG-M-33M33S1,1242,experiment,57,↑,up,↑,0.5273933000862598,True,43,0
MG-M-33M33S1,1243,experiment,91,↑,up,↑,0.5714992999564856,True,43,0
MG-M-33M33S1,1244,experiment,69,←,left,←,0.5736277000978589,True,43,1
MG-M-33M33S1,1245,experiment,67,→,right,→,0.41723000002093613,True,43,1
MG-M-33M33S1,1246,experiment,77,↑,no_key,no_letter,-1.0,False,43,0
MG-M-33M33S1,1247,experiment,92,↓,up,↑,0.5410295999608934,False,43,1
MG-M-33M33S1,1248,experiment,78,↓,down,↓,0.46735400008037686,True,43,1
MG-M-33M33S1,1249,experiment,108,←,left,←,0.47589850006625056,True,43,0
MG-M-33M33S1,1250,experiment,75,←,right,→,0.5846764999441803,False,43,0
MG-M-33M33S1,1251,experiment,72,↓,right,→,0.5854238998144865,False,43,1
MG-M-33M33S1,1252,experiment,70,↓,down,↓,0.4583264000248164,True,43,1
MG-M-33M33S1,1253,experiment,74,←,left,←,0.6624471000395715,True,43,0
MG-M-33M33S1,1254,experiment,90,↑,up,↑,0.6615795001853257,True,43,1
MG-M-33M33S1,1255,experiment,53,↑,up,↑,0.4673595998901874,True,43,1
MG-M-33M33S1,1256,experiment,54,←,left,←,0.6442531000357121,True,43,0
MG-M-33M33S1,1257,experiment,80,→,right,→,0.5517075001262128,True,43,1
MG-M-33M33S1,1258,experiment,68,←,left,←,0.6505472001153976,True,43,1
MG-M-33M33S1,1259,experiment,51,↑,up,↑,0.42561840009875596,True,43,1
MG-M-33M33S1,1260,experiment,62,→,right,→,0.6730221000034362,True,43,0
MG-M-33M33S1,1261,experiment,95,↓,no_key,no_letter,-1.0,False,43,1
MG-M-33M33S1,1262,experiment,63,←,left,←,0.5917110999580473,True,43,1
MG-M-33M33S1,1263,experiment,104,↑,up,↑,0.7009388001170009,True,43,1
MG-M-33M33S1,1264,experiment,100,←,left,←,0.6394462999887764,True,43,1
MG-M-33M33S1,1265,experiment,106,←,right,→,0.8180863000452518,False,43,1
MG-M-33M33S1,1266,experiment,79,↑,up,↑,0.48384719993919134,True,43,1
MG-M-33M33S1,1267,experiment,58,←,left,←,0.5005107000470161,True,43,0
MG-M-33M33S1,1268,experiment,93,←,left,←,0.4674598998390138,True,43,0
MG-M-33M33S1,1269,experiment,65,↓,down,↓,0.5006798000540584,True,43,0
MG-M-33M33S1,1270,experiment,83,↓,down,↓,0.706729399971664,True,43,0
MG-M-33M33S1,1271,experiment,82,↓,down,↓,0.4501384000759572,True,43,1
MG-M-33M33S1,1272,experiment,59,→,right,→,0.5409580001141876,True,43,0
MG-M-33M33S1,1273,experiment,73,↓,down,↓,0.5346820999402553,True,43,1
MG-M-33M33S1,1274,experiment,55,↓,down,↓,0.5743821999058127,True,43,1
MG-M-33M33S1,1275,experiment,71,→,right,→,0.6396917998790741,True,43,1
MG-M-33M33S1,1276,experiment,87,←,left,←,0.7605222000274807,True,43,1
MG-M-33M33S1,1277,experiment,88,↓,down,↓,0.6607441999949515,True,43,1
MG-M-33M33S1,1278,experiment,84,→,left,←,0.9339130001608282,False,43,1
MG-M-33M33S1,1279,experiment,97,↓,down,↓,0.6078765999991447,True,43,1
MG-M-33M33S1,1280,experiment,107,↓,left,←,0.5878355999011546,False,43,1
MG-M-33M33S1,1281,experiment,94,→,right,→,0.7004146999679506,True,43,1
MG-M-33M33S1,1282,experiment,89,←,no_key,no_letter,-1.0,False,43,1
MG-M-33M33S1,1283,experiment,81,→,right,→,0.7660068001132458,True,43,1
MG-M-33M33S1,1284,experiment,76,→,right,→,0.48399159987457097,True,43,1
MG-M-33M33S1,1285,experiment,50,↑,up,↑,0.5292879999615252,True,43,0
MG-M-33M33S1,1286,experiment,64,←,no_key,no_letter,-1.0,False,43,1
MG-M-33M33S1,1287,experiment,60,←,left,←,0.48397529986687005,True,43,1
MG-M-33M33S1,1288,experiment,56,←,left,←,0.48380120005458593,True,43,0
MG-M-33M33S1,1289,experiment,85,↑,up,↑,0.7299488000571728,True,43,0
MG-M-33M33S1,1290,experiment,48,←,right,→,0.8041078001260757,False,43,1
MG-M-33M33S1,1291,experiment,99,↑,up,↑,0.6106791000347584,True,43,1
MG-M-33M33S1,1292,experiment,52,↑,up,↑,0.44243460008874536,True,43,1
MG-M-33M33S1,1293,experiment,66,↓,right,→,0.7447136000264436,False,43,0
MG-M-33M33S1,1294,experiment,103,↑,up,↑,0.6960454001091421,True,43,1
MG-M-33M33S1,1295,experiment,86,↑,up,↑,0.39255560003221035,True,43,1
MG-M-33M33S1,1296,experiment,96,↑,up,↑,0.400734500028193,True,43,0
MG-M-33M33S1,1297,experiment,61,→,right,→,0.9142376999370754,True,43,0
MG-M-33M33S1,1298,experiment,49,←,left,←,0.7969682000111789,True,43,1
MG-M-33M33S1,1299,experiment,101,↓,no_key,no_letter,-1.0,False,43,1
MG-M-33M33S1,1300,experiment,102,↑,up,↑,0.4089013000484556,True,43,1
MG-M-33M33S1,1301,training,91,←,left,←,0.44171019992791116,True,43,0
MG-M-33M33S1,1302,training,49,←,left,←,0.5890541998669505,True,43,0
MG-M-33M33S1,1303,experiment,49,↓,down,↓,0.60466150008142,True,43,1
MG-M-33M33S1,1304,experiment,55,→,right,→,0.45929210004396737,True,43,1
MG-M-33M33S1,1305,experiment,99,↓,no_key,no_letter,-1.0,False,43,0
MG-M-33M33S1,1306,experiment,53,↑,up,↑,0.6426010997965932,True,43,1
MG-M-33M33S1,1307,experiment,64,→,right,→,0.48424429981969297,True,43,1
MG-M-33M33S1,1308,experiment,71,↑,up,↑,0.6878378998953849,True,43,0
MG-M-33M33S1,1309,experiment,73,←,left,←,0.595289499964565,True,43,1
MG-M-33M33S1,1310,experiment,67,↑,up,↑,0.605465899920091,True,43,1
MG-M-33M33S1,1311,experiment,51,←,left,←,0.4590338999405503,True,43,1
MG-M-33M33S1,1312,experiment,90,→,right,→,0.6905906999018043,True,43,0
MG-M-33M33S1,1313,experiment,54,→,right,→,0.836628699908033,True,43,1
MG-M-33M33S1,1314,experiment,102,←,left,←,0.42564789997413754,True,43,1
MG-M-33M33S1,1315,experiment,106,↑,up,↑,0.7161244999151677,True,43,0
MG-M-33M33S1,1316,experiment,97,↓,up,↑,0.6307697999291122,False,43,1
MG-M-33M33S1,1317,experiment,98,→,no_key,no_letter,-1.0,False,43,1
MG-M-33M33S1,1318,experiment,48,←,left,←,0.6029769000597298,True,43,1
MG-M-33M33S1,1319,experiment,89,→,right,→,0.44235779996961355,True,43,1
MG-M-33M33S1,1320,experiment,74,←,left,←,0.6421278000343591,True,43,0
MG-M-33M33S1,1321,experiment,60,↓,down,↓,0.7642347000073642,True,43,1
MG-M-33M33S1,1322,experiment,57,↑,up,↑,0.4434257000684738,True,43,1
MG-M-33M33S1,1323,experiment,61,→,right,→,0.4675409998744726,True,43,0
MG-M-33M33S1,1324,experiment,91,↑,up,↑,0.4504678000230342,True,43,0
MG-M-33M33S1,1325,experiment,95,←,left,←,0.5993956001475453,True,43,0
MG-M-33M33S1,1326,experiment,65,←,left,←,0.8015466001816094,True,43,1
MG-M-33M33S1,1327,experiment,101,←,left,←,0.37518019997514784,True,43,1
MG-M-33M33S1,1328,experiment,80,↓,down,↓,0.5575164998881519,True,43,0
MG-M-33M33S1,1329,experiment,79,↑,up,↑,0.7085384000092745,True,43,1
MG-M-33M33S1,1330,experiment,104,→,no_key,no_letter,-1.0,False,43,1
MG-M-33M33S1,1331,experiment,83,↑,up,↑,0.6481359999161214,True,43,1
MG-M-33M33S1,1332,experiment,85,↓,down,↓,0.4840418000239879,True,43,1
MG-M-33M33S1,1333,experiment,59,→,right,→,0.5007551999296993,True,43,0
MG-M-33M33S1,1334,experiment,105,↑,up,↑,0.4255375999491662,True,43,0
MG-M-33M33S1,1335,experiment,84,→,right,→,0.5725497999228537,True,43,0
MG-M-33M33S1,1336,experiment,93,↓,up,↑,0.5266685001552105,False,43,1
MG-M-33M33S1,1337,experiment,69,→,right,→,0.4673548999708146,True,43,0
MG-M-33M33S1,1338,experiment,72,→,right,→,0.7103331000544131,True,43,0
MG-M-33M33S1,1339,experiment,107,↓,down,↓,0.48424079990945756,True,43,1
MG-M-33M33S1,1340,experiment,94,↑,no_key,no_letter,-1.0,False,43,0
MG-M-33M33S1,1341,experiment,66,↓,down,↓,0.6996846999973059,True,43,1
MG-M-33M33S1,1342,experiment,81,→,right,→,0.41734890011139214,True,43,1
MG-M-33M33S1,1343,experiment,58,←,left,←,0.4674317000899464,True,43,0
MG-M-33M33S1,1344,experiment,52,↑,up,↑,0.4262029998935759,True,43,0
MG-M-33M33S1,1345,experiment,103,↓,right,→,0.7033968002069741,False,43,0
MG-M-33M33S1,1346,experiment,96,↑,up,↑,0.4259428000077605,True,43,1
MG-M-33M33S1,1347,experiment,82,→,right,→,0.46727110003121197,True,43,0
MG-M-33M33S1,1348,experiment,56,↓,down,↓,0.46726149995811284,True,43,0
MG-M-33M33S1,1349,experiment,70,→,right,→,0.4921665000729263,True,43,0
MG-M-33M33S1,1350,experiment,77,→,right,→,0.4006461000535637,True,43,0
MG-M-33M33S1,1351,experiment,87,↑,up,↑,0.6175791998393834,True,43,0
MG-M-33M33S1,1352,experiment,108,↓,no_key,no_letter,-1.0,False,43,1
MG-M-33M33S1,1353,experiment,50,→,right,→,0.714638999896124,True,43,1
MG-M-33M33S1,1354,experiment,75,↓,down,↓,0.47578939981758595,True,43,1
MG-M-33M33S1,1355,experiment,88,↑,up,↑,0.468269299948588,True,43,0
MG-M-33M33S1,1356,experiment,86,→,right,→,0.46817140001803637,True,43,0
MG-M-33M33S1,1357,experiment,68,↑,up,↑,0.40981410001404583,True,43,0
MG-M-33M33S1,1358,experiment,92,↓,down,↓,0.5095416998956352,True,43,0
MG-M-33M33S1,1359,experiment,62,↑,up,↑,0.6396046001464128,True,43,0
MG-M-33M33S1,1360,experiment,78,→,right,→,0.4591828999109566,True,43,1
MG-M-33M33S1,1361,experiment,76,↑,up,↑,0.5755296000279486,True,43,0
MG-M-33M33S1,1362,experiment,100,↓,down,↓,0.6548502999357879,True,43,1
MG-M-33M33S1,1363,experiment,63,←,left,←,0.4924131999723613,True,43,1
MG-M-33M33S1,1364,training,101,→,right,→,0.4421661999076605,True,43,0
MG-M-33M33S1,1365,training,71,→,right,→,0.37587049999274313,True,43,0
MG-M-33M33S1,1366,experiment,63,←,left,←,0.5884277999866754,True,43,0
MG-M-33M33S1,1367,experiment,106,→,right,→,0.42633299995213747,True,43,1
MG-M-33M33S1,1368,experiment,83,←,left,←,0.5639315999578685,True,43,0
MG-M-33M33S1,1369,experiment,101,←,right,→,0.4745990000665188,False,43,1
MG-M-33M33S1,1370,experiment,58,←,left,←,0.4758941999170929,True,43,0
MG-M-33M33S1,1371,experiment,53,↑,up,↑,0.45903980010189116,True,43,0
MG-M-33M33S1,1372,experiment,85,↑,up,↑,0.5436148999724537,True,43,0
MG-M-33M33S1,1373,experiment,49,↑,up,↑,0.41008180007338524,True,43,1
MG-M-33M33S1,1374,experiment,104,↑,up,↑,0.4173793999943882,True,43,0
MG-M-33M33S1,1375,experiment,52,←,left,←,0.6350140001159161,True,43,0
MG-M-33M33S1,1376,experiment,91,→,right,→,0.6670810000505298,True,43,1
MG-M-33M33S1,1377,experiment,80,→,right,→,0.49221870000474155,True,43,1
MG-M-33M33S1,1378,experiment,90,←,left,←,0.595170599874109,True,43,0
MG-M-33M33S1,1379,experiment,78,↑,up,↑,0.6090768000576645,True,43,1
MG-M-33M33S1,1380,experiment,75,↓,down,↓,0.8075302001088858,True,43,1
MG-M-33M33S1,1381,experiment,94,↑,up,↑,0.5596119998954237,True,43,1
MG-M-33M33S1,1382,experiment,76,↓,down,↓,0.4509723000228405,True,43,1
MG-M-33M33S1,1383,experiment,72,↑,up,↑,0.5008459000382572,True,43,0
MG-M-33M33S1,1384,experiment,102,→,right,→,0.766370499972254,True,43,0
MG-M-33M33S1,1385,experiment,60,↑,up,↑,0.392194899963215,True,43,1
MG-M-33M33S1,1386,experiment,87,↓,down,↓,0.7181392998900265,True,43,0
MG-M-33M33S1,1387,experiment,105,↓,down,↓,0.6067202999256551,True,43,1
MG-M-33M33S1,1388,experiment,65,↑,up,↑,0.6799029000103474,True,43,1
MG-M-33M33S1,1389,experiment,57,↑,up,↑,0.6415966001804918,True,43,1
MG-M-33M33S1,1390,experiment,86,←,left,←,0.47604160010814667,True,43,1
MG-M-33M33S1,1391,experiment,69,↓,down,↓,0.4595361000392586,True,43,0
MG-M-33M33S1,1392,experiment,107,→,right,→,0.44284159992821515,True,43,0
MG-M-33M33S1,1393,experiment,82,↑,up,↑,0.5486775001045316,True,43,0
MG-M-33M33S1,1394,experiment,92,↑,up,↑,0.5088887000456452,True,43,1
MG-M-33M33S1,1395,experiment,59,↓,up,↑,0.7747953999787569,False,43,0
MG-M-33M33S1,1396,experiment,51,→,right,→,0.7342791000846773,True,43,1
MG-M-33M33S1,1397,experiment,93,↓,down,↓,0.5011247000657022,True,43,1
MG-M-33M33S1,1398,experiment,81,→,right,→,0.5860715999733657,True,43,0
MG-M-33M33S1,1399,experiment,96,↑,up,↑,0.6666083999443799,True,43,1
MG-M-33M33S1,1400,experiment,55,↓,down,↓,0.4839610999915749,True,43,1
MG-M-33M33S1,1401,experiment,97,←,no_key,no_letter,-1.0,False,43,0
MG-M-33M33S1,1402,experiment,61,←,left,←,0.619282600004226,True,43,1
MG-M-33M33S1,1403,experiment,70,↑,up,↑,0.45093219983391464,True,43,1
MG-M-33M33S1,1404,experiment,62,←,left,←,0.47590620000846684,True,43,0
MG-M-33M33S1,1405,experiment,54,↑,up,↑,0.6063810000196099,True,43,0
MG-M-33M33S1,1406,experiment,74,←,right,→,0.6050689998082817,False,43,1
MG-M-33M33S1,1407,experiment,98,←,no_key,no_letter,-1.0,False,43,1
MG-M-33M33S1,1408,experiment,48,↑,up,↑,0.44346959982067347,True,43,1
MG-M-33M33S1,1409,experiment,56,→,right,→,0.4839697000570595,True,43,0
MG-M-33M33S1,1410,experiment,64,↓,down,↓,0.5479664001613855,True,43,0
MG-M-33M33S1,1411,experiment,88,→,right,→,0.4842707000207156,True,43,1
MG-M-33M33S1,1412,experiment,66,→,right,→,0.3923015999607742,True,43,0
MG-M-33M33S1,1413,experiment,68,↑,down,↓,0.6234054998494685,False,43,0
MG-M-33M33S1,1414,experiment,84,↓,down,↓,0.450688699958846,True,43,1
MG-M-33M33S1,1415,experiment,79,→,right,→,0.5491677999962121,True,43,0
MG-M-33M33S1,1416,experiment,100,←,left,←,0.46745159989222884,True,43,1
MG-M-33M33S1,1417,experiment,99,↑,up,↑,0.6572661001700908,True,43,0
MG-M-33M33S1,1418,experiment,50,↑,up,↑,0.614013500045985,True,43,1
MG-M-33M33S1,1419,experiment,67,↑,up,↑,0.4256353999953717,True,43,1
MG-M-33M33S1,1420,experiment,89,←,left,←,0.47597810020670295,True,43,0
MG-M-33M33S1,1421,experiment,77,→,right,→,0.48388620000332594,True,43,0
MG-M-33M33S1,1422,experiment,103,↓,down,↓,0.7159568998031318,True,43,0
MG-M-33M33S1,1423,experiment,108,←,left,←,0.4502093999180943,True,43,1
MG-M-33M33S1,1424,experiment,71,→,right,→,0.5684684000443667,True,43,0
MG-M-33M33S1,1425,experiment,95,→,right,→,0.43503680010326207,True,43,1
MG-M-33M33S1,1426,experiment,73,↑,no_key,no_letter,-1.0,False,43,0
MG-M-33M33S1,1427,training,92,→,right,→,0.40034599998034537,True,43,0
MG-M-33M33S1,1428,training,54,↑,down,↓,0.6598879999946803,False,43,0
MG-M-33M33S1,1429,experiment,73,←,left,←,0.4344707999844104,True,43,1
MG-M-33M33S1,1430,experiment,79,↓,no_key,no_letter,-1.0,False,43,0
MG-M-33M33S1,1431,experiment,66,←,right,→,0.5412731999531388,False,43,1
MG-M-33M33S1,1432,experiment,90,←,left,←,0.5095071000978351,True,43,1
MG-M-33M33S1,1433,experiment,97,→,right,→,0.4510182000230998,True,43,0
MG-M-33M33S1,1434,experiment,92,↓,no_key,no_letter,-1.0,False,43,0
MG-M-33M33S1,1435,experiment,93,↓,down,↓,0.6980695999227464,True,43,1
MG-M-33M33S1,1436,experiment,51,→,right,→,0.6368814997840673,True,43,1
MG-M-33M33S1,1437,experiment,99,←,left,←,0.4258118001744151,True,43,1
MG-M-33M33S1,1438,experiment,88,←,left,←,0.6593675999902189,True,43,0
MG-M-33M33S1,1439,experiment,69,↑,up,↑,0.4346807999536395,True,43,1
MG-M-33M33S1,1440,experiment,96,→,right,→,0.5436764999758452,True,43,0
MG-M-33M33S1,1441,experiment,77,→,right,→,0.45925140008330345,True,43,1
MG-M-33M33S1,1442,experiment,63,↑,up,↑,0.4505557999946177,True,43,0
MG-M-33M33S1,1443,experiment,58,→,right,→,0.6019963999278843,True,43,0
MG-M-33M33S1,1444,experiment,68,↓,down,↓,0.7393326999153942,True,43,1
MG-M-33M33S1,1445,experiment,54,→,no_key,no_letter,-1.0,False,43,1
MG-M-33M33S1,1446,experiment,67,↑,up,↑,0.4173457999713719,True,43,1
MG-M-33M33S1,1447,experiment,94,←,left,←,0.4521285998634994,True,43,0
MG-M-33M33S1,1448,experiment,60,↓,down,↓,0.5399209000170231,True,43,0
MG-M-33M33S1,1449,experiment,106,↑,up,↑,0.44355959980748594,True,43,1
MG-M-33M33S1,1450,experiment,95,→,right,→,0.5008328999392688,True,43,0
MG-M-33M33S1,1451,experiment,89,↓,down,↓,0.4750570000614971,True,43,0
MG-M-33M33S1,1452,experiment,49,→,right,→,0.5011579000856727,True,43,0
MG-M-33M33S1,1453,experiment,50,↑,up,↑,0.4759193998761475,True,43,0
MG-M-33M33S1,1454,experiment,87,←,no_key,no_letter,-1.0,False,43,0
MG-M-33M33S1,1455,experiment,80,→,right,→,0.38412459986284375,True,43,1
