PART_ID,Trial_no,Trial_type,CSI,Stim_letter,Key_pressed,letter_choose,Rt,Corr,Stimulus Time,nDropped
MP-K-23K23S2,1,training,120,↓,down,↓,0.7890340000158176,True,60,1
MP-K-23K23S2,2,training,120,↓,up,↑,0.6012242001015693,False,60,0
MP-K-23K23S2,3,training,120,↓,down,↓,0.46111549995839596,True,60,0
MP-K-23K23S2,4,training,120,←,left,←,0.7261576000601053,True,60,0
MP-K-23K23S2,5,training,120,↑,down,↓,0.4105554000707343,False,60,0
MP-K-23K23S2,6,training,120,↑,up,↑,0.5762329999124631,True,60,0
MP-K-23K23S2,7,training,120,↓,down,↓,0.7467794999247417,True,60,0
MP-K-23K23S2,8,training,120,→,right,→,0.6348500000312924,True,60,0
MP-K-23K23S2,9,training,120,↑,up,↑,0.5255000999895856,True,60,0
MP-K-23K23S2,10,training,120,→,right,→,0.5001738000428304,True,60,0
MP-K-23K23S2,11,training,120,↑,up,↑,0.7335977000184357,True,60,0
MP-K-23K23S2,12,training,120,↓,right,→,0.42753659992013127,False,60,0
MP-K-23K23S2,13,training,120,↑,up,↑,2.0662489000242203,True,60,0
MP-K-23K23S2,14,training,120,↓,down,↓,0.7429967999923974,True,60,0
MP-K-23K23S2,15,training,120,→,right,→,0.592218599980697,True,60,0
MP-K-23K23S2,16,training,120,↑,up,↑,0.5424298000289127,True,60,0
MP-K-23K23S2,17,training,120,↓,down,↓,0.5686826000455767,True,60,0
MP-K-23K23S2,18,training,120,←,left,←,0.6341975999530405,True,60,0
MP-K-23K23S2,19,training,120,↓,down,↓,0.40156619995832443,True,60,0
MP-K-23K23S2,20,training,120,→,right,→,0.5423188999993727,True,60,0
MP-K-23K23S2,21,no_adaptation,120,←,right,→,0.4842539000092074,False,36,0
MP-K-23K23S2,22,no_adaptation,120,↑,up,↑,0.7200560999335721,True,36,0
MP-K-23K23S2,23,no_adaptation,120,→,down,↓,0.4193716999143362,False,36,0
MP-K-23K23S2,24,no_adaptation,120,↑,up,↑,0.5194447999820113,True,36,0
MP-K-23K23S2,25,no_adaptation,120,→,right,→,0.44256799994036555,True,36,0
MP-K-23K23S2,26,no_adaptation,120,↓,down,↓,0.5026189000345767,True,36,0
MP-K-23K23S2,27,no_adaptation,120,←,right,→,0.43458349991124123,False,36,0
MP-K-23K23S2,28,no_adaptation,120,↑,up,↑,0.48704149993136525,True,36,0
MP-K-23K23S2,29,no_adaptation,120,→,right,→,0.4984640999464318,True,36,0
MP-K-23K23S2,30,no_adaptation,120,←,left,←,0.6377172999782488,True,36,0
MP-K-23K23S2,31,no_adaptation,120,←,left,←,0.7151820999570191,True,36,0
MP-K-23K23S2,32,no_adaptation,120,←,left,←,0.5335638000397012,True,36,0
MP-K-23K23S2,33,no_adaptation,120,←,left,←,0.879240799928084,True,36,0
MP-K-23K23S2,34,no_adaptation,120,→,right,→,0.4447069000452757,True,36,0
MP-K-23K23S2,35,no_adaptation,120,↑,up,↑,0.5042058000108227,True,36,0
MP-K-23K23S2,36,no_adaptation,120,↑,down,↓,0.4831429999321699,False,36,0
MP-K-23K23S2,37,no_adaptation,120,←,left,←,1.1744869999820367,True,36,0
MP-K-23K23S2,38,no_adaptation,120,→,left,←,0.7583398999413475,False,36,0
MP-K-23K23S2,39,no_adaptation,120,↓,down,↓,0.4874052000232041,True,36,0
MP-K-23K23S2,40,no_adaptation,120,↓,down,↓,1.5386936001013964,True,36,0
MP-K-23K23S2,41,training,49,↓,down,↓,0.43436889990698546,True,36,0
MP-K-23K23S2,42,training,81,↓,down,↓,0.5440964000299573,True,36,0
MP-K-23K23S2,43,experiment,49,→,right,→,1.8337270999327302,True,36,1
MP-K-23K23S2,44,experiment,69,←,left,←,0.7051348999375477,True,36,1
MP-K-23K23S2,45,experiment,104,↑,up,↑,0.6575759999686852,True,36,1
MP-K-23K23S2,46,experiment,66,↑,up,↑,0.5046421000733972,True,36,1
MP-K-23K23S2,47,experiment,67,→,right,→,0.8139875000342727,True,36,1
MP-K-23K23S2,48,experiment,53,↑,up,↑,0.6195680000819266,True,36,1
MP-K-23K23S2,49,experiment,51,←,left,←,0.5455035000341013,True,36,1
MP-K-23K23S2,50,experiment,52,←,left,←,0.5379932000068948,True,36,1
MP-K-23K23S2,51,experiment,101,↓,down,↓,0.690291800070554,True,36,1
MP-K-23K23S2,52,experiment,77,→,right,→,0.6368841000366956,True,36,1
MP-K-23K23S2,53,experiment,103,←,left,←,0.5201972000068054,True,36,1
MP-K-23K23S2,54,experiment,105,↑,up,↑,0.5604159000795335,True,36,1
MP-K-23K23S2,55,experiment,59,↓,down,↓,0.8221669000340626,True,36,1
MP-K-23K23S2,56,experiment,94,←,left,←,0.4854909999994561,True,36,1
MP-K-23K23S2,57,experiment,87,↑,up,↑,0.5809311999473721,True,36,1
MP-K-23K23S2,58,experiment,86,←,left,←,0.5286776000866666,True,36,1
MP-K-23K23S2,59,experiment,88,→,right,→,0.565682000014931,True,36,1
MP-K-23K23S2,60,experiment,107,→,left,←,0.4912046000827104,False,36,1
MP-K-23K23S2,61,experiment,60,←,right,→,0.5554276000475511,False,36,1
MP-K-23K23S2,62,experiment,80,←,left,←,0.6259908000938594,True,36,1
MP-K-23K23S2,63,experiment,57,↑,up,↑,0.5413925000466406,True,36,1
MP-K-23K23S2,64,experiment,73,←,left,←,0.5913527000229806,True,36,1
MP-K-23K23S2,65,experiment,106,→,right,→,0.5480626000789925,True,36,1
MP-K-23K23S2,66,experiment,82,↓,down,↓,0.4907033999916166,True,36,1
MP-K-23K23S2,67,experiment,61,↓,down,↓,0.4169014999642968,True,36,1
MP-K-23K23S2,68,experiment,97,↓,down,↓,0.5125292999437079,True,36,0
MP-K-23K23S2,69,experiment,75,→,right,→,0.5226177000440657,True,36,1
MP-K-23K23S2,70,experiment,54,→,right,→,0.4835992999142036,True,36,1
MP-K-23K23S2,71,experiment,96,→,right,→,0.559833399951458,True,36,1
MP-K-23K23S2,72,experiment,65,←,left,←,0.467824500054121,True,36,1
MP-K-23K23S2,73,experiment,95,→,right,→,0.5446731999982148,True,36,0
MP-K-23K23S2,74,experiment,78,→,left,←,0.47269530000630766,False,36,1
MP-K-23K23S2,75,experiment,81,→,no_key,no_letter,-1.0,False,36,0
MP-K-23K23S2,76,experiment,90,↑,down,↓,0.5489696000004187,False,36,1
MP-K-23K23S2,77,experiment,99,←,left,←,0.629734699963592,True,36,1
MP-K-23K23S2,78,experiment,74,↑,up,↑,0.5474502999568358,True,36,1
MP-K-23K23S2,79,experiment,91,←,left,←,0.48692600009962916,True,36,1
MP-K-23K23S2,80,experiment,84,↓,down,↓,0.4511016000760719,True,36,1
MP-K-23K23S2,81,experiment,64,→,right,→,0.5269857000093907,True,36,1
MP-K-23K23S2,82,experiment,62,↓,down,↓,0.7329349999781698,True,36,1
MP-K-23K23S2,83,experiment,89,←,left,←,0.45120879996102303,True,36,1
MP-K-23K23S2,84,experiment,70,↓,down,↓,0.5278665999649093,True,36,0
MP-K-23K23S2,85,experiment,71,→,up,↑,0.6109473999822512,False,36,1
MP-K-23K23S2,86,experiment,76,↑,up,↑,0.5126021000323817,True,36,1
MP-K-23K23S2,87,experiment,83,←,left,←,0.5039417999796569,True,36,1
MP-K-23K23S2,88,experiment,55,↑,up,↑,0.6570765000069514,True,36,1
MP-K-23K23S2,89,experiment,98,←,left,←,0.47056130005512387,True,36,1
MP-K-23K23S2,90,experiment,58,←,left,←,0.5031577000627294,True,36,0
MP-K-23K23S2,91,experiment,48,↑,up,↑,0.4754632000112906,True,36,1
MP-K-23K23S2,92,experiment,102,→,right,→,0.5093026999384165,True,36,1
MP-K-23K23S2,93,experiment,63,↑,up,↑,0.5879552999977022,True,36,1
MP-K-23K23S2,94,experiment,68,←,left,←,0.44297350000124425,True,36,1
MP-K-23K23S2,95,experiment,50,↓,up,↑,0.6183581000659615,False,36,1
MP-K-23K23S2,96,experiment,93,↑,up,↑,0.6182725999969989,True,36,1
MP-K-23K23S2,97,experiment,108,↑,up,↑,0.6133706000400707,True,36,1
MP-K-23K23S2,98,experiment,85,↑,down,↓,0.7921021000947803,False,36,1
MP-K-23K23S2,99,experiment,100,↓,down,↓,0.5189315999159589,True,36,1
MP-K-23K23S2,100,experiment,92,↓,no_key,no_letter,-1.0,False,36,1
MP-K-23K23S2,101,experiment,56,↓,down,↓,0.6254652999341488,True,36,1
MP-K-23K23S2,102,experiment,79,←,left,←,0.5578995000105351,True,36,1
MP-K-23K23S2,103,experiment,72,↓,down,↓,0.5591238000197336,True,36,1
MP-K-23K23S2,104,training,78,→,right,→,0.6390319999773055,True,36,0
MP-K-23K23S2,105,training,100,←,left,←,0.5077362000010908,True,36,1
MP-K-23K23S2,106,experiment,101,↑,up,↑,0.49352230003569275,True,36,1
MP-K-23K23S2,107,experiment,83,←,right,→,0.6136344999540597,False,36,1
MP-K-23K23S2,108,experiment,65,↑,up,↑,0.5268271999666467,True,36,1
MP-K-23K23S2,109,experiment,102,→,right,→,1.5114420999307185,True,36,1
MP-K-23K23S2,110,experiment,67,↓,down,↓,0.5322046999353915,True,36,1
MP-K-23K23S2,111,experiment,70,→,right,→,0.6631561999674886,True,36,1
MP-K-23K23S2,112,experiment,74,←,left,←,1.8194786000531167,True,36,1
MP-K-23K23S2,113,experiment,93,↑,up,↑,0.6671517000067979,True,36,1
MP-K-23K23S2,114,experiment,48,←,right,→,0.45127100008539855,False,36,1
MP-K-23K23S2,115,experiment,55,→,right,→,0.5875099000986665,True,36,0
MP-K-23K23S2,116,experiment,88,←,left,←,0.5024227000540122,True,36,1
MP-K-23K23S2,117,experiment,59,↓,down,↓,0.49417419999372214,True,36,1
MP-K-23K23S2,118,experiment,92,↑,up,↑,0.43444409989751875,True,36,1
MP-K-23K23S2,119,experiment,98,↑,up,↑,0.6489846999756992,True,36,0
MP-K-23K23S2,120,experiment,54,→,right,→,0.5886648000450805,True,36,1
MP-K-23K23S2,121,experiment,76,↑,up,↑,0.6600676999660209,True,36,1
MP-K-23K23S2,122,experiment,50,←,left,←,0.5042514000087976,True,36,1
MP-K-23K23S2,123,experiment,100,↑,up,↑,0.5782816999126226,True,36,1
MP-K-23K23S2,124,experiment,97,→,right,→,0.6667174999602139,True,36,1
MP-K-23K23S2,125,experiment,63,↓,down,↓,0.5065182000398636,True,36,1
MP-K-23K23S2,126,experiment,75,→,right,→,1.3410150998970494,True,36,1
MP-K-23K23S2,127,experiment,86,↓,down,↓,0.8663690000539646,True,36,1
MP-K-23K23S2,128,experiment,94,←,left,←,0.5760526999365538,True,36,1
MP-K-23K23S2,129,experiment,87,→,right,→,0.563544699922204,True,36,1
MP-K-23K23S2,130,experiment,51,←,left,←,0.4838928999379277,True,36,1
MP-K-23K23S2,131,experiment,61,←,right,→,0.6195796000538394,False,36,1
MP-K-23K23S2,132,experiment,77,↑,up,↑,0.7852763999253511,True,36,1
MP-K-23K23S2,133,experiment,91,→,left,←,0.5074050999246538,False,36,1
MP-K-23K23S2,134,experiment,104,↓,up,↑,0.6360561000183225,False,36,1
MP-K-23K23S2,135,experiment,95,↓,down,↓,0.6826914999401197,True,36,1
MP-K-23K23S2,136,experiment,73,↓,down,↓,0.4790888000279665,True,36,1
MP-K-23K23S2,137,experiment,71,↓,down,↓,0.4838027999503538,True,36,1
MP-K-23K23S2,138,experiment,82,←,left,←,0.660563200013712,True,36,1
MP-K-23K23S2,139,experiment,78,→,right,→,0.6081179999746382,True,36,1
MP-K-23K23S2,140,experiment,60,→,right,→,0.8194269000086933,True,36,1
MP-K-23K23S2,141,experiment,96,↓,down,↓,0.47487579996231943,True,36,1
MP-K-23K23S2,142,experiment,69,←,left,←,0.5442164000123739,True,36,1
MP-K-23K23S2,143,experiment,84,←,left,←,0.4432467999868095,True,36,1
MP-K-23K23S2,144,experiment,108,←,left,←,0.6000866999384016,True,36,0
MP-K-23K23S2,145,experiment,64,↓,down,↓,0.5624007000587881,True,36,1
MP-K-23K23S2,146,experiment,66,↑,up,↑,0.8373546999646351,True,36,1
MP-K-23K23S2,147,experiment,89,←,left,←,0.5898288000607863,True,36,1
MP-K-23K23S2,148,experiment,52,↑,up,↑,0.6047477999236435,True,36,1
MP-K-23K23S2,149,experiment,79,←,left,←,0.5615446999436244,True,36,1
MP-K-23K23S2,150,experiment,49,↑,up,↑,0.578834900050424,True,36,1
MP-K-23K23S2,151,experiment,57,←,left,←,0.5042787999846041,True,36,1
MP-K-23K23S2,152,experiment,103,←,left,←,0.4736938000423834,True,36,1
MP-K-23K23S2,153,experiment,58,↓,down,↓,0.6107080999063328,True,36,1
MP-K-23K23S2,154,experiment,90,↓,up,↑,0.5724401999032125,False,36,1
MP-K-23K23S2,155,experiment,68,↑,down,↓,0.4339000000618398,False,36,1
MP-K-23K23S2,156,experiment,72,↑,up,↑,0.4774396999273449,True,36,0
MP-K-23K23S2,157,experiment,80,←,left,←,0.6064500000793487,True,36,1
MP-K-23K23S2,158,experiment,106,↓,down,↓,0.5063311000121757,True,36,1
MP-K-23K23S2,159,experiment,85,↑,up,↑,0.7293774000136182,True,36,1
MP-K-23K23S2,160,experiment,107,↑,down,↓,0.5044506000122055,False,36,1
MP-K-23K23S2,161,experiment,105,←,left,←,0.5525779000017792,True,36,1
MP-K-23K23S2,162,experiment,99,→,right,→,0.4182302000699565,True,36,1
MP-K-23K23S2,163,experiment,62,↑,up,↑,0.5075456999475136,True,36,0
MP-K-23K23S2,164,experiment,81,←,left,←,0.6039756999816746,True,36,1
MP-K-23K23S2,165,experiment,53,←,left,←,0.7460370999760926,True,36,1
MP-K-23K23S2,166,experiment,56,↑,up,↑,0.5690480000339448,True,36,1
MP-K-23K23S2,167,training,102,→,right,→,0.6113273999653757,True,36,0
MP-K-23K23S2,168,training,61,↓,down,↓,0.6702456999337301,True,36,1
MP-K-23K23S2,169,experiment,97,→,right,→,1.515089400112629,True,36,1
MP-K-23K23S2,170,experiment,61,↑,up,↑,0.4275455999886617,True,36,1
MP-K-23K23S2,171,experiment,62,→,right,→,0.579121199902147,True,36,0
MP-K-23K23S2,172,experiment,84,↓,down,↓,0.5676641999743879,True,36,1
MP-K-23K23S2,173,experiment,96,←,left,←,0.48068829998373985,True,36,1
MP-K-23K23S2,174,experiment,104,→,right,→,0.6024404000490904,True,36,1
MP-K-23K23S2,175,experiment,60,↓,down,↓,0.5660137999802828,True,36,1
MP-K-23K23S2,176,experiment,75,←,left,←,0.7180071000475436,True,36,1
MP-K-23K23S2,177,experiment,108,→,right,→,0.6609263999853283,True,36,1
MP-K-23K23S2,178,experiment,105,←,left,←,0.575492599979043,True,36,1
MP-K-23K23S2,179,experiment,99,↓,down,↓,0.7351919000502676,True,36,1
MP-K-23K23S2,180,experiment,79,←,left,←,0.6149903999175876,True,36,1
MP-K-23K23S2,181,experiment,106,→,right,→,0.6751269999658689,True,36,1
MP-K-23K23S2,182,experiment,49,←,left,←,0.559247300028801,True,36,1
MP-K-23K23S2,183,experiment,65,→,right,→,0.5711665999842808,True,36,1
MP-K-23K23S2,184,experiment,82,←,left,←,0.45176070008892566,True,36,1
MP-K-23K23S2,185,experiment,98,↑,up,↑,0.6853555999696255,True,36,1
MP-K-23K23S2,186,experiment,76,←,left,←,0.48040799994487315,True,36,1
MP-K-23K23S2,187,experiment,73,↑,up,↑,0.49229389999527484,True,36,1
MP-K-23K23S2,188,experiment,63,↑,up,↑,0.4750517000211403,True,36,1
MP-K-23K23S2,189,experiment,81,→,right,→,1.2610977001022547,True,36,0
MP-K-23K23S2,190,experiment,54,→,right,→,0.5523923999862745,True,36,1
MP-K-23K23S2,191,experiment,78,↑,up,↑,0.655849999981001,True,36,1
MP-K-23K23S2,192,experiment,101,←,left,←,0.6033760000718758,True,36,1
MP-K-23K23S2,193,experiment,55,→,right,→,0.6567628000630066,True,36,1
MP-K-23K23S2,194,experiment,74,→,right,→,0.5256172999506816,True,36,1
MP-K-23K23S2,195,experiment,59,↓,down,↓,0.6925888999830931,True,36,1
MP-K-23K23S2,196,experiment,57,←,left,←,0.6937131000449881,True,36,1
MP-K-23K23S2,197,experiment,85,→,right,→,0.5171829999890178,True,36,1
MP-K-23K23S2,198,experiment,56,↓,left,←,0.5256601000437513,False,36,1
MP-K-23K23S2,199,experiment,72,↑,up,↑,0.6805443000048399,True,36,1
MP-K-23K23S2,200,experiment,103,↓,down,↓,0.5784805000294,True,36,1
MP-K-23K23S2,201,experiment,77,↓,down,↓,0.5294468000065535,True,36,1
MP-K-23K23S2,202,experiment,70,↑,up,↑,0.6441657999530435,True,36,1
MP-K-23K23S2,203,experiment,102,↑,up,↑,0.5842659999616444,True,36,1
MP-K-23K23S2,204,experiment,52,↓,down,↓,0.6152355000376701,True,36,1
MP-K-23K23S2,205,experiment,90,↑,up,↑,0.5282382000004873,True,36,1
MP-K-23K23S2,206,experiment,67,→,right,→,0.5883853000123054,True,36,1
MP-K-23K23S2,207,experiment,92,↑,up,↑,0.4938618999440223,True,36,1
MP-K-23K23S2,208,experiment,93,→,right,→,0.5067130000097677,True,36,1
MP-K-23K23S2,209,experiment,88,↑,up,↑,0.6410219999961555,True,36,1
MP-K-23K23S2,210,experiment,53,→,right,→,0.4422111000167206,True,36,1
MP-K-23K23S2,211,experiment,51,↓,up,↑,0.5059802999021485,False,36,0
MP-K-23K23S2,212,experiment,50,↑,down,↓,0.5408800999866799,False,36,1
MP-K-23K23S2,213,experiment,69,↑,up,↑,0.4088606999721378,True,36,1
MP-K-23K23S2,214,experiment,58,↑,up,↑,0.6276794000295922,True,36,0
MP-K-23K23S2,215,experiment,66,↑,up,↑,0.5564487000228837,True,36,1
MP-K-23K23S2,216,experiment,86,↓,down,↓,0.6091600999934599,True,36,1
MP-K-23K23S2,217,experiment,91,→,right,→,0.4745191000401974,True,36,1
MP-K-23K23S2,218,experiment,95,←,left,←,0.5749964999267831,True,36,1
MP-K-23K23S2,219,experiment,80,↓,down,↓,0.5729194000596181,True,36,1
MP-K-23K23S2,220,experiment,94,↓,down,↓,0.5022407000651583,True,36,1
MP-K-23K23S2,221,experiment,83,↓,down,↓,0.47125489998143166,True,36,1
MP-K-23K23S2,222,experiment,64,→,right,→,0.5419911000644788,True,36,1
MP-K-23K23S2,223,experiment,87,→,right,→,0.6109100999310613,True,36,1
MP-K-23K23S2,224,experiment,100,→,right,→,0.4812243999913335,True,36,1
MP-K-23K23S2,225,experiment,48,↓,down,↓,0.5092704000417143,True,36,1
MP-K-23K23S2,226,experiment,107,↑,up,↑,0.5488114999607205,True,36,1
MP-K-23K23S2,227,experiment,71,→,right,→,0.5272924000164494,True,36,1
MP-K-23K23S2,228,experiment,68,↑,up,↑,0.499261699966155,True,36,1
MP-K-23K23S2,229,experiment,89,←,left,←,0.5373823000118136,True,36,1
MP-K-23K23S2,230,training,90,↓,down,↓,0.6223823000909761,True,35,0
MP-K-23K23S2,231,training,70,↑,up,↑,0.5580153999617323,True,35,1
MP-K-23K23S2,232,experiment,84,→,right,→,0.5073646999662742,True,35,1
MP-K-23K23S2,233,experiment,101,←,left,←,0.46125129994470626,True,35,1
MP-K-23K23S2,234,experiment,83,↓,down,↓,0.47839020006358624,True,35,0
MP-K-23K23S2,235,experiment,52,←,left,←,0.5137681999476627,True,35,1
MP-K-23K23S2,236,experiment,64,←,left,←,0.7271817999426275,True,35,1
MP-K-23K23S2,237,experiment,53,↓,down,↓,0.7602836000733078,True,35,1
MP-K-23K23S2,238,experiment,78,←,left,←,0.58353740000166,True,35,1
MP-K-23K23S2,239,experiment,85,←,left,←,0.603618299937807,True,35,1
MP-K-23K23S2,240,experiment,107,↓,down,↓,0.4954839999554679,True,35,1
MP-K-23K23S2,241,experiment,50,↓,down,↓,0.5467167000751942,True,35,1
MP-K-23K23S2,242,experiment,97,↓,down,↓,0.5083827000344172,True,35,1
MP-K-23K23S2,243,experiment,72,→,right,→,0.5274461000226438,True,35,1
MP-K-23K23S2,244,experiment,108,↓,down,↓,0.502366799977608,True,35,1
MP-K-23K23S2,245,experiment,59,→,right,→,0.589935899944976,True,35,1
MP-K-23K23S2,246,experiment,58,←,left,←,0.5789026999846101,True,35,1
MP-K-23K23S2,247,experiment,77,←,left,←,0.46644800005014986,True,35,1
MP-K-23K23S2,248,experiment,70,↑,up,↑,0.6552766000386328,True,35,1
MP-K-23K23S2,249,experiment,79,↓,down,↓,0.9062003999715671,True,35,1
MP-K-23K23S2,250,experiment,80,←,left,←,0.5068764999741688,True,35,1
MP-K-23K23S2,251,experiment,86,←,left,←,0.4896438999567181,True,35,1
MP-K-23K23S2,252,experiment,95,↓,down,↓,0.6782546000322327,True,35,1
MP-K-23K23S2,253,experiment,82,←,left,←,0.5114777999697253,True,35,1
MP-K-23K23S2,254,experiment,49,→,right,→,1.3861983999377117,True,35,1
MP-K-23K23S2,255,experiment,106,↑,down,↓,0.6873199000256136,False,35,1
MP-K-23K23S2,256,experiment,67,↓,down,↓,0.5811441000550985,True,35,1
MP-K-23K23S2,257,experiment,102,→,right,→,0.5552007999503985,True,35,1
MP-K-23K23S2,258,experiment,103,→,right,→,0.6184059000806883,True,35,1
MP-K-23K23S2,259,experiment,91,↓,down,↓,0.6030375000555068,True,35,1
MP-K-23K23S2,260,experiment,55,←,right,→,0.5121591000352055,False,35,1
MP-K-23K23S2,261,experiment,61,↓,down,↓,0.5747133999830112,True,35,1
MP-K-23K23S2,262,experiment,71,←,left,←,0.48786579992156476,True,35,1
MP-K-23K23S2,263,experiment,90,↓,down,↓,0.5660961999092251,True,35,1
MP-K-23K23S2,264,experiment,92,←,left,←,0.584195000003092,True,35,1
MP-K-23K23S2,265,experiment,99,→,right,→,0.43431190005503595,True,35,1
MP-K-23K23S2,266,experiment,94,↓,down,↓,0.5745303999865428,True,35,1
MP-K-23K23S2,267,experiment,62,←,left,←,1.4189328999491408,True,35,1
MP-K-23K23S2,268,experiment,68,↓,down,↓,0.650796200032346,True,35,1
MP-K-23K23S2,269,experiment,100,←,left,←,1.127092199982144,True,35,1
MP-K-23K23S2,270,experiment,76,↑,up,↑,0.5285647000418976,True,35,1
MP-K-23K23S2,271,experiment,57,↓,down,↓,0.5525619999971241,True,35,1
MP-K-23K23S2,272,experiment,88,←,left,←,1.1641733999131247,True,35,1
MP-K-23K23S2,273,experiment,93,→,right,→,1.3661830000346527,True,35,1
MP-K-23K23S2,274,experiment,54,↑,up,↑,0.5255580999655649,True,35,1
MP-K-23K23S2,275,experiment,105,←,left,←,1.348682599957101,True,35,1
MP-K-23K23S2,276,experiment,98,↓,down,↓,0.5178164000390097,True,35,1
MP-K-23K23S2,277,experiment,48,↓,down,↓,0.6089795000152662,True,35,1
MP-K-23K23S2,278,experiment,60,←,left,←,0.4690508999628946,True,35,1
MP-K-23K23S2,279,experiment,75,→,right,→,0.5842342999530956,True,35,1
MP-K-23K23S2,280,experiment,87,←,left,←,0.5955214999848977,True,35,1
MP-K-23K23S2,281,experiment,66,→,right,→,0.6132205000612885,True,35,1
MP-K-23K23S2,282,experiment,96,↑,up,↑,0.6842918999027461,True,35,1
MP-K-23K23S2,283,experiment,81,↑,up,↑,0.6936592999845743,True,35,1
MP-K-23K23S2,284,experiment,104,↑,up,↑,0.6391221999656409,True,35,1
MP-K-23K23S2,285,experiment,89,←,left,←,0.4954101999755949,True,35,1
MP-K-23K23S2,286,experiment,51,↓,up,↑,0.5942686999915168,False,35,1
MP-K-23K23S2,287,experiment,69,←,left,←,0.5629217000678182,True,35,1
MP-K-23K23S2,288,experiment,63,↓,down,↓,0.60704330005683,True,35,1
MP-K-23K23S2,289,experiment,73,←,left,←,0.8220951000694185,True,35,1
MP-K-23K23S2,290,experiment,56,↑,up,↑,0.546157700009644,True,35,1
MP-K-23K23S2,291,experiment,74,↑,up,↑,0.4344246000982821,True,35,1
MP-K-23K23S2,292,experiment,65,↓,down,↓,0.4759372000116855,True,35,0
MP-K-23K23S2,293,training,105,↓,down,↓,0.48529029998462647,True,34,0
MP-K-23K23S2,294,training,67,←,left,←,0.45212130004074425,True,34,1
MP-K-23K23S2,295,experiment,108,↑,up,↑,1.6765724999131635,True,34,1
MP-K-23K23S2,296,experiment,90,↓,left,←,0.4992096000351012,False,34,1
MP-K-23K23S2,297,experiment,106,←,left,←,0.5396793999243528,True,34,1
MP-K-23K23S2,298,experiment,52,→,right,→,0.524395199958235,True,34,1
MP-K-23K23S2,299,experiment,49,↓,down,↓,0.4869189999299124,True,34,1
MP-K-23K23S2,300,experiment,99,→,right,→,0.5619387000333518,True,34,1
MP-K-23K23S2,301,experiment,103,→,right,→,0.5049163999501616,True,34,1
MP-K-23K23S2,302,experiment,91,→,right,→,0.4344861999852583,True,34,1
MP-K-23K23S2,303,experiment,73,↓,down,↓,0.42620099999476224,True,34,1
MP-K-23K23S2,304,experiment,101,↓,down,↓,0.46508039999753237,True,34,0
MP-K-23K23S2,305,experiment,48,←,left,←,0.5258533000014722,True,34,1
MP-K-23K23S2,306,experiment,79,←,left,←,0.43441909993998706,True,34,1
MP-K-23K23S2,307,experiment,64,→,right,→,0.6068845000118017,True,34,1
MP-K-23K23S2,308,experiment,76,↓,down,↓,0.5089238999644294,True,34,1
MP-K-23K23S2,309,experiment,53,↓,down,↓,0.5745970000280067,True,34,1
MP-K-23K23S2,310,experiment,54,→,right,→,0.6695175999775529,True,34,1
MP-K-23K23S2,311,experiment,69,↓,down,↓,0.5632192000048235,True,34,1
MP-K-23K23S2,312,experiment,57,↑,up,↑,0.6411850000731647,True,34,1
MP-K-23K23S2,313,experiment,65,→,right,→,0.5776111999293789,True,34,1
MP-K-23K23S2,314,experiment,87,↑,right,→,0.5573347000172362,False,34,1
MP-K-23K23S2,315,experiment,68,↓,down,↓,0.5197568000294268,True,34,1
MP-K-23K23S2,316,experiment,88,→,right,→,0.5576795999659225,True,34,1
MP-K-23K23S2,317,experiment,83,←,left,←,0.4671548999613151,True,34,1
MP-K-23K23S2,318,experiment,78,→,right,→,0.598419199930504,True,34,1
MP-K-23K23S2,319,experiment,59,←,left,←,0.6184311000397429,True,34,1
MP-K-23K23S2,320,experiment,75,↓,down,↓,0.600536199985072,True,34,1
MP-K-23K23S2,321,experiment,82,↓,down,↓,0.4849112000083551,True,34,1
MP-K-23K23S2,322,experiment,96,→,right,→,0.4016251000575721,True,34,1
MP-K-23K23S2,323,experiment,55,→,left,←,0.6218858000356704,False,34,0
MP-K-23K23S2,324,experiment,50,↓,down,↓,0.4925011000595987,True,34,1
MP-K-23K23S2,325,experiment,70,↑,up,↑,0.6810001999838278,True,34,1
MP-K-23K23S2,326,experiment,104,↓,down,↓,0.554746099980548,True,34,1
MP-K-23K23S2,327,experiment,72,↓,down,↓,0.460817200015299,True,34,1
MP-K-23K23S2,328,experiment,105,→,right,→,0.6622532999608666,True,34,1
MP-K-23K23S2,329,experiment,93,↓,down,↓,0.460618200013414,True,34,1
MP-K-23K23S2,330,experiment,89,↑,up,↑,0.6677118000807241,True,34,1
MP-K-23K23S2,331,experiment,84,↓,up,↑,0.6207117000594735,False,34,1
MP-K-23K23S2,332,experiment,95,↓,down,↓,1.2038313000230119,True,34,1
MP-K-23K23S2,333,experiment,107,↑,up,↑,0.6636001999722794,True,34,1
MP-K-23K23S2,334,experiment,85,↓,down,↓,0.6804732999298722,True,34,1
MP-K-23K23S2,335,experiment,58,↓,down,↓,0.49745610007084906,True,34,1
MP-K-23K23S2,336,experiment,92,←,up,↑,0.37623010005336255,False,34,1
MP-K-23K23S2,337,experiment,97,↓,down,↓,0.46271809993777424,True,34,1
MP-K-23K23S2,338,experiment,98,→,right,→,0.5069686999777332,True,34,1
MP-K-23K23S2,339,experiment,60,→,left,←,0.6503833000315353,False,34,1
MP-K-23K23S2,340,experiment,63,↑,up,↑,0.6831051999470219,True,34,1
MP-K-23K23S2,341,experiment,67,→,right,→,0.41912560001946986,True,34,1
MP-K-23K23S2,342,experiment,56,↑,up,↑,0.5891927999909967,True,34,0
MP-K-23K23S2,343,experiment,80,←,down,↓,0.6423824999947101,False,34,1
MP-K-23K23S2,344,experiment,94,→,right,→,0.6491021999390796,True,34,1
MP-K-23K23S2,345,experiment,100,↓,down,↓,0.4853785999584943,True,34,1
MP-K-23K23S2,346,experiment,86,↑,up,↑,0.5172532999422401,True,34,1
MP-K-23K23S2,347,experiment,102,←,left,←,1.2541957000503317,True,34,1
MP-K-23K23S2,348,experiment,61,←,left,←,0.4176297999219969,True,34,1
MP-K-23K23S2,349,experiment,74,→,left,←,0.837557699996978,False,34,0
MP-K-23K23S2,350,experiment,62,→,left,←,1.1828709999099374,False,34,1
MP-K-23K23S2,351,experiment,77,↑,up,↑,0.509733899962157,True,34,1
MP-K-23K23S2,352,experiment,71,←,left,←,0.5294492999091744,True,34,1
MP-K-23K23S2,353,experiment,66,↑,up,↑,0.43665549997240305,True,34,1
MP-K-23K23S2,354,experiment,51,↓,down,↓,0.6188746999250725,True,34,0
MP-K-23K23S2,355,experiment,81,↑,up,↑,1.1187607001047581,True,34,1
MP-K-23K23S2,356,training,60,↓,down,↓,1.0957911000587046,True,34,0
MP-K-23K23S2,357,training,99,↑,up,↑,0.6025835999753326,True,34,1
MP-K-23K23S2,358,experiment,96,↑,up,↑,0.6421160999452695,True,34,1
MP-K-23K23S2,359,experiment,60,←,left,←,0.5723765000002459,True,34,1
MP-K-23K23S2,360,experiment,57,↓,up,↑,0.7301082999911159,False,34,1
MP-K-23K23S2,361,experiment,106,↑,up,↑,0.48107980005443096,True,34,1
MP-K-23K23S2,362,experiment,103,↓,down,↓,0.6751654000254348,True,34,1
MP-K-23K23S2,363,experiment,87,←,left,←,0.4907035999931395,True,34,1
MP-K-23K23S2,364,experiment,93,←,left,←,1.0156946999486536,True,34,1
MP-K-23K23S2,365,experiment,62,↓,down,↓,0.5381977999350056,True,34,1
MP-K-23K23S2,366,experiment,67,↓,down,↓,0.426120400079526,True,34,1
MP-K-23K23S2,367,experiment,50,↑,up,↑,0.6676081999903545,True,34,0
MP-K-23K23S2,368,experiment,85,↓,down,↓,0.5006024000467733,True,34,1
MP-K-23K23S2,369,experiment,61,→,right,→,0.5799336000345647,True,34,1
MP-K-23K23S2,370,experiment,74,←,left,←,0.39227770001161844,True,34,1
MP-K-23K23S2,371,experiment,86,←,left,←,0.38421299995388836,True,34,0
MP-K-23K23S2,372,experiment,79,→,right,→,1.1722838999703526,True,34,0
MP-K-23K23S2,373,experiment,58,↑,up,↑,0.5299518998945132,True,34,1
MP-K-23K23S2,374,experiment,72,↑,up,↑,0.5482554000336677,True,34,1
MP-K-23K23S2,375,experiment,97,→,left,←,0.4936267000157386,False,34,1
MP-K-23K23S2,376,experiment,65,↓,down,↓,0.7559721999568865,True,34,1
MP-K-23K23S2,377,experiment,98,→,right,→,0.48463830002583563,True,34,1
MP-K-23K23S2,378,experiment,48,↑,up,↑,0.6728573999134824,True,34,1
MP-K-23K23S2,379,experiment,68,↑,up,↑,0.46310590009670705,True,34,1
MP-K-23K23S2,380,experiment,90,→,right,→,0.4941881999839097,True,34,1
MP-K-23K23S2,381,experiment,71,→,right,→,0.47461909998673946,True,34,1
MP-K-23K23S2,382,experiment,80,↑,up,↑,0.4527949000475928,True,34,1
MP-K-23K23S2,383,experiment,54,↓,up,↑,0.4885184000013396,False,34,0
MP-K-23K23S2,384,experiment,91,←,left,←,0.5658368999138474,True,34,1
MP-K-23K23S2,385,experiment,78,↑,up,↑,0.5491814999841154,True,34,1
MP-K-23K23S2,386,experiment,76,←,left,←,0.5092756999656558,True,34,1
MP-K-23K23S2,387,experiment,84,←,left,←,0.6771658000070602,True,34,1
MP-K-23K23S2,388,experiment,51,←,left,←,0.48065859999042004,True,34,1
MP-K-23K23S2,389,experiment,105,↓,down,↓,0.5938284000148997,True,34,1
MP-K-23K23S2,390,experiment,70,→,right,→,0.610727799939923,True,34,1
MP-K-23K23S2,391,experiment,89,←,left,←,0.46863160002976656,True,34,1
MP-K-23K23S2,392,experiment,82,→,right,→,0.5096597999799997,True,34,1
MP-K-23K23S2,393,experiment,63,→,right,→,0.964058700017631,True,34,1
MP-K-23K23S2,394,experiment,95,↑,up,↑,0.5655261999927461,True,34,1
MP-K-23K23S2,395,experiment,101,↓,down,↓,0.7569641000591218,True,34,1
MP-K-23K23S2,396,experiment,55,↑,up,↑,0.5239626000402495,True,34,1
MP-K-23K23S2,397,experiment,56,→,left,←,0.491876499960199,False,34,1
MP-K-23K23S2,398,experiment,75,←,left,←,0.7670021000085399,True,34,1
MP-K-23K23S2,399,experiment,53,→,right,→,0.566365999984555,True,34,1
MP-K-23K23S2,400,experiment,83,→,right,→,0.48383990000002086,True,34,1
MP-K-23K23S2,401,experiment,88,↑,up,↑,0.6589057999663055,True,34,1
MP-K-23K23S2,402,experiment,104,→,right,→,0.7175675999606028,True,34,1
MP-K-23K23S2,403,experiment,102,←,left,←,0.48677399998996407,True,34,1
MP-K-23K23S2,404,experiment,52,→,left,←,0.8492939999559894,False,34,1
MP-K-23K23S2,405,experiment,92,→,right,→,0.6163915999932215,True,34,1
MP-K-23K23S2,406,experiment,94,↓,down,↓,0.6000909000867978,True,34,1
MP-K-23K23S2,407,experiment,73,↓,down,↓,0.3921745999250561,True,34,1
MP-K-23K23S2,408,experiment,107,←,right,→,0.5715694000246003,False,34,0
MP-K-23K23S2,409,experiment,59,→,right,→,0.5048888000892475,True,34,1
MP-K-23K23S2,410,experiment,77,←,left,←,0.5227260000538081,True,34,1
MP-K-23K23S2,411,experiment,100,←,right,→,0.5478633000748232,False,34,1
MP-K-23K23S2,412,experiment,108,↑,up,↑,0.5295042999787256,True,34,1
MP-K-23K23S2,413,experiment,69,←,left,←,0.7091658998979256,True,34,1
MP-K-23K23S2,414,experiment,49,↑,up,↑,0.5118326999945566,True,34,1
MP-K-23K23S2,415,experiment,81,→,right,→,0.5683788000606,True,34,1
MP-K-23K23S2,416,experiment,64,↓,down,↓,0.6441869999980554,True,34,1
MP-K-23K23S2,417,experiment,99,→,down,↓,0.6730865000281483,False,34,1
MP-K-23K23S2,418,experiment,66,↑,up,↑,1.303779299953021,True,34,1
MP-K-23K23S2,419,training,59,→,right,→,1.1135738000739366,True,34,0
MP-K-23K23S2,420,training,107,←,left,←,0.5290441999677569,True,34,1
MP-K-23K23S2,421,experiment,78,→,right,→,0.39440909994300455,True,34,1
MP-K-23K23S2,422,experiment,97,→,right,→,0.6005159000633284,True,34,0
MP-K-23K23S2,423,experiment,102,←,left,←,0.5020830000285059,True,34,1
MP-K-23K23S2,424,experiment,57,↑,up,↑,0.4871059999568388,True,34,1
MP-K-23K23S2,425,experiment,99,←,left,←,0.5299470999743789,True,34,1
MP-K-23K23S2,426,experiment,60,↓,down,↓,0.4966427000472322,True,34,1
MP-K-23K23S2,427,experiment,100,↑,up,↑,0.6265702999662608,True,34,1
MP-K-23K23S2,428,experiment,50,↓,down,↓,0.5687570999143645,True,34,1
MP-K-23K23S2,429,experiment,56,←,left,←,0.4951862000161782,True,34,1
MP-K-23K23S2,430,experiment,64,↑,up,↑,0.57397949998267,True,34,1
MP-K-23K23S2,431,experiment,61,↓,down,↓,0.49030119995586574,True,34,1
MP-K-23K23S2,432,experiment,94,←,right,→,0.384408799931407,False,34,1
MP-K-23K23S2,433,experiment,91,←,left,←,1.1210775000508875,True,34,0
MP-K-23K23S2,434,experiment,106,→,left,←,0.4565292000770569,False,34,1
MP-K-23K23S2,435,experiment,49,↓,down,↓,0.6451907000737265,True,34,0
MP-K-23K23S2,436,experiment,108,←,left,←,0.4635886999312788,True,34,1
MP-K-23K23S2,437,experiment,67,→,right,→,0.6140080000041053,True,34,1
MP-K-23K23S2,438,experiment,70,←,left,←,0.661594600067474,True,34,1
MP-K-23K23S2,439,experiment,80,↑,up,↑,0.5524225000990555,True,34,1
MP-K-23K23S2,440,experiment,53,↓,down,↓,0.5202086999779567,True,34,1
MP-K-23K23S2,441,experiment,71,↓,down,↓,0.48360450007021427,True,34,1
MP-K-23K23S2,442,experiment,68,↑,up,↑,0.593411699985154,True,34,1
MP-K-23K23S2,443,experiment,90,←,left,←,0.5151277000550181,True,34,1
MP-K-23K23S2,444,experiment,107,↑,up,↑,0.6185452999779955,True,34,1
MP-K-23K23S2,445,experiment,74,↑,up,↑,0.6806958999950439,True,34,1
MP-K-23K23S2,446,experiment,77,→,right,→,0.5157065000385046,True,34,1
MP-K-23K23S2,447,experiment,88,↓,down,↓,0.5692590000107884,True,34,1
MP-K-23K23S2,448,experiment,86,←,right,→,0.5417871000245214,False,34,1
MP-K-23K23S2,449,experiment,87,↓,down,↓,0.5708462999900803,True,34,1
MP-K-23K23S2,450,experiment,48,↑,up,↑,0.61953300004825,True,34,1
MP-K-23K23S2,451,experiment,85,↓,down,↓,0.558081499999389,True,34,1
MP-K-23K23S2,452,experiment,73,→,left,←,0.45569940004497766,False,34,1
MP-K-23K23S2,453,experiment,105,↓,down,↓,0.4660462000174448,True,34,0
MP-K-23K23S2,454,experiment,81,→,right,→,0.33378020010422915,True,34,1
MP-K-23K23S2,455,experiment,63,↑,up,↑,1.1607859999639913,True,34,0
MP-K-23K23S2,456,experiment,96,←,left,←,0.45846470003016293,True,34,1
MP-K-23K23S2,457,experiment,79,↑,right,→,0.35093000007327646,False,34,1
MP-K-23K23S2,458,experiment,52,↓,up,↑,0.7493910999037325,False,34,0
MP-K-23K23S2,459,experiment,54,←,left,←,0.5330117999110371,True,34,1
MP-K-23K23S2,460,experiment,101,↑,up,↑,1.0538405999541283,True,34,1
MP-K-23K23S2,461,experiment,62,←,left,←,0.3926177000394091,True,34,1
MP-K-23K23S2,462,experiment,89,→,right,→,0.40905120002571493,True,34,0
MP-K-23K23S2,463,experiment,76,→,left,←,0.3510827999562025,False,34,0
MP-K-23K23S2,464,experiment,65,↑,up,↑,0.49804420000873506,True,34,1
MP-K-23K23S2,465,experiment,58,↓,down,↓,0.7146254999097437,True,34,1
MP-K-23K23S2,466,experiment,93,↑,up,↑,0.4259815000696108,True,34,1
MP-K-23K23S2,467,experiment,59,←,left,←,0.5610679999226704,True,34,0
MP-K-23K23S2,468,experiment,98,→,right,→,0.4899994999868795,True,34,1
MP-K-23K23S2,469,experiment,84,←,left,←,0.5539605999365449,True,34,1
MP-K-23K23S2,470,experiment,69,←,left,←,0.6044087999034673,True,34,1
MP-K-23K23S2,471,experiment,66,←,left,←,0.4336728999624029,True,34,1
MP-K-23K23S2,472,experiment,95,→,right,→,1.060549399931915,True,34,0
MP-K-23K23S2,473,experiment,51,↑,up,↑,0.6087969000218436,True,34,1
MP-K-23K23S2,474,experiment,104,→,right,→,0.4540695999749005,True,34,1
MP-K-23K23S2,475,experiment,92,↓,down,↓,0.6281928999815136,True,34,0
MP-K-23K23S2,476,experiment,75,→,right,→,0.521500000031665,True,34,1
MP-K-23K23S2,477,experiment,83,→,right,→,0.37532390002161264,True,34,1
MP-K-23K23S2,478,experiment,82,→,right,→,0.35041389998514205,True,34,0
MP-K-23K23S2,479,experiment,103,→,left,←,0.5011074000503868,False,34,0
MP-K-23K23S2,480,experiment,55,→,right,→,0.4089657999575138,True,34,1
MP-K-23K23S2,481,experiment,72,↓,down,↓,0.5096623999997973,True,34,0
MP-K-23K23S2,482,training,100,→,right,→,0.6224017000058666,True,34,0
MP-K-23K23S2,483,training,51,↑,up,↑,0.5079419000539929,True,34,1
MP-K-23K23S2,484,experiment,81,↑,up,↑,0.49254839995410293,True,34,1
MP-K-23K23S2,485,experiment,90,←,right,→,0.474587699980475,False,34,1
MP-K-23K23S2,486,experiment,67,←,left,←,0.4729536999948323,True,34,1
MP-K-23K23S2,487,experiment,59,→,right,→,0.6022228000219911,True,34,1
MP-K-23K23S2,488,experiment,68,→,right,→,0.40073360002133995,True,34,1
MP-K-23K23S2,489,experiment,84,→,right,→,0.4095958999823779,True,34,0
MP-K-23K23S2,490,experiment,71,↑,up,↑,0.5420612000161782,True,34,1
MP-K-23K23S2,491,experiment,88,→,right,→,0.3425250999862328,True,34,1
MP-K-23K23S2,492,experiment,100,↓,up,↑,0.5951345999492332,False,34,0
MP-K-23K23S2,493,experiment,74,↓,down,↓,1.042450699955225,True,34,1
MP-K-23K23S2,494,experiment,80,↓,down,↓,0.5739546000258997,True,34,1
MP-K-23K23S2,495,experiment,107,↓,down,↓,0.4197251999285072,True,34,1
MP-K-23K23S2,496,experiment,94,↓,down,↓,0.41079479991458356,True,34,0
MP-K-23K23S2,497,experiment,76,↑,down,↓,0.41743229993153363,False,34,0
MP-K-23K23S2,498,experiment,108,↑,up,↑,0.6420444999821484,True,34,0
MP-K-23K23S2,499,experiment,103,↓,down,↓,0.45437689998652786,True,34,1
MP-K-23K23S2,500,experiment,75,↑,up,↑,0.42554830003064126,True,34,0
MP-K-23K23S2,501,experiment,96,←,left,←,1.096242900006473,True,34,0
MP-K-23K23S2,502,experiment,58,↑,up,↑,0.48081919993273914,True,34,1
MP-K-23K23S2,503,experiment,64,←,left,←,1.2479609999572858,True,34,1
MP-K-23K23S2,504,experiment,57,↑,up,↑,0.42773049999959767,True,34,1
MP-K-23K23S2,505,experiment,53,→,right,→,0.6951542000751942,True,34,0
MP-K-23K23S2,506,experiment,95,→,up,↑,0.49923640000633895,False,34,1
MP-K-23K23S2,507,experiment,72,→,left,←,0.47101809992454946,False,34,1
MP-K-23K23S2,508,experiment,63,↓,down,↓,0.6627115000737831,True,34,1
MP-K-23K23S2,509,experiment,87,↓,down,↓,0.43452359992079437,True,34,1
MP-K-23K23S2,510,experiment,104,↑,up,↑,0.49002800008747727,True,34,1
MP-K-23K23S2,511,experiment,61,↑,up,↑,0.665878799976781,True,34,1
MP-K-23K23S2,512,experiment,98,↑,up,↑,0.574471699888818,True,34,1
MP-K-23K23S2,513,experiment,50,↑,down,↓,0.5423512000124902,False,34,1
MP-K-23K23S2,514,experiment,92,↑,up,↑,1.113550000009127,True,34,1
MP-K-23K23S2,515,experiment,73,→,right,→,1.1403767000883818,True,34,1
MP-K-23K23S2,516,experiment,78,←,left,←,0.6285107999574393,True,34,1
MP-K-23K23S2,517,experiment,91,→,right,→,0.6206559999845922,True,34,1
MP-K-23K23S2,518,experiment,62,←,right,→,0.5267651999602094,False,34,1
MP-K-23K23S2,519,experiment,93,↓,down,↓,0.5466103999642655,True,34,1
MP-K-23K23S2,520,experiment,65,→,right,→,0.42598759999964386,True,34,1
MP-K-23K23S2,521,experiment,97,←,right,→,0.3844612999819219,False,34,0
MP-K-23K23S2,522,experiment,83,↓,down,↓,0.4810398999834433,True,34,1
MP-K-23K23S2,523,experiment,99,←,left,←,0.9641670000273734,True,34,1
MP-K-23K23S2,524,experiment,66,↓,down,↓,0.5674144000513479,True,34,1
MP-K-23K23S2,525,experiment,55,→,right,→,0.5423078000312671,True,34,1
MP-K-23K23S2,526,experiment,102,↓,down,↓,0.6142173999687657,True,34,1
MP-K-23K23S2,527,experiment,56,↓,down,↓,0.49863410007674247,True,34,1
MP-K-23K23S2,528,experiment,106,↓,down,↓,0.4749208999564871,True,34,1
MP-K-23K23S2,529,experiment,86,→,right,→,0.9789115000749007,True,34,1
MP-K-23K23S2,530,experiment,77,→,right,→,0.6816982000600547,True,34,1
MP-K-23K23S2,531,experiment,79,→,right,→,0.5957997000077739,True,34,1
MP-K-23K23S2,532,experiment,85,←,left,←,0.4871007000328973,True,34,1
MP-K-23K23S2,533,experiment,49,↑,up,↑,0.4095711999107152,True,34,1
MP-K-23K23S2,534,experiment,60,→,right,→,0.7260462999111041,True,34,1
MP-K-23K23S2,535,experiment,51,→,right,→,0.7838895000750199,True,34,1
MP-K-23K23S2,536,experiment,48,↑,up,↑,0.5443347999826074,True,34,1
MP-K-23K23S2,537,experiment,82,←,left,←,0.41805120010394603,True,34,1
MP-K-23K23S2,538,experiment,70,↑,up,↑,0.4784225000767037,True,34,1
MP-K-23K23S2,539,experiment,101,↓,down,↓,0.5772312999470159,True,34,1
MP-K-23K23S2,540,experiment,54,↑,up,↑,0.671891100006178,True,34,1
MP-K-23K23S2,541,experiment,89,←,left,←,0.5188368000090122,True,34,1
MP-K-23K23S2,542,experiment,52,↓,down,↓,0.5043125000083819,True,34,1
MP-K-23K23S2,543,experiment,105,↑,up,↑,0.4175972000230104,True,34,1
MP-K-23K23S2,544,experiment,69,↑,up,↑,0.6645169999683276,True,34,0
MP-K-23K23S2,545,training,66,↑,up,↑,0.6262538000009954,True,34,0
MP-K-23K23S2,546,training,48,↑,down,↓,0.6729930000146851,False,34,1
MP-K-23K23S2,547,experiment,92,↓,down,↓,0.3930109000066295,True,34,1
MP-K-23K23S2,548,experiment,58,←,left,←,0.4513338999822736,True,34,1
MP-K-23K23S2,549,experiment,108,↑,up,↑,0.46118129999376833,True,34,0
MP-K-23K23S2,550,experiment,98,←,left,←,0.4730674000456929,True,34,1
MP-K-23K23S2,551,experiment,97,←,left,←,0.4776964000193402,True,34,1
MP-K-23K23S2,552,experiment,68,←,left,←,0.7076768000843003,True,34,1
MP-K-23K23S2,553,experiment,94,↑,up,↑,0.5437360000796616,True,34,1
MP-K-23K23S2,554,experiment,73,←,left,←,0.5770330000668764,True,34,1
MP-K-23K23S2,555,experiment,56,↓,down,↓,0.5752524000126868,True,34,1
MP-K-23K23S2,556,experiment,49,↓,down,↓,0.5356517999898642,True,34,1
MP-K-23K23S2,557,experiment,72,↓,down,↓,0.49002250004559755,True,34,1
MP-K-23K23S2,558,experiment,100,←,left,←,0.45311599993146956,True,34,1
MP-K-23K23S2,559,experiment,101,→,right,→,0.41786000004503876,True,34,0
MP-K-23K23S2,560,experiment,104,↑,up,↑,0.4523881000932306,True,34,1
MP-K-23K23S2,561,experiment,91,↑,up,↑,0.587537799961865,True,34,0
MP-K-23K23S2,562,experiment,65,↓,down,↓,0.9657795000821352,True,34,1
MP-K-23K23S2,563,experiment,78,↓,down,↓,0.4769710999680683,True,34,1
MP-K-23K23S2,564,experiment,59,←,left,←,0.662146900082007,True,34,1
MP-K-23K23S2,565,experiment,105,←,left,←,0.5045398999936879,True,34,1
MP-K-23K23S2,566,experiment,96,←,left,←,0.4680104999570176,True,34,1
MP-K-23K23S2,567,experiment,55,←,left,←,0.7345785999204963,True,34,1
MP-K-23K23S2,568,experiment,83,↑,right,→,0.5413426000159234,False,34,1
MP-K-23K23S2,569,experiment,52,→,right,→,0.510036600055173,True,34,1
MP-K-23K23S2,570,experiment,50,↓,down,↓,1.1127185999648646,True,34,1
MP-K-23K23S2,571,experiment,95,→,right,→,0.6121839999686927,True,34,1
MP-K-23K23S2,572,experiment,87,←,right,→,0.7421343000605702,False,34,1
MP-K-23K23S2,573,experiment,88,↑,up,↑,0.6029447000473738,True,34,1
MP-K-23K23S2,574,experiment,66,↑,up,↑,0.5725898999953642,True,34,1
MP-K-23K23S2,575,experiment,63,←,right,→,0.5203649000031874,False,34,1
MP-K-23K23S2,576,experiment,57,←,left,←,0.672528599970974,True,34,1
MP-K-23K23S2,577,experiment,90,↓,down,↓,0.6233127999585122,True,34,1
MP-K-23K23S2,578,experiment,89,←,left,←,0.46435100003145635,True,34,1
MP-K-23K23S2,579,experiment,107,→,right,→,0.9695067000575364,True,34,1
MP-K-23K23S2,580,experiment,86,↑,up,↑,0.478009199956432,True,34,1
MP-K-23K23S2,581,experiment,62,↓,down,↓,0.5014495000941679,True,34,1
MP-K-23K23S2,582,experiment,82,←,left,←,0.3836106000235304,True,34,1
MP-K-23K23S2,583,experiment,54,↑,up,↑,0.5243046999676153,True,34,0
MP-K-23K23S2,584,experiment,67,↑,up,↑,0.6405710999388248,True,34,1
MP-K-23K23S2,585,experiment,84,↑,up,↑,0.4274450000375509,True,34,1
MP-K-23K23S2,586,experiment,103,→,right,→,0.42643069999758154,True,34,0
MP-K-23K23S2,587,experiment,93,↑,up,↑,0.5017296000150964,True,34,1
MP-K-23K23S2,588,experiment,64,↓,up,↑,0.5641759000718594,False,34,1
MP-K-23K23S2,589,experiment,106,←,left,←,0.4978321000235155,True,34,1
MP-K-23K23S2,590,experiment,51,↑,up,↑,0.508598200045526,True,34,1
MP-K-23K23S2,591,experiment,60,→,left,←,0.6603059000335634,False,34,1
MP-K-23K23S2,592,experiment,71,←,left,←,0.4737565000541508,True,34,1
MP-K-23K23S2,593,experiment,70,←,left,←,0.4262712000636384,True,34,1
MP-K-23K23S2,594,experiment,99,↑,up,↑,0.7086340000387281,True,34,1
MP-K-23K23S2,595,experiment,53,↓,down,↓,0.5423546000383794,True,34,1
MP-K-23K23S2,596,experiment,69,←,left,←,1.017246300005354,True,34,1
MP-K-23K23S2,597,experiment,48,↓,down,↓,0.6005306000588462,True,34,1
MP-K-23K23S2,598,experiment,75,→,right,→,0.6472331000259146,True,34,1
MP-K-23K23S2,599,experiment,81,←,down,↓,0.5378681999864057,False,34,1
MP-K-23K23S2,600,experiment,79,←,left,←,0.4347659000195563,True,34,1
MP-K-23K23S2,601,experiment,85,↑,up,↑,0.4835888999514282,True,34,0
MP-K-23K23S2,602,experiment,74,↓,down,↓,0.4258258000481874,True,34,1
MP-K-23K23S2,603,experiment,102,→,right,→,0.6998611999442801,True,34,0
MP-K-23K23S2,604,experiment,77,→,right,→,0.5258735000388697,True,34,1
MP-K-23K23S2,605,experiment,61,←,left,←,0.5644159000366926,True,34,1
MP-K-23K23S2,606,experiment,80,→,right,→,0.5629253999795765,True,34,1
MP-K-23K23S2,607,experiment,76,→,right,→,0.5468899999978021,True,34,1
MP-K-23K23S2,608,training,54,↓,down,↓,0.6566549999406561,True,33,0
MP-K-23K23S2,609,training,62,↑,up,↑,0.6816050999332219,True,33,1
MP-K-23K23S2,610,experiment,97,↓,down,↓,0.38437109999358654,True,33,1
MP-K-23K23S2,611,experiment,100,←,left,←,0.4177559999516234,True,33,1
MP-K-23K23S2,612,experiment,90,→,right,→,0.5970827999990433,True,33,1
MP-K-23K23S2,613,experiment,57,←,left,←,0.4029741999693215,True,33,1
MP-K-23K23S2,614,experiment,79,↓,down,↓,0.5904473999980837,True,33,0
MP-K-23K23S2,615,experiment,80,←,left,←,0.46786500001326203,True,33,1
MP-K-23K23S2,616,experiment,105,↓,down,↓,1.1338451000628993,True,33,1
MP-K-23K23S2,617,experiment,76,↓,down,↓,0.4547995999455452,True,33,1
MP-K-23K23S2,618,experiment,98,↑,up,↑,0.5395274000475183,True,33,1
MP-K-23K23S2,619,experiment,58,→,left,←,0.47432670008856803,False,33,1
MP-K-23K23S2,620,experiment,70,↓,down,↓,0.456070699961856,True,33,1
MP-K-23K23S2,621,experiment,103,→,right,→,0.554939299938269,True,33,1
MP-K-23K23S2,622,experiment,65,↓,down,↓,0.6307433999609202,True,33,1
MP-K-23K23S2,623,experiment,53,→,right,→,0.5074370999354869,True,33,1
MP-K-23K23S2,624,experiment,52,→,right,→,0.4772978000110015,True,33,1
MP-K-23K23S2,625,experiment,92,→,right,→,0.5555265999864787,True,33,1
MP-K-23K23S2,626,experiment,82,→,right,→,0.593655199976638,True,33,1
MP-K-23K23S2,627,experiment,108,↑,up,↑,0.6296504000201821,True,33,1
MP-K-23K23S2,628,experiment,67,→,right,→,0.4616845999844372,True,33,1
MP-K-23K23S2,629,experiment,61,→,right,→,0.5265089999884367,True,33,1
MP-K-23K23S2,630,experiment,106,↑,up,↑,0.4936712000053376,True,33,1
MP-K-23K23S2,631,experiment,102,→,right,→,0.5517861000262201,True,33,1
MP-K-23K23S2,632,experiment,78,↓,down,↓,0.5836028000339866,True,33,1
MP-K-23K23S2,633,experiment,93,↑,up,↑,0.4889646000228822,True,33,1
MP-K-23K23S2,634,experiment,94,↑,up,↑,0.5417981999926269,True,33,1
MP-K-23K23S2,635,experiment,72,←,left,←,0.5199619000777602,True,33,1
MP-K-23K23S2,636,experiment,71,←,left,←,0.691067700041458,True,33,1
MP-K-23K23S2,637,experiment,89,↓,down,↓,0.4735330999828875,True,33,1
MP-K-23K23S2,638,experiment,63,→,right,→,0.593264100025408,True,33,1
MP-K-23K23S2,639,experiment,74,←,left,←,0.640765400021337,True,33,1
MP-K-23K23S2,640,experiment,85,←,left,←,0.48239379993174225,True,33,1
MP-K-23K23S2,641,experiment,95,↓,down,↓,0.5750997000141069,True,33,1
MP-K-23K23S2,642,experiment,96,↓,up,↑,0.37775630003307015,False,33,1
MP-K-23K23S2,643,experiment,77,←,left,←,0.48631900001782924,True,33,0
MP-K-23K23S2,644,experiment,48,↑,up,↑,0.5944276000373065,True,33,1
MP-K-23K23S2,645,experiment,99,↓,down,↓,0.4812813999596983,True,33,1
MP-K-23K23S2,646,experiment,101,←,left,←,0.5160602999385446,True,33,1
MP-K-23K23S2,647,experiment,107,↑,up,↑,0.6114370999857783,True,33,1
MP-K-23K23S2,648,experiment,88,↓,up,↑,1.1975007000146434,False,33,1
MP-K-23K23S2,649,experiment,60,→,left,←,0.577277300064452,False,33,1
MP-K-23K23S2,650,experiment,91,→,right,→,0.5236492000985891,True,33,1
MP-K-23K23S2,651,experiment,54,↓,down,↓,0.5244783000089228,True,33,1
MP-K-23K23S2,652,experiment,81,↓,left,←,0.4260905999690294,False,33,1
MP-K-23K23S2,653,experiment,51,↓,down,↓,0.5615223000058904,True,33,0
MP-K-23K23S2,654,experiment,62,↑,up,↑,0.6786092000547796,True,33,1
MP-K-23K23S2,655,experiment,66,↑,up,↑,0.6052655000239611,True,33,1
MP-K-23K23S2,656,experiment,50,↑,up,↑,0.5158467999426648,True,33,1
MP-K-23K23S2,657,experiment,87,↓,down,↓,0.5857953999657184,True,33,1
MP-K-23K23S2,658,experiment,75,←,left,←,0.6573714000405744,True,33,1
MP-K-23K23S2,659,experiment,55,↓,down,↓,0.49260530003812164,True,33,1
MP-K-23K23S2,660,experiment,59,↓,down,↓,0.6127933000680059,True,33,1
MP-K-23K23S2,661,experiment,49,←,left,←,0.4994802000001073,True,33,1
MP-K-23K23S2,662,experiment,68,↑,up,↑,0.5046384000452235,True,33,1
MP-K-23K23S2,663,experiment,86,↑,up,↑,0.6715194999706,True,33,1
MP-K-23K23S2,664,experiment,83,←,left,←,0.48854870011564344,True,33,1
MP-K-23K23S2,665,experiment,73,←,left,←,1.1483554999576882,True,33,1
MP-K-23K23S2,666,experiment,84,↓,down,↓,0.5298899000044912,True,33,1
MP-K-23K23S2,667,experiment,104,←,left,←,0.4193556000245735,True,33,1
MP-K-23K23S2,668,experiment,64,↓,down,↓,1.0347557000350207,True,33,0
MP-K-23K23S2,669,experiment,69,→,right,→,0.5142983999103308,True,33,1
MP-K-23K23S2,670,experiment,56,←,left,←,0.6826405000174418,True,33,1
MP-K-23K23S2,671,training,62,→,right,→,0.4501429001102224,True,32,0
MP-K-23K23S2,672,training,106,←,left,←,0.4764708000002429,True,32,1
MP-K-23K23S2,673,experiment,51,↑,up,↑,0.5363099999958649,True,32,1
MP-K-23K23S2,674,experiment,105,←,left,←,0.5753686999669299,True,32,1
MP-K-23K23S2,675,experiment,64,←,left,←,0.4746369000058621,True,32,1
MP-K-23K23S2,676,experiment,73,←,left,←,0.6231695999158546,True,32,1
MP-K-23K23S2,677,experiment,97,↑,up,↑,0.6776109000202268,True,32,1
MP-K-23K23S2,678,experiment,104,↓,down,↓,0.47965949994977564,True,32,1
MP-K-23K23S2,679,experiment,53,←,left,←,0.5061634999001399,True,32,1
MP-K-23K23S2,680,experiment,102,↑,up,↑,0.53176339995116,True,32,1
MP-K-23K23S2,681,experiment,99,→,right,→,0.5490474000107497,True,32,1
MP-K-23K23S2,682,experiment,55,←,left,←,0.5247288999380544,True,32,1
MP-K-23K23S2,683,experiment,98,←,left,←,0.4464529000688344,True,32,1
MP-K-23K23S2,684,experiment,59,→,right,→,0.512516799964942,True,32,1
MP-K-23K23S2,685,experiment,65,↑,up,↑,0.47815590002574027,True,32,1
MP-K-23K23S2,686,experiment,49,↓,up,↑,0.6181315999710932,False,32,1
MP-K-23K23S2,687,experiment,68,←,left,←,0.6584750999463722,True,32,1
MP-K-23K23S2,688,experiment,83,↑,up,↑,0.5082133999094367,True,32,1
MP-K-23K23S2,689,experiment,75,↑,up,↑,0.47062959999311715,True,32,1
MP-K-23K23S2,690,experiment,106,→,left,←,0.5680260000517592,False,32,1
MP-K-23K23S2,691,experiment,63,↑,right,→,0.4760347999399528,False,32,1
MP-K-23K23S2,692,experiment,80,→,right,→,0.4176913999253884,True,32,1
MP-K-23K23S2,693,experiment,86,→,left,←,0.5282834999961779,False,32,0
MP-K-23K23S2,694,experiment,52,→,right,→,0.5536335000069812,True,32,1
MP-K-23K23S2,695,experiment,96,↓,down,↓,0.6111239000456408,True,32,1
MP-K-23K23S2,696,experiment,81,←,left,←,0.49534569995012134,True,32,1
MP-K-23K23S2,697,experiment,48,↓,down,↓,0.5074667000444606,True,32,1
MP-K-23K23S2,698,experiment,58,→,right,→,0.6676019999431446,True,32,1
MP-K-23K23S2,699,experiment,103,→,down,↓,0.5664214000571519,False,32,1
MP-K-23K23S2,700,experiment,100,↑,down,↓,0.5420564000960439,False,32,1
MP-K-23K23S2,701,experiment,90,←,left,←,0.6901614000089467,True,32,1
MP-K-23K23S2,702,experiment,69,↑,up,↑,0.487329600029625,True,32,1
MP-K-23K23S2,703,experiment,56,↓,up,↑,0.6246003999840468,False,32,1
MP-K-23K23S2,704,experiment,61,↓,down,↓,0.40886630001477897,True,32,1
MP-K-23K23S2,705,experiment,82,↑,up,↑,0.566869999980554,True,32,0
MP-K-23K23S2,706,experiment,66,↓,down,↓,0.6098374999128282,True,32,1
MP-K-23K23S2,707,experiment,94,↑,up,↑,0.4739806998986751,True,32,1
MP-K-23K23S2,708,experiment,79,←,left,←,0.39209300000220537,True,32,1
MP-K-23K23S2,709,experiment,89,←,right,→,0.45451529999263585,False,32,0
MP-K-23K23S2,710,experiment,67,↓,down,↓,0.4773851000936702,True,32,1
MP-K-23K23S2,711,experiment,101,→,right,→,0.38573790004011244,True,32,1
MP-K-23K23S2,712,experiment,60,←,left,←,0.5243552000029013,True,32,0
MP-K-23K23S2,713,experiment,78,←,left,←,0.6053067999891937,True,32,1
MP-K-23K23S2,714,experiment,87,←,left,←,0.48735630000010133,True,32,1
MP-K-23K23S2,715,experiment,62,→,right,→,0.4472310000564903,True,32,1
MP-K-23K23S2,716,experiment,72,→,right,→,1.1403845000313595,True,32,1
MP-K-23K23S2,717,experiment,74,←,left,←,0.4090644000098109,True,32,1
MP-K-23K23S2,718,experiment,84,→,right,→,0.5292041000211611,True,32,0
MP-K-23K23S2,719,experiment,107,↓,down,↓,0.45565040002111346,True,32,1
MP-K-23K23S2,720,experiment,91,→,right,→,0.36722070001997054,True,32,1
MP-K-23K23S2,721,experiment,57,↑,down,↓,0.564514399971813,False,32,0
MP-K-23K23S2,722,experiment,88,→,left,←,0.4803763000527397,False,32,1
MP-K-23K23S2,723,experiment,77,↑,up,↑,0.46697209996636957,True,32,1
MP-K-23K23S2,724,experiment,92,←,left,←,0.5454884000355378,True,32,1
MP-K-23K23S2,725,experiment,85,↓,down,↓,0.6067679999396205,True,32,1
MP-K-23K23S2,726,experiment,76,→,right,→,0.4177267999621108,True,32,1
MP-K-23K23S2,727,experiment,71,←,left,←,0.5800080000190064,True,32,0
MP-K-23K23S2,728,experiment,70,←,left,←,0.41780060005839914,True,32,1
MP-K-23K23S2,729,experiment,93,←,left,←,0.3847464999416843,True,32,0
MP-K-23K23S2,730,experiment,54,↑,up,↑,0.4747446000110358,True,32,1
MP-K-23K23S2,731,experiment,95,↑,up,↑,0.5999938999302685,True,32,1
MP-K-23K23S2,732,experiment,108,←,left,←,0.5716069999616593,True,32,1
MP-K-23K23S2,733,experiment,50,←,left,←,0.4836866999976337,True,32,1
MP-K-23K23S2,734,training,97,←,left,←,0.45286089996807277,True,32,0
MP-K-23K23S2,735,training,51,↑,up,↑,0.4970296999672428,True,32,1
MP-K-23K23S2,736,experiment,96,↑,up,↑,0.5407606998924166,True,32,1
MP-K-23K23S2,737,experiment,103,←,left,←,0.4088137000799179,True,32,1
MP-K-23K23S2,738,experiment,105,↓,down,↓,1.0403925999999046,True,32,0
MP-K-23K23S2,739,experiment,102,↑,left,←,0.4524277000455186,False,32,1
MP-K-23K23S2,740,experiment,104,↓,down,↓,0.5593551999190822,True,32,1
MP-K-23K23S2,741,experiment,93,↑,up,↑,0.5057606000918895,True,32,1
MP-K-23K23S2,742,experiment,52,←,left,←,0.5557659999467432,True,32,1
MP-K-23K23S2,743,experiment,76,↓,down,↓,0.49972159997560084,True,32,1
MP-K-23K23S2,744,experiment,107,↓,down,↓,0.4524420000379905,True,32,1
MP-K-23K23S2,745,experiment,62,→,left,←,0.5166812000097707,False,32,1
MP-K-23K23S2,746,experiment,55,↓,no_key,no_letter,-1.0,False,32,1
MP-K-23K23S2,747,experiment,73,←,left,←,0.4712841999717057,True,32,1
MP-K-23K23S2,748,experiment,71,↑,up,↑,1.5322405999759212,True,32,1
MP-K-23K23S2,749,experiment,56,↑,down,↓,0.4601881999988109,False,32,1
MP-K-23K23S2,750,experiment,49,←,left,←,0.46500189998187125,True,32,1
MP-K-23K23S2,751,experiment,85,←,left,←,0.4976683999411762,True,32,1
MP-K-23K23S2,752,experiment,67,→,right,→,0.38464940001722425,True,32,1
MP-K-23K23S2,753,experiment,50,→,right,→,0.6466165999881923,True,32,0
MP-K-23K23S2,754,experiment,79,↓,left,←,0.3338129000039771,False,32,1
MP-K-23K23S2,755,experiment,84,↑,down,↓,0.5761540000094101,False,32,0
MP-K-23K23S2,756,experiment,54,←,up,↑,0.5027643999783322,False,32,1
MP-K-23K23S2,757,experiment,78,→,left,←,0.3004826999967918,False,32,1
MP-K-23K23S2,758,experiment,94,→,right,→,0.45278199994936585,True,32,0
MP-K-23K23S2,759,experiment,81,↓,down,↓,0.5591535000130534,True,32,1
MP-K-23K23S2,760,experiment,89,↑,down,↓,1.1386724000331014,False,32,1
MP-K-23K23S2,761,experiment,65,→,right,→,0.583243599976413,True,32,1
MP-K-23K23S2,762,experiment,68,↑,up,↑,0.4425150000024587,True,32,1
MP-K-23K23S2,763,experiment,82,→,right,→,1.22728319989983,True,32,1
MP-K-23K23S2,764,experiment,59,↑,up,↑,0.5259608998894691,True,32,1
MP-K-23K23S2,765,experiment,92,→,right,→,0.4980309000238776,True,32,1
MP-K-23K23S2,766,experiment,53,↑,up,↑,0.5002520999405533,True,32,1
MP-K-23K23S2,767,experiment,60,↓,down,↓,0.5719081000424922,True,32,1
MP-K-23K23S2,768,experiment,99,←,right,→,0.44383620005100965,False,32,1
MP-K-23K23S2,769,experiment,74,↓,down,↓,0.4887491000117734,True,32,1
MP-K-23K23S2,770,experiment,97,←,left,←,0.43728479999117553,True,32,1
MP-K-23K23S2,771,experiment,88,→,left,←,0.43764339992776513,False,32,0
MP-K-23K23S2,772,experiment,100,←,down,↓,0.3928911000257358,False,32,0
MP-K-23K23S2,773,experiment,58,→,right,→,0.47822379996068776,True,32,1
MP-K-23K23S2,774,experiment,66,↓,right,→,0.509112500003539,False,32,1
MP-K-23K23S2,775,experiment,69,→,left,←,0.5214836000232026,False,32,1
MP-K-23K23S2,776,experiment,101,→,right,→,0.49053029995411634,True,32,1
MP-K-23K23S2,777,experiment,64,↓,down,↓,0.5213360999478027,True,32,1
MP-K-23K23S2,778,experiment,75,↑,down,↓,0.523114399984479,False,32,1
MP-K-23K23S2,779,experiment,77,↑,up,↑,0.46050399995874614,True,32,1
MP-K-23K23S2,780,experiment,57,←,left,←,0.5106713999994099,True,32,1
MP-K-23K23S2,781,experiment,48,←,left,←,0.6182083000894636,True,32,1
MP-K-23K23S2,782,experiment,108,←,left,←,1.0611218999838457,True,32,1
MP-K-23K23S2,783,experiment,106,↓,down,↓,0.55894320004154,True,32,1
MP-K-23K23S2,784,experiment,61,→,right,→,0.44486930000130087,True,32,1
MP-K-23K23S2,785,experiment,63,↑,left,←,0.4848417000612244,False,32,1
MP-K-23K23S2,786,experiment,80,↓,down,↓,0.9744223000016063,True,32,1
MP-K-23K23S2,787,experiment,72,→,right,→,0.7351750999223441,True,32,1
MP-K-23K23S2,788,experiment,95,→,right,→,0.4338121000910178,True,32,1
MP-K-23K23S2,789,experiment,51,↑,up,↑,0.5911458999617025,True,32,0
MP-K-23K23S2,790,experiment,98,↓,left,←,0.526519599952735,False,32,1
MP-K-23K23S2,791,experiment,90,↓,down,↓,0.44366809993516654,True,32,1
MP-K-23K23S2,792,experiment,86,↑,up,↑,0.43639980000443757,True,32,1
MP-K-23K23S2,793,experiment,91,↑,up,↑,0.7079277000157163,True,32,0
MP-K-23K23S2,794,experiment,83,←,left,←,1.0035101000685245,True,32,1
MP-K-23K23S2,795,experiment,87,↑,up,↑,0.4463218000018969,True,32,1
MP-K-23K23S2,796,experiment,70,↑,up,↑,1.0601648000301793,True,32,1
MP-K-23K23S2,797,training,50,→,right,→,0.6663955000694841,True,32,0
MP-K-23K23S2,798,training,98,←,left,←,0.5266716000624001,True,32,1
MP-K-23K23S2,799,experiment,76,↓,down,↓,0.5600534999975935,True,32,1
MP-K-23K23S2,800,experiment,80,←,left,←,0.5024177000159398,True,32,1
MP-K-23K23S2,801,experiment,107,↓,down,↓,0.5503025000216439,True,32,1
MP-K-23K23S2,802,experiment,51,↓,down,↓,0.4401271999813616,True,32,1
MP-K-23K23S2,803,experiment,104,←,left,←,0.5703339000465348,True,32,1
MP-K-23K23S2,804,experiment,98,↑,up,↑,0.45094250002875924,True,32,1
MP-K-23K23S2,805,experiment,73,→,down,↓,0.5035977999214083,False,32,1
MP-K-23K23S2,806,experiment,63,↑,left,←,0.43877969996538013,False,32,1
MP-K-23K23S2,807,experiment,79,→,right,→,0.3943429000210017,True,32,0
MP-K-23K23S2,808,experiment,105,↑,up,↑,0.6864218999398872,True,32,0
MP-K-23K23S2,809,experiment,56,←,left,←,0.45590610010549426,True,32,1
MP-K-23K23S2,810,experiment,72,↑,left,←,0.4770296999486163,False,32,1
MP-K-23K23S2,811,experiment,87,↑,up,↑,0.6447632999625057,True,32,1
MP-K-23K23S2,812,experiment,57,←,left,←,0.4398231999948621,True,32,1
MP-K-23K23S2,813,experiment,64,↓,down,↓,0.4011660000542179,True,32,1
MP-K-23K23S2,814,experiment,85,↑,up,↑,0.5552981999935582,True,32,1
MP-K-23K23S2,815,experiment,86,↑,up,↑,0.6320885999593884,True,32,1
MP-K-23K23S2,816,experiment,97,←,right,→,0.6301253000274301,False,32,1
MP-K-23K23S2,817,experiment,49,←,left,←,0.5081000999780372,True,32,1
MP-K-23K23S2,818,experiment,53,↑,up,↑,0.5979082999983802,True,32,1
MP-K-23K23S2,819,experiment,69,→,right,→,0.6307705000508577,True,32,1
MP-K-23K23S2,820,experiment,101,↑,up,↑,0.5394366000546142,True,32,1
MP-K-23K23S2,821,experiment,74,↑,up,↑,0.5167665999615565,True,32,1
MP-K-23K23S2,822,experiment,62,→,right,→,0.4592903000302613,True,32,1
MP-K-23K23S2,823,experiment,82,→,right,→,0.43828350002877414,True,32,1
MP-K-23K23S2,824,experiment,78,↑,up,↑,0.625478999922052,True,32,1
MP-K-23K23S2,825,experiment,81,←,left,←,0.43779320002067834,True,32,1
MP-K-23K23S2,826,experiment,66,↑,up,↑,0.4094865000806749,True,32,0
MP-K-23K23S2,827,experiment,91,→,left,←,0.4779551000101492,False,32,1
MP-K-23K23S2,828,experiment,70,↓,down,↓,0.5714359999401495,True,32,1
MP-K-23K23S2,829,experiment,67,←,left,←,0.45375440001953393,True,32,1
MP-K-23K23S2,830,experiment,108,↑,up,↑,0.3606483999174088,True,32,1
MP-K-23K23S2,831,experiment,88,→,right,→,1.058654300053604,True,32,1
MP-K-23K23S2,832,experiment,52,←,right,→,0.5186246000230312,False,32,1
MP-K-23K23S2,833,experiment,99,←,left,←,0.48860729997977614,True,32,1
MP-K-23K23S2,834,experiment,68,→,right,→,1.0218573999591172,True,32,1
MP-K-23K23S2,835,experiment,58,↑,right,→,0.48946269997395575,False,32,1
MP-K-23K23S2,836,experiment,75,→,right,→,0.46830939990468323,True,32,1
MP-K-23K23S2,837,experiment,95,↑,up,↑,0.4341931000817567,True,32,1
MP-K-23K23S2,838,experiment,103,→,left,←,0.4455106999957934,False,32,0
MP-K-23K23S2,839,experiment,106,→,right,→,0.615943199954927,True,32,1
MP-K-23K23S2,840,experiment,60,→,right,→,0.571175399934873,True,32,1
MP-K-23K23S2,841,experiment,59,↑,up,↑,0.5280922000529245,True,32,1
MP-K-23K23S2,842,experiment,84,↓,down,↓,0.5105510000139475,True,32,1
MP-K-23K23S2,843,experiment,102,↓,down,↓,0.487901599961333,True,32,1
MP-K-23K23S2,844,experiment,71,→,right,→,0.5324395999778062,True,32,1
MP-K-23K23S2,845,experiment,61,→,right,→,0.5384400000330061,True,32,1
MP-K-23K23S2,846,experiment,96,→,left,←,0.6284710000036284,False,32,1
MP-K-23K23S2,847,experiment,83,↑,up,↑,0.6315158000215888,True,32,1
MP-K-23K23S2,848,experiment,65,→,right,→,0.5205646000104025,True,32,1
MP-K-23K23S2,849,experiment,89,←,left,←,0.5093182999407873,True,32,1
MP-K-23K23S2,850,experiment,93,↑,up,↑,0.5217816000804305,True,32,1
MP-K-23K23S2,851,experiment,77,←,left,←,0.5228724000044167,True,32,1
MP-K-23K23S2,852,experiment,94,←,left,←,0.7340510999783874,True,32,1
MP-K-23K23S2,853,experiment,100,→,right,→,0.5591890999348834,True,32,1
MP-K-23K23S2,854,experiment,48,→,left,←,0.5126076999586076,False,32,1
MP-K-23K23S2,855,experiment,90,→,right,→,0.47791800007689744,True,32,1
MP-K-23K23S2,856,experiment,92,↑,up,↑,0.6680101999081671,True,32,1
MP-K-23K23S2,857,experiment,54,↑,up,↑,0.5750833998899907,True,32,1
MP-K-23K23S2,858,experiment,50,←,left,←,0.4954751000041142,True,32,1
MP-K-23K23S2,859,experiment,55,↓,down,↓,0.6970506000798196,True,32,1
MP-K-23K23S2,860,training,68,↓,left,←,0.8491011000005528,False,32,0
MP-K-23K23S2,861,training,106,↓,down,↓,0.5233987999381498,True,32,1
MP-K-23K23S2,862,experiment,58,↓,down,↓,0.4749017000431195,True,32,1
MP-K-23K23S2,863,experiment,71,↑,down,↓,0.4878261999692768,False,32,1
MP-K-23K23S2,864,experiment,92,↓,down,↓,0.4692951999604702,True,32,1
MP-K-23K23S2,865,experiment,63,→,right,→,0.5733407000079751,True,32,1
MP-K-23K23S2,866,experiment,79,←,left,←,0.6036990000866354,True,32,1
MP-K-23K23S2,867,experiment,86,↑,up,↑,0.5903898000251502,True,32,1
MP-K-23K23S2,868,experiment,55,↑,up,↑,0.6362465999554843,True,32,1
MP-K-23K23S2,869,experiment,68,→,right,→,0.4011688999598846,True,32,1
MP-K-23K23S2,870,experiment,72,↑,up,↑,0.6191435999935493,True,32,1
MP-K-23K23S2,871,experiment,103,↑,up,↑,0.6717065999982879,True,32,1
MP-K-23K23S2,872,experiment,99,→,left,←,0.5075914000626653,False,32,1
MP-K-23K23S2,873,experiment,87,↓,down,↓,0.46587069996166974,True,32,1
MP-K-23K23S2,874,experiment,76,→,right,→,0.6377335999859497,True,32,1
MP-K-23K23S2,875,experiment,83,→,right,→,0.5041038000490516,True,32,1
MP-K-23K23S2,876,experiment,67,↓,up,↑,0.5172060000477359,False,32,1
MP-K-23K23S2,877,experiment,65,↑,down,↓,0.4824304999783635,False,32,1
MP-K-23K23S2,878,experiment,105,↓,down,↓,0.5399079999187961,True,32,1
MP-K-23K23S2,879,experiment,106,→,right,→,1.106493299943395,True,32,1
MP-K-23K23S2,880,experiment,51,↑,down,↓,0.6208937000483274,False,32,1
MP-K-23K23S2,881,experiment,50,↑,up,↑,0.6429156999802217,True,32,1
MP-K-23K23S2,882,experiment,57,→,right,→,0.46999009989667684,True,32,1
MP-K-23K23S2,883,experiment,97,↑,up,↑,1.1871222999179736,True,32,1
MP-K-23K23S2,884,experiment,77,→,right,→,0.5131071000359952,True,32,1
MP-K-23K23S2,885,experiment,91,←,right,→,0.461964700021781,False,32,1
MP-K-23K23S2,886,experiment,69,←,left,←,0.5483863999834284,True,32,1
MP-K-23K23S2,887,experiment,48,→,right,→,0.6380940999370068,True,32,1
MP-K-23K23S2,888,experiment,102,↓,down,↓,0.7620979999192059,True,32,1
MP-K-23K23S2,889,experiment,89,↑,up,↑,0.43822230002842844,True,32,1
MP-K-23K23S2,890,experiment,70,←,left,←,0.43614100001286715,True,32,1
MP-K-23K23S2,891,experiment,108,↑,up,↑,0.6783477000426501,True,32,0
MP-K-23K23S2,892,experiment,93,↓,down,↓,0.643986799987033,True,32,1
MP-K-23K23S2,893,experiment,95,↓,down,↓,0.642332199960947,True,32,1
MP-K-23K23S2,894,experiment,60,↑,up,↑,0.43643030000384897,True,32,1
MP-K-23K23S2,895,experiment,64,←,left,←,0.5091630999231711,True,32,0
MP-K-23K23S2,896,experiment,101,←,left,←,0.44679289998020977,True,32,1
MP-K-23K23S2,897,experiment,56,←,down,↓,0.7863721000030637,False,32,1
MP-K-23K23S2,898,experiment,90,↓,down,↓,0.5403921999968588,True,32,1
MP-K-23K23S2,899,experiment,73,←,left,←,0.5499834000365809,True,32,1
MP-K-23K23S2,900,experiment,54,↓,down,↓,0.5098377000540495,True,32,1
MP-K-23K23S2,901,experiment,74,→,right,→,0.5686114999698475,True,32,1
MP-K-23K23S2,902,experiment,82,↑,up,↑,0.6783321999246255,True,32,1
MP-K-23K23S2,903,experiment,61,→,right,→,0.5746596000390127,True,32,1
MP-K-23K23S2,904,experiment,80,←,left,←,0.6608237000182271,True,32,1
MP-K-23K23S2,905,experiment,98,↓,down,↓,0.5449870000593364,True,32,1
MP-K-23K23S2,906,experiment,52,→,left,←,0.9537783999694511,False,32,1
MP-K-23K23S2,907,experiment,75,↓,down,↓,0.618283599964343,True,32,1
MP-K-23K23S2,908,experiment,59,↓,down,↓,0.5495746000669897,True,32,1
MP-K-23K23S2,909,experiment,100,←,left,←,0.621947200037539,True,32,1
MP-K-23K23S2,910,experiment,96,→,right,→,0.6133016999810934,True,32,1
MP-K-23K23S2,911,experiment,49,→,left,←,0.6114333999576047,False,32,1
MP-K-23K23S2,912,experiment,81,↑,up,↑,0.5357772000133991,True,32,1
MP-K-23K23S2,913,experiment,107,→,right,→,0.6625811998965219,True,32,1
MP-K-23K23S2,914,experiment,78,→,right,→,0.529558299924247,True,32,1
MP-K-23K23S2,915,experiment,94,→,right,→,0.6530708000063896,True,32,1
MP-K-23K23S2,916,experiment,53,→,left,←,0.7209284000564367,False,32,1
MP-K-23K23S2,917,experiment,104,←,left,←,0.5929990999866277,True,32,1
MP-K-23K23S2,918,experiment,62,→,right,→,0.5965498998994008,True,32,1
MP-K-23K23S2,919,experiment,84,→,right,→,0.5520719999913126,True,32,1
MP-K-23K23S2,920,experiment,66,↓,down,↓,0.45164729992393404,True,32,1
MP-K-23K23S2,921,experiment,85,↓,down,↓,0.708994600106962,True,32,1
MP-K-23K23S2,922,experiment,88,↓,down,↓,0.4750269000651315,True,32,1
MP-K-23K23S2,923,training,56,↑,up,↑,0.4968347999965772,True,32,0
MP-K-23K23S2,924,training,48,→,left,←,0.4762842000927776,False,32,1
MP-K-23K23S2,925,experiment,107,←,down,↓,0.40102290001232177,False,32,1
MP-K-23K23S2,926,experiment,93,↓,down,↓,0.5419599000597373,True,32,0
MP-K-23K23S2,927,experiment,67,→,left,←,0.44177720008883625,False,32,1
MP-K-23K23S2,928,experiment,90,↑,up,↑,0.6895616999827325,True,32,1
MP-K-23K23S2,929,experiment,66,↓,down,↓,0.49556439998559654,True,32,1
MP-K-23K23S2,930,experiment,89,↓,down,↓,0.4858345000538975,True,32,1
MP-K-23K23S2,931,experiment,61,↑,up,↑,0.6860083999345079,True,32,1
MP-K-23K23S2,932,experiment,50,←,left,←,0.46581640001386404,True,32,1
MP-K-23K23S2,933,experiment,54,←,down,↓,0.50086440006271,False,32,1
MP-K-23K23S2,934,experiment,78,↑,up,↑,0.47857259993907064,True,32,1
MP-K-23K23S2,935,experiment,76,←,left,←,0.47401879995595664,True,32,1
MP-K-23K23S2,936,experiment,70,↓,down,↓,0.6476582000032067,True,32,1
MP-K-23K23S2,937,experiment,56,↓,down,↓,0.594439800013788,True,32,1
MP-K-23K23S2,938,experiment,99,↑,up,↑,0.6017883999738842,True,32,1
MP-K-23K23S2,939,experiment,84,↓,down,↓,0.5333676000591367,True,32,1
MP-K-23K23S2,940,experiment,68,←,left,←,0.4096877999836579,True,32,1
MP-K-23K23S2,941,experiment,104,←,left,←,0.4531596000306308,True,32,0
MP-K-23K23S2,942,experiment,108,↓,down,↓,0.5344794999109581,True,32,1
MP-K-23K23S2,943,experiment,60,→,left,←,0.7729003999847919,False,32,1
MP-K-23K23S2,944,experiment,69,↓,down,↓,0.502530699945055,True,32,1
MP-K-23K23S2,945,experiment,88,↑,up,↑,0.7645668999757618,True,32,1
MP-K-23K23S2,946,experiment,92,↑,up,↑,0.6230589000042528,True,32,1
MP-K-23K23S2,947,experiment,98,←,left,←,0.5329390000551939,True,32,1
MP-K-23K23S2,948,experiment,55,←,left,←,0.5170076999347657,True,32,1
MP-K-23K23S2,949,experiment,102,←,left,←,0.5101332000922412,True,32,1
MP-K-23K23S2,950,experiment,53,↑,up,↑,0.448269100044854,True,32,1
MP-K-23K23S2,951,experiment,86,→,right,→,0.417895800084807,True,32,1
MP-K-23K23S2,952,experiment,80,←,left,←,0.5411825000774115,True,32,0
MP-K-23K23S2,953,experiment,52,→,left,←,0.5897742999950424,False,32,1
MP-K-23K23S2,954,experiment,49,↓,down,↓,0.7334663999499753,True,32,1
MP-K-23K23S2,955,experiment,105,→,right,→,0.5731053999625146,True,32,1
MP-K-23K23S2,956,experiment,64,←,left,←,0.5524118000175804,True,32,1
MP-K-23K23S2,957,experiment,77,←,left,←,0.6086012000450864,True,32,1
MP-K-23K23S2,958,experiment,79,↑,up,↑,0.573445999994874,True,32,1
MP-K-23K23S2,959,experiment,96,↓,left,←,0.6302155000157654,False,32,1
MP-K-23K23S2,960,experiment,85,↑,up,↑,0.4883801999967545,True,32,1
MP-K-23K23S2,961,experiment,51,↓,down,↓,0.5073021999560297,True,32,1
MP-K-23K23S2,962,experiment,91,←,down,↓,0.5202994999708608,False,32,1
MP-K-23K23S2,963,experiment,97,←,left,←,0.44351600005757064,True,32,1
MP-K-23K23S2,964,experiment,101,→,right,→,0.4396593999117613,True,32,1
MP-K-23K23S2,965,experiment,58,↑,up,↑,0.4496050000889227,True,32,1
MP-K-23K23S2,966,experiment,83,↓,down,↓,0.6913631999632344,True,32,1
MP-K-23K23S2,967,experiment,81,↓,left,←,0.40118289995007217,False,32,1
MP-K-23K23S2,968,experiment,62,←,left,←,0.6311563000781462,True,32,1
MP-K-23K23S2,969,experiment,63,↑,up,↑,0.512592599960044,True,32,1
MP-K-23K23S2,970,experiment,75,→,down,↓,0.6186916000442579,False,32,1
MP-K-23K23S2,971,experiment,82,↑,up,↑,0.44648080004844815,True,32,1
MP-K-23K23S2,972,experiment,65,→,right,→,0.6464920000871643,True,32,1
MP-K-23K23S2,973,experiment,95,←,left,←,0.47641320002730936,True,32,1
MP-K-23K23S2,974,experiment,72,←,left,←,0.7371971999527887,True,32,1
MP-K-23K23S2,975,experiment,57,→,right,→,0.3929921999806538,True,32,1
MP-K-23K23S2,976,experiment,100,↓,down,↓,0.4549159000162035,True,32,1
MP-K-23K23S2,977,experiment,73,↓,down,↓,1.043816399993375,True,32,1
MP-K-23K23S2,978,experiment,87,↓,down,↓,0.45278459996916354,True,32,1
MP-K-23K23S2,979,experiment,59,↑,down,↓,0.46245810005348176,False,32,1
MP-K-23K23S2,980,experiment,94,→,right,→,0.5482273999368772,True,32,1
MP-K-23K23S2,981,experiment,48,←,left,←,0.6379884999478236,True,32,1
MP-K-23K23S2,982,experiment,71,←,left,←,0.5327438999665901,True,32,1
MP-K-23K23S2,983,experiment,106,↓,down,↓,0.6037373999133706,True,32,1
MP-K-23K23S2,984,experiment,74,→,left,←,0.6664784000022337,False,32,1
MP-K-23K23S2,985,experiment,103,→,right,→,0.6131560000358149,True,32,1
MP-K-23K23S2,986,training,88,↓,down,↓,0.4684367999434471,True,32,0
MP-K-23K23S2,987,training,56,↓,down,↓,0.47076539997942746,True,32,1
MP-K-23K23S2,988,experiment,76,↓,down,↓,0.45070589997339994,True,32,1
MP-K-23K23S2,989,experiment,104,←,left,←,0.5817206000210717,True,32,1
MP-K-23K23S2,990,experiment,71,←,left,←,0.6543403000105172,True,32,1
MP-K-23K23S2,991,experiment,73,↑,up,↑,0.611520400037989,True,32,1
MP-K-23K23S2,992,experiment,53,←,left,←,0.5211997999576852,True,32,1
MP-K-23K23S2,993,experiment,84,←,left,←,0.5522501000668854,True,32,1
MP-K-23K23S2,994,experiment,86,↑,up,↑,0.6289755000034347,True,32,1
MP-K-23K23S2,995,experiment,72,↓,down,↓,0.4834600000176579,True,32,1
MP-K-23K23S2,996,experiment,70,↑,up,↑,0.5602671999949962,True,32,1
MP-K-23K23S2,997,experiment,97,↓,down,↓,0.529433700023219,True,32,1
MP-K-23K23S2,998,experiment,106,→,right,→,0.5764109999872744,True,32,1
MP-K-23K23S2,999,experiment,77,↓,down,↓,0.5115890000015497,True,32,1
MP-K-23K23S2,1000,experiment,96,↑,up,↑,0.595049099996686,True,32,1
MP-K-23K23S2,1001,experiment,98,←,left,←,0.5220872000791132,True,32,1
MP-K-23K23S2,1002,experiment,93,←,left,←,0.46191900002304465,True,32,1
MP-K-23K23S2,1003,experiment,48,↑,up,↑,0.6348463000031188,True,32,1
MP-K-23K23S2,1004,experiment,94,↓,down,↓,0.5057797000044957,True,32,1
MP-K-23K23S2,1005,experiment,59,←,left,←,1.1295013000490144,True,32,1
MP-K-23K23S2,1006,experiment,101,↓,down,↓,0.47437269997317344,True,32,1
MP-K-23K23S2,1007,experiment,66,→,left,←,0.49700480001047254,False,32,1
MP-K-23K23S2,1008,experiment,89,→,right,→,0.34435469994787127,True,32,1
MP-K-23K23S2,1009,experiment,103,↑,up,↑,0.5180349999573082,True,32,0
MP-K-23K23S2,1010,experiment,83,↓,down,↓,1.0053903999505565,True,32,1
MP-K-23K23S2,1011,experiment,82,↓,down,↓,0.993420899962075,True,32,1
MP-K-23K23S2,1012,experiment,80,→,right,→,0.5268400999484584,True,32,1
MP-K-23K23S2,1013,experiment,58,↓,down,↓,0.4782159000169486,True,32,1
MP-K-23K23S2,1014,experiment,108,↓,down,↓,0.487138899974525,True,32,1
MP-K-23K23S2,1015,experiment,88,↑,up,↑,0.5898551000282168,True,32,1
MP-K-23K23S2,1016,experiment,102,←,left,←,0.523761700023897,True,32,1
MP-K-23K23S2,1017,experiment,107,←,left,←,0.6028125999728218,True,32,1
MP-K-23K23S2,1018,experiment,55,→,right,→,0.5603602000046521,True,32,1
MP-K-23K23S2,1019,experiment,57,→,right,→,0.5426967000821605,True,32,1
MP-K-23K23S2,1020,experiment,79,↑,up,↑,0.4087825999595225,True,32,1
MP-K-23K23S2,1021,experiment,62,←,left,←,0.48082269995938987,True,32,0
MP-K-23K23S2,1022,experiment,52,←,left,←,0.49998730001971126,True,32,1
MP-K-23K23S2,1023,experiment,63,←,left,←,0.4011943999212235,True,32,1
MP-K-23K23S2,1024,experiment,105,→,right,→,0.6551316999830306,True,32,0
MP-K-23K23S2,1025,experiment,75,↑,up,↑,0.6114340000785887,True,32,1
MP-K-23K23S2,1026,experiment,78,↓,down,↓,0.6005865000188351,True,32,1
MP-K-23K23S2,1027,experiment,50,↓,down,↓,0.48790319997351617,True,32,1
MP-K-23K23S2,1028,experiment,68,↓,down,↓,0.5252775999251753,True,32,1
MP-K-23K23S2,1029,experiment,74,↓,down,↓,0.488058999995701,True,32,1
MP-K-23K23S2,1030,experiment,69,↑,down,↓,0.628635699977167,False,32,1
MP-K-23K23S2,1031,experiment,51,↓,down,↓,0.577932000043802,True,32,1
MP-K-23K23S2,1032,experiment,100,↑,left,←,0.5289696999825537,False,32,1
MP-K-23K23S2,1033,experiment,61,↑,down,↓,1.615393799962476,False,32,1
MP-K-23K23S2,1034,experiment,64,↓,down,↓,0.4809627999784425,True,32,1
MP-K-23K23S2,1035,experiment,90,↑,up,↑,0.7515298000071198,True,32,1
MP-K-23K23S2,1036,experiment,99,→,right,→,0.48004109994508326,True,32,1
MP-K-23K23S2,1037,experiment,92,↑,up,↑,0.6698423000052571,True,32,1
MP-K-23K23S2,1038,experiment,65,↓,down,↓,0.5329958000220358,True,32,1
MP-K-23K23S2,1039,experiment,85,↑,up,↑,0.5232362999813631,True,32,1
MP-K-23K23S2,1040,experiment,67,→,right,→,1.1352018000325188,True,32,1
MP-K-23K23S2,1041,experiment,95,↑,up,↑,0.6336419000290334,True,32,1
MP-K-23K23S2,1042,experiment,87,→,right,→,0.7073600000003353,True,32,1
MP-K-23K23S2,1043,experiment,49,↑,up,↑,0.5821594999870285,True,32,1
MP-K-23K23S2,1044,experiment,81,↓,down,↓,0.5076397999655455,True,32,1
MP-K-23K23S2,1045,experiment,91,↓,down,↓,0.712618299992755,True,32,1
MP-K-23K23S2,1046,experiment,56,←,left,←,0.7288499000715092,True,32,1
MP-K-23K23S2,1047,experiment,54,↓,down,↓,0.4732224999461323,True,32,1
MP-K-23K23S2,1048,experiment,60,←,left,←,0.4981548999203369,True,32,1
MP-K-23K23S2,1049,training,92,←,left,←,0.49205590004567057,True,31,0
MP-K-23K23S2,1050,training,98,↑,up,↑,0.5674785999581218,True,31,1
MP-K-23K23S2,1051,experiment,78,↓,down,↓,0.5264166000997648,True,31,1
MP-K-23K23S2,1052,experiment,85,←,left,←,0.6047365000704303,True,31,1
MP-K-23K23S2,1053,experiment,70,↓,down,↓,0.46086180000565946,True,31,1
MP-K-23K23S2,1054,experiment,79,←,left,←,0.39204419997986406,True,31,1
MP-K-23K23S2,1055,experiment,53,↑,up,↑,0.5421781999757513,True,31,0
MP-K-23K23S2,1056,experiment,57,↓,down,↓,0.46116870001424104,True,31,1
MP-K-23K23S2,1057,experiment,61,→,left,←,0.4781037999782711,False,31,1
MP-K-23K23S2,1058,experiment,49,→,right,→,0.5307361999293789,True,31,1
MP-K-23K23S2,1059,experiment,73,↑,up,↑,0.5407658000476658,True,31,1
MP-K-23K23S2,1060,experiment,91,←,left,←,0.4405978999566287,True,31,1
MP-K-23K23S2,1061,experiment,68,↑,up,↑,0.4959589000791311,True,31,1
MP-K-23K23S2,1062,experiment,65,→,left,←,0.5583576000062749,False,31,1
MP-K-23K23S2,1063,experiment,103,←,left,←,0.5089917000150308,True,31,1
MP-K-23K23S2,1064,experiment,75,↑,up,↑,0.5193497000727803,True,31,1
MP-K-23K23S2,1065,experiment,100,←,left,←,0.4486892999848351,True,31,1
MP-K-23K23S2,1066,experiment,59,↓,down,↓,0.4668735999148339,True,31,1
MP-K-23K23S2,1067,experiment,72,↓,down,↓,0.43248320010025054,True,31,1
MP-K-23K23S2,1068,experiment,80,→,right,→,0.4434597999788821,True,31,1
MP-K-23K23S2,1069,experiment,66,→,right,→,0.40941770002245903,True,31,1
MP-K-23K23S2,1070,experiment,56,↑,up,↑,0.6879670999478549,True,31,0
MP-K-23K23S2,1071,experiment,50,↓,down,↓,1.0034695999929681,True,31,1
MP-K-23K23S2,1072,experiment,95,↓,down,↓,0.6832629999844357,True,31,1
MP-K-23K23S2,1073,experiment,92,←,left,←,0.5691369000123814,True,31,1
MP-K-23K23S2,1074,experiment,71,↓,down,↓,0.5062418000306934,True,31,1
MP-K-23K23S2,1075,experiment,102,↓,down,↓,0.5155184998875484,True,31,1
MP-K-23K23S2,1076,experiment,98,↑,up,↑,0.8219369000289589,True,31,1
MP-K-23K23S2,1077,experiment,104,↑,up,↑,0.5536728999577463,True,31,1
MP-K-23K23S2,1078,experiment,67,↑,up,↑,0.4853324999567121,True,31,1
MP-K-23K23S2,1079,experiment,101,↓,down,↓,0.6079827999928966,True,31,1
MP-K-23K23S2,1080,experiment,55,→,right,→,0.6211478000041097,True,31,1
MP-K-23K23S2,1081,experiment,81,↓,down,↓,0.6568694000598043,True,31,1
MP-K-23K23S2,1082,experiment,58,↑,down,↓,0.7389680999331176,False,31,1
MP-K-23K23S2,1083,experiment,77,→,right,→,0.5312826000154018,True,31,1
MP-K-23K23S2,1084,experiment,96,←,left,←,0.375941599952057,True,31,1
MP-K-23K23S2,1085,experiment,52,←,left,←,0.45273789996281266,True,31,0
MP-K-23K23S2,1086,experiment,97,←,left,←,0.49013329995796084,True,31,1
MP-K-23K23S2,1087,experiment,69,←,left,←,0.5113286999985576,True,31,1
MP-K-23K23S2,1088,experiment,74,↑,up,↑,0.6184001000365242,True,31,1
MP-K-23K23S2,1089,experiment,107,→,right,→,0.6934597999788821,True,31,1
MP-K-23K23S2,1090,experiment,76,→,left,←,0.7601414999226108,False,31,1
MP-K-23K23S2,1091,experiment,82,↓,down,↓,0.5660235999384895,True,31,1
MP-K-23K23S2,1092,experiment,90,→,left,←,0.4812124000163749,False,31,1
MP-K-23K23S2,1093,experiment,60,←,right,→,0.6256853999802843,False,31,1
MP-K-23K23S2,1094,experiment,54,→,right,→,0.5264601000817493,True,31,1
MP-K-23K23S2,1095,experiment,108,←,left,←,0.4931649999925867,True,31,1
MP-K-23K23S2,1096,experiment,106,↑,up,↑,0.4377821000525728,True,31,1
MP-K-23K23S2,1097,experiment,83,→,left,←,0.44040840002708137,False,31,1
MP-K-23K23S2,1098,experiment,89,→,right,→,0.488564100000076,True,31,1
MP-K-23K23S2,1099,experiment,48,↓,down,↓,0.6926121000433341,True,31,1
MP-K-23K23S2,1100,experiment,88,↑,up,↑,0.5874667000025511,True,31,1
MP-K-23K23S2,1101,experiment,63,↑,up,↑,1.2303411000175402,True,31,1
MP-K-23K23S2,1102,experiment,84,→,right,→,1.0005921999691054,True,31,1
MP-K-23K23S2,1103,experiment,93,→,left,←,0.5135094999568537,False,31,1
MP-K-23K23S2,1104,experiment,64,↓,down,↓,0.6871266000671312,True,31,1
MP-K-23K23S2,1105,experiment,99,→,right,→,0.4743803000310436,True,31,1
MP-K-23K23S2,1106,experiment,105,→,right,→,0.5563203999772668,True,31,1
MP-K-23K23S2,1107,experiment,87,↓,down,↓,0.6245357000734657,True,31,1
MP-K-23K23S2,1108,experiment,62,←,left,←,0.49066769995260984,True,31,1
MP-K-23K23S2,1109,experiment,86,↑,up,↑,0.4661435999441892,True,31,1
MP-K-23K23S2,1110,experiment,94,↓,down,↓,0.5119082999881357,True,31,1
MP-K-23K23S2,1111,experiment,51,↑,up,↑,0.4902541999472305,True,31,1
MP-K-23K23S2,1112,training,60,←,left,←,0.47793469997122884,True,31,0
MP-K-23K23S2,1113,training,59,→,right,→,0.6465947999386117,True,31,1
MP-K-23K23S2,1114,experiment,55,→,left,←,0.5781368999741971,False,31,1
MP-K-23K23S2,1115,experiment,61,↑,up,↑,0.5345360999926925,True,31,1
MP-K-23K23S2,1116,experiment,73,↓,left,←,0.488553199917078,False,31,1
MP-K-23K23S2,1117,experiment,77,↓,left,←,0.4990131000522524,False,31,1
MP-K-23K23S2,1118,experiment,90,←,left,←,0.5048666000366211,True,31,1
MP-K-23K23S2,1119,experiment,71,↑,up,↑,0.44457940000575036,True,31,1
MP-K-23K23S2,1120,experiment,69,→,left,←,0.4832765000173822,False,31,1
MP-K-23K23S2,1121,experiment,51,↑,up,↑,0.48670260002836585,True,31,1
MP-K-23K23S2,1122,experiment,100,↑,up,↑,0.44936690002214164,True,31,1
MP-K-23K23S2,1123,experiment,104,↓,down,↓,0.5242958999006078,True,31,1
MP-K-23K23S2,1124,experiment,81,↑,up,↑,0.3596455999650061,True,31,1
MP-K-23K23S2,1125,experiment,53,↓,up,↑,0.46772109996527433,False,31,1
MP-K-23K23S2,1126,experiment,60,↓,down,↓,0.6286303999368101,True,31,1
MP-K-23K23S2,1127,experiment,84,→,right,→,0.4471019000047818,True,31,1
MP-K-23K23S2,1128,experiment,97,↑,up,↑,0.6365993999643251,True,31,1
MP-K-23K23S2,1129,experiment,83,←,left,←,0.5429772000061348,True,31,1
MP-K-23K23S2,1130,experiment,107,↓,down,↓,0.6378487000474706,True,31,1
MP-K-23K23S2,1131,experiment,105,←,left,←,0.44085679994896054,True,31,1
MP-K-23K23S2,1132,experiment,102,→,right,→,0.5407986000645906,True,31,1
MP-K-23K23S2,1133,experiment,99,↑,up,↑,0.6297274999087676,True,31,1
MP-K-23K23S2,1134,experiment,72,↑,up,↑,0.6760171999922022,True,31,1
MP-K-23K23S2,1135,experiment,58,↑,up,↑,0.6295419000089169,True,31,1
MP-K-23K23S2,1136,experiment,74,↑,up,↑,0.6198130999691784,True,31,1
MP-K-23K23S2,1137,experiment,86,←,left,←,0.5578327999683097,True,31,1
MP-K-23K23S2,1138,experiment,95,↓,down,↓,0.44744259992148727,True,31,1
MP-K-23K23S2,1139,experiment,67,↑,up,↑,0.6067016000160947,True,31,1
MP-K-23K23S2,1140,experiment,52,←,left,←,0.39267209998797625,True,31,1
MP-K-23K23S2,1141,experiment,49,←,left,←,0.4922606999753043,True,31,0
MP-K-23K23S2,1142,experiment,75,←,left,←,0.6233467999845743,True,31,1
MP-K-23K23S2,1143,experiment,63,↑,up,↑,0.5853343000635505,True,31,1
MP-K-23K23S2,1144,experiment,80,↑,up,↑,0.5428293999284506,True,31,1
MP-K-23K23S2,1145,experiment,103,↓,down,↓,0.438794800080359,True,31,1
MP-K-23K23S2,1146,experiment,89,↓,down,↓,0.5829671000828966,True,31,1
MP-K-23K23S2,1147,experiment,85,←,left,←,0.49097179993987083,True,31,1
MP-K-23K23S2,1148,experiment,94,↑,up,↑,0.38468880008440465,True,31,1
MP-K-23K23S2,1149,experiment,93,←,left,←,0.4808638000395149,True,31,1
MP-K-23K23S2,1150,experiment,54,↑,up,↑,0.4991842999588698,True,31,1
MP-K-23K23S2,1151,experiment,56,↓,down,↓,0.7404718000907451,True,31,1
MP-K-23K23S2,1152,experiment,91,↓,down,↓,0.5039615000132471,True,31,1
MP-K-23K23S2,1153,experiment,82,↓,down,↓,0.48062809999100864,True,31,1
MP-K-23K23S2,1154,experiment,59,↑,up,↑,0.6493231999920681,True,31,1
MP-K-23K23S2,1155,experiment,64,↓,down,↓,0.5295381000032648,True,31,1
MP-K-23K23S2,1156,experiment,96,→,right,→,0.587819799897261,True,31,1
MP-K-23K23S2,1157,experiment,98,↓,down,↓,0.5152724999934435,True,31,1
MP-K-23K23S2,1158,experiment,76,←,left,←,0.5570950000546873,True,31,1
MP-K-23K23S2,1159,experiment,92,→,right,→,1.1677546999417245,True,31,1
MP-K-23K23S2,1160,experiment,88,→,right,→,0.4003710000542924,True,31,1
MP-K-23K23S2,1161,experiment,108,↓,down,↓,0.4310513000236824,True,31,0
MP-K-23K23S2,1162,experiment,70,↑,down,↓,0.6619574999203905,False,31,1
MP-K-23K23S2,1163,experiment,79,→,right,→,0.44093160005286336,True,31,1
MP-K-23K23S2,1164,experiment,101,↑,up,↑,0.43703600007575005,True,31,1
MP-K-23K23S2,1165,experiment,48,→,right,→,0.38439839996863157,True,31,1
MP-K-23K23S2,1166,experiment,106,↓,down,↓,0.3512044999515638,True,31,1
MP-K-23K23S2,1167,experiment,65,←,right,→,1.0518955999286845,False,31,0
MP-K-23K23S2,1168,experiment,87,→,left,←,0.4605679999804124,False,31,1
MP-K-23K23S2,1169,experiment,78,↓,up,↑,0.4559889000374824,False,31,1
MP-K-23K23S2,1170,experiment,50,↓,right,→,0.2757056000409648,False,31,1
MP-K-23K23S2,1171,experiment,57,←,down,↓,0.04510160000063479,False,31,0
MP-K-23K23S2,1172,experiment,68,↓,down,↓,0.6130029000341892,True,31,0
MP-K-23K23S2,1173,experiment,62,←,down,↓,0.5354287999216467,False,31,1
MP-K-23K23S2,1174,experiment,66,←,left,←,0.43623859994113445,True,31,1
MP-K-23K23S2,1175,training,83,↓,down,↓,0.4656270999694243,True,31,0
MP-K-23K23S2,1176,training,71,↓,down,↓,0.4092816999182105,True,31,1
MP-K-23K23S2,1177,experiment,97,↓,left,←,0.486155700054951,False,31,0
MP-K-23K23S2,1178,experiment,49,↑,down,↓,0.4502537000225857,False,31,1
MP-K-23K23S2,1179,experiment,61,↑,up,↑,0.35119670000858605,True,31,1
MP-K-23K23S2,1180,experiment,95,→,right,→,0.3255716999992728,True,31,1
MP-K-23K23S2,1181,experiment,105,↑,right,→,0.4604778999928385,False,31,0
MP-K-23K23S2,1182,experiment,84,→,right,→,1.0693128999555483,True,31,1
MP-K-23K23S2,1183,experiment,55,↑,up,↑,0.5123824999900535,True,31,1
MP-K-23K23S2,1184,experiment,60,→,left,←,0.40110659995116293,False,31,1
MP-K-23K23S2,1185,experiment,94,↓,right,→,0.31787919998168945,False,31,0
MP-K-23K23S2,1186,experiment,91,→,right,→,0.3921746000414714,True,31,1
MP-K-23K23S2,1187,experiment,100,→,right,→,0.48221609997563064,True,31,0
MP-K-23K23S2,1188,experiment,78,←,right,→,0.4370208999607712,False,31,1
MP-K-23K23S2,1189,experiment,103,→,right,→,0.4406405999325216,True,31,1
MP-K-23K23S2,1190,experiment,59,↑,left,←,0.7067251999396831,False,31,1
MP-K-23K23S2,1191,experiment,87,→,up,↑,0.30062130000442266,False,31,1
MP-K-23K23S2,1192,experiment,89,↑,down,↓,0.47101109998766333,False,31,0
MP-K-23K23S2,1193,experiment,83,→,right,→,0.5442442001076415,True,31,1
MP-K-23K23S2,1194,experiment,67,→,right,→,0.392532299971208,True,31,1
MP-K-23K23S2,1195,experiment,104,←,right,→,0.5460472999839112,False,31,1
MP-K-23K23S2,1196,experiment,75,→,left,←,0.577523099957034,False,31,1
MP-K-23K23S2,1197,experiment,79,→,left,←,0.5441262000240386,False,31,1
MP-K-23K23S2,1198,experiment,81,↓,down,↓,0.5026543000712991,True,31,1
MP-K-23K23S2,1199,experiment,82,→,down,↓,0.8952624999219552,False,31,1
MP-K-23K23S2,1200,experiment,92,↑,up,↑,0.5165719999931753,True,31,1
MP-K-23K23S2,1201,experiment,56,↓,down,↓,0.5568564999848604,True,31,1
MP-K-23K23S2,1202,experiment,108,↓,down,↓,0.5383585999952629,True,31,1
MP-K-23K23S2,1203,experiment,62,→,right,→,0.5516850999556482,True,31,1
MP-K-23K23S2,1204,experiment,106,↑,up,↑,0.7179535999894142,True,31,1
MP-K-23K23S2,1205,experiment,48,→,right,→,0.6249925000593066,True,31,1
MP-K-23K23S2,1206,experiment,65,↓,down,↓,0.5461113998899236,True,31,1
MP-K-23K23S2,1207,experiment,71,←,left,←,0.5725183000322431,True,31,1
MP-K-23K23S2,1208,experiment,72,←,left,←,0.4528205000096932,True,31,1
MP-K-23K23S2,1209,experiment,86,→,right,→,0.5900308999698609,True,31,1
MP-K-23K23S2,1210,experiment,98,↑,up,↑,0.6214287000475451,True,31,1
MP-K-23K23S2,1211,experiment,73,↑,up,↑,0.5157973000314087,True,31,1
MP-K-23K23S2,1212,experiment,77,→,right,→,0.4375628000125289,True,31,1
MP-K-23K23S2,1213,experiment,74,↑,up,↑,0.4825216999743134,True,31,1
MP-K-23K23S2,1214,experiment,51,→,left,←,0.5899918000213802,False,31,1
MP-K-23K23S2,1215,experiment,99,→,right,→,0.46094389993231744,True,31,1
MP-K-23K23S2,1216,experiment,70,→,right,→,0.4095345000969246,True,31,1
MP-K-23K23S2,1217,experiment,96,←,left,←,0.4742934999521822,True,31,1
MP-K-23K23S2,1218,experiment,64,↓,up,↑,0.6576815999578685,False,31,1
MP-K-23K23S2,1219,experiment,52,←,left,←,0.5336376000195742,True,31,1
MP-K-23K23S2,1220,experiment,63,↑,right,→,0.475252200034447,False,31,1
MP-K-23K23S2,1221,experiment,57,↑,up,↑,0.5490053000394255,True,31,1
MP-K-23K23S2,1222,experiment,107,↑,up,↑,0.49905159999616444,True,31,1
MP-K-23K23S2,1223,experiment,85,→,right,→,0.5144037998979911,True,31,1
MP-K-23K23S2,1224,experiment,66,→,right,→,0.6077225999906659,True,31,1
MP-K-23K23S2,1225,experiment,88,→,right,→,0.5535932999337092,True,31,1
MP-K-23K23S2,1226,experiment,53,←,left,←,0.5135715999640524,True,31,1
MP-K-23K23S2,1227,experiment,93,→,right,→,0.5978031000122428,True,31,1
MP-K-23K23S2,1228,experiment,54,↑,up,↑,0.5154969999566674,True,31,1
MP-K-23K23S2,1229,experiment,80,↓,down,↓,0.547910499968566,True,31,1
MP-K-23K23S2,1230,experiment,50,→,right,→,0.5889993999153376,True,31,1
MP-K-23K23S2,1231,experiment,69,↓,down,↓,0.4460016000084579,True,31,1
MP-K-23K23S2,1232,experiment,68,↑,up,↑,0.5250658000586554,True,31,1
MP-K-23K23S2,1233,experiment,101,↓,down,↓,0.5820698000025004,True,31,1
MP-K-23K23S2,1234,experiment,90,→,right,→,0.6968381999759004,True,31,1
MP-K-23K23S2,1235,experiment,76,←,left,←,0.5388171999948099,True,31,1
MP-K-23K23S2,1236,experiment,58,←,left,←,0.5697018000064418,True,31,1
MP-K-23K23S2,1237,experiment,102,↑,up,↑,0.5764853999717161,True,31,1
MP-K-23K23S2,1238,training,49,←,left,←,0.4993573999963701,True,31,0
MP-K-23K23S2,1239,training,48,↑,up,↑,0.6710918999742717,True,31,1
MP-K-23K23S2,1240,experiment,59,↑,up,↑,0.6962579000974074,True,31,1
MP-K-23K23S2,1241,experiment,99,←,left,←,0.5547341000055894,True,31,1
MP-K-23K23S2,1242,experiment,92,←,left,←,0.46162019995972514,True,31,1
MP-K-23K23S2,1243,experiment,98,←,left,←,0.4822871000505984,True,31,1
MP-K-23K23S2,1244,experiment,66,←,left,←,0.4724964000051841,True,31,1
MP-K-23K23S2,1245,experiment,75,←,left,←,0.5163220000686124,True,31,1
MP-K-23K23S2,1246,experiment,81,↓,down,↓,0.49229349999222904,True,31,1
MP-K-23K23S2,1247,experiment,105,→,right,→,0.4535879000322893,True,31,1
MP-K-23K23S2,1248,experiment,96,→,down,↓,0.6995144999818876,False,31,1
MP-K-23K23S2,1249,experiment,107,→,left,←,0.5152628000359982,False,31,1
MP-K-23K23S2,1250,experiment,63,←,left,←,0.5051532000070438,True,31,1
MP-K-23K23S2,1251,experiment,79,↓,down,↓,0.5463001999305561,True,31,1
MP-K-23K23S2,1252,experiment,74,←,left,←,0.4995982999680564,True,31,1
MP-K-23K23S2,1253,experiment,95,↓,down,↓,0.3845271000172943,True,31,1
MP-K-23K23S2,1254,experiment,89,←,left,←,0.3948172000236809,True,31,1
MP-K-23K23S2,1255,experiment,91,↑,up,↑,0.491304500028491,True,31,1
MP-K-23K23S2,1256,experiment,53,→,left,←,0.6693657001014799,False,31,1
MP-K-23K23S2,1257,experiment,77,→,right,→,0.5048533999361098,True,31,1
MP-K-23K23S2,1258,experiment,90,←,left,←,0.6701815999113023,True,31,1
MP-K-23K23S2,1259,experiment,58,→,right,→,0.4321699000429362,True,31,1
MP-K-23K23S2,1260,experiment,72,↑,up,↑,0.5340406999457628,True,31,0
MP-K-23K23S2,1261,experiment,101,←,left,←,0.6071355000603944,True,31,1
MP-K-23K23S2,1262,experiment,57,←,left,←,0.47546169999986887,True,31,1
MP-K-23K23S2,1263,experiment,73,↑,up,↑,0.4321709000505507,True,31,1
MP-K-23K23S2,1264,experiment,51,↓,up,↑,0.7088765000225976,False,31,1
MP-K-23K23S2,1265,experiment,102,→,right,→,0.47030310006812215,True,31,1
MP-K-23K23S2,1266,experiment,106,↓,down,↓,0.4401539999525994,True,31,1
MP-K-23K23S2,1267,experiment,87,←,left,←,0.5850993000203744,True,31,1
MP-K-23K23S2,1268,experiment,67,↑,up,↑,0.6430898000253364,True,31,1
MP-K-23K23S2,1269,experiment,108,→,right,→,0.39275460003409535,True,31,1
MP-K-23K23S2,1270,experiment,68,↓,down,↓,0.6463155000237748,True,31,0
MP-K-23K23S2,1271,experiment,76,←,left,←,0.34224589995574206,True,31,1
MP-K-23K23S2,1272,experiment,64,↓,down,↓,0.4870757000753656,True,31,0
MP-K-23K23S2,1273,experiment,62,→,down,↓,0.734598399954848,False,31,1
MP-K-23K23S2,1274,experiment,97,↓,down,↓,0.45672429993283004,True,31,1
MP-K-23K23S2,1275,experiment,100,↑,up,↑,0.6607387000694871,True,31,1
MP-K-23K23S2,1276,experiment,84,←,right,→,0.37602600001264364,False,31,1
MP-K-23K23S2,1277,experiment,82,←,left,←,0.37609630008228123,True,31,0
MP-K-23K23S2,1278,experiment,103,→,left,←,0.351138100028038,False,31,0
MP-K-23K23S2,1279,experiment,70,↑,down,↓,0.595069200033322,False,31,0
MP-K-23K23S2,1280,experiment,88,→,right,→,0.5016372000100091,True,31,1
MP-K-23K23S2,1281,experiment,71,→,right,→,0.497787999920547,True,31,1
MP-K-23K23S2,1282,experiment,48,↓,down,↓,0.5178097999887541,True,31,1
MP-K-23K23S2,1283,experiment,80,↓,down,↓,0.4303170000202954,True,31,1
MP-K-23K23S2,1284,experiment,49,←,left,←,0.5960365000646561,True,31,1
MP-K-23K23S2,1285,experiment,65,←,left,←,0.48606170003768057,True,31,1
MP-K-23K23S2,1286,experiment,94,→,left,←,0.6752572000259534,False,31,1
MP-K-23K23S2,1287,experiment,54,↑,up,↑,0.7097023000242189,True,31,1
MP-K-23K23S2,1288,experiment,93,↓,down,↓,0.6742874000919983,True,31,1
MP-K-23K23S2,1289,experiment,85,↓,down,↓,0.48251329991035163,True,31,1
MP-K-23K23S2,1290,experiment,104,↓,down,↓,0.5242658000206575,True,31,1
MP-K-23K23S2,1291,experiment,60,→,right,→,0.45912090002093464,True,31,1
MP-K-23K23S2,1292,experiment,52,↑,down,↓,0.5191443000221625,False,31,1
MP-K-23K23S2,1293,experiment,56,↑,up,↑,1.191426599980332,True,31,1
MP-K-23K23S2,1294,experiment,78,→,right,→,0.9975056000985205,True,31,1
MP-K-23K23S2,1295,experiment,50,→,left,←,0.988647099933587,False,31,1
MP-K-23K23S2,1296,experiment,86,←,left,←,0.48801089997868985,True,31,1
MP-K-23K23S2,1297,experiment,69,↓,left,←,0.46892860007938,False,31,1
MP-K-23K23S2,1298,experiment,61,↓,down,↓,0.3844224000349641,True,31,1
MP-K-23K23S2,1299,experiment,55,↑,down,↓,0.36738230008631945,False,31,1
MP-K-23K23S2,1300,experiment,83,←,left,←,0.5925316999200732,True,31,0
MP-K-23K23S2,1301,training,55,←,left,←,0.47188790002837777,True,31,0
MP-K-23K23S2,1302,training,65,↓,down,↓,0.6308519999729469,True,31,1
MP-K-23K23S2,1303,experiment,57,←,left,←,0.4262764999875799,True,31,1
MP-K-23K23S2,1304,experiment,106,↑,up,↑,0.6213548999512568,True,31,0
MP-K-23K23S2,1305,experiment,98,↓,down,↓,0.6513894000090659,True,31,1
MP-K-23K23S2,1306,experiment,94,→,right,→,1.15365919994656,True,31,1
MP-K-23K23S2,1307,experiment,64,↓,down,↓,0.5020682000322267,True,31,1
MP-K-23K23S2,1308,experiment,97,↓,down,↓,0.4335842999862507,True,31,1
MP-K-23K23S2,1309,experiment,62,←,left,←,0.6029902000445873,True,31,1
MP-K-23K23S2,1310,experiment,67,←,left,←,0.42931680008769035,True,31,1
MP-K-23K23S2,1311,experiment,61,↑,up,↑,0.5343057001009583,True,31,1
MP-K-23K23S2,1312,experiment,90,↓,down,↓,0.5068612999748439,True,31,1
MP-K-23K23S2,1313,experiment,88,←,left,←,0.4333934000460431,True,31,1
MP-K-23K23S2,1314,experiment,102,→,left,←,0.5646822999697179,False,31,1
MP-K-23K23S2,1315,experiment,70,↓,down,↓,0.6067277999827638,True,31,1
MP-K-23K23S2,1316,experiment,74,←,left,←,0.4453633000375703,True,31,1
MP-K-23K23S2,1317,experiment,66,→,right,→,0.4297736999578774,True,31,1
MP-K-23K23S2,1318,experiment,80,←,left,←,0.40244640002492815,True,31,1
MP-K-23K23S2,1319,experiment,85,←,left,←,0.5236406000331044,True,31,0
MP-K-23K23S2,1320,experiment,75,↑,up,↑,0.5412771999835968,True,31,1
MP-K-23K23S2,1321,experiment,56,→,right,→,0.4607807999709621,True,31,1
MP-K-23K23S2,1322,experiment,101,←,left,←,0.3692737000528723,True,31,1
MP-K-23K23S2,1323,experiment,78,→,right,→,0.5269206999801099,True,31,0
MP-K-23K23S2,1324,experiment,104,↓,down,↓,0.5272497999249026,True,31,1
MP-K-23K23S2,1325,experiment,71,←,left,←,0.46601480001118034,True,31,1
MP-K-23K23S2,1326,experiment,93,→,right,→,0.4319680999033153,True,31,1
MP-K-23K23S2,1327,experiment,72,↑,up,↑,0.5745106000686064,True,31,1
MP-K-23K23S2,1328,experiment,50,↓,down,↓,0.4786783999297768,True,31,1
MP-K-23K23S2,1329,experiment,108,←,left,←,0.6633877999847755,True,31,1
MP-K-23K23S2,1330,experiment,103,→,left,←,0.4498739999253303,False,31,1
MP-K-23K23S2,1331,experiment,51,→,right,→,0.6547663999954239,True,31,1
MP-K-23K23S2,1332,experiment,52,↓,down,↓,1.130857600015588,True,31,1
MP-K-23K23S2,1333,experiment,100,→,right,→,1.2198179999832064,True,31,1
MP-K-23K23S2,1334,experiment,65,↓,down,↓,0.40991879999637604,True,31,1
MP-K-23K23S2,1335,experiment,55,↑,up,↑,1.0737466999562457,True,31,1
MP-K-23K23S2,1336,experiment,58,→,right,→,0.7073028000304475,True,31,1
MP-K-23K23S2,1337,experiment,84,↓,down,↓,0.5626419000327587,True,31,1
MP-K-23K23S2,1338,experiment,77,↓,down,↓,0.4982310999184847,True,31,1
MP-K-23K23S2,1339,experiment,83,→,right,→,0.5464183000149205,True,31,1
MP-K-23K23S2,1340,experiment,69,→,right,→,0.5735227999975905,True,31,1
MP-K-23K23S2,1341,experiment,96,→,right,→,0.4862606000388041,True,31,1
MP-K-23K23S2,1342,experiment,86,↓,down,↓,0.6294067000271752,True,31,1
MP-K-23K23S2,1343,experiment,105,↓,down,↓,0.4493304999778047,True,31,1
MP-K-23K23S2,1344,experiment,76,↓,down,↓,0.6455650000134483,True,31,1
MP-K-23K23S2,1345,experiment,49,←,left,←,0.6515398999908939,True,31,1
MP-K-23K23S2,1346,experiment,82,↑,up,↑,0.5895389999495819,True,31,1
MP-K-23K23S2,1347,experiment,68,↑,down,↓,0.5748882000334561,False,31,1
MP-K-23K23S2,1348,experiment,53,↓,down,↓,0.49401259992737323,True,31,1
MP-K-23K23S2,1349,experiment,73,↓,down,↓,0.5056904000230134,True,31,1
MP-K-23K23S2,1350,experiment,91,↑,up,↑,0.510891400044784,True,31,1
MP-K-23K23S2,1351,experiment,107,↓,down,↓,0.44625619996804744,True,31,1
MP-K-23K23S2,1352,experiment,95,↓,left,←,0.4841027999063954,False,31,1
MP-K-23K23S2,1353,experiment,79,→,right,→,1.04639029991813,True,31,1
MP-K-23K23S2,1354,experiment,92,←,left,←,0.43790400004945695,True,31,1
MP-K-23K23S2,1355,experiment,89,↓,down,↓,0.35143229993991554,True,31,1
MP-K-23K23S2,1356,experiment,54,→,right,→,0.557047100039199,True,31,0
MP-K-23K23S2,1357,experiment,48,↓,down,↓,0.5186818999936804,True,31,1
MP-K-23K23S2,1358,experiment,99,↓,down,↓,0.6324574000900611,True,31,1
MP-K-23K23S2,1359,experiment,60,→,right,→,0.6270020001102239,True,31,1
MP-K-23K23S2,1360,experiment,59,←,left,←,0.5497183999978006,True,31,1
MP-K-23K23S2,1361,experiment,81,→,right,→,0.5885530000086874,True,31,1
MP-K-23K23S2,1362,experiment,63,←,left,←,0.46351980010513216,True,31,1
MP-K-23K23S2,1363,experiment,87,→,right,→,0.40125680004712194,True,31,1
MP-K-23K23S2,1364,training,104,↑,down,↓,0.4993872999912128,False,30,0
MP-K-23K23S2,1365,training,68,←,left,←,0.42503300006501377,True,30,1
MP-K-23K23S2,1366,experiment,73,→,right,→,0.4944475000957027,True,30,1
MP-K-23K23S2,1367,experiment,59,←,left,←,0.6229385000187904,True,30,1
MP-K-23K23S2,1368,experiment,85,↓,down,↓,0.6493758999276906,True,30,1
MP-K-23K23S2,1369,experiment,57,↓,down,↓,0.45200299995485693,True,30,1
MP-K-23K23S2,1370,experiment,50,↑,down,↓,0.6091529000550508,False,30,1
MP-K-23K23S2,1371,experiment,94,↓,down,↓,0.521010100026615,True,30,1
MP-K-23K23S2,1372,experiment,70,↓,down,↓,0.4845394999720156,True,30,1
MP-K-23K23S2,1373,experiment,65,→,right,→,0.4356320999795571,True,30,1
MP-K-23K23S2,1374,experiment,91,→,right,→,0.47554459993261844,True,30,1
MP-K-23K23S2,1375,experiment,100,←,left,←,0.49497430003248155,True,30,1
MP-K-23K23S2,1376,experiment,49,↑,down,↓,0.6426650999346748,False,30,1
MP-K-23K23S2,1377,experiment,96,→,down,↓,0.6406523999758065,False,30,1
MP-K-23K23S2,1378,experiment,78,→,right,→,0.5245629999553785,True,30,1
MP-K-23K23S2,1379,experiment,66,↓,down,↓,0.4894841000204906,True,30,1
MP-K-23K23S2,1380,experiment,64,→,right,→,0.4882315000286326,True,30,1
MP-K-23K23S2,1381,experiment,83,→,right,→,0.4010577000444755,True,30,1
MP-K-23K23S2,1382,experiment,81,↓,down,↓,0.46081830002367496,True,30,0
MP-K-23K23S2,1383,experiment,107,→,right,→,0.5908249999629334,True,30,1
MP-K-23K23S2,1384,experiment,97,↓,down,↓,0.45446320006158203,True,30,1
MP-K-23K23S2,1385,experiment,87,↑,up,↑,0.4868779999669641,True,30,1
MP-K-23K23S2,1386,experiment,54,→,left,←,0.6411799000343308,False,30,1
MP-K-23K23S2,1387,experiment,108,→,right,→,0.6512059000087902,True,30,1
MP-K-23K23S2,1388,experiment,69,↓,down,↓,0.6099847999867052,True,30,1
MP-K-23K23S2,1389,experiment,51,→,right,→,0.5285431999946013,True,30,1
MP-K-23K23S2,1390,experiment,98,↑,up,↑,0.5061043000314385,True,30,1
MP-K-23K23S2,1391,experiment,53,→,right,→,0.4000412999885157,True,30,1
MP-K-23K23S2,1392,experiment,88,↓,up,↑,0.693965999991633,False,30,0
MP-K-23K23S2,1393,experiment,55,←,right,→,0.5272984000621364,False,30,1
MP-K-23K23S2,1394,experiment,79,→,right,→,0.5838927000295371,True,30,1
MP-K-23K23S2,1395,experiment,99,↑,up,↑,0.6071763999061659,True,30,1
MP-K-23K23S2,1396,experiment,72,→,right,→,0.47841730003710836,True,30,1
MP-K-23K23S2,1397,experiment,84,↓,down,↓,0.5034209999721497,True,30,1
MP-K-23K23S2,1398,experiment,82,↓,down,↓,0.5597435000818223,True,30,1
MP-K-23K23S2,1399,experiment,77,←,left,←,0.5754061000188813,True,30,1
MP-K-23K23S2,1400,experiment,101,↑,up,↑,0.638480499968864,True,30,1
MP-K-23K23S2,1401,experiment,56,←,left,←,0.7377568999072537,True,30,1
