PART_ID,Trial_no,Trial_type,CSI,Stim_letter,Key_pressed,letter_choose,Rt,Corr,Stimulus Time,nDropped
MP-K-23K23S1,1,training,120,→,right,→,0.9425113000324927,True,60,1
MP-K-23K23S1,2,training,120,←,left,←,0.9915792000247166,True,60,0
MP-K-23K23S1,3,training,120,→,right,→,0.6947472000028938,True,60,0
MP-K-23K23S1,4,training,120,↑,left,←,0.5003522000042722,False,60,0
MP-K-23K23S1,5,training,120,↑,up,↑,0.8769373000250198,True,60,0
MP-K-23K23S1,6,training,120,→,up,↑,0.5339249999960884,False,60,0
MP-K-23K23S1,7,training,120,↓,down,↓,0.8660301999771036,True,60,0
MP-K-23K23S1,8,training,120,↓,down,↓,0.88671270001214,True,60,0
MP-K-23K23S1,9,training,120,↑,up,↑,0.7942080999491736,True,60,0
MP-K-23K23S1,10,training,120,←,left,←,0.8811893999809399,True,60,0
MP-K-23K23S1,11,training,120,→,right,→,0.6012871999992058,True,60,0
MP-K-23K23S1,12,training,120,→,right,→,0.6095441000070423,True,60,0
MP-K-23K23S1,13,training,120,↓,down,↓,0.6983405000064522,True,60,0
MP-K-23K23S1,14,training,120,↓,down,↓,0.7412437999737449,True,60,0
MP-K-23K23S1,15,training,120,↓,down,↓,0.6947905999841169,True,60,0
MP-K-23K23S1,16,training,120,←,left,←,0.825852699985262,True,60,0
MP-K-23K23S1,17,training,120,↓,down,↓,0.6012878000037745,True,60,0
MP-K-23K23S1,18,training,120,←,left,←,0.62625550001394,True,60,0
MP-K-23K23S1,19,training,120,→,right,→,0.8597444999613799,True,60,0
MP-K-23K23S1,20,training,120,→,no_key,no_letter,-1.0,False,60,0
MP-K-23K23S1,21,no_adaptation,120,→,right,→,0.6695720000425354,True,36,0
MP-K-23K23S1,22,no_adaptation,120,←,left,←,0.7058879000251181,True,36,0
MP-K-23K23S1,23,no_adaptation,120,→,right,→,0.5804840999771841,True,36,0
MP-K-23K23S1,24,no_adaptation,120,↓,down,↓,0.6604860999505036,True,36,0
MP-K-23K23S1,25,no_adaptation,120,↑,up,↑,0.657005500048399,True,36,0
MP-K-23K23S1,26,no_adaptation,120,←,right,→,0.685790499963332,False,36,0
MP-K-23K23S1,27,no_adaptation,120,→,right,→,0.7692375000333413,True,36,0
MP-K-23K23S1,28,no_adaptation,120,→,left,←,0.5696172000025399,False,36,0
MP-K-23K23S1,29,no_adaptation,120,→,right,→,0.49774039996555075,True,36,0
MP-K-23K23S1,30,no_adaptation,120,→,left,←,0.8849735999829136,False,36,0
MP-K-23K23S1,31,no_adaptation,120,↓,down,↓,0.6083908000146039,True,36,0
MP-K-23K23S1,32,no_adaptation,120,←,right,→,0.47201939998194575,False,36,0
MP-K-23K23S1,33,no_adaptation,120,←,left,←,0.6991271000006236,True,36,0
MP-K-23K23S1,34,no_adaptation,120,←,left,←,0.6941969000035897,True,36,0
MP-K-23K23S1,35,no_adaptation,120,↓,down,↓,0.681399599998258,True,36,0
MP-K-23K23S1,36,no_adaptation,120,↑,up,↑,0.8691609000088647,True,36,0
MP-K-23K23S1,37,no_adaptation,120,↓,down,↓,0.5455840000067838,True,36,0
MP-K-23K23S1,38,no_adaptation,120,→,right,→,0.5946065000025555,True,36,0
MP-K-23K23S1,39,no_adaptation,120,↑,up,↑,0.5298993000178598,True,36,0
MP-K-23K23S1,40,no_adaptation,120,→,right,→,0.6516730000148527,True,36,0
MP-K-23K23S1,41,training,54,↓,down,↓,0.5923096999758855,True,36,0
MP-K-23K23S1,42,training,88,←,left,←,0.707085800007917,True,36,1
MP-K-23K23S1,43,experiment,78,←,right,→,0.6283666000235826,False,36,1
MP-K-23K23S1,44,experiment,97,↑,up,↑,0.5622337000095285,True,36,1
MP-K-23K23S1,45,experiment,53,↑,up,↑,0.5382310000131838,True,36,1
MP-K-23K23S1,46,experiment,59,←,left,←,0.5525834999862127,True,36,1
MP-K-23K23S1,47,experiment,91,←,right,→,0.6999722000327893,False,36,1
MP-K-23K23S1,48,experiment,72,→,right,→,0.6876205999869853,True,36,1
MP-K-23K23S1,49,experiment,60,→,right,→,0.7041133000166155,True,36,1
MP-K-23K23S1,50,experiment,96,→,left,←,0.603845099976752,False,36,1
MP-K-23K23S1,51,experiment,99,←,up,↑,0.7702352000051178,False,36,1
MP-K-23K23S1,52,experiment,101,→,right,→,0.5614331999677233,True,36,1
MP-K-23K23S1,53,experiment,98,↓,up,↑,0.5619946999941021,False,36,1
MP-K-23K23S1,54,experiment,68,↓,down,↓,0.580724100000225,True,36,1
MP-K-23K23S1,55,experiment,85,↑,up,↑,0.688977400015574,True,36,1
MP-K-23K23S1,56,experiment,54,←,left,←,0.8747495000134222,True,36,1
MP-K-23K23S1,57,experiment,86,↓,down,↓,0.6507072999957018,True,36,1
MP-K-23K23S1,58,experiment,88,→,right,→,0.6510989999515004,True,36,1
MP-K-23K23S1,59,experiment,104,↓,up,↑,0.6221035000053234,False,36,1
MP-K-23K23S1,60,experiment,82,←,right,→,0.5455753999995068,False,36,1
MP-K-23K23S1,61,experiment,66,↑,down,↓,0.5493655999889597,False,36,1
MP-K-23K23S1,62,experiment,76,↑,down,↓,0.9896319999825209,False,36,1
MP-K-23K23S1,63,experiment,65,→,right,→,0.5760039999731816,True,36,1
MP-K-23K23S1,64,experiment,56,←,left,←,0.7181148000527173,True,36,1
MP-K-23K23S1,65,experiment,105,→,right,→,0.4784427999984473,True,36,1
MP-K-23K23S1,66,experiment,64,→,right,→,0.6693770000129007,True,36,1
MP-K-23K23S1,67,experiment,69,→,right,→,0.5636819000355899,True,36,1
MP-K-23K23S1,68,experiment,58,←,up,↑,0.6254228999605402,False,36,1
MP-K-23K23S1,69,experiment,90,→,right,→,0.5941283999709412,True,36,1
MP-K-23K23S1,70,experiment,92,←,right,→,0.5635448000393808,False,36,1
MP-K-23K23S1,71,experiment,103,→,right,→,0.5544398999772966,True,36,1
MP-K-23K23S1,72,experiment,107,↓,down,↓,0.7118676999816671,True,36,1
MP-K-23K23S1,73,experiment,84,↑,up,↑,0.5193705999990925,True,36,1
MP-K-23K23S1,74,experiment,50,←,left,←,0.6413705999730155,True,36,1
MP-K-23K23S1,75,experiment,81,↓,down,↓,0.7003867000457831,True,36,1
MP-K-23K23S1,76,experiment,93,←,left,←,0.4970860999892466,True,36,1
MP-K-23K23S1,77,experiment,63,↓,up,↑,0.7197798999841325,False,36,1
MP-K-23K23S1,78,experiment,77,←,left,←,0.6331463000387885,True,36,1
MP-K-23K23S1,79,experiment,67,←,left,←,0.52127060003113,True,36,1
MP-K-23K23S1,80,experiment,102,↑,up,↑,0.8019984999555163,True,36,1
MP-K-23K23S1,81,experiment,75,↓,down,↓,0.6411132999928668,True,36,1
MP-K-23K23S1,82,experiment,95,→,right,→,0.5109814999741502,True,36,1
MP-K-23K23S1,83,experiment,80,→,right,→,0.5836311999591999,True,36,1
MP-K-23K23S1,84,experiment,70,↑,up,↑,0.4887353000231087,True,36,1
MP-K-23K23S1,85,experiment,108,→,right,→,0.6245485999970697,True,36,1
MP-K-23K23S1,86,experiment,57,↓,down,↓,0.6843684999621473,True,36,1
MP-K-23K23S1,87,experiment,52,→,right,→,0.7433589000138454,True,36,1
MP-K-23K23S1,88,experiment,73,↑,up,↑,0.545168399985414,True,36,1
MP-K-23K23S1,89,experiment,79,↓,down,↓,0.6163473000051454,True,36,1
MP-K-23K23S1,90,experiment,94,←,left,←,0.5843071999843232,True,36,1
MP-K-23K23S1,91,experiment,100,↓,down,↓,0.8553434000350535,True,36,1
MP-K-23K23S1,92,experiment,62,→,no_key,no_letter,-1.0,False,36,1
MP-K-23K23S1,93,experiment,55,↓,down,↓,0.6225174000137486,True,36,1
MP-K-23K23S1,94,experiment,51,→,up,↑,0.7885965000023134,False,36,1
MP-K-23K23S1,95,experiment,48,←,left,←,0.5002820999943651,True,36,1
MP-K-23K23S1,96,experiment,83,←,left,←,0.5402388999937102,True,36,1
MP-K-23K23S1,97,experiment,61,←,no_key,no_letter,-1.0,False,36,1
MP-K-23K23S1,98,experiment,106,←,left,←,0.49604520003777,True,36,1
MP-K-23K23S1,99,experiment,74,→,left,←,0.44413099996745586,False,36,1
MP-K-23K23S1,100,experiment,89,→,right,→,0.6908598999725655,True,36,0
MP-K-23K23S1,101,experiment,87,←,left,←,0.5220798999653198,True,36,1
MP-K-23K23S1,102,experiment,71,←,left,←,0.508795200032182,True,36,1
MP-K-23K23S1,103,experiment,49,↑,up,↑,0.5840568999992684,True,36,1
MP-K-23K23S1,104,training,77,→,right,→,0.36705020000226796,True,36,0
MP-K-23K23S1,105,training,102,↑,up,↑,0.5882746999850497,True,36,0
MP-K-23K23S1,106,experiment,93,↑,no_key,no_letter,-1.0,False,36,1
MP-K-23K23S1,107,experiment,53,↑,up,↑,0.5005193999968469,True,36,1
MP-K-23K23S1,108,experiment,108,→,right,→,0.6362890000455081,True,36,1
MP-K-23K23S1,109,experiment,82,↓,down,↓,0.6233146999729797,True,36,1
MP-K-23K23S1,110,experiment,91,→,right,→,0.6637657000101171,True,36,1
MP-K-23K23S1,111,experiment,63,←,right,→,0.6477073999703862,False,36,1
MP-K-23K23S1,112,experiment,56,←,left,←,0.6828224000055343,True,36,1
MP-K-23K23S1,113,experiment,96,↓,down,↓,0.8069635999854654,True,36,1
MP-K-23K23S1,114,experiment,103,↓,down,↓,0.6925339000299573,True,36,1
MP-K-23K23S1,115,experiment,60,↑,up,↑,0.5883011000114493,True,36,1
MP-K-23K23S1,116,experiment,87,↓,down,↓,0.6712160999886692,True,36,1
MP-K-23K23S1,117,experiment,89,↑,down,↓,0.5984845999628305,False,36,1
MP-K-23K23S1,118,experiment,92,←,left,←,0.6952289000037126,True,36,1
MP-K-23K23S1,119,experiment,94,↓,down,↓,0.6117345999809913,True,36,1
MP-K-23K23S1,120,experiment,73,→,right,→,0.5786893999902532,True,36,1
MP-K-23K23S1,121,experiment,48,←,left,←,0.5876131000113674,True,36,1
MP-K-23K23S1,122,experiment,57,↓,down,↓,0.5526616999995895,True,36,1
MP-K-23K23S1,123,experiment,72,←,left,←,0.5302756000310183,True,36,1
MP-K-23K23S1,124,experiment,90,←,left,←,0.4870293000130914,True,36,1
MP-K-23K23S1,125,experiment,64,→,left,←,0.5574643000145443,False,36,1
MP-K-23K23S1,126,experiment,75,←,left,←,0.5498373999726027,True,36,1
MP-K-23K23S1,127,experiment,69,↑,down,↓,0.5286222000140697,False,36,1
MP-K-23K23S1,128,experiment,51,←,no_key,no_letter,-1.0,False,36,1
MP-K-23K23S1,129,experiment,70,↓,left,←,1.0354158999980427,False,36,1
MP-K-23K23S1,130,experiment,80,↑,up,↑,0.655213299964089,True,36,1
MP-K-23K23S1,131,experiment,79,↑,up,↑,0.5061594999860972,True,36,1
MP-K-23K23S1,132,experiment,86,→,right,→,0.6250719999661669,True,36,1
MP-K-23K23S1,133,experiment,61,→,left,←,0.6033484000363387,False,36,1
MP-K-23K23S1,134,experiment,84,↓,up,↑,0.5428407000144944,False,36,1
MP-K-23K23S1,135,experiment,100,→,left,←,0.7835633000358939,False,36,1
MP-K-23K23S1,136,experiment,102,↑,up,↑,0.733823399990797,True,36,1
MP-K-23K23S1,137,experiment,62,↓,down,↓,0.7235782000352629,True,36,1
MP-K-23K23S1,138,experiment,88,↑,up,↑,0.5931201999774203,True,36,1
MP-K-23K23S1,139,experiment,105,←,left,←,0.5579449000069872,True,36,1
MP-K-23K23S1,140,experiment,59,↓,up,↑,0.8756472000386566,False,36,1
MP-K-23K23S1,141,experiment,55,←,left,←,0.542060500010848,True,36,1
MP-K-23K23S1,142,experiment,77,↓,left,←,0.47847480000928044,False,36,1
MP-K-23K23S1,143,experiment,78,←,left,←,0.5851809000014327,True,36,1
MP-K-23K23S1,144,experiment,99,←,left,←,0.6483701000106521,True,36,1
MP-K-23K23S1,145,experiment,83,→,left,←,0.6185180000029504,False,36,1
MP-K-23K23S1,146,experiment,81,↑,up,↑,0.5663658999837935,True,36,1
MP-K-23K23S1,147,experiment,65,↑,up,↑,0.4744537000078708,True,36,1
MP-K-23K23S1,148,experiment,52,←,left,←,0.41759329999331385,True,36,1
MP-K-23K23S1,149,experiment,76,↓,down,↓,0.7302816999726929,True,36,0
MP-K-23K23S1,150,experiment,49,←,left,←,0.5404391000047326,True,36,1
MP-K-23K23S1,151,experiment,50,↓,down,↓,0.7258939999737777,True,36,1
MP-K-23K23S1,152,experiment,98,←,left,←,0.3171054000267759,True,36,1
MP-K-23K23S1,153,experiment,68,→,left,←,0.595957699988503,False,36,0
MP-K-23K23S1,154,experiment,107,↓,up,↑,0.6480019000009634,False,36,1
MP-K-23K23S1,155,experiment,85,←,left,←,0.6974142999970354,True,36,1
MP-K-23K23S1,156,experiment,58,→,left,←,0.451331400021445,False,36,1
MP-K-23K23S1,157,experiment,54,→,no_key,no_letter,-1.0,False,36,0
MP-K-23K23S1,158,experiment,74,→,right,→,0.5174216000013985,True,36,1
MP-K-23K23S1,159,experiment,97,↓,down,↓,0.6245418000034988,True,36,1
MP-K-23K23S1,160,experiment,66,←,up,↑,0.5049584999796934,False,36,1
MP-K-23K23S1,161,experiment,104,↓,right,→,0.33379469998180866,False,36,1
MP-K-23K23S1,162,experiment,101,→,left,←,0.6180983999511227,False,36,0
MP-K-23K23S1,163,experiment,106,→,right,→,0.44266599998809397,True,36,1
MP-K-23K23S1,164,experiment,95,←,left,←,0.4999987999908626,True,36,0
MP-K-23K23S1,165,experiment,71,←,left,←,0.49603969999589026,True,36,1
MP-K-23K23S1,166,experiment,67,→,left,←,0.5092325999867171,False,36,1
MP-K-23K23S1,167,training,61,↓,left,←,0.3847514999797568,False,36,0
MP-K-23K23S1,168,training,64,←,right,→,0.48275029996875674,False,36,0
MP-K-23K23S1,169,experiment,72,←,left,←,0.5192190000088885,True,36,1
MP-K-23K23S1,170,experiment,88,→,right,→,0.40108079998753965,True,36,1
MP-K-23K23S1,171,experiment,99,←,right,→,0.4680015000049025,False,36,0
MP-K-23K23S1,172,experiment,57,↑,up,↑,0.5408604000112973,True,36,0
MP-K-23K23S1,173,experiment,53,→,right,→,0.37607100000604987,True,36,1
MP-K-23K23S1,174,experiment,101,←,right,→,0.484173099976033,False,36,0
MP-K-23K23S1,175,experiment,98,↑,up,↑,0.5680391000350937,True,36,1
MP-K-23K23S1,176,experiment,105,↑,down,↓,0.5501716999569908,False,36,1
MP-K-23K23S1,177,experiment,81,→,left,←,0.6766625999589451,False,36,1
MP-K-23K23S1,178,experiment,94,←,left,←,0.6019800000358373,True,36,1
MP-K-23K23S1,179,experiment,106,↓,down,↓,0.6622617999673821,True,36,1
MP-K-23K23S1,180,experiment,60,→,no_key,no_letter,-1.0,False,36,1
MP-K-23K23S1,181,experiment,90,↓,down,↓,0.63432210002793,True,36,1
MP-K-23K23S1,182,experiment,108,←,up,↑,0.700582499965094,False,36,1
MP-K-23K23S1,183,experiment,95,←,left,←,0.41720660001737997,True,36,1
MP-K-23K23S1,184,experiment,52,←,left,←,0.8460315000265837,True,36,0
MP-K-23K23S1,185,experiment,69,→,right,→,0.5007872999995016,True,36,1
MP-K-23K23S1,186,experiment,97,↑,down,↓,0.5921995000098832,False,36,1
MP-K-23K23S1,187,experiment,79,↑,up,↑,0.47790629998780787,True,36,1
MP-K-23K23S1,188,experiment,49,↓,up,↑,0.6021326000336558,False,36,1
MP-K-23K23S1,189,experiment,100,→,right,→,0.5364437000243925,True,36,1
MP-K-23K23S1,190,experiment,89,↑,up,↑,0.5970377000048757,True,36,1
MP-K-23K23S1,191,experiment,73,↓,no_key,no_letter,-1.0,False,36,1
MP-K-23K23S1,192,experiment,82,↑,no_key,no_letter,-1.0,False,36,1
MP-K-23K23S1,193,experiment,103,←,left,←,0.544201200013049,True,36,1
MP-K-23K23S1,194,experiment,50,→,left,←,0.6016930000041611,False,36,1
MP-K-23K23S1,195,experiment,62,←,left,←,1.0687237000092864,True,36,1
MP-K-23K23S1,196,experiment,96,↓,up,↑,0.6977463000221178,False,36,1
MP-K-23K23S1,197,experiment,70,←,left,←,0.5900937999831513,True,36,1
MP-K-23K23S1,198,experiment,78,→,right,→,0.49215309997089207,True,36,1
MP-K-23K23S1,199,experiment,86,↑,left,←,0.42626500001642853,False,36,1
MP-K-23K23S1,200,experiment,56,←,right,→,0.6152262999676168,False,36,0
MP-K-23K23S1,201,experiment,71,←,left,←,0.5589017999591306,True,36,1
MP-K-23K23S1,202,experiment,66,↑,down,↓,0.6422329000197351,False,36,1
MP-K-23K23S1,203,experiment,87,↑,up,↑,0.5871226000017487,True,36,1
MP-K-23K23S1,204,experiment,77,↑,up,↑,0.5855274999630637,True,36,1
MP-K-23K23S1,205,experiment,85,→,right,→,0.7098880999838002,True,36,1
MP-K-23K23S1,206,experiment,92,↓,down,↓,0.8582633000332862,True,36,1
MP-K-23K23S1,207,experiment,102,→,right,→,0.5015778999659233,True,36,1
MP-K-23K23S1,208,experiment,48,↑,up,↑,0.41109000000869855,True,36,1
MP-K-23K23S1,209,experiment,107,→,left,←,0.4845317999715917,False,36,0
MP-K-23K23S1,210,experiment,67,↑,left,←,0.7380500999861397,False,36,1
MP-K-23K23S1,211,experiment,104,↑,up,↑,0.40274130000034347,True,36,1
MP-K-23K23S1,212,experiment,59,←,left,←,0.6688445000327192,True,36,0
MP-K-23K23S1,213,experiment,83,→,right,→,0.4005263000144623,True,36,1
MP-K-23K23S1,214,experiment,84,↓,down,↓,0.705545200034976,True,36,0
MP-K-23K23S1,215,experiment,74,→,right,→,0.48420980002265424,True,36,1
MP-K-23K23S1,216,experiment,75,↑,up,↑,0.6152820000424981,True,36,1
MP-K-23K23S1,217,experiment,54,←,left,←,0.39280610001878813,True,36,1
MP-K-23K23S1,218,experiment,68,↑,up,↑,0.5494292000075802,True,36,0
MP-K-23K23S1,219,experiment,51,↑,down,↓,0.5902318999869749,False,36,1
MP-K-23K23S1,220,experiment,76,↑,down,↓,0.7967476000194438,False,36,1
MP-K-23K23S1,221,experiment,61,↓,left,←,0.38496329996269196,False,36,1
MP-K-23K23S1,222,experiment,80,↑,up,↑,0.6133167999796569,True,36,0
MP-K-23K23S1,223,experiment,64,↓,up,↑,0.38482269999803975,False,36,1
MP-K-23K23S1,224,experiment,58,→,left,←,0.5719875000067987,False,36,0
MP-K-23K23S1,225,experiment,91,↑,right,→,0.3761238000006415,False,36,1
MP-K-23K23S1,226,experiment,63,←,left,←,0.60169689997565,True,36,1
MP-K-23K23S1,227,experiment,65,→,up,↑,0.4336732000228949,False,36,1
MP-K-23K23S1,228,experiment,55,↑,up,↑,0.6394494000123814,True,36,0
MP-K-23K23S1,229,experiment,93,↓,down,↓,0.7585614999989048,True,36,1
MP-K-23K23S1,230,training,85,→,down,↓,0.45093039999483153,False,36,0
MP-K-23K23S1,231,training,81,←,right,→,0.3514472999959253,False,36,0
MP-K-23K23S1,232,experiment,107,→,left,←,0.34230509999906644,False,36,0
MP-K-23K23S1,233,experiment,102,←,left,←,0.4505751999677159,True,36,0
MP-K-23K23S1,234,experiment,92,↓,down,↓,0.6272877000155859,True,36,0
MP-K-23K23S1,235,experiment,96,→,right,→,0.5942459999932908,True,36,1
MP-K-23K23S1,236,experiment,63,→,right,→,0.6528942000004463,True,36,1
MP-K-23K23S1,237,experiment,99,→,left,←,0.30073459999402985,False,36,1
MP-K-23K23S1,238,experiment,103,←,no_key,no_letter,-1.0,False,36,0
MP-K-23K23S1,239,experiment,58,↓,left,←,0.6801021000137553,False,36,1
MP-K-23K23S1,240,experiment,54,↓,up,↑,0.42772079998394474,False,36,1
MP-K-23K23S1,241,experiment,73,→,down,↓,0.3506159999524243,False,36,0
MP-K-23K23S1,242,experiment,56,↑,down,↓,0.6952080000191927,False,36,0
MP-K-23K23S1,243,experiment,94,→,right,→,0.3589636000106111,True,36,1
MP-K-23K23S1,244,experiment,59,←,left,←,0.6250269000302069,True,36,0
MP-K-23K23S1,245,experiment,55,↓,down,↓,0.5015641000354663,True,36,1
MP-K-23K23S1,246,experiment,68,↑,up,↑,0.6668565000290982,True,36,1
MP-K-23K23S1,247,experiment,82,↓,right,→,0.3335940999677405,False,36,1
MP-K-23K23S1,248,experiment,105,↑,down,↓,0.6995559000060894,False,36,0
MP-K-23K23S1,249,experiment,97,←,left,←,0.34411040000850335,True,36,1
MP-K-23K23S1,250,experiment,101,←,left,←,0.47069260000716895,True,36,0
MP-K-23K23S1,251,experiment,80,↓,right,→,0.37742519995663315,False,36,0
MP-K-23K23S1,252,experiment,108,→,right,→,0.6524515000055544,True,36,0
MP-K-23K23S1,253,experiment,72,↓,down,↓,0.6743124999920838,True,36,1
MP-K-23K23S1,254,experiment,89,↓,down,↓,0.5772763999993913,True,36,1
MP-K-23K23S1,255,experiment,48,↓,down,↓,0.49803989997599274,True,36,1
MP-K-23K23S1,256,experiment,57,↑,down,↓,0.5869310999987647,False,36,1
MP-K-23K23S1,257,experiment,91,↓,down,↓,0.5087540000095032,True,36,1
MP-K-23K23S1,258,experiment,66,↑,down,↓,0.4193337000324391,False,36,1
MP-K-23K23S1,259,experiment,70,→,right,→,0.7452734999824315,True,36,0
MP-K-23K23S1,260,experiment,104,↑,down,↓,0.6726814999710768,False,36,1
MP-K-23K23S1,261,experiment,76,↓,up,↑,0.47681480000028387,False,36,1
MP-K-23K23S1,262,experiment,67,→,right,→,0.5223168000229634,True,36,1
MP-K-23K23S1,263,experiment,49,→,right,→,0.476625100011006,True,36,1
MP-K-23K23S1,264,experiment,71,→,right,→,0.4742610999965109,True,36,1
MP-K-23K23S1,265,experiment,65,←,right,→,0.4098431000020355,False,36,1
MP-K-23K23S1,266,experiment,64,→,no_key,no_letter,-1.0,False,36,1
MP-K-23K23S1,267,experiment,74,↓,down,↓,0.6027431000256911,True,36,1
MP-K-23K23S1,268,experiment,53,↑,no_key,no_letter,-1.0,False,36,1
MP-K-23K23S1,269,experiment,77,↑,down,↓,0.6079144999966957,False,36,1
MP-K-23K23S1,270,experiment,62,↑,up,↑,0.38415430003078654,True,36,1
MP-K-23K23S1,271,experiment,52,↑,up,↑,0.6578677000361495,True,36,0
MP-K-23K23S1,272,experiment,75,←,up,↑,0.3170890000183135,False,36,1
MP-K-23K23S1,273,experiment,81,↑,up,↑,0.6536013000295497,True,36,0
MP-K-23K23S1,274,experiment,84,↓,up,↑,0.7031635000021197,False,36,1
MP-K-23K23S1,275,experiment,93,↑,left,←,0.5558924999786541,False,36,1
MP-K-23K23S1,276,experiment,85,↓,up,↑,0.42607059999136254,False,36,1
MP-K-23K23S1,277,experiment,100,→,right,→,0.6619788000243716,True,36,0
MP-K-23K23S1,278,experiment,61,↓,down,↓,0.5351080999826081,True,36,1
MP-K-23K23S1,279,experiment,87,↑,down,↓,0.5002608000067994,False,36,1
MP-K-23K23S1,280,experiment,78,↑,down,↓,0.4784493999904953,False,36,1
MP-K-23K23S1,281,experiment,90,↑,up,↑,0.3929230999783613,True,36,1
MP-K-23K23S1,282,experiment,86,→,right,→,0.7200398999848403,True,36,0
MP-K-23K23S1,283,experiment,106,↑,up,↑,0.6076639000093564,True,36,1
MP-K-23K23S1,284,experiment,88,→,left,←,0.38395559997297823,False,36,1
MP-K-23K23S1,285,experiment,79,↓,up,↑,0.19430999999167398,False,36,0
MP-K-23K23S1,286,experiment,50,→,down,↓,0.40100720000918955,False,36,0
MP-K-23K23S1,287,experiment,98,←,right,→,0.3756485999911092,False,36,0
MP-K-23K23S1,288,experiment,60,↓,down,↓,0.933752299984917,True,36,0
MP-K-23K23S1,289,experiment,95,→,left,←,0.8006541000213474,False,36,1
MP-K-23K23S1,290,experiment,51,→,right,→,0.8632388000260107,True,36,1
MP-K-23K23S1,291,experiment,69,→,right,→,0.6212087000021711,True,36,1
MP-K-23K23S1,292,experiment,83,↓,down,↓,0.5602283999905922,True,36,1
MP-K-23K23S1,293,training,80,→,left,←,0.60112459998345,False,37,0
MP-K-23K23S1,294,training,54,←,right,→,0.3761203999747522,False,37,1
MP-K-23K23S1,295,experiment,102,←,left,←,0.5574441999779083,True,37,0
MP-K-23K23S1,296,experiment,60,↓,up,↑,0.578857499989681,False,37,1
MP-K-23K23S1,297,experiment,70,↓,no_key,no_letter,-1.0,False,37,1
MP-K-23K23S1,298,experiment,68,↑,up,↑,0.7339017000049353,True,37,1
MP-K-23K23S1,299,experiment,84,←,right,→,0.40922969998791814,False,37,1
MP-K-23K23S1,300,experiment,90,→,left,←,0.3754309000214562,False,37,1
MP-K-23K23S1,301,experiment,74,↑,down,↓,0.5806012999964878,False,37,0
MP-K-23K23S1,302,experiment,99,→,up,↑,0.32525819999864325,False,37,1
MP-K-23K23S1,303,experiment,87,↑,up,↑,0.6653340999619104,True,37,0
MP-K-23K23S1,304,experiment,100,→,right,→,0.5091002000262961,True,37,1
MP-K-23K23S1,305,experiment,48,↑,up,↑,0.5285082000191323,True,37,1
MP-K-23K23S1,306,experiment,50,→,right,→,0.5143379999790341,True,37,1
MP-K-23K23S1,307,experiment,78,→,right,→,0.6273824000381865,True,37,1
MP-K-23K23S1,308,experiment,89,↓,up,↑,0.49240599997574463,False,37,1
MP-K-23K23S1,309,experiment,107,→,right,→,0.49336620001122355,True,37,1
MP-K-23K23S1,310,experiment,101,←,down,↓,0.6869968000100926,False,37,1
MP-K-23K23S1,311,experiment,58,↑,up,↑,0.7601656999904662,True,37,1
MP-K-23K23S1,312,experiment,64,↑,down,↓,0.5483063000137918,False,37,1
MP-K-23K23S1,313,experiment,49,↑,up,↑,0.3340097999898717,True,37,1
MP-K-23K23S1,314,experiment,91,←,left,←,0.5934208999969997,True,37,0
MP-K-23K23S1,315,experiment,95,→,right,→,0.3506474000168964,True,37,1
MP-K-23K23S1,316,experiment,65,↑,left,←,0.7013878999860026,False,37,0
MP-K-23K23S1,317,experiment,94,↑,up,↑,0.5700180000276305,True,37,1
MP-K-23K23S1,318,experiment,82,→,right,→,0.5915490000043064,True,37,1
MP-K-23K23S1,319,experiment,85,←,left,←,0.5633069999748841,True,37,1
MP-K-23K23S1,320,experiment,97,↑,up,↑,0.7478241000208072,True,37,1
MP-K-23K23S1,321,experiment,93,↑,up,↑,0.5583016000455245,True,37,1
MP-K-23K23S1,322,experiment,62,←,left,←,0.5715223000152037,True,37,1
MP-K-23K23S1,323,experiment,103,←,no_key,no_letter,-1.0,False,37,1
MP-K-23K23S1,324,experiment,66,↑,up,↑,0.7403840000042692,True,37,1
MP-K-23K23S1,325,experiment,63,↓,down,↓,0.6175722999614663,True,37,1
MP-K-23K23S1,326,experiment,55,←,left,←,0.5501764999935403,True,37,1
MP-K-23K23S1,327,experiment,52,→,left,←,0.6867117999936454,False,37,1
MP-K-23K23S1,328,experiment,59,←,left,←,0.5192918999819085,True,37,1
MP-K-23K23S1,329,experiment,88,→,right,→,0.6130285999970511,True,37,1
MP-K-23K23S1,330,experiment,92,←,left,←,0.4781481000245549,True,37,1
MP-K-23K23S1,331,experiment,77,←,left,←,0.3859713000128977,True,37,0
MP-K-23K23S1,332,experiment,71,↑,up,↑,0.4805348999798298,True,37,0
MP-K-23K23S1,333,experiment,79,←,left,←,0.6744628999731503,True,37,1
MP-K-23K23S1,334,experiment,105,↓,up,↑,0.5562127999728546,False,37,1
MP-K-23K23S1,335,experiment,108,→,left,←,0.4975342000252567,False,37,1
MP-K-23K23S1,336,experiment,81,←,left,←,0.5062995000043884,True,37,1
MP-K-23K23S1,337,experiment,54,→,right,→,0.635584200033918,True,37,1
MP-K-23K23S1,338,experiment,57,→,right,→,0.5588795999647118,True,37,1
MP-K-23K23S1,339,experiment,56,→,left,←,1.0219240000005811,False,37,1
MP-K-23K23S1,340,experiment,69,→,left,←,0.5414745999732986,False,37,1
MP-K-23K23S1,341,experiment,76,↑,up,↑,0.5742552999872714,True,37,1
MP-K-23K23S1,342,experiment,98,←,left,←,0.5823324000230059,True,37,1
MP-K-23K23S1,343,experiment,86,→,no_key,no_letter,-1.0,False,37,1
MP-K-23K23S1,344,experiment,80,←,left,←,0.6158481999882497,True,37,1
MP-K-23K23S1,345,experiment,72,←,right,→,0.5668581000063568,False,37,1
MP-K-23K23S1,346,experiment,67,→,right,→,0.49789230001624674,True,37,1
MP-K-23K23S1,347,experiment,75,→,left,←,0.3753784000291489,False,37,1
MP-K-23K23S1,348,experiment,61,←,right,→,0.560659000009764,False,37,0
MP-K-23K23S1,349,experiment,51,↓,down,↓,0.7529922999674454,True,37,1
MP-K-23K23S1,350,experiment,73,↑,up,↑,0.3928111999994144,True,37,1
MP-K-23K23S1,351,experiment,53,→,down,↓,0.6963872999767773,False,37,1
MP-K-23K23S1,352,experiment,83,→,right,→,0.3940972999553196,True,37,1
MP-K-23K23S1,353,experiment,106,↑,down,↓,0.7165161999873817,False,37,1
MP-K-23K23S1,354,experiment,96,↑,up,↑,0.6795839999685995,True,37,1
MP-K-23K23S1,355,experiment,104,→,right,→,0.5610027000075206,True,37,1
MP-K-23K23S1,356,training,75,↑,up,↑,0.41773149999789894,True,37,0
MP-K-23K23S1,357,training,106,←,down,↓,0.3171065999777056,False,37,0
MP-K-23K23S1,358,experiment,80,↓,left,←,0.3837891999864951,False,37,0
MP-K-23K23S1,359,experiment,83,↓,up,↑,0.30847470002481714,False,37,0
MP-K-23K23S1,360,experiment,65,→,right,→,0.5846260999678634,True,37,0
MP-K-23K23S1,361,experiment,70,←,no_key,no_letter,-1.0,False,37,1
MP-K-23K23S1,362,experiment,68,→,right,→,0.5155095999944024,True,37,1
MP-K-23K23S1,363,experiment,50,↓,left,←,0.3915592000121251,False,37,1
MP-K-23K23S1,364,experiment,99,↑,no_key,no_letter,-1.0,False,37,0
MP-K-23K23S1,365,experiment,93,←,left,←,0.5263379000243731,True,37,1
MP-K-23K23S1,366,experiment,81,←,right,→,0.5659719999530353,False,37,1
MP-K-23K23S1,367,experiment,85,↑,left,←,0.3171203999663703,False,37,1
MP-K-23K23S1,368,experiment,92,↓,right,→,0.37626549997366965,False,37,0
MP-K-23K23S1,369,experiment,88,↓,down,↓,0.3171373999794014,True,37,0
MP-K-23K23S1,370,experiment,74,→,up,↑,0.3169528000289574,False,37,0
MP-K-23K23S1,371,experiment,56,↓,right,→,0.4261121000163257,False,37,0
MP-K-23K23S1,372,experiment,95,←,left,←,0.6348756999941543,True,37,1
MP-K-23K23S1,373,experiment,51,→,left,←,0.8723899999749847,False,37,1
MP-K-23K23S1,374,experiment,58,→,left,←,0.5376246999949217,False,37,1
MP-K-23K23S1,375,experiment,48,↑,up,↑,0.7558431999641471,True,37,1
MP-K-23K23S1,376,experiment,96,←,no_key,no_letter,-1.0,False,37,1
MP-K-23K23S1,377,experiment,52,←,right,→,0.54016719997162,False,37,1
MP-K-23K23S1,378,experiment,64,→,right,→,0.49713620002148673,True,37,1
MP-K-23K23S1,379,experiment,79,↑,up,↑,0.5943213999853469,True,37,1
MP-K-23K23S1,380,experiment,106,↓,up,↑,0.6151197999715805,False,37,1
MP-K-23K23S1,381,experiment,105,←,up,↑,0.6111379999783821,False,37,1
MP-K-23K23S1,382,experiment,61,←,left,←,0.5744940000004135,True,37,1
MP-K-23K23S1,383,experiment,86,↓,right,→,0.4349172999500297,False,37,1
MP-K-23K23S1,384,experiment,94,→,left,←,0.7286566999973729,False,37,0
MP-K-23K23S1,385,experiment,104,→,no_key,no_letter,-1.0,False,37,1
MP-K-23K23S1,386,experiment,62,←,left,←,0.4089510000194423,True,37,1
MP-K-23K23S1,387,experiment,100,↑,up,↑,0.4431347000063397,True,37,0
MP-K-23K23S1,388,experiment,101,→,no_key,no_letter,-1.0,False,37,1
MP-K-23K23S1,389,experiment,108,↓,left,←,0.38431049999780953,False,37,1
MP-K-23K23S1,390,experiment,82,↓,down,↓,0.3425592000130564,True,37,0
MP-K-23K23S1,391,experiment,72,←,up,↑,0.3864769999636337,False,37,0
MP-K-23K23S1,392,experiment,84,→,left,←,0.2609950000187382,False,37,0
MP-K-23K23S1,393,experiment,91,↓,down,↓,0.7784050999907777,True,37,0
MP-K-23K23S1,394,experiment,75,←,left,←,0.5378109999583103,True,37,1
MP-K-23K23S1,395,experiment,55,↓,down,↓,0.8174626000109129,True,37,1
MP-K-23K23S1,396,experiment,77,→,left,←,0.6390931000350975,False,37,1
MP-K-23K23S1,397,experiment,59,↓,down,↓,0.6656284999917261,True,37,1
MP-K-23K23S1,398,experiment,54,←,left,←,0.500401699973736,True,37,1
MP-K-23K23S1,399,experiment,60,↓,left,←,0.9561798999784514,False,37,1
MP-K-23K23S1,400,experiment,49,↑,up,↑,0.5493434000527486,True,37,1
MP-K-23K23S1,401,experiment,78,↑,up,↑,0.7169424000312574,True,37,1
MP-K-23K23S1,402,experiment,89,→,right,→,0.5144315999932587,True,37,1
MP-K-23K23S1,403,experiment,107,↑,up,↑,0.5140843999688514,True,37,1
MP-K-23K23S1,404,experiment,63,↑,up,↑,0.45045459998073056,True,37,1
MP-K-23K23S1,405,experiment,67,↑,up,↑,0.45129689999157563,True,37,0
MP-K-23K23S1,406,experiment,53,↑,up,↑,0.6107423999928869,True,37,0
MP-K-23K23S1,407,experiment,103,↑,up,↑,0.5357739999890327,True,37,1
MP-K-23K23S1,408,experiment,76,↑,up,↑,0.3762260000221431,True,37,1
MP-K-23K23S1,409,experiment,97,→,right,→,0.5688560999697074,True,37,0
MP-K-23K23S1,410,experiment,90,→,no_key,no_letter,-1.0,False,37,1
MP-K-23K23S1,411,experiment,57,↓,up,↑,0.6650547999888659,False,37,1
MP-K-23K23S1,412,experiment,87,←,right,→,0.458613199996762,False,37,1
MP-K-23K23S1,413,experiment,73,↑,up,↑,0.5659377999836579,True,37,0
MP-K-23K23S1,414,experiment,71,←,right,→,0.34262730000773445,False,37,1
MP-K-23K23S1,415,experiment,102,←,right,→,0.49525689997244626,False,37,0
MP-K-23K23S1,416,experiment,69,←,right,→,0.4255612999550067,False,37,1
MP-K-23K23S1,417,experiment,98,→,left,←,0.410920399997849,False,37,0
MP-K-23K23S1,418,experiment,66,→,right,→,0.4595145999919623,True,37,0
MP-K-23K23S1,419,training,80,→,left,←,0.4191331000183709,False,38,0
MP-K-23K23S1,420,training,79,↓,right,→,0.3758007000433281,False,38,0
MP-K-23K23S1,421,experiment,80,←,right,→,0.40111940004862845,False,38,0
MP-K-23K23S1,422,experiment,78,↑,up,↑,0.6966035000514239,True,38,1
MP-K-23K23S1,423,experiment,75,←,left,←,0.4444126000162214,True,38,1
MP-K-23K23S1,424,experiment,86,←,left,←,0.5481758000096306,True,38,0
MP-K-23K23S1,425,experiment,81,↑,up,↑,0.4913135000388138,True,38,1
MP-K-23K23S1,426,experiment,71,↓,up,↑,0.8868362999637611,False,38,1
MP-K-23K23S1,427,experiment,102,↓,left,←,0.3678201999864541,False,38,1
MP-K-23K23S1,428,experiment,90,↑,up,↑,0.6840920000104234,True,38,0
MP-K-23K23S1,429,experiment,52,↓,up,↑,0.7190579000161961,False,38,1
MP-K-23K23S1,430,experiment,56,→,right,→,0.5276557999895886,True,38,1
MP-K-23K23S1,431,experiment,58,→,right,→,0.3998860999708995,True,38,1
MP-K-23K23S1,432,experiment,105,←,right,→,0.4261782999965362,False,38,0
MP-K-23K23S1,433,experiment,100,↑,left,←,0.4342809000518173,False,38,0
MP-K-23K23S1,434,experiment,74,←,right,→,0.5178194000036456,False,38,0
MP-K-23K23S1,435,experiment,108,↑,right,→,0.5165465999743901,False,38,1
MP-K-23K23S1,436,experiment,50,↓,up,↑,0.4677942999987863,False,38,1
MP-K-23K23S1,437,experiment,83,←,up,↑,0.33375449996674433,False,38,1
MP-K-23K23S1,438,experiment,73,→,left,←,0.35059659997932613,False,38,0
MP-K-23K23S1,439,experiment,67,→,left,←,0.5248882999876514,False,38,0
MP-K-23K23S1,440,experiment,79,→,up,↑,0.5974129000096582,False,38,1
MP-K-23K23S1,441,experiment,61,↑,right,→,0.21046139998361468,False,38,1
MP-K-23K23S1,442,experiment,93,↑,up,↑,0.3419335999642499,True,38,0
MP-K-23K23S1,443,experiment,89,→,left,←,0.5290832000318915,False,38,0
MP-K-23K23S1,444,experiment,57,←,right,→,0.4087954999995418,False,38,1
MP-K-23K23S1,445,experiment,76,↑,left,←,0.20974540000315756,False,38,0
MP-K-23K23S1,446,experiment,49,←,up,↑,0.3172364999772981,False,38,0
MP-K-23K23S1,447,experiment,98,→,right,→,0.43609770003240556,True,38,0
MP-K-23K23S1,448,experiment,69,→,no_key,no_letter,-1.0,False,38,0
MP-K-23K23S1,449,experiment,48,↑,up,↑,0.49034600000595674,True,38,1
MP-K-23K23S1,450,experiment,65,↑,up,↑,0.45856379996985197,True,38,1
MP-K-23K23S1,451,experiment,55,→,left,←,0.4678588999668136,False,38,0
MP-K-23K23S1,452,experiment,104,→,right,→,0.581165499985218,True,38,0
MP-K-23K23S1,453,experiment,68,→,left,←,0.7269985000020824,False,38,1
MP-K-23K23S1,454,experiment,64,↑,up,↑,0.5724290999933146,True,38,1
MP-K-23K23S1,455,experiment,95,↓,no_key,no_letter,-1.0,False,38,1
MP-K-23K23S1,456,experiment,59,↑,up,↑,0.569499299977906,True,38,1
MP-K-23K23S1,457,experiment,72,→,right,→,0.40139929996803403,True,38,1
MP-K-23K23S1,458,experiment,53,↓,down,↓,0.6805237000226043,True,38,1
MP-K-23K23S1,459,experiment,103,→,left,←,0.5305637000128627,False,38,1
MP-K-23K23S1,460,experiment,62,←,right,→,0.45112939999671653,False,38,1
MP-K-23K23S1,461,experiment,91,↑,no_key,no_letter,-1.0,False,38,1
MP-K-23K23S1,462,experiment,54,↑,up,↑,0.6615828999783844,True,38,1
MP-K-23K23S1,463,experiment,63,↓,up,↑,0.7177809999557212,False,38,1
MP-K-23K23S1,464,experiment,85,↑,up,↑,0.5887938000378199,True,38,1
MP-K-23K23S1,465,experiment,88,↑,down,↓,0.6311681999941356,False,38,1
MP-K-23K23S1,466,experiment,97,↓,up,↑,0.3503657999681309,False,38,1
MP-K-23K23S1,467,experiment,66,→,down,↓,0.41721520002465695,False,38,0
MP-K-23K23S1,468,experiment,60,↑,up,↑,0.7956217000028118,True,38,0
MP-K-23K23S1,469,experiment,77,↓,right,→,0.48978730000089854,False,38,1
MP-K-23K23S1,470,experiment,96,↓,down,↓,0.5018935999833047,True,38,0
MP-K-23K23S1,471,experiment,107,↑,up,↑,0.5093102999962866,True,38,1
MP-K-23K23S1,472,experiment,106,→,no_key,no_letter,-1.0,False,38,1
MP-K-23K23S1,473,experiment,92,→,right,→,0.5269878000253811,True,38,1
MP-K-23K23S1,474,experiment,82,→,right,→,0.34300140000414103,True,38,1
MP-K-23K23S1,475,experiment,99,→,left,←,0.4588373000151478,False,38,0
MP-K-23K23S1,476,experiment,70,↓,down,↓,0.6284445999772288,True,38,0
MP-K-23K23S1,477,experiment,51,←,right,→,0.5139128000009805,False,38,1
MP-K-23K23S1,478,experiment,101,←,right,→,0.4344740000087768,False,38,1
MP-K-23K23S1,479,experiment,94,→,right,→,0.681956100044772,True,38,1
MP-K-23K23S1,480,experiment,87,←,right,→,0.3845922999898903,False,38,1
MP-K-23K23S1,481,experiment,84,→,no_key,no_letter,-1.0,False,38,1
MP-K-23K23S1,482,training,68,←,right,→,0.4005250000045635,False,39,0
MP-K-23K23S1,483,training,87,↓,left,←,0.39228969998657703,False,39,0
MP-K-23K23S1,484,experiment,85,↓,up,↑,0.33355820004362613,False,39,0
MP-K-23K23S1,485,experiment,52,→,no_key,no_letter,-1.0,False,39,0
MP-K-23K23S1,486,experiment,65,↓,down,↓,0.5716994000249542,True,39,1
MP-K-23K23S1,487,experiment,60,→,right,→,0.4672988000093028,True,39,1
MP-K-23K23S1,488,experiment,59,→,right,→,0.45946129999356344,True,39,0
MP-K-23K23S1,489,experiment,98,↓,down,↓,0.5496085999766365,True,39,1
MP-K-23K23S1,490,experiment,100,↓,down,↓,0.5739900000044145,True,39,1
MP-K-23K23S1,491,experiment,108,←,right,→,0.40942270000232384,False,39,1
MP-K-23K23S1,492,experiment,71,↓,right,→,0.6019971999921836,False,39,1
MP-K-23K23S1,493,experiment,53,↓,down,↓,0.4425813999841921,True,39,1
MP-K-23K23S1,494,experiment,54,→,left,←,0.5881648000213318,False,39,1
MP-K-23K23S1,495,experiment,55,→,left,←,0.5857332000159658,False,39,1
MP-K-23K23S1,496,experiment,101,→,down,↓,0.5765489999903366,False,39,1
MP-K-23K23S1,497,experiment,72,↑,down,↓,0.6251672999933362,False,39,1
MP-K-23K23S1,498,experiment,104,↓,down,↓,0.5572190000093542,True,39,1
MP-K-23K23S1,499,experiment,91,↑,up,↑,0.6961729000322521,True,39,1
MP-K-23K23S1,500,experiment,48,↓,up,↑,0.5559775999863632,False,39,1
MP-K-23K23S1,501,experiment,90,←,left,←,0.5833333999617025,True,39,1
MP-K-23K23S1,502,experiment,73,↑,down,↓,0.6075711000012234,False,39,1
MP-K-23K23S1,503,experiment,96,→,left,←,0.5666927000274882,False,39,1
MP-K-23K23S1,504,experiment,92,↑,up,↑,0.6891603000112809,True,39,1
MP-K-23K23S1,505,experiment,81,↓,down,↓,0.6102757999906316,True,39,1
MP-K-23K23S1,506,experiment,58,↑,up,↑,0.4679097000043839,True,39,1
MP-K-23K23S1,507,experiment,97,↑,left,←,0.45945709996158257,False,39,0
MP-K-23K23S1,508,experiment,84,↓,up,↑,0.5080661000101827,False,39,0
MP-K-23K23S1,509,experiment,63,↓,down,↓,0.5860780999646522,True,39,1
MP-K-23K23S1,510,experiment,66,↑,up,↑,0.7242769000004046,True,39,1
MP-K-23K23S1,511,experiment,105,→,left,←,0.5801489999867044,False,39,1
MP-K-23K23S1,512,experiment,57,←,left,←,0.5294416000251658,True,39,1
MP-K-23K23S1,513,experiment,64,↑,down,↓,0.6303690999629907,False,39,1
MP-K-23K23S1,514,experiment,74,↓,up,↑,0.5079378000227734,False,39,1
MP-K-23K23S1,515,experiment,75,↓,down,↓,0.542640500003472,True,39,1
MP-K-23K23S1,516,experiment,82,←,down,↓,0.4094776000129059,False,39,1
MP-K-23K23S1,517,experiment,79,←,down,↓,0.5942185000167228,False,39,0
MP-K-23K23S1,518,experiment,69,↓,down,↓,0.5631280000088736,True,39,1
MP-K-23K23S1,519,experiment,62,←,left,←,0.3926314999698661,True,39,1
MP-K-23K23S1,520,experiment,67,→,left,←,0.39433460001600906,False,39,0
MP-K-23K23S1,521,experiment,88,←,left,←,0.47608069999841973,True,39,0
MP-K-23K23S1,522,experiment,89,↓,down,↓,0.5055484999902546,True,39,1
MP-K-23K23S1,523,experiment,56,↑,down,↓,0.5705815000110306,False,39,1
MP-K-23K23S1,524,experiment,51,←,no_key,no_letter,-1.0,False,39,1
MP-K-23K23S1,525,experiment,61,↑,up,↑,0.6138627000036649,True,39,1
MP-K-23K23S1,526,experiment,103,↑,left,←,0.5144987000385299,False,39,1
MP-K-23K23S1,527,experiment,93,←,left,←,0.49513110000407323,True,39,1
MP-K-23K23S1,528,experiment,95,←,no_key,no_letter,-1.0,False,39,0
MP-K-23K23S1,529,experiment,102,↓,down,↓,0.5525462999939919,True,39,1
MP-K-23K23S1,530,experiment,107,↓,left,←,0.3925431999959983,False,39,1
MP-K-23K23S1,531,experiment,49,←,left,←,0.6537681000190787,True,39,1
MP-K-23K23S1,532,experiment,70,→,left,←,0.40104989998508245,False,39,1
MP-K-23K23S1,533,experiment,87,↓,right,→,0.5266190000111237,False,39,0
MP-K-23K23S1,534,experiment,68,↓,down,↓,0.5944544000085443,True,39,1
MP-K-23K23S1,535,experiment,50,↑,down,↓,0.5700253000250086,False,39,1
MP-K-23K23S1,536,experiment,86,↑,down,↓,0.6063849999918602,False,39,1
MP-K-23K23S1,537,experiment,80,→,right,→,0.5709389999974519,True,39,1
MP-K-23K23S1,538,experiment,76,↑,down,↓,0.5943287000409327,False,39,1
MP-K-23K23S1,539,experiment,94,→,up,↑,0.38380519999191165,False,39,1
MP-K-23K23S1,540,experiment,83,→,right,→,0.35897870000917464,True,39,0
MP-K-23K23S1,541,experiment,78,←,left,←,0.36718419997487217,True,39,0
MP-K-23K23S1,542,experiment,99,↑,right,→,0.4255323999677785,False,39,0
MP-K-23K23S1,543,experiment,77,→,right,→,0.635125600034371,True,39,0
MP-K-23K23S1,544,experiment,106,→,no_key,no_letter,-1.0,False,39,1
MP-K-23K23S1,545,training,82,↓,down,↓,0.8219669999671169,True,40,0
MP-K-23K23S1,546,training,54,↓,down,↓,0.4513516000006348,True,40,1
MP-K-23K23S1,547,experiment,103,↑,up,↑,0.3667571999831125,True,40,0
MP-K-23K23S1,548,experiment,63,←,right,→,0.3420258999685757,False,40,0
MP-K-23K23S1,549,experiment,59,↑,down,↓,0.8238289000000805,False,40,0
MP-K-23K23S1,550,experiment,57,→,left,←,0.5234084000112489,False,40,1
MP-K-23K23S1,551,experiment,61,→,right,→,0.419506799953524,True,40,1
MP-K-23K23S1,552,experiment,74,↓,up,↑,0.36801029997877777,False,40,0
MP-K-23K23S1,553,experiment,107,↑,down,↓,0.44208880001679063,False,40,0
MP-K-23K23S1,554,experiment,79,↓,right,→,0.5995740999933332,False,40,0
MP-K-23K23S1,555,experiment,99,↑,down,↓,0.37528979999478906,False,40,1
MP-K-23K23S1,556,experiment,89,→,left,←,0.42612560000270605,False,40,0
MP-K-23K23S1,557,experiment,80,↑,down,↓,0.508820699993521,False,40,1
MP-K-23K23S1,558,experiment,66,←,right,→,0.5941806000191718,False,40,1
MP-K-23K23S1,559,experiment,96,↑,left,←,0.594438599946443,False,40,1
MP-K-23K23S1,560,experiment,102,←,left,←,0.4842346999794245,True,40,1
MP-K-23K23S1,561,experiment,69,↑,up,↑,0.5973958999966271,True,40,1
MP-K-23K23S1,562,experiment,73,↑,up,↑,0.5011606000480242,True,40,1
MP-K-23K23S1,563,experiment,92,↓,down,↓,0.5455471000168473,True,40,0
MP-K-23K23S1,564,experiment,60,↓,up,↑,0.4594651000224985,False,40,1
MP-K-23K23S1,565,experiment,56,→,left,←,0.4676736000110395,False,40,0
MP-K-23K23S1,566,experiment,84,↓,down,↓,0.5624493999639526,True,40,1
MP-K-23K23S1,567,experiment,100,↓,right,→,0.4504818999557756,False,40,1
MP-K-23K23S1,568,experiment,104,↑,down,↓,0.4843594000558369,False,40,0
MP-K-23K23S1,569,experiment,58,↑,up,↑,0.4504840000299737,True,40,0
MP-K-23K23S1,570,experiment,49,←,left,←,0.5307465000078082,True,40,0
MP-K-23K23S1,571,experiment,90,→,left,←,0.5271383000072092,False,40,1
MP-K-23K23S1,572,experiment,101,↓,down,↓,0.5681459000334144,True,40,1
MP-K-23K23S1,573,experiment,54,↓,up,↑,0.6233845999813639,False,40,1
MP-K-23K23S1,574,experiment,64,→,down,↓,0.560692300030496,False,40,1
MP-K-23K23S1,575,experiment,50,↑,up,↑,0.6253337999805808,True,40,1
MP-K-23K23S1,576,experiment,70,→,right,→,0.2277734000235796,True,40,1
MP-K-23K23S1,577,experiment,93,←,up,↑,0.2942783000180498,False,40,0
MP-K-23K23S1,578,experiment,97,←,right,→,0.3102783000213094,False,40,0
MP-K-23K23S1,579,experiment,77,↓,left,←,0.39255089999642223,False,40,0
MP-K-23K23S1,580,experiment,78,←,down,↓,0.25269470002967864,False,40,0
MP-K-23K23S1,581,experiment,91,→,right,→,0.3506267999764532,True,40,0
MP-K-23K23S1,582,experiment,65,→,right,→,0.3925465999636799,True,40,0
MP-K-23K23S1,583,experiment,86,↑,up,↑,0.4259234999772161,True,40,0
MP-K-23K23S1,584,experiment,87,↑,left,←,0.47610799997346476,False,40,0
MP-K-23K23S1,585,experiment,76,↑,up,↑,0.564213200006634,True,40,0
MP-K-23K23S1,586,experiment,105,→,right,→,0.5943945000180975,True,40,1
MP-K-23K23S1,587,experiment,51,←,left,←,0.6257125000120141,True,40,1
MP-K-23K23S1,588,experiment,52,↑,down,↓,0.5588542000041343,False,40,1
MP-K-23K23S1,589,experiment,75,→,right,→,0.5429741000407375,True,40,1
MP-K-23K23S1,590,experiment,68,→,right,→,0.5148568999720737,True,40,1
MP-K-23K23S1,591,experiment,98,←,left,←,0.557211900013499,True,40,1
MP-K-23K23S1,592,experiment,55,→,no_key,no_letter,-1.0,False,40,1
MP-K-23K23S1,593,experiment,83,→,right,→,0.41767029999755323,True,40,1
MP-K-23K23S1,594,experiment,67,→,right,→,0.45939169998746365,True,40,0
MP-K-23K23S1,595,experiment,85,←,left,←,0.34202619997086003,True,40,0
MP-K-23K23S1,596,experiment,48,↓,left,←,0.4599121999926865,False,40,0
MP-K-23K23S1,597,experiment,106,↓,up,↑,0.3253906999598257,False,40,0
MP-K-23K23S1,598,experiment,82,→,down,↓,0.7314385999925435,False,40,0
MP-K-23K23S1,599,experiment,81,→,left,←,0.5312331999884918,False,40,1
MP-K-23K23S1,600,experiment,53,↑,up,↑,0.6675964000169188,True,40,1
MP-K-23K23S1,601,experiment,62,→,right,→,0.5399480999913067,True,40,1
MP-K-23K23S1,602,experiment,71,→,no_key,no_letter,-1.0,False,40,1
MP-K-23K23S1,603,experiment,88,←,right,→,0.44271689996821806,False,40,1
MP-K-23K23S1,604,experiment,108,←,right,→,0.5624501999700442,False,40,0
MP-K-23K23S1,605,experiment,72,→,right,→,0.6753398000146262,True,40,1
MP-K-23K23S1,606,experiment,94,↑,left,←,0.3757459999760613,False,40,1
MP-K-23K23S1,607,experiment,95,↑,up,↑,0.3587684000376612,True,40,0
MP-K-23K23S1,608,training,77,→,right,→,0.3756635999889113,True,41,0
MP-K-23K23S1,609,training,105,←,right,→,0.40858699998352677,False,41,0
MP-K-23K23S1,610,experiment,63,←,left,←,0.4169882999849506,True,41,0
MP-K-23K23S1,611,experiment,68,→,left,←,0.6292757000192069,False,41,0
MP-K-23K23S1,612,experiment,92,↓,right,→,0.4171883999952115,False,41,1
MP-K-23K23S1,613,experiment,73,→,up,↑,0.409186500008218,False,41,0
MP-K-23K23S1,614,experiment,76,↓,left,←,0.2600455000065267,False,41,0
MP-K-23K23S1,615,experiment,93,↑,down,↓,0.442682099994272,False,41,0
MP-K-23K23S1,616,experiment,90,↑,down,↓,0.5639725999790244,False,41,0
MP-K-23K23S1,617,experiment,104,→,left,←,0.58748700004071,False,41,1
MP-K-23K23S1,618,experiment,108,↑,up,↑,0.5823415000340901,True,41,1
MP-K-23K23S1,619,experiment,101,↓,down,↓,0.5490725999698043,True,41,1
MP-K-23K23S1,620,experiment,88,↑,left,←,0.46720780001487583,False,41,1
MP-K-23K23S1,621,experiment,62,↑,down,↓,0.37572159996489063,False,41,0
MP-K-23K23S1,622,experiment,74,←,left,←,0.49270679999608546,True,41,0
MP-K-23K23S1,623,experiment,105,↑,right,→,0.45084960001986474,False,41,0
MP-K-23K23S1,624,experiment,58,←,left,←,0.4922806000104174,True,41,0
MP-K-23K23S1,625,experiment,66,→,right,→,0.5858187999692746,True,41,0
MP-K-23K23S1,626,experiment,80,←,left,←,0.5914655000087805,True,41,1
MP-K-23K23S1,627,experiment,65,↑,up,↑,0.3588140999781899,True,41,1
MP-K-23K23S1,628,experiment,103,↓,down,↓,0.28591970005072653,True,41,0
MP-K-23K23S1,629,experiment,55,↑,right,→,0.3592898999922909,False,41,0
MP-K-23K23S1,630,experiment,85,↑,up,↑,0.5254735000198707,True,41,0
MP-K-23K23S1,631,experiment,98,←,left,←,0.5353239999967627,True,41,1
MP-K-23K23S1,632,experiment,86,←,left,←,0.5971651999861933,True,41,1
MP-K-23K23S1,633,experiment,53,→,left,←,0.43406870000762865,False,41,1
MP-K-23K23S1,634,experiment,60,←,right,→,0.5894618000020273,False,41,0
MP-K-23K23S1,635,experiment,71,↓,up,↑,0.5576000000000931,False,41,1
MP-K-23K23S1,636,experiment,59,↑,up,↑,0.5793297000345774,True,41,1
MP-K-23K23S1,637,experiment,49,↓,down,↓,0.699567100033164,True,41,1
MP-K-23K23S1,638,experiment,79,→,right,→,0.6289332999731414,True,41,1
MP-K-23K23S1,639,experiment,48,←,left,←,0.3591158000053838,True,41,1
MP-K-23K23S1,640,experiment,52,→,right,→,0.46787019999464974,True,41,0
MP-K-23K23S1,641,experiment,91,↑,left,←,0.30264539999188855,False,41,1
MP-K-23K23S1,642,experiment,78,←,left,←,0.6015525000402704,True,41,0
MP-K-23K23S1,643,experiment,51,→,left,←,0.5128587000072002,False,41,1
MP-K-23K23S1,644,experiment,95,←,left,←,0.4930524999508634,True,41,0
MP-K-23K23S1,645,experiment,57,←,left,←,0.46964679996017367,True,41,0
MP-K-23K23S1,646,experiment,75,↑,up,↑,0.44227360002696514,True,41,0
MP-K-23K23S1,647,experiment,102,↓,up,↑,0.4344132000114769,False,41,0
MP-K-23K23S1,648,experiment,50,↓,down,↓,0.4005363999749534,True,41,0
MP-K-23K23S1,649,experiment,67,←,left,←,0.5621160000446253,True,41,0
MP-K-23K23S1,650,experiment,70,↑,up,↑,0.6039790000068024,True,41,1
MP-K-23K23S1,651,experiment,84,←,left,←,0.43436600000131875,True,41,1
MP-K-23K23S1,652,experiment,100,←,left,←,0.6280228999676183,True,41,0
MP-K-23K23S1,653,experiment,56,→,right,→,0.6561082000262104,True,41,1
MP-K-23K23S1,654,experiment,82,↑,up,↑,0.4007323000114411,True,41,1
MP-K-23K23S1,655,experiment,106,→,right,→,0.5661317000049166,True,41,0
MP-K-23K23S1,656,experiment,81,→,left,←,1.244199300010223,False,41,1
MP-K-23K23S1,657,experiment,64,↑,up,↑,0.6373902999912389,True,41,1
MP-K-23K23S1,658,experiment,99,↓,left,←,0.28529820003313944,False,41,1
MP-K-23K23S1,659,experiment,97,→,no_key,no_letter,-1.0,False,41,0
MP-K-23K23S1,660,experiment,89,←,left,←,0.43400110001675785,True,41,1
MP-K-23K23S1,661,experiment,61,↓,up,↑,0.5187717999797314,False,41,0
MP-K-23K23S1,662,experiment,94,→,left,←,0.5541123000439256,False,41,1
MP-K-23K23S1,663,experiment,83,↑,down,↓,0.376449599978514,False,41,1
MP-K-23K23S1,664,experiment,107,→,up,↑,0.24433529999805614,False,41,0
MP-K-23K23S1,665,experiment,96,↑,no_key,no_letter,-1.0,False,41,0
MP-K-23K23S1,666,experiment,87,↑,no_key,no_letter,-1.0,False,41,1
MP-K-23K23S1,667,experiment,54,↑,no_key,no_letter,-1.0,False,41,1
MP-K-23K23S1,668,experiment,77,↓,left,←,0.467307000013534,False,41,1
MP-K-23K23S1,669,experiment,69,↓,down,↓,0.4594906999845989,True,41,0
MP-K-23K23S1,670,experiment,72,↑,up,↑,0.2933395000291057,True,41,1
MP-K-23K23S1,671,training,97,↓,down,↓,0.5482854000292718,True,42,0
MP-K-23K23S1,672,training,60,←,left,←,0.350332600006368,True,42,1
MP-K-23K23S1,673,experiment,69,→,left,←,0.4512049999902956,False,42,0
MP-K-23K23S1,674,experiment,105,→,right,→,0.19409770000493154,True,42,0
MP-K-23K23S1,675,experiment,70,↑,left,←,0.2430255999788642,False,42,0
MP-K-23K23S1,676,experiment,68,↑,down,↓,0.260986800014507,False,42,0
MP-K-23K23S1,677,experiment,106,→,left,←,0.43601639999542385,False,42,0
MP-K-23K23S1,678,experiment,80,↑,right,→,0.4678937999997288,False,42,1
MP-K-23K23S1,679,experiment,79,↑,up,↑,0.535735499986913,True,42,0
MP-K-23K23S1,680,experiment,55,↓,down,↓,0.47575880005024374,True,42,1
MP-K-23K23S1,681,experiment,75,↓,up,↑,0.251715799968224,False,42,0
MP-K-23K23S1,682,experiment,71,→,down,↓,0.2278721000184305,False,42,0
MP-K-23K23S1,683,experiment,99,↑,down,↓,0.5340013999957591,False,42,0
MP-K-23K23S1,684,experiment,107,←,right,→,0.5561872000107542,False,42,1
MP-K-23K23S1,685,experiment,53,↓,left,←,0.40074280003318563,False,42,1
MP-K-23K23S1,686,experiment,59,←,right,→,0.5838713000412099,False,42,0
MP-K-23K23S1,687,experiment,85,→,left,←,0.4840262000216171,False,42,1
MP-K-23K23S1,688,experiment,88,↑,down,↓,0.5705442999606021,False,42,0
MP-K-23K23S1,689,experiment,57,↓,down,↓,0.43371140002273023,True,42,1
MP-K-23K23S1,690,experiment,78,↓,down,↓,0.47751330002211034,True,42,0
MP-K-23K23S1,691,experiment,97,↑,up,↑,0.3922774999518879,True,42,0
MP-K-23K23S1,692,experiment,72,↑,up,↑,0.5678338000434451,True,42,0
MP-K-23K23S1,693,experiment,92,↓,up,↑,0.5383881999878213,False,42,1
MP-K-23K23S1,694,experiment,95,↓,down,↓,0.5806488000089303,True,42,1
MP-K-23K23S1,695,experiment,91,↑,down,↓,0.45112519996473566,False,42,1
MP-K-23K23S1,696,experiment,56,→,right,→,0.5533405999885872,True,42,0
MP-K-23K23S1,697,experiment,49,↓,left,←,0.7064169999794103,False,42,1
MP-K-23K23S1,698,experiment,86,↑,left,←,0.38396730000386015,False,42,1
MP-K-23K23S1,699,experiment,67,→,right,→,0.4838021999457851,True,42,0
MP-K-23K23S1,700,experiment,100,←,left,←,0.6457454999908805,True,42,0
MP-K-23K23S1,701,experiment,93,↓,down,↓,0.7484421000117436,True,42,1
MP-K-23K23S1,702,experiment,48,→,right,→,0.5741248000413179,True,42,1
MP-K-23K23S1,703,experiment,87,↑,up,↑,0.697910699993372,True,42,1
MP-K-23K23S1,704,experiment,65,↑,up,↑,0.6958152999868616,True,42,1
MP-K-23K23S1,705,experiment,90,→,right,→,0.3839008999639191,True,42,1
MP-K-23K23S1,706,experiment,77,↓,left,←,0.48475299996789545,False,42,0
MP-K-23K23S1,707,experiment,64,→,right,→,0.5306900000432506,True,42,0
MP-K-23K23S1,708,experiment,104,→,right,→,0.5702302999561653,True,42,1
MP-K-23K23S1,709,experiment,83,↑,up,↑,0.6075824999716133,True,42,1
MP-K-23K23S1,710,experiment,84,↑,up,↑,0.6029077999992296,True,42,1
MP-K-23K23S1,711,experiment,81,→,right,→,0.451178599963896,True,42,1
MP-K-23K23S1,712,experiment,96,↓,down,↓,0.5487268000142649,True,42,0
MP-K-23K23S1,713,experiment,51,←,left,←,0.6935503999702632,True,42,1
MP-K-23K23S1,714,experiment,52,→,right,→,0.6482206000364386,True,42,1
MP-K-23K23S1,715,experiment,73,←,left,←,0.605730900017079,True,42,1
MP-K-23K23S1,716,experiment,94,→,right,→,0.5417821999872103,True,42,1
MP-K-23K23S1,717,experiment,54,←,no_key,no_letter,-1.0,False,42,1
MP-K-23K23S1,718,experiment,61,↑,up,↑,0.6243971000076272,True,42,1
MP-K-23K23S1,719,experiment,63,→,right,→,0.594083399977535,True,42,1
MP-K-23K23S1,720,experiment,103,↑,up,↑,0.7353965999791399,True,42,1
MP-K-23K23S1,721,experiment,58,←,left,←,0.6625620999839157,True,42,1
MP-K-23K23S1,722,experiment,76,←,right,→,0.4592294999747537,False,42,1
MP-K-23K23S1,723,experiment,62,↓,down,↓,0.5709183000144549,True,42,0
MP-K-23K23S1,724,experiment,108,↓,down,↓,0.7040170999825932,True,42,1
MP-K-23K23S1,725,experiment,89,←,no_key,no_letter,-1.0,False,42,1
MP-K-23K23S1,726,experiment,60,→,right,→,0.5922620000201277,True,42,1
MP-K-23K23S1,727,experiment,102,↑,up,↑,0.5343982000485994,True,42,1
MP-K-23K23S1,728,experiment,74,←,left,←,0.6559747999999672,True,42,1
MP-K-23K23S1,729,experiment,82,↑,up,↑,0.5698630000115372,True,42,1
MP-K-23K23S1,730,experiment,50,←,left,←,0.5385465999715962,True,42,1
MP-K-23K23S1,731,experiment,101,→,left,←,0.42529149999609217,False,42,1
MP-K-23K23S1,732,experiment,66,↓,up,↑,0.5875825000111945,False,42,0
MP-K-23K23S1,733,experiment,98,←,left,←,0.5308382000075653,True,42,1
MP-K-23K23S1,734,training,88,↓,down,↓,0.539800499973353,True,42,0
MP-K-23K23S1,735,training,51,←,left,←,0.8847820999799296,True,42,1
MP-K-23K23S1,736,experiment,102,↑,up,↑,0.5277043000096455,True,42,1
MP-K-23K23S1,737,experiment,51,↑,up,↑,0.5928341999533586,True,42,1
MP-K-23K23S1,738,experiment,87,↓,down,↓,0.7076750000123866,True,42,1
MP-K-23K23S1,739,experiment,72,→,right,→,0.8391945000039414,True,42,1
MP-K-23K23S1,740,experiment,80,↓,down,↓,0.5303341000108048,True,42,1
MP-K-23K23S1,741,experiment,89,↓,left,←,0.33597999997437,False,42,1
MP-K-23K23S1,742,experiment,48,←,left,←,0.6808914000284858,True,42,0
MP-K-23K23S1,743,experiment,54,↑,down,↓,0.5472012999816798,False,42,1
MP-K-23K23S1,744,experiment,74,→,no_key,no_letter,-1.0,False,42,1
MP-K-23K23S1,745,experiment,64,→,right,→,0.4928873999742791,True,42,1
MP-K-23K23S1,746,experiment,76,↑,up,↑,0.7203375000390224,True,42,1
MP-K-23K23S1,747,experiment,71,→,right,→,0.6354153999709524,True,42,1
MP-K-23K23S1,748,experiment,88,←,left,←,0.46136619994649664,True,42,1
MP-K-23K23S1,749,experiment,73,→,right,→,0.5527537000016309,True,42,0
MP-K-23K23S1,750,experiment,59,↓,down,↓,0.6868497999967076,True,42,1
MP-K-23K23S1,751,experiment,79,→,right,→,0.5013370999949984,True,42,1
MP-K-23K23S1,752,experiment,50,←,left,←,0.5878049000166357,True,42,1
MP-K-23K23S1,753,experiment,78,↑,right,→,0.4344500000006519,False,42,1
MP-K-23K23S1,754,experiment,68,↑,up,↑,0.501179900020361,True,42,0
MP-K-23K23S1,755,experiment,100,←,no_key,no_letter,-1.0,False,42,1
MP-K-23K23S1,756,experiment,81,←,left,←,0.6390813000034541,True,42,1
MP-K-23K23S1,757,experiment,70,↓,down,↓,0.6218097999808379,True,42,1
MP-K-23K23S1,758,experiment,60,→,left,←,0.47617460001492873,False,42,1
MP-K-23K23S1,759,experiment,106,↑,up,↑,0.6255992000224069,True,42,0
MP-K-23K23S1,760,experiment,93,→,right,→,0.41804010001942515,True,42,1
MP-K-23K23S1,761,experiment,65,↑,up,↑,0.6663830000325106,True,42,0
MP-K-23K23S1,762,experiment,53,↓,left,←,0.4428213000064716,False,42,1
MP-K-23K23S1,763,experiment,105,↑,up,↑,0.5764391999691725,True,42,0
MP-K-23K23S1,764,experiment,99,↓,down,↓,0.6322420999640599,True,42,1
MP-K-23K23S1,765,experiment,84,→,right,→,0.7706616999930702,True,42,1
MP-K-23K23S1,766,experiment,92,→,no_key,no_letter,-1.0,False,42,1
MP-K-23K23S1,767,experiment,69,↑,no_key,no_letter,-1.0,False,42,1
MP-K-23K23S1,768,experiment,77,→,right,→,0.4929589999956079,True,42,1
MP-K-23K23S1,769,experiment,94,←,left,←,0.4013338999939151,True,42,0
MP-K-23K23S1,770,experiment,108,←,left,←,0.5007513000164181,True,42,0
MP-K-23K23S1,771,experiment,103,←,no_key,no_letter,-1.0,False,42,0
MP-K-23K23S1,772,experiment,66,→,right,→,0.7797406000318006,True,42,1
MP-K-23K23S1,773,experiment,97,→,right,→,0.49283100001048297,True,42,1
MP-K-23K23S1,774,experiment,82,↑,up,↑,0.5402069000410847,True,42,1
MP-K-23K23S1,775,experiment,98,↓,left,←,0.40911780000897124,False,42,1
MP-K-23K23S1,776,experiment,58,↑,up,↑,0.5532513000071049,True,42,0
MP-K-23K23S1,777,experiment,52,↓,down,↓,0.7857087000156753,True,42,1
MP-K-23K23S1,778,experiment,104,→,right,→,0.5673329000128433,True,42,1
MP-K-23K23S1,779,experiment,83,←,left,←,0.4838685000431724,True,42,1
MP-K-23K23S1,780,experiment,91,↓,down,↓,0.5784477000124753,True,42,0
MP-K-23K23S1,781,experiment,95,←,left,←,0.49242740002227947,True,42,1
MP-K-23K23S1,782,experiment,61,→,left,←,0.4361413000151515,False,42,0
MP-K-23K23S1,783,experiment,90,←,right,→,0.4842651999788359,False,42,0
MP-K-23K23S1,784,experiment,85,↓,down,↓,0.5863616000278853,True,42,1
MP-K-23K23S1,785,experiment,55,←,left,←,0.6321035999571905,True,42,1
MP-K-23K23S1,786,experiment,101,←,left,←,0.6686655000085011,True,42,1
MP-K-23K23S1,787,experiment,107,→,left,←,0.5582306999713182,False,42,1
MP-K-23K23S1,788,experiment,62,←,left,←,0.5627512999926694,True,42,1
MP-K-23K23S1,789,experiment,57,↑,up,↑,0.5850350999971852,True,42,1
MP-K-23K23S1,790,experiment,75,←,left,←,0.5765237999730743,True,42,1
MP-K-23K23S1,791,experiment,86,↑,left,←,0.5725603000028059,False,42,1
MP-K-23K23S1,792,experiment,67,↑,up,↑,0.43474489997606725,True,42,1
MP-K-23K23S1,793,experiment,49,↓,down,↓,0.7487677999888547,True,42,1
MP-K-23K23S1,794,experiment,96,→,no_key,no_letter,-1.0,False,42,1
MP-K-23K23S1,795,experiment,63,←,left,←,0.5205535999848507,True,42,1
MP-K-23K23S1,796,experiment,56,↑,up,↑,0.5523362000240013,True,42,0
MP-K-23K23S1,797,training,67,↓,down,↓,0.6166792999720201,True,42,0
MP-K-23K23S1,798,training,65,←,left,←,0.492158799956087,True,42,1
MP-K-23K23S1,799,experiment,72,↓,down,↓,0.4595948000205681,True,42,0
MP-K-23K23S1,800,experiment,54,→,right,→,0.7048333000275306,True,42,0
MP-K-23K23S1,801,experiment,102,↑,left,←,0.44306560000404716,False,42,1
MP-K-23K23S1,802,experiment,91,→,right,→,0.7423083000467159,True,42,0
MP-K-23K23S1,803,experiment,83,↓,down,↓,0.5197745999903418,True,42,1
MP-K-23K23S1,804,experiment,71,←,no_key,no_letter,-1.0,False,42,0
MP-K-23K23S1,805,experiment,76,←,left,←,0.5214262999943458,True,42,1
MP-K-23K23S1,806,experiment,87,↑,down,↓,0.5899198999977671,False,42,1
MP-K-23K23S1,807,experiment,77,→,right,→,0.48595589998876676,True,42,1
MP-K-23K23S1,808,experiment,94,↑,up,↑,0.648624999972526,True,42,0
MP-K-23K23S1,809,experiment,99,←,left,←,0.45968569995602593,True,42,1
MP-K-23K23S1,810,experiment,103,→,right,→,0.5361781000392511,True,42,1
MP-K-23K23S1,811,experiment,48,→,right,→,0.5385408999864012,True,42,1
MP-K-23K23S1,812,experiment,84,↑,up,↑,0.434320000000298,True,42,1
MP-K-23K23S1,813,experiment,52,←,left,←,0.47619179997127503,True,42,0
MP-K-23K23S1,814,experiment,97,←,left,←,0.4921751999645494,True,42,0
MP-K-23K23S1,815,experiment,51,↑,up,↑,0.8123759999871254,True,42,0
MP-K-23K23S1,816,experiment,101,↑,up,↑,0.8338695999700576,True,42,1
MP-K-23K23S1,817,experiment,59,→,right,→,0.4776669000275433,True,42,1
MP-K-23K23S1,818,experiment,81,↓,left,←,0.4089003000408411,False,42,0
MP-K-23K23S1,819,experiment,86,↓,down,↓,0.4339649000321515,True,42,0
MP-K-23K23S1,820,experiment,64,→,right,→,0.6489592000143602,True,42,0
MP-K-23K23S1,821,experiment,98,←,right,→,0.6381753000314347,False,42,1
MP-K-23K23S1,822,experiment,67,↓,up,↑,0.6376089999685064,False,42,1
MP-K-23K23S1,823,experiment,104,←,left,←,0.3934380999999121,True,42,1
MP-K-23K23S1,824,experiment,61,→,right,→,0.6040189000195824,True,42,0
MP-K-23K23S1,825,experiment,68,←,left,←,0.5247526000021026,True,42,1
MP-K-23K23S1,826,experiment,58,↑,up,↑,0.5005457000224851,True,42,0
MP-K-23K23S1,827,experiment,65,↑,down,↓,0.5860938999685459,False,42,0
MP-K-23K23S1,828,experiment,53,→,right,→,0.5688578999834135,True,42,1
MP-K-23K23S1,829,experiment,100,↑,up,↑,0.40094279998447746,True,42,1
MP-K-23K23S1,830,experiment,75,←,left,←,0.5009401999996044,True,42,0
MP-K-23K23S1,831,experiment,93,←,left,←,0.4597345999791287,True,42,0
MP-K-23K23S1,832,experiment,49,↑,no_key,no_letter,-1.0,False,42,0
MP-K-23K23S1,833,experiment,78,↓,down,↓,0.6442514000227675,True,42,1
MP-K-23K23S1,834,experiment,70,→,left,←,0.5233966000378132,False,42,1
MP-K-23K23S1,835,experiment,105,↑,up,↑,0.4929489999776706,True,42,1
MP-K-23K23S1,836,experiment,69,↓,left,←,0.4588549999753013,False,42,1
MP-K-23K23S1,837,experiment,106,↑,up,↑,0.6412054999964312,True,42,0
MP-K-23K23S1,838,experiment,88,→,right,→,0.4928853999590501,True,42,1
MP-K-23K23S1,839,experiment,55,←,left,←,0.4527409000438638,True,42,0
MP-K-23K23S1,840,experiment,96,↓,right,→,0.41737510001985356,False,42,0
MP-K-23K23S1,841,experiment,73,↑,up,↑,0.7027256999863312,True,42,0
MP-K-23K23S1,842,experiment,50,←,right,→,0.5220996999996714,False,42,1
MP-K-23K23S1,843,experiment,108,↑,up,↑,0.46787160000531003,True,42,1
MP-K-23K23S1,844,experiment,79,→,right,→,0.5303385000443086,True,42,1
MP-K-23K23S1,845,experiment,74,←,left,←,0.6439624999766238,True,42,1
MP-K-23K23S1,846,experiment,82,←,left,←,0.5587421000236645,True,42,1
MP-K-23K23S1,847,experiment,60,←,right,→,0.5245007000048645,False,42,1
MP-K-23K23S1,848,experiment,66,→,no_key,no_letter,-1.0,False,42,1
MP-K-23K23S1,849,experiment,57,↓,up,↑,0.7568113000015728,False,42,1
MP-K-23K23S1,850,experiment,85,↑,up,↑,0.5939224999747239,True,42,1
MP-K-23K23S1,851,experiment,107,↑,right,→,0.6302023999742232,False,42,1
MP-K-23K23S1,852,experiment,56,←,left,←,1.0178477999870665,True,42,1
MP-K-23K23S1,853,experiment,80,←,left,←,0.5982400000211783,True,42,1
MP-K-23K23S1,854,experiment,92,→,left,←,0.4175082999863662,False,42,1
MP-K-23K23S1,855,experiment,89,→,right,→,0.5524114000145346,True,42,0
MP-K-23K23S1,856,experiment,95,→,right,→,0.546675099991262,True,42,1
MP-K-23K23S1,857,experiment,62,→,no_key,no_letter,-1.0,False,42,1
MP-K-23K23S1,858,experiment,90,↓,down,↓,0.7442346999887377,True,42,1
MP-K-23K23S1,859,experiment,63,↑,up,↑,0.6853218000032939,True,42,1
MP-K-23K23S1,860,training,61,↑,up,↑,0.5672695999965072,True,42,0
MP-K-23K23S1,861,training,104,→,no_key,no_letter,-1.0,False,42,1
MP-K-23K23S1,862,experiment,70,↑,up,↑,0.5414327000034973,True,42,1
MP-K-23K23S1,863,experiment,82,↑,up,↑,0.556083099974785,True,42,1
MP-K-23K23S1,864,experiment,62,↓,up,↑,0.5373735000030138,False,42,1
MP-K-23K23S1,865,experiment,65,↓,no_key,no_letter,-1.0,False,42,1
MP-K-23K23S1,866,experiment,75,↓,down,↓,0.4680060999817215,True,42,1
MP-K-23K23S1,867,experiment,66,←,left,←,0.4843319000210613,True,42,0
MP-K-23K23S1,868,experiment,71,→,right,→,0.4587059000041336,True,42,0
MP-K-23K23S1,869,experiment,101,↑,up,↑,0.7215221999795176,True,42,0
MP-K-23K23S1,870,experiment,106,↓,down,↓,0.5217486000037752,True,42,1
MP-K-23K23S1,871,experiment,96,↓,down,↓,0.4342960999929346,True,42,0
MP-K-23K23S1,872,experiment,72,↓,down,↓,0.4180554000195116,True,42,0
MP-K-23K23S1,873,experiment,53,↑,up,↑,0.6704705000156537,True,42,0
MP-K-23K23S1,874,experiment,67,→,right,→,0.604894999996759,True,42,1
MP-K-23K23S1,875,experiment,90,←,right,→,0.5747240999480709,False,42,1
MP-K-23K23S1,876,experiment,108,←,left,←,0.6909712000051513,True,42,1
MP-K-23K23S1,877,experiment,77,→,right,→,0.5256569999619387,True,42,1
MP-K-23K23S1,878,experiment,88,←,right,→,0.4348685999866575,False,42,1
MP-K-23K23S1,879,experiment,104,←,no_key,no_letter,-1.0,False,42,0
MP-K-23K23S1,880,experiment,92,←,left,←,0.6057236000197008,True,42,1
MP-K-23K23S1,881,experiment,93,→,right,→,0.45108630001777783,True,42,1
MP-K-23K23S1,882,experiment,94,←,left,←,0.6841848000185564,True,42,1
MP-K-23K23S1,883,experiment,50,↓,down,↓,0.6317718999926001,True,42,1
MP-K-23K23S1,884,experiment,86,↑,up,↑,0.4430813000071794,True,42,1
MP-K-23K23S1,885,experiment,103,↑,up,↑,0.48600219999207184,True,42,0
MP-K-23K23S1,886,experiment,81,↓,down,↓,0.7814724000054412,True,42,0
MP-K-23K23S1,887,experiment,105,→,right,→,0.4088482999941334,True,42,1
MP-K-23K23S1,888,experiment,85,↑,down,↓,0.3752061999985017,False,42,0
MP-K-23K23S1,889,experiment,52,←,up,↑,0.4676200000103563,False,42,0
MP-K-23K23S1,890,experiment,76,→,left,←,0.483819900022354,False,42,1
MP-K-23K23S1,891,experiment,49,→,right,→,0.39218699996126816,True,42,0
MP-K-23K23S1,892,experiment,80,↑,right,→,0.3670225999667309,False,42,0
MP-K-23K23S1,893,experiment,61,↓,up,↑,0.4678635000018403,False,42,0
MP-K-23K23S1,894,experiment,107,↑,down,↓,0.4677891000173986,False,42,0
MP-K-23K23S1,895,experiment,57,←,left,←,0.5442694000084884,True,42,0
MP-K-23K23S1,896,experiment,59,↑,up,↑,0.5664063000003807,True,42,1
MP-K-23K23S1,897,experiment,63,↑,up,↑,0.6106173999723978,True,42,1
MP-K-23K23S1,898,experiment,87,←,no_key,no_letter,-1.0,False,42,1
MP-K-23K23S1,899,experiment,84,←,left,←,0.5204207999631763,True,42,1
MP-K-23K23S1,900,experiment,79,←,left,←,0.6002557000028901,True,42,0
MP-K-23K23S1,901,experiment,68,→,right,→,0.4764570000115782,True,42,1
MP-K-23K23S1,902,experiment,56,↑,up,↑,0.484632000036072,True,42,1
MP-K-23K23S1,903,experiment,83,←,left,←,0.5473799000028521,True,42,0
MP-K-23K23S1,904,experiment,60,↓,up,↑,0.5852475999854505,False,42,1
MP-K-23K23S1,905,experiment,64,↓,down,↓,0.7882416999782436,True,42,1
MP-K-23K23S1,906,experiment,73,↓,down,↓,0.8439290000242181,True,42,1
MP-K-23K23S1,907,experiment,78,↓,no_key,no_letter,-1.0,False,42,1
MP-K-23K23S1,908,experiment,99,→,left,←,0.6299339000252075,False,42,1
MP-K-23K23S1,909,experiment,54,→,right,→,0.4431095999898389,True,42,1
MP-K-23K23S1,910,experiment,97,←,right,→,0.41738419997273013,False,42,0
MP-K-23K23S1,911,experiment,100,←,left,←,0.48624329996528104,True,42,0
MP-K-23K23S1,912,experiment,89,↑,up,↑,0.6350886999862269,True,42,0
MP-K-23K23S1,913,experiment,98,↑,up,↑,0.5525387999950908,True,42,1
MP-K-23K23S1,914,experiment,48,→,right,→,0.4180679999990389,True,42,1
MP-K-23K23S1,915,experiment,102,↑,up,↑,0.45938509999541566,True,42,0
MP-K-23K23S1,916,experiment,95,←,left,←,0.4607582000317052,True,42,1
MP-K-23K23S1,917,experiment,69,←,left,←,0.4423500000266358,True,42,0
MP-K-23K23S1,918,experiment,55,↑,left,←,0.5567779000266455,False,42,0
MP-K-23K23S1,919,experiment,74,→,left,←,0.49429619999136776,False,42,1
MP-K-23K23S1,920,experiment,91,↑,up,↑,0.6026522999745794,True,42,0
MP-K-23K23S1,921,experiment,58,↑,up,↑,0.5673099999548867,True,42,1
MP-K-23K23S1,922,experiment,51,↓,up,↑,0.47552530001848936,False,42,1
MP-K-23K23S1,923,training,78,↑,up,↑,0.7329543000087142,True,42,0
MP-K-23K23S1,924,training,82,↑,down,↓,0.5325206000125036,False,42,1
MP-K-23K23S1,925,experiment,108,↓,down,↓,0.4193396999617107,True,42,1
MP-K-23K23S1,926,experiment,49,←,left,←,0.5365287000313401,True,42,0
MP-K-23K23S1,927,experiment,90,↑,down,↓,0.5647376000415534,False,42,1
MP-K-23K23S1,928,experiment,92,→,down,↓,0.5272796000353992,False,42,1
MP-K-23K23S1,929,experiment,73,←,left,←,0.4922347000101581,True,42,1
MP-K-23K23S1,930,experiment,52,→,no_key,no_letter,-1.0,False,42,0
MP-K-23K23S1,931,experiment,67,↓,down,↓,0.5878611000371166,True,42,1
MP-K-23K23S1,932,experiment,86,←,left,←,0.45901739998953417,True,42,1
MP-K-23K23S1,933,experiment,74,←,left,←,0.4586468000197783,True,42,0
MP-K-23K23S1,934,experiment,66,↑,up,↑,0.5628366000019014,True,42,0
MP-K-23K23S1,935,experiment,95,←,left,←,0.48482790001435205,True,42,1
MP-K-23K23S1,936,experiment,99,↓,up,↑,0.4843903000000864,False,42,0
MP-K-23K23S1,937,experiment,97,→,right,→,0.6266638999804854,True,42,0
MP-K-23K23S1,938,experiment,69,↓,up,↑,0.7783978000516072,False,42,1
MP-K-23K23S1,939,experiment,51,←,left,←,0.49294730002293363,True,42,1
MP-K-23K23S1,940,experiment,82,→,right,→,0.3841861999826506,True,42,1
MP-K-23K23S1,941,experiment,85,↑,no_key,no_letter,-1.0,False,42,0
MP-K-23K23S1,942,experiment,63,←,left,←,0.4512160000158474,True,42,1
MP-K-23K23S1,943,experiment,101,←,left,←,0.40880930004641414,True,42,0
MP-K-23K23S1,944,experiment,107,↑,up,↑,0.631196100031957,True,42,0
MP-K-23K23S1,945,experiment,59,←,left,←,0.6179239000193775,True,42,1
MP-K-23K23S1,946,experiment,71,↑,left,←,0.40272779995575547,False,42,1
MP-K-23K23S1,947,experiment,72,→,right,→,0.5687121000373736,True,42,1
MP-K-23K23S1,948,experiment,81,→,up,↑,0.5344072000007145,False,42,1
MP-K-23K23S1,949,experiment,62,→,left,←,1.0921586999902502,False,42,1
MP-K-23K23S1,950,experiment,53,←,left,←,0.47585839999374,True,42,1
MP-K-23K23S1,951,experiment,79,↑,no_key,no_letter,-1.0,False,42,0
MP-K-23K23S1,952,experiment,65,←,left,←,0.6577850999892689,True,42,1
MP-K-23K23S1,953,experiment,60,↑,no_key,no_letter,-1.0,False,42,1
MP-K-23K23S1,954,experiment,64,↑,up,↑,0.5486327999969944,True,42,1
MP-K-23K23S1,955,experiment,68,←,left,←,0.37549209996359423,True,42,1
MP-K-23K23S1,956,experiment,80,←,no_key,no_letter,-1.0,False,42,0
MP-K-23K23S1,957,experiment,88,→,right,→,0.5751545999664813,True,42,1
MP-K-23K23S1,958,experiment,70,←,right,→,0.4589612999698147,False,42,1
MP-K-23K23S1,959,experiment,98,↓,down,↓,0.693063999991864,True,42,0
MP-K-23K23S1,960,experiment,100,←,left,←,0.4754141000448726,True,42,1
MP-K-23K23S1,961,experiment,104,↑,up,↑,0.41814299998804927,True,42,0
MP-K-23K23S1,962,experiment,105,↓,down,↓,0.3670092000393197,True,42,1
MP-K-23K23S1,963,experiment,103,←,left,←,0.4928590999916196,True,42,0
MP-K-23K23S1,964,experiment,56,↑,up,↑,0.4943871999857947,True,42,0
MP-K-23K23S1,965,experiment,96,←,left,←,0.45895189995644614,True,42,1
MP-K-23K23S1,966,experiment,77,↓,down,↓,0.5712951000314206,True,42,0
MP-K-23K23S1,967,experiment,106,↑,up,↑,0.5926007999805734,True,42,1
MP-K-23K23S1,968,experiment,57,↓,right,→,0.5179195999517106,False,42,1
MP-K-23K23S1,969,experiment,48,↑,down,↓,0.5365976000321098,False,42,0
MP-K-23K23S1,970,experiment,61,↓,up,↑,0.3188306999509223,False,42,1
MP-K-23K23S1,971,experiment,91,→,right,→,0.5696952000143938,True,42,0
MP-K-23K23S1,972,experiment,87,↓,down,↓,0.4678499999572523,True,42,1
MP-K-23K23S1,973,experiment,50,←,left,←,0.5010300000431016,True,42,0
MP-K-23K23S1,974,experiment,84,↑,up,↑,0.4838414000114426,True,42,0
MP-K-23K23S1,975,experiment,76,↑,up,↑,0.6999832000001334,True,42,0
MP-K-23K23S1,976,experiment,55,↓,down,↓,0.5333123999880627,True,42,1
MP-K-23K23S1,977,experiment,89,←,left,←,0.5302363999653608,True,42,1
MP-K-23K23S1,978,experiment,93,↑,down,↓,0.5335728999925777,False,42,1
MP-K-23K23S1,979,experiment,83,→,no_key,no_letter,-1.0,False,42,1
MP-K-23K23S1,980,experiment,94,→,right,→,0.5396818000008352,True,42,1
MP-K-23K23S1,981,experiment,75,←,right,→,0.3922848000074737,False,42,1
MP-K-23K23S1,982,experiment,102,↓,down,↓,0.6663995000417344,True,42,0
MP-K-23K23S1,983,experiment,54,↓,no_key,no_letter,-1.0,False,42,1
MP-K-23K23S1,984,experiment,78,↓,left,←,0.5543497999897227,False,42,1
MP-K-23K23S1,985,experiment,58,→,left,←,0.7525900999899022,False,42,1
MP-K-23K23S1,986,training,90,←,no_key,no_letter,-1.0,False,42,0
MP-K-23K23S1,987,training,76,↑,down,↓,0.64017500000773,False,42,1
MP-K-23K23S1,988,experiment,57,↑,up,↑,0.47563080000691116,True,42,1
MP-K-23K23S1,989,experiment,99,←,left,←,0.4762131999596022,True,42,0
MP-K-23K23S1,990,experiment,90,↑,up,↑,0.5969701000140049,True,42,1
MP-K-23K23S1,991,experiment,70,↓,no_key,no_letter,-1.0,False,42,1
MP-K-23K23S1,992,experiment,48,←,left,←,0.42613330000313,True,42,1
MP-K-23K23S1,993,experiment,102,↓,up,↑,0.6003754999837838,False,42,0
MP-K-23K23S1,994,experiment,77,↓,no_key,no_letter,-1.0,False,42,1
MP-K-23K23S1,995,experiment,91,↑,down,↓,0.5827665000106208,False,42,1
MP-K-23K23S1,996,experiment,51,←,left,←,0.5738711999729276,True,42,1
MP-K-23K23S1,997,experiment,94,↑,up,↑,0.7114390000351705,True,42,1
MP-K-23K23S1,998,experiment,58,→,left,←,0.4928461000090465,False,42,1
MP-K-23K23S1,999,experiment,53,↑,no_key,no_letter,-1.0,False,42,1
MP-K-23K23S1,1000,experiment,54,↑,no_key,no_letter,-1.0,False,42,1
MP-K-23K23S1,1001,experiment,104,←,left,←,0.5305401000077836,True,42,1
MP-K-23K23S1,1002,experiment,52,→,right,→,0.5632737000123598,True,42,1
MP-K-23K23S1,1003,experiment,80,↓,up,↑,0.6018185999710113,False,42,1
MP-K-23K23S1,1004,experiment,106,→,left,←,0.46782469999743626,False,42,1
MP-K-23K23S1,1005,experiment,78,↓,right,→,0.520753099990543,False,42,1
MP-K-23K23S1,1006,experiment,71,←,right,→,0.5555150000145659,False,42,0
MP-K-23K23S1,1007,experiment,49,↑,up,↑,0.5564528999966569,True,42,1
MP-K-23K23S1,1008,experiment,98,→,right,→,0.5257805999717675,True,42,1
MP-K-23K23S1,1009,experiment,62,↓,left,←,0.3752079999540001,False,42,1
MP-K-23K23S1,1010,experiment,60,←,left,←,0.6474688000162132,True,42,0
MP-K-23K23S1,1011,experiment,96,←,left,←,0.6535420999862254,True,42,1
MP-K-23K23S1,1012,experiment,97,→,right,→,0.5785934000159614,True,42,1
MP-K-23K23S1,1013,experiment,93,←,no_key,no_letter,-1.0,False,42,1
MP-K-23K23S1,1014,experiment,95,←,no_key,no_letter,-1.0,False,42,1
MP-K-23K23S1,1015,experiment,63,←,no_key,no_letter,-1.0,False,42,1
MP-K-23K23S1,1016,experiment,66,←,left,←,0.4089964000158943,True,42,1
MP-K-23K23S1,1017,experiment,50,→,left,←,0.4940635999664664,False,42,0
MP-K-23K23S1,1018,experiment,67,←,right,→,0.6178542000125162,False,42,0
MP-K-23K23S1,1019,experiment,89,←,left,←,0.6589700000477023,True,42,1
MP-K-23K23S1,1020,experiment,107,↓,down,↓,0.6765659000375308,True,42,1
MP-K-23K23S1,1021,experiment,74,↑,up,↑,0.6326602999470197,True,42,1
MP-K-23K23S1,1022,experiment,83,→,left,←,0.6273215000401251,False,42,1
MP-K-23K23S1,1023,experiment,64,↓,down,↓,0.9566625999868847,True,42,1
MP-K-23K23S1,1024,experiment,85,→,right,→,0.6816953999805264,True,42,1
MP-K-23K23S1,1025,experiment,69,↓,down,↓,0.5829057999653742,True,42,1
MP-K-23K23S1,1026,experiment,105,↓,down,↓,0.49308649997692555,True,42,1
MP-K-23K23S1,1027,experiment,86,←,right,→,0.4179425000329502,False,42,0
MP-K-23K23S1,1028,experiment,87,↑,down,↓,0.4857062000082806,False,42,1
MP-K-23K23S1,1029,experiment,79,↓,down,↓,0.5582463000318967,True,42,0
MP-K-23K23S1,1030,experiment,101,←,down,↓,0.45969539997167885,False,42,1
MP-K-23K23S1,1031,experiment,76,↓,no_key,no_letter,-1.0,False,42,1
MP-K-23K23S1,1032,experiment,81,→,left,←,0.4091146999853663,False,42,1
MP-K-23K23S1,1033,experiment,100,←,no_key,no_letter,-1.0,False,42,0
MP-K-23K23S1,1034,experiment,72,→,right,→,0.5541479999665171,True,42,1
MP-K-23K23S1,1035,experiment,68,→,right,→,0.5734083999996074,True,42,1
MP-K-23K23S1,1036,experiment,108,↓,down,↓,0.5460774999810383,True,42,1
MP-K-23K23S1,1037,experiment,103,→,right,→,0.4924728000187315,True,42,1
MP-K-23K23S1,1038,experiment,59,→,left,←,0.4843879999825731,False,42,0
MP-K-23K23S1,1039,experiment,55,↓,down,↓,0.6031662000459619,True,42,1
MP-K-23K23S1,1040,experiment,61,↓,right,→,0.3671969000133686,False,42,1
MP-K-23K23S1,1041,experiment,92,↑,up,↑,0.6323971999809146,True,42,0
MP-K-23K23S1,1042,experiment,84,↓,down,↓,0.634809100010898,True,42,1
MP-K-23K23S1,1043,experiment,82,↓,no_key,no_letter,-1.0,False,42,1
MP-K-23K23S1,1044,experiment,88,↓,down,↓,0.5275500999996439,True,42,1
MP-K-23K23S1,1045,experiment,75,↓,up,↑,0.4173303000279702,False,42,1
MP-K-23K23S1,1046,experiment,65,↓,no_key,no_letter,-1.0,False,42,0
MP-K-23K23S1,1047,experiment,73,↓,down,↓,0.5766982000204735,True,42,1
MP-K-23K23S1,1048,experiment,56,→,left,←,0.542676399985794,False,42,1
MP-K-23K23S1,1049,training,100,←,right,→,0.4344873999943957,False,43,0
MP-K-23K23S1,1050,training,86,←,no_key,no_letter,-1.0,False,43,0
MP-K-23K23S1,1051,experiment,81,↑,up,↑,0.6028910999884829,True,43,1
MP-K-23K23S1,1052,experiment,103,↓,down,↓,0.4843285000533797,True,43,1
MP-K-23K23S1,1053,experiment,85,↑,down,↓,0.49280750000616536,False,43,1
MP-K-23K23S1,1054,experiment,106,↓,down,↓,0.4676834000274539,True,43,1
MP-K-23K23S1,1055,experiment,53,↓,down,↓,0.5705868999939412,True,43,0
MP-K-23K23S1,1056,experiment,49,↑,left,←,0.3587769000441767,False,43,1
MP-K-23K23S1,1057,experiment,80,←,left,←,0.5377551999990828,True,43,0
MP-K-23K23S1,1058,experiment,95,←,no_key,no_letter,-1.0,False,43,1
MP-K-23K23S1,1059,experiment,56,←,left,←,0.4595018000109121,True,43,1
MP-K-23K23S1,1060,experiment,55,→,left,←,0.5309038000414148,False,43,0
MP-K-23K23S1,1061,experiment,77,↑,up,↑,0.6514959000051022,True,43,1
MP-K-23K23S1,1062,experiment,94,↓,down,↓,0.5776569000445306,True,43,1
MP-K-23K23S1,1063,experiment,83,→,left,←,0.5431381000089459,False,43,1
MP-K-23K23S1,1064,experiment,87,←,left,←,0.5718972999602556,True,43,1
MP-K-23K23S1,1065,experiment,48,↓,down,↓,0.6522881999844685,True,43,1
MP-K-23K23S1,1066,experiment,76,→,right,→,0.6088736999663524,True,43,1
MP-K-23K23S1,1067,experiment,75,↓,no_key,no_letter,-1.0,False,43,1
MP-K-23K23S1,1068,experiment,57,↓,down,↓,0.8344543999992311,True,43,1
MP-K-23K23S1,1069,experiment,108,←,left,←,0.46790210000472143,True,43,1
MP-K-23K23S1,1070,experiment,67,←,right,→,0.4422326000058092,False,43,0
MP-K-23K23S1,1071,experiment,88,←,right,→,0.45261749997735023,False,43,0
MP-K-23K23S1,1072,experiment,74,→,right,→,0.5761321999598294,True,43,1
MP-K-23K23S1,1073,experiment,62,↑,up,↑,0.5563459999975748,True,43,1
MP-K-23K23S1,1074,experiment,61,↓,down,↓,0.7452638000249863,True,43,1
MP-K-23K23S1,1075,experiment,84,↑,right,→,0.5281797999632545,False,43,1
MP-K-23K23S1,1076,experiment,91,←,right,→,0.5394767000107095,False,43,0
MP-K-23K23S1,1077,experiment,96,←,left,←,0.6054220999940298,True,43,1
MP-K-23K23S1,1078,experiment,64,↓,down,↓,0.6794735000003129,True,43,1
MP-K-23K23S1,1079,experiment,82,←,left,←,0.4843756000045687,True,43,1
MP-K-23K23S1,1080,experiment,98,↓,down,↓,0.49287010001717135,True,43,1
MP-K-23K23S1,1081,experiment,66,↑,no_key,no_letter,-1.0,False,43,1
MP-K-23K23S1,1082,experiment,78,↓,no_key,no_letter,-1.0,False,43,1
MP-K-23K23S1,1083,experiment,73,→,down,↓,0.5483450999599881,False,43,1
MP-K-23K23S1,1084,experiment,79,↓,down,↓,0.46934010001132265,True,43,1
MP-K-23K23S1,1085,experiment,100,↑,up,↑,0.6388390999636613,True,43,0
MP-K-23K23S1,1086,experiment,97,→,no_key,no_letter,-1.0,False,43,1
MP-K-23K23S1,1087,experiment,58,↓,down,↓,0.5092889000079595,True,43,1
MP-K-23K23S1,1088,experiment,69,↓,down,↓,0.6118165000225417,True,43,0
MP-K-23K23S1,1089,experiment,89,↓,down,↓,0.4677244000486098,True,43,1
MP-K-23K23S1,1090,experiment,104,→,right,→,0.5996937999734655,True,43,1
MP-K-23K23S1,1091,experiment,92,↑,down,↓,0.4928802000358701,False,43,1
MP-K-23K23S1,1092,experiment,50,↓,up,↑,0.595806099998299,False,43,1
MP-K-23K23S1,1093,experiment,86,→,right,→,0.5746237999992445,True,43,1
MP-K-23K23S1,1094,experiment,90,↑,up,↑,0.5935728999902494,True,43,1
MP-K-23K23S1,1095,experiment,60,↓,down,↓,0.6374256000271998,True,43,1
MP-K-23K23S1,1096,experiment,102,←,no_key,no_letter,-1.0,False,43,1
MP-K-23K23S1,1097,experiment,71,↓,down,↓,0.5006901999586262,True,43,1
MP-K-23K23S1,1098,experiment,105,←,left,←,0.5012490000226535,True,43,0
MP-K-23K23S1,1099,experiment,52,←,left,←,0.5868586999713443,True,43,0
MP-K-23K23S1,1100,experiment,65,↑,left,←,0.6453510000137612,False,43,1
MP-K-23K23S1,1101,experiment,63,↓,no_key,no_letter,-1.0,False,43,1
MP-K-23K23S1,1102,experiment,59,↓,up,↑,0.8252742000040598,False,43,1
MP-K-23K23S1,1103,experiment,93,←,left,←,0.3019095999770798,True,43,1
MP-K-23K23S1,1104,experiment,72,→,right,→,0.4677462999825366,True,43,0
MP-K-23K23S1,1105,experiment,54,→,right,→,0.46717260003788397,True,43,0
MP-K-23K23S1,1106,experiment,101,↓,left,←,0.4425500999786891,False,43,0
MP-K-23K23S1,1107,experiment,68,→,left,←,0.4921887000091374,False,43,1
MP-K-23K23S1,1108,experiment,99,→,right,→,0.3921989999944344,True,43,0
MP-K-23K23S1,1109,experiment,51,→,right,→,0.4841121000354178,True,43,0
MP-K-23K23S1,1110,experiment,107,←,right,→,0.4258409999893047,False,43,0
MP-K-23K23S1,1111,experiment,70,→,right,→,0.5922135000000708,True,43,0
MP-K-23K23S1,1112,training,58,↓,down,↓,0.5786064999992959,True,43,0
MP-K-23K23S1,1113,training,105,↓,down,↓,0.5366705000051297,True,43,1
MP-K-23K23S1,1114,experiment,66,↓,down,↓,0.4339367999928072,True,43,1
MP-K-23K23S1,1115,experiment,93,↓,left,←,0.5012779000098817,False,43,0
MP-K-23K23S1,1116,experiment,89,→,down,↓,0.5451212000334635,False,43,1
MP-K-23K23S1,1117,experiment,59,←,left,←,0.575237000011839,True,43,1
MP-K-23K23S1,1118,experiment,54,↓,right,→,0.40880639996612445,False,43,1
MP-K-23K23S1,1119,experiment,52,↑,up,↑,0.5716809000005014,True,43,0
MP-K-23K23S1,1120,experiment,71,↓,down,↓,0.5331861000158824,True,43,1
MP-K-23K23S1,1121,experiment,106,←,no_key,no_letter,-1.0,False,43,1
MP-K-23K23S1,1122,experiment,88,→,left,←,0.4002342000021599,False,43,1
MP-K-23K23S1,1123,experiment,84,↓,down,↓,0.501250000030268,True,43,0
MP-K-23K23S1,1124,experiment,96,↓,down,↓,0.8118798000505194,True,43,0
MP-K-23K23S1,1125,experiment,82,→,down,↓,0.41719429998192936,False,43,1
MP-K-23K23S1,1126,experiment,103,↑,left,←,0.4505362999625504,False,43,0
MP-K-23K23S1,1127,experiment,105,→,no_key,no_letter,-1.0,False,43,0
MP-K-23K23S1,1128,experiment,68,←,right,→,0.4673260999843478,False,43,1
MP-K-23K23S1,1129,experiment,53,↑,up,↑,0.5292369999806397,True,43,0
MP-K-23K23S1,1130,experiment,104,→,right,→,0.7052113999961875,True,43,0
MP-K-23K23S1,1131,experiment,61,←,left,←,0.4090052000246942,True,43,1
MP-K-23K23S1,1132,experiment,57,↑,up,↑,0.6044194999849424,True,43,0
MP-K-23K23S1,1133,experiment,94,→,right,→,0.48470570001518354,True,43,1
MP-K-23K23S1,1134,experiment,55,→,no_key,no_letter,-1.0,False,43,0
MP-K-23K23S1,1135,experiment,67,→,left,←,0.8060364999691956,False,43,1
MP-K-23K23S1,1136,experiment,83,←,left,←,0.4172623999766074,True,43,1
MP-K-23K23S1,1137,experiment,49,→,left,←,0.4585840000072494,False,43,0
MP-K-23K23S1,1138,experiment,60,↑,up,↑,0.5773198999813758,True,43,0
MP-K-23K23S1,1139,experiment,101,↑,left,←,0.6163996999966912,False,43,1
MP-K-23K23S1,1140,experiment,50,↑,up,↑,0.5588430000352673,True,43,1
MP-K-23K23S1,1141,experiment,80,→,right,→,0.5088285999954678,True,43,1
MP-K-23K23S1,1142,experiment,85,↓,down,↓,0.6361913000000641,True,43,0
MP-K-23K23S1,1143,experiment,58,↓,down,↓,0.5910558000323363,True,43,1
MP-K-23K23S1,1144,experiment,90,↓,up,↑,0.5935089999693446,False,43,1
MP-K-23K23S1,1145,experiment,73,←,left,←,0.9606199999689125,True,43,1
MP-K-23K23S1,1146,experiment,108,↓,no_key,no_letter,-1.0,False,43,1
MP-K-23K23S1,1147,experiment,79,←,right,→,0.5095812000217848,False,43,1
MP-K-23K23S1,1148,experiment,70,↑,left,←,0.39205279998714104,False,43,0
MP-K-23K23S1,1149,experiment,81,↓,left,←,0.44436389999464154,False,43,0
MP-K-23K23S1,1150,experiment,72,→,down,↓,0.5088747999980114,False,43,1
MP-K-23K23S1,1151,experiment,102,←,no_key,no_letter,-1.0,False,43,0
MP-K-23K23S1,1152,experiment,86,←,left,←,0.5869970000348985,True,43,1
MP-K-23K23S1,1153,experiment,74,↓,down,↓,0.5391072999918833,True,43,1
MP-K-23K23S1,1154,experiment,56,↑,up,↑,0.6821659000124782,True,43,1
MP-K-23K23S1,1155,experiment,99,↑,up,↑,0.6455829999758862,True,43,1
MP-K-23K23S1,1156,experiment,63,↑,up,↑,0.5345393999596126,True,43,1
MP-K-23K23S1,1157,experiment,76,↑,up,↑,0.5994903999962844,True,43,1
MP-K-23K23S1,1158,experiment,97,←,left,←,0.500602499989327,True,43,1
MP-K-23K23S1,1159,experiment,64,→,right,→,0.6291407999815419,True,43,0
MP-K-23K23S1,1160,experiment,95,↑,left,←,0.4588372999569401,False,43,1
MP-K-23K23S1,1161,experiment,62,↑,up,↑,0.5882681000512093,True,43,0
MP-K-23K23S1,1162,experiment,100,→,no_key,no_letter,-1.0,False,43,1
MP-K-23K23S1,1163,experiment,78,↑,up,↑,0.5280306999920867,True,43,1
MP-K-23K23S1,1164,experiment,51,→,right,→,0.450644199969247,True,43,0
MP-K-23K23S1,1165,experiment,91,↑,up,↑,0.7195863000233658,True,43,0
MP-K-23K23S1,1166,experiment,75,←,left,←,0.4263273000251502,True,43,1
MP-K-23K23S1,1167,experiment,87,←,right,→,0.5390233999933116,False,43,0
MP-K-23K23S1,1168,experiment,98,↓,up,↑,0.6601170999929309,False,43,1
MP-K-23K23S1,1169,experiment,48,←,left,←,0.5378177000093274,True,43,1
MP-K-23K23S1,1170,experiment,69,→,left,←,0.5487470999942161,False,43,1
MP-K-23K23S1,1171,experiment,77,→,left,←,0.47561289998702705,False,43,1
MP-K-23K23S1,1172,experiment,92,←,left,←,0.5545950999949127,True,43,0
MP-K-23K23S1,1173,experiment,65,←,left,←,0.5586174999480136,True,43,1
MP-K-23K23S1,1174,experiment,107,→,right,→,0.7161885999958031,True,43,1
MP-K-23K23S1,1175,training,96,→,right,→,0.5593768999679014,True,44,0
MP-K-23K23S1,1176,training,80,↓,right,→,0.3750945999636315,False,44,1
MP-K-23K23S1,1177,experiment,98,←,left,←,0.4422008999972604,True,44,0
MP-K-23K23S1,1178,experiment,56,←,left,←,0.45877819997258484,True,44,0
MP-K-23K23S1,1179,experiment,55,↓,left,←,0.42545380000956357,False,44,0
MP-K-23K23S1,1180,experiment,70,←,down,↓,0.40066740004112944,False,44,0
MP-K-23K23S1,1181,experiment,83,↑,up,↑,0.5011707000085153,True,44,0
MP-K-23K23S1,1182,experiment,63,↓,down,↓,0.4676723000011407,True,44,1
MP-K-23K23S1,1183,experiment,75,←,no_key,no_letter,-1.0,False,44,0
MP-K-23K23S1,1184,experiment,108,→,left,←,0.5175064000068232,False,44,1
MP-K-23K23S1,1185,experiment,104,↑,up,↑,0.706722799979616,True,44,0
MP-K-23K23S1,1186,experiment,71,←,left,←,0.6541087999939919,True,44,1
MP-K-23K23S1,1187,experiment,65,→,right,→,0.4172215000144206,True,44,1
MP-K-23K23S1,1188,experiment,54,→,left,←,0.4347639000043273,False,44,0
MP-K-23K23S1,1189,experiment,107,←,left,←,0.47775499999988824,True,44,0
MP-K-23K23S1,1190,experiment,84,↑,up,↑,0.47591710003325716,True,44,0
MP-K-23K23S1,1191,experiment,76,←,left,←,0.5089292000047863,True,44,0
MP-K-23K23S1,1192,experiment,50,↓,down,↓,0.546571800019592,True,44,0
MP-K-23K23S1,1193,experiment,59,←,left,←,0.46768190001603216,True,44,1
MP-K-23K23S1,1194,experiment,99,→,left,←,0.46928239997942,False,44,1
MP-K-23K23S1,1195,experiment,95,↑,left,←,0.560964000003878,False,44,0
MP-K-23K23S1,1196,experiment,49,↑,up,↑,0.4933401999878697,True,44,1
MP-K-23K23S1,1197,experiment,74,↓,up,↑,0.41713220003293827,False,44,1
MP-K-23K23S1,1198,experiment,82,↑,down,↓,0.568277099984698,False,44,0
MP-K-23K23S1,1199,experiment,73,↓,up,↑,0.5379933000076562,False,44,1
MP-K-23K23S1,1200,experiment,105,→,right,→,0.7282090000226162,True,44,0
MP-K-23K23S1,1201,experiment,77,↑,no_key,no_letter,-1.0,False,44,1
MP-K-23K23S1,1202,experiment,100,←,no_key,no_letter,-1.0,False,44,1
MP-K-23K23S1,1203,experiment,87,←,left,←,0.4343120999983512,True,44,1
MP-K-23K23S1,1204,experiment,64,↑,up,↑,0.4760598000138998,True,44,0
MP-K-23K23S1,1205,experiment,88,→,left,←,0.4421371999778785,False,44,1
MP-K-23K23S1,1206,experiment,69,↓,left,←,0.40047950000735,False,44,0
MP-K-23K23S1,1207,experiment,85,↓,down,↓,0.3442988999886438,True,44,0
MP-K-23K23S1,1208,experiment,101,→,right,→,0.5764049999997951,True,44,0
MP-K-23K23S1,1209,experiment,72,↓,down,↓,0.6650134999654256,True,44,1
MP-K-23K23S1,1210,experiment,57,↑,up,↑,0.6191805999842472,True,44,1
MP-K-23K23S1,1211,experiment,106,→,right,→,0.6224139999831095,True,44,1
MP-K-23K23S1,1212,experiment,90,→,right,→,0.599278100009542,True,44,1
MP-K-23K23S1,1213,experiment,53,→,right,→,0.4091607999871485,True,44,1
MP-K-23K23S1,1214,experiment,89,↑,up,↑,0.48381100001279265,True,44,0
MP-K-23K23S1,1215,experiment,93,→,right,→,0.46926410001469776,True,44,0
MP-K-23K23S1,1216,experiment,51,←,right,→,0.509743399976287,False,44,0
MP-K-23K23S1,1217,experiment,60,↓,up,↑,0.7182662999839522,False,44,1
MP-K-23K23S1,1218,experiment,78,←,left,←,0.66317459999118,True,44,1
MP-K-23K23S1,1219,experiment,58,↑,down,↓,0.6011301999678835,False,44,1
MP-K-23K23S1,1220,experiment,81,↓,down,↓,0.5816256999969482,True,44,1
MP-K-23K23S1,1221,experiment,103,↓,down,↓,0.4921727000037208,True,44,1
MP-K-23K23S1,1222,experiment,79,↑,up,↑,0.7011687000049278,True,44,0
MP-K-23K23S1,1223,experiment,94,→,right,→,0.5694787999964319,True,44,1
MP-K-23K23S1,1224,experiment,48,←,left,←,0.5706690999795683,True,44,1
MP-K-23K23S1,1225,experiment,62,←,left,←,0.5434188000508584,True,44,1
MP-K-23K23S1,1226,experiment,92,←,left,←,0.4443031999981031,True,44,1
MP-K-23K23S1,1227,experiment,102,↑,up,↑,0.6299137999885716,True,44,0
MP-K-23K23S1,1228,experiment,91,↓,down,↓,0.6778343999758363,True,44,1
MP-K-23K23S1,1229,experiment,67,↑,up,↑,0.6122474999865517,True,44,1
MP-K-23K23S1,1230,experiment,68,←,left,←,0.5646130999666639,True,44,1
MP-K-23K23S1,1231,experiment,97,↑,up,↑,0.5730641999980435,True,44,1
MP-K-23K23S1,1232,experiment,96,↑,up,↑,0.5898769000195898,True,44,1
MP-K-23K23S1,1233,experiment,66,←,left,←,0.509453599981498,True,44,1
MP-K-23K23S1,1234,experiment,52,↑,up,↑,0.561579899978824,True,44,1
MP-K-23K23S1,1235,experiment,61,↓,down,↓,0.662242199992761,True,44,1
MP-K-23K23S1,1236,experiment,86,↑,up,↑,0.49219299998367205,True,44,1
MP-K-23K23S1,1237,experiment,80,←,left,←,0.4253296999959275,True,44,0
MP-K-23K23S1,1238,training,90,→,left,←,0.5090654999949038,False,44,0
MP-K-23K23S1,1239,training,83,←,left,←,0.32688309997320175,True,44,1
MP-K-23K23S1,1240,experiment,59,↓,down,↓,0.508776200003922,True,44,0
MP-K-23K23S1,1241,experiment,100,←,left,←,0.48454670002683997,True,44,0
MP-K-23K23S1,1242,experiment,71,→,right,→,0.5540055999881588,True,44,1
MP-K-23K23S1,1243,experiment,99,←,left,←,0.3754328000359237,True,44,1
MP-K-23K23S1,1244,experiment,53,→,right,→,0.47531820001313463,True,44,0
MP-K-23K23S1,1245,experiment,73,←,left,←,0.45918010000605136,True,44,0
MP-K-23K23S1,1246,experiment,60,←,left,←,0.40879910002695397,True,44,0
MP-K-23K23S1,1247,experiment,76,←,left,←,0.35823299997719005,True,44,0
MP-K-23K23S1,1248,experiment,98,←,left,←,0.42624320002505556,True,44,0
MP-K-23K23S1,1249,experiment,72,↓,no_key,no_letter,-1.0,False,44,0
MP-K-23K23S1,1250,experiment,51,←,left,←,0.5995103999739513,True,44,1
MP-K-23K23S1,1251,experiment,88,←,down,↓,0.35873589996481314,False,44,1
MP-K-23K23S1,1252,experiment,90,↑,down,↓,0.4777388999937102,False,44,0
MP-K-23K23S1,1253,experiment,70,←,left,←,0.45944569999119267,True,44,0
MP-K-23K23S1,1254,experiment,52,←,left,←,0.33597449999069795,True,44,0
MP-K-23K23S1,1255,experiment,96,↓,down,↓,0.5354583999724127,True,44,0
MP-K-23K23S1,1256,experiment,106,↓,down,↓,0.4005522999796085,True,44,0
MP-K-23K23S1,1257,experiment,93,→,left,←,0.4594751999829896,False,44,0
MP-K-23K23S1,1258,experiment,58,→,left,←,0.45948580000549555,False,44,0
MP-K-23K23S1,1259,experiment,102,↓,down,↓,0.6025630999938585,True,44,1
MP-K-23K23S1,1260,experiment,74,↓,down,↓,0.517315500008408,True,44,1
MP-K-23K23S1,1261,experiment,108,←,no_key,no_letter,-1.0,False,44,0
MP-K-23K23S1,1262,experiment,65,←,left,←,0.6248676999821328,True,44,1
MP-K-23K23S1,1263,experiment,94,↓,left,←,0.4761800999986008,False,44,1
MP-K-23K23S1,1264,experiment,75,←,left,←,0.6197872000047937,True,44,1
MP-K-23K23S1,1265,experiment,95,←,left,←,0.49215150001691654,True,44,1
MP-K-23K23S1,1266,experiment,83,←,left,←,0.5094180000014603,True,44,0
MP-K-23K23S1,1267,experiment,56,↑,up,↑,0.6594652999774553,True,44,0
MP-K-23K23S1,1268,experiment,107,←,left,←,0.5495147000183351,True,44,1
MP-K-23K23S1,1269,experiment,89,→,right,→,0.43442289996892214,True,44,1
MP-K-23K23S1,1270,experiment,50,↑,up,↑,0.5828647000016645,True,44,1
MP-K-23K23S1,1271,experiment,64,↑,up,↑,0.5775132999988273,True,44,1
MP-K-23K23S1,1272,experiment,79,↑,up,↑,0.5681293000234291,True,44,1
MP-K-23K23S1,1273,experiment,78,→,right,→,0.5752712999819778,True,44,1
MP-K-23K23S1,1274,experiment,101,←,left,←,0.5172079000039957,True,44,1
MP-K-23K23S1,1275,experiment,61,↑,up,↑,0.5567250000312924,True,44,0
MP-K-23K23S1,1276,experiment,69,→,right,→,0.49267230002442375,True,44,1
MP-K-23K23S1,1277,experiment,63,←,right,→,0.35171099996659905,False,44,0
MP-K-23K23S1,1278,experiment,49,←,left,←,0.5986619999748655,True,44,0
MP-K-23K23S1,1279,experiment,77,←,left,←,0.5489885000279173,True,44,1
MP-K-23K23S1,1280,experiment,54,←,left,←,0.47773500002222136,True,44,1
MP-K-23K23S1,1281,experiment,84,↑,up,↑,0.6365371000138111,True,44,1
MP-K-23K23S1,1282,experiment,57,↓,left,←,0.5011113999644294,False,44,1
MP-K-23K23S1,1283,experiment,81,↓,down,↓,0.5682015999918804,True,44,0
MP-K-23K23S1,1284,experiment,62,↑,up,↑,0.6446860999567434,True,44,1
MP-K-23K23S1,1285,experiment,86,→,right,→,0.6464450000203215,True,44,1
MP-K-23K23S1,1286,experiment,55,→,left,←,0.48478480003541335,False,44,1
MP-K-23K23S1,1287,experiment,85,↓,down,↓,0.6733567999908701,True,44,0
MP-K-23K23S1,1288,experiment,48,↓,no_key,no_letter,-1.0,False,44,1
MP-K-23K23S1,1289,experiment,91,←,left,←,0.5418132999911904,True,44,1
MP-K-23K23S1,1290,experiment,105,→,right,→,0.6690156999975443,True,44,1
MP-K-23K23S1,1291,experiment,103,↑,up,↑,0.6795424000010826,True,44,1
MP-K-23K23S1,1292,experiment,97,←,left,←,0.5010870999540202,True,44,1
MP-K-23K23S1,1293,experiment,80,↑,up,↑,0.6444339999579825,True,44,0
MP-K-23K23S1,1294,experiment,104,↑,up,↑,0.5006993999704719,True,44,1
MP-K-23K23S1,1295,experiment,92,←,left,←,0.48490530002163723,True,44,0
MP-K-23K23S1,1296,experiment,68,↓,down,↓,0.5614452000008896,True,44,0
MP-K-23K23S1,1297,experiment,67,→,up,↑,0.4587380000157282,False,44,1
MP-K-23K23S1,1298,experiment,82,↑,up,↑,0.5660218999837525,True,44,0
MP-K-23K23S1,1299,experiment,87,→,left,←,0.5699282999848947,False,44,1
MP-K-23K23S1,1300,experiment,66,→,right,→,0.5571036999463104,True,44,1
MP-K-23K23S1,1301,training,56,↑,up,↑,0.6187125000287779,True,44,0
MP-K-23K23S1,1302,training,76,↓,down,↓,0.6641427000286058,True,44,1
MP-K-23K23S1,1303,experiment,52,↑,down,↓,0.4846858999808319,False,44,1
MP-K-23K23S1,1304,experiment,71,↑,no_key,no_letter,-1.0,False,44,0
MP-K-23K23S1,1305,experiment,64,←,left,←,0.560874100017827,True,44,1
MP-K-23K23S1,1306,experiment,84,↓,down,↓,0.5012024999596179,True,44,1
MP-K-23K23S1,1307,experiment,100,↑,up,↑,0.5527750999899581,True,44,1
MP-K-23K23S1,1308,experiment,88,↓,no_key,no_letter,-1.0,False,44,1
MP-K-23K23S1,1309,experiment,106,→,right,→,0.6313887999858707,True,44,1
MP-K-23K23S1,1310,experiment,93,↑,right,→,0.44286249997094274,False,44,1
MP-K-23K23S1,1311,experiment,101,↑,up,↑,0.6989611000171863,True,44,0
MP-K-23K23S1,1312,experiment,66,↓,down,↓,0.6404372999677435,True,44,1
MP-K-23K23S1,1313,experiment,85,→,left,←,0.5544754000147805,False,44,1
MP-K-23K23S1,1314,experiment,60,↑,up,↑,0.7358380000223406,True,44,1
MP-K-23K23S1,1315,experiment,68,↓,no_key,no_letter,-1.0,False,44,1
MP-K-23K23S1,1316,experiment,62,→,no_key,no_letter,-1.0,False,44,1
MP-K-23K23S1,1317,experiment,67,↓,down,↓,0.6287350000347942,True,44,1
MP-K-23K23S1,1318,experiment,96,↑,up,↑,0.4172237999737263,True,44,1
MP-K-23K23S1,1319,experiment,55,→,right,→,0.6157695999718271,True,44,0
MP-K-23K23S1,1320,experiment,54,↓,down,↓,0.5091166999773122,True,44,1
MP-K-23K23S1,1321,experiment,81,←,left,←,0.4337027000146918,True,44,0
MP-K-23K23S1,1322,experiment,99,↑,up,↑,0.7378660999820568,True,44,0
MP-K-23K23S1,1323,experiment,56,↑,down,↓,0.7297874999931082,False,44,1
MP-K-23K23S1,1324,experiment,53,↓,down,↓,0.666503400017973,True,44,1
MP-K-23K23S1,1325,experiment,80,↑,down,↓,0.572597999998834,False,44,1
MP-K-23K23S1,1326,experiment,50,←,up,↑,0.3921874999650754,False,44,1
MP-K-23K23S1,1327,experiment,72,←,left,←,0.35190699994564056,True,44,0
MP-K-23K23S1,1328,experiment,70,↓,left,←,0.3751102000242099,False,44,0
MP-K-23K23S1,1329,experiment,95,↓,down,↓,0.5511369000305422,True,44,0
MP-K-23K23S1,1330,experiment,73,↑,up,↑,0.6325770000112243,True,44,1
MP-K-23K23S1,1331,experiment,65,↑,up,↑,0.5178477999870665,True,44,1
MP-K-23K23S1,1332,experiment,104,↓,down,↓,0.6412551999674179,True,44,0
MP-K-23K23S1,1333,experiment,58,↓,no_key,no_letter,-1.0,False,44,1
MP-K-23K23S1,1334,experiment,51,↑,down,↓,0.4677470000460744,False,44,1
MP-K-23K23S1,1335,experiment,108,↑,right,→,0.44213939999463037,False,44,0
MP-K-23K23S1,1336,experiment,57,↑,up,↑,0.5021964999614283,True,44,0
MP-K-23K23S1,1337,experiment,76,↑,up,↑,0.4922592000220902,True,44,0
MP-K-23K23S1,1338,experiment,87,↓,down,↓,0.5109528999892063,True,44,0
MP-K-23K23S1,1339,experiment,63,←,left,←,0.47629800002323464,True,44,0
MP-K-23K23S1,1340,experiment,74,↓,down,↓,0.5000631000148132,True,44,0
MP-K-23K23S1,1341,experiment,105,↓,down,↓,0.5009093999979086,True,44,0
MP-K-23K23S1,1342,experiment,90,→,right,→,0.48475399997550994,True,44,0
MP-K-23K23S1,1343,experiment,82,←,left,←,0.4588895000051707,True,44,0
MP-K-23K23S1,1344,experiment,49,↑,up,↑,0.577530000009574,True,44,0
MP-K-23K23S1,1345,experiment,61,→,left,←,0.5739925999660045,False,44,1
MP-K-23K23S1,1346,experiment,86,↓,down,↓,0.6420098000089638,True,44,1
MP-K-23K23S1,1347,experiment,48,←,left,←,0.45117229997413233,True,44,1
MP-K-23K23S1,1348,experiment,107,←,left,←,0.43472449999535456,True,44,0
MP-K-23K23S1,1349,experiment,91,→,left,←,0.4756059999926947,False,44,0
MP-K-23K23S1,1350,experiment,77,←,left,←,0.49421860004076734,True,44,0
MP-K-23K23S1,1351,experiment,94,→,right,→,0.35249979997752234,True,44,0
MP-K-23K23S1,1352,experiment,75,↓,down,↓,0.6161362000275403,True,44,0
MP-K-23K23S1,1353,experiment,103,↓,down,↓,0.5004489999846555,True,44,1
MP-K-23K23S1,1354,experiment,83,←,down,↓,0.42547370004467666,False,44,0
MP-K-23K23S1,1355,experiment,69,↓,left,←,0.3838988000061363,False,44,0
MP-K-23K23S1,1356,experiment,98,↓,down,↓,0.45883870002580807,True,44,0
MP-K-23K23S1,1357,experiment,79,→,right,→,0.5744201000197791,True,44,0
MP-K-23K23S1,1358,experiment,78,↑,up,↑,0.669292000005953,True,44,1
MP-K-23K23S1,1359,experiment,59,↑,up,↑,0.6224976000376046,True,44,1
MP-K-23K23S1,1360,experiment,97,↓,down,↓,0.517756899993401,True,44,1
MP-K-23K23S1,1361,experiment,89,→,right,→,0.4349738000310026,True,44,0
MP-K-23K23S1,1362,experiment,102,↑,up,↑,0.5501335000153631,True,44,0
MP-K-23K23S1,1363,experiment,92,←,left,←,0.4587108999839984,True,44,1
MP-K-23K23S1,1364,training,52,→,right,→,0.6352847999660298,True,44,0
MP-K-23K23S1,1365,training,76,←,right,→,0.40941090002888814,False,44,1
MP-K-23K23S1,1366,experiment,76,↑,up,↑,0.5660773000563495,True,44,0
MP-K-23K23S1,1367,experiment,82,→,right,→,0.5960414999863133,True,44,1
MP-K-23K23S1,1368,experiment,94,↑,left,←,0.45130860002245754,False,44,1
MP-K-23K23S1,1369,experiment,89,↑,up,↑,0.5096145999850705,True,44,0
MP-K-23K23S1,1370,experiment,72,↑,up,↑,0.4343926000292413,True,44,0
MP-K-23K23S1,1371,experiment,105,→,right,→,0.5944054999854416,True,44,1
MP-K-23K23S1,1372,experiment,100,→,right,→,0.3922586999833584,True,44,1
MP-K-23K23S1,1373,experiment,53,↓,up,↑,0.4679992999881506,False,44,0
MP-K-23K23S1,1374,experiment,54,↑,down,↓,0.46758739999495447,False,44,1
MP-K-23K23S1,1375,experiment,70,↓,down,↓,0.4506646000081673,True,44,1
MP-K-23K23S1,1376,experiment,63,→,right,→,0.46797960001276806,True,44,0
MP-K-23K23S1,1377,experiment,55,←,left,←,0.43497020000359043,True,44,1
MP-K-23K23S1,1378,experiment,80,↑,up,↑,0.4088245999882929,True,44,0
MP-K-23K23S1,1379,experiment,90,↑,no_key,no_letter,-1.0,False,44,0
MP-K-23K23S1,1380,experiment,73,↑,right,→,0.6921622999943793,False,44,1
MP-K-23K23S1,1381,experiment,96,↓,down,↓,0.4589064000174403,True,44,1
MP-K-23K23S1,1382,experiment,98,↑,up,↑,0.6045395999681205,True,44,0
MP-K-23K23S1,1383,experiment,58,→,right,→,0.5090310999657959,True,44,1
MP-K-23K23S1,1384,experiment,95,←,left,←,0.5721906999824569,True,44,0
MP-K-23K23S1,1385,experiment,75,←,left,←,0.4610878999810666,True,44,1
MP-K-23K23S1,1386,experiment,79,→,no_key,no_letter,-1.0,False,44,1
MP-K-23K23S1,1387,experiment,68,↑,up,↑,0.7097652000375092,True,44,1
MP-K-23K23S1,1388,experiment,101,→,right,→,0.417075399949681,True,44,1
MP-K-23K23S1,1389,experiment,51,←,left,←,0.4678483000025153,True,44,0
MP-K-23K23S1,1390,experiment,57,←,left,←,0.46809969999594614,True,44,0
MP-K-23K23S1,1391,experiment,74,→,right,→,0.5549980999785475,True,44,0
MP-K-23K23S1,1392,experiment,83,↑,no_key,no_letter,-1.0,False,44,1
MP-K-23K23S1,1393,experiment,59,→,right,→,0.8113243999541737,True,44,1
MP-K-23K23S1,1394,experiment,62,→,left,←,0.38414650002960116,False,44,1
MP-K-23K23S1,1395,experiment,86,↑,up,↑,0.5936654999968596,True,44,0
MP-K-23K23S1,1396,experiment,69,→,right,→,0.4764042000169866,True,44,1
MP-K-23K23S1,1397,experiment,88,→,left,←,0.43448260001605377,False,44,0
MP-K-23K23S1,1398,experiment,99,↓,down,↓,0.6385792999644764,True,44,0
MP-K-23K23S1,1399,experiment,91,↓,up,↑,0.40908109996235,False,44,1
MP-K-23K23S1,1400,experiment,85,↓,down,↓,0.37548980000428855,True,44,0
MP-K-23K23S1,1401,experiment,97,←,down,↓,0.5005081000272185,False,44,0
MP-K-23K23S1,1402,experiment,106,↓,left,←,0.41762660001404583,False,44,0
MP-K-23K23S1,1403,experiment,102,↓,right,→,0.60587020003004,False,44,0
MP-K-23K23S1,1404,experiment,52,↓,down,↓,0.4692518999800086,True,44,1
MP-K-23K23S1,1405,experiment,56,→,no_key,no_letter,-1.0,False,44,0
MP-K-23K23S1,1406,experiment,104,↓,down,↓,0.8568836000049487,True,44,1
MP-K-23K23S1,1407,experiment,92,→,right,→,0.3520250999717973,True,44,1
MP-K-23K23S1,1408,experiment,107,←,left,←,0.3839215000043623,True,44,0
MP-K-23K23S1,1409,experiment,64,←,left,←,0.4089938999968581,True,44,0
MP-K-23K23S1,1410,experiment,66,←,right,→,0.4509859999525361,False,44,0
MP-K-23K23S1,1411,experiment,65,↑,down,↓,0.5172464999486692,False,44,0
MP-K-23K23S1,1412,experiment,60,↓,down,↓,0.6074846999836154,True,44,0
MP-K-23K23S1,1413,experiment,49,→,right,→,0.5505028000334278,True,44,1
MP-K-23K23S1,1414,experiment,108,←,left,←,1.0439320000004955,True,44,1
MP-K-23K23S1,1415,experiment,48,←,left,←,0.5860940999700688,True,44,1
MP-K-23K23S1,1416,experiment,50,→,left,←,0.43488539999816567,False,44,1
MP-K-23K23S1,1417,experiment,71,→,right,→,0.5921701000188477,True,44,0
MP-K-23K23S1,1418,experiment,93,↓,up,↑,0.45081680000294,False,44,1
MP-K-23K23S1,1419,experiment,81,↓,down,↓,0.38388550002127886,True,44,0
MP-K-23K23S1,1420,experiment,61,↑,up,↑,0.6793770000222139,True,44,0
MP-K-23K23S1,1421,experiment,67,↑,up,↑,0.5653518000035547,True,44,1
