PART_ID,Trial_no,Trial_type,CSI,Stim_letter,Key_pressed,letter_choose,Rt,Corr,Stimulus Time,nDropped
MW-K-33K33S1,1,training,120,←,no_key,no_letter,-1.0,False,60,0
MW-K-33K33S1,2,training,120,↓,right,→,1.9891871999716386,False,60,0
MW-K-33K33S1,3,training,120,↓,down,↓,1.9825498999562114,True,60,0
MW-K-33K33S1,4,training,120,→,down,↓,1.8245889000827447,False,60,0
MW-K-33K33S1,5,training,120,←,left,←,1.4406542999204248,True,60,0
MW-K-33K33S1,6,training,120,←,left,←,1.7998703999910504,True,60,0
MW-K-33K33S1,7,training,120,→,right,→,1.7213549999287352,True,60,0
MW-K-33K33S1,8,training,120,→,right,→,1.2295200999360532,True,60,0
MW-K-33K33S1,9,training,120,↓,down,↓,1.6215682999463752,True,60,0
MW-K-33K33S1,10,training,120,→,left,←,1.0215297000249848,False,60,0
MW-K-33K33S1,11,training,120,↑,up,↑,1.2535978000378236,True,60,0
MW-K-33K33S1,12,training,120,→,right,→,1.1159725999459624,True,60,0
MW-K-33K33S1,13,training,120,→,right,→,0.9760069999611005,True,60,0
MW-K-33K33S1,14,training,120,↓,down,↓,1.1053460999391973,True,60,0
MW-K-33K33S1,15,training,120,↑,up,↑,1.1100201000226662,True,60,0
MW-K-33K33S1,16,training,120,↓,down,↓,1.1628565000137314,True,60,0
MW-K-33K33S1,17,training,120,↓,down,↓,0.8611369000282139,True,60,0
MW-K-33K33S1,18,training,120,←,left,←,0.8505455999402329,True,60,0
MW-K-33K33S1,19,training,120,←,left,←,0.8261297000572085,True,60,0
MW-K-33K33S1,20,training,120,←,left,←,0.9380000999663025,True,60,0
MW-K-33K33S1,21,no_adaptation,120,→,left,←,1.0313491000561044,False,36,0
MW-K-33K33S1,22,no_adaptation,120,←,left,←,0.7507285999599844,True,36,0
MW-K-33K33S1,23,no_adaptation,120,↓,down,↓,1.008984599960968,True,36,0
MW-K-33K33S1,24,no_adaptation,120,↓,down,↓,0.8818052000133321,True,36,0
MW-K-33K33S1,25,no_adaptation,120,↓,down,↓,0.7996251999866217,True,36,0
MW-K-33K33S1,26,no_adaptation,120,↓,down,↓,0.7525582000380382,True,36,0
MW-K-33K33S1,27,no_adaptation,120,↑,up,↑,0.8663683000486344,True,36,0
MW-K-33K33S1,28,no_adaptation,120,→,right,→,0.8651333000743762,True,36,0
MW-K-33K33S1,29,no_adaptation,120,↓,down,↓,0.6873416000744328,True,36,0
MW-K-33K33S1,30,no_adaptation,120,→,right,→,0.8202693000202999,True,36,0
MW-K-33K33S1,31,no_adaptation,120,↓,down,↓,0.7958367000101134,True,36,0
MW-K-33K33S1,32,no_adaptation,120,↑,down,↓,0.8604434999870136,False,36,0
MW-K-33K33S1,33,no_adaptation,120,↑,down,↓,0.8432193000335246,False,36,0
MW-K-33K33S1,34,no_adaptation,120,↓,down,↓,0.7943238000152633,True,36,0
MW-K-33K33S1,35,no_adaptation,120,←,left,←,0.7625210999976844,True,36,0
MW-K-33K33S1,36,no_adaptation,120,→,right,→,0.8533772999653593,True,36,0
MW-K-33K33S1,37,no_adaptation,120,↑,down,↓,0.7472176000010222,False,36,0
MW-K-33K33S1,38,no_adaptation,120,↑,up,↑,0.862200399977155,True,36,0
MW-K-33K33S1,39,no_adaptation,120,↓,down,↓,0.7645359999733046,True,36,0
MW-K-33K33S1,40,no_adaptation,120,↓,down,↓,0.6629953000228852,True,36,0
MW-K-33K33S1,41,training,98,↑,up,↑,0.8051768000004813,True,36,0
MW-K-33K33S1,42,training,58,→,right,→,0.842399499961175,True,36,1
MW-K-33K33S1,43,experiment,100,→,right,→,0.7518013999797404,True,36,1
MW-K-33K33S1,44,experiment,107,↓,down,↓,1.3509674000088125,True,36,1
MW-K-33K33S1,45,experiment,98,→,right,→,0.8253635000437498,True,36,1
MW-K-33K33S1,46,experiment,79,↑,up,↑,0.8070584000088274,True,36,1
MW-K-33K33S1,47,experiment,76,→,right,→,0.8539537999313325,True,36,1
MW-K-33K33S1,48,experiment,101,→,right,→,0.9472326999530196,True,36,1
MW-K-33K33S1,49,experiment,86,→,right,→,0.8009430998936296,True,36,1
MW-K-33K33S1,50,experiment,78,↓,down,↓,1.2479727000463754,True,36,1
MW-K-33K33S1,51,experiment,64,→,right,→,1.105607100063935,True,36,1
MW-K-33K33S1,52,experiment,94,→,right,→,0.7980564000317827,True,36,1
MW-K-33K33S1,53,experiment,73,←,left,←,1.0230780000565574,True,36,1
MW-K-33K33S1,54,experiment,49,↑,up,↑,0.886097100097686,True,36,1
MW-K-33K33S1,55,experiment,83,↓,down,↓,0.9357209000736475,True,36,1
MW-K-33K33S1,56,experiment,48,←,left,←,0.8429140000371262,True,36,1
MW-K-33K33S1,57,experiment,91,→,right,→,0.9554178999969736,True,36,1
MW-K-33K33S1,58,experiment,103,↑,up,↑,0.9957412999356166,True,36,1
MW-K-33K33S1,59,experiment,108,↑,up,↑,0.8093442000681534,True,36,1
MW-K-33K33S1,60,experiment,95,↓,down,↓,0.9296787999337539,True,36,1
MW-K-33K33S1,61,experiment,82,→,right,→,0.857574199908413,True,36,1
MW-K-33K33S1,62,experiment,81,↑,up,↑,0.8376416999381036,True,36,1
MW-K-33K33S1,63,experiment,104,↑,up,↑,0.9785573000553995,True,36,1
MW-K-33K33S1,64,experiment,77,↓,down,↓,0.8183711000019684,True,36,1
MW-K-33K33S1,65,experiment,59,→,right,→,1.022654400090687,True,36,1
MW-K-33K33S1,66,experiment,106,→,left,←,0.8508995000738651,False,36,1
MW-K-33K33S1,67,experiment,92,←,left,←,1.1630953999701887,True,36,1
MW-K-33K33S1,68,experiment,99,→,right,→,0.8203664000611752,True,36,1
MW-K-33K33S1,69,experiment,63,↑,down,↓,1.367335099959746,False,36,1
MW-K-33K33S1,70,experiment,60,←,left,←,0.828902899986133,True,36,1
MW-K-33K33S1,71,experiment,97,→,right,→,0.8999462999636307,True,36,1
MW-K-33K33S1,72,experiment,93,←,left,←,0.9379709999775514,True,36,1
MW-K-33K33S1,73,experiment,68,↓,down,↓,1.0065651000477374,True,36,1
MW-K-33K33S1,74,experiment,89,↑,up,↑,0.8010156999807805,True,36,1
MW-K-33K33S1,75,experiment,67,↑,up,↑,0.939652599976398,True,36,1
MW-K-33K33S1,76,experiment,61,→,left,←,0.9382887999527156,False,36,1
MW-K-33K33S1,77,experiment,57,↑,up,↑,1.1220233000349253,True,36,1
MW-K-33K33S1,78,experiment,90,↓,down,↓,0.8241240999195725,True,36,1
MW-K-33K33S1,79,experiment,80,↑,up,↑,0.8290337999351323,True,36,1
MW-K-33K33S1,80,experiment,102,←,left,←,0.8112490999046713,True,36,1
MW-K-33K33S1,81,experiment,72,↓,down,↓,0.8755950999911875,True,36,1
MW-K-33K33S1,82,experiment,53,←,left,←,1.7755715000675991,True,36,1
MW-K-33K33S1,83,experiment,70,↑,up,↑,0.8339741999516264,True,36,1
MW-K-33K33S1,84,experiment,88,→,right,→,1.1722090999828652,True,36,1
MW-K-33K33S1,85,experiment,56,→,right,→,1.0912734000012279,True,36,1
MW-K-33K33S1,86,experiment,75,↓,down,↓,1.0710212000412866,True,36,1
MW-K-33K33S1,87,experiment,84,↑,up,↑,0.8726730999769643,True,36,1
MW-K-33K33S1,88,experiment,54,→,right,→,0.8285439999308437,True,36,1
MW-K-33K33S1,89,experiment,69,←,left,←,0.8533772999653593,True,36,1
MW-K-33K33S1,90,experiment,55,←,left,←,1.273992000031285,True,36,1
MW-K-33K33S1,91,experiment,52,←,left,←,0.9823819000739604,True,36,1
MW-K-33K33S1,92,experiment,62,↑,up,↑,1.3391763999825343,True,36,1
MW-K-33K33S1,93,experiment,71,↓,down,↓,0.9026394999818876,True,36,1
MW-K-33K33S1,94,experiment,105,↓,down,↓,0.8803971000015736,True,36,1
MW-K-33K33S1,95,experiment,65,→,right,→,0.888079300057143,True,36,1
MW-K-33K33S1,96,experiment,51,↓,down,↓,0.8600591999711469,True,36,1
MW-K-33K33S1,97,experiment,85,←,left,←,0.8140867999754846,True,36,1
MW-K-33K33S1,98,experiment,58,↓,down,↓,1.0905206000898033,True,36,1
MW-K-33K33S1,99,experiment,74,↑,up,↑,0.8868706999346614,True,36,1
MW-K-33K33S1,100,experiment,66,↓,down,↓,0.7664799999911338,True,36,1
MW-K-33K33S1,101,experiment,96,↓,down,↓,0.824642299907282,True,36,1
MW-K-33K33S1,102,experiment,87,↓,down,↓,0.8993611999321729,True,36,1
MW-K-33K33S1,103,experiment,50,→,right,→,1.2152747999643907,True,36,1
MW-K-33K33S1,104,training,53,↓,down,↓,1.1858197000110522,True,35,0
MW-K-33K33S1,105,training,83,←,left,←,0.7757814000360668,True,35,1
MW-K-33K33S1,106,experiment,108,↓,down,↓,0.7573809999739751,True,35,1
MW-K-33K33S1,107,experiment,49,→,right,→,0.8631769999628887,True,35,1
MW-K-33K33S1,108,experiment,107,↑,up,↑,1.1052735999692231,True,35,1
MW-K-33K33S1,109,experiment,52,↓,down,↓,0.8204136999556795,True,35,1
MW-K-33K33S1,110,experiment,97,↓,down,↓,0.9485297999344766,True,35,1
MW-K-33K33S1,111,experiment,56,←,left,←,0.8047977000242099,True,35,1
MW-K-33K33S1,112,experiment,60,↑,up,↑,1.0165446000173688,True,35,1
MW-K-33K33S1,113,experiment,91,↑,up,↑,0.7944660999346524,True,35,1
MW-K-33K33S1,114,experiment,83,↑,up,↑,0.8317118000704795,True,35,1
MW-K-33K33S1,115,experiment,64,↓,down,↓,0.8578420999692753,True,35,1
MW-K-33K33S1,116,experiment,104,↓,down,↓,0.9092568999622017,True,35,1
MW-K-33K33S1,117,experiment,98,←,left,←,0.8412883999990299,True,35,1
MW-K-33K33S1,118,experiment,84,←,left,←,0.8608140000142157,True,35,1
MW-K-33K33S1,119,experiment,81,→,right,→,0.9119538000086322,True,35,1
MW-K-33K33S1,120,experiment,96,→,right,→,0.7725389000261202,True,35,1
MW-K-33K33S1,121,experiment,89,←,left,←,0.800622700015083,True,35,1
MW-K-33K33S1,122,experiment,71,↑,up,↑,0.7932007000781596,True,35,1
MW-K-33K33S1,123,experiment,87,↑,up,↑,0.8372825999977067,True,35,1
MW-K-33K33S1,124,experiment,101,↑,up,↑,1.043063500081189,True,35,1
MW-K-33K33S1,125,experiment,50,↑,up,↑,0.7931850999593735,True,35,1
MW-K-33K33S1,126,experiment,68,↑,up,↑,0.747707000002265,True,35,1
MW-K-33K33S1,127,experiment,99,→,left,←,0.9419858999317512,False,35,1
MW-K-33K33S1,128,experiment,72,↓,down,↓,0.8646192000014707,True,35,1
MW-K-33K33S1,129,experiment,88,↓,down,↓,0.9694521999917924,True,35,1
MW-K-33K33S1,130,experiment,70,←,left,←,0.9319673998979852,True,35,1
MW-K-33K33S1,131,experiment,58,↑,down,↓,1.1243216000730172,False,35,1
MW-K-33K33S1,132,experiment,90,←,left,←,0.7863990000914782,True,35,1
MW-K-33K33S1,133,experiment,103,↓,down,↓,0.9611442999448627,True,35,1
MW-K-33K33S1,134,experiment,59,↓,down,↓,0.9119042000966147,True,35,1
MW-K-33K33S1,135,experiment,48,→,right,→,0.9477590000024065,True,35,1
MW-K-33K33S1,136,experiment,75,→,right,→,0.9738184999441728,True,35,1
MW-K-33K33S1,137,experiment,67,←,left,←,0.8249846000690013,True,35,1
MW-K-33K33S1,138,experiment,80,→,right,→,0.8707586999516934,True,35,1
MW-K-33K33S1,139,experiment,102,↑,down,↓,0.7703334999969229,False,35,1
MW-K-33K33S1,140,experiment,73,↑,down,↓,0.891811600071378,False,35,1
MW-K-33K33S1,141,experiment,74,←,left,←,0.8159072999842465,True,35,1
MW-K-33K33S1,142,experiment,82,→,right,→,0.9971086999867111,True,35,1
MW-K-33K33S1,143,experiment,57,→,right,→,0.8902930999174714,True,35,1
MW-K-33K33S1,144,experiment,51,←,left,←,0.8064022000180557,True,35,1
MW-K-33K33S1,145,experiment,69,→,right,→,0.8234121000859886,True,35,1
MW-K-33K33S1,146,experiment,66,↓,down,↓,0.7771821999922395,True,35,1
MW-K-33K33S1,147,experiment,95,↓,down,↓,0.9552165999775752,True,35,1
MW-K-33K33S1,148,experiment,93,←,left,←,0.7985676999669522,True,35,1
MW-K-33K33S1,149,experiment,77,↑,up,↑,0.9418227999703959,True,35,1
MW-K-33K33S1,150,experiment,62,↑,up,↑,0.8598219000268728,True,35,1
MW-K-33K33S1,151,experiment,55,↑,up,↑,0.8480140001047403,True,35,1
MW-K-33K33S1,152,experiment,92,↑,up,↑,0.8801524000009522,True,35,1
MW-K-33K33S1,153,experiment,79,↓,down,↓,0.8675661000888795,True,35,1
MW-K-33K33S1,154,experiment,65,→,right,→,0.8117099000373855,True,35,1
MW-K-33K33S1,155,experiment,100,←,left,←,0.8266961000626907,True,35,1
MW-K-33K33S1,156,experiment,86,→,right,→,1.1096637999871746,True,35,1
MW-K-33K33S1,157,experiment,85,↑,up,↑,0.7817967999726534,True,35,1
MW-K-33K33S1,158,experiment,105,←,left,←,0.7564624999649823,True,35,1
MW-K-33K33S1,159,experiment,54,↓,down,↓,0.9406461999751627,True,35,1
MW-K-33K33S1,160,experiment,78,↓,down,↓,0.9176794000668451,True,35,1
MW-K-33K33S1,161,experiment,76,↓,down,↓,0.848122900002636,True,35,1
MW-K-33K33S1,162,experiment,94,←,left,←,0.7678599000209942,True,35,1
MW-K-33K33S1,163,experiment,53,←,left,←,0.8319540000520647,True,35,1
MW-K-33K33S1,164,experiment,63,↓,up,↑,0.9623424999881536,False,35,1
MW-K-33K33S1,165,experiment,61,→,right,→,0.9359896000241861,True,35,1
MW-K-33K33S1,166,experiment,106,↑,up,↑,0.8081194999394938,True,35,1
MW-K-33K33S1,167,training,85,←,left,←,0.9670467999530956,True,34,0
MW-K-33K33S1,168,training,84,↑,up,↑,0.7334417999954894,True,34,1
MW-K-33K33S1,169,experiment,91,→,right,→,0.9301332999020815,True,34,1
MW-K-33K33S1,170,experiment,93,↓,up,↑,1.230588199920021,False,34,1
MW-K-33K33S1,171,experiment,94,↑,up,↑,0.7429164000786841,True,34,1
MW-K-33K33S1,172,experiment,86,↓,down,↓,0.8053566999733448,True,34,1
MW-K-33K33S1,173,experiment,66,→,left,←,1.040173599962145,False,34,1
MW-K-33K33S1,174,experiment,51,←,left,←,0.7974018000531942,True,34,1
MW-K-33K33S1,175,experiment,68,↑,up,↑,0.7834707999136299,True,34,1
MW-K-33K33S1,176,experiment,60,↑,up,↑,0.7167657000245526,True,34,1
MW-K-33K33S1,177,experiment,71,↑,up,↑,0.8331839999882504,True,34,1
MW-K-33K33S1,178,experiment,53,↑,up,↑,0.6627603999804705,True,34,1
MW-K-33K33S1,179,experiment,89,↑,up,↑,0.7596009999979287,True,34,1
MW-K-33K33S1,180,experiment,65,→,right,→,0.8278062000172213,True,34,1
MW-K-33K33S1,181,experiment,56,↓,down,↓,1.0730856000445783,True,34,1
MW-K-33K33S1,182,experiment,104,↑,up,↑,1.1161656000185758,True,34,1
MW-K-33K33S1,183,experiment,78,↑,up,↑,0.9264538999414071,True,34,1
MW-K-33K33S1,184,experiment,54,→,right,→,0.8319686999311671,True,34,1
MW-K-33K33S1,185,experiment,92,↑,up,↑,1.0806987000396475,True,34,1
MW-K-33K33S1,186,experiment,106,←,left,←,0.858921300037764,True,34,1
MW-K-33K33S1,187,experiment,74,↑,up,↑,1.1287659000372514,True,34,1
MW-K-33K33S1,188,experiment,98,↑,up,↑,0.7646163000026718,True,34,1
MW-K-33K33S1,189,experiment,75,→,right,→,0.8766814999980852,True,34,1
MW-K-33K33S1,190,experiment,48,↓,down,↓,1.3544450000626966,True,34,1
MW-K-33K33S1,191,experiment,72,↓,down,↓,0.8610022000502795,True,34,1
MW-K-33K33S1,192,experiment,83,↓,down,↓,0.9117423000279814,True,34,1
MW-K-33K33S1,193,experiment,70,↓,down,↓,0.8047734999563545,True,34,1
MW-K-33K33S1,194,experiment,57,←,left,←,0.8820274999598041,True,34,1
MW-K-33K33S1,195,experiment,105,←,left,←,1.396523499977775,True,34,1
MW-K-33K33S1,196,experiment,107,←,left,←,1.0020660000154749,True,34,1
MW-K-33K33S1,197,experiment,95,↑,up,↑,0.8509653999935836,True,34,1
MW-K-33K33S1,198,experiment,96,←,left,←,0.8899152999510989,True,34,1
MW-K-33K33S1,199,experiment,59,←,left,←,0.7793516999809071,True,34,1
MW-K-33K33S1,200,experiment,63,←,left,←,0.6954565999330953,True,34,1
MW-K-33K33S1,201,experiment,99,↓,down,↓,1.0355606999946758,True,34,1
MW-K-33K33S1,202,experiment,76,↑,up,↑,0.865552100003697,True,34,1
MW-K-33K33S1,203,experiment,108,→,right,→,0.8195968000218272,True,34,1
MW-K-33K33S1,204,experiment,69,→,right,→,1.1964775000233203,True,34,1
MW-K-33K33S1,205,experiment,50,←,left,←,0.9328892999328673,True,34,1
MW-K-33K33S1,206,experiment,64,↓,down,↓,0.8826739999931306,True,34,1
MW-K-33K33S1,207,experiment,84,↓,up,↑,0.8762775999493897,False,34,1
MW-K-33K33S1,208,experiment,88,←,left,←,0.7970133000053465,True,34,1
MW-K-33K33S1,209,experiment,73,↓,down,↓,0.8290414999937639,True,34,1
MW-K-33K33S1,210,experiment,103,←,left,←,0.7862650000024587,True,34,1
MW-K-33K33S1,211,experiment,102,↑,up,↑,0.5853760000318289,True,34,1
MW-K-33K33S1,212,experiment,81,→,right,→,1.047703499905765,True,34,1
MW-K-33K33S1,213,experiment,62,↑,up,↑,0.8503581000259146,True,34,1
MW-K-33K33S1,214,experiment,58,→,right,→,0.7572564000729471,True,34,1
MW-K-33K33S1,215,experiment,79,↑,up,↑,0.6932475999929011,True,34,1
MW-K-33K33S1,216,experiment,80,↑,up,↑,0.7113870000466704,True,34,1
MW-K-33K33S1,217,experiment,97,←,left,←,1.4756607000017539,True,34,1
MW-K-33K33S1,218,experiment,100,→,right,→,1.095969200017862,True,34,1
MW-K-33K33S1,219,experiment,67,↓,down,↓,0.958681600051932,True,34,1
MW-K-33K33S1,220,experiment,61,↓,down,↓,0.8205165000399575,True,34,1
MW-K-33K33S1,221,experiment,55,↑,up,↑,0.8421227000653744,True,34,1
MW-K-33K33S1,222,experiment,82,←,left,←,1.365762099972926,True,34,1
MW-K-33K33S1,223,experiment,52,←,left,←,0.8626056999200955,True,34,1
MW-K-33K33S1,224,experiment,49,→,right,→,0.7962359999073669,True,34,1
MW-K-33K33S1,225,experiment,87,↓,down,↓,0.8717059000628069,True,34,1
MW-K-33K33S1,226,experiment,90,←,left,←,0.7678670999594033,True,34,1
MW-K-33K33S1,227,experiment,77,↓,down,↓,1.0161347000394017,True,34,1
MW-K-33K33S1,228,experiment,85,↓,down,↓,0.9078873000107706,True,34,1
MW-K-33K33S1,229,experiment,101,←,left,←,0.8866723999381065,True,34,1
MW-K-33K33S1,230,training,87,←,left,←,0.7770232999464497,True,33,0
MW-K-33K33S1,231,training,50,←,left,←,0.7381100000347942,True,33,1
MW-K-33K33S1,232,experiment,80,←,left,←,0.6266644999850541,True,33,1
MW-K-33K33S1,233,experiment,61,↑,up,↑,0.702026000013575,True,33,1
MW-K-33K33S1,234,experiment,82,←,left,←,0.727462200098671,True,33,1
MW-K-33K33S1,235,experiment,106,↑,up,↑,0.7679239999270067,True,33,1
MW-K-33K33S1,236,experiment,99,←,left,←,0.7447076999815181,True,33,1
MW-K-33K33S1,237,experiment,108,←,left,←,0.6798792000627145,True,33,1
MW-K-33K33S1,238,experiment,94,↑,up,↑,0.7179299000417814,True,33,1
MW-K-33K33S1,239,experiment,59,→,right,→,0.9741445999825373,True,33,1
MW-K-33K33S1,240,experiment,93,↓,up,↑,0.7771245000185445,False,33,1
MW-K-33K33S1,241,experiment,95,↑,up,↑,0.6991904999595135,True,33,1
MW-K-33K33S1,242,experiment,87,←,left,←,0.7549318999517709,True,33,1
MW-K-33K33S1,243,experiment,67,↓,no_key,no_letter,-1.0,False,33,1
MW-K-33K33S1,244,experiment,92,↑,up,↑,0.7316159999463707,True,33,1
MW-K-33K33S1,245,experiment,68,↓,down,↓,0.744121800060384,True,33,1
MW-K-33K33S1,246,experiment,96,↓,down,↓,0.7550321000162512,True,33,1
MW-K-33K33S1,247,experiment,101,←,left,←,1.0366175000090152,True,33,1
MW-K-33K33S1,248,experiment,56,←,left,←,0.6646001000190154,True,33,1
MW-K-33K33S1,249,experiment,55,↑,up,↑,0.82830880000256,True,33,1
MW-K-33K33S1,250,experiment,48,↑,up,↑,0.7240284000290558,True,33,1
MW-K-33K33S1,251,experiment,69,→,right,→,0.8245007999939844,True,33,1
MW-K-33K33S1,252,experiment,71,→,right,→,0.7845756999449804,True,33,1
MW-K-33K33S1,253,experiment,97,→,right,→,0.8257155000464991,True,33,1
MW-K-33K33S1,254,experiment,73,←,left,←,0.7769400000106543,True,33,1
MW-K-33K33S1,255,experiment,77,→,right,→,1.0730872999411076,True,33,1
MW-K-33K33S1,256,experiment,75,↓,down,↓,0.7817866000114009,True,33,1
MW-K-33K33S1,257,experiment,105,↑,up,↑,0.7482335000531748,True,33,1
MW-K-33K33S1,258,experiment,70,↓,down,↓,0.7916093000676483,True,33,1
MW-K-33K33S1,259,experiment,90,↑,up,↑,0.6906069999095052,True,33,1
MW-K-33K33S1,260,experiment,104,←,left,←,0.5814441000111401,True,33,1
MW-K-33K33S1,261,experiment,103,↓,down,↓,0.6281884999480098,True,33,1
MW-K-33K33S1,262,experiment,102,→,right,→,0.7145156000042334,True,33,1
MW-K-33K33S1,263,experiment,79,→,right,→,0.8112221999326721,True,33,1
MW-K-33K33S1,264,experiment,72,→,right,→,0.6917083999142051,True,33,1
MW-K-33K33S1,265,experiment,89,←,left,←,0.7549540000036359,True,33,1
MW-K-33K33S1,266,experiment,65,↓,down,↓,0.8556579999858513,True,33,1
MW-K-33K33S1,267,experiment,64,↑,up,↑,0.7365377000533044,True,33,1
MW-K-33K33S1,268,experiment,60,↑,up,↑,0.7840920999879017,True,33,1
MW-K-33K33S1,269,experiment,88,←,left,←,0.7880414000246674,True,33,1
MW-K-33K33S1,270,experiment,50,→,right,→,0.7083235000027344,True,33,1
MW-K-33K33S1,271,experiment,84,←,left,←,1.036488899961114,True,33,1
MW-K-33K33S1,272,experiment,63,→,right,→,0.9990866000298411,True,33,1
MW-K-33K33S1,273,experiment,98,↓,down,↓,0.7108770000049844,True,33,1
MW-K-33K33S1,274,experiment,91,←,left,←,0.589784299954772,True,33,1
MW-K-33K33S1,275,experiment,74,→,right,→,0.7493440000107512,True,33,1
MW-K-33K33S1,276,experiment,107,→,right,→,0.6925142999971285,True,33,1
MW-K-33K33S1,277,experiment,66,→,right,→,0.7556593999033794,True,33,1
MW-K-33K33S1,278,experiment,78,←,left,←,0.7319526999490336,True,33,1
MW-K-33K33S1,279,experiment,100,→,right,→,0.677926899981685,True,33,1
MW-K-33K33S1,280,experiment,52,↑,up,↑,0.6900285999290645,True,33,1
MW-K-33K33S1,281,experiment,53,←,left,←,0.717519799945876,True,33,1
MW-K-33K33S1,282,experiment,81,→,right,→,0.7103120000101626,True,33,1
MW-K-33K33S1,283,experiment,57,→,right,→,0.5917831999249756,True,33,1
MW-K-33K33S1,284,experiment,58,←,left,←,0.6852410000283271,True,33,1
MW-K-33K33S1,285,experiment,83,→,right,→,0.5669410999398679,True,33,1
MW-K-33K33S1,286,experiment,62,←,left,←,0.6920702999923378,True,33,1
MW-K-33K33S1,287,experiment,85,↑,up,↑,0.7728990000905469,True,33,1
MW-K-33K33S1,288,experiment,49,↑,right,→,0.5665018999716267,False,33,1
MW-K-33K33S1,289,experiment,86,↓,down,↓,0.8034849000396207,True,33,1
MW-K-33K33S1,290,experiment,54,←,left,←,0.6901128999888897,True,33,1
MW-K-33K33S1,291,experiment,76,→,right,→,0.7578014000318944,True,33,1
MW-K-33K33S1,292,experiment,51,→,right,→,0.71905610000249,True,33,1
MW-K-33K33S1,293,training,92,→,right,→,0.7625578999286518,True,32,0
MW-K-33K33S1,294,training,107,→,right,→,0.6651096000568941,True,32,1
MW-K-33K33S1,295,experiment,107,↓,down,↓,0.8434769000159577,True,32,1
MW-K-33K33S1,296,experiment,56,↑,up,↑,0.7038976000621915,True,32,1
MW-K-33K33S1,297,experiment,91,↑,up,↑,0.6220653000054881,True,32,1
MW-K-33K33S1,298,experiment,80,↑,up,↑,0.6910877999616787,True,32,1
MW-K-33K33S1,299,experiment,74,←,left,←,0.6473831000039354,True,32,1
MW-K-33K33S1,300,experiment,52,→,right,→,0.7404560999711975,True,32,1
MW-K-33K33S1,301,experiment,49,→,right,→,0.9593137000920251,True,32,1
MW-K-33K33S1,302,experiment,98,↑,up,↑,0.7292755000526085,True,32,1
MW-K-33K33S1,303,experiment,75,↓,down,↓,0.7553821000037715,True,32,1
MW-K-33K33S1,304,experiment,60,↓,down,↓,0.6418762999819592,True,32,1
MW-K-33K33S1,305,experiment,97,↑,up,↑,0.7448418000712991,True,32,1
MW-K-33K33S1,306,experiment,48,↑,up,↑,0.73140519997105,True,32,1
MW-K-33K33S1,307,experiment,89,←,left,←,0.704945300007239,True,32,1
MW-K-33K33S1,308,experiment,83,↓,down,↓,0.6896367000881582,True,32,1
MW-K-33K33S1,309,experiment,53,→,right,→,0.8129053999437019,True,32,1
MW-K-33K33S1,310,experiment,106,↓,down,↓,0.6974645999725908,True,32,1
MW-K-33K33S1,311,experiment,70,←,left,←,0.6789952999679372,True,32,1
MW-K-33K33S1,312,experiment,77,↑,up,↑,0.6985968999797478,True,32,1
MW-K-33K33S1,313,experiment,57,↑,up,↑,0.8603404000168666,True,32,1
MW-K-33K33S1,314,experiment,87,↓,down,↓,0.7897809999994934,True,32,1
MW-K-33K33S1,315,experiment,86,←,left,←,0.6183305999729782,True,32,1
MW-K-33K33S1,316,experiment,101,→,right,→,0.7284224999602884,True,32,1
MW-K-33K33S1,317,experiment,55,←,left,←,0.7376365000382066,True,32,1
MW-K-33K33S1,318,experiment,105,↑,down,↓,0.7775674000149593,False,32,1
MW-K-33K33S1,319,experiment,95,→,right,→,0.6837528999894857,True,32,1
MW-K-33K33S1,320,experiment,62,←,left,←,0.6687087999889627,True,32,1
MW-K-33K33S1,321,experiment,99,↓,down,↓,0.6817295999499038,True,32,1
MW-K-33K33S1,322,experiment,51,↓,down,↓,0.8857866999460384,True,32,1
MW-K-33K33S1,323,experiment,54,←,left,←,0.7529491999885067,True,32,1
MW-K-33K33S1,324,experiment,88,→,right,→,0.7902963999658823,True,32,1
MW-K-33K33S1,325,experiment,81,↑,down,↓,0.8283637000713497,False,32,1
MW-K-33K33S1,326,experiment,59,↑,down,↓,0.8003711000783369,False,32,1
MW-K-33K33S1,327,experiment,68,←,left,←,0.682429000036791,True,32,1
MW-K-33K33S1,328,experiment,69,→,right,→,0.6566987000405788,True,32,1
MW-K-33K33S1,329,experiment,58,↑,up,↑,0.7877451999811456,True,32,1
MW-K-33K33S1,330,experiment,63,↓,down,↓,0.6636541000334546,True,32,1
MW-K-33K33S1,331,experiment,92,←,left,←,0.7429764000698924,True,32,1
MW-K-33K33S1,332,experiment,78,→,right,→,0.6878711000317708,True,32,1
MW-K-33K33S1,333,experiment,100,→,right,→,0.6039106999523938,True,32,1
MW-K-33K33S1,334,experiment,73,→,right,→,0.6362190999789163,True,32,1
MW-K-33K33S1,335,experiment,50,→,left,←,0.5066071000183001,False,32,1
MW-K-33K33S1,336,experiment,85,↑,left,←,0.8347905999980867,False,32,1
MW-K-33K33S1,337,experiment,93,↓,down,↓,0.8030990000115708,True,32,1
MW-K-33K33S1,338,experiment,64,↓,down,↓,0.8225076999515295,True,32,1
MW-K-33K33S1,339,experiment,104,↓,down,↓,0.715854600071907,True,32,1
MW-K-33K33S1,340,experiment,76,←,left,←,0.6302461000159383,True,32,1
MW-K-33K33S1,341,experiment,103,→,right,→,0.8193697999231517,True,32,1
MW-K-33K33S1,342,experiment,90,→,right,→,0.7172536000143737,True,32,1
MW-K-33K33S1,343,experiment,82,↓,down,↓,1.1020630999701098,True,32,1
MW-K-33K33S1,344,experiment,66,↓,down,↓,0.7327556000091136,True,32,1
MW-K-33K33S1,345,experiment,94,←,left,←,0.649076099973172,True,32,1
MW-K-33K33S1,346,experiment,67,←,left,←,0.6652439000317827,True,32,1
MW-K-33K33S1,347,experiment,65,←,left,←,0.5853548999875784,True,32,1
MW-K-33K33S1,348,experiment,84,←,left,←,0.6946004999335855,True,32,1
MW-K-33K33S1,349,experiment,72,↑,down,↓,0.9318125999998301,False,32,1
MW-K-33K33S1,350,experiment,71,←,left,←,0.7432726999977604,True,32,1
MW-K-33K33S1,351,experiment,61,←,left,←,0.5259753999998793,True,32,1
MW-K-33K33S1,352,experiment,79,←,left,←,0.5993934000143781,True,32,1
MW-K-33K33S1,353,experiment,102,→,right,→,0.6540533000370488,True,32,1
MW-K-33K33S1,354,experiment,108,→,right,→,0.7126579999458045,True,32,1
MW-K-33K33S1,355,experiment,96,↓,down,↓,0.7166683999821544,True,32,1
MW-K-33K33S1,356,training,64,↓,down,↓,0.724002500064671,True,31,0
MW-K-33K33S1,357,training,56,↑,up,↑,0.5572114000096917,True,31,1
MW-K-33K33S1,358,experiment,60,↑,up,↑,0.6674524999689311,True,31,1
MW-K-33K33S1,359,experiment,77,←,left,←,1.1756861000321805,True,31,1
MW-K-33K33S1,360,experiment,58,←,left,←,0.974246499943547,True,31,1
MW-K-33K33S1,361,experiment,73,↑,up,↑,0.6954020999837667,True,31,1
MW-K-33K33S1,362,experiment,55,←,left,←,0.9776415000669658,True,31,1
MW-K-33K33S1,363,experiment,65,←,left,←,0.8618758000666276,True,31,1
MW-K-33K33S1,364,experiment,85,←,left,←,0.7357950999867171,True,31,1
MW-K-33K33S1,365,experiment,92,↑,up,↑,0.7405309999594465,True,31,1
MW-K-33K33S1,366,experiment,106,↓,down,↓,0.7646384999388829,True,31,1
MW-K-33K33S1,367,experiment,104,→,right,→,0.7716101000551134,True,31,1
MW-K-33K33S1,368,experiment,97,↑,up,↑,0.8850113999797031,True,31,1
MW-K-33K33S1,369,experiment,101,→,right,→,0.7608266999013722,True,31,1
MW-K-33K33S1,370,experiment,75,←,left,←,0.7062712999759242,True,31,1
MW-K-33K33S1,371,experiment,79,↑,up,↑,0.7323819999583066,True,31,1
MW-K-33K33S1,372,experiment,49,←,left,←,0.919029000098817,True,31,1
MW-K-33K33S1,373,experiment,76,←,left,←,0.6740505000343546,True,31,1
MW-K-33K33S1,374,experiment,90,→,right,→,0.8174331000773236,True,31,1
MW-K-33K33S1,375,experiment,82,←,left,←,0.7425201999722049,True,31,1
MW-K-33K33S1,376,experiment,108,→,right,→,0.7654205999569967,True,31,1
MW-K-33K33S1,377,experiment,105,↓,down,↓,0.8365064000245184,True,31,1
MW-K-33K33S1,378,experiment,50,←,left,←,0.787178400089033,True,31,1
MW-K-33K33S1,379,experiment,100,←,left,←,0.7072396000148728,True,31,1
MW-K-33K33S1,380,experiment,71,↓,down,↓,0.8716856999089941,True,31,1
MW-K-33K33S1,381,experiment,83,←,left,←,0.569791299989447,True,31,1
MW-K-33K33S1,382,experiment,81,↑,up,↑,0.8247414999641478,True,31,1
MW-K-33K33S1,383,experiment,94,→,right,→,0.7613102999748662,True,31,1
MW-K-33K33S1,384,experiment,52,↓,down,↓,0.770735599915497,True,31,1
MW-K-33K33S1,385,experiment,86,←,left,←,0.7516811999958009,True,31,1
MW-K-33K33S1,386,experiment,66,↓,down,↓,0.724323800066486,True,31,1
MW-K-33K33S1,387,experiment,57,→,right,→,0.7326720000710338,True,31,1
MW-K-33K33S1,388,experiment,87,↑,up,↑,0.7150780000956729,True,31,1
MW-K-33K33S1,389,experiment,64,→,right,→,0.8256131999660283,True,31,1
MW-K-33K33S1,390,experiment,67,↑,up,↑,0.6989644999848679,True,31,1
MW-K-33K33S1,391,experiment,107,↑,up,↑,0.8843242999864742,True,31,1
MW-K-33K33S1,392,experiment,80,↓,down,↓,0.7427859000163153,True,31,1
MW-K-33K33S1,393,experiment,99,←,left,←,0.7528213999466971,True,31,1
MW-K-33K33S1,394,experiment,91,↓,down,↓,0.7892020000144839,True,31,1
MW-K-33K33S1,395,experiment,74,↓,down,↓,0.8537830000277609,True,31,1
MW-K-33K33S1,396,experiment,70,←,left,←,0.6609275999944657,True,31,1
MW-K-33K33S1,397,experiment,48,←,left,←,0.7793793000746518,True,31,1
MW-K-33K33S1,398,experiment,89,↓,down,↓,0.6708351999986917,True,31,1
MW-K-33K33S1,399,experiment,63,↓,down,↓,0.8155514999525622,True,31,1
MW-K-33K33S1,400,experiment,61,→,right,→,0.7396718000527471,True,31,1
MW-K-33K33S1,401,experiment,72,↑,up,↑,0.8065943999681622,True,31,1
MW-K-33K33S1,402,experiment,103,→,right,→,0.8126121000386775,True,31,1
MW-K-33K33S1,403,experiment,95,↑,up,↑,0.7089917999692261,True,31,1
MW-K-33K33S1,404,experiment,96,↓,down,↓,0.6894002999179065,True,31,1
MW-K-33K33S1,405,experiment,62,↑,up,↑,0.6096232999116182,True,31,1
MW-K-33K33S1,406,experiment,68,←,left,←,0.6272912999847904,True,31,1
MW-K-33K33S1,407,experiment,88,↓,down,↓,0.6937758999411017,True,31,1
MW-K-33K33S1,408,experiment,51,→,right,→,0.6016100000124425,True,31,1
MW-K-33K33S1,409,experiment,84,↓,down,↓,0.6861639999551699,True,31,1
MW-K-33K33S1,410,experiment,102,↑,up,↑,0.7376644000178203,True,31,1
MW-K-33K33S1,411,experiment,98,←,right,→,0.5079908999614418,False,31,1
MW-K-33K33S1,412,experiment,56,↑,up,↑,0.6691928999498487,True,31,1
MW-K-33K33S1,413,experiment,53,↓,down,↓,0.6816398999653757,True,31,1
MW-K-33K33S1,414,experiment,59,↑,up,↑,0.7554571999935433,True,31,1
MW-K-33K33S1,415,experiment,69,←,left,←,0.7825481999898329,True,31,1
MW-K-33K33S1,416,experiment,78,←,left,←,0.7659164000069723,True,31,1
MW-K-33K33S1,417,experiment,54,←,left,←,0.6940486999228597,True,31,1
MW-K-33K33S1,418,experiment,93,↑,up,↑,0.716047800029628,True,31,1
MW-K-33K33S1,419,training,51,←,left,←,0.6489154999144375,True,30,0
MW-K-33K33S1,420,training,72,↑,up,↑,0.74335110001266,True,30,1
MW-K-33K33S1,421,experiment,101,→,right,→,0.7447178999427706,True,30,1
MW-K-33K33S1,422,experiment,71,→,right,→,0.6040470000589266,True,30,1
MW-K-33K33S1,423,experiment,61,↑,up,↑,0.6879663000581786,True,30,1
MW-K-33K33S1,424,experiment,55,→,right,→,0.6105735000455752,True,30,1
MW-K-33K33S1,425,experiment,97,↑,up,↑,0.5706266999477521,True,30,1
MW-K-33K33S1,426,experiment,82,↓,down,↓,0.6813600999303162,True,30,1
MW-K-33K33S1,427,experiment,72,←,left,←,0.5661420000251383,True,30,1
MW-K-33K33S1,428,experiment,100,→,right,→,0.734652700019069,True,30,1
MW-K-33K33S1,429,experiment,93,→,right,→,0.6753003998892382,True,30,1
MW-K-33K33S1,430,experiment,76,→,right,→,0.6395135000348091,True,30,1
MW-K-33K33S1,431,experiment,62,→,right,→,0.7775353000033647,True,30,1
MW-K-33K33S1,432,experiment,80,↓,down,↓,0.7046218999894336,True,30,1
MW-K-33K33S1,433,experiment,98,←,left,←,0.6766607000026852,True,30,1
MW-K-33K33S1,434,experiment,78,←,left,←,0.7122557000257075,True,30,1
MW-K-33K33S1,435,experiment,79,↓,down,↓,0.7698315000161529,True,30,1
MW-K-33K33S1,436,experiment,89,↓,down,↓,0.694334700005129,True,30,1
MW-K-33K33S1,437,experiment,81,↓,down,↓,0.6961626999545842,True,30,1
MW-K-33K33S1,438,experiment,83,↓,down,↓,0.6418477999977767,True,30,1
MW-K-33K33S1,439,experiment,103,→,right,→,0.8222978999838233,True,30,1
MW-K-33K33S1,440,experiment,68,↑,up,↑,0.7752987999701872,True,30,1
MW-K-33K33S1,441,experiment,48,↑,up,↑,0.8169284999603406,True,30,1
MW-K-33K33S1,442,experiment,51,↓,down,↓,0.6722300000255927,True,30,1
MW-K-33K33S1,443,experiment,94,→,left,←,0.6944714999990538,False,30,1
MW-K-33K33S1,444,experiment,59,←,left,←,0.7196591000538319,True,30,1
MW-K-33K33S1,445,experiment,90,↓,down,↓,0.7657069000415504,True,30,1
MW-K-33K33S1,446,experiment,75,↓,down,↓,0.7024231000104919,True,30,1
MW-K-33K33S1,447,experiment,85,↓,down,↓,0.6388396000256762,True,30,1
MW-K-33K33S1,448,experiment,95,↑,down,↓,0.7420907999621704,False,30,1
MW-K-33K33S1,449,experiment,107,↑,left,←,1.270161799970083,False,30,1
MW-K-33K33S1,450,experiment,105,←,left,←,0.6489758000243455,True,30,1
MW-K-33K33S1,451,experiment,63,↓,down,↓,0.7304976000450552,True,30,1
MW-K-33K33S1,452,experiment,99,←,left,←,0.725137299974449,True,30,1
MW-K-33K33S1,453,experiment,96,↑,down,↓,0.664569899905473,False,30,1
MW-K-33K33S1,454,experiment,73,↓,down,↓,0.7181120000313967,True,30,1
MW-K-33K33S1,455,experiment,65,↑,up,↑,0.7326857999432832,True,30,1
MW-K-33K33S1,456,experiment,74,↓,down,↓,0.7111744000576437,True,30,1
MW-K-33K33S1,457,experiment,54,←,left,←,0.7699181999778375,True,30,1
MW-K-33K33S1,458,experiment,56,↓,down,↓,0.7370375000173226,True,30,1
MW-K-33K33S1,459,experiment,87,→,right,→,0.823168299975805,True,30,1
MW-K-33K33S1,460,experiment,60,↓,down,↓,0.6826893999241292,True,30,1
MW-K-33K33S1,461,experiment,64,←,left,←,0.6107050999999046,True,30,1
MW-K-33K33S1,462,experiment,88,→,right,→,0.7016213999595493,True,30,1
MW-K-33K33S1,463,experiment,66,→,right,→,0.5644795000553131,True,30,1
MW-K-33K33S1,464,experiment,49,↓,down,↓,0.8458679999457672,True,30,1
MW-K-33K33S1,465,experiment,52,↓,down,↓,0.7555296999635175,True,30,1
MW-K-33K33S1,466,experiment,104,←,left,←,0.5551944999024272,True,30,1
MW-K-33K33S1,467,experiment,108,↓,down,↓,0.7295997000765055,True,30,1
MW-K-33K33S1,468,experiment,91,→,right,→,0.6386737000430003,True,30,1
MW-K-33K33S1,469,experiment,50,→,right,→,0.8448487999849021,True,30,1
MW-K-33K33S1,470,experiment,86,→,right,→,0.6154114999808371,True,30,1
MW-K-33K33S1,471,experiment,67,→,right,→,0.9447505000280216,True,30,1
MW-K-33K33S1,472,experiment,77,→,right,→,0.6824254000093788,True,30,1
MW-K-33K33S1,473,experiment,92,→,right,→,0.7530423999996856,True,30,1
MW-K-33K33S1,474,experiment,58,←,left,←,0.7042051999596879,True,30,1
MW-K-33K33S1,475,experiment,57,↓,down,↓,0.7216323999455199,True,30,1
MW-K-33K33S1,476,experiment,69,↑,up,↑,0.7100185999879614,True,30,1
MW-K-33K33S1,477,experiment,53,→,right,→,0.7208886001026258,True,30,1
MW-K-33K33S1,478,experiment,84,↓,down,↓,0.768378600012511,True,30,1
MW-K-33K33S1,479,experiment,102,←,right,→,0.7606491000624374,False,30,1
MW-K-33K33S1,480,experiment,106,↓,down,↓,0.6721393000334501,True,30,1
MW-K-33K33S1,481,experiment,70,↑,down,↓,0.6618374000536278,False,30,1
MW-K-33K33S1,482,training,78,←,left,←,0.9430641999933869,True,29,0
MW-K-33K33S1,483,training,90,↑,up,↑,0.6921129000838846,True,29,1
MW-K-33K33S1,484,experiment,93,↓,down,↓,0.7541022000368685,True,29,1
MW-K-33K33S1,485,experiment,74,↓,down,↓,1.0682727000676095,True,29,1
MW-K-33K33S1,486,experiment,82,→,right,→,0.5732388999313116,True,29,1
MW-K-33K33S1,487,experiment,83,←,left,←,0.6274188000243157,True,29,1
MW-K-33K33S1,488,experiment,105,←,left,←,0.5361227999674156,True,29,1
MW-K-33K33S1,489,experiment,60,↓,down,↓,0.7430971000576392,True,29,1
MW-K-33K33S1,490,experiment,99,←,left,←,0.6971462999936193,True,29,1
MW-K-33K33S1,491,experiment,68,←,left,←,0.6791022999677807,True,29,1
MW-K-33K33S1,492,experiment,61,↑,up,↑,0.7520692000398412,True,29,1
MW-K-33K33S1,493,experiment,100,←,left,←,0.6894838999724016,True,29,1
MW-K-33K33S1,494,experiment,73,↓,down,↓,0.5821849999483675,True,29,1
MW-K-33K33S1,495,experiment,53,↓,down,↓,0.6858425999525934,True,29,1
MW-K-33K33S1,496,experiment,95,←,left,←,0.65151130000595,True,29,1
MW-K-33K33S1,497,experiment,85,↓,left,←,0.573875599890016,False,29,1
MW-K-33K33S1,498,experiment,81,↑,down,↓,1.0684827999211848,False,29,1
MW-K-33K33S1,499,experiment,72,↑,up,↑,0.6346235000528395,True,29,1
MW-K-33K33S1,500,experiment,48,←,left,←,0.5536757000954822,True,29,1
MW-K-33K33S1,501,experiment,76,↓,down,↓,0.7068466000491753,True,29,1
MW-K-33K33S1,502,experiment,78,←,left,←,0.42965850001201034,True,29,1
MW-K-33K33S1,503,experiment,50,↑,down,↓,0.7556627000449225,False,29,1
MW-K-33K33S1,504,experiment,67,→,left,←,0.7116542999865487,False,29,1
MW-K-33K33S1,505,experiment,101,↑,down,↓,0.8183906000340357,False,29,1
MW-K-33K33S1,506,experiment,75,→,right,→,0.7454532999545336,True,29,1
MW-K-33K33S1,507,experiment,90,↓,down,↓,0.7182537999469787,True,29,1
MW-K-33K33S1,508,experiment,84,↑,up,↑,0.9742943999590352,True,29,1
MW-K-33K33S1,509,experiment,65,↓,down,↓,0.8822428000858054,True,29,1
MW-K-33K33S1,510,experiment,91,←,left,←,0.7932007000781596,True,29,1
MW-K-33K33S1,511,experiment,107,↑,up,↑,0.8305891000200063,True,29,1
MW-K-33K33S1,512,experiment,59,←,left,←,0.7863772000418976,True,29,1
MW-K-33K33S1,513,experiment,58,↑,up,↑,0.7843588000396267,True,29,1
MW-K-33K33S1,514,experiment,51,↑,left,←,1.1208573000039905,False,29,1
MW-K-33K33S1,515,experiment,86,↑,up,↑,0.8801256000297144,True,29,1
MW-K-33K33S1,516,experiment,52,↑,up,↑,0.7321770000271499,True,29,1
MW-K-33K33S1,517,experiment,69,↑,up,↑,0.7364082001149654,True,29,1
MW-K-33K33S1,518,experiment,66,↓,down,↓,0.8296125999186188,True,29,1
MW-K-33K33S1,519,experiment,103,↑,up,↑,0.7467173000331968,True,29,1
MW-K-33K33S1,520,experiment,71,↓,left,←,0.6859706001123413,False,29,1
MW-K-33K33S1,521,experiment,62,←,left,←,0.7664224000182003,True,29,1
MW-K-33K33S1,522,experiment,98,→,left,←,0.7439659000374377,False,29,1
MW-K-33K33S1,523,experiment,57,→,right,→,0.8638186000753194,True,29,1
MW-K-33K33S1,524,experiment,96,↑,right,→,1.013989400002174,False,29,1
MW-K-33K33S1,525,experiment,77,←,left,←,0.6529229000443593,True,29,1
MW-K-33K33S1,526,experiment,94,↓,down,↓,0.675595699925907,True,29,1
MW-K-33K33S1,527,experiment,92,↓,down,↓,0.8028456000611186,True,29,1
MW-K-33K33S1,528,experiment,64,←,left,←,0.9419413999421522,True,29,1
MW-K-33K33S1,529,experiment,49,→,right,→,0.8485947001026943,True,29,1
MW-K-33K33S1,530,experiment,104,↓,down,↓,0.7568753999657929,True,29,1
MW-K-33K33S1,531,experiment,89,↓,left,←,1.0494392999680713,False,29,1
MW-K-33K33S1,532,experiment,88,→,right,→,0.6748630000511184,True,29,1
MW-K-33K33S1,533,experiment,54,↓,down,↓,0.8064586999826133,True,29,1
MW-K-33K33S1,534,experiment,79,↓,down,↓,0.8044946000445634,True,29,1
MW-K-33K33S1,535,experiment,56,→,right,→,0.7785889999940991,True,29,1
MW-K-33K33S1,536,experiment,55,↑,up,↑,0.7455448999535292,True,29,1
MW-K-33K33S1,537,experiment,97,←,left,←,0.8120351999532431,True,29,1
MW-K-33K33S1,538,experiment,70,←,left,←,0.6527361999033019,True,29,1
MW-K-33K33S1,539,experiment,106,→,right,→,0.6164209999842569,True,29,1
MW-K-33K33S1,540,experiment,102,↑,down,↓,0.8062462999951094,False,29,1
MW-K-33K33S1,541,experiment,108,→,right,→,0.674863199936226,True,29,1
MW-K-33K33S1,542,experiment,63,→,left,←,0.9557115000206977,False,29,1
MW-K-33K33S1,543,experiment,87,↓,right,→,0.6729389999527484,False,29,1
MW-K-33K33S1,544,experiment,80,→,right,→,0.7238532999763265,True,29,1
MW-K-33K33S1,545,training,74,→,right,→,0.6788241000613198,True,29,0
MW-K-33K33S1,546,training,99,↓,down,↓,0.8589728999650106,True,29,1
MW-K-33K33S1,547,experiment,91,↓,down,↓,0.7071079999441281,True,29,1
MW-K-33K33S1,548,experiment,81,↓,down,↓,0.6684029999887571,True,29,1
MW-K-33K33S1,549,experiment,75,↑,down,↓,0.6733705999795347,False,29,1
MW-K-33K33S1,550,experiment,59,←,left,←,0.5954148999880999,True,29,1
MW-K-33K33S1,551,experiment,98,↓,down,↓,0.6995284999720752,True,29,1
MW-K-33K33S1,552,experiment,56,↑,left,←,0.7652670000679791,False,29,1
MW-K-33K33S1,553,experiment,68,↓,right,→,0.760779400006868,False,29,1
MW-K-33K33S1,554,experiment,103,↓,down,↓,0.6971874999580905,True,29,1
MW-K-33K33S1,555,experiment,102,↑,down,↓,0.635338700027205,False,29,1
MW-K-33K33S1,556,experiment,82,↑,down,↓,0.6713571000145748,False,29,1
MW-K-33K33S1,557,experiment,101,→,left,←,0.6194793999893591,False,29,1
MW-K-33K33S1,558,experiment,76,↓,down,↓,0.6741627999581397,True,29,1
MW-K-33K33S1,559,experiment,86,↑,down,↓,0.7630905999103561,False,29,1
MW-K-33K33S1,560,experiment,48,↓,down,↓,0.7649456999497488,True,29,1
MW-K-33K33S1,561,experiment,79,↑,left,←,1.0846017999574542,False,29,1
MW-K-33K33S1,562,experiment,80,↓,down,↓,1.0794403000036255,True,29,1
MW-K-33K33S1,563,experiment,61,→,left,←,0.6484759000595659,False,29,1
MW-K-33K33S1,564,experiment,84,←,left,←,0.5551352000329643,True,29,1
MW-K-33K33S1,565,experiment,83,←,left,←,0.48178390006069094,True,29,1
MW-K-33K33S1,566,experiment,50,←,left,←,0.35159069998189807,True,29,1
MW-K-33K33S1,567,experiment,64,←,left,←,0.3505703000118956,True,29,0
MW-K-33K33S1,568,experiment,87,→,left,←,0.34218789997976273,False,29,0
MW-K-33K33S1,569,experiment,67,↑,right,→,1.1802727999165654,False,29,0
MW-K-33K33S1,570,experiment,88,→,right,→,0.46435309993103147,True,29,1
MW-K-33K33S1,571,experiment,97,↓,no_key,no_letter,-1.0,False,29,1
MW-K-33K33S1,572,experiment,71,↓,down,↓,0.7552948000375181,True,29,1
MW-K-33K33S1,573,experiment,66,↑,right,→,0.9833387000253424,False,29,1
MW-K-33K33S1,574,experiment,105,↑,down,↓,0.7019658000208437,False,29,1
MW-K-33K33S1,575,experiment,94,↑,down,↓,0.619413899956271,False,29,1
MW-K-33K33S1,576,experiment,100,↑,up,↑,0.5299814000027254,True,29,1
MW-K-33K33S1,577,experiment,78,←,right,→,0.8352157999761403,False,29,1
MW-K-33K33S1,578,experiment,60,←,right,→,0.9827343999641016,False,29,1
MW-K-33K33S1,579,experiment,85,↓,down,↓,0.5877811999525875,True,29,1
MW-K-33K33S1,580,experiment,57,←,right,→,0.6975588999921456,False,29,1
MW-K-33K33S1,581,experiment,72,←,right,→,0.526371099986136,False,29,1
MW-K-33K33S1,582,experiment,69,←,left,←,0.6267679000739008,True,29,1
MW-K-33K33S1,583,experiment,90,←,left,←,0.7084681999403983,True,29,1
MW-K-33K33S1,584,experiment,54,←,left,←,0.42309209995437413,True,29,1
MW-K-33K33S1,585,experiment,104,↓,down,↓,0.6355958000058308,True,29,1
MW-K-33K33S1,586,experiment,107,→,right,→,0.5993345999158919,True,29,1
MW-K-33K33S1,587,experiment,77,→,right,→,0.5423892000690103,True,29,1
MW-K-33K33S1,588,experiment,96,↓,down,↓,0.6493391999974847,True,29,1
MW-K-33K33S1,589,experiment,93,↓,down,↓,0.8329713999992236,True,29,1
MW-K-33K33S1,590,experiment,92,→,right,→,0.6097180999349803,True,29,1
MW-K-33K33S1,591,experiment,106,↑,down,↓,0.7509702999377623,False,29,1
MW-K-33K33S1,592,experiment,73,↑,up,↑,0.7050162999657914,True,29,1
MW-K-33K33S1,593,experiment,63,←,left,←,0.7524060000432655,True,29,1
MW-K-33K33S1,594,experiment,99,↓,down,↓,0.7539718999760225,True,29,1
MW-K-33K33S1,595,experiment,52,↑,down,↓,0.8111991999903694,False,29,1
MW-K-33K33S1,596,experiment,53,↓,down,↓,0.7535454999888316,True,29,1
MW-K-33K33S1,597,experiment,89,↑,up,↑,0.7985870001139119,True,29,1
MW-K-33K33S1,598,experiment,62,→,right,→,0.6026341000106186,True,29,1
MW-K-33K33S1,599,experiment,95,↑,up,↑,0.659558399929665,True,29,1
MW-K-33K33S1,600,experiment,51,↑,up,↑,0.7046025999588892,True,29,1
MW-K-33K33S1,601,experiment,70,↓,down,↓,0.6695482999784872,True,29,1
MW-K-33K33S1,602,experiment,55,↓,right,→,0.681361100054346,False,29,1
MW-K-33K33S1,603,experiment,108,↑,up,↑,0.4189166999422014,True,29,1
MW-K-33K33S1,604,experiment,49,→,right,→,0.5298177000368014,True,29,1
MW-K-33K33S1,605,experiment,58,↓,right,→,0.8656234999652952,False,29,1
MW-K-33K33S1,606,experiment,74,→,right,→,0.49502939998637885,True,29,1
MW-K-33K33S1,607,experiment,65,↓,right,→,0.50262639997527,False,29,1
MW-K-33K33S1,608,training,58,↑,up,↑,0.7248023999854922,True,29,0
MW-K-33K33S1,609,training,103,↓,down,↓,0.6299274999182671,True,29,1
MW-K-33K33S1,610,experiment,93,→,right,→,0.5908621000126004,True,29,1
MW-K-33K33S1,611,experiment,99,→,right,→,0.4307911000214517,True,29,1
MW-K-33K33S1,612,experiment,49,→,right,→,0.5574441000353545,True,29,1
MW-K-33K33S1,613,experiment,97,↓,down,↓,0.7353113000281155,True,29,1
MW-K-33K33S1,614,experiment,82,←,left,←,0.7994359999429435,True,29,1
MW-K-33K33S1,615,experiment,54,↑,down,↓,0.9580734999617562,False,29,1
MW-K-33K33S1,616,experiment,108,←,left,←,0.7243954000296071,True,29,1
MW-K-33K33S1,617,experiment,100,→,right,→,0.6548829999519512,True,29,1
MW-K-33K33S1,618,experiment,102,→,right,→,0.8917731000110507,True,29,1
MW-K-33K33S1,619,experiment,74,←,left,←,0.6960492000216618,True,29,1
MW-K-33K33S1,620,experiment,77,→,right,→,0.7549757000524551,True,29,1
MW-K-33K33S1,621,experiment,65,→,right,→,0.7596705999458209,True,29,1
MW-K-33K33S1,622,experiment,88,↓,down,↓,0.7807377999415621,True,29,1
MW-K-33K33S1,623,experiment,92,←,left,←,0.7513652000343427,True,29,1
MW-K-33K33S1,624,experiment,94,↓,down,↓,0.7386623999336734,True,29,1
MW-K-33K33S1,625,experiment,57,→,right,→,0.8026712000137195,True,29,1
MW-K-33K33S1,626,experiment,107,↑,up,↑,0.8158947000047192,True,29,1
MW-K-33K33S1,627,experiment,87,↓,down,↓,0.6587819999549538,True,29,1
MW-K-33K33S1,628,experiment,91,→,right,→,0.5952141999732703,True,29,1
MW-K-33K33S1,629,experiment,105,↑,down,↓,0.728845400037244,False,29,1
MW-K-33K33S1,630,experiment,84,←,left,←,0.6482228999957442,True,29,1
MW-K-33K33S1,631,experiment,51,↑,left,←,1.4460125000914559,False,29,1
MW-K-33K33S1,632,experiment,96,←,left,←,0.4687485999893397,True,29,1
MW-K-33K33S1,633,experiment,106,↓,down,↓,0.7434649999486282,True,29,1
MW-K-33K33S1,634,experiment,75,↓,down,↓,0.6175599000416696,True,29,1
MW-K-33K33S1,635,experiment,76,→,right,→,0.6482093000086024,True,29,1
MW-K-33K33S1,636,experiment,80,→,right,→,0.5319330999627709,True,29,1
MW-K-33K33S1,637,experiment,103,↓,down,↓,0.5332657999824733,True,29,1
MW-K-33K33S1,638,experiment,89,↓,down,↓,0.5468789000296965,True,29,1
MW-K-33K33S1,639,experiment,81,→,down,↓,0.7702745000133291,False,29,1
MW-K-33K33S1,640,experiment,59,↑,down,↓,0.8081971000647172,False,29,1
MW-K-33K33S1,641,experiment,66,↑,up,↑,0.5067366999574006,True,29,1
MW-K-33K33S1,642,experiment,104,→,right,→,0.5801227999618277,True,29,1
MW-K-33K33S1,643,experiment,52,↓,down,↓,0.6601249999366701,True,29,1
MW-K-33K33S1,644,experiment,79,→,right,→,0.7123172000283375,True,29,1
MW-K-33K33S1,645,experiment,53,←,right,→,0.618357399944216,False,29,1
MW-K-33K33S1,646,experiment,62,→,right,→,0.5656701000407338,True,29,1
MW-K-33K33S1,647,experiment,69,←,right,→,0.5046127999667078,False,29,1
MW-K-33K33S1,648,experiment,85,←,left,←,0.8566016999538988,True,29,1
MW-K-33K33S1,649,experiment,83,↓,down,↓,0.6351573999272659,True,29,1
MW-K-33K33S1,650,experiment,48,←,left,←,0.7705589999677613,True,29,1
MW-K-33K33S1,651,experiment,73,↓,down,↓,0.7076214000117034,True,29,1
MW-K-33K33S1,652,experiment,60,←,left,←,0.7479478999739513,True,29,1
MW-K-33K33S1,653,experiment,64,←,left,←,0.6973587999818847,True,29,1
MW-K-33K33S1,654,experiment,61,↓,down,↓,0.6418085000477731,True,29,1
MW-K-33K33S1,655,experiment,78,↑,up,↑,0.6065059999236837,True,29,1
MW-K-33K33S1,656,experiment,72,→,right,→,0.5988999999826774,True,29,1
MW-K-33K33S1,657,experiment,67,←,left,←,0.6091059999307618,True,29,1
MW-K-33K33S1,658,experiment,90,←,left,←,0.5635553000029176,True,29,1
MW-K-33K33S1,659,experiment,56,↑,up,↑,0.7548322000075132,True,29,1
MW-K-33K33S1,660,experiment,101,↑,up,↑,0.6195486000506207,True,29,1
MW-K-33K33S1,661,experiment,63,→,right,→,0.7025053999386728,True,29,1
MW-K-33K33S1,662,experiment,98,↑,up,↑,0.6102811000309885,True,29,1
MW-K-33K33S1,663,experiment,55,←,left,←,0.7522653000196442,True,29,1
MW-K-33K33S1,664,experiment,50,←,left,←,0.722237000009045,True,29,1
MW-K-33K33S1,665,experiment,70,→,right,→,0.6786212000297382,True,29,1
MW-K-33K33S1,666,experiment,71,↑,up,↑,0.6205851000268012,True,29,1
MW-K-33K33S1,667,experiment,58,↓,down,↓,0.6488322999794036,True,29,1
MW-K-33K33S1,668,experiment,86,↑,up,↑,0.6109024999896064,True,29,1
MW-K-33K33S1,669,experiment,68,←,left,←,0.5886465000221506,True,29,1
MW-K-33K33S1,670,experiment,95,→,right,→,0.5816234999801964,True,29,1
MW-K-33K33S1,671,training,74,→,right,→,0.6032485999166965,True,29,0
MW-K-33K33S1,672,training,81,→,right,→,0.6407907999819145,True,29,1
MW-K-33K33S1,673,experiment,89,↓,down,↓,0.6902189000975341,True,29,1
MW-K-33K33S1,674,experiment,105,→,right,→,0.5721537000499666,True,29,1
MW-K-33K33S1,675,experiment,73,←,left,←,0.7656105000060052,True,29,1
MW-K-33K33S1,676,experiment,62,→,right,→,0.6748346000676975,True,29,1
MW-K-33K33S1,677,experiment,78,↑,up,↑,0.7343773000175133,True,29,1
MW-K-33K33S1,678,experiment,58,→,right,→,0.582433299976401,True,29,1
MW-K-33K33S1,679,experiment,69,↑,up,↑,0.6248333000112325,True,29,1
MW-K-33K33S1,680,experiment,49,↓,down,↓,0.728020399925299,True,29,1
MW-K-33K33S1,681,experiment,107,↑,up,↑,0.6080269999802113,True,29,1
MW-K-33K33S1,682,experiment,79,↓,down,↓,0.7738220999017358,True,29,1
MW-K-33K33S1,683,experiment,82,↓,down,↓,0.7723733000457287,True,29,1
MW-K-33K33S1,684,experiment,63,↑,up,↑,0.6569720000261441,True,29,1
MW-K-33K33S1,685,experiment,50,↑,up,↑,0.7185596999479458,True,29,1
MW-K-33K33S1,686,experiment,80,↑,up,↑,0.5518418999854475,True,29,1
MW-K-33K33S1,687,experiment,108,←,left,←,0.6624354000668973,True,29,1
MW-K-33K33S1,688,experiment,55,←,left,←,0.7468550000339746,True,29,1
MW-K-33K33S1,689,experiment,70,↓,down,↓,0.7497291000327095,True,29,1
MW-K-33K33S1,690,experiment,68,←,left,←,0.7057930999435484,True,29,1
MW-K-33K33S1,691,experiment,91,→,left,←,0.7677206000080332,False,29,1
MW-K-33K33S1,692,experiment,71,↑,up,↑,0.642057599965483,True,29,1
MW-K-33K33S1,693,experiment,81,↑,down,↓,0.7100295999553055,False,29,1
MW-K-33K33S1,694,experiment,87,→,right,→,0.6214551000157371,True,29,1
MW-K-33K33S1,695,experiment,65,↓,down,↓,0.7034269000869244,True,29,1
MW-K-33K33S1,696,experiment,83,→,right,→,0.6329997000284493,True,29,1
MW-K-33K33S1,697,experiment,67,↑,up,↑,0.6891948999837041,True,29,1
MW-K-33K33S1,698,experiment,99,→,right,→,0.5495327999815345,True,29,1
MW-K-33K33S1,699,experiment,60,↓,down,↓,0.7318562000291422,True,29,1
MW-K-33K33S1,700,experiment,76,→,left,←,0.8856804999522865,False,29,1
MW-K-33K33S1,701,experiment,102,←,right,→,0.49737829994410276,False,29,1
MW-K-33K33S1,702,experiment,96,→,right,→,0.5425881999544799,True,29,1
MW-K-33K33S1,703,experiment,100,→,right,→,0.5277233000379056,True,29,1
MW-K-33K33S1,704,experiment,88,↑,up,↑,0.7739534999709576,True,29,1
MW-K-33K33S1,705,experiment,93,↑,up,↑,0.5927659999579191,True,29,1
MW-K-33K33S1,706,experiment,72,←,left,←,0.6177321000723168,True,29,1
MW-K-33K33S1,707,experiment,98,↑,up,↑,0.5530740999383852,True,29,1
MW-K-33K33S1,708,experiment,75,←,left,←,0.6265608000103384,True,29,1
MW-K-33K33S1,709,experiment,90,↓,down,↓,0.7643665000796318,True,29,1
MW-K-33K33S1,710,experiment,52,↑,down,↓,0.7409124999539927,False,29,1
MW-K-33K33S1,711,experiment,77,←,left,←,0.5581439000088722,True,29,1
MW-K-33K33S1,712,experiment,56,↓,down,↓,0.7337688999250531,True,29,1
MW-K-33K33S1,713,experiment,66,↑,down,↓,0.6353376000188291,False,29,1
MW-K-33K33S1,714,experiment,85,↓,down,↓,0.6220943999942392,True,29,1
MW-K-33K33S1,715,experiment,57,↓,down,↓,0.8185886000283062,True,29,1
MW-K-33K33S1,716,experiment,54,→,right,→,0.8645537999691442,True,29,1
MW-K-33K33S1,717,experiment,53,→,right,→,0.7890181000111625,True,29,1
MW-K-33K33S1,718,experiment,94,←,left,←,0.6705683999462053,True,29,1
MW-K-33K33S1,719,experiment,84,↓,down,↓,0.5841432999586686,True,29,1
MW-K-33K33S1,720,experiment,51,↑,down,↓,0.7284215999534354,False,29,1
MW-K-33K33S1,721,experiment,97,→,right,→,0.7798289000056684,True,29,1
MW-K-33K33S1,722,experiment,104,↑,up,↑,0.7304720000829548,True,29,1
MW-K-33K33S1,723,experiment,103,↑,up,↑,0.7079641999443993,True,29,1
MW-K-33K33S1,724,experiment,74,↓,down,↓,0.5114180000964552,True,29,1
MW-K-33K33S1,725,experiment,95,↑,up,↑,0.6760634999955073,True,29,1
MW-K-33K33S1,726,experiment,64,←,left,←,0.5962192000588402,True,29,1
MW-K-33K33S1,727,experiment,59,←,left,←,0.4975923999445513,True,29,1
MW-K-33K33S1,728,experiment,86,↓,down,↓,0.7054375000298023,True,29,1
MW-K-33K33S1,729,experiment,106,←,left,←,0.658631999976933,True,29,1
MW-K-33K33S1,730,experiment,48,←,left,←,0.6168853000272065,True,29,1
MW-K-33K33S1,731,experiment,92,↑,up,↑,0.7061809999868274,True,29,1
MW-K-33K33S1,732,experiment,61,↑,up,↑,0.7462103000143543,True,29,1
MW-K-33K33S1,733,experiment,101,→,right,→,0.8033753000199795,True,29,1
MW-K-33K33S1,734,training,50,↑,up,↑,0.6849096000660211,True,29,0
MW-K-33K33S1,735,training,52,→,right,→,0.6008790000341833,True,29,1
MW-K-33K33S1,736,experiment,98,↑,up,↑,0.6806850000284612,True,29,1
MW-K-33K33S1,737,experiment,75,→,right,→,0.509233699995093,True,29,1
MW-K-33K33S1,738,experiment,68,→,left,←,0.7386515999678522,False,29,1
MW-K-33K33S1,739,experiment,108,↑,up,↑,0.5377713999478146,True,29,1
MW-K-33K33S1,740,experiment,77,↓,down,↓,0.7310008000349626,True,29,1
MW-K-33K33S1,741,experiment,58,↓,down,↓,0.6829260000959039,True,29,1
MW-K-33K33S1,742,experiment,99,→,right,→,0.7354670000495389,True,29,1
MW-K-33K33S1,743,experiment,50,↓,down,↓,0.7382168000331149,True,29,1
MW-K-33K33S1,744,experiment,73,→,right,→,0.6765280000399798,True,29,1
MW-K-33K33S1,745,experiment,89,→,right,→,0.7408495999407023,True,29,1
MW-K-33K33S1,746,experiment,79,→,right,→,0.581437399960123,True,29,1
MW-K-33K33S1,747,experiment,93,→,right,→,0.6955154000315815,True,29,1
MW-K-33K33S1,748,experiment,86,↑,up,↑,0.7917091000126675,True,29,1
MW-K-33K33S1,749,experiment,53,→,right,→,0.822848099982366,True,29,1
MW-K-33K33S1,750,experiment,88,→,right,→,0.6092091000173241,True,29,1
MW-K-33K33S1,751,experiment,55,→,right,→,0.6312393000116572,True,29,1
MW-K-33K33S1,752,experiment,71,↑,up,↑,0.6228643000358716,True,29,1
MW-K-33K33S1,753,experiment,52,→,left,←,0.764965399983339,False,29,1
MW-K-33K33S1,754,experiment,95,↓,down,↓,0.7435726000694558,True,29,1
MW-K-33K33S1,755,experiment,84,↓,down,↓,0.7425033000763506,True,29,1
MW-K-33K33S1,756,experiment,65,↑,up,↑,0.7078391000395641,True,29,1
MW-K-33K33S1,757,experiment,63,←,left,←,0.7152080000378191,True,29,1
MW-K-33K33S1,758,experiment,104,→,right,→,0.7324008999858052,True,29,1
MW-K-33K33S1,759,experiment,94,↓,down,↓,0.6966195999411866,True,29,1
MW-K-33K33S1,760,experiment,91,↑,up,↑,0.49503529991488904,True,29,1
MW-K-33K33S1,761,experiment,60,→,right,→,0.5356335999676958,True,29,1
MW-K-33K33S1,762,experiment,107,↓,down,↓,0.7593776000430807,True,29,1
MW-K-33K33S1,763,experiment,97,←,left,←,0.6894491000566632,True,29,1
MW-K-33K33S1,764,experiment,87,↓,down,↓,0.6411376000614837,True,29,1
MW-K-33K33S1,765,experiment,62,→,right,→,0.6996842999942601,True,29,1
MW-K-33K33S1,766,experiment,69,↓,down,↓,0.5774024999700487,True,29,1
MW-K-33K33S1,767,experiment,48,→,right,→,0.5867058000294492,True,29,1
MW-K-33K33S1,768,experiment,59,→,right,→,0.7126229000277817,True,29,1
MW-K-33K33S1,769,experiment,64,↓,down,↓,0.5752891000593081,True,29,1
MW-K-33K33S1,770,experiment,61,→,right,→,0.6043012998998165,True,29,1
MW-K-33K33S1,771,experiment,70,→,right,→,0.48615270003210753,True,29,1
MW-K-33K33S1,772,experiment,66,←,left,←,0.6607930000172928,True,29,1
MW-K-33K33S1,773,experiment,101,↓,down,↓,0.641638399916701,True,29,1
MW-K-33K33S1,774,experiment,92,↓,down,↓,0.5460301000857726,True,29,1
MW-K-33K33S1,775,experiment,54,→,right,→,0.6745158000849187,True,29,1
MW-K-33K33S1,776,experiment,72,←,left,←,0.6800376999890432,True,29,1
MW-K-33K33S1,777,experiment,85,↑,up,↑,0.6890812999336049,True,29,1
MW-K-33K33S1,778,experiment,105,↓,down,↓,0.5389879000140354,True,29,1
MW-K-33K33S1,779,experiment,102,↑,up,↑,0.4844884000485763,True,29,1
MW-K-33K33S1,780,experiment,103,→,right,→,0.6150506000267342,True,29,1
MW-K-33K33S1,781,experiment,83,→,right,→,0.6753813999239355,True,29,1
MW-K-33K33S1,782,experiment,76,→,right,→,0.47153580002486706,True,29,1
MW-K-33K33S1,783,experiment,106,→,right,→,0.5622085999930277,True,29,1
MW-K-33K33S1,784,experiment,74,→,right,→,0.5075974999926984,True,29,1
MW-K-33K33S1,785,experiment,56,←,right,→,0.45356990001164377,False,29,1
MW-K-33K33S1,786,experiment,80,↓,down,↓,0.6972579000284895,True,29,1
MW-K-33K33S1,787,experiment,78,↓,down,↓,0.7799427999416366,True,29,1
MW-K-33K33S1,788,experiment,96,↓,down,↓,0.5891813000198454,True,29,1
MW-K-33K33S1,789,experiment,90,←,left,←,0.7120619000634179,True,29,1
MW-K-33K33S1,790,experiment,51,↓,down,↓,0.659574699937366,True,29,1
MW-K-33K33S1,791,experiment,100,←,left,←,0.7524669000413269,True,29,1
MW-K-33K33S1,792,experiment,57,→,right,→,0.6561209999490529,True,29,1
MW-K-33K33S1,793,experiment,81,↑,up,↑,0.5793868999462575,True,29,1
MW-K-33K33S1,794,experiment,67,←,left,←,0.6304470000322908,True,29,1
MW-K-33K33S1,795,experiment,82,→,right,→,0.6742112999781966,True,29,1
MW-K-33K33S1,796,experiment,49,↑,up,↑,0.7116785000544041,True,29,1
MW-K-33K33S1,797,training,104,←,left,←,0.650234799948521,True,28,0
MW-K-33K33S1,798,training,73,↓,up,↑,0.784350199974142,False,28,1
MW-K-33K33S1,799,experiment,69,↓,up,↑,0.8668655999936163,False,28,1
MW-K-33K33S1,800,experiment,56,↑,up,↑,0.7742148999823257,True,28,1
MW-K-33K33S1,801,experiment,106,→,right,→,0.668373900000006,True,28,1
MW-K-33K33S1,802,experiment,88,←,left,←,0.6292041999986395,True,28,1
MW-K-33K33S1,803,experiment,102,↓,down,↓,0.7065946999937296,True,28,1
MW-K-33K33S1,804,experiment,81,↑,down,↓,0.6518647000193596,False,28,1
MW-K-33K33S1,805,experiment,92,→,right,→,0.6998889999231324,True,28,1
MW-K-33K33S1,806,experiment,100,→,right,→,0.647263600025326,True,28,1
MW-K-33K33S1,807,experiment,51,↓,down,↓,0.853024399955757,True,28,1
MW-K-33K33S1,808,experiment,64,↓,down,↓,0.6380952999461442,True,28,1
MW-K-33K33S1,809,experiment,76,↑,up,↑,0.5557293999008834,True,28,1
MW-K-33K33S1,810,experiment,87,↑,up,↑,0.4735237000277266,True,28,1
MW-K-33K33S1,811,experiment,98,↓,down,↓,0.7260697999736294,True,28,1
MW-K-33K33S1,812,experiment,86,↓,down,↓,0.7970861999783665,True,28,1
MW-K-33K33S1,813,experiment,80,←,left,←,0.5872067000018433,True,28,1
MW-K-33K33S1,814,experiment,107,↑,down,↓,0.6805159000214189,False,28,1
MW-K-33K33S1,815,experiment,66,→,right,→,0.6717303999466822,True,28,1
MW-K-33K33S1,816,experiment,97,→,right,→,0.5093392999842763,True,28,1
MW-K-33K33S1,817,experiment,82,←,left,←,0.5261025000363588,True,28,1
MW-K-33K33S1,818,experiment,62,←,right,→,0.8050876000197604,False,28,1
MW-K-33K33S1,819,experiment,77,←,left,←,0.7075089999707416,True,28,1
MW-K-33K33S1,820,experiment,55,→,right,→,0.6615765999304131,True,28,1
MW-K-33K33S1,821,experiment,61,↑,up,↑,0.8475480999331921,True,28,1
MW-K-33K33S1,822,experiment,52,↓,up,↑,0.8447941000340506,False,28,1
MW-K-33K33S1,823,experiment,85,↓,up,↑,0.6474801999283955,False,28,1
MW-K-33K33S1,824,experiment,68,→,right,→,0.8235229999991134,True,28,1
MW-K-33K33S1,825,experiment,91,→,right,→,0.6649622999830171,True,28,1
MW-K-33K33S1,826,experiment,70,↓,down,↓,0.7035343999741599,True,28,1
MW-K-33K33S1,827,experiment,53,→,right,→,0.5624406000133604,True,28,1
MW-K-33K33S1,828,experiment,63,←,left,←,0.6235669999150559,True,28,1
MW-K-33K33S1,829,experiment,79,←,left,←,0.5327200000174344,True,28,1
MW-K-33K33S1,830,experiment,49,↓,up,↑,1.0558125999523327,False,28,1
MW-K-33K33S1,831,experiment,60,↓,up,↑,0.8018504999345168,False,28,1
MW-K-33K33S1,832,experiment,58,↑,up,↑,0.5272892999928445,True,28,1
MW-K-33K33S1,833,experiment,57,↓,down,↓,0.695670900051482,True,28,1
MW-K-33K33S1,834,experiment,95,↓,down,↓,0.645263500045985,True,28,1
MW-K-33K33S1,835,experiment,108,↓,down,↓,0.5921967000467703,True,28,1
MW-K-33K33S1,836,experiment,103,↓,down,↓,0.6628743999172002,True,28,1
MW-K-33K33S1,837,experiment,105,→,right,→,0.682112600072287,True,28,1
MW-K-33K33S1,838,experiment,104,↓,down,↓,0.644683999940753,True,28,1
MW-K-33K33S1,839,experiment,93,→,right,→,0.8447179000359029,True,28,1
MW-K-33K33S1,840,experiment,72,→,right,→,0.5875846999697387,True,28,1
MW-K-33K33S1,841,experiment,74,→,right,→,0.6926175000844523,True,28,1
MW-K-33K33S1,842,experiment,50,↓,down,↓,0.632683900068514,True,28,1
MW-K-33K33S1,843,experiment,67,→,right,→,0.5296063999412581,True,28,1
MW-K-33K33S1,844,experiment,48,←,right,→,0.8527258000103757,False,28,1
MW-K-33K33S1,845,experiment,83,→,right,→,0.4801719000097364,True,28,1
MW-K-33K33S1,846,experiment,90,→,right,→,0.6390078999102116,True,28,1
MW-K-33K33S1,847,experiment,101,↑,up,↑,0.524297000025399,True,28,1
MW-K-33K33S1,848,experiment,54,←,left,←,0.4941084999591112,True,28,1
MW-K-33K33S1,849,experiment,94,→,right,→,0.5395398999098688,True,28,1
MW-K-33K33S1,850,experiment,89,↓,down,↓,0.6328062999527901,True,28,1
MW-K-33K33S1,851,experiment,96,↑,up,↑,0.5201790999853984,True,28,1
MW-K-33K33S1,852,experiment,71,↓,down,↓,0.5484082999173552,True,28,1
MW-K-33K33S1,853,experiment,73,→,right,→,0.5506205999990925,True,28,1
MW-K-33K33S1,854,experiment,75,↑,up,↑,0.6242905999533832,True,28,1
MW-K-33K33S1,855,experiment,84,←,left,←,0.628097900073044,True,28,1
MW-K-33K33S1,856,experiment,59,←,left,←,0.5440079999389127,True,28,1
MW-K-33K33S1,857,experiment,65,←,left,←,0.6693026000866666,True,28,1
MW-K-33K33S1,858,experiment,78,↓,down,↓,0.5692017000401393,True,28,1
MW-K-33K33S1,859,experiment,99,→,right,→,0.7382128000026569,True,28,1
MW-K-33K33S1,860,training,88,↑,down,↓,0.7713842000812292,False,28,0
MW-K-33K33S1,861,training,55,↑,up,↑,0.5950800999999046,True,28,1
MW-K-33K33S1,862,experiment,94,↑,up,↑,0.6047371999593452,True,28,1
MW-K-33K33S1,863,experiment,82,←,left,←,0.5617654999950901,True,28,1
MW-K-33K33S1,864,experiment,70,←,left,←,0.6047285000095144,True,28,1
MW-K-33K33S1,865,experiment,51,→,left,←,0.6599427999462932,False,28,1
MW-K-33K33S1,866,experiment,86,←,left,←,0.48565590009093285,True,28,1
MW-K-33K33S1,867,experiment,90,←,right,→,0.764877500012517,False,28,1
MW-K-33K33S1,868,experiment,75,↓,down,↓,0.7017554000485688,True,28,1
MW-K-33K33S1,869,experiment,92,↑,up,↑,1.0595331999938935,True,28,1
MW-K-33K33S1,870,experiment,100,↑,up,↑,0.6569126000395045,True,28,1
MW-K-33K33S1,871,experiment,59,→,right,→,0.5315385999856517,True,28,1
MW-K-33K33S1,872,experiment,77,↓,down,↓,0.6053467000601813,True,28,1
MW-K-33K33S1,873,experiment,96,↑,down,↓,0.7414271000307053,False,28,1
MW-K-33K33S1,874,experiment,85,←,left,←,0.5000842999434099,True,28,1
MW-K-33K33S1,875,experiment,58,↑,up,↑,0.5253167999908328,True,28,1
MW-K-33K33S1,876,experiment,66,↓,down,↓,0.6591047999681905,True,28,1
MW-K-33K33S1,877,experiment,80,→,right,→,0.5987712999340147,True,28,1
MW-K-33K33S1,878,experiment,83,↓,down,↓,0.6115909999934956,True,28,1
MW-K-33K33S1,879,experiment,103,↓,down,↓,0.6815801000921056,True,28,1
MW-K-33K33S1,880,experiment,93,→,right,→,0.5919032000238076,True,28,1
MW-K-33K33S1,881,experiment,69,↑,up,↑,0.5859152000630274,True,28,1
MW-K-33K33S1,882,experiment,64,↑,up,↑,0.8456119999755174,True,28,1
MW-K-33K33S1,883,experiment,61,↓,down,↓,0.6481186000164598,True,28,1
MW-K-33K33S1,884,experiment,108,←,down,↓,0.6910669000353664,False,28,1
MW-K-33K33S1,885,experiment,87,←,right,→,0.6910552000626922,False,28,1
MW-K-33K33S1,886,experiment,91,↓,down,↓,0.6736074999207631,True,28,1
MW-K-33K33S1,887,experiment,52,↑,up,↑,0.5418597999960184,True,28,1
MW-K-33K33S1,888,experiment,54,→,right,→,0.7906611000653356,True,28,1
MW-K-33K33S1,889,experiment,57,↑,down,↓,1.0846586000407115,False,28,1
MW-K-33K33S1,890,experiment,62,↓,down,↓,0.6214847000082955,True,28,1
MW-K-33K33S1,891,experiment,56,→,right,→,0.7382742000045255,True,28,1
MW-K-33K33S1,892,experiment,105,→,right,→,0.6264253000263125,True,28,1
MW-K-33K33S1,893,experiment,55,↓,down,↓,0.6479229999240488,True,28,1
MW-K-33K33S1,894,experiment,97,←,left,←,0.7263826999114826,True,28,1
MW-K-33K33S1,895,experiment,84,↓,down,↓,0.6697974000126123,True,28,1
MW-K-33K33S1,896,experiment,81,↓,left,←,0.8888398000271991,False,28,1
MW-K-33K33S1,897,experiment,76,↓,down,↓,0.7004610999720171,True,28,1
MW-K-33K33S1,898,experiment,78,↓,down,↓,0.6149242999963462,True,28,1
MW-K-33K33S1,899,experiment,88,↓,down,↓,0.6096964000025764,True,28,1
MW-K-33K33S1,900,experiment,72,→,right,→,0.5779110000003129,True,28,1
MW-K-33K33S1,901,experiment,60,←,left,←,0.7755926999961957,True,28,1
MW-K-33K33S1,902,experiment,106,↓,down,↓,0.5979209000943229,True,28,1
MW-K-33K33S1,903,experiment,63,↑,up,↑,0.8335106999147683,True,28,1
MW-K-33K33S1,904,experiment,73,→,right,→,0.5047691999934614,True,28,1
MW-K-33K33S1,905,experiment,99,←,left,←,0.76403990003746,True,28,1
MW-K-33K33S1,906,experiment,53,←,left,←,0.5963112000608817,True,28,1
MW-K-33K33S1,907,experiment,49,↑,up,↑,0.49212700000498444,True,28,1
MW-K-33K33S1,908,experiment,79,←,left,←,0.590932699968107,True,28,1
MW-K-33K33S1,909,experiment,107,→,right,→,0.7805716999573633,True,28,1
MW-K-33K33S1,910,experiment,65,→,right,→,0.6482685001101345,True,28,1
MW-K-33K33S1,911,experiment,104,↓,down,↓,0.708027399959974,True,28,1
MW-K-33K33S1,912,experiment,98,←,left,←,0.6238583000376821,True,28,1
MW-K-33K33S1,913,experiment,68,↓,down,↓,0.5931853000074625,True,28,1
MW-K-33K33S1,914,experiment,67,↓,down,↓,0.7074479000875726,True,28,1
MW-K-33K33S1,915,experiment,50,→,right,→,0.7114085999783128,True,28,1
MW-K-33K33S1,916,experiment,48,↓,down,↓,0.5712916000047699,True,28,1
MW-K-33K33S1,917,experiment,71,↑,down,↓,0.6690237999428064,False,28,1
MW-K-33K33S1,918,experiment,89,↓,down,↓,0.5493327000876889,True,28,1
MW-K-33K33S1,919,experiment,101,→,right,→,0.5103694999124855,True,28,1
MW-K-33K33S1,920,experiment,74,↑,down,↓,0.7304356000386178,False,28,1
MW-K-33K33S1,921,experiment,102,←,left,←,0.8995053000980988,True,28,1
MW-K-33K33S1,922,experiment,95,←,left,←,0.66458799992688,True,28,1
MW-K-33K33S1,923,training,98,↑,up,↑,1.0078347999369726,True,28,0
MW-K-33K33S1,924,training,94,↓,left,←,0.8888241000240669,False,28,1
MW-K-33K33S1,925,experiment,65,↓,left,←,0.5845093000680208,False,28,1
MW-K-33K33S1,926,experiment,102,→,right,→,0.5677390999626368,True,28,1
MW-K-33K33S1,927,experiment,59,→,right,→,0.5259056999348104,True,28,1
MW-K-33K33S1,928,experiment,72,↓,down,↓,0.7854959999676794,True,28,1
MW-K-33K33S1,929,experiment,68,←,left,←,0.6841211999999359,True,28,1
MW-K-33K33S1,930,experiment,88,←,left,←,0.5482156000798568,True,28,1
MW-K-33K33S1,931,experiment,70,→,down,↓,0.8314845999702811,False,28,1
MW-K-33K33S1,932,experiment,49,↑,down,↓,0.6865310000721365,False,28,1
MW-K-33K33S1,933,experiment,62,↓,down,↓,0.7113995000254363,True,28,1
MW-K-33K33S1,934,experiment,56,↓,down,↓,0.7767493999563158,True,28,1
MW-K-33K33S1,935,experiment,48,↑,up,↑,0.6022913999622688,True,28,1
MW-K-33K33S1,936,experiment,99,→,right,→,0.6257283999584615,True,28,1
MW-K-33K33S1,937,experiment,55,→,right,→,0.6632361999945715,True,28,1
MW-K-33K33S1,938,experiment,80,↑,up,↑,0.5544677000725642,True,28,1
MW-K-33K33S1,939,experiment,50,→,right,→,0.7158411999698728,True,28,1
MW-K-33K33S1,940,experiment,53,→,right,→,0.7020860000047833,True,28,1
MW-K-33K33S1,941,experiment,64,→,right,→,0.5895223000552505,True,28,1
MW-K-33K33S1,942,experiment,74,↑,up,↑,0.5977887000190094,True,28,1
MW-K-33K33S1,943,experiment,108,→,right,→,0.6986835000570863,True,28,1
MW-K-33K33S1,944,experiment,95,→,right,→,0.5995586999924853,True,28,1
MW-K-33K33S1,945,experiment,107,↓,down,↓,0.7166639999486506,True,28,1
MW-K-33K33S1,946,experiment,75,←,left,←,0.7353740999242291,True,28,1
MW-K-33K33S1,947,experiment,86,↓,down,↓,0.7342127999290824,True,28,1
MW-K-33K33S1,948,experiment,94,↑,up,↑,0.554196499986574,True,28,1
MW-K-33K33S1,949,experiment,58,←,left,←,0.6732045999960974,True,28,1
MW-K-33K33S1,950,experiment,82,→,right,→,0.6434424000326544,True,28,1
MW-K-33K33S1,951,experiment,69,↓,up,↑,0.7558624000521377,False,28,1
MW-K-33K33S1,952,experiment,91,←,left,←,0.5354470999445766,True,28,1
MW-K-33K33S1,953,experiment,105,↑,up,↑,0.6240418000379577,True,28,1
MW-K-33K33S1,954,experiment,63,↑,up,↑,0.5624518999829888,True,28,1
MW-K-33K33S1,955,experiment,93,↑,up,↑,0.5657752999104559,True,28,1
MW-K-33K33S1,956,experiment,83,↑,up,↑,0.6441490000579506,True,28,1
MW-K-33K33S1,957,experiment,67,↑,up,↑,0.5325968000106514,True,28,1
MW-K-33K33S1,958,experiment,89,←,left,←,0.5062427999218926,True,28,1
MW-K-33K33S1,959,experiment,97,↓,down,↓,0.7262466000393033,True,28,1
MW-K-33K33S1,960,experiment,103,↓,down,↓,0.7037171999691054,True,28,1
MW-K-33K33S1,961,experiment,90,←,left,←,0.5421804999932647,True,28,1
MW-K-33K33S1,962,experiment,87,↓,down,↓,0.6681669000536203,True,28,1
MW-K-33K33S1,963,experiment,71,↓,down,↓,0.5383027999196202,True,28,1
MW-K-33K33S1,964,experiment,81,↓,down,↓,0.890430900035426,True,28,1
MW-K-33K33S1,965,experiment,84,←,left,←,0.5312241999199614,True,28,1
MW-K-33K33S1,966,experiment,85,↓,down,↓,0.650227400008589,True,28,1
MW-K-33K33S1,967,experiment,104,↑,down,↓,0.686418299912475,False,28,1
MW-K-33K33S1,968,experiment,77,↑,down,↓,0.6262895000400022,False,28,1
MW-K-33K33S1,969,experiment,60,→,no_key,no_letter,-1.0,False,28,1
MW-K-33K33S1,970,experiment,98,↓,down,↓,0.737933799973689,True,28,1
MW-K-33K33S1,971,experiment,51,←,left,←,0.7078770999796689,True,28,1
MW-K-33K33S1,972,experiment,73,←,left,←,0.575897799921222,True,28,1
MW-K-33K33S1,973,experiment,79,→,left,←,0.7192266000201926,False,28,1
MW-K-33K33S1,974,experiment,96,↑,down,↓,0.7073961000423878,False,28,1
MW-K-33K33S1,975,experiment,78,↑,down,↓,0.6377107999287546,False,28,1
MW-K-33K33S1,976,experiment,76,↓,down,↓,0.5311954999342561,True,28,1
MW-K-33K33S1,977,experiment,100,→,right,→,0.6131097000325099,True,28,1
MW-K-33K33S1,978,experiment,61,←,right,→,0.7288938999408856,False,28,1
MW-K-33K33S1,979,experiment,106,↑,down,↓,0.6652880000183359,False,28,1
MW-K-33K33S1,980,experiment,54,→,right,→,0.6367065999656916,True,28,1
MW-K-33K33S1,981,experiment,92,←,left,←,0.7093442999757826,True,28,1
MW-K-33K33S1,982,experiment,66,←,left,←,0.5959684000117704,True,28,1
MW-K-33K33S1,983,experiment,52,↓,down,↓,0.6349518999923021,True,28,1
MW-K-33K33S1,984,experiment,101,↑,up,↑,0.7608197999652475,True,28,1
MW-K-33K33S1,985,experiment,57,→,right,→,0.5043413999956101,True,28,1
MW-K-33K33S1,986,training,77,↓,down,↓,0.7483561999397352,True,28,0
MW-K-33K33S1,987,training,103,→,right,→,0.6364323000889271,True,28,1
MW-K-33K33S1,988,experiment,52,←,left,←,0.6663412000052631,True,28,1
MW-K-33K33S1,989,experiment,51,→,right,→,0.7832435000455007,True,28,1
MW-K-33K33S1,990,experiment,70,←,left,←,0.6652707000030205,True,28,1
MW-K-33K33S1,991,experiment,88,→,right,→,0.6980709000490606,True,28,1
MW-K-33K33S1,992,experiment,87,↓,down,↓,0.7776395999826491,True,28,1
MW-K-33K33S1,993,experiment,53,↑,up,↑,0.6982516000280157,True,28,1
MW-K-33K33S1,994,experiment,76,←,left,←,0.6928453999571502,True,28,1
MW-K-33K33S1,995,experiment,96,←,left,←,0.5939150000922382,True,28,1
MW-K-33K33S1,996,experiment,97,↑,down,↓,0.7066275000106543,False,28,1
MW-K-33K33S1,997,experiment,83,↑,up,↑,0.6755575999850407,True,28,1
MW-K-33K33S1,998,experiment,90,→,left,←,0.523095199954696,False,28,1
MW-K-33K33S1,999,experiment,93,↓,down,↓,0.8075955000240356,True,28,1
MW-K-33K33S1,1000,experiment,108,↑,down,↓,0.7482188999420032,False,28,1
MW-K-33K33S1,1001,experiment,50,←,left,←,0.7022204999811947,True,28,1
MW-K-33K33S1,1002,experiment,89,→,right,→,0.6848914000438526,True,28,1
MW-K-33K33S1,1003,experiment,104,←,left,←,0.5756546999327838,True,28,1
MW-K-33K33S1,1004,experiment,64,↓,down,↓,1.027954899938777,True,28,1
MW-K-33K33S1,1005,experiment,103,↓,down,↓,0.6816943000303581,True,28,1
MW-K-33K33S1,1006,experiment,71,↑,down,↓,0.7989119000267237,False,28,1
MW-K-33K33S1,1007,experiment,79,↓,down,↓,0.6056251999689266,True,28,1
MW-K-33K33S1,1008,experiment,99,→,right,→,0.7007402000017464,True,28,1
MW-K-33K33S1,1009,experiment,77,→,right,→,0.775943799992092,True,28,1
MW-K-33K33S1,1010,experiment,68,→,right,→,0.5389631999423727,True,28,1
MW-K-33K33S1,1011,experiment,92,→,right,→,0.5271016000770032,True,28,1
MW-K-33K33S1,1012,experiment,48,→,right,→,0.7067671999102458,True,28,1
MW-K-33K33S1,1013,experiment,102,↑,up,↑,0.7168709000106901,True,28,1
MW-K-33K33S1,1014,experiment,55,↑,up,↑,0.6386362999910489,True,28,1
MW-K-33K33S1,1015,experiment,65,→,right,→,0.9358610000927001,True,28,1
MW-K-33K33S1,1016,experiment,106,↑,up,↑,0.7042124000145122,True,28,1
MW-K-33K33S1,1017,experiment,54,←,left,←,0.7064257999882102,True,28,1
MW-K-33K33S1,1018,experiment,57,←,up,↑,0.731579800019972,False,28,1
MW-K-33K33S1,1019,experiment,86,↑,up,↑,0.6182907000184059,True,28,1
MW-K-33K33S1,1020,experiment,85,↑,up,↑,0.6940720999846235,True,28,1
MW-K-33K33S1,1021,experiment,95,↓,down,↓,0.6431178000057116,True,28,1
MW-K-33K33S1,1022,experiment,84,→,right,→,0.7501942999660969,True,28,1
MW-K-33K33S1,1023,experiment,61,→,right,→,0.6606529999990016,True,28,1
MW-K-33K33S1,1024,experiment,100,↑,up,↑,0.6421036999672651,True,28,1
MW-K-33K33S1,1025,experiment,62,→,right,→,0.5717482999898493,True,28,1
MW-K-33K33S1,1026,experiment,78,↑,up,↑,0.515428000013344,True,28,1
MW-K-33K33S1,1027,experiment,49,↑,up,↑,0.655176000087522,True,28,1
MW-K-33K33S1,1028,experiment,82,↓,up,↑,0.8257908000377938,False,28,1
MW-K-33K33S1,1029,experiment,98,→,left,←,0.8090960000408813,False,28,1
MW-K-33K33S1,1030,experiment,80,↑,up,↑,0.5667390999151394,True,28,1
MW-K-33K33S1,1031,experiment,107,↓,down,↓,0.6052747999783605,True,28,1
MW-K-33K33S1,1032,experiment,81,→,right,→,0.690528400009498,True,28,1
MW-K-33K33S1,1033,experiment,66,←,left,←,0.5856803000206128,True,28,1
MW-K-33K33S1,1034,experiment,72,↑,up,↑,0.602695900015533,True,28,1
MW-K-33K33S1,1035,experiment,94,↓,left,←,0.7879582999739796,False,28,1
MW-K-33K33S1,1036,experiment,60,↑,up,↑,0.5129280999535695,True,28,1
MW-K-33K33S1,1037,experiment,75,↑,down,↓,1.0124505000421777,False,28,1
MW-K-33K33S1,1038,experiment,58,↑,up,↑,0.5691202000016347,True,28,1
MW-K-33K33S1,1039,experiment,105,↓,down,↓,0.6163743000943214,True,28,1
MW-K-33K33S1,1040,experiment,67,↓,down,↓,0.6738414000719786,True,28,1
MW-K-33K33S1,1041,experiment,101,↓,down,↓,0.6620271999854594,True,28,1
MW-K-33K33S1,1042,experiment,59,↓,down,↓,0.6723812000127509,True,28,1
MW-K-33K33S1,1043,experiment,69,→,down,↓,0.6232064999639988,False,28,1
MW-K-33K33S1,1044,experiment,73,→,down,↓,0.5664574999827892,False,28,1
MW-K-33K33S1,1045,experiment,56,→,left,←,0.9177282999735326,False,28,1
MW-K-33K33S1,1046,experiment,91,↑,up,↑,0.5714212999446318,True,28,1
MW-K-33K33S1,1047,experiment,74,↑,up,↑,0.46021940000355244,True,28,1
MW-K-33K33S1,1048,experiment,63,→,right,→,0.6854927000822499,True,28,1
MW-K-33K33S1,1049,training,61,↑,down,↓,0.6783371999626979,False,28,0
MW-K-33K33S1,1050,training,63,↑,up,↑,0.47896510001737624,True,28,1
MW-K-33K33S1,1051,experiment,102,→,right,→,0.9063362999586388,True,28,1
MW-K-33K33S1,1052,experiment,107,↑,up,↑,0.43512540007941425,True,28,1
MW-K-33K33S1,1053,experiment,78,↓,down,↓,0.5922761999536306,True,28,1
MW-K-33K33S1,1054,experiment,56,→,right,→,0.5909959999844432,True,28,1
MW-K-33K33S1,1055,experiment,73,→,right,→,0.51125839992892,True,28,1
MW-K-33K33S1,1056,experiment,72,→,right,→,0.4038586999522522,True,28,1
MW-K-33K33S1,1057,experiment,95,↑,down,↓,0.7080537000438198,False,28,1
MW-K-33K33S1,1058,experiment,69,→,right,→,0.5852447000797838,True,28,1
MW-K-33K33S1,1059,experiment,79,↓,down,↓,0.8482074999483302,True,28,1
MW-K-33K33S1,1060,experiment,49,↑,left,←,0.5504526000004262,False,28,1
MW-K-33K33S1,1061,experiment,67,↓,right,→,0.7391444999957457,False,28,1
MW-K-33K33S1,1062,experiment,80,→,right,→,0.46731249999720603,True,28,1
MW-K-33K33S1,1063,experiment,97,→,right,→,0.5368296999949962,True,28,1
MW-K-33K33S1,1064,experiment,75,↑,up,↑,0.5551409999607131,True,28,1
MW-K-33K33S1,1065,experiment,63,→,right,→,0.49644239991903305,True,28,1
MW-K-33K33S1,1066,experiment,52,↑,up,↑,0.435383899952285,True,28,1
MW-K-33K33S1,1067,experiment,103,↑,up,↑,0.6244932000990957,True,28,1
MW-K-33K33S1,1068,experiment,87,↓,down,↓,0.7549437000416219,True,28,1
MW-K-33K33S1,1069,experiment,86,↑,up,↑,0.47324289998505265,True,28,1
MW-K-33K33S1,1070,experiment,58,↓,down,↓,0.5869135999819264,True,28,1
MW-K-33K33S1,1071,experiment,62,↓,down,↓,0.6235131000867113,True,28,1
MW-K-33K33S1,1072,experiment,54,↑,up,↑,0.5732334000058472,True,28,1
MW-K-33K33S1,1073,experiment,98,↑,down,↓,0.6860875999554992,False,28,1
MW-K-33K33S1,1074,experiment,101,←,left,←,1.0338878999464214,True,28,1
MW-K-33K33S1,1075,experiment,90,→,right,→,0.6274068999337032,True,28,1
MW-K-33K33S1,1076,experiment,99,↑,left,←,0.5299442999530584,False,28,1
MW-K-33K33S1,1077,experiment,94,↓,down,↓,0.6539141000248492,True,28,1
MW-K-33K33S1,1078,experiment,96,→,left,←,0.540334300021641,False,28,1
MW-K-33K33S1,1079,experiment,82,↓,down,↓,0.5717906999634579,True,28,1
MW-K-33K33S1,1080,experiment,84,→,right,→,0.849545200006105,True,28,1
MW-K-33K33S1,1081,experiment,59,↓,down,↓,0.6442905999720097,True,28,1
MW-K-33K33S1,1082,experiment,108,→,right,→,0.7036361999344081,True,28,1
MW-K-33K33S1,1083,experiment,81,←,left,←,0.6569150000577793,True,28,1
MW-K-33K33S1,1084,experiment,71,←,left,←,0.6477142000803724,True,28,1
MW-K-33K33S1,1085,experiment,91,→,right,→,0.5038988000014797,True,28,1
MW-K-33K33S1,1086,experiment,60,←,left,←,0.5680465999757871,True,28,1
MW-K-33K33S1,1087,experiment,51,↑,up,↑,0.6411156000103801,True,28,1
MW-K-33K33S1,1088,experiment,100,↓,down,↓,0.6548690999625251,True,28,1
MW-K-33K33S1,1089,experiment,48,→,right,→,0.6049769000383094,True,28,1
MW-K-33K33S1,1090,experiment,53,↑,up,↑,0.579598099924624,True,28,1
MW-K-33K33S1,1091,experiment,61,←,left,←,0.5123037999728695,True,28,1
MW-K-33K33S1,1092,experiment,93,↑,down,↓,0.6453495000023395,False,28,1
MW-K-33K33S1,1093,experiment,89,→,right,→,0.5024922000011429,True,28,1
MW-K-33K33S1,1094,experiment,85,↓,down,↓,0.6144288999494165,True,28,1
MW-K-33K33S1,1095,experiment,68,→,right,→,0.6558344999793917,True,28,1
MW-K-33K33S1,1096,experiment,83,→,right,→,0.6344210000243038,True,28,1
MW-K-33K33S1,1097,experiment,55,↓,down,↓,0.6553724999539554,True,28,1
MW-K-33K33S1,1098,experiment,65,↑,up,↑,0.815950500080362,True,28,1
MW-K-33K33S1,1099,experiment,64,→,right,→,0.5226276000030339,True,28,1
MW-K-33K33S1,1100,experiment,74,↓,down,↓,0.6457551999483258,True,28,1
MW-K-33K33S1,1101,experiment,106,↓,down,↓,0.6658245000289753,True,28,1
MW-K-33K33S1,1102,experiment,88,←,left,←,0.6343677999684587,True,28,1
MW-K-33K33S1,1103,experiment,70,→,right,→,0.7299773000413552,True,28,1
MW-K-33K33S1,1104,experiment,66,←,left,←,0.48723109997808933,True,28,1
MW-K-33K33S1,1105,experiment,77,←,left,←,0.6667115000309423,True,28,1
MW-K-33K33S1,1106,experiment,50,↓,down,↓,0.5284040999831632,True,28,1
MW-K-33K33S1,1107,experiment,92,↓,down,↓,0.6288891999283805,True,28,1
MW-K-33K33S1,1108,experiment,104,←,left,←,0.6981290000258014,True,28,1
MW-K-33K33S1,1109,experiment,105,↓,down,↓,0.6275424000341445,True,28,1
MW-K-33K33S1,1110,experiment,57,↑,right,→,0.6879049999406561,False,28,1
MW-K-33K33S1,1111,experiment,76,←,left,←,0.5557162999175489,True,28,1
MW-K-33K33S1,1112,training,81,→,left,←,0.5468564000912011,False,28,0
MW-K-33K33S1,1113,training,107,←,left,←,0.6259091999381781,True,28,1
MW-K-33K33S1,1114,experiment,78,↓,up,↑,0.6795015999814495,False,28,1
MW-K-33K33S1,1115,experiment,57,→,right,→,0.6178951000329107,True,28,1
MW-K-33K33S1,1116,experiment,71,←,left,←,0.44228199997451156,True,28,1
MW-K-33K33S1,1117,experiment,60,←,right,→,0.3757590999593958,False,28,1
MW-K-33K33S1,1118,experiment,62,←,left,←,0.47352509992197156,True,28,0
MW-K-33K33S1,1119,experiment,50,←,left,←,0.4303426999831572,True,28,1
MW-K-33K33S1,1120,experiment,56,↑,up,↑,0.6191717999754474,True,28,1
MW-K-33K33S1,1121,experiment,53,←,left,←,0.5050617000088096,True,28,1
MW-K-33K33S1,1122,experiment,64,←,left,←,0.5918395000044256,True,28,1
MW-K-33K33S1,1123,experiment,99,←,left,←,0.4164841000456363,True,28,1
MW-K-33K33S1,1124,experiment,52,↓,left,←,0.5027525000041351,False,28,1
MW-K-33K33S1,1125,experiment,102,↑,left,←,0.3758925999281928,False,28,1
MW-K-33K33S1,1126,experiment,91,←,left,←,0.6838888000929728,True,28,0
MW-K-33K33S1,1127,experiment,101,↑,up,↑,0.5596655000699684,True,28,1
MW-K-33K33S1,1128,experiment,98,←,left,←,0.5293333000736311,True,28,1
MW-K-33K33S1,1129,experiment,85,→,right,→,0.6242440999485552,True,28,1
MW-K-33K33S1,1130,experiment,67,↓,down,↓,0.9054254000075161,True,28,1
MW-K-33K33S1,1131,experiment,90,←,left,←,0.49615739996079355,True,28,1
MW-K-33K33S1,1132,experiment,59,→,right,→,0.6248344000196084,True,28,1
MW-K-33K33S1,1133,experiment,94,↓,down,↓,0.9613443999551237,True,28,1
MW-K-33K33S1,1134,experiment,100,↓,down,↓,0.6826209999853745,True,28,1
MW-K-33K33S1,1135,experiment,65,←,left,←,0.6500595000106841,True,28,1
MW-K-33K33S1,1136,experiment,108,→,right,→,0.7725333000998944,True,28,1
MW-K-33K33S1,1137,experiment,68,←,right,→,0.6476553999818861,False,28,1
MW-K-33K33S1,1138,experiment,89,↓,down,↓,0.592615699977614,True,28,1
MW-K-33K33S1,1139,experiment,51,↑,up,↑,0.7366839000023901,True,28,1
MW-K-33K33S1,1140,experiment,81,←,left,←,0.6489641999360174,True,28,1
MW-K-33K33S1,1141,experiment,103,↓,down,↓,0.6053046000888571,True,28,1
MW-K-33K33S1,1142,experiment,63,↑,up,↑,0.5686611999990419,True,28,1
MW-K-33K33S1,1143,experiment,83,↓,down,↓,0.7426703999517485,True,28,1
MW-K-33K33S1,1144,experiment,107,↑,down,↓,0.6781961999367923,False,28,1
MW-K-33K33S1,1145,experiment,88,←,left,←,0.5587350999703631,True,28,1
MW-K-33K33S1,1146,experiment,73,↑,up,↑,0.6244346000021324,True,28,1
MW-K-33K33S1,1147,experiment,97,↑,up,↑,0.5679629000369459,True,28,1
MW-K-33K33S1,1148,experiment,75,←,left,←,0.6648091999813914,True,28,1
MW-K-33K33S1,1149,experiment,87,→,right,→,0.5376082999864593,True,28,1
MW-K-33K33S1,1150,experiment,61,←,left,←,0.6165248999604955,True,28,1
MW-K-33K33S1,1151,experiment,58,→,right,→,0.548929400043562,True,28,1
MW-K-33K33S1,1152,experiment,80,↑,up,↑,0.6768163000233471,True,28,1
MW-K-33K33S1,1153,experiment,49,→,left,←,0.7621155000524595,False,28,1
MW-K-33K33S1,1154,experiment,76,↑,up,↑,0.5467087000142783,True,28,1
MW-K-33K33S1,1155,experiment,70,↑,up,↑,0.6860199000220746,True,28,1
MW-K-33K33S1,1156,experiment,66,←,left,←,0.5732151999836788,True,28,1
MW-K-33K33S1,1157,experiment,74,↑,up,↑,0.646197099937126,True,28,1
MW-K-33K33S1,1158,experiment,48,↑,up,↑,0.7092978999717161,True,28,1
MW-K-33K33S1,1159,experiment,104,→,right,→,0.6948316000634804,True,28,1
MW-K-33K33S1,1160,experiment,77,→,right,→,0.8340960000641644,True,28,1
MW-K-33K33S1,1161,experiment,55,→,right,→,0.6552895000204444,True,28,1
MW-K-33K33S1,1162,experiment,93,↑,up,↑,0.5345620999578387,True,28,1
MW-K-33K33S1,1163,experiment,84,→,right,→,0.6458840999985114,True,28,1
MW-K-33K33S1,1164,experiment,82,→,right,→,0.6254374999552965,True,28,1
MW-K-33K33S1,1165,experiment,96,←,left,←,0.6331675999099389,True,28,1
MW-K-33K33S1,1166,experiment,54,←,left,←,0.5745424000779167,True,28,1
MW-K-33K33S1,1167,experiment,69,←,left,←,0.6891531000146642,True,28,1
MW-K-33K33S1,1168,experiment,86,←,left,←,0.6092898000497371,True,28,1
MW-K-33K33S1,1169,experiment,72,↓,down,↓,0.7616986000211909,True,28,1
MW-K-33K33S1,1170,experiment,106,←,left,←,0.5771360999206081,True,28,1
MW-K-33K33S1,1171,experiment,92,→,right,→,0.6437630000291392,True,28,1
MW-K-33K33S1,1172,experiment,105,→,right,→,0.5998787999851629,True,28,1
MW-K-33K33S1,1173,experiment,79,↑,up,↑,0.6380243001040071,True,28,1
MW-K-33K33S1,1174,experiment,95,↓,down,↓,0.7013835000107065,True,28,1
MW-K-33K33S1,1175,training,51,←,left,←,0.819299100083299,True,28,0
MW-K-33K33S1,1176,training,89,←,left,←,0.5094982000300661,True,28,1
MW-K-33K33S1,1177,experiment,84,↑,up,↑,0.677675599930808,True,28,1
MW-K-33K33S1,1178,experiment,108,↑,up,↑,0.615439800079912,True,28,1
MW-K-33K33S1,1179,experiment,62,←,left,←,0.5708897999720648,True,28,1
MW-K-33K33S1,1180,experiment,58,→,right,→,0.7370212000096217,True,28,1
MW-K-33K33S1,1181,experiment,99,←,left,←,0.6029140000464395,True,28,1
MW-K-33K33S1,1182,experiment,49,↑,up,↑,0.5714373000664636,True,28,1
MW-K-33K33S1,1183,experiment,63,↑,up,↑,0.5601284999866039,True,28,1
MW-K-33K33S1,1184,experiment,50,←,left,←,0.6016694999998435,True,28,1
MW-K-33K33S1,1185,experiment,87,→,right,→,0.6452035999391228,True,28,1
MW-K-33K33S1,1186,experiment,65,→,right,→,0.7026564999250695,True,28,1
MW-K-33K33S1,1187,experiment,56,↓,down,↓,0.6563233999768272,True,28,1
MW-K-33K33S1,1188,experiment,81,→,right,→,0.7238071999745443,True,28,1
MW-K-33K33S1,1189,experiment,101,→,right,→,0.5901003000326455,True,28,1
MW-K-33K33S1,1190,experiment,76,←,left,←,0.573420700035058,True,28,1
MW-K-33K33S1,1191,experiment,80,↑,up,↑,0.5486253999406472,True,28,1
MW-K-33K33S1,1192,experiment,91,→,left,←,0.6167448000051081,False,28,1
MW-K-33K33S1,1193,experiment,104,→,right,→,0.5582324999850243,True,28,1
MW-K-33K33S1,1194,experiment,94,↓,up,↑,0.6412996998988092,False,28,1
MW-K-33K33S1,1195,experiment,79,←,left,←,0.5419638999737799,True,28,1
MW-K-33K33S1,1196,experiment,70,→,right,→,0.649329699925147,True,28,1
MW-K-33K33S1,1197,experiment,90,←,left,←,0.5380477000726387,True,28,1
MW-K-33K33S1,1198,experiment,69,←,left,←,0.47022120002657175,True,28,1
MW-K-33K33S1,1199,experiment,106,←,left,←,0.40274359995964915,True,28,1
MW-K-33K33S1,1200,experiment,61,←,left,←,0.4847333000507206,True,28,0
MW-K-33K33S1,1201,experiment,77,↑,up,↑,0.46493700006976724,True,28,1
MW-K-33K33S1,1202,experiment,97,→,right,→,0.47793549997732043,True,28,1
MW-K-33K33S1,1203,experiment,64,↑,up,↑,0.7580757000250742,True,28,1
MW-K-33K33S1,1204,experiment,51,→,left,←,0.535464399959892,False,28,1
MW-K-33K33S1,1205,experiment,82,→,left,←,0.5993349000345916,False,28,1
MW-K-33K33S1,1206,experiment,66,←,left,←,0.5781117000151426,True,28,1
MW-K-33K33S1,1207,experiment,71,→,right,→,0.6040732000255957,True,28,1
MW-K-33K33S1,1208,experiment,102,←,left,←,0.49049619992729276,True,28,1
MW-K-33K33S1,1209,experiment,75,→,right,→,0.6142125999322161,True,28,1
MW-K-33K33S1,1210,experiment,107,←,left,←,0.5467714000260457,True,28,1
MW-K-33K33S1,1211,experiment,55,↓,down,↓,0.6348724999697879,True,28,1
MW-K-33K33S1,1212,experiment,100,→,left,←,0.5929743000306189,False,28,1
MW-K-33K33S1,1213,experiment,103,↑,left,←,0.6234302999218926,False,28,1
MW-K-33K33S1,1214,experiment,92,←,left,←,0.5684685000451282,True,28,1
MW-K-33K33S1,1215,experiment,59,→,left,←,0.6308503999607638,False,28,1
MW-K-33K33S1,1216,experiment,83,↓,down,↓,0.6747507998952642,True,28,1
MW-K-33K33S1,1217,experiment,54,↑,down,↓,0.6139767999993637,False,28,1
MW-K-33K33S1,1218,experiment,48,→,up,↑,1.4777490999549627,False,28,1
MW-K-33K33S1,1219,experiment,98,←,left,←,1.0593116000527516,True,28,1
MW-K-33K33S1,1220,experiment,89,→,right,→,0.6438915999606252,True,28,1
MW-K-33K33S1,1221,experiment,95,→,right,→,0.5474471999332309,True,28,1
MW-K-33K33S1,1222,experiment,67,←,left,←,0.6315450998954475,True,28,1
MW-K-33K33S1,1223,experiment,72,↑,down,↓,0.68703359994106,False,28,1
MW-K-33K33S1,1224,experiment,74,→,right,→,0.548095399979502,True,28,1
MW-K-33K33S1,1225,experiment,96,→,right,→,0.6140891000395641,True,28,1
MW-K-33K33S1,1226,experiment,88,↑,up,↑,0.5127947001019493,True,28,1
MW-K-33K33S1,1227,experiment,53,→,right,→,0.7630242999875918,True,28,1
MW-K-33K33S1,1228,experiment,52,↑,down,↓,0.7394645999884233,False,28,1
MW-K-33K33S1,1229,experiment,57,↓,down,↓,0.5875167000340298,True,28,1
MW-K-33K33S1,1230,experiment,73,←,left,←,0.5321293000597507,True,28,1
MW-K-33K33S1,1231,experiment,93,→,right,→,0.5124932000180706,True,28,1
MW-K-33K33S1,1232,experiment,68,→,right,→,0.5021931000519544,True,28,1
MW-K-33K33S1,1233,experiment,60,←,left,←,0.47852160001639277,True,28,1
MW-K-33K33S1,1234,experiment,78,↑,down,↓,0.7463510000379756,False,28,1
MW-K-33K33S1,1235,experiment,105,↓,down,↓,0.6180151000153273,True,28,1
MW-K-33K33S1,1236,experiment,86,←,right,→,0.72516810009256,False,28,1
MW-K-33K33S1,1237,experiment,85,→,right,→,0.47669739997945726,True,28,1
MW-K-33K33S1,1238,training,99,↓,down,↓,0.6625326999928802,True,28,0
MW-K-33K33S1,1239,training,58,↓,down,↓,0.6814660000381991,True,28,1
MW-K-33K33S1,1240,experiment,103,↓,down,↓,0.6209422999527305,True,28,1
MW-K-33K33S1,1241,experiment,71,←,left,←,0.5324525000760332,True,28,1
MW-K-33K33S1,1242,experiment,98,↑,up,↑,0.6710901000769809,True,28,1
MW-K-33K33S1,1243,experiment,73,↑,up,↑,0.5089017999125645,True,28,1
MW-K-33K33S1,1244,experiment,81,↓,down,↓,0.7021242000628263,True,28,1
MW-K-33K33S1,1245,experiment,52,←,left,←,0.5456878000404686,True,28,1
MW-K-33K33S1,1246,experiment,92,→,right,→,0.6776231999974698,True,28,1
MW-K-33K33S1,1247,experiment,91,↑,up,↑,0.5009566000662744,True,28,1
MW-K-33K33S1,1248,experiment,55,→,right,→,0.7352631000103429,True,28,1
MW-K-33K33S1,1249,experiment,88,↑,up,↑,0.5650862000184134,True,28,1
MW-K-33K33S1,1250,experiment,80,↑,up,↑,0.4446977999759838,True,28,1
MW-K-33K33S1,1251,experiment,106,→,down,↓,0.7842276999726892,False,28,1
MW-K-33K33S1,1252,experiment,86,→,right,→,0.5088684000074863,True,28,1
MW-K-33K33S1,1253,experiment,93,↑,no_key,no_letter,-1.0,False,28,1
MW-K-33K33S1,1254,experiment,61,→,left,←,0.8670422000577673,False,28,1
MW-K-33K33S1,1255,experiment,65,↓,down,↓,0.5710864999564365,True,28,1
MW-K-33K33S1,1256,experiment,99,←,left,←,0.5002091999631375,True,28,1
MW-K-33K33S1,1257,experiment,60,←,left,←,0.7003563999896869,True,28,1
MW-K-33K33S1,1258,experiment,108,→,right,→,0.44512439996469766,True,28,1
MW-K-33K33S1,1259,experiment,54,←,left,←,0.7939225001027808,True,28,1
MW-K-33K33S1,1260,experiment,105,↑,left,←,0.7520222999155521,False,28,1
MW-K-33K33S1,1261,experiment,50,←,left,←,0.5539921999443322,True,28,1
MW-K-33K33S1,1262,experiment,104,←,left,←,0.4181176000274718,True,28,1
MW-K-33K33S1,1263,experiment,84,←,left,←,0.5578470000764355,True,28,1
MW-K-33K33S1,1264,experiment,95,→,left,←,0.41649130010046065,False,28,1
MW-K-33K33S1,1265,experiment,89,↓,left,←,0.5225599000696093,False,28,1
MW-K-33K33S1,1266,experiment,58,↓,right,→,0.6269378000870347,False,28,1
MW-K-33K33S1,1267,experiment,56,↓,down,↓,0.6958788000047207,True,28,1
MW-K-33K33S1,1268,experiment,66,←,left,←,0.5186452999478206,True,28,1
MW-K-33K33S1,1269,experiment,49,↓,down,↓,0.6580270000267774,True,28,1
MW-K-33K33S1,1270,experiment,101,↓,down,↓,0.5508787001017481,True,28,1
MW-K-33K33S1,1271,experiment,69,→,left,←,0.5784436999820173,False,28,1
MW-K-33K33S1,1272,experiment,59,↓,left,←,0.9441821000073105,False,28,1
MW-K-33K33S1,1273,experiment,76,→,right,→,0.5459327000426129,True,28,1
MW-K-33K33S1,1274,experiment,68,→,right,→,0.5664042999269441,True,28,1
MW-K-33K33S1,1275,experiment,77,←,left,←,0.6464451999636367,True,28,1
MW-K-33K33S1,1276,experiment,63,→,right,→,0.648038599989377,True,28,1
MW-K-33K33S1,1277,experiment,79,↓,down,↓,0.6045344999292865,True,28,1
MW-K-33K33S1,1278,experiment,74,↓,down,↓,0.5643309999722987,True,28,1
MW-K-33K33S1,1279,experiment,67,↑,up,↑,0.7439103999640793,True,28,1
MW-K-33K33S1,1280,experiment,94,←,left,←,0.5955362999811769,True,28,1
MW-K-33K33S1,1281,experiment,48,↑,up,↑,0.7808947999728844,True,28,1
MW-K-33K33S1,1282,experiment,102,→,right,→,0.651528500020504,True,28,1
MW-K-33K33S1,1283,experiment,90,↓,down,↓,0.6682619999628514,True,28,1
MW-K-33K33S1,1284,experiment,62,↓,down,↓,0.5097112999064848,True,28,1
MW-K-33K33S1,1285,experiment,78,←,left,←,0.6877798000350595,True,28,1
MW-K-33K33S1,1286,experiment,83,↓,down,↓,0.6013451999751851,True,28,1
MW-K-33K33S1,1287,experiment,85,→,down,↓,0.9654146999819204,False,28,1
MW-K-33K33S1,1288,experiment,53,←,left,←,0.7896598000079393,True,28,1
MW-K-33K33S1,1289,experiment,87,↑,up,↑,0.5538326000096276,True,28,1
MW-K-33K33S1,1290,experiment,70,→,right,→,0.7327392000006512,True,28,1
MW-K-33K33S1,1291,experiment,100,→,right,→,0.7267660000361502,True,28,1
MW-K-33K33S1,1292,experiment,75,→,right,→,0.6653961000265554,True,28,1
MW-K-33K33S1,1293,experiment,82,↓,down,↓,0.8524243999272585,True,28,1
MW-K-33K33S1,1294,experiment,107,↓,up,↑,0.8551786000607535,False,28,1
MW-K-33K33S1,1295,experiment,96,↑,up,↑,0.5656489999964833,True,28,1
MW-K-33K33S1,1296,experiment,51,←,left,←,0.6867532000178471,True,28,1
MW-K-33K33S1,1297,experiment,72,↑,up,↑,0.6760402000509202,True,28,1
MW-K-33K33S1,1298,experiment,97,↓,down,↓,0.6732025999808684,True,28,1
MW-K-33K33S1,1299,experiment,57,←,left,←,0.7400599999818951,True,28,1
MW-K-33K33S1,1300,experiment,64,→,left,←,0.6894068999681622,False,28,1
MW-K-33K33S1,1301,training,102,→,right,→,0.6002290000906214,True,28,0
MW-K-33K33S1,1302,training,83,→,right,→,0.5647599999792874,True,28,1
MW-K-33K33S1,1303,experiment,64,→,right,→,0.5854711999418214,True,28,1
MW-K-33K33S1,1304,experiment,86,↑,up,↑,0.5983627999667078,True,28,1
MW-K-33K33S1,1305,experiment,105,←,left,←,0.851640300010331,True,28,1
MW-K-33K33S1,1306,experiment,101,→,right,→,0.616906899958849,True,28,1
MW-K-33K33S1,1307,experiment,58,↑,up,↑,0.5975820999592543,True,28,1
MW-K-33K33S1,1308,experiment,102,↑,up,↑,0.6202136999927461,True,28,1
MW-K-33K33S1,1309,experiment,83,←,left,←,0.4966639999765903,True,28,1
MW-K-33K33S1,1310,experiment,98,↓,down,↓,0.6284963999642059,True,28,1
MW-K-33K33S1,1311,experiment,84,↓,down,↓,0.6083405000390485,True,28,1
MW-K-33K33S1,1312,experiment,78,↑,up,↑,0.4947916000382975,True,28,1
MW-K-33K33S1,1313,experiment,81,↑,up,↑,0.7048781000776216,True,28,1
MW-K-33K33S1,1314,experiment,67,↓,down,↓,0.7423115000128746,True,28,1
MW-K-33K33S1,1315,experiment,107,→,right,→,0.5258519999915734,True,28,1
MW-K-33K33S1,1316,experiment,72,→,right,→,0.7133309999480844,True,28,1
MW-K-33K33S1,1317,experiment,59,←,left,←,0.6741883000358939,True,28,1
MW-K-33K33S1,1318,experiment,76,↑,up,↑,0.5421228999039158,True,28,1
MW-K-33K33S1,1319,experiment,95,↑,up,↑,0.4892400000244379,True,28,1
MW-K-33K33S1,1320,experiment,54,→,right,→,0.6363366000587121,True,28,1
MW-K-33K33S1,1321,experiment,73,↑,up,↑,0.6673173999879509,True,28,1
MW-K-33K33S1,1322,experiment,89,↓,down,↓,0.5634070999221876,True,28,1
MW-K-33K33S1,1323,experiment,70,→,left,←,0.6540583999594674,False,28,1
MW-K-33K33S1,1324,experiment,61,↑,right,→,0.7280873000854626,False,28,1
MW-K-33K33S1,1325,experiment,55,←,left,←,0.697495499975048,True,28,1
MW-K-33K33S1,1326,experiment,90,←,left,←,0.4957869000500068,True,28,1
MW-K-33K33S1,1327,experiment,92,↑,up,↑,0.3834013999439776,True,28,1
MW-K-33K33S1,1328,experiment,77,→,right,→,0.6290489999810234,True,28,0
MW-K-33K33S1,1329,experiment,75,←,left,←,0.5075819999910891,True,28,1
MW-K-33K33S1,1330,experiment,108,↓,down,↓,0.6996560998959467,True,28,1
MW-K-33K33S1,1331,experiment,66,→,right,→,0.5383393000811338,True,28,1
MW-K-33K33S1,1332,experiment,82,↓,left,←,0.7779424999607727,False,28,1
MW-K-33K33S1,1333,experiment,85,←,left,←,0.5992646999657154,True,28,1
MW-K-33K33S1,1334,experiment,60,↑,left,←,0.7719519999809563,False,28,1
MW-K-33K33S1,1335,experiment,94,←,left,←,0.5663540000095963,True,28,1
MW-K-33K33S1,1336,experiment,56,↑,left,←,0.6860311001073569,False,28,1
MW-K-33K33S1,1337,experiment,50,↑,left,←,0.9223242000443861,False,28,1
MW-K-33K33S1,1338,experiment,49,←,left,←,0.3266245999839157,True,28,1
MW-K-33K33S1,1339,experiment,93,→,right,→,0.51335410005413,True,28,0
MW-K-33K33S1,1340,experiment,65,→,right,→,0.7274858999298885,True,28,1
MW-K-33K33S1,1341,experiment,63,↓,right,→,0.6141628999030218,False,28,1
MW-K-33K33S1,1342,experiment,62,←,left,←,0.4734601000091061,True,28,1
MW-K-33K33S1,1343,experiment,104,→,right,→,0.5003670000005513,True,28,1
MW-K-33K33S1,1344,experiment,51,←,left,←,0.8958881000289693,True,28,1
MW-K-33K33S1,1345,experiment,96,↑,up,↑,0.692754999967292,True,28,1
MW-K-33K33S1,1346,experiment,48,←,left,←,0.6418497000122443,True,28,1
MW-K-33K33S1,1347,experiment,68,↓,left,←,0.5778728000586852,False,28,1
MW-K-33K33S1,1348,experiment,99,←,left,←,0.5305443999823183,True,28,1
MW-K-33K33S1,1349,experiment,87,↑,up,↑,0.6567826999817044,True,28,1
MW-K-33K33S1,1350,experiment,91,↓,down,↓,0.6568596999859437,True,28,1
MW-K-33K33S1,1351,experiment,100,↑,down,↓,0.6621344999875873,False,28,1
MW-K-33K33S1,1352,experiment,88,→,right,→,0.7109113000333309,True,28,1
MW-K-33K33S1,1353,experiment,52,↑,up,↑,0.7298157000914216,True,28,1
MW-K-33K33S1,1354,experiment,97,→,right,→,0.5730927999829873,True,28,1
MW-K-33K33S1,1355,experiment,80,↓,down,↓,0.6200496999081224,True,28,1
MW-K-33K33S1,1356,experiment,57,↑,up,↑,0.7129037999548018,True,28,1
MW-K-33K33S1,1357,experiment,103,←,left,←,0.5785015999572352,True,28,1
MW-K-33K33S1,1358,experiment,53,←,left,←,0.4743517000460997,True,28,1
MW-K-33K33S1,1359,experiment,71,→,right,→,0.6721369000151753,True,28,1
MW-K-33K33S1,1360,experiment,69,→,right,→,0.4869763000169769,True,28,1
MW-K-33K33S1,1361,experiment,74,←,left,←,0.5313216999638826,True,28,1
MW-K-33K33S1,1362,experiment,79,←,right,→,0.7403245000168681,False,28,1
MW-K-33K33S1,1363,experiment,106,→,right,→,0.515995700028725,True,28,1
MW-K-33K33S1,1364,training,66,←,left,←,0.5761421000352129,True,28,0
MW-K-33K33S1,1365,training,94,←,left,←,0.6264780000783503,True,28,1
MW-K-33K33S1,1366,experiment,100,←,left,←,0.4647289999993518,True,28,1
MW-K-33K33S1,1367,experiment,84,→,right,→,0.4747344999341294,True,28,1
MW-K-33K33S1,1368,experiment,78,←,left,←,0.5026088999584317,True,28,1
MW-K-33K33S1,1369,experiment,66,→,right,→,0.5088559999130666,True,28,1
MW-K-33K33S1,1370,experiment,55,↑,up,↑,0.5347121999366209,True,28,1
MW-K-33K33S1,1371,experiment,72,↓,down,↓,1.0341752999229357,True,28,1
MW-K-33K33S1,1372,experiment,92,↑,up,↑,0.5147231000009924,True,28,1
MW-K-33K33S1,1373,experiment,87,→,right,→,0.5378121000248939,True,28,1
MW-K-33K33S1,1374,experiment,107,→,right,→,0.465468299924396,True,28,1
MW-K-33K33S1,1375,experiment,50,↑,up,↑,0.4707937999628484,True,28,1
MW-K-33K33S1,1376,experiment,89,↑,up,↑,0.4390923000173643,True,28,1
MW-K-33K33S1,1377,experiment,79,↓,down,↓,0.6593343999702483,True,28,1
MW-K-33K33S1,1378,experiment,106,↓,down,↓,0.6144860000349581,True,28,1
MW-K-33K33S1,1379,experiment,67,←,right,→,0.8000797000713646,False,28,1
MW-K-33K33S1,1380,experiment,70,←,left,←,0.5053944999817759,True,28,1
MW-K-33K33S1,1381,experiment,63,→,right,→,0.6966806999407709,True,28,1
MW-K-33K33S1,1382,experiment,74,↑,right,→,0.6447902000509202,False,28,1
MW-K-33K33S1,1383,experiment,98,←,left,←,0.6107534999027848,True,28,1
MW-K-33K33S1,1384,experiment,52,↓,down,↓,0.617993799969554,True,28,1
MW-K-33K33S1,1385,experiment,99,↓,down,↓,0.6731087999651209,True,28,1
MW-K-33K33S1,1386,experiment,54,→,right,→,0.5966022999491543,True,28,1
MW-K-33K33S1,1387,experiment,102,→,right,→,0.5311306000221521,True,28,1
MW-K-33K33S1,1388,experiment,51,→,right,→,0.8133053000783548,True,28,1
MW-K-33K33S1,1389,experiment,82,↓,down,↓,0.5781384999863803,True,28,1
MW-K-33K33S1,1390,experiment,81,→,right,→,0.52069399994798,True,28,1
MW-K-33K33S1,1391,experiment,86,←,left,←,0.6555886999703944,True,28,1
MW-K-33K33S1,1392,experiment,56,←,left,←,0.5632459000917152,True,28,1
MW-K-33K33S1,1393,experiment,73,←,left,←,0.5809970000991598,True,28,1
MW-K-33K33S1,1394,experiment,93,↓,left,←,0.671131300041452,False,28,1
MW-K-33K33S1,1395,experiment,48,←,left,←,0.5646541999885812,True,28,1
MW-K-33K33S1,1396,experiment,61,←,left,←,0.5142926999833435,True,28,1
MW-K-33K33S1,1397,experiment,60,←,left,←,0.5862509999424219,True,28,1
MW-K-33K33S1,1398,experiment,62,↓,down,↓,0.7186814000597224,True,28,1
MW-K-33K33S1,1399,experiment,104,↑,up,↑,0.6642806999152526,True,28,1
MW-K-33K33S1,1400,experiment,88,→,left,←,0.6248135999776423,False,28,1
MW-K-33K33S1,1401,experiment,108,↓,down,↓,0.6365517000667751,True,28,1
MW-K-33K33S1,1402,experiment,90,↓,down,↓,0.6298691999400035,True,28,1
MW-K-33K33S1,1403,experiment,64,↑,down,↓,0.7038992999587208,False,28,1
MW-K-33K33S1,1404,experiment,53,←,left,←,0.6102983000455424,True,28,1
MW-K-33K33S1,1405,experiment,95,←,left,←,0.5550280000315979,True,28,1
MW-K-33K33S1,1406,experiment,80,↑,up,↑,0.8508187999250367,True,28,1
MW-K-33K33S1,1407,experiment,68,→,left,←,0.4665680000325665,False,28,1
MW-K-33K33S1,1408,experiment,77,↓,down,↓,0.6390525000169873,True,28,1
MW-K-33K33S1,1409,experiment,71,←,left,←,0.5581612000241876,True,28,1
MW-K-33K33S1,1410,experiment,69,↑,up,↑,0.5379035000223666,True,28,1
MW-K-33K33S1,1411,experiment,59,→,right,→,0.5527157000033185,True,28,1
MW-K-33K33S1,1412,experiment,103,←,left,←,0.5933558000251651,True,28,1
MW-K-33K33S1,1413,experiment,85,↑,up,↑,0.4696830000029877,True,28,1
MW-K-33K33S1,1414,experiment,83,→,right,→,0.5439294999232516,True,28,1
MW-K-33K33S1,1415,experiment,105,←,left,←,0.4881258000386879,True,28,1
MW-K-33K33S1,1416,experiment,65,←,left,←,0.4874498000135645,True,28,1
MW-K-33K33S1,1417,experiment,57,←,right,→,0.6099721000064164,False,28,1
MW-K-33K33S1,1418,experiment,97,↓,down,↓,0.5296301000053063,True,28,1
MW-K-33K33S1,1419,experiment,101,←,left,←,0.7398646000074223,True,28,1
MW-K-33K33S1,1420,experiment,91,→,right,→,0.5679448998998851,True,28,1
MW-K-33K33S1,1421,experiment,75,→,right,→,0.5770293000387028,True,28,1
MW-K-33K33S1,1422,experiment,49,←,left,←,0.5541600999422371,True,28,1