PART_ID,Trial_no,Trial_type,CSI,Stim_letter,Key_pressed,letter_choose,Rt,Corr,Stimulus Time,nDropped
NK-M-22M22S2,1,training,120,↑,up,↑,0.7051158000249416,True,60,1
NK-M-22M22S2,2,training,120,↑,up,↑,0.47670369991101325,True,60,0
NK-M-22M22S2,3,training,120,↓,down,↓,0.5253752998542041,True,60,0
NK-M-22M22S2,4,training,120,←,left,←,0.4770964998751879,True,60,0
NK-M-22M22S2,5,training,120,↓,down,↓,0.5594742000102997,True,60,0
NK-M-22M22S2,6,training,120,↓,down,↓,0.5928674000315368,True,60,0
NK-M-22M22S2,7,training,120,↓,down,↓,0.6098182999994606,True,60,0
NK-M-22M22S2,8,training,120,↑,up,↑,0.5003487998619676,True,60,0
NK-M-22M22S2,9,training,120,↑,up,↑,0.4920045000035316,True,60,0
NK-M-22M22S2,10,training,120,→,right,→,1.5028912001289427,True,60,0
NK-M-22M22S2,11,training,120,←,left,←,0.6513396000955254,True,60,0
NK-M-22M22S2,12,training,120,↓,down,↓,0.7261687000282109,True,60,0
NK-M-22M22S2,13,training,120,→,right,→,0.5592012000270188,True,60,0
NK-M-22M22S2,14,training,120,↓,down,↓,0.6513025998137891,True,60,0
NK-M-22M22S2,15,training,120,↓,down,↓,0.4359061000868678,True,60,0
NK-M-22M22S2,16,training,120,→,right,→,0.5754855999257416,True,60,0
NK-M-22M22S2,17,training,120,↑,up,↑,0.4925466999411583,True,60,0
NK-M-22M22S2,18,training,120,←,left,←,0.4919827999547124,True,60,0
NK-M-22M22S2,19,training,120,↓,down,↓,0.6175019999500364,True,60,0
NK-M-22M22S2,20,training,120,←,left,←,0.4443286000750959,True,60,0
NK-M-22M22S2,21,no_adaptation,120,→,right,→,0.47438819985836744,True,36,0
NK-M-22M22S2,22,no_adaptation,120,←,left,←,0.4427362000569701,True,36,0
NK-M-22M22S2,23,no_adaptation,120,←,left,←,0.4996060999110341,True,36,0
NK-M-22M22S2,24,no_adaptation,120,↑,up,↑,0.451001999899745,True,36,0
NK-M-22M22S2,25,no_adaptation,120,→,right,→,0.4359742999076843,True,36,0
NK-M-22M22S2,26,no_adaptation,120,↑,up,↑,0.4878974000457674,True,36,0
NK-M-22M22S2,27,no_adaptation,120,→,right,→,0.547586299944669,True,36,0
NK-M-22M22S2,28,no_adaptation,120,←,left,←,0.40070659993216395,True,36,0
NK-M-22M22S2,29,no_adaptation,120,↓,down,↓,0.6276982999406755,True,36,0
NK-M-22M22S2,30,no_adaptation,120,↑,up,↑,0.4896263999398798,True,36,0
NK-M-22M22S2,31,no_adaptation,120,↓,down,↓,0.5892097000032663,True,36,0
NK-M-22M22S2,32,no_adaptation,120,↑,up,↑,0.5325956998858601,True,36,0
NK-M-22M22S2,33,no_adaptation,120,↑,up,↑,0.5905800999607891,True,36,0
NK-M-22M22S2,34,no_adaptation,120,↓,down,↓,0.5259650000371039,True,36,0
NK-M-22M22S2,35,no_adaptation,120,↓,down,↓,0.47988339979201555,True,36,0
NK-M-22M22S2,36,no_adaptation,120,→,right,→,0.4427008999045938,True,36,0
NK-M-22M22S2,37,no_adaptation,120,→,right,→,0.48913369979709387,True,36,0
NK-M-22M22S2,38,no_adaptation,120,↓,down,↓,0.47639200021512806,True,36,0
NK-M-22M22S2,39,no_adaptation,120,↓,down,↓,0.5525871999561787,True,36,0
NK-M-22M22S2,40,no_adaptation,120,←,left,←,1.0973739000037313,True,36,0
NK-M-22M22S2,41,training,83,↓,down,↓,0.521299900021404,True,36,0
NK-M-22M22S2,42,training,61,↓,down,↓,0.4429809998255223,True,36,1
NK-M-22M22S2,43,experiment,67,←,left,←,0.4721478000283241,True,36,1
NK-M-22M22S2,44,experiment,99,→,right,→,0.49919390003196895,True,36,1
NK-M-22M22S2,45,experiment,55,←,left,←,0.636525799985975,True,36,1
NK-M-22M22S2,46,experiment,78,↑,up,↑,0.48114669998176396,True,36,1
NK-M-22M22S2,47,experiment,52,→,right,→,0.7160420001018792,True,36,1
NK-M-22M22S2,48,experiment,91,↓,down,↓,0.5287337000481784,True,36,1
NK-M-22M22S2,49,experiment,80,↑,up,↑,0.5123995000030845,True,36,1
NK-M-22M22S2,50,experiment,70,↓,down,↓,0.5081377001479268,True,36,1
NK-M-22M22S2,51,experiment,64,→,right,→,0.49031760008074343,True,36,1
NK-M-22M22S2,52,experiment,96,→,right,→,0.5264540000353009,True,36,1
NK-M-22M22S2,53,experiment,87,↓,down,↓,0.5080355999525636,True,36,1
NK-M-22M22S2,54,experiment,65,←,left,←,0.37554890010505915,True,36,1
NK-M-22M22S2,55,experiment,72,→,right,→,0.5144439002033323,True,36,0
NK-M-22M22S2,56,experiment,88,→,right,→,0.49609660007990897,True,36,1
NK-M-22M22S2,57,experiment,90,←,right,→,0.39278510003350675,False,36,1
NK-M-22M22S2,58,experiment,107,←,left,←,0.61000100011006,True,36,0
NK-M-22M22S2,59,experiment,101,↑,up,↑,0.5195703997742385,True,36,1
NK-M-22M22S2,60,experiment,102,←,left,←,0.8964611000847071,True,36,1
NK-M-22M22S2,61,experiment,77,←,left,←,0.5387619000393897,True,36,1
NK-M-22M22S2,62,experiment,81,←,left,←,0.4110462998505682,True,36,1
NK-M-22M22S2,63,experiment,89,→,right,→,0.5705029999371618,True,36,1
NK-M-22M22S2,64,experiment,100,↑,up,↑,0.4900940000079572,True,36,1
NK-M-22M22S2,65,experiment,74,←,left,←,0.4344738000072539,True,36,1
NK-M-22M22S2,66,experiment,66,↓,down,↓,0.8376071001403034,True,36,1
NK-M-22M22S2,67,experiment,85,←,left,←,0.5033837000373751,True,36,1
NK-M-22M22S2,68,experiment,50,↑,up,↑,0.48229949991218746,True,36,1
NK-M-22M22S2,69,experiment,48,→,right,→,0.6704559000208974,True,36,1
NK-M-22M22S2,70,experiment,57,↓,down,↓,0.6961533001158386,True,36,1
NK-M-22M22S2,71,experiment,75,→,right,→,0.6269662000704557,True,36,1
NK-M-22M22S2,72,experiment,108,↓,down,↓,0.6138710000086576,True,36,1
NK-M-22M22S2,73,experiment,82,→,right,→,0.529424199834466,True,36,1
NK-M-22M22S2,74,experiment,83,→,right,→,0.5921577999833971,True,36,1
NK-M-22M22S2,75,experiment,69,←,left,←,0.5372055999469012,True,36,1
NK-M-22M22S2,76,experiment,95,→,right,→,0.37653260002844036,True,36,1
NK-M-22M22S2,77,experiment,79,↓,down,↓,0.5615453000646085,True,36,1
NK-M-22M22S2,78,experiment,61,←,left,←,0.35133930016309023,True,36,1
NK-M-22M22S2,79,experiment,56,←,left,←,0.5174320000223815,True,36,0
NK-M-22M22S2,80,experiment,104,←,left,←,0.5577741998713464,True,36,1
NK-M-22M22S2,81,experiment,86,↑,up,↑,0.5306808999739587,True,36,1
NK-M-22M22S2,82,experiment,84,↓,down,↓,0.528849600115791,True,36,1
NK-M-22M22S2,83,experiment,93,←,left,←,0.4924576999619603,True,36,1
NK-M-22M22S2,84,experiment,60,↓,down,↓,0.5163769000209868,True,36,1
NK-M-22M22S2,85,experiment,58,↑,up,↑,1.5240768999792635,True,36,1
NK-M-22M22S2,86,experiment,54,↓,down,↓,0.6289087000768632,True,36,1
NK-M-22M22S2,87,experiment,59,←,left,←,0.4344551998656243,True,36,1
NK-M-22M22S2,88,experiment,97,↑,up,↑,0.6453068999107927,True,36,1
NK-M-22M22S2,89,experiment,71,→,right,→,0.515517600113526,True,36,1
NK-M-22M22S2,90,experiment,94,↓,up,↑,0.8389870000537485,False,36,1
NK-M-22M22S2,91,experiment,98,↓,down,↓,0.4511721001472324,True,36,1
NK-M-22M22S2,92,experiment,51,↓,down,↓,0.4889408000744879,True,36,0
NK-M-22M22S2,93,experiment,92,←,left,←,0.4427890998777002,True,36,1
NK-M-22M22S2,94,experiment,68,↑,up,↑,0.5894948998466134,True,36,1
NK-M-22M22S2,95,experiment,53,←,left,←,0.5077070000115782,True,36,1
NK-M-22M22S2,96,experiment,49,←,left,←,0.6628294999245554,True,36,1
NK-M-22M22S2,97,experiment,73,↓,down,↓,0.5554829000029713,True,36,1
NK-M-22M22S2,98,experiment,105,↑,up,↑,0.5539630998391658,True,36,1
NK-M-22M22S2,99,experiment,62,↑,up,↑,0.5828935999888927,True,36,1
NK-M-22M22S2,100,experiment,63,→,right,→,0.49043960007838905,True,36,1
NK-M-22M22S2,101,experiment,103,←,left,←,0.4691774998791516,True,36,1
NK-M-22M22S2,102,experiment,76,↑,up,↑,0.6875034000258893,True,36,1
NK-M-22M22S2,103,experiment,106,↑,up,↑,0.48864919994957745,True,36,1
NK-M-22M22S2,104,training,85,←,left,←,0.4752058999147266,True,35,0
NK-M-22M22S2,105,training,90,←,left,←,0.5298551998566836,True,35,1
NK-M-22M22S2,106,experiment,60,←,left,←,0.3612860001157969,True,35,1
NK-M-22M22S2,107,experiment,72,↓,up,↑,0.8811975000426173,False,35,0
NK-M-22M22S2,108,experiment,54,←,left,←,0.41780880000442266,True,35,1
NK-M-22M22S2,109,experiment,77,←,left,←,0.4646660001017153,True,35,0
NK-M-22M22S2,110,experiment,104,↑,up,↑,0.42738669994287193,True,35,1
NK-M-22M22S2,111,experiment,80,→,right,→,0.5903632000554353,True,35,0
NK-M-22M22S2,112,experiment,97,↑,up,↑,0.36714249989017844,True,35,1
NK-M-22M22S2,113,experiment,48,↓,down,↓,0.5827994998544455,True,35,0
NK-M-22M22S2,114,experiment,89,→,left,←,0.48955980013124645,False,35,1
NK-M-22M22S2,115,experiment,87,←,left,←,0.7766237000469118,True,35,1
NK-M-22M22S2,116,experiment,73,↑,up,↑,0.43431379995308816,True,35,1
NK-M-22M22S2,117,experiment,92,→,right,→,0.512334099970758,True,35,1
NK-M-22M22S2,118,experiment,50,←,left,←,1.3867793998215348,True,35,1
NK-M-22M22S2,119,experiment,105,→,left,←,0.49581029987894,False,35,1
NK-M-22M22S2,120,experiment,94,↑,up,↑,0.46867670002393425,True,35,1
NK-M-22M22S2,121,experiment,107,→,right,→,0.49369430006481707,True,35,1
NK-M-22M22S2,122,experiment,61,↓,down,↓,0.5888310000300407,True,35,1
NK-M-22M22S2,123,experiment,53,→,right,→,0.5794059000909328,True,35,1
NK-M-22M22S2,124,experiment,69,↓,down,↓,0.548788899788633,True,35,1
NK-M-22M22S2,125,experiment,85,←,left,←,0.6183008998632431,True,35,1
NK-M-22M22S2,126,experiment,103,↑,up,↑,0.44281060015782714,True,35,1
NK-M-22M22S2,127,experiment,71,↓,down,↓,0.5409634001553059,True,35,1
NK-M-22M22S2,128,experiment,86,↓,down,↓,0.4341485998593271,True,35,1
NK-M-22M22S2,129,experiment,59,→,right,→,0.5248826001770794,True,35,0
NK-M-22M22S2,130,experiment,84,↓,down,↓,0.5635321999434382,True,35,1
NK-M-22M22S2,131,experiment,75,←,left,←,0.5796248000115156,True,35,1
NK-M-22M22S2,132,experiment,88,←,left,←,0.43445400008931756,True,35,1
NK-M-22M22S2,133,experiment,51,→,right,→,0.5080721001140773,True,35,1
NK-M-22M22S2,134,experiment,67,↓,down,↓,0.5370701998472214,True,35,1
NK-M-22M22S2,135,experiment,93,↑,up,↑,0.42610749998129904,True,35,1
NK-M-22M22S2,136,experiment,56,↑,up,↑,0.46495470008812845,True,35,0
NK-M-22M22S2,137,experiment,49,→,right,→,0.4924791001249105,True,35,1
NK-M-22M22S2,138,experiment,81,←,left,←,0.5092941999901086,True,35,1
NK-M-22M22S2,139,experiment,106,←,left,←,1.325631899992004,True,35,1
NK-M-22M22S2,140,experiment,100,←,left,←,0.5031542000360787,True,35,1
NK-M-22M22S2,141,experiment,83,↑,up,↑,0.4950654001440853,True,35,1
NK-M-22M22S2,142,experiment,95,→,right,→,1.2034821999259293,True,35,1
NK-M-22M22S2,143,experiment,82,↓,down,↓,0.6952563999220729,True,35,1
NK-M-22M22S2,144,experiment,64,→,right,→,0.622016099980101,True,35,1
NK-M-22M22S2,145,experiment,68,→,left,←,0.4345388999208808,False,35,1
NK-M-22M22S2,146,experiment,78,→,right,→,0.818072099937126,True,35,0
NK-M-22M22S2,147,experiment,55,→,right,→,1.0788616999052465,True,35,1
NK-M-22M22S2,148,experiment,102,←,left,←,0.4972537001594901,True,35,1
NK-M-22M22S2,149,experiment,62,↑,up,↑,0.6001637999434024,True,35,1
NK-M-22M22S2,150,experiment,74,←,left,←,0.5593512000050396,True,35,1
NK-M-22M22S2,151,experiment,52,←,left,←,0.5753250999841839,True,35,1
NK-M-22M22S2,152,experiment,66,→,right,→,0.778120000148192,True,35,1
NK-M-22M22S2,153,experiment,101,↑,up,↑,0.5372411999851465,True,35,1
NK-M-22M22S2,154,experiment,91,←,left,←,0.5169186000712216,True,35,1
NK-M-22M22S2,155,experiment,65,→,right,→,0.586382000008598,True,35,1
NK-M-22M22S2,156,experiment,58,↑,up,↑,0.6075355999637395,True,35,1
NK-M-22M22S2,157,experiment,98,↓,down,↓,0.6942386999726295,True,35,1
NK-M-22M22S2,158,experiment,76,↑,up,↑,0.5525108000729233,True,35,1
NK-M-22M22S2,159,experiment,90,↑,up,↑,0.5481817000545561,True,35,1
NK-M-22M22S2,160,experiment,79,→,right,→,0.5716639999300241,True,35,1
NK-M-22M22S2,161,experiment,96,↑,up,↑,0.5885246999096125,True,35,1
NK-M-22M22S2,162,experiment,108,↓,down,↓,0.6563798999413848,True,35,1
NK-M-22M22S2,163,experiment,63,→,right,→,0.7206315998919308,True,35,1
NK-M-22M22S2,164,experiment,99,↑,up,↑,0.5383078998420388,True,35,1
NK-M-22M22S2,165,experiment,57,←,left,←,0.5053004999645054,True,35,1
NK-M-22M22S2,166,experiment,70,→,right,→,0.5815204000100493,True,35,1
NK-M-22M22S2,167,training,57,↑,up,↑,0.5151502001099288,True,34,0
NK-M-22M22S2,168,training,93,↓,down,↓,0.5512059999164194,True,34,1
NK-M-22M22S2,169,experiment,95,←,left,←,0.4893532998394221,True,34,1
NK-M-22M22S2,170,experiment,99,↓,down,↓,0.6363773001357913,True,34,1
NK-M-22M22S2,171,experiment,102,↑,up,↑,0.5607018999289721,True,34,1
NK-M-22M22S2,172,experiment,50,→,right,→,0.9533685999922454,True,34,1
NK-M-22M22S2,173,experiment,87,↓,down,↓,0.5256943998392671,True,34,1
NK-M-22M22S2,174,experiment,108,↑,up,↑,0.500453099841252,True,34,1
NK-M-22M22S2,175,experiment,86,↓,down,↓,0.5633471000473946,True,34,1
NK-M-22M22S2,176,experiment,65,↓,down,↓,0.6230948001611978,True,34,1
NK-M-22M22S2,177,experiment,96,←,left,←,0.5815024999901652,True,34,1
NK-M-22M22S2,178,experiment,57,→,right,→,0.5630503001157194,True,34,1
NK-M-22M22S2,179,experiment,62,↓,down,↓,0.511489300057292,True,34,1
NK-M-22M22S2,180,experiment,54,←,left,←,0.568761499831453,True,34,1
NK-M-22M22S2,181,experiment,85,←,left,←,0.5174965001642704,True,34,1
NK-M-22M22S2,182,experiment,56,→,right,→,0.5737676001153886,True,34,1
NK-M-22M22S2,183,experiment,76,↑,up,↑,0.5254507998470217,True,34,1
NK-M-22M22S2,184,experiment,67,←,left,←,0.5455438001081347,True,34,1
NK-M-22M22S2,185,experiment,69,↓,down,↓,0.5405549998395145,True,34,1
NK-M-22M22S2,186,experiment,84,→,right,→,0.6186150999274105,True,34,1
NK-M-22M22S2,187,experiment,101,↓,down,↓,0.5201467000879347,True,34,1
NK-M-22M22S2,188,experiment,74,↓,down,↓,0.5140520001295954,True,34,1
NK-M-22M22S2,189,experiment,68,↑,up,↑,0.5186342999804765,True,34,1
NK-M-22M22S2,190,experiment,51,→,right,→,0.5926240999251604,True,34,1
NK-M-22M22S2,191,experiment,53,→,right,→,0.5028464999049902,True,34,1
NK-M-22M22S2,192,experiment,82,↑,up,↑,0.5355176001321524,True,34,1
NK-M-22M22S2,193,experiment,90,→,right,→,0.547895299969241,True,34,1
NK-M-22M22S2,194,experiment,105,↓,down,↓,1.1064578001387417,True,34,1
NK-M-22M22S2,195,experiment,97,←,left,←,0.47746190009638667,True,34,1
NK-M-22M22S2,196,experiment,93,→,right,→,0.5712391000706702,True,34,1
NK-M-22M22S2,197,experiment,58,↓,down,↓,0.6567710000090301,True,34,1
NK-M-22M22S2,198,experiment,72,→,right,→,0.5901625999249518,True,34,1
NK-M-22M22S2,199,experiment,55,←,left,←,0.5479852000717074,True,34,1
NK-M-22M22S2,200,experiment,80,↓,down,↓,0.5305741000920534,True,34,1
NK-M-22M22S2,201,experiment,107,→,right,→,1.3057973000686616,True,34,1
NK-M-22M22S2,202,experiment,61,→,right,→,0.600631200009957,True,34,1
NK-M-22M22S2,203,experiment,94,↓,down,↓,0.5608789999969304,True,34,1
NK-M-22M22S2,204,experiment,59,←,left,←,0.5343974998686463,True,34,1
NK-M-22M22S2,205,experiment,103,↓,down,↓,0.7028597998432815,True,34,1
NK-M-22M22S2,206,experiment,92,→,right,→,0.5474878000095487,True,34,1
NK-M-22M22S2,207,experiment,60,↓,down,↓,0.6091241000685841,True,34,1
NK-M-22M22S2,208,experiment,78,←,left,←,0.49461870011873543,True,34,1
NK-M-22M22S2,209,experiment,81,↑,up,↑,0.5033881000708789,True,34,1
NK-M-22M22S2,210,experiment,83,↓,down,↓,0.567539099836722,True,34,1
NK-M-22M22S2,211,experiment,104,←,left,←,0.5816877000033855,True,34,1
NK-M-22M22S2,212,experiment,52,↓,down,↓,0.5728627000935376,True,34,1
NK-M-22M22S2,213,experiment,88,←,left,←,0.45697550009936094,True,34,1
NK-M-22M22S2,214,experiment,98,↓,down,↓,0.47705930005759,True,34,1
NK-M-22M22S2,215,experiment,77,↓,down,↓,0.559984999941662,True,34,1
NK-M-22M22S2,216,experiment,91,←,left,←,0.4910540001001209,True,34,1
NK-M-22M22S2,217,experiment,89,↓,down,↓,0.4342257999815047,True,34,1
NK-M-22M22S2,218,experiment,48,↑,up,↑,0.575585599988699,True,34,1
NK-M-22M22S2,219,experiment,49,↓,down,↓,0.4958590001333505,True,34,1
NK-M-22M22S2,220,experiment,106,→,left,←,0.7043022001162171,False,34,1
NK-M-22M22S2,221,experiment,63,↑,up,↑,0.5988441999070346,True,34,1
NK-M-22M22S2,222,experiment,75,←,left,←,0.4856808001641184,True,34,1
NK-M-22M22S2,223,experiment,73,→,right,→,0.7614082000218332,True,34,1
NK-M-22M22S2,224,experiment,64,↑,up,↑,0.5572303999215364,True,34,1
NK-M-22M22S2,225,experiment,79,←,left,←,0.5164145999588072,True,34,1
NK-M-22M22S2,226,experiment,70,↑,up,↑,0.5842530999798328,True,34,1
NK-M-22M22S2,227,experiment,71,↑,up,↑,1.2410251998808235,True,34,1
NK-M-22M22S2,228,experiment,100,↑,up,↑,0.597518099937588,True,34,1
NK-M-22M22S2,229,experiment,66,→,right,→,0.6632735999301076,True,34,1
NK-M-22M22S2,230,training,97,←,left,←,0.4743929000105709,True,33,0
NK-M-22M22S2,231,training,105,↑,up,↑,0.4448880001436919,True,33,1
NK-M-22M22S2,232,experiment,84,↓,down,↓,1.8139168999623507,True,33,0
NK-M-22M22S2,233,experiment,50,↑,up,↑,1.044046799885109,True,33,1
NK-M-22M22S2,234,experiment,105,←,left,←,0.479094099951908,True,33,1
NK-M-22M22S2,235,experiment,95,↓,down,↓,0.5798583999276161,True,33,1
NK-M-22M22S2,236,experiment,89,↑,up,↑,0.5744094999972731,True,33,1
NK-M-22M22S2,237,experiment,65,↓,down,↓,0.5055912998504937,True,33,1
NK-M-22M22S2,238,experiment,99,←,left,←,0.7318893000483513,True,33,1
NK-M-22M22S2,239,experiment,62,→,right,→,0.5776301000732929,True,33,1
NK-M-22M22S2,240,experiment,88,↓,down,↓,0.581034499919042,True,33,1
NK-M-22M22S2,241,experiment,96,←,left,←,0.733320500003174,True,33,1
NK-M-22M22S2,242,experiment,53,↑,up,↑,0.6382281000260264,True,33,1
NK-M-22M22S2,243,experiment,68,←,left,←,0.4614883998874575,True,33,1
NK-M-22M22S2,244,experiment,67,→,right,→,0.5086052000988275,True,33,1
NK-M-22M22S2,245,experiment,57,←,left,←,0.5250643000472337,True,33,1
NK-M-22M22S2,246,experiment,104,↓,down,↓,0.525328200077638,True,33,1
NK-M-22M22S2,247,experiment,59,←,left,←,0.46046030009165406,True,33,1
NK-M-22M22S2,248,experiment,90,↓,down,↓,0.6113708999473602,True,33,1
NK-M-22M22S2,249,experiment,91,→,left,←,0.46836309996433556,False,33,1
NK-M-22M22S2,250,experiment,69,↓,down,↓,0.5065204000566155,True,33,1
NK-M-22M22S2,251,experiment,75,↑,up,↑,0.7647291000466794,True,33,1
NK-M-22M22S2,252,experiment,73,↑,up,↑,0.5255400999449193,True,33,1
NK-M-22M22S2,253,experiment,82,←,left,←,0.45290919998660684,True,33,1
NK-M-22M22S2,254,experiment,49,→,right,→,0.521940500009805,True,33,1
NK-M-22M22S2,255,experiment,79,↓,down,↓,0.6584447999484837,True,33,1
NK-M-22M22S2,256,experiment,108,↑,up,↑,0.5478651998564601,True,33,1
NK-M-22M22S2,257,experiment,56,←,left,←,0.4989305001217872,True,33,1
NK-M-22M22S2,258,experiment,85,↑,up,↑,0.5463676999788731,True,33,1
NK-M-22M22S2,259,experiment,74,←,left,←,0.5313440000172704,True,33,1
NK-M-22M22S2,260,experiment,97,→,right,→,0.5254493998363614,True,33,1
NK-M-22M22S2,261,experiment,76,→,right,→,0.518929700134322,True,33,1
NK-M-22M22S2,262,experiment,86,↓,down,↓,0.6614725000690669,True,33,1
NK-M-22M22S2,263,experiment,83,↑,up,↑,0.534565799869597,True,33,1
NK-M-22M22S2,264,experiment,102,↓,down,↓,0.5509736000094563,True,33,1
NK-M-22M22S2,265,experiment,87,↑,up,↑,0.5397534999065101,True,33,1
NK-M-22M22S2,266,experiment,100,↑,up,↑,0.6522367999423295,True,33,1
NK-M-22M22S2,267,experiment,72,↑,up,↑,0.7861683999653906,True,33,1
NK-M-22M22S2,268,experiment,93,↑,up,↑,0.5713440999388695,True,33,1
NK-M-22M22S2,269,experiment,61,→,right,→,0.5357892999891192,True,33,1
NK-M-22M22S2,270,experiment,64,↑,up,↑,0.6769600000698119,True,33,1
NK-M-22M22S2,271,experiment,54,↑,up,↑,0.5916426000185311,True,33,1
NK-M-22M22S2,272,experiment,71,→,right,→,1.2401362999808043,True,33,1
NK-M-22M22S2,273,experiment,48,↓,down,↓,0.5820067001041025,True,33,1
NK-M-22M22S2,274,experiment,80,↑,up,↑,0.4598145999480039,True,33,1
NK-M-22M22S2,275,experiment,98,←,left,←,0.5524663999676704,True,33,1
NK-M-22M22S2,276,experiment,51,↑,up,↑,0.49724490009248257,True,33,1
NK-M-22M22S2,277,experiment,78,↑,up,↑,0.4991701999679208,True,33,1
NK-M-22M22S2,278,experiment,63,↑,up,↑,1.4738846998661757,True,33,1
NK-M-22M22S2,279,experiment,70,↑,up,↑,0.8151765000075102,True,33,1
NK-M-22M22S2,280,experiment,107,↓,down,↓,0.5864254001062363,True,33,1
NK-M-22M22S2,281,experiment,66,←,left,←,0.4525407000910491,True,33,1
NK-M-22M22S2,282,experiment,92,←,left,←,0.4596679999958724,True,33,1
NK-M-22M22S2,283,experiment,55,↓,down,↓,0.5342762998770922,True,33,1
NK-M-22M22S2,284,experiment,81,↑,up,↑,0.477613199967891,True,33,1
NK-M-22M22S2,285,experiment,94,↑,up,↑,0.6747491999994963,True,33,1
NK-M-22M22S2,286,experiment,101,←,left,←,0.4622419998049736,True,33,1
NK-M-22M22S2,287,experiment,58,←,left,←,0.5279337000101805,True,33,1
NK-M-22M22S2,288,experiment,77,↑,up,↑,0.402698100078851,True,33,1
NK-M-22M22S2,289,experiment,106,↓,down,↓,0.5245616999454796,True,33,0
NK-M-22M22S2,290,experiment,103,↑,up,↑,0.4930083998478949,True,33,1
NK-M-22M22S2,291,experiment,52,→,right,→,0.5517047999892384,True,33,1
NK-M-22M22S2,292,experiment,60,←,right,→,0.37568309996277094,False,33,1
NK-M-22M22S2,293,training,52,↓,down,↓,0.5731737001333386,True,32,0
NK-M-22M22S2,294,training,86,←,left,←,0.5853796000592411,True,32,1
NK-M-22M22S2,295,experiment,70,←,left,←,0.45839820010587573,True,32,1
NK-M-22M22S2,296,experiment,58,↓,down,↓,0.5403986000455916,True,32,1
NK-M-22M22S2,297,experiment,90,→,right,→,0.4483195000793785,True,32,1
NK-M-22M22S2,298,experiment,84,↑,up,↑,0.3593733999878168,True,32,1
NK-M-22M22S2,299,experiment,95,→,right,→,0.6995861001778394,True,32,1
NK-M-22M22S2,300,experiment,57,↑,up,↑,0.5803079998586327,True,32,1
NK-M-22M22S2,301,experiment,96,←,left,←,0.6767318998463452,True,32,1
NK-M-22M22S2,302,experiment,99,←,left,←,0.4644832001067698,True,32,1
NK-M-22M22S2,303,experiment,81,↑,up,↑,0.5144382999278605,True,32,1
NK-M-22M22S2,304,experiment,68,↑,down,↓,1.0392531999386847,False,32,1
NK-M-22M22S2,305,experiment,71,↓,down,↓,0.5493942000903189,True,32,1
NK-M-22M22S2,306,experiment,55,↑,up,↑,0.612675900105387,True,32,1
NK-M-22M22S2,307,experiment,83,→,right,→,0.46404489991255105,True,32,1
NK-M-22M22S2,308,experiment,65,↓,down,↓,0.5995459998957813,True,32,1
NK-M-22M22S2,309,experiment,103,↓,down,↓,0.4930278998799622,True,32,1
NK-M-22M22S2,310,experiment,67,←,left,←,0.49057159991934896,True,32,1
NK-M-22M22S2,311,experiment,77,↓,down,↓,0.47694760002195835,True,32,1
NK-M-22M22S2,312,experiment,56,↓,down,↓,0.5752063000109047,True,32,1
NK-M-22M22S2,313,experiment,100,→,right,→,0.5025067999958992,True,32,1
NK-M-22M22S2,314,experiment,52,←,left,←,0.39302299986593425,True,32,1
NK-M-22M22S2,315,experiment,106,→,right,→,0.5486288999672979,True,32,0
NK-M-22M22S2,316,experiment,104,↑,up,↑,0.5316353999078274,True,32,1
NK-M-22M22S2,317,experiment,74,→,right,→,0.5255239999387413,True,32,1
NK-M-22M22S2,318,experiment,66,→,right,→,0.49016909999772906,True,32,1
NK-M-22M22S2,319,experiment,69,↓,down,↓,0.647393099963665,True,32,1
NK-M-22M22S2,320,experiment,97,↑,up,↑,0.6290808999910951,True,32,1
NK-M-22M22S2,321,experiment,49,→,right,→,0.7635305000003427,True,32,1
NK-M-22M22S2,322,experiment,91,←,left,←,0.5097173000685871,True,32,1
NK-M-22M22S2,323,experiment,73,↑,up,↑,0.7690399000421166,True,32,1
NK-M-22M22S2,324,experiment,59,↑,up,↑,1.7498389999382198,True,32,1
NK-M-22M22S2,325,experiment,50,↓,down,↓,0.5911576999351382,True,32,1
NK-M-22M22S2,326,experiment,79,↑,up,↑,0.4848279000725597,True,32,1
NK-M-22M22S2,327,experiment,92,←,left,←,0.47477880003862083,True,32,1
NK-M-22M22S2,328,experiment,72,↑,up,↑,0.5994155998341739,True,32,1
NK-M-22M22S2,329,experiment,85,←,left,←,0.5227947998791933,True,32,1
NK-M-22M22S2,330,experiment,102,↑,up,↑,0.7556348999496549,True,32,1
NK-M-22M22S2,331,experiment,60,↑,up,↑,0.4968699000310153,True,32,1
NK-M-22M22S2,332,experiment,75,↑,up,↑,0.401063600089401,True,32,1
NK-M-22M22S2,333,experiment,64,↑,up,↑,0.47789280000142753,True,32,0
NK-M-22M22S2,334,experiment,48,↑,up,↑,0.6586674998980016,True,32,1
NK-M-22M22S2,335,experiment,94,←,left,←,0.46466080006211996,True,32,1
NK-M-22M22S2,336,experiment,93,←,left,←,0.48684129980392754,True,32,1
NK-M-22M22S2,337,experiment,105,↓,up,↑,0.895986899966374,False,32,1
NK-M-22M22S2,338,experiment,82,←,left,←,0.8244034999515861,True,32,1
NK-M-22M22S2,339,experiment,61,←,left,←,0.4746791999787092,True,32,1
NK-M-22M22S2,340,experiment,76,→,right,→,0.5899970000609756,True,32,1
NK-M-22M22S2,341,experiment,54,→,right,→,1.4285983999725431,True,32,1
NK-M-22M22S2,342,experiment,88,←,left,←,0.4694622000679374,True,32,1
NK-M-22M22S2,343,experiment,63,→,right,→,0.621129099978134,True,32,1
NK-M-22M22S2,344,experiment,53,↓,down,↓,0.6102954000234604,True,32,1
NK-M-22M22S2,345,experiment,89,←,left,←,0.4920632999856025,True,32,1
NK-M-22M22S2,346,experiment,107,↓,down,↓,0.5324798999354243,True,32,1
NK-M-22M22S2,347,experiment,101,→,right,→,0.5970105999149382,True,32,1
NK-M-22M22S2,348,experiment,98,←,left,←,0.5562040000222623,True,32,1
NK-M-22M22S2,349,experiment,86,↑,up,↑,0.5527566999662668,True,32,1
NK-M-22M22S2,350,experiment,62,→,right,→,1.3094197001773864,True,32,1
NK-M-22M22S2,351,experiment,51,←,left,←,0.7678447999060154,True,32,1
NK-M-22M22S2,352,experiment,78,↑,up,↑,0.6548601998947561,True,32,1
NK-M-22M22S2,353,experiment,80,→,right,→,0.5936164997983724,True,32,1
NK-M-22M22S2,354,experiment,108,←,left,←,0.477580500068143,True,32,1
NK-M-22M22S2,355,experiment,87,↓,down,↓,0.6454512998461723,True,32,1
NK-M-22M22S2,356,training,106,↑,up,↑,0.5278995998669416,True,31,0
NK-M-22M22S2,357,training,93,↑,down,↓,1.3315707000438124,False,31,1
NK-M-22M22S2,358,experiment,59,→,right,→,0.5782305998727679,True,31,1
NK-M-22M22S2,359,experiment,58,↑,up,↑,0.49513900000602007,True,31,1
NK-M-22M22S2,360,experiment,61,↓,down,↓,0.5666600000113249,True,31,1
NK-M-22M22S2,361,experiment,94,↓,down,↓,0.4804611001163721,True,31,1
NK-M-22M22S2,362,experiment,101,↑,down,↓,1.3872278998605907,False,31,1
NK-M-22M22S2,363,experiment,77,↓,down,↓,0.5853786999359727,True,31,1
NK-M-22M22S2,364,experiment,64,→,right,→,0.5245602000504732,True,31,1
NK-M-22M22S2,365,experiment,63,↓,down,↓,0.5864605000242591,True,31,1
NK-M-22M22S2,366,experiment,57,↓,down,↓,0.6238311000633985,True,31,1
NK-M-22M22S2,367,experiment,70,↓,down,↓,0.7033293000422418,True,31,1
NK-M-22M22S2,368,experiment,93,↑,up,↑,1.3073211999144405,True,31,1
NK-M-22M22S2,369,experiment,54,←,left,←,0.572664099978283,True,31,1
NK-M-22M22S2,370,experiment,88,→,right,→,0.6082454000134021,True,31,1
NK-M-22M22S2,371,experiment,87,←,left,←,0.4426802999805659,True,31,1
NK-M-22M22S2,372,experiment,78,↑,up,↑,1.1984970001503825,True,31,1
NK-M-22M22S2,373,experiment,84,↑,up,↑,0.37593699991703033,True,31,1
NK-M-22M22S2,374,experiment,105,←,left,←,0.45564899989403784,True,31,0
NK-M-22M22S2,375,experiment,49,→,right,→,0.5887172999791801,True,31,1
NK-M-22M22S2,376,experiment,103,←,left,←,0.7385818001348525,True,31,1
NK-M-22M22S2,377,experiment,68,↑,up,↑,0.5259539999533445,True,31,1
NK-M-22M22S2,378,experiment,97,←,left,←,0.6000936001073569,True,31,1
NK-M-22M22S2,379,experiment,60,↑,up,↑,0.8038999000564218,True,31,1
NK-M-22M22S2,380,experiment,65,→,right,→,0.5654605999588966,True,31,1
NK-M-22M22S2,381,experiment,104,↑,up,↑,0.6197754999157041,True,31,1
NK-M-22M22S2,382,experiment,66,←,left,←,0.5171437999233603,True,31,1
NK-M-22M22S2,383,experiment,48,↑,up,↑,0.5282557001337409,True,31,1
NK-M-22M22S2,384,experiment,92,→,right,→,0.7242805000860244,True,31,1
NK-M-22M22S2,385,experiment,76,→,right,→,0.6457340000197291,True,31,1
NK-M-22M22S2,386,experiment,90,→,right,→,0.6613759000319988,True,31,1
NK-M-22M22S2,387,experiment,73,↓,down,↓,0.7224391999188811,True,31,1
NK-M-22M22S2,388,experiment,52,↑,up,↑,0.9317475999705493,True,31,1
NK-M-22M22S2,389,experiment,106,↑,up,↑,0.7868661000393331,True,31,1
NK-M-22M22S2,390,experiment,79,↓,down,↓,0.6087528001517057,True,31,1
NK-M-22M22S2,391,experiment,75,↓,down,↓,0.5593542999122292,True,31,1
NK-M-22M22S2,392,experiment,55,↑,up,↑,0.6542892998550087,True,31,1
NK-M-22M22S2,393,experiment,86,↑,up,↑,1.0392838998232037,True,31,1
NK-M-22M22S2,394,experiment,100,→,right,→,0.7079399998765439,True,31,1
NK-M-22M22S2,395,experiment,62,↑,up,↑,0.6106226998381317,True,31,1
NK-M-22M22S2,396,experiment,56,↑,up,↑,0.743510500062257,True,31,1
NK-M-22M22S2,397,experiment,108,←,left,←,0.4614465998020023,True,31,1
NK-M-22M22S2,398,experiment,85,↓,down,↓,0.8702899001073092,True,31,1
NK-M-22M22S2,399,experiment,71,↓,down,↓,0.5314734000712633,True,31,1
NK-M-22M22S2,400,experiment,107,←,left,←,0.5142702998127788,True,31,1
NK-M-22M22S2,401,experiment,69,←,left,←,0.5502382998820394,True,31,1
NK-M-22M22S2,402,experiment,53,↑,up,↑,0.5422952000517398,True,31,1
NK-M-22M22S2,403,experiment,82,←,left,←,0.4534014000091702,True,31,1
NK-M-22M22S2,404,experiment,102,→,right,→,0.7048458000645041,True,31,1
NK-M-22M22S2,405,experiment,95,↑,right,→,0.844495499972254,False,31,1
NK-M-22M22S2,406,experiment,81,→,right,→,0.6796438000164926,True,31,1
NK-M-22M22S2,407,experiment,91,→,right,→,0.9816219999920577,True,31,1
NK-M-22M22S2,408,experiment,80,↑,up,↑,0.5552372001111507,True,31,1
NK-M-22M22S2,409,experiment,96,←,left,←,0.5646138000302017,True,31,1
NK-M-22M22S2,410,experiment,51,→,right,→,0.900744799990207,True,31,1
NK-M-22M22S2,411,experiment,99,↑,up,↑,0.511602699989453,True,31,1
NK-M-22M22S2,412,experiment,72,↓,up,↑,0.818845700006932,False,31,1
NK-M-22M22S2,413,experiment,89,↓,down,↓,0.5882596999872476,True,31,1
NK-M-22M22S2,414,experiment,83,↓,down,↓,0.6004466000013053,True,31,1
NK-M-22M22S2,415,experiment,98,↓,down,↓,0.5035612999927253,True,31,1
NK-M-22M22S2,416,experiment,50,↓,down,↓,0.5627146000042558,True,31,1
NK-M-22M22S2,417,experiment,74,↓,down,↓,1.2195081999525428,True,31,1
NK-M-22M22S2,418,experiment,67,↑,up,↑,0.5320986998267472,True,31,1
NK-M-22M22S2,419,training,53,↑,up,↑,0.49498919979669154,True,30,0
NK-M-22M22S2,420,training,102,→,right,→,0.4889875000808388,True,30,1
NK-M-22M22S2,421,experiment,85,→,right,→,0.4727872998919338,True,30,1
NK-M-22M22S2,422,experiment,74,→,right,→,0.3926652001682669,True,30,1
NK-M-22M22S2,423,experiment,52,←,left,←,0.5553651000373065,True,30,0
NK-M-22M22S2,424,experiment,67,↓,down,↓,0.5423429999500513,True,30,1
NK-M-22M22S2,425,experiment,83,→,right,→,0.764699500054121,True,30,1
NK-M-22M22S2,426,experiment,62,→,right,→,0.4812362000811845,True,30,1
NK-M-22M22S2,427,experiment,86,↓,down,↓,0.512818600051105,True,30,1
NK-M-22M22S2,428,experiment,91,←,left,←,0.5416294999886304,True,30,1
NK-M-22M22S2,429,experiment,90,↑,up,↑,0.7615120999980718,True,30,1
NK-M-22M22S2,430,experiment,77,↑,up,↑,0.5933252000249922,True,30,1
NK-M-22M22S2,431,experiment,102,←,left,←,0.5435732998885214,True,30,1
NK-M-22M22S2,432,experiment,98,←,left,←,0.568677700124681,True,30,1
NK-M-22M22S2,433,experiment,64,↑,up,↑,0.4684965000487864,True,30,1
NK-M-22M22S2,434,experiment,50,←,left,←,0.5685652999673039,True,30,1
NK-M-22M22S2,435,experiment,92,↑,up,↑,0.4274156999308616,True,30,1
NK-M-22M22S2,436,experiment,53,→,right,→,0.5518482001498342,True,30,1
NK-M-22M22S2,437,experiment,78,→,right,→,0.5193521999754012,True,30,1
NK-M-22M22S2,438,experiment,57,↑,up,↑,0.5756820999085903,True,30,1
NK-M-22M22S2,439,experiment,107,→,right,→,0.47665719990618527,True,30,1
NK-M-22M22S2,440,experiment,79,↓,down,↓,1.2391131999902427,True,30,1
NK-M-22M22S2,441,experiment,76,↑,up,↑,0.8996868999674916,True,30,1
NK-M-22M22S2,442,experiment,82,↑,up,↑,0.4918688000179827,True,30,1
NK-M-22M22S2,443,experiment,88,↑,up,↑,1.2026553999166936,True,30,1
NK-M-22M22S2,444,experiment,93,↓,down,↓,0.6033924999646842,True,30,1
NK-M-22M22S2,445,experiment,106,↓,down,↓,0.5598144000396132,True,30,1
NK-M-22M22S2,446,experiment,48,←,left,←,0.5610599999781698,True,30,1
NK-M-22M22S2,447,experiment,94,→,right,→,0.6110976999625564,True,30,1
NK-M-22M22S2,448,experiment,51,→,right,→,0.8096384000964463,True,30,1
NK-M-22M22S2,449,experiment,63,←,left,←,0.5479607000015676,True,30,1
NK-M-22M22S2,450,experiment,89,↑,up,↑,0.5680685001425445,True,30,1
NK-M-22M22S2,451,experiment,69,→,right,→,0.5141501999460161,True,30,1
NK-M-22M22S2,452,experiment,105,↑,up,↑,0.8501581000164151,True,30,1
NK-M-22M22S2,453,experiment,103,↑,up,↑,0.6215001000091434,True,30,1
NK-M-22M22S2,454,experiment,68,↑,up,↑,0.5256594999227673,True,30,1
NK-M-22M22S2,455,experiment,97,→,right,→,0.5680021999869496,True,30,1
NK-M-22M22S2,456,experiment,84,→,no_key,no_letter,-1.0,False,30,1
NK-M-22M22S2,457,experiment,65,←,left,←,0.5381921001244336,True,30,1
NK-M-22M22S2,458,experiment,96,←,left,←,0.37609719997271895,True,30,1
NK-M-22M22S2,459,experiment,70,←,left,←,0.4373816999141127,True,30,0
NK-M-22M22S2,460,experiment,54,→,right,→,0.6336475999560207,True,30,1
NK-M-22M22S2,461,experiment,101,↑,up,↑,0.4304152999538928,True,30,1
NK-M-22M22S2,462,experiment,58,→,right,→,0.6493067000992596,True,30,1
NK-M-22M22S2,463,experiment,100,→,right,→,0.7176053000148386,True,30,1
NK-M-22M22S2,464,experiment,66,↓,down,↓,0.6187952000182122,True,30,1
NK-M-22M22S2,465,experiment,56,↓,down,↓,0.5110750999301672,True,30,1
NK-M-22M22S2,466,experiment,55,←,left,←,0.5602790999691933,True,30,1
NK-M-22M22S2,467,experiment,87,←,left,←,0.38464289996773005,True,30,1
NK-M-22M22S2,468,experiment,72,↓,down,↓,0.5007356000132859,True,30,1
NK-M-22M22S2,469,experiment,99,→,right,→,0.4715547999367118,True,30,1
NK-M-22M22S2,470,experiment,60,→,right,→,0.512214999878779,True,30,1
NK-M-22M22S2,471,experiment,49,←,left,←,0.7071189000271261,True,30,1
NK-M-22M22S2,472,experiment,59,↓,down,↓,0.5066104000434279,True,30,1
NK-M-22M22S2,473,experiment,80,↑,up,↑,0.4833809998817742,True,30,1
NK-M-22M22S2,474,experiment,73,↓,down,↓,0.7035519001074135,True,30,1
NK-M-22M22S2,475,experiment,71,↓,down,↓,0.5155296002048999,True,30,1
NK-M-22M22S2,476,experiment,104,→,right,→,0.6677930001169443,True,30,1
NK-M-22M22S2,477,experiment,95,←,left,←,0.3843429998960346,True,30,1
NK-M-22M22S2,478,experiment,108,↓,down,↓,0.5093642000574619,True,30,0
NK-M-22M22S2,479,experiment,75,→,right,→,0.5356284999288619,True,30,1
NK-M-22M22S2,480,experiment,61,←,left,←,0.6061668999027461,True,30,1
NK-M-22M22S2,481,experiment,81,→,right,→,0.42672930005937815,True,30,1
NK-M-22M22S2,482,training,92,←,left,←,0.46389429992996156,True,29,0
NK-M-22M22S2,483,training,86,↑,up,↑,0.4961848999373615,True,29,1
NK-M-22M22S2,484,experiment,107,↓,right,→,1.1121781999245286,False,29,1
NK-M-22M22S2,485,experiment,50,←,left,←,0.47458530007861555,True,29,1
NK-M-22M22S2,486,experiment,85,↓,down,↓,0.5951294999103993,True,29,1
NK-M-22M22S2,487,experiment,96,↓,down,↓,0.56318339984864,True,29,1
NK-M-22M22S2,488,experiment,76,←,left,←,0.4988441998139024,True,29,1
NK-M-22M22S2,489,experiment,93,↓,down,↓,0.5755561999976635,True,29,1
NK-M-22M22S2,490,experiment,49,↑,up,↑,0.48805159982293844,True,29,1
NK-M-22M22S2,491,experiment,102,↓,down,↓,0.5380824999883771,True,29,1
NK-M-22M22S2,492,experiment,94,→,right,→,0.5648203999735415,True,29,1
NK-M-22M22S2,493,experiment,72,↓,down,↓,0.6538835000246763,True,29,1
NK-M-22M22S2,494,experiment,71,→,right,→,0.3845277999062091,True,29,1
NK-M-22M22S2,495,experiment,64,↓,down,↓,0.7587264000903815,True,29,0
NK-M-22M22S2,496,experiment,87,↓,down,↓,0.41881150007247925,True,29,1
NK-M-22M22S2,497,experiment,99,←,left,←,0.4403647999279201,True,29,1
NK-M-22M22S2,498,experiment,106,↓,down,↓,0.5710026000160724,True,29,1
NK-M-22M22S2,499,experiment,73,↓,down,↓,0.41250200010836124,True,29,1
NK-M-22M22S2,500,experiment,78,←,left,←,0.5610725998412818,True,29,1
NK-M-22M22S2,501,experiment,91,↓,down,↓,0.5400100001133978,True,29,1
NK-M-22M22S2,502,experiment,86,↓,down,↓,0.5692274000030011,True,29,1
NK-M-22M22S2,503,experiment,92,→,left,←,1.0912935000378639,False,29,1
NK-M-22M22S2,504,experiment,108,←,left,←,0.5393415000289679,True,29,1
NK-M-22M22S2,505,experiment,100,←,left,←,0.45206809998489916,True,29,1
NK-M-22M22S2,506,experiment,89,↓,down,↓,0.5559511999599636,True,29,1
NK-M-22M22S2,507,experiment,67,←,left,←,0.4388885002117604,True,29,1
NK-M-22M22S2,508,experiment,56,←,left,←,0.5303833000361919,True,29,1
NK-M-22M22S2,509,experiment,79,↑,up,↑,0.5624283000361174,True,29,1
NK-M-22M22S2,510,experiment,82,↑,up,↑,0.592456400161609,True,29,1
NK-M-22M22S2,511,experiment,83,↑,up,↑,0.4448750999290496,True,29,1
NK-M-22M22S2,512,experiment,69,↓,down,↓,0.46780119999311864,True,29,1
NK-M-22M22S2,513,experiment,70,→,right,→,0.5931321999523789,True,29,1
NK-M-22M22S2,514,experiment,105,←,right,→,1.0702776999678463,False,29,1
NK-M-22M22S2,515,experiment,53,↑,up,↑,0.5694852999877185,True,29,1
NK-M-22M22S2,516,experiment,80,←,left,←,1.1758831001352519,True,29,1
NK-M-22M22S2,517,experiment,66,←,left,←,0.666343999793753,True,29,1
NK-M-22M22S2,518,experiment,59,↓,up,↑,1.227779199834913,False,29,1
NK-M-22M22S2,519,experiment,65,→,left,←,0.6848790000658482,False,29,1
NK-M-22M22S2,520,experiment,103,↑,up,↑,0.6388342001009732,True,29,1
NK-M-22M22S2,521,experiment,104,←,left,←,0.4108822999987751,True,29,1
NK-M-22M22S2,522,experiment,61,←,left,←,0.5489672000985593,True,29,0
NK-M-22M22S2,523,experiment,63,→,right,→,0.5938001999165863,True,29,1
NK-M-22M22S2,524,experiment,62,→,right,→,0.7891307000536472,True,29,1
NK-M-22M22S2,525,experiment,95,↓,down,↓,0.7415779000148177,True,29,1
NK-M-22M22S2,526,experiment,97,↑,up,↑,0.5752456998452544,True,29,1
NK-M-22M22S2,527,experiment,77,↓,down,↓,0.6624483000487089,True,29,1
NK-M-22M22S2,528,experiment,75,←,left,←,0.47433290001936257,True,29,1
NK-M-22M22S2,529,experiment,68,↓,down,↓,0.6083345001097769,True,29,1
NK-M-22M22S2,530,experiment,81,↑,up,↑,0.3762610999401659,True,29,1
NK-M-22M22S2,531,experiment,90,←,down,↓,0.9272719998843968,False,29,1
NK-M-22M22S2,532,experiment,51,→,right,→,0.593020899919793,True,29,1
NK-M-22M22S2,533,experiment,74,←,right,→,0.7762313999701291,False,29,1
NK-M-22M22S2,534,experiment,84,↓,down,↓,0.5171441999264061,True,29,1
NK-M-22M22S2,535,experiment,101,←,left,←,0.5266019999980927,True,29,1
NK-M-22M22S2,536,experiment,55,→,right,→,0.5348946000449359,True,29,1
NK-M-22M22S2,537,experiment,98,←,left,←,0.33387610013596714,True,29,1
NK-M-22M22S2,538,experiment,54,↑,up,↑,0.512600100133568,True,29,0
NK-M-22M22S2,539,experiment,88,↑,up,↑,0.4225624999962747,True,29,1
NK-M-22M22S2,540,experiment,58,→,right,→,0.5857140999287367,True,29,1
NK-M-22M22S2,541,experiment,52,←,left,←,0.5689791000913829,True,29,1
NK-M-22M22S2,542,experiment,60,→,right,→,0.5656747000757605,True,29,1
NK-M-22M22S2,543,experiment,48,→,right,→,0.7748898998834193,True,29,1
NK-M-22M22S2,544,experiment,57,→,right,→,0.4286617999896407,True,29,1
NK-M-22M22S2,545,training,71,↑,up,↑,0.5729336000513285,True,29,0
NK-M-22M22S2,546,training,74,→,right,→,0.47698660008609295,True,29,1
NK-M-22M22S2,547,experiment,58,←,left,←,0.5024039999116212,True,29,1
NK-M-22M22S2,548,experiment,78,↑,up,↑,0.4162021998781711,True,29,1
NK-M-22M22S2,549,experiment,69,→,right,→,0.46406789985485375,True,29,1
NK-M-22M22S2,550,experiment,56,→,right,→,0.6823074999265373,True,29,1
NK-M-22M22S2,551,experiment,87,↓,down,↓,0.6017553999554366,True,29,1
NK-M-22M22S2,552,experiment,106,→,right,→,0.5019793000537902,True,29,1
NK-M-22M22S2,553,experiment,76,↑,up,↑,0.5285521000623703,True,29,1
NK-M-22M22S2,554,experiment,83,↑,up,↑,0.38463740004226565,True,29,1
NK-M-22M22S2,555,experiment,75,→,right,→,0.5264377999119461,True,29,0
NK-M-22M22S2,556,experiment,82,→,right,→,0.44572199997492135,True,29,1
NK-M-22M22S2,557,experiment,65,←,left,←,1.3737021000124514,True,29,1
NK-M-22M22S2,558,experiment,53,←,left,←,0.6687551001086831,True,29,1
NK-M-22M22S2,559,experiment,67,←,left,←,0.49173250002786517,True,29,1
NK-M-22M22S2,560,experiment,92,←,left,←,0.9929914998356253,True,29,1
NK-M-22M22S2,561,experiment,85,↑,up,↑,0.4768344999756664,True,29,1
NK-M-22M22S2,562,experiment,61,→,right,→,0.5810958999209106,True,29,1
NK-M-22M22S2,563,experiment,96,←,left,←,0.4854741001036018,True,29,1
NK-M-22M22S2,564,experiment,72,←,left,←,0.5301262000575662,True,29,1
NK-M-22M22S2,565,experiment,73,↑,up,↑,0.515944000100717,True,29,1
NK-M-22M22S2,566,experiment,77,↓,down,↓,0.709282899973914,True,29,1
NK-M-22M22S2,567,experiment,55,↓,down,↓,0.6702715998981148,True,29,1
NK-M-22M22S2,568,experiment,49,←,left,←,0.5788377998396754,True,29,1
NK-M-22M22S2,569,experiment,86,↑,up,↑,0.39255809993483126,True,29,1
NK-M-22M22S2,570,experiment,99,←,left,←,0.5015118999872357,True,29,0
NK-M-22M22S2,571,experiment,57,↓,down,↓,0.6539921998046339,True,29,1
NK-M-22M22S2,572,experiment,62,→,right,→,0.5988190998323262,True,29,1
NK-M-22M22S2,573,experiment,98,↑,up,↑,0.9177272999659181,True,29,1
NK-M-22M22S2,574,experiment,54,←,left,←,0.4866537000052631,True,29,1
NK-M-22M22S2,575,experiment,68,←,left,←,0.3671675000805408,True,29,1
NK-M-22M22S2,576,experiment,50,→,right,→,0.6846266998909414,True,29,0
NK-M-22M22S2,577,experiment,91,←,left,←,0.610635600052774,True,29,1
NK-M-22M22S2,578,experiment,59,←,left,←,0.7502266999799758,True,29,1
NK-M-22M22S2,579,experiment,103,↑,up,↑,0.5254414998926222,True,29,1
NK-M-22M22S2,580,experiment,107,→,right,→,0.5325418000575155,True,29,1
NK-M-22M22S2,581,experiment,100,↓,down,↓,0.7098095000255853,True,29,1
NK-M-22M22S2,582,experiment,71,↑,up,↑,0.5772329999599606,True,29,1
NK-M-22M22S2,583,experiment,105,↑,down,↓,0.8309024998452514,False,29,1
NK-M-22M22S2,584,experiment,81,→,right,→,0.5144393998198211,True,29,1
NK-M-22M22S2,585,experiment,88,→,right,→,0.5359722001012415,True,29,1
NK-M-22M22S2,586,experiment,48,←,left,←,0.602419100003317,True,29,1
NK-M-22M22S2,587,experiment,90,↓,down,↓,0.6838845000602305,True,29,1
NK-M-22M22S2,588,experiment,52,↑,up,↑,0.5510593000799417,True,29,1
NK-M-22M22S2,589,experiment,84,←,left,←,1.6125827000942081,True,29,1
NK-M-22M22S2,590,experiment,70,↑,up,↑,0.5242802000138909,True,29,1
NK-M-22M22S2,591,experiment,74,↓,down,↓,0.5582258000504225,True,29,1
NK-M-22M22S2,592,experiment,60,→,right,→,0.5077430999372154,True,29,1
NK-M-22M22S2,593,experiment,102,←,left,←,0.5330930000636727,True,29,1
NK-M-22M22S2,594,experiment,101,→,right,→,0.781637700041756,True,29,1
NK-M-22M22S2,595,experiment,79,←,left,←,0.4127365001477301,True,29,1
NK-M-22M22S2,596,experiment,51,←,left,←,0.5299760999623686,True,29,0
NK-M-22M22S2,597,experiment,63,←,left,←,0.639293699990958,True,29,1
NK-M-22M22S2,598,experiment,66,→,right,→,0.599495200207457,True,29,1
NK-M-22M22S2,599,experiment,104,↑,up,↑,0.5324767997954041,True,29,1
NK-M-22M22S2,600,experiment,97,→,right,→,0.5825521000660956,True,29,1
NK-M-22M22S2,601,experiment,80,→,right,→,0.5563226998783648,True,29,1
NK-M-22M22S2,602,experiment,108,↑,up,↑,0.5536496001295745,True,29,1
NK-M-22M22S2,603,experiment,89,←,left,←,0.6452190999407321,True,29,1
NK-M-22M22S2,604,experiment,95,↓,down,↓,0.7397499000653625,True,29,1
NK-M-22M22S2,605,experiment,93,↑,up,↑,0.5108241001144052,True,29,1
NK-M-22M22S2,606,experiment,94,→,right,→,0.5789757000748068,True,29,1
NK-M-22M22S2,607,experiment,64,→,left,←,0.9341774000786245,False,29,1
NK-M-22M22S2,608,training,51,←,left,←,0.4839676001574844,True,28,0
NK-M-22M22S2,609,training,106,←,left,←,0.42096849996596575,True,28,1
NK-M-22M22S2,610,experiment,53,→,right,→,0.5060842998791486,True,28,1
NK-M-22M22S2,611,experiment,101,↑,up,↑,0.4595007998868823,True,28,1
NK-M-22M22S2,612,experiment,63,→,right,→,0.5561242999974638,True,28,1
NK-M-22M22S2,613,experiment,106,↑,up,↑,1.338095699902624,True,28,1
NK-M-22M22S2,614,experiment,105,→,right,→,0.5611855001188815,True,28,1
NK-M-22M22S2,615,experiment,100,↓,down,↓,0.7610037000849843,True,28,1
NK-M-22M22S2,616,experiment,61,↑,up,↑,0.4621743999887258,True,28,1
NK-M-22M22S2,617,experiment,98,←,left,←,0.49059060006402433,True,28,1
NK-M-22M22S2,618,experiment,108,↑,up,↑,1.1545925000682473,True,28,1
NK-M-22M22S2,619,experiment,67,↓,down,↓,0.7414641999639571,True,28,1
NK-M-22M22S2,620,experiment,51,→,right,→,0.6230155001394451,True,28,1
NK-M-22M22S2,621,experiment,102,↓,down,↓,0.5953516000881791,True,28,1
NK-M-22M22S2,622,experiment,56,↑,up,↑,1.392352200113237,True,28,1
NK-M-22M22S2,623,experiment,65,→,right,→,0.5867435000836849,True,28,1
NK-M-22M22S2,624,experiment,77,←,left,←,0.3846232001669705,True,28,1
NK-M-22M22S2,625,experiment,84,↓,down,↓,0.5170418999623507,True,28,1
NK-M-22M22S2,626,experiment,52,→,right,→,0.5508818000089377,True,28,1
NK-M-22M22S2,627,experiment,48,←,left,←,0.6487734999973327,True,28,1
NK-M-22M22S2,628,experiment,68,←,left,←,0.5837884000502527,True,28,1
NK-M-22M22S2,629,experiment,57,↓,left,←,0.9332096001598984,False,28,1
NK-M-22M22S2,630,experiment,89,←,left,←,0.449868299998343,True,28,1
NK-M-22M22S2,631,experiment,60,↓,down,↓,0.6520821000449359,True,28,1
NK-M-22M22S2,632,experiment,104,→,right,→,0.6062921998091042,True,28,1
NK-M-22M22S2,633,experiment,91,↓,down,↓,0.5434038999956101,True,28,1
NK-M-22M22S2,634,experiment,107,←,left,←,0.5497760002035648,True,28,1
NK-M-22M22S2,635,experiment,80,↑,up,↑,0.5806744999717921,True,28,1
NK-M-22M22S2,636,experiment,66,↑,up,↑,0.4952941001392901,True,28,1
NK-M-22M22S2,637,experiment,97,→,right,→,0.507059299852699,True,28,1
NK-M-22M22S2,638,experiment,85,→,right,→,0.546028699958697,True,28,1
NK-M-22M22S2,639,experiment,94,↑,up,↑,0.5084116000216454,True,28,1
NK-M-22M22S2,640,experiment,70,↓,down,↓,0.6885056002065539,True,28,1
NK-M-22M22S2,641,experiment,59,←,left,←,0.4649105998687446,True,28,1
NK-M-22M22S2,642,experiment,83,↓,down,↓,0.49033110006712377,True,28,1
NK-M-22M22S2,643,experiment,73,↓,down,↓,0.5259828998241574,True,28,1
NK-M-22M22S2,644,experiment,95,→,right,→,0.44116539997048676,True,28,1
NK-M-22M22S2,645,experiment,54,↑,up,↑,0.6612350000068545,True,28,1
NK-M-22M22S2,646,experiment,71,↑,up,↑,0.8831450999714434,True,28,1
NK-M-22M22S2,647,experiment,74,↓,down,↓,0.6786032998934388,True,28,1
NK-M-22M22S2,648,experiment,50,↓,down,↓,0.6507157001178712,True,28,1
NK-M-22M22S2,649,experiment,90,↓,down,↓,0.5624319000635296,True,28,1
NK-M-22M22S2,650,experiment,64,←,left,←,0.5180122999008745,True,28,1
NK-M-22M22S2,651,experiment,96,←,left,←,0.4813006999902427,True,28,1
NK-M-22M22S2,652,experiment,82,↑,up,↑,0.5623900999780744,True,28,1
NK-M-22M22S2,653,experiment,58,←,left,←,0.6078966001514345,True,28,1
NK-M-22M22S2,654,experiment,76,←,left,←,0.5104620999190956,True,28,1
NK-M-22M22S2,655,experiment,55,↑,up,↑,0.45516070001758635,True,28,1
NK-M-22M22S2,656,experiment,103,→,right,→,0.5381744999904186,True,28,1
NK-M-22M22S2,657,experiment,99,←,left,←,0.6353145001921803,True,28,1
NK-M-22M22S2,658,experiment,49,←,left,←,1.3533652999904007,True,28,1
NK-M-22M22S2,659,experiment,72,→,left,←,0.9226253998931497,False,28,1
NK-M-22M22S2,660,experiment,86,↑,down,↓,0.7206594999879599,False,28,1
NK-M-22M22S2,661,experiment,88,→,right,→,0.5742574001196772,True,28,1
NK-M-22M22S2,662,experiment,87,↓,down,↓,0.6178450998850167,True,28,1
NK-M-22M22S2,663,experiment,81,←,left,←,0.5737316999584436,True,28,1
NK-M-22M22S2,664,experiment,93,↓,down,↓,0.7593850998673588,True,28,1
NK-M-22M22S2,665,experiment,92,←,left,←,0.4901556000113487,True,28,1
NK-M-22M22S2,666,experiment,62,→,left,←,0.8895171000622213,False,28,1
NK-M-22M22S2,667,experiment,75,←,left,←,0.4767875000834465,True,28,1
NK-M-22M22S2,668,experiment,69,↓,down,↓,0.585973999928683,True,28,1
NK-M-22M22S2,669,experiment,78,↓,down,↓,0.5284563000313938,True,28,1
NK-M-22M22S2,670,experiment,79,→,left,←,0.6088879001326859,False,28,1
NK-M-22M22S2,671,training,93,←,left,←,0.5180579000152647,True,28,0
NK-M-22M22S2,672,training,87,←,left,←,0.9881204001139849,True,28,1
NK-M-22M22S2,673,experiment,100,↑,up,↑,0.7551327000837773,True,28,1
NK-M-22M22S2,674,experiment,55,←,left,←,0.4898791001178324,True,28,1
NK-M-22M22S2,675,experiment,66,↓,down,↓,0.5440783000085503,True,28,1
NK-M-22M22S2,676,experiment,107,↑,up,↑,0.5743641001172364,True,28,1
NK-M-22M22S2,677,experiment,89,←,left,←,0.47342159994877875,True,28,1
NK-M-22M22S2,678,experiment,105,↑,up,↑,0.45922990003600717,True,28,1
NK-M-22M22S2,679,experiment,103,↑,up,↑,0.4942090001422912,True,28,1
NK-M-22M22S2,680,experiment,50,→,right,→,0.6892196999397129,True,28,1
NK-M-22M22S2,681,experiment,69,→,right,→,0.5902565999422222,True,28,1
NK-M-22M22S2,682,experiment,98,→,right,→,0.5417446000501513,True,28,1
NK-M-22M22S2,683,experiment,77,↑,up,↑,0.5500475999433547,True,28,1
NK-M-22M22S2,684,experiment,93,↑,up,↑,0.45676860003732145,True,28,1
NK-M-22M22S2,685,experiment,90,→,right,→,0.6961707000155002,True,28,1
NK-M-22M22S2,686,experiment,53,↓,down,↓,0.6662671000231057,True,28,1
NK-M-22M22S2,687,experiment,82,→,right,→,0.5480817998759449,True,28,1
NK-M-22M22S2,688,experiment,72,↑,up,↑,0.7496118999551982,True,28,1
NK-M-22M22S2,689,experiment,78,→,right,→,0.5576206999830902,True,28,1
NK-M-22M22S2,690,experiment,57,←,left,←,0.5878709000535309,True,28,1
NK-M-22M22S2,691,experiment,96,→,right,→,0.45196520001627505,True,28,1
NK-M-22M22S2,692,experiment,68,↑,up,↑,0.522705800132826,True,28,1
NK-M-22M22S2,693,experiment,79,←,left,←,0.4350423999130726,True,28,1
NK-M-22M22S2,694,experiment,70,↑,up,↑,0.5061780998948961,True,28,1
NK-M-22M22S2,695,experiment,102,←,left,←,1.2115245000459254,True,28,1
NK-M-22M22S2,696,experiment,97,↓,down,↓,0.6423897000495344,True,28,1
NK-M-22M22S2,697,experiment,60,↑,up,↑,0.4764944000635296,True,28,1
NK-M-22M22S2,698,experiment,67,→,right,→,0.49919679993763566,True,28,1
NK-M-22M22S2,699,experiment,87,→,right,→,0.8817141000181437,True,28,1
NK-M-22M22S2,700,experiment,54,↓,down,↓,0.5401224000379443,True,28,1
NK-M-22M22S2,701,experiment,99,←,left,←,0.4612277001142502,True,28,1
NK-M-22M22S2,702,experiment,91,←,left,←,0.5561249998863786,True,28,1
NK-M-22M22S2,703,experiment,83,↑,up,↑,1.169873699778691,True,28,1
NK-M-22M22S2,704,experiment,80,→,right,→,0.6159700001589954,True,28,1
NK-M-22M22S2,705,experiment,86,↓,down,↓,0.6501966998912394,True,28,1
NK-M-22M22S2,706,experiment,49,←,left,←,0.7597477999515831,True,28,1
NK-M-22M22S2,707,experiment,71,↑,up,↑,0.4254925998393446,True,28,1
NK-M-22M22S2,708,experiment,84,←,left,←,0.532090499997139,True,28,1
NK-M-22M22S2,709,experiment,59,←,left,←,0.5389241001103073,True,28,1
NK-M-22M22S2,710,experiment,52,←,left,←,0.5397414998151362,True,28,1
NK-M-22M22S2,711,experiment,85,↓,down,↓,0.5933974999934435,True,28,1
NK-M-22M22S2,712,experiment,108,→,right,→,0.6935757000464946,True,28,1
NK-M-22M22S2,713,experiment,61,↑,up,↑,0.5729441998992115,True,28,1
NK-M-22M22S2,714,experiment,104,↑,up,↑,0.49094090005382895,True,28,1
NK-M-22M22S2,715,experiment,73,←,left,←,0.5109548999462277,True,28,1
NK-M-22M22S2,716,experiment,81,↑,up,↑,0.4866987999994308,True,28,1
NK-M-22M22S2,717,experiment,65,↑,up,↑,0.5894194000866264,True,28,1
NK-M-22M22S2,718,experiment,94,↓,up,↑,0.9271786001045257,False,28,1
NK-M-22M22S2,719,experiment,75,→,right,→,0.615502200089395,True,28,1
NK-M-22M22S2,720,experiment,88,↑,up,↑,0.5211475000251085,True,28,1
NK-M-22M22S2,721,experiment,74,↓,down,↓,0.5952565998304635,True,28,1
NK-M-22M22S2,722,experiment,101,←,left,←,0.6893513000104576,True,28,1
NK-M-22M22S2,723,experiment,51,↓,down,↓,0.5803586000110954,True,28,1
NK-M-22M22S2,724,experiment,106,→,right,→,0.4256677001249045,True,28,1
NK-M-22M22S2,725,experiment,76,←,left,←,1.2067725001834333,True,28,1
NK-M-22M22S2,726,experiment,92,→,right,→,0.4315121001563966,True,28,1
NK-M-22M22S2,727,experiment,62,←,left,←,0.7293393998406827,True,28,1
NK-M-22M22S2,728,experiment,64,↓,down,↓,0.5582593001890928,True,28,1
NK-M-22M22S2,729,experiment,48,→,right,→,0.42374909995123744,True,28,1
NK-M-22M22S2,730,experiment,95,↑,up,↑,1.0945710998494178,True,28,1
NK-M-22M22S2,731,experiment,56,→,right,→,0.7838031998835504,True,28,1
NK-M-22M22S2,732,experiment,58,↓,down,↓,0.5646758999209851,True,28,1
NK-M-22M22S2,733,experiment,63,→,left,←,0.7127578998915851,False,28,1
NK-M-22M22S2,734,training,101,→,right,→,0.5381825999356806,True,28,0
NK-M-22M22S2,735,training,97,←,left,←,0.49144240003079176,True,28,1
NK-M-22M22S2,736,experiment,78,↑,up,↑,0.48553459998220205,True,28,1
NK-M-22M22S2,737,experiment,88,→,right,→,0.6204876000992954,True,28,1
NK-M-22M22S2,738,experiment,77,←,left,←,0.4814494999591261,True,28,1
NK-M-22M22S2,739,experiment,71,↑,up,↑,0.8943618000485003,True,28,1
NK-M-22M22S2,740,experiment,76,↑,up,↑,0.3779835000168532,True,28,1
NK-M-22M22S2,741,experiment,85,↑,up,↑,0.45250270003452897,True,28,0
NK-M-22M22S2,742,experiment,81,↑,up,↑,0.46348159993067384,True,28,1
NK-M-22M22S2,743,experiment,82,←,left,←,0.5852316999807954,True,28,1
NK-M-22M22S2,744,experiment,108,↓,down,↓,0.5974971998948604,True,28,1
NK-M-22M22S2,745,experiment,104,↑,up,↑,0.4345466000959277,True,28,1
NK-M-22M22S2,746,experiment,84,→,left,←,1.485019600018859,False,28,1
NK-M-22M22S2,747,experiment,50,↓,down,↓,0.5928617999888957,True,28,1
NK-M-22M22S2,748,experiment,64,→,right,→,1.131250600097701,True,28,1
NK-M-22M22S2,749,experiment,57,↓,down,↓,0.5706482999958098,True,28,1
NK-M-22M22S2,750,experiment,53,↓,down,↓,0.46605079993605614,True,28,1
NK-M-22M22S2,751,experiment,92,←,left,←,0.47237630002200603,True,28,1
NK-M-22M22S2,752,experiment,54,↓,down,↓,0.603305900003761,True,28,1
NK-M-22M22S2,753,experiment,58,↑,up,↑,0.6396703999489546,True,28,1
NK-M-22M22S2,754,experiment,102,↑,up,↑,0.7958666000049561,True,28,1
NK-M-22M22S2,755,experiment,101,↓,down,↓,0.6096575998235494,True,28,1
NK-M-22M22S2,756,experiment,105,→,right,→,0.4379830998368561,True,28,1
NK-M-22M22S2,757,experiment,80,←,left,←,0.4653404999990016,True,28,1
NK-M-22M22S2,758,experiment,83,↑,up,↑,0.5308797000907362,True,28,1
NK-M-22M22S2,759,experiment,100,↑,up,↑,0.5238477000966668,True,28,1
NK-M-22M22S2,760,experiment,90,←,left,←,1.1765160001814365,True,28,1
NK-M-22M22S2,761,experiment,51,↑,down,↓,1.2082201999146491,False,28,1
NK-M-22M22S2,762,experiment,96,↓,down,↓,0.7517224000766873,True,28,1
NK-M-22M22S2,763,experiment,67,↑,up,↑,1.0588888998609036,True,28,1
NK-M-22M22S2,764,experiment,52,←,left,←,0.5029506999999285,True,28,1
NK-M-22M22S2,765,experiment,56,↑,left,←,0.7840802001301199,False,28,1
NK-M-22M22S2,766,experiment,106,↑,left,←,0.7809592999983579,False,28,1
NK-M-22M22S2,767,experiment,59,→,right,→,0.6898934000637382,True,28,1
NK-M-22M22S2,768,experiment,66,↓,down,↓,0.9678360999096185,True,28,1
NK-M-22M22S2,769,experiment,86,↑,up,↑,0.7963034000713378,True,28,1
NK-M-22M22S2,770,experiment,62,↓,down,↓,0.6150862001813948,True,28,1
NK-M-22M22S2,771,experiment,69,←,left,←,0.46335880015976727,True,28,1
NK-M-22M22S2,772,experiment,74,←,no_key,no_letter,-1.0,False,28,1
NK-M-22M22S2,773,experiment,60,→,right,→,0.53146140021272,True,28,1
NK-M-22M22S2,774,experiment,107,↓,down,↓,0.6260289000347257,True,28,1
NK-M-22M22S2,775,experiment,91,↓,down,↓,0.44218820007517934,True,28,1
NK-M-22M22S2,776,experiment,63,↓,down,↓,1.779492799891159,True,28,1
NK-M-22M22S2,777,experiment,65,↑,up,↑,0.4070230999495834,True,28,1
NK-M-22M22S2,778,experiment,61,→,right,→,0.5451719001866877,True,28,1
NK-M-22M22S2,779,experiment,89,↓,down,↓,0.6852045999839902,True,28,1
NK-M-22M22S2,780,experiment,75,↓,down,↓,0.4244620001409203,True,28,1
NK-M-22M22S2,781,experiment,68,←,left,←,0.4247586999554187,True,28,1
NK-M-22M22S2,782,experiment,93,↓,down,↓,0.41655240021646023,True,28,1
NK-M-22M22S2,783,experiment,99,↑,up,↑,0.5984523000661284,True,28,1
NK-M-22M22S2,784,experiment,49,←,left,←,0.5419661998748779,True,28,1
NK-M-22M22S2,785,experiment,98,←,left,←,0.791323299985379,True,28,1
NK-M-22M22S2,786,experiment,95,↑,up,↑,0.6395570000167936,True,28,1
NK-M-22M22S2,787,experiment,103,↓,down,↓,0.6513843999709934,True,28,1
NK-M-22M22S2,788,experiment,79,↑,up,↑,0.5744690999854356,True,28,1
NK-M-22M22S2,789,experiment,55,↓,down,↓,0.6211969000287354,True,28,1
NK-M-22M22S2,790,experiment,73,→,right,→,0.4834870998747647,True,28,1
NK-M-22M22S2,791,experiment,87,↑,up,↑,0.5951144001446664,True,28,1
NK-M-22M22S2,792,experiment,94,→,right,→,0.4676661000121385,True,28,1
NK-M-22M22S2,793,experiment,97,↓,down,↓,0.5444466001354158,True,28,1
NK-M-22M22S2,794,experiment,72,↑,up,↑,0.5382266999222338,True,28,1
NK-M-22M22S2,795,experiment,70,↑,up,↑,0.4771144997794181,True,28,1
NK-M-22M22S2,796,experiment,48,←,left,←,0.5379983999300748,True,28,1
NK-M-22M22S2,797,training,86,↓,down,↓,0.5595828001387417,True,28,0
NK-M-22M22S2,798,training,93,↑,up,↑,0.5938542000949383,True,28,1
NK-M-22M22S2,799,experiment,105,↑,up,↑,0.5351158999837935,True,28,1
NK-M-22M22S2,800,experiment,81,→,right,→,0.5823729000985622,True,28,1
NK-M-22M22S2,801,experiment,82,↑,up,↑,0.4123054000083357,True,28,1
NK-M-22M22S2,802,experiment,74,←,left,←,0.5217295000329614,True,28,1
NK-M-22M22S2,803,experiment,95,←,left,←,1.4051296000834554,True,28,1
NK-M-22M22S2,804,experiment,71,←,left,←,0.384481200017035,True,28,1
NK-M-22M22S2,805,experiment,89,→,right,→,0.6312856997828931,True,28,1
NK-M-22M22S2,806,experiment,88,←,left,←,0.440170600079,True,28,1
NK-M-22M22S2,807,experiment,99,←,left,←,0.47727019991725683,True,28,1
NK-M-22M22S2,808,experiment,51,→,left,←,1.5931669001001865,False,28,1
NK-M-22M22S2,809,experiment,58,↑,up,↑,0.861765000037849,True,28,1
NK-M-22M22S2,810,experiment,48,←,left,←,0.5151724999304861,True,28,1
NK-M-22M22S2,811,experiment,70,↑,up,↑,0.430897300131619,True,28,1
NK-M-22M22S2,812,experiment,91,↓,up,↑,0.8390553998760879,False,28,1
NK-M-22M22S2,813,experiment,62,↑,up,↑,0.47228610003367066,True,28,1
NK-M-22M22S2,814,experiment,55,→,right,→,0.5547543000429869,True,28,1
NK-M-22M22S2,815,experiment,68,↑,up,↑,0.44550550007261336,True,28,1
NK-M-22M22S2,816,experiment,64,→,right,→,1.0858954000286758,True,28,1
NK-M-22M22S2,817,experiment,97,↑,up,↑,0.4024719998706132,True,28,1
NK-M-22M22S2,818,experiment,98,→,right,→,0.7926134997978806,True,28,1
NK-M-22M22S2,819,experiment,76,←,left,←,0.4634813000448048,True,28,1
NK-M-22M22S2,820,experiment,101,←,left,←,0.5707696999888867,True,28,1
NK-M-22M22S2,821,experiment,84,↓,down,↓,0.6314819999970496,True,28,1
NK-M-22M22S2,822,experiment,104,↑,up,↑,0.4111985000781715,True,28,1
NK-M-22M22S2,823,experiment,59,←,left,←,0.5424950998276472,True,28,1
NK-M-22M22S2,824,experiment,96,→,right,→,0.5046612001024187,True,28,1
NK-M-22M22S2,825,experiment,86,↓,down,↓,0.6473451999481767,True,28,1
NK-M-22M22S2,826,experiment,50,→,right,→,0.5884847000706941,True,28,1
NK-M-22M22S2,827,experiment,108,↑,right,→,0.792476600036025,False,28,1
NK-M-22M22S2,828,experiment,103,↑,up,↑,0.4941259999759495,True,28,1
NK-M-22M22S2,829,experiment,92,←,left,←,0.4433697001077235,True,28,1
NK-M-22M22S2,830,experiment,93,↑,down,↓,1.1703003998845816,False,28,1
NK-M-22M22S2,831,experiment,79,←,left,←,0.5365621000528336,True,28,1
NK-M-22M22S2,832,experiment,100,↓,up,↑,1.3056221001315862,False,28,1
NK-M-22M22S2,833,experiment,72,↑,up,↑,0.4447602001018822,True,28,1
NK-M-22M22S2,834,experiment,102,→,left,←,0.8410169000271708,False,28,1
NK-M-22M22S2,835,experiment,54,↑,up,↑,0.5169792999513447,True,28,1
NK-M-22M22S2,836,experiment,63,↓,down,↓,0.6991025998722762,True,28,1
NK-M-22M22S2,837,experiment,56,↑,up,↑,0.8040729998610914,True,28,1
NK-M-22M22S2,838,experiment,66,→,left,←,1.325662499992177,False,28,1
NK-M-22M22S2,839,experiment,83,↓,down,↓,0.5807442001532763,True,28,1
NK-M-22M22S2,840,experiment,75,↓,down,↓,0.4198551999870688,True,28,1
NK-M-22M22S2,841,experiment,85,↓,down,↓,0.4867523000575602,True,28,1
NK-M-22M22S2,842,experiment,90,↑,right,→,0.8926264999900013,False,28,1
NK-M-22M22S2,843,experiment,78,↓,right,→,0.7987448999192566,False,28,1
NK-M-22M22S2,844,experiment,67,←,up,↑,1.3201619000174105,False,28,1
NK-M-22M22S2,845,experiment,94,←,left,←,0.5474214998539537,True,28,1
NK-M-22M22S2,846,experiment,52,↑,up,↑,0.5159022000152618,True,28,1
NK-M-22M22S2,847,experiment,53,←,left,←,0.5252023001667112,True,28,1
NK-M-22M22S2,848,experiment,49,←,left,←,0.5196677001658827,True,28,1
NK-M-22M22S2,849,experiment,80,→,right,→,0.5279238999355584,True,28,1
NK-M-22M22S2,850,experiment,57,←,left,←,0.49568639998324215,True,28,1
NK-M-22M22S2,851,experiment,73,→,right,→,0.5550752999261022,True,28,1
NK-M-22M22S2,852,experiment,77,→,right,→,0.4349639001302421,True,28,1
NK-M-22M22S2,853,experiment,61,←,left,←,0.5570128001272678,True,28,1
NK-M-22M22S2,854,experiment,87,↓,down,↓,0.6012920001521707,True,28,1
NK-M-22M22S2,855,experiment,106,↓,down,↓,0.5658251999411732,True,28,1
NK-M-22M22S2,856,experiment,69,←,left,←,0.4959001000970602,True,28,1
NK-M-22M22S2,857,experiment,60,→,right,→,0.43173270020633936,True,28,1
NK-M-22M22S2,858,experiment,107,→,right,→,0.41031319997273386,True,28,1
NK-M-22M22S2,859,experiment,65,→,right,→,0.46000920003280044,True,28,1
NK-M-22M22S2,860,training,102,→,right,→,1.4258423999417573,True,28,0
NK-M-22M22S2,861,training,107,→,right,→,0.4767132999841124,True,28,1
NK-M-22M22S2,862,experiment,107,→,right,→,0.5098073999397457,True,28,1
NK-M-22M22S2,863,experiment,81,↑,up,↑,0.5022702999413013,True,28,1
NK-M-22M22S2,864,experiment,59,→,right,→,0.5582141999620944,True,28,1
NK-M-22M22S2,865,experiment,102,→,right,→,0.757616899907589,True,28,1
NK-M-22M22S2,866,experiment,62,←,left,←,0.47427869983948767,True,28,1
NK-M-22M22S2,867,experiment,67,↑,up,↑,0.45677349995821714,True,28,1
NK-M-22M22S2,868,experiment,93,→,left,←,0.6311161001212895,False,28,1
NK-M-22M22S2,869,experiment,64,↓,down,↓,0.6801849999465048,True,28,1
NK-M-22M22S2,870,experiment,86,↑,up,↑,0.4400120999198407,True,28,1
NK-M-22M22S2,871,experiment,89,←,left,←,0.6085083000361919,True,28,1
NK-M-22M22S2,872,experiment,97,↑,up,↑,0.5194250999484211,True,28,1
NK-M-22M22S2,873,experiment,96,↓,down,↓,0.5784575999714434,True,28,1
NK-M-22M22S2,874,experiment,99,↓,down,↓,0.5941418998409063,True,28,1
NK-M-22M22S2,875,experiment,73,→,right,→,0.6015518000349402,True,28,1
NK-M-22M22S2,876,experiment,70,↓,down,↓,1.130046899896115,True,28,1
NK-M-22M22S2,877,experiment,68,→,left,←,1.1175501998513937,False,28,1
NK-M-22M22S2,878,experiment,66,→,right,→,0.5786279998719692,True,28,1
NK-M-22M22S2,879,experiment,72,↓,down,↓,0.603105400223285,True,28,1
NK-M-22M22S2,880,experiment,104,↑,up,↑,0.568079800112173,True,28,1
NK-M-22M22S2,881,experiment,83,↓,down,↓,0.5253504000138491,True,28,1
NK-M-22M22S2,882,experiment,87,↑,up,↑,0.4831602000631392,True,28,1
NK-M-22M22S2,883,experiment,82,←,left,←,0.5240877000615001,True,28,1
NK-M-22M22S2,884,experiment,57,↓,down,↓,0.6118803999852389,True,28,1
NK-M-22M22S2,885,experiment,61,←,left,←,0.4868878999259323,True,28,1
NK-M-22M22S2,886,experiment,75,↓,down,↓,0.5782256999518722,True,28,1
NK-M-22M22S2,887,experiment,88,↑,up,↑,0.8131985000800341,True,28,1
NK-M-22M22S2,888,experiment,103,←,left,←,1.1697485998738557,True,28,1
NK-M-22M22S2,889,experiment,71,↓,down,↓,0.5231761001050472,True,28,1
NK-M-22M22S2,890,experiment,50,↓,down,↓,0.4772798998747021,True,28,1
NK-M-22M22S2,891,experiment,56,↑,up,↑,0.7353997998870909,True,28,1
NK-M-22M22S2,892,experiment,108,↑,up,↑,1.1175587000325322,True,28,1
NK-M-22M22S2,893,experiment,53,↑,up,↑,0.735177299939096,True,28,1
NK-M-22M22S2,894,experiment,51,←,left,←,0.7525120000354946,True,28,1
NK-M-22M22S2,895,experiment,49,→,left,←,0.7139216000214219,False,28,1
NK-M-22M22S2,896,experiment,84,↑,up,↑,1.3369064000435174,True,28,1
NK-M-22M22S2,897,experiment,85,→,right,→,0.5428496999666095,True,28,1
NK-M-22M22S2,898,experiment,78,↑,up,↑,1.3587619001045823,True,28,1
NK-M-22M22S2,899,experiment,79,→,left,←,0.7739304001443088,False,28,1
NK-M-22M22S2,900,experiment,90,↑,down,↓,1.000654999865219,False,28,1
NK-M-22M22S2,901,experiment,63,←,left,←,0.5473487998824567,True,28,1
NK-M-22M22S2,902,experiment,60,←,left,←,0.3752951000351459,True,28,1
NK-M-22M22S2,903,experiment,105,←,left,←,0.3192981998436153,True,28,0
NK-M-22M22S2,904,experiment,101,↑,left,←,0.36799599998630583,False,28,0
NK-M-22M22S2,905,experiment,91,↑,up,↑,1.6095726999919862,True,28,0
NK-M-22M22S2,906,experiment,92,→,right,→,0.6260102998930961,True,28,1
NK-M-22M22S2,907,experiment,58,↑,up,↑,0.6615302998106927,True,28,1
NK-M-22M22S2,908,experiment,54,→,right,→,0.4967083998490125,True,28,1
NK-M-22M22S2,909,experiment,65,←,left,←,0.5350297999102622,True,28,1
NK-M-22M22S2,910,experiment,106,→,right,→,0.40570029988884926,True,28,1
NK-M-22M22S2,911,experiment,98,→,right,→,0.42836879985406995,True,28,0
NK-M-22M22S2,912,experiment,52,↓,down,↓,0.6015872000716627,True,28,1
NK-M-22M22S2,913,experiment,77,←,left,←,0.48759720008820295,True,28,1
NK-M-22M22S2,914,experiment,76,↑,up,↑,0.4262580000795424,True,28,1
NK-M-22M22S2,915,experiment,55,↓,down,↓,0.6067887998651713,True,28,1
NK-M-22M22S2,916,experiment,80,↑,up,↑,0.9875031998381019,True,28,1
NK-M-22M22S2,917,experiment,94,↑,left,←,0.9639926999807358,False,28,1
NK-M-22M22S2,918,experiment,69,↑,up,↑,0.6221972000785172,True,28,1
NK-M-22M22S2,919,experiment,48,↑,up,↑,0.6529928001109511,True,28,1
NK-M-22M22S2,920,experiment,74,→,left,←,0.8657052998896688,False,28,1
NK-M-22M22S2,921,experiment,95,→,right,→,1.0951628999318928,True,28,1
NK-M-22M22S2,922,experiment,100,→,right,→,0.5936704999767244,True,28,1
NK-M-22M22S2,923,training,106,↓,down,↓,0.5914255001116544,True,28,0
NK-M-22M22S2,924,training,105,↑,up,↑,0.588476600125432,True,28,1
NK-M-22M22S2,925,experiment,99,↓,down,↓,0.6114771000575274,True,28,1
NK-M-22M22S2,926,experiment,105,→,right,→,0.5276451001409441,True,28,1
NK-M-22M22S2,927,experiment,74,→,right,→,0.46562619996257126,True,28,1
NK-M-22M22S2,928,experiment,60,↓,down,↓,1.7628093999810517,True,28,1
NK-M-22M22S2,929,experiment,58,↓,down,↓,0.5206518999766558,True,28,1
NK-M-22M22S2,930,experiment,54,↓,down,↓,0.5373214001301676,True,28,1
NK-M-22M22S2,931,experiment,67,←,left,←,0.48522239993326366,True,28,1
NK-M-22M22S2,932,experiment,104,←,left,←,0.36722259991802275,True,28,1
NK-M-22M22S2,933,experiment,93,→,right,→,0.5526862998958677,True,28,0
NK-M-22M22S2,934,experiment,68,↑,up,↑,0.4043827001005411,True,28,1
NK-M-22M22S2,935,experiment,77,↓,down,↓,0.44161990005522966,True,28,1
NK-M-22M22S2,936,experiment,48,←,left,←,0.519647000124678,True,28,1
NK-M-22M22S2,937,experiment,76,←,left,←,0.417426300002262,True,28,1
NK-M-22M22S2,938,experiment,85,↓,down,↓,0.795810499927029,True,28,1
NK-M-22M22S2,939,experiment,64,↑,up,↑,0.526066199876368,True,28,1
NK-M-22M22S2,940,experiment,78,←,left,←,1.2227914000395685,True,28,1
NK-M-22M22S2,941,experiment,91,←,left,←,0.4790670999791473,True,28,1
NK-M-22M22S2,942,experiment,96,↑,up,↑,1.163452200125903,True,28,1
NK-M-22M22S2,943,experiment,80,→,right,→,0.5057226999197155,True,28,1
NK-M-22M22S2,944,experiment,63,←,left,←,0.5842593999113888,True,28,1
NK-M-22M22S2,945,experiment,106,→,right,→,0.45328269992023706,True,28,1
NK-M-22M22S2,946,experiment,71,→,right,→,0.6351819999981672,True,28,1
NK-M-22M22S2,947,experiment,101,→,right,→,0.5998617999721318,True,28,1
NK-M-22M22S2,948,experiment,97,←,left,←,0.407900599995628,True,28,1
NK-M-22M22S2,949,experiment,61,→,left,←,1.0106862001121044,False,28,1
NK-M-22M22S2,950,experiment,59,←,left,←,0.47778409998863935,True,28,1
NK-M-22M22S2,951,experiment,86,←,left,←,0.8379732000175864,True,28,1
NK-M-22M22S2,952,experiment,83,↑,up,↑,0.9601400999817997,True,28,1
NK-M-22M22S2,953,experiment,66,↑,up,↑,0.4915686999447644,True,28,1
NK-M-22M22S2,954,experiment,102,→,right,→,0.47769280010834336,True,28,1
NK-M-22M22S2,955,experiment,89,←,left,←,0.5488265999592841,True,28,1
NK-M-22M22S2,956,experiment,56,↑,down,↓,0.8838808999862522,False,28,1
NK-M-22M22S2,957,experiment,50,←,up,↑,0.9679571001324803,False,28,1
NK-M-22M22S2,958,experiment,100,←,left,←,0.5753414002247155,True,28,1
NK-M-22M22S2,959,experiment,65,↓,down,↓,0.5381932999007404,True,28,1
NK-M-22M22S2,960,experiment,57,→,right,→,0.6494128000922501,True,28,1
NK-M-22M22S2,961,experiment,69,←,left,←,0.504007900133729,True,28,1
NK-M-22M22S2,962,experiment,90,↓,down,↓,0.533561899792403,True,28,1
NK-M-22M22S2,963,experiment,52,↓,down,↓,0.6706932000815868,True,28,1
NK-M-22M22S2,964,experiment,79,→,left,←,0.5850652998778969,False,28,1
NK-M-22M22S2,965,experiment,70,→,right,→,0.5301622000988573,True,28,1
NK-M-22M22S2,966,experiment,51,→,right,→,0.5075154998339713,True,28,1
NK-M-22M22S2,967,experiment,88,→,left,←,0.5374521999619901,False,28,1
NK-M-22M22S2,968,experiment,103,↓,down,↓,0.4732397000771016,True,28,1
NK-M-22M22S2,969,experiment,73,↓,down,↓,0.6936190000269562,True,28,1
NK-M-22M22S2,970,experiment,84,→,left,←,0.8137771000619978,False,28,1
NK-M-22M22S2,971,experiment,92,→,right,→,0.4220640000421554,True,28,1
NK-M-22M22S2,972,experiment,49,↑,down,↓,0.6124966000206769,False,28,1
NK-M-22M22S2,973,experiment,55,↓,down,↓,0.5452863001264632,True,28,1
NK-M-22M22S2,974,experiment,107,←,left,←,0.48741489998064935,True,28,1
NK-M-22M22S2,975,experiment,95,→,right,→,0.547610400011763,True,28,1
NK-M-22M22S2,976,experiment,75,↓,up,↑,0.8524634998757392,False,28,1
NK-M-22M22S2,977,experiment,72,↓,down,↓,0.48215029994025826,True,28,1
NK-M-22M22S2,978,experiment,108,↑,up,↑,0.5544414001051337,True,28,1
NK-M-22M22S2,979,experiment,94,↓,down,↓,0.4684824999421835,True,28,1
NK-M-22M22S2,980,experiment,81,↑,up,↑,0.5903137000277638,True,28,1
NK-M-22M22S2,981,experiment,98,↑,up,↑,0.38425930007360876,True,28,1
NK-M-22M22S2,982,experiment,53,↑,up,↑,0.8600552000571042,True,28,0
NK-M-22M22S2,983,experiment,87,←,left,←,1.204120900016278,True,28,1
NK-M-22M22S2,984,experiment,62,↑,up,↑,0.3841705000959337,True,28,1
NK-M-22M22S2,985,experiment,82,→,right,→,0.4676400001626462,True,28,0
NK-M-22M22S2,986,training,92,←,left,←,0.4304886001627892,True,28,0
NK-M-22M22S2,987,training,81,↑,up,↑,0.4497640000190586,True,28,1
NK-M-22M22S2,988,experiment,54,↓,down,↓,0.5977193000726402,True,28,1
NK-M-22M22S2,989,experiment,60,↓,down,↓,1.153439899906516,True,28,1
NK-M-22M22S2,990,experiment,50,↓,down,↓,0.4747995000798255,True,28,1
NK-M-22M22S2,991,experiment,97,↑,left,←,0.750860300147906,False,28,1
NK-M-22M22S2,992,experiment,94,←,left,←,0.6251741999294609,True,28,1
NK-M-22M22S2,993,experiment,48,↓,down,↓,0.6959029000718147,True,28,1
NK-M-22M22S2,994,experiment,57,←,left,←,0.5046659000217915,True,28,1
NK-M-22M22S2,995,experiment,95,↓,down,↓,0.7801778998691589,True,28,1
NK-M-22M22S2,996,experiment,58,←,left,←,0.4092987000476569,True,28,1
NK-M-22M22S2,997,experiment,55,→,right,→,0.5428142999298871,True,28,1
NK-M-22M22S2,998,experiment,63,↓,down,↓,0.4837372999172658,True,28,1
NK-M-22M22S2,999,experiment,99,↑,up,↑,0.41538410005159676,True,28,1
NK-M-22M22S2,1000,experiment,64,↑,up,↑,0.47285520005971193,True,28,1
NK-M-22M22S2,1001,experiment,59,↑,up,↑,0.8183087001089007,True,28,1
NK-M-22M22S2,1002,experiment,67,→,right,→,0.4986466998234391,True,28,1
NK-M-22M22S2,1003,experiment,103,↑,up,↑,0.49217900005169213,True,28,1
NK-M-22M22S2,1004,experiment,92,→,right,→,0.43358969991095364,True,28,1
NK-M-22M22S2,1005,experiment,85,←,left,←,0.49154540011659265,True,28,1
NK-M-22M22S2,1006,experiment,66,←,left,←,0.44139409996569157,True,28,1
NK-M-22M22S2,1007,experiment,101,→,left,←,0.4539472998585552,False,28,1
NK-M-22M22S2,1008,experiment,52,↓,down,↓,0.5861033000983298,True,28,1
NK-M-22M22S2,1009,experiment,89,↑,up,↑,0.5327842000406235,True,28,1
NK-M-22M22S2,1010,experiment,100,↑,up,↑,0.5979516000952572,True,28,1
NK-M-22M22S2,1011,experiment,82,↑,up,↑,0.4822820001281798,True,28,1
NK-M-22M22S2,1012,experiment,106,↑,up,↑,0.5313136000186205,True,28,1
NK-M-22M22S2,1013,experiment,61,←,left,←,0.5452540998812765,True,28,1
NK-M-22M22S2,1014,experiment,90,↓,down,↓,0.5894543000031263,True,28,1
NK-M-22M22S2,1015,experiment,87,↓,down,↓,0.4884917000308633,True,28,1
NK-M-22M22S2,1016,experiment,71,→,right,→,0.5088414000347257,True,28,1
NK-M-22M22S2,1017,experiment,51,←,left,←,0.4712598000187427,True,28,1
NK-M-22M22S2,1018,experiment,108,↑,up,↑,0.3526919998694211,True,28,1
NK-M-22M22S2,1019,experiment,68,←,left,←,0.4585280001629144,True,28,0
NK-M-22M22S2,1020,experiment,76,←,left,←,0.6626064002048224,True,28,1
NK-M-22M22S2,1021,experiment,72,→,right,→,1.1076138000935316,True,28,1
NK-M-22M22S2,1022,experiment,53,←,down,↓,0.9812932999338955,False,28,1
NK-M-22M22S2,1023,experiment,75,↑,up,↑,0.6206232998520136,True,28,1
NK-M-22M22S2,1024,experiment,49,↓,down,↓,0.6830714999232441,True,28,1
NK-M-22M22S2,1025,experiment,65,↑,up,↑,0.529865900054574,True,28,1
NK-M-22M22S2,1026,experiment,91,↓,down,↓,0.5818949998356402,True,28,1
NK-M-22M22S2,1027,experiment,78,↑,up,↑,0.3678772000130266,True,28,1
NK-M-22M22S2,1028,experiment,83,→,right,→,0.8812472999561578,True,28,0
NK-M-22M22S2,1029,experiment,70,→,left,←,0.6144314999692142,False,28,1
NK-M-22M22S2,1030,experiment,79,←,left,←,1.163009700132534,True,28,1
NK-M-22M22S2,1031,experiment,62,←,left,←,0.519296299898997,True,28,1
NK-M-22M22S2,1032,experiment,107,↑,up,↑,0.5346597000025213,True,28,1
NK-M-22M22S2,1033,experiment,73,↑,up,↑,1.2646697000600398,True,28,1
NK-M-22M22S2,1034,experiment,69,←,left,←,0.5026593999937177,True,28,1
NK-M-22M22S2,1035,experiment,98,↑,up,↑,0.497920700116083,True,28,1
NK-M-22M22S2,1036,experiment,96,↑,up,↑,0.4775237001013011,True,28,1
NK-M-22M22S2,1037,experiment,93,→,right,→,0.7390553997829556,True,28,1
NK-M-22M22S2,1038,experiment,88,↓,down,↓,0.5115998000837862,True,28,1
NK-M-22M22S2,1039,experiment,105,↓,down,↓,0.560158200096339,True,28,1
NK-M-22M22S2,1040,experiment,86,↓,down,↓,0.5167525000870228,True,28,1
NK-M-22M22S2,1041,experiment,74,↑,up,↑,0.5671180998906493,True,28,1
NK-M-22M22S2,1042,experiment,81,←,left,←,0.5171944999601692,True,28,1
NK-M-22M22S2,1043,experiment,77,↓,down,↓,0.6227446999400854,True,28,1
NK-M-22M22S2,1044,experiment,102,↑,up,↑,0.5711571001447737,True,28,1
NK-M-22M22S2,1045,experiment,104,←,left,←,0.449252599850297,True,28,1
NK-M-22M22S2,1046,experiment,80,↑,up,↑,0.7571632000617683,True,28,1
NK-M-22M22S2,1047,experiment,56,→,right,→,0.547072899993509,True,28,1
NK-M-22M22S2,1048,experiment,84,←,left,←,0.3674430998507887,True,28,1
NK-M-22M22S2,1049,training,68,↑,up,↑,0.7662508001085371,True,28,0
NK-M-22M22S2,1050,training,81,←,left,←,0.6203542998991907,True,28,1
NK-M-22M22S2,1051,experiment,69,←,left,←,1.6844883000012487,True,28,1
NK-M-22M22S2,1052,experiment,56,→,right,→,0.5100862998515368,True,28,1
NK-M-22M22S2,1053,experiment,59,↓,up,↑,1.1018521001096815,False,28,1
NK-M-22M22S2,1054,experiment,67,↑,left,←,0.9791271998547018,False,28,1
NK-M-22M22S2,1055,experiment,84,↑,up,↑,0.5515153999440372,True,28,1
NK-M-22M22S2,1056,experiment,94,↑,up,↑,0.5058613999281079,True,28,1
NK-M-22M22S2,1057,experiment,72,→,right,→,0.5491611999459565,True,28,1
NK-M-22M22S2,1058,experiment,49,→,right,→,0.5347504001110792,True,28,1
NK-M-22M22S2,1059,experiment,50,↑,up,↑,0.4803402000106871,True,28,1
NK-M-22M22S2,1060,experiment,76,↑,up,↑,0.3593979000579566,True,28,1
NK-M-22M22S2,1061,experiment,66,↓,down,↓,0.526582800084725,True,28,1
NK-M-22M22S2,1062,experiment,105,→,right,→,0.5343453001696616,True,28,1
NK-M-22M22S2,1063,experiment,82,→,left,←,0.8454815000295639,False,28,1
NK-M-22M22S2,1064,experiment,107,←,left,←,0.6316611000802368,True,28,1
NK-M-22M22S2,1065,experiment,103,↓,down,↓,0.7953792000189424,True,28,1
NK-M-22M22S2,1066,experiment,61,←,left,←,0.6949155000038445,True,28,1
NK-M-22M22S2,1067,experiment,48,→,right,→,0.6266824000049382,True,28,1
NK-M-22M22S2,1068,experiment,101,↑,up,↑,0.495716700097546,True,28,1
NK-M-22M22S2,1069,experiment,75,↑,up,↑,0.5865686000324786,True,28,1
NK-M-22M22S2,1070,experiment,81,↓,down,↓,0.5436698000412434,True,28,1
NK-M-22M22S2,1071,experiment,55,↑,up,↑,0.40795829985290766,True,28,1
NK-M-22M22S2,1072,experiment,85,←,right,→,0.8827138000633568,False,28,1
NK-M-22M22S2,1073,experiment,60,↓,down,↓,0.5393967998679727,True,28,1
NK-M-22M22S2,1074,experiment,79,→,right,→,0.42687610001303256,True,28,1
NK-M-22M22S2,1075,experiment,91,←,left,←,0.3337443999480456,True,28,1
NK-M-22M22S2,1076,experiment,95,↑,left,←,0.9492848000954837,False,28,0
NK-M-22M22S2,1077,experiment,96,←,left,←,0.35976130003109574,True,28,1
NK-M-22M22S2,1078,experiment,102,↓,down,↓,0.517762100091204,True,28,1
NK-M-22M22S2,1079,experiment,65,↑,up,↑,0.4194948999211192,True,28,1
NK-M-22M22S2,1080,experiment,73,→,right,→,0.6497738000471145,True,28,1
NK-M-22M22S2,1081,experiment,108,→,right,→,0.5234218998812139,True,28,1
NK-M-22M22S2,1082,experiment,99,↓,down,↓,0.4211689999792725,True,28,1
NK-M-22M22S2,1083,experiment,98,↓,left,←,1.3475605000276119,False,28,1
NK-M-22M22S2,1084,experiment,89,↑,up,↑,0.5998026998713613,True,28,1
NK-M-22M22S2,1085,experiment,57,→,right,→,0.6281149999704212,True,28,1
NK-M-22M22S2,1086,experiment,88,↑,up,↑,0.4216726999729872,True,28,1
NK-M-22M22S2,1087,experiment,100,↑,up,↑,0.5629106999840587,True,28,1
NK-M-22M22S2,1088,experiment,86,↓,down,↓,0.4396500000730157,True,28,1
NK-M-22M22S2,1089,experiment,52,↑,up,↑,0.6041697000619024,True,28,1
NK-M-22M22S2,1090,experiment,77,←,left,←,0.6497701001353562,True,28,1
NK-M-22M22S2,1091,experiment,63,→,right,→,0.6185626001097262,True,28,1
NK-M-22M22S2,1092,experiment,53,→,right,→,0.5200546998530626,True,28,1
NK-M-22M22S2,1093,experiment,92,↓,down,↓,0.5645456998609006,True,28,1
NK-M-22M22S2,1094,experiment,68,→,left,←,0.7987396998796612,False,28,1
NK-M-22M22S2,1095,experiment,62,←,up,↑,0.7858556001447141,False,28,1
NK-M-22M22S2,1096,experiment,74,→,right,→,0.4973600001540035,True,28,1
NK-M-22M22S2,1097,experiment,64,←,left,←,0.6000390001572669,True,28,1
NK-M-22M22S2,1098,experiment,106,→,right,→,0.5323365000076592,True,28,1
NK-M-22M22S2,1099,experiment,97,→,right,→,0.5263886000029743,True,28,1
NK-M-22M22S2,1100,experiment,54,→,right,→,0.8710556000005454,True,28,1
NK-M-22M22S2,1101,experiment,80,←,down,↓,0.6650961001869291,False,28,1
NK-M-22M22S2,1102,experiment,71,←,left,←,0.5184035999700427,True,28,1
NK-M-22M22S2,1103,experiment,93,↓,left,←,0.7147517001722008,False,28,1
NK-M-22M22S2,1104,experiment,58,←,left,←,0.4343821001239121,True,28,1
NK-M-22M22S2,1105,experiment,78,↑,up,↑,0.5028327000327408,True,28,1
NK-M-22M22S2,1106,experiment,87,↑,up,↑,0.5413301999215037,True,28,1
NK-M-22M22S2,1107,experiment,70,→,up,↑,1.5122458001133054,False,28,1
NK-M-22M22S2,1108,experiment,104,→,right,→,0.5767870999407023,True,28,1
NK-M-22M22S2,1109,experiment,51,→,right,→,0.4884728998877108,True,28,1
NK-M-22M22S2,1110,experiment,83,↓,down,↓,0.5767266000621021,True,28,1
NK-M-22M22S2,1111,experiment,90,↑,up,↑,0.7077046998310834,True,28,1
NK-M-22M22S2,1112,training,70,←,left,←,0.4321814998984337,True,28,0
NK-M-22M22S2,1113,training,89,↓,down,↓,0.5690916001331061,True,28,1
NK-M-22M22S2,1114,experiment,97,←,left,←,0.35139590012840927,True,28,1
NK-M-22M22S2,1115,experiment,57,←,left,←,0.4799043999519199,True,28,0
NK-M-22M22S2,1116,experiment,62,↑,up,↑,0.4798179001081735,True,28,1
NK-M-22M22S2,1117,experiment,49,→,right,→,0.5397804998792708,True,28,1
NK-M-22M22S2,1118,experiment,80,←,left,←,0.31775659997947514,True,28,1
NK-M-22M22S2,1119,experiment,92,↓,down,↓,0.5351398000493646,True,28,1
NK-M-22M22S2,1120,experiment,78,→,right,→,0.5279057000298053,True,28,1
NK-M-22M22S2,1121,experiment,98,←,left,←,0.4575084000825882,True,28,1
NK-M-22M22S2,1122,experiment,99,↑,up,↑,0.5178550002165139,True,28,1
NK-M-22M22S2,1123,experiment,102,←,left,←,0.47112719994038343,True,28,1
NK-M-22M22S2,1124,experiment,51,↓,down,↓,0.6187754001002759,True,28,1
NK-M-22M22S2,1125,experiment,50,↑,up,↑,0.5850436999462545,True,28,1
NK-M-22M22S2,1126,experiment,71,↑,up,↑,0.7298240999225527,True,28,1
NK-M-22M22S2,1127,experiment,48,↑,down,↓,1.0122420999687165,False,28,1
NK-M-22M22S2,1128,experiment,75,←,left,←,1.5700427999254316,True,28,1
NK-M-22M22S2,1129,experiment,86,↑,up,↑,0.9664169999305159,True,28,1
NK-M-22M22S2,1130,experiment,83,←,left,←,1.4677669000811875,True,28,1
NK-M-22M22S2,1131,experiment,56,↓,down,↓,0.6140860000159591,True,28,1
NK-M-22M22S2,1132,experiment,94,↑,left,←,0.9898173999972641,False,28,1
NK-M-22M22S2,1133,experiment,89,↑,up,↑,1.1359573998488486,True,28,1
NK-M-22M22S2,1134,experiment,63,←,left,←,0.46942920004948974,True,28,1
NK-M-22M22S2,1135,experiment,95,←,left,←,0.4268747998867184,True,28,1
NK-M-22M22S2,1136,experiment,87,←,left,←,0.4527623001486063,True,28,1
NK-M-22M22S2,1137,experiment,85,←,left,←,0.6539958000648767,True,28,1
NK-M-22M22S2,1138,experiment,72,←,left,←,0.5875625000335276,True,28,1
NK-M-22M22S2,1139,experiment,91,↓,down,↓,0.5893330001272261,True,28,1
NK-M-22M22S2,1140,experiment,81,↓,down,↓,0.48244070005603135,True,28,1
NK-M-22M22S2,1141,experiment,65,↓,down,↓,0.4651405999902636,True,28,1
NK-M-22M22S2,1142,experiment,105,↓,left,←,0.5873112000990659,False,28,1
NK-M-22M22S2,1143,experiment,100,→,left,←,0.6659776999149472,False,28,1
NK-M-22M22S2,1144,experiment,55,←,left,←,0.4527491999324411,True,28,1
NK-M-22M22S2,1145,experiment,66,↓,down,↓,0.4682682000566274,True,28,1
NK-M-22M22S2,1146,experiment,90,←,left,←,0.40389210009016097,True,28,1
NK-M-22M22S2,1147,experiment,103,→,right,→,0.46433470002375543,True,28,0
NK-M-22M22S2,1148,experiment,53,↓,down,↓,0.5716335999313742,True,28,1
NK-M-22M22S2,1149,experiment,76,→,down,↓,1.2350310999900103,False,28,1
NK-M-22M22S2,1150,experiment,82,→,right,→,0.5821742999833077,True,28,1
NK-M-22M22S2,1151,experiment,59,←,left,←,0.49085740000009537,True,28,1
NK-M-22M22S2,1152,experiment,68,→,left,←,0.6160538999829441,False,28,1
NK-M-22M22S2,1153,experiment,64,←,left,←,0.4978582998737693,True,28,1
NK-M-22M22S2,1154,experiment,67,↓,down,↓,0.5916772000491619,True,28,1
NK-M-22M22S2,1155,experiment,73,↓,down,↓,0.767047300003469,True,28,1
NK-M-22M22S2,1156,experiment,70,↓,down,↓,0.6007896000519395,True,28,1
NK-M-22M22S2,1157,experiment,79,↑,up,↑,0.6623382000252604,True,28,1
NK-M-22M22S2,1158,experiment,107,↓,left,←,0.8234492999035865,False,28,1
NK-M-22M22S2,1159,experiment,106,←,left,←,0.5948554999195039,True,28,1
NK-M-22M22S2,1160,experiment,77,↑,up,↑,0.5289508998394012,True,28,1
NK-M-22M22S2,1161,experiment,60,←,left,←,0.575490000192076,True,28,1
NK-M-22M22S2,1162,experiment,88,→,right,→,0.43482109997421503,True,28,1
NK-M-22M22S2,1163,experiment,69,↑,up,↑,0.5381546998396516,True,28,1
NK-M-22M22S2,1164,experiment,74,←,left,←,0.5316757000982761,True,28,1
NK-M-22M22S2,1165,experiment,54,↑,up,↑,1.244001999963075,True,28,1
NK-M-22M22S2,1166,experiment,104,→,right,→,0.5909166999626905,True,28,1
NK-M-22M22S2,1167,experiment,96,→,right,→,0.582717000041157,True,28,1
NK-M-22M22S2,1168,experiment,61,↑,up,↑,0.5711362999863923,True,28,1
NK-M-22M22S2,1169,experiment,108,→,right,→,1.1517074999865144,True,28,1
NK-M-22M22S2,1170,experiment,84,↓,down,↓,0.5493763999547809,True,28,1
NK-M-22M22S2,1171,experiment,93,→,right,→,0.6640773001126945,True,28,1
NK-M-22M22S2,1172,experiment,52,←,left,←,0.5319405000191182,True,28,1
NK-M-22M22S2,1173,experiment,101,↓,down,↓,0.524413000093773,True,28,1
NK-M-22M22S2,1174,experiment,58,↑,up,↑,0.5320079000666738,True,28,1
NK-M-22M22S2,1175,training,101,↓,down,↓,0.5953665000852197,True,28,0
NK-M-22M22S2,1176,training,54,↑,up,↑,0.5689987000077963,True,28,1
NK-M-22M22S2,1177,experiment,59,←,left,←,0.5344762001186609,True,28,1
NK-M-22M22S2,1178,experiment,108,↑,up,↑,0.7411255000624806,True,28,1
NK-M-22M22S2,1179,experiment,67,→,right,→,0.48866540007293224,True,28,1
NK-M-22M22S2,1180,experiment,102,←,left,←,0.554681200068444,True,28,1
NK-M-22M22S2,1181,experiment,65,→,right,→,0.4865951999090612,True,28,1
NK-M-22M22S2,1182,experiment,96,↓,down,↓,0.5546923999208957,True,28,1
NK-M-22M22S2,1183,experiment,80,←,left,←,0.8813917001243681,True,28,1
NK-M-22M22S2,1184,experiment,95,↑,up,↑,0.5184732000343502,True,28,1
NK-M-22M22S2,1185,experiment,48,↑,up,↑,0.48126540007069707,True,28,1
NK-M-22M22S2,1186,experiment,99,↓,down,↓,0.9647466000169516,True,28,1
NK-M-22M22S2,1187,experiment,84,↑,left,←,0.969677000073716,False,28,1
NK-M-22M22S2,1188,experiment,57,←,left,←,0.4156112000346184,True,28,1
NK-M-22M22S2,1189,experiment,63,→,right,→,0.6097538999747485,True,28,1
NK-M-22M22S2,1190,experiment,82,↑,up,↑,0.5258042998611927,True,28,1
NK-M-22M22S2,1191,experiment,83,→,right,→,0.5567828000057489,True,28,1
NK-M-22M22S2,1192,experiment,70,←,left,←,0.42303479998372495,True,28,1
NK-M-22M22S2,1193,experiment,66,↑,up,↑,0.6156043999362737,True,28,1
NK-M-22M22S2,1194,experiment,61,↑,up,↑,0.4984420998953283,True,28,1
NK-M-22M22S2,1195,experiment,91,←,left,←,0.5359489999245852,True,28,1
NK-M-22M22S2,1196,experiment,55,↑,up,↑,0.5434866999275982,True,28,1
NK-M-22M22S2,1197,experiment,77,↓,down,↓,0.6960027001332492,True,28,1
NK-M-22M22S2,1198,experiment,62,↓,down,↓,0.6714459999930114,True,28,1
NK-M-22M22S2,1199,experiment,51,→,right,→,0.4272476998157799,True,28,1
NK-M-22M22S2,1200,experiment,87,↑,up,↑,0.4768783999606967,True,28,1
NK-M-22M22S2,1201,experiment,49,→,right,→,0.5693753999657929,True,28,1
NK-M-22M22S2,1202,experiment,72,↑,up,↑,0.5380627999547869,True,28,1
NK-M-22M22S2,1203,experiment,105,→,down,↓,1.0251533999107778,False,28,1
NK-M-22M22S2,1204,experiment,81,↓,down,↓,0.6207143000792712,True,28,1
NK-M-22M22S2,1205,experiment,100,↑,up,↑,0.45816679997369647,True,28,1
NK-M-22M22S2,1206,experiment,74,↓,down,↓,0.5750786999706179,True,28,1
NK-M-22M22S2,1207,experiment,73,↑,up,↑,0.5272482000291348,True,28,1
NK-M-22M22S2,1208,experiment,71,→,right,→,0.5620840999763459,True,28,1
NK-M-22M22S2,1209,experiment,97,←,left,←,0.6027776999399066,True,28,1
NK-M-22M22S2,1210,experiment,54,→,right,→,0.46466609998606145,True,28,1
NK-M-22M22S2,1211,experiment,58,↑,up,↑,0.5702955999877304,True,28,1
NK-M-22M22S2,1212,experiment,60,→,left,←,1.5914215999655426,False,28,1
NK-M-22M22S2,1213,experiment,104,↓,down,↓,0.7726555000990629,True,28,1
NK-M-22M22S2,1214,experiment,68,↑,up,↑,0.5027054001111537,True,28,1
NK-M-22M22S2,1215,experiment,89,←,left,←,0.4927471000701189,True,28,1
NK-M-22M22S2,1216,experiment,94,↑,up,↑,0.4494391998741776,True,28,1
NK-M-22M22S2,1217,experiment,75,↑,up,↑,0.5021261000074446,True,28,1
NK-M-22M22S2,1218,experiment,56,→,right,→,0.5033255000598729,True,28,1
NK-M-22M22S2,1219,experiment,88,↑,up,↑,1.0777278000023216,True,28,1
NK-M-22M22S2,1220,experiment,76,→,left,←,0.8488384000957012,False,28,1
NK-M-22M22S2,1221,experiment,79,←,left,←,0.5479967999272048,True,28,1
NK-M-22M22S2,1222,experiment,78,→,right,→,0.5157954001333565,True,28,1
NK-M-22M22S2,1223,experiment,92,↓,down,↓,0.6001299999188632,True,28,1
NK-M-22M22S2,1224,experiment,86,←,left,←,0.6751981000415981,True,28,1
NK-M-22M22S2,1225,experiment,106,↑,up,↑,0.4445458999834955,True,28,1
NK-M-22M22S2,1226,experiment,69,↑,down,↓,0.6433252000715584,False,28,1
NK-M-22M22S2,1227,experiment,85,↓,down,↓,0.6848708998877555,True,28,1
NK-M-22M22S2,1228,experiment,101,→,left,←,0.9676098998170346,False,28,1
NK-M-22M22S2,1229,experiment,98,↓,down,↓,0.5839139998424798,True,28,1
NK-M-22M22S2,1230,experiment,50,↑,up,↑,0.6156277998816222,True,28,1
NK-M-22M22S2,1231,experiment,90,↑,up,↑,0.5366771998815238,True,28,1
NK-M-22M22S2,1232,experiment,107,↑,up,↑,0.46317019988782704,True,28,1
NK-M-22M22S2,1233,experiment,64,↑,up,↑,0.7268602999392897,True,28,1
NK-M-22M22S2,1234,experiment,52,→,right,→,0.6884095000568777,True,28,1
NK-M-22M22S2,1235,experiment,103,↓,down,↓,0.4980902997776866,True,28,1
NK-M-22M22S2,1236,experiment,93,←,down,↓,0.9587162998504937,False,28,1
NK-M-22M22S2,1237,experiment,53,↓,down,↓,0.5508175999857485,True,28,1
NK-M-22M22S2,1238,training,77,↓,down,↓,0.5754442999605089,True,28,0
NK-M-22M22S2,1239,training,66,→,right,→,0.5060423000250012,True,28,1
NK-M-22M22S2,1240,experiment,62,→,right,→,0.49677140009589493,True,28,1
NK-M-22M22S2,1241,experiment,88,↑,up,↑,0.4712208001874387,True,28,1
NK-M-22M22S2,1242,experiment,107,→,left,←,0.6803110998589545,False,28,1
NK-M-22M22S2,1243,experiment,55,←,left,←,0.4903076998889446,True,28,1
NK-M-22M22S2,1244,experiment,97,↑,up,↑,0.5019726001191884,True,28,1
NK-M-22M22S2,1245,experiment,104,→,right,→,0.8228817000053823,True,28,1
NK-M-22M22S2,1246,experiment,87,←,left,←,1.232662099879235,True,28,1
NK-M-22M22S2,1247,experiment,102,→,right,→,0.5812409999780357,True,28,1
NK-M-22M22S2,1248,experiment,75,→,right,→,0.660278899827972,True,28,1
NK-M-22M22S2,1249,experiment,68,↓,down,↓,0.5473482999950647,True,28,1
NK-M-22M22S2,1250,experiment,79,→,right,→,0.45848100003786385,True,28,1
NK-M-22M22S2,1251,experiment,59,→,right,→,0.5002894999925047,True,28,1
NK-M-22M22S2,1252,experiment,94,↑,up,↑,0.7367829999420792,True,28,1
NK-M-22M22S2,1253,experiment,103,→,right,→,0.6883906000293791,True,28,1
NK-M-22M22S2,1254,experiment,99,↓,down,↓,0.5153357998933643,True,28,1
NK-M-22M22S2,1255,experiment,56,→,right,→,0.5797834999393672,True,28,1
NK-M-22M22S2,1256,experiment,95,←,left,←,1.1723430999554694,True,28,1
NK-M-22M22S2,1257,experiment,100,←,left,←,0.8522696001455188,True,28,1
NK-M-22M22S2,1258,experiment,64,←,left,←,0.47612229990772903,True,28,1
NK-M-22M22S2,1259,experiment,78,↑,up,↑,0.550871399929747,True,28,1
NK-M-22M22S2,1260,experiment,53,→,right,→,0.8311115000396967,True,28,1
NK-M-22M22S2,1261,experiment,90,→,right,→,0.543373400112614,True,28,1
NK-M-22M22S2,1262,experiment,81,←,left,←,0.5421976998914033,True,28,1
NK-M-22M22S2,1263,experiment,73,→,right,→,0.439708000048995,True,28,1
NK-M-22M22S2,1264,experiment,86,↓,down,↓,0.6092942000832409,True,28,1
NK-M-22M22S2,1265,experiment,106,←,up,↑,0.749322900082916,False,28,1
NK-M-22M22S2,1266,experiment,98,↑,up,↑,0.6143475999124348,True,28,1
NK-M-22M22S2,1267,experiment,60,↑,up,↑,0.5373837999068201,True,28,1
NK-M-22M22S2,1268,experiment,91,←,left,←,0.5011202001478523,True,28,1
NK-M-22M22S2,1269,experiment,84,→,left,←,0.6048012000974268,False,28,1
NK-M-22M22S2,1270,experiment,101,←,left,←,0.5627362998202443,True,28,1
NK-M-22M22S2,1271,experiment,65,↑,left,←,0.7418657999951392,False,28,1
NK-M-22M22S2,1272,experiment,76,→,right,→,0.5026006000116467,True,28,1
NK-M-22M22S2,1273,experiment,66,↑,up,↑,0.852390400134027,True,28,1
NK-M-22M22S2,1274,experiment,51,↓,down,↓,0.6168023999780416,True,28,1
NK-M-22M22S2,1275,experiment,63,↑,left,←,1.338888900121674,False,28,1
NK-M-22M22S2,1276,experiment,72,→,left,←,0.852794999955222,False,28,1
NK-M-22M22S2,1277,experiment,77,↓,down,↓,0.5603296000044793,True,28,1
NK-M-22M22S2,1278,experiment,67,←,left,←,0.45960830012336373,True,28,1
NK-M-22M22S2,1279,experiment,50,←,left,←,0.4803647000808269,True,28,1
NK-M-22M22S2,1280,experiment,54,→,right,→,0.5388501998968422,True,28,1
NK-M-22M22S2,1281,experiment,92,→,right,→,0.654145099921152,True,28,1
NK-M-22M22S2,1282,experiment,89,←,left,←,0.46975980000570416,True,28,1
NK-M-22M22S2,1283,experiment,108,↓,down,↓,0.5024097999557853,True,28,1
NK-M-22M22S2,1284,experiment,74,↑,up,↑,0.5137549000792205,True,28,1
NK-M-22M22S2,1285,experiment,82,↓,down,↓,0.6013863000553101,True,28,1
NK-M-22M22S2,1286,experiment,58,←,left,←,0.3842583999503404,True,28,1
NK-M-22M22S2,1287,experiment,48,←,left,←,0.42188889998942614,True,28,0
NK-M-22M22S2,1288,experiment,96,←,left,←,0.5086322999559343,True,28,1
NK-M-22M22S2,1289,experiment,85,→,right,→,0.5797770000062883,True,28,1
NK-M-22M22S2,1290,experiment,71,↓,down,↓,0.7484553998801857,True,28,1
NK-M-22M22S2,1291,experiment,105,↑,up,↑,0.41932970006018877,True,28,1
NK-M-22M22S2,1292,experiment,83,→,right,→,0.6221881997771561,True,28,1
NK-M-22M22S2,1293,experiment,49,←,left,←,0.6286563999019563,True,28,1
NK-M-22M22S2,1294,experiment,69,→,right,→,0.5961672000121325,True,28,1
NK-M-22M22S2,1295,experiment,70,→,right,→,0.6924064001068473,True,28,1
NK-M-22M22S2,1296,experiment,57,↑,up,↑,0.5655608000233769,True,28,1
NK-M-22M22S2,1297,experiment,80,→,right,→,0.523936599958688,True,28,1
NK-M-22M22S2,1298,experiment,61,↑,up,↑,0.46630750014446676,True,28,1
NK-M-22M22S2,1299,experiment,93,↑,up,↑,0.40856609982438385,True,28,1
NK-M-22M22S2,1300,experiment,52,↓,down,↓,0.4625958001706749,True,28,1
NK-M-22M22S2,1301,training,54,↓,down,↓,0.4396581999026239,True,28,0
NK-M-22M22S2,1302,training,101,←,down,↓,0.8120558999944478,False,28,1
NK-M-22M22S2,1303,experiment,70,←,left,←,0.5081952000036836,True,28,1
NK-M-22M22S2,1304,experiment,66,↑,up,↑,0.5695493000093848,True,28,1
NK-M-22M22S2,1305,experiment,107,→,right,→,0.6548024001531303,True,28,1
NK-M-22M22S2,1306,experiment,90,←,left,←,0.5264748001936823,True,28,1
NK-M-22M22S2,1307,experiment,97,←,left,←,0.43274240009486675,True,28,1
NK-M-22M22S2,1308,experiment,55,←,left,←,0.48471490014344454,True,28,1
NK-M-22M22S2,1309,experiment,87,↑,down,↓,0.6522349999286234,False,28,1
NK-M-22M22S2,1310,experiment,63,↓,down,↓,0.5885723000392318,True,28,1
NK-M-22M22S2,1311,experiment,59,←,left,←,0.4970275000669062,True,28,1
NK-M-22M22S2,1312,experiment,100,←,left,←,1.499379200162366,True,28,1
NK-M-22M22S2,1313,experiment,94,←,left,←,0.4958454999141395,True,28,1
NK-M-22M22S2,1314,experiment,86,↑,up,↑,0.870785899925977,True,28,1
NK-M-22M22S2,1315,experiment,103,←,left,←,0.4650895001832396,True,28,1
NK-M-22M22S2,1316,experiment,76,↓,down,↓,0.900815200060606,True,28,1
NK-M-22M22S2,1317,experiment,102,↓,down,↓,1.3343744999729097,True,28,1
NK-M-22M22S2,1318,experiment,96,↑,up,↑,0.5604964999947697,True,28,1
NK-M-22M22S2,1319,experiment,77,↓,down,↓,0.44806989980861545,True,28,1
NK-M-22M22S2,1320,experiment,81,↑,down,↓,0.5869380000513047,False,28,1
NK-M-22M22S2,1321,experiment,98,↓,down,↓,0.5865356998983771,True,28,1
NK-M-22M22S2,1322,experiment,85,↓,down,↓,0.526385199977085,True,28,1
NK-M-22M22S2,1323,experiment,49,→,left,←,0.6727505000308156,False,28,1
NK-M-22M22S2,1324,experiment,62,↓,down,↓,0.40070050000213087,True,28,1
NK-M-22M22S2,1325,experiment,89,↑,up,↑,0.7144247000105679,True,28,0
NK-M-22M22S2,1326,experiment,99,→,right,→,0.5964974998496473,True,28,1
NK-M-22M22S2,1327,experiment,88,↓,down,↓,0.6628580999094993,True,28,1
NK-M-22M22S2,1328,experiment,53,→,right,→,0.4982479999307543,True,28,1
NK-M-22M22S2,1329,experiment,108,↓,down,↓,0.5140138999558985,True,28,1
NK-M-22M22S2,1330,experiment,79,←,left,←,0.37522519985213876,True,28,1
NK-M-22M22S2,1331,experiment,80,↓,down,↓,0.8003492001444101,True,28,0
NK-M-22M22S2,1332,experiment,65,←,left,←,0.4588627000339329,True,28,1
NK-M-22M22S2,1333,experiment,57,←,left,←,0.6609014999121428,True,28,1
NK-M-22M22S2,1334,experiment,75,→,left,←,0.8090856000781059,False,28,1
NK-M-22M22S2,1335,experiment,73,↑,up,↑,0.504111599875614,True,28,1
NK-M-22M22S2,1336,experiment,61,↓,down,↓,0.6390609000809491,True,28,1
NK-M-22M22S2,1337,experiment,93,↓,down,↓,0.43798260018229485,True,28,1
NK-M-22M22S2,1338,experiment,69,↓,down,↓,0.5016445000655949,True,28,1
NK-M-22M22S2,1339,experiment,54,↓,down,↓,0.5194763999897987,True,28,1
NK-M-22M22S2,1340,experiment,74,↑,up,↑,0.5534535001497716,True,28,1
NK-M-22M22S2,1341,experiment,104,↓,down,↓,0.5285680999513716,True,28,1
NK-M-22M22S2,1342,experiment,92,↓,down,↓,0.5484915999695659,True,28,1
NK-M-22M22S2,1343,experiment,68,↓,down,↓,0.5275542000308633,True,28,1
NK-M-22M22S2,1344,experiment,83,→,right,→,0.5506303999572992,True,28,1
NK-M-22M22S2,1345,experiment,71,↓,down,↓,0.5687659999821335,True,28,1
NK-M-22M22S2,1346,experiment,64,←,left,←,0.4600815000012517,True,28,1
NK-M-22M22S2,1347,experiment,101,←,right,→,0.6639431000221521,False,28,1
NK-M-22M22S2,1348,experiment,48,→,right,→,0.5489111000206321,True,28,1
NK-M-22M22S2,1349,experiment,67,↓,down,↓,0.616476200055331,True,28,1
NK-M-22M22S2,1350,experiment,95,←,left,←,0.5198576999828219,True,28,1
NK-M-22M22S2,1351,experiment,58,←,left,←,0.4717286000959575,True,28,1
NK-M-22M22S2,1352,experiment,91,↓,down,↓,0.5338653000071645,True,28,1
NK-M-22M22S2,1353,experiment,105,↓,down,↓,0.43730170000344515,True,28,1
NK-M-22M22S2,1354,experiment,78,↑,up,↑,0.593402799917385,True,28,1
NK-M-22M22S2,1355,experiment,51,→,right,→,0.6642355998046696,True,28,1
NK-M-22M22S2,1356,experiment,52,→,left,←,0.6840359000489116,False,28,1
NK-M-22M22S2,1357,experiment,50,↑,up,↑,0.5361385999713093,True,28,1
NK-M-22M22S2,1358,experiment,72,↓,down,↓,0.9620672999881208,True,28,1
NK-M-22M22S2,1359,experiment,56,→,left,←,0.6485299000050873,False,28,1
NK-M-22M22S2,1360,experiment,106,→,right,→,0.5627349000424147,True,28,1
NK-M-22M22S2,1361,experiment,60,←,left,←,0.5118841999210417,True,28,1
NK-M-22M22S2,1362,experiment,82,↓,down,↓,0.6723031001165509,True,28,1
NK-M-22M22S2,1363,experiment,84,→,right,→,0.5686768000014126,True,28,1
NK-M-22M22S2,1364,training,108,↓,down,↓,0.5006353999488056,True,28,0
NK-M-22M22S2,1365,training,81,←,left,←,0.4612371998373419,True,28,1
NK-M-22M22S2,1366,experiment,89,↓,down,↓,0.5171542000025511,True,28,1
NK-M-22M22S2,1367,experiment,79,↑,down,↓,0.5258426999207586,False,28,1
NK-M-22M22S2,1368,experiment,71,↑,up,↑,0.47283350001089275,True,28,1
NK-M-22M22S2,1369,experiment,84,→,right,→,0.48169839987531304,True,28,1
NK-M-22M22S2,1370,experiment,102,←,left,←,0.7399314998183399,True,28,1
NK-M-22M22S2,1371,experiment,88,↑,up,↑,0.5767002999782562,True,28,1
NK-M-22M22S2,1372,experiment,57,→,right,→,0.6143471000250429,True,28,1
NK-M-22M22S2,1373,experiment,73,↑,up,↑,0.5572816000785679,True,28,1
NK-M-22M22S2,1374,experiment,51,←,left,←,0.4855861000251025,True,28,1
NK-M-22M22S2,1375,experiment,107,↓,down,↓,0.5264302999712527,True,28,1
NK-M-22M22S2,1376,experiment,67,←,left,←,0.6266576999332756,True,28,1
NK-M-22M22S2,1377,experiment,78,→,right,→,0.47148820012807846,True,28,1
NK-M-22M22S2,1378,experiment,55,↑,up,↑,0.505952499806881,True,28,1
NK-M-22M22S2,1379,experiment,83,↓,down,↓,0.6494060000404716,True,28,1
NK-M-22M22S2,1380,experiment,108,↑,up,↑,0.42732880008406937,True,28,1
NK-M-22M22S2,1381,experiment,68,→,right,→,0.5312004000879824,True,28,1
NK-M-22M22S2,1382,experiment,94,↓,down,↓,0.622436499921605,True,28,1
NK-M-22M22S2,1383,experiment,103,↓,down,↓,0.36783319991081953,True,28,1
NK-M-22M22S2,1384,experiment,69,↑,up,↑,0.5329257000703365,True,28,1
NK-M-22M22S2,1385,experiment,66,→,right,→,0.5769056999124587,True,28,1
NK-M-22M22S2,1386,experiment,104,→,left,←,0.6550489000510424,False,28,1
NK-M-22M22S2,1387,experiment,48,↑,up,↑,0.5482191999908537,True,28,1
NK-M-22M22S2,1388,experiment,106,←,left,←,1.1308348001912236,True,28,1
NK-M-22M22S2,1389,experiment,64,←,left,←,0.4079514998011291,True,28,1
NK-M-22M22S2,1390,experiment,59,↓,down,↓,0.5875707999803126,True,28,1
NK-M-22M22S2,1391,experiment,53,↑,up,↑,0.42619289993308485,True,28,1
NK-M-22M22S2,1392,experiment,65,↓,up,↑,0.42705029994249344,False,28,1
NK-M-22M22S2,1393,experiment,92,→,right,→,0.45925630000419915,True,28,1
NK-M-22M22S2,1394,experiment,96,←,left,←,0.5286457999609411,True,28,1
NK-M-22M22S2,1395,experiment,99,←,left,←,0.7062291998881847,True,28,1
NK-M-22M22S2,1396,experiment,50,→,right,→,0.5889775999821723,True,28,1
NK-M-22M22S2,1397,experiment,85,→,right,→,0.6488776998594403,True,28,1
NK-M-22M22S2,1398,experiment,105,↓,down,↓,0.57963200006634,True,28,1
NK-M-22M22S2,1399,experiment,93,↓,down,↓,1.3250087001360953,True,28,1
NK-M-22M22S2,1400,experiment,72,←,left,←,0.48765609995462,True,28,1
NK-M-22M22S2,1401,experiment,91,→,right,→,0.34304860001429915,True,28,1
NK-M-22M22S2,1402,experiment,60,↓,down,↓,0.6114314999431372,True,28,1
NK-M-22M22S2,1403,experiment,52,←,left,←,0.5210065999999642,True,28,1
NK-M-22M22S2,1404,experiment,56,↑,up,↑,1.2811783000361174,True,28,1
NK-M-22M22S2,1405,experiment,82,↑,up,↑,0.4578997001517564,True,28,1
NK-M-22M22S2,1406,experiment,63,↓,down,↓,0.5223972999956459,True,28,1
NK-M-22M22S2,1407,experiment,81,→,right,→,0.6101432999130338,True,28,1
NK-M-22M22S2,1408,experiment,54,←,left,←,0.4156911000609398,True,28,1
NK-M-22M22S2,1409,experiment,90,←,left,←,0.3673099000006914,True,28,1
NK-M-22M22S2,1410,experiment,95,↑,up,↑,0.4740242001134902,True,28,0
NK-M-22M22S2,1411,experiment,80,↑,up,↑,0.5077869999222457,True,28,1
NK-M-22M22S2,1412,experiment,76,←,left,←,0.4938980999868363,True,28,1
NK-M-22M22S2,1413,experiment,101,↓,down,↓,0.4642815999686718,True,28,1
NK-M-22M22S2,1414,experiment,62,→,right,→,0.6087535999249667,True,28,1
NK-M-22M22S2,1415,experiment,70,←,right,→,0.6966292001307011,False,28,1
NK-M-22M22S2,1416,experiment,61,←,left,←,0.7762226001359522,True,28,1
NK-M-22M22S2,1417,experiment,58,←,left,←,0.3837174999061972,True,28,1
NK-M-22M22S2,1418,experiment,86,↓,left,←,0.31706220004707575,False,28,0
NK-M-22M22S2,1419,experiment,49,←,left,←,0.563313800143078,True,28,0
NK-M-22M22S2,1420,experiment,98,↓,down,↓,0.6441355999559164,True,28,1
NK-M-22M22S2,1421,experiment,97,↓,down,↓,0.5055030998773873,True,28,1
NK-M-22M22S2,1422,experiment,100,←,left,←,0.40347660006955266,True,28,1
NK-M-22M22S2,1423,experiment,87,↑,up,↑,0.6140262000262737,True,28,0
NK-M-22M22S2,1424,experiment,77,↓,down,↓,0.4432094001676887,True,28,1
NK-M-22M22S2,1425,experiment,75,←,left,←,0.6326403999701142,True,28,1
NK-M-22M22S2,1426,experiment,74,→,left,←,0.36798970005474985,False,28,1
NK-M-22M22S2,1427,training,55,↓,down,↓,0.5577197999227792,True,28,0
NK-M-22M22S2,1428,training,81,→,right,→,0.659953200025484,True,28,1
NK-M-22M22S2,1429,experiment,99,↑,down,↓,0.6243942000437528,False,28,1
NK-M-22M22S2,1430,experiment,63,↓,down,↓,0.4745122001040727,True,28,1
NK-M-22M22S2,1431,experiment,108,↓,down,↓,0.6988224999513477,True,28,1
NK-M-22M22S2,1432,experiment,68,↓,down,↓,0.47185329999774694,True,28,1
NK-M-22M22S2,1433,experiment,60,↓,down,↓,0.488597699906677,True,28,1
NK-M-22M22S2,1434,experiment,52,↑,up,↑,0.5875036001671106,True,28,1
NK-M-22M22S2,1435,experiment,58,←,left,←,0.560181399807334,True,28,1
NK-M-22M22S2,1436,experiment,103,↑,up,↑,0.4149126000702381,True,28,1
NK-M-22M22S2,1437,experiment,93,←,left,←,0.38444990012794733,True,28,1
NK-M-22M22S2,1438,experiment,88,←,left,←,0.4255863002035767,True,28,0
NK-M-22M22S2,1439,experiment,97,↓,down,↓,0.6001244999933988,True,28,1
NK-M-22M22S2,1440,experiment,76,↓,up,↑,0.8705414000432938,False,28,1
NK-M-22M22S2,1441,experiment,69,→,right,→,1.4999424999114126,True,28,1
NK-M-22M22S2,1442,experiment,82,←,right,→,0.692358799977228,False,28,1
NK-M-22M22S2,1443,experiment,92,←,right,→,0.7856900999322534,False,28,1
NK-M-22M22S2,1444,experiment,102,→,right,→,0.736159399850294,True,28,1
