PART_ID,Trial_no,Trial_type,CSI,Stim_letter,Key_pressed,letter_choose,Rt,Corr,Stimulus Time,nDropped
NK-M-22M22S1,1,training,120,→,no_key,no_letter,-1.0,False,60,0
NK-M-22M22S1,2,training,120,↑,up,↑,0.7733758001122624,True,60,0
NK-M-22M22S1,3,training,120,←,left,←,0.7294853001367301,True,60,0
NK-M-22M22S1,4,training,120,↓,down,↓,0.795469299890101,True,60,0
NK-M-22M22S1,5,training,120,←,no_key,no_letter,-1.0,False,60,0
NK-M-22M22S1,6,training,120,↓,down,↓,0.8424737001769245,True,60,0
NK-M-22M22S1,7,training,120,←,left,←,0.6091204001568258,True,60,0
NK-M-22M22S1,8,training,120,←,left,←,0.5515825999900699,True,60,0
NK-M-22M22S1,9,training,120,↑,up,↑,0.5518042999319732,True,60,0
NK-M-22M22S1,10,training,120,→,right,→,0.5768718998879194,True,60,0
NK-M-22M22S1,11,training,120,↑,up,↑,0.5681111998856068,True,60,0
NK-M-22M22S1,12,training,120,→,right,→,0.4100549998693168,True,60,0
NK-M-22M22S1,13,training,120,←,left,←,0.5007231999188662,True,60,0
NK-M-22M22S1,14,training,120,→,right,→,0.5259196998085827,True,60,0
NK-M-22M22S1,15,training,120,←,left,←,0.4851466999389231,True,60,0
NK-M-22M22S1,16,training,120,←,left,←,0.5094554999377578,True,60,0
NK-M-22M22S1,17,training,120,←,left,←,0.5257272000890225,True,60,0
NK-M-22M22S1,18,training,120,↓,up,↑,0.4924842999316752,False,60,0
NK-M-22M22S1,19,training,120,←,left,←,0.4766700000036508,True,60,0
NK-M-22M22S1,20,training,120,↑,up,↑,0.4852992999367416,True,60,0
NK-M-22M22S1,21,no_adaptation,120,→,left,←,0.5016866999212652,False,36,0
NK-M-22M22S1,22,no_adaptation,120,←,left,←,0.6006692999508232,True,36,0
NK-M-22M22S1,23,no_adaptation,120,→,right,→,0.7996799000538886,True,36,0
NK-M-22M22S1,24,no_adaptation,120,←,left,←,0.5748805000912398,True,36,0
NK-M-22M22S1,25,no_adaptation,120,↓,down,↓,1.1271633999422193,True,36,0
NK-M-22M22S1,26,no_adaptation,120,←,left,←,0.5927718998864293,True,36,0
NK-M-22M22S1,27,no_adaptation,120,→,right,→,0.41729220002889633,True,36,0
NK-M-22M22S1,28,no_adaptation,120,↓,down,↓,0.6141991999465972,True,36,0
NK-M-22M22S1,29,no_adaptation,120,↓,down,↓,0.6928989000152797,True,36,0
NK-M-22M22S1,30,no_adaptation,120,←,left,←,0.48871339997276664,True,36,0
NK-M-22M22S1,31,no_adaptation,120,↓,up,↑,0.9477961000520736,False,36,0
NK-M-22M22S1,32,no_adaptation,120,←,left,←,0.6129058999940753,True,36,0
NK-M-22M22S1,33,no_adaptation,120,↓,down,↓,0.8436593001242727,True,36,0
NK-M-22M22S1,34,no_adaptation,120,↑,up,↑,0.6886169998906553,True,36,0
NK-M-22M22S1,35,no_adaptation,120,↓,down,↓,0.6041149999946356,True,36,0
NK-M-22M22S1,36,no_adaptation,120,↑,up,↑,0.7229714000131935,True,36,0
NK-M-22M22S1,37,no_adaptation,120,→,left,←,1.4212842998094857,False,36,0
NK-M-22M22S1,38,no_adaptation,120,→,right,→,0.5793542000465095,True,36,0
NK-M-22M22S1,39,no_adaptation,120,↓,down,↓,0.5230855999980122,True,36,0
NK-M-22M22S1,40,no_adaptation,120,↓,up,↑,1.1173012000508606,False,36,0
NK-M-22M22S1,41,training,91,→,right,→,0.813380700070411,True,36,0
NK-M-22M22S1,42,training,95,↑,up,↑,0.7728887998964638,True,36,1
NK-M-22M22S1,43,experiment,73,→,left,←,0.8052230998873711,False,36,1
NK-M-22M22S1,44,experiment,64,→,right,→,0.5830467999912798,True,36,1
NK-M-22M22S1,45,experiment,51,↓,down,↓,0.69446019991301,True,36,1
NK-M-22M22S1,46,experiment,49,←,left,←,0.5063167000189424,True,36,1
NK-M-22M22S1,47,experiment,79,←,left,←,0.5953257998917252,True,36,1
NK-M-22M22S1,48,experiment,62,→,right,→,0.5029821000061929,True,36,1
NK-M-22M22S1,49,experiment,85,→,right,→,0.5181380999274552,True,36,1
NK-M-22M22S1,50,experiment,61,↑,up,↑,0.5090152001939714,True,36,1
NK-M-22M22S1,51,experiment,82,↑,up,↑,0.6051393998786807,True,36,1
NK-M-22M22S1,52,experiment,94,←,left,←,0.44225189997814596,True,36,1
NK-M-22M22S1,53,experiment,80,←,left,←,0.6800277000293136,True,36,0
NK-M-22M22S1,54,experiment,97,↑,up,↑,0.5961416000500321,True,36,1
NK-M-22M22S1,55,experiment,92,→,right,→,0.5249429000541568,True,36,1
NK-M-22M22S1,56,experiment,105,←,left,←,0.5568347000516951,True,36,1
NK-M-22M22S1,57,experiment,54,→,right,→,0.6523539000190794,True,36,1
NK-M-22M22S1,58,experiment,83,↑,up,↑,0.5185134999919683,True,36,1
NK-M-22M22S1,59,experiment,69,→,left,←,0.5626121000386775,False,36,1
NK-M-22M22S1,60,experiment,71,↓,up,↑,0.8118056999519467,False,36,1
NK-M-22M22S1,61,experiment,84,←,left,←,0.9112262001726776,True,36,1
NK-M-22M22S1,62,experiment,48,←,left,←,0.7705405000597239,True,36,1
NK-M-22M22S1,63,experiment,93,→,right,→,0.5645489001180977,True,36,1
NK-M-22M22S1,64,experiment,70,↑,up,↑,0.630323699908331,True,36,1
NK-M-22M22S1,65,experiment,90,→,right,→,0.6306560998782516,True,36,1
NK-M-22M22S1,66,experiment,81,→,right,→,0.5702627000864595,True,36,1
NK-M-22M22S1,67,experiment,60,↓,up,↑,0.7991551999002695,False,36,1
NK-M-22M22S1,68,experiment,87,←,left,←,0.7540182999800891,True,36,1
NK-M-22M22S1,69,experiment,67,↑,up,↑,0.7813951000571251,True,36,1
NK-M-22M22S1,70,experiment,75,←,left,←,0.6767828001175076,True,36,1
NK-M-22M22S1,71,experiment,104,↓,down,↓,0.8146397999953479,True,36,1
NK-M-22M22S1,72,experiment,77,→,right,→,0.7566092000342906,True,36,1
NK-M-22M22S1,73,experiment,58,↑,up,↑,1.2980646002106369,True,36,1
NK-M-22M22S1,74,experiment,100,↓,down,↓,0.732249699998647,True,36,1
NK-M-22M22S1,75,experiment,72,→,right,→,0.5268383999355137,True,36,1
NK-M-22M22S1,76,experiment,91,↑,up,↑,0.6910530999302864,True,36,1
NK-M-22M22S1,77,experiment,89,↓,down,↓,0.9054719000123441,True,36,1
NK-M-22M22S1,78,experiment,86,→,left,←,0.5524887000210583,False,36,1
NK-M-22M22S1,79,experiment,57,↑,up,↑,0.679378799861297,True,36,1
NK-M-22M22S1,80,experiment,107,→,right,→,0.6874431001488119,True,36,1
NK-M-22M22S1,81,experiment,66,←,left,←,0.6137586000841111,True,36,1
NK-M-22M22S1,82,experiment,102,←,left,←,0.5711178001947701,True,36,1
NK-M-22M22S1,83,experiment,56,↑,up,↑,0.6646390000823885,True,36,1
NK-M-22M22S1,84,experiment,95,→,right,→,0.4862085001077503,True,36,1
NK-M-22M22S1,85,experiment,88,←,left,←,0.6852904998231679,True,36,1
NK-M-22M22S1,86,experiment,96,↓,down,↓,0.7054256999399513,True,36,1
NK-M-22M22S1,87,experiment,108,←,left,←,0.6729422998614609,True,36,1
NK-M-22M22S1,88,experiment,55,↓,down,↓,0.6912120999768376,True,36,1
NK-M-22M22S1,89,experiment,74,↓,down,↓,0.5025301999412477,True,36,1
NK-M-22M22S1,90,experiment,53,←,left,←,0.6089999000541866,True,36,1
NK-M-22M22S1,91,experiment,106,→,right,→,0.6688117999583483,True,36,1
NK-M-22M22S1,92,experiment,99,→,right,→,0.5128124000038952,True,36,1
NK-M-22M22S1,93,experiment,98,→,right,→,0.47599219996482134,True,36,1
NK-M-22M22S1,94,experiment,101,↑,up,↑,0.5428818999789655,True,36,1
NK-M-22M22S1,95,experiment,59,→,left,←,0.7008219000417739,False,36,1
NK-M-22M22S1,96,experiment,76,←,left,←,0.6073419000022113,True,36,1
NK-M-22M22S1,97,experiment,63,↑,up,↑,0.5700695998966694,True,36,1
NK-M-22M22S1,98,experiment,68,↑,up,↑,0.7480377000756562,True,36,1
NK-M-22M22S1,99,experiment,103,→,right,→,0.5713439001701772,True,36,1
NK-M-22M22S1,100,experiment,65,←,right,→,0.998472300125286,False,36,1
NK-M-22M22S1,101,experiment,78,→,right,→,0.6998908000532538,True,36,1
NK-M-22M22S1,102,experiment,52,←,left,←,0.7982141000684351,True,36,1
NK-M-22M22S1,103,experiment,50,↓,down,↓,1.0213849998544902,True,36,1
NK-M-22M22S1,104,training,60,↑,up,↑,0.5861007000785321,True,36,0
NK-M-22M22S1,105,training,70,↑,up,↑,0.47622840013355017,True,36,1
NK-M-22M22S1,106,experiment,77,↑,up,↑,0.5344519000500441,True,36,1
NK-M-22M22S1,107,experiment,85,←,no_key,no_letter,-1.0,False,36,1
NK-M-22M22S1,108,experiment,65,←,left,←,0.5434471999760717,True,36,1
NK-M-22M22S1,109,experiment,66,←,left,←,0.5635488000698388,True,36,1
NK-M-22M22S1,110,experiment,67,↓,down,↓,0.5662567999679595,True,36,1
NK-M-22M22S1,111,experiment,87,→,right,→,0.5145645001903176,True,36,1
NK-M-22M22S1,112,experiment,51,←,left,←,0.6683924999088049,True,36,1
NK-M-22M22S1,113,experiment,62,←,left,←,0.5168314999900758,True,36,1
NK-M-22M22S1,114,experiment,78,→,right,→,0.6618699999526143,True,36,1
NK-M-22M22S1,115,experiment,61,↓,up,↑,0.7108539000619203,False,36,1
NK-M-22M22S1,116,experiment,84,→,right,→,0.5983641999773681,True,36,1
NK-M-22M22S1,117,experiment,108,↑,up,↑,0.7062154000159353,True,36,1
NK-M-22M22S1,118,experiment,55,↑,left,←,1.0831609000451863,False,36,1
NK-M-22M22S1,119,experiment,48,↑,up,↑,1.4394100999925286,True,36,1
NK-M-22M22S1,120,experiment,107,↓,down,↓,0.7936923000961542,True,36,1
NK-M-22M22S1,121,experiment,76,↓,down,↓,0.7844539999496192,True,36,1
NK-M-22M22S1,122,experiment,63,→,right,→,0.5798584001604468,True,36,1
NK-M-22M22S1,123,experiment,88,↑,up,↑,1.0709206000901759,True,36,1
NK-M-22M22S1,124,experiment,99,↑,up,↑,0.7228741999715567,True,36,1
NK-M-22M22S1,125,experiment,72,→,right,→,0.6456810000818223,True,36,1
NK-M-22M22S1,126,experiment,96,→,right,→,0.6434585999231786,True,36,1
NK-M-22M22S1,127,experiment,91,↓,down,↓,0.6593663000967354,True,36,1
NK-M-22M22S1,128,experiment,106,↓,down,↓,0.5970000000670552,True,36,1
NK-M-22M22S1,129,experiment,104,←,left,←,0.6665255997795612,True,36,1
NK-M-22M22S1,130,experiment,71,↑,up,↑,0.647677400149405,True,36,1
NK-M-22M22S1,131,experiment,93,↑,up,↑,0.5903911998029798,True,36,1
NK-M-22M22S1,132,experiment,81,↑,up,↑,0.7074895000550896,True,36,1
NK-M-22M22S1,133,experiment,82,→,right,→,0.6115335999056697,True,36,1
NK-M-22M22S1,134,experiment,54,↓,down,↓,0.5051448999438435,True,36,1
NK-M-22M22S1,135,experiment,75,←,left,←,0.547418599948287,True,36,1
NK-M-22M22S1,136,experiment,102,→,right,→,0.46754600014537573,True,36,1
NK-M-22M22S1,137,experiment,56,↑,up,↑,0.6453740999568254,True,36,0
NK-M-22M22S1,138,experiment,105,↑,up,↑,0.5763491000980139,True,36,1
NK-M-22M22S1,139,experiment,100,↓,down,↓,0.47209099982865155,True,36,1
NK-M-22M22S1,140,experiment,80,↓,down,↓,0.6017410999629647,True,36,0
NK-M-22M22S1,141,experiment,98,↓,down,↓,0.8968479000031948,True,36,1
NK-M-22M22S1,142,experiment,103,↓,down,↓,1.834383700042963,True,36,1
NK-M-22M22S1,143,experiment,83,→,right,→,0.700441800057888,True,36,1
NK-M-22M22S1,144,experiment,90,↓,down,↓,0.5623381999321282,True,36,1
NK-M-22M22S1,145,experiment,57,↓,up,↑,0.7448068999219686,False,36,1
NK-M-22M22S1,146,experiment,52,↑,up,↑,0.8254049001261592,True,36,1
NK-M-22M22S1,147,experiment,59,↓,down,↓,0.6361934999004006,True,36,1
NK-M-22M22S1,148,experiment,68,→,right,→,0.6761137000285089,True,36,1
NK-M-22M22S1,149,experiment,50,↑,left,←,1.4241813998669386,False,36,1
NK-M-22M22S1,150,experiment,64,↓,down,↓,0.617621700046584,True,36,1
NK-M-22M22S1,151,experiment,97,↑,up,↑,0.5921971001662314,True,36,1
NK-M-22M22S1,152,experiment,60,↑,up,↑,0.6842479999177158,True,36,1
NK-M-22M22S1,153,experiment,79,→,right,→,0.5425549000501633,True,36,1
NK-M-22M22S1,154,experiment,92,→,right,→,0.6334285999182612,True,36,1
NK-M-22M22S1,155,experiment,95,↑,up,↑,0.5046282999683172,True,36,1
NK-M-22M22S1,156,experiment,73,→,right,→,0.5793937998823822,True,36,1
NK-M-22M22S1,157,experiment,58,→,right,→,0.5208035001996905,True,36,1
NK-M-22M22S1,158,experiment,94,←,left,←,0.4690191999543458,True,36,1
NK-M-22M22S1,159,experiment,101,←,left,←,0.5913253000471741,True,36,0
NK-M-22M22S1,160,experiment,89,↓,down,↓,0.6978646998759359,True,36,1
NK-M-22M22S1,161,experiment,70,←,left,←,0.6787996001075953,True,36,1
NK-M-22M22S1,162,experiment,53,↑,up,↑,0.6571658998727798,True,36,1
NK-M-22M22S1,163,experiment,69,↑,up,↑,0.6557040999177843,True,36,1
NK-M-22M22S1,164,experiment,74,←,left,←,0.596352000022307,True,36,1
NK-M-22M22S1,165,experiment,49,←,left,←,0.6119319999124855,True,36,1
NK-M-22M22S1,166,experiment,86,↓,down,↓,0.6869570999406278,True,36,1
NK-M-22M22S1,167,training,106,→,right,→,0.5299541999120265,True,35,0
NK-M-22M22S1,168,training,94,↓,down,↓,0.5409556999802589,True,35,1
NK-M-22M22S1,169,experiment,102,→,right,→,0.4690481999423355,True,35,1
NK-M-22M22S1,170,experiment,106,↑,up,↑,0.5897464000154287,True,35,1
NK-M-22M22S1,171,experiment,98,↓,down,↓,0.5970043998677284,True,35,1
NK-M-22M22S1,172,experiment,74,←,left,←,0.5005795999895781,True,35,1
NK-M-22M22S1,173,experiment,57,←,left,←,0.6529111000709236,True,35,1
NK-M-22M22S1,174,experiment,103,→,right,→,0.7044170999433845,True,35,1
NK-M-22M22S1,175,experiment,88,↑,up,↑,0.6543181999586523,True,35,1
NK-M-22M22S1,176,experiment,94,←,left,←,0.5242832999210805,True,35,1
NK-M-22M22S1,177,experiment,101,↓,down,↓,0.9253341001458466,True,35,1
NK-M-22M22S1,178,experiment,100,←,left,←,0.670632999856025,True,35,1
NK-M-22M22S1,179,experiment,99,↑,up,↑,0.6904517998918891,True,35,1
NK-M-22M22S1,180,experiment,76,↑,up,↑,0.6130713999737054,True,35,1
NK-M-22M22S1,181,experiment,89,←,left,←,0.5744652999565005,True,35,1
NK-M-22M22S1,182,experiment,50,↓,up,↑,0.8786959000863135,False,35,1
NK-M-22M22S1,183,experiment,104,→,right,→,0.5765647999942303,True,35,1
NK-M-22M22S1,184,experiment,108,→,right,→,0.525080299936235,True,35,1
NK-M-22M22S1,185,experiment,67,→,left,←,0.49834039993584156,False,35,1
NK-M-22M22S1,186,experiment,95,→,right,→,0.5099450999405235,True,35,1
NK-M-22M22S1,187,experiment,59,←,left,←,0.5816844999790192,True,35,1
NK-M-22M22S1,188,experiment,53,↑,up,↑,0.4844280001707375,True,35,1
NK-M-22M22S1,189,experiment,96,↓,down,↓,0.6883846002165228,True,35,1
NK-M-22M22S1,190,experiment,54,→,right,→,0.4751171001698822,True,35,1
NK-M-22M22S1,191,experiment,86,←,left,←,0.5148580998647958,True,35,1
NK-M-22M22S1,192,experiment,84,↓,down,↓,0.6259568000677973,True,35,1
NK-M-22M22S1,193,experiment,82,←,right,→,0.5497669000178576,False,35,1
NK-M-22M22S1,194,experiment,97,←,left,←,0.6224869000725448,True,35,1
NK-M-22M22S1,195,experiment,64,↑,up,↑,0.6401122999377549,True,35,1
NK-M-22M22S1,196,experiment,68,↓,down,↓,0.5518962000496686,True,35,1
NK-M-22M22S1,197,experiment,62,↓,down,↓,0.6446887999773026,True,35,1
NK-M-22M22S1,198,experiment,70,↑,up,↑,0.6196854999288917,True,35,1
NK-M-22M22S1,199,experiment,48,→,right,→,0.7067447998560965,True,35,1
NK-M-22M22S1,200,experiment,52,→,right,→,1.2604825000744313,True,35,1
NK-M-22M22S1,201,experiment,87,↑,up,↑,0.5489066999871284,True,35,1
NK-M-22M22S1,202,experiment,79,←,left,←,0.5157713000662625,True,35,1
NK-M-22M22S1,203,experiment,69,↑,up,↑,0.4807206999976188,True,35,1
NK-M-22M22S1,204,experiment,90,↑,up,↑,0.7112228001933545,True,35,1
NK-M-22M22S1,205,experiment,91,←,left,←,0.48399869981221855,True,35,1
NK-M-22M22S1,206,experiment,56,←,left,←,0.5736002998892218,True,35,1
NK-M-22M22S1,207,experiment,105,↑,up,↑,0.5392570998519659,True,35,1
NK-M-22M22S1,208,experiment,80,↓,down,↓,0.6030849001836032,True,35,1
NK-M-22M22S1,209,experiment,78,←,left,←,0.4728395000565797,True,35,1
NK-M-22M22S1,210,experiment,55,←,left,←,0.81914719985798,True,35,1
NK-M-22M22S1,211,experiment,66,→,right,→,0.571866599842906,True,35,1
NK-M-22M22S1,212,experiment,107,↓,down,↓,0.5772979001048952,True,35,1
NK-M-22M22S1,213,experiment,77,←,left,←,0.5204119000118226,True,35,1
NK-M-22M22S1,214,experiment,51,↓,down,↓,0.7781145998742431,True,35,1
NK-M-22M22S1,215,experiment,81,↓,down,↓,0.5516373000573367,True,35,1
NK-M-22M22S1,216,experiment,85,←,left,←,0.5174012000206858,True,35,1
NK-M-22M22S1,217,experiment,83,→,right,→,0.6448917000088841,True,35,1
NK-M-22M22S1,218,experiment,71,→,right,→,0.6348700998350978,True,35,1
NK-M-22M22S1,219,experiment,61,↑,up,↑,0.6370046001393348,True,35,1
NK-M-22M22S1,220,experiment,75,↓,down,↓,0.5380148999392986,True,35,1
NK-M-22M22S1,221,experiment,63,↓,down,↓,0.5838061000686139,True,35,1
NK-M-22M22S1,222,experiment,72,→,right,→,0.5999895001295954,True,35,1
NK-M-22M22S1,223,experiment,92,↑,up,↑,0.8010099001694471,True,35,1
NK-M-22M22S1,224,experiment,93,←,left,←,0.5537785000633448,True,35,1
NK-M-22M22S1,225,experiment,73,↓,down,↓,0.7392448999453336,True,35,1
NK-M-22M22S1,226,experiment,58,↓,down,↓,0.6658351998776197,True,35,1
NK-M-22M22S1,227,experiment,65,←,left,←,0.48987310007214546,True,35,1
NK-M-22M22S1,228,experiment,60,→,right,→,0.8414408001117408,True,35,1
NK-M-22M22S1,229,experiment,49,→,right,→,0.6149680998641998,True,35,1
NK-M-22M22S1,230,training,70,↓,down,↓,0.6221080999821424,True,34,0
NK-M-22M22S1,231,training,100,←,left,←,0.46780169988051057,True,34,1
NK-M-22M22S1,232,experiment,52,↑,up,↑,0.67887940001674,True,34,1
NK-M-22M22S1,233,experiment,63,↓,down,↓,0.5824704999104142,True,34,1
NK-M-22M22S1,234,experiment,57,→,right,→,0.675705400062725,True,34,1
NK-M-22M22S1,235,experiment,84,↓,down,↓,0.5485199999529868,True,34,1
NK-M-22M22S1,236,experiment,65,↓,down,↓,0.5848004999570549,True,34,1
NK-M-22M22S1,237,experiment,51,↑,up,↑,0.6400502000469714,True,34,1
NK-M-22M22S1,238,experiment,73,→,right,→,0.6299322000704706,True,34,1
NK-M-22M22S1,239,experiment,54,→,right,→,0.626654100138694,True,34,1
NK-M-22M22S1,240,experiment,101,←,left,←,0.5199955001007766,True,34,1
NK-M-22M22S1,241,experiment,55,←,left,←,0.7125511998310685,True,34,1
NK-M-22M22S1,242,experiment,76,→,right,→,0.5941189001314342,True,34,1
NK-M-22M22S1,243,experiment,50,↑,up,↑,0.5859467999543995,True,34,1
NK-M-22M22S1,244,experiment,107,←,left,←,0.6220583999529481,True,34,1
NK-M-22M22S1,245,experiment,96,→,right,→,1.9410953999031335,True,34,1
NK-M-22M22S1,246,experiment,64,←,left,←,0.8574052001349628,True,34,1
NK-M-22M22S1,247,experiment,92,←,left,←,0.5920877000316978,True,34,1
NK-M-22M22S1,248,experiment,105,↓,down,↓,0.6130057999398559,True,34,1
NK-M-22M22S1,249,experiment,49,↓,down,↓,0.5881789000704885,True,34,1
NK-M-22M22S1,250,experiment,95,←,left,←,0.6608179998584092,True,34,1
NK-M-22M22S1,251,experiment,70,↑,up,↑,0.6026430001948029,True,34,1
NK-M-22M22S1,252,experiment,93,→,right,→,0.5472748999018222,True,34,1
NK-M-22M22S1,253,experiment,90,↓,down,↓,0.5590692001860589,True,34,1
NK-M-22M22S1,254,experiment,85,↑,up,↑,0.5721803999040276,True,34,1
NK-M-22M22S1,255,experiment,75,↓,down,↓,0.7321019999217242,True,34,1
NK-M-22M22S1,256,experiment,87,←,left,←,0.6092309998348355,True,34,1
NK-M-22M22S1,257,experiment,67,→,right,→,0.6263554999604821,True,34,1
NK-M-22M22S1,258,experiment,74,↓,down,↓,0.5683954001870006,True,34,1
NK-M-22M22S1,259,experiment,78,←,left,←,0.583345300052315,True,34,1
NK-M-22M22S1,260,experiment,88,↓,down,↓,0.6105625000782311,True,34,1
NK-M-22M22S1,261,experiment,79,↑,down,↓,0.9194906998891383,False,34,1
NK-M-22M22S1,262,experiment,53,←,left,←,0.5206727001350373,True,34,1
NK-M-22M22S1,263,experiment,60,↓,down,↓,0.6158699998632073,True,34,1
NK-M-22M22S1,264,experiment,103,↑,up,↑,0.6443034000694752,True,34,1
NK-M-22M22S1,265,experiment,77,↓,down,↓,0.4730485000181943,True,34,1
NK-M-22M22S1,266,experiment,66,↑,up,↑,0.7117417000699788,True,34,1
NK-M-22M22S1,267,experiment,106,←,left,←,0.6555474998895079,True,34,1
NK-M-22M22S1,268,experiment,81,↑,up,↑,0.5618970000650734,True,34,1
NK-M-22M22S1,269,experiment,108,↑,up,↑,0.9673849998507649,True,34,1
NK-M-22M22S1,270,experiment,97,→,right,→,0.6399611001834273,True,34,1
NK-M-22M22S1,271,experiment,48,↓,down,↓,0.7985060000792146,True,34,1
NK-M-22M22S1,272,experiment,82,→,right,→,0.6503175999969244,True,34,1
NK-M-22M22S1,273,experiment,71,↑,up,↑,0.6003902000375092,True,34,1
NK-M-22M22S1,274,experiment,58,↑,up,↑,0.6369511999655515,True,34,1
NK-M-22M22S1,275,experiment,102,←,left,←,0.5289312000386417,True,34,1
NK-M-22M22S1,276,experiment,100,←,left,←,1.394263399997726,True,34,1
NK-M-22M22S1,277,experiment,99,↑,up,↑,1.0815653998870403,True,34,1
NK-M-22M22S1,278,experiment,80,↑,up,↑,0.6430657000746578,True,34,1
NK-M-22M22S1,279,experiment,72,↑,up,↑,0.6493738000281155,True,34,1
NK-M-22M22S1,280,experiment,68,↓,down,↓,0.664155300008133,True,34,1
NK-M-22M22S1,281,experiment,61,↑,up,↑,0.6489872999954969,True,34,1
NK-M-22M22S1,282,experiment,83,→,right,→,0.6430357999633998,True,34,1
NK-M-22M22S1,283,experiment,104,←,left,←,0.5662760999985039,True,34,1
NK-M-22M22S1,284,experiment,89,↓,down,↓,0.6658075000159442,True,34,1
NK-M-22M22S1,285,experiment,98,→,right,→,1.1019639999140054,True,34,1
NK-M-22M22S1,286,experiment,94,↓,down,↓,0.658272499917075,True,34,1
NK-M-22M22S1,287,experiment,56,→,right,→,0.7971624000929296,True,34,1
NK-M-22M22S1,288,experiment,69,→,right,→,0.9819215000607073,True,34,1
NK-M-22M22S1,289,experiment,86,←,left,←,0.5376212999690324,True,34,1
NK-M-22M22S1,290,experiment,91,←,left,←,0.99758330010809,True,34,1
NK-M-22M22S1,291,experiment,62,→,right,→,0.8805654998868704,True,34,1
NK-M-22M22S1,292,experiment,59,↑,up,↑,0.6172686999198049,True,34,1
NK-M-22M22S1,293,training,83,↑,up,↑,0.5462038000114262,True,33,0
NK-M-22M22S1,294,training,102,←,left,←,0.6099747000262141,True,33,1
NK-M-22M22S1,295,experiment,69,↑,up,↑,0.5865527000278234,True,33,1
NK-M-22M22S1,296,experiment,102,↓,down,↓,0.6486653001047671,True,33,1
NK-M-22M22S1,297,experiment,74,↓,down,↓,0.5737066001165658,True,33,1
NK-M-22M22S1,298,experiment,100,←,left,←,0.5411296000238508,True,33,1
NK-M-22M22S1,299,experiment,73,↓,down,↓,0.6229270999319851,True,33,1
NK-M-22M22S1,300,experiment,86,←,left,←,0.4731021001935005,True,33,1
NK-M-22M22S1,301,experiment,79,→,right,→,0.5793667000252753,True,33,1
NK-M-22M22S1,302,experiment,78,→,right,→,0.6180674000643194,True,33,1
NK-M-22M22S1,303,experiment,75,←,left,←,0.5362090999260545,True,33,1
NK-M-22M22S1,304,experiment,97,↑,up,↑,0.618585699936375,True,33,1
NK-M-22M22S1,305,experiment,83,←,left,←,0.5495155998505652,True,33,1
NK-M-22M22S1,306,experiment,85,↓,down,↓,0.6350169000215828,True,33,1
NK-M-22M22S1,307,experiment,70,→,right,→,0.5782141999807209,True,33,1
NK-M-22M22S1,308,experiment,52,←,left,←,0.5214714000467211,True,33,1
NK-M-22M22S1,309,experiment,65,→,right,→,0.614566600183025,True,33,1
NK-M-22M22S1,310,experiment,56,←,left,←,1.3549492000602186,True,33,1
NK-M-22M22S1,311,experiment,64,→,right,→,0.6708637999836355,True,33,1
NK-M-22M22S1,312,experiment,57,→,right,→,0.6569194998592138,True,33,1
NK-M-22M22S1,313,experiment,92,→,right,→,0.48762749996967614,True,33,1
NK-M-22M22S1,314,experiment,84,→,right,→,0.5038290000520647,True,33,1
NK-M-22M22S1,315,experiment,71,↑,up,↑,0.636164000025019,True,33,1
NK-M-22M22S1,316,experiment,82,↑,up,↑,0.5669257000554353,True,33,1
NK-M-22M22S1,317,experiment,80,↓,down,↓,0.629471099935472,True,33,1
NK-M-22M22S1,318,experiment,49,→,right,→,1.0194401000626385,True,33,1
NK-M-22M22S1,319,experiment,94,↓,down,↓,0.6830303999595344,True,33,1
NK-M-22M22S1,320,experiment,55,↓,down,↓,0.7652616000268608,True,33,1
NK-M-22M22S1,321,experiment,105,←,left,←,0.9951287999283522,True,33,1
NK-M-22M22S1,322,experiment,53,↓,down,↓,0.6414491999894381,True,33,1
NK-M-22M22S1,323,experiment,59,↑,up,↑,0.5959719000384212,True,33,1
NK-M-22M22S1,324,experiment,103,↓,down,↓,0.6332191000692546,True,33,1
NK-M-22M22S1,325,experiment,106,↓,down,↓,0.6444487001281232,True,33,1
NK-M-22M22S1,326,experiment,48,→,right,→,0.6982764999847859,True,33,1
NK-M-22M22S1,327,experiment,54,↓,down,↓,0.5880277999676764,True,33,1
NK-M-22M22S1,328,experiment,88,↓,down,↓,0.63117800001055,True,33,1
NK-M-22M22S1,329,experiment,108,↑,up,↑,0.6334643999580294,True,33,1
NK-M-22M22S1,330,experiment,96,↓,down,↓,0.551911500049755,True,33,1
NK-M-22M22S1,331,experiment,60,→,right,→,0.5576699001248926,True,33,1
NK-M-22M22S1,332,experiment,90,→,right,→,0.6730756999459118,True,33,1
NK-M-22M22S1,333,experiment,58,→,right,→,0.666355200111866,True,33,1
NK-M-22M22S1,334,experiment,76,↑,up,↑,0.5665442999452353,True,33,1
NK-M-22M22S1,335,experiment,50,↑,up,↑,0.6064781998284161,True,33,1
NK-M-22M22S1,336,experiment,62,↑,up,↑,0.47340449993498623,True,33,1
NK-M-22M22S1,337,experiment,67,↓,down,↓,0.8158911000937223,True,33,1
NK-M-22M22S1,338,experiment,68,→,right,→,0.7441718999762088,True,33,1
NK-M-22M22S1,339,experiment,87,←,left,←,0.7891021999530494,True,33,1
NK-M-22M22S1,340,experiment,101,↓,down,↓,0.5636851000599563,True,33,1
NK-M-22M22S1,341,experiment,51,↑,up,↑,0.5714368000626564,True,33,1
NK-M-22M22S1,342,experiment,66,→,right,→,0.38405560003593564,True,33,1
NK-M-22M22S1,343,experiment,99,←,right,→,0.44595269998535514,False,33,0
NK-M-22M22S1,344,experiment,61,↑,up,↑,0.6707709999755025,True,33,1
NK-M-22M22S1,345,experiment,104,→,left,←,0.6888360001612455,False,33,1
NK-M-22M22S1,346,experiment,93,←,left,←,0.6137166998814791,True,33,1
NK-M-22M22S1,347,experiment,81,↓,down,↓,0.5296668000519276,True,33,1
NK-M-22M22S1,348,experiment,95,↑,up,↑,0.5327516999095678,True,33,1
NK-M-22M22S1,349,experiment,89,→,right,→,0.5772859000135213,True,33,1
NK-M-22M22S1,350,experiment,91,←,left,←,0.6118861001450568,True,33,1
NK-M-22M22S1,351,experiment,72,↑,up,↑,0.5395644998643547,True,33,1
NK-M-22M22S1,352,experiment,77,↑,up,↑,0.6674742999020964,True,33,1
NK-M-22M22S1,353,experiment,107,↑,up,↑,0.6770110998768359,True,33,1
NK-M-22M22S1,354,experiment,98,→,right,→,0.696799100143835,True,33,1
NK-M-22M22S1,355,experiment,63,→,right,→,0.7516981000080705,True,33,1
NK-M-22M22S1,356,training,72,↓,down,↓,0.5851946000475436,True,32,0
NK-M-22M22S1,357,training,78,↑,up,↑,0.7516803999897093,True,32,1
NK-M-22M22S1,358,experiment,97,←,left,←,0.5529093998484313,True,32,1
NK-M-22M22S1,359,experiment,67,←,left,←,0.5324926001485437,True,32,1
NK-M-22M22S1,360,experiment,91,←,left,←,0.5285243999678642,True,32,1
NK-M-22M22S1,361,experiment,55,→,right,→,0.6650112001225352,True,32,1
NK-M-22M22S1,362,experiment,79,↓,down,↓,0.5074887999799103,True,32,1
NK-M-22M22S1,363,experiment,81,→,right,→,0.4680509997997433,True,32,1
NK-M-22M22S1,364,experiment,64,↓,down,↓,0.7638625998515636,True,32,1
NK-M-22M22S1,365,experiment,82,→,right,→,0.5853862999938428,True,32,1
NK-M-22M22S1,366,experiment,49,↑,up,↑,0.6016150999348611,True,32,1
NK-M-22M22S1,367,experiment,63,↓,down,↓,0.6361672999337316,True,32,1
NK-M-22M22S1,368,experiment,93,←,left,←,0.44428970012813807,True,32,1
NK-M-22M22S1,369,experiment,99,→,right,→,0.46437070006504655,True,32,1
NK-M-22M22S1,370,experiment,68,→,left,←,0.7667042000684887,False,32,1
NK-M-22M22S1,371,experiment,78,↑,up,↑,0.5258225998841226,True,32,1
NK-M-22M22S1,372,experiment,88,↑,up,↑,0.49903239984996617,True,32,1
NK-M-22M22S1,373,experiment,103,←,left,←,0.6445319999475032,True,32,1
NK-M-22M22S1,374,experiment,102,→,right,→,0.520686199888587,True,32,1
NK-M-22M22S1,375,experiment,86,→,right,→,0.6551309998612851,True,32,1
NK-M-22M22S1,376,experiment,50,↑,up,↑,0.5877686000894755,True,32,1
NK-M-22M22S1,377,experiment,101,←,left,←,0.5220466000027955,True,32,1
NK-M-22M22S1,378,experiment,96,→,right,→,0.4848380000330508,True,32,1
NK-M-22M22S1,379,experiment,92,←,left,←,0.5705173001624644,True,32,1
NK-M-22M22S1,380,experiment,95,→,right,→,0.6759279000107199,True,32,1
NK-M-22M22S1,381,experiment,87,↓,down,↓,0.5635820000898093,True,32,1
NK-M-22M22S1,382,experiment,80,↑,up,↑,0.714169800048694,True,32,1
NK-M-22M22S1,383,experiment,57,→,left,←,0.5859993998892605,False,32,1
NK-M-22M22S1,384,experiment,77,↑,up,↑,0.600712199928239,True,32,1
NK-M-22M22S1,385,experiment,54,←,left,←,0.9106493000872433,True,32,1
NK-M-22M22S1,386,experiment,75,↓,down,↓,0.592582100071013,True,32,1
NK-M-22M22S1,387,experiment,71,←,left,←,0.5132377999834716,True,32,1
NK-M-22M22S1,388,experiment,56,→,right,→,0.4737203000113368,True,32,1
NK-M-22M22S1,389,experiment,48,↑,up,↑,0.5906312000006437,True,32,1
NK-M-22M22S1,390,experiment,83,↓,down,↓,0.594774599885568,True,32,1
NK-M-22M22S1,391,experiment,73,↑,up,↑,0.6185767999850214,True,32,1
NK-M-22M22S1,392,experiment,60,↓,down,↓,0.6296445999760181,True,32,1
NK-M-22M22S1,393,experiment,84,↑,up,↑,0.456555699929595,True,32,1
NK-M-22M22S1,394,experiment,59,→,right,→,0.5540371001698077,True,32,1
NK-M-22M22S1,395,experiment,106,↓,down,↓,0.6082226999569684,True,32,1
NK-M-22M22S1,396,experiment,66,←,left,←,0.5777648999355733,True,32,1
NK-M-22M22S1,397,experiment,98,↓,down,↓,0.5615650999825448,True,32,1
NK-M-22M22S1,398,experiment,90,↑,up,↑,0.49299279996193945,True,32,1
NK-M-22M22S1,399,experiment,107,↓,down,↓,0.46953370003029704,True,32,1
NK-M-22M22S1,400,experiment,72,↓,down,↓,0.7705145000945777,True,32,1
NK-M-22M22S1,401,experiment,105,↓,down,↓,0.7124512000009418,True,32,1
NK-M-22M22S1,402,experiment,69,↓,down,↓,0.7407618998549879,True,32,1
NK-M-22M22S1,403,experiment,61,←,left,←,0.7705731000751257,True,32,1
NK-M-22M22S1,404,experiment,100,→,right,→,0.5463549001142383,True,32,1
NK-M-22M22S1,405,experiment,70,←,left,←,1.2686727000400424,True,32,1
NK-M-22M22S1,406,experiment,94,→,right,→,0.5783432999160141,True,32,1
NK-M-22M22S1,407,experiment,51,↑,up,↑,0.6340570999309421,True,32,1
NK-M-22M22S1,408,experiment,76,→,left,←,0.7192669999785721,False,32,1
NK-M-22M22S1,409,experiment,53,↓,up,↑,1.200587600003928,False,32,1
NK-M-22M22S1,410,experiment,74,↓,down,↓,0.671436500037089,True,32,1
NK-M-22M22S1,411,experiment,58,↓,down,↓,0.7611441998742521,True,32,1
NK-M-22M22S1,412,experiment,108,↓,down,↓,0.5746297999285161,True,32,1
NK-M-22M22S1,413,experiment,89,↓,down,↓,0.8576791998930275,True,32,1
NK-M-22M22S1,414,experiment,62,←,left,←,0.7222237999085337,True,32,1
NK-M-22M22S1,415,experiment,65,↑,up,↑,0.7675400997977704,True,32,1
NK-M-22M22S1,416,experiment,52,↓,down,↓,0.5752421000506729,True,32,1
NK-M-22M22S1,417,experiment,85,←,left,←,0.5555577001068741,True,32,1
NK-M-22M22S1,418,experiment,104,→,right,→,0.6423210999928415,True,32,1
NK-M-22M22S1,419,training,53,→,right,→,0.5217887000180781,True,31,0
NK-M-22M22S1,420,training,92,↓,down,↓,0.5822620000690222,True,31,1
NK-M-22M22S1,421,experiment,65,↓,down,↓,0.4966727998107672,True,31,1
NK-M-22M22S1,422,experiment,71,→,right,→,0.5086217999923974,True,31,1
NK-M-22M22S1,423,experiment,66,↑,up,↑,0.6262866000179201,True,31,1
NK-M-22M22S1,424,experiment,76,↑,up,↑,0.5993988001719117,True,31,1
NK-M-22M22S1,425,experiment,83,↑,up,↑,0.49956460017710924,True,31,1
NK-M-22M22S1,426,experiment,103,→,right,→,0.5651203999295831,True,31,1
NK-M-22M22S1,427,experiment,105,→,right,→,0.4749706999864429,True,31,1
NK-M-22M22S1,428,experiment,96,↑,up,↑,0.5594148000236601,True,31,1
NK-M-22M22S1,429,experiment,63,←,left,←,0.5880557000637054,True,31,1
NK-M-22M22S1,430,experiment,108,↓,down,↓,0.5924579000566155,True,31,1
NK-M-22M22S1,431,experiment,104,↓,down,↓,0.733386900043115,True,31,1
NK-M-22M22S1,432,experiment,88,↓,up,↑,1.7864845001604408,False,31,1
NK-M-22M22S1,433,experiment,106,←,left,←,0.5352789000608027,True,31,1
NK-M-22M22S1,434,experiment,100,↓,down,↓,0.6243441998958588,True,31,1
NK-M-22M22S1,435,experiment,87,→,right,→,0.5462132000830024,True,31,1
NK-M-22M22S1,436,experiment,81,↓,down,↓,0.5845997999422252,True,31,1
NK-M-22M22S1,437,experiment,59,←,left,←,0.6055437999311835,True,31,1
NK-M-22M22S1,438,experiment,62,←,left,←,0.5282481999602169,True,31,1
NK-M-22M22S1,439,experiment,74,→,right,→,0.442545099882409,True,31,1
NK-M-22M22S1,440,experiment,97,↓,down,↓,0.6641965999733657,True,31,1
NK-M-22M22S1,441,experiment,95,↑,up,↑,0.597368799848482,True,31,1
NK-M-22M22S1,442,experiment,85,→,right,→,0.5527349000331014,True,31,1
NK-M-22M22S1,443,experiment,51,↑,up,↑,0.6415452999062836,True,31,1
NK-M-22M22S1,444,experiment,107,→,right,→,0.5641548000276089,True,31,1
NK-M-22M22S1,445,experiment,78,→,right,→,0.4593281000852585,True,31,1
NK-M-22M22S1,446,experiment,91,→,right,→,0.4901819999795407,True,31,1
NK-M-22M22S1,447,experiment,55,↓,down,↓,0.6598475000355393,True,31,1
NK-M-22M22S1,448,experiment,98,↑,up,↑,0.5845325998961926,True,31,1
NK-M-22M22S1,449,experiment,80,→,right,→,0.4944522001314908,True,31,1
NK-M-22M22S1,450,experiment,99,→,right,→,0.5131228999234736,True,31,1
NK-M-22M22S1,451,experiment,67,↓,down,↓,0.5982546999584883,True,31,1
NK-M-22M22S1,452,experiment,86,↑,up,↑,0.5371575001627207,True,31,1
NK-M-22M22S1,453,experiment,52,↑,up,↑,0.4899897000286728,True,31,1
NK-M-22M22S1,454,experiment,69,→,right,→,0.4633780000731349,True,31,1
NK-M-22M22S1,455,experiment,60,←,left,←,0.5363233999814838,True,31,1
NK-M-22M22S1,456,experiment,93,↑,up,↑,0.5077451998367906,True,31,1
NK-M-22M22S1,457,experiment,101,↑,up,↑,0.6855339000467211,True,31,1
NK-M-22M22S1,458,experiment,57,←,left,←,0.5509119001217186,True,31,1
NK-M-22M22S1,459,experiment,92,↓,down,↓,0.649802700150758,True,31,1
NK-M-22M22S1,460,experiment,64,←,left,←,0.4349279999732971,True,31,1
NK-M-22M22S1,461,experiment,53,←,right,→,0.37632540008053184,False,31,1
NK-M-22M22S1,462,experiment,102,→,left,←,0.8051972000394017,False,31,0
NK-M-22M22S1,463,experiment,54,↑,up,↑,0.6349767001811415,True,31,1
NK-M-22M22S1,464,experiment,82,←,left,←,0.7418728999327868,True,31,1
NK-M-22M22S1,465,experiment,90,←,left,←,0.5537066999822855,True,31,1
NK-M-22M22S1,466,experiment,61,←,left,←,0.7114595000166446,True,31,1
NK-M-22M22S1,467,experiment,79,↑,up,↑,0.576201899908483,True,31,1
NK-M-22M22S1,468,experiment,49,↓,up,↑,0.80870550009422,False,31,1
NK-M-22M22S1,469,experiment,68,→,right,→,0.584131799871102,True,31,1
NK-M-22M22S1,470,experiment,48,↓,left,←,0.8080900001805276,False,31,1
NK-M-22M22S1,471,experiment,75,↑,up,↑,0.5425919000990689,True,31,1
NK-M-22M22S1,472,experiment,89,↓,down,↓,0.6827680999413133,True,31,1
NK-M-22M22S1,473,experiment,58,↓,down,↓,0.6118252999149263,True,31,1
NK-M-22M22S1,474,experiment,50,↑,up,↑,0.6268154000863433,True,31,1
NK-M-22M22S1,475,experiment,77,↓,down,↓,0.559612600132823,True,31,1
NK-M-22M22S1,476,experiment,72,↑,up,↑,0.5370906998869032,True,31,1
NK-M-22M22S1,477,experiment,94,↓,down,↓,0.4921184000559151,True,31,1
NK-M-22M22S1,478,experiment,70,→,right,→,0.5448483999352902,True,31,1
NK-M-22M22S1,479,experiment,56,→,right,→,0.80843670014292,True,31,1
NK-M-22M22S1,480,experiment,73,→,right,→,0.6315211001783609,True,31,1
NK-M-22M22S1,481,experiment,84,↑,up,↑,0.5698981999885291,True,31,1
NK-M-22M22S1,482,training,64,→,right,→,0.7083279001526535,True,30,0
NK-M-22M22S1,483,training,54,↓,down,↓,0.6536071000155061,True,30,1
NK-M-22M22S1,484,experiment,79,↑,up,↑,0.4332300000824034,True,30,1
NK-M-22M22S1,485,experiment,51,←,left,←,0.5103760999627411,True,30,1
NK-M-22M22S1,486,experiment,99,→,left,←,0.5608111000619829,False,30,1
NK-M-22M22S1,487,experiment,86,→,right,→,0.45369770005345345,True,30,1
NK-M-22M22S1,488,experiment,82,↑,up,↑,0.4244753001257777,True,30,1
NK-M-22M22S1,489,experiment,81,↓,left,←,0.5872742000501603,False,30,1
NK-M-22M22S1,490,experiment,62,↓,down,↓,0.6710193001199514,True,30,1
NK-M-22M22S1,491,experiment,53,↓,down,↓,0.8344789000693709,True,30,1
NK-M-22M22S1,492,experiment,95,←,left,←,0.4492928998079151,True,30,1
NK-M-22M22S1,493,experiment,83,←,left,←,0.563382999971509,True,30,1
NK-M-22M22S1,494,experiment,93,↓,down,↓,0.6135458000935614,True,30,1
NK-M-22M22S1,495,experiment,101,↓,down,↓,0.7867968999780715,True,30,1
NK-M-22M22S1,496,experiment,68,←,left,←,0.5643486001063138,True,30,1
NK-M-22M22S1,497,experiment,75,→,right,→,0.5404002000577748,True,30,1
NK-M-22M22S1,498,experiment,87,↑,up,↑,0.6094031999818981,True,30,1
NK-M-22M22S1,499,experiment,56,←,left,←,0.5028694998472929,True,30,1
NK-M-22M22S1,500,experiment,67,↑,up,↑,0.5395788999740034,True,30,1
NK-M-22M22S1,501,experiment,54,↓,down,↓,0.7396619999781251,True,30,1
NK-M-22M22S1,502,experiment,64,↑,up,↑,1.272457200102508,True,30,1
NK-M-22M22S1,503,experiment,55,←,left,←,0.7067344000097364,True,30,1
NK-M-22M22S1,504,experiment,80,↑,up,↑,0.5555656000506133,True,30,1
NK-M-22M22S1,505,experiment,74,↑,up,↑,0.47621340001933277,True,30,1
NK-M-22M22S1,506,experiment,88,↑,up,↑,0.5315521999727935,True,30,1
NK-M-22M22S1,507,experiment,107,↑,left,←,1.1782671001274139,False,30,1
NK-M-22M22S1,508,experiment,105,→,right,→,0.6799397000577301,True,30,1
NK-M-22M22S1,509,experiment,104,←,left,←,0.5136721001472324,True,30,1
NK-M-22M22S1,510,experiment,102,↓,down,↓,0.7626261000987142,True,30,1
NK-M-22M22S1,511,experiment,48,↓,up,↑,1.252003600122407,False,30,1
NK-M-22M22S1,512,experiment,65,↓,down,↓,0.5480656998697668,True,30,1
NK-M-22M22S1,513,experiment,58,↑,up,↑,0.6184396999888122,True,30,1
NK-M-22M22S1,514,experiment,61,↓,no_key,no_letter,-1.0,False,30,1
NK-M-22M22S1,515,experiment,106,→,right,→,0.6046049001161009,True,30,1
NK-M-22M22S1,516,experiment,98,→,right,→,0.7318716000299901,True,30,1
NK-M-22M22S1,517,experiment,49,↑,up,↑,0.7822889999952167,True,30,1
NK-M-22M22S1,518,experiment,103,↑,up,↑,0.5637288000434637,True,30,1
NK-M-22M22S1,519,experiment,63,↑,up,↑,1.103837599977851,True,30,1
NK-M-22M22S1,520,experiment,71,↑,up,↑,0.603910299949348,True,30,1
NK-M-22M22S1,521,experiment,57,↓,down,↓,0.7768571998458356,True,30,1
NK-M-22M22S1,522,experiment,94,↓,down,↓,0.6662561998236924,True,30,1
NK-M-22M22S1,523,experiment,52,→,right,→,0.6297224999871105,True,30,1
NK-M-22M22S1,524,experiment,96,→,right,→,0.46036879997700453,True,30,1
NK-M-22M22S1,525,experiment,59,↑,up,↑,0.6622044998221099,True,30,1
NK-M-22M22S1,526,experiment,73,→,right,→,0.6192566000390798,True,30,1
NK-M-22M22S1,527,experiment,60,↑,up,↑,0.6943718001712114,True,30,1
NK-M-22M22S1,528,experiment,90,←,left,←,0.7963928000535816,True,30,1
NK-M-22M22S1,529,experiment,77,←,right,→,0.6667815998662263,False,30,1
NK-M-22M22S1,530,experiment,100,↓,down,↓,0.7021752998698503,True,30,1
NK-M-22M22S1,531,experiment,92,←,left,←,0.6439862998668104,True,30,1
NK-M-22M22S1,532,experiment,66,↓,left,←,1.1874893999192864,False,30,1
NK-M-22M22S1,533,experiment,84,↓,down,↓,0.6478093999903649,True,30,1
NK-M-22M22S1,534,experiment,97,↑,up,↑,0.6292250999249518,True,30,1
NK-M-22M22S1,535,experiment,78,←,left,←,0.5535436000209302,True,30,1
NK-M-22M22S1,536,experiment,72,←,left,←,0.5873293001204729,True,30,1
NK-M-22M22S1,537,experiment,76,→,left,←,0.4899973999708891,False,30,1
NK-M-22M22S1,538,experiment,69,↓,down,↓,0.7033907999284565,True,30,1
NK-M-22M22S1,539,experiment,85,↓,down,↓,0.870490700006485,True,30,1
NK-M-22M22S1,540,experiment,70,↓,down,↓,0.6363425999879837,True,30,1
NK-M-22M22S1,541,experiment,108,←,left,←,0.7025340001564473,True,30,1
NK-M-22M22S1,542,experiment,91,←,left,←,0.4998796998988837,True,30,1
NK-M-22M22S1,543,experiment,50,↓,left,←,0.8709932998754084,False,30,1
NK-M-22M22S1,544,experiment,89,→,right,→,0.8622364001348615,True,30,1
NK-M-22M22S1,545,training,64,→,right,→,0.6479483000002801,True,30,0
NK-M-22M22S1,546,training,80,↑,up,↑,0.5151264001615345,True,30,1
NK-M-22M22S1,547,experiment,107,↓,down,↓,0.5704946001060307,True,30,1
NK-M-22M22S1,548,experiment,79,↑,up,↑,0.6250554998405278,True,30,1
NK-M-22M22S1,549,experiment,91,→,right,→,1.0492887999862432,True,30,1
NK-M-22M22S1,550,experiment,83,→,right,→,1.0595651001203805,True,30,1
NK-M-22M22S1,551,experiment,94,→,right,→,0.6332822998519987,True,30,1
NK-M-22M22S1,552,experiment,64,↓,down,↓,0.6025249001104385,True,30,1
NK-M-22M22S1,553,experiment,51,↑,up,↑,0.6411973000504076,True,30,1
NK-M-22M22S1,554,experiment,89,↑,up,↑,0.6095636999234557,True,30,1
NK-M-22M22S1,555,experiment,59,←,left,←,0.6132275001145899,True,30,1
NK-M-22M22S1,556,experiment,100,→,right,→,0.5870354999788105,True,30,1
NK-M-22M22S1,557,experiment,70,→,right,→,0.5720357000827789,True,30,1
NK-M-22M22S1,558,experiment,72,→,right,→,0.5648060999810696,True,30,1
NK-M-22M22S1,559,experiment,74,→,right,→,0.5093144001439214,True,30,1
NK-M-22M22S1,560,experiment,87,←,left,←,0.5556580000557005,True,30,1
NK-M-22M22S1,561,experiment,62,↓,down,↓,1.1444065000396222,True,30,1
NK-M-22M22S1,562,experiment,77,→,right,→,0.49672940000891685,True,30,1
NK-M-22M22S1,563,experiment,86,↓,down,↓,0.6156933999154717,True,30,1
NK-M-22M22S1,564,experiment,103,↓,down,↓,0.6684393999166787,True,30,1
NK-M-22M22S1,565,experiment,49,→,right,→,0.5852059000171721,True,30,1
NK-M-22M22S1,566,experiment,69,←,left,←,0.6105796000920236,True,30,1
NK-M-22M22S1,567,experiment,52,↑,up,↑,0.5847106000874192,True,30,1
NK-M-22M22S1,568,experiment,76,↓,down,↓,0.6397738000378013,True,30,1
NK-M-22M22S1,569,experiment,84,→,right,→,0.5297457999549806,True,30,1
NK-M-22M22S1,570,experiment,57,→,right,→,1.1615460999310017,True,30,1
NK-M-22M22S1,571,experiment,106,←,left,←,0.4319823000114411,True,30,1
NK-M-22M22S1,572,experiment,98,↓,down,↓,0.6132153999060392,True,30,1
NK-M-22M22S1,573,experiment,80,→,left,←,0.625524900155142,False,30,1
NK-M-22M22S1,574,experiment,66,↓,down,↓,0.5540907999966294,True,30,1
NK-M-22M22S1,575,experiment,93,↑,up,↑,0.652748400112614,True,30,1
NK-M-22M22S1,576,experiment,65,↓,down,↓,0.6048079000320286,True,30,1
NK-M-22M22S1,577,experiment,54,↑,up,↑,0.6182399999815971,True,30,1
NK-M-22M22S1,578,experiment,82,↑,up,↑,1.9019881000276655,True,30,1
NK-M-22M22S1,579,experiment,67,↑,up,↑,0.6272662999108434,True,30,1
NK-M-22M22S1,580,experiment,78,←,left,←,0.5279920999892056,True,30,1
NK-M-22M22S1,581,experiment,96,↓,down,↓,0.5867039998993278,True,30,1
NK-M-22M22S1,582,experiment,55,↓,down,↓,0.6645388000179082,True,30,1
NK-M-22M22S1,583,experiment,85,↑,up,↑,0.6255263998173177,True,30,1
NK-M-22M22S1,584,experiment,102,↓,down,↓,0.5900154002010822,True,30,1
NK-M-22M22S1,585,experiment,48,→,right,→,0.6623398000374436,True,30,1
NK-M-22M22S1,586,experiment,60,↑,up,↑,0.6955532999709249,True,30,1
NK-M-22M22S1,587,experiment,56,←,left,←,0.5846748000476509,True,30,1
NK-M-22M22S1,588,experiment,90,↓,down,↓,0.4830187000334263,True,30,1
NK-M-22M22S1,589,experiment,101,↑,left,←,0.3675566997844726,False,30,1
NK-M-22M22S1,590,experiment,71,↑,up,↑,1.0547941999975592,True,30,0
NK-M-22M22S1,591,experiment,61,↓,down,↓,0.7519606000278145,True,30,1
NK-M-22M22S1,592,experiment,73,←,left,←,0.6334202000871301,True,30,1
NK-M-22M22S1,593,experiment,75,→,right,→,0.5825942999217659,True,30,1
NK-M-22M22S1,594,experiment,105,↓,down,↓,0.6281640999950469,True,30,1
NK-M-22M22S1,595,experiment,92,↑,up,↑,0.6921183001250029,True,30,1
NK-M-22M22S1,596,experiment,68,↓,down,↓,0.6732345998752862,True,30,1
NK-M-22M22S1,597,experiment,108,←,left,←,0.562037399969995,True,30,1
NK-M-22M22S1,598,experiment,97,↑,up,↑,0.707266400102526,True,30,1
NK-M-22M22S1,599,experiment,58,→,right,→,1.3633707000408322,True,30,1
NK-M-22M22S1,600,experiment,104,↓,down,↓,0.7856405999045819,True,30,1
NK-M-22M22S1,601,experiment,88,↓,down,↓,1.076414099894464,True,30,1
NK-M-22M22S1,602,experiment,81,→,right,→,0.6780091999098659,True,30,1
NK-M-22M22S1,603,experiment,99,↓,down,↓,0.6340151999611408,True,30,1
NK-M-22M22S1,604,experiment,50,←,right,→,0.8957624000031501,False,30,1
NK-M-22M22S1,605,experiment,63,↓,down,↓,0.6943049998953938,True,30,1
NK-M-22M22S1,606,experiment,53,↓,down,↓,0.6166842000093311,True,30,1
NK-M-22M22S1,607,experiment,95,←,left,←,0.656084000132978,True,30,1
NK-M-22M22S1,608,training,51,←,left,←,0.6436540000140667,True,29,0
NK-M-22M22S1,609,training,101,↑,up,↑,0.6321886000223458,True,29,1
NK-M-22M22S1,610,experiment,69,↑,up,↑,0.5597398998215795,True,29,1
NK-M-22M22S1,611,experiment,91,↑,up,↑,0.4906379000749439,True,29,1
NK-M-22M22S1,612,experiment,64,↑,up,↑,0.5374066000804305,True,29,1
NK-M-22M22S1,613,experiment,51,↓,down,↓,0.6986064000520855,True,29,1
NK-M-22M22S1,614,experiment,101,↑,up,↑,0.5086669998709112,True,29,1
NK-M-22M22S1,615,experiment,100,↓,down,↓,0.5265929000452161,True,29,1
NK-M-22M22S1,616,experiment,86,↓,down,↓,0.5087822999339551,True,29,1
NK-M-22M22S1,617,experiment,106,←,left,←,0.47673250013031065,True,29,1
NK-M-22M22S1,618,experiment,95,→,right,→,0.5380283000413328,True,29,1
NK-M-22M22S1,619,experiment,76,←,left,←,0.530606800224632,True,29,1
NK-M-22M22S1,620,experiment,57,→,right,→,0.5062663001008332,True,29,1
NK-M-22M22S1,621,experiment,52,→,left,←,0.9561032999772578,False,29,1
NK-M-22M22S1,622,experiment,89,↑,up,↑,0.6397341000847518,True,29,1
NK-M-22M22S1,623,experiment,56,↑,up,↑,0.5400495000649244,True,29,1
NK-M-22M22S1,624,experiment,96,↑,up,↑,0.6132592000067234,True,29,1
NK-M-22M22S1,625,experiment,99,↑,up,↑,0.8916384999174625,True,29,1
NK-M-22M22S1,626,experiment,67,↑,up,↑,0.5373563000466675,True,29,1
NK-M-22M22S1,627,experiment,79,→,right,→,0.7853934001177549,True,29,1
NK-M-22M22S1,628,experiment,75,←,left,←,0.5209372998215258,True,29,1
NK-M-22M22S1,629,experiment,66,→,right,→,1.1173946000635624,True,29,1
NK-M-22M22S1,630,experiment,68,↑,no_key,no_letter,-1.0,False,29,1
NK-M-22M22S1,631,experiment,107,↑,up,↑,1.0014341999776661,True,29,1
NK-M-22M22S1,632,experiment,78,←,left,←,0.5991082999389619,True,29,1
NK-M-22M22S1,633,experiment,88,←,left,←,0.5456471999641508,True,29,1
NK-M-22M22S1,634,experiment,61,←,left,←,0.4550902000628412,True,29,1
NK-M-22M22S1,635,experiment,71,↓,down,↓,0.6288786998484284,True,29,1
NK-M-22M22S1,636,experiment,70,→,left,←,0.9240596001036465,False,29,1
NK-M-22M22S1,637,experiment,63,←,left,←,0.5697775001171976,True,29,1
NK-M-22M22S1,638,experiment,84,←,left,←,0.6949666999280453,True,29,1
NK-M-22M22S1,639,experiment,62,↓,down,↓,0.8215905998367816,True,29,1
NK-M-22M22S1,640,experiment,72,↑,up,↑,0.6446442001033574,True,29,1
NK-M-22M22S1,641,experiment,59,←,left,←,0.6947904999833554,True,29,1
NK-M-22M22S1,642,experiment,65,←,left,←,0.7174037999939173,True,29,1
NK-M-22M22S1,643,experiment,104,→,right,→,0.877495100023225,True,29,1
NK-M-22M22S1,644,experiment,74,↓,down,↓,0.7456685998477042,True,29,1
NK-M-22M22S1,645,experiment,108,↑,up,↑,0.711347300093621,True,29,1
NK-M-22M22S1,646,experiment,49,→,left,←,1.3544713999144733,False,29,1
NK-M-22M22S1,647,experiment,55,→,right,→,0.7376790000125766,True,29,1
NK-M-22M22S1,648,experiment,77,↑,up,↑,0.7138116999994963,True,29,1
NK-M-22M22S1,649,experiment,97,→,right,→,0.5807185999583453,True,29,1
NK-M-22M22S1,650,experiment,48,↑,up,↑,0.7171429998707026,True,29,1
NK-M-22M22S1,651,experiment,90,←,left,←,0.5548368999734521,True,29,1
NK-M-22M22S1,652,experiment,53,↑,up,↑,0.5060081998817623,True,29,1
NK-M-22M22S1,653,experiment,93,→,right,→,0.7263110999483615,True,29,1
NK-M-22M22S1,654,experiment,98,→,right,→,1.640516199870035,True,29,1
NK-M-22M22S1,655,experiment,60,←,left,←,0.6584073000121862,True,29,1
NK-M-22M22S1,656,experiment,103,↑,up,↑,0.589289000025019,True,29,1
NK-M-22M22S1,657,experiment,83,↑,up,↑,0.8417789000086486,True,29,1
NK-M-22M22S1,658,experiment,87,↑,up,↑,0.5948491999879479,True,29,1
NK-M-22M22S1,659,experiment,50,←,left,←,0.8100062001030892,True,29,1
NK-M-22M22S1,660,experiment,81,↓,down,↓,0.7023934000171721,True,29,1
NK-M-22M22S1,661,experiment,54,←,left,←,0.7921687997877598,True,29,1
NK-M-22M22S1,662,experiment,73,↑,up,↑,0.5519844999071211,True,29,1
NK-M-22M22S1,663,experiment,92,←,left,←,0.5870147999376059,True,29,1
NK-M-22M22S1,664,experiment,82,→,left,←,1.0807025998365134,False,29,1
NK-M-22M22S1,665,experiment,58,↑,up,↑,0.8970453999936581,True,29,1
NK-M-22M22S1,666,experiment,85,↓,no_key,no_letter,-1.0,False,29,1
NK-M-22M22S1,667,experiment,94,→,right,→,0.5802529000211507,True,29,1
NK-M-22M22S1,668,experiment,80,↑,up,↑,0.5859748998191208,True,29,1
NK-M-22M22S1,669,experiment,105,→,right,→,0.5432984000071883,True,29,1
NK-M-22M22S1,670,experiment,102,↑,up,↑,0.50343899987638,True,29,1
NK-M-22M22S1,671,training,68,←,left,←,0.5115232998505235,True,28,0
NK-M-22M22S1,672,training,100,↑,up,↑,0.6020338998641819,True,28,1
NK-M-22M22S1,673,experiment,80,↑,up,↑,0.5272253002040088,True,28,1
NK-M-22M22S1,674,experiment,98,↑,up,↑,0.5685314999427646,True,28,1
NK-M-22M22S1,675,experiment,55,←,left,←,0.5679248000960797,True,28,1
NK-M-22M22S1,676,experiment,65,→,right,→,0.43549359985627234,True,28,1
NK-M-22M22S1,677,experiment,88,←,right,→,0.44423380005173385,False,28,1
NK-M-22M22S1,678,experiment,77,←,left,←,0.5364540999289602,True,28,1
NK-M-22M22S1,679,experiment,93,←,left,←,0.42765930015593767,True,28,1
NK-M-22M22S1,680,experiment,89,→,right,→,0.42095089983195066,True,28,1
NK-M-22M22S1,681,experiment,69,↓,down,↓,0.6924704001285136,True,28,1
NK-M-22M22S1,682,experiment,54,←,left,←,0.47850329987704754,True,28,1
NK-M-22M22S1,683,experiment,94,←,left,←,0.46811380004510283,True,28,1
NK-M-22M22S1,684,experiment,57,↑,up,↑,0.526119900168851,True,28,1
NK-M-22M22S1,685,experiment,91,↑,up,↑,0.6983558000065386,True,28,1
NK-M-22M22S1,686,experiment,70,↑,down,↓,0.6228158001322299,False,28,1
NK-M-22M22S1,687,experiment,103,↑,down,↓,0.8031973999459296,False,28,1
NK-M-22M22S1,688,experiment,82,←,left,←,0.5117117001209408,True,28,1
NK-M-22M22S1,689,experiment,59,↑,down,↓,0.8875148000661284,False,28,1
NK-M-22M22S1,690,experiment,60,↓,down,↓,0.575700500048697,True,28,1
NK-M-22M22S1,691,experiment,73,→,right,→,0.4640436000190675,True,28,1
NK-M-22M22S1,692,experiment,74,←,right,→,0.4604199000168592,False,28,1
NK-M-22M22S1,693,experiment,78,→,right,→,0.9119057999923825,True,28,1
NK-M-22M22S1,694,experiment,48,←,left,←,0.50745870009996,True,28,1
NK-M-22M22S1,695,experiment,79,↑,down,↓,0.8044425998814404,False,28,1
NK-M-22M22S1,696,experiment,108,←,left,←,0.49567379988729954,True,28,1
NK-M-22M22S1,697,experiment,61,←,left,←,0.6315050998236984,True,28,1
NK-M-22M22S1,698,experiment,68,↓,down,↓,0.7590842999052256,True,28,1
NK-M-22M22S1,699,experiment,102,↓,down,↓,0.6384797999635339,True,28,1
NK-M-22M22S1,700,experiment,76,↓,down,↓,0.4752332998905331,True,28,1
NK-M-22M22S1,701,experiment,75,↓,down,↓,0.6151048999745399,True,28,1
NK-M-22M22S1,702,experiment,101,↑,up,↑,0.9722651999909431,True,28,1
NK-M-22M22S1,703,experiment,51,↑,up,↑,0.6120446000713855,True,28,1
NK-M-22M22S1,704,experiment,84,←,left,←,0.503577200230211,True,28,1
NK-M-22M22S1,705,experiment,96,→,right,→,0.48300740006379783,True,28,1
NK-M-22M22S1,706,experiment,81,→,right,→,0.6446326998993754,True,28,1
NK-M-22M22S1,707,experiment,64,←,right,→,0.7571183999534696,False,28,1
NK-M-22M22S1,708,experiment,58,←,left,←,0.4593134999740869,True,28,1
NK-M-22M22S1,709,experiment,99,↑,down,↓,0.6717890000436455,False,28,1
NK-M-22M22S1,710,experiment,87,→,left,←,0.5593462998513132,False,28,1
NK-M-22M22S1,711,experiment,100,→,right,→,0.6393978998530656,True,28,1
NK-M-22M22S1,712,experiment,49,↓,down,↓,0.9891702998429537,True,28,1
NK-M-22M22S1,713,experiment,83,←,left,←,0.5456519001163542,True,28,1
NK-M-22M22S1,714,experiment,50,↓,down,↓,0.6909865001216531,True,28,1
NK-M-22M22S1,715,experiment,62,←,right,→,1.0183774998877198,False,28,1
NK-M-22M22S1,716,experiment,90,↓,down,↓,0.6033691000193357,True,28,1
NK-M-22M22S1,717,experiment,105,←,left,←,0.5281070999335498,True,28,1
NK-M-22M22S1,718,experiment,104,→,right,→,0.632293599890545,True,28,1
NK-M-22M22S1,719,experiment,53,↓,down,↓,0.6688612001016736,True,28,1
NK-M-22M22S1,720,experiment,71,↓,right,→,1.3782937999349087,False,28,1
NK-M-22M22S1,721,experiment,56,↓,down,↓,0.5762511999346316,True,28,1
NK-M-22M22S1,722,experiment,85,↓,down,↓,0.49273709999397397,True,28,1
NK-M-22M22S1,723,experiment,67,↓,down,↓,0.5465471998322755,True,28,1
NK-M-22M22S1,724,experiment,106,↑,up,↑,0.6409037001430988,True,28,1
NK-M-22M22S1,725,experiment,52,↓,down,↓,0.6694837000686675,True,28,1
NK-M-22M22S1,726,experiment,97,←,left,←,0.5222147998865694,True,28,1
NK-M-22M22S1,727,experiment,86,←,left,←,0.4804341997951269,True,28,1
NK-M-22M22S1,728,experiment,95,↓,down,↓,0.9889639001339674,True,28,1
NK-M-22M22S1,729,experiment,92,↓,down,↓,0.46254710014909506,True,28,1
NK-M-22M22S1,730,experiment,63,←,left,←,0.5183490000199527,True,28,1
NK-M-22M22S1,731,experiment,107,↑,left,←,1.0857516000978649,False,28,1
NK-M-22M22S1,732,experiment,66,↓,down,↓,0.5801611999049783,True,28,1
NK-M-22M22S1,733,experiment,72,→,left,←,0.4605209000874311,False,28,1
NK-M-22M22S1,734,training,91,→,right,→,0.6388201001100242,True,28,0
NK-M-22M22S1,735,training,66,←,left,←,0.5346896999981254,True,28,1
NK-M-22M22S1,736,experiment,102,→,right,→,0.6551938001066446,True,28,1
NK-M-22M22S1,737,experiment,82,↓,down,↓,0.6491084001027048,True,28,1
NK-M-22M22S1,738,experiment,63,←,left,←,0.5937808998860419,True,28,1
NK-M-22M22S1,739,experiment,78,↓,down,↓,0.5520667999517173,True,28,1
NK-M-22M22S1,740,experiment,49,↑,up,↑,0.6172338998876512,True,28,1
NK-M-22M22S1,741,experiment,88,↑,up,↑,0.6275541000068188,True,28,1
NK-M-22M22S1,742,experiment,74,↑,up,↑,1.0814657001756132,True,28,1
NK-M-22M22S1,743,experiment,94,↓,down,↓,0.6142822001129389,True,28,1
NK-M-22M22S1,744,experiment,98,↓,down,↓,0.5802629999816418,True,28,1
NK-M-22M22S1,745,experiment,108,→,right,→,0.9207353999372572,True,28,1
NK-M-22M22S1,746,experiment,57,↑,up,↑,0.6005164000671357,True,28,1
NK-M-22M22S1,747,experiment,68,→,right,→,0.8097615998703986,True,28,1
NK-M-22M22S1,748,experiment,107,↓,down,↓,0.5334042001049966,True,28,1
NK-M-22M22S1,749,experiment,77,↑,down,↓,0.43819939997047186,False,28,1
NK-M-22M22S1,750,experiment,48,↓,down,↓,0.6520545999519527,True,28,1
NK-M-22M22S1,751,experiment,101,←,left,←,0.5680748999584466,True,28,1
NK-M-22M22S1,752,experiment,59,↑,up,↑,0.5895109998527914,True,28,1
NK-M-22M22S1,753,experiment,105,←,left,←,0.5784781998954713,True,28,1
NK-M-22M22S1,754,experiment,65,←,left,←,0.48559110006317496,True,28,1
NK-M-22M22S1,755,experiment,71,→,right,→,0.5942537998780608,True,28,1
NK-M-22M22S1,756,experiment,73,→,right,→,0.6500788999255747,True,28,1
NK-M-22M22S1,757,experiment,103,←,left,←,0.5655229999683797,True,28,1
NK-M-22M22S1,758,experiment,83,←,left,←,0.554770200047642,True,28,1
NK-M-22M22S1,759,experiment,89,→,right,→,0.6230485001578927,True,28,1
NK-M-22M22S1,760,experiment,54,↑,up,↑,0.6994829000905156,True,28,1
NK-M-22M22S1,761,experiment,80,↓,down,↓,0.6849139998666942,True,28,1
NK-M-22M22S1,762,experiment,67,↑,up,↑,0.7225504000671208,True,28,1
NK-M-22M22S1,763,experiment,52,↑,up,↑,0.6675308998674154,True,28,1
NK-M-22M22S1,764,experiment,58,←,left,←,1.5175296000670642,True,28,1
NK-M-22M22S1,765,experiment,53,↓,down,↓,0.790872799931094,True,28,1
NK-M-22M22S1,766,experiment,81,↓,down,↓,0.6519577999133617,True,28,1
NK-M-22M22S1,767,experiment,76,↑,up,↑,0.632206599926576,True,28,1
NK-M-22M22S1,768,experiment,91,←,left,←,0.560363199794665,True,28,1
NK-M-22M22S1,769,experiment,64,↓,down,↓,0.6765876000281423,True,28,1
NK-M-22M22S1,770,experiment,84,←,left,←,0.5011038000229746,True,28,1
NK-M-22M22S1,771,experiment,85,↓,down,↓,0.6211037000175565,True,28,1
NK-M-22M22S1,772,experiment,100,↓,down,↓,0.5866130001377314,True,28,1
NK-M-22M22S1,773,experiment,86,←,left,←,0.6457549000624567,True,28,1
NK-M-22M22S1,774,experiment,87,↓,down,↓,0.6864415998570621,True,28,1
NK-M-22M22S1,775,experiment,99,↓,down,↓,0.5539300001692027,True,28,1
NK-M-22M22S1,776,experiment,66,↑,up,↑,0.629964099964127,True,28,1
NK-M-22M22S1,777,experiment,70,→,left,←,0.6846105000004172,False,28,1
NK-M-22M22S1,778,experiment,95,←,left,←,0.9134888001717627,True,28,1
NK-M-22M22S1,779,experiment,93,←,left,←,0.565486499806866,True,28,1
NK-M-22M22S1,780,experiment,62,↓,down,↓,0.7138664000667632,True,28,1
NK-M-22M22S1,781,experiment,61,↑,up,↑,0.5847887999843806,True,28,1
NK-M-22M22S1,782,experiment,60,↑,up,↑,0.6689932998269796,True,28,1
NK-M-22M22S1,783,experiment,75,←,left,←,0.5450043000746518,True,28,1
NK-M-22M22S1,784,experiment,106,↓,down,↓,0.49569690017960966,True,28,1
NK-M-22M22S1,785,experiment,104,↑,up,↑,0.5928949001245201,True,28,1
NK-M-22M22S1,786,experiment,72,↑,up,↑,0.5528122999239713,True,28,1
NK-M-22M22S1,787,experiment,92,←,left,←,0.47616449999623,True,28,1
NK-M-22M22S1,788,experiment,79,↑,down,↓,0.6223758000414819,False,28,1
NK-M-22M22S1,789,experiment,50,→,left,←,0.5884553999640048,False,28,1
NK-M-22M22S1,790,experiment,90,↓,down,↓,0.6064881000202149,True,28,1
NK-M-22M22S1,791,experiment,69,↓,down,↓,0.47880699997767806,True,28,1
NK-M-22M22S1,792,experiment,51,←,left,←,0.7146534000057727,True,28,1
NK-M-22M22S1,793,experiment,56,↓,down,↓,0.5632382000330836,True,28,1
NK-M-22M22S1,794,experiment,96,←,left,←,0.5080529998522252,True,28,1
NK-M-22M22S1,795,experiment,55,↑,up,↑,0.6209555000532418,True,28,1
NK-M-22M22S1,796,experiment,97,←,left,←,0.6357471998780966,True,28,1
NK-M-22M22S1,797,training,87,→,right,→,0.5234100001398474,True,28,0
NK-M-22M22S1,798,training,55,→,right,→,0.5556315998546779,True,28,1
NK-M-22M22S1,799,experiment,93,←,left,←,0.49400870013050735,True,28,1
NK-M-22M22S1,800,experiment,51,↓,down,↓,0.7451732999179512,True,28,1
NK-M-22M22S1,801,experiment,81,←,left,←,0.4167738000396639,True,28,1
NK-M-22M22S1,802,experiment,69,→,right,→,0.6402900998946279,True,28,1
NK-M-22M22S1,803,experiment,54,←,left,←,0.6443469000514597,True,28,1
NK-M-22M22S1,804,experiment,100,←,left,←,0.5131936999969184,True,28,1
NK-M-22M22S1,805,experiment,58,↑,down,↓,0.9289834001101553,False,28,1
NK-M-22M22S1,806,experiment,61,←,right,→,0.5515126001555473,False,28,1
NK-M-22M22S1,807,experiment,53,↑,down,↓,0.8148880999069661,False,28,1
NK-M-22M22S1,808,experiment,71,←,left,←,0.5105469999834895,True,28,1
NK-M-22M22S1,809,experiment,103,↑,up,↑,0.6713964000809938,True,28,1
NK-M-22M22S1,810,experiment,95,↑,up,↑,0.756798499962315,True,28,1
NK-M-22M22S1,811,experiment,50,↓,down,↓,0.6615063999779522,True,28,1
NK-M-22M22S1,812,experiment,70,↓,down,↓,0.6035468999762088,True,28,1
NK-M-22M22S1,813,experiment,101,→,right,→,0.5695908998604864,True,28,1
NK-M-22M22S1,814,experiment,104,↓,down,↓,0.5760033000260592,True,28,1
NK-M-22M22S1,815,experiment,67,↑,down,↓,0.8022135000210255,False,28,1
NK-M-22M22S1,816,experiment,68,↑,up,↑,0.5793767999857664,True,28,1
NK-M-22M22S1,817,experiment,62,↑,up,↑,0.7194558000192046,True,28,1
NK-M-22M22S1,818,experiment,91,↓,down,↓,0.5801199998240918,True,28,1
NK-M-22M22S1,819,experiment,65,→,left,←,0.47883499995805323,False,28,1
NK-M-22M22S1,820,experiment,80,↑,up,↑,0.8009648998267949,True,28,1
NK-M-22M22S1,821,experiment,102,↓,down,↓,0.5746422000229359,True,28,1
NK-M-22M22S1,822,experiment,94,→,right,→,0.5921965001616627,True,28,1
NK-M-22M22S1,823,experiment,79,↓,down,↓,0.5576561000198126,True,28,1
NK-M-22M22S1,824,experiment,84,←,left,←,0.6831253001000732,True,28,1
NK-M-22M22S1,825,experiment,75,→,left,←,0.7747588001657277,False,28,1
NK-M-22M22S1,826,experiment,86,→,right,→,0.5545781999826431,True,28,1
NK-M-22M22S1,827,experiment,88,←,left,←,0.5830258000642061,True,28,1
NK-M-22M22S1,828,experiment,99,←,left,←,0.5499718999490142,True,28,1
NK-M-22M22S1,829,experiment,89,↑,up,↑,0.9540339999366552,True,28,1
NK-M-22M22S1,830,experiment,97,←,left,←,0.5389564000070095,True,28,1
NK-M-22M22S1,831,experiment,76,→,right,→,0.5077293000649661,True,28,1
NK-M-22M22S1,832,experiment,96,→,left,←,0.77512659993954,False,28,1
NK-M-22M22S1,833,experiment,106,↓,down,↓,0.612367199966684,True,28,1
NK-M-22M22S1,834,experiment,108,↑,up,↑,0.6075621999334544,True,28,1
NK-M-22M22S1,835,experiment,64,↑,up,↑,0.6496889998670667,True,28,1
NK-M-22M22S1,836,experiment,87,→,right,→,0.9142120000906289,True,28,1
NK-M-22M22S1,837,experiment,49,↑,up,↑,0.7011494999751449,True,28,1
NK-M-22M22S1,838,experiment,72,←,left,←,0.6091247999574989,True,28,1
NK-M-22M22S1,839,experiment,60,↓,down,↓,0.6280686999671161,True,28,1
NK-M-22M22S1,840,experiment,98,↑,up,↑,0.7220789000857621,True,28,1
NK-M-22M22S1,841,experiment,73,↓,down,↓,0.6764955997932702,True,28,1
NK-M-22M22S1,842,experiment,82,→,right,→,0.669757799943909,True,28,1
NK-M-22M22S1,843,experiment,78,←,right,→,0.8331641999538988,False,28,1
NK-M-22M22S1,844,experiment,52,↑,down,↓,0.7661117999814451,False,28,1
NK-M-22M22S1,845,experiment,48,←,left,←,0.543036499992013,True,28,1
NK-M-22M22S1,846,experiment,74,→,right,→,0.5443951999768615,True,28,1
NK-M-22M22S1,847,experiment,83,↑,up,↑,0.6630530999973416,True,28,1
NK-M-22M22S1,848,experiment,63,↓,down,↓,0.6709144001360983,True,28,1
NK-M-22M22S1,849,experiment,55,→,right,→,0.6335103001911193,True,28,1
NK-M-22M22S1,850,experiment,107,↑,up,↑,0.7002140998374671,True,28,1
NK-M-22M22S1,851,experiment,59,↓,up,↑,0.7160342999268323,False,28,1
NK-M-22M22S1,852,experiment,56,↑,up,↑,0.756461399840191,True,28,1
NK-M-22M22S1,853,experiment,77,↓,down,↓,0.6043293999973685,True,28,1
NK-M-22M22S1,854,experiment,85,↓,down,↓,0.5836801999248564,True,28,1
NK-M-22M22S1,855,experiment,57,↓,down,↓,0.5969144001137465,True,28,1
NK-M-22M22S1,856,experiment,66,←,left,←,0.49495520000346005,True,28,1
NK-M-22M22S1,857,experiment,90,↓,down,↓,0.5488096999470145,True,28,1
NK-M-22M22S1,858,experiment,92,←,left,←,0.4560101998504251,True,28,1
NK-M-22M22S1,859,experiment,105,←,left,←,0.5062516001053154,True,28,1
NK-M-22M22S1,860,training,60,↓,down,↓,0.5724122999235988,True,28,0
NK-M-22M22S1,861,training,98,→,right,→,0.668543400010094,True,28,1
NK-M-22M22S1,862,experiment,91,↑,up,↑,0.5794627999421209,True,28,1
NK-M-22M22S1,863,experiment,79,↑,up,↑,0.5613496999721974,True,28,1
NK-M-22M22S1,864,experiment,96,→,right,→,0.6507476000115275,True,28,1
NK-M-22M22S1,865,experiment,95,→,right,→,0.48865879978984594,True,28,1
NK-M-22M22S1,866,experiment,93,→,right,→,0.5101016999688,True,28,1
NK-M-22M22S1,867,experiment,69,↑,up,↑,0.6664270998444408,True,28,1
NK-M-22M22S1,868,experiment,55,←,left,←,0.7489974999334663,True,28,1
NK-M-22M22S1,869,experiment,88,↑,up,↑,0.5775289998855442,True,28,1
NK-M-22M22S1,870,experiment,68,↑,up,↑,0.5956858999561518,True,28,1
NK-M-22M22S1,871,experiment,71,→,left,←,0.699488100130111,False,28,1
NK-M-22M22S1,872,experiment,57,→,right,→,0.5721964000258595,True,28,1
NK-M-22M22S1,873,experiment,106,↓,down,↓,0.6255656001158059,True,28,1
NK-M-22M22S1,874,experiment,62,→,right,→,0.9400644998531789,True,28,1
NK-M-22M22S1,875,experiment,84,→,right,→,1.2979137999936938,True,28,1
NK-M-22M22S1,876,experiment,58,→,right,→,0.6579867000691593,True,28,1
NK-M-22M22S1,877,experiment,59,←,left,←,0.5240076999180019,True,28,1
NK-M-22M22S1,878,experiment,52,→,right,→,0.757390100043267,True,28,1
NK-M-22M22S1,879,experiment,104,←,left,←,0.555818900000304,True,28,1
NK-M-22M22S1,880,experiment,92,↑,up,↑,0.7185763001907617,True,28,1
NK-M-22M22S1,881,experiment,49,↓,down,↓,0.6972735000308603,True,28,1
NK-M-22M22S1,882,experiment,98,↑,up,↑,0.6521332000847906,True,28,1
NK-M-22M22S1,883,experiment,50,↓,up,↑,0.9292824999429286,False,28,1
NK-M-22M22S1,884,experiment,83,→,right,→,0.6400676001794636,True,28,1
NK-M-22M22S1,885,experiment,81,→,right,→,0.6190492999739945,True,28,1
NK-M-22M22S1,886,experiment,103,←,left,←,0.639831000007689,True,28,1
NK-M-22M22S1,887,experiment,73,→,right,→,0.6295656999573112,True,28,1
NK-M-22M22S1,888,experiment,65,↓,down,↓,0.6549284001812339,True,28,1
NK-M-22M22S1,889,experiment,82,↑,up,↑,0.6243046000599861,True,28,1
NK-M-22M22S1,890,experiment,108,←,left,←,0.4271040998864919,True,28,1
NK-M-22M22S1,891,experiment,99,↑,up,↑,0.880913200089708,True,28,1
NK-M-22M22S1,892,experiment,78,↓,up,↑,0.6190660998690873,False,28,1
NK-M-22M22S1,893,experiment,56,↑,up,↑,0.5753927999176085,True,28,1
NK-M-22M22S1,894,experiment,63,←,left,←,0.5392962999176234,True,28,1
NK-M-22M22S1,895,experiment,89,↑,up,↑,0.7438366999849677,True,28,1
NK-M-22M22S1,896,experiment,94,←,left,←,0.4503295999020338,True,28,1
NK-M-22M22S1,897,experiment,86,←,left,←,0.7314328998327255,True,28,1
NK-M-22M22S1,898,experiment,101,↑,up,↑,0.6924205999821424,True,28,1
NK-M-22M22S1,899,experiment,48,↓,down,↓,0.6243626000359654,True,28,1
NK-M-22M22S1,900,experiment,87,←,left,←,0.43398869992233813,True,28,1
NK-M-22M22S1,901,experiment,100,←,left,←,0.5750985001213849,True,28,1
NK-M-22M22S1,902,experiment,61,←,left,←,0.6277683000080287,True,28,1
NK-M-22M22S1,903,experiment,75,←,left,←,0.5212725999299437,True,28,1
NK-M-22M22S1,904,experiment,97,←,left,←,0.4918193998746574,True,28,1
NK-M-22M22S1,905,experiment,64,↓,down,↓,0.5625052999239415,True,28,1
NK-M-22M22S1,906,experiment,70,↑,down,↓,0.7563064000569284,False,28,1
NK-M-22M22S1,907,experiment,53,↑,down,↓,0.5960204999428242,False,28,1
NK-M-22M22S1,908,experiment,66,→,right,→,0.5817489000037313,True,28,1
NK-M-22M22S1,909,experiment,60,←,left,←,0.4744014001917094,True,28,1
NK-M-22M22S1,910,experiment,74,↓,down,↓,0.5026036999188364,True,28,1
NK-M-22M22S1,911,experiment,72,↑,up,↑,0.5141930000390857,True,28,1
NK-M-22M22S1,912,experiment,105,→,right,→,0.48224330018274486,True,28,1
NK-M-22M22S1,913,experiment,102,↓,down,↓,0.4926263000816107,True,28,1
NK-M-22M22S1,914,experiment,67,→,right,→,0.6181437999475747,True,28,1
NK-M-22M22S1,915,experiment,77,↓,down,↓,0.5195802000816911,True,28,1
NK-M-22M22S1,916,experiment,51,↑,up,↑,0.6017065001651645,True,28,1
NK-M-22M22S1,917,experiment,80,↓,up,↑,0.7907790997996926,False,28,1
NK-M-22M22S1,918,experiment,54,↑,up,↑,0.5809446000494063,True,28,1
NK-M-22M22S1,919,experiment,85,↓,down,↓,0.6169394999742508,True,28,1
NK-M-22M22S1,920,experiment,107,←,left,←,0.540411900030449,True,28,1
NK-M-22M22S1,921,experiment,90,→,left,←,0.736394900130108,False,28,1
NK-M-22M22S1,922,experiment,76,←,left,←,0.7774347998201847,True,28,1
NK-M-22M22S1,923,training,61,←,left,←,0.5394286999944597,True,28,0
NK-M-22M22S1,924,training,87,↑,up,↑,0.6004667000379413,True,28,1
NK-M-22M22S1,925,experiment,66,↑,down,↓,0.882111500017345,False,28,1
NK-M-22M22S1,926,experiment,83,→,right,→,0.6028279000893235,True,28,1
NK-M-22M22S1,927,experiment,60,←,left,←,0.5105148998554796,True,28,1
NK-M-22M22S1,928,experiment,49,←,left,←,0.7296585000585765,True,28,1
NK-M-22M22S1,929,experiment,107,↓,down,↓,0.5764055999461561,True,28,1
NK-M-22M22S1,930,experiment,108,←,left,←,0.5489746001549065,True,28,1
NK-M-22M22S1,931,experiment,64,←,left,←,1.713626499986276,True,28,1
NK-M-22M22S1,932,experiment,88,↓,down,↓,0.639091300079599,True,28,1
NK-M-22M22S1,933,experiment,58,←,left,←,0.44176870002411306,True,28,1
NK-M-22M22S1,934,experiment,71,→,right,→,0.7125222000759095,True,28,1
NK-M-22M22S1,935,experiment,61,←,left,←,0.5271798998583108,True,28,1
NK-M-22M22S1,936,experiment,98,→,right,→,0.857441799947992,True,28,1
NK-M-22M22S1,937,experiment,55,↓,down,↓,0.5485139999072999,True,28,1
NK-M-22M22S1,938,experiment,89,→,right,→,0.6565816001966596,True,28,1
NK-M-22M22S1,939,experiment,51,↓,down,↓,0.6209668999072164,True,28,1
NK-M-22M22S1,940,experiment,80,↓,left,←,1.4332223001401871,False,28,1
NK-M-22M22S1,941,experiment,86,←,left,←,0.506749700056389,True,28,1
NK-M-22M22S1,942,experiment,69,←,left,←,0.5031884999480098,True,28,1
NK-M-22M22S1,943,experiment,93,↑,up,↑,0.6840744998771697,True,28,1
NK-M-22M22S1,944,experiment,92,↓,down,↓,0.5776765001937747,True,28,1
NK-M-22M22S1,945,experiment,62,←,left,←,0.7896891999989748,True,28,1
NK-M-22M22S1,946,experiment,100,↑,up,↑,0.5963840999174863,True,28,1
NK-M-22M22S1,947,experiment,97,↓,down,↓,0.6277656999882311,True,28,1
NK-M-22M22S1,948,experiment,85,→,left,←,0.606136699905619,False,28,1
NK-M-22M22S1,949,experiment,81,↑,up,↑,0.6507353000342846,True,28,1
NK-M-22M22S1,950,experiment,56,←,left,←,0.5655350999440998,True,28,1
NK-M-22M22S1,951,experiment,101,→,right,→,0.5654144999571145,True,28,1
NK-M-22M22S1,952,experiment,74,→,right,→,1.781595699954778,True,28,1
NK-M-22M22S1,953,experiment,106,↑,up,↑,0.6982879999559373,True,28,1
NK-M-22M22S1,954,experiment,65,←,left,←,0.6162400001194328,True,28,1
NK-M-22M22S1,955,experiment,102,↑,up,↑,0.5573011999949813,True,28,1
NK-M-22M22S1,956,experiment,77,→,no_key,no_letter,-1.0,False,28,1
NK-M-22M22S1,957,experiment,48,←,left,←,0.6328509000595659,True,28,1
NK-M-22M22S1,958,experiment,104,↓,down,↓,0.5965231999289244,True,28,1
NK-M-22M22S1,959,experiment,90,←,left,←,0.4700253999326378,True,28,1
NK-M-22M22S1,960,experiment,76,↓,down,↓,0.4657207001000643,True,28,1
NK-M-22M22S1,961,experiment,57,↑,up,↑,0.6599944999907166,True,28,1
NK-M-22M22S1,962,experiment,105,→,right,→,0.6062157000415027,True,28,1
NK-M-22M22S1,963,experiment,72,↑,up,↑,0.6056094998493791,True,28,1
NK-M-22M22S1,964,experiment,84,↑,up,↑,0.5931874997913837,True,28,1
NK-M-22M22S1,965,experiment,63,←,left,←,0.5879571000114083,True,28,1
NK-M-22M22S1,966,experiment,91,↑,up,↑,0.6057618998456746,True,28,1
NK-M-22M22S1,967,experiment,52,←,left,←,0.7478640000335872,True,28,1
NK-M-22M22S1,968,experiment,96,↓,down,↓,0.7175937001593411,True,28,1
NK-M-22M22S1,969,experiment,79,↓,down,↓,0.7105927001684904,True,28,1
NK-M-22M22S1,970,experiment,75,↓,down,↓,0.8246180000714958,True,28,1
NK-M-22M22S1,971,experiment,67,↓,down,↓,0.5689933998510242,True,28,1
NK-M-22M22S1,972,experiment,54,↓,down,↓,0.6001001999247819,True,28,1
NK-M-22M22S1,973,experiment,99,←,left,←,0.44681520015001297,True,28,1
NK-M-22M22S1,974,experiment,50,↓,down,↓,0.6038981999736279,True,28,1
NK-M-22M22S1,975,experiment,78,↑,up,↑,0.5696383998729289,True,28,1
NK-M-22M22S1,976,experiment,73,↑,up,↑,0.6905418001115322,True,28,1
NK-M-22M22S1,977,experiment,70,→,right,→,0.5030272998847067,True,28,1
NK-M-22M22S1,978,experiment,59,↑,left,←,1.1271905000321567,False,28,1
NK-M-22M22S1,979,experiment,103,←,right,→,0.7515531999524683,False,28,1
NK-M-22M22S1,980,experiment,53,←,left,←,0.8715727999806404,True,28,1
NK-M-22M22S1,981,experiment,94,→,right,→,0.6767853999044746,True,28,1
NK-M-22M22S1,982,experiment,68,←,left,←,0.5950275999493897,True,28,1
NK-M-22M22S1,983,experiment,87,↓,left,←,1.8940985999070108,False,28,1
NK-M-22M22S1,984,experiment,95,→,left,←,1.2582908000331372,False,28,1
NK-M-22M22S1,985,experiment,82,↑,up,↑,0.7000995001289994,True,28,1
NK-M-22M22S1,986,training,83,→,right,→,0.7197231999598444,True,28,0
NK-M-22M22S1,987,training,58,↓,down,↓,0.7198222998995334,True,28,1
NK-M-22M22S1,988,experiment,59,↓,down,↓,0.5748641998507082,True,28,1
NK-M-22M22S1,989,experiment,74,←,left,←,0.6071062001865357,True,28,1
NK-M-22M22S1,990,experiment,101,↑,up,↑,0.6608720999211073,True,28,1
NK-M-22M22S1,991,experiment,58,↑,up,↑,0.5905446999240667,True,28,1
NK-M-22M22S1,992,experiment,86,↑,down,↓,0.7701064001303166,False,28,1
NK-M-22M22S1,993,experiment,96,←,left,←,0.5311080999672413,True,28,1
NK-M-22M22S1,994,experiment,76,↑,up,↑,0.5321933999657631,True,28,1
NK-M-22M22S1,995,experiment,50,↑,up,↑,0.6625628999900073,True,28,1
NK-M-22M22S1,996,experiment,65,↑,up,↑,0.533644299954176,True,28,1
NK-M-22M22S1,997,experiment,77,→,right,→,0.6145483998116106,True,28,1
NK-M-22M22S1,998,experiment,51,←,right,→,0.6365008999127895,False,28,1
NK-M-22M22S1,999,experiment,71,↓,down,↓,0.6513024000450969,True,28,1
NK-M-22M22S1,1000,experiment,52,←,left,←,0.46381290000863373,True,28,1
NK-M-22M22S1,1001,experiment,62,↓,down,↓,0.6399903998244554,True,28,1
NK-M-22M22S1,1002,experiment,82,→,right,→,0.6270095000509173,True,28,1
NK-M-22M22S1,1003,experiment,99,→,right,→,0.6086446999106556,True,28,1
NK-M-22M22S1,1004,experiment,69,→,right,→,0.5130175999365747,True,28,1
NK-M-22M22S1,1005,experiment,55,↑,right,→,0.6661274000070989,False,28,1
NK-M-22M22S1,1006,experiment,87,↓,down,↓,0.6100409000646323,True,28,1
NK-M-22M22S1,1007,experiment,72,↓,down,↓,0.6171097001060843,True,28,1
NK-M-22M22S1,1008,experiment,56,↓,down,↓,0.6375704000238329,True,28,1
NK-M-22M22S1,1009,experiment,107,↓,down,↓,0.616209700005129,True,28,1
NK-M-22M22S1,1010,experiment,100,↓,down,↓,0.525979699799791,True,28,1
NK-M-22M22S1,1011,experiment,75,↓,down,↓,0.4955996999051422,True,28,1
NK-M-22M22S1,1012,experiment,90,↓,down,↓,0.517768899910152,True,28,1
NK-M-22M22S1,1013,experiment,84,↓,down,↓,0.6047156001441181,True,28,1
NK-M-22M22S1,1014,experiment,95,↑,up,↑,0.65239920001477,True,28,1
NK-M-22M22S1,1015,experiment,104,↓,down,↓,0.5516721000894904,True,28,1
NK-M-22M22S1,1016,experiment,83,→,right,→,0.5095432999078184,True,28,1
NK-M-22M22S1,1017,experiment,89,↑,up,↑,0.651287600165233,True,28,1
NK-M-22M22S1,1018,experiment,54,↑,up,↑,0.5032412000000477,True,28,1
NK-M-22M22S1,1019,experiment,48,←,right,→,0.6908889999613166,False,28,1
NK-M-22M22S1,1020,experiment,64,↑,up,↑,0.5936094000935555,True,28,1
NK-M-22M22S1,1021,experiment,61,↓,down,↓,0.421559999929741,True,28,1
NK-M-22M22S1,1022,experiment,102,→,right,→,0.5618801000528038,True,28,1
NK-M-22M22S1,1023,experiment,105,→,right,→,0.5606419998221099,True,28,1
NK-M-22M22S1,1024,experiment,53,←,left,←,0.5285378999542445,True,28,1
NK-M-22M22S1,1025,experiment,80,→,right,→,0.46411460009403527,True,28,1
NK-M-22M22S1,1026,experiment,66,→,right,→,1.367508800001815,True,28,1
NK-M-22M22S1,1027,experiment,88,↓,down,↓,0.5310243000276387,True,28,1
NK-M-22M22S1,1028,experiment,67,→,right,→,0.6468150001019239,True,28,1
NK-M-22M22S1,1029,experiment,63,↑,up,↑,0.8959027000237256,True,28,1
NK-M-22M22S1,1030,experiment,98,↑,up,↑,0.6511373000685126,True,28,1
NK-M-22M22S1,1031,experiment,108,↑,up,↑,0.5647346000187099,True,28,1
NK-M-22M22S1,1032,experiment,81,↑,left,←,0.7148130000568926,False,28,1
NK-M-22M22S1,1033,experiment,106,↓,down,↓,0.6264704000204802,True,28,1
NK-M-22M22S1,1034,experiment,91,→,right,→,0.7148253000341356,True,28,1
NK-M-22M22S1,1035,experiment,73,↓,down,↓,0.5022536001633853,True,28,1
NK-M-22M22S1,1036,experiment,70,←,left,←,1.5863396001514047,True,28,1
NK-M-22M22S1,1037,experiment,97,←,left,←,0.8098641000688076,True,28,1
NK-M-22M22S1,1038,experiment,49,→,left,←,0.6888244000729173,False,28,1
NK-M-22M22S1,1039,experiment,103,↓,down,↓,0.6505875999573618,True,28,1
NK-M-22M22S1,1040,experiment,93,←,left,←,0.6253470000810921,True,28,1
NK-M-22M22S1,1041,experiment,85,↓,down,↓,0.6358392001129687,True,28,1
NK-M-22M22S1,1042,experiment,57,↑,up,↑,1.1352262001018971,True,28,1
NK-M-22M22S1,1043,experiment,79,↑,up,↑,1.0309439001139253,True,28,1
NK-M-22M22S1,1044,experiment,68,→,left,←,0.7191200000233948,False,28,1
NK-M-22M22S1,1045,experiment,78,↑,down,↓,1.3764754000585526,False,28,1
NK-M-22M22S1,1046,experiment,94,↑,up,↑,0.6252282001078129,True,28,1
NK-M-22M22S1,1047,experiment,60,→,left,←,0.5719296999741346,False,28,1
NK-M-22M22S1,1048,experiment,92,↑,up,↑,0.5818176998291165,True,28,1
NK-M-22M22S1,1049,training,106,←,left,←,0.5720712998881936,True,28,0
NK-M-22M22S1,1050,training,96,→,right,→,0.5967292001005262,True,28,1
NK-M-22M22S1,1051,experiment,90,↑,up,↑,1.078268300043419,True,28,1
NK-M-22M22S1,1052,experiment,48,→,left,←,0.48339409986510873,False,28,1
NK-M-22M22S1,1053,experiment,49,↓,down,↓,0.5593578999396414,True,28,1
NK-M-22M22S1,1054,experiment,62,↑,up,↑,0.6040461999364197,True,28,1
NK-M-22M22S1,1055,experiment,51,→,right,→,0.5385298000182956,True,28,1
NK-M-22M22S1,1056,experiment,52,↑,up,↑,0.6752842999994755,True,28,1
NK-M-22M22S1,1057,experiment,89,←,left,←,0.6503079000394791,True,28,1
NK-M-22M22S1,1058,experiment,71,↑,up,↑,0.6004812999162823,True,28,1
NK-M-22M22S1,1059,experiment,107,→,right,→,1.0762418999802321,True,28,1
NK-M-22M22S1,1060,experiment,58,←,left,←,0.6380135000217706,True,28,1
NK-M-22M22S1,1061,experiment,94,↓,down,↓,0.8125002000015229,True,28,1
NK-M-22M22S1,1062,experiment,56,↑,up,↑,0.7209209001157433,True,28,1
NK-M-22M22S1,1063,experiment,76,→,right,→,0.8424178999848664,True,28,1
NK-M-22M22S1,1064,experiment,54,←,left,←,0.606722499942407,True,28,1
NK-M-22M22S1,1065,experiment,102,↓,down,↓,0.6597504999954253,True,28,1
NK-M-22M22S1,1066,experiment,50,↓,down,↓,0.6245693999808282,True,28,1
NK-M-22M22S1,1067,experiment,98,↓,down,↓,0.6306334999389946,True,28,1
NK-M-22M22S1,1068,experiment,73,←,left,←,0.6366844000294805,True,28,1
NK-M-22M22S1,1069,experiment,70,↓,down,↓,0.587891099974513,True,28,1
NK-M-22M22S1,1070,experiment,105,←,left,←,0.5290310999844223,True,28,1
NK-M-22M22S1,1071,experiment,99,→,right,→,0.6584287001751363,True,28,1
NK-M-22M22S1,1072,experiment,82,→,right,→,0.7565812000539154,True,28,1
NK-M-22M22S1,1073,experiment,55,←,left,←,1.0436537000350654,True,28,1
NK-M-22M22S1,1074,experiment,83,←,right,→,0.5341310000512749,False,28,1
NK-M-22M22S1,1075,experiment,64,↓,left,←,1.5550516999792308,False,28,1
NK-M-22M22S1,1076,experiment,103,←,left,←,0.6100216000340879,True,28,1
NK-M-22M22S1,1077,experiment,92,→,right,→,0.5872206001076847,True,28,1
NK-M-22M22S1,1078,experiment,57,↓,right,→,0.9521550999488682,False,28,1
NK-M-22M22S1,1079,experiment,69,←,left,←,0.5946440999396145,True,28,1
NK-M-22M22S1,1080,experiment,97,→,left,←,1.2186618999112397,False,28,1
NK-M-22M22S1,1081,experiment,78,↑,up,↑,0.6393633999396116,True,28,1
NK-M-22M22S1,1082,experiment,95,↑,up,↑,0.8457190000917763,True,28,1
NK-M-22M22S1,1083,experiment,80,←,left,←,0.5608194000087678,True,28,1
NK-M-22M22S1,1084,experiment,60,↓,down,↓,0.4942373998928815,True,28,1
NK-M-22M22S1,1085,experiment,100,←,left,←,0.7448454000987113,True,28,1
NK-M-22M22S1,1086,experiment,86,←,left,←,0.5902134000789374,True,28,1
NK-M-22M22S1,1087,experiment,101,←,left,←,0.5967654001433402,True,28,1
NK-M-22M22S1,1088,experiment,74,↓,left,←,0.7236780999228358,False,28,1
NK-M-22M22S1,1089,experiment,72,↓,down,↓,0.590606200043112,True,28,1
NK-M-22M22S1,1090,experiment,93,→,left,←,0.6232255001086742,False,28,1
NK-M-22M22S1,1091,experiment,61,→,right,→,0.5859013001900166,True,28,1
NK-M-22M22S1,1092,experiment,77,←,left,←,0.8405625000596046,True,28,1
NK-M-22M22S1,1093,experiment,87,→,left,←,1.6495741000398993,False,28,1
NK-M-22M22S1,1094,experiment,59,←,left,←,0.5074154001194984,True,28,1
NK-M-22M22S1,1095,experiment,85,←,left,←,0.5310225998982787,True,28,1
NK-M-22M22S1,1096,experiment,104,→,right,→,0.7063984000124037,True,28,1
NK-M-22M22S1,1097,experiment,81,↑,up,↑,0.6348051000386477,True,28,1
NK-M-22M22S1,1098,experiment,63,→,right,→,0.5400710999965668,True,28,1
NK-M-22M22S1,1099,experiment,66,←,left,←,0.5121373001020402,True,28,1
NK-M-22M22S1,1100,experiment,53,←,left,←,0.4421131999697536,True,28,1
NK-M-22M22S1,1101,experiment,79,↓,down,↓,0.645613000029698,True,28,1
NK-M-22M22S1,1102,experiment,91,↑,up,↑,0.5571167001035064,True,28,1
NK-M-22M22S1,1103,experiment,96,↑,up,↑,0.702395899919793,True,28,1
NK-M-22M22S1,1104,experiment,88,↓,down,↓,0.5408256999216974,True,28,1
NK-M-22M22S1,1105,experiment,108,←,left,←,0.5147414999082685,True,28,1
NK-M-22M22S1,1106,experiment,84,↑,up,↑,0.5300265999976546,True,28,1
NK-M-22M22S1,1107,experiment,68,↓,down,↓,0.6937027000822127,True,28,1
NK-M-22M22S1,1108,experiment,67,↓,down,↓,0.6192804998718202,True,28,1
NK-M-22M22S1,1109,experiment,65,↓,down,↓,0.6129430001601577,True,28,1
NK-M-22M22S1,1110,experiment,106,←,left,←,0.5365406000055373,True,28,1
NK-M-22M22S1,1111,experiment,75,→,left,←,0.40246759983710945,False,28,1
NK-M-22M22S1,1112,training,82,←,left,←,0.5142667000181973,True,28,0
NK-M-22M22S1,1113,training,79,↑,up,↑,0.5630059998948127,True,28,1
NK-M-22M22S1,1114,experiment,51,↓,down,↓,0.5789330000989139,True,28,1
NK-M-22M22S1,1115,experiment,107,↓,down,↓,0.7681171998847276,True,28,1
NK-M-22M22S1,1116,experiment,67,←,left,←,1.714875099947676,True,28,1
NK-M-22M22S1,1117,experiment,94,↑,up,↑,0.566306299995631,True,28,1
NK-M-22M22S1,1118,experiment,81,←,left,←,1.0205852000508457,True,28,1
NK-M-22M22S1,1119,experiment,57,↓,down,↓,0.6165068000555038,True,28,1
NK-M-22M22S1,1120,experiment,66,↑,up,↑,0.5296710000839084,True,28,1
NK-M-22M22S1,1121,experiment,64,→,left,←,0.7105475999414921,False,28,1
NK-M-22M22S1,1122,experiment,78,↓,down,↓,0.5839911999646574,True,28,1
NK-M-22M22S1,1123,experiment,102,←,left,←,0.5101723000407219,True,28,1
NK-M-22M22S1,1124,experiment,52,→,left,←,0.6964865999761969,False,28,1
NK-M-22M22S1,1125,experiment,56,↓,down,↓,0.5217176999431103,True,28,1
NK-M-22M22S1,1126,experiment,90,←,right,→,1.4468551999889314,False,28,1
NK-M-22M22S1,1127,experiment,73,↓,down,↓,0.5956676001660526,True,28,1
NK-M-22M22S1,1128,experiment,54,↑,up,↑,0.6816396000795066,True,28,1
NK-M-22M22S1,1129,experiment,106,↑,up,↑,0.7546125000808388,True,28,1
NK-M-22M22S1,1130,experiment,97,←,left,←,0.5082047998439521,True,28,1
NK-M-22M22S1,1131,experiment,105,←,left,←,0.6520922998897731,True,28,1
NK-M-22M22S1,1132,experiment,82,↓,down,↓,0.5423236000351608,True,28,1
NK-M-22M22S1,1133,experiment,72,↓,down,↓,0.4883441999554634,True,28,1
NK-M-22M22S1,1134,experiment,53,←,left,←,0.8669869999866933,True,28,1
NK-M-22M22S1,1135,experiment,98,↑,up,↑,0.6631543999537826,True,28,1
NK-M-22M22S1,1136,experiment,59,→,up,↑,1.2326279000844806,False,28,1
NK-M-22M22S1,1137,experiment,99,→,right,→,0.9019987999927253,True,28,1
NK-M-22M22S1,1138,experiment,103,↓,down,↓,0.7751732999458909,True,28,1
NK-M-22M22S1,1139,experiment,48,↑,up,↑,0.5681671998463571,True,28,1
NK-M-22M22S1,1140,experiment,86,↑,up,↑,0.860253999941051,True,28,1
NK-M-22M22S1,1141,experiment,61,↑,up,↑,0.7574327001348138,True,28,1
NK-M-22M22S1,1142,experiment,69,→,right,→,0.6796566001139581,True,28,1
NK-M-22M22S1,1143,experiment,83,→,right,→,0.6968489000573754,True,28,1
NK-M-22M22S1,1144,experiment,89,←,left,←,0.6868419998791069,True,28,1
NK-M-22M22S1,1145,experiment,60,←,left,←,0.6872278999071568,True,28,1
NK-M-22M22S1,1146,experiment,74,↑,up,↑,0.6031732000410557,True,28,1
NK-M-22M22S1,1147,experiment,96,→,right,→,0.6907881000079215,True,28,1
NK-M-22M22S1,1148,experiment,50,→,right,→,0.5579999999608845,True,28,1
NK-M-22M22S1,1149,experiment,84,←,left,←,0.6836609998717904,True,28,1
NK-M-22M22S1,1150,experiment,80,←,left,←,0.5891501000151038,True,28,1
NK-M-22M22S1,1151,experiment,93,↑,up,↑,0.574239999987185,True,28,1
NK-M-22M22S1,1152,experiment,77,↓,up,↑,0.8934712000191212,False,28,1
NK-M-22M22S1,1153,experiment,71,↓,up,↑,0.9855943000875413,False,28,1
NK-M-22M22S1,1154,experiment,65,←,left,←,0.580367699963972,True,28,1
NK-M-22M22S1,1155,experiment,95,→,right,→,0.7170168000739068,True,28,1
NK-M-22M22S1,1156,experiment,63,←,left,←,0.5472355999518186,True,28,1
NK-M-22M22S1,1157,experiment,104,↓,down,↓,0.6982571999542415,True,28,1
NK-M-22M22S1,1158,experiment,68,→,left,←,0.7993825001176447,False,28,1
NK-M-22M22S1,1159,experiment,108,↓,down,↓,0.6594052999280393,True,28,1
NK-M-22M22S1,1160,experiment,75,→,right,→,0.6392868999391794,True,28,1
NK-M-22M22S1,1161,experiment,101,→,right,→,0.7716524000279605,True,28,1
NK-M-22M22S1,1162,experiment,92,→,left,←,1.2698890001047403,False,28,1
NK-M-22M22S1,1163,experiment,55,↓,left,←,1.424543400062248,False,28,1
NK-M-22M22S1,1164,experiment,88,→,right,→,0.6659033999312669,True,28,1
NK-M-22M22S1,1165,experiment,79,←,left,←,1.372553899884224,True,28,1
NK-M-22M22S1,1166,experiment,76,→,left,←,0.6439843000844121,False,28,1
NK-M-22M22S1,1167,experiment,87,↓,down,↓,0.6608661999925971,True,28,1
NK-M-22M22S1,1168,experiment,70,↓,down,↓,0.4912457000464201,True,28,1
NK-M-22M22S1,1169,experiment,58,↓,down,↓,0.5558013999834657,True,28,1
NK-M-22M22S1,1170,experiment,91,↓,down,↓,0.5666970999445766,True,28,1
NK-M-22M22S1,1171,experiment,62,→,right,→,0.6511947000399232,True,28,1
NK-M-22M22S1,1172,experiment,100,→,right,→,0.6075512999668717,True,28,1
NK-M-22M22S1,1173,experiment,85,→,no_key,no_letter,-1.0,False,28,1
NK-M-22M22S1,1174,experiment,49,←,left,←,0.6860263999551535,True,28,1
NK-M-22M22S1,1175,training,57,↓,down,↓,0.6814908999949694,True,28,0
NK-M-22M22S1,1176,training,73,→,right,→,0.5497208000160754,True,28,1
NK-M-22M22S1,1177,experiment,82,↑,up,↑,0.6359353000298142,True,28,1
NK-M-22M22S1,1178,experiment,84,←,left,←,0.48644369980320334,True,28,1
NK-M-22M22S1,1179,experiment,50,←,left,←,0.5302303999196738,True,28,1
NK-M-22M22S1,1180,experiment,77,↑,up,↑,0.770782999927178,True,28,1
NK-M-22M22S1,1181,experiment,92,←,left,←,0.5486803001258522,True,28,1
NK-M-22M22S1,1182,experiment,94,→,right,→,0.5512006001081318,True,28,1
NK-M-22M22S1,1183,experiment,53,→,right,→,0.9113481999374926,True,28,1
NK-M-22M22S1,1184,experiment,104,↑,up,↑,0.6239926998969167,True,28,1
NK-M-22M22S1,1185,experiment,106,↑,no_key,no_letter,-1.0,False,28,1
NK-M-22M22S1,1186,experiment,103,↑,up,↑,0.6846400999929756,True,28,1
NK-M-22M22S1,1187,experiment,63,↑,up,↑,0.5401165001094341,True,28,1
NK-M-22M22S1,1188,experiment,91,→,right,→,0.5756186000071466,True,28,1
NK-M-22M22S1,1189,experiment,51,↓,down,↓,0.6233636999968439,True,28,1
NK-M-22M22S1,1190,experiment,105,→,right,→,1.0832396999467164,True,28,1
NK-M-22M22S1,1191,experiment,59,↓,down,↓,0.5797588001005352,True,28,1
NK-M-22M22S1,1192,experiment,108,↓,down,↓,1.5283983999397606,True,28,1
NK-M-22M22S1,1193,experiment,107,↑,up,↑,0.7194683998823166,True,28,1
NK-M-22M22S1,1194,experiment,89,←,left,←,0.4606750998646021,True,28,1
NK-M-22M22S1,1195,experiment,90,↓,down,↓,0.5319250000175089,True,28,1
NK-M-22M22S1,1196,experiment,55,→,right,→,0.8841805998235941,True,28,1
NK-M-22M22S1,1197,experiment,58,↑,up,↑,0.6371757998131216,True,28,1
NK-M-22M22S1,1198,experiment,61,←,right,→,0.5599024000111967,False,28,1
NK-M-22M22S1,1199,experiment,74,→,left,←,0.5280400000046939,False,28,1
NK-M-22M22S1,1200,experiment,95,↓,down,↓,0.5152559999842197,True,28,1
NK-M-22M22S1,1201,experiment,54,↑,down,↓,0.43613249994814396,False,28,1
NK-M-22M22S1,1202,experiment,62,↑,up,↑,0.6541239998769015,True,28,1
NK-M-22M22S1,1203,experiment,100,↑,up,↑,0.6744397999718785,True,28,1
NK-M-22M22S1,1204,experiment,80,←,left,←,0.540776299778372,True,28,1
NK-M-22M22S1,1205,experiment,78,→,right,→,0.74853549990803,True,28,1
NK-M-22M22S1,1206,experiment,66,↓,up,↑,1.0481491999235004,False,28,1
NK-M-22M22S1,1207,experiment,71,↑,up,↑,0.6702167000621557,True,28,1
NK-M-22M22S1,1208,experiment,86,↑,up,↑,0.6786972999107093,True,28,1
NK-M-22M22S1,1209,experiment,79,←,left,←,0.7129222000949085,True,28,1
NK-M-22M22S1,1210,experiment,64,↓,down,↓,0.8545169001445174,True,28,1
NK-M-22M22S1,1211,experiment,70,←,left,←,0.6046046998817474,True,28,1
NK-M-22M22S1,1212,experiment,81,↓,up,↑,0.8813039001543075,False,28,1
NK-M-22M22S1,1213,experiment,68,→,left,←,1.0868130999151617,False,28,1
NK-M-22M22S1,1214,experiment,60,←,left,←,0.7351035000756383,True,28,1
NK-M-22M22S1,1215,experiment,85,←,left,←,0.5812828000634909,True,28,1
NK-M-22M22S1,1216,experiment,49,←,left,←,0.7172346999868751,True,28,1
NK-M-22M22S1,1217,experiment,56,←,left,←,0.6857779000420123,True,28,1
NK-M-22M22S1,1218,experiment,96,←,left,←,0.6181067998986691,True,28,1
NK-M-22M22S1,1219,experiment,101,→,no_key,no_letter,-1.0,False,28,1
NK-M-22M22S1,1220,experiment,93,←,left,←,0.8360102998558432,True,28,1
NK-M-22M22S1,1221,experiment,87,←,left,←,0.5653557998593897,True,28,1
NK-M-22M22S1,1222,experiment,102,→,left,←,0.660189799964428,False,28,1
NK-M-22M22S1,1223,experiment,97,←,left,←,0.9373339999001473,True,28,1
NK-M-22M22S1,1224,experiment,72,↑,right,→,1.6511516999453306,False,28,1
NK-M-22M22S1,1225,experiment,65,←,left,←,0.6031690000090748,True,28,1
NK-M-22M22S1,1226,experiment,67,↑,up,↑,0.6525808000005782,True,28,1
NK-M-22M22S1,1227,experiment,99,→,left,←,0.7213226999156177,False,28,1
NK-M-22M22S1,1228,experiment,52,→,left,←,0.6912134001031518,False,28,1
NK-M-22M22S1,1229,experiment,73,←,left,←,0.5989216999150813,True,28,1
NK-M-22M22S1,1230,experiment,48,←,left,←,0.56635079998523,True,28,1
NK-M-22M22S1,1231,experiment,88,→,right,→,0.7463020998984575,True,28,1
NK-M-22M22S1,1232,experiment,69,↓,left,←,1.4688979999627918,False,28,1
NK-M-22M22S1,1233,experiment,75,↓,down,↓,0.6569637001957744,True,28,1
NK-M-22M22S1,1234,experiment,98,↑,left,←,1.5095587000250816,False,28,1
NK-M-22M22S1,1235,experiment,83,←,left,←,0.5972921999637038,True,28,1
NK-M-22M22S1,1236,experiment,76,↓,down,↓,0.8197620999999344,True,28,1
NK-M-22M22S1,1237,experiment,57,←,left,←,0.5355814998038113,True,28,1
NK-M-22M22S1,1238,training,87,→,right,→,0.6288020999636501,True,28,0
NK-M-22M22S1,1239,training,101,→,right,→,0.6972628999501467,True,28,1
NK-M-22M22S1,1240,experiment,91,←,left,←,0.49445290002040565,True,28,1
NK-M-22M22S1,1241,experiment,53,←,left,←,0.6487807999365032,True,28,1
NK-M-22M22S1,1242,experiment,80,↑,up,↑,0.6599969000089914,True,28,1
NK-M-22M22S1,1243,experiment,76,←,left,←,0.6721959998831153,True,28,1
NK-M-22M22S1,1244,experiment,57,←,left,←,0.5296769000124186,True,28,1
NK-M-22M22S1,1245,experiment,102,←,left,←,0.4748801998794079,True,28,1
NK-M-22M22S1,1246,experiment,82,↑,up,↑,0.6997430000919849,True,28,1
NK-M-22M22S1,1247,experiment,81,←,right,→,0.7163569000549614,False,28,1
NK-M-22M22S1,1248,experiment,92,↓,down,↓,0.7130430000834167,True,28,1
NK-M-22M22S1,1249,experiment,69,→,right,→,0.6127955999691039,True,28,1
NK-M-22M22S1,1250,experiment,56,↓,down,↓,0.6173159999307245,True,28,1
NK-M-22M22S1,1251,experiment,87,↑,up,↑,0.5873988000676036,True,28,1
NK-M-22M22S1,1252,experiment,86,↑,up,↑,0.5266782001126558,True,28,1
NK-M-22M22S1,1253,experiment,63,↓,up,↑,0.6847598000895232,False,28,1
NK-M-22M22S1,1254,experiment,78,←,left,←,0.5989192998968065,True,28,1
NK-M-22M22S1,1255,experiment,64,↓,down,↓,0.5452300999313593,True,28,1
NK-M-22M22S1,1256,experiment,65,↑,up,↑,0.6301671001128852,True,28,1
NK-M-22M22S1,1257,experiment,103,←,left,←,0.5540124999824911,True,28,1
NK-M-22M22S1,1258,experiment,99,←,left,←,0.546693200012669,True,28,1
NK-M-22M22S1,1259,experiment,79,→,right,→,0.7939394998829812,True,28,1
NK-M-22M22S1,1260,experiment,72,←,left,←,0.8258999998215586,True,28,1
NK-M-22M22S1,1261,experiment,98,←,left,←,0.5438960001338273,True,28,1
NK-M-22M22S1,1262,experiment,97,←,left,←,0.5858413998503238,True,28,1
NK-M-22M22S1,1263,experiment,58,↓,down,↓,0.6548983999527991,True,28,1
NK-M-22M22S1,1264,experiment,95,↑,up,↑,0.5326686999760568,True,28,1
NK-M-22M22S1,1265,experiment,54,←,left,←,0.7014611000195146,True,28,1
NK-M-22M22S1,1266,experiment,93,↑,up,↑,1.1056969999335706,True,28,1
NK-M-22M22S1,1267,experiment,106,→,left,←,0.8095034998841584,False,28,1
NK-M-22M22S1,1268,experiment,74,↓,down,↓,0.656294799875468,True,28,1
NK-M-22M22S1,1269,experiment,49,↑,up,↑,1.309243299998343,True,28,1
NK-M-22M22S1,1270,experiment,62,→,right,→,0.7238310999237001,True,28,1
NK-M-22M22S1,1271,experiment,88,↓,down,↓,0.6650863999966532,True,28,1
NK-M-22M22S1,1272,experiment,84,←,left,←,0.5142902999650687,True,28,1
NK-M-22M22S1,1273,experiment,50,→,right,→,0.6929049000609666,True,28,1
NK-M-22M22S1,1274,experiment,66,↑,down,↓,0.8987306000199169,False,28,1
NK-M-22M22S1,1275,experiment,107,↑,down,↓,0.8989856999833137,False,28,1
NK-M-22M22S1,1276,experiment,77,↑,up,↑,1.0448076000902802,True,28,1
NK-M-22M22S1,1277,experiment,48,↑,up,↑,0.8267777999863029,True,28,1
NK-M-22M22S1,1278,experiment,96,↓,down,↓,0.7137601000722498,True,28,1
NK-M-22M22S1,1279,experiment,70,↑,up,↑,1.6530917000491172,True,28,1
NK-M-22M22S1,1280,experiment,104,→,right,→,0.9360327001195401,True,28,1
NK-M-22M22S1,1281,experiment,71,→,left,←,0.5949581998866051,False,28,1
NK-M-22M22S1,1282,experiment,59,←,left,←,1.4793193000368774,True,28,1
NK-M-22M22S1,1283,experiment,51,←,left,←,0.7470232001505792,True,28,1
NK-M-22M22S1,1284,experiment,100,↑,up,↑,0.5551816998049617,True,28,1
NK-M-22M22S1,1285,experiment,101,←,left,←,0.5308229001238942,True,28,1
NK-M-22M22S1,1286,experiment,75,→,right,→,0.7402418998535722,True,28,1
NK-M-22M22S1,1287,experiment,89,↑,up,↑,0.5766497999429703,True,28,1
NK-M-22M22S1,1288,experiment,68,↑,up,↑,0.7309216000139713,True,28,1
NK-M-22M22S1,1289,experiment,55,←,left,←,1.4749357998371124,True,28,1
NK-M-22M22S1,1290,experiment,52,↑,up,↑,0.6301512999925762,True,28,1
NK-M-22M22S1,1291,experiment,67,→,right,→,0.790111199952662,True,28,1
NK-M-22M22S1,1292,experiment,94,↓,down,↓,0.6227492999751121,True,28,1
NK-M-22M22S1,1293,experiment,61,↑,up,↑,0.6494809999130666,True,28,1
NK-M-22M22S1,1294,experiment,108,←,left,←,0.570785199990496,True,28,1
NK-M-22M22S1,1295,experiment,83,↓,down,↓,0.6401856997981668,True,28,1
NK-M-22M22S1,1296,experiment,105,↓,down,↓,0.5151915999595076,True,28,1
NK-M-22M22S1,1297,experiment,90,↑,up,↑,0.592061199946329,True,28,1
NK-M-22M22S1,1298,experiment,60,→,right,→,0.6200518000405282,True,28,1
NK-M-22M22S1,1299,experiment,73,↓,down,↓,0.6826583999209106,True,28,1
NK-M-22M22S1,1300,experiment,85,→,right,→,0.5788875001017004,True,28,1
NK-M-22M22S1,1301,training,106,↓,down,↓,0.7697970001026988,True,28,0
NK-M-22M22S1,1302,training,71,↓,down,↓,0.49118019989691675,True,28,1
NK-M-22M22S1,1303,experiment,95,←,left,←,0.5682499997783452,True,28,1
NK-M-22M22S1,1304,experiment,78,↓,down,↓,0.6307735999580473,True,28,1
NK-M-22M22S1,1305,experiment,74,→,right,→,0.612292299978435,True,28,1
NK-M-22M22S1,1306,experiment,51,→,left,←,0.5549668001476675,False,28,1
NK-M-22M22S1,1307,experiment,65,→,left,←,1.0548157000448555,False,28,1
NK-M-22M22S1,1308,experiment,84,→,right,→,0.6087573000695556,True,28,1
NK-M-22M22S1,1309,experiment,49,←,left,←,0.5677714000921696,True,28,1
NK-M-22M22S1,1310,experiment,67,→,right,→,0.6261674000415951,True,28,1
NK-M-22M22S1,1311,experiment,55,↑,up,↑,1.2869504999835044,True,28,1
NK-M-22M22S1,1312,experiment,48,→,right,→,0.6191771000158042,True,28,1
NK-M-22M22S1,1313,experiment,54,→,right,→,0.8484024000354111,True,28,1
NK-M-22M22S1,1314,experiment,97,←,left,←,0.5974262000527233,True,28,1
NK-M-22M22S1,1315,experiment,64,↓,down,↓,0.6957485999446362,True,28,1
NK-M-22M22S1,1316,experiment,104,→,right,→,0.4410261001903564,True,28,1
NK-M-22M22S1,1317,experiment,71,→,right,→,1.0394413999747485,True,28,1
NK-M-22M22S1,1318,experiment,80,→,right,→,0.7947851999197155,True,28,1
NK-M-22M22S1,1319,experiment,99,↑,up,↑,0.6656722000334412,True,28,1
NK-M-22M22S1,1320,experiment,66,→,down,↓,0.7047304001171142,False,28,1
NK-M-22M22S1,1321,experiment,61,→,right,→,0.6325084001291543,True,28,1
NK-M-22M22S1,1322,experiment,70,↓,down,↓,0.7270373001229018,True,28,1
NK-M-22M22S1,1323,experiment,107,↑,up,↑,0.5986581998877227,True,28,1
NK-M-22M22S1,1324,experiment,52,→,right,→,0.7086294998880476,True,28,1
NK-M-22M22S1,1325,experiment,108,→,right,→,0.5878212000243366,True,28,1
NK-M-22M22S1,1326,experiment,57,→,left,←,1.8895161000546068,False,28,1
NK-M-22M22S1,1327,experiment,91,↑,up,↑,0.6791120001580566,True,28,1
NK-M-22M22S1,1328,experiment,58,↑,up,↑,0.5845259998459369,True,28,1
NK-M-22M22S1,1329,experiment,77,↓,down,↓,0.679022700060159,True,28,1
NK-M-22M22S1,1330,experiment,93,↑,up,↑,0.5884162001311779,True,28,1
NK-M-22M22S1,1331,experiment,72,←,left,←,0.6285975999198854,True,28,1
NK-M-22M22S1,1332,experiment,79,↑,up,↑,0.5608794998843223,True,28,1
NK-M-22M22S1,1333,experiment,53,↑,up,↑,0.5926443999633193,True,28,1
NK-M-22M22S1,1334,experiment,89,↑,up,↑,1.8031398998573422,True,28,1
NK-M-22M22S1,1335,experiment,85,←,left,←,0.8381843001116067,True,28,1
NK-M-22M22S1,1336,experiment,92,→,right,→,0.6775160001125187,True,28,1
NK-M-22M22S1,1337,experiment,59,→,right,→,0.6225814998615533,True,28,1
NK-M-22M22S1,1338,experiment,88,↑,up,↑,0.5520685000810772,True,28,1
NK-M-22M22S1,1339,experiment,76,↑,down,↓,0.592459199950099,False,28,1
NK-M-22M22S1,1340,experiment,101,↓,down,↓,0.6547671998851001,True,28,1
NK-M-22M22S1,1341,experiment,81,→,right,→,0.5773742001038045,True,28,1
NK-M-22M22S1,1342,experiment,82,→,right,→,0.5745729999616742,True,28,1
NK-M-22M22S1,1343,experiment,103,↑,up,↑,0.6449253000319004,True,28,1
NK-M-22M22S1,1344,experiment,102,←,right,→,1.4328706001397222,False,28,1
NK-M-22M22S1,1345,experiment,100,←,left,←,0.5897685000672936,True,28,1
NK-M-22M22S1,1346,experiment,62,↓,down,↓,0.6416307999752462,True,28,1
NK-M-22M22S1,1347,experiment,68,↑,up,↑,0.512540000025183,True,28,1
NK-M-22M22S1,1348,experiment,60,→,left,←,1.359756600111723,False,28,1
NK-M-22M22S1,1349,experiment,87,↓,down,↓,0.7799494001083076,True,28,1
NK-M-22M22S1,1350,experiment,63,→,left,←,0.5753412998747081,False,28,1
NK-M-22M22S1,1351,experiment,86,←,left,←,0.883356099948287,True,28,1
NK-M-22M22S1,1352,experiment,73,↓,down,↓,0.7116285001393408,True,28,1
NK-M-22M22S1,1353,experiment,98,→,right,→,0.6663080998696387,True,28,1
NK-M-22M22S1,1354,experiment,105,↑,up,↑,1.1961745000444353,True,28,1
NK-M-22M22S1,1355,experiment,96,↑,up,↑,1.300119600025937,True,28,1
NK-M-22M22S1,1356,experiment,83,←,left,←,0.53227059985511,True,28,1
NK-M-22M22S1,1357,experiment,56,←,left,←,0.8599973998498172,True,28,1
NK-M-22M22S1,1358,experiment,69,↑,up,↑,1.5621050000190735,True,28,1
NK-M-22M22S1,1359,experiment,75,←,left,←,0.8183438000269234,True,28,1
NK-M-22M22S1,1360,experiment,94,↓,down,↓,0.970038800034672,True,28,1
NK-M-22M22S1,1361,experiment,106,→,right,→,0.7113862000405788,True,28,1
NK-M-22M22S1,1362,experiment,90,←,left,←,0.5408630000893027,True,28,1
NK-M-22M22S1,1363,experiment,50,←,left,←,0.5343949999660254,True,28,1
NK-M-22M22S1,1364,training,74,→,right,→,0.6162000000476837,True,28,0
NK-M-22M22S1,1365,training,107,←,right,→,0.4995619999244809,False,28,1
NK-M-22M22S1,1366,experiment,49,↑,left,←,1.3350313000846654,False,28,1
NK-M-22M22S1,1367,experiment,89,←,left,←,0.7474799000192434,True,28,1
NK-M-22M22S1,1368,experiment,76,↑,up,↑,0.9557668999768794,True,28,1
NK-M-22M22S1,1369,experiment,102,↓,down,↓,0.6034872999880463,True,28,1
NK-M-22M22S1,1370,experiment,74,↓,down,↓,0.5544533999636769,True,28,1
NK-M-22M22S1,1371,experiment,99,↑,up,↑,0.6505116999614984,True,28,1
NK-M-22M22S1,1372,experiment,106,↑,up,↑,0.5972400000318885,True,28,1
NK-M-22M22S1,1373,experiment,90,→,right,→,0.6465943998191506,True,28,1
NK-M-22M22S1,1374,experiment,56,↑,up,↑,0.7696957997977734,True,28,1
NK-M-22M22S1,1375,experiment,52,←,left,←,0.5215690999757499,True,28,1
NK-M-22M22S1,1376,experiment,85,→,right,→,0.5597570999525487,True,28,1
NK-M-22M22S1,1377,experiment,87,↑,up,↑,0.6764522998128086,True,28,1
NK-M-22M22S1,1378,experiment,94,↑,up,↑,0.5539886001497507,True,28,1
NK-M-22M22S1,1379,experiment,86,→,down,↓,1.2306598001159728,False,28,1
NK-M-22M22S1,1380,experiment,64,↓,up,↑,0.784181100083515,False,28,1
NK-M-22M22S1,1381,experiment,53,↑,up,↑,0.6148306999821216,True,28,1
NK-M-22M22S1,1382,experiment,66,←,left,←,0.43149919994175434,True,28,1
NK-M-22M22S1,1383,experiment,70,←,left,←,0.5264117000624537,True,28,1
NK-M-22M22S1,1384,experiment,62,↑,up,↑,0.4608606998808682,True,28,1
NK-M-22M22S1,1385,experiment,100,←,left,←,0.44121740013360977,True,28,1
NK-M-22M22S1,1386,experiment,81,→,right,→,0.46766920015215874,True,28,1
NK-M-22M22S1,1387,experiment,55,→,right,→,0.6066735000349581,True,28,1
NK-M-22M22S1,1388,experiment,77,←,right,→,0.7002725000493228,False,28,1
NK-M-22M22S1,1389,experiment,68,→,up,↑,1.3294164999388158,False,28,1
NK-M-22M22S1,1390,experiment,103,↑,up,↑,0.9051810000091791,True,28,1
NK-M-22M22S1,1391,experiment,105,←,left,←,0.6014928999356925,True,28,1
NK-M-22M22S1,1392,experiment,71,↓,down,↓,0.6495176998432726,True,28,1
NK-M-22M22S1,1393,experiment,65,↑,up,↑,0.5855541001074016,True,28,1
NK-M-22M22S1,1394,experiment,57,↑,up,↑,0.7110520000569522,True,28,1
NK-M-22M22S1,1395,experiment,107,→,right,→,0.5347809998784214,True,28,1
NK-M-22M22S1,1396,experiment,69,↑,up,↑,0.5866803000681102,True,28,1
NK-M-22M22S1,1397,experiment,104,↑,up,↑,0.5920142999384552,True,28,1
NK-M-22M22S1,1398,experiment,98,←,up,↑,1.4713220000267029,False,28,1
NK-M-22M22S1,1399,experiment,88,↑,up,↑,0.6944384998641908,True,28,1
NK-M-22M22S1,1400,experiment,95,↓,up,↑,0.8270021001808345,False,28,1
NK-M-22M22S1,1401,experiment,78,→,left,←,0.567517900140956,False,28,1
NK-M-22M22S1,1402,experiment,51,→,right,→,0.5755865999963135,True,28,1
NK-M-22M22S1,1403,experiment,97,↓,down,↓,0.583912700181827,True,28,1
NK-M-22M22S1,1404,experiment,61,←,left,←,0.8760855000000447,True,28,1
NK-M-22M22S1,1405,experiment,84,←,left,←,0.5326398001052439,True,28,1
NK-M-22M22S1,1406,experiment,63,→,right,→,0.5300710999872535,True,28,1
NK-M-22M22S1,1407,experiment,101,↑,up,↑,0.4669562999624759,True,28,1
NK-M-22M22S1,1408,experiment,54,→,left,←,0.5983864001464099,False,28,1
NK-M-22M22S1,1409,experiment,96,↑,down,↓,1.4936150999274105,False,28,1
NK-M-22M22S1,1410,experiment,92,→,right,→,0.5309299998916686,True,28,1
NK-M-22M22S1,1411,experiment,48,↑,right,→,1.0858670000452548,False,28,1
NK-M-22M22S1,1412,experiment,80,←,left,←,0.5109133999794722,True,28,1
NK-M-22M22S1,1413,experiment,91,→,right,→,0.6120208001229912,True,28,1
NK-M-22M22S1,1414,experiment,75,↓,down,↓,0.6906663998961449,True,28,1
NK-M-22M22S1,1415,experiment,82,←,left,←,0.4671707001980394,True,28,1
NK-M-22M22S1,1416,experiment,72,←,left,←,0.5122653001453727,True,28,1
NK-M-22M22S1,1417,experiment,60,↓,up,↑,1.487876599887386,False,28,1
NK-M-22M22S1,1418,experiment,79,→,right,→,0.4891706998459995,True,28,1
NK-M-22M22S1,1419,experiment,73,→,left,←,0.4214401999488473,False,28,1
NK-M-22M22S1,1420,experiment,93,→,right,→,0.7007868001237512,True,28,1
NK-M-22M22S1,1421,experiment,58,←,left,←,0.5650975999888033,True,28,1
NK-M-22M22S1,1422,experiment,83,→,right,→,0.7147752000018954,True,28,1
NK-M-22M22S1,1423,experiment,108,→,right,→,0.5857827998697758,True,28,1
NK-M-22M22S1,1424,experiment,50,↓,down,↓,0.6973317998927087,True,28,1
NK-M-22M22S1,1425,experiment,67,←,left,←,0.6867179998662323,True,28,1
NK-M-22M22S1,1426,experiment,59,↑,up,↑,0.6475408000405878,True,28,1
NK-M-22M22S1,1427,training,72,↑,up,↑,0.7376298999879509,True,28,0
NK-M-22M22S1,1428,training,54,↑,up,↑,0.6821264999452978,True,28,1
NK-M-22M22S1,1429,experiment,104,↑,up,↑,0.6198718999512494,True,28,1
NK-M-22M22S1,1430,experiment,65,←,left,←,0.6370312999933958,True,28,1
NK-M-22M22S1,1431,experiment,102,↑,up,↑,0.5296187999192625,True,28,1
NK-M-22M22S1,1432,experiment,63,↓,up,↑,1.1508857998996973,False,28,1
NK-M-22M22S1,1433,experiment,69,→,right,→,0.7535056998021901,True,28,1
NK-M-22M22S1,1434,experiment,56,↑,no_key,no_letter,-1.0,False,28,1
NK-M-22M22S1,1435,experiment,59,←,left,←,0.592354099964723,True,28,1
NK-M-22M22S1,1436,experiment,89,↑,up,↑,0.6587930000387132,True,28,1
NK-M-22M22S1,1437,experiment,78,←,up,↑,1.3904426998924464,False,28,1
NK-M-22M22S1,1438,experiment,75,→,right,→,0.5493040001019835,True,28,1
NK-M-22M22S1,1439,experiment,54,→,right,→,0.5889401999302208,True,28,1
NK-M-22M22S1,1440,experiment,83,→,right,→,0.5373752000741661,True,28,1
NK-M-22M22S1,1441,experiment,87,→,right,→,0.5505313000176102,True,28,1
NK-M-22M22S1,1442,experiment,84,↓,down,↓,0.6764177998993546,True,28,1
NK-M-22M22S1,1443,experiment,51,↑,up,↑,0.7042132001370192,True,28,1
NK-M-22M22S1,1444,experiment,92,↓,down,↓,0.5968168000690639,True,28,1
NK-M-22M22S1,1445,experiment,57,↑,up,↑,0.8975901999510825,True,28,1
NK-M-22M22S1,1446,experiment,79,→,no_key,no_letter,-1.0,False,28,1
