PART_ID,Trial_no,Trial_type,CSI,Stim_letter,Key_pressed,letter_choose,Rt,Corr,Stimulus Time,nDropped
PO-M-22M22S1,1,training,120,↑,up,↑,0.8386976001784205,True,60,0
PO-M-22M22S1,2,training,120,→,right,→,0.6685997999738902,True,60,0
PO-M-22M22S1,3,training,120,←,left,←,0.4923498001880944,True,60,0
PO-M-22M22S1,4,training,120,↑,no_key,no_letter,-1.0,False,60,0
PO-M-22M22S1,5,training,120,↓,down,↓,0.5425086000468582,True,60,0
PO-M-22M22S1,6,training,120,↓,down,↓,0.509840200189501,True,60,0
PO-M-22M22S1,7,training,120,↓,down,↓,0.46857329993508756,True,60,0
PO-M-22M22S1,8,training,120,→,right,→,0.5254124999046326,True,60,0
PO-M-22M22S1,9,training,120,←,no_key,no_letter,-1.0,False,60,0
PO-M-22M22S1,10,training,120,↑,up,↑,0.7084085999522358,True,60,0
PO-M-22M22S1,11,training,120,→,right,→,0.5686015000101179,True,60,0
PO-M-22M22S1,12,training,120,↓,down,↓,0.87910470017232,True,60,0
PO-M-22M22S1,13,training,120,←,left,←,0.5334577998146415,True,60,0
PO-M-22M22S1,14,training,120,↑,up,↑,0.5018164999783039,True,60,0
PO-M-22M22S1,15,training,120,←,left,←,0.47686839988455176,True,60,0
PO-M-22M22S1,16,training,120,→,right,→,0.6343442997895181,True,60,0
PO-M-22M22S1,17,training,120,↓,down,↓,0.815665400121361,True,60,0
PO-M-22M22S1,18,training,120,→,right,→,0.8781806000042707,True,60,0
PO-M-22M22S1,19,training,120,↑,up,↑,0.7459715001750737,True,60,0
PO-M-22M22S1,20,training,120,↑,up,↑,0.5425838001538068,True,60,0
PO-M-22M22S1,21,no_adaptation,120,↓,down,↓,0.6098449998535216,True,36,0
PO-M-22M22S1,22,no_adaptation,120,↑,up,↑,0.5683631000574678,True,36,0
PO-M-22M22S1,23,no_adaptation,120,←,left,←,0.48091290006414056,True,36,0
PO-M-22M22S1,24,no_adaptation,120,↓,down,↓,0.6364804999902844,True,36,0
PO-M-22M22S1,25,no_adaptation,120,↑,up,↑,0.6819046000018716,True,36,0
PO-M-22M22S1,26,no_adaptation,120,→,right,→,0.5658964000176638,True,36,0
PO-M-22M22S1,27,no_adaptation,120,↓,down,↓,0.5583484000526369,True,36,0
PO-M-22M22S1,28,no_adaptation,120,←,right,→,0.2767169000580907,False,36,0
PO-M-22M22S1,29,no_adaptation,120,↑,up,↑,0.6019531998317689,True,36,0
PO-M-22M22S1,30,no_adaptation,120,←,left,←,1.2088905000127852,True,36,0
PO-M-22M22S1,31,no_adaptation,120,←,left,←,0.6638007001020014,True,36,0
PO-M-22M22S1,32,no_adaptation,120,↑,up,↑,0.6362425999250263,True,36,0
PO-M-22M22S1,33,no_adaptation,120,↓,down,↓,0.6417340999469161,True,36,0
PO-M-22M22S1,34,no_adaptation,120,↑,up,↑,0.6550525999628007,True,36,0
PO-M-22M22S1,35,no_adaptation,120,→,right,→,0.6922422000207007,True,36,0
PO-M-22M22S1,36,no_adaptation,120,←,left,←,0.7036065999418497,True,36,0
PO-M-22M22S1,37,no_adaptation,120,↓,down,↓,0.5142918999772519,True,36,0
PO-M-22M22S1,38,no_adaptation,120,←,left,←,0.5250666998326778,True,36,0
PO-M-22M22S1,39,no_adaptation,120,↓,no_key,no_letter,-1.0,False,36,0
PO-M-22M22S1,40,no_adaptation,120,↑,up,↑,0.6558740998152643,True,36,0
PO-M-22M22S1,41,training,59,↑,up,↑,0.5121488999575377,True,36,0
PO-M-22M22S1,42,training,60,→,right,→,0.5271705999039114,True,36,1
PO-M-22M22S1,43,experiment,83,↑,up,↑,0.5183368001598865,True,36,1
PO-M-22M22S1,44,experiment,65,←,left,←,0.5157070998102427,True,36,1
PO-M-22M22S1,45,experiment,81,→,right,→,0.4923491000663489,True,36,1
PO-M-22M22S1,46,experiment,89,↑,up,↑,0.4174816000740975,True,36,1
PO-M-22M22S1,47,experiment,106,←,left,←,0.442239600000903,True,36,0
PO-M-22M22S1,48,experiment,80,↓,down,↓,0.6884126998484135,True,36,0
PO-M-22M22S1,49,experiment,101,→,right,→,0.3840108001604676,True,36,1
PO-M-22M22S1,50,experiment,103,←,left,←,0.79264279990457,True,36,0
PO-M-22M22S1,51,experiment,84,↑,up,↑,0.5404805999714881,True,36,1
PO-M-22M22S1,52,experiment,54,→,right,→,0.46953739994205534,True,36,1
PO-M-22M22S1,53,experiment,75,←,left,←,0.7045024998951703,True,36,0
PO-M-22M22S1,54,experiment,76,→,right,→,0.6586458999663591,True,36,1
PO-M-22M22S1,55,experiment,62,→,right,→,0.6591918000485748,True,36,1
PO-M-22M22S1,56,experiment,85,↓,down,↓,0.5965990000404418,True,36,1
PO-M-22M22S1,57,experiment,66,→,right,→,0.5742021000478417,True,36,1
PO-M-22M22S1,58,experiment,50,↑,no_key,no_letter,-1.0,False,36,1
PO-M-22M22S1,59,experiment,57,↑,up,↑,0.5881193000823259,True,36,1
PO-M-22M22S1,60,experiment,53,↑,up,↑,0.8668957999907434,True,36,1
PO-M-22M22S1,61,experiment,55,←,no_key,no_letter,-1.0,False,36,1
PO-M-22M22S1,62,experiment,104,↑,up,↑,0.5077917000744492,True,36,1
PO-M-22M22S1,63,experiment,56,↓,up,↑,0.8124665000941604,False,36,1
PO-M-22M22S1,64,experiment,52,↓,down,↓,0.642550399992615,True,36,1
PO-M-22M22S1,65,experiment,61,↑,up,↑,0.4259248999878764,True,36,1
PO-M-22M22S1,66,experiment,59,→,right,→,0.6711768999230117,True,36,0
PO-M-22M22S1,67,experiment,63,↑,no_key,no_letter,-1.0,False,36,1
PO-M-22M22S1,68,experiment,73,→,right,→,0.5512978001497686,True,36,1
PO-M-22M22S1,69,experiment,92,←,left,←,0.5145555001217872,True,36,1
PO-M-22M22S1,70,experiment,68,↓,no_key,no_letter,-1.0,False,36,1
PO-M-22M22S1,71,experiment,90,←,left,←,0.4898639000020921,True,36,1
PO-M-22M22S1,72,experiment,98,→,left,←,0.8450118000619113,False,36,1
PO-M-22M22S1,73,experiment,97,←,left,←,0.5307007001247257,True,36,1
PO-M-22M22S1,74,experiment,102,→,right,→,0.539612099993974,True,36,1
PO-M-22M22S1,75,experiment,108,→,right,→,1.161038899794221,True,36,1
PO-M-22M22S1,76,experiment,87,←,left,←,0.44235670007765293,True,36,1
PO-M-22M22S1,77,experiment,107,←,left,←,0.41726460005156696,True,36,0
PO-M-22M22S1,78,experiment,100,↓,down,↓,0.41739280009642243,True,36,0
PO-M-22M22S1,79,experiment,79,→,right,→,0.5697908001020551,True,36,0
PO-M-22M22S1,80,experiment,70,↓,down,↓,0.450973300030455,True,36,1
PO-M-22M22S1,81,experiment,77,↓,down,↓,0.49501630011945963,True,36,0
PO-M-22M22S1,82,experiment,105,→,right,→,0.36719360016286373,True,36,1
PO-M-22M22S1,83,experiment,48,→,left,←,1.0161778000183403,False,36,0
PO-M-22M22S1,84,experiment,71,←,left,←,0.7516855001449585,True,36,1
PO-M-22M22S1,85,experiment,58,↑,up,↑,0.5739286998286843,True,36,1
PO-M-22M22S1,86,experiment,49,→,right,→,0.40938940015621483,True,36,1
PO-M-22M22S1,87,experiment,69,→,right,→,0.6224853000603616,True,36,0
PO-M-22M22S1,88,experiment,60,→,right,→,0.4009333997964859,True,36,1
PO-M-22M22S1,89,experiment,86,←,right,→,0.8279714998789132,False,36,0
PO-M-22M22S1,90,experiment,64,↑,up,↑,0.47734540002420545,True,36,1
PO-M-22M22S1,91,experiment,88,↓,down,↓,0.62887949985452,True,36,1
PO-M-22M22S1,92,experiment,78,←,left,←,0.41830109991133213,True,36,1
PO-M-22M22S1,93,experiment,96,←,left,←,0.6159256999380887,True,36,0
PO-M-22M22S1,94,experiment,67,↓,down,↓,0.5687371999956667,True,36,1
PO-M-22M22S1,95,experiment,74,→,down,↓,0.4817429000977427,False,36,1
PO-M-22M22S1,96,experiment,51,→,right,→,0.5247718999162316,True,36,1
PO-M-22M22S1,97,experiment,94,←,left,←,0.4419084000401199,True,36,1
PO-M-22M22S1,98,experiment,82,→,right,→,0.4904823999386281,True,36,0
PO-M-22M22S1,99,experiment,72,↓,down,↓,0.42478600004687905,True,36,1
PO-M-22M22S1,100,experiment,99,←,down,↓,0.3675848999992013,False,36,0
PO-M-22M22S1,101,experiment,93,↓,down,↓,0.47074420005083084,True,36,0
PO-M-22M22S1,102,experiment,91,↑,no_key,no_letter,-1.0,False,36,1
PO-M-22M22S1,103,experiment,95,→,right,→,0.6294482999946922,True,36,1
PO-M-22M22S1,104,training,55,↑,no_key,no_letter,-1.0,False,36,0
PO-M-22M22S1,105,training,58,→,right,→,0.5968095001298934,True,36,1
PO-M-22M22S1,106,experiment,97,↑,up,↑,0.376232499955222,True,36,1
PO-M-22M22S1,107,experiment,53,↓,down,↓,0.6754606999456882,True,36,0
PO-M-22M22S1,108,experiment,48,←,left,←,0.7041438999585807,True,36,1
PO-M-22M22S1,109,experiment,96,←,right,→,0.5078950999304652,False,36,1
PO-M-22M22S1,110,experiment,101,→,right,→,0.4337859000079334,True,36,1
PO-M-22M22S1,111,experiment,79,←,left,←,0.4424159999471158,True,36,0
PO-M-22M22S1,112,experiment,65,↑,up,↑,0.43395909992977977,True,36,0
PO-M-22M22S1,113,experiment,68,↓,down,↓,0.5681434001307935,True,36,0
PO-M-22M22S1,114,experiment,106,→,right,→,0.5338747999630868,True,36,1
PO-M-22M22S1,115,experiment,75,←,left,←,0.6633711000904441,True,36,1
PO-M-22M22S1,116,experiment,58,↓,down,↓,0.5211978000588715,True,36,1
PO-M-22M22S1,117,experiment,99,→,right,→,1.0668044001795352,True,36,1
PO-M-22M22S1,118,experiment,91,↓,no_key,no_letter,-1.0,False,36,1
PO-M-22M22S1,119,experiment,54,→,left,←,0.7765130000188947,False,36,1
PO-M-22M22S1,120,experiment,71,←,left,←,0.5854209999088198,True,36,1
PO-M-22M22S1,121,experiment,64,→,right,→,0.4093013999518007,True,36,1
PO-M-22M22S1,122,experiment,74,→,right,→,0.3838980000000447,True,36,0
PO-M-22M22S1,123,experiment,89,→,right,→,0.5332539998926222,True,36,0
PO-M-22M22S1,124,experiment,49,→,right,→,0.43435600004158914,True,36,1
PO-M-22M22S1,125,experiment,107,→,right,→,0.5859788998495787,True,36,0
PO-M-22M22S1,126,experiment,90,→,right,→,0.5241959998384118,True,36,1
PO-M-22M22S1,127,experiment,93,↑,up,↑,0.655803499976173,True,36,1
PO-M-22M22S1,128,experiment,69,↓,down,↓,0.5904494000133127,True,36,1
PO-M-22M22S1,129,experiment,81,→,right,→,0.603792899986729,True,36,1
PO-M-22M22S1,130,experiment,73,←,left,←,0.530769299948588,True,36,1
PO-M-22M22S1,131,experiment,62,↑,no_key,no_letter,-1.0,False,36,1
PO-M-22M22S1,132,experiment,77,↑,no_key,no_letter,-1.0,False,36,1
PO-M-22M22S1,133,experiment,66,→,right,→,0.4091030000708997,True,36,1
PO-M-22M22S1,134,experiment,104,→,left,←,0.38438690011389554,False,36,0
PO-M-22M22S1,135,experiment,86,→,no_key,no_letter,-1.0,False,36,0
PO-M-22M22S1,136,experiment,70,↓,right,→,1.5638364998158067,False,36,1
PO-M-22M22S1,137,experiment,102,↑,up,↑,0.5067535999696702,True,36,1
PO-M-22M22S1,138,experiment,103,→,right,→,0.4999190999660641,True,36,1
PO-M-22M22S1,139,experiment,92,→,right,→,1.4729566001333296,True,36,1
PO-M-22M22S1,140,experiment,100,←,left,←,0.5644688000902534,True,36,1
PO-M-22M22S1,141,experiment,76,↑,up,↑,0.4685578001663089,True,36,1
PO-M-22M22S1,142,experiment,95,←,left,←,0.4167951999697834,True,36,0
PO-M-22M22S1,143,experiment,98,→,right,→,0.28545080008916557,True,36,0
PO-M-22M22S1,144,experiment,108,↓,down,↓,0.4425441001076251,True,36,0
PO-M-22M22S1,145,experiment,83,←,left,←,0.5523814000189304,True,36,0
PO-M-22M22S1,146,experiment,67,←,left,←,0.5478375998791307,True,36,1
PO-M-22M22S1,147,experiment,59,↓,down,↓,0.5463431000243872,True,36,1
PO-M-22M22S1,148,experiment,88,→,left,←,0.48638999997638166,False,36,1
PO-M-22M22S1,149,experiment,72,←,right,→,0.4830549000762403,False,36,1
PO-M-22M22S1,150,experiment,51,↑,up,↑,0.5820379999931902,True,36,1
PO-M-22M22S1,151,experiment,84,←,left,←,0.5468525998294353,True,36,1
PO-M-22M22S1,152,experiment,50,↑,no_key,no_letter,-1.0,False,36,1
PO-M-22M22S1,153,experiment,82,←,left,←,0.4974473000038415,True,36,1
PO-M-22M22S1,154,experiment,55,↓,down,↓,0.530740600079298,True,36,1
PO-M-22M22S1,155,experiment,105,←,left,←,0.43447840004228055,True,36,1
PO-M-22M22S1,156,experiment,56,↑,up,↑,0.4690851999912411,True,36,0
PO-M-22M22S1,157,experiment,60,↓,down,↓,0.4166646001394838,True,36,0
PO-M-22M22S1,158,experiment,80,←,left,←,0.5298369999509305,True,36,0
PO-M-22M22S1,159,experiment,61,↓,down,↓,0.6080166997853667,True,36,1
PO-M-22M22S1,160,experiment,57,→,right,→,0.4845920999068767,True,36,1
PO-M-22M22S1,161,experiment,85,←,left,←,0.4255941999144852,True,36,1
PO-M-22M22S1,162,experiment,94,↑,up,↑,1.171976299956441,True,36,0
PO-M-22M22S1,163,experiment,78,→,right,→,0.6742226001806557,True,36,1
PO-M-22M22S1,164,experiment,87,↓,down,↓,0.5299980000127107,True,36,1
PO-M-22M22S1,165,experiment,63,↓,down,↓,0.44960639998316765,True,36,1
PO-M-22M22S1,166,experiment,52,←,left,←,0.40118389995768666,True,36,0
PO-M-22M22S1,167,training,70,→,right,→,0.6512495998758823,True,36,0
PO-M-22M22S1,168,training,94,→,right,→,1.2096169001888484,True,36,1
PO-M-22M22S1,169,experiment,81,←,left,←,0.43316929996944964,True,36,1
PO-M-22M22S1,170,experiment,49,←,left,←,0.4921752999071032,True,36,0
PO-M-22M22S1,171,experiment,87,←,left,←,0.6268939001020044,True,36,1
PO-M-22M22S1,172,experiment,56,↓,no_key,no_letter,-1.0,False,36,1
PO-M-22M22S1,173,experiment,73,↑,up,↑,0.54356350004673,True,36,1
PO-M-22M22S1,174,experiment,98,↑,up,↑,0.49674540013074875,True,36,1
PO-M-22M22S1,175,experiment,99,→,no_key,no_letter,-1.0,False,36,1
PO-M-22M22S1,176,experiment,82,↑,up,↑,0.5932732000946999,True,36,1
PO-M-22M22S1,177,experiment,58,↑,up,↑,0.5178366000764072,True,36,1
PO-M-22M22S1,178,experiment,91,←,left,←,0.5304199000820518,True,36,1
PO-M-22M22S1,179,experiment,78,←,left,←,0.42568910005502403,True,36,1
PO-M-22M22S1,180,experiment,61,↓,down,↓,0.4852787998970598,True,36,0
PO-M-22M22S1,181,experiment,72,←,left,←,0.8890075001399964,True,36,1
PO-M-22M22S1,182,experiment,95,↑,up,↑,1.2533768001012504,True,36,1
PO-M-22M22S1,183,experiment,62,←,left,←,0.590462899999693,True,36,1
PO-M-22M22S1,184,experiment,50,↑,up,↑,1.2380206999368966,True,36,1
PO-M-22M22S1,185,experiment,75,←,left,←,0.4174872001167387,True,36,1
PO-M-22M22S1,186,experiment,71,←,left,←,0.6418713999446481,True,36,0
PO-M-22M22S1,187,experiment,92,↑,up,↑,0.513853200012818,True,36,1
PO-M-22M22S1,188,experiment,55,↓,down,↓,0.5461749997921288,True,36,1
PO-M-22M22S1,189,experiment,100,↑,up,↑,0.4090454000979662,True,36,1
PO-M-22M22S1,190,experiment,106,→,left,←,0.4421926001086831,False,36,0
PO-M-22M22S1,191,experiment,89,↑,up,↑,0.5262658998835832,True,36,0
PO-M-22M22S1,192,experiment,86,↓,down,↓,0.5162033000960946,True,36,1
PO-M-22M22S1,193,experiment,85,↑,up,↑,0.40882680006325245,True,36,1
PO-M-22M22S1,194,experiment,63,↓,down,↓,0.6529910999815911,True,36,0
PO-M-22M22S1,195,experiment,67,↓,down,↓,0.7084318997804075,True,36,1
PO-M-22M22S1,196,experiment,68,↓,down,↓,0.7453116001561284,True,36,1
PO-M-22M22S1,197,experiment,104,↑,up,↑,0.6325437999330461,True,36,1
PO-M-22M22S1,198,experiment,97,↑,down,↓,0.47120349993929267,False,36,1
PO-M-22M22S1,199,experiment,66,→,right,→,0.47729910002090037,True,36,1
PO-M-22M22S1,200,experiment,102,↑,up,↑,0.4174184000585228,True,36,1
PO-M-22M22S1,201,experiment,51,←,left,←,0.47028609993867576,True,36,0
PO-M-22M22S1,202,experiment,79,↓,down,↓,0.5683336998336017,True,36,1
PO-M-22M22S1,203,experiment,83,↓,down,↓,0.5977596999146044,True,36,1
PO-M-22M22S1,204,experiment,52,→,right,→,0.40924660000018775,True,36,1
PO-M-22M22S1,205,experiment,107,←,left,←,0.6312909000553191,True,36,0
PO-M-22M22S1,206,experiment,76,↓,down,↓,0.8845617000479251,True,36,1
PO-M-22M22S1,207,experiment,70,→,left,←,0.5455034000333399,False,36,1
PO-M-22M22S1,208,experiment,103,→,right,→,0.5855636999476701,True,36,1
PO-M-22M22S1,209,experiment,93,↓,down,↓,0.578793799970299,True,36,1
PO-M-22M22S1,210,experiment,57,←,no_key,no_letter,-1.0,False,36,1
PO-M-22M22S1,211,experiment,53,→,left,←,0.5597333000041544,False,36,1
PO-M-22M22S1,212,experiment,80,←,left,←,0.4864777000620961,True,36,1
PO-M-22M22S1,213,experiment,101,↑,up,↑,0.4337863000109792,True,36,1
PO-M-22M22S1,214,experiment,69,←,left,←,0.37579970015212893,True,36,0
PO-M-22M22S1,215,experiment,90,←,up,↑,0.36748520005494356,False,36,0
PO-M-22M22S1,216,experiment,64,→,no_key,no_letter,-1.0,False,36,0
PO-M-22M22S1,217,experiment,84,↓,down,↓,0.5626742001622915,True,36,1
PO-M-22M22S1,218,experiment,105,←,left,←,0.6086979999672621,True,36,1
PO-M-22M22S1,219,experiment,77,↑,up,↑,0.630646700039506,True,36,1
PO-M-22M22S1,220,experiment,60,↑,up,↑,0.6490106000564992,True,36,1
PO-M-22M22S1,221,experiment,65,←,no_key,no_letter,-1.0,False,36,1
PO-M-22M22S1,222,experiment,108,→,right,→,0.6217656000517309,True,36,1
PO-M-22M22S1,223,experiment,96,→,right,→,0.44224980007857084,True,36,1
PO-M-22M22S1,224,experiment,59,←,left,←,0.47113450011238456,True,36,0
PO-M-22M22S1,225,experiment,74,↑,up,↑,0.5786522999405861,True,36,1
PO-M-22M22S1,226,experiment,54,↑,up,↑,0.553414500085637,True,36,1
PO-M-22M22S1,227,experiment,88,←,left,←,0.5657945000566542,True,36,1
PO-M-22M22S1,228,experiment,48,↓,down,↓,0.6151428001467139,True,36,1
PO-M-22M22S1,229,experiment,94,↓,down,↓,0.47945769992657006,True,36,1
PO-M-22M22S1,230,training,72,←,left,←,0.613674100022763,True,36,0
PO-M-22M22S1,231,training,78,←,right,→,0.4991798000410199,False,36,1
PO-M-22M22S1,232,experiment,86,↑,up,↑,0.522004900034517,True,36,1
PO-M-22M22S1,233,experiment,77,↑,up,↑,0.49161639995872974,True,36,1
PO-M-22M22S1,234,experiment,82,↓,down,↓,0.571797400014475,True,36,1
PO-M-22M22S1,235,experiment,68,↑,up,↑,0.41718919994309545,True,36,1
PO-M-22M22S1,236,experiment,102,↓,down,↓,0.367241800064221,True,36,0
PO-M-22M22S1,237,experiment,73,↓,down,↓,0.4991162000223994,True,36,0
PO-M-22M22S1,238,experiment,48,↑,up,↑,0.5589366999920458,True,36,1
PO-M-22M22S1,239,experiment,81,→,right,→,0.9492230999749154,True,36,1
PO-M-22M22S1,240,experiment,71,↓,down,↓,0.5033628998789936,True,36,1
PO-M-22M22S1,241,experiment,54,→,right,→,0.5851394000928849,True,36,1
PO-M-22M22S1,242,experiment,79,↓,down,↓,0.5750683001242578,True,36,1
PO-M-22M22S1,243,experiment,55,←,left,←,0.43387460010126233,True,36,1
PO-M-22M22S1,244,experiment,93,←,left,←,0.40075309993699193,True,36,0
PO-M-22M22S1,245,experiment,76,↑,up,↑,0.5226669998373836,True,36,0
PO-M-22M22S1,246,experiment,64,↑,up,↑,0.552016100147739,True,36,1
PO-M-22M22S1,247,experiment,107,↑,left,←,0.7980746999382973,False,36,1
PO-M-22M22S1,248,experiment,72,↓,down,↓,0.4785596001893282,True,36,1
PO-M-22M22S1,249,experiment,105,→,left,←,1.311120399972424,False,36,1
PO-M-22M22S1,250,experiment,65,↑,up,↑,0.8369931001216173,True,36,1
PO-M-22M22S1,251,experiment,94,←,no_key,no_letter,-1.0,False,36,1
PO-M-22M22S1,252,experiment,100,↑,left,←,0.9153264001943171,False,36,1
PO-M-22M22S1,253,experiment,56,←,left,←,0.4505206001922488,True,36,1
PO-M-22M22S1,254,experiment,63,↑,up,↑,0.852087200153619,True,36,0
PO-M-22M22S1,255,experiment,69,↑,up,↑,0.5708143000956625,True,36,1
PO-M-22M22S1,256,experiment,70,↓,down,↓,0.6681452998891473,True,36,1
PO-M-22M22S1,257,experiment,96,←,left,←,0.5372035000473261,True,36,1
PO-M-22M22S1,258,experiment,83,↓,down,↓,0.4805642000865191,True,36,1
PO-M-22M22S1,259,experiment,53,↑,up,↑,0.586830300046131,True,36,1
PO-M-22M22S1,260,experiment,92,←,left,←,0.5004845999646932,True,36,1
PO-M-22M22S1,261,experiment,66,→,right,→,0.49832610017620027,True,36,1
PO-M-22M22S1,262,experiment,49,↑,up,↑,0.9657062999904156,True,36,1
PO-M-22M22S1,263,experiment,103,←,up,↑,1.1484011001884937,False,36,1
PO-M-22M22S1,264,experiment,88,↑,no_key,no_letter,-1.0,False,36,1
PO-M-22M22S1,265,experiment,58,→,right,→,0.7421824999619275,True,36,1
PO-M-22M22S1,266,experiment,104,→,right,→,0.47083040000870824,True,36,1
PO-M-22M22S1,267,experiment,60,↓,down,↓,0.7181972998660058,True,36,1
PO-M-22M22S1,268,experiment,108,↓,up,↑,0.6611605999059975,False,36,1
PO-M-22M22S1,269,experiment,85,↓,down,↓,0.6061291000805795,True,36,1
PO-M-22M22S1,270,experiment,80,↑,up,↑,0.6190218001138419,True,36,1
PO-M-22M22S1,271,experiment,90,↓,down,↓,0.5001899998169392,True,36,1
PO-M-22M22S1,272,experiment,52,↑,up,↑,0.5190916999708861,True,36,1
PO-M-22M22S1,273,experiment,106,←,left,←,0.630170000018552,True,36,1
PO-M-22M22S1,274,experiment,51,←,left,←,0.43322230014018714,True,36,1
PO-M-22M22S1,275,experiment,57,←,left,←,0.5909215998835862,True,36,0
PO-M-22M22S1,276,experiment,87,↓,down,↓,0.4743051000405103,True,36,1
PO-M-22M22S1,277,experiment,67,↓,up,↑,1.1123406998813152,False,36,0
PO-M-22M22S1,278,experiment,61,→,down,↓,0.7992725998628885,False,36,1
PO-M-22M22S1,279,experiment,98,↑,down,↓,0.9424125000368804,False,36,1
PO-M-22M22S1,280,experiment,78,→,right,→,0.4510338001418859,True,36,1
PO-M-22M22S1,281,experiment,75,←,left,←,0.3926705999765545,True,36,0
PO-M-22M22S1,282,experiment,91,→,right,→,0.5559895001351833,True,36,0
PO-M-22M22S1,283,experiment,97,↓,down,↓,0.7731002001091838,True,36,1
PO-M-22M22S1,284,experiment,99,→,right,→,0.6128348999191076,True,36,1
PO-M-22M22S1,285,experiment,50,→,right,→,0.5555785000324249,True,36,1
PO-M-22M22S1,286,experiment,74,←,left,←,0.4256662998814136,True,36,1
PO-M-22M22S1,287,experiment,62,←,left,←,0.42551650013774633,True,36,0
PO-M-22M22S1,288,experiment,84,→,right,→,0.4084648999851197,True,36,0
PO-M-22M22S1,289,experiment,101,←,left,←,0.5739425998181105,True,36,0
PO-M-22M22S1,290,experiment,89,←,left,←,0.5290255998261273,True,36,1
PO-M-22M22S1,291,experiment,59,←,left,←,0.40096630016341805,True,36,1
PO-M-22M22S1,292,experiment,95,→,right,→,0.6076102999504656,True,36,0
PO-M-22M22S1,293,training,90,↓,no_key,no_letter,-1.0,False,36,0
PO-M-22M22S1,294,training,75,→,right,→,0.4883866999298334,True,36,1
PO-M-22M22S1,295,experiment,64,↑,up,↑,0.47050700010731816,True,36,1
PO-M-22M22S1,296,experiment,96,→,right,→,0.5070927999913692,True,36,0
PO-M-22M22S1,297,experiment,94,←,no_key,no_letter,-1.0,False,36,1
PO-M-22M22S1,298,experiment,73,↓,down,↓,0.7279955998528749,True,36,1
PO-M-22M22S1,299,experiment,85,←,left,←,0.5423076001461595,True,36,1
PO-M-22M22S1,300,experiment,56,↑,up,↑,0.6055249001365155,True,36,1
PO-M-22M22S1,301,experiment,62,←,left,←,0.42582680005580187,True,36,1
PO-M-22M22S1,302,experiment,70,↑,up,↑,0.527361299842596,True,36,0
PO-M-22M22S1,303,experiment,89,↑,up,↑,0.49254600005224347,True,36,1
PO-M-22M22S1,304,experiment,105,↑,up,↑,0.42566829989664257,True,36,1
PO-M-22M22S1,305,experiment,61,↑,up,↑,0.3831485998816788,True,36,0
PO-M-22M22S1,306,experiment,93,→,right,→,0.5926781999878585,True,36,0
PO-M-22M22S1,307,experiment,101,↓,down,↓,0.6470343000255525,True,36,1
PO-M-22M22S1,308,experiment,79,↓,down,↓,0.42574660014361143,True,36,1
PO-M-22M22S1,309,experiment,68,↓,down,↓,0.5061797997914255,True,36,0
PO-M-22M22S1,310,experiment,53,↑,up,↑,0.5399321001023054,True,36,1
PO-M-22M22S1,311,experiment,88,↓,down,↓,0.5288633999880403,True,36,1
PO-M-22M22S1,312,experiment,100,↑,up,↑,0.5300489000510424,True,36,1
PO-M-22M22S1,313,experiment,83,→,right,→,0.6087617999874055,True,36,1
PO-M-22M22S1,314,experiment,67,←,left,←,0.35908900015056133,True,36,1
PO-M-22M22S1,315,experiment,103,↓,left,←,0.5845009998884052,False,36,0
PO-M-22M22S1,316,experiment,90,←,left,←,0.5147164999507368,True,36,1
PO-M-22M22S1,317,experiment,58,→,right,→,0.5070161998737603,True,36,1
PO-M-22M22S1,318,experiment,81,←,left,←,0.7151555998716503,True,36,1
PO-M-22M22S1,319,experiment,69,→,left,←,1.0393070001155138,False,36,1
PO-M-22M22S1,320,experiment,60,←,left,←,0.5851096999831498,True,36,1
PO-M-22M22S1,321,experiment,50,←,left,←,0.47352899983525276,True,36,1
PO-M-22M22S1,322,experiment,59,→,right,→,0.4904850998427719,True,36,1
PO-M-22M22S1,323,experiment,82,←,left,←,0.4005122999660671,True,36,1
PO-M-22M22S1,324,experiment,57,↓,down,↓,0.6548888999968767,True,36,0
PO-M-22M22S1,325,experiment,54,←,left,←,0.6743226998951286,True,36,1
PO-M-22M22S1,326,experiment,84,→,right,→,0.38402980007231236,True,36,1
PO-M-22M22S1,327,experiment,95,↓,down,↓,0.4177121000830084,True,36,0
PO-M-22M22S1,328,experiment,87,↑,no_key,no_letter,-1.0,False,36,0
PO-M-22M22S1,329,experiment,102,←,right,→,0.6679343001451343,False,36,1
PO-M-22M22S1,330,experiment,66,↓,left,←,0.40047649992629886,False,36,1
PO-M-22M22S1,331,experiment,98,→,right,→,0.37565689999610186,True,36,0
PO-M-22M22S1,332,experiment,77,↓,down,↓,0.4505290000233799,True,36,0
PO-M-22M22S1,333,experiment,78,↑,up,↑,0.5961107001639903,True,36,0
PO-M-22M22S1,334,experiment,74,←,left,←,0.47578979982063174,True,36,1
PO-M-22M22S1,335,experiment,72,→,right,→,0.599366300040856,True,36,1
PO-M-22M22S1,336,experiment,86,→,no_key,no_letter,-1.0,False,36,1
PO-M-22M22S1,337,experiment,76,↑,right,→,0.5220221001654863,False,36,1
PO-M-22M22S1,338,experiment,106,↑,up,↑,0.545479099964723,True,36,1
PO-M-22M22S1,339,experiment,80,←,up,↑,0.6728997000027448,False,36,1
PO-M-22M22S1,340,experiment,52,↑,up,↑,0.484777299920097,True,36,1
PO-M-22M22S1,341,experiment,75,↓,down,↓,0.40910249995067716,True,36,1
PO-M-22M22S1,342,experiment,92,→,right,→,0.4507873000111431,True,36,0
PO-M-22M22S1,343,experiment,104,↑,up,↑,0.5625654000323266,True,36,0
PO-M-22M22S1,344,experiment,65,↑,up,↑,0.40085849980823696,True,36,1
PO-M-22M22S1,345,experiment,51,↑,up,↑,0.34230299992486835,True,36,0
PO-M-22M22S1,346,experiment,55,←,up,↑,0.3174079000018537,False,36,0
PO-M-22M22S1,347,experiment,49,↑,no_key,no_letter,-1.0,False,36,0
PO-M-22M22S1,348,experiment,91,↓,down,↓,0.4265352999791503,True,36,1
PO-M-22M22S1,349,experiment,63,→,right,→,0.4176304000429809,True,36,0
PO-M-22M22S1,350,experiment,48,↑,left,←,0.9450031998567283,False,36,0
PO-M-22M22S1,351,experiment,108,←,left,←,0.5192788999993354,True,36,1
PO-M-22M22S1,352,experiment,99,→,right,→,0.8811979999300092,True,36,1
PO-M-22M22S1,353,experiment,71,↑,no_key,no_letter,-1.0,False,36,1
PO-M-22M22S1,354,experiment,97,←,left,←,0.39159650006331503,True,36,1
PO-M-22M22S1,355,experiment,107,→,right,→,0.5145639001857489,True,36,0
PO-M-22M22S1,356,training,60,→,right,→,0.5793274999596179,True,36,0
PO-M-22M22S1,357,training,81,↑,up,↑,0.6647354001179338,True,36,1
PO-M-22M22S1,358,experiment,91,↓,down,↓,0.583402399905026,True,36,1
PO-M-22M22S1,359,experiment,99,↓,down,↓,0.5669731001835316,True,36,1
PO-M-22M22S1,360,experiment,100,←,left,←,0.39193010004237294,True,36,1
PO-M-22M22S1,361,experiment,56,←,left,←,0.6034263998735696,True,36,0
PO-M-22M22S1,362,experiment,73,←,no_key,no_letter,-1.0,False,36,1
PO-M-22M22S1,363,experiment,92,↑,up,↑,0.6771710999310017,True,36,1
PO-M-22M22S1,364,experiment,66,↓,down,↓,0.4508636000100523,True,36,1
PO-M-22M22S1,365,experiment,97,↓,down,↓,0.47352859983220696,True,36,0
PO-M-22M22S1,366,experiment,89,→,down,↓,0.49566929996944964,False,36,1
PO-M-22M22S1,367,experiment,79,↓,down,↓,0.4342247999738902,True,36,1
PO-M-22M22S1,368,experiment,50,↓,down,↓,0.5185167999006808,True,36,0
PO-M-22M22S1,369,experiment,84,→,right,→,0.6215324001386762,True,36,1
PO-M-22M22S1,370,experiment,71,↓,down,↓,0.5809172000735998,True,36,1
PO-M-22M22S1,371,experiment,72,→,right,→,0.4507238999940455,True,36,1
PO-M-22M22S1,372,experiment,90,→,right,→,0.564678099937737,True,36,0
PO-M-22M22S1,373,experiment,52,←,left,←,0.47684929985553026,True,36,1
PO-M-22M22S1,374,experiment,103,→,right,→,0.7184763001278043,True,36,1
PO-M-22M22S1,375,experiment,61,↓,down,↓,0.6130508999340236,True,36,1
PO-M-22M22S1,376,experiment,54,↑,up,↑,0.5222453000023961,True,36,1
PO-M-22M22S1,377,experiment,55,→,right,→,0.4260712000541389,True,36,1
PO-M-22M22S1,378,experiment,77,↓,down,↓,0.6632403000257909,True,36,0
PO-M-22M22S1,379,experiment,75,↓,down,↓,0.49959739996120334,True,36,1
PO-M-22M22S1,380,experiment,70,↓,no_key,no_letter,-1.0,False,36,1
PO-M-22M22S1,381,experiment,57,↑,up,↑,0.6618798000272363,True,36,1
PO-M-22M22S1,382,experiment,94,↓,down,↓,0.5877324999310076,True,36,1
PO-M-22M22S1,383,experiment,101,↑,up,↑,0.6025183000601828,True,36,1
PO-M-22M22S1,384,experiment,106,↑,up,↑,0.5666571001056582,True,36,1
PO-M-22M22S1,385,experiment,85,→,right,→,0.6514439000748098,True,36,1
PO-M-22M22S1,386,experiment,105,↓,no_key,no_letter,-1.0,False,36,1
PO-M-22M22S1,387,experiment,48,←,left,←,0.6072098999284208,True,36,1
PO-M-22M22S1,388,experiment,64,↑,up,↑,0.6250938000157475,True,36,1
PO-M-22M22S1,389,experiment,68,↓,down,↓,0.6650614000391215,True,36,1
PO-M-22M22S1,390,experiment,67,←,left,←,0.6401370998937637,True,36,1
PO-M-22M22S1,391,experiment,93,→,right,→,0.44962410000152886,True,36,1
PO-M-22M22S1,392,experiment,102,↑,left,←,0.5303446999751031,False,36,0
PO-M-22M22S1,393,experiment,49,↓,down,↓,0.6522019000258297,True,36,1
PO-M-22M22S1,394,experiment,107,←,left,←,0.6063972001429647,True,36,1
PO-M-22M22S1,395,experiment,69,↓,down,↓,0.5188006998505443,True,36,1
PO-M-22M22S1,396,experiment,63,↓,down,↓,0.49320079991593957,True,36,1
PO-M-22M22S1,397,experiment,83,→,right,→,0.5812536999583244,True,36,1
PO-M-22M22S1,398,experiment,98,→,left,←,1.0930197001434863,False,36,1
PO-M-22M22S1,399,experiment,78,→,left,←,0.7830229001119733,False,36,1
PO-M-22M22S1,400,experiment,60,→,right,→,0.6352816000580788,True,36,1
PO-M-22M22S1,401,experiment,87,↓,down,↓,0.6206674999557436,True,36,1
PO-M-22M22S1,402,experiment,88,↓,down,↓,0.48680870002135634,True,36,1
PO-M-22M22S1,403,experiment,95,←,left,←,0.5146957000251859,True,36,1
PO-M-22M22S1,404,experiment,74,→,right,→,0.6452128000091761,True,36,1
PO-M-22M22S1,405,experiment,59,↓,down,↓,0.5599495999049395,True,36,1
PO-M-22M22S1,406,experiment,76,↑,up,↑,0.5676849998999387,True,36,1
PO-M-22M22S1,407,experiment,51,→,no_key,no_letter,-1.0,False,36,1
PO-M-22M22S1,408,experiment,80,↑,up,↑,0.518095700070262,True,36,1
PO-M-22M22S1,409,experiment,108,→,right,→,0.41756380000151694,True,36,1
PO-M-22M22S1,410,experiment,104,↑,up,↑,0.5292519999202341,True,36,0
PO-M-22M22S1,411,experiment,58,←,left,←,0.6243094000965357,True,36,1
PO-M-22M22S1,412,experiment,86,↑,up,↑,0.562732599908486,True,36,1
PO-M-22M22S1,413,experiment,62,↓,down,↓,0.4869470000267029,True,36,1
PO-M-22M22S1,414,experiment,81,→,right,→,0.5283535001799464,True,36,1
PO-M-22M22S1,415,experiment,96,→,right,→,0.3923683001194149,True,36,1
PO-M-22M22S1,416,experiment,65,←,left,←,0.6215866999700665,True,36,0
PO-M-22M22S1,417,experiment,82,↑,up,↑,0.5605465001426637,True,36,1
PO-M-22M22S1,418,experiment,53,→,right,→,0.3508006001356989,True,36,1
PO-M-22M22S1,419,training,79,→,no_key,no_letter,-1.0,False,36,0
PO-M-22M22S1,420,training,50,←,left,←,0.7650107000954449,True,36,1
PO-M-22M22S1,421,experiment,48,↑,up,↑,0.5738848999608308,True,36,1
PO-M-22M22S1,422,experiment,104,→,right,→,0.5239046001806855,True,36,1
PO-M-22M22S1,423,experiment,70,↓,down,↓,0.6556287000421435,True,36,1
PO-M-22M22S1,424,experiment,92,↑,up,↑,0.5743071001488715,True,36,1
PO-M-22M22S1,425,experiment,82,→,right,→,0.6275701001286507,True,36,1
PO-M-22M22S1,426,experiment,53,→,right,→,0.7285627000965178,True,36,1
PO-M-22M22S1,427,experiment,108,↑,up,↑,0.4422637999523431,True,36,1
PO-M-22M22S1,428,experiment,107,←,left,←,0.5132738000247627,True,36,0
PO-M-22M22S1,429,experiment,55,↑,up,↑,0.4979985000099987,True,36,1
PO-M-22M22S1,430,experiment,49,↓,down,↓,0.613694200059399,True,36,1
PO-M-22M22S1,431,experiment,75,→,right,→,0.8357581000309438,True,36,1
PO-M-22M22S1,432,experiment,50,↑,up,↑,0.5454281000420451,True,36,1
PO-M-22M22S1,433,experiment,56,↓,down,↓,0.5606724999379367,True,36,1
PO-M-22M22S1,434,experiment,97,↑,up,↑,0.4266550000756979,True,36,1
PO-M-22M22S1,435,experiment,106,↓,down,↓,0.5485316999256611,True,36,0
PO-M-22M22S1,436,experiment,93,→,no_key,no_letter,-1.0,False,36,1
PO-M-22M22S1,437,experiment,60,↑,up,↑,0.4766901000402868,True,36,1
PO-M-22M22S1,438,experiment,58,←,left,←,0.5177906998433173,True,36,1
PO-M-22M22S1,439,experiment,88,→,right,→,0.4989779000170529,True,36,1
PO-M-22M22S1,440,experiment,72,←,left,←,0.4945745998993516,True,36,1
PO-M-22M22S1,441,experiment,95,↓,down,↓,0.5628965999931097,True,36,1
PO-M-22M22S1,442,experiment,90,↑,up,↑,0.5176943999249488,True,36,1
PO-M-22M22S1,443,experiment,83,←,left,←,0.6132373998407274,True,36,1
PO-M-22M22S1,444,experiment,79,←,left,←,0.38413530006073415,True,36,1
PO-M-22M22S1,445,experiment,63,→,left,←,0.3748841998167336,False,36,0
PO-M-22M22S1,446,experiment,62,↓,up,↑,1.593218500027433,False,36,0
PO-M-22M22S1,447,experiment,84,→,right,→,0.5735311000607908,True,36,1
PO-M-22M22S1,448,experiment,74,↑,up,↑,0.5012640000786632,True,36,1
PO-M-22M22S1,449,experiment,52,→,right,→,0.5274974999483675,True,36,1
PO-M-22M22S1,450,experiment,71,←,no_key,no_letter,-1.0,False,36,1
PO-M-22M22S1,451,experiment,100,→,right,→,0.4903090000152588,True,36,1
PO-M-22M22S1,452,experiment,54,↑,up,↑,0.5642846999689937,True,36,1
PO-M-22M22S1,453,experiment,76,→,right,→,0.5239731001202017,True,36,1
PO-M-22M22S1,454,experiment,73,↓,down,↓,0.6222756998613477,True,36,1
PO-M-22M22S1,455,experiment,80,↑,up,↑,0.5623957000207156,True,36,1
PO-M-22M22S1,456,experiment,101,←,left,←,0.4007298999931663,True,36,1
PO-M-22M22S1,457,experiment,87,←,left,←,0.5087079000659287,True,36,0
PO-M-22M22S1,458,experiment,51,←,left,←,0.450810199836269,True,36,1
PO-M-22M22S1,459,experiment,105,↑,up,↑,0.5612818000372499,True,36,0
PO-M-22M22S1,460,experiment,78,↓,down,↓,0.4812034999486059,True,36,1
PO-M-22M22S1,461,experiment,57,→,right,→,0.5685882999096066,True,36,1
PO-M-22M22S1,462,experiment,68,↓,right,→,0.6190326998475939,False,36,1
PO-M-22M22S1,463,experiment,102,↑,up,↑,0.42568750004284084,True,36,1
PO-M-22M22S1,464,experiment,94,↑,up,↑,0.3837536999490112,True,36,0
PO-M-22M22S1,465,experiment,89,→,right,→,0.47382119996473193,True,36,0
PO-M-22M22S1,466,experiment,103,←,left,←,0.4837618002202362,True,36,1
PO-M-22M22S1,467,experiment,66,→,right,→,0.4352301999460906,True,36,1
PO-M-22M22S1,468,experiment,96,↓,up,↑,0.6159385999199003,False,36,0
PO-M-22M22S1,469,experiment,61,↑,right,→,0.4830701001919806,False,36,1
PO-M-22M22S1,470,experiment,81,←,left,←,0.6362118001561612,True,36,1
PO-M-22M22S1,471,experiment,65,→,right,→,0.62877790001221,True,36,1
PO-M-22M22S1,472,experiment,64,↑,up,↑,0.7504944000393152,True,36,1
PO-M-22M22S1,473,experiment,69,↓,down,↓,0.5931222999934107,True,36,1
PO-M-22M22S1,474,experiment,91,↓,down,↓,0.7304070999380201,True,36,1
PO-M-22M22S1,475,experiment,86,←,left,←,0.38403819990344346,True,36,1
PO-M-22M22S1,476,experiment,85,↓,down,↓,0.4844170999713242,True,36,0
PO-M-22M22S1,477,experiment,77,←,left,←,0.582650100113824,True,36,1
PO-M-22M22S1,478,experiment,67,→,right,→,0.6007332000881433,True,36,1
PO-M-22M22S1,479,experiment,98,→,left,←,0.41747560002841055,False,36,1
PO-M-22M22S1,480,experiment,59,→,left,←,0.49869749997742474,False,36,0
PO-M-22M22S1,481,experiment,99,↓,down,↓,0.6692796000279486,True,36,1
PO-M-22M22S1,482,training,55,→,left,←,0.82781370007433,False,36,0
PO-M-22M22S1,483,training,61,↑,up,↑,0.534368900116533,True,36,1
PO-M-22M22S1,484,experiment,69,→,right,→,0.4817025999072939,True,36,1
PO-M-22M22S1,485,experiment,49,↑,up,↑,0.49388330010697246,True,36,1
PO-M-22M22S1,486,experiment,61,↑,up,↑,0.5337270000018179,True,36,1
PO-M-22M22S1,487,experiment,66,←,left,←,0.49821510002948344,True,36,1
PO-M-22M22S1,488,experiment,74,↑,up,↑,0.6770808999426663,True,36,1
PO-M-22M22S1,489,experiment,54,→,right,→,0.5678240999113768,True,36,1
PO-M-22M22S1,490,experiment,72,←,right,→,0.6007542000152171,False,36,1
PO-M-22M22S1,491,experiment,52,↓,down,↓,0.43345510005019605,True,36,1
PO-M-22M22S1,492,experiment,76,↑,no_key,no_letter,-1.0,False,36,0
PO-M-22M22S1,493,experiment,86,↑,up,↑,0.5843172001186758,True,36,1
PO-M-22M22S1,494,experiment,71,↑,up,↑,0.4733859000261873,True,36,1
PO-M-22M22S1,495,experiment,104,→,right,→,0.45073889987543225,True,36,0
PO-M-22M22S1,496,experiment,108,←,left,←,0.34219520003534853,True,36,0
PO-M-22M22S1,497,experiment,94,←,right,→,0.3092110001016408,False,36,0
PO-M-22M22S1,498,experiment,63,↓,down,↓,0.7648877999745309,True,36,0
PO-M-22M22S1,499,experiment,98,←,left,←,0.4697585999965668,True,36,1
PO-M-22M22S1,500,experiment,81,↑,up,↑,0.5430738001596183,True,36,1
PO-M-22M22S1,501,experiment,79,↓,left,←,0.43301729997619987,False,36,1
PO-M-22M22S1,502,experiment,105,↓,down,↓,0.5297799999825656,True,36,0
PO-M-22M22S1,503,experiment,95,↑,left,←,0.3844657000154257,False,36,1
PO-M-22M22S1,504,experiment,68,←,left,←,1.2058999000582844,True,36,0
PO-M-22M22S1,505,experiment,84,↓,down,↓,0.5691551000345498,True,36,1
PO-M-22M22S1,506,experiment,90,←,left,←,0.5244064999278635,True,36,1
PO-M-22M22S1,507,experiment,85,→,right,→,0.44286459987051785,True,36,1
PO-M-22M22S1,508,experiment,78,←,left,←,0.6786034000106156,True,36,0
PO-M-22M22S1,509,experiment,60,←,left,←,0.6152248999569565,True,36,1
PO-M-22M22S1,510,experiment,103,→,no_key,no_letter,-1.0,False,36,1
PO-M-22M22S1,511,experiment,65,↑,up,↑,0.5591132999397814,True,36,1
PO-M-22M22S1,512,experiment,59,←,left,←,0.573005200130865,True,36,1
PO-M-22M22S1,513,experiment,80,↓,down,↓,0.6667980998754501,True,36,1
PO-M-22M22S1,514,experiment,75,↑,up,↑,0.5749367999378592,True,36,1
PO-M-22M22S1,515,experiment,91,↑,up,↑,0.5614713001996279,True,36,1
PO-M-22M22S1,516,experiment,64,↑,up,↑,0.48554029990918934,True,36,1
PO-M-22M22S1,517,experiment,73,←,no_key,no_letter,-1.0,False,36,1
PO-M-22M22S1,518,experiment,100,→,right,→,0.5131830999162048,True,36,1
PO-M-22M22S1,519,experiment,53,→,right,→,0.44273380003869534,True,36,1
PO-M-22M22S1,520,experiment,97,↑,up,↑,0.4880697999615222,True,36,0
PO-M-22M22S1,521,experiment,58,←,left,←,0.4171710000373423,True,36,1
PO-M-22M22S1,522,experiment,77,↑,up,↑,0.4340321000199765,True,36,0
PO-M-22M22S1,523,experiment,101,→,right,→,0.5300056000705808,True,36,0
PO-M-22M22S1,524,experiment,57,↓,down,↓,0.5615320999640971,True,36,1
PO-M-22M22S1,525,experiment,99,→,up,↑,0.6579519000370055,False,36,1
PO-M-22M22S1,526,experiment,82,↓,down,↓,0.5957758999429643,True,36,1
PO-M-22M22S1,527,experiment,88,↑,up,↑,0.6222583001945168,True,36,1
PO-M-22M22S1,528,experiment,96,→,right,→,0.516982400091365,True,36,1
PO-M-22M22S1,529,experiment,62,↑,up,↑,0.4836862999945879,True,36,1
PO-M-22M22S1,530,experiment,56,↑,no_key,no_letter,-1.0,False,36,1
PO-M-22M22S1,531,experiment,50,↑,up,↑,0.5252753000240773,True,36,1
PO-M-22M22S1,532,experiment,93,←,left,←,0.4089247998781502,True,36,1
PO-M-22M22S1,533,experiment,67,←,left,←,0.43486480019055307,True,36,0
PO-M-22M22S1,534,experiment,87,←,left,←,0.4426467998418957,True,36,0
PO-M-22M22S1,535,experiment,51,←,left,←,0.41733859991654754,True,36,0
PO-M-22M22S1,536,experiment,89,←,no_key,no_letter,-1.0,False,36,0
PO-M-22M22S1,537,experiment,107,→,right,→,0.5898015999700874,True,36,1
PO-M-22M22S1,538,experiment,83,→,right,→,0.6578816000837833,True,36,1
PO-M-22M22S1,539,experiment,55,↑,up,↑,0.5411125998944044,True,36,1
PO-M-22M22S1,540,experiment,102,↓,down,↓,0.4771147998981178,True,36,1
PO-M-22M22S1,541,experiment,106,↑,no_key,no_letter,-1.0,False,36,1
PO-M-22M22S1,542,experiment,48,↑,up,↑,0.6073471999261528,True,36,1
PO-M-22M22S1,543,experiment,92,←,left,←,0.4340379999484867,True,36,1
PO-M-22M22S1,544,experiment,70,↑,up,↑,0.7589274998754263,True,36,0
PO-M-22M22S1,545,training,72,↓,down,↓,0.6645937999710441,True,36,0
PO-M-22M22S1,546,training,56,←,left,←,0.4333572001196444,True,36,1
PO-M-22M22S1,547,experiment,73,↓,down,↓,0.4424703000113368,True,36,0
PO-M-22M22S1,548,experiment,78,↓,down,↓,0.4004925999324769,True,36,0
PO-M-22M22S1,549,experiment,88,→,right,→,0.35984529997222126,True,36,0
PO-M-22M22S1,550,experiment,96,←,left,←,0.6633939000312239,True,36,0
PO-M-22M22S1,551,experiment,91,↓,down,↓,0.5422054999507964,True,36,1
PO-M-22M22S1,552,experiment,48,↓,down,↓,0.41749630006961524,True,36,1
PO-M-22M22S1,553,experiment,100,↑,up,↑,0.781274399952963,True,36,0
PO-M-22M22S1,554,experiment,83,→,right,→,0.5220907998736948,True,36,1
PO-M-22M22S1,555,experiment,108,←,left,←,0.5531534000765532,True,36,1
PO-M-22M22S1,556,experiment,57,→,right,→,0.3585062001366168,True,36,1
PO-M-22M22S1,557,experiment,102,→,right,→,0.4711079001426697,True,36,0
PO-M-22M22S1,558,experiment,84,→,right,→,0.53542590001598,True,36,0
PO-M-22M22S1,559,experiment,77,←,left,←,0.48062040004879236,True,36,1
PO-M-22M22S1,560,experiment,63,↓,down,↓,0.6479669001419097,True,36,1
PO-M-22M22S1,561,experiment,52,←,left,←,0.4428343002218753,True,36,1
PO-M-22M22S1,562,experiment,55,←,left,←,0.368472000118345,True,36,0
PO-M-22M22S1,563,experiment,65,→,right,→,0.43407970014959574,True,36,0
PO-M-22M22S1,564,experiment,93,↓,down,↓,0.43428919999860227,True,36,0
PO-M-22M22S1,565,experiment,90,←,left,←,0.36711260001175106,True,36,0
PO-M-22M22S1,566,experiment,92,→,right,→,0.40951810008846223,True,36,0
PO-M-22M22S1,567,experiment,54,←,left,←,0.6646328000351787,True,36,0
PO-M-22M22S1,568,experiment,64,↓,down,↓,0.4421806000173092,True,36,1
PO-M-22M22S1,569,experiment,66,↑,up,↑,0.57596500008367,True,36,0
PO-M-22M22S1,570,experiment,76,←,no_key,no_letter,-1.0,False,36,1
PO-M-22M22S1,571,experiment,89,↑,up,↑,0.5546101999934763,True,36,1
PO-M-22M22S1,572,experiment,68,→,right,→,0.4694556000176817,True,36,1
PO-M-22M22S1,573,experiment,94,↓,down,↓,0.5227365999016911,True,36,0
PO-M-22M22S1,574,experiment,62,↑,up,↑,0.5766312999185175,True,36,1
PO-M-22M22S1,575,experiment,74,→,right,→,0.49697740003466606,True,36,1
PO-M-22M22S1,576,experiment,71,←,left,←,0.44220000016503036,True,36,1
PO-M-22M22S1,577,experiment,87,↑,up,↑,0.5577167000155896,True,36,0
PO-M-22M22S1,578,experiment,99,↓,down,↓,0.6143357998225838,True,36,1
PO-M-22M22S1,579,experiment,59,←,left,←,0.40908659994602203,True,36,1
PO-M-22M22S1,580,experiment,69,↓,down,↓,0.6016413001343608,True,36,0
PO-M-22M22S1,581,experiment,103,↓,down,↓,0.5989260000642389,True,36,1
PO-M-22M22S1,582,experiment,79,←,left,←,0.5962845999747515,True,36,1
PO-M-22M22S1,583,experiment,50,↓,down,↓,0.5716268999967724,True,36,1
PO-M-22M22S1,584,experiment,105,→,right,→,0.4893467000219971,True,36,1
PO-M-22M22S1,585,experiment,82,←,no_key,no_letter,-1.0,False,36,1
PO-M-22M22S1,586,experiment,72,↓,down,↓,0.5148505999241024,True,36,1
PO-M-22M22S1,587,experiment,53,↓,no_key,no_letter,-1.0,False,36,1
PO-M-22M22S1,588,experiment,95,←,left,←,0.7173500000499189,True,36,1
PO-M-22M22S1,589,experiment,101,↓,up,↑,0.5346749001182616,False,36,1
PO-M-22M22S1,590,experiment,58,→,right,→,0.5337915997952223,True,36,1
PO-M-22M22S1,591,experiment,75,↑,up,↑,0.5193981998600066,True,36,1
PO-M-22M22S1,592,experiment,98,→,right,→,0.4743391000665724,True,36,1
PO-M-22M22S1,593,experiment,49,↓,down,↓,0.6619382000062615,True,36,1
PO-M-22M22S1,594,experiment,104,↑,up,↑,0.5768336998298764,True,36,1
PO-M-22M22S1,595,experiment,51,↑,up,↑,0.632648500148207,True,36,1
PO-M-22M22S1,596,experiment,85,←,left,←,0.578649700153619,True,36,1
PO-M-22M22S1,597,experiment,70,↑,left,←,0.796103100059554,False,36,1
PO-M-22M22S1,598,experiment,61,↑,up,↑,0.42567910021170974,True,36,1
PO-M-22M22S1,599,experiment,56,↑,up,↑,0.5074094000738114,True,36,0
PO-M-22M22S1,600,experiment,86,↓,down,↓,0.6261261000763625,True,36,1
PO-M-22M22S1,601,experiment,106,↑,up,↑,0.32650279998779297,True,36,1
PO-M-22M22S1,602,experiment,80,→,right,→,0.509060800075531,True,36,0
PO-M-22M22S1,603,experiment,97,←,left,←,0.6158514998387545,True,36,1
PO-M-22M22S1,604,experiment,60,→,right,→,0.4678201999049634,True,36,1
PO-M-22M22S1,605,experiment,107,↑,up,↑,0.508022699970752,True,36,0
PO-M-22M22S1,606,experiment,67,←,left,←,0.7851746999658644,True,36,1
PO-M-22M22S1,607,experiment,81,→,right,→,0.5425134999677539,True,36,1
PO-M-22M22S1,608,training,88,↑,up,↑,0.4256664998829365,True,35,0
PO-M-22M22S1,609,training,107,→,right,→,0.4423936998937279,True,35,0
PO-M-22M22S1,610,experiment,61,←,left,←,0.608249899931252,True,35,0
PO-M-22M22S1,611,experiment,58,→,right,→,0.6603151001036167,True,35,1
PO-M-22M22S1,612,experiment,53,↑,up,↑,0.46415340015664697,True,35,1
PO-M-22M22S1,613,experiment,77,→,right,→,0.44214330008253455,True,35,0
PO-M-22M22S1,614,experiment,59,↓,up,↑,0.6295458001550287,False,35,0
PO-M-22M22S1,615,experiment,65,↑,up,↑,0.4173985000234097,True,35,1
PO-M-22M22S1,616,experiment,74,↓,up,↑,0.47691569989547133,False,35,0
PO-M-22M22S1,617,experiment,64,↑,up,↑,0.5234454001765698,True,35,1
PO-M-22M22S1,618,experiment,89,↓,down,↓,0.480699900072068,True,35,1
PO-M-22M22S1,619,experiment,51,↑,no_key,no_letter,-1.0,False,35,1
PO-M-22M22S1,620,experiment,102,←,left,←,0.5711787000764161,True,35,1
PO-M-22M22S1,621,experiment,75,↑,up,↑,0.43421289999969304,True,35,1
PO-M-22M22S1,622,experiment,82,↑,down,↓,0.6458161999471486,False,35,0
PO-M-22M22S1,623,experiment,95,←,left,←,0.516158799873665,True,35,1
PO-M-22M22S1,624,experiment,81,←,left,←,0.4685231999028474,True,35,1
PO-M-22M22S1,625,experiment,54,↑,no_key,no_letter,-1.0,False,35,1
PO-M-22M22S1,626,experiment,63,↓,down,↓,0.4259421001188457,True,35,1
PO-M-22M22S1,627,experiment,80,↑,up,↑,0.622767300112173,True,35,0
PO-M-22M22S1,628,experiment,97,↓,down,↓,0.6453307000920177,True,35,1
PO-M-22M22S1,629,experiment,56,↓,down,↓,0.6168311999645084,True,35,1
PO-M-22M22S1,630,experiment,92,→,right,→,0.48899980005808175,True,35,1
PO-M-22M22S1,631,experiment,70,←,left,←,0.5816617999225855,True,35,1
PO-M-22M22S1,632,experiment,83,↑,up,↑,0.6183718000538647,True,35,1
PO-M-22M22S1,633,experiment,50,←,left,←,0.5367470001801848,True,35,1
PO-M-22M22S1,634,experiment,90,→,left,←,0.41719540022313595,False,35,1
PO-M-22M22S1,635,experiment,67,↓,down,↓,0.6056470000185072,True,35,0
PO-M-22M22S1,636,experiment,94,↑,up,↑,0.5576470999512821,True,35,1
PO-M-22M22S1,637,experiment,79,↑,up,↑,0.5492143000010401,True,35,1
PO-M-22M22S1,638,experiment,49,↑,up,↑,0.5821904998738319,True,35,1
PO-M-22M22S1,639,experiment,71,↑,up,↑,0.5349264000542462,True,35,1
PO-M-22M22S1,640,experiment,78,←,left,←,0.9670638998504728,True,35,1
PO-M-22M22S1,641,experiment,60,←,left,←,0.5564339999109507,True,35,1
PO-M-22M22S1,642,experiment,69,↓,down,↓,0.5909317000769079,True,35,1
PO-M-22M22S1,643,experiment,48,↑,up,↑,0.5428957000840455,True,35,1
PO-M-22M22S1,644,experiment,88,↑,up,↑,0.5397749000694603,True,35,1
PO-M-22M22S1,645,experiment,96,↓,down,↓,0.44232400017790496,True,35,1
PO-M-22M22S1,646,experiment,104,←,left,←,0.4175962000153959,True,35,0
PO-M-22M22S1,647,experiment,105,↑,up,↑,0.5005271001718938,True,35,0
PO-M-22M22S1,648,experiment,103,→,right,→,0.5977385998703539,True,35,1
PO-M-22M22S1,649,experiment,107,←,left,←,0.5297524000052363,True,35,1
PO-M-22M22S1,650,experiment,101,→,right,→,0.4903867000248283,True,35,1
PO-M-22M22S1,651,experiment,106,→,right,→,0.4003107000607997,True,35,1
PO-M-22M22S1,652,experiment,52,←,left,←,0.5294929000083357,True,35,0
PO-M-22M22S1,653,experiment,66,↑,up,↑,0.408850799780339,True,35,1
PO-M-22M22S1,654,experiment,73,→,right,→,0.41741620004177094,True,35,0
PO-M-22M22S1,655,experiment,85,→,right,→,0.5428400998935103,True,35,0
PO-M-22M22S1,656,experiment,108,→,right,→,0.5411427000071853,True,35,1
PO-M-22M22S1,657,experiment,98,→,right,→,0.4942344999872148,True,35,1
PO-M-22M22S1,658,experiment,100,↓,down,↓,0.569207799853757,True,35,1
PO-M-22M22S1,659,experiment,76,↑,up,↑,0.4808201000560075,True,35,1
PO-M-22M22S1,660,experiment,84,→,right,→,0.5372642001602799,True,35,1
PO-M-22M22S1,661,experiment,62,↑,up,↑,0.4175029001198709,True,35,1
PO-M-22M22S1,662,experiment,55,→,right,→,0.4256519000045955,True,35,0
PO-M-22M22S1,663,experiment,68,↓,down,↓,0.611720000160858,True,35,0
PO-M-22M22S1,664,experiment,87,←,left,←,0.5814783000387251,True,35,1
PO-M-22M22S1,665,experiment,99,→,right,→,0.4771881999913603,True,35,1
PO-M-22M22S1,666,experiment,93,→,right,→,0.7464861001353711,True,35,1
PO-M-22M22S1,667,experiment,86,↓,down,↓,0.5995401002001017,True,35,1
PO-M-22M22S1,668,experiment,72,←,left,←,0.4171368000097573,True,35,1
PO-M-22M22S1,669,experiment,91,←,left,←,0.543951999861747,True,35,0
PO-M-22M22S1,670,experiment,57,↑,up,↑,0.5908644001465291,True,35,1
PO-M-22M22S1,671,training,52,→,right,→,0.5560103000607342,True,34,0
PO-M-22M22S1,672,training,64,←,left,←,0.559954599943012,True,34,1
PO-M-22M22S1,673,experiment,48,↓,down,↓,0.5615642999764532,True,34,1
PO-M-22M22S1,674,experiment,72,→,right,→,0.4906659999396652,True,34,1
PO-M-22M22S1,675,experiment,91,→,right,→,0.5924553000368178,True,34,1
PO-M-22M22S1,676,experiment,59,↑,up,↑,0.4611651999875903,True,34,1
PO-M-22M22S1,677,experiment,64,→,right,→,0.6128724000882357,True,34,1
PO-M-22M22S1,678,experiment,82,↑,up,↑,0.5686610999982804,True,34,1
PO-M-22M22S1,679,experiment,58,←,left,←,0.558396500069648,True,34,1
PO-M-22M22S1,680,experiment,61,←,right,→,0.579632599838078,False,34,1
PO-M-22M22S1,681,experiment,77,←,left,←,0.5386183999944478,True,34,1
PO-M-22M22S1,682,experiment,99,↓,down,↓,0.5476506999693811,True,34,1
PO-M-22M22S1,683,experiment,73,↑,up,↑,0.4008015999570489,True,34,1
PO-M-22M22S1,684,experiment,68,↓,down,↓,0.5744529000949115,True,34,0
PO-M-22M22S1,685,experiment,55,↑,up,↑,0.5001683000009507,True,34,1
PO-M-22M22S1,686,experiment,56,↑,up,↑,0.5494274001102895,True,34,1
PO-M-22M22S1,687,experiment,53,↓,down,↓,0.6134244001004845,True,34,1
PO-M-22M22S1,688,experiment,92,←,left,←,0.5259237999562174,True,34,1
PO-M-22M22S1,689,experiment,52,↓,down,↓,0.7191673000343144,True,34,1
PO-M-22M22S1,690,experiment,54,↑,up,↑,0.5604484998621047,True,34,1
PO-M-22M22S1,691,experiment,103,→,right,→,0.64758519991301,True,34,1
PO-M-22M22S1,692,experiment,62,←,left,←,0.48060210002586246,True,34,1
PO-M-22M22S1,693,experiment,88,←,left,←,0.4793863999657333,True,34,1
PO-M-22M22S1,694,experiment,65,↑,up,↑,0.5902146000880748,True,34,1
PO-M-22M22S1,695,experiment,78,→,right,→,0.61248439992778,True,34,1
PO-M-22M22S1,696,experiment,95,→,right,→,0.612645799992606,True,34,1
PO-M-22M22S1,697,experiment,86,→,right,→,0.4711120999418199,True,34,1
PO-M-22M22S1,698,experiment,49,↓,down,↓,0.6191877999808639,True,34,1
PO-M-22M22S1,699,experiment,101,↓,down,↓,0.5125257999170572,True,34,1
PO-M-22M22S1,700,experiment,67,↓,down,↓,0.5096819999162108,True,34,1
PO-M-22M22S1,701,experiment,106,→,right,→,0.557897699996829,True,34,1
PO-M-22M22S1,702,experiment,81,←,right,→,0.5080254001077265,False,34,1
PO-M-22M22S1,703,experiment,90,↑,up,↑,0.5692610999103636,True,34,1
PO-M-22M22S1,704,experiment,93,↑,up,↑,0.41683619981631637,True,34,1
PO-M-22M22S1,705,experiment,51,←,left,←,0.4339894999284297,True,34,0
PO-M-22M22S1,706,experiment,85,→,up,↑,0.5869219000451267,False,34,0
PO-M-22M22S1,707,experiment,108,←,left,←,0.40104419994167984,True,34,1
PO-M-22M22S1,708,experiment,69,↓,down,↓,0.5599654000252485,True,34,0
PO-M-22M22S1,709,experiment,100,↑,up,↑,0.48770490009337664,True,34,1
PO-M-22M22S1,710,experiment,60,↓,down,↓,0.6080313001293689,True,34,1
PO-M-22M22S1,711,experiment,94,↑,up,↑,0.38491449994035065,True,34,1
PO-M-22M22S1,712,experiment,50,→,left,←,0.863173299934715,False,34,0
PO-M-22M22S1,713,experiment,102,↑,up,↑,0.538062899839133,True,34,1
PO-M-22M22S1,714,experiment,76,→,no_key,no_letter,-1.0,False,34,1
PO-M-22M22S1,715,experiment,71,↓,down,↓,0.5493158001918346,True,34,1
PO-M-22M22S1,716,experiment,83,↑,up,↑,0.4988051999825984,True,34,1
PO-M-22M22S1,717,experiment,74,→,right,→,0.5659878998994827,True,34,1
PO-M-22M22S1,718,experiment,70,↑,up,↑,0.6634787002112716,True,34,1
PO-M-22M22S1,719,experiment,107,↑,up,↑,0.5848448998294771,True,34,1
PO-M-22M22S1,720,experiment,87,↓,up,↑,0.6364010001998395,False,34,1
PO-M-22M22S1,721,experiment,79,↑,up,↑,0.6803214000537992,True,34,1
PO-M-22M22S1,722,experiment,75,←,left,←,0.4917365999426693,True,34,1
PO-M-22M22S1,723,experiment,57,↓,down,↓,0.6608053999952972,True,34,1
PO-M-22M22S1,724,experiment,96,↓,down,↓,0.8181827999651432,True,34,1
PO-M-22M22S1,725,experiment,98,→,right,→,0.5444858998525888,True,34,1
PO-M-22M22S1,726,experiment,84,←,left,←,0.526561199920252,True,34,1
PO-M-22M22S1,727,experiment,63,←,left,←,0.4764562000054866,True,34,1
PO-M-22M22S1,728,experiment,104,↓,down,↓,0.5983960998710245,True,34,1
PO-M-22M22S1,729,experiment,105,→,right,→,0.6269602999091148,True,34,1
PO-M-22M22S1,730,experiment,89,↑,up,↑,0.5482781999744475,True,34,1
PO-M-22M22S1,731,experiment,80,↑,up,↑,0.6191286002285779,True,34,1
PO-M-22M22S1,732,experiment,66,↑,up,↑,1.7481621999759227,True,34,1
PO-M-22M22S1,733,experiment,97,↑,up,↑,0.709584099939093,True,34,1
PO-M-22M22S1,734,training,91,↓,up,↑,0.7533181000035256,False,33,0
PO-M-22M22S1,735,training,75,↑,up,↑,0.6260480999480933,True,33,1
PO-M-22M22S1,736,experiment,107,↑,up,↑,0.4931118998210877,True,33,1
PO-M-22M22S1,737,experiment,75,↑,up,↑,0.4013251999858767,True,33,1
PO-M-22M22S1,738,experiment,65,→,right,→,0.5774932999629527,True,33,0
PO-M-22M22S1,739,experiment,92,↑,up,↑,0.5156477999407798,True,33,1
PO-M-22M22S1,740,experiment,71,↓,down,↓,0.6550266998820007,True,33,1
PO-M-22M22S1,741,experiment,88,↑,up,↑,0.46324230008758605,True,33,1
PO-M-22M22S1,742,experiment,93,←,left,←,0.40910069993697107,True,33,1
PO-M-22M22S1,743,experiment,51,↓,left,←,1.9153467998839915,False,33,0
PO-M-22M22S1,744,experiment,103,←,left,←,0.5237289001233876,True,33,1
PO-M-22M22S1,745,experiment,86,←,left,←,0.4659486000891775,True,33,1
PO-M-22M22S1,746,experiment,49,↓,no_key,no_letter,-1.0,False,33,1
PO-M-22M22S1,747,experiment,54,↓,down,↓,0.4550252000335604,True,33,1
PO-M-22M22S1,748,experiment,91,←,left,←,0.5494854999706149,True,33,1
PO-M-22M22S1,749,experiment,56,↓,down,↓,0.6526646998245269,True,33,1
PO-M-22M22S1,750,experiment,50,↓,down,↓,0.506412300048396,True,33,1
PO-M-22M22S1,751,experiment,70,↑,down,↓,0.685907700099051,False,33,1
PO-M-22M22S1,752,experiment,76,↑,up,↑,0.5770161000546068,True,33,1
PO-M-22M22S1,753,experiment,57,←,right,→,0.5506257999222726,False,33,1
PO-M-22M22S1,754,experiment,90,→,right,→,0.49887949996627867,True,33,1
PO-M-22M22S1,755,experiment,80,↓,down,↓,0.6594374999403954,True,33,1
PO-M-22M22S1,756,experiment,78,↑,up,↑,0.6307840999215841,True,33,1
PO-M-22M22S1,757,experiment,52,←,no_key,no_letter,-1.0,False,33,1
PO-M-22M22S1,758,experiment,55,←,left,←,0.5314881999511272,True,33,1
PO-M-22M22S1,759,experiment,77,←,right,→,0.6601325001101941,False,33,1
PO-M-22M22S1,760,experiment,108,→,no_key,no_letter,-1.0,False,33,1
PO-M-22M22S1,761,experiment,84,↓,left,←,0.6832683999091387,False,33,1
PO-M-22M22S1,762,experiment,102,←,left,←,0.3753972998820245,True,33,1
PO-M-22M22S1,763,experiment,99,→,right,→,0.3922069000545889,True,33,1
PO-M-22M22S1,764,experiment,66,↑,down,↓,0.5034255001228303,False,33,0
PO-M-22M22S1,765,experiment,62,↑,up,↑,0.45510579994879663,True,33,1
PO-M-22M22S1,766,experiment,68,←,left,←,0.4007784998975694,True,33,1
PO-M-22M22S1,767,experiment,63,←,left,←,0.4255770000163466,True,33,0
PO-M-22M22S1,768,experiment,89,↑,up,↑,0.5838553002104163,True,33,0
PO-M-22M22S1,769,experiment,74,→,right,→,0.5677026000339538,True,33,1
PO-M-22M22S1,770,experiment,105,↑,up,↑,0.5182330999523401,True,33,1
PO-M-22M22S1,771,experiment,100,↑,up,↑,0.4090450999792665,True,33,1
PO-M-22M22S1,772,experiment,87,→,right,→,0.49752239999361336,True,33,0
PO-M-22M22S1,773,experiment,61,←,left,←,0.6089236999396235,True,33,1
PO-M-22M22S1,774,experiment,79,→,right,→,0.47028849995695055,True,33,1
PO-M-22M22S1,775,experiment,101,↓,down,↓,0.6330079000908881,True,33,1
PO-M-22M22S1,776,experiment,53,→,right,→,0.4164904998615384,True,33,1
PO-M-22M22S1,777,experiment,82,↑,up,↑,0.5690574001055211,True,33,0
PO-M-22M22S1,778,experiment,83,↑,up,↑,0.39230680000036955,True,33,1
PO-M-22M22S1,779,experiment,94,←,left,←,0.41729189991019666,True,33,0
PO-M-22M22S1,780,experiment,97,←,left,←,0.5094519001431763,True,33,0
PO-M-22M22S1,781,experiment,95,↓,down,↓,0.49702310003340244,True,33,1
PO-M-22M22S1,782,experiment,48,↓,down,↓,0.7089833999052644,True,33,1
PO-M-22M22S1,783,experiment,73,←,left,←,0.4565772998612374,True,33,1
PO-M-22M22S1,784,experiment,85,←,left,←,0.44968950003385544,True,33,1
PO-M-22M22S1,785,experiment,98,→,right,→,0.5659567001275718,True,33,1
PO-M-22M22S1,786,experiment,81,→,right,→,0.5081781998742372,True,33,1
PO-M-22M22S1,787,experiment,96,→,right,→,0.5351639001164585,True,33,1
PO-M-22M22S1,788,experiment,106,↓,down,↓,0.5425224001519382,True,33,1
PO-M-22M22S1,789,experiment,72,←,right,→,0.6805664000567049,False,33,1
PO-M-22M22S1,790,experiment,69,↑,down,↓,1.101892399834469,False,33,1
PO-M-22M22S1,791,experiment,104,↑,up,↑,0.5428785998374224,True,33,1
PO-M-22M22S1,792,experiment,67,←,left,←,0.9630307001061738,True,33,1
PO-M-22M22S1,793,experiment,58,↑,up,↑,0.5045285997912288,True,33,1
PO-M-22M22S1,794,experiment,60,←,left,←,0.6636961000040174,True,33,1
PO-M-22M22S1,795,experiment,64,→,right,→,0.5836893001105636,True,33,1
PO-M-22M22S1,796,experiment,59,↓,down,↓,0.46061709988862276,True,33,1
PO-M-22M22S1,797,training,55,↑,up,↑,0.7788852001540363,True,33,0
PO-M-22M22S1,798,training,70,↓,down,↓,0.5801725999917835,True,33,1
PO-M-22M22S1,799,experiment,86,→,right,→,0.5357909000013024,True,33,1
PO-M-22M22S1,800,experiment,62,↓,down,↓,0.5016566999256611,True,33,1
PO-M-22M22S1,801,experiment,64,↓,down,↓,0.6198162999935448,True,33,1
PO-M-22M22S1,802,experiment,108,↑,up,↑,0.5349117000587285,True,33,1
PO-M-22M22S1,803,experiment,92,←,left,←,0.48291880008764565,True,33,1
PO-M-22M22S1,804,experiment,76,←,left,←,0.6137256000656635,True,33,1
PO-M-22M22S1,805,experiment,89,↓,down,↓,0.40881019993685186,True,33,1
PO-M-22M22S1,806,experiment,85,↑,up,↑,0.5460555001627654,True,33,0
PO-M-22M22S1,807,experiment,58,↑,up,↑,0.4007107999641448,True,33,1
PO-M-22M22S1,808,experiment,107,←,left,←,0.40931280003860593,True,33,0
PO-M-22M22S1,809,experiment,60,↑,no_key,no_letter,-1.0,False,33,0
PO-M-22M22S1,810,experiment,93,→,right,→,0.4664172001648694,True,33,1
PO-M-22M22S1,811,experiment,67,↑,up,↑,0.418094800086692,True,33,1
PO-M-22M22S1,812,experiment,69,←,no_key,no_letter,-1.0,False,33,0
PO-M-22M22S1,813,experiment,96,←,left,←,0.5221758999396116,True,33,1
PO-M-22M22S1,814,experiment,99,↓,down,↓,0.6519800999667495,True,33,1
PO-M-22M22S1,815,experiment,72,↓,up,↑,0.6578071000985801,False,33,1
PO-M-22M22S1,816,experiment,90,→,left,←,0.593117400072515,False,33,1
PO-M-22M22S1,817,experiment,56,↑,down,↓,0.470675399992615,False,33,1
PO-M-22M22S1,818,experiment,65,↓,down,↓,0.4781271000392735,True,33,1
PO-M-22M22S1,819,experiment,106,↑,no_key,no_letter,-1.0,False,33,1
PO-M-22M22S1,820,experiment,87,↑,up,↑,0.5240774000994861,True,33,1
PO-M-22M22S1,821,experiment,81,→,left,←,0.4918341999873519,False,33,1
PO-M-22M22S1,822,experiment,101,↓,down,↓,0.5899607001338154,True,33,1
PO-M-22M22S1,823,experiment,78,↓,down,↓,0.5320611000061035,True,33,1
PO-M-22M22S1,824,experiment,88,←,left,←,0.5052734001073986,True,33,1
PO-M-22M22S1,825,experiment,80,←,left,←,0.7938314999919385,True,33,1
PO-M-22M22S1,826,experiment,53,↑,no_key,no_letter,-1.0,False,33,1
PO-M-22M22S1,827,experiment,84,→,right,→,0.581935599911958,True,33,1
PO-M-22M22S1,828,experiment,68,↑,up,↑,0.5602504999842495,True,33,1
PO-M-22M22S1,829,experiment,94,↑,up,↑,0.5140537000261247,True,33,1
PO-M-22M22S1,830,experiment,83,→,right,→,0.4576733000576496,True,33,1
PO-M-22M22S1,831,experiment,79,→,right,→,0.46056150016374886,True,33,1
PO-M-22M22S1,832,experiment,63,←,left,←,0.476394500117749,True,33,1
PO-M-22M22S1,833,experiment,70,↑,up,↑,0.4499301000032574,True,33,1
PO-M-22M22S1,834,experiment,105,←,left,←,0.5565524001140147,True,33,0
PO-M-22M22S1,835,experiment,95,↓,down,↓,0.6062396999914199,True,33,1
PO-M-22M22S1,836,experiment,75,←,left,←,0.49267540010623634,True,33,1
PO-M-22M22S1,837,experiment,97,↑,down,↓,0.8004809999838471,False,33,1
PO-M-22M22S1,838,experiment,52,←,left,←,0.5589477000758052,True,33,1
PO-M-22M22S1,839,experiment,104,↓,down,↓,0.5814531000796705,True,33,1
PO-M-22M22S1,840,experiment,102,↓,down,↓,0.7399645999539644,True,33,1
PO-M-22M22S1,841,experiment,74,↓,down,↓,1.1652712000068277,True,33,1
PO-M-22M22S1,842,experiment,66,↑,no_key,no_letter,-1.0,False,33,1
PO-M-22M22S1,843,experiment,55,↓,down,↓,0.5200515000615269,True,33,1
PO-M-22M22S1,844,experiment,51,→,right,→,0.6898584000300616,True,33,1
PO-M-22M22S1,845,experiment,59,↓,down,↓,0.650324699934572,True,33,1
PO-M-22M22S1,846,experiment,48,→,right,→,0.5042009002063423,True,33,1
PO-M-22M22S1,847,experiment,77,↓,down,↓,0.4581674998626113,True,33,1
PO-M-22M22S1,848,experiment,71,→,right,→,0.45553570007905364,True,33,1
PO-M-22M22S1,849,experiment,57,→,right,→,0.4977778000757098,True,33,1
PO-M-22M22S1,850,experiment,50,↑,up,↑,0.46129049989394844,True,33,1
PO-M-22M22S1,851,experiment,61,←,left,←,0.613916200120002,True,33,1
PO-M-22M22S1,852,experiment,100,↑,up,↑,0.5474821999669075,True,33,1
PO-M-22M22S1,853,experiment,82,→,right,→,0.6420216001570225,True,33,1
PO-M-22M22S1,854,experiment,73,→,right,→,0.4719595001079142,True,33,1
PO-M-22M22S1,855,experiment,54,↑,up,↑,0.5382842000108212,True,33,1
PO-M-22M22S1,856,experiment,103,↑,up,↑,0.4902204000391066,True,33,1
PO-M-22M22S1,857,experiment,98,↓,down,↓,0.573526999913156,True,33,1
PO-M-22M22S1,858,experiment,49,↑,up,↑,0.5019940000493079,True,33,1
PO-M-22M22S1,859,experiment,91,←,left,←,0.45960690011270344,True,33,1
PO-M-22M22S1,860,training,67,↑,up,↑,0.5877911001443863,True,33,0
PO-M-22M22S1,861,training,51,↓,no_key,no_letter,-1.0,False,33,1
PO-M-22M22S1,862,experiment,49,↑,up,↑,0.36745109991170466,True,33,1
PO-M-22M22S1,863,experiment,82,←,left,←,0.641687500057742,True,33,0
PO-M-22M22S1,864,experiment,69,→,left,←,0.4651611000299454,False,33,1
PO-M-22M22S1,865,experiment,96,↑,up,↑,0.47789129987359047,True,33,1
PO-M-22M22S1,866,experiment,81,←,left,←,0.4562050998210907,True,33,1
PO-M-22M22S1,867,experiment,108,↓,no_key,no_letter,-1.0,False,33,1
PO-M-22M22S1,868,experiment,61,↓,no_key,no_letter,-1.0,False,33,1
PO-M-22M22S1,869,experiment,62,←,left,←,0.5638652998022735,True,33,1
PO-M-22M22S1,870,experiment,74,→,left,←,0.36794360005296767,False,33,1
PO-M-22M22S1,871,experiment,77,←,left,←,0.45164670003578067,True,33,0
PO-M-22M22S1,872,experiment,72,→,right,→,0.5610607999842614,True,33,1
PO-M-22M22S1,873,experiment,99,→,right,→,0.48107900004833937,True,33,1
PO-M-22M22S1,874,experiment,68,←,left,←,0.49482970009557903,True,33,1
PO-M-22M22S1,875,experiment,65,→,right,→,0.5176178000401706,True,33,1
PO-M-22M22S1,876,experiment,104,↓,no_key,no_letter,-1.0,False,33,1
PO-M-22M22S1,877,experiment,95,→,left,←,0.47199430014006793,False,33,1
PO-M-22M22S1,878,experiment,105,↓,down,↓,0.6493684998713434,True,33,1
PO-M-22M22S1,879,experiment,80,→,right,→,0.5327749999705702,True,33,1
PO-M-22M22S1,880,experiment,83,→,right,→,0.4677049000747502,True,33,1
PO-M-22M22S1,881,experiment,64,→,right,→,0.6510564999189228,True,33,1
PO-M-22M22S1,882,experiment,85,↓,down,↓,0.4686400000937283,True,33,1
PO-M-22M22S1,883,experiment,76,←,left,←,0.6003235999960452,True,33,1
PO-M-22M22S1,884,experiment,103,↑,up,↑,0.5097368001006544,True,33,1
PO-M-22M22S1,885,experiment,48,←,left,←,0.6174564000684768,True,33,1
PO-M-22M22S1,886,experiment,71,↑,up,↑,0.4885017001070082,True,33,1
PO-M-22M22S1,887,experiment,60,→,right,→,0.42570400005206466,True,33,1
PO-M-22M22S1,888,experiment,67,↓,down,↓,0.5447062000166625,True,33,0
PO-M-22M22S1,889,experiment,59,↓,down,↓,0.511160499881953,True,33,1
PO-M-22M22S1,890,experiment,93,↓,down,↓,0.45968399988487363,True,33,1
PO-M-22M22S1,891,experiment,54,↓,down,↓,0.838901599869132,True,33,1
PO-M-22M22S1,892,experiment,90,←,left,←,0.45539180003106594,True,33,1
PO-M-22M22S1,893,experiment,51,↑,up,↑,0.4519100000616163,True,33,1
PO-M-22M22S1,894,experiment,98,↑,up,↑,0.47233040002174675,True,33,1
PO-M-22M22S1,895,experiment,57,↓,down,↓,0.5381833000574261,True,33,1
PO-M-22M22S1,896,experiment,86,←,left,←,0.38454470015130937,True,33,1
PO-M-22M22S1,897,experiment,97,↓,down,↓,0.5674105999059975,True,33,0
PO-M-22M22S1,898,experiment,101,↓,down,↓,0.4088011998683214,True,33,1
PO-M-22M22S1,899,experiment,91,→,right,→,0.4255963999312371,True,33,0
PO-M-22M22S1,900,experiment,84,↑,up,↑,0.4738916999194771,True,33,0
PO-M-22M22S1,901,experiment,92,↓,up,↑,0.5440420000813901,False,33,1
PO-M-22M22S1,902,experiment,63,↓,down,↓,0.5809043000917882,True,33,1
PO-M-22M22S1,903,experiment,100,↑,up,↑,0.46810389985330403,True,33,1
PO-M-22M22S1,904,experiment,66,↓,down,↓,0.8034677000250667,True,33,1
PO-M-22M22S1,905,experiment,56,↓,down,↓,0.5760637000203133,True,33,1
PO-M-22M22S1,906,experiment,94,↓,down,↓,0.6015248999465257,True,33,1
PO-M-22M22S1,907,experiment,106,↓,down,↓,0.5018553000409156,True,33,1
PO-M-22M22S1,908,experiment,78,→,right,→,0.5755767000373453,True,33,1
PO-M-22M22S1,909,experiment,87,↓,down,↓,0.467549400171265,True,33,1
PO-M-22M22S1,910,experiment,52,↑,up,↑,0.5271662999875844,True,33,1
PO-M-22M22S1,911,experiment,89,↓,down,↓,0.6601160999853164,True,33,1
PO-M-22M22S1,912,experiment,79,↓,no_key,no_letter,-1.0,False,33,1
PO-M-22M22S1,913,experiment,70,↑,up,↑,0.5939484999980778,True,33,1
PO-M-22M22S1,914,experiment,102,↑,up,↑,0.5596827999688685,True,33,1
PO-M-22M22S1,915,experiment,53,↓,no_key,no_letter,-1.0,False,33,1
PO-M-22M22S1,916,experiment,50,↑,up,↑,0.40980760008096695,True,33,1
PO-M-22M22S1,917,experiment,73,↑,up,↑,0.4631751999258995,True,33,0
PO-M-22M22S1,918,experiment,88,→,right,→,0.5910088000819087,True,33,1
PO-M-22M22S1,919,experiment,58,↑,up,↑,0.4007601998746395,True,33,1
PO-M-22M22S1,920,experiment,107,→,no_key,no_letter,-1.0,False,33,0
PO-M-22M22S1,921,experiment,55,←,left,←,0.34298150008544326,True,33,1
PO-M-22M22S1,922,experiment,75,←,right,→,0.7518736999481916,False,33,0
PO-M-22M22S1,923,training,102,→,right,→,0.5426781999412924,True,33,0
PO-M-22M22S1,924,training,69,←,left,←,0.392487799981609,True,33,1
PO-M-22M22S1,925,experiment,50,↓,up,↑,0.5531274999957532,False,33,0
PO-M-22M22S1,926,experiment,78,↓,down,↓,0.4486454001162201,True,33,1
PO-M-22M22S1,927,experiment,65,↓,down,↓,0.5128357000648975,True,33,0
PO-M-22M22S1,928,experiment,92,↑,up,↑,0.42612050008028746,True,33,1
PO-M-22M22S1,929,experiment,91,↓,down,↓,0.4614194000605494,True,33,0
PO-M-22M22S1,930,experiment,99,←,left,←,0.5452940999530256,True,33,1
PO-M-22M22S1,931,experiment,107,←,left,←,0.42524019978009164,True,33,1
PO-M-22M22S1,932,experiment,81,←,left,←,0.38400870002806187,True,33,0
PO-M-22M22S1,933,experiment,59,↑,up,↑,0.5675235998351127,True,33,0
PO-M-22M22S1,934,experiment,95,→,right,→,0.488924500066787,True,33,1
PO-M-22M22S1,935,experiment,69,←,left,←,0.5018742000684142,True,33,1
PO-M-22M22S1,936,experiment,70,↑,up,↑,0.5463545999955386,True,33,1
PO-M-22M22S1,937,experiment,61,←,right,→,0.4799417001195252,False,33,1
PO-M-22M22S1,938,experiment,51,→,no_key,no_letter,-1.0,False,33,1
PO-M-22M22S1,939,experiment,57,↑,up,↑,0.5143351999577135,True,33,1
PO-M-22M22S1,940,experiment,55,←,left,←,0.41723839985206723,True,33,1
PO-M-22M22S1,941,experiment,52,→,right,→,0.512517600087449,True,33,0
PO-M-22M22S1,942,experiment,72,←,left,←,0.4439278000500053,True,33,1
PO-M-22M22S1,943,experiment,49,→,right,→,0.48096000007353723,True,33,0
PO-M-22M22S1,944,experiment,67,→,right,→,0.47112539992667735,True,33,1
PO-M-22M22S1,945,experiment,90,↓,down,↓,0.6377446998376399,True,33,1
PO-M-22M22S1,946,experiment,73,→,right,→,0.6033397999126464,True,33,1
PO-M-22M22S1,947,experiment,66,↓,down,↓,0.5653568000998348,True,33,1
PO-M-22M22S1,948,experiment,101,→,right,→,0.5407157998997718,True,33,1
PO-M-22M22S1,949,experiment,80,↑,up,↑,0.539864300051704,True,33,1
PO-M-22M22S1,950,experiment,64,←,left,←,0.4808558002114296,True,33,1
PO-M-22M22S1,951,experiment,48,←,left,←,0.4856320000253618,True,33,1
PO-M-22M22S1,952,experiment,83,↑,up,↑,0.42596389981918037,True,33,1
PO-M-22M22S1,953,experiment,106,←,right,→,0.5369039000943303,False,33,0
PO-M-22M22S1,954,experiment,76,↑,up,↑,0.6179792999755591,True,33,1
PO-M-22M22S1,955,experiment,87,→,right,→,0.5560220999177545,True,33,1
PO-M-22M22S1,956,experiment,85,→,left,←,0.5211175000295043,False,33,1
PO-M-22M22S1,957,experiment,97,→,right,→,0.5957466999534518,True,33,1
PO-M-22M22S1,958,experiment,84,↑,no_key,no_letter,-1.0,False,33,1
PO-M-22M22S1,959,experiment,63,←,left,←,0.4174887998960912,True,33,1
PO-M-22M22S1,960,experiment,53,↓,down,↓,0.5536978000309318,True,33,0
PO-M-22M22S1,961,experiment,56,→,right,→,0.4965284999925643,True,33,1
PO-M-22M22S1,962,experiment,75,↑,up,↑,0.45202640001662076,True,33,1
PO-M-22M22S1,963,experiment,88,↓,down,↓,0.5156947001814842,True,33,1
PO-M-22M22S1,964,experiment,74,↑,up,↑,0.48614389984868467,True,33,1
PO-M-22M22S1,965,experiment,100,←,left,←,0.5371385000180453,True,33,1
PO-M-22M22S1,966,experiment,82,←,left,←,0.5362674999050796,True,33,1
PO-M-22M22S1,967,experiment,77,↓,down,↓,0.4651999999769032,True,33,1
PO-M-22M22S1,968,experiment,98,↓,no_key,no_letter,-1.0,False,33,1
PO-M-22M22S1,969,experiment,54,←,left,←,0.5573189000133425,True,33,1
PO-M-22M22S1,970,experiment,108,→,left,←,0.37590500013902783,False,33,1
PO-M-22M22S1,971,experiment,93,↑,up,↑,0.5163779999129474,True,33,0
PO-M-22M22S1,972,experiment,86,→,right,→,0.47455259994603693,True,33,1
PO-M-22M22S1,973,experiment,96,↑,up,↑,0.7512344000861049,True,33,1
PO-M-22M22S1,974,experiment,102,←,left,←,0.5427174000069499,True,33,1
PO-M-22M22S1,975,experiment,58,↑,up,↑,0.39263979997485876,True,33,1
PO-M-22M22S1,976,experiment,94,↑,up,↑,0.4259627000428736,True,33,0
PO-M-22M22S1,977,experiment,79,↑,up,↑,0.481944200117141,True,33,0
PO-M-22M22S1,978,experiment,60,↑,up,↑,0.4009759998880327,True,33,1
PO-M-22M22S1,979,experiment,105,↑,up,↑,0.5830120998434722,True,33,0
PO-M-22M22S1,980,experiment,104,→,right,→,0.5566348999273032,True,33,1
PO-M-22M22S1,981,experiment,71,←,left,←,0.38400650001131,True,33,1
PO-M-22M22S1,982,experiment,68,↓,down,↓,0.5117365999612957,True,33,0
PO-M-22M22S1,983,experiment,89,↑,up,↑,0.38401339994743466,True,33,1
PO-M-22M22S1,984,experiment,62,↓,down,↓,0.529009599937126,True,33,0
PO-M-22M22S1,985,experiment,103,←,left,←,0.5370177999138832,True,33,1
PO-M-22M22S1,986,training,49,→,right,→,0.5234821001067758,True,33,0
PO-M-22M22S1,987,training,80,→,right,→,0.5552656999789178,True,33,1
PO-M-22M22S1,988,experiment,107,↑,no_key,no_letter,-1.0,False,33,1
PO-M-22M22S1,989,experiment,49,↑,no_key,no_letter,-1.0,False,33,1
PO-M-22M22S1,990,experiment,48,↑,up,↑,0.4089293999131769,True,33,1
PO-M-22M22S1,991,experiment,66,↓,no_key,no_letter,-1.0,False,33,0
PO-M-22M22S1,992,experiment,65,→,no_key,no_letter,-1.0,False,33,1
PO-M-22M22S1,993,experiment,104,←,no_key,no_letter,-1.0,False,33,1
PO-M-22M22S1,994,experiment,52,↑,up,↑,0.366516700014472,True,33,1
PO-M-22M22S1,995,experiment,95,→,right,→,0.49861669982783496,True,33,0
PO-M-22M22S1,996,experiment,82,↓,left,←,0.7389239000622183,False,33,1
PO-M-22M22S1,997,experiment,84,←,left,←,0.4810905000194907,True,33,1
PO-M-22M22S1,998,experiment,96,↓,up,↑,0.5174404999706894,False,33,1
PO-M-22M22S1,999,experiment,98,↑,up,↑,0.46391799999400973,True,33,1
PO-M-22M22S1,1000,experiment,97,↑,up,↑,0.4004343000706285,True,33,1
PO-M-22M22S1,1001,experiment,68,↓,down,↓,0.53322340012528,True,33,0
PO-M-22M22S1,1002,experiment,78,←,left,←,0.3425970000680536,True,33,1
PO-M-22M22S1,1003,experiment,54,→,right,→,0.40922320005483925,True,33,0
PO-M-22M22S1,1004,experiment,106,→,right,→,0.41030820016749203,True,33,0
PO-M-22M22S1,1005,experiment,56,→,left,←,0.725126399891451,False,33,0
PO-M-22M22S1,1006,experiment,108,←,left,←,0.5320143001154065,True,33,1
PO-M-22M22S1,1007,experiment,91,↑,no_key,no_letter,-1.0,False,33,1
PO-M-22M22S1,1008,experiment,70,→,right,→,0.4257890998851508,True,33,1
PO-M-22M22S1,1009,experiment,55,↑,up,↑,0.6627114000730217,True,33,0
PO-M-22M22S1,1010,experiment,59,→,right,→,0.5603457000106573,True,33,1
PO-M-22M22S1,1011,experiment,101,↑,up,↑,0.4260096999350935,True,33,1
PO-M-22M22S1,1012,experiment,53,→,right,→,0.3587928998749703,True,33,0
PO-M-22M22S1,1013,experiment,61,↑,no_key,no_letter,-1.0,False,33,0
PO-M-22M22S1,1014,experiment,99,→,right,→,0.49088469985872507,True,33,1
PO-M-22M22S1,1015,experiment,60,→,right,→,0.5783033999614418,True,33,1
PO-M-22M22S1,1016,experiment,51,←,left,←,0.3674327000044286,True,33,1
PO-M-22M22S1,1017,experiment,85,↓,down,↓,0.5982199998106807,True,33,0
PO-M-22M22S1,1018,experiment,73,↑,up,↑,0.5258597999345511,True,33,1
PO-M-22M22S1,1019,experiment,67,→,right,→,0.5461718000005931,True,33,1
PO-M-22M22S1,1020,experiment,90,→,right,→,0.5424632001668215,True,33,1
PO-M-22M22S1,1021,experiment,94,↑,up,↑,0.4731440998148173,True,33,1
PO-M-22M22S1,1022,experiment,76,→,no_key,no_letter,-1.0,False,33,1
PO-M-22M22S1,1023,experiment,89,←,left,←,0.410019300179556,True,33,1
PO-M-22M22S1,1024,experiment,63,↓,down,↓,0.6263764000032097,True,33,0
PO-M-22M22S1,1025,experiment,57,←,right,→,0.4468974000774324,False,33,1
PO-M-22M22S1,1026,experiment,58,↓,down,↓,0.45689200004562736,True,33,0
PO-M-22M22S1,1027,experiment,77,→,right,→,0.4765490998979658,True,33,1
PO-M-22M22S1,1028,experiment,64,←,left,←,0.6199080999940634,True,33,1
PO-M-22M22S1,1029,experiment,92,↑,no_key,no_letter,-1.0,False,33,1
PO-M-22M22S1,1030,experiment,88,↑,up,↑,0.4177639000117779,True,33,1
PO-M-22M22S1,1031,experiment,83,↑,up,↑,0.45166150014847517,True,33,0
PO-M-22M22S1,1032,experiment,86,↑,up,↑,0.3672042000107467,True,33,1
PO-M-22M22S1,1033,experiment,75,↑,up,↑,0.5725640000309795,True,33,0
PO-M-22M22S1,1034,experiment,100,↑,no_key,no_letter,-1.0,False,33,1
PO-M-22M22S1,1035,experiment,71,↓,down,↓,0.5104280000086874,True,33,1
PO-M-22M22S1,1036,experiment,50,↓,down,↓,0.5049169999547303,True,33,1
PO-M-22M22S1,1037,experiment,80,↑,up,↑,0.5296691001858562,True,33,1
PO-M-22M22S1,1038,experiment,72,↑,up,↑,0.4009611001238227,True,33,1
PO-M-22M22S1,1039,experiment,102,↑,up,↑,0.41743530007079244,True,33,0
PO-M-22M22S1,1040,experiment,81,←,left,←,0.40921449987217784,True,33,0
PO-M-22M22S1,1041,experiment,62,→,right,→,0.38419990008696914,True,33,0
PO-M-22M22S1,1042,experiment,79,↑,up,↑,0.6543480001855642,True,33,0
PO-M-22M22S1,1043,experiment,105,→,right,→,0.5602283000480384,True,33,1
PO-M-22M22S1,1044,experiment,74,←,left,←,0.5213911000173539,True,33,1
PO-M-22M22S1,1045,experiment,93,←,left,←,0.4693557999562472,True,33,1
PO-M-22M22S1,1046,experiment,103,↓,down,↓,0.6239172001369298,True,33,1
PO-M-22M22S1,1047,experiment,69,↓,down,↓,0.5518322000280023,True,33,1
PO-M-22M22S1,1048,experiment,87,←,left,←,0.40896219993010163,True,33,1
PO-M-22M22S1,1049,training,77,↓,down,↓,0.46847709990106523,True,33,0
PO-M-22M22S1,1050,training,70,→,right,→,0.482091800076887,True,33,1
PO-M-22M22S1,1051,experiment,106,↓,down,↓,0.5709647999610752,True,33,1
PO-M-22M22S1,1052,experiment,97,↑,up,↑,0.48316930001601577,True,33,1
PO-M-22M22S1,1053,experiment,105,←,no_key,no_letter,-1.0,False,33,1
PO-M-22M22S1,1054,experiment,59,↑,up,↑,0.490984900156036,True,33,1
PO-M-22M22S1,1055,experiment,85,←,left,←,0.45125350006856024,True,33,1
PO-M-22M22S1,1056,experiment,86,→,up,↑,0.4675726001150906,False,33,1
PO-M-22M22S1,1057,experiment,75,↓,down,↓,0.47158519993536174,True,33,1
PO-M-22M22S1,1058,experiment,107,→,no_key,no_letter,-1.0,False,33,1
PO-M-22M22S1,1059,experiment,50,↑,up,↑,0.6017630000133067,True,33,1
PO-M-22M22S1,1060,experiment,61,←,no_key,no_letter,-1.0,False,33,1
PO-M-22M22S1,1061,experiment,53,↓,down,↓,0.549470900092274,True,33,1
PO-M-22M22S1,1062,experiment,108,→,right,→,0.6670854000840336,True,33,1
PO-M-22M22S1,1063,experiment,101,↑,up,↑,0.5584603000897914,True,33,1
PO-M-22M22S1,1064,experiment,56,←,right,→,0.6372859000694007,False,33,1
PO-M-22M22S1,1065,experiment,87,↑,up,↑,0.42554809991270304,True,33,1
PO-M-22M22S1,1066,experiment,67,↓,down,↓,0.5266409001778811,True,33,0
PO-M-22M22S1,1067,experiment,60,↓,down,↓,0.42590139992535114,True,33,1
PO-M-22M22S1,1068,experiment,96,←,left,←,0.4597060000523925,True,33,0
PO-M-22M22S1,1069,experiment,89,→,right,→,0.45202460000291467,True,33,1
PO-M-22M22S1,1070,experiment,82,←,left,←,0.6535378999542445,True,33,1
PO-M-22M22S1,1071,experiment,80,↓,down,↓,0.5847213000524789,True,33,1
PO-M-22M22S1,1072,experiment,84,↓,no_key,no_letter,-1.0,False,33,1
PO-M-22M22S1,1073,experiment,90,←,left,←,0.6251185999717563,True,33,1
PO-M-22M22S1,1074,experiment,71,↑,no_key,no_letter,-1.0,False,33,1
PO-M-22M22S1,1075,experiment,64,→,right,→,0.7645467999391258,True,33,1
PO-M-22M22S1,1076,experiment,88,→,left,←,0.6159578999504447,False,33,1
PO-M-22M22S1,1077,experiment,81,→,right,→,0.7483510000165552,True,33,1
PO-M-22M22S1,1078,experiment,70,↓,down,↓,0.5833107999060303,True,33,1
PO-M-22M22S1,1079,experiment,94,↑,up,↑,1.0796662999782711,True,33,1
PO-M-22M22S1,1080,experiment,55,←,left,←,0.40099809993989766,True,33,1
PO-M-22M22S1,1081,experiment,52,→,right,→,0.6396956001408398,True,33,0
PO-M-22M22S1,1082,experiment,63,←,left,←,0.5047869998961687,True,33,1
PO-M-22M22S1,1083,experiment,58,←,left,←,0.46537120011635125,True,33,1
PO-M-22M22S1,1084,experiment,78,↑,up,↑,0.4689970000181347,True,33,1
PO-M-22M22S1,1085,experiment,102,↑,up,↑,0.4953736001625657,True,33,1
PO-M-22M22S1,1086,experiment,57,→,right,→,0.5127174998633564,True,33,1
PO-M-22M22S1,1087,experiment,79,→,no_key,no_letter,-1.0,False,33,1
PO-M-22M22S1,1088,experiment,73,→,right,→,0.5871325999032706,True,33,1
PO-M-22M22S1,1089,experiment,77,→,right,→,0.5137877999804914,True,33,1
PO-M-22M22S1,1090,experiment,66,→,right,→,0.3925369998905808,True,33,1
PO-M-22M22S1,1091,experiment,69,↑,up,↑,0.5036721001379192,True,33,0
PO-M-22M22S1,1092,experiment,99,→,right,→,0.4983581998385489,True,33,1
PO-M-22M22S1,1093,experiment,95,←,left,←,0.44741349993273616,True,33,1
PO-M-22M22S1,1094,experiment,104,↑,up,↑,0.5776776000857353,True,33,1
PO-M-22M22S1,1095,experiment,76,↓,up,↑,0.6249056998640299,False,33,1
PO-M-22M22S1,1096,experiment,92,←,left,←,0.3592534000054002,True,33,1
PO-M-22M22S1,1097,experiment,62,↑,up,↑,0.4694397000130266,True,33,0
PO-M-22M22S1,1098,experiment,83,←,left,←,0.5347546001430601,True,33,1
PO-M-22M22S1,1099,experiment,74,↓,down,↓,0.6086357000749558,True,33,1
PO-M-22M22S1,1100,experiment,103,↑,up,↑,0.5496905001346022,True,33,1
PO-M-22M22S1,1101,experiment,54,→,left,←,0.5334972999989986,False,33,1
PO-M-22M22S1,1102,experiment,98,→,right,→,0.4950637000147253,True,33,1
PO-M-22M22S1,1103,experiment,51,↑,up,↑,0.594384100055322,True,33,1
PO-M-22M22S1,1104,experiment,100,←,left,←,0.4097303000744432,True,33,1
PO-M-22M22S1,1105,experiment,49,↓,down,↓,0.6073932000435889,True,33,0
PO-M-22M22S1,1106,experiment,93,↑,up,↑,0.45613559987396,True,33,1
PO-M-22M22S1,1107,experiment,48,←,left,←,0.3587476001121104,True,33,1
PO-M-22M22S1,1108,experiment,68,→,right,→,0.4875635001808405,True,33,0
PO-M-22M22S1,1109,experiment,91,→,right,→,0.4695783997885883,True,33,1
PO-M-22M22S1,1110,experiment,65,←,left,←,0.5176158000249416,True,33,1
PO-M-22M22S1,1111,experiment,72,↑,up,↑,0.3673856998793781,True,33,1
PO-M-22M22S1,1112,training,78,↓,down,↓,0.6404268001206219,True,33,0
PO-M-22M22S1,1113,training,52,→,right,→,0.541060300078243,True,33,1
PO-M-22M22S1,1114,experiment,72,↓,down,↓,0.6311799997929484,True,33,1
PO-M-22M22S1,1115,experiment,82,←,left,←,0.4823551999870688,True,33,1
PO-M-22M22S1,1116,experiment,62,←,left,←,0.4583503999747336,True,33,1
PO-M-22M22S1,1117,experiment,81,↑,up,↑,0.3922723999712616,True,33,1
PO-M-22M22S1,1118,experiment,73,←,left,←,0.4002712999936193,True,33,0
PO-M-22M22S1,1119,experiment,77,←,left,←,0.4974507999140769,True,33,0
PO-M-22M22S1,1120,experiment,59,↓,down,↓,0.5622318000532687,True,33,1
PO-M-22M22S1,1121,experiment,90,↑,up,↑,0.40886770002543926,True,33,1
PO-M-22M22S1,1122,experiment,89,↑,up,↑,0.5667419000528753,True,33,0
PO-M-22M22S1,1123,experiment,52,↑,up,↑,0.5662120000924915,True,33,1
PO-M-22M22S1,1124,experiment,51,↓,down,↓,0.5903708999976516,True,33,1
PO-M-22M22S1,1125,experiment,96,↑,up,↑,0.5022402999456972,True,33,1
PO-M-22M22S1,1126,experiment,92,←,no_key,no_letter,-1.0,False,33,1
PO-M-22M22S1,1127,experiment,107,→,right,→,0.5696397998835891,True,33,1
PO-M-22M22S1,1128,experiment,50,→,no_key,no_letter,-1.0,False,33,1
PO-M-22M22S1,1129,experiment,54,↑,up,↑,0.44288059999234974,True,33,1
PO-M-22M22S1,1130,experiment,56,←,left,←,0.4771454001311213,True,33,0
PO-M-22M22S1,1131,experiment,84,↑,up,↑,0.41662080003879964,True,33,1
PO-M-22M22S1,1132,experiment,71,→,right,→,0.48478509997949004,True,33,0
PO-M-22M22S1,1133,experiment,85,↓,down,↓,0.6209911999758333,True,33,1
PO-M-22M22S1,1134,experiment,103,↓,down,↓,0.5700378001201898,True,33,1
PO-M-22M22S1,1135,experiment,75,↓,down,↓,0.4580576999578625,True,33,1
PO-M-22M22S1,1136,experiment,104,→,right,→,0.416795999975875,True,33,1
PO-M-22M22S1,1137,experiment,61,↓,down,↓,0.6548116998746991,True,33,0
PO-M-22M22S1,1138,experiment,57,→,right,→,0.5052328000310808,True,33,1
PO-M-22M22S1,1139,experiment,94,→,right,→,0.6452323999255896,True,33,1
PO-M-22M22S1,1140,experiment,87,→,left,←,0.4004712998867035,False,33,1
PO-M-22M22S1,1141,experiment,98,→,right,→,0.461458400124684,True,33,0
PO-M-22M22S1,1142,experiment,48,←,right,→,0.8579926998354495,False,33,1
PO-M-22M22S1,1143,experiment,58,↓,left,←,1.940025300020352,False,33,1
PO-M-22M22S1,1144,experiment,60,↑,up,↑,0.6422480000182986,True,33,1
PO-M-22M22S1,1145,experiment,79,↑,up,↑,0.38374689989723265,True,33,1
PO-M-22M22S1,1146,experiment,63,←,left,←,0.4650595998391509,True,33,0
PO-M-22M22S1,1147,experiment,74,↑,up,↑,0.5492809999268502,True,33,1
PO-M-22M22S1,1148,experiment,55,→,right,→,1.9089375999756157,True,33,1
PO-M-22M22S1,1149,experiment,65,↓,left,←,0.6822727001272142,False,33,1
PO-M-22M22S1,1150,experiment,80,→,right,→,0.6839221999980509,True,33,1
PO-M-22M22S1,1151,experiment,97,←,left,←,0.3850233999546617,True,33,1
PO-M-22M22S1,1152,experiment,100,↑,up,↑,0.6148506999015808,True,33,0
PO-M-22M22S1,1153,experiment,78,↓,up,↑,0.452290500048548,False,33,1
PO-M-22M22S1,1154,experiment,67,→,right,→,0.4173801001161337,True,33,1
PO-M-22M22S1,1155,experiment,70,→,right,→,0.5220302001107484,True,33,0
PO-M-22M22S1,1156,experiment,49,↓,down,↓,0.6204355999361724,True,33,1
PO-M-22M22S1,1157,experiment,106,↓,no_key,no_letter,-1.0,False,33,1
PO-M-22M22S1,1158,experiment,105,↑,left,←,0.751198000041768,False,33,1
PO-M-22M22S1,1159,experiment,101,↓,left,←,0.7589761998970062,False,33,1
PO-M-22M22S1,1160,experiment,86,→,right,→,0.39236920000985265,True,33,1
PO-M-22M22S1,1161,experiment,53,↓,left,←,0.7539715999737382,False,33,0
PO-M-22M22S1,1162,experiment,102,←,left,←,0.6416360000148416,True,33,1
PO-M-22M22S1,1163,experiment,76,↓,down,↓,0.5261138000059873,True,33,1
PO-M-22M22S1,1164,experiment,91,↑,down,↓,0.7227166998200119,False,33,1
PO-M-22M22S1,1165,experiment,68,↓,down,↓,0.4945761999115348,True,33,1
PO-M-22M22S1,1166,experiment,66,↓,down,↓,0.4611508999951184,True,33,1
PO-M-22M22S1,1167,experiment,64,←,left,←,0.5804870000574738,True,33,1
PO-M-22M22S1,1168,experiment,95,↓,no_key,no_letter,-1.0,False,33,1
PO-M-22M22S1,1169,experiment,108,←,left,←,0.49886729987338185,True,33,1
PO-M-22M22S1,1170,experiment,99,→,no_key,no_letter,-1.0,False,33,1
PO-M-22M22S1,1171,experiment,93,↓,left,←,0.6725971000269055,False,33,1
PO-M-22M22S1,1172,experiment,69,↑,up,↑,0.5902927999850363,True,33,1
PO-M-22M22S1,1173,experiment,88,↑,up,↑,0.3753780999686569,True,33,1
PO-M-22M22S1,1174,experiment,83,←,left,←,0.5497955000028014,True,33,0
PO-M-22M22S1,1175,training,88,↓,down,↓,0.5901372998487204,True,33,0
PO-M-22M22S1,1176,training,101,←,no_key,no_letter,-1.0,False,33,1
PO-M-22M22S1,1177,experiment,67,↑,up,↑,0.45652899984270334,True,33,1
PO-M-22M22S1,1178,experiment,95,↓,down,↓,1.0377274001948535,True,33,1
PO-M-22M22S1,1179,experiment,98,↑,up,↑,0.61948879994452,True,33,1
PO-M-22M22S1,1180,experiment,74,→,right,→,0.4893146001268178,True,33,1
PO-M-22M22S1,1181,experiment,85,→,right,→,0.4730863000731915,True,33,1
PO-M-22M22S1,1182,experiment,81,→,no_key,no_letter,-1.0,False,33,1
PO-M-22M22S1,1183,experiment,80,↓,down,↓,0.4819859000854194,True,33,1
PO-M-22M22S1,1184,experiment,61,←,left,←,0.5459833999630064,True,33,1
PO-M-22M22S1,1185,experiment,106,→,right,→,0.4964014000725001,True,33,1
PO-M-22M22S1,1186,experiment,73,↑,up,↑,0.5638423999771476,True,33,1
PO-M-22M22S1,1187,experiment,71,↓,down,↓,0.6051944000646472,True,33,1
PO-M-22M22S1,1188,experiment,108,→,right,→,0.5287701000925153,True,33,1
PO-M-22M22S1,1189,experiment,53,↑,up,↑,0.5137366999406368,True,33,1
PO-M-22M22S1,1190,experiment,103,←,left,←,0.4092072998173535,True,33,1
PO-M-22M22S1,1191,experiment,104,←,left,←,0.4552547000348568,True,33,0
PO-M-22M22S1,1192,experiment,52,↓,down,↓,1.1468811999075115,True,33,1
PO-M-22M22S1,1193,experiment,82,←,left,←,0.4182621000800282,True,33,1
PO-M-22M22S1,1194,experiment,87,↓,down,↓,0.5547044998966157,True,33,0
PO-M-22M22S1,1195,experiment,62,↑,up,↑,0.4255894999951124,True,33,1
PO-M-22M22S1,1196,experiment,91,↑,up,↑,0.5197710997890681,True,33,0
PO-M-22M22S1,1197,experiment,72,↑,up,↑,0.3917789999395609,True,33,1
PO-M-22M22S1,1198,experiment,55,→,right,→,0.45648649986833334,True,33,0
PO-M-22M22S1,1199,experiment,90,→,right,→,0.3683537000324577,True,33,1
PO-M-22M22S1,1200,experiment,65,←,left,←,0.5541114001534879,True,33,0
PO-M-22M22S1,1201,experiment,70,↓,down,↓,0.692330100107938,True,33,1
PO-M-22M22S1,1202,experiment,84,←,left,←,0.40047729993239045,True,33,1
PO-M-22M22S1,1203,experiment,51,→,right,→,0.5148538998328149,True,33,0
PO-M-22M22S1,1204,experiment,86,→,left,←,0.505086800083518,False,33,1
PO-M-22M22S1,1205,experiment,75,←,no_key,no_letter,-1.0,False,33,1
PO-M-22M22S1,1206,experiment,60,←,no_key,no_letter,-1.0,False,33,1
PO-M-22M22S1,1207,experiment,101,↓,down,↓,0.4896235999185592,True,33,1
PO-M-22M22S1,1208,experiment,105,←,left,←,0.6350046000443399,True,33,1
PO-M-22M22S1,1209,experiment,69,→,right,→,0.41750149987637997,True,33,1
PO-M-22M22S1,1210,experiment,59,→,right,→,0.5169911000411958,True,33,0
PO-M-22M22S1,1211,experiment,48,→,no_key,no_letter,-1.0,False,33,1
PO-M-22M22S1,1212,experiment,66,→,right,→,0.5560139999724925,True,33,1
PO-M-22M22S1,1213,experiment,93,↑,up,↑,0.6144059998914599,True,33,1
PO-M-22M22S1,1214,experiment,89,↑,up,↑,0.4876500000245869,True,33,1
PO-M-22M22S1,1215,experiment,79,→,right,→,0.577573100104928,True,33,1
PO-M-22M22S1,1216,experiment,63,←,left,←,0.5653686998412013,True,33,1
PO-M-22M22S1,1217,experiment,97,→,right,→,0.5820746999233961,True,33,1
PO-M-22M22S1,1218,experiment,107,↑,up,↑,0.5627295000012964,True,33,1
PO-M-22M22S1,1219,experiment,83,↑,up,↑,0.40978260012343526,True,33,1
PO-M-22M22S1,1220,experiment,56,←,left,←,0.6126042001415044,True,33,0
PO-M-22M22S1,1221,experiment,88,←,left,←,0.542614699807018,True,33,1
PO-M-22M22S1,1222,experiment,76,→,right,→,0.42581030004657805,True,33,1
PO-M-22M22S1,1223,experiment,77,→,left,←,0.4601727998815477,False,33,0
PO-M-22M22S1,1224,experiment,58,→,right,→,0.5742180000524968,True,33,1
PO-M-22M22S1,1225,experiment,100,→,right,→,0.4176241001114249,True,33,1
PO-M-22M22S1,1226,experiment,50,↓,down,↓,0.47602820000611246,True,33,0
PO-M-22M22S1,1227,experiment,64,↑,up,↑,0.4751426998991519,True,33,1
PO-M-22M22S1,1228,experiment,78,←,left,←,0.509848500136286,True,33,1
PO-M-22M22S1,1229,experiment,57,↑,up,↑,0.3834838999900967,True,33,1
PO-M-22M22S1,1230,experiment,96,→,up,↑,0.7346054001245648,False,33,0
PO-M-22M22S1,1231,experiment,54,↓,down,↓,0.5589544998947531,True,33,1
PO-M-22M22S1,1232,experiment,99,←,left,←,0.36055819992907345,True,33,1
PO-M-22M22S1,1233,experiment,94,↓,down,↓,0.5526254998985678,True,33,0
PO-M-22M22S1,1234,experiment,102,↓,down,↓,0.464424500009045,True,33,1
PO-M-22M22S1,1235,experiment,92,←,left,←,0.5106777001637965,True,33,1
PO-M-22M22S1,1236,experiment,68,←,left,←,0.40072100004181266,True,33,1
PO-M-22M22S1,1237,experiment,49,←,left,←,0.6584938999731094,True,33,0
PO-M-22M22S1,1238,training,84,←,left,←,0.45320359990000725,True,33,0
PO-M-22M22S1,1239,training,56,→,left,←,0.6392157999798656,False,33,1
PO-M-22M22S1,1240,experiment,80,↑,up,↑,0.5388235999271274,True,33,1
PO-M-22M22S1,1241,experiment,67,→,left,←,0.7104938998818398,False,33,1
PO-M-22M22S1,1242,experiment,77,←,left,←,0.3932978000957519,True,33,1
PO-M-22M22S1,1243,experiment,97,→,right,→,0.40083640022203326,True,33,0
PO-M-22M22S1,1244,experiment,103,←,left,←,0.4090456000994891,True,33,0
PO-M-22M22S1,1245,experiment,57,↓,left,←,0.6964192998129874,False,33,0
PO-M-22M22S1,1246,experiment,62,→,right,→,0.4173057998996228,True,33,1
PO-M-22M22S1,1247,experiment,98,↓,no_key,no_letter,-1.0,False,33,0
PO-M-22M22S1,1248,experiment,53,→,right,→,0.3590855998918414,True,33,1
PO-M-22M22S1,1249,experiment,78,↑,up,↑,0.5009781001135707,True,33,0
PO-M-22M22S1,1250,experiment,54,→,right,→,0.48656069999560714,True,33,1
PO-M-22M22S1,1251,experiment,52,↓,no_key,no_letter,-1.0,False,33,1
PO-M-22M22S1,1252,experiment,101,↓,down,↓,0.5457643000409007,True,33,1
PO-M-22M22S1,1253,experiment,90,→,right,→,0.47803120012395084,True,33,1
PO-M-22M22S1,1254,experiment,51,↓,down,↓,0.45776959997601807,True,33,1
PO-M-22M22S1,1255,experiment,74,←,left,←,0.4781043000984937,True,33,1
PO-M-22M22S1,1256,experiment,49,→,right,→,0.42526659998111427,True,33,1
PO-M-22M22S1,1257,experiment,71,←,left,←,0.342204200103879,True,33,0
PO-M-22M22S1,1258,experiment,91,→,right,→,0.3757732000667602,True,33,0
PO-M-22M22S1,1259,experiment,107,←,left,←,0.4653413000050932,True,33,0
PO-M-22M22S1,1260,experiment,104,←,left,←,0.4513656999915838,True,33,1
PO-M-22M22S1,1261,experiment,102,←,left,←,0.6391946999356151,True,33,1
PO-M-22M22S1,1262,experiment,64,↑,up,↑,0.5042109999340028,True,33,1
PO-M-22M22S1,1263,experiment,68,←,left,←,0.36738090007565916,True,33,1
PO-M-22M22S1,1264,experiment,95,←,left,←,0.46974939992651343,True,33,0
PO-M-22M22S1,1265,experiment,59,←,left,←,0.5272131999954581,True,33,1
PO-M-22M22S1,1266,experiment,108,↓,down,↓,0.5737928000744432,True,33,1
PO-M-22M22S1,1267,experiment,76,↓,down,↓,0.7250113000627607,True,33,1
PO-M-22M22S1,1268,experiment,73,↑,up,↑,0.6475378000177443,True,33,1
PO-M-22M22S1,1269,experiment,94,←,left,←,0.47007560008205473,True,33,1
PO-M-22M22S1,1270,experiment,84,↓,down,↓,0.47884900006465614,True,33,1
PO-M-22M22S1,1271,experiment,48,↓,down,↓,0.4677577998954803,True,33,1
PO-M-22M22S1,1272,experiment,65,→,right,→,0.5709287000354379,True,33,1
PO-M-22M22S1,1273,experiment,69,→,right,→,0.6210143000353128,True,33,1
PO-M-22M22S1,1274,experiment,105,↑,up,↑,1.3210709998384118,True,33,1
PO-M-22M22S1,1275,experiment,66,→,right,→,0.5335512000601739,True,33,1
PO-M-22M22S1,1276,experiment,100,←,left,←,0.41749839996919036,True,33,1
PO-M-22M22S1,1277,experiment,87,↑,up,↑,0.48050349997356534,True,33,0
PO-M-22M22S1,1278,experiment,82,←,left,←,0.38423410011455417,True,33,1
PO-M-22M22S1,1279,experiment,86,→,right,→,0.5490331000182778,True,33,0
PO-M-22M22S1,1280,experiment,89,↑,up,↑,0.5929362000897527,True,33,1
PO-M-22M22S1,1281,experiment,61,→,left,←,0.5727735001128167,False,33,1
PO-M-22M22S1,1282,experiment,56,↑,up,↑,0.4516858998686075,True,33,1
PO-M-22M22S1,1283,experiment,99,→,right,→,0.6392291998490691,True,33,1
PO-M-22M22S1,1284,experiment,106,→,right,→,0.3508661000523716,True,33,1
PO-M-22M22S1,1285,experiment,72,↓,down,↓,0.5952767999842763,True,33,0
PO-M-22M22S1,1286,experiment,55,↓,down,↓,0.6091736999806017,True,33,1
PO-M-22M22S1,1287,experiment,58,↑,up,↑,0.5573648000136018,True,33,1
PO-M-22M22S1,1288,experiment,96,↑,up,↑,0.5105236999224871,True,33,1
PO-M-22M22S1,1289,experiment,81,→,right,→,0.6070271998178214,True,33,1
PO-M-22M22S1,1290,experiment,88,↓,down,↓,0.4812231999821961,True,33,1
PO-M-22M22S1,1291,experiment,75,→,right,→,0.32594499993138015,True,33,1
PO-M-22M22S1,1292,experiment,93,↑,up,↑,0.519899999955669,True,33,0
PO-M-22M22S1,1293,experiment,63,↓,down,↓,0.42573309992440045,True,33,1
PO-M-22M22S1,1294,experiment,60,←,left,←,0.7202874000649899,True,33,0
PO-M-22M22S1,1295,experiment,85,↑,up,↑,0.6631978000514209,True,33,1
PO-M-22M22S1,1296,experiment,79,←,left,←,0.48974710004404187,True,33,1
PO-M-22M22S1,1297,experiment,50,→,right,→,0.3588137000333518,True,33,1
PO-M-22M22S1,1298,experiment,70,←,left,←,0.36017090012319386,True,33,0
PO-M-22M22S1,1299,experiment,83,←,left,←,0.42546860012225807,True,33,0
PO-M-22M22S1,1300,experiment,92,↓,down,↓,0.6197489998303354,True,33,0
PO-M-22M22S1,1301,training,92,↑,up,↑,0.4008629999589175,True,32,0
PO-M-22M22S1,1302,training,80,→,up,↑,0.867941299919039,False,32,0
PO-M-22M22S1,1303,experiment,90,→,right,→,0.435187199851498,True,32,1
PO-M-22M22S1,1304,experiment,106,→,right,→,0.5736009001266211,True,32,0
PO-M-22M22S1,1305,experiment,98,↑,up,↑,0.4617355999071151,True,32,1
PO-M-22M22S1,1306,experiment,71,←,left,←,0.4829110000282526,True,32,1
PO-M-22M22S1,1307,experiment,72,↓,up,↑,0.6715862001292408,False,32,1
PO-M-22M22S1,1308,experiment,97,→,right,→,0.3755659000016749,True,32,1
PO-M-22M22S1,1309,experiment,56,←,no_key,no_letter,-1.0,False,32,0
PO-M-22M22S1,1310,experiment,101,↓,down,↓,0.6506423999089748,True,32,1
PO-M-22M22S1,1311,experiment,58,↑,up,↑,0.5085992000531405,True,32,1
PO-M-22M22S1,1312,experiment,75,↑,up,↑,0.3679798999801278,True,32,1
PO-M-22M22S1,1313,experiment,103,↑,up,↑,0.5170659001450986,True,32,0
PO-M-22M22S1,1314,experiment,83,←,left,←,0.5883964998647571,True,32,1
PO-M-22M22S1,1315,experiment,89,→,right,→,0.4706981999333948,True,32,1
PO-M-22M22S1,1316,experiment,84,↓,down,↓,0.44846629980020225,True,32,1
PO-M-22M22S1,1317,experiment,77,←,left,←,0.35017649992369115,True,32,1
PO-M-22M22S1,1318,experiment,65,→,no_key,no_letter,-1.0,False,32,0
PO-M-22M22S1,1319,experiment,76,→,right,→,0.49623519997112453,True,32,1
PO-M-22M22S1,1320,experiment,60,↑,up,↑,0.6000935998745263,True,32,1
PO-M-22M22S1,1321,experiment,61,←,left,←,0.38403650000691414,True,32,1
PO-M-22M22S1,1322,experiment,70,↑,up,↑,0.39225680008530617,True,32,0
PO-M-22M22S1,1323,experiment,81,↓,down,↓,0.465151600074023,True,32,0
PO-M-22M22S1,1324,experiment,80,→,left,←,0.40932440012693405,False,32,1
PO-M-22M22S1,1325,experiment,91,↑,up,↑,0.4762339999433607,True,32,0
PO-M-22M22S1,1326,experiment,57,↑,up,↑,0.4938696001190692,True,32,1
PO-M-22M22S1,1327,experiment,79,←,left,←,0.37595180002972484,True,32,1
PO-M-22M22S1,1328,experiment,78,→,right,→,0.5342612999957055,True,32,0
PO-M-22M22S1,1329,experiment,105,→,right,→,0.40112349996343255,True,32,1
PO-M-22M22S1,1330,experiment,52,←,right,→,0.47567120008170605,False,32,0
PO-M-22M22S1,1331,experiment,99,↑,up,↑,0.36818059999495745,True,32,1
PO-M-22M22S1,1332,experiment,67,→,right,→,0.44968690001405776,True,32,0
PO-M-22M22S1,1333,experiment,62,↑,up,↑,0.32569389999844134,True,32,1
PO-M-22M22S1,1334,experiment,100,↓,down,↓,0.4362850000616163,True,32,0
PO-M-22M22S1,1335,experiment,54,→,right,→,0.35882769990712404,True,32,0
PO-M-22M22S1,1336,experiment,85,←,left,←,0.38431299990043044,True,32,0
PO-M-22M22S1,1337,experiment,49,↓,up,↑,0.46819859999231994,False,32,0
PO-M-22M22S1,1338,experiment,63,↑,up,↑,0.4924584000837058,True,32,1
PO-M-22M22S1,1339,experiment,55,→,right,→,0.3340725000016391,True,32,1
PO-M-22M22S1,1340,experiment,64,↓,down,↓,0.48287780000828207,True,32,0
PO-M-22M22S1,1341,experiment,53,↑,up,↑,0.565564300166443,True,32,1
PO-M-22M22S1,1342,experiment,95,←,left,←,0.46300980006344616,True,32,1
PO-M-22M22S1,1343,experiment,50,↓,down,↓,0.5315724001266062,True,32,1
PO-M-22M22S1,1344,experiment,66,↓,down,↓,0.5200106999836862,True,32,1
PO-M-22M22S1,1345,experiment,94,→,right,→,0.5957105997949839,True,32,1
PO-M-22M22S1,1346,experiment,96,→,right,→,0.5077225000131875,True,32,1
PO-M-22M22S1,1347,experiment,74,↓,down,↓,0.5901810000650585,True,32,1
PO-M-22M22S1,1348,experiment,51,→,right,→,0.37534329993650317,True,32,1
PO-M-22M22S1,1349,experiment,86,←,left,←,0.617351699853316,True,32,0
PO-M-22M22S1,1350,experiment,92,←,left,←,0.6335730999708176,True,32,1
PO-M-22M22S1,1351,experiment,82,→,right,→,0.5087927000131458,True,32,1
PO-M-22M22S1,1352,experiment,104,↓,down,↓,0.5891893999651074,True,32,1
PO-M-22M22S1,1353,experiment,107,↓,down,↓,0.4896280998364091,True,32,1
PO-M-22M22S1,1354,experiment,88,↑,up,↑,0.4017767000477761,True,32,1
PO-M-22M22S1,1355,experiment,93,↑,up,↑,0.36724120005965233,True,32,0
PO-M-22M22S1,1356,experiment,73,↓,down,↓,0.5210934998467565,True,32,0
PO-M-22M22S1,1357,experiment,102,←,left,←,0.48960560001432896,True,32,1
PO-M-22M22S1,1358,experiment,48,↑,up,↑,0.5097638999577612,True,32,1
PO-M-22M22S1,1359,experiment,108,←,left,←,0.44548540003597736,True,32,1
PO-M-22M22S1,1360,experiment,69,↑,up,↑,0.45224679983220994,True,32,1
PO-M-22M22S1,1361,experiment,68,→,right,→,0.43556310003623366,True,32,1
PO-M-22M22S1,1362,experiment,87,↓,down,↓,0.6355800998862833,True,32,0
PO-M-22M22S1,1363,experiment,59,→,right,→,0.49443259998224676,True,32,1
PO-M-22M22S1,1364,training,102,→,right,→,0.4574478999711573,True,31,0
PO-M-22M22S1,1365,training,54,→,no_key,no_letter,-1.0,False,31,1
PO-M-22M22S1,1366,experiment,61,↑,left,←,0.7631389000453055,False,31,1
PO-M-22M22S1,1367,experiment,66,←,left,←,0.5580194999929518,True,31,1
PO-M-22M22S1,1368,experiment,73,←,left,←,0.3921581998001784,True,31,1
PO-M-22M22S1,1369,experiment,52,↑,up,↑,0.581460899906233,True,31,0
PO-M-22M22S1,1370,experiment,80,→,right,→,0.5315080999862403,True,31,1
PO-M-22M22S1,1371,experiment,65,↑,up,↑,1.6877412998583168,True,31,1
PO-M-22M22S1,1372,experiment,55,→,left,←,0.4576875998172909,False,31,1
PO-M-22M22S1,1373,experiment,60,→,right,→,0.467285200022161,True,31,1
PO-M-22M22S1,1374,experiment,99,↓,down,↓,0.463784399908036,True,31,1
PO-M-22M22S1,1375,experiment,87,←,left,←,0.6870455001480877,True,31,1
PO-M-22M22S1,1376,experiment,68,↓,down,↓,0.5409425999969244,True,31,1
PO-M-22M22S1,1377,experiment,88,↑,up,↑,0.4977967001032084,True,31,1
PO-M-22M22S1,1378,experiment,94,↓,down,↓,0.5580288998316973,True,31,1
PO-M-22M22S1,1379,experiment,92,↑,up,↑,0.5047373999841511,True,31,1
PO-M-22M22S1,1380,experiment,50,↓,down,↓,0.44410330010578036,True,31,1
PO-M-22M22S1,1381,experiment,74,←,left,←,0.3671804000623524,True,31,1
PO-M-22M22S1,1382,experiment,77,←,left,←,0.5837144001852721,True,31,0
PO-M-22M22S1,1383,experiment,54,↓,left,←,0.8300224000122398,False,31,1
PO-M-22M22S1,1384,experiment,102,→,right,→,0.5464478000067174,True,31,1
PO-M-22M22S1,1385,experiment,96,↓,down,↓,0.40079089999198914,True,31,1
PO-M-22M22S1,1386,experiment,71,→,right,→,0.49194959993474185,True,31,0
PO-M-22M22S1,1387,experiment,82,→,right,→,0.3588330000638962,True,31,1
PO-M-22M22S1,1388,experiment,89,↑,up,↑,0.39318909985013306,True,31,0
PO-M-22M22S1,1389,experiment,62,↑,up,↑,1.5625497999135405,True,31,0
PO-M-22M22S1,1390,experiment,75,←,left,←,0.4747771001420915,True,31,1
PO-M-22M22S1,1391,experiment,84,←,left,←,0.6436890000477433,True,31,1
PO-M-22M22S1,1392,experiment,78,→,right,→,0.6554781999439001,True,31,1
PO-M-22M22S1,1393,experiment,64,↑,up,↑,0.5115829999558628,True,31,1
PO-M-22M22S1,1394,experiment,81,↓,down,↓,0.5680591000709683,True,31,1
PO-M-22M22S1,1395,experiment,98,→,right,→,0.4564340999349952,True,31,1
PO-M-22M22S1,1396,experiment,70,→,right,→,0.910406099865213,True,31,1
PO-M-22M22S1,1397,experiment,53,↑,up,↑,1.4164775998797268,True,31,1
PO-M-22M22S1,1398,experiment,49,↓,down,↓,0.5267922999337316,True,31,1
PO-M-22M22S1,1399,experiment,51,↑,up,↑,0.5208300999365747,True,31,1
PO-M-22M22S1,1400,experiment,79,↓,down,↓,0.5693035998847336,True,31,1
PO-M-22M22S1,1401,experiment,58,↓,down,↓,0.5350102998781949,True,31,1
PO-M-22M22S1,1402,experiment,101,↓,up,↑,0.6480009998194873,False,31,1
PO-M-22M22S1,1403,experiment,63,↑,up,↑,0.4809516998939216,True,31,1
PO-M-22M22S1,1404,experiment,83,→,right,→,0.4654248000588268,True,31,1
PO-M-22M22S1,1405,experiment,57,↓,left,←,1.5475130998529494,False,31,1
PO-M-22M22S1,1406,experiment,103,→,right,→,0.5225134000647813,True,31,1
