PART_ID,Trial_no,Trial_type,CSI,Stim_letter,Key_pressed,letter_choose,Rt,Corr,Stimulus Time,nDropped
RC-M-23M23S2,1,training,120,→,right,→,0.642320099985227,True,60,0
RC-M-23M23S2,2,training,120,←,left,←,0.5674675998743623,True,60,0
RC-M-23M23S2,3,training,120,←,left,←,0.5757378998678178,True,60,0
RC-M-23M23S2,4,training,120,→,right,→,0.5496867999900132,True,60,0
RC-M-23M23S2,5,training,120,↓,down,↓,0.6262131000403315,True,60,0
RC-M-23M23S2,6,training,120,↓,down,↓,0.6341723999939859,True,60,0
RC-M-23M23S2,7,training,120,→,right,→,0.4913518999237567,True,60,0
RC-M-23M23S2,8,training,120,←,left,←,0.5342218999285251,True,60,0
RC-M-23M23S2,9,training,120,↓,down,↓,0.5008292000275105,True,60,0
RC-M-23M23S2,10,training,120,↑,up,↑,0.5506016998551786,True,60,0
RC-M-23M23S2,11,training,120,↓,down,↓,0.4769528000615537,True,60,0
RC-M-23M23S2,12,training,120,←,left,←,0.5677086000796407,True,60,0
RC-M-23M23S2,13,training,120,→,right,→,0.5250540000852197,True,60,0
RC-M-23M23S2,14,training,120,←,left,←,0.5004292000085115,True,60,0
RC-M-23M23S2,15,training,120,←,left,←,0.5022879000753164,True,60,0
RC-M-23M23S2,16,training,120,↓,down,↓,0.5768748999107629,True,60,0
RC-M-23M23S2,17,training,120,↑,up,↑,0.5092333001084626,True,60,0
RC-M-23M23S2,18,training,120,↑,up,↑,0.617577699944377,True,60,0
RC-M-23M23S2,19,training,120,←,left,←,0.517266099806875,True,60,0
RC-M-23M23S2,20,training,120,↑,up,↑,0.5090931998565793,True,60,0
RC-M-23M23S2,21,no_adaptation,120,←,left,←,0.7093418999575078,True,36,0
RC-M-23M23S2,22,no_adaptation,120,←,left,←,0.6078202000353485,True,36,0
RC-M-23M23S2,23,no_adaptation,120,←,left,←,0.5746939000673592,True,36,0
RC-M-23M23S2,24,no_adaptation,120,→,right,→,0.6069006999023259,True,36,0
RC-M-23M23S2,25,no_adaptation,120,↑,up,↑,0.5178655998315662,True,36,0
RC-M-23M23S2,26,no_adaptation,120,↓,down,↓,0.575963499955833,True,36,0
RC-M-23M23S2,27,no_adaptation,120,←,left,←,0.48862499999813735,True,36,0
RC-M-23M23S2,28,no_adaptation,120,↓,down,↓,0.44266270007938147,True,36,0
RC-M-23M23S2,29,no_adaptation,120,↑,up,↑,0.5048697998281568,True,36,0
RC-M-23M23S2,30,no_adaptation,120,←,left,←,0.5397265998180956,True,36,0
RC-M-23M23S2,31,no_adaptation,120,↑,up,↑,0.4500717001501471,True,36,0
RC-M-23M23S2,32,no_adaptation,120,↑,up,↑,0.690259600058198,True,36,0
RC-M-23M23S2,33,no_adaptation,120,↑,up,↑,0.4781553999055177,True,36,0
RC-M-23M23S2,34,no_adaptation,120,→,right,→,0.6655322001315653,True,36,0
RC-M-23M23S2,35,no_adaptation,120,←,left,←,0.5342089000623673,True,36,0
RC-M-23M23S2,36,no_adaptation,120,←,left,←,0.5598450000397861,True,36,0
RC-M-23M23S2,37,no_adaptation,120,←,left,←,0.4099206000100821,True,36,0
RC-M-23M23S2,38,no_adaptation,120,↓,down,↓,1.17499820003286,True,36,0
RC-M-23M23S2,39,no_adaptation,120,↑,up,↑,0.49494460015557706,True,36,0
RC-M-23M23S2,40,no_adaptation,120,↑,up,↑,1.3222597998101264,True,36,0
RC-M-23M23S2,41,training,68,→,left,←,0.9197506001219153,False,36,0
RC-M-23M23S2,42,training,71,→,right,→,0.523186800070107,True,36,1
RC-M-23M23S2,43,experiment,52,←,left,←,0.6126210000365973,True,36,1
RC-M-23M23S2,44,experiment,80,↑,up,↑,1.1130612001288682,True,36,1
RC-M-23M23S2,45,experiment,94,↓,down,↓,0.5727782000321895,True,36,1
RC-M-23M23S2,46,experiment,70,←,left,←,0.5420396002009511,True,36,1
RC-M-23M23S2,47,experiment,79,↑,up,↑,0.509842999977991,True,36,1
RC-M-23M23S2,48,experiment,87,↓,down,↓,0.6201569999102503,True,36,1
RC-M-23M23S2,49,experiment,64,←,left,←,0.4700031001120806,True,36,1
RC-M-23M23S2,50,experiment,56,→,right,→,0.5760823001619428,True,36,0
RC-M-23M23S2,51,experiment,106,←,left,←,0.5415650000795722,True,36,1
RC-M-23M23S2,52,experiment,101,←,left,←,0.5417140999343246,True,36,1
RC-M-23M23S2,53,experiment,58,↓,down,↓,0.5725024999119341,True,36,1
RC-M-23M23S2,54,experiment,91,↓,down,↓,0.69482950004749,True,36,1
RC-M-23M23S2,55,experiment,54,←,left,←,1.2410283000208437,True,36,1
RC-M-23M23S2,56,experiment,66,→,right,→,0.6410435999277979,True,36,1
RC-M-23M23S2,57,experiment,83,↑,up,↑,0.4839214999228716,True,36,1
RC-M-23M23S2,58,experiment,92,→,right,→,0.5850426000542939,True,36,1
RC-M-23M23S2,59,experiment,85,↑,up,↑,0.7573071999941021,True,36,1
RC-M-23M23S2,60,experiment,100,↓,down,↓,0.5812955999281257,True,36,1
RC-M-23M23S2,61,experiment,68,↓,down,↓,0.5270575999747962,True,36,1
RC-M-23M23S2,62,experiment,72,↓,down,↓,0.6975424999836832,True,36,1
RC-M-23M23S2,63,experiment,96,↑,up,↑,0.5732650000136346,True,36,1
RC-M-23M23S2,64,experiment,98,→,right,→,0.6773294000886381,True,36,1
RC-M-23M23S2,65,experiment,97,←,left,←,0.6258243001066148,True,36,1
RC-M-23M23S2,66,experiment,73,↑,up,↑,0.5840968999546021,True,36,1
RC-M-23M23S2,67,experiment,57,←,left,←,0.6137464998755604,True,36,1
RC-M-23M23S2,68,experiment,71,↓,down,↓,0.5490250999573618,True,36,1
RC-M-23M23S2,69,experiment,82,↑,up,↑,1.5632382999174297,True,36,1
RC-M-23M23S2,70,experiment,69,←,left,←,0.5411727000027895,True,36,1
RC-M-23M23S2,71,experiment,53,↑,up,↑,0.5497756998520344,True,36,1
RC-M-23M23S2,72,experiment,89,↑,up,↑,0.8417199999094009,True,36,1
RC-M-23M23S2,73,experiment,49,←,left,←,0.5196542001795024,True,36,1
RC-M-23M23S2,74,experiment,61,→,right,→,0.5901993999723345,True,36,1
RC-M-23M23S2,75,experiment,62,↑,up,↑,0.49001230020076036,True,36,1
RC-M-23M23S2,76,experiment,90,←,left,←,0.959480999968946,True,36,1
RC-M-23M23S2,77,experiment,51,←,left,←,0.4880035000387579,True,36,1
RC-M-23M23S2,78,experiment,99,↓,down,↓,0.5151279999408871,True,36,1
RC-M-23M23S2,79,experiment,55,→,right,→,0.547836699988693,True,36,1
RC-M-23M23S2,80,experiment,60,→,right,→,0.7374819000251591,True,36,1
RC-M-23M23S2,81,experiment,81,←,left,←,0.5606378999073058,True,36,1
RC-M-23M23S2,82,experiment,104,←,left,←,0.5273239000234753,True,36,1
RC-M-23M23S2,83,experiment,84,↑,up,↑,0.5340511000249535,True,36,1
RC-M-23M23S2,84,experiment,75,↓,down,↓,0.48760759993456304,True,36,1
RC-M-23M23S2,85,experiment,86,↓,down,↓,0.68735590018332,True,36,1
RC-M-23M23S2,86,experiment,48,→,right,→,0.5318381998222321,True,36,1
RC-M-23M23S2,87,experiment,59,↓,down,↓,0.6423323999624699,True,36,1
RC-M-23M23S2,88,experiment,65,→,right,→,0.48285780008882284,True,36,1
RC-M-23M23S2,89,experiment,103,↑,up,↑,0.5327848000451922,True,36,1
RC-M-23M23S2,90,experiment,107,↓,down,↓,0.507626699982211,True,36,1
RC-M-23M23S2,91,experiment,95,←,left,←,0.47197000007145107,True,36,1
RC-M-23M23S2,92,experiment,67,→,right,→,0.5256944000720978,True,36,0
RC-M-23M23S2,93,experiment,105,←,left,←,0.5016479999758303,True,36,1
RC-M-23M23S2,94,experiment,108,→,right,→,0.5410432999487966,True,36,1
RC-M-23M23S2,95,experiment,102,↓,down,↓,0.6609618000220507,True,36,1
RC-M-23M23S2,96,experiment,74,↓,down,↓,0.48214720003306866,True,36,1
RC-M-23M23S2,97,experiment,93,→,right,→,0.59137859987095,True,36,1
RC-M-23M23S2,98,experiment,77,→,right,→,0.5578236000146717,True,36,1
RC-M-23M23S2,99,experiment,76,↓,down,↓,0.4777279000263661,True,36,1
RC-M-23M23S2,100,experiment,63,↓,down,↓,0.5816641999408603,True,36,1
RC-M-23M23S2,101,experiment,88,↑,up,↑,0.6086788999382406,True,36,1
RC-M-23M23S2,102,experiment,50,←,left,←,0.6071808999404311,True,36,1
RC-M-23M23S2,103,experiment,78,↓,down,↓,0.5327061999123544,True,36,1
RC-M-23M23S2,104,training,98,→,right,→,0.5704939998686314,True,35,0
RC-M-23M23S2,105,training,107,←,left,←,0.46445080009289086,True,35,1
RC-M-23M23S2,106,experiment,75,↓,down,↓,0.5082203999627382,True,35,1
RC-M-23M23S2,107,experiment,95,↑,up,↑,0.5516505998093635,True,35,1
RC-M-23M23S2,108,experiment,83,→,right,→,0.6217906998936087,True,35,1
RC-M-23M23S2,109,experiment,72,↑,up,↑,0.5165905000176281,True,35,1
RC-M-23M23S2,110,experiment,98,↓,down,↓,0.511140099959448,True,35,1
RC-M-23M23S2,111,experiment,87,←,left,←,0.4693171000108123,True,35,1
RC-M-23M23S2,112,experiment,62,↑,up,↑,0.5257205001544207,True,35,1
RC-M-23M23S2,113,experiment,89,←,left,←,0.4752796001266688,True,35,1
RC-M-23M23S2,114,experiment,50,←,left,←,0.9988607000559568,True,35,1
RC-M-23M23S2,115,experiment,64,↑,up,↑,0.489638099912554,True,35,1
RC-M-23M23S2,116,experiment,104,↓,down,↓,0.5307194001507014,True,35,1
RC-M-23M23S2,117,experiment,51,↓,down,↓,0.6762693000491709,True,35,1
RC-M-23M23S2,118,experiment,76,←,left,←,0.5035607998725027,True,35,1
RC-M-23M23S2,119,experiment,66,→,right,→,0.5495226001366973,True,35,1
RC-M-23M23S2,120,experiment,90,↓,down,↓,0.4427644000388682,True,35,1
RC-M-23M23S2,121,experiment,56,↑,up,↑,0.5081583000719547,True,35,0
RC-M-23M23S2,122,experiment,86,←,left,←,1.066764600109309,True,35,1
RC-M-23M23S2,123,experiment,108,↓,down,↓,0.5957353999838233,True,35,1
RC-M-23M23S2,124,experiment,57,↓,down,↓,0.6725844999309629,True,35,1
RC-M-23M23S2,125,experiment,63,↓,down,↓,0.7207614001818001,True,35,1
RC-M-23M23S2,126,experiment,91,↓,down,↓,0.5731856999918818,True,35,1
RC-M-23M23S2,127,experiment,49,↑,down,↓,1.061911900062114,False,35,1
RC-M-23M23S2,128,experiment,74,←,left,←,0.5145289001520723,True,35,1
RC-M-23M23S2,129,experiment,94,→,right,→,0.6300190000329167,True,35,1
RC-M-23M23S2,130,experiment,80,↓,down,↓,0.5377893999684602,True,35,1
RC-M-23M23S2,131,experiment,103,←,left,←,0.6016369999852031,True,35,1
RC-M-23M23S2,132,experiment,92,→,right,→,0.7545183000620455,True,35,1
RC-M-23M23S2,133,experiment,71,↓,down,↓,0.5321917000692338,True,35,1
RC-M-23M23S2,134,experiment,54,←,left,←,0.5807169999461621,True,35,1
RC-M-23M23S2,135,experiment,106,↓,down,↓,0.6257236001547426,True,35,1
RC-M-23M23S2,136,experiment,85,↓,down,↓,0.5323633998632431,True,35,1
RC-M-23M23S2,137,experiment,88,→,right,→,0.7452610998880118,True,35,1
RC-M-23M23S2,138,experiment,59,←,left,←,0.5914246998727322,True,35,1
RC-M-23M23S2,139,experiment,101,↑,up,↑,0.542040399974212,True,35,1
RC-M-23M23S2,140,experiment,84,↑,up,↑,0.49992710002698004,True,35,1
RC-M-23M23S2,141,experiment,68,→,right,→,0.5848734998144209,True,35,1
RC-M-23M23S2,142,experiment,73,←,left,←,0.5290879998356104,True,35,1
RC-M-23M23S2,143,experiment,99,↑,up,↑,0.6504282001405954,True,35,1
RC-M-23M23S2,144,experiment,77,←,left,←,0.5427004999946803,True,35,1
RC-M-23M23S2,145,experiment,70,↑,up,↑,0.38395519996993244,True,35,1
RC-M-23M23S2,146,experiment,81,↑,up,↑,0.38399589993059635,True,35,0
RC-M-23M23S2,147,experiment,48,↓,down,↓,0.6145355999469757,True,35,0
RC-M-23M23S2,148,experiment,107,←,left,←,0.5298119999933988,True,35,1
RC-M-23M23S2,149,experiment,97,↓,down,↓,0.5479995000641793,True,35,1
RC-M-23M23S2,150,experiment,52,↑,up,↑,0.6045905000064522,True,35,1
RC-M-23M23S2,151,experiment,93,←,left,←,0.5408517001196742,True,35,1
RC-M-23M23S2,152,experiment,67,→,right,→,0.6562300999648869,True,35,1
RC-M-23M23S2,153,experiment,79,←,left,←,0.5473898998461664,True,35,1
RC-M-23M23S2,154,experiment,61,↑,up,↑,0.6169600000139326,True,35,1
RC-M-23M23S2,155,experiment,60,↓,down,↓,0.5479353000409901,True,35,1
RC-M-23M23S2,156,experiment,55,←,left,←,0.46815320011228323,True,35,1
RC-M-23M23S2,157,experiment,58,↑,up,↑,0.8286725000943989,True,35,1
RC-M-23M23S2,158,experiment,100,↑,up,↑,0.8825666999910027,True,35,1
RC-M-23M23S2,159,experiment,78,→,right,→,0.6282969999592751,True,35,1
RC-M-23M23S2,160,experiment,65,↑,up,↑,0.7493830998428166,True,35,1
RC-M-23M23S2,161,experiment,102,←,left,←,0.485065900022164,True,35,1
RC-M-23M23S2,162,experiment,105,↑,up,↑,0.5991668000351638,True,35,1
RC-M-23M23S2,163,experiment,53,←,left,←,0.5088151998352259,True,35,1
RC-M-23M23S2,164,experiment,82,↑,up,↑,0.5968015999533236,True,35,1
RC-M-23M23S2,165,experiment,69,←,left,←,0.4935441000852734,True,35,1
RC-M-23M23S2,166,experiment,96,↓,down,↓,0.5617043999955058,True,35,1
RC-M-23M23S2,167,training,72,→,right,→,0.5854219999164343,True,34,0
RC-M-23M23S2,168,training,76,→,right,→,0.46468740003183484,True,34,1
RC-M-23M23S2,169,experiment,75,→,right,→,0.3840622999705374,True,34,1
RC-M-23M23S2,170,experiment,62,↑,up,↑,0.5840314000379294,True,34,0
RC-M-23M23S2,171,experiment,94,↑,up,↑,0.35065359994769096,True,34,1
RC-M-23M23S2,172,experiment,93,↑,up,↑,0.3840986001305282,True,34,0
RC-M-23M23S2,173,experiment,65,→,right,→,0.48580590006895363,True,34,0
RC-M-23M23S2,174,experiment,87,↑,up,↑,1.1488669998943806,True,34,1
RC-M-23M23S2,175,experiment,90,↑,up,↑,0.48102759988978505,True,34,1
RC-M-23M23S2,176,experiment,63,→,right,→,0.9522996000014246,True,34,1
RC-M-23M23S2,177,experiment,100,↓,down,↓,0.4343034999910742,True,34,1
RC-M-23M23S2,178,experiment,76,↑,up,↑,0.8614529001060873,True,34,0
RC-M-23M23S2,179,experiment,88,↓,down,↓,0.6212307999376208,True,34,1
RC-M-23M23S2,180,experiment,49,→,right,→,0.468034700024873,True,34,1
RC-M-23M23S2,181,experiment,108,↑,up,↑,0.4530019999947399,True,34,1
RC-M-23M23S2,182,experiment,91,↓,down,↓,0.4676483999937773,True,34,1
RC-M-23M23S2,183,experiment,74,→,right,→,1.031866999808699,True,34,1
RC-M-23M23S2,184,experiment,77,↑,up,↑,0.4925627000629902,True,34,1
RC-M-23M23S2,185,experiment,95,↓,down,↓,0.5610547999385744,True,34,1
RC-M-23M23S2,186,experiment,107,↓,down,↓,0.47905110009014606,True,34,1
RC-M-23M23S2,187,experiment,104,↑,up,↑,0.4963016000110656,True,34,1
RC-M-23M23S2,188,experiment,53,←,left,←,0.5064479000866413,True,34,1
RC-M-23M23S2,189,experiment,52,↓,down,↓,0.5804437999613583,True,34,1
RC-M-23M23S2,190,experiment,83,←,left,←,0.6253237999044359,True,34,1
RC-M-23M23S2,191,experiment,105,→,left,←,0.5088762999512255,False,34,1
RC-M-23M23S2,192,experiment,101,←,left,←,0.6465753000229597,True,34,1
RC-M-23M23S2,193,experiment,59,←,left,←,0.6092461999505758,True,34,1
RC-M-23M23S2,194,experiment,85,↓,down,↓,0.6041190999094397,True,34,1
RC-M-23M23S2,195,experiment,71,↑,up,↑,0.6276855999603868,True,34,1
RC-M-23M23S2,196,experiment,58,→,right,→,0.5273532001301646,True,34,1
RC-M-23M23S2,197,experiment,106,→,right,→,0.5426368999760598,True,34,1
RC-M-23M23S2,198,experiment,60,↑,up,↑,0.4847171998117119,True,34,1
RC-M-23M23S2,199,experiment,80,↑,up,↑,0.6624628000427037,True,34,1
RC-M-23M23S2,200,experiment,51,↓,down,↓,0.5305157001130283,True,34,1
RC-M-23M23S2,201,experiment,103,→,right,→,0.5787970998790115,True,34,1
RC-M-23M23S2,202,experiment,81,←,left,←,0.5924845000263304,True,34,1
RC-M-23M23S2,203,experiment,78,←,left,←,0.6462417000439018,True,34,1
RC-M-23M23S2,204,experiment,50,←,left,←,0.42560519999824464,True,34,1
RC-M-23M23S2,205,experiment,57,↑,up,↑,0.495278500020504,True,34,0
RC-M-23M23S2,206,experiment,79,→,right,→,0.5851416999939829,True,34,1
RC-M-23M23S2,207,experiment,67,↑,up,↑,0.5229174999985844,True,34,1
RC-M-23M23S2,208,experiment,61,→,right,→,0.521540499990806,True,34,1
RC-M-23M23S2,209,experiment,73,→,right,→,0.6202501999214292,True,34,1
RC-M-23M23S2,210,experiment,48,→,right,→,0.5472373999655247,True,34,1
RC-M-23M23S2,211,experiment,72,↑,up,↑,0.40905759995803237,True,34,1
RC-M-23M23S2,212,experiment,66,←,left,←,0.5661422000266612,True,34,0
RC-M-23M23S2,213,experiment,56,→,right,→,0.5886223998386413,True,34,1
RC-M-23M23S2,214,experiment,102,↑,up,↑,0.4176314000505954,True,34,1
RC-M-23M23S2,215,experiment,98,→,right,→,0.3916495000012219,True,34,0
RC-M-23M23S2,216,experiment,86,←,left,←,0.5238067000173032,True,34,0
RC-M-23M23S2,217,experiment,54,↓,down,↓,0.5723675000481308,True,34,1
RC-M-23M23S2,218,experiment,69,→,right,→,0.6062449000310153,True,34,1
RC-M-23M23S2,219,experiment,92,→,right,→,0.7109215999953449,True,34,1
RC-M-23M23S2,220,experiment,97,↓,down,↓,0.586187600158155,True,34,1
RC-M-23M23S2,221,experiment,89,→,right,→,0.4767609001137316,True,34,1
RC-M-23M23S2,222,experiment,68,↑,up,↑,0.6027436000294983,True,34,1
RC-M-23M23S2,223,experiment,84,↓,down,↓,0.5985612999647856,True,34,1
RC-M-23M23S2,224,experiment,96,↑,up,↑,0.622280300129205,True,34,1
RC-M-23M23S2,225,experiment,55,↑,up,↑,0.4985689001623541,True,34,1
RC-M-23M23S2,226,experiment,70,↑,up,↑,0.4338808001484722,True,34,1
RC-M-23M23S2,227,experiment,64,←,left,←,0.5597816000226885,True,34,0
RC-M-23M23S2,228,experiment,82,←,left,←,0.5100111002102494,True,34,1
RC-M-23M23S2,229,experiment,99,→,right,→,0.5443692000117153,True,34,1
RC-M-23M23S2,230,training,55,↑,up,↑,0.4581738000269979,True,33,0
RC-M-23M23S2,231,training,61,↓,down,↓,0.4753828002139926,True,33,1
RC-M-23M23S2,232,experiment,49,←,left,←,0.3923454999458045,True,33,1
RC-M-23M23S2,233,experiment,81,↑,up,↑,0.4925680998712778,True,33,0
RC-M-23M23S2,234,experiment,72,→,right,→,0.5287190999370068,True,33,1
RC-M-23M23S2,235,experiment,51,→,right,→,0.5143512999638915,True,33,1
RC-M-23M23S2,236,experiment,93,↑,up,↑,0.478520100004971,True,33,1
RC-M-23M23S2,237,experiment,69,↑,up,↑,0.5321454999502748,True,33,1
RC-M-23M23S2,238,experiment,68,→,right,→,0.6318141999654472,True,33,1
RC-M-23M23S2,239,experiment,59,→,right,→,0.5148595999926329,True,33,1
RC-M-23M23S2,240,experiment,74,→,right,→,0.36734479991719127,True,33,1
RC-M-23M23S2,241,experiment,95,↓,down,↓,0.5581632999237627,True,33,0
RC-M-23M23S2,242,experiment,88,←,left,←,1.0820919999387115,True,33,1
RC-M-23M23S2,243,experiment,52,↑,up,↑,0.5496763999108225,True,33,1
RC-M-23M23S2,244,experiment,55,→,right,→,0.5165514000691473,True,33,1
RC-M-23M23S2,245,experiment,64,↑,up,↑,0.9942531001288444,True,33,1
RC-M-23M23S2,246,experiment,67,↑,up,↑,1.1000502000097185,True,33,1
RC-M-23M23S2,247,experiment,91,↓,down,↓,0.6016176000703126,True,33,1
RC-M-23M23S2,248,experiment,83,←,left,←,0.4540834000799805,True,33,1
RC-M-23M23S2,249,experiment,96,→,right,→,0.7386989998631179,True,33,1
RC-M-23M23S2,250,experiment,66,→,right,→,0.575108699966222,True,33,1
RC-M-23M23S2,251,experiment,57,↑,up,↑,0.4162614999804646,True,33,1
RC-M-23M23S2,252,experiment,102,↓,down,↓,0.521277200197801,True,33,0
RC-M-23M23S2,253,experiment,82,→,right,→,0.47292189998552203,True,33,1
RC-M-23M23S2,254,experiment,97,↓,down,↓,0.613149399869144,True,33,1
RC-M-23M23S2,255,experiment,78,←,left,←,0.5706023999955505,True,33,1
RC-M-23M23S2,256,experiment,77,↑,up,↑,0.4815763998776674,True,33,1
RC-M-23M23S2,257,experiment,94,→,right,→,0.5107225999236107,True,33,1
RC-M-23M23S2,258,experiment,105,↑,up,↑,0.5271074001211673,True,33,1
RC-M-23M23S2,259,experiment,106,→,right,→,0.5824301999527961,True,33,1
RC-M-23M23S2,260,experiment,92,←,left,←,0.5042634999845177,True,33,1
RC-M-23M23S2,261,experiment,103,↓,down,↓,0.5451688999310136,True,33,1
RC-M-23M23S2,262,experiment,58,↑,up,↑,0.44888230017386377,True,33,1
RC-M-23M23S2,263,experiment,76,↓,down,↓,0.5085479998961091,True,33,1
RC-M-23M23S2,264,experiment,63,↑,up,↑,0.4988122000358999,True,33,1
RC-M-23M23S2,265,experiment,80,→,right,→,0.5238975998945534,True,33,1
RC-M-23M23S2,266,experiment,65,↓,down,↓,0.5291732999030501,True,33,1
RC-M-23M23S2,267,experiment,56,←,left,←,0.6006106999702752,True,33,1
RC-M-23M23S2,268,experiment,84,←,left,←,0.48434869991615415,True,33,1
RC-M-23M23S2,269,experiment,101,→,right,→,0.6633244999684393,True,33,1
RC-M-23M23S2,270,experiment,104,←,left,←,0.4502025998663157,True,33,1
RC-M-23M23S2,271,experiment,71,↑,up,↑,0.543369600083679,True,33,1
RC-M-23M23S2,272,experiment,48,↑,up,↑,0.4092479001265019,True,33,1
RC-M-23M23S2,273,experiment,73,→,right,→,0.5120762998703867,True,33,0
RC-M-23M23S2,274,experiment,87,↓,down,↓,0.5344623001292348,True,33,1
RC-M-23M23S2,275,experiment,86,→,right,→,0.7002385000232607,True,33,1
RC-M-23M23S2,276,experiment,60,←,left,←,0.5798865000251681,True,33,1
RC-M-23M23S2,277,experiment,62,→,right,→,0.5199849000200629,True,33,1
RC-M-23M23S2,278,experiment,100,→,left,←,0.47343900008127093,False,33,1
RC-M-23M23S2,279,experiment,79,↑,up,↑,0.4763466001022607,True,33,1
RC-M-23M23S2,280,experiment,50,←,left,←,0.5919367999304086,True,33,1
RC-M-23M23S2,281,experiment,54,↑,up,↑,0.7503003000747412,True,33,1
RC-M-23M23S2,282,experiment,108,←,left,←,0.4837050000205636,True,33,1
RC-M-23M23S2,283,experiment,98,→,right,→,0.6634961999952793,True,33,1
RC-M-23M23S2,284,experiment,99,←,left,←,0.6194117998238653,True,33,1
RC-M-23M23S2,285,experiment,75,↑,up,↑,0.5136110000312328,True,33,1
RC-M-23M23S2,286,experiment,53,↑,up,↑,0.49898799997754395,True,33,1
RC-M-23M23S2,287,experiment,89,↓,down,↓,0.5129397001583129,True,33,1
RC-M-23M23S2,288,experiment,70,→,right,→,0.5804798000026494,True,33,1
RC-M-23M23S2,289,experiment,90,→,right,→,0.5592273999936879,True,33,1
RC-M-23M23S2,290,experiment,107,←,left,←,0.4531812001951039,True,33,1
RC-M-23M23S2,291,experiment,85,→,right,→,0.6942157000303268,True,33,1
RC-M-23M23S2,292,experiment,61,↓,down,↓,0.5902717001736164,True,33,1
RC-M-23M23S2,293,training,61,↑,up,↑,0.44058519997633994,True,32,0
RC-M-23M23S2,294,training,64,↑,up,↑,0.47250519995577633,True,32,0
RC-M-23M23S2,295,experiment,94,↑,up,↑,1.06168740009889,True,32,1
RC-M-23M23S2,296,experiment,99,←,left,←,1.0100448001176119,True,32,1
RC-M-23M23S2,297,experiment,75,←,left,←,0.6084803000558168,True,32,1
RC-M-23M23S2,298,experiment,92,↑,up,↑,0.5060740001499653,True,32,1
RC-M-23M23S2,299,experiment,106,↑,up,↑,0.4652456999756396,True,32,1
RC-M-23M23S2,300,experiment,101,↓,down,↓,0.6365182001609355,True,32,1
RC-M-23M23S2,301,experiment,86,←,left,←,0.47021490009501576,True,32,1
RC-M-23M23S2,302,experiment,78,→,right,→,0.6489684998523444,True,32,1
RC-M-23M23S2,303,experiment,70,↑,up,↑,0.44010810018517077,True,32,1
RC-M-23M23S2,304,experiment,87,→,right,→,0.48815760016441345,True,32,1
RC-M-23M23S2,305,experiment,104,←,left,←,0.5535299000330269,True,32,1
RC-M-23M23S2,306,experiment,52,←,left,←,0.59396420000121,True,32,1
RC-M-23M23S2,307,experiment,62,←,left,←,0.5014031999744475,True,32,1
RC-M-23M23S2,308,experiment,93,↑,up,↑,0.41763109993189573,True,32,1
RC-M-23M23S2,309,experiment,79,↓,down,↓,0.5666668000631034,True,32,0
RC-M-23M23S2,310,experiment,67,↓,down,↓,0.6812241000588983,True,32,1
RC-M-23M23S2,311,experiment,74,→,left,←,0.47683970001526177,False,32,1
RC-M-23M23S2,312,experiment,65,←,left,←,0.6282751997932792,True,32,1
RC-M-23M23S2,313,experiment,55,↑,up,↑,0.48081550002098083,True,32,1
RC-M-23M23S2,314,experiment,98,←,left,←,0.5401981000322849,True,32,1
RC-M-23M23S2,315,experiment,96,↓,down,↓,0.574492400046438,True,32,1
RC-M-23M23S2,316,experiment,89,←,left,←,0.6172687001526356,True,32,1
RC-M-23M23S2,317,experiment,107,→,right,→,0.6446626998949796,True,32,1
RC-M-23M23S2,318,experiment,84,↑,up,↑,0.566907900152728,True,32,1
RC-M-23M23S2,319,experiment,53,↓,down,↓,0.5421282998286188,True,32,1
RC-M-23M23S2,320,experiment,97,↑,up,↑,0.552517700009048,True,32,1
RC-M-23M23S2,321,experiment,73,←,left,←,0.625424399971962,True,32,1
RC-M-23M23S2,322,experiment,85,←,left,←,0.46769249998033047,True,32,1
RC-M-23M23S2,323,experiment,102,↓,down,↓,0.5826687000226229,True,32,1
RC-M-23M23S2,324,experiment,60,←,left,←,0.45940899988636374,True,32,1
RC-M-23M23S2,325,experiment,57,↑,up,↑,0.48540370003320277,True,32,1
RC-M-23M23S2,326,experiment,61,→,right,→,0.7174593999516219,True,32,1
RC-M-23M23S2,327,experiment,80,↓,down,↓,0.5902823000214994,True,32,1
RC-M-23M23S2,328,experiment,59,→,right,→,0.6345832999795675,True,32,1
RC-M-23M23S2,329,experiment,56,↓,down,↓,0.4943009000271559,True,32,1
RC-M-23M23S2,330,experiment,71,←,left,←,0.562490499811247,True,32,1
RC-M-23M23S2,331,experiment,58,←,left,←,0.5127006999682635,True,32,1
RC-M-23M23S2,332,experiment,100,↑,up,↑,0.6104761001188308,True,32,1
RC-M-23M23S2,333,experiment,64,→,right,→,0.5805322001688182,True,32,1
RC-M-23M23S2,334,experiment,63,→,right,→,0.5360489999875426,True,32,1
RC-M-23M23S2,335,experiment,81,→,right,→,0.7514225000049919,True,32,1
RC-M-23M23S2,336,experiment,49,↓,down,↓,0.6887693998869509,True,32,1
RC-M-23M23S2,337,experiment,77,↑,up,↑,0.44306560000404716,True,32,1
RC-M-23M23S2,338,experiment,105,↑,up,↑,0.3757124999538064,True,32,0
RC-M-23M23S2,339,experiment,69,↑,up,↑,0.5036969999782741,True,32,0
RC-M-23M23S2,340,experiment,82,←,left,←,0.5518754001241177,True,32,1
RC-M-23M23S2,341,experiment,66,←,left,←,0.6198493000119925,True,32,1
RC-M-23M23S2,342,experiment,91,↓,down,↓,0.4523662000428885,True,32,1
RC-M-23M23S2,343,experiment,90,↓,down,↓,0.516137900063768,True,32,1
RC-M-23M23S2,344,experiment,95,→,right,→,0.40898900013417006,True,32,1
RC-M-23M23S2,345,experiment,51,←,left,←,0.549514900194481,True,32,0
RC-M-23M23S2,346,experiment,88,→,right,→,0.6018697000108659,True,32,1
RC-M-23M23S2,347,experiment,48,↓,down,↓,0.5777163999155164,True,32,1
RC-M-23M23S2,348,experiment,108,↑,up,↑,0.5585566000081599,True,32,1
RC-M-23M23S2,349,experiment,103,↑,up,↑,0.4460899999830872,True,32,1
RC-M-23M23S2,350,experiment,54,↓,up,↑,0.6412596998270601,False,32,1
RC-M-23M23S2,351,experiment,50,→,right,→,0.5748594000469893,True,32,1
RC-M-23M23S2,352,experiment,83,↑,up,↑,0.47594500007107854,True,32,1
RC-M-23M23S2,353,experiment,76,↓,down,↓,0.5831082998774946,True,32,1
RC-M-23M23S2,354,experiment,68,→,right,→,0.5450816000811756,True,32,1
RC-M-23M23S2,355,experiment,72,↓,down,↓,0.47507419995963573,True,32,1
RC-M-23M23S2,356,training,61,↓,down,↓,0.5389777000527829,True,31,0
RC-M-23M23S2,357,training,99,↓,down,↓,0.4521504999138415,True,31,1
RC-M-23M23S2,358,experiment,87,↓,down,↓,0.5965770001057535,True,31,1
RC-M-23M23S2,359,experiment,62,↑,up,↑,0.5518199999351054,True,31,1
RC-M-23M23S2,360,experiment,97,←,left,←,0.5132212000899017,True,31,1
RC-M-23M23S2,361,experiment,90,↑,up,↑,0.46248310012742877,True,31,1
RC-M-23M23S2,362,experiment,96,↑,up,↑,0.6997698000632226,True,31,1
RC-M-23M23S2,363,experiment,64,↓,down,↓,0.5220452002249658,True,31,1
RC-M-23M23S2,364,experiment,95,→,right,→,0.4533522999845445,True,31,1
RC-M-23M23S2,365,experiment,88,↓,down,↓,0.5252855001017451,True,31,1
RC-M-23M23S2,366,experiment,98,↓,down,↓,0.5751221999526024,True,31,1
RC-M-23M23S2,367,experiment,76,→,right,→,0.4867922000121325,True,31,1
RC-M-23M23S2,368,experiment,85,↑,up,↑,0.5750519998837262,True,31,1
RC-M-23M23S2,369,experiment,63,←,left,←,0.5307807999197394,True,31,1
RC-M-23M23S2,370,experiment,59,↓,up,↑,0.801071799825877,False,31,1
RC-M-23M23S2,371,experiment,86,→,right,→,0.7961242001038045,True,31,1
RC-M-23M23S2,372,experiment,61,↑,up,↑,0.639598699985072,True,31,1
RC-M-23M23S2,373,experiment,82,↑,up,↑,0.802315300097689,True,31,1
RC-M-23M23S2,374,experiment,94,↑,up,↑,0.5706290998496115,True,31,1
RC-M-23M23S2,375,experiment,78,←,left,←,0.641370499972254,True,31,1
RC-M-23M23S2,376,experiment,104,→,right,→,0.5726878000423312,True,31,1
RC-M-23M23S2,377,experiment,69,←,left,←,0.4545469998847693,True,31,1
RC-M-23M23S2,378,experiment,72,←,left,←,0.5001725999172777,True,31,1
RC-M-23M23S2,379,experiment,79,↓,down,↓,0.8616424999199808,True,31,1
RC-M-23M23S2,380,experiment,70,→,left,←,0.4838171999435872,False,31,1
RC-M-23M23S2,381,experiment,81,→,right,→,0.5249512000009418,True,31,1
RC-M-23M23S2,382,experiment,67,→,right,→,0.5215168998111039,True,31,1
RC-M-23M23S2,383,experiment,58,↑,up,↑,0.505066700046882,True,31,1
RC-M-23M23S2,384,experiment,56,←,left,←,0.5858092000707984,True,31,1
RC-M-23M23S2,385,experiment,66,↑,up,↑,0.4759677001275122,True,31,1
RC-M-23M23S2,386,experiment,100,←,left,←,0.5754070999100804,True,31,1
RC-M-23M23S2,387,experiment,106,↓,down,↓,0.5410058998968452,True,31,1
RC-M-23M23S2,388,experiment,92,→,right,→,0.46429349994286895,True,31,1
RC-M-23M23S2,389,experiment,50,↓,down,↓,0.5167011001612991,True,31,1
RC-M-23M23S2,390,experiment,99,↑,up,↑,0.5429435998667032,True,31,1
RC-M-23M23S2,391,experiment,75,↓,down,↓,0.8957488001324236,True,31,1
RC-M-23M23S2,392,experiment,103,←,left,←,0.47309249988757074,True,31,1
RC-M-23M23S2,393,experiment,108,↓,down,↓,0.6103082001209259,True,31,1
RC-M-23M23S2,394,experiment,89,↓,down,↓,0.48349000001326203,True,31,1
RC-M-23M23S2,395,experiment,83,←,left,←,0.6840719000902027,True,31,1
RC-M-23M23S2,396,experiment,68,↑,up,↑,0.4420775999315083,True,31,1
RC-M-23M23S2,397,experiment,84,←,left,←,0.4364136001095176,True,31,1
RC-M-23M23S2,398,experiment,57,←,left,←,0.5756657999008894,True,31,1
RC-M-23M23S2,399,experiment,102,←,left,←,0.6541089001111686,True,31,1
RC-M-23M23S2,400,experiment,93,↓,down,↓,0.6445642001926899,True,31,1
RC-M-23M23S2,401,experiment,71,→,right,→,0.5470856002066284,True,31,1
RC-M-23M23S2,402,experiment,107,←,left,←,0.44906789995729923,True,31,1
RC-M-23M23S2,403,experiment,105,↓,down,↓,0.49983660015277565,True,31,1
RC-M-23M23S2,404,experiment,74,←,left,←,1.1190229000058025,True,31,1
RC-M-23M23S2,405,experiment,55,↓,down,↓,0.6314938999712467,True,31,1
RC-M-23M23S2,406,experiment,65,↓,down,↓,0.5443440000526607,True,31,1
RC-M-23M23S2,407,experiment,54,↓,down,↓,0.5922534000128508,True,31,1
RC-M-23M23S2,408,experiment,53,←,left,←,0.49481229996308684,True,31,1
RC-M-23M23S2,409,experiment,80,↓,down,↓,0.6881807998288423,True,31,1
RC-M-23M23S2,410,experiment,101,↑,up,↑,0.53045399999246,True,31,1
RC-M-23M23S2,411,experiment,77,↑,up,↑,0.3922514000441879,True,31,1
RC-M-23M23S2,412,experiment,51,↑,up,↑,0.6257751998491585,True,31,0
RC-M-23M23S2,413,experiment,91,→,right,→,0.5627741999924183,True,31,1
RC-M-23M23S2,414,experiment,52,↑,up,↑,0.40028390008956194,True,31,1
RC-M-23M23S2,415,experiment,49,↑,up,↑,0.3841413001064211,True,31,0
RC-M-23M23S2,416,experiment,73,→,right,→,0.5374720999971032,True,31,0
RC-M-23M23S2,417,experiment,60,↓,down,↓,0.591771500185132,True,31,1
RC-M-23M23S2,418,experiment,48,↓,down,↓,0.5758962999098003,True,31,1
RC-M-23M23S2,419,training,93,↑,up,↑,0.5448036000598222,True,30,0
RC-M-23M23S2,420,training,108,↓,down,↓,0.5185028000269085,True,30,1
RC-M-23M23S2,421,experiment,87,→,right,→,0.6363339000381529,True,30,1
RC-M-23M23S2,422,experiment,53,→,right,→,0.4491508000064641,True,30,1
RC-M-23M23S2,423,experiment,63,↓,down,↓,0.5617939999792725,True,30,1
RC-M-23M23S2,424,experiment,80,↓,down,↓,0.7444980000145733,True,30,1
RC-M-23M23S2,425,experiment,100,↑,up,↑,0.5370415998622775,True,30,1
RC-M-23M23S2,426,experiment,54,→,right,→,0.7135791000910103,True,30,1
RC-M-23M23S2,427,experiment,70,↑,up,↑,0.46178829995915294,True,30,1
RC-M-23M23S2,428,experiment,55,←,left,←,0.7046878999099135,True,30,1
RC-M-23M23S2,429,experiment,101,→,right,→,0.7941695000045002,True,30,1
RC-M-23M23S2,430,experiment,60,↑,up,↑,0.494151100050658,True,30,1
RC-M-23M23S2,431,experiment,99,↓,down,↓,0.5213961000554264,True,30,1
RC-M-23M23S2,432,experiment,93,→,right,→,0.4928398998454213,True,30,1
RC-M-23M23S2,433,experiment,49,↑,up,↑,0.45701660006307065,True,30,1
RC-M-23M23S2,434,experiment,78,→,right,→,0.7323413998819888,True,30,1
RC-M-23M23S2,435,experiment,79,→,right,→,0.5084148000460118,True,30,1
RC-M-23M23S2,436,experiment,95,↓,down,↓,0.47179960017092526,True,30,1
RC-M-23M23S2,437,experiment,61,↓,down,↓,0.4562617999035865,True,30,1
RC-M-23M23S2,438,experiment,85,↓,down,↓,0.5453419999685138,True,30,1
RC-M-23M23S2,439,experiment,65,→,right,→,0.4699806999415159,True,30,1
RC-M-23M23S2,440,experiment,106,↑,up,↑,0.5677470001392066,True,30,1
RC-M-23M23S2,441,experiment,86,←,left,←,0.5478574000298977,True,30,1
RC-M-23M23S2,442,experiment,102,↑,up,↑,0.46761319995857775,True,30,1
RC-M-23M23S2,443,experiment,107,→,right,→,0.437166600022465,True,30,1
RC-M-23M23S2,444,experiment,71,→,right,→,0.48380429996177554,True,30,1
RC-M-23M23S2,445,experiment,68,↓,down,↓,0.5215332000516355,True,30,1
RC-M-23M23S2,446,experiment,67,↓,down,↓,0.6145577998831868,True,30,1
RC-M-23M23S2,447,experiment,104,↓,down,↓,0.5308046999853104,True,30,1
RC-M-23M23S2,448,experiment,52,←,left,←,0.7397933998145163,True,30,1
RC-M-23M23S2,449,experiment,76,↑,up,↑,0.6605174001306295,True,30,1
RC-M-23M23S2,450,experiment,97,↓,down,↓,0.5294872000813484,True,30,1
RC-M-23M23S2,451,experiment,81,→,right,→,0.7048210999928415,True,30,1
RC-M-23M23S2,452,experiment,69,↑,up,↑,0.5253185001201928,True,30,1
RC-M-23M23S2,453,experiment,74,↓,down,↓,0.5355157000012696,True,30,1
RC-M-23M23S2,454,experiment,103,↑,up,↑,0.7594142998568714,True,30,1
RC-M-23M23S2,455,experiment,59,↓,down,↓,0.4770691997837275,True,30,1
RC-M-23M23S2,456,experiment,56,←,left,←,0.575486599933356,True,30,1
RC-M-23M23S2,457,experiment,92,←,left,←,0.5052821999415755,True,30,1
RC-M-23M23S2,458,experiment,58,↑,up,↑,1.185382999945432,True,30,1
RC-M-23M23S2,459,experiment,105,↑,up,↑,0.44676829990930855,True,30,1
RC-M-23M23S2,460,experiment,50,↓,down,↓,0.5719558000564575,True,30,1
RC-M-23M23S2,461,experiment,84,→,right,→,0.46447360003367066,True,30,1
RC-M-23M23S2,462,experiment,90,↑,up,↑,0.7194536000024527,True,30,1
RC-M-23M23S2,463,experiment,89,↓,down,↓,0.6607005000114441,True,30,1
RC-M-23M23S2,464,experiment,108,↑,up,↑,0.5107777998782694,True,30,1
RC-M-23M23S2,465,experiment,83,←,left,←,0.48596249986439943,True,30,1
RC-M-23M23S2,466,experiment,75,↓,down,↓,0.5694293000269681,True,30,1
RC-M-23M23S2,467,experiment,51,←,left,←,0.5277613999787718,True,30,1
RC-M-23M23S2,468,experiment,62,↑,up,↑,0.6378943000454456,True,30,1
RC-M-23M23S2,469,experiment,94,→,right,→,0.6446338999085128,True,30,1
RC-M-23M23S2,470,experiment,77,←,left,←,0.4887708998285234,True,30,1
RC-M-23M23S2,471,experiment,64,←,left,←,0.5356566000264138,True,30,1
RC-M-23M23S2,472,experiment,73,↓,down,↓,0.5378054999746382,True,30,1
RC-M-23M23S2,473,experiment,72,←,left,←,0.48406670009717345,True,30,1
RC-M-23M23S2,474,experiment,66,→,left,←,0.4983761999756098,False,30,1
RC-M-23M23S2,475,experiment,48,↓,down,↓,0.5020828999113292,True,30,1
RC-M-23M23S2,476,experiment,96,↑,up,↑,0.40025630011223257,True,30,1
RC-M-23M23S2,477,experiment,82,↓,down,↓,0.478586700046435,True,30,0
RC-M-23M23S2,478,experiment,98,↑,up,↑,0.4184929998591542,True,30,1
RC-M-23M23S2,479,experiment,57,→,right,→,0.5663962999824435,True,30,0
RC-M-23M23S2,480,experiment,91,↑,up,↑,0.8490321000572294,True,30,1
RC-M-23M23S2,481,experiment,88,↑,up,↑,0.3930025000590831,True,30,1
RC-M-23M23S2,482,training,70,↑,up,↑,0.8238145001232624,True,29,0
RC-M-23M23S2,483,training,77,←,left,←,0.47685980005189776,True,29,1
RC-M-23M23S2,484,experiment,94,←,left,←,0.48228780017234385,True,29,1
RC-M-23M23S2,485,experiment,85,→,left,←,0.5383515998255461,False,29,1
RC-M-23M23S2,486,experiment,57,←,left,←,0.4415066000074148,True,29,1
RC-M-23M23S2,487,experiment,58,↑,up,↑,0.4203382998239249,True,29,1
RC-M-23M23S2,488,experiment,106,↓,down,↓,0.5598420000169426,True,29,1
RC-M-23M23S2,489,experiment,101,↓,down,↓,0.6797427998390049,True,29,1
RC-M-23M23S2,490,experiment,54,←,left,←,0.45793600007891655,True,29,1
RC-M-23M23S2,491,experiment,66,←,left,←,0.5934267998673022,True,29,1
RC-M-23M23S2,492,experiment,91,→,right,→,0.4110763999633491,True,29,1
RC-M-23M23S2,493,experiment,95,←,left,←,0.7306341000366956,True,29,0
RC-M-23M23S2,494,experiment,67,→,right,→,0.5584929999895394,True,29,1
RC-M-23M23S2,495,experiment,60,↑,up,↑,0.6917421999387443,True,29,1
RC-M-23M23S2,496,experiment,49,←,left,←,0.5197489000856876,True,29,1
RC-M-23M23S2,497,experiment,93,→,right,→,0.5717749998439103,True,29,1
RC-M-23M23S2,498,experiment,51,←,left,←,0.6035193998832256,True,29,1
RC-M-23M23S2,499,experiment,80,↓,down,↓,0.5364657999016345,True,29,1
RC-M-23M23S2,500,experiment,77,←,left,←,0.6653364000376314,True,29,1
RC-M-23M23S2,501,experiment,108,←,left,←,0.4985278998501599,True,29,1
RC-M-23M23S2,502,experiment,70,↓,down,↓,0.5587531998753548,True,29,1
RC-M-23M23S2,503,experiment,61,→,right,→,0.5238527997862548,True,29,1
RC-M-23M23S2,504,experiment,90,↑,up,↑,0.8085507999639958,True,29,1
RC-M-23M23S2,505,experiment,105,↑,up,↑,1.0372687000781298,True,29,1
RC-M-23M23S2,506,experiment,84,↑,up,↑,0.6072256001643836,True,29,1
RC-M-23M23S2,507,experiment,96,↑,up,↑,0.43877970008179545,True,29,1
RC-M-23M23S2,508,experiment,92,↓,down,↓,0.5259837999474257,True,29,1
RC-M-23M23S2,509,experiment,78,→,right,→,0.4630919999908656,True,29,1
RC-M-23M23S2,510,experiment,81,↓,down,↓,0.5368053999263793,True,29,1
RC-M-23M23S2,511,experiment,65,→,right,→,0.5734733000863343,True,29,1
RC-M-23M23S2,512,experiment,83,←,left,←,0.4746036999858916,True,29,1
RC-M-23M23S2,513,experiment,82,←,left,←,0.4439928000792861,True,29,1
RC-M-23M23S2,514,experiment,68,→,left,←,0.4914510000962764,False,29,1
RC-M-23M23S2,515,experiment,76,↑,up,↑,0.446310100145638,True,29,1
RC-M-23M23S2,516,experiment,59,→,right,→,0.5682057999074459,True,29,1
RC-M-23M23S2,517,experiment,52,↑,up,↑,0.44035209994763136,True,29,1
RC-M-23M23S2,518,experiment,89,←,left,←,0.48095090012066066,True,29,1
RC-M-23M23S2,519,experiment,50,↑,up,↑,0.4762339999433607,True,29,1
RC-M-23M23S2,520,experiment,99,↑,up,↑,0.4481583999004215,True,29,1
RC-M-23M23S2,521,experiment,102,←,left,←,0.4996211000252515,True,29,1
RC-M-23M23S2,522,experiment,74,↑,up,↑,0.48701919987797737,True,29,1
RC-M-23M23S2,523,experiment,64,←,left,←,1.013879300095141,True,29,1
RC-M-23M23S2,524,experiment,86,↑,up,↑,1.0161554000806063,True,29,1
RC-M-23M23S2,525,experiment,55,↑,up,↑,0.4289870001375675,True,29,1
RC-M-23M23S2,526,experiment,97,↑,up,↑,0.4592681999783963,True,29,1
RC-M-23M23S2,527,experiment,62,↑,up,↑,0.41284230002202094,True,29,1
RC-M-23M23S2,528,experiment,56,↓,up,↑,0.8884274000301957,False,29,1
RC-M-23M23S2,529,experiment,104,→,right,→,0.5939392999280244,True,29,1
RC-M-23M23S2,530,experiment,72,←,left,←,0.49798629991710186,True,29,1
RC-M-23M23S2,531,experiment,98,←,left,←,0.5090767999645323,True,29,1
RC-M-23M23S2,532,experiment,103,↑,up,↑,0.4860282998997718,True,29,1
RC-M-23M23S2,533,experiment,87,↓,down,↓,0.6532767000608146,True,29,1
RC-M-23M23S2,534,experiment,48,↓,down,↓,0.6672135000117123,True,29,1
RC-M-23M23S2,535,experiment,63,←,left,←,0.4271531000267714,True,29,1
RC-M-23M23S2,536,experiment,53,→,right,→,0.5282777000684291,True,29,1
RC-M-23M23S2,537,experiment,100,←,left,←,0.39211430004797876,True,29,1
RC-M-23M23S2,538,experiment,79,→,left,←,0.8709332998842001,False,29,0
RC-M-23M23S2,539,experiment,88,→,right,→,0.5344457000028342,True,29,1
RC-M-23M23S2,540,experiment,71,↑,up,↑,0.577660899842158,True,29,1
RC-M-23M23S2,541,experiment,75,←,left,←,0.49734469992108643,True,29,1
RC-M-23M23S2,542,experiment,69,↑,up,↑,0.8539613999892026,True,29,1
RC-M-23M23S2,543,experiment,73,→,left,←,0.46732839988544583,False,29,1
RC-M-23M23S2,544,experiment,107,→,right,→,0.5647318998817354,True,29,1
RC-M-23M23S2,545,training,87,↓,left,←,0.7238557999953628,False,28,0
RC-M-23M23S2,546,training,98,↑,up,↑,0.4856489000376314,True,28,1
RC-M-23M23S2,547,experiment,105,↓,down,↓,0.6069478997960687,True,28,1
RC-M-23M23S2,548,experiment,102,→,right,→,1.1164180000778288,True,28,1
RC-M-23M23S2,549,experiment,62,←,left,←,0.5784465000033379,True,28,1
RC-M-23M23S2,550,experiment,94,→,left,←,0.5081600002013147,False,28,1
RC-M-23M23S2,551,experiment,66,←,left,←,0.529603699920699,True,28,1
RC-M-23M23S2,552,experiment,82,↓,down,↓,0.6406527000945061,True,28,1
RC-M-23M23S2,553,experiment,50,↑,up,↑,0.5499142000917345,True,28,1
RC-M-23M23S2,554,experiment,84,↓,down,↓,0.4518112998921424,True,28,1
RC-M-23M23S2,555,experiment,107,←,left,←,0.6936514999251813,True,28,1
RC-M-23M23S2,556,experiment,69,→,right,→,0.514802600024268,True,28,1
RC-M-23M23S2,557,experiment,75,←,left,←,0.6210515999700874,True,28,1
RC-M-23M23S2,558,experiment,80,↑,up,↑,0.48086840007454157,True,28,1
RC-M-23M23S2,559,experiment,68,→,right,→,0.4546471000649035,True,28,1
RC-M-23M23S2,560,experiment,93,→,right,→,1.2854879000224173,True,28,1
RC-M-23M23S2,561,experiment,77,→,right,→,0.48805330018512905,True,28,1
RC-M-23M23S2,562,experiment,104,←,left,←,0.5053516000043601,True,28,1
RC-M-23M23S2,563,experiment,90,→,right,→,0.5588062000460923,True,28,1
RC-M-23M23S2,564,experiment,52,↑,up,↑,0.40755110001191497,True,28,1
RC-M-23M23S2,565,experiment,86,←,left,←,0.7456637001596391,True,28,1
RC-M-23M23S2,566,experiment,48,↑,up,↑,0.5712125999853015,True,28,1
RC-M-23M23S2,567,experiment,91,↑,up,↑,0.3758004999253899,True,28,1
RC-M-23M23S2,568,experiment,78,→,right,→,0.5564884000923485,True,28,0
RC-M-23M23S2,569,experiment,97,←,left,←,0.45392929995432496,True,28,1
RC-M-23M23S2,570,experiment,63,→,right,→,0.6783954000566155,True,28,1
RC-M-23M23S2,571,experiment,101,←,left,←,0.5533459999132901,True,28,1
RC-M-23M23S2,572,experiment,88,←,left,←,0.5016850000247359,True,28,1
RC-M-23M23S2,573,experiment,89,↓,down,↓,1.5879100998863578,True,28,1
RC-M-23M23S2,574,experiment,51,→,right,→,0.4667468999978155,True,28,1
RC-M-23M23S2,575,experiment,95,↑,up,↑,0.4481724000070244,True,28,1
RC-M-23M23S2,576,experiment,59,↓,down,↓,0.46623230003751814,True,28,1
RC-M-23M23S2,577,experiment,56,←,left,←,0.46861260011792183,True,28,1
RC-M-23M23S2,578,experiment,83,↑,up,↑,0.965957900043577,True,28,1
RC-M-23M23S2,579,experiment,65,↑,up,↑,0.44951209984719753,True,28,1
RC-M-23M23S2,580,experiment,70,↓,down,↓,0.5838001000229269,True,28,1
RC-M-23M23S2,581,experiment,73,←,left,←,0.6239845999516547,True,28,1
RC-M-23M23S2,582,experiment,57,↑,up,↑,0.44348679995164275,True,28,1
RC-M-23M23S2,583,experiment,72,←,left,←,0.5616651000455022,True,28,1
RC-M-23M23S2,584,experiment,87,↑,up,↑,0.4067945999559015,True,28,1
RC-M-23M23S2,585,experiment,64,→,right,→,0.7202425000723451,True,28,1
RC-M-23M23S2,586,experiment,67,↑,up,↑,0.46135089988820255,True,28,1
RC-M-23M23S2,587,experiment,71,→,left,←,0.4669669000431895,False,28,1
RC-M-23M23S2,588,experiment,58,↑,up,↑,0.3840756001882255,True,28,1
RC-M-23M23S2,589,experiment,81,←,right,→,0.5776151001919061,False,28,0
RC-M-23M23S2,590,experiment,103,←,left,←,0.3591890998650342,True,28,1
RC-M-23M23S2,591,experiment,96,↓,up,↑,0.46498439996503294,False,28,0
RC-M-23M23S2,592,experiment,76,↑,up,↑,0.3830749001353979,True,28,1
RC-M-23M23S2,593,experiment,98,→,left,←,0.5643287999555469,False,28,0
RC-M-23M23S2,594,experiment,85,↑,up,↑,0.44861700013279915,True,28,1
RC-M-23M23S2,595,experiment,100,↓,down,↓,0.5972584998235106,True,28,1
RC-M-23M23S2,596,experiment,106,↑,up,↑,0.4656569000799209,True,28,1
RC-M-23M23S2,597,experiment,74,↓,down,↓,0.5820957000833005,True,28,1
RC-M-23M23S2,598,experiment,99,↓,down,↓,0.557293200166896,True,28,1
RC-M-23M23S2,599,experiment,61,↓,down,↓,0.4427459998987615,True,28,1
RC-M-23M23S2,600,experiment,60,↑,up,↑,0.4925072998739779,True,28,1
RC-M-23M23S2,601,experiment,53,←,left,←,0.4550987998954952,True,28,1
RC-M-23M23S2,602,experiment,108,→,right,→,0.4487169000785798,True,28,1
RC-M-23M23S2,603,experiment,54,←,left,←,0.5001566000282764,True,28,1
RC-M-23M23S2,604,experiment,92,→,right,→,0.5852367000188679,True,28,1
RC-M-23M23S2,605,experiment,79,←,left,←,0.42361699999310076,True,28,1
RC-M-23M23S2,606,experiment,49,↓,down,↓,0.48556099995039403,True,28,1
RC-M-23M23S2,607,experiment,55,→,right,→,0.46378570003435016,True,28,1
RC-M-23M23S2,608,training,102,↓,down,↓,0.45874019991606474,True,28,0
RC-M-23M23S2,609,training,63,→,left,←,0.4194070000667125,False,28,1
RC-M-23M23S2,610,experiment,104,→,right,→,0.6078250000718981,True,28,1
RC-M-23M23S2,611,experiment,49,→,right,→,0.5668122000060976,True,28,1
RC-M-23M23S2,612,experiment,97,↓,down,↓,0.6159436001908034,True,28,1
RC-M-23M23S2,613,experiment,76,↓,down,↓,0.485655999975279,True,28,1
RC-M-23M23S2,614,experiment,88,↑,up,↑,0.42043910012580454,True,28,1
RC-M-23M23S2,615,experiment,83,←,left,←,0.6874371999874711,True,28,1
RC-M-23M23S2,616,experiment,48,←,left,←,0.5877990999724716,True,28,1
RC-M-23M23S2,617,experiment,98,↓,down,↓,0.5391351000871509,True,28,1
RC-M-23M23S2,618,experiment,94,→,right,→,0.47782759997062385,True,28,1
RC-M-23M23S2,619,experiment,77,→,right,→,0.6648311999160796,True,28,1
RC-M-23M23S2,620,experiment,107,↓,down,↓,0.4898506999015808,True,28,1
RC-M-23M23S2,621,experiment,101,↑,up,↑,0.5084315999411047,True,28,1
RC-M-23M23S2,622,experiment,103,↓,down,↓,1.1413412000983953,True,28,1
RC-M-23M23S2,623,experiment,96,←,left,←,0.5354953999631107,True,28,1
RC-M-23M23S2,624,experiment,78,↓,down,↓,0.49627340002916753,True,28,1
RC-M-23M23S2,625,experiment,105,→,down,↓,0.5526233999989927,False,28,1
RC-M-23M23S2,626,experiment,58,↓,down,↓,0.5990488999523222,True,28,1
RC-M-23M23S2,627,experiment,52,↑,up,↑,0.5176076998468488,True,28,1
RC-M-23M23S2,628,experiment,92,→,right,→,0.5218390000518411,True,28,1
RC-M-23M23S2,629,experiment,65,↑,up,↑,0.4952432999853045,True,28,1
RC-M-23M23S2,630,experiment,74,←,left,←,0.5142832000274211,True,28,1
RC-M-23M23S2,631,experiment,108,↑,up,↑,0.4101722000632435,True,28,1
RC-M-23M23S2,632,experiment,79,←,left,←,0.5183451001066715,True,28,1
RC-M-23M23S2,633,experiment,71,←,left,←,0.4495486000087112,True,28,1
RC-M-23M23S2,634,experiment,90,→,right,→,0.46542109991423786,True,28,1
RC-M-23M23S2,635,experiment,84,↑,up,↑,0.4107462000101805,True,28,1
RC-M-23M23S2,636,experiment,82,←,left,←,0.517989199841395,True,28,1
RC-M-23M23S2,637,experiment,54,←,left,←,0.5353846999350935,True,28,1
RC-M-23M23S2,638,experiment,53,↑,up,↑,0.4717373000457883,True,28,1
RC-M-23M23S2,639,experiment,106,↓,down,↓,0.6332479999400675,True,28,1
RC-M-23M23S2,640,experiment,89,→,left,←,0.4820840999018401,False,28,1
RC-M-23M23S2,641,experiment,91,↓,down,↓,0.44033319992013276,True,28,1
RC-M-23M23S2,642,experiment,50,↓,down,↓,0.5497341998852789,True,28,1
RC-M-23M23S2,643,experiment,57,→,right,→,0.9644480999559164,True,28,1
RC-M-23M23S2,644,experiment,69,↓,down,↓,0.4304186999797821,True,28,1
RC-M-23M23S2,645,experiment,100,↑,down,↓,0.9154372999910265,False,28,1
RC-M-23M23S2,646,experiment,87,→,right,→,0.4255091999657452,True,28,1
RC-M-23M23S2,647,experiment,81,↑,up,↑,0.6051469000522047,True,28,1
RC-M-23M23S2,648,experiment,70,↑,up,↑,0.5650484999641776,True,28,1
RC-M-23M23S2,649,experiment,67,↓,down,↓,1.2241448001004755,True,28,1
RC-M-23M23S2,650,experiment,85,↓,down,↓,0.450429700082168,True,28,1
RC-M-23M23S2,651,experiment,86,↓,down,↓,0.37547819991596043,True,28,1
RC-M-23M23S2,652,experiment,60,↓,down,↓,0.5839879000559449,True,28,0
RC-M-23M23S2,653,experiment,102,→,right,→,0.5662128999829292,True,28,1
RC-M-23M23S2,654,experiment,80,→,right,→,0.5246508999262005,True,28,1
RC-M-23M23S2,655,experiment,72,←,left,←,0.607376900035888,True,28,1
RC-M-23M23S2,656,experiment,73,←,right,→,0.5583410998806357,False,28,1
RC-M-23M23S2,657,experiment,61,←,left,←,0.5473827000241727,True,28,1
RC-M-23M23S2,658,experiment,95,↑,right,→,1.1335712999571115,False,28,1
RC-M-23M23S2,659,experiment,51,↑,up,↑,0.47876260010525584,True,28,1
RC-M-23M23S2,660,experiment,68,←,left,←,0.5487712000031024,True,28,1
RC-M-23M23S2,661,experiment,64,↑,up,↑,0.5694512999616563,True,28,1
RC-M-23M23S2,662,experiment,62,←,left,←,0.5017744998913258,True,28,1
RC-M-23M23S2,663,experiment,66,→,right,→,0.4514373999554664,True,28,1
RC-M-23M23S2,664,experiment,93,→,right,→,0.45825539994984865,True,28,1
RC-M-23M23S2,665,experiment,56,↑,up,↑,0.4291012999601662,True,28,1
RC-M-23M23S2,666,experiment,99,↓,down,↓,0.58637799997814,True,28,1
RC-M-23M23S2,667,experiment,63,→,right,→,0.46177850011736155,True,28,1
RC-M-23M23S2,668,experiment,55,↓,up,↑,0.7209385999012738,False,28,1
RC-M-23M23S2,669,experiment,75,↑,up,↑,0.4667164001148194,True,28,1
RC-M-23M23S2,670,experiment,59,↓,down,↓,0.5401061999145895,True,28,1
RC-M-23M23S2,671,training,55,←,left,←,0.45281950011849403,True,28,0
RC-M-23M23S2,672,training,87,↓,down,↓,0.49373820004984736,True,28,1
RC-M-23M23S2,673,experiment,105,←,left,←,1.1428276000078768,True,28,1
RC-M-23M23S2,674,experiment,64,↑,up,↑,0.48330039996653795,True,28,1
RC-M-23M23S2,675,experiment,94,←,left,←,0.440579199930653,True,28,1
RC-M-23M23S2,676,experiment,58,↑,up,↑,0.4273490998893976,True,28,1
RC-M-23M23S2,677,experiment,49,→,right,→,0.6815247000195086,True,28,1
RC-M-23M23S2,678,experiment,82,↓,down,↓,0.4192496999166906,True,28,1
RC-M-23M23S2,679,experiment,72,←,left,←,0.4022970001678914,True,28,1
RC-M-23M23S2,680,experiment,102,←,left,←,0.4868067998904735,True,28,0
RC-M-23M23S2,681,experiment,81,↓,down,↓,0.5522527999710292,True,28,1
RC-M-23M23S2,682,experiment,91,↓,down,↓,0.4675604999065399,True,28,1
RC-M-23M23S2,683,experiment,107,↑,up,↑,0.9329815998207778,True,28,1
RC-M-23M23S2,684,experiment,99,↑,up,↑,0.5343337999656796,True,28,1
RC-M-23M23S2,685,experiment,83,↑,up,↑,0.9330124999396503,True,28,1
RC-M-23M23S2,686,experiment,90,→,right,→,0.37571789999492466,True,28,1
RC-M-23M23S2,687,experiment,92,↓,down,↓,0.5551974000409245,True,28,0
RC-M-23M23S2,688,experiment,75,↑,up,↑,0.38390840007923543,True,28,1
RC-M-23M23S2,689,experiment,97,↓,down,↓,0.41169320000335574,True,28,0
RC-M-23M23S2,690,experiment,80,←,left,←,0.43173620011657476,True,28,1
RC-M-23M23S2,691,experiment,56,←,left,←,0.4276549001224339,True,28,1
RC-M-23M23S2,692,experiment,78,→,left,←,0.760129899950698,False,28,1
RC-M-23M23S2,693,experiment,65,↓,down,↓,0.7080105000641197,True,28,1
RC-M-23M23S2,694,experiment,53,←,left,←,0.4376691000070423,True,28,1
RC-M-23M23S2,695,experiment,52,→,right,→,0.578514700056985,True,28,1
RC-M-23M23S2,696,experiment,89,→,right,→,0.5494663999415934,True,28,1
RC-M-23M23S2,697,experiment,73,↑,up,↑,0.6867958998773247,True,28,1
RC-M-23M23S2,698,experiment,106,→,right,→,0.4240276000928134,True,28,1
RC-M-23M23S2,699,experiment,54,↑,up,↑,0.4927358999848366,True,28,1
RC-M-23M23S2,700,experiment,67,↓,down,↓,0.5062839998863637,True,28,1
RC-M-23M23S2,701,experiment,74,←,left,←,0.4291292999405414,True,28,1
RC-M-23M23S2,702,experiment,84,←,left,←,0.5840856002178043,True,28,1
RC-M-23M23S2,703,experiment,101,→,right,→,0.4626206001266837,True,28,1
RC-M-23M23S2,704,experiment,98,↓,down,↓,0.6520680000539869,True,28,1
RC-M-23M23S2,705,experiment,50,↑,up,↑,0.4720038000959903,True,28,1
RC-M-23M23S2,706,experiment,77,←,left,←,0.5071246000006795,True,28,1
RC-M-23M23S2,707,experiment,104,→,right,→,0.7721003999467939,True,28,1
RC-M-23M23S2,708,experiment,62,↓,left,←,0.8317889999598265,False,28,1
RC-M-23M23S2,709,experiment,76,↓,down,↓,0.5329027001280338,True,28,1
RC-M-23M23S2,710,experiment,79,↓,down,↓,0.5572279000189155,True,28,1
RC-M-23M23S2,711,experiment,86,↓,down,↓,0.4898337998893112,True,28,1
RC-M-23M23S2,712,experiment,66,←,left,←,0.6160484999418259,True,28,1
RC-M-23M23S2,713,experiment,88,↑,up,↑,0.41005720011889935,True,28,1
RC-M-23M23S2,714,experiment,63,←,left,←,0.4836491998285055,True,28,1
RC-M-23M23S2,715,experiment,96,↓,down,↓,0.44016120000742376,True,28,1
RC-M-23M23S2,716,experiment,59,→,right,→,0.5386218999046832,True,28,1
RC-M-23M23S2,717,experiment,57,←,left,←,0.5214916998520494,True,28,1
RC-M-23M23S2,718,experiment,51,→,right,→,0.4993525000754744,True,28,1
RC-M-23M23S2,719,experiment,70,→,left,←,0.43978530005551875,False,28,1
RC-M-23M23S2,720,experiment,100,↓,down,↓,0.6766336001455784,True,28,1
RC-M-23M23S2,721,experiment,71,→,right,→,0.4496174999512732,True,28,1
RC-M-23M23S2,722,experiment,95,→,right,→,0.6795495999976993,True,28,1
RC-M-23M23S2,723,experiment,87,↓,right,→,0.6709734001196921,False,28,1
RC-M-23M23S2,724,experiment,48,→,right,→,0.5317228001076728,True,28,1
RC-M-23M23S2,725,experiment,55,←,left,←,0.6598371998406947,True,28,1
RC-M-23M23S2,726,experiment,61,←,left,←,0.4768635998480022,True,28,1
RC-M-23M23S2,727,experiment,68,↑,up,↑,0.6110095998737961,True,28,1
RC-M-23M23S2,728,experiment,103,→,left,←,0.720016100211069,False,28,1
RC-M-23M23S2,729,experiment,69,↑,up,↑,0.5399427998345345,True,28,1
RC-M-23M23S2,730,experiment,108,←,left,←,0.7780575000215322,True,28,1
RC-M-23M23S2,731,experiment,93,←,left,←,0.48404480004683137,True,28,1
RC-M-23M23S2,732,experiment,60,←,left,←,0.45219270000234246,True,28,1
RC-M-23M23S2,733,experiment,85,↓,down,↓,0.5416369000449777,True,28,1
RC-M-23M23S2,734,training,92,↑,up,↑,0.4923396999947727,True,28,0
RC-M-23M23S2,735,training,106,←,left,←,0.9488313000183553,True,28,1
RC-M-23M23S2,736,experiment,101,↓,down,↓,0.653397599933669,True,28,1
RC-M-23M23S2,737,experiment,95,←,left,←,0.4592681999783963,True,28,1
RC-M-23M23S2,738,experiment,76,↑,up,↑,0.4390946999192238,True,28,1
RC-M-23M23S2,739,experiment,56,↓,down,↓,0.9862595999147743,True,28,1
RC-M-23M23S2,740,experiment,59,↑,up,↑,0.7110127999912947,True,28,1
RC-M-23M23S2,741,experiment,82,→,right,→,0.630998200038448,True,28,1
RC-M-23M23S2,742,experiment,72,↓,down,↓,0.4854432998690754,True,28,1
RC-M-23M23S2,743,experiment,67,←,left,←,0.5001539001241326,True,28,1
RC-M-23M23S2,744,experiment,88,↑,up,↑,0.9059704001992941,True,28,1
RC-M-23M23S2,745,experiment,100,←,left,←,0.43596959998831153,True,28,1
RC-M-23M23S2,746,experiment,61,↑,up,↑,0.5817856001667678,True,28,1
RC-M-23M23S2,747,experiment,103,→,right,→,0.5245904000476003,True,28,1
RC-M-23M23S2,748,experiment,60,↓,down,↓,0.6108140000142157,True,28,1
RC-M-23M23S2,749,experiment,97,←,left,←,0.4419289000798017,True,28,1
RC-M-23M23S2,750,experiment,48,↑,up,↑,0.5282855001278222,True,28,1
RC-M-23M23S2,751,experiment,89,↓,down,↓,0.5572116998955607,True,28,1
RC-M-23M23S2,752,experiment,96,↑,up,↑,0.5346564000938088,True,28,1
RC-M-23M23S2,753,experiment,91,↑,up,↑,0.46654150006361306,True,28,1
RC-M-23M23S2,754,experiment,50,↑,up,↑,0.4629575000144541,True,28,1
RC-M-23M23S2,755,experiment,53,↑,up,↑,0.32555069983936846,True,28,1
RC-M-23M23S2,756,experiment,108,→,right,→,0.5770942000672221,True,28,0
RC-M-23M23S2,757,experiment,64,←,left,←,0.5246830000542104,True,28,1
RC-M-23M23S2,758,experiment,81,←,left,←,0.4841073998250067,True,28,1
RC-M-23M23S2,759,experiment,86,↓,down,↓,0.42814069986343384,True,28,1
RC-M-23M23S2,760,experiment,62,→,right,→,0.7576711000874639,True,28,1
RC-M-23M23S2,761,experiment,70,↓,down,↓,0.4799269998911768,True,28,1
RC-M-23M23S2,762,experiment,106,→,right,→,0.5606549999210984,True,28,1
RC-M-23M23S2,763,experiment,84,→,right,→,0.40695400000549853,True,28,1
RC-M-23M23S2,764,experiment,73,↑,up,↑,0.45306390011683106,True,28,1
RC-M-23M23S2,765,experiment,78,→,right,→,0.6007207001093775,True,28,1
RC-M-23M23S2,766,experiment,55,↓,down,↓,0.5503106999676675,True,28,1
RC-M-23M23S2,767,experiment,107,↑,up,↑,0.49221500009298325,True,28,1
RC-M-23M23S2,768,experiment,102,→,right,→,0.5343042002059519,True,28,1
RC-M-23M23S2,769,experiment,75,→,right,→,0.471578799886629,True,28,1
RC-M-23M23S2,770,experiment,63,↓,down,↓,0.46329820016399026,True,28,1
RC-M-23M23S2,771,experiment,51,↑,up,↑,0.4198635998181999,True,28,1
RC-M-23M23S2,772,experiment,68,↓,down,↓,0.49963119998574257,True,28,1
RC-M-23M23S2,773,experiment,71,←,left,←,0.6236264000181109,True,28,1
RC-M-23M23S2,774,experiment,49,↑,up,↑,0.47807680000551045,True,28,1
RC-M-23M23S2,775,experiment,79,←,left,←,0.4168211000505835,True,28,1
RC-M-23M23S2,776,experiment,94,↑,up,↑,1.1041019998956472,True,28,1
RC-M-23M23S2,777,experiment,99,↑,up,↑,0.3755002000834793,True,28,1
RC-M-23M23S2,778,experiment,74,→,right,→,0.6265841000713408,True,28,0
RC-M-23M23S2,779,experiment,66,→,right,→,0.5712065999396145,True,28,1
RC-M-23M23S2,780,experiment,52,↓,down,↓,0.5868778999429196,True,28,1
RC-M-23M23S2,781,experiment,85,←,left,←,0.8707463999744505,True,28,1
RC-M-23M23S2,782,experiment,57,←,left,←,0.4807459998410195,True,28,1
RC-M-23M23S2,783,experiment,90,↓,up,↑,0.5277154000941664,False,28,1
RC-M-23M23S2,784,experiment,83,↑,up,↑,0.42245359998196363,True,28,1
RC-M-23M23S2,785,experiment,92,↓,down,↓,0.5585886999033391,True,28,1
RC-M-23M23S2,786,experiment,98,→,right,→,0.5189955998212099,True,28,1
RC-M-23M23S2,787,experiment,93,↑,up,↑,0.5070011999923736,True,28,1
RC-M-23M23S2,788,experiment,65,↑,up,↑,0.5212868000380695,True,28,1
RC-M-23M23S2,789,experiment,77,→,right,→,0.5618153000250459,True,28,1
RC-M-23M23S2,790,experiment,87,↑,up,↑,0.47027139994315803,True,28,1
RC-M-23M23S2,791,experiment,54,↓,down,↓,0.9053863999433815,True,28,1
RC-M-23M23S2,792,experiment,104,←,left,←,0.4101029001176357,True,28,1
RC-M-23M23S2,793,experiment,80,←,left,←,0.45489139994606376,True,28,1
RC-M-23M23S2,794,experiment,58,↑,up,↑,0.6011855998076499,True,28,1
RC-M-23M23S2,795,experiment,69,↑,up,↑,0.41784029989503324,True,28,1
RC-M-23M23S2,796,experiment,105,←,left,←,0.5333942000288516,True,28,1
RC-M-23M23S2,797,training,70,↑,up,↑,1.2114141001366079,True,28,0
RC-M-23M23S2,798,training,70,←,left,←,0.4275575999636203,True,28,1
RC-M-23M23S2,799,experiment,93,→,left,←,0.5149037998635322,False,28,1
RC-M-23M23S2,800,experiment,92,←,left,←,0.38430560007691383,True,28,1
RC-M-23M23S2,801,experiment,95,↑,up,↑,0.3760059999767691,True,28,0
RC-M-23M23S2,802,experiment,51,←,left,←,0.5033344998955727,True,28,0
RC-M-23M23S2,803,experiment,83,←,left,←,1.1032308000139892,True,28,1
RC-M-23M23S2,804,experiment,66,→,right,→,0.5569702000357211,True,28,1
RC-M-23M23S2,805,experiment,54,←,left,←,0.45230389991775155,True,28,1
RC-M-23M23S2,806,experiment,53,↓,down,↓,0.5605717999860644,True,28,1
RC-M-23M23S2,807,experiment,63,←,right,→,0.5329338000155985,False,28,1
RC-M-23M23S2,808,experiment,86,↑,up,↑,0.4507308998145163,True,28,1
RC-M-23M23S2,809,experiment,75,←,left,←,0.40759860002435744,True,28,1
RC-M-23M23S2,810,experiment,98,←,left,←,0.43824149994179606,True,28,0
RC-M-23M23S2,811,experiment,76,←,left,←,0.3589111000765115,True,28,1
RC-M-23M23S2,812,experiment,59,↓,down,↓,0.600610600085929,True,28,0
RC-M-23M23S2,813,experiment,80,↑,up,↑,0.9416225000750273,True,28,1
RC-M-23M23S2,814,experiment,101,↑,up,↑,0.4782320000231266,True,28,1
RC-M-23M23S2,815,experiment,84,↑,up,↑,0.45469460007734597,True,28,1
RC-M-23M23S2,816,experiment,55,↑,up,↑,0.4029518999159336,True,28,1
RC-M-23M23S2,817,experiment,70,→,right,→,0.5384589000605047,True,28,0
RC-M-23M23S2,818,experiment,87,→,right,→,0.42359729995951056,True,28,1
RC-M-23M23S2,819,experiment,67,→,left,←,0.5676123998127878,False,28,1
RC-M-23M23S2,820,experiment,65,↑,up,↑,0.4512881999835372,True,28,1
RC-M-23M23S2,821,experiment,96,↑,up,↑,0.43295320007018745,True,28,1
RC-M-23M23S2,822,experiment,79,←,left,←,0.5170461998786777,True,28,1
RC-M-23M23S2,823,experiment,73,↓,up,↑,0.41602229978889227,False,28,1
RC-M-23M23S2,824,experiment,52,↑,up,↑,0.4696639000903815,True,28,1
RC-M-23M23S2,825,experiment,58,↑,up,↑,0.4077993999235332,True,28,1
RC-M-23M23S2,826,experiment,97,↓,down,↓,0.43857589992694557,True,28,1
RC-M-23M23S2,827,experiment,107,→,right,→,0.45701410016044974,True,28,1
RC-M-23M23S2,828,experiment,62,↓,down,↓,0.6976858000271022,True,28,1
RC-M-23M23S2,829,experiment,60,↓,down,↓,0.5294427999760956,True,28,1
RC-M-23M23S2,830,experiment,82,↓,down,↓,0.5768909999169409,True,28,1
RC-M-23M23S2,831,experiment,90,↓,down,↓,0.4276469999458641,True,28,1
RC-M-23M23S2,832,experiment,50,↓,down,↓,0.5136323999613523,True,28,1
RC-M-23M23S2,833,experiment,64,←,left,←,0.5193307001609355,True,28,1
RC-M-23M23S2,834,experiment,77,↓,down,↓,0.42472949996590614,True,28,1
RC-M-23M23S2,835,experiment,100,↓,down,↓,0.4381478000432253,True,28,1
RC-M-23M23S2,836,experiment,105,↓,down,↓,0.5695810001343489,True,28,1
RC-M-23M23S2,837,experiment,102,→,right,→,0.44050000002607703,True,28,1
RC-M-23M23S2,838,experiment,78,↑,up,↑,0.3755837001372129,True,28,1
RC-M-23M23S2,839,experiment,72,↓,down,↓,0.42126349988393486,True,28,0
RC-M-23M23S2,840,experiment,56,←,left,←,1.0090928000863642,True,28,1
RC-M-23M23S2,841,experiment,71,←,left,←,0.3591289999894798,True,28,1
RC-M-23M23S2,842,experiment,108,←,left,←,0.42196450009942055,True,28,0
RC-M-23M23S2,843,experiment,104,↑,up,↑,0.4820897998288274,True,28,1
RC-M-23M23S2,844,experiment,57,→,left,←,0.9397869999520481,False,28,1
RC-M-23M23S2,845,experiment,103,→,right,→,0.6831977998372167,True,28,1
RC-M-23M23S2,846,experiment,88,←,left,←,0.5059865999501199,True,28,1
RC-M-23M23S2,847,experiment,94,↑,up,↑,0.6140050999820232,True,28,1
RC-M-23M23S2,848,experiment,85,←,left,←,0.4172580000013113,True,28,1
RC-M-23M23S2,849,experiment,106,←,left,←,0.5645093000493944,True,28,1
RC-M-23M23S2,850,experiment,48,→,right,→,0.5256441999226809,True,28,1
RC-M-23M23S2,851,experiment,81,↑,up,↑,0.6213749998714775,True,28,1
RC-M-23M23S2,852,experiment,61,→,left,←,0.5764212000649422,False,28,1
RC-M-23M23S2,853,experiment,91,↓,down,↓,0.5622765999287367,True,28,1
RC-M-23M23S2,854,experiment,74,→,right,→,0.9471815000288188,True,28,1
RC-M-23M23S2,855,experiment,68,←,left,←,0.5100803000386804,True,28,1
RC-M-23M23S2,856,experiment,49,↑,up,↑,0.45704839983955026,True,28,1
RC-M-23M23S2,857,experiment,99,←,left,←,1.0854825000278652,True,28,1
RC-M-23M23S2,858,experiment,89,↓,down,↓,0.43640689994208515,True,28,1
RC-M-23M23S2,859,experiment,69,↓,down,↓,0.5873994000721723,True,28,1
RC-M-23M23S2,860,training,59,←,left,←,0.4834356000646949,True,28,0
RC-M-23M23S2,861,training,74,↓,down,↓,0.5585397002287209,True,28,1
RC-M-23M23S2,862,experiment,83,→,right,→,0.5005115999374539,True,28,1
RC-M-23M23S2,863,experiment,53,←,left,←,0.47083739982917905,True,28,1
RC-M-23M23S2,864,experiment,74,↑,up,↑,1.0103972000069916,True,28,1
RC-M-23M23S2,865,experiment,90,←,left,←,0.5480071001220495,True,28,1
RC-M-23M23S2,866,experiment,71,↑,up,↑,0.654036299791187,True,28,1
RC-M-23M23S2,867,experiment,80,↓,down,↓,0.6248739999718964,True,28,1
RC-M-23M23S2,868,experiment,64,↓,down,↓,0.5067791999317706,True,28,1
RC-M-23M23S2,869,experiment,56,→,right,→,0.5070714999455959,True,28,1
RC-M-23M23S2,870,experiment,89,→,right,→,0.49673409992828965,True,28,1
RC-M-23M23S2,871,experiment,61,←,left,←,0.7043365999124944,True,28,1
RC-M-23M23S2,872,experiment,49,→,right,→,0.47517520003020763,True,28,1
RC-M-23M23S2,873,experiment,66,↓,down,↓,0.5060196998529136,True,28,1
RC-M-23M23S2,874,experiment,57,←,left,←,0.41919549996964633,True,28,1
RC-M-23M23S2,875,experiment,81,↑,up,↑,0.42241989984177053,True,28,1
RC-M-23M23S2,876,experiment,87,↑,up,↑,0.5361689999699593,True,28,1
RC-M-23M23S2,877,experiment,69,←,left,←,0.45148460008203983,True,28,1
RC-M-23M23S2,878,experiment,107,↑,up,↑,0.7495384998619556,True,28,1
RC-M-23M23S2,879,experiment,73,↓,down,↓,0.6150133002083749,True,28,1
RC-M-23M23S2,880,experiment,102,↑,up,↑,0.7317472000140697,True,28,1
RC-M-23M23S2,881,experiment,72,↑,up,↑,0.4224648999515921,True,28,1
RC-M-23M23S2,882,experiment,55,↓,down,↓,0.5066653999965638,True,28,1
RC-M-23M23S2,883,experiment,85,←,left,←,0.5136985999997705,True,28,1
RC-M-23M23S2,884,experiment,88,→,right,→,0.6394658000208437,True,28,1
RC-M-23M23S2,885,experiment,79,↓,down,↓,0.4351917998865247,True,28,1
RC-M-23M23S2,886,experiment,91,↓,down,↓,0.5792902000248432,True,28,1
RC-M-23M23S2,887,experiment,98,↑,up,↑,0.9549258998595178,True,28,1
RC-M-23M23S2,888,experiment,93,↓,up,↑,0.6293558001052588,False,28,1
RC-M-23M23S2,889,experiment,48,→,right,→,0.48365719988942146,True,28,1
RC-M-23M23S2,890,experiment,101,↑,up,↑,0.5104213000740856,True,28,1
RC-M-23M23S2,891,experiment,67,↓,up,↑,0.4677043999545276,False,28,1
RC-M-23M23S2,892,experiment,60,↓,down,↓,0.48465340002439916,True,28,1
RC-M-23M23S2,893,experiment,58,←,left,←,0.42210379987955093,True,28,1
RC-M-23M23S2,894,experiment,94,↓,down,↓,0.477320599835366,True,28,1
RC-M-23M23S2,895,experiment,59,↑,up,↑,1.0461627000477165,True,28,1
RC-M-23M23S2,896,experiment,82,←,left,←,0.4325469001196325,True,28,1
RC-M-23M23S2,897,experiment,95,↓,down,↓,0.5753003000281751,True,28,1
RC-M-23M23S2,898,experiment,104,←,left,←,0.43750530015677214,True,28,1
RC-M-23M23S2,899,experiment,99,↓,down,↓,0.6425006999634206,True,28,1
RC-M-23M23S2,900,experiment,86,↓,down,↓,0.6438868001569062,True,28,1
RC-M-23M23S2,901,experiment,96,↑,up,↑,0.4184317998588085,True,28,1
RC-M-23M23S2,902,experiment,77,→,right,→,0.6147470998112112,True,28,1
RC-M-23M23S2,903,experiment,62,↓,down,↓,0.45723539986647666,True,28,1
RC-M-23M23S2,904,experiment,108,↑,up,↑,0.586824000114575,True,28,1
RC-M-23M23S2,905,experiment,50,→,left,←,0.4825981000903994,False,28,1
RC-M-23M23S2,906,experiment,92,←,left,←,0.5361468999180943,True,28,1
RC-M-23M23S2,907,experiment,78,↑,up,↑,0.43254819978028536,True,28,1
RC-M-23M23S2,908,experiment,97,↑,up,↑,1.1586126999463886,True,28,1
RC-M-23M23S2,909,experiment,106,→,right,→,0.4685685997828841,True,28,1
RC-M-23M23S2,910,experiment,51,←,right,→,0.8005502000451088,False,28,1
RC-M-23M23S2,911,experiment,103,↑,up,↑,0.5978663999121636,True,28,1
RC-M-23M23S2,912,experiment,54,→,right,→,0.5239689000882208,True,28,1
RC-M-23M23S2,913,experiment,105,←,left,←,0.5234554999042302,True,28,1
RC-M-23M23S2,914,experiment,70,↓,up,↑,0.7988934998866171,False,28,1
RC-M-23M23S2,915,experiment,75,→,right,→,0.5415118001401424,True,28,1
RC-M-23M23S2,916,experiment,84,←,left,←,0.5477048000320792,True,28,1
RC-M-23M23S2,917,experiment,65,↓,down,↓,0.48786239977926016,True,28,1
RC-M-23M23S2,918,experiment,63,↑,up,↑,0.5908449001144618,True,28,1
RC-M-23M23S2,919,experiment,52,←,left,←,0.4857375000137836,True,28,1
RC-M-23M23S2,920,experiment,100,↓,down,↓,0.4328909998293966,True,28,1
RC-M-23M23S2,921,experiment,68,↓,down,↓,0.6323461998254061,True,28,1
RC-M-23M23S2,922,experiment,76,←,right,→,0.5816045999526978,False,28,1
RC-M-23M23S2,923,training,77,↑,up,↑,0.4593609001021832,True,28,0
RC-M-23M23S2,924,training,84,↑,up,↑,0.4528621002100408,True,28,1
RC-M-23M23S2,925,experiment,75,↓,down,↓,0.5134958999697119,True,28,1
RC-M-23M23S2,926,experiment,83,→,right,→,0.4094885000959039,True,28,1
RC-M-23M23S2,927,experiment,56,↓,down,↓,0.5493219001218677,True,28,1
RC-M-23M23S2,928,experiment,92,↓,down,↓,0.4885539999231696,True,28,1
RC-M-23M23S2,929,experiment,73,↓,down,↓,0.5004743998870254,True,28,1
RC-M-23M23S2,930,experiment,71,→,right,→,0.5366679998114705,True,28,1
RC-M-23M23S2,931,experiment,100,↑,up,↑,0.4179404000751674,True,28,1
RC-M-23M23S2,932,experiment,82,↓,down,↓,0.46138030011206865,True,28,1
RC-M-23M23S2,933,experiment,74,↓,down,↓,0.48207389982417226,True,28,1
RC-M-23M23S2,934,experiment,67,→,right,→,0.48807410011067986,True,28,1
RC-M-23M23S2,935,experiment,99,←,right,→,0.4512510998174548,False,28,1
RC-M-23M23S2,936,experiment,62,↓,down,↓,0.5964452000334859,True,28,1
RC-M-23M23S2,937,experiment,95,←,left,←,0.5244393001776189,True,28,1
RC-M-23M23S2,938,experiment,98,→,right,→,0.6624006000347435,True,28,1
RC-M-23M23S2,939,experiment,89,↑,up,↑,0.4223162999842316,True,28,1
RC-M-23M23S2,940,experiment,101,←,left,←,0.4911243999376893,True,28,1
RC-M-23M23S2,941,experiment,104,↑,up,↑,0.5006518000736833,True,28,1
RC-M-23M23S2,942,experiment,65,→,right,→,0.4988500999752432,True,28,1
RC-M-23M23S2,943,experiment,105,↑,up,↑,0.46765449992381036,True,28,1
RC-M-23M23S2,944,experiment,64,→,left,←,0.483091700123623,False,28,1
RC-M-23M23S2,945,experiment,58,↑,up,↑,0.4125580000691116,True,28,1
RC-M-23M23S2,946,experiment,61,→,left,←,0.9751563998870552,False,28,1
RC-M-23M23S2,947,experiment,87,↑,up,↑,0.5225885000545532,True,28,1
RC-M-23M23S2,948,experiment,70,←,left,←,0.41457909997552633,True,28,1
RC-M-23M23S2,949,experiment,57,→,right,→,0.4582680999301374,True,28,1
RC-M-23M23S2,950,experiment,90,↑,up,↑,0.44948649988509715,True,28,1
RC-M-23M23S2,951,experiment,103,←,left,←,0.9488336001522839,True,28,1
RC-M-23M23S2,952,experiment,81,←,left,←,0.8754533000756055,True,28,1
RC-M-23M23S2,953,experiment,97,↓,down,↓,0.4563198001123965,True,28,1
RC-M-23M23S2,954,experiment,79,→,right,→,0.4350721000228077,True,28,1
RC-M-23M23S2,955,experiment,54,←,left,←,0.6719225000124425,True,28,1
RC-M-23M23S2,956,experiment,78,←,left,←,0.5144702000543475,True,28,1
RC-M-23M23S2,957,experiment,60,→,left,←,0.5377648998983204,False,28,1
RC-M-23M23S2,958,experiment,48,↑,up,↑,0.4838727000169456,True,28,1
RC-M-23M23S2,959,experiment,52,↑,up,↑,0.4869816000573337,True,28,1
RC-M-23M23S2,960,experiment,77,↑,up,↑,0.9936342998407781,True,28,1
RC-M-23M23S2,961,experiment,66,→,right,→,0.5717009000945836,True,28,1
RC-M-23M23S2,962,experiment,51,←,left,←,0.4274966998491436,True,28,1
RC-M-23M23S2,963,experiment,50,←,left,←,0.3671478999312967,True,28,1
RC-M-23M23S2,964,experiment,49,↓,down,↓,0.6578934001736343,True,28,0
RC-M-23M23S2,965,experiment,102,→,right,→,0.5571261998265982,True,28,1
RC-M-23M23S2,966,experiment,93,↑,up,↑,0.6076136000920087,True,28,1
RC-M-23M23S2,967,experiment,85,→,left,←,0.5227397000417113,False,28,1
RC-M-23M23S2,968,experiment,107,→,right,→,0.49777210014872253,True,28,1
RC-M-23M23S2,969,experiment,80,→,right,→,0.43499940005131066,True,28,1
RC-M-23M23S2,970,experiment,86,↑,up,↑,0.40575250005349517,True,28,1
RC-M-23M23S2,971,experiment,94,↑,up,↑,0.3674576000776142,True,28,0
RC-M-23M23S2,972,experiment,72,↑,up,↑,0.4533794999588281,True,28,0
RC-M-23M23S2,973,experiment,69,↓,up,↑,0.45214799977838993,False,28,1
RC-M-23M23S2,974,experiment,63,↑,up,↑,0.5570996999740601,True,28,1
RC-M-23M23S2,975,experiment,53,→,right,→,0.6606185999698937,True,28,1
RC-M-23M23S2,976,experiment,106,↑,up,↑,0.5350132999010384,True,28,1
RC-M-23M23S2,977,experiment,91,→,right,→,0.6426958001684397,True,28,1
RC-M-23M23S2,978,experiment,108,↓,down,↓,0.6606300000566989,True,28,1
RC-M-23M23S2,979,experiment,84,↓,down,↓,1.0621793000027537,True,28,1
RC-M-23M23S2,980,experiment,55,↑,up,↑,0.5608583001885563,True,28,1
RC-M-23M23S2,981,experiment,96,↓,down,↓,1.11458979989402,True,28,1
RC-M-23M23S2,982,experiment,68,↓,down,↓,0.6230192999355495,True,28,1
RC-M-23M23S2,983,experiment,59,↑,up,↑,0.5459251999855042,True,28,1
RC-M-23M23S2,984,experiment,88,→,right,→,0.47889070003293455,True,28,1
RC-M-23M23S2,985,experiment,76,→,right,→,0.44179040007293224,True,28,1
RC-M-23M23S2,986,training,60,→,right,→,0.5774046999868006,True,28,0
RC-M-23M23S2,987,training,106,↑,up,↑,0.375670799985528,True,28,1
RC-M-23M23S2,988,experiment,106,↓,down,↓,0.6995429999660701,True,28,0
RC-M-23M23S2,989,experiment,51,↑,up,↑,0.383901400025934,True,28,1
RC-M-23M23S2,990,experiment,61,↓,down,↓,0.41842790017835796,True,28,0
RC-M-23M23S2,991,experiment,95,↑,up,↑,0.3425799999386072,True,28,1
RC-M-23M23S2,992,experiment,97,←,right,→,0.49859469989314675,False,28,0
RC-M-23M23S2,993,experiment,70,↓,down,↓,0.7749242000281811,True,28,1
RC-M-23M23S2,994,experiment,65,↑,up,↑,0.6742571999784559,True,28,1
RC-M-23M23S2,995,experiment,63,←,left,←,0.5456799000967294,True,28,1
RC-M-23M23S2,996,experiment,84,←,left,←,0.4238394000567496,True,28,1
RC-M-23M23S2,997,experiment,99,→,right,→,0.42195840016938746,True,28,1
RC-M-23M23S2,998,experiment,78,→,right,→,0.43456279998645186,True,28,1
RC-M-23M23S2,999,experiment,76,←,left,←,0.5193243999965489,True,28,1
RC-M-23M23S2,1000,experiment,87,↓,down,↓,0.47732810000889003,True,28,1
RC-M-23M23S2,1001,experiment,66,↓,down,↓,0.4441798001062125,True,28,1
RC-M-23M23S2,1002,experiment,59,↑,up,↑,0.8067932999692857,True,28,1
RC-M-23M23S2,1003,experiment,100,→,right,→,0.4926505000330508,True,28,1
RC-M-23M23S2,1004,experiment,48,↑,up,↑,0.912714600097388,True,28,1
RC-M-23M23S2,1005,experiment,52,→,right,→,0.5623773999977857,True,28,1
RC-M-23M23S2,1006,experiment,102,→,left,←,1.0258567000273615,False,28,1
RC-M-23M23S2,1007,experiment,88,→,right,→,0.5631363000720739,True,28,1
RC-M-23M23S2,1008,experiment,86,↑,up,↑,0.41528189997188747,True,28,1
RC-M-23M23S2,1009,experiment,55,↑,up,↑,1.6602068000938743,True,28,1
RC-M-23M23S2,1010,experiment,71,↑,up,↑,0.6420371998101473,True,28,1
RC-M-23M23S2,1011,experiment,107,←,left,←,0.5641942000947893,True,28,1
RC-M-23M23S2,1012,experiment,85,↑,left,←,0.6968942999374121,False,28,1
RC-M-23M23S2,1013,experiment,58,↓,down,↓,0.5133625001180917,True,28,1
RC-M-23M23S2,1014,experiment,60,↑,up,↑,0.6724193000700325,True,28,1
RC-M-23M23S2,1015,experiment,98,←,left,←,0.5966846998780966,True,28,1
RC-M-23M23S2,1016,experiment,54,←,left,←,0.554497400065884,True,28,1
RC-M-23M23S2,1017,experiment,89,→,right,→,0.4864685998763889,True,28,1
RC-M-23M23S2,1018,experiment,79,↓,down,↓,0.5842999999877065,True,28,1
RC-M-23M23S2,1019,experiment,82,↑,up,↑,0.5253296999726444,True,28,1
RC-M-23M23S2,1020,experiment,62,→,right,→,0.6035195998847485,True,28,1
RC-M-23M23S2,1021,experiment,72,→,right,→,0.4273364001419395,True,28,1
RC-M-23M23S2,1022,experiment,64,↑,up,↑,0.6445983999874443,True,28,1
RC-M-23M23S2,1023,experiment,104,↑,up,↑,0.6160968001931906,True,28,1
RC-M-23M23S2,1024,experiment,73,→,right,→,0.7988475000020117,True,28,1
RC-M-23M23S2,1025,experiment,69,↑,up,↑,0.5591629999689758,True,28,1
RC-M-23M23S2,1026,experiment,75,←,left,←,0.5916983999777585,True,28,1
RC-M-23M23S2,1027,experiment,105,→,right,→,0.5008721998892725,True,28,1
RC-M-23M23S2,1028,experiment,77,←,left,←,0.5269568001385778,True,28,1
RC-M-23M23S2,1029,experiment,93,→,right,→,0.5466665998101234,True,28,1
RC-M-23M23S2,1030,experiment,90,↑,up,↑,0.5825418001040816,True,28,1
RC-M-23M23S2,1031,experiment,67,→,right,→,0.5525703998282552,True,28,1
RC-M-23M23S2,1032,experiment,92,←,left,←,0.5154651999473572,True,28,1
RC-M-23M23S2,1033,experiment,68,↓,up,↑,0.719827099936083,False,28,1
RC-M-23M23S2,1034,experiment,101,←,left,←,0.7135215001180768,True,28,1
RC-M-23M23S2,1035,experiment,96,↑,up,↑,0.5084869998972863,True,28,1
RC-M-23M23S2,1036,experiment,50,↓,down,↓,0.5990479998290539,True,28,1
RC-M-23M23S2,1037,experiment,74,→,right,→,0.6383657001424581,True,28,1
RC-M-23M23S2,1038,experiment,80,↓,down,↓,0.6335066000465304,True,28,1
RC-M-23M23S2,1039,experiment,53,↓,down,↓,0.5343098999001086,True,28,1
RC-M-23M23S2,1040,experiment,56,↑,down,↓,0.6060357000678778,False,28,1
RC-M-23M23S2,1041,experiment,103,↑,up,↑,0.4990191999822855,True,28,1
RC-M-23M23S2,1042,experiment,57,←,left,←,0.5480577000416815,True,28,1
RC-M-23M23S2,1043,experiment,91,↓,down,↓,0.5513813998550177,True,28,1
RC-M-23M23S2,1044,experiment,49,↑,down,↓,0.872723100008443,False,28,1
RC-M-23M23S2,1045,experiment,81,↓,down,↓,0.5863179999869317,True,28,1
RC-M-23M23S2,1046,experiment,108,↑,up,↑,1.502854600083083,True,28,1
RC-M-23M23S2,1047,experiment,83,→,left,←,0.7265592000912875,False,28,1
RC-M-23M23S2,1048,experiment,94,←,left,←,0.5219625001773238,True,28,1
RC-M-23M23S2,1049,training,57,↑,up,↑,0.7187628000974655,True,28,0
RC-M-23M23S2,1050,training,76,←,left,←,0.47243810002692044,True,28,1
RC-M-23M23S2,1051,experiment,96,↓,down,↓,0.42913469998165965,True,28,1
RC-M-23M23S2,1052,experiment,99,→,right,→,0.41875159996561706,True,28,1
RC-M-23M23S2,1053,experiment,53,→,left,←,0.49579029995948076,False,28,1
RC-M-23M23S2,1054,experiment,82,←,left,←,0.41676519997417927,True,28,1
RC-M-23M23S2,1055,experiment,49,↑,up,↑,0.5751845999620855,True,28,1
RC-M-23M23S2,1056,experiment,71,←,left,←,0.44031910016201437,True,28,1
RC-M-23M23S2,1057,experiment,72,←,left,←,0.4383810998406261,True,28,1
RC-M-23M23S2,1058,experiment,52,↓,down,↓,0.5552666001021862,True,28,1
RC-M-23M23S2,1059,experiment,73,→,right,→,0.43623490002937615,True,28,1
RC-M-23M23S2,1060,experiment,68,←,left,←,0.4122100998647511,True,28,1
RC-M-23M23S2,1061,experiment,108,↑,up,↑,0.4232081000227481,True,28,1
RC-M-23M23S2,1062,experiment,79,↓,down,↓,0.6114417999051511,True,28,1
RC-M-23M23S2,1063,experiment,48,↑,up,↑,0.4350647998508066,True,28,1
RC-M-23M23S2,1064,experiment,101,↓,down,↓,0.6235843999311328,True,28,1
RC-M-23M23S2,1065,experiment,55,↓,down,↓,0.6519253998994827,True,28,1
RC-M-23M23S2,1066,experiment,76,↑,down,↓,0.8882517002057284,False,28,1
RC-M-23M23S2,1067,experiment,61,←,left,←,0.6320755998604,True,28,1
RC-M-23M23S2,1068,experiment,54,←,left,←,0.54045410011895,True,28,1
RC-M-23M23S2,1069,experiment,105,←,left,←,0.49177610012702644,True,28,1
RC-M-23M23S2,1070,experiment,60,←,left,←,0.443601599894464,True,28,1
RC-M-23M23S2,1071,experiment,88,↑,up,↑,0.6043209999334067,True,28,1
RC-M-23M23S2,1072,experiment,94,↑,up,↑,0.5167467999272048,True,28,1
RC-M-23M23S2,1073,experiment,89,↓,down,↓,0.674207900185138,True,28,1
RC-M-23M23S2,1074,experiment,66,←,left,←,0.4408988000359386,True,28,1
RC-M-23M23S2,1075,experiment,67,↑,up,↑,0.7205881997942924,True,28,1
RC-M-23M23S2,1076,experiment,50,↑,up,↑,0.523084299871698,True,28,1
RC-M-23M23S2,1077,experiment,85,←,left,←,0.6654944999609143,True,28,1
RC-M-23M23S2,1078,experiment,98,→,right,→,0.47001779987476766,True,28,1
RC-M-23M23S2,1079,experiment,86,←,left,←,0.6383993001654744,True,28,1
RC-M-23M23S2,1080,experiment,83,→,right,→,0.43271029996685684,True,28,1
RC-M-23M23S2,1081,experiment,107,←,left,←,0.683896099915728,True,28,1
RC-M-23M23S2,1082,experiment,69,↑,up,↑,0.4806784999091178,True,28,1
RC-M-23M23S2,1083,experiment,64,↑,up,↑,0.4637788999825716,True,28,1
RC-M-23M23S2,1084,experiment,74,→,right,→,0.5081724999472499,True,28,1
RC-M-23M23S2,1085,experiment,62,↑,up,↑,0.5550943000707775,True,28,1
RC-M-23M23S2,1086,experiment,87,→,left,←,0.48726830002851784,False,28,1
RC-M-23M23S2,1087,experiment,100,↓,down,↓,0.4983765999786556,True,28,1
RC-M-23M23S2,1088,experiment,92,↓,down,↓,0.5193723000120372,True,28,1
RC-M-23M23S2,1089,experiment,57,↑,up,↑,0.4795211998280138,True,28,1
RC-M-23M23S2,1090,experiment,63,↑,up,↑,0.511606500018388,True,28,1
RC-M-23M23S2,1091,experiment,95,→,right,→,0.47517130011692643,True,28,1
RC-M-23M23S2,1092,experiment,70,→,right,→,0.5286324999760836,True,28,1
RC-M-23M23S2,1093,experiment,77,←,left,←,0.4575372999534011,True,28,1
RC-M-23M23S2,1094,experiment,91,↓,down,↓,0.42480679997242987,True,28,1
RC-M-23M23S2,1095,experiment,106,↑,up,↑,0.5081150999758393,True,28,1
RC-M-23M23S2,1096,experiment,97,→,right,→,0.5831705001182854,True,28,1
RC-M-23M23S2,1097,experiment,102,→,left,←,0.6694144001230597,False,28,1
RC-M-23M23S2,1098,experiment,103,←,left,←,0.7281830001156777,True,28,1
RC-M-23M23S2,1099,experiment,65,↓,down,↓,0.5097344999667257,True,28,1
RC-M-23M23S2,1100,experiment,75,↓,down,↓,0.46377920010127127,True,28,1
RC-M-23M23S2,1101,experiment,58,↓,down,↓,0.6495300000533462,True,28,1
RC-M-23M23S2,1102,experiment,90,↓,down,↓,0.4730376999359578,True,28,1
RC-M-23M23S2,1103,experiment,51,→,right,→,0.7329376998823136,True,28,1
RC-M-23M23S2,1104,experiment,104,→,right,→,0.6524711998645216,True,28,1
RC-M-23M23S2,1105,experiment,80,↓,down,↓,0.6077268999069929,True,28,1
RC-M-23M23S2,1106,experiment,84,→,right,→,0.5789214998949319,True,28,1
RC-M-23M23S2,1107,experiment,93,↑,up,↑,0.6606566999107599,True,28,1
RC-M-23M23S2,1108,experiment,56,→,right,→,0.5677795999217778,True,28,1
RC-M-23M23S2,1109,experiment,81,↓,down,↓,0.5734021000098437,True,28,1
RC-M-23M23S2,1110,experiment,59,↑,up,↑,0.40296069998294115,True,28,1
RC-M-23M23S2,1111,experiment,78,↑,up,↑,0.544361500069499,True,28,0
RC-M-23M23S2,1112,training,85,↓,down,↓,0.6618693000636995,True,28,0
RC-M-23M23S2,1113,training,78,↓,down,↓,0.40160869993269444,True,28,1
RC-M-23M23S2,1114,experiment,90,↓,up,↑,0.7068237001076341,False,28,0
RC-M-23M23S2,1115,experiment,104,←,left,←,0.403843300184235,True,28,1
RC-M-23M23S2,1116,experiment,64,→,right,→,0.7254845998249948,True,28,1
RC-M-23M23S2,1117,experiment,87,→,left,←,0.6434408000204712,False,28,1
RC-M-23M23S2,1118,experiment,75,↑,up,↑,0.600182400085032,True,28,1
RC-M-23M23S2,1119,experiment,88,↑,up,↑,0.5627400998491794,True,28,1
RC-M-23M23S2,1120,experiment,69,↓,down,↓,0.46847890014760196,True,28,1
RC-M-23M23S2,1121,experiment,78,↓,down,↓,0.4876788998953998,True,28,1
RC-M-23M23S2,1122,experiment,50,→,right,→,0.4910997999832034,True,28,1
RC-M-23M23S2,1123,experiment,53,←,left,←,0.42974249995313585,True,28,1
RC-M-23M23S2,1124,experiment,58,↑,up,↑,0.6007264999207109,True,28,1
RC-M-23M23S2,1125,experiment,59,←,left,←,0.6128983001690358,True,28,1
RC-M-23M23S2,1126,experiment,93,↓,down,↓,0.5810265999753028,True,28,1
RC-M-23M23S2,1127,experiment,54,↑,up,↑,0.7314458000473678,True,28,1
RC-M-23M23S2,1128,experiment,107,→,right,→,0.43404399999417365,True,28,1
RC-M-23M23S2,1129,experiment,55,↑,up,↑,0.4700113001745194,True,28,1
RC-M-23M23S2,1130,experiment,49,→,left,←,0.5388366000261158,False,28,1
RC-M-23M23S2,1131,experiment,101,→,right,→,0.3838347001001239,True,28,1
RC-M-23M23S2,1132,experiment,65,↓,up,↑,0.41441619978286326,False,28,0
RC-M-23M23S2,1133,experiment,71,↑,up,↑,0.5010536999907345,True,28,1
RC-M-23M23S2,1134,experiment,76,→,right,→,0.6873753999825567,True,28,1
RC-M-23M23S2,1135,experiment,56,↑,up,↑,0.5770717000123113,True,28,1
RC-M-23M23S2,1136,experiment,82,←,left,←,0.4622179998550564,True,28,1
RC-M-23M23S2,1137,experiment,80,↑,up,↑,0.4732263998594135,True,28,1
RC-M-23M23S2,1138,experiment,52,↑,up,↑,0.42079370003193617,True,28,1
RC-M-23M23S2,1139,experiment,105,↓,down,↓,0.4244361000601202,True,28,1
RC-M-23M23S2,1140,experiment,97,↑,up,↑,0.5505202999338508,True,28,1
RC-M-23M23S2,1141,experiment,81,←,left,←,0.38418819988146424,True,28,1
RC-M-23M23S2,1142,experiment,103,↓,up,↑,0.5149721000343561,False,28,0
RC-M-23M23S2,1143,experiment,94,↑,up,↑,0.4547095000743866,True,28,1
RC-M-23M23S2,1144,experiment,102,→,right,→,0.5301362001337111,True,28,1
RC-M-23M23S2,1145,experiment,83,↑,up,↑,0.37516619986854494,True,28,1
RC-M-23M23S2,1146,experiment,96,←,left,←,0.4332942001055926,True,28,0
RC-M-23M23S2,1147,experiment,99,←,left,←,0.48670600005425513,True,28,1
RC-M-23M23S2,1148,experiment,91,↑,up,↑,0.35946490010246634,True,28,1
RC-M-23M23S2,1149,experiment,108,→,right,→,0.5054438000079244,True,28,0
RC-M-23M23S2,1150,experiment,60,↑,up,↑,0.5288027999922633,True,28,1
RC-M-23M23S2,1151,experiment,70,←,left,←,0.6202659998089075,True,28,1
RC-M-23M23S2,1152,experiment,67,←,left,←,0.5170124999713153,True,28,1
RC-M-23M23S2,1153,experiment,68,→,right,→,0.6891796998679638,True,28,1
RC-M-23M23S2,1154,experiment,100,↓,down,↓,0.5480210001114756,True,28,1
RC-M-23M23S2,1155,experiment,48,←,down,↓,0.925980000058189,False,28,1
RC-M-23M23S2,1156,experiment,74,↓,down,↓,0.4640929000452161,True,28,1
RC-M-23M23S2,1157,experiment,51,→,right,→,0.8046303999144584,True,28,1
RC-M-23M23S2,1158,experiment,92,↑,up,↑,0.4606013000011444,True,28,1
RC-M-23M23S2,1159,experiment,84,↑,up,↑,0.5740686000790447,True,28,1
RC-M-23M23S2,1160,experiment,89,↑,up,↑,0.4653278000187129,True,28,1
RC-M-23M23S2,1161,experiment,57,↑,up,↑,0.515234800055623,True,28,1
RC-M-23M23S2,1162,experiment,72,→,right,→,0.502519000088796,True,28,1
RC-M-23M23S2,1163,experiment,98,↓,down,↓,0.5536406999453902,True,28,1
RC-M-23M23S2,1164,experiment,85,↑,down,↓,0.7029497001785785,False,28,1
RC-M-23M23S2,1165,experiment,86,←,left,←,0.4221079999115318,True,28,1
RC-M-23M23S2,1166,experiment,61,↑,left,←,0.7602182000409812,False,28,1
RC-M-23M23S2,1167,experiment,79,→,right,→,0.5594309000298381,True,28,1
RC-M-23M23S2,1168,experiment,63,↑,up,↑,0.45164159988053143,True,28,1
RC-M-23M23S2,1169,experiment,95,↓,down,↓,0.5618487000465393,True,28,1
RC-M-23M23S2,1170,experiment,77,←,left,←,0.45750240003690124,True,28,1
RC-M-23M23S2,1171,experiment,106,→,right,→,0.5314814001321793,True,28,1
RC-M-23M23S2,1172,experiment,62,↑,left,←,1.1614107000641525,False,28,1
RC-M-23M23S2,1173,experiment,73,↓,down,↓,0.5700485000852495,True,28,1
RC-M-23M23S2,1174,experiment,66,←,left,←,0.7413169001229107,True,28,1
RC-M-23M23S2,1175,training,74,↓,no_key,no_letter,-1.0,False,28,3
RC-M-23M23S2,1176,training,70,↑,no_key,no_letter,-1.0,False,28,1
RC-M-23M23S2,1177,experiment,52,↑,up,↑,0.6656448000576347,True,28,1
RC-M-23M23S2,1178,experiment,88,←,left,←,0.44079299992881715,True,28,1
RC-M-23M23S2,1179,experiment,49,↓,down,↓,0.5504446001723409,True,28,1
RC-M-23M23S2,1180,experiment,48,←,left,←,0.5045009998138994,True,28,1
RC-M-23M23S2,1181,experiment,81,↑,up,↑,0.36743499990552664,True,28,1
RC-M-23M23S2,1182,experiment,59,↓,up,↑,0.3348107000347227,False,28,0
RC-M-23M23S2,1183,experiment,77,↑,up,↑,0.40675340010784566,True,28,0
RC-M-23M23S2,1184,experiment,61,↓,down,↓,0.4411156999412924,True,28,1
RC-M-23M23S2,1185,experiment,56,↓,down,↓,0.35869160015136003,True,28,1
RC-M-23M23S2,1186,experiment,79,↓,down,↓,0.5871234000660479,True,28,0
RC-M-23M23S2,1187,experiment,64,→,right,→,1.4060670998878777,True,28,1
RC-M-23M23S2,1188,experiment,95,←,left,←,0.4220018999185413,True,28,1
RC-M-23M23S2,1189,experiment,106,↑,up,↑,1.29686290002428,True,28,1
RC-M-23M23S2,1190,experiment,65,↑,up,↑,0.40829349984414876,True,28,1
RC-M-23M23S2,1191,experiment,89,↓,down,↓,0.384125699987635,True,28,1
RC-M-23M23S2,1192,experiment,74,→,right,→,0.3755042999982834,True,28,0
RC-M-23M23S2,1193,experiment,53,↓,up,↑,0.5354173998348415,False,28,0
RC-M-23M23S2,1194,experiment,55,→,right,→,0.43180530006065965,True,28,1
RC-M-23M23S2,1195,experiment,87,↑,up,↑,0.4406695000361651,True,28,1
RC-M-23M23S2,1196,experiment,94,←,left,←,0.3684996999800205,True,28,1
RC-M-23M23S2,1197,experiment,71,→,right,→,0.5848840998951346,True,28,0
RC-M-23M23S2,1198,experiment,67,↑,up,↑,0.5384545000270009,True,28,1
RC-M-23M23S2,1199,experiment,82,↑,up,↑,0.3838404000271112,True,28,1
RC-M-23M23S2,1200,experiment,68,→,right,→,0.47420500009320676,True,28,0
RC-M-23M23S2,1201,experiment,60,↑,up,↑,0.4275150999892503,True,28,1
RC-M-23M23S2,1202,experiment,92,↓,down,↓,0.6589531998615712,True,28,1
RC-M-23M23S2,1203,experiment,108,↑,up,↑,0.6041562999598682,True,28,1
RC-M-23M23S2,1204,experiment,90,↓,down,↓,0.5577074000611901,True,28,1
RC-M-23M23S2,1205,experiment,50,→,right,→,0.486427899915725,True,28,1
RC-M-23M23S2,1206,experiment,84,→,right,→,0.5589634000789374,True,28,1
RC-M-23M23S2,1207,experiment,99,←,left,←,0.8313564001582563,True,28,1
RC-M-23M23S2,1208,experiment,80,↓,down,↓,0.5468429999891669,True,28,1
RC-M-23M23S2,1209,experiment,70,↓,down,↓,0.5094767999835312,True,28,1
RC-M-23M23S2,1210,experiment,97,↑,up,↑,0.5922037998680025,True,28,1
RC-M-23M23S2,1211,experiment,73,↑,up,↑,0.3758102001156658,True,28,1
RC-M-23M23S2,1212,experiment,58,←,left,←,0.5573799000121653,True,28,0
RC-M-23M23S2,1213,experiment,102,→,right,→,0.436685600085184,True,28,1
RC-M-23M23S2,1214,experiment,91,↓,down,↓,0.5005985000170767,True,28,1
RC-M-23M23S2,1215,experiment,78,↓,down,↓,0.5342469001188874,True,28,1
RC-M-23M23S2,1216,experiment,103,↓,down,↓,0.5423429000657052,True,28,1
RC-M-23M23S2,1217,experiment,101,←,left,←,0.5110049000941217,True,28,1
RC-M-23M23S2,1218,experiment,107,↓,down,↓,0.518681799992919,True,28,1
RC-M-23M23S2,1219,experiment,62,→,right,→,0.5971389000769705,True,28,1
RC-M-23M23S2,1220,experiment,105,↓,down,↓,0.48176970006898046,True,28,1
RC-M-23M23S2,1221,experiment,57,←,left,←,0.6270367000252008,True,28,1
RC-M-23M23S2,1222,experiment,72,←,left,←,0.6018348999787122,True,28,1
RC-M-23M23S2,1223,experiment,98,←,left,←,0.4015616998076439,True,28,1
RC-M-23M23S2,1224,experiment,83,→,right,→,0.5008035998325795,True,28,0
RC-M-23M23S2,1225,experiment,100,←,left,←,0.7189876001793891,True,28,1
RC-M-23M23S2,1226,experiment,51,↓,down,↓,0.5210380000062287,True,28,1
RC-M-23M23S2,1227,experiment,85,↓,down,↓,1.2558311999309808,True,28,1
RC-M-23M23S2,1228,experiment,66,→,left,←,0.6630414000246674,False,28,1
RC-M-23M23S2,1229,experiment,75,↑,up,↑,0.5472885000053793,True,28,1
RC-M-23M23S2,1230,experiment,104,←,left,←,0.4741491999011487,True,28,1
RC-M-23M23S2,1231,experiment,54,←,left,←,0.49276699987240136,True,28,1
RC-M-23M23S2,1232,experiment,93,←,left,←,0.5698760999366641,True,28,1
RC-M-23M23S2,1233,experiment,69,↑,left,←,1.0281539000570774,False,28,1
RC-M-23M23S2,1234,experiment,96,←,left,←,0.4668664999771863,True,28,1
RC-M-23M23S2,1235,experiment,76,↓,down,↓,0.582567699952051,True,28,1
RC-M-23M23S2,1236,experiment,63,↑,up,↑,0.5135474998969585,True,28,1
RC-M-23M23S2,1237,experiment,86,→,left,←,0.48020719992928207,False,28,1
RC-M-23M23S2,1238,training,80,→,right,→,0.54882079991512,True,28,0
RC-M-23M23S2,1239,training,102,↓,down,↓,0.5323512000031769,True,28,1
RC-M-23M23S2,1240,experiment,93,←,left,←,0.37609679996967316,True,28,1
RC-M-23M23S2,1241,experiment,82,↑,up,↑,0.3506117998622358,True,28,0
RC-M-23M23S2,1242,experiment,84,←,left,←,0.3421609001234174,True,28,0
RC-M-23M23S2,1243,experiment,57,→,right,→,0.6494426999706775,True,28,0
RC-M-23M23S2,1244,experiment,64,→,right,→,0.4497626000083983,True,28,1
RC-M-23M23S2,1245,experiment,48,→,left,←,0.5113593998830765,False,28,1
RC-M-23M23S2,1246,experiment,78,↓,down,↓,1.0965295999776572,True,28,1
RC-M-23M23S2,1247,experiment,95,↓,down,↓,0.5646754000335932,True,28,1
RC-M-23M23S2,1248,experiment,99,↓,down,↓,0.6129751999396831,True,28,1
RC-M-23M23S2,1249,experiment,66,↓,down,↓,0.47835830016992986,True,28,1
RC-M-23M23S2,1250,experiment,71,↓,down,↓,0.41963479993864894,True,28,1
RC-M-23M23S2,1251,experiment,59,←,left,←,0.6065723998472095,True,28,1
RC-M-23M23S2,1252,experiment,80,↓,down,↓,0.51505529996939,True,28,1
RC-M-23M23S2,1253,experiment,89,←,right,→,0.4246096001006663,False,28,1
RC-M-23M23S2,1254,experiment,98,→,right,→,0.6226769001223147,True,28,1
RC-M-23M23S2,1255,experiment,107,↓,down,↓,0.4340339999180287,True,28,1
RC-M-23M23S2,1256,experiment,105,←,left,←,0.5170633001253009,True,28,1
RC-M-23M23S2,1257,experiment,58,↑,up,↑,0.6526703999843448,True,28,1
RC-M-23M23S2,1258,experiment,62,↑,up,↑,0.5739380999002606,True,28,1
RC-M-23M23S2,1259,experiment,91,←,left,←,1.0083000999875367,True,28,1
RC-M-23M23S2,1260,experiment,53,↑,up,↑,0.5665420000441372,True,28,1
RC-M-23M23S2,1261,experiment,60,←,left,←,0.6110806001815945,True,28,1
RC-M-23M23S2,1262,experiment,51,←,left,←,0.5455419002100825,True,28,1
RC-M-23M23S2,1263,experiment,106,←,left,←,0.48802040005102754,True,28,1
RC-M-23M23S2,1264,experiment,50,↓,down,↓,0.5473706999327987,True,28,1
RC-M-23M23S2,1265,experiment,75,→,right,→,0.3831931999884546,True,28,1
RC-M-23M23S2,1266,experiment,85,↑,up,↑,0.655979799805209,True,28,0
RC-M-23M23S2,1267,experiment,102,←,left,←,0.5312808000016958,True,28,1
RC-M-23M23S2,1268,experiment,54,←,left,←,0.43588769994676113,True,28,1
RC-M-23M23S2,1269,experiment,74,↓,down,↓,0.4495743999723345,True,28,1
RC-M-23M23S2,1270,experiment,67,→,right,→,0.7453880999237299,True,28,1
RC-M-23M23S2,1271,experiment,49,→,right,→,0.458653099834919,True,28,1
RC-M-23M23S2,1272,experiment,108,↑,up,↑,0.5401275001931936,True,28,1
RC-M-23M23S2,1273,experiment,72,←,left,←,0.4067532999906689,True,28,1
RC-M-23M23S2,1274,experiment,104,→,right,→,0.41872840002179146,True,28,1
RC-M-23M23S2,1275,experiment,90,↑,down,↓,0.7156688999384642,False,28,1
RC-M-23M23S2,1276,experiment,55,←,left,←,0.46052089985460043,True,28,1
RC-M-23M23S2,1277,experiment,68,↑,up,↑,0.6747931998688728,True,28,1
RC-M-23M23S2,1278,experiment,94,↓,down,↓,0.4161846998613328,True,28,1
RC-M-23M23S2,1279,experiment,92,↓,down,↓,0.4807037999853492,True,28,1
RC-M-23M23S2,1280,experiment,86,←,left,←,0.4249380000401288,True,28,1
RC-M-23M23S2,1281,experiment,88,↑,up,↑,0.3508258000947535,True,28,1
RC-M-23M23S2,1282,experiment,65,→,right,→,0.43750510015524924,True,28,0
RC-M-23M23S2,1283,experiment,83,↑,up,↑,0.35046410001814365,True,28,1
RC-M-23M23S2,1284,experiment,56,↓,down,↓,0.6467275000177324,True,28,0
RC-M-23M23S2,1285,experiment,77,→,right,→,0.4189311999361962,True,28,1
RC-M-23M23S2,1286,experiment,61,←,left,←,0.5491921999491751,True,28,1
RC-M-23M23S2,1287,experiment,100,↑,up,↑,0.7016167999245226,True,28,1
RC-M-23M23S2,1288,experiment,101,→,right,→,0.7356989998370409,True,28,1
RC-M-23M23S2,1289,experiment,73,←,left,←,0.5055851000361145,True,28,1
RC-M-23M23S2,1290,experiment,96,↓,down,↓,0.41335279983468354,True,28,1
RC-M-23M23S2,1291,experiment,97,→,right,→,0.4437160000670701,True,28,1
RC-M-23M23S2,1292,experiment,79,↑,down,↓,0.4877353999763727,False,28,1
RC-M-23M23S2,1293,experiment,63,↑,up,↑,0.4950175997801125,True,28,1
RC-M-23M23S2,1294,experiment,70,←,left,←,0.5881056000944227,True,28,1
RC-M-23M23S2,1295,experiment,81,↓,down,↓,0.47268069977872074,True,28,1
RC-M-23M23S2,1296,experiment,69,↓,down,↓,0.40703599993139505,True,28,1
RC-M-23M23S2,1297,experiment,87,↓,down,↓,1.1208997999783605,True,28,0
RC-M-23M23S2,1298,experiment,76,←,left,←,0.9221936999820173,True,28,1
RC-M-23M23S2,1299,experiment,52,→,left,←,0.619751299964264,False,28,1
RC-M-23M23S2,1300,experiment,103,→,right,→,0.4562697000801563,True,28,1
RC-M-23M23S2,1301,training,66,→,left,←,0.4683918000664562,False,28,0
RC-M-23M23S2,1302,training,83,↓,down,↓,0.44637610018253326,True,28,1
RC-M-23M23S2,1303,experiment,96,↑,up,↑,0.6514491999987513,True,28,1
RC-M-23M23S2,1304,experiment,98,→,right,→,1.2964610999915749,True,28,1
RC-M-23M23S2,1305,experiment,88,↓,down,↓,0.4075281999539584,True,28,1
RC-M-23M23S2,1306,experiment,48,↓,down,↓,0.41475980007089674,True,28,1
RC-M-23M23S2,1307,experiment,81,→,right,→,0.3675828000996262,True,28,1
RC-M-23M23S2,1308,experiment,80,←,left,←,0.4964977998752147,True,28,0
RC-M-23M23S2,1309,experiment,77,→,left,←,0.46654799999669194,False,28,1
RC-M-23M23S2,1310,experiment,69,↓,down,↓,0.48057990008965135,True,28,1
RC-M-23M23S2,1311,experiment,56,↑,up,↑,0.6183460000902414,True,28,1
RC-M-23M23S2,1312,experiment,53,↑,up,↑,0.4877636998426169,True,28,1
RC-M-23M23S2,1313,experiment,95,←,left,←,0.5321506999898702,True,28,1
RC-M-23M23S2,1314,experiment,108,→,left,←,0.6427813000045717,False,28,1
RC-M-23M23S2,1315,experiment,73,→,right,→,0.40881869988515973,True,28,1
RC-M-23M23S2,1316,experiment,105,↑,up,↑,0.5007040998898447,True,28,1
RC-M-23M23S2,1317,experiment,86,↓,down,↓,0.4676092998124659,True,28,1
RC-M-23M23S2,1318,experiment,107,→,right,→,0.40506909997202456,True,28,1
RC-M-23M23S2,1319,experiment,61,←,left,←,0.463941500056535,True,28,0
RC-M-23M23S2,1320,experiment,67,↓,up,↑,0.44658980006352067,False,28,1
RC-M-23M23S2,1321,experiment,65,↓,down,↓,0.438658099854365,True,28,1
RC-M-23M23S2,1322,experiment,84,↑,up,↑,0.5610082999337465,True,28,1
RC-M-23M23S2,1323,experiment,87,→,right,→,0.6131498999893665,True,28,1
RC-M-23M23S2,1324,experiment,51,↓,down,↓,0.45103299990296364,True,28,1
RC-M-23M23S2,1325,experiment,102,→,right,→,0.6310262000188231,True,28,1
RC-M-23M23S2,1326,experiment,78,←,left,←,0.38421420007944107,True,28,1
RC-M-23M23S2,1327,experiment,75,↑,up,↑,0.5544551000930369,True,28,0
RC-M-23M23S2,1328,experiment,62,←,left,←,0.5353753000963479,True,28,1
RC-M-23M23S2,1329,experiment,49,→,right,→,0.4415508001111448,True,28,1
RC-M-23M23S2,1330,experiment,57,↑,up,↑,1.0923203998245299,True,28,1
RC-M-23M23S2,1331,experiment,90,→,right,→,0.61845269985497,True,28,1
RC-M-23M23S2,1332,experiment,66,→,right,→,0.42761980020441115,True,28,1
RC-M-23M23S2,1333,experiment,58,↑,up,↑,0.4949322999455035,True,28,1
RC-M-23M23S2,1334,experiment,97,←,left,←,0.3842112999409437,True,28,1
RC-M-23M23S2,1335,experiment,76,↑,up,↑,0.4734096999745816,True,28,0
RC-M-23M23S2,1336,experiment,79,←,left,←,0.5959383000154048,True,28,1
RC-M-23M23S2,1337,experiment,100,↑,up,↑,0.498240299988538,True,28,1
RC-M-23M23S2,1338,experiment,68,→,left,←,0.6072599000763148,False,28,1
RC-M-23M23S2,1339,experiment,93,←,left,←,0.3763508000411093,True,28,1
RC-M-23M23S2,1340,experiment,74,→,right,→,0.4390924000181258,True,28,0
RC-M-23M23S2,1341,experiment,101,↓,down,↓,0.4434388999361545,True,28,1
RC-M-23M23S2,1342,experiment,71,→,right,→,0.5220640001352876,True,28,1
RC-M-23M23S2,1343,experiment,59,↓,down,↓,0.5289402001071721,True,28,1
RC-M-23M23S2,1344,experiment,50,←,left,←,0.3672519000247121,True,28,1
RC-M-23M23S2,1345,experiment,83,→,left,←,0.5440091001801193,False,28,0
RC-M-23M23S2,1346,experiment,54,↓,down,↓,0.5918396001216024,True,28,1
RC-M-23M23S2,1347,experiment,82,←,left,←,0.4846919998526573,True,28,1
RC-M-23M23S2,1348,experiment,91,→,right,→,0.41119539993815124,True,28,1
RC-M-23M23S2,1349,experiment,94,→,right,→,0.7148355999961495,True,28,1
RC-M-23M23S2,1350,experiment,89,↓,down,↓,0.4323957001324743,True,28,1
RC-M-23M23S2,1351,experiment,70,↑,up,↑,0.6152689000591636,True,28,1
RC-M-23M23S2,1352,experiment,106,↓,down,↓,0.4909674001391977,True,28,1
RC-M-23M23S2,1353,experiment,55,↑,up,↑,0.5170441002119333,True,28,1
RC-M-23M23S2,1354,experiment,104,←,left,←,0.4690582000184804,True,28,1
RC-M-23M23S2,1355,experiment,85,↑,up,↑,1.0139004001393914,True,28,1
RC-M-23M23S2,1356,experiment,72,←,left,←,0.40525569999590516,True,28,1
RC-M-23M23S2,1357,experiment,52,←,right,→,0.626906800083816,False,28,0
RC-M-23M23S2,1358,experiment,99,←,left,←,0.5366230001673102,True,28,1
RC-M-23M23S2,1359,experiment,60,↓,down,↓,0.4310413000639528,True,28,1
RC-M-23M23S2,1360,experiment,64,←,left,←,0.37563859997317195,True,28,1
RC-M-23M23S2,1361,experiment,63,↑,up,↑,1.0114431998226792,True,28,0
RC-M-23M23S2,1362,experiment,92,↑,up,↑,0.5245277001522481,True,28,1
RC-M-23M23S2,1363,experiment,103,→,right,→,0.676747800083831,True,28,1
RC-M-23M23S2,1364,training,69,↓,down,↓,0.4492752000223845,True,28,0
RC-M-23M23S2,1365,training,80,→,left,←,0.7242249001283199,False,28,1
RC-M-23M23S2,1366,experiment,98,↓,down,↓,0.3694390000309795,True,28,1
RC-M-23M23S2,1367,experiment,91,←,left,←,0.5926491999998689,True,28,0
RC-M-23M23S2,1368,experiment,95,↑,up,↑,0.4332868999335915,True,28,1
RC-M-23M23S2,1369,experiment,64,↑,up,↑,0.6426037000492215,True,28,1
RC-M-23M23S2,1370,experiment,84,↑,up,↑,0.4285670001991093,True,28,1
RC-M-23M23S2,1371,experiment,69,→,right,→,0.6596840999554843,True,28,1
RC-M-23M23S2,1372,experiment,77,→,right,→,0.6475478000938892,True,28,1
RC-M-23M23S2,1373,experiment,72,↓,down,↓,0.5891547999344766,True,28,1
RC-M-23M23S2,1374,experiment,75,↑,up,↑,0.41229919996112585,True,28,1
RC-M-23M23S2,1375,experiment,54,→,right,→,0.44938840018585324,True,28,1
RC-M-23M23S2,1376,experiment,48,←,left,←,0.5030936000403017,True,28,1
RC-M-23M23S2,1377,experiment,66,→,right,→,0.42902879999019206,True,28,1
RC-M-23M23S2,1378,experiment,79,←,left,←,0.49695720011368394,True,28,1
RC-M-23M23S2,1379,experiment,71,→,right,→,0.358910100068897,True,28,1
RC-M-23M23S2,1380,experiment,58,↓,down,↓,0.5870560000184923,True,28,0
RC-M-23M23S2,1381,experiment,78,↑,up,↑,0.6091996000614017,True,28,1
RC-M-23M23S2,1382,experiment,73,↓,down,↓,0.5603563000913709,True,28,1
RC-M-23M23S2,1383,experiment,55,→,right,→,0.5996073000133038,True,28,1
RC-M-23M23S2,1384,experiment,52,→,right,→,0.5180281000211835,True,28,1
RC-M-23M23S2,1385,experiment,103,←,right,→,0.686536599881947,False,28,1
RC-M-23M23S2,1386,experiment,60,↑,up,↑,0.4948882998432964,True,28,1
RC-M-23M23S2,1387,experiment,65,↓,left,←,0.8613603000994772,False,28,1
RC-M-23M23S2,1388,experiment,90,↓,down,↓,0.6046780999749899,True,28,1
RC-M-23M23S2,1389,experiment,68,↑,up,↑,0.48537800018675625,True,28,1
RC-M-23M23S2,1390,experiment,81,←,right,→,0.6388707000296563,False,28,1
RC-M-23M23S2,1391,experiment,108,↑,up,↑,0.7929887000937015,True,28,1
RC-M-23M23S2,1392,experiment,97,←,left,←,0.6005959999747574,True,28,1
RC-M-23M23S2,1393,experiment,53,→,right,→,0.702775500016287,True,28,1
RC-M-23M23S2,1394,experiment,70,→,right,→,0.459139599930495,True,28,1
RC-M-23M23S2,1395,experiment,86,→,left,←,0.5234982001129538,False,28,1
RC-M-23M23S2,1396,experiment,102,↓,down,↓,0.43667789991013706,True,28,1
RC-M-23M23S2,1397,experiment,93,↓,down,↓,0.3753335000947118,True,28,1
RC-M-23M23S2,1398,experiment,61,↓,down,↓,0.41638280008919537,True,28,0
RC-M-23M23S2,1399,experiment,88,→,right,→,0.42598499986343086,True,28,1
RC-M-23M23S2,1400,experiment,92,↓,down,↓,0.49771489994600415,True,28,1
RC-M-23M23S2,1401,experiment,74,↓,down,↓,1.2448136999737471,True,28,1
RC-M-23M23S2,1402,experiment,49,↑,down,↓,0.6344922001007944,False,28,1
RC-M-23M23S2,1403,experiment,100,↓,down,↓,0.5755218998529017,True,28,1
RC-M-23M23S2,1404,experiment,101,→,right,→,0.38414280000142753,True,28,1
RC-M-23M23S2,1405,experiment,82,←,left,←,0.5073553000111133,True,28,0
RC-M-23M23S2,1406,experiment,51,↓,down,↓,0.4698181999847293,True,28,1
RC-M-23M23S2,1407,experiment,80,↓,down,↓,0.416599600110203,True,28,1
RC-M-23M23S2,1408,experiment,85,↑,up,↑,0.7309105000458658,True,28,1
RC-M-23M23S2,1409,experiment,76,←,left,←,0.5000967001542449,True,28,1
RC-M-23M23S2,1410,experiment,56,↓,down,↓,0.42902590008452535,True,28,1
RC-M-23M23S2,1411,experiment,62,↑,up,↑,0.6790103001985699,True,28,1
RC-M-23M23S2,1412,experiment,59,↓,down,↓,0.447553199948743,True,28,1
RC-M-23M23S2,1413,experiment,89,←,left,←,1.0638729999773204,True,28,1
RC-M-23M23S2,1414,experiment,57,←,left,←,0.4816155000589788,True,28,1
RC-M-23M23S2,1415,experiment,107,→,left,←,0.4744124000426382,False,28,1
RC-M-23M23S2,1416,experiment,94,→,right,→,0.3674255001824349,True,28,1
RC-M-23M23S2,1417,experiment,106,←,left,←,0.5253295998554677,True,28,0
RC-M-23M23S2,1418,experiment,104,→,right,→,0.5012006000615656,True,28,1
RC-M-23M23S2,1419,experiment,50,←,down,↓,0.9522887000348419,False,28,1
RC-M-23M23S2,1420,experiment,87,←,left,←,0.40553599991835654,True,28,1
RC-M-23M23S2,1421,experiment,99,↑,up,↑,0.45133630000054836,True,28,1
RC-M-23M23S2,1422,experiment,63,↓,down,↓,0.8440868998877704,True,28,1
RC-M-23M23S2,1423,experiment,83,↓,down,↓,0.4070521001704037,True,28,1
RC-M-23M23S2,1424,experiment,67,↑,up,↑,0.4084260000381619,True,28,1
RC-M-23M23S2,1425,experiment,105,↓,down,↓,0.4362395000644028,True,28,1
RC-M-23M23S2,1426,experiment,96,←,left,←,0.4109312000218779,True,28,1
RC-M-23M23S2,1427,training,100,↓,down,↓,0.42470590001903474,True,28,0
RC-M-23M23S2,1428,training,57,↓,down,↓,0.43640929996035993,True,28,1
RC-M-23M23S2,1429,experiment,97,↑,up,↑,0.4584449001122266,True,28,1
RC-M-23M23S2,1430,experiment,104,↑,up,↑,0.5652774998452514,True,28,1
RC-M-23M23S2,1431,experiment,66,↓,down,↓,0.6720649001654238,True,28,1
RC-M-23M23S2,1432,experiment,48,→,right,→,0.6611788999289274,True,28,1
RC-M-23M23S2,1433,experiment,79,→,right,→,0.5202548999805003,True,28,1
RC-M-23M23S2,1434,experiment,102,↑,up,↑,0.3675967000890523,True,28,1
RC-M-23M23S2,1435,experiment,77,↑,up,↑,0.42454020003788173,True,28,0
RC-M-23M23S2,1436,experiment,106,↑,up,↑,0.4276572000235319,True,28,1
RC-M-23M23S2,1437,experiment,68,←,left,←,0.45960940001532435,True,28,1
RC-M-23M23S2,1438,experiment,92,→,right,→,0.44236059999093413,True,28,1
RC-M-23M23S2,1439,experiment,93,→,left,←,0.48142359987832606,False,28,1
RC-M-23M23S2,1440,experiment,69,↑,up,↑,0.44708920014090836,True,28,1
RC-M-23M23S2,1441,experiment,103,↑,up,↑,0.3592681000009179,True,28,1
RC-M-23M23S2,1442,experiment,75,→,right,→,0.5707390999887139,True,28,0
RC-M-23M23S2,1443,experiment,60,→,right,→,0.5193674999754876,True,28,1
RC-M-23M23S2,1444,experiment,51,←,right,→,0.42568590003065765,False,28,1
