PART_ID,Trial_no,Trial_type,CSI,Stim_letter,Key_pressed,letter_choose,Rt,Corr,Stimulus Time,nDropped
SK-K-24K24S2,1,training,120,↑,up,↑,1.0132557000033557,True,60,1
SK-K-24K24S2,2,training,120,→,right,→,0.8096537000965327,True,60,0
SK-K-24K24S2,3,training,120,→,right,→,0.40918729989789426,True,60,0
SK-K-24K24S2,4,training,120,↑,up,↑,0.5006315000355244,True,60,0
SK-K-24K24S2,5,training,120,→,right,→,0.6003012999426574,True,60,0
SK-K-24K24S2,6,training,120,→,right,→,0.41730079986155033,True,60,0
SK-K-24K24S2,7,training,120,←,left,←,0.41731629986315966,True,60,0
SK-K-24K24S2,8,training,120,←,left,←,0.6760193000081927,True,60,0
SK-K-24K24S2,9,training,120,→,right,→,0.5753254001028836,True,60,0
SK-K-24K24S2,10,training,120,←,left,←,0.5335655999369919,True,60,0
SK-K-24K24S2,11,training,120,↓,down,↓,0.5257051000371575,True,60,0
SK-K-24K24S2,12,training,120,←,left,←,0.6672547000925988,True,60,0
SK-K-24K24S2,13,training,120,←,left,←,0.6177034000866115,True,60,0
SK-K-24K24S2,14,training,120,↓,down,↓,0.6859979999717325,True,60,0
SK-K-24K24S2,15,training,120,↓,down,↓,0.6424484001472592,True,60,0
SK-K-24K24S2,16,training,120,←,left,←,0.5920057999901474,True,60,0
SK-K-24K24S2,17,training,120,↑,up,↑,0.7418596998322755,True,60,0
SK-K-24K24S2,18,training,120,↑,up,↑,0.5592688999604434,True,60,0
SK-K-24K24S2,19,training,120,→,right,→,0.4673138000071049,True,60,0
SK-K-24K24S2,20,training,120,→,right,→,0.6427797998767346,True,60,0
SK-K-24K24S2,21,no_adaptation,120,↓,down,↓,0.6149041000753641,True,36,0
SK-K-24K24S2,22,no_adaptation,120,←,left,←,0.605659699998796,True,36,0
SK-K-24K24S2,23,no_adaptation,120,↑,up,↑,0.7327420997899026,True,36,0
SK-K-24K24S2,24,no_adaptation,120,↑,up,↑,0.8384676999412477,True,36,0
SK-K-24K24S2,25,no_adaptation,120,↑,up,↑,0.6840931000187993,True,36,0
SK-K-24K24S2,26,no_adaptation,120,→,right,→,0.599689400056377,True,36,0
SK-K-24K24S2,27,no_adaptation,120,→,right,→,0.5910843999590725,True,36,0
SK-K-24K24S2,28,no_adaptation,120,↓,down,↓,0.7262258999980986,True,36,0
SK-K-24K24S2,29,no_adaptation,120,↑,up,↑,0.6888228999450803,True,36,0
SK-K-24K24S2,30,no_adaptation,120,↓,down,↓,0.6363397999666631,True,36,0
SK-K-24K24S2,31,no_adaptation,120,↓,down,↓,0.49771789996884763,True,36,0
SK-K-24K24S2,32,no_adaptation,120,↑,down,↓,0.8609492001123726,False,36,0
SK-K-24K24S2,33,no_adaptation,120,←,left,←,0.5453442002180964,True,36,0
SK-K-24K24S2,34,no_adaptation,120,←,left,←,0.5385936999227852,True,36,0
SK-K-24K24S2,35,no_adaptation,120,→,down,↓,0.7880576001480222,False,36,0
SK-K-24K24S2,36,no_adaptation,120,↓,down,↓,0.6195185999386013,True,36,0
SK-K-24K24S2,37,no_adaptation,120,←,left,←,0.609799100086093,True,36,0
SK-K-24K24S2,38,no_adaptation,120,←,left,←,0.4507576001342386,True,36,0
SK-K-24K24S2,39,no_adaptation,120,↑,up,↑,0.6533644001465291,True,36,0
SK-K-24K24S2,40,no_adaptation,120,↓,down,↓,0.6098811000119895,True,36,0
SK-K-24K24S2,41,training,94,↓,down,↓,0.8262573999818414,True,36,0
SK-K-24K24S2,42,training,75,↓,down,↓,0.6481467999983579,True,36,1
SK-K-24K24S2,43,experiment,50,→,right,→,0.629024300025776,True,36,1
SK-K-24K24S2,44,experiment,67,→,right,→,0.7900202001910657,True,36,1
SK-K-24K24S2,45,experiment,97,←,left,←,0.6213489000219852,True,36,1
SK-K-24K24S2,46,experiment,84,↑,up,↑,0.7119950000196695,True,36,1
SK-K-24K24S2,47,experiment,56,↓,down,↓,0.6085251998156309,True,36,1
SK-K-24K24S2,48,experiment,101,↓,down,↓,0.5902145998552442,True,36,1
SK-K-24K24S2,49,experiment,89,←,right,→,0.9127501999028027,False,36,1
SK-K-24K24S2,50,experiment,71,↓,down,↓,0.66818039980717,True,36,1
SK-K-24K24S2,51,experiment,58,↑,up,↑,0.741799000184983,True,36,1
SK-K-24K24S2,52,experiment,51,←,left,←,0.6792351000476629,True,36,1
SK-K-24K24S2,53,experiment,60,↓,down,↓,0.615656099980697,True,36,1
SK-K-24K24S2,54,experiment,52,↓,down,↓,0.6294927000999451,True,36,1
SK-K-24K24S2,55,experiment,79,↑,left,←,0.8493535001762211,False,36,1
SK-K-24K24S2,56,experiment,81,←,left,←,0.6124855000525713,True,36,1
SK-K-24K24S2,57,experiment,68,↑,down,↓,0.6454195999540389,False,36,1
SK-K-24K24S2,58,experiment,88,→,left,←,0.5896683000028133,False,36,1
SK-K-24K24S2,59,experiment,69,→,right,→,0.5670149000361562,True,36,1
SK-K-24K24S2,60,experiment,83,↑,up,↑,0.69985879980959,True,36,1
SK-K-24K24S2,61,experiment,70,←,left,←,0.608899800106883,True,36,1
SK-K-24K24S2,62,experiment,98,↑,up,↑,0.7434276000130922,True,36,1
SK-K-24K24S2,63,experiment,62,↑,up,↑,0.7323346000630409,True,36,1
SK-K-24K24S2,64,experiment,85,←,left,←,0.5308066001161933,True,36,1
SK-K-24K24S2,65,experiment,72,→,left,←,0.6292761999648064,False,36,1
SK-K-24K24S2,66,experiment,102,↓,down,↓,0.6181838000193238,True,36,1
SK-K-24K24S2,67,experiment,48,←,left,←,0.6167204000521451,True,36,1
SK-K-24K24S2,68,experiment,61,→,right,→,0.7879419999662787,True,36,1
SK-K-24K24S2,69,experiment,63,↓,left,←,0.6952422000467777,False,36,1
SK-K-24K24S2,70,experiment,86,↓,down,↓,0.7983693999703974,True,36,1
SK-K-24K24S2,71,experiment,77,↓,down,↓,0.7242523999884725,True,36,1
SK-K-24K24S2,72,experiment,103,←,right,→,0.6768177000340074,False,36,1
SK-K-24K24S2,73,experiment,64,↓,down,↓,0.9161040000617504,True,36,1
SK-K-24K24S2,74,experiment,104,→,right,→,0.5804247001651675,True,36,1
SK-K-24K24S2,75,experiment,49,←,left,←,0.6843560999259353,True,36,1
SK-K-24K24S2,76,experiment,75,↑,down,↓,0.7361272000707686,False,36,1
SK-K-24K24S2,77,experiment,87,↑,up,↑,0.8212445999961346,True,36,1
SK-K-24K24S2,78,experiment,73,→,right,→,0.6036212001927197,True,36,1
SK-K-24K24S2,79,experiment,59,↓,down,↓,0.6798598999157548,True,36,1
SK-K-24K24S2,80,experiment,93,→,right,→,0.7489809000398964,True,36,1
SK-K-24K24S2,81,experiment,66,→,right,→,0.6812173998914659,True,36,1
SK-K-24K24S2,82,experiment,57,←,left,←,0.738358800066635,True,36,1
SK-K-24K24S2,83,experiment,54,→,right,→,0.6342118999455124,True,36,1
SK-K-24K24S2,84,experiment,92,↓,down,↓,0.6503017998766154,True,36,1
SK-K-24K24S2,85,experiment,107,→,right,→,0.6279223999008536,True,36,1
SK-K-24K24S2,86,experiment,78,↓,down,↓,0.6008421001024544,True,36,1
SK-K-24K24S2,87,experiment,82,↓,down,↓,0.7094881001394242,True,36,1
SK-K-24K24S2,88,experiment,65,↓,down,↓,0.8112005000002682,True,36,1
SK-K-24K24S2,89,experiment,76,→,right,→,0.7213224000297487,True,36,1
SK-K-24K24S2,90,experiment,94,→,down,↓,1.1970003000460565,False,36,1
SK-K-24K24S2,91,experiment,74,←,left,←,0.7236881998833269,True,36,1
SK-K-24K24S2,92,experiment,96,→,right,→,0.6465360999573022,True,36,1
SK-K-24K24S2,93,experiment,55,↓,down,↓,0.6174595998600125,True,36,1
SK-K-24K24S2,94,experiment,90,↓,down,↓,0.6186275999061763,True,36,1
SK-K-24K24S2,95,experiment,100,↑,up,↑,0.8640278000384569,True,36,1
SK-K-24K24S2,96,experiment,91,↑,up,↑,0.8549258999992162,True,36,1
SK-K-24K24S2,97,experiment,108,↓,down,↓,0.608098000055179,True,36,1
SK-K-24K24S2,98,experiment,99,↑,up,↑,0.838454999960959,True,36,1
SK-K-24K24S2,99,experiment,53,↓,down,↓,0.6510568999219686,True,36,1
SK-K-24K24S2,100,experiment,105,↑,up,↑,0.8214845000766218,True,36,1
SK-K-24K24S2,101,experiment,106,↑,up,↑,0.5612095999531448,True,36,1
SK-K-24K24S2,102,experiment,80,→,right,→,0.6559222999494523,True,36,1
SK-K-24K24S2,103,experiment,95,←,right,→,0.6776091000065207,False,36,1
SK-K-24K24S2,104,training,73,→,left,←,0.8847300999332219,False,36,0
SK-K-24K24S2,105,training,67,→,right,→,0.6108047999441624,True,36,1
SK-K-24K24S2,106,experiment,58,↓,down,↓,0.9746892999392003,True,36,1
SK-K-24K24S2,107,experiment,91,→,right,→,0.6330026998184621,True,36,1
SK-K-24K24S2,108,experiment,87,→,right,→,0.7464952000882477,True,36,1
SK-K-24K24S2,109,experiment,77,↓,down,↓,0.5071060999762267,True,36,1
SK-K-24K24S2,110,experiment,59,→,right,→,0.5382715999148786,True,36,1
SK-K-24K24S2,111,experiment,49,↓,down,↓,0.6759677000809461,True,36,1
SK-K-24K24S2,112,experiment,56,↓,down,↓,0.7343087999615818,True,36,1
SK-K-24K24S2,113,experiment,100,↓,down,↓,0.6792354001663625,True,36,1
SK-K-24K24S2,114,experiment,55,←,down,↓,0.889128000009805,False,36,1
SK-K-24K24S2,115,experiment,88,→,right,→,0.6399758001789451,True,36,1
SK-K-24K24S2,116,experiment,51,→,right,→,0.6215641999151558,True,36,1
SK-K-24K24S2,117,experiment,57,←,left,←,0.824672699905932,True,36,1
SK-K-24K24S2,118,experiment,80,←,left,←,0.7246676001232117,True,36,1
SK-K-24K24S2,119,experiment,81,→,right,→,0.6603926999960095,True,36,1
SK-K-24K24S2,120,experiment,79,→,right,→,0.6395696999970824,True,36,1
SK-K-24K24S2,121,experiment,83,↓,down,↓,0.7058761001098901,True,36,1
SK-K-24K24S2,122,experiment,75,↑,up,↑,0.7724061000626534,True,36,1
SK-K-24K24S2,123,experiment,86,↑,down,↓,0.9763989001512527,False,36,1
SK-K-24K24S2,124,experiment,97,↓,down,↓,0.7287377999164164,True,36,1
SK-K-24K24S2,125,experiment,67,↓,down,↓,0.6769548999145627,True,36,1
SK-K-24K24S2,126,experiment,90,↑,down,↓,1.1636495999991894,False,36,1
SK-K-24K24S2,127,experiment,103,→,right,→,0.5142809001263231,True,36,1
SK-K-24K24S2,128,experiment,52,←,left,←,0.6359935998916626,True,36,1
SK-K-24K24S2,129,experiment,96,→,left,←,0.7785845999605954,False,36,1
SK-K-24K24S2,130,experiment,54,↑,down,↓,0.7130925999954343,False,36,1
SK-K-24K24S2,131,experiment,65,←,left,←,0.5584635999985039,True,36,1
SK-K-24K24S2,132,experiment,94,↓,down,↓,0.6806014999747276,True,36,1
SK-K-24K24S2,133,experiment,85,↓,down,↓,0.6247841999866068,True,36,1
SK-K-24K24S2,134,experiment,69,←,left,←,0.704484699992463,True,36,1
SK-K-24K24S2,135,experiment,102,←,left,←,0.6583593999966979,True,36,1
SK-K-24K24S2,136,experiment,107,↑,up,↑,1.0038839001208544,True,36,1
SK-K-24K24S2,137,experiment,89,↑,up,↑,0.8056266000494361,True,36,1
SK-K-24K24S2,138,experiment,71,↑,down,↓,0.6693833000026643,False,36,1
SK-K-24K24S2,139,experiment,72,↑,up,↑,0.8340189999435097,True,36,1
SK-K-24K24S2,140,experiment,63,↑,left,←,0.9392321999184787,False,36,1
SK-K-24K24S2,141,experiment,70,↓,down,↓,0.6222041000146419,True,36,1
SK-K-24K24S2,142,experiment,82,↓,down,↓,0.4975427999161184,True,36,1
SK-K-24K24S2,143,experiment,64,←,left,←,0.7840553000569344,True,36,1
SK-K-24K24S2,144,experiment,62,←,left,←,0.6036435998976231,True,36,1
SK-K-24K24S2,145,experiment,84,→,right,→,0.583347300067544,True,36,1
SK-K-24K24S2,146,experiment,99,→,right,→,0.5266618998721242,True,36,1
SK-K-24K24S2,147,experiment,66,↓,down,↓,0.6036738001275808,True,36,1
SK-K-24K24S2,148,experiment,101,→,right,→,0.5456097999121994,True,36,1
SK-K-24K24S2,149,experiment,78,→,no_key,no_letter,-1.0,False,36,1
SK-K-24K24S2,150,experiment,74,→,right,→,0.6664678000379354,True,36,1
SK-K-24K24S2,151,experiment,104,↑,up,↑,0.7639406998641789,True,36,1
SK-K-24K24S2,152,experiment,60,↓,down,↓,0.657408099854365,True,36,1
SK-K-24K24S2,153,experiment,95,←,left,←,0.5671947000082582,True,36,1
SK-K-24K24S2,154,experiment,53,↓,down,↓,0.6463752000126988,True,36,1
SK-K-24K24S2,155,experiment,108,←,left,←,0.6560265000443906,True,36,1
SK-K-24K24S2,156,experiment,93,←,left,←,0.49448019987903535,True,36,1
SK-K-24K24S2,157,experiment,50,→,right,→,0.5138164001982659,True,36,1
SK-K-24K24S2,158,experiment,76,→,left,←,0.6194904001895338,False,36,1
SK-K-24K24S2,159,experiment,92,↓,no_key,no_letter,-1.0,False,36,1
SK-K-24K24S2,160,experiment,73,↑,up,↑,0.8926266999915242,True,36,1
SK-K-24K24S2,161,experiment,68,→,left,←,0.5618790001608431,False,36,1
SK-K-24K24S2,162,experiment,98,↑,up,↑,0.7870700999628752,True,36,1
SK-K-24K24S2,163,experiment,48,→,right,→,0.6668841000646353,True,36,1
SK-K-24K24S2,164,experiment,61,→,right,→,0.5399611000902951,True,36,1
SK-K-24K24S2,165,experiment,105,↓,down,↓,0.7226209999062121,True,36,1
SK-K-24K24S2,166,experiment,106,↑,up,↑,0.8421482001431286,True,36,1
SK-K-24K24S2,167,training,93,↑,up,↑,0.8215330000966787,True,36,0
SK-K-24K24S2,168,training,90,↑,up,↑,0.6625449999701232,True,36,1
SK-K-24K24S2,169,experiment,57,←,left,←,0.47349389991723,True,36,1
SK-K-24K24S2,170,experiment,55,→,right,→,0.4911837999243289,True,36,1
SK-K-24K24S2,171,experiment,59,←,left,←,0.8116356998216361,True,36,1
SK-K-24K24S2,172,experiment,48,→,right,→,0.40935510001145303,True,36,1
SK-K-24K24S2,173,experiment,104,→,left,←,0.6072333001065999,False,36,0
SK-K-24K24S2,174,experiment,91,↓,down,↓,0.5443766999524087,True,36,1
SK-K-24K24S2,175,experiment,81,↑,up,↑,0.55947560002096,True,36,1
SK-K-24K24S2,176,experiment,102,←,right,→,1.2388151998165995,False,36,1
SK-K-24K24S2,177,experiment,64,↓,down,↓,0.42554869991727173,True,36,1
SK-K-24K24S2,178,experiment,52,↓,down,↓,0.5088581000454724,True,36,0
SK-K-24K24S2,179,experiment,66,→,right,→,0.49779679998755455,True,36,1
SK-K-24K24S2,180,experiment,84,↓,down,↓,0.6337291998788714,True,36,1
SK-K-24K24S2,181,experiment,73,←,left,←,0.5117913000285625,True,36,1
SK-K-24K24S2,182,experiment,107,↓,down,↓,0.6635842998512089,True,36,1
SK-K-24K24S2,183,experiment,105,↑,up,↑,0.68160289991647,True,36,1
SK-K-24K24S2,184,experiment,99,↓,right,→,0.6848549998831004,False,36,1
SK-K-24K24S2,185,experiment,76,↓,down,↓,0.5358545000199229,True,36,1
SK-K-24K24S2,186,experiment,63,→,left,←,0.509935500100255,False,36,1
SK-K-24K24S2,187,experiment,95,↓,down,↓,0.5053149999585003,True,36,1
SK-K-24K24S2,188,experiment,67,↑,up,↑,0.6624491999391466,True,36,1
SK-K-24K24S2,189,experiment,97,↓,down,↓,0.48310770001262426,True,36,1
SK-K-24K24S2,190,experiment,89,←,left,←,0.5058856999967247,True,36,1
SK-K-24K24S2,191,experiment,98,→,right,→,0.7246152001898736,True,36,1
SK-K-24K24S2,192,experiment,100,←,no_key,no_letter,-1.0,False,36,1
SK-K-24K24S2,193,experiment,68,←,right,→,0.4419279000721872,False,36,1
SK-K-24K24S2,194,experiment,78,←,left,←,0.612080299993977,True,36,0
SK-K-24K24S2,195,experiment,88,↑,up,↑,0.6458324000705034,True,36,1
SK-K-24K24S2,196,experiment,70,→,right,→,0.48467490007169545,True,36,1
SK-K-24K24S2,197,experiment,83,↓,down,↓,0.5490623998921365,True,36,1
SK-K-24K24S2,198,experiment,87,↓,down,↓,0.593733899993822,True,36,1
SK-K-24K24S2,199,experiment,56,↑,down,↓,0.6076496997848153,False,36,1
SK-K-24K24S2,200,experiment,53,←,left,←,0.5728602998424321,True,36,1
SK-K-24K24S2,201,experiment,80,↓,down,↓,0.6271204999648035,True,36,1
SK-K-24K24S2,202,experiment,103,→,right,→,0.3585075999144465,True,36,1
SK-K-24K24S2,203,experiment,51,↓,down,↓,0.4878833999391645,True,36,0
SK-K-24K24S2,204,experiment,71,→,right,→,0.6198960999026895,True,36,1
SK-K-24K24S2,205,experiment,72,←,left,←,0.4172938000410795,True,36,1
SK-K-24K24S2,206,experiment,79,←,right,→,0.48766280012205243,False,36,0
SK-K-24K24S2,207,experiment,92,↓,down,↓,0.516683500027284,True,36,1
SK-K-24K24S2,208,experiment,93,→,right,→,0.3839301001280546,True,36,1
SK-K-24K24S2,209,experiment,58,←,no_key,no_letter,-1.0,False,36,0
SK-K-24K24S2,210,experiment,62,←,left,←,0.42556839995086193,True,36,1
SK-K-24K24S2,211,experiment,77,↑,up,↑,0.5826513001229614,True,36,0
SK-K-24K24S2,212,experiment,82,←,left,←,0.5156821999698877,True,36,1
SK-K-24K24S2,213,experiment,54,↓,no_key,no_letter,-1.0,False,36,1
SK-K-24K24S2,214,experiment,86,↑,up,↑,0.6569157000631094,True,36,1
SK-K-24K24S2,215,experiment,74,↑,up,↑,0.6136053998488933,True,36,1
SK-K-24K24S2,216,experiment,101,↑,up,↑,0.483185000019148,True,36,1
SK-K-24K24S2,217,experiment,65,←,left,←,0.40911640017293394,True,36,1
SK-K-24K24S2,218,experiment,60,↑,down,↓,0.7571127000264823,False,36,0
SK-K-24K24S2,219,experiment,85,↑,up,↑,0.5937266999389976,True,36,1
SK-K-24K24S2,220,experiment,90,↑,up,↑,0.5161719999741763,True,36,1
SK-K-24K24S2,221,experiment,49,←,left,←,0.5350820999592543,True,36,1
SK-K-24K24S2,222,experiment,75,→,right,→,0.6481230000499636,True,36,1
SK-K-24K24S2,223,experiment,108,↑,up,↑,0.7535840000491589,True,36,1
SK-K-24K24S2,224,experiment,96,←,left,←,0.4684852999635041,True,36,1
SK-K-24K24S2,225,experiment,94,↓,down,↓,0.5847599999979138,True,36,0
SK-K-24K24S2,226,experiment,50,←,left,←,0.4175551999360323,True,36,1
SK-K-24K24S2,227,experiment,61,↓,down,↓,0.6589703001081944,True,36,0
SK-K-24K24S2,228,experiment,106,←,left,←,0.4337993001099676,True,36,1
SK-K-24K24S2,229,experiment,69,↑,down,↓,0.748178199864924,False,36,0
SK-K-24K24S2,230,training,73,←,left,←,0.45075879991054535,True,36,0
SK-K-24K24S2,231,training,72,↓,up,↑,0.7491993999574333,False,36,0
SK-K-24K24S2,232,experiment,89,←,right,→,0.5531727001070976,False,36,1
SK-K-24K24S2,233,experiment,58,→,right,→,0.5117134000174701,True,36,1
SK-K-24K24S2,234,experiment,55,→,right,→,0.5367217999882996,True,36,1
SK-K-24K24S2,235,experiment,82,←,right,→,0.5602894998155534,False,36,1
SK-K-24K24S2,236,experiment,52,→,right,→,0.504192000022158,True,36,1
SK-K-24K24S2,237,experiment,103,←,right,→,0.4736277998890728,False,36,1
SK-K-24K24S2,238,experiment,73,↑,up,↑,0.6615172000601888,True,36,1
SK-K-24K24S2,239,experiment,66,→,right,→,0.6047187000513077,True,36,1
SK-K-24K24S2,240,experiment,64,←,left,←,0.5034044999629259,True,36,1
SK-K-24K24S2,241,experiment,50,↓,down,↓,0.5939768999814987,True,36,1
SK-K-24K24S2,242,experiment,106,↑,right,→,0.48659910005517304,False,36,1
SK-K-24K24S2,243,experiment,102,→,right,→,0.5610851000528783,True,36,1
SK-K-24K24S2,244,experiment,76,↑,up,↑,0.5211229999549687,True,36,1
SK-K-24K24S2,245,experiment,69,↑,right,→,0.9171805998776108,False,36,1
SK-K-24K24S2,246,experiment,48,→,right,→,0.4089945999439806,True,36,1
SK-K-24K24S2,247,experiment,107,↓,down,↓,0.8276464999653399,True,36,0
SK-K-24K24S2,248,experiment,108,↑,up,↑,0.5187051999382675,True,36,1
SK-K-24K24S2,249,experiment,94,↑,up,↑,0.7140129001345485,True,36,1
SK-K-24K24S2,250,experiment,79,↓,right,→,0.6348205001559108,False,36,1
SK-K-24K24S2,251,experiment,71,↓,down,↓,0.4815994000528008,True,36,1
SK-K-24K24S2,252,experiment,96,↑,up,↑,0.5657979999668896,True,36,1
SK-K-24K24S2,253,experiment,95,→,right,→,0.5036628998350352,True,36,1
SK-K-24K24S2,254,experiment,59,←,left,←,0.4716998999938369,True,36,1
SK-K-24K24S2,255,experiment,78,→,right,→,0.6178404001984745,True,36,0
SK-K-24K24S2,256,experiment,61,↓,down,↓,0.4338436000980437,True,36,1
SK-K-24K24S2,257,experiment,104,↓,down,↓,0.434324000030756,True,36,0
SK-K-24K24S2,258,experiment,81,↑,up,↑,0.6188417000230402,True,36,0
SK-K-24K24S2,259,experiment,87,↓,down,↓,0.43415439990349114,True,36,1
SK-K-24K24S2,260,experiment,86,↑,up,↑,0.542282999958843,True,36,0
SK-K-24K24S2,261,experiment,90,←,left,←,0.40076100011356175,True,36,1
SK-K-24K24S2,262,experiment,70,→,no_key,no_letter,-1.0,False,36,0
SK-K-24K24S2,263,experiment,72,↑,up,↑,0.7153433000203222,True,36,1
SK-K-24K24S2,264,experiment,92,←,right,→,0.511750299949199,False,36,1
SK-K-24K24S2,265,experiment,83,↑,up,↑,0.7675490998663008,True,36,1
SK-K-24K24S2,266,experiment,57,←,left,←,0.4341923000756651,True,36,1
SK-K-24K24S2,267,experiment,97,↓,down,↓,0.6352071000728756,True,36,0
SK-K-24K24S2,268,experiment,49,←,left,←,0.4505178998224437,True,36,1
SK-K-24K24S2,269,experiment,74,↓,down,↓,0.5260069000069052,True,36,0
SK-K-24K24S2,270,experiment,101,↓,down,↓,0.6150183000136167,True,36,1
SK-K-24K24S2,271,experiment,93,←,left,←,0.4798216000199318,True,36,1
SK-K-24K24S2,272,experiment,84,↑,up,↑,0.6721723999362439,True,36,1
SK-K-24K24S2,273,experiment,100,→,right,→,0.4750385999213904,True,36,1
SK-K-24K24S2,274,experiment,67,←,right,→,0.48182499990798533,False,36,1
SK-K-24K24S2,275,experiment,98,←,left,←,0.6852088999003172,True,36,1
SK-K-24K24S2,276,experiment,60,↑,up,↑,0.573692699894309,True,36,1
SK-K-24K24S2,277,experiment,53,→,right,→,0.7247240000870079,True,36,1
SK-K-24K24S2,278,experiment,105,↓,down,↓,0.5401641998905689,True,36,1
SK-K-24K24S2,279,experiment,56,↑,down,↓,0.6918041000608355,False,36,1
SK-K-24K24S2,280,experiment,51,↓,down,↓,0.5745614999905229,True,36,1
SK-K-24K24S2,281,experiment,75,↑,up,↑,0.5345961998682469,True,36,1
SK-K-24K24S2,282,experiment,62,→,right,→,0.5963807001244277,True,36,1
SK-K-24K24S2,283,experiment,54,→,left,←,0.6102973998058587,False,36,1
SK-K-24K24S2,284,experiment,91,←,left,←,0.8433503999840468,True,36,1
SK-K-24K24S2,285,experiment,99,→,left,←,0.6404243998695165,False,36,1
SK-K-24K24S2,286,experiment,88,←,left,←,0.5131031000055373,True,36,1
SK-K-24K24S2,287,experiment,80,→,left,←,0.5135476998984814,False,36,1
SK-K-24K24S2,288,experiment,85,→,left,←,0.4179316000081599,False,36,1
SK-K-24K24S2,289,experiment,63,←,left,←,0.6979387002065778,True,36,0
SK-K-24K24S2,290,experiment,65,↓,right,→,0.4804427002090961,False,36,1
SK-K-24K24S2,291,experiment,77,↓,down,↓,0.5629375998396426,True,36,1
SK-K-24K24S2,292,experiment,68,↓,down,↓,0.5654724999330938,True,36,1
SK-K-24K24S2,293,training,64,↑,up,↑,1.0326874000020325,True,36,0
SK-K-24K24S2,294,training,63,→,right,→,0.48215619986876845,True,36,1
SK-K-24K24S2,295,experiment,65,←,left,←,0.7206435999833047,True,36,1
SK-K-24K24S2,296,experiment,60,←,left,←,0.671745500061661,True,36,1
SK-K-24K24S2,297,experiment,51,←,left,←,0.4088370001409203,True,36,1
SK-K-24K24S2,298,experiment,89,→,right,→,0.42572770011611283,True,36,0
SK-K-24K24S2,299,experiment,88,↑,left,←,0.694161299848929,False,36,0
SK-K-24K24S2,300,experiment,82,→,right,→,0.5348113998770714,True,36,1
SK-K-24K24S2,301,experiment,67,→,right,→,0.49900890002027154,True,36,1
SK-K-24K24S2,302,experiment,95,↑,left,←,0.8233164998237044,False,36,1
SK-K-24K24S2,303,experiment,70,→,right,→,0.5823907000012696,True,36,1
SK-K-24K24S2,304,experiment,54,←,left,←,0.6294736000709236,True,36,1
SK-K-24K24S2,305,experiment,80,←,left,←,0.5850843000225723,True,36,1
SK-K-24K24S2,306,experiment,79,←,left,←,0.5909816999919713,True,36,1
SK-K-24K24S2,307,experiment,71,←,left,←,0.6393617000430822,True,36,1
SK-K-24K24S2,308,experiment,85,↓,down,↓,0.625050500035286,True,36,1
SK-K-24K24S2,309,experiment,75,↑,up,↑,0.6066630000714213,True,36,1
SK-K-24K24S2,310,experiment,55,↓,down,↓,0.6039403001777828,True,36,1
SK-K-24K24S2,311,experiment,57,↓,down,↓,0.5446167001500726,True,36,1
SK-K-24K24S2,312,experiment,62,→,right,→,0.5340793998911977,True,36,1
SK-K-24K24S2,313,experiment,86,↑,down,↓,0.5802566998172551,False,36,1
SK-K-24K24S2,314,experiment,83,→,right,→,0.5206951999571174,True,36,1
SK-K-24K24S2,315,experiment,81,↓,down,↓,0.6565769999288023,True,36,1
SK-K-24K24S2,316,experiment,50,↓,down,↓,0.4779431000351906,True,36,1
SK-K-24K24S2,317,experiment,61,↑,up,↑,0.6054408999625593,True,36,1
SK-K-24K24S2,318,experiment,107,↑,up,↑,0.49708979995921254,True,36,1
SK-K-24K24S2,319,experiment,48,↑,up,↑,0.5888167000375688,True,36,1
SK-K-24K24S2,320,experiment,59,↓,down,↓,0.6897597999777645,True,36,1
SK-K-24K24S2,321,experiment,106,↑,down,↓,0.9940266001503915,False,36,1
SK-K-24K24S2,322,experiment,78,↓,down,↓,0.6000208999030292,True,36,1
SK-K-24K24S2,323,experiment,91,↑,up,↑,0.5614341998007149,True,36,1
SK-K-24K24S2,324,experiment,72,↑,up,↑,0.4697238998487592,True,36,1
SK-K-24K24S2,325,experiment,98,←,right,→,0.5667596999555826,False,36,0
SK-K-24K24S2,326,experiment,102,↑,up,↑,0.7498837001621723,True,36,1
SK-K-24K24S2,327,experiment,105,←,right,→,0.5565392998978496,False,36,1
SK-K-24K24S2,328,experiment,99,↑,no_key,no_letter,-1.0,False,36,1
SK-K-24K24S2,329,experiment,69,↓,down,↓,0.5028138000052422,True,36,1
SK-K-24K24S2,330,experiment,73,←,left,←,0.5703394999727607,True,36,1
SK-K-24K24S2,331,experiment,103,→,right,→,0.5210468000732362,True,36,1
SK-K-24K24S2,332,experiment,97,→,right,→,0.3922619998920709,True,36,1
SK-K-24K24S2,333,experiment,52,↑,right,→,1.090264800004661,False,36,0
SK-K-24K24S2,334,experiment,63,↓,right,→,0.7370110999327153,False,36,1
SK-K-24K24S2,335,experiment,101,↓,down,↓,0.48999670008197427,True,36,1
SK-K-24K24S2,336,experiment,93,→,right,→,0.5910692000761628,True,36,1
SK-K-24K24S2,337,experiment,108,↑,down,↓,0.6509013997856528,False,36,1
SK-K-24K24S2,338,experiment,100,↑,down,↓,0.6313351998105645,False,36,1
SK-K-24K24S2,339,experiment,77,↓,down,↓,0.45088059990666807,True,36,1
SK-K-24K24S2,340,experiment,76,↑,down,↓,0.7439031000249088,False,36,0
SK-K-24K24S2,341,experiment,66,↑,down,↓,0.8280352000147104,False,36,1
SK-K-24K24S2,342,experiment,84,↑,up,↑,0.6706130001693964,True,36,1
SK-K-24K24S2,343,experiment,96,↓,down,↓,0.48393299989402294,True,36,1
SK-K-24K24S2,344,experiment,53,↑,up,↑,0.6142274998128414,True,36,1
SK-K-24K24S2,345,experiment,87,→,right,→,0.5209300999995321,True,36,1
SK-K-24K24S2,346,experiment,64,↓,left,←,0.9021182998549193,False,36,1
SK-K-24K24S2,347,experiment,58,↓,left,←,0.6141272999811918,False,36,1
SK-K-24K24S2,348,experiment,68,↓,right,→,0.502889099996537,False,36,1
SK-K-24K24S2,349,experiment,90,→,right,→,0.5244768001139164,True,36,1
SK-K-24K24S2,350,experiment,92,←,left,←,0.624573600012809,True,36,1
SK-K-24K24S2,351,experiment,104,↑,up,↑,0.6045145001262426,True,36,1
SK-K-24K24S2,352,experiment,56,↓,down,↓,0.6816102000884712,True,36,1
SK-K-24K24S2,353,experiment,49,←,left,←,0.6773665000218898,True,36,1
SK-K-24K24S2,354,experiment,94,↓,down,↓,0.8908768999390304,True,36,1
SK-K-24K24S2,355,experiment,74,→,right,→,0.52630849997513,True,36,1
SK-K-24K24S2,356,training,80,→,right,→,0.42569149984046817,True,36,0
SK-K-24K24S2,357,training,54,→,right,→,0.4250086999963969,True,36,0
SK-K-24K24S2,358,experiment,78,↑,up,↑,1.0949586001224816,True,36,0
SK-K-24K24S2,359,experiment,105,↓,down,↓,0.6957622000481933,True,36,1
SK-K-24K24S2,360,experiment,74,→,left,←,0.730799000011757,False,36,1
SK-K-24K24S2,361,experiment,62,↓,down,↓,0.6326245001982898,True,36,1
SK-K-24K24S2,362,experiment,98,↓,down,↓,0.6143801000434905,True,36,1
SK-K-24K24S2,363,experiment,49,↑,up,↑,0.6212244001217186,True,36,1
SK-K-24K24S2,364,experiment,65,→,right,→,0.502111200010404,True,36,1
SK-K-24K24S2,365,experiment,106,↑,right,→,0.966598300030455,False,36,1
SK-K-24K24S2,366,experiment,100,←,left,←,0.47061580000445247,True,36,1
SK-K-24K24S2,367,experiment,93,→,right,→,0.4091454001609236,True,36,0
SK-K-24K24S2,368,experiment,99,←,left,←,0.6026043000165373,True,36,0
SK-K-24K24S2,369,experiment,85,↓,down,↓,0.4855161998420954,True,36,1
SK-K-24K24S2,370,experiment,97,↑,up,↑,0.6097192000597715,True,36,1
SK-K-24K24S2,371,experiment,50,↑,up,↑,0.5366658000275493,True,36,1
SK-K-24K24S2,372,experiment,60,↑,left,←,0.6545656998641789,False,36,1
SK-K-24K24S2,373,experiment,68,←,left,←,0.5092057001311332,True,36,1
SK-K-24K24S2,374,experiment,96,→,right,→,0.5286443000659347,True,36,1
SK-K-24K24S2,375,experiment,79,←,left,←,0.5610064999200404,True,36,1
SK-K-24K24S2,376,experiment,58,↑,down,↓,0.5670805999543518,False,36,1
SK-K-24K24S2,377,experiment,108,↓,down,↓,0.596303200116381,True,36,1
SK-K-24K24S2,378,experiment,61,←,left,←,0.4796738000586629,True,36,1
SK-K-24K24S2,379,experiment,80,←,right,→,0.3423752998933196,False,36,1
SK-K-24K24S2,380,experiment,71,→,right,→,0.3925407000351697,True,36,0
SK-K-24K24S2,381,experiment,73,→,right,→,0.35057100001722574,True,36,0
SK-K-24K24S2,382,experiment,91,→,right,→,0.39128049998544157,True,36,0
SK-K-24K24S2,383,experiment,86,→,right,→,0.33401990006677806,True,36,0
SK-K-24K24S2,384,experiment,81,←,left,←,0.6970555998850614,True,36,0
SK-K-24K24S2,385,experiment,51,←,left,←,0.43383440002799034,True,36,1
SK-K-24K24S2,386,experiment,102,↑,up,↑,0.5357133999932557,True,36,0
SK-K-24K24S2,387,experiment,53,→,right,→,0.39132699999026954,True,36,1
SK-K-24K24S2,388,experiment,101,↑,up,↑,0.5025419001467526,True,36,0
SK-K-24K24S2,389,experiment,103,↓,right,→,0.663864100119099,False,36,1
SK-K-24K24S2,390,experiment,48,↓,no_key,no_letter,-1.0,False,36,1
SK-K-24K24S2,391,experiment,83,←,left,←,0.6979696000926197,True,36,1
SK-K-24K24S2,392,experiment,92,←,left,←,1.238977799890563,True,36,1
SK-K-24K24S2,393,experiment,69,←,left,←,0.5021205998491496,True,36,1
SK-K-24K24S2,394,experiment,56,→,right,→,0.41774840001016855,True,36,1
SK-K-24K24S2,395,experiment,82,↑,up,↑,0.47552410000935197,True,36,0
SK-K-24K24S2,396,experiment,52,↑,up,↑,0.6781488999258727,True,36,1
SK-K-24K24S2,397,experiment,84,←,left,←,0.4499305000063032,True,36,1
SK-K-24K24S2,398,experiment,64,→,right,→,0.6387063001748174,True,36,0
SK-K-24K24S2,399,experiment,57,↑,up,↑,0.48208809993229806,True,36,1
SK-K-24K24S2,400,experiment,77,←,right,→,0.6291763000190258,False,36,1
SK-K-24K24S2,401,experiment,67,↓,down,↓,0.42587470007129014,True,36,1
SK-K-24K24S2,402,experiment,88,←,left,←,0.550273299915716,True,36,0
SK-K-24K24S2,403,experiment,76,↑,down,↓,0.6464223000220954,False,36,1
SK-K-24K24S2,404,experiment,54,↑,no_key,no_letter,-1.0,False,36,1
SK-K-24K24S2,405,experiment,104,↑,down,↓,0.8328460999764502,False,36,1
SK-K-24K24S2,406,experiment,63,↓,down,↓,0.6582305999472737,True,36,1
SK-K-24K24S2,407,experiment,66,↑,up,↑,0.8176397001370788,True,36,1
SK-K-24K24S2,408,experiment,94,↓,down,↓,0.5854928998742253,True,36,1
SK-K-24K24S2,409,experiment,107,↓,down,↓,0.5819580999668688,True,36,1
SK-K-24K24S2,410,experiment,75,←,left,←,0.6774363999720663,True,36,1
SK-K-24K24S2,411,experiment,59,←,left,←,0.7182980000507087,True,36,1
SK-K-24K24S2,412,experiment,90,↑,up,↑,0.6994170001707971,True,36,1
SK-K-24K24S2,413,experiment,55,↓,down,↓,0.7168513000942767,True,36,1
SK-K-24K24S2,414,experiment,72,↓,down,↓,0.5837787999771535,True,36,1
SK-K-24K24S2,415,experiment,89,→,right,→,0.6505909999832511,True,36,1
SK-K-24K24S2,416,experiment,95,←,left,←,0.5204539999831468,True,36,1
SK-K-24K24S2,417,experiment,70,→,right,→,0.43393320008181036,True,36,1
SK-K-24K24S2,418,experiment,87,→,right,→,0.5813931999728084,True,36,0
SK-K-24K24S2,419,training,87,→,left,←,0.49491419992409647,False,36,0
SK-K-24K24S2,420,training,96,↓,down,↓,0.5623812000267208,True,36,1
SK-K-24K24S2,421,experiment,95,↓,down,↓,0.5243269000202417,True,36,1
SK-K-24K24S2,422,experiment,59,↓,down,↓,0.4340039000380784,True,36,1
SK-K-24K24S2,423,experiment,61,←,right,→,0.5490808000322431,False,36,0
SK-K-24K24S2,424,experiment,85,↓,no_key,no_letter,-1.0,False,36,1
SK-K-24K24S2,425,experiment,97,←,left,←,0.6831400999799371,True,36,1
SK-K-24K24S2,426,experiment,56,↑,down,↓,0.6448450000025332,False,36,1
SK-K-24K24S2,427,experiment,57,→,right,→,0.408464299980551,True,36,1
SK-K-24K24S2,428,experiment,84,↓,no_key,no_letter,-1.0,False,36,0
SK-K-24K24S2,429,experiment,94,←,left,←,0.5884300000034273,True,36,1
SK-K-24K24S2,430,experiment,64,←,left,←,0.38372080004774034,True,36,1
SK-K-24K24S2,431,experiment,68,↑,up,↑,0.6168443998321891,True,36,0
SK-K-24K24S2,432,experiment,71,←,left,←,0.4506068998016417,True,36,1
SK-K-24K24S2,433,experiment,83,↓,down,↓,0.6256792999338359,True,36,0
SK-K-24K24S2,434,experiment,91,→,right,→,0.5857526001054794,True,36,1
SK-K-24K24S2,435,experiment,55,→,right,→,0.4010672001168132,True,36,1
SK-K-24K24S2,436,experiment,88,←,left,←,0.4009176997933537,True,36,0
SK-K-24K24S2,437,experiment,51,↓,no_key,no_letter,-1.0,False,36,0
SK-K-24K24S2,438,experiment,76,→,right,→,0.3847235001157969,True,36,1
SK-K-24K24S2,439,experiment,62,↑,up,↑,0.6751986001618207,True,36,0
SK-K-24K24S2,440,experiment,98,→,right,→,0.6153000998310745,True,36,1
SK-K-24K24S2,441,experiment,78,→,right,→,0.6123777001630515,True,36,1
SK-K-24K24S2,442,experiment,54,←,left,←,0.6332496998365968,True,36,1
SK-K-24K24S2,443,experiment,90,←,left,←,0.5615950000938028,True,36,1
SK-K-24K24S2,444,experiment,80,↑,up,↑,0.7204791000112891,True,36,1
SK-K-24K24S2,445,experiment,93,→,left,←,0.6605309001170099,False,36,1
SK-K-24K24S2,446,experiment,66,↓,down,↓,0.5719082998111844,True,36,1
SK-K-24K24S2,447,experiment,102,→,no_key,no_letter,-1.0,False,36,1
SK-K-24K24S2,448,experiment,48,↑,no_key,no_letter,-1.0,False,36,1
SK-K-24K24S2,449,experiment,96,←,left,←,0.7565788000356406,True,36,1
SK-K-24K24S2,450,experiment,79,→,right,→,0.6115625000093132,True,36,1
SK-K-24K24S2,451,experiment,108,↓,down,↓,0.582678799983114,True,36,1
SK-K-24K24S2,452,experiment,81,↑,down,↓,0.5883052998688072,False,36,1
SK-K-24K24S2,453,experiment,58,↑,up,↑,0.6493558001238853,True,36,1
SK-K-24K24S2,454,experiment,67,↑,up,↑,0.576634299941361,True,36,1
SK-K-24K24S2,455,experiment,107,←,left,←,0.5496608000248671,True,36,1
SK-K-24K24S2,456,experiment,106,←,left,←,0.620024099946022,True,36,1
SK-K-24K24S2,457,experiment,87,↓,down,↓,0.8221595999784768,True,36,1
SK-K-24K24S2,458,experiment,105,→,right,→,0.5937365998979658,True,36,1
SK-K-24K24S2,459,experiment,65,→,right,→,0.6121390999760479,True,36,1
SK-K-24K24S2,460,experiment,63,←,left,←,0.5347190001048148,True,36,1
SK-K-24K24S2,461,experiment,53,↓,up,↑,0.7032935000024736,False,36,1
SK-K-24K24S2,462,experiment,99,↑,up,↑,0.7221474000252783,True,36,1
SK-K-24K24S2,463,experiment,86,↑,up,↑,0.5599698000587523,True,36,1
SK-K-24K24S2,464,experiment,50,↑,up,↑,0.48141440004110336,True,36,1
SK-K-24K24S2,465,experiment,72,↓,down,↓,0.6772757000289857,True,36,1
SK-K-24K24S2,466,experiment,82,←,right,→,0.7907471999060363,False,36,1
SK-K-24K24S2,467,experiment,104,↓,down,↓,0.6040248998906463,True,36,1
SK-K-24K24S2,468,experiment,103,←,left,←,0.49724260019138455,True,36,1
SK-K-24K24S2,469,experiment,69,↑,down,↓,0.6537977000698447,False,36,1
SK-K-24K24S2,470,experiment,101,↓,down,↓,0.44321359996683896,True,36,1
SK-K-24K24S2,471,experiment,92,→,right,→,0.43384049995802343,True,36,0
SK-K-24K24S2,472,experiment,49,↓,down,↓,0.6062404001131654,True,36,0
SK-K-24K24S2,473,experiment,73,↓,down,↓,0.6292091999202967,True,36,1
SK-K-24K24S2,474,experiment,89,←,left,←,0.49430799996480346,True,36,1
SK-K-24K24S2,475,experiment,100,→,right,→,0.3925030000973493,True,36,1
SK-K-24K24S2,476,experiment,70,→,right,→,0.36744840000756085,True,36,0
SK-K-24K24S2,477,experiment,77,←,left,←,0.576042199973017,True,36,0
SK-K-24K24S2,478,experiment,60,↑,right,→,0.6606610000599176,False,36,1
SK-K-24K24S2,479,experiment,52,↓,no_key,no_letter,-1.0,False,36,1
SK-K-24K24S2,480,experiment,75,←,left,←,0.584576099878177,True,36,1
SK-K-24K24S2,481,experiment,74,←,left,←,0.48053199984133244,True,36,1
SK-K-24K24S2,482,training,87,←,left,←,0.5855592000298202,True,36,0
SK-K-24K24S2,483,training,61,↓,down,↓,0.6377960999961942,True,36,1
SK-K-24K24S2,484,experiment,86,↑,up,↑,0.4870323999784887,True,36,1
SK-K-24K24S2,485,experiment,94,→,left,←,0.5704691999126226,False,36,1
SK-K-24K24S2,486,experiment,88,→,right,→,0.6384145000483841,True,36,1
SK-K-24K24S2,487,experiment,104,↓,down,↓,0.5615570000372827,True,36,1
SK-K-24K24S2,488,experiment,90,↓,down,↓,0.4509712001308799,True,36,1
SK-K-24K24S2,489,experiment,78,↓,down,↓,0.4093080998864025,True,36,0
SK-K-24K24S2,490,experiment,67,↓,down,↓,0.418343500001356,True,36,0
SK-K-24K24S2,491,experiment,108,↑,up,↑,0.5155135001987219,True,36,0
SK-K-24K24S2,492,experiment,107,←,left,←,0.4674728000536561,True,36,1
SK-K-24K24S2,493,experiment,55,←,left,←,0.4426217000000179,True,36,0
SK-K-24K24S2,494,experiment,59,↑,down,↓,0.6075196000747383,False,36,0
SK-K-24K24S2,495,experiment,100,→,right,→,0.4173175999894738,True,36,1
SK-K-24K24S2,496,experiment,96,→,right,→,0.3750358000397682,True,36,0
SK-K-24K24S2,497,experiment,76,←,left,←,0.4341090000234544,True,36,0
SK-K-24K24S2,498,experiment,48,↓,down,↓,0.4264110999647528,True,36,0
SK-K-24K24S2,499,experiment,64,→,right,→,0.4423058999236673,True,36,0
SK-K-24K24S2,500,experiment,93,↓,no_key,no_letter,-1.0,False,36,0
SK-K-24K24S2,501,experiment,79,→,right,→,0.5114769998472184,True,36,1
SK-K-24K24S2,502,experiment,106,↑,up,↑,0.5516844999510795,True,36,1
SK-K-24K24S2,503,experiment,61,←,left,←,0.5328939999453723,True,36,1
SK-K-24K24S2,504,experiment,101,←,left,←,0.4706991999410093,True,36,1
SK-K-24K24S2,505,experiment,91,←,left,←,0.5720303999260068,True,36,0
SK-K-24K24S2,506,experiment,65,→,right,→,0.5590669000521302,True,36,1
SK-K-24K24S2,507,experiment,63,↓,down,↓,0.5954573999624699,True,36,1
SK-K-24K24S2,508,experiment,85,↑,up,↑,0.663155399961397,True,36,1
SK-K-24K24S2,509,experiment,53,↑,up,↑,0.5865614002104849,True,36,1
SK-K-24K24S2,510,experiment,87,↓,down,↓,0.7260118999984115,True,36,1
SK-K-24K24S2,511,experiment,99,→,left,←,0.6637178999371827,False,36,1
SK-K-24K24S2,512,experiment,56,→,right,→,0.6023132000118494,True,36,1
SK-K-24K24S2,513,experiment,71,←,right,→,0.5383788000326604,False,36,1
SK-K-24K24S2,514,experiment,74,→,right,→,0.4173437000717968,True,36,1
SK-K-24K24S2,515,experiment,68,←,left,←,0.5397370001301169,True,36,0
SK-K-24K24S2,516,experiment,60,→,left,←,0.6100920999888331,False,36,1
SK-K-24K24S2,517,experiment,75,↓,no_key,no_letter,-1.0,False,36,1
SK-K-24K24S2,518,experiment,103,←,left,←,0.5187328001484275,True,36,1
SK-K-24K24S2,519,experiment,52,↑,up,↑,0.6006461000069976,True,36,1
SK-K-24K24S2,520,experiment,57,↑,up,↑,0.5333397998474538,True,36,1
SK-K-24K24S2,521,experiment,97,↑,down,↓,0.8155908000189811,False,36,1
SK-K-24K24S2,522,experiment,66,→,right,→,0.42568719992414117,True,36,1
SK-K-24K24S2,523,experiment,92,↓,down,↓,0.5599869999568909,True,36,0
SK-K-24K24S2,524,experiment,105,↓,down,↓,0.7265931000001729,True,36,1
SK-K-24K24S2,525,experiment,98,←,left,←,0.44219519989565015,True,36,1
SK-K-24K24S2,526,experiment,62,→,left,←,0.961462700041011,False,36,0
SK-K-24K24S2,527,experiment,84,←,left,←,0.47947519994340837,True,36,1
SK-K-24K24S2,528,experiment,83,↑,up,↑,0.48795640002936125,True,36,1
SK-K-24K24S2,529,experiment,81,↓,down,↓,0.47335270000621676,True,36,1
SK-K-24K24S2,530,experiment,102,↑,up,↑,0.763481899863109,True,36,1
SK-K-24K24S2,531,experiment,80,←,left,←,0.6015356001444161,True,36,1
SK-K-24K24S2,532,experiment,73,→,right,→,0.608780600130558,True,36,1
SK-K-24K24S2,533,experiment,58,↓,down,↓,0.6128571000881493,True,36,1
SK-K-24K24S2,534,experiment,72,↑,up,↑,0.4919472001492977,True,36,1
SK-K-24K24S2,535,experiment,77,←,left,←,0.5505395999643952,True,36,1
SK-K-24K24S2,536,experiment,51,←,left,←,0.5351300998590887,True,36,1
SK-K-24K24S2,537,experiment,70,←,left,←,0.4342363001778722,True,36,1
SK-K-24K24S2,538,experiment,50,↓,down,↓,0.6155459000729024,True,36,0
SK-K-24K24S2,539,experiment,54,↑,up,↑,0.45082179992459714,True,36,1
SK-K-24K24S2,540,experiment,82,↓,down,↓,0.6869500998873264,True,36,0
SK-K-24K24S2,541,experiment,95,↓,left,←,0.37557849986478686,False,36,1
SK-K-24K24S2,542,experiment,89,↓,down,↓,0.4504724000580609,True,36,0
SK-K-24K24S2,543,experiment,49,→,right,→,0.7072505000978708,True,36,0
SK-K-24K24S2,544,experiment,69,←,right,→,0.6798451999202371,False,36,1
SK-K-24K24S2,545,training,103,←,left,←,0.4727676999755204,True,36,0
SK-K-24K24S2,546,training,72,←,left,←,0.47758159996010363,True,36,0
SK-K-24K24S2,547,experiment,98,↓,down,↓,0.6167244999669492,True,36,1
SK-K-24K24S2,548,experiment,78,↑,right,→,0.29203040013089776,False,36,1
SK-K-24K24S2,549,experiment,80,↓,down,↓,0.48705320013687015,True,36,0
SK-K-24K24S2,550,experiment,87,↓,down,↓,0.5982523998245597,True,36,1
SK-K-24K24S2,551,experiment,69,→,right,→,0.48724030004814267,True,36,1
SK-K-24K24S2,552,experiment,61,←,left,←,0.5107978000305593,True,36,1
SK-K-24K24S2,553,experiment,105,↓,down,↓,0.5031103999353945,True,36,1
SK-K-24K24S2,554,experiment,48,→,right,→,0.5867972001433372,True,36,1
SK-K-24K24S2,555,experiment,72,↑,down,↓,0.5397624999750406,False,36,1
SK-K-24K24S2,556,experiment,51,↓,down,↓,0.6763889999128878,True,36,1
SK-K-24K24S2,557,experiment,65,↑,up,↑,0.7152714999392629,True,36,1
SK-K-24K24S2,558,experiment,102,→,right,→,0.3840020999778062,True,36,1
SK-K-24K24S2,559,experiment,54,←,left,←,0.5865583000704646,True,36,0
SK-K-24K24S2,560,experiment,108,←,left,←,0.45103560015559196,True,36,1
SK-K-24K24S2,561,experiment,68,→,right,→,0.8537834999151528,True,36,0
SK-K-24K24S2,562,experiment,58,→,right,→,0.7840970000252128,True,36,1
SK-K-24K24S2,563,experiment,82,→,right,→,0.48552910005673766,True,36,1
SK-K-24K24S2,564,experiment,100,↑,up,↑,0.495779599994421,True,36,1
SK-K-24K24S2,565,experiment,55,↓,down,↓,0.48939560004509985,True,36,1
SK-K-24K24S2,566,experiment,67,↓,down,↓,0.44960769987665117,True,36,1
SK-K-24K24S2,567,experiment,74,←,left,←,0.491767399944365,True,36,0
SK-K-24K24S2,568,experiment,50,↑,up,↑,0.759426600066945,True,36,1
SK-K-24K24S2,569,experiment,91,↑,left,←,0.570308799855411,False,36,1
SK-K-24K24S2,570,experiment,88,←,left,←,0.5739114000461996,True,36,1
SK-K-24K24S2,571,experiment,64,↓,up,↑,0.7133126999251544,False,36,1
SK-K-24K24S2,572,experiment,90,↓,down,↓,0.574330999981612,True,36,1
SK-K-24K24S2,573,experiment,104,↑,up,↑,0.4843351000454277,True,36,1
SK-K-24K24S2,574,experiment,77,↓,no_key,no_letter,-1.0,False,36,1
SK-K-24K24S2,575,experiment,56,↑,no_key,no_letter,-1.0,False,36,1
SK-K-24K24S2,576,experiment,103,←,left,←,0.4764415000099689,True,36,1
SK-K-24K24S2,577,experiment,86,→,right,→,0.44257630011998117,True,36,1
SK-K-24K24S2,578,experiment,79,↑,up,↑,0.5113224999513477,True,36,0
SK-K-24K24S2,579,experiment,93,←,right,→,0.5557382002007216,False,36,1
SK-K-24K24S2,580,experiment,84,↑,up,↑,0.43362429994158447,True,36,1
SK-K-24K24S2,581,experiment,75,↑,up,↑,0.45066690002568066,True,36,0
SK-K-24K24S2,582,experiment,52,←,left,←,0.4983185001183301,True,36,0
SK-K-24K24S2,583,experiment,97,←,left,←,0.44257830013521016,True,36,1
SK-K-24K24S2,584,experiment,53,→,left,←,0.7222783998586237,False,36,0
SK-K-24K24S2,585,experiment,71,↓,down,↓,0.43469160003587604,True,36,1
SK-K-24K24S2,586,experiment,95,↑,up,↑,0.49137690011411905,True,36,0
SK-K-24K24S2,587,experiment,60,→,left,←,0.515192300081253,False,36,1
SK-K-24K24S2,588,experiment,66,↓,down,↓,0.41688680020160973,True,36,1
SK-K-24K24S2,589,experiment,101,↓,down,↓,0.45121610001660883,True,36,0
SK-K-24K24S2,590,experiment,94,↑,down,↓,1.1155528998933733,False,36,0
SK-K-24K24S2,591,experiment,99,↑,up,↑,0.5894685001112521,True,36,1
SK-K-24K24S2,592,experiment,49,↓,down,↓,0.541091299848631,True,36,1
SK-K-24K24S2,593,experiment,81,↓,left,←,0.48434729990549386,False,36,1
SK-K-24K24S2,594,experiment,63,↓,down,↓,0.5399491998832673,True,36,1
SK-K-24K24S2,595,experiment,83,→,right,→,0.39247409999370575,True,36,1
SK-K-24K24S2,596,experiment,89,↓,down,↓,0.796388499904424,True,36,0
SK-K-24K24S2,597,experiment,70,↓,down,↓,0.5889924999792129,True,36,1
SK-K-24K24S2,598,experiment,62,↓,down,↓,0.48096069996245205,True,36,1
SK-K-24K24S2,599,experiment,76,←,right,→,0.7233301000669599,False,36,1
SK-K-24K24S2,600,experiment,107,←,no_key,no_letter,-1.0,False,36,1
SK-K-24K24S2,601,experiment,106,↓,down,↓,0.6399693000130355,True,36,1
SK-K-24K24S2,602,experiment,59,↑,up,↑,0.6342307000886649,True,36,1
SK-K-24K24S2,603,experiment,85,↓,down,↓,0.596351700136438,True,36,1
SK-K-24K24S2,604,experiment,73,↓,down,↓,0.442409300012514,True,36,1
SK-K-24K24S2,605,experiment,92,→,left,←,0.7550346001517028,False,36,0
SK-K-24K24S2,606,experiment,96,↑,down,↓,0.5404234000016004,False,36,1
SK-K-24K24S2,607,experiment,57,→,right,→,0.4255276001058519,True,36,1
SK-K-24K24S2,608,training,70,←,left,←,0.6453908998519182,True,36,0
SK-K-24K24S2,609,training,93,↓,down,↓,0.540735200047493,True,36,1
SK-K-24K24S2,610,experiment,67,→,left,←,0.5283394001889974,False,36,1
SK-K-24K24S2,611,experiment,66,←,no_key,no_letter,-1.0,False,36,1
SK-K-24K24S2,612,experiment,52,→,right,→,0.6367629000451416,True,36,1
SK-K-24K24S2,613,experiment,91,↑,up,↑,0.4693273000884801,True,36,1
SK-K-24K24S2,614,experiment,84,↑,right,→,0.741338700056076,False,36,0
SK-K-24K24S2,615,experiment,101,↑,left,←,0.47775110020302236,False,36,1
SK-K-24K24S2,616,experiment,102,→,down,↓,0.5926655000075698,False,36,1
SK-K-24K24S2,617,experiment,93,←,left,←,0.3841969999484718,True,36,1
SK-K-24K24S2,618,experiment,94,↑,right,→,0.4350099000148475,False,36,0
SK-K-24K24S2,619,experiment,50,↑,up,↑,0.5993987999390811,True,36,0
SK-K-24K24S2,620,experiment,103,←,left,←,0.44179690000601113,True,36,1
SK-K-24K24S2,621,experiment,65,↓,down,↓,0.4774813998956233,True,36,0
SK-K-24K24S2,622,experiment,53,↑,no_key,no_letter,-1.0,False,36,1
SK-K-24K24S2,623,experiment,89,→,right,→,0.43419159995391965,True,36,1
SK-K-24K24S2,624,experiment,86,→,right,→,0.37505929986946285,True,36,0
SK-K-24K24S2,625,experiment,87,→,right,→,0.3426447999663651,True,36,0
SK-K-24K24S2,626,experiment,96,↑,up,↑,0.4509980999864638,True,36,0
SK-K-24K24S2,627,experiment,55,→,right,→,0.4091121000237763,True,36,0
SK-K-24K24S2,628,experiment,60,↓,down,↓,0.4174699999857694,True,36,0
SK-K-24K24S2,629,experiment,106,←,left,←,0.7549283998087049,True,36,0
SK-K-24K24S2,630,experiment,54,←,left,←,0.5546848999802023,True,36,1
SK-K-24K24S2,631,experiment,98,←,left,←,0.6196455999743193,True,36,1
SK-K-24K24S2,632,experiment,72,↓,left,←,0.7707789000123739,False,36,1
SK-K-24K24S2,633,experiment,82,↓,no_key,no_letter,-1.0,False,36,1
SK-K-24K24S2,634,experiment,104,←,right,→,0.5186441000550985,False,36,1
SK-K-24K24S2,635,experiment,92,↓,down,↓,0.6509557999670506,True,36,1
SK-K-24K24S2,636,experiment,61,→,right,→,0.628416599938646,True,36,1
SK-K-24K24S2,637,experiment,56,→,right,→,0.4507680998649448,True,36,1
SK-K-24K24S2,638,experiment,107,←,left,←,0.5944108001422137,True,36,0
SK-K-24K24S2,639,experiment,68,↑,left,←,0.4997066999785602,False,36,1
SK-K-24K24S2,640,experiment,62,↑,up,↑,0.4830539000686258,True,36,1
SK-K-24K24S2,641,experiment,80,↑,right,→,0.4509068999905139,False,36,1
SK-K-24K24S2,642,experiment,97,↑,up,↑,0.4741038999054581,True,36,0
SK-K-24K24S2,643,experiment,95,←,left,←,0.3425506998319179,True,36,1
SK-K-24K24S2,644,experiment,63,←,left,←,0.6274900001008064,True,36,0
SK-K-24K24S2,645,experiment,79,↓,left,←,0.8397753001190722,False,36,1
SK-K-24K24S2,646,experiment,51,↓,down,↓,0.5409824999514967,True,36,1
SK-K-24K24S2,647,experiment,71,↓,down,↓,0.47965780016966164,True,36,1
SK-K-24K24S2,648,experiment,58,↑,down,↓,0.520497600082308,False,36,1
SK-K-24K24S2,649,experiment,48,↓,down,↓,0.4258669000118971,True,36,1
SK-K-24K24S2,650,experiment,76,→,right,→,0.48847500002011657,True,36,0
SK-K-24K24S2,651,experiment,59,←,left,←,0.4970051997806877,True,36,1
SK-K-24K24S2,652,experiment,105,←,right,→,0.36738230008631945,False,36,1
SK-K-24K24S2,653,experiment,88,↓,down,↓,0.4340754000004381,True,36,0
SK-K-24K24S2,654,experiment,73,→,left,←,0.5547604998573661,False,36,0
SK-K-24K24S2,655,experiment,70,→,right,→,0.4088190000038594,True,36,1
SK-K-24K24S2,656,experiment,75,←,right,→,0.35057559981942177,False,36,0
SK-K-24K24S2,657,experiment,74,→,right,→,0.392329900059849,True,36,0
SK-K-24K24S2,658,experiment,90,→,no_key,no_letter,-1.0,False,36,0
SK-K-24K24S2,659,experiment,99,↑,up,↑,0.48587299999780953,True,36,1
SK-K-24K24S2,660,experiment,64,→,left,←,0.49269760004244745,False,36,1
SK-K-24K24S2,661,experiment,81,←,left,←,0.4423930000048131,True,36,1
SK-K-24K24S2,662,experiment,57,←,left,←,0.6640067000407726,True,36,0
SK-K-24K24S2,663,experiment,49,↑,down,↓,0.8049291998613626,False,36,1
SK-K-24K24S2,664,experiment,78,↓,down,↓,0.49048759997822344,True,36,1
SK-K-24K24S2,665,experiment,100,↑,up,↑,0.4696696999017149,True,36,1
SK-K-24K24S2,666,experiment,108,→,no_key,no_letter,-1.0,False,36,0
SK-K-24K24S2,667,experiment,83,↑,up,↑,0.5070132000837475,True,36,1
SK-K-24K24S2,668,experiment,77,→,left,←,0.6366935998667032,False,36,1
SK-K-24K24S2,669,experiment,69,↑,up,↑,0.6040644999593496,True,36,1
SK-K-24K24S2,670,experiment,85,↑,up,↑,0.5357516999356449,True,36,1
SK-K-24K24S2,671,training,100,→,right,→,0.3755850000306964,True,36,0
SK-K-24K24S2,672,training,55,↓,down,↓,0.4002539000939578,True,36,0
SK-K-24K24S2,673,experiment,70,←,right,→,0.5904021998867393,False,36,0
SK-K-24K24S2,674,experiment,58,→,left,←,0.3924348000437021,False,36,1
SK-K-24K24S2,675,experiment,48,←,left,←,0.6187453998718411,True,36,0
SK-K-24K24S2,676,experiment,80,←,left,←,0.6550966999493539,True,36,1
SK-K-24K24S2,677,experiment,71,←,left,←,0.6689172000624239,True,36,1
SK-K-24K24S2,678,experiment,84,↓,left,←,1.0779826000798494,False,36,1
SK-K-24K24S2,679,experiment,83,↑,down,↓,1.1029149000532925,False,36,1
SK-K-24K24S2,680,experiment,103,↓,down,↓,0.6561636000405997,True,36,1
SK-K-24K24S2,681,experiment,88,←,left,←,0.6242808001115918,True,36,1
SK-K-24K24S2,682,experiment,78,↓,down,↓,0.5170140000991523,True,36,1
SK-K-24K24S2,683,experiment,51,↑,up,↑,0.6953761000186205,True,36,1
SK-K-24K24S2,684,experiment,99,→,right,→,0.7301250000018626,True,36,1
SK-K-24K24S2,685,experiment,60,←,left,←,0.47312380000948906,True,36,1
SK-K-24K24S2,686,experiment,104,→,right,→,0.6023899000138044,True,36,1
SK-K-24K24S2,687,experiment,86,←,left,←,0.4343453000765294,True,36,1
SK-K-24K24S2,688,experiment,93,→,right,→,0.44396020006388426,True,36,0
SK-K-24K24S2,689,experiment,67,↓,left,←,0.6680694001261145,False,36,0
SK-K-24K24S2,690,experiment,76,↑,right,→,0.5444318000227213,False,36,1
SK-K-24K24S2,691,experiment,87,↑,left,←,0.46954420022666454,False,36,1
SK-K-24K24S2,692,experiment,73,→,right,→,0.3838670998811722,True,36,0
SK-K-24K24S2,693,experiment,52,→,right,→,0.48839409998618066,True,36,0
SK-K-24K24S2,694,experiment,101,→,right,→,0.4093845000024885,True,36,1
SK-K-24K24S2,695,experiment,65,→,left,←,0.5238677999004722,False,36,0
SK-K-24K24S2,696,experiment,89,↑,up,↑,0.5449266999494284,True,36,1
SK-K-24K24S2,697,experiment,49,↑,up,↑,0.7785952999256551,True,36,1
SK-K-24K24S2,698,experiment,62,→,right,→,0.3506950999144465,True,36,1
SK-K-24K24S2,699,experiment,105,←,left,←,0.40888580004684627,True,36,0
SK-K-24K24S2,700,experiment,98,←,right,→,0.5319093000143766,False,36,0
SK-K-24K24S2,701,experiment,106,←,left,←,0.35089139989577234,True,36,1
SK-K-24K24S2,702,experiment,96,←,left,←,0.34235340007580817,True,36,0
SK-K-24K24S2,703,experiment,79,↑,up,↑,0.47603890020400286,True,36,0
SK-K-24K24S2,704,experiment,85,↓,no_key,no_letter,-1.0,False,36,1
SK-K-24K24S2,705,experiment,54,↑,up,↑,0.5304518998600543,True,36,1
SK-K-24K24S2,706,experiment,95,↓,right,→,0.5574058999773115,False,36,1
SK-K-24K24S2,707,experiment,61,↑,left,←,0.4431407998781651,False,36,1
SK-K-24K24S2,708,experiment,97,→,down,↓,0.5592438001185656,False,36,0
SK-K-24K24S2,709,experiment,55,↑,right,→,0.40086390008218586,False,36,1
SK-K-24K24S2,710,experiment,50,←,left,←,0.4933065001387149,True,36,0
SK-K-24K24S2,711,experiment,59,→,left,←,0.477995399851352,False,36,1
SK-K-24K24S2,712,experiment,53,→,right,→,0.42506009992212057,True,36,1
SK-K-24K24S2,713,experiment,63,→,left,←,0.7061799999792129,False,36,0
SK-K-24K24S2,714,experiment,66,←,left,←,0.4507015000563115,True,36,1
SK-K-24K24S2,715,experiment,82,↑,up,↑,0.5135788999032229,True,36,0
SK-K-24K24S2,716,experiment,68,↓,right,→,0.4509930999483913,False,36,1
SK-K-24K24S2,717,experiment,90,→,right,→,0.442568700062111,True,36,0
SK-K-24K24S2,718,experiment,57,↑,up,↑,0.488136800006032,True,36,0
SK-K-24K24S2,719,experiment,102,↓,right,→,0.5062337999697775,False,36,1
SK-K-24K24S2,720,experiment,91,→,right,→,0.50322650000453,True,36,1
SK-K-24K24S2,721,experiment,92,→,right,→,0.6443256000056863,True,36,1
SK-K-24K24S2,722,experiment,94,↓,down,↓,0.666990099940449,True,36,1
SK-K-24K24S2,723,experiment,108,→,right,→,0.5879786000587046,True,36,1
SK-K-24K24S2,724,experiment,81,←,left,←,0.4017608999274671,True,36,1
SK-K-24K24S2,725,experiment,75,→,right,→,0.4795876999851316,True,36,0
SK-K-24K24S2,726,experiment,64,↓,down,↓,0.6222729000728577,True,36,1
SK-K-24K24S2,727,experiment,56,↓,no_key,no_letter,-1.0,False,36,1
SK-K-24K24S2,728,experiment,72,→,right,→,0.547204100061208,True,36,1
SK-K-24K24S2,729,experiment,107,→,right,→,0.4343117999378592,True,36,1
SK-K-24K24S2,730,experiment,100,←,right,→,0.4009623001329601,False,36,0
SK-K-24K24S2,731,experiment,77,→,right,→,0.5636752999853343,True,36,0
SK-K-24K24S2,732,experiment,69,↑,up,↑,0.6701164999976754,True,36,1
SK-K-24K24S2,733,experiment,74,→,right,→,0.5861309999600053,True,36,1
SK-K-24K24S2,734,training,68,←,no_key,no_letter,-1.0,False,36,0
SK-K-24K24S2,735,training,73,↑,right,→,0.7234610000159591,False,36,1
SK-K-24K24S2,736,experiment,95,←,left,←,0.5822844998911023,True,36,1
SK-K-24K24S2,737,experiment,104,↓,down,↓,0.5879349000751972,True,36,1
SK-K-24K24S2,738,experiment,75,↑,up,↑,0.7149648999329656,True,36,1
SK-K-24K24S2,739,experiment,108,←,left,←,0.5700111000332981,True,36,1
SK-K-24K24S2,740,experiment,76,↑,up,↑,0.6816868998575956,True,36,1
SK-K-24K24S2,741,experiment,105,→,right,→,0.40069820010103285,True,36,1
SK-K-24K24S2,742,experiment,89,↑,up,↑,0.5167716001160443,True,36,0
SK-K-24K24S2,743,experiment,70,↑,up,↑,0.5287826000712812,True,36,1
SK-K-24K24S2,744,experiment,84,→,right,→,0.47151939989998937,True,36,1
SK-K-24K24S2,745,experiment,93,←,left,←,0.4423676999285817,True,36,0
SK-K-24K24S2,746,experiment,99,↓,right,→,0.5616823001764715,False,36,0
SK-K-24K24S2,747,experiment,53,←,left,←,0.40889309998601675,True,36,1
SK-K-24K24S2,748,experiment,77,↓,down,↓,0.6229150998406112,True,36,0
SK-K-24K24S2,749,experiment,90,→,right,→,0.3683864998165518,True,36,1
SK-K-24K24S2,750,experiment,91,↑,up,↑,0.5059168001171201,True,36,0
SK-K-24K24S2,751,experiment,52,↓,right,→,0.8918278000783175,False,36,1
SK-K-24K24S2,752,experiment,55,↑,down,↓,0.6454765999224037,False,36,1
SK-K-24K24S2,753,experiment,103,↑,down,↓,0.5932090999558568,False,36,1
SK-K-24K24S2,754,experiment,59,↓,down,↓,0.5736430999822915,True,36,1
SK-K-24K24S2,755,experiment,102,→,right,→,0.4424493999686092,True,36,1
SK-K-24K24S2,756,experiment,92,↓,right,→,0.34261869988404214,False,36,0
SK-K-24K24S2,757,experiment,80,←,right,→,0.5545239001512527,False,36,0
SK-K-24K24S2,758,experiment,85,→,right,→,0.4879032000899315,True,36,1
SK-K-24K24S2,759,experiment,71,↓,down,↓,0.5562999998219311,True,36,1
SK-K-24K24S2,760,experiment,61,→,right,→,0.48150260001420975,True,36,1
SK-K-24K24S2,761,experiment,87,←,left,←,0.6164672998711467,True,36,1
SK-K-24K24S2,762,experiment,79,↑,up,↑,0.7569941999390721,True,36,1
SK-K-24K24S2,763,experiment,51,↓,left,←,0.59758699988015,False,36,1
SK-K-24K24S2,764,experiment,50,→,right,→,0.4690866998862475,True,36,1
SK-K-24K24S2,765,experiment,49,→,right,→,0.584864699980244,True,36,0
SK-K-24K24S2,766,experiment,64,→,no_key,no_letter,-1.0,False,36,1
SK-K-24K24S2,767,experiment,65,→,right,→,0.5992376999929547,True,36,1
SK-K-24K24S2,768,experiment,97,←,left,←,0.6307653998956084,True,36,1
SK-K-24K24S2,769,experiment,69,↑,up,↑,0.6781448998954147,True,36,1
SK-K-24K24S2,770,experiment,96,←,left,←,0.47542389994487166,True,36,1
SK-K-24K24S2,771,experiment,66,←,left,←,0.6018234000075608,True,36,1
SK-K-24K24S2,772,experiment,74,↓,down,↓,0.5926685000304133,True,36,1
SK-K-24K24S2,773,experiment,48,↓,down,↓,0.49689830001443624,True,36,1
SK-K-24K24S2,774,experiment,62,↓,down,↓,0.5518792001530528,True,36,1
SK-K-24K24S2,775,experiment,86,↓,down,↓,0.524893700145185,True,36,1
SK-K-24K24S2,776,experiment,94,←,right,→,0.4506987000349909,False,36,1
SK-K-24K24S2,777,experiment,81,↓,no_key,no_letter,-1.0,False,36,0
SK-K-24K24S2,778,experiment,72,←,left,←,0.6677494999021292,True,36,1
SK-K-24K24S2,779,experiment,83,←,right,→,0.4341065001208335,False,36,1
SK-K-24K24S2,780,experiment,101,↑,down,↓,0.617363200057298,False,36,0
SK-K-24K24S2,781,experiment,67,↑,up,↑,0.6660892001818866,True,36,1
SK-K-24K24S2,782,experiment,63,↓,down,↓,0.6821401999332011,True,36,1
SK-K-24K24S2,783,experiment,82,↑,up,↑,0.6036020999308676,True,36,1
SK-K-24K24S2,784,experiment,60,←,right,→,0.4952976000495255,False,36,1
SK-K-24K24S2,785,experiment,57,↓,down,↓,0.5197583001572639,True,36,1
SK-K-24K24S2,786,experiment,107,↓,down,↓,0.3601507998537272,True,36,1
SK-K-24K24S2,787,experiment,73,→,no_key,no_letter,-1.0,False,36,0
SK-K-24K24S2,788,experiment,68,→,right,→,0.5296678999438882,True,36,1
SK-K-24K24S2,789,experiment,56,→,right,→,0.358784900046885,True,36,1
SK-K-24K24S2,790,experiment,78,←,left,←,0.5208680001087487,True,36,0
SK-K-24K24S2,791,experiment,88,→,right,→,0.5181682000402361,True,36,1
SK-K-24K24S2,792,experiment,98,→,right,→,0.3340088000986725,True,36,1
SK-K-24K24S2,793,experiment,106,↑,right,→,0.35888399998657405,False,36,0
SK-K-24K24S2,794,experiment,100,→,right,→,0.3338538999669254,True,36,0
SK-K-24K24S2,795,experiment,54,↓,left,←,0.4717300001066178,False,36,0
SK-K-24K24S2,796,experiment,58,↑,down,↓,0.6728499999735504,False,36,1
SK-K-24K24S2,797,training,71,↓,down,↓,0.48010729998350143,True,36,0
SK-K-24K24S2,798,training,84,←,right,→,0.3256979000288993,False,36,1
SK-K-24K24S2,799,experiment,66,←,right,→,0.3925268000457436,False,36,0
SK-K-24K24S2,800,experiment,85,↑,no_key,no_letter,-1.0,False,36,0
SK-K-24K24S2,801,experiment,74,←,left,←,0.36729730013757944,True,36,1
SK-K-24K24S2,802,experiment,90,↑,left,←,0.35078959981910884,False,36,0
SK-K-24K24S2,803,experiment,92,↑,up,↑,0.5495543999131769,True,36,0
SK-K-24K24S2,804,experiment,77,↑,right,→,0.7974763000383973,False,36,1
SK-K-24K24S2,805,experiment,96,←,right,→,0.3673342000693083,False,36,1
SK-K-24K24S2,806,experiment,82,↓,no_key,no_letter,-1.0,False,36,0
SK-K-24K24S2,807,experiment,95,←,left,←,0.6122244999278337,True,36,1
SK-K-24K24S2,808,experiment,106,↓,down,↓,0.5206484999507666,True,36,1
SK-K-24K24S2,809,experiment,107,→,right,→,0.5750578998122364,True,36,1
SK-K-24K24S2,810,experiment,71,↑,up,↑,0.6242887999396771,True,36,1
SK-K-24K24S2,811,experiment,102,↑,up,↑,0.48558399989269674,True,36,1
SK-K-24K24S2,812,experiment,61,↓,up,↑,0.9327298998832703,False,36,1
SK-K-24K24S2,813,experiment,103,←,left,←,0.5966749999206513,True,36,1
SK-K-24K24S2,814,experiment,67,→,right,→,0.49407769995741546,True,36,1
SK-K-24K24S2,815,experiment,75,↓,down,↓,0.5372906001284719,True,36,1
SK-K-24K24S2,816,experiment,87,↑,up,↑,0.7025048001669347,True,36,1
SK-K-24K24S2,817,experiment,97,↓,no_key,no_letter,-1.0,False,36,1
SK-K-24K24S2,818,experiment,72,←,no_key,no_letter,-1.0,False,36,1
SK-K-24K24S2,819,experiment,60,↓,down,↓,0.543741500005126,True,36,1
SK-K-24K24S2,820,experiment,59,→,left,←,0.6060460999142379,False,36,1
SK-K-24K24S2,821,experiment,48,←,no_key,no_letter,-1.0,False,36,1
SK-K-24K24S2,822,experiment,88,→,right,→,0.4258923998568207,True,36,1
SK-K-24K24S2,823,experiment,100,→,right,→,0.2853084998205304,True,36,0
SK-K-24K24S2,824,experiment,94,←,left,←,0.23532070009969175,True,36,0
SK-K-24K24S2,825,experiment,64,→,right,→,0.38407030003145337,True,36,0
SK-K-24K24S2,826,experiment,52,→,right,→,0.35047620022669435,True,36,0
SK-K-24K24S2,827,experiment,93,←,right,→,0.42565009999088943,False,36,0
SK-K-24K24S2,828,experiment,76,→,right,→,0.583286999957636,True,36,0
SK-K-24K24S2,829,experiment,49,←,left,←,0.36007310007698834,True,36,1
SK-K-24K24S2,830,experiment,70,←,left,←,0.35914339986629784,True,36,0
SK-K-24K24S2,831,experiment,68,←,left,←,0.635346099967137,True,36,0
SK-K-24K24S2,832,experiment,99,↓,down,↓,0.5285978000611067,True,36,1
SK-K-24K24S2,833,experiment,50,←,no_key,no_letter,-1.0,False,36,1
SK-K-24K24S2,834,experiment,56,→,left,←,1.7529142000712454,False,36,1
SK-K-24K24S2,835,experiment,108,↑,up,↑,0.4785574001725763,True,36,1
SK-K-24K24S2,836,experiment,65,↑,up,↑,0.4935443999711424,True,36,1
SK-K-24K24S2,837,experiment,101,↑,up,↑,0.4423684000503272,True,36,1
SK-K-24K24S2,838,experiment,78,←,left,←,0.40079210000112653,True,36,0
SK-K-24K24S2,839,experiment,73,↑,down,↓,0.6425943998619914,False,36,0
SK-K-24K24S2,840,experiment,79,→,right,→,0.42552169994451106,True,36,1
SK-K-24K24S2,841,experiment,55,↑,up,↑,0.690987000009045,True,36,0
SK-K-24K24S2,842,experiment,58,→,left,←,0.531393300043419,False,36,1
SK-K-24K24S2,843,experiment,57,←,right,→,0.5229174999985844,False,36,1
SK-K-24K24S2,844,experiment,83,←,left,←,0.3422743999399245,True,36,1
SK-K-24K24S2,845,experiment,89,←,left,←,0.3349268001038581,True,36,0
SK-K-24K24S2,846,experiment,51,↑,down,↓,0.7268956999760121,False,36,0
SK-K-24K24S2,847,experiment,104,↑,right,→,0.4423634000122547,False,36,1
SK-K-24K24S2,848,experiment,86,↓,left,←,1.287840300006792,False,36,0
SK-K-24K24S2,849,experiment,62,↓,left,←,0.9673532000742853,False,36,1
SK-K-24K24S2,850,experiment,98,→,right,→,0.39266399992629886,True,36,1
SK-K-24K24S2,851,experiment,105,→,right,→,0.41670820000581443,True,36,0
SK-K-24K24S2,852,experiment,84,↓,down,↓,0.4953268999233842,True,36,0
SK-K-24K24S2,853,experiment,81,→,right,→,0.37682470004074275,True,36,1
SK-K-24K24S2,854,experiment,53,←,left,←,0.5583739997819066,True,36,0
SK-K-24K24S2,855,experiment,80,↓,right,→,0.4932146999053657,False,36,1
SK-K-24K24S2,856,experiment,69,←,left,←,0.4426064998842776,True,36,1
SK-K-24K24S2,857,experiment,54,↓,down,↓,0.5335268001072109,True,36,0
SK-K-24K24S2,858,experiment,63,←,left,←,0.42576980008743703,True,36,1
SK-K-24K24S2,859,experiment,91,↓,down,↓,0.38412619987502694,True,36,0
SK-K-24K24S2,860,training,52,←,right,→,0.5467705999035388,False,36,0
SK-K-24K24S2,861,training,106,↑,down,↓,0.5130765999201685,False,36,1
SK-K-24K24S2,862,experiment,73,↑,up,↑,0.5323258999269456,True,36,1
SK-K-24K24S2,863,experiment,100,↓,down,↓,0.5572568001225591,True,36,1
SK-K-24K24S2,864,experiment,101,↓,down,↓,0.532800099812448,True,36,1
SK-K-24K24S2,865,experiment,59,↓,no_key,no_letter,-1.0,False,36,1
SK-K-24K24S2,866,experiment,78,←,left,←,0.6343362000770867,True,36,1
SK-K-24K24S2,867,experiment,79,→,left,←,0.4942187999840826,False,36,1
SK-K-24K24S2,868,experiment,72,↑,up,↑,0.5223773000761867,True,36,1
SK-K-24K24S2,869,experiment,56,↓,down,↓,0.5705335999373347,True,36,1
SK-K-24K24S2,870,experiment,57,↑,no_key,no_letter,-1.0,False,36,1
SK-K-24K24S2,871,experiment,88,←,left,←,0.4765059999190271,True,36,1
SK-K-24K24S2,872,experiment,107,←,right,→,0.4697551999706775,False,36,1
SK-K-24K24S2,873,experiment,65,↑,up,↑,0.5080709001049399,True,36,0
SK-K-24K24S2,874,experiment,52,→,no_key,no_letter,-1.0,False,36,1
SK-K-24K24S2,875,experiment,93,↓,left,←,0.7600461000110954,False,36,1
SK-K-24K24S2,876,experiment,67,→,left,←,0.5150644998066127,False,36,1
SK-K-24K24S2,877,experiment,60,←,right,→,0.3509695997927338,False,36,1
SK-K-24K24S2,878,experiment,89,↑,left,←,0.4340297000017017,False,36,0
SK-K-24K24S2,879,experiment,80,→,left,←,0.3424534001387656,False,36,0
SK-K-24K24S2,880,experiment,99,←,left,←,0.498169899918139,True,36,0
SK-K-24K24S2,881,experiment,84,→,right,→,0.601952499942854,True,36,1
SK-K-24K24S2,882,experiment,58,←,left,←,0.4788503001909703,True,36,1
SK-K-24K24S2,883,experiment,81,↑,up,↑,0.6954232000280172,True,36,1
SK-K-24K24S2,884,experiment,54,←,left,←,0.7536213998682797,True,36,1
SK-K-24K24S2,885,experiment,55,←,left,←,0.5771784998942167,True,36,1
SK-K-24K24S2,886,experiment,63,←,left,←,0.6208184000570327,True,36,1
SK-K-24K24S2,887,experiment,62,↑,left,←,0.782837700098753,False,36,1
SK-K-24K24S2,888,experiment,95,←,left,←,0.6315977999474853,True,36,1
SK-K-24K24S2,889,experiment,82,←,left,←,0.5385034999344498,True,36,1
SK-K-24K24S2,890,experiment,105,↓,down,↓,0.9302360999863595,True,36,1
SK-K-24K24S2,891,experiment,83,→,right,→,0.5283584999851882,True,36,1
SK-K-24K24S2,892,experiment,91,→,right,→,0.4773407999891788,True,36,1
SK-K-24K24S2,893,experiment,69,→,no_key,no_letter,-1.0,False,36,1
SK-K-24K24S2,894,experiment,49,→,right,→,0.7075053001753986,True,36,1
SK-K-24K24S2,895,experiment,90,↓,down,↓,0.5686411000788212,True,36,1
SK-K-24K24S2,896,experiment,68,↑,up,↑,0.8507022999692708,True,36,1
SK-K-24K24S2,897,experiment,106,→,right,→,0.38445589994080365,True,36,1
SK-K-24K24S2,898,experiment,104,↓,down,↓,0.5307541999500245,True,36,0
SK-K-24K24S2,899,experiment,53,↑,down,↓,0.595249000005424,False,36,1
SK-K-24K24S2,900,experiment,75,↑,up,↑,0.5623546000570059,True,36,1
SK-K-24K24S2,901,experiment,103,↓,down,↓,0.4338540998287499,True,36,1
SK-K-24K24S2,902,experiment,86,↑,right,→,0.367290599970147,False,36,0
SK-K-24K24S2,903,experiment,92,→,right,→,0.3996108998544514,True,36,0
SK-K-24K24S2,904,experiment,48,↑,up,↑,1.0041682000737637,True,36,0
SK-K-24K24S2,905,experiment,96,↓,down,↓,0.4505372999701649,True,36,1
SK-K-24K24S2,906,experiment,98,←,right,→,0.4423369001597166,False,36,0
SK-K-24K24S2,907,experiment,108,→,left,←,0.5457196000497788,False,36,0
SK-K-24K24S2,908,experiment,61,↓,down,↓,0.5271101999096572,True,36,1
SK-K-24K24S2,909,experiment,97,↓,down,↓,0.54536799993366,True,36,1
SK-K-24K24S2,910,experiment,51,↑,down,↓,0.6024984000250697,False,36,1
SK-K-24K24S2,911,experiment,70,↑,right,→,0.35090230009518564,False,36,1
SK-K-24K24S2,912,experiment,87,←,left,←,0.45020340010523796,True,36,0
SK-K-24K24S2,913,experiment,102,↓,down,↓,0.5789910999592394,True,36,0
SK-K-24K24S2,914,experiment,77,↓,down,↓,0.36738390009850264,True,36,1
SK-K-24K24S2,915,experiment,66,↓,down,↓,0.359005399979651,True,36,0
SK-K-24K24S2,916,experiment,94,←,left,←,0.4865627000108361,True,36,0
SK-K-24K24S2,917,experiment,64,←,left,←,0.39236719999462366,True,36,1
SK-K-24K24S2,918,experiment,71,→,down,↓,0.5097379998769611,False,36,0
SK-K-24K24S2,919,experiment,85,→,right,→,0.44231810001656413,True,36,1
SK-K-24K24S2,920,experiment,50,↑,down,↓,1.377675399882719,False,36,0
SK-K-24K24S2,921,experiment,74,→,right,→,0.585727300029248,True,36,1
SK-K-24K24S2,922,experiment,76,←,right,→,0.6488092998042703,False,36,1
SK-K-24K24S2,923,training,85,→,right,→,0.4904769998975098,True,36,0
SK-K-24K24S2,924,training,62,↑,up,↑,0.6181966001167893,True,36,1
SK-K-24K24S2,925,experiment,54,→,right,→,0.510833399835974,True,36,1
SK-K-24K24S2,926,experiment,104,→,no_key,no_letter,-1.0,False,36,1
SK-K-24K24S2,927,experiment,50,←,left,←,0.623887199908495,True,36,1
SK-K-24K24S2,928,experiment,71,↓,down,↓,0.5914356999564916,True,36,1
SK-K-24K24S2,929,experiment,48,↑,up,↑,0.6309144000988454,True,36,1
SK-K-24K24S2,930,experiment,101,→,right,→,0.5557160000316799,True,36,1
SK-K-24K24S2,931,experiment,67,↓,down,↓,0.45055159996263683,True,36,1
SK-K-24K24S2,932,experiment,95,→,right,→,0.5164624999742955,True,36,0
SK-K-24K24S2,933,experiment,66,↓,right,→,0.29233530000783503,False,36,1
SK-K-24K24S2,934,experiment,53,↓,down,↓,0.4760325998067856,True,36,0
SK-K-24K24S2,935,experiment,98,↓,down,↓,0.5197568000294268,True,36,1
SK-K-24K24S2,936,experiment,51,→,right,→,0.6820601001381874,True,36,1
SK-K-24K24S2,937,experiment,70,↓,right,→,0.5029545000288635,False,36,1
SK-K-24K24S2,938,experiment,107,→,right,→,0.4249720999505371,True,36,1
SK-K-24K24S2,939,experiment,63,↑,up,↑,0.7124845001380891,True,36,0
SK-K-24K24S2,940,experiment,106,↓,down,↓,0.5280581000261009,True,36,1
SK-K-24K24S2,941,experiment,76,↑,up,↑,0.6659239998552948,True,36,1
SK-K-24K24S2,942,experiment,52,←,left,←,0.6212131001520902,True,36,1
SK-K-24K24S2,943,experiment,65,↑,up,↑,0.6072864001616836,True,36,1
SK-K-24K24S2,944,experiment,83,←,left,←,0.5939766000956297,True,36,1
SK-K-24K24S2,945,experiment,75,↑,up,↑,0.5451982000377029,True,36,1
SK-K-24K24S2,946,experiment,103,↓,down,↓,0.7292420000303537,True,36,1
SK-K-24K24S2,947,experiment,58,↑,up,↑,0.6481783001217991,True,36,1
SK-K-24K24S2,948,experiment,87,→,left,←,0.7290688999928534,False,36,1
SK-K-24K24S2,949,experiment,64,↑,up,↑,0.6221084999851882,True,36,1
SK-K-24K24S2,950,experiment,81,←,left,←,0.5136476000770926,True,36,1
SK-K-24K24S2,951,experiment,91,↑,left,←,0.7263893999624997,False,36,1
SK-K-24K24S2,952,experiment,92,↓,down,↓,0.5224086998496205,True,36,1
SK-K-24K24S2,953,experiment,84,→,right,→,0.5771288999821991,True,36,1
SK-K-24K24S2,954,experiment,86,↑,up,↑,0.5891003999859095,True,36,1
SK-K-24K24S2,955,experiment,100,↓,down,↓,0.5320800000336021,True,36,1
SK-K-24K24S2,956,experiment,72,←,left,←,0.502248500008136,True,36,1
SK-K-24K24S2,957,experiment,61,→,right,→,0.6536816000007093,True,36,1
SK-K-24K24S2,958,experiment,60,↑,left,←,0.5276734000071883,False,36,1
SK-K-24K24S2,959,experiment,90,→,right,→,0.5163571999873966,True,36,1
SK-K-24K24S2,960,experiment,55,←,right,→,0.5490413999650627,False,36,1
SK-K-24K24S2,961,experiment,108,←,left,←,0.5226340999361128,True,36,1
SK-K-24K24S2,962,experiment,93,←,left,←,0.5183790998999029,True,36,1
SK-K-24K24S2,963,experiment,59,↑,up,↑,0.5581884998828173,True,36,1
SK-K-24K24S2,964,experiment,73,→,right,→,0.36771450005471706,True,36,1
SK-K-24K24S2,965,experiment,79,↓,down,↓,0.44273160002194345,True,36,0
SK-K-24K24S2,966,experiment,89,←,right,→,0.42578530008904636,False,36,0
SK-K-24K24S2,967,experiment,85,←,right,→,0.4952086000703275,False,36,0
SK-K-24K24S2,968,experiment,94,↑,right,→,0.3251407998614013,False,36,1
SK-K-24K24S2,969,experiment,74,↑,up,↑,0.5265788999386132,True,36,0
SK-K-24K24S2,970,experiment,88,→,right,→,0.4839027998968959,True,36,1
SK-K-24K24S2,971,experiment,97,↑,down,↓,0.6953047001734376,False,36,1
SK-K-24K24S2,972,experiment,105,↓,down,↓,0.5444063001777977,True,36,1
SK-K-24K24S2,973,experiment,69,↑,up,↑,0.6356067000888288,True,36,1
SK-K-24K24S2,974,experiment,57,↑,up,↑,0.63876420003362,True,36,1
SK-K-24K24S2,975,experiment,68,→,left,←,0.5103412999305874,False,36,1
SK-K-24K24S2,976,experiment,96,←,left,←,0.6338139001745731,True,36,1
SK-K-24K24S2,977,experiment,56,→,right,→,0.6693988000042737,True,36,1
SK-K-24K24S2,978,experiment,49,↑,up,↑,0.6579130999743938,True,36,1
SK-K-24K24S2,979,experiment,62,→,right,→,0.5068612000904977,True,36,1
SK-K-24K24S2,980,experiment,77,↓,down,↓,0.5727875998709351,True,36,1
SK-K-24K24S2,981,experiment,82,←,left,←,0.5299378999043256,True,36,1
SK-K-24K24S2,982,experiment,78,→,right,→,0.538315299898386,True,36,1
SK-K-24K24S2,983,experiment,99,↑,up,↑,0.7317423999775201,True,36,1
SK-K-24K24S2,984,experiment,102,↓,down,↓,0.44264170015230775,True,36,1
SK-K-24K24S2,985,experiment,80,←,left,←,0.5028623000252992,True,36,0
SK-K-24K24S2,986,training,103,→,left,←,0.5267092001158744,False,36,0
SK-K-24K24S2,987,training,76,↓,down,↓,0.41700560017488897,True,36,1
SK-K-24K24S2,988,experiment,66,↓,down,↓,0.44215329992584884,True,36,0
SK-K-24K24S2,989,experiment,73,→,right,→,0.5340086000505835,True,36,0
SK-K-24K24S2,990,experiment,101,↓,down,↓,0.6067959000356495,True,36,1
SK-K-24K24S2,991,experiment,71,↓,right,→,0.31768300011754036,False,36,1
SK-K-24K24S2,992,experiment,92,→,right,→,0.35900880000554025,True,36,0
SK-K-24K24S2,993,experiment,93,↑,up,↑,0.5247162999585271,True,36,0
SK-K-24K24S2,994,experiment,81,↑,up,↑,0.4423678999301046,True,36,1
SK-K-24K24S2,995,experiment,96,↑,right,→,0.32600390003062785,False,36,0
SK-K-24K24S2,996,experiment,78,↓,left,←,0.3333316999487579,False,36,0
SK-K-24K24S2,997,experiment,76,↓,right,→,0.3505186000838876,False,36,0
SK-K-24K24S2,998,experiment,85,↑,no_key,no_letter,-1.0,False,36,0
SK-K-24K24S2,999,experiment,67,←,left,←,0.6190130000468343,True,36,1
SK-K-24K24S2,1000,experiment,100,←,left,←,0.5763852000236511,True,36,1
SK-K-24K24S2,1001,experiment,97,→,left,←,0.608977299882099,False,36,1
SK-K-24K24S2,1002,experiment,82,↓,down,↓,0.5011464001145214,True,36,1
SK-K-24K24S2,1003,experiment,103,↓,down,↓,0.5025764000602067,True,36,1
SK-K-24K24S2,1004,experiment,70,→,no_key,no_letter,-1.0,False,36,1
SK-K-24K24S2,1005,experiment,74,→,right,→,0.7792696999385953,True,36,1
SK-K-24K24S2,1006,experiment,77,↑,up,↑,0.6177507999818772,True,36,1
SK-K-24K24S2,1007,experiment,69,↓,left,←,0.5218923999927938,False,36,1
SK-K-24K24S2,1008,experiment,58,←,left,←,0.5131810999009758,True,36,1
SK-K-24K24S2,1009,experiment,106,↓,up,↑,0.6488794998731464,False,36,1
SK-K-24K24S2,1010,experiment,108,↑,right,→,0.3762895001564175,False,36,1
SK-K-24K24S2,1011,experiment,72,↓,down,↓,0.376046699937433,True,36,0
SK-K-24K24S2,1012,experiment,61,↑,up,↑,0.5193232998717576,True,36,0
SK-K-24K24S2,1013,experiment,51,↓,down,↓,0.4735995000228286,True,36,1
SK-K-24K24S2,1014,experiment,79,←,left,←,0.5476438000332564,True,36,1
SK-K-24K24S2,1015,experiment,98,→,right,→,0.41749859997071326,True,36,1
SK-K-24K24S2,1016,experiment,91,→,right,→,0.4002827999647707,True,36,0
SK-K-24K24S2,1017,experiment,102,↓,right,→,0.4088636999949813,False,36,0
SK-K-24K24S2,1018,experiment,99,→,right,→,0.40981330000795424,True,36,0
SK-K-24K24S2,1019,experiment,48,←,left,←,0.4087938000448048,True,36,0
SK-K-24K24S2,1020,experiment,75,←,left,←,0.4009361998178065,True,36,0
SK-K-24K24S2,1021,experiment,94,↑,up,↑,0.5175278000533581,True,36,0
SK-K-24K24S2,1022,experiment,95,←,left,←,0.44288369989953935,True,36,1
SK-K-24K24S2,1023,experiment,54,↑,up,↑,0.500947599997744,True,36,0
SK-K-24K24S2,1024,experiment,59,→,left,←,0.384559900034219,False,36,1
SK-K-24K24S2,1025,experiment,53,↓,no_key,no_letter,-1.0,False,36,0
SK-K-24K24S2,1026,experiment,63,←,left,←,0.41722110006958246,True,36,1
SK-K-24K24S2,1027,experiment,107,↓,down,↓,0.41739340010099113,True,36,0
SK-K-24K24S2,1028,experiment,62,↓,right,→,1.2601854000240564,False,36,0
SK-K-24K24S2,1029,experiment,80,←,left,←,0.8306153998710215,True,36,1
SK-K-24K24S2,1030,experiment,64,→,left,←,0.5679454999044538,False,36,1
SK-K-24K24S2,1031,experiment,52,→,right,→,0.8398798000998795,True,36,1
SK-K-24K24S2,1032,experiment,89,↑,up,↑,0.5201736998278648,True,36,1
SK-K-24K24S2,1033,experiment,104,↓,down,↓,0.43391350004822016,True,36,1
SK-K-24K24S2,1034,experiment,57,→,left,←,0.6114485000725836,False,36,0
SK-K-24K24S2,1035,experiment,56,↓,down,↓,0.44244639994576573,True,36,1
SK-K-24K24S2,1036,experiment,90,→,right,→,0.37706139986403286,True,36,0
SK-K-24K24S2,1037,experiment,49,→,right,→,0.36739109992049634,True,36,0
SK-K-24K24S2,1038,experiment,50,→,right,→,0.3504475001245737,True,36,0
SK-K-24K24S2,1039,experiment,84,←,right,→,0.3590007999446243,False,36,0
SK-K-24K24S2,1040,experiment,83,→,right,→,0.41743140015751123,True,36,0
SK-K-24K24S2,1041,experiment,87,↓,down,↓,0.4256802999880165,True,36,0
SK-K-24K24S2,1042,experiment,65,↑,up,↑,0.5331468998920172,True,36,0
SK-K-24K24S2,1043,experiment,60,←,left,←,0.39213460008613765,True,36,1
SK-K-24K24S2,1044,experiment,68,→,right,→,0.4007278000935912,True,36,0
SK-K-24K24S2,1045,experiment,86,↓,down,↓,0.42560479999519885,True,36,0
SK-K-24K24S2,1046,experiment,105,→,right,→,0.3675140000414103,True,36,0
SK-K-24K24S2,1047,experiment,88,↑,left,←,1.286037900019437,False,36,0
SK-K-24K24S2,1048,experiment,55,↓,right,→,0.4174190000630915,False,36,1
SK-K-24K24S2,1049,training,91,←,right,→,0.5567972999997437,False,36,0
SK-K-24K24S2,1050,training,84,↑,left,←,0.49828279996290803,False,36,1
SK-K-24K24S2,1051,experiment,63,↑,no_key,no_letter,-1.0,False,36,1
SK-K-24K24S2,1052,experiment,108,↑,up,↑,0.4703028001822531,True,36,1
SK-K-24K24S2,1053,experiment,84,↑,left,←,0.4948134000878781,False,36,0
SK-K-24K24S2,1054,experiment,53,←,right,→,0.4810992998536676,False,36,1
SK-K-24K24S2,1055,experiment,73,←,left,←,0.4173263998236507,True,36,1
SK-K-24K24S2,1056,experiment,88,↓,down,↓,0.44251750013791025,True,36,0
SK-K-24K24S2,1057,experiment,77,→,right,→,0.383713599992916,True,36,0
SK-K-24K24S2,1058,experiment,95,↑,right,→,0.39416210004128516,False,36,0
SK-K-24K24S2,1059,experiment,58,↓,down,↓,0.6395709998905659,True,36,0
SK-K-24K24S2,1060,experiment,83,↓,down,↓,0.4266566999722272,True,36,1
SK-K-24K24S2,1061,experiment,85,→,left,←,0.5553371999412775,False,36,0
SK-K-24K24S2,1062,experiment,54,←,left,←,0.5787414000369608,True,36,1
SK-K-24K24S2,1063,experiment,86,↓,down,↓,0.6465370999649167,True,36,1
SK-K-24K24S2,1064,experiment,96,→,right,→,0.4259297999087721,True,36,1
SK-K-24K24S2,1065,experiment,101,→,right,→,0.41802019998431206,True,36,0
SK-K-24K24S2,1066,experiment,97,↑,up,↑,0.5350800999440253,True,36,0
SK-K-24K24S2,1067,experiment,56,↓,down,↓,0.6309251999482512,True,36,1
SK-K-24K24S2,1068,experiment,81,←,left,←,0.49040629994124174,True,36,1
SK-K-24K24S2,1069,experiment,49,←,left,←,0.5419609001837671,True,36,1
SK-K-24K24S2,1070,experiment,106,→,right,→,0.3829430998302996,True,36,1
SK-K-24K24S2,1071,experiment,67,↓,down,↓,0.526443799957633,True,36,0
SK-K-24K24S2,1072,experiment,59,↓,down,↓,0.4007272000890225,True,36,1
SK-K-24K24S2,1073,experiment,61,←,left,←,0.3756228999700397,True,36,0
SK-K-24K24S2,1074,experiment,93,→,right,→,0.6500454999040812,True,36,0
SK-K-24K24S2,1075,experiment,55,←,left,←,0.326700699981302,True,36,1
SK-K-24K24S2,1076,experiment,78,↓,down,↓,0.6215829001739621,True,36,0
SK-K-24K24S2,1077,experiment,82,↓,down,↓,0.4511338002048433,True,36,1
SK-K-24K24S2,1078,experiment,62,→,right,→,0.5460847998037934,True,36,0
SK-K-24K24S2,1079,experiment,105,←,right,→,0.42483199993148446,False,36,1
SK-K-24K24S2,1080,experiment,74,→,down,↓,0.5746977000962943,False,36,0
SK-K-24K24S2,1081,experiment,52,←,left,←,0.4089869998861104,True,36,1
SK-K-24K24S2,1082,experiment,66,↑,no_key,no_letter,-1.0,False,36,0
SK-K-24K24S2,1083,experiment,90,→,right,→,0.7138998999726027,True,36,1
SK-K-24K24S2,1084,experiment,57,↑,right,→,0.8659837001468986,False,36,1
SK-K-24K24S2,1085,experiment,80,↑,right,→,0.6762614999897778,False,36,1
SK-K-24K24S2,1086,experiment,99,←,left,←,0.40083299996331334,True,36,1
SK-K-24K24S2,1087,experiment,102,↑,left,←,0.31023709988221526,False,36,0
SK-K-24K24S2,1088,experiment,50,→,right,→,0.6315622997935861,True,36,0
SK-K-24K24S2,1089,experiment,71,→,right,→,0.5503758999984711,True,36,1
SK-K-24K24S2,1090,experiment,64,←,left,←,0.4258958001155406,True,36,1
SK-K-24K24S2,1091,experiment,69,→,left,←,0.473992699990049,False,36,0
SK-K-24K24S2,1092,experiment,87,→,right,→,0.897962799994275,True,36,0
SK-K-24K24S2,1093,experiment,70,←,left,←,0.4003017998766154,True,36,1
SK-K-24K24S2,1094,experiment,72,→,right,→,0.4174629000481218,True,36,0
SK-K-24K24S2,1095,experiment,100,↓,no_key,no_letter,-1.0,False,36,0
SK-K-24K24S2,1096,experiment,89,→,right,→,0.5261576999910176,True,36,1
SK-K-24K24S2,1097,experiment,94,←,right,→,0.3924955998081714,False,36,1
SK-K-24K24S2,1098,experiment,91,←,left,←,0.5631593998987228,True,36,0
SK-K-24K24S2,1099,experiment,65,←,left,←,0.582824100041762,True,36,1
SK-K-24K24S2,1100,experiment,75,↑,up,↑,0.7260174001567066,True,36,1
SK-K-24K24S2,1101,experiment,79,↑,up,↑,0.6944711999967694,True,36,1
SK-K-24K24S2,1102,experiment,48,→,no_key,no_letter,-1.0,False,36,1
SK-K-24K24S2,1103,experiment,68,→,no_key,no_letter,-1.0,False,36,1
SK-K-24K24S2,1104,experiment,107,↓,down,↓,0.4744975999929011,True,36,1
SK-K-24K24S2,1105,experiment,92,↑,left,←,0.5682373000308871,False,36,1
SK-K-24K24S2,1106,experiment,51,→,right,→,0.3852641999255866,True,36,1
SK-K-24K24S2,1107,experiment,103,↓,down,↓,0.5174577999860048,True,36,0
SK-K-24K24S2,1108,experiment,60,↑,down,↓,0.5645767999812961,False,36,1
SK-K-24K24S2,1109,experiment,76,←,left,←,0.4421871998347342,True,36,1
SK-K-24K24S2,1110,experiment,98,→,right,→,0.6255193999968469,True,36,0
SK-K-24K24S2,1111,experiment,104,↓,down,↓,0.5174966000486165,True,36,1
SK-K-24K24S2,1112,training,98,→,right,→,0.3766739000566304,True,36,0
SK-K-24K24S2,1113,training,67,←,right,→,0.48997650016099215,False,36,0
SK-K-24K24S2,1114,experiment,73,→,right,→,0.35890470002777874,True,36,1
SK-K-24K24S2,1115,experiment,90,→,no_key,no_letter,-1.0,False,36,0
SK-K-24K24S2,1116,experiment,99,↑,up,↑,0.7444792999885976,True,36,1
SK-K-24K24S2,1117,experiment,69,←,no_key,no_letter,-1.0,False,36,1
SK-K-24K24S2,1118,experiment,75,↓,no_key,no_letter,-1.0,False,36,1
SK-K-24K24S2,1119,experiment,102,→,right,→,0.49012550013139844,True,36,1
SK-K-24K24S2,1120,experiment,91,↓,down,↓,0.599768899846822,True,36,1
SK-K-24K24S2,1121,experiment,49,↓,down,↓,0.5112711999099702,True,36,1
SK-K-24K24S2,1122,experiment,62,←,left,←,0.5578382001258433,True,36,1
SK-K-24K24S2,1123,experiment,87,→,left,←,0.8023002999834716,False,36,1
SK-K-24K24S2,1124,experiment,55,↑,up,↑,0.6397760999388993,True,36,1
SK-K-24K24S2,1125,experiment,57,↑,up,↑,0.5948183001019061,True,36,1
SK-K-24K24S2,1126,experiment,103,↓,down,↓,0.4889074999373406,True,36,1
SK-K-24K24S2,1127,experiment,84,↓,down,↓,0.4887092001736164,True,36,1
SK-K-24K24S2,1128,experiment,78,←,left,←,0.43460140004754066,True,36,1
SK-K-24K24S2,1129,experiment,63,←,left,←,0.40049230004660785,True,36,0
SK-K-24K24S2,1130,experiment,81,→,right,→,0.4174923999235034,True,36,0
SK-K-24K24S2,1131,experiment,61,→,left,←,0.5146393000613898,False,36,0
SK-K-24K24S2,1132,experiment,101,→,left,←,0.2840887999627739,False,36,1
SK-K-24K24S2,1133,experiment,79,←,left,←,0.6373289001639932,True,36,0
SK-K-24K24S2,1134,experiment,106,←,left,←,0.5366184001322836,True,36,1
SK-K-24K24S2,1135,experiment,105,↓,down,↓,0.5118919000960886,True,36,1
SK-K-24K24S2,1136,experiment,89,↑,up,↑,0.5655271001160145,True,36,1
SK-K-24K24S2,1137,experiment,76,→,left,←,0.837202199967578,False,36,1
SK-K-24K24S2,1138,experiment,77,↓,down,↓,0.6182366001885384,True,36,1
SK-K-24K24S2,1139,experiment,96,↓,down,↓,0.41041340003721416,True,36,1
SK-K-24K24S2,1140,experiment,74,↑,down,↓,0.5825563999824226,False,36,0
SK-K-24K24S2,1141,experiment,88,→,right,→,0.3924428001046181,True,36,1
SK-K-24K24S2,1142,experiment,51,↑,up,↑,0.544644600013271,True,36,0
SK-K-24K24S2,1143,experiment,107,←,left,←,0.5108817000873387,True,36,1
SK-K-24K24S2,1144,experiment,93,→,right,→,0.5634210000280291,True,36,1
SK-K-24K24S2,1145,experiment,53,→,left,←,0.507087100064382,False,36,1
SK-K-24K24S2,1146,experiment,92,↓,down,↓,0.7277956998441368,True,36,1
SK-K-24K24S2,1147,experiment,60,↓,down,↓,0.8145198000129312,True,36,1
SK-K-24K24S2,1148,experiment,59,←,down,↓,0.6898660999722779,False,36,1
SK-K-24K24S2,1149,experiment,52,↓,right,→,1.1327716000378132,False,36,1
SK-K-24K24S2,1150,experiment,70,←,left,←,0.7998362998478115,True,36,1
SK-K-24K24S2,1151,experiment,54,←,left,←,0.637313999934122,True,36,1
SK-K-24K24S2,1152,experiment,108,↓,left,←,0.7513443999923766,False,36,1
SK-K-24K24S2,1153,experiment,98,↓,down,↓,0.6243507999461144,True,36,1
SK-K-24K24S2,1154,experiment,104,←,right,→,0.5405041000340134,False,36,1
SK-K-24K24S2,1155,experiment,58,←,left,←,0.3921967998612672,True,36,1
SK-K-24K24S2,1156,experiment,94,↓,left,←,0.6916978000663221,False,36,0
SK-K-24K24S2,1157,experiment,68,→,left,←,0.48899009986780584,False,36,1
SK-K-24K24S2,1158,experiment,97,↑,up,↑,0.5728615999687463,True,36,1
SK-K-24K24S2,1159,experiment,48,↓,right,→,0.4776674001477659,False,36,1
SK-K-24K24S2,1160,experiment,65,↓,down,↓,0.5167246998753399,True,36,1
SK-K-24K24S2,1161,experiment,95,←,left,←,0.5126550998538733,True,36,1
SK-K-24K24S2,1162,experiment,67,←,left,←,0.4507999001070857,True,36,1
SK-K-24K24S2,1163,experiment,56,↓,down,↓,0.442586500197649,True,36,0
SK-K-24K24S2,1164,experiment,80,↑,left,←,0.7229657000862062,False,36,0
SK-K-24K24S2,1165,experiment,50,↑,left,←,0.7968774000182748,False,36,1
SK-K-24K24S2,1166,experiment,85,↓,down,↓,0.4501972000580281,True,36,1
SK-K-24K24S2,1167,experiment,83,→,right,→,0.5300157000310719,True,36,0
SK-K-24K24S2,1168,experiment,86,→,right,→,0.4256046002265066,True,36,1
SK-K-24K24S2,1169,experiment,71,↓,down,↓,0.4792877999134362,True,36,0
SK-K-24K24S2,1170,experiment,66,→,right,→,0.47783349989913404,True,36,1
SK-K-24K24S2,1171,experiment,72,←,left,←,0.4984967999625951,True,36,1
SK-K-24K24S2,1172,experiment,64,↑,down,↓,0.6404396998696029,False,36,1
SK-K-24K24S2,1173,experiment,82,↓,down,↓,0.47531169978901744,True,36,1
SK-K-24K24S2,1174,experiment,100,→,right,→,0.36747950012795627,True,36,1
SK-K-24K24S2,1175,training,76,→,right,→,0.39242229983210564,True,36,0
SK-K-24K24S2,1176,training,101,↓,down,↓,0.43347769998945296,True,36,0
SK-K-24K24S2,1177,experiment,63,↑,up,↑,0.45089270011521876,True,36,0
SK-K-24K24S2,1178,experiment,80,↑,up,↑,0.687534200027585,True,36,0
SK-K-24K24S2,1179,experiment,108,↑,left,←,0.37709560012444854,False,36,1
SK-K-24K24S2,1180,experiment,71,↑,up,↑,0.5602518999949098,True,36,0
SK-K-24K24S2,1181,experiment,99,↓,up,↑,0.5364669999107718,False,36,1
SK-K-24K24S2,1182,experiment,82,↑,up,↑,0.7675488002132624,True,36,1
SK-K-24K24S2,1183,experiment,93,↓,down,↓,0.6735350999515504,True,36,1
SK-K-24K24S2,1184,experiment,96,↑,up,↑,0.6622524000704288,True,36,1
SK-K-24K24S2,1185,experiment,77,↑,up,↑,0.6739988999906927,True,36,1
SK-K-24K24S2,1186,experiment,59,→,right,→,0.6349852001294494,True,36,1
SK-K-24K24S2,1187,experiment,68,←,left,←,0.6028712999541312,True,36,1
SK-K-24K24S2,1188,experiment,91,→,right,→,0.7000943999737501,True,36,1
SK-K-24K24S2,1189,experiment,62,←,left,←,0.6272167998831719,True,36,1
SK-K-24K24S2,1190,experiment,52,↑,up,↑,0.5847608998883516,True,36,1
SK-K-24K24S2,1191,experiment,105,→,right,→,0.5980017001274973,True,36,1
SK-K-24K24S2,1192,experiment,48,↓,down,↓,0.541729399934411,True,36,1
SK-K-24K24S2,1193,experiment,84,→,left,←,0.5078241999726743,False,36,1
SK-K-24K24S2,1194,experiment,89,↑,right,→,0.3588625998236239,False,36,1
SK-K-24K24S2,1195,experiment,101,↑,right,→,0.4179936998989433,False,36,0
SK-K-24K24S2,1196,experiment,58,←,left,←,0.40087269991636276,True,36,0
SK-K-24K24S2,1197,experiment,92,↓,down,↓,0.48510970012284815,True,36,0
SK-K-24K24S2,1198,experiment,81,↑,up,↑,0.6702703000046313,True,36,1
SK-K-24K24S2,1199,experiment,66,↓,down,↓,0.4342561000958085,True,36,1
SK-K-24K24S2,1200,experiment,70,↓,down,↓,0.5001860000193119,True,36,0
SK-K-24K24S2,1201,experiment,72,↓,left,←,0.7117728998418897,False,36,1
SK-K-24K24S2,1202,experiment,107,←,left,←,0.5274113998748362,True,36,1
SK-K-24K24S2,1203,experiment,60,↓,no_key,no_letter,-1.0,False,36,1
SK-K-24K24S2,1204,experiment,103,↓,down,↓,0.4340929000172764,True,36,1
SK-K-24K24S2,1205,experiment,56,↓,down,↓,0.4171645001042634,True,36,0
SK-K-24K24S2,1206,experiment,87,→,right,→,0.5460602000821382,True,36,0
SK-K-24K24S2,1207,experiment,97,↓,down,↓,0.3594380000140518,True,36,1
SK-K-24K24S2,1208,experiment,57,↑,up,↑,0.6017624998930842,True,36,0
SK-K-24K24S2,1209,experiment,88,←,left,←,0.43408939987421036,True,36,1
SK-K-24K24S2,1210,experiment,53,↓,down,↓,0.4426973001100123,True,36,0
SK-K-24K24S2,1211,experiment,61,→,right,→,0.43490649992600083,True,36,0
SK-K-24K24S2,1212,experiment,51,→,right,→,1.8462928000371903,True,36,0
SK-K-24K24S2,1213,experiment,83,↓,down,↓,0.7443285000044852,True,36,1
SK-K-24K24S2,1214,experiment,69,→,right,→,0.49148650001734495,True,36,1
SK-K-24K24S2,1215,experiment,67,↑,up,↑,0.7296045999974012,True,36,1
SK-K-24K24S2,1216,experiment,78,↑,up,↑,0.62579429987818,True,36,1
SK-K-24K24S2,1217,experiment,64,→,right,→,0.4090283999685198,True,36,1
SK-K-24K24S2,1218,experiment,106,↑,up,↑,0.535118600120768,True,36,0
SK-K-24K24S2,1219,experiment,74,→,right,→,0.4889409998431802,True,36,1
SK-K-24K24S2,1220,experiment,102,↓,down,↓,0.5147662998642772,True,36,1
SK-K-24K24S2,1221,experiment,85,↓,down,↓,0.4422824000939727,True,36,1
SK-K-24K24S2,1222,experiment,104,→,right,→,0.3592918999493122,True,36,0
SK-K-24K24S2,1223,experiment,90,←,no_key,no_letter,-1.0,False,36,0
SK-K-24K24S2,1224,experiment,94,←,right,→,0.5290989000350237,False,36,1
SK-K-24K24S2,1225,experiment,100,←,left,←,0.4341722000390291,True,36,1
SK-K-24K24S2,1226,experiment,54,→,right,→,0.4257789000403136,True,36,0
SK-K-24K24S2,1227,experiment,79,→,right,→,0.4834425998851657,True,36,0
SK-K-24K24S2,1228,experiment,76,↑,up,↑,0.6858983999118209,True,36,1
SK-K-24K24S2,1229,experiment,50,←,right,→,0.56963189993985,False,36,1
SK-K-24K24S2,1230,experiment,55,←,no_key,no_letter,-1.0,False,36,1
SK-K-24K24S2,1231,experiment,73,←,left,←,0.40116499993018806,True,36,1
SK-K-24K24S2,1232,experiment,49,↓,down,↓,0.5593967000022531,True,36,0
SK-K-24K24S2,1233,experiment,95,→,right,→,0.4732596999965608,True,36,1
SK-K-24K24S2,1234,experiment,86,↓,down,↓,0.4331021001562476,True,36,0
SK-K-24K24S2,1235,experiment,65,↓,down,↓,0.5698655999731272,True,36,0
SK-K-24K24S2,1236,experiment,75,←,no_key,no_letter,-1.0,False,36,1
SK-K-24K24S2,1237,experiment,98,→,right,→,0.537769400049001,True,36,1
SK-K-24K24S2,1238,training,84,→,right,→,0.586010699858889,True,36,0
SK-K-24K24S2,1239,training,72,↑,up,↑,0.42592209996655583,True,36,1
SK-K-24K24S2,1240,experiment,90,←,left,←,0.43351919995620847,True,36,0
SK-K-24K24S2,1241,experiment,50,→,no_key,no_letter,-1.0,False,36,0
SK-K-24K24S2,1242,experiment,103,←,left,←,0.35015289997681975,True,36,1
SK-K-24K24S2,1243,experiment,107,↓,no_key,no_letter,-1.0,False,36,0
SK-K-24K24S2,1244,experiment,92,←,right,→,0.6466198998969048,False,36,1
SK-K-24K24S2,1245,experiment,60,→,right,→,0.4258273998275399,True,36,1
SK-K-24K24S2,1246,experiment,53,↑,up,↑,0.5331600001081824,True,36,0
SK-K-24K24S2,1247,experiment,56,→,right,→,0.40065730013884604,True,36,1
SK-K-24K24S2,1248,experiment,67,←,left,←,0.5579542999621481,True,36,0
SK-K-24K24S2,1249,experiment,58,←,left,←,0.5559729998931289,True,36,1
SK-K-24K24S2,1250,experiment,94,↓,down,↓,0.4785205000080168,True,36,1
SK-K-24K24S2,1251,experiment,61,↓,no_key,no_letter,-1.0,False,36,1
SK-K-24K24S2,1252,experiment,93,↓,no_key,no_letter,-1.0,False,36,1
SK-K-24K24S2,1253,experiment,108,→,down,↓,0.9488557002041489,False,36,1
SK-K-24K24S2,1254,experiment,74,↓,down,↓,0.5417721997946501,True,36,1
SK-K-24K24S2,1255,experiment,95,↑,down,↓,0.6561163999140263,False,36,1
SK-K-24K24S2,1256,experiment,57,←,left,←,0.5706860998179764,True,36,1
SK-K-24K24S2,1257,experiment,99,→,right,→,0.6022707000374794,True,36,1
SK-K-24K24S2,1258,experiment,102,→,left,←,0.4257366000674665,False,36,1
SK-K-24K24S2,1259,experiment,86,↓,no_key,no_letter,-1.0,False,36,0
SK-K-24K24S2,1260,experiment,69,←,left,←,0.46804370009340346,True,36,1
SK-K-24K24S2,1261,experiment,98,→,right,→,0.4255274999886751,True,36,0
SK-K-24K24S2,1262,experiment,100,←,left,←,0.43387910001911223,True,36,0
SK-K-24K24S2,1263,experiment,54,↓,down,↓,0.6486119001638144,True,36,0
SK-K-24K24S2,1264,experiment,101,↓,right,→,0.45068490016274154,False,36,1
SK-K-24K24S2,1265,experiment,75,←,left,←,0.44213509978726506,True,36,0
SK-K-24K24S2,1266,experiment,64,→,left,←,0.5935235000215471,False,36,0
SK-K-24K24S2,1267,experiment,83,↓,down,↓,0.424901399994269,True,36,1
SK-K-24K24S2,1268,experiment,82,↑,left,←,0.47352220001630485,False,36,0
SK-K-24K24S2,1269,experiment,85,←,left,←,0.3595711998641491,True,36,1
SK-K-24K24S2,1270,experiment,80,→,right,→,0.39970079995691776,True,36,0
SK-K-24K24S2,1271,experiment,106,↑,down,↓,0.5159488001372665,False,36,0
SK-K-24K24S2,1272,experiment,55,↑,down,↓,0.56488800002262,False,36,1
SK-K-24K24S2,1273,experiment,88,↓,down,↓,0.520400800043717,True,36,1
SK-K-24K24S2,1274,experiment,104,↓,down,↓,0.40133519982919097,True,36,1
SK-K-24K24S2,1275,experiment,68,↑,down,↓,0.5613539998885244,False,36,0
SK-K-24K24S2,1276,experiment,48,→,down,↓,1.1306419000029564,False,36,1
SK-K-24K24S2,1277,experiment,71,↓,down,↓,0.3922929000109434,True,36,1
SK-K-24K24S2,1278,experiment,105,→,down,↓,0.35908179986290634,False,36,0
SK-K-24K24S2,1279,experiment,63,↑,left,←,1.3820714999455959,False,36,0
SK-K-24K24S2,1280,experiment,62,→,right,→,0.4741344000212848,True,36,1
SK-K-24K24S2,1281,experiment,96,→,right,→,0.5032403999939561,True,36,0
SK-K-24K24S2,1282,experiment,78,←,left,←,0.48100739996880293,True,36,1
SK-K-24K24S2,1283,experiment,81,→,right,→,0.3504633998963982,True,36,1
SK-K-24K24S2,1284,experiment,70,←,left,←,0.5077316001988947,True,36,0
SK-K-24K24S2,1285,experiment,89,↓,down,↓,0.5057236000429839,True,36,1
SK-K-24K24S2,1286,experiment,79,→,right,→,0.690522100077942,True,36,1
SK-K-24K24S2,1287,experiment,59,↓,down,↓,0.507196499966085,True,36,1
SK-K-24K24S2,1288,experiment,76,←,left,←,0.6452687000855803,True,36,1
SK-K-24K24S2,1289,experiment,51,←,right,→,0.4825361999683082,False,36,1
SK-K-24K24S2,1290,experiment,72,→,right,→,0.6145460000261664,True,36,1
SK-K-24K24S2,1291,experiment,97,↓,right,→,0.5252362000755966,False,36,1
SK-K-24K24S2,1292,experiment,66,↓,down,↓,0.4821334001608193,True,36,1
SK-K-24K24S2,1293,experiment,49,↓,down,↓,0.5021999001037329,True,36,1
SK-K-24K24S2,1294,experiment,73,→,right,→,0.40910000004805624,True,36,1
SK-K-24K24S2,1295,experiment,84,↑,up,↑,0.8686171998269856,True,36,0
SK-K-24K24S2,1296,experiment,87,↓,down,↓,0.6286146999336779,True,36,1
SK-K-24K24S2,1297,experiment,65,↓,no_key,no_letter,-1.0,False,36,1
SK-K-24K24S2,1298,experiment,91,→,left,←,0.672355700051412,False,36,1
SK-K-24K24S2,1299,experiment,77,←,left,←,0.5314086999278516,True,36,1
SK-K-24K24S2,1300,experiment,52,←,left,←,0.532644199905917,True,36,1
SK-K-24K24S2,1301,training,49,→,left,←,0.6264657001011074,False,36,0
SK-K-24K24S2,1302,training,78,↑,up,↑,0.4875765999313444,True,36,1
SK-K-24K24S2,1303,experiment,82,→,right,→,0.48060979996807873,True,36,1
SK-K-24K24S2,1304,experiment,60,↑,up,↑,0.5364689000416547,True,36,1
SK-K-24K24S2,1305,experiment,67,↑,up,↑,0.5405158000066876,True,36,1
SK-K-24K24S2,1306,experiment,92,←,up,↑,0.6637687999755144,False,36,1
SK-K-24K24S2,1307,experiment,79,↑,no_key,no_letter,-1.0,False,36,1
SK-K-24K24S2,1308,experiment,88,↑,up,↑,0.4705556998960674,True,36,1
SK-K-24K24S2,1309,experiment,56,↓,up,↑,0.5681418001186103,False,36,1
SK-K-24K24S2,1310,experiment,104,↑,down,↓,0.4509083000011742,False,36,1
SK-K-24K24S2,1311,experiment,86,←,left,←,0.3924827000591904,True,36,0
SK-K-24K24S2,1312,experiment,63,→,right,→,0.43511079996824265,True,36,0
SK-K-24K24S2,1313,experiment,58,↓,down,↓,0.4505088001023978,True,36,0
SK-K-24K24S2,1314,experiment,73,→,right,→,0.3840000999625772,True,36,0
SK-K-24K24S2,1315,experiment,61,↓,down,↓,0.5815560000482947,True,36,0
SK-K-24K24S2,1316,experiment,103,↓,down,↓,0.5555893999990076,True,36,1
SK-K-24K24S2,1317,experiment,77,→,left,←,0.5792131000198424,False,36,1
SK-K-24K24S2,1318,experiment,107,→,right,→,0.3508484000340104,True,36,1
SK-K-24K24S2,1319,experiment,100,↓,down,↓,0.560431299963966,True,36,0
SK-K-24K24S2,1320,experiment,96,→,left,←,0.44292449997738004,False,36,1
SK-K-24K24S2,1321,experiment,51,←,left,←,0.40095619997009635,True,36,0
SK-K-24K24S2,1322,experiment,76,↑,up,↑,0.5094687000382692,True,36,0
SK-K-24K24S2,1323,experiment,78,↑,up,↑,0.4780704998411238,True,36,1
SK-K-24K24S2,1324,experiment,49,←,left,←,0.4087545000948012,True,36,1
SK-K-24K24S2,1325,experiment,66,→,right,→,0.4091304000467062,True,36,0
SK-K-24K24S2,1326,experiment,81,←,left,←,0.6154930000193417,True,36,0
SK-K-24K24S2,1327,experiment,89,↓,right,→,0.3593099000863731,False,36,1
SK-K-24K24S2,1328,experiment,85,↑,up,↑,0.5176596001256257,True,36,0
SK-K-24K24S2,1329,experiment,54,↓,down,↓,0.4949109998997301,True,36,1
SK-K-24K24S2,1330,experiment,57,↑,left,←,0.472140199970454,False,36,1
SK-K-24K24S2,1331,experiment,68,↑,left,←,0.375270799966529,False,36,0
SK-K-24K24S2,1332,experiment,84,↓,left,←,1.5058726000133902,False,36,0
SK-K-24K24S2,1333,experiment,75,←,left,←,0.49236449995078146,True,36,1
SK-K-24K24S2,1334,experiment,93,→,right,→,0.5772512999828905,True,36,1
SK-K-24K24S2,1335,experiment,95,→,right,→,0.5303583000786602,True,36,1
SK-K-24K24S2,1336,experiment,62,→,right,→,0.5682206000201404,True,36,1
SK-K-24K24S2,1337,experiment,105,→,right,→,0.5498980002012104,True,36,1
SK-K-24K24S2,1338,experiment,70,↑,up,↑,0.6722797001712024,True,36,1
SK-K-24K24S2,1339,experiment,101,←,left,←,0.6117819999344647,True,36,1
SK-K-24K24S2,1340,experiment,90,↓,down,↓,0.676631199894473,True,36,1
SK-K-24K24S2,1341,experiment,108,→,no_key,no_letter,-1.0,False,36,1
SK-K-24K24S2,1342,experiment,87,→,right,→,0.5772578001488,True,36,1
SK-K-24K24S2,1343,experiment,53,↑,up,↑,0.5602146999444813,True,36,1
SK-K-24K24S2,1344,experiment,94,→,right,→,0.6103155999444425,True,36,1
SK-K-24K24S2,1345,experiment,65,→,right,→,0.4426193998660892,True,36,1
SK-K-24K24S2,1346,experiment,55,←,left,←,0.4174492999445647,True,36,0
SK-K-24K24S2,1347,experiment,99,←,right,→,0.392617299919948,False,36,0
SK-K-24K24S2,1348,experiment,80,↓,down,↓,0.5942514000926167,True,36,0
SK-K-24K24S2,1349,experiment,50,↑,up,↑,0.5057048001326621,True,36,1
SK-K-24K24S2,1350,experiment,97,←,left,←,0.3925473999697715,True,36,1
SK-K-24K24S2,1351,experiment,69,↑,up,↑,0.4778386000543833,True,36,0
SK-K-24K24S2,1352,experiment,98,←,left,←,0.5136363999918103,True,36,1
SK-K-24K24S2,1353,experiment,59,↑,up,↑,0.5929842998739332,True,36,1
SK-K-24K24S2,1354,experiment,74,←,no_key,no_letter,-1.0,False,36,1
SK-K-24K24S2,1355,experiment,48,→,right,→,0.3925828000064939,True,36,1
SK-K-24K24S2,1356,experiment,64,→,left,←,0.5638943000230938,False,36,0
SK-K-24K24S2,1357,experiment,52,↓,left,←,0.643570699961856,False,36,1
SK-K-24K24S2,1358,experiment,106,↑,down,↓,1.0063446999993175,False,36,1
SK-K-24K24S2,1359,experiment,72,→,right,→,0.5095150999259204,True,36,1
SK-K-24K24S2,1360,experiment,83,←,right,→,0.5252245999872684,False,36,1
SK-K-24K24S2,1361,experiment,102,←,left,←,0.335131699917838,True,36,1
SK-K-24K24S2,1362,experiment,71,↑,up,↑,0.6080553000792861,True,36,0
SK-K-24K24S2,1363,experiment,91,↑,up,↑,0.5452199000865221,True,36,1
SK-K-24K24S2,1364,training,52,←,left,←,0.38341229991056025,True,36,0
SK-K-24K24S2,1365,training,58,↑,up,↑,0.7757572000846267,True,36,0
SK-K-24K24S2,1366,experiment,67,←,left,←,0.3509581999387592,True,36,1
SK-K-24K24S2,1367,experiment,105,↑,down,↓,0.6804319000802934,False,36,0
SK-K-24K24S2,1368,experiment,51,←,left,←,0.57998579996638,True,36,1
SK-K-24K24S2,1369,experiment,55,→,left,←,0.44156199996359646,False,36,1
SK-K-24K24S2,1370,experiment,77,→,right,→,0.47033299994654953,True,36,0
SK-K-24K24S2,1371,experiment,81,←,left,←,0.37650459981523454,True,36,0
SK-K-24K24S2,1372,experiment,95,←,left,←,0.325715399812907,True,36,0
SK-K-24K24S2,1373,experiment,97,↓,right,→,0.33408820000477135,False,36,0
SK-K-24K24S2,1374,experiment,66,←,left,←,0.4005875999573618,True,36,0
SK-K-24K24S2,1375,experiment,82,←,left,←,0.3840933998581022,True,36,0
SK-K-24K24S2,1376,experiment,100,←,left,←,0.41698139999061823,True,36,0
SK-K-24K24S2,1377,experiment,103,↓,down,↓,0.5421736999414861,True,36,0
SK-K-24K24S2,1378,experiment,87,↓,down,↓,0.8591068999376148,True,36,1
SK-K-24K24S2,1379,experiment,53,↓,down,↓,0.35917080007493496,True,36,1
SK-K-24K24S2,1380,experiment,101,←,left,←,0.42576390015892684,True,36,0
SK-K-24K24S2,1381,experiment,107,↓,down,↓,0.42541570006869733,True,36,0
SK-K-24K24S2,1382,experiment,72,↓,down,↓,0.5191492999438196,True,36,0
SK-K-24K24S2,1383,experiment,80,←,left,←,0.3996502000372857,True,36,1
SK-K-24K24S2,1384,experiment,68,↑,up,↑,0.5283055000472814,True,36,0
SK-K-24K24S2,1385,experiment,61,↓,down,↓,0.47109370003454387,True,36,1
SK-K-24K24S2,1386,experiment,102,↑,down,↓,0.45095330011099577,False,36,1
SK-K-24K24S2,1387,experiment,78,↑,left,←,0.4507712998893112,False,36,0
SK-K-24K24S2,1388,experiment,89,↓,down,↓,0.425549800042063,True,36,0
SK-K-24K24S2,1389,experiment,76,↑,down,↓,0.4083965001627803,False,36,0
SK-K-24K24S2,1390,experiment,92,↓,down,↓,0.3921379998791963,True,36,0
SK-K-24K24S2,1391,experiment,65,↑,right,→,0.5080254001077265,False,36,0
SK-K-24K24S2,1392,experiment,69,↓,down,↓,0.3591803000308573,True,36,1
SK-K-24K24S2,1393,experiment,88,↓,down,↓,0.49246220011264086,True,36,0
SK-K-24K24S2,1394,experiment,108,↓,down,↓,0.4423209000378847,True,36,1
SK-K-24K24S2,1395,experiment,49,↑,up,↑,0.6498029001522809,True,36,0
SK-K-24K24S2,1396,experiment,93,→,right,→,0.5843171000014991,True,36,1
SK-K-24K24S2,1397,experiment,84,↑,up,↑,0.4774223000276834,True,36,1
SK-K-24K24S2,1398,experiment,71,←,left,←,0.43318010005168617,True,36,1
SK-K-24K24S2,1399,experiment,91,↓,right,→,0.4342406000941992,False,36,0
SK-K-24K24S2,1400,experiment,57,→,left,←,0.48465909995138645,False,36,0
SK-K-24K24S2,1401,experiment,73,→,right,→,0.43471110006794333,True,36,1
SK-K-24K24S2,1402,experiment,56,↑,up,↑,0.5478328999597579,True,36,0
SK-K-24K24S2,1403,experiment,106,→,right,→,0.408947299933061,True,36,1
SK-K-24K24S2,1404,experiment,48,→,left,←,0.7853013998828828,False,36,0
SK-K-24K24S2,1405,experiment,70,↑,left,←,0.5783644998446107,False,36,1
SK-K-24K24S2,1406,experiment,85,↓,right,→,0.4867574998643249,False,36,1
SK-K-24K24S2,1407,experiment,86,↓,down,↓,0.5346901998855174,True,36,1
SK-K-24K24S2,1408,experiment,83,↑,no_key,no_letter,-1.0,False,36,1
SK-K-24K24S2,1409,experiment,54,←,left,←,0.5082894000224769,True,36,1
SK-K-24K24S2,1410,experiment,62,→,left,←,0.42558549996465445,False,36,1
SK-K-24K24S2,1411,experiment,60,↑,up,↑,0.5334719999227673,True,36,0
SK-K-24K24S2,1412,experiment,75,↓,down,↓,0.4793416000902653,True,36,1
SK-K-24K24S2,1413,experiment,50,↓,down,↓,0.38403790001757443,True,36,1
SK-K-24K24S2,1414,experiment,104,←,left,←,0.42573060002177954,True,36,0
SK-K-24K24S2,1415,experiment,96,→,left,←,0.6222370001487434,False,36,0
SK-K-24K24S2,1416,experiment,58,↓,no_key,no_letter,-1.0,False,36,1
SK-K-24K24S2,1417,experiment,52,↑,up,↑,0.5613367001060396,True,36,1
SK-K-24K24S2,1418,experiment,74,↑,up,↑,0.5219931998290122,True,36,1
SK-K-24K24S2,1419,experiment,98,→,left,←,0.6681341999210417,False,36,1
SK-K-24K24S2,1420,experiment,90,←,left,←,0.3260344001464546,True,36,1
SK-K-24K24S2,1421,experiment,94,→,right,→,0.42570340004749596,True,36,0
SK-K-24K24S2,1422,experiment,79,←,left,←,0.39217899995855987,True,36,0
SK-K-24K24S2,1423,experiment,99,→,right,→,0.4506190000101924,True,36,0
SK-K-24K24S2,1424,experiment,64,↑,up,↑,0.4893920999020338,True,36,0
SK-K-24K24S2,1425,experiment,63,←,left,←,0.47278249985538423,True,36,1
SK-K-24K24S2,1426,experiment,59,↑,up,↑,0.4822413001675159,True,36,1
SK-K-24K24S2,1427,training,71,←,no_key,no_letter,-1.0,False,36,0
SK-K-24K24S2,1428,training,58,→,right,→,0.47921730019152164,True,36,1
SK-K-24K24S2,1429,experiment,71,↓,down,↓,0.442938000196591,True,36,1
SK-K-24K24S2,1430,experiment,66,→,right,→,0.36731700017116964,True,36,0
SK-K-24K24S2,1431,experiment,96,↓,down,↓,0.44181769993156195,True,36,0
SK-K-24K24S2,1432,experiment,69,←,left,←,0.4677646001800895,True,36,0
SK-K-24K24S2,1433,experiment,57,↓,down,↓,0.42556789983063936,True,36,0
SK-K-24K24S2,1434,experiment,94,↑,down,↓,0.5561137001495808,False,36,0
SK-K-24K24S2,1435,experiment,93,↓,left,←,0.4507450999226421,False,36,1
SK-K-24K24S2,1436,experiment,50,←,left,←,0.48384969984181225,True,36,0
SK-K-24K24S2,1437,experiment,63,↑,up,↑,0.5147306001745164,True,36,1
SK-K-24K24S2,1438,experiment,97,→,right,→,0.39236340019851923,True,36,1
SK-K-24K24S2,1439,experiment,65,←,left,←,0.40894249989651144,True,36,0
