PART_ID,Trial_no,Trial_type,CSI,Stim_letter,Key_pressed,letter_choose,Rt,Corr,Stimulus Time,nDropped
SK-K-24K24S1,1,training,120,←,no_key,no_letter,-1.0,False,60,0
SK-K-24K24S1,2,training,120,←,left,←,0.7199566001072526,True,60,0
SK-K-24K24S1,3,training,120,↑,right,→,0.35203239996917546,False,60,0
SK-K-24K24S1,4,training,120,↑,up,↑,0.5020322999916971,True,60,0
SK-K-24K24S1,5,training,120,→,right,→,0.550699400017038,True,60,0
SK-K-24K24S1,6,training,120,↑,up,↑,0.8481188998557627,True,60,0
SK-K-24K24S1,7,training,120,↓,down,↓,0.7653133999556303,True,60,0
SK-K-24K24S1,8,training,120,↓,down,↓,0.6703675000462681,True,60,0
SK-K-24K24S1,9,training,120,→,right,→,0.5753448999021202,True,60,0
SK-K-24K24S1,10,training,120,←,left,←,0.47705550002865493,True,60,0
SK-K-24K24S1,11,training,120,←,right,→,0.4686733998823911,False,60,0
SK-K-24K24S1,12,training,120,→,right,→,0.7281693001277745,True,60,0
SK-K-24K24S1,13,training,120,↓,down,↓,1.2098266000393778,True,60,0
SK-K-24K24S1,14,training,120,→,right,→,1.720144199905917,True,60,0
SK-K-24K24S1,15,training,120,→,right,→,0.8742599999532104,True,60,0
SK-K-24K24S1,16,training,120,↑,up,↑,1.686316299950704,True,60,0
SK-K-24K24S1,17,training,120,↑,up,↑,0.6903263998683542,True,60,0
SK-K-24K24S1,18,training,120,↓,down,↓,0.6175919999368489,True,60,0
SK-K-24K24S1,19,training,120,↑,up,↑,1.1639531999826431,True,60,0
SK-K-24K24S1,20,training,120,↑,up,↑,0.9238875999581069,True,60,0
SK-K-24K24S1,21,no_adaptation,120,←,left,←,0.47538929991424084,True,36,0
SK-K-24K24S1,22,no_adaptation,120,→,right,→,0.4173441999591887,True,36,0
SK-K-24K24S1,23,no_adaptation,120,↑,up,↑,1.1161807000171393,True,36,0
SK-K-24K24S1,24,no_adaptation,120,←,left,←,0.6625037000048906,True,36,0
SK-K-24K24S1,25,no_adaptation,120,↑,up,↑,0.8749637000728399,True,36,0
SK-K-24K24S1,26,no_adaptation,120,←,left,←,0.6632135999388993,True,36,0
SK-K-24K24S1,27,no_adaptation,120,↓,down,↓,0.6836289998609573,True,36,0
SK-K-24K24S1,28,no_adaptation,120,↑,up,↑,0.8155761000234634,True,36,0
SK-K-24K24S1,29,no_adaptation,120,↑,up,↑,0.8142825998365879,True,36,0
SK-K-24K24S1,30,no_adaptation,120,→,left,←,0.636893100105226,False,36,0
SK-K-24K24S1,31,no_adaptation,120,↓,down,↓,0.7300456999801099,True,36,0
SK-K-24K24S1,32,no_adaptation,120,←,left,←,0.6679374999366701,True,36,0
SK-K-24K24S1,33,no_adaptation,120,←,left,←,0.6242857999168336,True,36,0
SK-K-24K24S1,34,no_adaptation,120,↑,up,↑,0.910583300050348,True,36,0
SK-K-24K24S1,35,no_adaptation,120,←,left,←,0.5690198000520468,True,36,0
SK-K-24K24S1,36,no_adaptation,120,↑,up,↑,0.9612219999544322,True,36,0
SK-K-24K24S1,37,no_adaptation,120,↑,up,↑,0.817923900205642,True,36,0
SK-K-24K24S1,38,no_adaptation,120,→,right,→,0.6884123999625444,True,36,0
SK-K-24K24S1,39,no_adaptation,120,→,right,→,0.8518427999224514,True,36,0
SK-K-24K24S1,40,no_adaptation,120,↑,up,↑,0.8724742000922561,True,36,0
SK-K-24K24S1,41,training,61,←,left,←,0.7207024998497218,True,36,0
SK-K-24K24S1,42,training,85,↑,up,↑,0.9347997000440955,True,36,1
SK-K-24K24S1,43,experiment,48,←,left,←,0.6813219001051039,True,36,1
SK-K-24K24S1,44,experiment,57,↓,down,↓,0.6587204998359084,True,36,1
SK-K-24K24S1,45,experiment,51,→,right,→,0.9034180999733508,True,36,1
SK-K-24K24S1,46,experiment,93,←,left,←,0.7318249999079853,True,36,1
SK-K-24K24S1,47,experiment,97,↓,down,↓,0.7179096001200378,True,36,1
SK-K-24K24S1,48,experiment,100,↑,up,↑,0.8075548000633717,True,36,1
SK-K-24K24S1,49,experiment,84,→,right,→,0.6588628001045436,True,36,1
SK-K-24K24S1,50,experiment,52,←,left,←,0.8233639001846313,True,36,1
SK-K-24K24S1,51,experiment,60,→,right,→,0.6498593001160771,True,36,1
SK-K-24K24S1,52,experiment,82,→,right,→,0.6440872999373823,True,36,1
SK-K-24K24S1,53,experiment,76,→,right,→,0.6887505000922829,True,36,1
SK-K-24K24S1,54,experiment,87,↑,up,↑,0.8078703000210226,True,36,1
SK-K-24K24S1,55,experiment,99,↓,down,↓,0.7102014999836683,True,36,1
SK-K-24K24S1,56,experiment,71,←,left,←,0.6577737999614328,True,36,1
SK-K-24K24S1,57,experiment,63,↑,up,↑,0.6822642998304218,True,36,1
SK-K-24K24S1,58,experiment,98,↑,left,←,0.8221332000102848,False,36,1
SK-K-24K24S1,59,experiment,96,→,right,→,0.6688224000390619,True,36,1
SK-K-24K24S1,60,experiment,56,←,left,←,0.7271836001891643,True,36,1
SK-K-24K24S1,61,experiment,75,←,left,←,0.656944900052622,True,36,1
SK-K-24K24S1,62,experiment,53,←,left,←,0.660680599976331,True,36,1
SK-K-24K24S1,63,experiment,83,↑,up,↑,0.8142884999979287,True,36,1
SK-K-24K24S1,64,experiment,66,↑,up,↑,0.8639134999830276,True,36,1
SK-K-24K24S1,65,experiment,67,↓,down,↓,0.7739629000425339,True,36,1
SK-K-24K24S1,66,experiment,91,↑,left,←,0.840462600113824,False,36,1
SK-K-24K24S1,67,experiment,89,←,left,←,0.6805954000446945,True,36,1
SK-K-24K24S1,68,experiment,103,↑,up,↑,0.7466596998274326,True,36,1
SK-K-24K24S1,69,experiment,88,↑,up,↑,0.7515249000862241,True,36,1
SK-K-24K24S1,70,experiment,55,↓,down,↓,0.6787918999325484,True,36,1
SK-K-24K24S1,71,experiment,50,↑,up,↑,0.8430511001497507,True,36,1
SK-K-24K24S1,72,experiment,59,→,left,←,0.7172008999623358,False,36,1
SK-K-24K24S1,73,experiment,64,↓,down,↓,0.9950598001014441,True,36,1
SK-K-24K24S1,74,experiment,49,↓,down,↓,0.8186147999949753,True,36,1
SK-K-24K24S1,75,experiment,86,←,left,←,0.757012200076133,True,36,1
SK-K-24K24S1,76,experiment,79,↓,down,↓,0.7399917000439018,True,36,1
SK-K-24K24S1,77,experiment,85,→,right,→,0.6417258998844773,True,36,1
SK-K-24K24S1,78,experiment,74,←,left,←,0.7113278000615537,True,36,1
SK-K-24K24S1,79,experiment,104,→,right,→,0.7279407999012619,True,36,1
SK-K-24K24S1,80,experiment,65,↓,down,↓,1.0128132000099868,True,36,1
SK-K-24K24S1,81,experiment,92,→,left,←,0.9172090000938624,False,36,1
SK-K-24K24S1,82,experiment,72,←,left,←,0.6881904997862875,True,36,1
SK-K-24K24S1,83,experiment,61,→,left,←,0.6559722998645157,False,36,1
SK-K-24K24S1,84,experiment,73,→,right,→,0.7410703001078218,True,36,1
SK-K-24K24S1,85,experiment,78,↓,down,↓,0.6368655001278967,True,36,1
SK-K-24K24S1,86,experiment,70,←,left,←,0.6924165000673383,True,36,1
SK-K-24K24S1,87,experiment,80,←,left,←,0.6934466999955475,True,36,1
SK-K-24K24S1,88,experiment,54,←,left,←,0.5754102000501007,True,36,1
SK-K-24K24S1,89,experiment,107,←,left,←,0.5324623000342399,True,36,1
SK-K-24K24S1,90,experiment,101,↑,up,↑,0.693294599885121,True,36,1
SK-K-24K24S1,91,experiment,62,←,left,←,0.7090221999678761,True,36,1
SK-K-24K24S1,92,experiment,69,↑,up,↑,0.8410286998841912,True,36,1
SK-K-24K24S1,93,experiment,102,←,left,←,0.6210547001101077,True,36,1
SK-K-24K24S1,94,experiment,58,→,right,→,0.49646759987808764,True,36,1
SK-K-24K24S1,95,experiment,94,→,left,←,0.8931575999595225,False,36,1
SK-K-24K24S1,96,experiment,108,↑,up,↑,0.821197000099346,True,36,1
SK-K-24K24S1,97,experiment,105,↑,up,↑,0.7211565000470728,True,36,1
SK-K-24K24S1,98,experiment,77,←,left,←,0.578347299946472,True,36,1
SK-K-24K24S1,99,experiment,95,↑,up,↑,0.706771899946034,True,36,1
SK-K-24K24S1,100,experiment,68,↓,up,↑,0.863575299968943,False,36,1
SK-K-24K24S1,101,experiment,90,↑,up,↑,0.7353209001012146,True,36,1
SK-K-24K24S1,102,experiment,81,←,left,←,0.9419136999640614,True,36,1
SK-K-24K24S1,103,experiment,106,↓,down,↓,0.9167289999313653,True,36,1
SK-K-24K24S1,104,training,105,↑,up,↑,0.9155073999427259,True,36,0
SK-K-24K24S1,105,training,61,↑,up,↑,0.7860520000103861,True,36,1
SK-K-24K24S1,106,experiment,73,→,right,→,0.6422427000943571,True,36,1
SK-K-24K24S1,107,experiment,55,←,left,←,0.6777406001929194,True,36,1
SK-K-24K24S1,108,experiment,104,↑,up,↑,0.7597643998451531,True,36,1
SK-K-24K24S1,109,experiment,68,→,right,→,0.6985025000758469,True,36,1
SK-K-24K24S1,110,experiment,93,↑,up,↑,0.9110882999375463,True,36,1
SK-K-24K24S1,111,experiment,85,↓,down,↓,0.7662899000570178,True,36,1
SK-K-24K24S1,112,experiment,106,→,left,←,0.5801200000569224,False,36,1
SK-K-24K24S1,113,experiment,86,↑,down,↓,0.8157029999420047,False,36,1
SK-K-24K24S1,114,experiment,105,←,left,←,0.5636104999575764,True,36,1
SK-K-24K24S1,115,experiment,77,↑,up,↑,0.7789876000024378,True,36,1
SK-K-24K24S1,116,experiment,52,→,left,←,0.8737537001725286,False,36,1
SK-K-24K24S1,117,experiment,63,←,left,←,0.8657281999476254,True,36,1
SK-K-24K24S1,118,experiment,65,→,right,→,0.8492233001161367,True,36,1
SK-K-24K24S1,119,experiment,101,→,right,→,0.6611800000537187,True,36,1
SK-K-24K24S1,120,experiment,89,↑,up,↑,0.7170675999950618,True,36,1
SK-K-24K24S1,121,experiment,107,↑,up,↑,0.708097199909389,True,36,1
SK-K-24K24S1,122,experiment,87,←,left,←,0.7704437000211328,True,36,1
SK-K-24K24S1,123,experiment,56,↓,down,↓,0.7210979000665247,True,36,1
SK-K-24K24S1,124,experiment,83,↓,down,↓,0.6722915000282228,True,36,1
SK-K-24K24S1,125,experiment,82,↓,down,↓,0.6975487000308931,True,36,1
SK-K-24K24S1,126,experiment,102,←,left,←,0.6675013999920338,True,36,1
SK-K-24K24S1,127,experiment,69,↓,down,↓,0.7455761998426169,True,36,1
SK-K-24K24S1,128,experiment,59,←,left,←,0.6877838999498636,True,36,1
SK-K-24K24S1,129,experiment,92,←,left,←,0.6455965000204742,True,36,1
SK-K-24K24S1,130,experiment,88,←,right,→,0.542879399843514,False,36,1
SK-K-24K24S1,131,experiment,76,↓,down,↓,0.6630911000538617,True,36,1
SK-K-24K24S1,132,experiment,71,→,right,→,0.6200726001989096,True,36,1
SK-K-24K24S1,133,experiment,84,→,right,→,0.6796210000757128,True,36,1
SK-K-24K24S1,134,experiment,53,→,right,→,0.6665662000887096,True,36,1
SK-K-24K24S1,135,experiment,67,↓,down,↓,0.6649992000311613,True,36,1
SK-K-24K24S1,136,experiment,50,↓,down,↓,0.6136145000346005,True,36,1
SK-K-24K24S1,137,experiment,62,←,left,←,0.6084497000556439,True,36,1
SK-K-24K24S1,138,experiment,48,→,right,→,0.6554044999647886,True,36,1
SK-K-24K24S1,139,experiment,60,↓,down,↓,1.592996200080961,True,36,1
SK-K-24K24S1,140,experiment,80,→,right,→,1.0463076001033187,True,36,1
SK-K-24K24S1,141,experiment,78,←,left,←,0.737811699975282,True,36,1
SK-K-24K24S1,142,experiment,99,→,right,→,0.6191549999639392,True,36,1
SK-K-24K24S1,143,experiment,51,↓,down,↓,0.6726500000804663,True,36,1
SK-K-24K24S1,144,experiment,49,↑,up,↑,0.853148200083524,True,36,1
SK-K-24K24S1,145,experiment,100,↑,up,↑,1.737609300063923,True,36,1
SK-K-24K24S1,146,experiment,72,→,left,←,0.7316001998260617,False,36,1
SK-K-24K24S1,147,experiment,94,←,left,←,0.7104998999275267,True,36,1
SK-K-24K24S1,148,experiment,61,←,left,←,0.6142827000003308,True,36,1
SK-K-24K24S1,149,experiment,58,←,left,←,0.5213667000643909,True,36,1
SK-K-24K24S1,150,experiment,91,→,right,→,0.6219138000160456,True,36,1
SK-K-24K24S1,151,experiment,66,↓,down,↓,0.7346157000865787,True,36,1
SK-K-24K24S1,152,experiment,90,↓,down,↓,0.5708079999312758,True,36,1
SK-K-24K24S1,153,experiment,95,→,left,←,0.571961399866268,False,36,1
SK-K-24K24S1,154,experiment,64,↓,down,↓,0.6314397000242025,True,36,1
SK-K-24K24S1,155,experiment,108,↑,up,↑,0.9460603999905288,True,36,1
SK-K-24K24S1,156,experiment,54,←,left,←,0.6019341999199241,True,36,1
SK-K-24K24S1,157,experiment,96,↑,up,↑,0.7535971999168396,True,36,1
SK-K-24K24S1,158,experiment,74,←,left,←,0.5865991001483053,True,36,1
SK-K-24K24S1,159,experiment,75,↑,up,↑,0.8337458001915365,True,36,1
SK-K-24K24S1,160,experiment,81,→,right,→,0.7891526999883354,True,36,1
SK-K-24K24S1,161,experiment,103,→,right,→,0.7709684001747519,True,36,1
SK-K-24K24S1,162,experiment,79,→,right,→,0.7858766000717878,True,36,1
SK-K-24K24S1,163,experiment,57,↑,up,↑,0.7909764000214636,True,36,1
SK-K-24K24S1,164,experiment,98,↓,down,↓,0.7262581000104547,True,36,1
SK-K-24K24S1,165,experiment,70,→,right,→,0.6817428001668304,True,36,1
SK-K-24K24S1,166,experiment,97,↓,down,↓,0.8296370001044124,True,36,1
SK-K-24K24S1,167,training,68,↓,down,↓,0.7020497000776231,True,35,0
SK-K-24K24S1,168,training,91,↓,down,↓,0.7791292001493275,True,35,1
SK-K-24K24S1,169,experiment,81,→,right,→,0.5447363001294434,True,35,1
SK-K-24K24S1,170,experiment,64,←,left,←,0.7099238000810146,True,35,1
SK-K-24K24S1,171,experiment,102,→,right,→,0.7026338998693973,True,35,1
SK-K-24K24S1,172,experiment,56,↑,up,↑,1.0318728000856936,True,35,1
SK-K-24K24S1,173,experiment,66,↓,down,↓,0.8482621000148356,True,35,1
SK-K-24K24S1,174,experiment,84,↑,up,↑,0.7135866999160498,True,35,1
SK-K-24K24S1,175,experiment,60,↓,down,↓,0.8648371000308543,True,35,1
SK-K-24K24S1,176,experiment,73,←,right,→,0.7659273000899702,False,35,1
SK-K-24K24S1,177,experiment,52,↑,down,↓,0.965290600201115,False,35,1
SK-K-24K24S1,178,experiment,108,↑,up,↑,0.7061580999288708,True,35,1
SK-K-24K24S1,179,experiment,104,↑,up,↑,0.6268174999859184,True,35,1
SK-K-24K24S1,180,experiment,61,←,left,←,0.7250145999714732,True,35,1
SK-K-24K24S1,181,experiment,51,↓,down,↓,0.7035419000312686,True,35,1
SK-K-24K24S1,182,experiment,69,→,right,→,0.7156436000950634,True,35,1
SK-K-24K24S1,183,experiment,91,↓,down,↓,0.6885583000257611,True,35,1
SK-K-24K24S1,184,experiment,68,↓,down,↓,0.6777623000089079,True,35,1
SK-K-24K24S1,185,experiment,93,→,down,↓,0.8436809999402612,False,35,1
SK-K-24K24S1,186,experiment,78,↑,right,→,1.2554500000551343,False,35,1
SK-K-24K24S1,187,experiment,83,←,left,←,0.777374500175938,True,35,1
SK-K-24K24S1,188,experiment,53,←,left,←,0.8002357999794185,True,35,1
SK-K-24K24S1,189,experiment,74,→,right,→,0.7114721999969333,True,35,1
SK-K-24K24S1,190,experiment,100,↑,up,↑,0.8654741998761892,True,35,1
SK-K-24K24S1,191,experiment,82,↑,up,↑,0.7469689999707043,True,35,1
SK-K-24K24S1,192,experiment,101,←,left,←,0.835046699969098,True,35,1
SK-K-24K24S1,193,experiment,65,↑,left,←,0.5636567000765353,False,35,1
SK-K-24K24S1,194,experiment,75,↑,up,↑,0.7879735000897199,True,35,1
SK-K-24K24S1,195,experiment,50,↑,up,↑,0.7077099999878556,True,35,1
SK-K-24K24S1,196,experiment,70,↑,left,←,0.623446699930355,False,35,1
SK-K-24K24S1,197,experiment,85,↓,right,→,0.7698669000528753,False,35,1
SK-K-24K24S1,198,experiment,59,↑,left,←,0.927273300010711,False,35,1
SK-K-24K24S1,199,experiment,49,←,right,→,1.6418384998105466,False,35,1
SK-K-24K24S1,200,experiment,89,↓,down,↓,0.8899058999959379,True,35,1
SK-K-24K24S1,201,experiment,87,→,left,←,1.12911789980717,False,35,1
SK-K-24K24S1,202,experiment,62,↓,right,→,1.0786679999437183,False,35,1
SK-K-24K24S1,203,experiment,106,←,left,←,1.0799102000892162,True,35,1
SK-K-24K24S1,204,experiment,72,↑,left,←,0.9322486999444664,False,35,1
SK-K-24K24S1,205,experiment,105,→,left,←,0.9312943001277745,False,35,1
SK-K-24K24S1,206,experiment,77,↓,down,↓,0.8921856000088155,True,35,1
SK-K-24K24S1,207,experiment,92,↓,down,↓,0.9458059000317007,True,35,1
SK-K-24K24S1,208,experiment,54,→,left,←,0.9374196000862867,False,35,1
SK-K-24K24S1,209,experiment,88,→,left,←,0.8862316000740975,False,35,1
SK-K-24K24S1,210,experiment,71,↑,up,↑,0.9228779999539256,True,35,1
SK-K-24K24S1,211,experiment,97,→,right,→,0.7812693000305444,True,35,1
SK-K-24K24S1,212,experiment,99,←,left,←,0.7888011999893934,True,35,1
SK-K-24K24S1,213,experiment,107,→,right,→,0.7447551998775452,True,35,1
SK-K-24K24S1,214,experiment,96,↓,down,↓,1.4269079000223428,True,35,1
SK-K-24K24S1,215,experiment,94,↑,up,↑,0.95450450014323,True,35,1
SK-K-24K24S1,216,experiment,48,→,right,→,0.7234889999963343,True,35,1
SK-K-24K24S1,217,experiment,58,↑,down,↓,0.7950327999424189,False,35,1
SK-K-24K24S1,218,experiment,103,←,left,←,0.7606142000295222,True,35,1
SK-K-24K24S1,219,experiment,79,↓,left,←,1.351605199975893,False,35,1
SK-K-24K24S1,220,experiment,80,↑,up,↑,0.9665749999694526,True,35,1
SK-K-24K24S1,221,experiment,57,↑,up,↑,0.8446502999868244,True,35,1
SK-K-24K24S1,222,experiment,90,←,right,→,0.7167022000066936,False,35,1
SK-K-24K24S1,223,experiment,63,→,right,→,0.6828638999722898,True,35,1
SK-K-24K24S1,224,experiment,86,→,right,→,0.7785944000352174,True,35,1
SK-K-24K24S1,225,experiment,55,↓,down,↓,0.8727961999829859,True,35,1
SK-K-24K24S1,226,experiment,95,←,left,←,0.6537063999567181,True,35,1
SK-K-24K24S1,227,experiment,76,←,left,←,0.7387843001633883,True,35,1
SK-K-24K24S1,228,experiment,67,↓,down,↓,0.9258670001290739,True,35,1
SK-K-24K24S1,229,experiment,98,↓,down,↓,0.887839499861002,True,35,1
SK-K-24K24S1,230,training,103,↓,down,↓,0.8056941998656839,True,35,0
SK-K-24K24S1,231,training,77,↓,down,↓,0.8352422001771629,True,35,1
SK-K-24K24S1,232,experiment,65,→,right,→,0.6200747999828309,True,35,1
SK-K-24K24S1,233,experiment,108,→,right,→,0.6871171998791397,True,35,1
SK-K-24K24S1,234,experiment,58,→,right,→,0.6479799000080675,True,35,1
SK-K-24K24S1,235,experiment,57,→,right,→,0.666911100037396,True,35,1
SK-K-24K24S1,236,experiment,71,↑,up,↑,0.8723050002008677,True,35,1
SK-K-24K24S1,237,experiment,80,↑,up,↑,0.8101375000551343,True,35,1
SK-K-24K24S1,238,experiment,85,↑,up,↑,0.7970991998445243,True,35,1
SK-K-24K24S1,239,experiment,83,←,right,→,0.6651751999743283,False,35,1
SK-K-24K24S1,240,experiment,94,↓,down,↓,0.6870595999062061,True,35,1
SK-K-24K24S1,241,experiment,92,↓,down,↓,1.0207678000442684,True,35,1
SK-K-24K24S1,242,experiment,88,↓,down,↓,0.7341787999030203,True,35,1
SK-K-24K24S1,243,experiment,104,←,left,←,0.7178738999646157,True,35,1
SK-K-24K24S1,244,experiment,79,→,left,←,1.5106929000467062,False,35,1
SK-K-24K24S1,245,experiment,95,↑,up,↑,0.8902925001457334,True,35,1
SK-K-24K24S1,246,experiment,106,↓,down,↓,0.7708431000355631,True,35,1
SK-K-24K24S1,247,experiment,55,←,left,←,0.7934489001054317,True,35,1
SK-K-24K24S1,248,experiment,89,→,left,←,1.2437826001551002,False,35,1
SK-K-24K24S1,249,experiment,52,←,left,←,0.7521895999088883,True,35,1
SK-K-24K24S1,250,experiment,91,↓,down,↓,0.7238010999280959,True,35,1
SK-K-24K24S1,251,experiment,93,↑,down,↓,0.6633790999185294,False,35,1
SK-K-24K24S1,252,experiment,96,→,right,→,0.732322100084275,True,35,1
SK-K-24K24S1,253,experiment,50,→,left,←,0.9743281998671591,False,35,1
SK-K-24K24S1,254,experiment,102,↑,down,↓,0.7565973999444395,False,35,1
SK-K-24K24S1,255,experiment,59,→,right,→,0.5465669000986964,True,35,1
SK-K-24K24S1,256,experiment,70,↑,up,↑,0.8688149999361485,True,35,1
SK-K-24K24S1,257,experiment,99,↓,left,←,0.8327945999335498,False,35,1
SK-K-24K24S1,258,experiment,72,↑,up,↑,0.8152230000123382,True,35,1
SK-K-24K24S1,259,experiment,53,↑,up,↑,0.7724786000326276,True,35,1
SK-K-24K24S1,260,experiment,90,↓,down,↓,0.8631476999726146,True,35,1
SK-K-24K24S1,261,experiment,100,←,left,←,0.5708574000746012,True,35,1
SK-K-24K24S1,262,experiment,86,↑,up,↑,0.7190218002069741,True,35,1
SK-K-24K24S1,263,experiment,84,↓,up,↑,0.8781656001228839,False,35,1
SK-K-24K24S1,264,experiment,68,→,right,→,0.6759554999880493,True,35,1
SK-K-24K24S1,265,experiment,60,→,right,→,0.7891069001052529,True,35,1
SK-K-24K24S1,266,experiment,63,↑,up,↑,0.8638081999961287,True,35,1
SK-K-24K24S1,267,experiment,74,→,right,→,0.7242825999855995,True,35,1
SK-K-24K24S1,268,experiment,105,←,left,←,0.7159066000021994,True,35,1
SK-K-24K24S1,269,experiment,103,→,right,→,0.7726974000688642,True,35,1
SK-K-24K24S1,270,experiment,49,↓,down,↓,0.7652056000661105,True,35,1
SK-K-24K24S1,271,experiment,62,↑,up,↑,0.7773882001638412,True,35,1
SK-K-24K24S1,272,experiment,54,←,left,←,0.8240416999906301,True,35,1
SK-K-24K24S1,273,experiment,61,↑,up,↑,0.7386141000315547,True,35,1
SK-K-24K24S1,274,experiment,73,←,left,←,0.6040707000065595,True,35,1
SK-K-24K24S1,275,experiment,64,←,left,←,0.7664888999424875,True,35,1
SK-K-24K24S1,276,experiment,56,→,right,→,0.5253391000442207,True,35,1
SK-K-24K24S1,277,experiment,75,←,right,→,0.6947518999222666,False,35,1
SK-K-24K24S1,278,experiment,51,↑,up,↑,0.7298145000822842,True,35,1
SK-K-24K24S1,279,experiment,107,→,left,←,0.544410299975425,False,35,1
SK-K-24K24S1,280,experiment,69,↑,up,↑,0.9155265998560935,True,35,1
SK-K-24K24S1,281,experiment,82,→,left,←,0.8672843999229372,False,35,1
SK-K-24K24S1,282,experiment,66,↑,up,↑,0.7942588999867439,True,35,1
SK-K-24K24S1,283,experiment,67,↑,up,↑,0.7163535000290722,True,35,1
SK-K-24K24S1,284,experiment,48,↑,up,↑,0.7271046999376267,True,35,1
SK-K-24K24S1,285,experiment,77,↓,down,↓,0.8402829000260681,True,35,1
SK-K-24K24S1,286,experiment,81,↑,up,↑,0.6592455999925733,True,35,1
SK-K-24K24S1,287,experiment,78,→,right,→,0.7824247998651117,True,35,1
SK-K-24K24S1,288,experiment,97,↑,up,↑,0.9108980998862535,True,35,1
SK-K-24K24S1,289,experiment,98,→,right,→,0.6492983000352979,True,35,1
SK-K-24K24S1,290,experiment,101,→,right,→,0.7498425000812858,True,35,1
SK-K-24K24S1,291,experiment,87,←,right,→,0.5777972000651062,False,35,1
SK-K-24K24S1,292,experiment,76,←,right,→,0.44265230000019073,False,35,1
SK-K-24K24S1,293,training,87,↑,up,↑,0.8816660998854786,True,35,0
SK-K-24K24S1,294,training,54,↓,down,↓,0.7481062998995185,True,35,1
SK-K-24K24S1,295,experiment,103,→,right,→,0.6832261001691222,True,35,1
SK-K-24K24S1,296,experiment,76,←,left,←,0.6863331999629736,True,35,1
SK-K-24K24S1,297,experiment,55,←,left,←,0.6803628001362085,True,35,1
SK-K-24K24S1,298,experiment,57,→,right,→,0.6497711001429707,True,35,1
SK-K-24K24S1,299,experiment,101,←,left,←,0.5179214999079704,True,35,1
SK-K-24K24S1,300,experiment,100,→,left,←,0.5355532998219132,False,35,1
SK-K-24K24S1,301,experiment,86,↓,right,→,1.0932203999254853,False,35,1
SK-K-24K24S1,302,experiment,77,←,left,←,0.7354493997991085,True,35,1
SK-K-24K24S1,303,experiment,107,→,right,→,0.6464091998059303,True,35,1
SK-K-24K24S1,304,experiment,89,↑,up,↑,1.430257299914956,True,35,1
SK-K-24K24S1,305,experiment,69,←,left,←,0.7177734000142664,True,35,1
SK-K-24K24S1,306,experiment,56,↑,up,↑,0.9979789000935853,True,35,1
SK-K-24K24S1,307,experiment,74,↑,up,↑,1.0049946000799537,True,35,1
SK-K-24K24S1,308,experiment,58,↑,up,↑,0.8573980000801384,True,35,1
SK-K-24K24S1,309,experiment,72,↑,up,↑,0.8867784000467509,True,35,1
SK-K-24K24S1,310,experiment,54,↑,up,↑,0.7610750000458211,True,35,1
SK-K-24K24S1,311,experiment,73,↑,down,↓,1.3141335998661816,False,35,1
SK-K-24K24S1,312,experiment,85,→,right,→,1.0006539998576045,True,35,1
SK-K-24K24S1,313,experiment,63,↑,up,↑,0.8273847000673413,True,35,1
SK-K-24K24S1,314,experiment,71,→,right,→,0.8345870000775903,True,35,1
SK-K-24K24S1,315,experiment,84,↓,no_key,no_letter,-1.0,False,35,1
SK-K-24K24S1,316,experiment,94,↑,up,↑,1.0145463000517339,True,35,1
SK-K-24K24S1,317,experiment,99,→,right,→,0.6847874000668526,True,35,1
SK-K-24K24S1,318,experiment,82,→,left,←,1.117674000095576,False,35,1
SK-K-24K24S1,319,experiment,105,→,right,→,0.7897611998487264,True,35,1
SK-K-24K24S1,320,experiment,50,↑,up,↑,0.9649541999679059,True,35,1
SK-K-24K24S1,321,experiment,61,↑,up,↑,0.5379207998048514,True,35,1
SK-K-24K24S1,322,experiment,48,→,right,→,0.4759150999598205,True,35,1
SK-K-24K24S1,323,experiment,95,↑,up,↑,0.6008045999333262,True,35,1
SK-K-24K24S1,324,experiment,91,→,right,→,0.8581328999716789,True,35,1
SK-K-24K24S1,325,experiment,52,↑,up,↑,0.6304275998845696,True,35,1
SK-K-24K24S1,326,experiment,106,→,right,→,0.7213522999081761,True,35,1
SK-K-24K24S1,327,experiment,67,↓,down,↓,0.6697710000444204,True,35,1
SK-K-24K24S1,328,experiment,60,→,right,→,0.8867498999461532,True,35,1
SK-K-24K24S1,329,experiment,97,←,right,→,0.9467982000205666,False,35,1
SK-K-24K24S1,330,experiment,64,↑,up,↑,0.959109399933368,True,35,1
SK-K-24K24S1,331,experiment,83,→,right,→,0.700751299969852,True,35,1
SK-K-24K24S1,332,experiment,92,↑,up,↑,0.8495529999490827,True,35,1
SK-K-24K24S1,333,experiment,65,←,left,←,0.7620548999402672,True,35,1
SK-K-24K24S1,334,experiment,79,↓,down,↓,0.7128535001538694,True,35,1
SK-K-24K24S1,335,experiment,66,↓,down,↓,0.670333500020206,True,35,1
SK-K-24K24S1,336,experiment,51,↑,down,↓,0.8822447001002729,False,35,1
SK-K-24K24S1,337,experiment,49,↓,down,↓,0.8063849001191556,True,35,1
SK-K-24K24S1,338,experiment,70,→,right,→,0.7347418998833746,True,35,1
SK-K-24K24S1,339,experiment,108,↑,up,↑,0.8287148999515921,True,35,1
SK-K-24K24S1,340,experiment,96,↓,down,↓,0.7554568001069129,True,35,1
SK-K-24K24S1,341,experiment,80,→,right,→,0.6343986999709159,True,35,1
SK-K-24K24S1,342,experiment,78,↑,left,←,0.6865364001132548,False,35,1
SK-K-24K24S1,343,experiment,81,↑,up,↑,1.7677553999237716,True,35,1
SK-K-24K24S1,344,experiment,104,↑,down,↓,1.0781058999709785,False,35,1
SK-K-24K24S1,345,experiment,53,→,right,→,0.7368762998376042,True,35,1
SK-K-24K24S1,346,experiment,90,↓,down,↓,0.6775589999742806,True,35,1
SK-K-24K24S1,347,experiment,62,←,left,←,0.7893475000746548,True,35,1
SK-K-24K24S1,348,experiment,88,↓,down,↓,0.8323860999662429,True,35,1
SK-K-24K24S1,349,experiment,68,←,right,→,0.839919599937275,False,35,1
SK-K-24K24S1,350,experiment,102,↓,down,↓,0.8043676998931915,True,35,1
SK-K-24K24S1,351,experiment,87,↑,down,↓,1.6947932001203299,False,35,1
SK-K-24K24S1,352,experiment,75,←,left,←,0.7535387000534683,True,35,1
SK-K-24K24S1,353,experiment,59,→,right,→,0.7355148999486119,True,35,1
SK-K-24K24S1,354,experiment,98,→,right,→,0.7534390999935567,True,35,1
SK-K-24K24S1,355,experiment,93,↑,up,↑,1.1239907999988645,True,35,1
SK-K-24K24S1,356,training,84,←,left,←,0.5852242999244481,True,35,0
SK-K-24K24S1,357,training,59,←,left,←,0.7257836000062525,True,35,1
SK-K-24K24S1,358,experiment,56,↑,up,↑,0.9344083999749273,True,35,1
SK-K-24K24S1,359,experiment,65,↑,up,↑,0.7631794000044465,True,35,1
SK-K-24K24S1,360,experiment,77,↑,up,↑,0.7146358999889344,True,35,1
SK-K-24K24S1,361,experiment,75,→,right,→,0.6682976998854429,True,35,1
SK-K-24K24S1,362,experiment,90,→,right,→,0.6436956999823451,True,35,1
SK-K-24K24S1,363,experiment,74,↓,down,↓,0.7370740999467671,True,35,1
SK-K-24K24S1,364,experiment,80,↑,up,↑,0.8965798001736403,True,35,1
SK-K-24K24S1,365,experiment,99,→,right,→,0.8036903999745846,True,35,1
SK-K-24K24S1,366,experiment,94,↓,down,↓,0.7157680001109838,True,35,1
SK-K-24K24S1,367,experiment,71,←,left,←,0.711020200047642,True,35,1
SK-K-24K24S1,368,experiment,84,→,right,→,0.48641030001454055,True,35,1
SK-K-24K24S1,369,experiment,83,↑,up,↑,0.8149468000046909,True,35,1
SK-K-24K24S1,370,experiment,59,↓,down,↓,0.7382965998258442,True,35,1
SK-K-24K24S1,371,experiment,53,←,left,←,0.714342099847272,True,35,1
SK-K-24K24S1,372,experiment,89,→,right,→,0.7999472999945283,True,35,1
SK-K-24K24S1,373,experiment,48,←,right,→,0.8157208000775427,False,35,1
SK-K-24K24S1,374,experiment,97,←,left,←,0.7102957000024617,True,35,1
SK-K-24K24S1,375,experiment,60,→,right,→,0.6937218999955803,True,35,1
SK-K-24K24S1,376,experiment,96,↓,down,↓,0.6976971998810768,True,35,1
SK-K-24K24S1,377,experiment,68,↑,no_key,no_letter,-1.0,False,35,1
SK-K-24K24S1,378,experiment,95,→,right,→,0.744222299894318,True,35,1
SK-K-24K24S1,379,experiment,107,↑,up,↑,1.286591500043869,True,35,1
SK-K-24K24S1,380,experiment,64,↓,down,↓,0.8856471001636237,True,35,1
SK-K-24K24S1,381,experiment,58,→,right,→,0.7986394001636654,True,35,1
SK-K-24K24S1,382,experiment,86,↑,up,↑,0.8495624999050051,True,35,1
SK-K-24K24S1,383,experiment,72,↓,right,→,0.8553536999970675,False,35,1
SK-K-24K24S1,384,experiment,108,↓,down,↓,0.8006641999818385,True,35,1
SK-K-24K24S1,385,experiment,61,←,left,←,0.7963068000972271,True,35,1
SK-K-24K24S1,386,experiment,66,→,right,→,0.6938088000752032,True,35,1
SK-K-24K24S1,387,experiment,78,→,right,→,0.7678759000264108,True,35,1
SK-K-24K24S1,388,experiment,87,↓,down,↓,0.6680267001502216,True,35,1
SK-K-24K24S1,389,experiment,104,↑,up,↑,0.9982088999822736,True,35,1
SK-K-24K24S1,390,experiment,81,→,right,→,0.49093850003555417,True,35,1
SK-K-24K24S1,391,experiment,82,←,left,←,0.6835372999776155,True,35,1
SK-K-24K24S1,392,experiment,106,→,right,→,0.8845283000264317,True,35,1
SK-K-24K24S1,393,experiment,57,←,left,←,0.7262892997823656,True,35,1
SK-K-24K24S1,394,experiment,105,↑,right,→,0.8458125998731703,False,35,1
SK-K-24K24S1,395,experiment,101,←,left,←,0.5617872001603246,True,35,1
SK-K-24K24S1,396,experiment,103,↑,up,↑,0.9206472998484969,True,35,1
SK-K-24K24S1,397,experiment,63,←,left,←,0.6464082000311464,True,35,1
SK-K-24K24S1,398,experiment,100,←,left,←,0.6832111000549048,True,35,1
SK-K-24K24S1,399,experiment,67,↑,up,↑,1.0250595000106841,True,35,1
SK-K-24K24S1,400,experiment,88,→,right,→,0.7387914001010358,True,35,1
SK-K-24K24S1,401,experiment,73,↑,up,↑,0.9721309999004006,True,35,1
SK-K-24K24S1,402,experiment,98,↑,up,↑,0.9963477998971939,True,35,1
SK-K-24K24S1,403,experiment,102,↓,down,↓,0.8338683999609202,True,35,1
SK-K-24K24S1,404,experiment,52,↓,down,↓,0.5589115000329912,True,35,1
SK-K-24K24S1,405,experiment,55,←,left,←,0.5578515999950469,True,35,1
SK-K-24K24S1,406,experiment,76,→,right,→,0.6378637999296188,True,35,1
SK-K-24K24S1,407,experiment,79,↑,no_key,no_letter,-1.0,False,35,1
SK-K-24K24S1,408,experiment,69,→,left,←,0.6041311000008136,False,35,1
SK-K-24K24S1,409,experiment,91,↓,down,↓,0.8133844998665154,True,35,1
SK-K-24K24S1,410,experiment,50,←,left,←,0.6276696999557316,True,35,1
SK-K-24K24S1,411,experiment,54,→,right,→,0.6485407000873238,True,35,1
SK-K-24K24S1,412,experiment,49,↑,up,↑,1.2136784000322223,True,35,1
SK-K-24K24S1,413,experiment,62,↑,up,↑,0.8401238999795169,True,35,1
SK-K-24K24S1,414,experiment,51,→,right,→,0.7171767998952419,True,35,1
SK-K-24K24S1,415,experiment,85,→,right,→,0.7480206999462098,True,35,1
SK-K-24K24S1,416,experiment,93,←,left,←,0.6468326998874545,True,35,1
SK-K-24K24S1,417,experiment,92,↑,left,←,1.0776575999334455,False,35,1
SK-K-24K24S1,418,experiment,70,←,left,←,0.5868917999323457,True,35,1
SK-K-24K24S1,419,training,91,←,right,→,0.7268044999800622,False,35,0
SK-K-24K24S1,420,training,84,↑,up,↑,0.8616245000157505,True,35,1
SK-K-24K24S1,421,experiment,62,↑,up,↑,0.8620982998982072,True,35,1
SK-K-24K24S1,422,experiment,55,↑,up,↑,0.720926099922508,True,35,1
SK-K-24K24S1,423,experiment,78,↓,down,↓,0.7938439000863582,True,35,1
SK-K-24K24S1,424,experiment,60,↓,down,↓,0.6380278000142425,True,35,1
SK-K-24K24S1,425,experiment,87,↑,up,↑,0.8229231999721378,True,35,1
SK-K-24K24S1,426,experiment,103,←,left,←,0.7873313999734819,True,35,1
SK-K-24K24S1,427,experiment,89,↑,up,↑,0.8217684000264853,True,35,1
SK-K-24K24S1,428,experiment,84,←,left,←,0.9682410999666899,True,35,1
SK-K-24K24S1,429,experiment,101,←,left,←,0.7435967000201344,True,35,1
SK-K-24K24S1,430,experiment,68,←,left,←,0.6511713999789208,True,35,1
SK-K-24K24S1,431,experiment,50,←,left,←,0.6002428000792861,True,35,1
SK-K-24K24S1,432,experiment,70,→,right,→,0.8887040000408888,True,35,1
SK-K-24K24S1,433,experiment,64,↓,down,↓,0.9912304999306798,True,35,1
SK-K-24K24S1,434,experiment,71,↓,down,↓,0.7597173999529332,True,35,1
SK-K-24K24S1,435,experiment,100,←,left,←,0.6474642001558095,True,35,1
SK-K-24K24S1,436,experiment,85,↑,left,←,0.6729280999861658,False,35,1
SK-K-24K24S1,437,experiment,57,←,left,←,0.6107338999863714,True,35,1
SK-K-24K24S1,438,experiment,102,→,right,→,0.720232899999246,True,35,1
SK-K-24K24S1,439,experiment,93,↓,down,↓,0.7962764999829233,True,35,1
SK-K-24K24S1,440,experiment,52,↑,down,↓,0.7303844999987632,False,35,1
SK-K-24K24S1,441,experiment,49,←,left,←,0.5327624999918044,True,35,1
SK-K-24K24S1,442,experiment,81,↑,up,↑,0.843855399871245,True,35,1
SK-K-24K24S1,443,experiment,56,→,left,←,0.7272836999036372,False,35,1
SK-K-24K24S1,444,experiment,107,←,left,←,0.886260700179264,True,35,1
SK-K-24K24S1,445,experiment,108,→,right,→,0.7426426000893116,True,35,1
SK-K-24K24S1,446,experiment,72,←,left,←,0.46538199996575713,True,35,1
SK-K-24K24S1,447,experiment,96,↓,down,↓,0.9015846999827772,True,35,1
SK-K-24K24S1,448,experiment,97,↑,up,↑,0.8807184000033885,True,35,1
SK-K-24K24S1,449,experiment,95,←,left,←,0.5571541998069733,True,35,1
SK-K-24K24S1,450,experiment,90,→,left,←,0.680731900036335,False,35,1
SK-K-24K24S1,451,experiment,66,↓,down,↓,0.695221500005573,True,35,1
SK-K-24K24S1,452,experiment,86,←,right,→,0.8548574999440461,False,35,1
SK-K-24K24S1,453,experiment,94,↓,right,→,1.0127284999471158,False,35,1
SK-K-24K24S1,454,experiment,48,←,left,←,0.7395238999743015,True,35,1
SK-K-24K24S1,455,experiment,105,→,right,→,0.6666681999340653,True,35,1
SK-K-24K24S1,456,experiment,65,←,left,←,0.6338919000700116,True,35,1
SK-K-24K24S1,457,experiment,69,↓,down,↓,0.6973284999839962,True,35,1
SK-K-24K24S1,458,experiment,83,↓,down,↓,0.8333699000068009,True,35,1
SK-K-24K24S1,459,experiment,99,↓,down,↓,0.7826920999214053,True,35,1
SK-K-24K24S1,460,experiment,54,→,right,→,0.6451448001898825,True,35,1
SK-K-24K24S1,461,experiment,74,→,right,→,0.6024666999001056,True,35,1
SK-K-24K24S1,462,experiment,61,←,left,←,0.7177720000036061,True,35,1
SK-K-24K24S1,463,experiment,76,↑,right,→,0.9276806998532265,False,35,1
SK-K-24K24S1,464,experiment,51,↑,up,↑,0.76931619993411,True,35,1
SK-K-24K24S1,465,experiment,63,↑,up,↑,0.7732758999336511,True,35,1
SK-K-24K24S1,466,experiment,59,↓,down,↓,0.8023715000599623,True,35,1
SK-K-24K24S1,467,experiment,106,↑,up,↑,0.7187905998434871,True,35,1
SK-K-24K24S1,468,experiment,53,→,right,→,0.5763461000751704,True,35,1
SK-K-24K24S1,469,experiment,92,↓,down,↓,0.7623894000425935,True,35,1
SK-K-24K24S1,470,experiment,98,←,right,→,0.7146934000775218,False,35,1
SK-K-24K24S1,471,experiment,82,←,right,→,0.7705789001192898,False,35,1
SK-K-24K24S1,472,experiment,104,→,right,→,0.7376881001982838,True,35,1
SK-K-24K24S1,473,experiment,58,→,right,→,0.6079579000361264,True,35,1
SK-K-24K24S1,474,experiment,67,→,right,→,0.9210377000272274,True,35,1
SK-K-24K24S1,475,experiment,91,←,left,←,0.812044900143519,True,35,1
SK-K-24K24S1,476,experiment,88,↓,down,↓,0.6221445000264794,True,35,1
SK-K-24K24S1,477,experiment,73,←,no_key,no_letter,-1.0,False,35,1
SK-K-24K24S1,478,experiment,75,↑,no_key,no_letter,-1.0,False,35,1
SK-K-24K24S1,479,experiment,77,↑,down,↓,0.8043090999126434,False,35,1
SK-K-24K24S1,480,experiment,80,←,left,←,0.6328186001628637,True,35,1
SK-K-24K24S1,481,experiment,79,→,right,→,0.6208778999280185,True,35,1
SK-K-24K24S1,482,training,91,←,left,←,0.6511487001553178,True,35,0
SK-K-24K24S1,483,training,60,↓,left,←,1.2125999999698251,False,35,1
SK-K-24K24S1,484,experiment,100,↓,down,↓,0.6505255000665784,True,35,1
SK-K-24K24S1,485,experiment,105,↑,down,↓,0.6610444998368621,False,35,1
SK-K-24K24S1,486,experiment,84,←,left,←,0.5905071999877691,True,35,1
SK-K-24K24S1,487,experiment,57,↓,down,↓,0.5874418998137116,True,35,1
SK-K-24K24S1,488,experiment,101,↓,down,↓,0.5542577998712659,True,35,1
SK-K-24K24S1,489,experiment,53,→,right,→,0.6979400999844074,True,35,1
SK-K-24K24S1,490,experiment,48,↓,down,↓,0.6378083999734372,True,35,1
SK-K-24K24S1,491,experiment,89,→,right,→,0.6861292000394315,True,35,1
SK-K-24K24S1,492,experiment,71,↓,down,↓,0.5388350000139326,True,35,1
SK-K-24K24S1,493,experiment,104,→,right,→,0.5623491001315415,True,35,1
SK-K-24K24S1,494,experiment,82,←,left,←,0.4727153000421822,True,35,1
SK-K-24K24S1,495,experiment,92,←,left,←,0.6539268000051379,True,35,1
SK-K-24K24S1,496,experiment,68,←,left,←,0.46964980009943247,True,35,1
SK-K-24K24S1,497,experiment,76,←,left,←,0.473053100053221,True,35,1
SK-K-24K24S1,498,experiment,83,→,no_key,no_letter,-1.0,False,35,1
SK-K-24K24S1,499,experiment,66,↓,right,→,0.9413156998343766,False,35,1
SK-K-24K24S1,500,experiment,75,↑,right,→,0.7501692001242191,False,35,1
SK-K-24K24S1,501,experiment,81,↑,up,↑,1.004955899901688,True,35,1
SK-K-24K24S1,502,experiment,88,↑,up,↑,0.9993387998547405,True,35,1
SK-K-24K24S1,503,experiment,85,↑,up,↑,0.7944529000669718,True,35,1
SK-K-24K24S1,504,experiment,87,→,right,→,0.6373857001308352,True,35,1
SK-K-24K24S1,505,experiment,107,↓,down,↓,0.7757218000479043,True,35,1
SK-K-24K24S1,506,experiment,64,↓,left,←,0.8353646001778543,False,35,1
SK-K-24K24S1,507,experiment,49,↑,up,↑,0.8733643000014126,True,35,1
SK-K-24K24S1,508,experiment,106,↑,up,↑,0.8027102001942694,True,35,1
SK-K-24K24S1,509,experiment,91,←,left,←,0.6678374998737127,True,35,1
SK-K-24K24S1,510,experiment,73,→,right,→,0.656529099913314,True,35,1
SK-K-24K24S1,511,experiment,65,↑,up,↑,1.4163457001559436,True,35,1
SK-K-24K24S1,512,experiment,103,↓,down,↓,0.7488744000438601,True,35,1
SK-K-24K24S1,513,experiment,90,→,left,←,0.76859480002895,False,35,1
SK-K-24K24S1,514,experiment,62,↑,up,↑,0.9490427998825908,True,35,1
SK-K-24K24S1,515,experiment,52,←,left,←,0.9095723999198526,True,35,1
SK-K-24K24S1,516,experiment,60,←,left,←,0.6367458999156952,True,35,1
SK-K-24K24S1,517,experiment,98,↑,up,↑,0.7944906000047922,True,35,1
SK-K-24K24S1,518,experiment,61,←,left,←,0.6382381999865174,True,35,1
SK-K-24K24S1,519,experiment,86,←,left,←,0.823832199908793,True,35,1
SK-K-24K24S1,520,experiment,93,↓,down,↓,0.695562900044024,True,35,1
SK-K-24K24S1,521,experiment,54,←,left,←,0.7452763000037521,True,35,1
SK-K-24K24S1,522,experiment,97,←,left,←,0.6271412000060081,True,35,1
SK-K-24K24S1,523,experiment,74,↓,down,↓,0.7851399998180568,True,35,1
SK-K-24K24S1,524,experiment,102,→,left,←,0.6158545000944287,False,35,1
SK-K-24K24S1,525,experiment,59,↑,left,←,1.066952500026673,False,35,1
SK-K-24K24S1,526,experiment,51,←,left,←,0.910795999923721,True,35,1
SK-K-24K24S1,527,experiment,77,←,left,←,0.768683800008148,True,35,1
SK-K-24K24S1,528,experiment,96,→,left,←,0.8014648000244051,False,35,1
SK-K-24K24S1,529,experiment,108,→,right,→,0.6291195000521839,True,35,1
SK-K-24K24S1,530,experiment,94,←,left,←,0.7401673998683691,True,35,1
SK-K-24K24S1,531,experiment,70,↓,left,←,1.0229978000279516,False,35,1
SK-K-24K24S1,532,experiment,99,↓,down,↓,1.180483000120148,True,35,1
SK-K-24K24S1,533,experiment,58,→,right,→,0.6014872000087053,True,35,1
SK-K-24K24S1,534,experiment,56,←,left,←,0.6864912998862565,True,35,1
SK-K-24K24S1,535,experiment,80,←,left,←,0.5603412000928074,True,35,1
SK-K-24K24S1,536,experiment,63,↑,up,↑,0.9165801000781357,True,35,1
SK-K-24K24S1,537,experiment,72,→,right,→,0.66389079997316,True,35,1
SK-K-24K24S1,538,experiment,69,←,right,→,0.8539895999711007,False,35,1
SK-K-24K24S1,539,experiment,78,↑,no_key,no_letter,-1.0,False,35,1
SK-K-24K24S1,540,experiment,79,↓,down,↓,0.6405584998428822,True,35,1
SK-K-24K24S1,541,experiment,95,←,left,←,0.9587510998826474,True,35,1
SK-K-24K24S1,542,experiment,55,←,left,←,0.6859979999717325,True,35,1
SK-K-24K24S1,543,experiment,50,←,left,←,0.6492708998266608,True,35,1
SK-K-24K24S1,544,experiment,67,↓,down,↓,0.7929271999746561,True,35,1
SK-K-24K24S1,545,training,69,↓,down,↓,0.6405241000466049,True,35,0
SK-K-24K24S1,546,training,98,→,down,↓,0.717806400032714,False,35,1
SK-K-24K24S1,547,experiment,49,↓,down,↓,0.5685133999213576,True,35,1
SK-K-24K24S1,548,experiment,75,→,right,→,0.5447633999865502,True,35,1
SK-K-24K24S1,549,experiment,93,→,right,→,0.523643699940294,True,35,1
SK-K-24K24S1,550,experiment,55,↓,down,↓,0.8042105999775231,True,35,1
SK-K-24K24S1,551,experiment,51,←,left,←,0.7226686000358313,True,35,1
SK-K-24K24S1,552,experiment,99,→,right,→,0.5881163000594825,True,35,1
SK-K-24K24S1,553,experiment,76,↑,up,↑,1.0988767000380903,True,35,1
SK-K-24K24S1,554,experiment,60,←,right,→,0.5785369998775423,False,35,1
SK-K-24K24S1,555,experiment,88,→,right,→,0.6700673000887036,True,35,1
SK-K-24K24S1,556,experiment,98,→,right,→,0.554520599776879,True,35,1
SK-K-24K24S1,557,experiment,100,↑,up,↑,1.4023611000739038,True,35,1
SK-K-24K24S1,558,experiment,86,←,left,←,0.6614639000035822,True,35,1
SK-K-24K24S1,559,experiment,106,↑,up,↑,0.7993815001100302,True,35,1
SK-K-24K24S1,560,experiment,91,↑,up,↑,0.7608058999758214,True,35,1
SK-K-24K24S1,561,experiment,79,→,right,→,0.75167699996382,True,35,1
SK-K-24K24S1,562,experiment,107,↓,down,↓,0.8058135001920164,True,35,1
SK-K-24K24S1,563,experiment,68,→,right,→,0.7984726000577211,True,35,1
SK-K-24K24S1,564,experiment,62,↓,down,↓,0.7536635999567807,True,35,1
SK-K-24K24S1,565,experiment,95,↑,up,↑,0.8754202998243272,True,35,1
SK-K-24K24S1,566,experiment,87,←,left,←,0.6990173000376672,True,35,1
SK-K-24K24S1,567,experiment,101,→,right,→,0.7731290999799967,True,35,1
SK-K-24K24S1,568,experiment,81,↓,down,↓,0.7390022000763565,True,35,1
SK-K-24K24S1,569,experiment,52,↑,up,↑,0.8915913000237197,True,35,1
SK-K-24K24S1,570,experiment,84,↓,down,↓,0.8595079001970589,True,35,1
SK-K-24K24S1,571,experiment,94,↑,up,↑,1.1696133001241833,True,35,1
SK-K-24K24S1,572,experiment,92,↓,left,←,0.8683162999805063,False,35,1
SK-K-24K24S1,573,experiment,85,→,right,→,0.8046446000225842,True,35,1
SK-K-24K24S1,574,experiment,65,↓,down,↓,0.8064433000981808,True,35,1
SK-K-24K24S1,575,experiment,58,←,left,←,0.6984916001092643,True,35,1
SK-K-24K24S1,576,experiment,71,→,left,←,0.7665699999779463,False,35,1
SK-K-24K24S1,577,experiment,48,→,right,→,0.7436604001559317,True,35,1
SK-K-24K24S1,578,experiment,57,↓,down,↓,0.718527999939397,True,35,1
SK-K-24K24S1,579,experiment,59,→,right,→,0.7338356000836939,True,35,1
SK-K-24K24S1,580,experiment,72,↑,up,↑,0.9523221000563353,True,35,1
SK-K-24K24S1,581,experiment,90,↓,down,↓,0.7959505000617355,True,35,1
SK-K-24K24S1,582,experiment,108,↓,down,↓,0.7518851000349969,True,35,1
SK-K-24K24S1,583,experiment,97,↓,left,←,0.7452243999578059,False,35,1
SK-K-24K24S1,584,experiment,67,→,left,←,0.8610533999744803,False,35,1
SK-K-24K24S1,585,experiment,70,↓,down,↓,0.7152919999789447,True,35,1
SK-K-24K24S1,586,experiment,50,↑,up,↑,1.0295174999628216,True,35,1
SK-K-24K24S1,587,experiment,105,↑,left,←,0.7935208000708371,False,35,1
SK-K-24K24S1,588,experiment,82,←,left,←,0.6379408000502735,True,35,1
SK-K-24K24S1,589,experiment,56,↓,down,↓,0.5852178998757154,True,35,1
SK-K-24K24S1,590,experiment,89,↓,down,↓,0.7721221998799592,True,35,1
SK-K-24K24S1,591,experiment,104,↑,left,←,1.25782909989357,False,35,1
SK-K-24K24S1,592,experiment,63,←,left,←,0.7381994999013841,True,35,1
SK-K-24K24S1,593,experiment,74,→,right,→,0.587620799895376,True,35,1
SK-K-24K24S1,594,experiment,103,↓,down,↓,0.7371052999515086,True,35,1
SK-K-24K24S1,595,experiment,80,→,right,→,0.6007373998872936,True,35,1
SK-K-24K24S1,596,experiment,64,↑,down,↓,1.0432777998503298,False,35,1
SK-K-24K24S1,597,experiment,73,→,right,→,0.5849238999653608,True,35,1
SK-K-24K24S1,598,experiment,61,↑,up,↑,0.9408744999673218,True,35,1
SK-K-24K24S1,599,experiment,66,↓,down,↓,0.6247362000867724,True,35,1
SK-K-24K24S1,600,experiment,83,←,left,←,0.7724737001117319,True,35,1
SK-K-24K24S1,601,experiment,69,↑,up,↑,0.9898385000415146,True,35,1
SK-K-24K24S1,602,experiment,77,↓,left,←,0.5879725001286715,False,35,1
SK-K-24K24S1,603,experiment,102,↑,no_key,no_letter,-1.0,False,35,1
SK-K-24K24S1,604,experiment,78,→,left,←,1.0811588000506163,False,35,1
SK-K-24K24S1,605,experiment,53,↓,down,↓,1.0117876001168042,True,35,1
SK-K-24K24S1,606,experiment,54,←,no_key,no_letter,-1.0,False,35,1
SK-K-24K24S1,607,experiment,96,↓,down,↓,0.5384064998943359,True,35,1
SK-K-24K24S1,608,training,95,→,left,←,0.7742983000352979,False,35,0
SK-K-24K24S1,609,training,108,←,left,←,0.5950625000987202,True,35,1
SK-K-24K24S1,610,experiment,57,→,right,→,0.6720863000955433,True,35,1
SK-K-24K24S1,611,experiment,79,↑,up,↑,1.0902335999999195,True,35,1
SK-K-24K24S1,612,experiment,72,↓,down,↓,0.6229184998665005,True,35,1
SK-K-24K24S1,613,experiment,68,↑,up,↑,0.838436699938029,True,35,1
SK-K-24K24S1,614,experiment,93,↑,up,↑,0.7096335999667645,True,35,1
SK-K-24K24S1,615,experiment,104,↑,up,↑,0.7262673999648541,True,35,1
SK-K-24K24S1,616,experiment,96,↓,right,→,0.6888259998522699,False,35,1
SK-K-24K24S1,617,experiment,102,↓,down,↓,0.5708792000077665,True,35,1
SK-K-24K24S1,618,experiment,80,←,left,←,0.6008035000413656,True,35,1
SK-K-24K24S1,619,experiment,61,→,right,→,0.6683060999494046,True,35,1
SK-K-24K24S1,620,experiment,88,↑,up,↑,0.7806829998735338,True,35,1
SK-K-24K24S1,621,experiment,56,↑,up,↑,0.8254768000915647,True,35,1
SK-K-24K24S1,622,experiment,97,↓,right,→,0.8801984000019729,False,35,1
SK-K-24K24S1,623,experiment,62,←,left,←,0.7277094000019133,True,35,1
SK-K-24K24S1,624,experiment,99,←,left,←,0.6257639001123607,True,35,1
SK-K-24K24S1,625,experiment,103,→,left,←,0.7338399000000209,False,35,1
SK-K-24K24S1,626,experiment,69,↑,up,↑,0.8012121999636292,True,35,1
SK-K-24K24S1,627,experiment,48,↑,right,→,0.7688970000017434,False,35,1
SK-K-24K24S1,628,experiment,55,↑,up,↑,0.7837459000293165,True,35,1
SK-K-24K24S1,629,experiment,74,→,right,→,0.7193312998861074,True,35,1
SK-K-24K24S1,630,experiment,84,↓,down,↓,0.8863770999014378,True,35,1
SK-K-24K24S1,631,experiment,105,↓,down,↓,0.7597025001887232,True,35,1
SK-K-24K24S1,632,experiment,100,→,right,→,0.6317354999482632,True,35,1
SK-K-24K24S1,633,experiment,50,↑,up,↑,0.6854326000902802,True,35,1
SK-K-24K24S1,634,experiment,52,↓,down,↓,0.6004649999085814,True,35,1
SK-K-24K24S1,635,experiment,67,↓,down,↓,0.5381700000725687,True,35,1
SK-K-24K24S1,636,experiment,70,→,right,→,0.5168948001228273,True,35,1
SK-K-24K24S1,637,experiment,78,↑,up,↑,0.8138921000063419,True,35,1
SK-K-24K24S1,638,experiment,92,↓,down,↓,0.7901016999967396,True,35,1
SK-K-24K24S1,639,experiment,91,↓,down,↓,0.47225109999999404,True,35,1
SK-K-24K24S1,640,experiment,51,↑,up,↑,0.6196706998161972,True,35,1
SK-K-24K24S1,641,experiment,73,←,right,→,0.9702451000921428,False,35,1
SK-K-24K24S1,642,experiment,60,↑,up,↑,0.9435074999928474,True,35,1
SK-K-24K24S1,643,experiment,83,↑,up,↑,0.6222673000302166,True,35,1
SK-K-24K24S1,644,experiment,64,←,left,←,0.7269905998837203,True,35,1
SK-K-24K24S1,645,experiment,85,→,right,→,0.6532352000940591,True,35,1
SK-K-24K24S1,646,experiment,81,→,right,→,0.5523508999031037,True,35,1
SK-K-24K24S1,647,experiment,75,←,left,←,0.6088705000001937,True,35,1
SK-K-24K24S1,648,experiment,49,↑,right,→,1.7119990999344736,False,35,1
SK-K-24K24S1,649,experiment,58,↑,up,↑,0.6638662000186741,True,35,1
SK-K-24K24S1,650,experiment,65,→,right,→,0.8233164998237044,True,35,1
SK-K-24K24S1,651,experiment,53,↑,down,↓,0.8683605999685824,False,35,1
SK-K-24K24S1,652,experiment,94,←,right,→,0.7940018998924643,False,35,1
SK-K-24K24S1,653,experiment,89,←,left,←,0.6843703999184072,True,35,1
SK-K-24K24S1,654,experiment,82,←,left,←,0.677309000166133,True,35,1
SK-K-24K24S1,655,experiment,71,↓,right,→,1.1623585999477655,False,35,1
SK-K-24K24S1,656,experiment,98,↓,down,↓,0.6592361000366509,True,35,1
SK-K-24K24S1,657,experiment,86,→,left,←,0.6196872000582516,False,35,1
SK-K-24K24S1,658,experiment,66,→,right,→,0.5089052999392152,True,35,1
SK-K-24K24S1,659,experiment,95,←,left,←,0.5927267998922616,True,35,1
SK-K-24K24S1,660,experiment,54,↑,up,↑,0.6628769000526518,True,35,1
SK-K-24K24S1,661,experiment,59,↓,down,↓,0.5600693000014871,True,35,1
SK-K-24K24S1,662,experiment,77,↑,down,↓,0.7598845998290926,False,35,1
SK-K-24K24S1,663,experiment,107,↓,down,↓,0.541705199982971,True,35,1
SK-K-24K24S1,664,experiment,87,→,right,→,0.5865296002011746,True,35,1
SK-K-24K24S1,665,experiment,90,→,no_key,no_letter,-1.0,False,35,1
SK-K-24K24S1,666,experiment,76,↓,down,↓,0.7489565999712795,True,35,1
SK-K-24K24S1,667,experiment,106,←,left,←,0.6832204000093043,True,35,1
SK-K-24K24S1,668,experiment,63,←,left,←,0.6665730001404881,True,35,1
SK-K-24K24S1,669,experiment,108,↑,up,↑,0.9954718998633325,True,35,1
SK-K-24K24S1,670,experiment,101,↓,down,↓,0.8254643001127988,True,35,1
SK-K-24K24S1,671,training,96,↑,down,↓,0.7205284000374377,False,35,0
SK-K-24K24S1,672,training,62,↓,down,↓,0.6708116999361664,True,35,1
SK-K-24K24S1,673,experiment,66,←,right,→,0.7733637001365423,False,35,1
SK-K-24K24S1,674,experiment,75,←,up,↑,0.8929957000073045,False,35,1
SK-K-24K24S1,675,experiment,58,→,right,→,0.7338868000078946,True,35,1
SK-K-24K24S1,676,experiment,95,←,left,←,0.6645223998930305,True,35,1
SK-K-24K24S1,677,experiment,85,←,left,←,0.6570792999118567,True,35,1
SK-K-24K24S1,678,experiment,98,←,left,←,0.8457654998637736,True,35,1
SK-K-24K24S1,679,experiment,87,→,right,→,0.5264937998726964,True,35,1
SK-K-24K24S1,680,experiment,61,→,right,→,0.492965399986133,True,35,1
SK-K-24K24S1,681,experiment,99,↓,down,↓,0.6479376000352204,True,35,1
SK-K-24K24S1,682,experiment,88,↓,down,↓,0.9284737000707537,True,35,1
SK-K-24K24S1,683,experiment,77,↓,no_key,no_letter,-1.0,False,35,1
SK-K-24K24S1,684,experiment,71,↑,up,↑,0.9068356000352651,True,35,1
SK-K-24K24S1,685,experiment,64,→,right,→,0.584836499998346,True,35,1
SK-K-24K24S1,686,experiment,54,↓,down,↓,0.671358099905774,True,35,1
SK-K-24K24S1,687,experiment,89,↑,up,↑,0.8145941998809576,True,35,1
SK-K-24K24S1,688,experiment,93,↑,up,↑,0.7745448001660407,True,35,1
SK-K-24K24S1,689,experiment,108,↑,up,↑,0.675085199996829,True,35,1
SK-K-24K24S1,690,experiment,76,→,right,→,0.7424914999864995,True,35,1
SK-K-24K24S1,691,experiment,62,←,left,←,0.4763742999639362,True,35,1
SK-K-24K24S1,692,experiment,63,→,right,→,0.49930469994433224,True,35,1
SK-K-24K24S1,693,experiment,80,↑,right,→,0.8843026000540704,False,35,1
SK-K-24K24S1,694,experiment,65,→,right,→,0.6272785998880863,True,35,1
SK-K-24K24S1,695,experiment,107,↑,up,↑,0.8140994999557734,True,35,1
SK-K-24K24S1,696,experiment,96,→,left,←,0.5889875001739711,False,35,1
SK-K-24K24S1,697,experiment,81,→,right,→,0.6503008999861777,True,35,1
SK-K-24K24S1,698,experiment,102,↑,up,↑,0.7097298998851329,True,35,1
SK-K-24K24S1,699,experiment,83,←,left,←,0.5016583998221904,True,35,1
SK-K-24K24S1,700,experiment,51,↑,up,↑,0.6803141999989748,True,35,1
SK-K-24K24S1,701,experiment,91,↓,down,↓,0.6142447001766413,True,35,1
SK-K-24K24S1,702,experiment,50,↓,no_key,no_letter,-1.0,False,35,1
SK-K-24K24S1,703,experiment,103,↑,up,↑,0.6918034001719207,True,35,1
SK-K-24K24S1,704,experiment,90,←,left,←,0.5777308000251651,True,35,1
SK-K-24K24S1,705,experiment,97,↑,up,↑,0.6986149000003934,True,35,1
SK-K-24K24S1,706,experiment,69,→,right,→,0.49466470000334084,True,35,1
SK-K-24K24S1,707,experiment,57,↑,no_key,no_letter,-1.0,False,35,1
SK-K-24K24S1,708,experiment,56,←,no_key,no_letter,-1.0,False,35,1
SK-K-24K24S1,709,experiment,100,←,left,←,0.5180598001461476,True,35,1
SK-K-24K24S1,710,experiment,106,↑,up,↑,0.6938909001182765,True,35,1
SK-K-24K24S1,711,experiment,52,→,right,→,0.6328634000383317,True,35,1
SK-K-24K24S1,712,experiment,92,↑,up,↑,0.7923264999408275,True,35,1
SK-K-24K24S1,713,experiment,73,→,right,→,0.6083782999776304,True,35,1
SK-K-24K24S1,714,experiment,68,↓,down,↓,0.7689740001223981,True,35,1
SK-K-24K24S1,715,experiment,78,↓,down,↓,0.6955658998340368,True,35,1
SK-K-24K24S1,716,experiment,84,↑,down,↓,0.8875424000434577,False,35,1
SK-K-24K24S1,717,experiment,82,↓,down,↓,0.7602378001902252,True,35,1
SK-K-24K24S1,718,experiment,104,↓,down,↓,0.8949392999056727,True,35,1
SK-K-24K24S1,719,experiment,59,←,right,→,0.8312389000784606,False,35,1
SK-K-24K24S1,720,experiment,94,←,left,←,0.558277899865061,True,35,1
SK-K-24K24S1,721,experiment,105,↓,right,→,0.5885205999948084,False,35,1
SK-K-24K24S1,722,experiment,74,←,no_key,no_letter,-1.0,False,35,1
SK-K-24K24S1,723,experiment,55,→,right,→,0.7230433998629451,True,35,1
SK-K-24K24S1,724,experiment,67,←,right,→,0.6632835001219064,False,35,1
SK-K-24K24S1,725,experiment,86,←,right,→,0.6640410998370498,False,35,1
SK-K-24K24S1,726,experiment,72,↑,up,↑,0.8210204001516104,True,35,1
SK-K-24K24S1,727,experiment,53,↑,up,↑,0.8987312000244856,True,35,1
SK-K-24K24S1,728,experiment,48,→,left,←,0.8862433999311179,False,35,1
SK-K-24K24S1,729,experiment,101,↑,up,↑,0.5929848002269864,True,35,1
SK-K-24K24S1,730,experiment,70,→,right,→,0.4897359001915902,True,35,1
SK-K-24K24S1,731,experiment,60,↓,no_key,no_letter,-1.0,False,35,1
SK-K-24K24S1,732,experiment,79,→,right,→,0.5843748000916094,True,35,1
SK-K-24K24S1,733,experiment,49,→,right,→,0.5765393998008221,True,35,1
SK-K-24K24S1,734,training,88,←,left,←,0.6157911999616772,True,35,0
SK-K-24K24S1,735,training,101,←,left,←,0.7089608001988381,True,35,1
SK-K-24K24S1,736,experiment,92,↑,left,←,0.9297064000274986,False,35,1
SK-K-24K24S1,737,experiment,96,↓,right,→,0.6520142999943346,False,35,1
SK-K-24K24S1,738,experiment,76,←,left,←,0.5600690999999642,True,35,1
SK-K-24K24S1,739,experiment,55,↑,no_key,no_letter,-1.0,False,35,1
SK-K-24K24S1,740,experiment,69,↑,up,↑,0.9775125999003649,True,35,1
SK-K-24K24S1,741,experiment,61,↓,down,↓,0.7338496998418123,True,35,1
SK-K-24K24S1,742,experiment,70,↓,down,↓,0.6331555000506341,True,35,1
SK-K-24K24S1,743,experiment,95,↓,down,↓,0.5594867998734117,True,35,1
SK-K-24K24S1,744,experiment,87,←,left,←,0.5960818999446929,True,35,1
SK-K-24K24S1,745,experiment,99,→,right,→,0.4424785999581218,True,35,1
SK-K-24K24S1,746,experiment,84,←,right,→,0.6447893001604825,False,35,0
SK-K-24K24S1,747,experiment,104,→,right,→,1.0957947000861168,True,35,1
SK-K-24K24S1,748,experiment,81,↓,down,↓,0.9605378999840468,True,35,1
SK-K-24K24S1,749,experiment,108,↑,up,↑,0.8780046000611037,True,35,1
SK-K-24K24S1,750,experiment,83,↓,down,↓,0.807119800010696,True,35,1
SK-K-24K24S1,751,experiment,107,→,right,→,0.7145863999612629,True,35,1
SK-K-24K24S1,752,experiment,68,→,right,→,0.6311474000103772,True,35,1
SK-K-24K24S1,753,experiment,100,→,right,→,0.6365926000289619,True,35,1
SK-K-24K24S1,754,experiment,86,←,left,←,0.6938925001304597,True,35,1
SK-K-24K24S1,755,experiment,52,←,left,←,0.6563805001787841,True,35,1
SK-K-24K24S1,756,experiment,73,↑,up,↑,0.8374619001988322,True,35,1
SK-K-24K24S1,757,experiment,78,←,left,←,0.5705456999130547,True,35,1
SK-K-24K24S1,758,experiment,94,↑,left,←,0.6597008998505771,False,35,1
SK-K-24K24S1,759,experiment,77,→,left,←,0.6073287997860461,False,35,1
SK-K-24K24S1,760,experiment,82,←,left,←,0.6033574999310076,True,35,1
SK-K-24K24S1,761,experiment,85,→,right,→,0.8065587999299169,True,35,1
SK-K-24K24S1,762,experiment,50,←,left,←,0.7415553000755608,True,35,1
SK-K-24K24S1,763,experiment,63,→,right,→,0.6025836998596787,True,35,1
SK-K-24K24S1,764,experiment,80,↓,left,←,1.2395697999745607,False,35,1
SK-K-24K24S1,765,experiment,59,↑,up,↑,0.6660853000357747,True,35,1
SK-K-24K24S1,766,experiment,71,→,right,→,0.46370609989389777,True,35,1
SK-K-24K24S1,767,experiment,106,→,right,→,0.8888419999275357,True,35,0
SK-K-24K24S1,768,experiment,49,→,right,→,0.6046893000602722,True,35,1
SK-K-24K24S1,769,experiment,58,↓,no_key,no_letter,-1.0,False,35,1
SK-K-24K24S1,770,experiment,51,↓,no_key,no_letter,-1.0,False,35,1
SK-K-24K24S1,771,experiment,65,→,right,→,0.5725563999731094,True,35,1
SK-K-24K24S1,772,experiment,88,←,left,←,0.6078723999671638,True,35,1
SK-K-24K24S1,773,experiment,48,↑,right,→,0.9433577999006957,False,35,1
SK-K-24K24S1,774,experiment,53,↓,down,↓,0.7837038999423385,True,35,1
SK-K-24K24S1,775,experiment,79,←,left,←,0.533716400153935,True,35,1
SK-K-24K24S1,776,experiment,64,→,right,→,0.5465130000375211,True,35,1
SK-K-24K24S1,777,experiment,90,←,left,←,0.542525399941951,True,35,1
SK-K-24K24S1,778,experiment,74,←,right,→,0.6641651000827551,False,35,1
SK-K-24K24S1,779,experiment,75,↑,right,→,1.012000200105831,False,35,1
SK-K-24K24S1,780,experiment,56,←,left,←,1.0886947999242693,True,35,1
SK-K-24K24S1,781,experiment,62,→,right,→,0.8560035000555217,True,35,1
SK-K-24K24S1,782,experiment,91,↓,down,↓,0.5990684998687357,True,35,1
SK-K-24K24S1,783,experiment,93,↓,down,↓,0.6957006000448018,True,35,1
SK-K-24K24S1,784,experiment,57,↑,up,↑,0.7129025000613183,True,35,1
SK-K-24K24S1,785,experiment,98,←,left,←,0.4425564000848681,True,35,1
SK-K-24K24S1,786,experiment,72,←,right,→,0.5526188001967967,False,35,0
SK-K-24K24S1,787,experiment,66,←,right,→,0.9965707999654114,False,35,1
SK-K-24K24S1,788,experiment,101,↑,down,↓,0.8503570999018848,False,35,1
SK-K-24K24S1,789,experiment,105,→,right,→,0.6130224999506027,True,35,1
SK-K-24K24S1,790,experiment,97,→,right,→,0.5882031000219285,True,35,1
SK-K-24K24S1,791,experiment,103,↓,down,↓,0.561762300087139,True,35,1
SK-K-24K24S1,792,experiment,60,↑,up,↑,0.6229570999275893,True,35,1
SK-K-24K24S1,793,experiment,67,↓,right,→,0.7035828998778015,False,35,1
SK-K-24K24S1,794,experiment,89,←,left,←,0.573565199971199,True,35,1
SK-K-24K24S1,795,experiment,102,↑,up,↑,0.7964271998498589,True,35,1
SK-K-24K24S1,796,experiment,54,↓,down,↓,0.5382505001034588,True,35,1
SK-K-24K24S1,797,training,73,↓,no_key,no_letter,-1.0,False,35,0
SK-K-24K24S1,798,training,82,←,left,←,0.5478126001544297,True,35,1
SK-K-24K24S1,799,experiment,79,↑,up,↑,0.6586299000773579,True,35,1
SK-K-24K24S1,800,experiment,84,↑,up,↑,0.7002900000661612,True,35,1
SK-K-24K24S1,801,experiment,90,←,left,←,0.48201790009625256,True,35,1
SK-K-24K24S1,802,experiment,64,↑,up,↑,0.5768395999912173,True,35,1
SK-K-24K24S1,803,experiment,85,↓,down,↓,0.7014634001534432,True,35,1
SK-K-24K24S1,804,experiment,51,←,right,→,0.6562171000987291,False,35,1
SK-K-24K24S1,805,experiment,104,↑,up,↑,0.7467178001534194,True,35,1
SK-K-24K24S1,806,experiment,61,↑,up,↑,0.7843659999780357,True,35,1
SK-K-24K24S1,807,experiment,62,←,left,←,0.6678273000288755,True,35,1
SK-K-24K24S1,808,experiment,71,→,right,→,0.6652332001831383,True,35,1
SK-K-24K24S1,809,experiment,100,→,left,←,1.2290459000505507,False,35,1
SK-K-24K24S1,810,experiment,107,→,right,→,0.6479589999653399,True,35,1
SK-K-24K24S1,811,experiment,54,↑,up,↑,0.6197550999931991,True,35,1
SK-K-24K24S1,812,experiment,49,↓,down,↓,0.706302700098604,True,35,1
SK-K-24K24S1,813,experiment,52,↓,down,↓,0.7805439000949264,True,35,1
SK-K-24K24S1,814,experiment,59,←,left,←,0.6652575999032706,True,35,1
SK-K-24K24S1,815,experiment,72,→,right,→,0.6381950001232326,True,35,1
SK-K-24K24S1,816,experiment,69,↓,down,↓,0.6614622001070529,True,35,1
SK-K-24K24S1,817,experiment,73,↑,left,←,0.5701894001103938,False,35,1
SK-K-24K24S1,818,experiment,76,←,left,←,0.6422294001094997,True,35,1
SK-K-24K24S1,819,experiment,78,↓,down,↓,0.7020730001386255,True,35,1
SK-K-24K24S1,820,experiment,68,↓,no_key,no_letter,-1.0,False,35,1
SK-K-24K24S1,821,experiment,105,↑,down,↓,0.8493271998595446,False,35,1
SK-K-24K24S1,822,experiment,70,↑,right,→,0.5758990000467747,False,35,1
SK-K-24K24S1,823,experiment,56,←,left,←,0.5737594999372959,True,35,1
SK-K-24K24S1,824,experiment,94,←,no_key,no_letter,-1.0,False,35,1
SK-K-24K24S1,825,experiment,98,←,left,←,0.5196551999542862,True,35,1
SK-K-24K24S1,826,experiment,96,→,no_key,no_letter,-1.0,False,35,1
SK-K-24K24S1,827,experiment,88,↓,no_key,no_letter,-1.0,False,35,1
SK-K-24K24S1,828,experiment,87,↓,down,↓,0.7226281999610364,True,35,1
SK-K-24K24S1,829,experiment,82,↓,no_key,no_letter,-1.0,False,35,1
SK-K-24K24S1,830,experiment,48,→,left,←,0.6273608999326825,False,35,1
SK-K-24K24S1,831,experiment,106,←,right,→,0.5266255000606179,False,35,1
SK-K-24K24S1,832,experiment,103,↑,up,↑,0.8230902999639511,True,35,1
SK-K-24K24S1,833,experiment,91,→,right,→,0.5434200998861343,True,35,1
SK-K-24K24S1,834,experiment,57,←,left,←,0.6943736998364329,True,35,1
SK-K-24K24S1,835,experiment,86,↓,down,↓,0.5978073000442237,True,35,1
SK-K-24K24S1,836,experiment,95,→,right,→,0.6539515999611467,True,35,1
SK-K-24K24S1,837,experiment,63,→,right,→,0.590620200149715,True,35,1
SK-K-24K24S1,838,experiment,75,↑,up,↑,0.6696907000150532,True,35,1
SK-K-24K24S1,839,experiment,93,↑,up,↑,0.6919482001103461,True,35,1
SK-K-24K24S1,840,experiment,92,↓,down,↓,0.7290432001464069,True,35,1
SK-K-24K24S1,841,experiment,65,→,right,→,0.5900128998328,True,35,1
SK-K-24K24S1,842,experiment,108,↑,left,←,0.9219070000108331,False,35,1
SK-K-24K24S1,843,experiment,50,↓,down,↓,0.6599672997836024,True,35,1
SK-K-24K24S1,844,experiment,89,↑,up,↑,0.7077093000989407,True,35,1
SK-K-24K24S1,845,experiment,66,↓,down,↓,0.7453904999420047,True,35,1
SK-K-24K24S1,846,experiment,101,→,right,→,0.4973204000853002,True,35,1
SK-K-24K24S1,847,experiment,83,←,left,←,0.6415475998073816,True,35,1
SK-K-24K24S1,848,experiment,60,→,right,→,0.4679966999683529,True,35,1
SK-K-24K24S1,849,experiment,97,→,right,→,0.7201719000004232,True,35,1
SK-K-24K24S1,850,experiment,53,↑,up,↑,0.7137908998411149,True,35,1
SK-K-24K24S1,851,experiment,77,→,left,←,0.8589178000111133,False,35,1
SK-K-24K24S1,852,experiment,102,←,left,←,0.4340607998892665,True,35,1
SK-K-24K24S1,853,experiment,58,↓,left,←,0.8335673999972641,False,35,0
SK-K-24K24S1,854,experiment,81,←,left,←,0.6924721000250429,True,35,1
SK-K-24K24S1,855,experiment,74,↑,left,←,1.2162154000252485,False,35,1
SK-K-24K24S1,856,experiment,80,→,right,→,0.5160779000725597,True,35,1
SK-K-24K24S1,857,experiment,55,←,left,←,0.5327005998697132,True,35,1
SK-K-24K24S1,858,experiment,67,←,left,←,0.6489180999342352,True,35,1
SK-K-24K24S1,859,experiment,99,↑,up,↑,0.6138049000874162,True,35,1
SK-K-24K24S1,860,training,84,↓,down,↓,0.6396468000020832,True,35,0
SK-K-24K24S1,861,training,91,↑,no_key,no_letter,-1.0,False,35,1
SK-K-24K24S1,862,experiment,66,←,left,←,0.5544458001386374,True,35,1
SK-K-24K24S1,863,experiment,59,←,no_key,no_letter,-1.0,False,35,1
SK-K-24K24S1,864,experiment,79,↓,down,↓,0.7756054999772459,True,35,1
SK-K-24K24S1,865,experiment,70,←,left,←,0.5446842999663204,True,35,1
SK-K-24K24S1,866,experiment,65,←,right,→,0.7970497999340296,False,35,1
SK-K-24K24S1,867,experiment,71,←,left,←,0.7331264999229461,True,35,1
SK-K-24K24S1,868,experiment,90,↓,down,↓,0.6500981000717729,True,35,1
SK-K-24K24S1,869,experiment,61,→,right,→,0.6589038998354226,True,35,1
SK-K-24K24S1,870,experiment,80,→,right,→,0.581577300094068,True,35,1
SK-K-24K24S1,871,experiment,73,→,no_key,no_letter,-1.0,False,35,1
SK-K-24K24S1,872,experiment,76,↑,up,↑,0.8295662999153137,True,35,1
SK-K-24K24S1,873,experiment,64,↑,up,↑,0.6869894999545068,True,35,1
SK-K-24K24S1,874,experiment,77,↓,down,↓,0.633471000008285,True,35,1
SK-K-24K24S1,875,experiment,96,↑,up,↑,0.6802752001676708,True,35,1
SK-K-24K24S1,876,experiment,97,←,right,→,0.4760722001083195,False,35,1
SK-K-24K24S1,877,experiment,60,→,left,←,0.5168126998469234,False,35,1
SK-K-24K24S1,878,experiment,86,↑,up,↑,0.5154214999638498,True,35,1
SK-K-24K24S1,879,experiment,78,→,right,→,0.5963248999323696,True,35,1
SK-K-24K24S1,880,experiment,93,→,right,→,0.5415046999696642,True,35,1
SK-K-24K24S1,881,experiment,82,↑,up,↑,0.5880604002159089,True,35,1
SK-K-24K24S1,882,experiment,100,←,right,→,0.46656480012461543,False,35,1
SK-K-24K24S1,883,experiment,81,↑,right,→,0.637570999795571,False,35,0
SK-K-24K24S1,884,experiment,101,→,right,→,0.4258529001381248,True,35,1
SK-K-24K24S1,885,experiment,108,→,right,→,0.6120726000517607,True,35,0
SK-K-24K24S1,886,experiment,55,←,left,←,0.5448639001697302,True,35,1
SK-K-24K24S1,887,experiment,69,←,left,←,0.5643000002019107,True,35,1
SK-K-24K24S1,888,experiment,102,↑,left,←,0.5951835999730974,False,35,1
SK-K-24K24S1,889,experiment,89,↑,no_key,no_letter,-1.0,False,35,1
SK-K-24K24S1,890,experiment,106,←,right,→,0.5232838001102209,False,35,1
SK-K-24K24S1,891,experiment,53,↑,up,↑,0.9964521999936551,True,35,1
SK-K-24K24S1,892,experiment,85,←,left,←,0.6318012999836355,True,35,1
SK-K-24K24S1,893,experiment,49,↓,right,→,0.7023241999559104,False,35,1
SK-K-24K24S1,894,experiment,88,↓,right,→,0.7164121000096202,False,35,1
SK-K-24K24S1,895,experiment,62,→,right,→,0.5385938999243081,True,35,1
SK-K-24K24S1,896,experiment,95,↓,down,↓,0.6695987000130117,True,35,1
SK-K-24K24S1,897,experiment,56,↑,right,→,0.607500100042671,False,35,1
SK-K-24K24S1,898,experiment,74,↓,down,↓,0.6141317000146955,True,35,1
SK-K-24K24S1,899,experiment,72,←,no_key,no_letter,-1.0,False,35,1
SK-K-24K24S1,900,experiment,48,↓,down,↓,0.662125000031665,True,35,1
SK-K-24K24S1,901,experiment,83,↓,down,↓,0.7201827000826597,True,35,1
SK-K-24K24S1,902,experiment,67,→,right,→,0.6928240000270307,True,35,1
SK-K-24K24S1,903,experiment,63,→,right,→,0.4764273001346737,True,35,1
SK-K-24K24S1,904,experiment,92,↑,up,↑,0.7380274999886751,True,35,1
SK-K-24K24S1,905,experiment,94,↑,up,↑,0.8131919999141246,True,35,1
SK-K-24K24S1,906,experiment,54,↑,right,→,0.7863318000454456,False,35,1
SK-K-24K24S1,907,experiment,68,→,left,←,0.6761640999466181,False,35,1
SK-K-24K24S1,908,experiment,91,←,left,←,0.5307984000537544,True,35,1
SK-K-24K24S1,909,experiment,98,↑,up,↑,0.6921893001999706,True,35,1
SK-K-24K24S1,910,experiment,107,←,left,←,0.49283850006759167,True,35,1
SK-K-24K24S1,911,experiment,58,↑,up,↑,0.7332768000196666,True,35,1
SK-K-24K24S1,912,experiment,87,→,right,→,0.5145759999286383,True,35,1
SK-K-24K24S1,913,experiment,104,↓,down,↓,0.5310569999273866,True,35,1
SK-K-24K24S1,914,experiment,75,↑,up,↑,0.6044179999735206,True,35,1
SK-K-24K24S1,915,experiment,52,↓,down,↓,0.8827146000694484,True,35,1
SK-K-24K24S1,916,experiment,105,←,left,←,0.779841500101611,True,35,1
SK-K-24K24S1,917,experiment,99,↑,up,↑,0.6751614001113921,True,35,1
SK-K-24K24S1,918,experiment,84,→,right,→,0.41643070010468364,True,35,1
SK-K-24K24S1,919,experiment,51,→,right,→,0.442557199858129,True,35,0
SK-K-24K24S1,920,experiment,103,↓,no_key,no_letter,-1.0,False,35,0
SK-K-24K24S1,921,experiment,50,→,right,→,0.6537700998596847,True,35,1
SK-K-24K24S1,922,experiment,57,↑,right,→,0.584280899958685,False,35,1
SK-K-24K24S1,923,training,65,↑,right,→,0.4850413000676781,False,35,0
SK-K-24K24S1,924,training,57,↑,up,↑,0.5342731000855565,True,35,1
SK-K-24K24S1,925,experiment,91,→,left,←,0.6582913000602275,False,35,1
SK-K-24K24S1,926,experiment,52,←,no_key,no_letter,-1.0,False,35,1
SK-K-24K24S1,927,experiment,99,↓,down,↓,0.5584228001534939,True,35,1
SK-K-24K24S1,928,experiment,57,↓,right,→,0.7490337998606265,False,35,1
SK-K-24K24S1,929,experiment,106,↓,down,↓,0.4753835001029074,True,35,1
SK-K-24K24S1,930,experiment,83,←,left,←,0.4424246000126004,True,35,1
SK-K-24K24S1,931,experiment,100,↓,down,↓,0.47313209995627403,True,35,0
SK-K-24K24S1,932,experiment,71,→,no_key,no_letter,-1.0,False,35,1
SK-K-24K24S1,933,experiment,88,↓,right,→,0.6819738000631332,False,35,1
SK-K-24K24S1,934,experiment,93,←,left,←,0.49520340003073215,True,35,1
SK-K-24K24S1,935,experiment,105,↑,up,↑,0.6639941998291761,True,35,1
SK-K-24K24S1,936,experiment,95,↑,up,↑,0.5814600000157952,True,35,1
SK-K-24K24S1,937,experiment,68,→,right,→,0.47926599998027086,True,35,1
SK-K-24K24S1,938,experiment,89,↑,right,→,0.693518000189215,False,35,1
SK-K-24K24S1,939,experiment,64,↓,right,→,0.6123585000168532,False,35,1
SK-K-24K24S1,940,experiment,87,↓,down,↓,0.7507168999873102,True,35,1
SK-K-24K24S1,941,experiment,51,→,right,→,0.4257721998728812,True,35,1
SK-K-24K24S1,942,experiment,102,↑,no_key,no_letter,-1.0,False,35,0
SK-K-24K24S1,943,experiment,67,↓,down,↓,0.6628169999457896,True,35,1
SK-K-24K24S1,944,experiment,63,↓,right,→,0.7750536999665201,False,35,1
SK-K-24K24S1,945,experiment,75,↓,down,↓,0.526843799976632,True,35,1
SK-K-24K24S1,946,experiment,59,↑,right,→,0.6139807000290602,False,35,1
SK-K-24K24S1,947,experiment,61,↓,down,↓,0.47318989993073046,True,35,1
SK-K-24K24S1,948,experiment,72,↓,down,↓,0.5574397998861969,True,35,1
SK-K-24K24S1,949,experiment,78,→,right,→,0.6047779000364244,True,35,1
SK-K-24K24S1,950,experiment,108,↑,up,↑,1.9121963998768479,True,35,1
SK-K-24K24S1,951,experiment,65,←,left,←,0.5818175999447703,True,35,1
SK-K-24K24S1,952,experiment,96,↓,down,↓,0.6220819000154734,True,35,1
SK-K-24K24S1,953,experiment,66,←,left,←,0.6867470999713987,True,35,1
SK-K-24K24S1,954,experiment,48,↓,down,↓,0.7315917001105845,True,35,1
SK-K-24K24S1,955,experiment,94,↓,down,↓,0.6783705002162606,True,35,1
SK-K-24K24S1,956,experiment,103,→,left,←,1.1605585999786854,False,35,1
SK-K-24K24S1,957,experiment,101,↓,right,→,1.4242305997759104,False,35,1
SK-K-24K24S1,958,experiment,79,→,right,→,0.7806491998489946,True,35,1
SK-K-24K24S1,959,experiment,62,←,left,←,0.7041340998839587,True,35,1
SK-K-24K24S1,960,experiment,70,↑,up,↑,0.8761972000356764,True,35,1
SK-K-24K24S1,961,experiment,107,↓,right,→,0.9011854999698699,False,35,1
SK-K-24K24S1,962,experiment,84,←,right,→,0.6289707999676466,False,35,1
SK-K-24K24S1,963,experiment,60,↓,down,↓,0.6317646999377757,True,35,1
SK-K-24K24S1,964,experiment,90,→,right,→,0.60016810009256,True,35,1
SK-K-24K24S1,965,experiment,50,→,right,→,0.42590830009430647,True,35,1
SK-K-24K24S1,966,experiment,69,↑,up,↑,1.4546278999187052,True,35,0
SK-K-24K24S1,967,experiment,58,→,right,→,0.5445924999658018,True,35,1
SK-K-24K24S1,968,experiment,54,←,right,→,0.6165295999962837,False,35,1
SK-K-24K24S1,969,experiment,80,←,left,←,0.5411922000348568,True,35,1
SK-K-24K24S1,970,experiment,98,→,right,→,0.5585026000626385,True,35,1
SK-K-24K24S1,971,experiment,56,→,right,→,0.5411157000344247,True,35,1
SK-K-24K24S1,972,experiment,97,↑,no_key,no_letter,-1.0,False,35,1
SK-K-24K24S1,973,experiment,55,↑,no_key,no_letter,-1.0,False,35,1
SK-K-24K24S1,974,experiment,81,←,left,←,0.6362397999037057,True,35,1
SK-K-24K24S1,975,experiment,82,↑,right,→,0.47181209991686046,False,35,1
SK-K-24K24S1,976,experiment,86,↓,right,→,0.5190104998182505,False,35,1
SK-K-24K24S1,977,experiment,53,↓,down,↓,0.7364173999521881,True,35,1
SK-K-24K24S1,978,experiment,74,→,right,→,0.6342547000385821,True,35,1
SK-K-24K24S1,979,experiment,76,←,left,←,0.5353427999652922,True,35,1
SK-K-24K24S1,980,experiment,73,↑,up,↑,0.6413392000831664,True,35,1
SK-K-24K24S1,981,experiment,92,→,right,→,0.4809683000203222,True,35,1
SK-K-24K24S1,982,experiment,49,→,right,→,0.4164829000364989,True,35,1
SK-K-24K24S1,983,experiment,85,↓,no_key,no_letter,-1.0,False,35,0
SK-K-24K24S1,984,experiment,104,↓,down,↓,0.6857797000557184,True,35,1
SK-K-24K24S1,985,experiment,77,↓,down,↓,0.5045940999407321,True,35,1
SK-K-24K24S1,986,training,66,↓,down,↓,0.6849594998639077,True,35,0
SK-K-24K24S1,987,training,74,↑,up,↑,0.7763492001686245,True,35,1
SK-K-24K24S1,988,experiment,104,→,right,→,0.5104369998443872,True,35,1
SK-K-24K24S1,989,experiment,51,←,no_key,no_letter,-1.0,False,35,1
SK-K-24K24S1,990,experiment,57,↑,no_key,no_letter,-1.0,False,35,1
SK-K-24K24S1,991,experiment,103,←,left,←,0.4425311000086367,True,35,1
SK-K-24K24S1,992,experiment,99,↑,up,↑,1.426625199848786,True,35,0
SK-K-24K24S1,993,experiment,92,→,right,→,0.6425270000472665,True,35,1
SK-K-24K24S1,994,experiment,106,↓,down,↓,0.5572538999840617,True,35,1
SK-K-24K24S1,995,experiment,66,→,right,→,0.47303430014289916,True,35,1
SK-K-24K24S1,996,experiment,85,↓,down,↓,0.466012499993667,True,35,1
SK-K-24K24S1,997,experiment,98,→,right,→,0.43436189997009933,True,35,1
SK-K-24K24S1,998,experiment,90,→,right,→,0.5977006999310106,True,35,0
SK-K-24K24S1,999,experiment,78,→,right,→,0.5871134998742491,True,35,1
SK-K-24K24S1,1000,experiment,95,↓,down,↓,0.6518749000970274,True,35,1
SK-K-24K24S1,1001,experiment,86,←,left,←,0.6768296000082046,True,35,1
SK-K-24K24S1,1002,experiment,89,↑,up,↑,0.9716791000682861,True,35,1
SK-K-24K24S1,1003,experiment,67,↑,up,↑,0.81426370004192,True,35,1
SK-K-24K24S1,1004,experiment,93,↓,up,↑,0.8702130999881774,False,35,1
SK-K-24K24S1,1005,experiment,59,↑,up,↑,0.7995833000168204,True,35,1
SK-K-24K24S1,1006,experiment,79,↓,down,↓,0.5729702000971884,True,35,1
SK-K-24K24S1,1007,experiment,73,↓,down,↓,0.7811642000451684,True,35,1
SK-K-24K24S1,1008,experiment,64,→,right,→,0.7362806999590248,True,35,1
SK-K-24K24S1,1009,experiment,101,↓,down,↓,0.7535097000654787,True,35,1
SK-K-24K24S1,1010,experiment,77,↑,down,↓,0.6889671999961138,False,35,1
SK-K-24K24S1,1011,experiment,94,↑,right,→,0.542236200068146,False,35,1
SK-K-24K24S1,1012,experiment,70,←,right,→,0.7125907998997718,False,35,1
SK-K-24K24S1,1013,experiment,68,←,right,→,0.7253581001423299,False,35,1
SK-K-24K24S1,1014,experiment,60,→,right,→,0.5078974000643939,True,35,1
SK-K-24K24S1,1015,experiment,83,→,right,→,0.6995043000206351,True,35,1
SK-K-24K24S1,1016,experiment,108,←,left,←,0.7070129001513124,True,35,1
SK-K-24K24S1,1017,experiment,63,↓,down,↓,0.6896722000092268,True,35,1
SK-K-24K24S1,1018,experiment,91,←,left,←,0.7033832999877632,True,35,1
SK-K-24K24S1,1019,experiment,50,→,right,→,0.650536899920553,True,35,1
SK-K-24K24S1,1020,experiment,100,↑,right,→,0.5748984001111239,False,35,1
SK-K-24K24S1,1021,experiment,69,←,left,←,0.65671919984743,True,35,1
SK-K-24K24S1,1022,experiment,49,↓,right,→,0.6375748999416828,False,35,1
SK-K-24K24S1,1023,experiment,52,←,right,→,0.49843029980547726,False,35,1
SK-K-24K24S1,1024,experiment,53,↑,no_key,no_letter,-1.0,False,35,1
SK-K-24K24S1,1025,experiment,84,↑,right,→,0.7137774000875652,False,35,1
SK-K-24K24S1,1026,experiment,81,←,left,←,0.4978654000442475,True,35,1
SK-K-24K24S1,1027,experiment,54,→,right,→,0.6994251001160592,True,35,1
SK-K-24K24S1,1028,experiment,58,↓,down,↓,0.6838830001652241,True,35,1
SK-K-24K24S1,1029,experiment,102,↓,down,↓,0.7102276999503374,True,35,1
SK-K-24K24S1,1030,experiment,76,←,left,←,0.6162105998955667,True,35,1
SK-K-24K24S1,1031,experiment,48,←,left,←,0.551331500057131,True,35,1
SK-K-24K24S1,1032,experiment,88,←,left,←,0.42581709986552596,True,35,1
SK-K-24K24S1,1033,experiment,97,↓,down,↓,0.6258054000791162,True,35,0
SK-K-24K24S1,1034,experiment,55,←,right,→,0.726239399984479,False,35,1
SK-K-24K24S1,1035,experiment,75,→,right,→,1.143702199915424,True,35,1
SK-K-24K24S1,1036,experiment,96,←,left,←,0.5220135001000017,True,35,1
SK-K-24K24S1,1037,experiment,72,↓,right,→,0.7805878000799567,False,35,1
SK-K-24K24S1,1038,experiment,65,↑,right,→,0.8074121999088675,False,35,1
SK-K-24K24S1,1039,experiment,61,→,left,←,0.8262092999648303,False,35,1
SK-K-24K24S1,1040,experiment,107,→,right,→,0.5973636000417173,True,35,1
SK-K-24K24S1,1041,experiment,80,←,left,←,0.5864359999541193,True,35,1
SK-K-24K24S1,1042,experiment,105,→,no_key,no_letter,-1.0,False,35,1
SK-K-24K24S1,1043,experiment,74,↑,right,→,0.8082208000123501,False,35,1
SK-K-24K24S1,1044,experiment,87,↑,up,↑,0.946785100037232,True,35,1
SK-K-24K24S1,1045,experiment,82,↑,up,↑,0.8569072000682354,True,35,1
SK-K-24K24S1,1046,experiment,62,←,right,→,0.7856809000950307,False,35,1
SK-K-24K24S1,1047,experiment,71,←,left,←,0.674382499884814,True,35,1
SK-K-24K24S1,1048,experiment,56,→,right,→,0.5084742000326514,True,35,1
SK-K-24K24S1,1049,training,50,↓,down,↓,0.6344046001322567,True,35,0
SK-K-24K24S1,1050,training,79,↓,down,↓,0.4865484999027103,True,35,1
SK-K-24K24S1,1051,experiment,72,↑,up,↑,0.7230589999817312,True,35,1
SK-K-24K24S1,1052,experiment,60,←,right,→,0.5610326000023633,False,35,1
SK-K-24K24S1,1053,experiment,59,↓,down,↓,0.6148870999459177,True,35,1
SK-K-24K24S1,1054,experiment,93,↑,right,→,0.7271700999699533,False,35,1
SK-K-24K24S1,1055,experiment,101,↑,up,↑,0.7920170999132097,True,35,1
SK-K-24K24S1,1056,experiment,79,↓,down,↓,0.6538056000135839,True,35,1
SK-K-24K24S1,1057,experiment,97,→,right,→,0.6270331998821348,True,35,1
SK-K-24K24S1,1058,experiment,88,↓,down,↓,0.6445139998104423,True,35,1
SK-K-24K24S1,1059,experiment,89,←,right,→,0.46130129997618496,False,35,1
SK-K-24K24S1,1060,experiment,107,←,right,→,0.4424693000037223,False,35,0
SK-K-24K24S1,1061,experiment,63,↑,down,↓,0.7829674000386149,False,35,0
SK-K-24K24S1,1062,experiment,69,↑,up,↑,0.7603186001069844,True,35,1
SK-K-24K24S1,1063,experiment,52,←,left,←,0.5042355000041425,True,35,1
SK-K-24K24S1,1064,experiment,64,↓,down,↓,0.6145655000582337,True,35,1
SK-K-24K24S1,1065,experiment,94,→,no_key,no_letter,-1.0,False,35,1
SK-K-24K24S1,1066,experiment,55,→,right,→,0.6449658998753875,True,35,1
SK-K-24K24S1,1067,experiment,98,↓,down,↓,0.9304537000134587,True,35,1
SK-K-24K24S1,1068,experiment,92,↓,right,→,1.3341188000049442,False,35,1
SK-K-24K24S1,1069,experiment,77,←,left,←,0.7266960998531431,True,35,1
SK-K-24K24S1,1070,experiment,71,↓,right,→,0.6895586000755429,False,35,1
SK-K-24K24S1,1071,experiment,54,←,left,←,0.8519582999870181,True,35,1
SK-K-24K24S1,1072,experiment,106,↓,down,↓,0.6860706999432296,True,35,1
SK-K-24K24S1,1073,experiment,103,←,left,←,0.7279990999959409,True,35,1
SK-K-24K24S1,1074,experiment,68,↑,up,↑,0.8761482001282275,True,35,1
SK-K-24K24S1,1075,experiment,48,↓,down,↓,0.67275599995628,True,35,1
SK-K-24K24S1,1076,experiment,83,↓,down,↓,0.8659075000323355,True,35,1
SK-K-24K24S1,1077,experiment,102,→,left,←,0.8927941001020372,False,35,1
SK-K-24K24S1,1078,experiment,96,→,right,→,0.7850343999452889,True,35,1
SK-K-24K24S1,1079,experiment,73,→,right,→,0.7690092001575977,True,35,1
SK-K-24K24S1,1080,experiment,62,→,right,→,0.6934559000656009,True,35,1
SK-K-24K24S1,1081,experiment,56,↓,down,↓,0.7506576001178473,True,35,1
SK-K-24K24S1,1082,experiment,87,→,right,→,0.5873497000429779,True,35,1
SK-K-24K24S1,1083,experiment,57,↑,down,↓,0.8726888000965118,False,35,1
SK-K-24K24S1,1084,experiment,66,←,right,→,0.8152588000521064,False,35,1
SK-K-24K24S1,1085,experiment,90,↓,down,↓,0.6721572999376804,True,35,1
SK-K-24K24S1,1086,experiment,82,↓,down,↓,0.5215437000151724,True,35,1
SK-K-24K24S1,1087,experiment,100,↑,up,↑,0.6269048000685871,True,35,1
SK-K-24K24S1,1088,experiment,51,↑,up,↑,0.872850300045684,True,35,1
SK-K-24K24S1,1089,experiment,99,↓,down,↓,0.8763892999850214,True,35,1
SK-K-24K24S1,1090,experiment,105,→,right,→,0.726005099946633,True,35,1
SK-K-24K24S1,1091,experiment,84,→,right,→,0.5726960001047701,True,35,1
SK-K-24K24S1,1092,experiment,75,↑,up,↑,0.7323858998715878,True,35,1
SK-K-24K24S1,1093,experiment,80,←,left,←,0.5162213000003248,True,35,1
SK-K-24K24S1,1094,experiment,65,↓,right,→,0.8255421000067145,False,35,1
SK-K-24K24S1,1095,experiment,81,→,no_key,no_letter,-1.0,False,35,1
SK-K-24K24S1,1096,experiment,61,↓,down,↓,0.6500948001630604,True,35,1
SK-K-24K24S1,1097,experiment,67,↑,right,→,0.5934639000333846,False,35,1
SK-K-24K24S1,1098,experiment,50,←,left,←,0.8809096000622958,True,35,1
SK-K-24K24S1,1099,experiment,78,↑,up,↑,0.6671810001134872,True,35,1
SK-K-24K24S1,1100,experiment,108,→,right,→,0.58029880002141,True,35,1
SK-K-24K24S1,1101,experiment,104,↑,up,↑,0.4821349000558257,True,35,1
SK-K-24K24S1,1102,experiment,91,→,right,→,0.5040818999987096,True,35,1
SK-K-24K24S1,1103,experiment,49,↓,right,→,0.7952863001264632,False,35,1
SK-K-24K24S1,1104,experiment,76,←,right,→,0.2843320001848042,False,35,1
SK-K-24K24S1,1105,experiment,70,←,left,←,0.9667968999128789,True,35,0
SK-K-24K24S1,1106,experiment,53,←,left,←,0.41785909980535507,True,35,1
SK-K-24K24S1,1107,experiment,58,→,right,→,0.5695410999469459,True,35,0
SK-K-24K24S1,1108,experiment,85,↑,right,→,0.7660924999509007,False,35,1
SK-K-24K24S1,1109,experiment,95,↓,down,↓,0.6636675000190735,True,35,1
SK-K-24K24S1,1110,experiment,74,↓,down,↓,0.668046599952504,True,35,1
SK-K-24K24S1,1111,experiment,86,→,right,→,0.684433399932459,True,35,1
SK-K-24K24S1,1112,training,68,→,right,→,0.598235399927944,True,35,0
SK-K-24K24S1,1113,training,54,←,right,→,0.49192080018110573,False,35,1
SK-K-24K24S1,1114,experiment,85,←,left,←,0.6275955999735743,True,35,1
SK-K-24K24S1,1115,experiment,99,↑,right,→,0.5775089000817388,False,35,1
SK-K-24K24S1,1116,experiment,54,←,right,→,0.5281175000127405,False,35,1
SK-K-24K24S1,1117,experiment,53,→,right,→,0.5932410000823438,True,35,1
SK-K-24K24S1,1118,experiment,48,↑,up,↑,0.745510500157252,True,35,1
SK-K-24K24S1,1119,experiment,78,→,right,→,0.6734402999281883,True,35,1
SK-K-24K24S1,1120,experiment,87,↓,left,←,1.0651956999208778,False,35,1
SK-K-24K24S1,1121,experiment,104,←,left,←,0.5075584000442177,True,35,1
SK-K-24K24S1,1122,experiment,103,→,right,→,0.5801780999172479,True,35,1
SK-K-24K24S1,1123,experiment,70,↑,up,↑,0.7821217000018805,True,35,1
SK-K-24K24S1,1124,experiment,92,↑,up,↑,0.7271459000185132,True,35,1
SK-K-24K24S1,1125,experiment,106,↓,right,→,0.7904755999334157,False,35,1
SK-K-24K24S1,1126,experiment,67,↓,down,↓,0.6802962999790907,True,35,1
SK-K-24K24S1,1127,experiment,76,→,right,→,0.5314264001790434,True,35,1
SK-K-24K24S1,1128,experiment,82,←,left,←,0.47447430016472936,True,35,1
SK-K-24K24S1,1129,experiment,58,↓,right,→,0.5078877001069486,False,35,1
SK-K-24K24S1,1130,experiment,94,→,right,→,0.5759142998140305,True,35,1
SK-K-24K24S1,1131,experiment,56,←,left,←,0.5100924000144005,True,35,1
SK-K-24K24S1,1132,experiment,57,↑,up,↑,0.7342650000937283,True,35,1
SK-K-24K24S1,1133,experiment,49,→,right,→,0.5686141999904066,True,35,1
SK-K-24K24S1,1134,experiment,50,↓,up,↑,0.7369677999522537,False,35,1
SK-K-24K24S1,1135,experiment,98,←,left,←,0.5065442000050098,True,35,1
SK-K-24K24S1,1136,experiment,77,→,right,→,0.5961708000395447,True,35,1
SK-K-24K24S1,1137,experiment,93,←,left,←,0.44229350006207824,True,35,1
SK-K-24K24S1,1138,experiment,97,↓,down,↓,0.5545127000659704,True,35,0
SK-K-24K24S1,1139,experiment,66,↑,no_key,no_letter,-1.0,False,35,1
SK-K-24K24S1,1140,experiment,69,→,right,→,0.5119909001514316,True,35,1
SK-K-24K24S1,1141,experiment,95,←,left,←,0.5721297999843955,True,35,1
SK-K-24K24S1,1142,experiment,81,↑,right,→,0.5776035999879241,False,35,1
SK-K-24K24S1,1143,experiment,84,←,left,←,0.3588783999439329,True,35,1
SK-K-24K24S1,1144,experiment,80,↓,right,→,0.5325966000091285,False,35,0
SK-K-24K24S1,1145,experiment,102,↓,down,↓,0.7411254998296499,True,35,1
SK-K-24K24S1,1146,experiment,55,↑,up,↑,0.7086589999962598,True,35,1
SK-K-24K24S1,1147,experiment,64,↓,down,↓,0.5386369999032468,True,35,1
SK-K-24K24S1,1148,experiment,63,→,right,→,0.4173824000172317,True,35,1
SK-K-24K24S1,1149,experiment,105,→,right,→,0.37553109996952116,True,35,0
SK-K-24K24S1,1150,experiment,65,↑,up,↑,0.6382156999316067,True,35,0
SK-K-24K24S1,1151,experiment,62,←,right,→,0.7437261000741273,False,35,1
SK-K-24K24S1,1152,experiment,61,↑,up,↑,0.6613932999316603,True,35,1
SK-K-24K24S1,1153,experiment,60,↑,left,←,0.8310168997850269,False,35,1
SK-K-24K24S1,1154,experiment,86,←,left,←,0.5365038998425007,True,35,1
SK-K-24K24S1,1155,experiment,51,↓,right,→,0.8019218998961151,False,35,1
SK-K-24K24S1,1156,experiment,79,→,right,→,0.6713401000015438,True,35,1
SK-K-24K24S1,1157,experiment,90,↓,down,↓,0.726024700095877,True,35,1
SK-K-24K24S1,1158,experiment,71,→,right,→,0.5292605001013726,True,35,1
SK-K-24K24S1,1159,experiment,100,→,right,→,0.6664100999478251,True,35,1
SK-K-24K24S1,1160,experiment,101,→,right,→,0.6059435000643134,True,35,1
SK-K-24K24S1,1161,experiment,72,↑,up,↑,0.7253491000737995,True,35,1
SK-K-24K24S1,1162,experiment,75,←,left,←,0.6229783999733627,True,35,1
SK-K-24K24S1,1163,experiment,68,→,left,←,0.7593744001351297,False,35,1
SK-K-24K24S1,1164,experiment,74,↓,down,↓,0.7918310998938978,True,35,1
SK-K-24K24S1,1165,experiment,83,↓,down,↓,0.6839376001153141,True,35,1
SK-K-24K24S1,1166,experiment,91,↑,down,↓,0.49001439986750484,False,35,1
SK-K-24K24S1,1167,experiment,107,↑,up,↑,1.0903209999669343,True,35,1
SK-K-24K24S1,1168,experiment,59,↓,down,↓,0.65072220005095,True,35,1
SK-K-24K24S1,1169,experiment,73,↑,up,↑,0.9200726998969913,True,35,1
SK-K-24K24S1,1170,experiment,89,↑,up,↑,0.7972989999689162,True,35,1
SK-K-24K24S1,1171,experiment,88,←,left,←,0.6400461001321673,True,35,1
SK-K-24K24S1,1172,experiment,52,↑,up,↑,0.828589899931103,True,35,1
SK-K-24K24S1,1173,experiment,96,→,right,→,0.5952868000604212,True,35,1
SK-K-24K24S1,1174,experiment,108,↓,right,→,0.8552877001930028,False,35,1
SK-K-24K24S1,1175,training,77,←,left,←,0.5263579001184553,True,35,0
SK-K-24K24S1,1176,training,71,↑,right,→,0.5936157999094576,False,35,1
SK-K-24K24S1,1177,experiment,64,↓,down,↓,0.628282300196588,True,35,1
SK-K-24K24S1,1178,experiment,103,↓,down,↓,0.616513199871406,True,35,1
SK-K-24K24S1,1179,experiment,56,↓,down,↓,0.5818052999675274,True,35,1
SK-K-24K24S1,1180,experiment,52,↓,down,↓,0.5402408000081778,True,35,1
SK-K-24K24S1,1181,experiment,100,↑,left,←,0.564647400053218,False,35,1
SK-K-24K24S1,1182,experiment,57,←,left,←,0.6509620000142604,True,35,1
SK-K-24K24S1,1183,experiment,85,←,left,←,0.6603745999746025,True,35,1
SK-K-24K24S1,1184,experiment,74,→,right,→,0.672909899847582,True,35,1
SK-K-24K24S1,1185,experiment,102,↑,up,↑,0.867733399849385,True,35,1
SK-K-24K24S1,1186,experiment,66,↓,down,↓,0.722584699979052,True,35,1
SK-K-24K24S1,1187,experiment,105,←,left,←,0.5144317999947816,True,35,1
SK-K-24K24S1,1188,experiment,54,←,left,←,0.6915353999938816,True,35,1
SK-K-24K24S1,1189,experiment,63,↑,up,↑,0.7145207000430673,True,35,1
SK-K-24K24S1,1190,experiment,101,↑,right,→,0.7878464001696557,False,35,1
SK-K-24K24S1,1191,experiment,76,→,right,→,0.7142988000996411,True,35,1
SK-K-24K24S1,1192,experiment,94,←,left,←,0.7742643000092357,True,35,1
SK-K-24K24S1,1193,experiment,80,←,right,→,1.3242667000740767,False,35,1
SK-K-24K24S1,1194,experiment,86,←,left,←,0.5543267000466585,True,35,1
SK-K-24K24S1,1195,experiment,108,↓,left,←,0.7197632999159396,False,35,1
SK-K-24K24S1,1196,experiment,104,→,left,←,0.39395579998381436,False,35,1
SK-K-24K24S1,1197,experiment,53,↓,down,↓,0.6621706001460552,True,35,0
SK-K-24K24S1,1198,experiment,65,↑,up,↑,0.7337136000860482,True,35,1
SK-K-24K24S1,1199,experiment,88,↑,up,↑,0.5307716000825167,True,35,1
SK-K-24K24S1,1200,experiment,95,↓,down,↓,0.6051442001480609,True,35,1
SK-K-24K24S1,1201,experiment,62,←,left,←,0.6402175000403076,True,35,1
SK-K-24K24S1,1202,experiment,92,↑,up,↑,0.9276060999836773,True,35,1
SK-K-24K24S1,1203,experiment,96,→,right,→,0.5624265000224113,True,35,1
SK-K-24K24S1,1204,experiment,106,↑,left,←,0.8642490999773145,False,35,1
SK-K-24K24S1,1205,experiment,84,↓,down,↓,0.6653705001808703,True,35,1
SK-K-24K24S1,1206,experiment,69,→,right,→,0.4795886999927461,True,35,1
SK-K-24K24S1,1207,experiment,67,→,right,→,0.5014128000475466,True,35,1
SK-K-24K24S1,1208,experiment,82,↓,left,←,0.8298508999869227,False,35,1
SK-K-24K24S1,1209,experiment,50,→,right,→,0.44245330011472106,True,35,1
SK-K-24K24S1,1210,experiment,73,↓,right,→,0.3431808000896126,False,35,0
SK-K-24K24S1,1211,experiment,98,←,right,→,0.6740761999972165,False,35,0
SK-K-24K24S1,1212,experiment,60,→,right,→,0.4829270998016,True,35,1
SK-K-24K24S1,1213,experiment,83,←,left,←,0.5400173999369144,True,35,1
SK-K-24K24S1,1214,experiment,77,→,right,→,0.46053389995358884,True,35,1
SK-K-24K24S1,1215,experiment,68,←,left,←,0.4342577001079917,True,35,0
SK-K-24K24S1,1216,experiment,78,←,left,←,0.4631330000702292,True,35,0
SK-K-24K24S1,1217,experiment,87,↑,up,↑,0.5507140001282096,True,35,1
SK-K-24K24S1,1218,experiment,51,←,left,←,0.6073892000131309,True,35,1
SK-K-24K24S1,1219,experiment,99,↓,no_key,no_letter,-1.0,False,35,1
SK-K-24K24S1,1220,experiment,81,↑,up,↑,0.8118034000508487,True,35,1
SK-K-24K24S1,1221,experiment,107,←,left,←,0.7515334999188781,True,35,1
SK-K-24K24S1,1222,experiment,48,←,left,←,0.426513799931854,True,35,1
SK-K-24K24S1,1223,experiment,70,→,right,→,0.6798876000102609,True,35,0
SK-K-24K24S1,1224,experiment,91,↑,right,→,0.5820664998609573,False,35,1
SK-K-24K24S1,1225,experiment,93,↓,down,↓,0.8715862999670208,True,35,1
SK-K-24K24S1,1226,experiment,55,↑,up,↑,0.5937603998463601,True,35,1
SK-K-24K24S1,1227,experiment,71,→,right,→,0.5062301000580192,True,35,1
SK-K-24K24S1,1228,experiment,97,↑,up,↑,0.5893198000267148,True,35,1
SK-K-24K24S1,1229,experiment,72,→,right,→,0.48538809991441667,True,35,1
SK-K-24K24S1,1230,experiment,61,→,right,→,0.48559639998711646,True,35,1
SK-K-24K24S1,1231,experiment,75,→,right,→,0.5449562999419868,True,35,1
SK-K-24K24S1,1232,experiment,49,→,right,→,0.4339519999921322,True,35,1
SK-K-24K24S1,1233,experiment,89,→,right,→,0.3424525000154972,True,35,0
SK-K-24K24S1,1234,experiment,90,←,left,←,0.47113510011695325,True,35,0
SK-K-24K24S1,1235,experiment,58,→,left,←,1.2401680001057684,False,35,1
SK-K-24K24S1,1236,experiment,79,↑,left,←,0.5157598999794573,False,35,1
SK-K-24K24S1,1237,experiment,59,↓,down,↓,0.60323949996382,True,35,1
SK-K-24K24S1,1238,training,107,←,left,←,0.4600456999614835,True,35,0
SK-K-24K24S1,1239,training,58,→,right,→,0.48533079982735217,True,35,0
SK-K-24K24S1,1240,experiment,108,↓,down,↓,0.5097572999075055,True,35,1
SK-K-24K24S1,1241,experiment,85,↑,left,←,0.5802686999086291,False,35,1
SK-K-24K24S1,1242,experiment,59,↓,down,↓,0.6089019000064582,True,35,1
SK-K-24K24S1,1243,experiment,63,←,left,←,0.5155507999006659,True,35,1
SK-K-24K24S1,1244,experiment,84,↓,right,→,0.34235700010322034,False,35,1
SK-K-24K24S1,1245,experiment,56,↓,down,↓,0.47377040004357696,True,35,0
SK-K-24K24S1,1246,experiment,62,↑,up,↑,0.5055931000970304,True,35,1
SK-K-24K24S1,1247,experiment,86,←,no_key,no_letter,-1.0,False,35,1
SK-K-24K24S1,1248,experiment,83,←,left,←,0.42575019993819296,True,35,1
SK-K-24K24S1,1249,experiment,82,←,left,←,0.3759351000189781,True,35,0
SK-K-24K24S1,1250,experiment,106,↑,right,→,0.4340154000092298,False,35,0
SK-K-24K24S1,1251,experiment,93,↑,up,↑,0.6049351000692695,True,35,0
SK-K-24K24S1,1252,experiment,87,→,left,←,0.567467899993062,False,35,1
SK-K-24K24S1,1253,experiment,104,←,left,←,0.47852520016022027,True,35,1
SK-K-24K24S1,1254,experiment,66,←,left,←,0.5007312998641282,True,35,1
SK-K-24K24S1,1255,experiment,57,↑,right,→,0.6054612000007182,False,35,1
SK-K-24K24S1,1256,experiment,76,↓,down,↓,0.5393617998342961,True,35,1
SK-K-24K24S1,1257,experiment,73,→,right,→,0.37576580001041293,True,35,1
SK-K-24K24S1,1258,experiment,67,←,left,←,0.5354581999126822,True,35,0
SK-K-24K24S1,1259,experiment,88,↓,up,↑,0.21874050004407763,False,35,1
SK-K-24K24S1,1260,experiment,92,↑,right,→,0.6176398999523371,False,35,0
SK-K-24K24S1,1261,experiment,71,↓,right,→,0.6575152000878006,False,35,1
SK-K-24K24S1,1262,experiment,72,↑,up,↑,0.7503863999154419,True,35,1
SK-K-24K24S1,1263,experiment,80,↑,left,←,0.9493801000062376,False,35,1
SK-K-24K24S1,1264,experiment,61,↓,down,↓,0.7707942000124604,True,35,1
SK-K-24K24S1,1265,experiment,91,↓,right,→,0.6377439999487251,False,35,1
SK-K-24K24S1,1266,experiment,105,↓,down,↓,0.6886613999959081,True,35,1
SK-K-24K24S1,1267,experiment,48,←,left,←,0.7649387998972088,True,35,1
SK-K-24K24S1,1268,experiment,90,←,left,←,0.7120069998782128,True,35,1
SK-K-24K24S1,1269,experiment,49,↑,up,↑,0.7709598999936134,True,35,1
SK-K-24K24S1,1270,experiment,53,→,left,←,0.762113899923861,False,35,1
SK-K-24K24S1,1271,experiment,103,←,left,←,0.745308700017631,True,35,1
SK-K-24K24S1,1272,experiment,100,↑,left,←,0.6498205000534654,False,35,1
SK-K-24K24S1,1273,experiment,101,↑,up,↑,0.6779981998261064,True,35,1
SK-K-24K24S1,1274,experiment,99,↓,up,↑,0.689514699857682,False,35,1
SK-K-24K24S1,1275,experiment,97,←,left,←,0.6691821001004428,True,35,1
SK-K-24K24S1,1276,experiment,77,←,right,→,0.5525270998477936,False,35,1
SK-K-24K24S1,1277,experiment,69,→,right,→,0.6275452999398112,True,35,1
SK-K-24K24S1,1278,experiment,81,↓,down,↓,0.5032911999151111,True,35,1
SK-K-24K24S1,1279,experiment,95,↓,down,↓,0.38419420015998185,True,35,1
SK-K-24K24S1,1280,experiment,96,↑,right,→,0.5234101999085397,False,35,0
SK-K-24K24S1,1281,experiment,50,↓,right,→,0.5414405001793057,False,35,1
SK-K-24K24S1,1282,experiment,89,→,right,→,0.24378519994206727,True,35,1
SK-K-24K24S1,1283,experiment,68,↑,right,→,0.3419755999930203,False,35,0
SK-K-24K24S1,1284,experiment,75,←,left,←,0.7278825999237597,True,35,0
SK-K-24K24S1,1285,experiment,51,↑,right,→,0.8017086999025196,False,35,1
SK-K-24K24S1,1286,experiment,54,→,right,→,0.4340007998980582,True,35,1
SK-K-24K24S1,1287,experiment,58,↑,up,↑,0.8341579001862556,True,35,0
SK-K-24K24S1,1288,experiment,79,→,left,←,1.6221837000921369,False,35,1
SK-K-24K24S1,1289,experiment,60,↓,down,↓,0.6327068000100553,True,35,1
SK-K-24K24S1,1290,experiment,78,↑,up,↑,1.2772886999882758,True,35,1
SK-K-24K24S1,1291,experiment,74,↓,down,↓,0.6733407001011074,True,35,1
SK-K-24K24S1,1292,experiment,70,→,right,→,0.6065009001176804,True,35,1
SK-K-24K24S1,1293,experiment,64,←,left,←,1.944580800132826,True,35,1
SK-K-24K24S1,1294,experiment,94,→,right,→,0.40928620006889105,True,35,1
SK-K-24K24S1,1295,experiment,52,→,left,←,0.5690651999320835,False,35,0
SK-K-24K24S1,1296,experiment,102,→,right,→,0.4426150000654161,True,35,1
SK-K-24K24S1,1297,experiment,65,→,no_key,no_letter,-1.0,False,35,0
SK-K-24K24S1,1298,experiment,98,→,left,←,1.0486112998332828,False,35,1
SK-K-24K24S1,1299,experiment,55,→,right,→,0.5398850000929087,True,35,1
SK-K-24K24S1,1300,experiment,107,→,no_key,no_letter,-1.0,False,35,1
SK-K-24K24S1,1301,training,74,→,left,←,0.5858732000924647,False,35,0
SK-K-24K24S1,1302,training,82,←,left,←,0.39217830006964505,True,35,1
SK-K-24K24S1,1303,experiment,75,→,right,→,0.43351650005206466,True,35,0
SK-K-24K24S1,1304,experiment,56,↑,up,↑,0.6007928000763059,True,35,0
SK-K-24K24S1,1305,experiment,105,↓,no_key,no_letter,-1.0,False,35,1
SK-K-24K24S1,1306,experiment,107,→,right,→,0.5392642000224441,True,35,1
SK-K-24K24S1,1307,experiment,57,↑,right,→,0.48215569998137653,False,35,1
SK-K-24K24S1,1308,experiment,101,↓,left,←,0.5650255000218749,False,35,1
SK-K-24K24S1,1309,experiment,52,←,no_key,no_letter,-1.0,False,35,1
SK-K-24K24S1,1310,experiment,58,→,no_key,no_letter,-1.0,False,35,1
SK-K-24K24S1,1311,experiment,82,→,left,←,0.5443923000711948,False,35,1
SK-K-24K24S1,1312,experiment,77,←,right,→,0.37611890002153814,False,35,1
SK-K-24K24S1,1313,experiment,87,↓,left,←,0.28529759985394776,False,35,0
SK-K-24K24S1,1314,experiment,55,→,right,→,0.41762230009771883,True,35,0
SK-K-24K24S1,1315,experiment,89,↑,right,→,0.3926367999520153,False,35,0
SK-K-24K24S1,1316,experiment,73,↓,left,←,0.5422652000561357,False,35,0
SK-K-24K24S1,1317,experiment,99,→,no_key,no_letter,-1.0,False,35,1
SK-K-24K24S1,1318,experiment,103,↓,down,↓,1.0700393000151962,True,35,1
SK-K-24K24S1,1319,experiment,92,↑,up,↑,0.5959596000611782,True,35,1
SK-K-24K24S1,1320,experiment,67,↓,no_key,no_letter,-1.0,False,35,1
SK-K-24K24S1,1321,experiment,83,→,right,→,0.6430465001612902,True,35,1
SK-K-24K24S1,1322,experiment,61,→,right,→,0.34238979988731444,True,35,1
SK-K-24K24S1,1323,experiment,85,↓,down,↓,0.6260530999861658,True,35,0
SK-K-24K24S1,1324,experiment,69,↓,down,↓,0.4346693002153188,True,35,1
SK-K-24K24S1,1325,experiment,79,↑,right,→,1.1412215000018477,False,35,0
SK-K-24K24S1,1326,experiment,106,→,right,→,0.46832809993065894,True,35,1
SK-K-24K24S1,1327,experiment,72,→,right,→,0.40150030003860593,True,35,1
SK-K-24K24S1,1328,experiment,98,↓,down,↓,0.9432107000611722,True,35,0
SK-K-24K24S1,1329,experiment,86,←,right,→,0.8448256999254227,False,35,1
SK-K-24K24S1,1330,experiment,64,↓,down,↓,0.6934539000503719,True,35,1
SK-K-24K24S1,1331,experiment,81,→,left,←,0.91845260001719,False,35,1
SK-K-24K24S1,1332,experiment,90,←,right,→,1.7392904001753777,False,35,1
SK-K-24K24S1,1333,experiment,102,→,right,→,0.4993416001088917,True,35,1
SK-K-24K24S1,1334,experiment,100,↑,up,↑,0.5417742999270558,True,35,1
SK-K-24K24S1,1335,experiment,71,→,right,→,0.4804438999854028,True,35,1
SK-K-24K24S1,1336,experiment,49,↓,down,↓,0.46879620011895895,True,35,1
SK-K-24K24S1,1337,experiment,63,↑,up,↑,0.4922136999666691,True,35,1
SK-K-24K24S1,1338,experiment,74,→,right,→,0.41713950014673173,True,35,1
SK-K-24K24S1,1339,experiment,78,←,right,→,0.3507407000288367,False,35,0
SK-K-24K24S1,1340,experiment,70,←,right,→,0.35022079991176724,False,35,0
SK-K-24K24S1,1341,experiment,68,↑,up,↑,0.8009681000839919,True,35,0
SK-K-24K24S1,1342,experiment,93,→,right,→,0.8897288001608104,True,35,1
SK-K-24K24S1,1343,experiment,94,↑,up,↑,0.7821812001056969,True,35,1
SK-K-24K24S1,1344,experiment,76,↓,up,↑,0.4092725000809878,False,35,1
SK-K-24K24S1,1345,experiment,80,→,right,→,0.5776988998986781,True,35,0
SK-K-24K24S1,1346,experiment,54,←,left,←,0.5766723998822272,True,35,1
SK-K-24K24S1,1347,experiment,53,↓,left,←,0.4722690999042243,False,35,1
SK-K-24K24S1,1348,experiment,91,↓,no_key,no_letter,-1.0,False,35,1
SK-K-24K24S1,1349,experiment,48,↑,up,↑,0.5832253000698984,True,35,1
SK-K-24K24S1,1350,experiment,88,←,up,↑,0.6424799000378698,False,35,1
SK-K-24K24S1,1351,experiment,50,→,right,→,0.5038898999337107,True,35,1
SK-K-24K24S1,1352,experiment,96,↑,no_key,no_letter,-1.0,False,35,1
SK-K-24K24S1,1353,experiment,84,↑,up,↑,0.5125128000508994,True,35,1
SK-K-24K24S1,1354,experiment,65,↓,right,→,0.42507189977914095,False,35,1
SK-K-24K24S1,1355,experiment,59,↓,right,→,0.7204179000109434,False,35,0
SK-K-24K24S1,1356,experiment,62,→,no_key,no_letter,-1.0,False,35,1
SK-K-24K24S1,1357,experiment,51,←,left,←,0.6237095000687987,True,35,1
SK-K-24K24S1,1358,experiment,66,↓,down,↓,0.7596619999967515,True,35,1
SK-K-24K24S1,1359,experiment,97,↑,right,→,1.0247641000896692,False,35,1
SK-K-24K24S1,1360,experiment,108,↓,down,↓,0.499555200105533,True,35,1
SK-K-24K24S1,1361,experiment,104,↑,up,↑,0.5325796999968588,True,35,1
SK-K-24K24S1,1362,experiment,60,←,right,→,0.9387916999403387,False,35,1
SK-K-24K24S1,1363,experiment,95,↓,down,↓,0.6372376000508666,True,35,1
SK-K-24K24S1,1364,training,60,↑,right,→,0.4092989999335259,False,36,0
SK-K-24K24S1,1365,training,63,↓,left,←,0.1600277000106871,False,36,0
SK-K-24K24S1,1366,experiment,59,→,right,→,0.39237959985621274,True,36,0
SK-K-24K24S1,1367,experiment,92,→,right,→,0.4256047001108527,True,36,0
SK-K-24K24S1,1368,experiment,86,↑,up,↑,0.6928707000333816,True,36,0
SK-K-24K24S1,1369,experiment,71,↑,up,↑,0.4737770000938326,True,36,1
SK-K-24K24S1,1370,experiment,66,↓,down,↓,0.5681465000379831,True,36,1
SK-K-24K24S1,1371,experiment,87,↑,left,←,1.5481789999175817,False,36,1
SK-K-24K24S1,1372,experiment,105,↑,left,←,0.6109668000135571,False,36,1
SK-K-24K24S1,1373,experiment,78,←,right,→,0.48879140010103583,False,36,1
SK-K-24K24S1,1374,experiment,91,↑,no_key,no_letter,-1.0,False,36,1
SK-K-24K24S1,1375,experiment,72,→,no_key,no_letter,-1.0,False,36,1
SK-K-24K24S1,1376,experiment,76,←,right,→,0.9181611998938024,False,36,1
SK-K-24K24S1,1377,experiment,65,←,left,←,1.2914672000333667,True,36,1
SK-K-24K24S1,1378,experiment,68,←,right,→,0.4168255999684334,False,36,1
SK-K-24K24S1,1379,experiment,96,→,left,←,0.8475496000610292,False,36,0
SK-K-24K24S1,1380,experiment,75,↓,right,→,0.2770684000570327,False,36,1
SK-K-24K24S1,1381,experiment,83,→,no_key,no_letter,-1.0,False,36,0
SK-K-24K24S1,1382,experiment,79,↑,no_key,no_letter,-1.0,False,36,1
SK-K-24K24S1,1383,experiment,98,→,right,→,0.5151376000139862,True,36,1
SK-K-24K24S1,1384,experiment,108,←,left,←,0.3926108998712152,True,36,1
SK-K-24K24S1,1385,experiment,101,↓,down,↓,0.5280419001355767,True,36,0
SK-K-24K24S1,1386,experiment,81,→,no_key,no_letter,-1.0,False,36,1
SK-K-24K24S1,1387,experiment,99,↑,up,↑,0.8076390000060201,True,36,1
SK-K-24K24S1,1388,experiment,88,←,right,→,0.6095835999585688,False,36,1
SK-K-24K24S1,1389,experiment,93,↓,down,↓,0.554324199911207,True,36,1
SK-K-24K24S1,1390,experiment,77,→,right,→,0.4268485000357032,True,36,1
SK-K-24K24S1,1391,experiment,60,→,right,→,0.9641430999618024,True,36,0
SK-K-24K24S1,1392,experiment,107,↑,left,←,0.23531070002354681,False,36,1
SK-K-24K24S1,1393,experiment,51,→,no_key,no_letter,-1.0,False,36,0
SK-K-24K24S1,1394,experiment,62,↑,up,↑,0.5121573000214994,True,36,1
SK-K-24K24S1,1395,experiment,67,↑,up,↑,0.6055074001196772,True,36,1
SK-K-24K24S1,1396,experiment,104,↑,up,↑,0.6900013999547809,True,36,1
SK-K-24K24S1,1397,experiment,106,↑,up,↑,0.4505551001057029,True,36,1
SK-K-24K24S1,1398,experiment,73,↓,up,↑,0.5601545001845807,False,36,0
SK-K-24K24S1,1399,experiment,70,↑,no_key,no_letter,-1.0,False,36,1
SK-K-24K24S1,1400,experiment,56,↓,up,↑,0.7921350998803973,False,36,1
SK-K-24K24S1,1401,experiment,100,←,right,→,1.5272944001480937,False,36,1
SK-K-24K24S1,1402,experiment,49,↓,right,→,0.408710699994117,False,36,1
