PART_ID,Trial_no,Trial_type,CSI,Stim_letter,Key_pressed,letter_choose,Rt,Corr,Stimulus Time,nDropped
WZ-K-21K21S2,1,training,120,→,right,→,1.1581403999589384,True,60,1
WZ-K-21K21S2,2,training,120,←,left,←,0.38576909992843866,True,60,0
WZ-K-21K21S2,3,training,120,←,right,→,0.45973589993081987,False,60,0
WZ-K-21K21S2,4,training,120,→,right,→,0.5257455001119524,True,60,0
WZ-K-21K21S2,5,training,120,→,right,→,0.48591559985652566,True,60,0
WZ-K-21K21S2,6,training,120,↓,down,↓,0.6425020000897348,True,60,0
WZ-K-21K21S2,7,training,120,↑,up,↑,0.4770776000805199,True,60,0
WZ-K-21K21S2,8,training,120,↑,up,↑,0.43535790010355413,True,60,0
WZ-K-21K21S2,9,training,120,→,right,→,0.5755344000644982,True,60,0
WZ-K-21K21S2,10,training,120,↑,up,↑,0.41110310005024076,True,60,0
WZ-K-21K21S2,11,training,120,→,right,→,0.559580400120467,True,60,0
WZ-K-21K21S2,12,training,120,↓,down,↓,0.7686683000065386,True,60,0
WZ-K-21K21S2,13,training,120,←,left,←,0.5254646998364478,True,60,0
WZ-K-21K21S2,14,training,120,↑,up,↑,0.485898399958387,True,60,0
WZ-K-21K21S2,15,training,120,←,left,←,0.5264139999635518,True,60,0
WZ-K-21K21S2,16,training,120,↓,down,↓,0.5172217998187989,True,60,0
WZ-K-21K21S2,17,training,120,←,left,←,0.6429246000479907,True,60,0
WZ-K-21K21S2,18,training,120,↑,up,↑,0.6947702998295426,True,60,0
WZ-K-21K21S2,19,training,120,→,right,→,0.5088724000379443,True,60,0
WZ-K-21K21S2,20,training,120,↓,down,↓,0.6010250998660922,True,60,0
WZ-K-21K21S2,21,no_adaptation,120,↑,up,↑,0.7094974999781698,True,36,0
WZ-K-21K21S2,22,no_adaptation,120,↑,up,↑,0.7280352001544088,True,36,0
WZ-K-21K21S2,23,no_adaptation,120,↑,up,↑,0.6419024001806974,True,36,0
WZ-K-21K21S2,24,no_adaptation,120,→,right,→,0.5514369998127222,True,36,0
WZ-K-21K21S2,25,no_adaptation,120,↑,up,↑,0.4721836999524385,True,36,0
WZ-K-21K21S2,26,no_adaptation,120,↓,down,↓,0.6125431000255048,True,36,0
WZ-K-21K21S2,27,no_adaptation,120,↑,up,↑,0.5230465000495315,True,36,0
WZ-K-21K21S2,28,no_adaptation,120,↑,up,↑,0.47732409997843206,True,36,0
WZ-K-21K21S2,29,no_adaptation,120,→,right,→,0.5050786000210792,True,36,0
WZ-K-21K21S2,30,no_adaptation,120,→,right,→,0.6520112999714911,True,36,0
WZ-K-21K21S2,31,no_adaptation,120,←,left,←,0.5128734998870641,True,36,0
WZ-K-21K21S2,32,no_adaptation,120,←,left,←,1.139083500020206,True,36,0
WZ-K-21K21S2,33,no_adaptation,120,→,right,→,0.5889197001233697,True,36,0
WZ-K-21K21S2,34,no_adaptation,120,←,left,←,0.4259093999862671,True,36,0
WZ-K-21K21S2,35,no_adaptation,120,←,left,←,0.7700664999429137,True,36,0
WZ-K-21K21S2,36,no_adaptation,120,→,right,→,0.5066756999585778,True,36,0
WZ-K-21K21S2,37,no_adaptation,120,↓,down,↓,0.781156999990344,True,36,0
WZ-K-21K21S2,38,no_adaptation,120,↑,up,↑,0.5809692000038922,True,36,0
WZ-K-21K21S2,39,no_adaptation,120,→,right,→,0.8768544001504779,True,36,0
WZ-K-21K21S2,40,no_adaptation,120,↓,down,↓,0.5848799000959843,True,36,0
WZ-K-21K21S2,41,training,69,→,right,→,0.6741220999974757,True,36,0
WZ-K-21K21S2,42,training,108,↑,up,↑,0.6265742999967188,True,36,1
WZ-K-21K21S2,43,experiment,92,←,left,←,0.6264573000371456,True,36,1
WZ-K-21K21S2,44,experiment,90,↓,down,↓,0.5712385999504477,True,36,1
WZ-K-21K21S2,45,experiment,57,↓,down,↓,0.5693338999990374,True,36,1
WZ-K-21K21S2,46,experiment,95,↑,up,↑,0.5786961999256164,True,36,1
WZ-K-21K21S2,47,experiment,59,←,left,←,0.4795353999361396,True,36,1
WZ-K-21K21S2,48,experiment,97,↑,up,↑,0.4445248998235911,True,36,1
WZ-K-21K21S2,49,experiment,73,↑,up,↑,0.6406299998052418,True,36,0
WZ-K-21K21S2,50,experiment,100,←,left,←,0.4932045000605285,True,36,1
WZ-K-21K21S2,51,experiment,48,←,left,←,0.4024680000729859,True,36,1
WZ-K-21K21S2,52,experiment,77,↑,left,←,0.08593950001522899,False,36,0
WZ-K-21K21S2,53,experiment,94,↑,up,↑,0.5552906000521034,True,36,0
WZ-K-21K21S2,54,experiment,72,→,right,→,0.6605569999665022,True,36,1
WZ-K-21K21S2,55,experiment,69,←,left,←,0.755026200087741,True,36,1
WZ-K-21K21S2,56,experiment,53,↓,down,↓,0.7627044999971986,True,36,1
WZ-K-21K21S2,57,experiment,88,→,right,→,0.5264913998544216,True,36,1
WZ-K-21K21S2,58,experiment,101,→,right,→,0.5272947000339627,True,36,1
WZ-K-21K21S2,59,experiment,96,↓,down,↓,0.7857250000815839,True,36,1
WZ-K-21K21S2,60,experiment,99,↓,down,↓,0.6651899998541921,True,36,1
WZ-K-21K21S2,61,experiment,58,→,right,→,0.7070503002032638,True,36,1
WZ-K-21K21S2,62,experiment,87,←,left,←,0.673390100011602,True,36,1
WZ-K-21K21S2,63,experiment,71,→,right,→,0.5102351000532508,True,36,1
WZ-K-21K21S2,64,experiment,85,→,right,→,0.829391699982807,True,36,1
WZ-K-21K21S2,65,experiment,81,←,left,←,0.7767201000824571,True,36,1
WZ-K-21K21S2,66,experiment,78,↓,down,↓,0.7352497999090701,True,36,1
WZ-K-21K21S2,67,experiment,83,←,left,←,0.7582888999022543,True,36,1
WZ-K-21K21S2,68,experiment,54,←,left,←,0.8455809000879526,True,36,1
WZ-K-21K21S2,69,experiment,61,↓,down,↓,0.6868511999491602,True,36,1
WZ-K-21K21S2,70,experiment,67,↑,up,↑,0.8289371998980641,True,36,1
WZ-K-21K21S2,71,experiment,55,←,left,←,0.8330871001817286,True,36,1
WZ-K-21K21S2,72,experiment,68,↑,up,↑,0.8726530000567436,True,36,1
WZ-K-21K21S2,73,experiment,74,↑,up,↑,0.8129046999383718,True,36,1
WZ-K-21K21S2,74,experiment,50,←,left,←,1.283131100004539,True,36,1
WZ-K-21K21S2,75,experiment,60,↓,down,↓,0.6194673001300544,True,36,1
WZ-K-21K21S2,76,experiment,102,←,left,←,0.6325187999755144,True,36,1
WZ-K-21K21S2,77,experiment,63,↑,up,↑,0.8019268000498414,True,36,1
WZ-K-21K21S2,78,experiment,65,↑,up,↑,0.8359140998218209,True,36,1
WZ-K-21K21S2,79,experiment,108,↑,up,↑,0.8544180998578668,True,36,1
WZ-K-21K21S2,80,experiment,56,↓,down,↓,0.8490871000103652,True,36,1
WZ-K-21K21S2,81,experiment,80,↓,down,↓,0.924073199974373,True,36,1
WZ-K-21K21S2,82,experiment,106,↓,down,↓,0.747226299950853,True,36,1
WZ-K-21K21S2,83,experiment,52,↓,down,↓,0.6916583999991417,True,36,1
WZ-K-21K21S2,84,experiment,89,↑,up,↑,0.7702527001965791,True,36,1
WZ-K-21K21S2,85,experiment,70,↓,down,↓,0.8115506998728961,True,36,1
WZ-K-21K21S2,86,experiment,76,←,left,←,0.6330868999939412,True,36,1
WZ-K-21K21S2,87,experiment,51,→,right,→,0.886582100065425,True,36,1
WZ-K-21K21S2,88,experiment,49,←,left,←,0.7225663000717759,True,36,1
WZ-K-21K21S2,89,experiment,86,→,right,→,0.7207193998619914,True,36,1
WZ-K-21K21S2,90,experiment,84,↑,up,↑,0.7273649999406189,True,36,1
WZ-K-21K21S2,91,experiment,75,→,right,→,0.6888790000230074,True,36,1
WZ-K-21K21S2,92,experiment,64,↓,down,↓,0.6558398001361638,True,36,1
WZ-K-21K21S2,93,experiment,105,←,left,←,0.4089432000182569,True,36,1
WZ-K-21K21S2,94,experiment,93,→,right,→,0.7943321000784636,True,36,0
WZ-K-21K21S2,95,experiment,104,↑,up,↑,0.8311616000719368,True,36,1
WZ-K-21K21S2,96,experiment,62,←,left,←,0.7449759999290109,True,36,1
WZ-K-21K21S2,97,experiment,98,↓,down,↓,0.7702196999453008,True,36,1
WZ-K-21K21S2,98,experiment,91,←,left,←,0.7244618001859635,True,36,1
WZ-K-21K21S2,99,experiment,82,↑,up,↑,0.8758932999335229,True,36,1
WZ-K-21K21S2,100,experiment,103,←,left,←,0.8222449000459164,True,36,1
WZ-K-21K21S2,101,experiment,79,↑,up,↑,0.8586261000018567,True,36,1
WZ-K-21K21S2,102,experiment,107,←,left,←,0.7322274998296052,True,36,1
WZ-K-21K21S2,103,experiment,66,↓,down,↓,0.6647005002014339,True,36,1
WZ-K-21K21S2,104,training,102,←,left,←,0.528209300013259,True,35,0
WZ-K-21K21S2,105,training,64,↓,down,↓,0.725669999839738,True,35,1
WZ-K-21K21S2,106,experiment,74,↑,up,↑,0.7197227999567986,True,35,1
WZ-K-21K21S2,107,experiment,86,→,right,→,0.7257419000379741,True,35,1
WZ-K-21K21S2,108,experiment,62,←,left,←,0.6758268000558019,True,35,1
WZ-K-21K21S2,109,experiment,61,←,left,←,0.8042218000628054,True,35,1
WZ-K-21K21S2,110,experiment,48,↓,down,↓,0.7476365000475198,True,35,1
WZ-K-21K21S2,111,experiment,64,↓,down,↓,0.6480883001349866,True,35,1
WZ-K-21K21S2,112,experiment,80,↓,down,↓,0.8671116000041366,True,35,1
WZ-K-21K21S2,113,experiment,68,←,left,←,0.769360699923709,True,35,1
WZ-K-21K21S2,114,experiment,104,↑,up,↑,0.7597940999548882,True,35,1
WZ-K-21K21S2,115,experiment,51,↑,up,↑,0.8402400999329984,True,35,1
WZ-K-21K21S2,116,experiment,101,↓,down,↓,0.7645314999390393,True,35,1
WZ-K-21K21S2,117,experiment,75,←,left,←,0.7404488001484424,True,35,1
WZ-K-21K21S2,118,experiment,82,↓,down,↓,0.6353376999031752,True,35,1
WZ-K-21K21S2,119,experiment,88,↑,up,↑,0.8283758000470698,True,35,1
WZ-K-21K21S2,120,experiment,59,↓,down,↓,0.7031012999359518,True,35,1
WZ-K-21K21S2,121,experiment,69,↑,up,↑,0.7396901999600232,True,35,1
WZ-K-21K21S2,122,experiment,79,→,right,→,0.6674112998880446,True,35,1
WZ-K-21K21S2,123,experiment,76,↓,down,↓,0.6872125000227243,True,35,1
WZ-K-21K21S2,124,experiment,98,←,left,←,0.4663905999623239,True,35,1
WZ-K-21K21S2,125,experiment,96,↓,down,↓,0.655595799908042,True,35,1
WZ-K-21K21S2,126,experiment,85,↑,up,↑,0.8728026000317186,True,35,1
WZ-K-21K21S2,127,experiment,57,↓,down,↓,0.6343000000342727,True,35,1
WZ-K-21K21S2,128,experiment,102,↓,down,↓,0.7106540000531822,True,35,1
WZ-K-21K21S2,129,experiment,72,←,left,←,0.6579959997907281,True,35,1
WZ-K-21K21S2,130,experiment,70,↓,down,↓,0.6958355000242591,True,35,1
WZ-K-21K21S2,131,experiment,91,→,right,→,0.797511599957943,True,35,1
WZ-K-21K21S2,132,experiment,65,↑,up,↑,0.7914772999938577,True,35,1
WZ-K-21K21S2,133,experiment,53,↓,down,↓,0.90991699998267,True,35,1
WZ-K-21K21S2,134,experiment,58,↓,down,↓,0.7978718001395464,True,35,1
WZ-K-21K21S2,135,experiment,100,←,left,←,0.7722561999689788,True,35,1
WZ-K-21K21S2,136,experiment,106,←,left,←,0.7458468000404537,True,35,1
WZ-K-21K21S2,137,experiment,89,←,left,←,0.5415718001313508,True,35,1
WZ-K-21K21S2,138,experiment,78,↓,down,↓,0.6537844999693334,True,35,1
WZ-K-21K21S2,139,experiment,56,↑,up,↑,0.8163379998877645,True,35,1
WZ-K-21K21S2,140,experiment,49,←,left,←,0.6231640998739749,True,35,1
WZ-K-21K21S2,141,experiment,60,↑,up,↑,0.7699413001537323,True,35,1
WZ-K-21K21S2,142,experiment,87,↓,down,↓,0.6139173000119627,True,35,1
WZ-K-21K21S2,143,experiment,50,↑,up,↑,0.7245268002152443,True,35,1
WZ-K-21K21S2,144,experiment,93,←,left,←,0.5441097998991609,True,35,1
WZ-K-21K21S2,145,experiment,97,↓,down,↓,0.7538170998450369,True,35,1
WZ-K-21K21S2,146,experiment,77,↓,down,↓,0.6974947999697179,True,35,1
WZ-K-21K21S2,147,experiment,55,↑,up,↑,0.7389267000835389,True,35,1
WZ-K-21K21S2,148,experiment,83,↑,up,↑,0.8895342000760138,True,35,1
WZ-K-21K21S2,149,experiment,95,←,left,←,0.5657659999560565,True,35,1
WZ-K-21K21S2,150,experiment,54,←,left,←,0.724568999838084,True,35,1
WZ-K-21K21S2,151,experiment,105,←,left,←,0.5162363001145422,True,35,1
WZ-K-21K21S2,152,experiment,90,→,right,→,0.5215065001975745,True,35,1
WZ-K-21K21S2,153,experiment,81,↑,up,↑,0.7451453998219222,True,35,1
WZ-K-21K21S2,154,experiment,99,↑,up,↑,0.7461685999296606,True,35,1
WZ-K-21K21S2,155,experiment,103,↑,up,↑,0.37634740001522005,True,35,1
WZ-K-21K21S2,156,experiment,92,↑,up,↑,0.7631570000667125,True,35,0
WZ-K-21K21S2,157,experiment,107,←,left,←,0.6726600998081267,True,35,1
WZ-K-21K21S2,158,experiment,94,↑,up,↑,0.5819608001038432,True,35,1
WZ-K-21K21S2,159,experiment,63,←,left,←,0.6654097998980433,True,35,1
WZ-K-21K21S2,160,experiment,52,←,left,←,0.6530464000534266,True,35,1
WZ-K-21K21S2,161,experiment,71,→,right,→,0.5869414999615401,True,35,1
WZ-K-21K21S2,162,experiment,67,↓,down,↓,0.7889595997985452,True,35,1
WZ-K-21K21S2,163,experiment,73,←,left,←,0.6765643001999706,True,35,1
WZ-K-21K21S2,164,experiment,66,←,left,←,0.8033127000089735,True,35,1
WZ-K-21K21S2,165,experiment,108,→,right,→,0.7826792001724243,True,35,1
WZ-K-21K21S2,166,experiment,84,↓,down,↓,0.7231166001874954,True,35,1
WZ-K-21K21S2,167,training,48,→,right,→,0.6775045001413673,True,34,0
WZ-K-21K21S2,168,training,107,↑,up,↑,0.7825114000588655,True,34,1
WZ-K-21K21S2,169,experiment,81,↑,up,↑,0.8037532998714596,True,34,1
WZ-K-21K21S2,170,experiment,97,←,left,←,0.6426552999764681,True,34,1
WZ-K-21K21S2,171,experiment,91,↑,up,↑,0.7865649000741541,True,34,1
WZ-K-21K21S2,172,experiment,56,↑,up,↑,0.7684893999248743,True,34,1
WZ-K-21K21S2,173,experiment,51,↓,down,↓,0.7520188000053167,True,34,1
WZ-K-21K21S2,174,experiment,108,→,right,→,0.7177745001390576,True,34,1
WZ-K-21K21S2,175,experiment,104,↑,up,↑,0.6940246000885963,True,34,1
WZ-K-21K21S2,176,experiment,84,↓,down,↓,0.9177027000114322,True,34,1
WZ-K-21K21S2,177,experiment,85,↓,down,↓,0.6124224001541734,True,34,1
WZ-K-21K21S2,178,experiment,98,↓,down,↓,0.6031872001476586,True,34,1
WZ-K-21K21S2,179,experiment,92,→,right,→,0.6916960999369621,True,34,1
WZ-K-21K21S2,180,experiment,79,→,right,→,0.7576661999337375,True,34,1
WZ-K-21K21S2,181,experiment,49,↑,up,↑,0.7427108001429588,True,34,1
WZ-K-21K21S2,182,experiment,86,→,right,→,0.6519408000167459,True,34,1
WZ-K-21K21S2,183,experiment,87,←,left,←,0.6449009000789374,True,34,1
WZ-K-21K21S2,184,experiment,78,←,left,←,0.7687922001350671,True,34,1
WZ-K-21K21S2,185,experiment,94,←,left,←,0.6107440001796931,True,34,1
WZ-K-21K21S2,186,experiment,93,↑,up,↑,0.7307146000675857,True,34,1
WZ-K-21K21S2,187,experiment,72,↑,up,↑,0.7812874000519514,True,34,1
WZ-K-21K21S2,188,experiment,80,←,left,←,0.6669131000526249,True,34,1
WZ-K-21K21S2,189,experiment,107,←,left,←,0.6040626999456435,True,34,1
WZ-K-21K21S2,190,experiment,63,→,right,→,0.4865411000791937,True,34,1
WZ-K-21K21S2,191,experiment,65,↑,down,↓,0.764913700055331,False,34,1
WZ-K-21K21S2,192,experiment,62,↓,down,↓,0.8814594000577927,True,34,1
WZ-K-21K21S2,193,experiment,99,↑,up,↑,0.6527752000838518,True,34,1
WZ-K-21K21S2,194,experiment,57,↓,down,↓,0.6870097001083195,True,34,1
WZ-K-21K21S2,195,experiment,75,→,right,→,0.6262761999387294,True,34,1
WZ-K-21K21S2,196,experiment,89,↑,up,↑,0.7473170999437571,True,34,1
WZ-K-21K21S2,197,experiment,59,←,left,←,0.4733706000261009,True,34,1
WZ-K-21K21S2,198,experiment,101,↓,down,↓,0.6043676000554115,True,34,1
WZ-K-21K21S2,199,experiment,73,↑,up,↑,0.7072238998953253,True,34,1
WZ-K-21K21S2,200,experiment,69,↑,up,↑,1.031666599912569,True,34,1
WZ-K-21K21S2,201,experiment,66,↑,up,↑,0.8482783001381904,True,34,1
WZ-K-21K21S2,202,experiment,67,→,right,→,0.6237659999169409,True,34,1
WZ-K-21K21S2,203,experiment,88,←,left,←,0.6968181999400258,True,34,1
WZ-K-21K21S2,204,experiment,60,↓,down,↓,0.8007078000809997,True,34,1
WZ-K-21K21S2,205,experiment,55,←,left,←,0.7419888000003994,True,34,1
WZ-K-21K21S2,206,experiment,52,←,left,←,0.8786711001303047,True,34,1
WZ-K-21K21S2,207,experiment,96,←,left,←,0.8435728000476956,True,34,1
WZ-K-21K21S2,208,experiment,53,↑,up,↑,0.8878681999631226,True,34,1
WZ-K-21K21S2,209,experiment,58,→,right,→,0.856562300119549,True,34,1
WZ-K-21K21S2,210,experiment,50,→,right,→,0.6452869998756796,True,34,1
WZ-K-21K21S2,211,experiment,76,←,left,←,0.5056123998947442,True,34,1
WZ-K-21K21S2,212,experiment,77,↑,up,↑,0.49937070021405816,True,34,1
WZ-K-21K21S2,213,experiment,82,↑,up,↑,0.6198044000193477,True,34,1
WZ-K-21K21S2,214,experiment,106,↓,down,↓,0.7434053998440504,True,34,1
WZ-K-21K21S2,215,experiment,103,↑,up,↑,0.7668146998621523,True,34,1
WZ-K-21K21S2,216,experiment,64,↓,down,↓,0.7945097000338137,True,34,1
WZ-K-21K21S2,217,experiment,95,→,right,→,0.611058299895376,True,34,1
WZ-K-21K21S2,218,experiment,61,↓,down,↓,0.7256908998824656,True,34,1
WZ-K-21K21S2,219,experiment,102,←,left,←,0.6222812000196427,True,34,1
WZ-K-21K21S2,220,experiment,54,←,left,←,0.6430435001384467,True,34,1
WZ-K-21K21S2,221,experiment,48,↓,down,↓,0.6332594999112189,True,34,1
WZ-K-21K21S2,222,experiment,83,↓,down,↓,0.46802170015871525,True,34,1
WZ-K-21K21S2,223,experiment,70,←,left,←,0.48160220007412136,True,34,1
WZ-K-21K21S2,224,experiment,71,↑,up,↑,0.702353100059554,True,34,1
WZ-K-21K21S2,225,experiment,105,↓,down,↓,0.6150867999531329,True,34,1
WZ-K-21K21S2,226,experiment,74,↑,up,↑,0.6613370000850409,True,34,1
WZ-K-21K21S2,227,experiment,100,↑,up,↑,0.7531467000953853,True,34,1
WZ-K-21K21S2,228,experiment,68,←,left,←,0.516156499972567,True,34,1
WZ-K-21K21S2,229,experiment,90,↓,down,↓,0.6571979001164436,True,34,1
WZ-K-21K21S2,230,training,80,→,right,→,0.5163177999202162,True,33,0
WZ-K-21K21S2,231,training,89,←,left,←,0.5133191999047995,True,33,1
WZ-K-21K21S2,232,experiment,88,↓,down,↓,0.583046399988234,True,33,1
WZ-K-21K21S2,233,experiment,67,↑,up,↑,0.7052265999373049,True,33,1
WZ-K-21K21S2,234,experiment,91,↑,up,↑,0.6541359999682754,True,33,1
WZ-K-21K21S2,235,experiment,71,←,left,←,0.611839700024575,True,33,1
WZ-K-21K21S2,236,experiment,66,↓,down,↓,0.549012599978596,True,33,1
WZ-K-21K21S2,237,experiment,70,→,right,→,0.6474353999365121,True,33,1
WZ-K-21K21S2,238,experiment,58,↓,down,↓,0.6417743000201881,True,33,1
WZ-K-21K21S2,239,experiment,93,↑,up,↑,0.7527995000127703,True,33,1
WZ-K-21K21S2,240,experiment,108,←,left,←,0.5425581999588758,True,33,1
WZ-K-21K21S2,241,experiment,82,↑,up,↑,0.5732364000286907,True,33,1
WZ-K-21K21S2,242,experiment,48,←,left,←,0.621945499908179,True,33,1
WZ-K-21K21S2,243,experiment,62,←,left,←,0.656375200022012,True,33,1
WZ-K-21K21S2,244,experiment,101,→,right,→,0.6678023999556899,True,33,1
WZ-K-21K21S2,245,experiment,94,↓,down,↓,0.6334338001906872,True,33,1
WZ-K-21K21S2,246,experiment,54,↑,up,↑,0.7260003001429141,True,33,1
WZ-K-21K21S2,247,experiment,90,→,right,→,0.5864328998140991,True,33,1
WZ-K-21K21S2,248,experiment,81,↓,down,↓,0.6715950001962483,True,33,1
WZ-K-21K21S2,249,experiment,103,↑,up,↑,0.8099825999233872,True,33,1
WZ-K-21K21S2,250,experiment,84,↑,up,↑,0.7653796998783946,True,33,1
WZ-K-21K21S2,251,experiment,57,↑,up,↑,0.7313067000359297,True,33,1
WZ-K-21K21S2,252,experiment,98,←,left,←,0.9731636999640614,True,33,1
WZ-K-21K21S2,253,experiment,49,←,left,←,0.8694148999638855,True,33,1
WZ-K-21K21S2,254,experiment,99,↑,up,↑,0.7051343999337405,True,33,1
WZ-K-21K21S2,255,experiment,77,↑,up,↑,0.7628906997852027,True,33,1
WZ-K-21K21S2,256,experiment,65,←,left,←,0.6143322000280023,True,33,1
WZ-K-21K21S2,257,experiment,85,↑,up,↑,0.7211087001487613,True,33,1
WZ-K-21K21S2,258,experiment,50,↑,up,↑,0.6994130001403391,True,33,1
WZ-K-21K21S2,259,experiment,96,←,left,←,0.9910104000009596,True,33,1
WZ-K-21K21S2,260,experiment,100,↑,up,↑,0.8295990999322385,True,33,1
WZ-K-21K21S2,261,experiment,78,→,right,→,0.8500131000764668,True,33,1
WZ-K-21K21S2,262,experiment,59,←,left,←,0.6840716002043337,True,33,1
WZ-K-21K21S2,263,experiment,64,→,right,→,0.7231020999606699,True,33,1
WZ-K-21K21S2,264,experiment,56,↓,down,↓,0.715056800050661,True,33,1
WZ-K-21K21S2,265,experiment,102,↓,down,↓,0.7881544001866132,True,33,1
WZ-K-21K21S2,266,experiment,74,←,left,←,0.6355912999715656,True,33,1
WZ-K-21K21S2,267,experiment,104,→,right,→,0.6873546000570059,True,33,1
WZ-K-21K21S2,268,experiment,105,→,right,→,0.6245422000065446,True,33,1
WZ-K-21K21S2,269,experiment,63,↓,down,↓,0.6822661000769585,True,33,1
WZ-K-21K21S2,270,experiment,83,↓,down,↓,0.4256380000151694,True,33,1
WZ-K-21K21S2,271,experiment,60,↓,down,↓,0.41758090001530945,True,33,0
WZ-K-21K21S2,272,experiment,69,→,right,→,0.46145519986748695,True,33,0
WZ-K-21K21S2,273,experiment,89,↓,down,↓,0.40934710018336773,True,33,1
WZ-K-21K21S2,274,experiment,53,←,left,←,0.5302794000599533,True,33,1
WZ-K-21K21S2,275,experiment,73,↓,down,↓,0.5160556000191718,True,33,1
WZ-K-21K21S2,276,experiment,92,↑,up,↑,0.7126152999699116,True,33,1
WZ-K-21K21S2,277,experiment,86,→,right,→,0.8310761000029743,True,33,1
WZ-K-21K21S2,278,experiment,52,→,right,→,0.892007099930197,True,33,1
WZ-K-21K21S2,279,experiment,95,→,right,→,0.5365146000403911,True,33,1
WZ-K-21K21S2,280,experiment,72,←,left,←,1.1624987998511642,True,33,1
WZ-K-21K21S2,281,experiment,79,←,left,←,0.6571504001040012,True,33,1
WZ-K-21K21S2,282,experiment,87,↓,up,↑,1.1137272999621928,False,33,1
WZ-K-21K21S2,283,experiment,51,↑,up,↑,0.7397419998887926,True,33,1
WZ-K-21K21S2,284,experiment,68,→,right,→,0.5431703999638557,True,33,1
WZ-K-21K21S2,285,experiment,55,→,right,→,0.7190340000670403,True,33,1
WZ-K-21K21S2,286,experiment,80,↑,up,↑,0.7112428001128137,True,33,1
WZ-K-21K21S2,287,experiment,107,←,left,←,0.6306004000362009,True,33,1
WZ-K-21K21S2,288,experiment,97,↓,down,↓,0.7806894998066127,True,33,1
WZ-K-21K21S2,289,experiment,75,→,right,→,0.6841514999978244,True,33,1
WZ-K-21K21S2,290,experiment,76,→,right,→,0.5992024999577552,True,33,1
WZ-K-21K21S2,291,experiment,61,↑,up,↑,0.7147498999256641,True,33,1
WZ-K-21K21S2,292,experiment,106,←,left,←,0.5382556000258774,True,33,1
WZ-K-21K21S2,293,training,59,↓,up,↑,0.8898700999561697,False,32,0
WZ-K-21K21S2,294,training,49,→,right,→,0.8453144999220967,True,32,1
WZ-K-21K21S2,295,experiment,64,→,right,→,0.5499652000144124,True,32,1
WZ-K-21K21S2,296,experiment,84,→,right,→,0.41781589994207025,True,32,1
WZ-K-21K21S2,297,experiment,67,↑,up,↑,0.5802472000941634,True,32,0
WZ-K-21K21S2,298,experiment,62,←,left,←,0.4177474998869002,True,32,1
WZ-K-21K21S2,299,experiment,49,←,left,←,0.6384608000516891,True,32,0
WZ-K-21K21S2,300,experiment,93,↓,down,↓,0.6854399999137968,True,32,1
WZ-K-21K21S2,301,experiment,101,→,right,→,0.5760698998346925,True,32,1
WZ-K-21K21S2,302,experiment,48,→,left,←,0.512958399951458,False,32,1
WZ-K-21K21S2,303,experiment,56,↓,down,↓,0.6973383999429643,True,32,1
WZ-K-21K21S2,304,experiment,80,↑,up,↑,0.6742439998779446,True,32,1
WZ-K-21K21S2,305,experiment,57,←,left,←,0.41785329999402165,True,32,1
WZ-K-21K21S2,306,experiment,75,↑,up,↑,0.7299771001562476,True,32,0
WZ-K-21K21S2,307,experiment,55,←,left,←,0.6899162998888642,True,32,1
WZ-K-21K21S2,308,experiment,106,↓,down,↓,0.6986638999078423,True,32,1
WZ-K-21K21S2,309,experiment,85,↓,down,↓,0.8498027001041919,True,32,1
WZ-K-21K21S2,310,experiment,69,←,left,←,0.800785900093615,True,32,1
WZ-K-21K21S2,311,experiment,86,↑,up,↑,0.7238224998582155,True,32,1
WZ-K-21K21S2,312,experiment,72,←,left,←,0.5343979999888688,True,32,1
WZ-K-21K21S2,313,experiment,95,→,right,→,0.5691997001413256,True,32,1
WZ-K-21K21S2,314,experiment,53,→,right,→,0.6802789000794291,True,32,1
WZ-K-21K21S2,315,experiment,92,←,left,←,0.7179765999317169,True,32,1
WZ-K-21K21S2,316,experiment,87,→,right,→,0.5400194001849741,True,32,1
WZ-K-21K21S2,317,experiment,52,↑,up,↑,0.6927368999458849,True,32,1
WZ-K-21K21S2,318,experiment,104,↓,down,↓,0.6378015000373125,True,32,1
WZ-K-21K21S2,319,experiment,82,→,right,→,0.6006177000235766,True,32,1
WZ-K-21K21S2,320,experiment,96,↑,up,↑,0.7205218998715281,True,32,1
WZ-K-21K21S2,321,experiment,71,→,right,→,0.7075775000266731,True,32,1
WZ-K-21K21S2,322,experiment,66,↓,down,↓,0.6408968998584896,True,32,1
WZ-K-21K21S2,323,experiment,60,↑,up,↑,0.6830328998621553,True,32,1
WZ-K-21K21S2,324,experiment,76,↑,up,↑,0.7178718000650406,True,32,1
WZ-K-21K21S2,325,experiment,89,↑,up,↑,0.7234730001073331,True,32,1
WZ-K-21K21S2,326,experiment,99,→,right,→,0.6532306999433786,True,32,1
WZ-K-21K21S2,327,experiment,94,↓,down,↓,0.7075910998973995,True,32,1
WZ-K-21K21S2,328,experiment,79,↓,down,↓,0.7164986000861973,True,32,1
WZ-K-21K21S2,329,experiment,74,←,left,←,0.5430151000618935,True,32,1
WZ-K-21K21S2,330,experiment,107,↑,up,↑,0.5812714998610318,True,32,1
WZ-K-21K21S2,331,experiment,59,↑,up,↑,0.7219740999862552,True,32,1
WZ-K-21K21S2,332,experiment,65,↓,down,↓,0.6712199999019504,True,32,1
WZ-K-21K21S2,333,experiment,83,↓,down,↓,0.6964646000415087,True,32,1
WZ-K-21K21S2,334,experiment,61,↑,up,↑,0.7677782999817282,True,32,1
WZ-K-21K21S2,335,experiment,73,↑,up,↑,0.7843625999521464,True,32,1
WZ-K-21K21S2,336,experiment,100,↓,down,↓,0.5834523001685739,True,32,1
WZ-K-21K21S2,337,experiment,63,→,right,→,0.6428541000932455,True,32,1
WZ-K-21K21S2,338,experiment,88,←,left,←,0.6835829000920057,True,32,1
WZ-K-21K21S2,339,experiment,90,↓,down,↓,0.5702035001013428,True,32,1
WZ-K-21K21S2,340,experiment,105,←,left,←,0.7761546999681741,True,32,1
WZ-K-21K21S2,341,experiment,103,←,left,←,0.43858800013549626,True,32,1
WZ-K-21K21S2,342,experiment,78,→,right,→,0.6425309998448938,True,32,0
WZ-K-21K21S2,343,experiment,51,↑,up,↑,0.7919453999493271,True,32,1
WZ-K-21K21S2,344,experiment,97,→,right,→,0.6235772999934852,True,32,1
WZ-K-21K21S2,345,experiment,102,↑,up,↑,0.6518703999463469,True,32,1
WZ-K-21K21S2,346,experiment,50,↓,down,↓,0.6088842998724431,True,32,1
WZ-K-21K21S2,347,experiment,54,→,right,→,0.7582755000330508,True,32,1
WZ-K-21K21S2,348,experiment,58,←,left,←,0.7164704001042992,True,32,1
WZ-K-21K21S2,349,experiment,68,↑,up,↑,0.7768683000467718,True,32,1
WZ-K-21K21S2,350,experiment,77,↑,up,↑,0.8957756999880075,True,32,1
WZ-K-21K21S2,351,experiment,98,→,right,→,0.7393181000370532,True,32,1
WZ-K-21K21S2,352,experiment,70,←,left,←,0.7418402000330389,True,32,1
WZ-K-21K21S2,353,experiment,108,↓,down,↓,0.6836159001104534,True,32,1
WZ-K-21K21S2,354,experiment,81,→,right,→,0.9889966000337154,True,32,1
WZ-K-21K21S2,355,experiment,91,←,left,←,0.5428267999086529,True,32,1
WZ-K-21K21S2,356,training,92,→,right,→,0.5169531998690218,True,31,0
WZ-K-21K21S2,357,training,82,↓,up,↑,0.6769310999661684,False,31,1
WZ-K-21K21S2,358,experiment,67,↑,up,↑,1.3468069999944419,True,31,1
WZ-K-21K21S2,359,experiment,93,→,right,→,0.5817744999658316,True,31,1
WZ-K-21K21S2,360,experiment,79,←,left,←,0.4757081000134349,True,31,1
WZ-K-21K21S2,361,experiment,63,→,right,→,0.45163149992004037,True,31,1
WZ-K-21K21S2,362,experiment,81,←,left,←,0.6061841000337154,True,31,1
WZ-K-21K21S2,363,experiment,108,←,left,←,0.5533704999834299,True,31,1
WZ-K-21K21S2,364,experiment,103,→,right,→,0.8327051000669599,True,31,1
WZ-K-21K21S2,365,experiment,85,→,right,→,0.602740699891001,True,31,1
WZ-K-21K21S2,366,experiment,98,←,left,←,0.5455748001113534,True,31,1
WZ-K-21K21S2,367,experiment,107,↑,up,↑,0.59190130000934,True,31,1
WZ-K-21K21S2,368,experiment,56,←,left,←,0.5972547000274062,True,31,1
WZ-K-21K21S2,369,experiment,91,↓,down,↓,0.6785820999648422,True,31,1
WZ-K-21K21S2,370,experiment,61,↓,up,↑,1.1672931001521647,False,31,1
WZ-K-21K21S2,371,experiment,84,←,left,←,0.49981449986808,True,31,1
WZ-K-21K21S2,372,experiment,53,↑,left,←,0.7500928998924792,False,31,1
WZ-K-21K21S2,373,experiment,48,←,left,←,0.46368489996530116,True,31,1
WZ-K-21K21S2,374,experiment,88,←,left,←,0.5354768999386579,True,31,1
WZ-K-21K21S2,375,experiment,101,↓,down,↓,0.5202277000062168,True,31,1
WZ-K-21K21S2,376,experiment,50,→,right,→,0.6026400998234749,True,31,1
WZ-K-21K21S2,377,experiment,49,→,right,→,0.5380029000807554,True,31,1
WZ-K-21K21S2,378,experiment,104,↓,down,↓,0.5372997999656945,True,31,1
WZ-K-21K21S2,379,experiment,94,←,left,←,0.5401306001003832,True,31,1
WZ-K-21K21S2,380,experiment,74,→,right,→,0.6776634999550879,True,31,1
WZ-K-21K21S2,381,experiment,100,←,left,←,0.5608584000729024,True,31,1
WZ-K-21K21S2,382,experiment,59,↓,down,↓,0.5107806001324207,True,31,1
WZ-K-21K21S2,383,experiment,83,↓,down,↓,0.5184742999263108,True,31,1
WZ-K-21K21S2,384,experiment,86,←,left,←,0.5568124998826534,True,31,1
WZ-K-21K21S2,385,experiment,106,↓,down,↓,0.474891500081867,True,31,1
WZ-K-21K21S2,386,experiment,62,↑,up,↑,0.7227868000045419,True,31,1
WZ-K-21K21S2,387,experiment,96,←,left,←,0.5895448999945074,True,31,1
WZ-K-21K21S2,388,experiment,90,↑,up,↑,0.6957899001426995,True,31,1
WZ-K-21K21S2,389,experiment,65,←,left,←,0.4862279000226408,True,31,1
WZ-K-21K21S2,390,experiment,76,→,right,→,0.6007183999754488,True,31,1
WZ-K-21K21S2,391,experiment,58,↑,up,↑,0.5972939999774098,True,31,1
WZ-K-21K21S2,392,experiment,105,→,right,→,0.4658106998540461,True,31,1
WZ-K-21K21S2,393,experiment,73,→,right,→,0.4867081001866609,True,31,1
WZ-K-21K21S2,394,experiment,51,↑,up,↑,0.650049600051716,True,31,1
WZ-K-21K21S2,395,experiment,75,↓,down,↓,0.7028240999206901,True,31,1
WZ-K-21K21S2,396,experiment,77,→,right,→,0.6411010997835547,True,31,1
WZ-K-21K21S2,397,experiment,57,→,right,→,0.6759139001369476,True,31,1
WZ-K-21K21S2,398,experiment,60,←,left,←,0.5488173000048846,True,31,1
WZ-K-21K21S2,399,experiment,70,↓,down,↓,0.4789619001094252,True,31,1
WZ-K-21K21S2,400,experiment,78,↑,up,↑,0.8416036998387426,True,31,1
WZ-K-21K21S2,401,experiment,52,→,right,→,0.6782156999688596,True,31,1
WZ-K-21K21S2,402,experiment,68,→,right,→,0.4923006999306381,True,31,1
WZ-K-21K21S2,403,experiment,82,←,left,←,0.6853074000682682,True,31,1
WZ-K-21K21S2,404,experiment,102,→,right,→,0.7515544001944363,True,31,1
WZ-K-21K21S2,405,experiment,80,↑,up,↑,0.6943083999212831,True,31,1
WZ-K-21K21S2,406,experiment,97,←,left,←,0.4579537999816239,True,31,1
WZ-K-21K21S2,407,experiment,71,→,left,←,0.7518394000362605,False,31,1
WZ-K-21K21S2,408,experiment,99,↓,down,↓,0.664509000023827,True,31,1
WZ-K-21K21S2,409,experiment,87,→,right,→,0.7124356001149863,True,31,1
WZ-K-21K21S2,410,experiment,89,↑,up,↑,0.7577487002126873,True,31,1
WZ-K-21K21S2,411,experiment,72,←,left,←,0.5431783001404256,True,31,1
WZ-K-21K21S2,412,experiment,66,↑,up,↑,0.6197205001953989,True,31,1
WZ-K-21K21S2,413,experiment,92,←,left,←,0.7074161001946777,True,31,1
WZ-K-21K21S2,414,experiment,64,←,left,←,0.6093148998916149,True,31,1
WZ-K-21K21S2,415,experiment,55,→,right,→,0.558628500206396,True,31,1
WZ-K-21K21S2,416,experiment,54,↓,down,↓,0.5821371001657099,True,31,1
WZ-K-21K21S2,417,experiment,95,←,left,←,0.5744178998284042,True,31,1
WZ-K-21K21S2,418,experiment,69,←,left,←,0.5281292998697609,True,31,1
WZ-K-21K21S2,419,training,88,←,left,←,0.5624461001716554,True,30,0
WZ-K-21K21S2,420,training,55,←,left,←,0.7134134999942034,True,30,1
WZ-K-21K21S2,421,experiment,101,↓,down,↓,0.5949548000935465,True,30,1
WZ-K-21K21S2,422,experiment,102,↑,up,↑,0.8164839001838118,True,30,1
WZ-K-21K21S2,423,experiment,94,↓,up,↑,0.8161774999462068,False,30,1
WZ-K-21K21S2,424,experiment,78,←,left,←,0.4772246000356972,True,30,1
WZ-K-21K21S2,425,experiment,51,→,right,→,0.6567505998536944,True,30,1
WZ-K-21K21S2,426,experiment,103,↑,up,↑,0.7237120000645518,True,30,1
WZ-K-21K21S2,427,experiment,86,↑,up,↑,0.7536454000510275,True,30,1
WZ-K-21K21S2,428,experiment,75,→,left,←,0.5382331002037972,False,30,1
WZ-K-21K21S2,429,experiment,70,↓,down,↓,0.5888156001456082,True,30,1
WZ-K-21K21S2,430,experiment,107,↓,down,↓,0.48906829999759793,True,30,1
WZ-K-21K21S2,431,experiment,54,↓,down,↓,0.6351185999810696,True,30,1
WZ-K-21K21S2,432,experiment,100,↓,down,↓,0.7362891000229865,True,30,1
WZ-K-21K21S2,433,experiment,57,↓,down,↓,0.5436676999088377,True,30,1
WZ-K-21K21S2,434,experiment,99,→,right,→,0.6802844998892397,True,30,1
WZ-K-21K21S2,435,experiment,59,→,left,←,0.8811071999371052,False,30,1
WZ-K-21K21S2,436,experiment,105,→,right,→,0.5386575001757592,True,30,1
WZ-K-21K21S2,437,experiment,60,→,right,→,0.5525791998952627,True,30,1
WZ-K-21K21S2,438,experiment,104,→,right,→,0.5355726000852883,True,30,1
WZ-K-21K21S2,439,experiment,108,↓,left,←,0.8539511999115348,False,30,1
WZ-K-21K21S2,440,experiment,98,↓,down,↓,0.5145525000989437,True,30,1
WZ-K-21K21S2,441,experiment,48,↑,up,↑,0.6457415001932532,True,30,1
WZ-K-21K21S2,442,experiment,77,↓,down,↓,0.6178629000205547,True,30,1
WZ-K-21K21S2,443,experiment,73,↑,up,↑,0.5765108000487089,True,30,1
WZ-K-21K21S2,444,experiment,69,→,right,→,0.6903267998714,True,30,1
WZ-K-21K21S2,445,experiment,88,←,left,←,0.5929348999634385,True,30,1
WZ-K-21K21S2,446,experiment,72,↑,up,↑,0.6489357000682503,True,30,1
WZ-K-21K21S2,447,experiment,93,→,right,→,0.6157446000725031,True,30,1
WZ-K-21K21S2,448,experiment,84,↑,up,↑,0.4428784002084285,True,30,1
WZ-K-21K21S2,449,experiment,83,←,left,←,0.548687000060454,True,30,1
WZ-K-21K21S2,450,experiment,58,←,left,←,0.7073160000145435,True,30,1
WZ-K-21K21S2,451,experiment,80,←,left,←,1.0120019998867065,True,30,1
WZ-K-21K21S2,452,experiment,87,→,right,→,0.8058418000582606,True,30,1
WZ-K-21K21S2,453,experiment,92,↓,down,↓,0.7426684000529349,True,30,1
WZ-K-21K21S2,454,experiment,82,↑,up,↑,0.7015810001175851,True,30,1
WZ-K-21K21S2,455,experiment,90,→,right,→,0.730927900178358,True,30,1
WZ-K-21K21S2,456,experiment,68,→,right,→,0.7586185000836849,True,30,1
WZ-K-21K21S2,457,experiment,61,→,right,→,0.5797410998493433,True,30,1
WZ-K-21K21S2,458,experiment,64,↑,up,↑,0.6149210999719799,True,30,1
WZ-K-21K21S2,459,experiment,49,↓,down,↓,0.6935803999658674,True,30,1
WZ-K-21K21S2,460,experiment,66,←,left,←,0.6276819000486284,True,30,1
WZ-K-21K21S2,461,experiment,55,→,right,→,0.5996486998628825,True,30,1
WZ-K-21K21S2,462,experiment,96,↑,up,↑,0.775601499946788,True,30,1
WZ-K-21K21S2,463,experiment,63,→,right,→,0.7312565001193434,True,30,1
WZ-K-21K21S2,464,experiment,50,←,left,←,1.1248681000433862,True,30,1
WZ-K-21K21S2,465,experiment,56,↓,down,↓,0.6128415998537093,True,30,1
WZ-K-21K21S2,466,experiment,89,↑,up,↑,0.7104310998693109,True,30,1
WZ-K-21K21S2,467,experiment,91,↓,down,↓,0.4991206000559032,True,30,1
WZ-K-21K21S2,468,experiment,67,↑,up,↑,0.7044845998752862,True,30,1
WZ-K-21K21S2,469,experiment,65,↓,down,↓,0.5900305998511612,True,30,1
WZ-K-21K21S2,470,experiment,62,↓,down,↓,0.47375270002521574,True,30,1
WZ-K-21K21S2,471,experiment,85,↓,down,↓,0.49790960014797747,True,30,1
WZ-K-21K21S2,472,experiment,95,→,right,→,0.542184199905023,True,30,1
WZ-K-21K21S2,473,experiment,79,→,right,→,0.5578393000178039,True,30,1
WZ-K-21K21S2,474,experiment,97,↓,up,↑,1.1585524999536574,False,30,1
WZ-K-21K21S2,475,experiment,76,→,left,←,0.806752200005576,False,30,1
WZ-K-21K21S2,476,experiment,81,↓,down,↓,0.47519759996794164,True,30,1
WZ-K-21K21S2,477,experiment,106,→,right,→,0.44462940003722906,True,30,1
WZ-K-21K21S2,478,experiment,71,←,left,←,0.426638700067997,True,30,1
WZ-K-21K21S2,479,experiment,52,←,left,←,0.792652599979192,True,30,1
WZ-K-21K21S2,480,experiment,53,↓,down,↓,0.5825875999871641,True,30,1
WZ-K-21K21S2,481,experiment,74,→,right,→,0.6142023999709636,True,30,1
WZ-K-21K21S2,482,training,84,↑,up,↑,0.48958990001119673,True,29,0
WZ-K-21K21S2,483,training,102,↑,up,↑,0.7315968000330031,True,29,1
WZ-K-21K21S2,484,experiment,59,↑,up,↑,0.6183209998998791,True,29,1
WZ-K-21K21S2,485,experiment,90,→,right,→,0.9312885999679565,True,29,1
WZ-K-21K21S2,486,experiment,54,←,left,←,0.643824800150469,True,29,1
WZ-K-21K21S2,487,experiment,63,→,right,→,0.5887160000856966,True,29,1
WZ-K-21K21S2,488,experiment,97,←,left,←,0.6604599000420421,True,29,1
WZ-K-21K21S2,489,experiment,91,←,left,←,0.435635200003162,True,29,1
WZ-K-21K21S2,490,experiment,73,→,right,→,0.5215723000001162,True,29,1
WZ-K-21K21S2,491,experiment,92,↑,up,↑,0.4536250999663025,True,29,1
WZ-K-21K21S2,492,experiment,94,→,right,→,0.6118139999452978,True,29,1
WZ-K-21K21S2,493,experiment,86,↓,down,↓,0.5668579998891801,True,29,1
WZ-K-21K21S2,494,experiment,79,→,left,←,0.6455534000415355,False,29,1
WZ-K-21K21S2,495,experiment,98,↓,down,↓,0.5944744001608342,True,29,1
WZ-K-21K21S2,496,experiment,76,←,left,←,0.601275600027293,True,29,1
WZ-K-21K21S2,497,experiment,96,→,right,→,0.5528675999958068,True,29,1
WZ-K-21K21S2,498,experiment,56,←,left,←,0.8960961999837309,True,29,1
WZ-K-21K21S2,499,experiment,88,↓,down,↓,0.4783230999018997,True,29,1
WZ-K-21K21S2,500,experiment,93,↑,up,↑,0.5077831998933107,True,29,1
WZ-K-21K21S2,501,experiment,107,↑,down,↓,0.6914952001534402,False,29,1
WZ-K-21K21S2,502,experiment,52,↑,up,↑,0.6861817999742925,True,29,1
WZ-K-21K21S2,503,experiment,82,→,right,→,0.6789160000625998,True,29,1
WZ-K-21K21S2,504,experiment,83,↑,up,↑,0.5755630999337882,True,29,1
WZ-K-21K21S2,505,experiment,50,↓,down,↓,0.591751900035888,True,29,1
WZ-K-21K21S2,506,experiment,68,→,left,←,0.8652884000912309,False,29,1
WZ-K-21K21S2,507,experiment,62,↓,left,←,1.1693712000269443,False,29,1
WZ-K-21K21S2,508,experiment,103,↑,up,↑,0.560370999854058,True,29,1
WZ-K-21K21S2,509,experiment,108,←,left,←,0.8771367000881582,True,29,1
WZ-K-21K21S2,510,experiment,77,↑,up,↑,0.6242642998695374,True,29,1
WZ-K-21K21S2,511,experiment,55,↑,up,↑,0.716581900138408,True,29,1
WZ-K-21K21S2,512,experiment,65,→,right,→,0.48209219984710217,True,29,1
WZ-K-21K21S2,513,experiment,89,←,left,←,0.6089348001405597,True,29,1
WZ-K-21K21S2,514,experiment,95,←,left,←,0.4804251999594271,True,29,1
WZ-K-21K21S2,515,experiment,72,→,right,→,0.49280999996699393,True,29,1
WZ-K-21K21S2,516,experiment,67,←,left,←,0.6025686000939459,True,29,1
WZ-K-21K21S2,517,experiment,74,←,left,←,0.4338514998089522,True,29,1
WZ-K-21K21S2,518,experiment,99,→,left,←,0.6868988000787795,False,29,1
WZ-K-21K21S2,519,experiment,49,←,left,←,0.5553431999869645,True,29,1
WZ-K-21K21S2,520,experiment,48,→,right,→,0.5405921000055969,True,29,1
WZ-K-21K21S2,521,experiment,87,↑,up,↑,0.6255620999727398,True,29,1
WZ-K-21K21S2,522,experiment,53,→,right,→,0.5187107999809086,True,29,1
WZ-K-21K21S2,523,experiment,60,↑,up,↑,0.5178370999637991,True,29,1
WZ-K-21K21S2,524,experiment,102,→,right,→,0.90281379991211,True,29,1
WZ-K-21K21S2,525,experiment,75,↓,down,↓,0.6414962999988347,True,29,1
WZ-K-21K21S2,526,experiment,85,→,right,→,0.5151668000034988,True,29,1
WZ-K-21K21S2,527,experiment,66,↑,up,↑,0.6082905998919159,True,29,1
WZ-K-21K21S2,528,experiment,51,↑,up,↑,0.7027022000402212,True,29,1
WZ-K-21K21S2,529,experiment,101,→,right,→,0.47283140011131763,True,29,1
WZ-K-21K21S2,530,experiment,61,↓,down,↓,0.5773527999408543,True,29,1
WZ-K-21K21S2,531,experiment,100,←,left,←,0.6566881001926959,True,29,1
WZ-K-21K21S2,532,experiment,71,→,left,←,0.7182933001313359,False,29,1
WZ-K-21K21S2,533,experiment,58,↑,up,↑,0.5979714998975396,True,29,1
WZ-K-21K21S2,534,experiment,64,←,left,←,0.6163758998736739,True,29,1
WZ-K-21K21S2,535,experiment,84,←,left,←,0.8034959998913109,True,29,1
WZ-K-21K21S2,536,experiment,104,←,left,←,0.6005482000764459,True,29,1
WZ-K-21K21S2,537,experiment,81,→,right,→,0.5730959998909384,True,29,1
WZ-K-21K21S2,538,experiment,105,→,right,→,0.5708704998251051,True,29,1
WZ-K-21K21S2,539,experiment,106,→,right,→,0.4169103999156505,True,29,1
WZ-K-21K21S2,540,experiment,69,→,right,→,0.5846337000839412,True,29,1
WZ-K-21K21S2,541,experiment,70,↑,up,↑,0.6178924001287669,True,29,1
WZ-K-21K21S2,542,experiment,80,↓,down,↓,0.6301569999195635,True,29,1
WZ-K-21K21S2,543,experiment,57,↑,up,↑,0.6737149998079985,True,29,1
WZ-K-21K21S2,544,experiment,78,↑,up,↑,0.6283986999187618,True,29,1
WZ-K-21K21S2,545,training,55,←,left,←,0.4470350001938641,True,28,0
WZ-K-21K21S2,546,training,73,↑,up,↑,0.37595729995518923,True,28,1
WZ-K-21K21S2,547,experiment,106,←,left,←,0.5455593001097441,True,28,1
WZ-K-21K21S2,548,experiment,100,↑,up,↑,0.5297640999779105,True,28,1
WZ-K-21K21S2,549,experiment,54,↓,down,↓,0.6102178001310676,True,28,1
WZ-K-21K21S2,550,experiment,71,↑,up,↑,0.6338533000089228,True,28,1
WZ-K-21K21S2,551,experiment,93,←,left,←,0.5454434000421315,True,28,1
WZ-K-21K21S2,552,experiment,97,→,right,→,0.4511554001364857,True,28,1
WZ-K-21K21S2,553,experiment,85,→,right,→,0.532577499980107,True,28,1
WZ-K-21K21S2,554,experiment,107,←,left,←,0.44313409994356334,True,28,1
WZ-K-21K21S2,555,experiment,63,↑,down,↓,0.6602072999812663,False,28,1
WZ-K-21K21S2,556,experiment,57,←,left,←,0.7022845998872072,True,28,1
WZ-K-21K21S2,557,experiment,55,↓,down,↓,0.5117384002078325,True,28,1
WZ-K-21K21S2,558,experiment,48,↑,up,↑,0.6912355998065323,True,28,1
WZ-K-21K21S2,559,experiment,58,→,right,→,0.596146099967882,True,28,1
WZ-K-21K21S2,560,experiment,75,←,left,←,0.47462949994951487,True,28,1
WZ-K-21K21S2,561,experiment,98,→,right,→,0.47063959995284677,True,28,1
WZ-K-21K21S2,562,experiment,86,↑,up,↑,0.6547267001587898,True,28,1
WZ-K-21K21S2,563,experiment,73,↓,down,↓,0.46798110008239746,True,28,1
WZ-K-21K21S2,564,experiment,101,↓,down,↓,0.4714889999013394,True,28,1
WZ-K-21K21S2,565,experiment,92,↓,down,↓,0.5253308000974357,True,28,1
WZ-K-21K21S2,566,experiment,104,↑,up,↑,0.5094733000732958,True,28,1
WZ-K-21K21S2,567,experiment,105,→,right,→,0.46161630004644394,True,28,1
WZ-K-21K21S2,568,experiment,65,↑,up,↑,0.43675490003079176,True,28,1
WZ-K-21K21S2,569,experiment,108,←,left,←,0.4391739000566304,True,28,1
WZ-K-21K21S2,570,experiment,88,→,right,→,0.6400415000971407,True,28,1
WZ-K-21K21S2,571,experiment,53,↑,up,↑,0.6764350000303239,True,28,1
WZ-K-21K21S2,572,experiment,81,←,left,←,0.4619912998750806,True,28,1
WZ-K-21K21S2,573,experiment,67,→,right,→,0.6608178000897169,True,28,1
WZ-K-21K21S2,574,experiment,49,←,left,←,0.45750839984975755,True,28,1
WZ-K-21K21S2,575,experiment,95,←,left,←,0.6393048998434097,True,28,1
WZ-K-21K21S2,576,experiment,82,↑,up,↑,0.7219329001381993,True,28,1
WZ-K-21K21S2,577,experiment,68,←,left,←,0.6464300998486578,True,28,1
WZ-K-21K21S2,578,experiment,80,↑,up,↑,0.457161899888888,True,28,1
WZ-K-21K21S2,579,experiment,76,←,up,↑,0.6531947001349181,False,28,1
WZ-K-21K21S2,580,experiment,52,↓,up,↑,0.7453085000161082,False,28,1
WZ-K-21K21S2,581,experiment,64,←,left,←,0.5979305999353528,True,28,1
WZ-K-21K21S2,582,experiment,60,↓,down,↓,0.689534000121057,True,28,1
WZ-K-21K21S2,583,experiment,103,→,right,→,0.6034023000393063,True,28,1
WZ-K-21K21S2,584,experiment,72,←,left,←,0.4670884001534432,True,28,1
WZ-K-21K21S2,585,experiment,87,↑,up,↑,0.5472978998441249,True,28,1
WZ-K-21K21S2,586,experiment,62,←,left,←,0.5523687000386417,True,28,1
WZ-K-21K21S2,587,experiment,56,↑,up,↑,0.5112552000209689,True,28,1
WZ-K-21K21S2,588,experiment,99,←,left,←,0.5698249998968095,True,28,1
WZ-K-21K21S2,589,experiment,74,↑,up,↑,0.4897931001614779,True,28,1
WZ-K-21K21S2,590,experiment,70,↓,down,↓,0.7106441999785602,True,28,1
WZ-K-21K21S2,591,experiment,77,↑,up,↑,0.632268900051713,True,28,1
WZ-K-21K21S2,592,experiment,83,→,right,→,0.611084699863568,True,28,1
WZ-K-21K21S2,593,experiment,78,→,right,→,0.44825019990094006,True,28,1
WZ-K-21K21S2,594,experiment,89,↑,up,↑,0.6084597001317888,True,28,1
WZ-K-21K21S2,595,experiment,102,↓,down,↓,0.6539636999368668,True,28,1
WZ-K-21K21S2,596,experiment,66,→,right,→,0.5892123999074101,True,28,1
WZ-K-21K21S2,597,experiment,96,→,right,→,0.49328060005791485,True,28,1
WZ-K-21K21S2,598,experiment,69,↓,down,↓,0.5624538999982178,True,28,1
WZ-K-21K21S2,599,experiment,51,←,left,←,0.6264251999091357,True,28,1
WZ-K-21K21S2,600,experiment,61,←,left,←,0.524609100073576,True,28,1
WZ-K-21K21S2,601,experiment,94,↓,down,↓,0.6003004999365658,True,28,1
WZ-K-21K21S2,602,experiment,50,↑,up,↑,0.4313032999634743,True,28,1
WZ-K-21K21S2,603,experiment,59,←,left,←,0.450067900121212,True,28,1
WZ-K-21K21S2,604,experiment,79,↓,down,↓,0.6375291999429464,True,28,1
WZ-K-21K21S2,605,experiment,84,↑,up,↑,0.5436245000455528,True,28,1
WZ-K-21K21S2,606,experiment,90,→,right,→,0.49966940004378557,True,28,1
WZ-K-21K21S2,607,experiment,91,↑,up,↑,0.5930113999638706,True,28,1
WZ-K-21K21S2,608,training,58,↑,up,↑,0.44642410008236766,True,28,0
WZ-K-21K21S2,609,training,87,→,left,←,0.4471293999813497,False,28,1
WZ-K-21K21S2,610,experiment,73,↑,up,↑,0.4766661999747157,True,28,1
WZ-K-21K21S2,611,experiment,74,↓,down,↓,0.6646994999609888,True,28,1
WZ-K-21K21S2,612,experiment,87,←,left,←,0.5846836001146585,True,28,1
WZ-K-21K21S2,613,experiment,71,→,right,→,0.49750709999352694,True,28,1
WZ-K-21K21S2,614,experiment,51,→,right,→,0.6681472000200301,True,28,1
WZ-K-21K21S2,615,experiment,98,↑,up,↑,0.552818400086835,True,28,1
WZ-K-21K21S2,616,experiment,83,→,right,→,0.5424173001665622,True,28,1
WZ-K-21K21S2,617,experiment,108,↑,up,↑,0.556516399839893,True,28,1
WZ-K-21K21S2,618,experiment,60,↑,up,↑,0.5138464998453856,True,28,1
WZ-K-21K21S2,619,experiment,66,←,left,←,0.606952200178057,True,28,1
WZ-K-21K21S2,620,experiment,100,→,right,→,0.5809243998955935,True,28,1
WZ-K-21K21S2,621,experiment,79,→,right,→,0.38384320004843175,True,28,1
WZ-K-21K21S2,622,experiment,97,↓,down,↓,0.49873370002023876,True,28,0
WZ-K-21K21S2,623,experiment,76,↑,up,↑,1.4449052000418305,True,28,1
WZ-K-21K21S2,624,experiment,90,↑,up,↑,0.5250282001215965,True,28,1
WZ-K-21K21S2,625,experiment,67,↑,up,↑,0.5055432999506593,True,28,1
WZ-K-21K21S2,626,experiment,63,↑,up,↑,0.36101679992862046,True,28,1
WZ-K-21K21S2,627,experiment,84,→,right,→,0.5486719999462366,True,28,0
WZ-K-21K21S2,628,experiment,50,→,right,→,0.5417316998355091,True,28,1
WZ-K-21K21S2,629,experiment,69,↑,up,↑,0.46510949986986816,True,28,1
WZ-K-21K21S2,630,experiment,85,←,left,←,0.4975095000118017,True,28,1
WZ-K-21K21S2,631,experiment,107,←,up,↑,0.8495960000436753,False,28,1
WZ-K-21K21S2,632,experiment,82,↓,down,↓,0.6838781998958439,True,28,1
WZ-K-21K21S2,633,experiment,58,↑,up,↑,0.4209777000360191,True,28,1
WZ-K-21K21S2,634,experiment,86,→,right,→,0.4549904998857528,True,28,1
WZ-K-21K21S2,635,experiment,65,↓,down,↓,0.6387779000215232,True,28,1
WZ-K-21K21S2,636,experiment,103,←,left,←,0.7704062999691814,True,28,1
WZ-K-21K21S2,637,experiment,105,↓,down,↓,0.6321436001453549,True,28,1
WZ-K-21K21S2,638,experiment,81,←,left,←,0.6595783999655396,True,28,1
WZ-K-21K21S2,639,experiment,70,→,right,→,0.521655699936673,True,28,1
WZ-K-21K21S2,640,experiment,64,↓,down,↓,0.5671766998711973,True,28,1
WZ-K-21K21S2,641,experiment,91,↑,up,↑,0.6497464999556541,True,28,1
WZ-K-21K21S2,642,experiment,55,→,down,↓,1.077173399971798,False,28,1
WZ-K-21K21S2,643,experiment,77,→,right,→,0.4322178999427706,True,28,1
WZ-K-21K21S2,644,experiment,72,←,up,↑,0.9986040000803769,False,28,1
WZ-K-21K21S2,645,experiment,49,→,right,→,0.41471240017563105,True,28,1
WZ-K-21K21S2,646,experiment,92,↑,up,↑,0.5740224001929164,True,28,1
WZ-K-21K21S2,647,experiment,57,↓,down,↓,0.6278331000357866,True,28,1
WZ-K-21K21S2,648,experiment,59,↑,up,↑,0.6070425999350846,True,28,1
WZ-K-21K21S2,649,experiment,54,→,right,→,0.596313799964264,True,28,1
WZ-K-21K21S2,650,experiment,80,↑,up,↑,0.4020210998132825,True,28,1
WZ-K-21K21S2,651,experiment,62,→,right,→,0.49215400009416044,True,28,0
WZ-K-21K21S2,652,experiment,106,↑,up,↑,0.5010930998250842,True,28,1
WZ-K-21K21S2,653,experiment,89,↓,down,↓,0.5867244999390095,True,28,1
WZ-K-21K21S2,654,experiment,68,↑,up,↑,0.6045289000030607,True,28,1
WZ-K-21K21S2,655,experiment,56,↓,down,↓,0.4734263999853283,True,28,1
WZ-K-21K21S2,656,experiment,61,↑,up,↑,1.0336384000256658,True,28,1
WZ-K-21K21S2,657,experiment,93,↓,down,↓,0.5131566999480128,True,28,1
WZ-K-21K21S2,658,experiment,48,→,right,→,0.7882444001734257,True,28,1
WZ-K-21K21S2,659,experiment,99,↓,down,↓,0.4752247999422252,True,28,1
WZ-K-21K21S2,660,experiment,88,←,left,←,0.5546715001109987,True,28,1
WZ-K-21K21S2,661,experiment,95,→,no_key,no_letter,-1.0,False,28,1
WZ-K-21K21S2,662,experiment,53,↑,up,↑,0.5341382999904454,True,28,1
WZ-K-21K21S2,663,experiment,96,←,left,←,0.440570600097999,True,28,1
WZ-K-21K21S2,664,experiment,78,↑,up,↑,0.5808639000169933,True,28,1
WZ-K-21K21S2,665,experiment,94,↑,up,↑,0.5495442999526858,True,28,1
WZ-K-21K21S2,666,experiment,101,→,right,→,0.44574479991570115,True,28,1
WZ-K-21K21S2,667,experiment,75,←,right,→,0.8105651999358088,False,28,1
WZ-K-21K21S2,668,experiment,52,↓,down,↓,0.6165938000194728,True,28,1
WZ-K-21K21S2,669,experiment,104,↑,up,↑,0.8128897999413311,True,28,1
WZ-K-21K21S2,670,experiment,102,→,left,←,1.0178616000339389,False,28,1
WZ-K-21K21S2,671,training,96,→,left,←,0.6625377000309527,False,28,0
WZ-K-21K21S2,672,training,93,→,right,→,0.5726048999931663,True,28,1
WZ-K-21K21S2,673,experiment,83,→,right,→,0.43373010004870594,True,28,1
WZ-K-21K21S2,674,experiment,67,←,left,←,0.6817958999890834,True,28,1
WZ-K-21K21S2,675,experiment,59,↑,up,↑,0.5146115000825375,True,28,1
WZ-K-21K21S2,676,experiment,85,←,left,←,0.5133559999521822,True,28,1
WZ-K-21K21S2,677,experiment,69,←,left,←,0.37628500000573695,True,28,1
WZ-K-21K21S2,678,experiment,101,↑,up,↑,0.40485920011997223,True,28,1
WZ-K-21K21S2,679,experiment,100,↓,down,↓,0.5059325001202524,True,28,1
WZ-K-21K21S2,680,experiment,79,↓,down,↓,0.5789937998633832,True,28,1
WZ-K-21K21S2,681,experiment,93,→,right,→,0.6367562001105398,True,28,1
WZ-K-21K21S2,682,experiment,97,↓,down,↓,0.6180894998833537,True,28,1
WZ-K-21K21S2,683,experiment,107,↓,down,↓,0.5013988998252898,True,28,1
WZ-K-21K21S2,684,experiment,62,→,right,→,0.42045910004526377,True,28,1
WZ-K-21K21S2,685,experiment,53,↓,down,↓,0.3504647999070585,True,28,1
WZ-K-21K21S2,686,experiment,90,→,left,←,0.5651887999847531,False,28,0
WZ-K-21K21S2,687,experiment,60,↓,down,↓,0.570071600144729,True,28,1
WZ-K-21K21S2,688,experiment,105,↑,up,↑,0.5118053001351655,True,28,1
WZ-K-21K21S2,689,experiment,70,↓,up,↑,0.7797238999046385,False,28,1
WZ-K-21K21S2,690,experiment,52,→,right,→,0.8188839999493212,True,28,1
WZ-K-21K21S2,691,experiment,87,↑,up,↑,0.5887951999902725,True,28,1
WZ-K-21K21S2,692,experiment,75,←,right,→,0.6837120000272989,False,28,1
WZ-K-21K21S2,693,experiment,77,←,left,←,0.6144153999630362,True,28,1
WZ-K-21K21S2,694,experiment,51,↓,down,↓,0.4924454998690635,True,28,1
WZ-K-21K21S2,695,experiment,72,↑,up,↑,0.7124260000418872,True,28,1
WZ-K-21K21S2,696,experiment,76,↑,up,↑,0.6666887998580933,True,28,1
WZ-K-21K21S2,697,experiment,58,→,right,→,0.7082301999907941,True,28,1
WZ-K-21K21S2,698,experiment,108,↓,down,↓,0.6117062999401242,True,28,1
WZ-K-21K21S2,699,experiment,81,↑,up,↑,0.7999217000324279,True,28,1
WZ-K-21K21S2,700,experiment,92,↑,up,↑,0.5611678999848664,True,28,1
WZ-K-21K21S2,701,experiment,68,→,right,→,0.7398073000367731,True,28,1
WZ-K-21K21S2,702,experiment,80,↑,up,↑,0.6912203999236226,True,28,1
WZ-K-21K21S2,703,experiment,49,→,right,→,0.7269785001408309,True,28,1
WZ-K-21K21S2,704,experiment,78,→,right,→,0.7838366001378745,True,28,1
WZ-K-21K21S2,705,experiment,95,→,left,←,0.5843855999410152,False,28,1
WZ-K-21K21S2,706,experiment,91,←,left,←,0.6424003001302481,True,28,1
WZ-K-21K21S2,707,experiment,57,→,left,←,0.7177124000154436,False,28,1
WZ-K-21K21S2,708,experiment,64,←,left,←,0.49920830014161766,True,28,1
WZ-K-21K21S2,709,experiment,56,↑,up,↑,0.46025380003266037,True,28,1
WZ-K-21K21S2,710,experiment,106,↓,down,↓,0.6143904998898506,True,28,1
WZ-K-21K21S2,711,experiment,48,↑,down,↓,0.6453334998805076,False,28,1
WZ-K-21K21S2,712,experiment,63,↓,down,↓,0.6141669999342412,True,28,1
WZ-K-21K21S2,713,experiment,82,→,right,→,0.4660175999160856,True,28,1
WZ-K-21K21S2,714,experiment,98,↓,down,↓,0.5422031001653522,True,28,1
WZ-K-21K21S2,715,experiment,94,↑,up,↑,0.6967912002000958,True,28,1
WZ-K-21K21S2,716,experiment,102,↑,up,↑,0.6347078001126647,True,28,1
WZ-K-21K21S2,717,experiment,89,→,right,→,0.6193123999983072,True,28,1
WZ-K-21K21S2,718,experiment,103,↑,up,↑,0.6237288000993431,True,28,1
WZ-K-21K21S2,719,experiment,104,←,left,←,0.5797661999240518,True,28,1
WZ-K-21K21S2,720,experiment,86,←,left,←,0.6878631000872701,True,28,1
WZ-K-21K21S2,721,experiment,54,↑,up,↑,0.4819617001339793,True,28,1
WZ-K-21K21S2,722,experiment,50,→,right,→,0.4140903002116829,True,28,1
WZ-K-21K21S2,723,experiment,73,→,right,→,0.46843520016409457,True,28,1
WZ-K-21K21S2,724,experiment,99,↑,up,↑,0.45649969996884465,True,28,1
WZ-K-21K21S2,725,experiment,88,←,left,←,0.5526034000795335,True,28,1
WZ-K-21K21S2,726,experiment,74,←,left,←,0.3345564999617636,True,28,1
WZ-K-21K21S2,727,experiment,65,↓,up,↑,0.9659796000923961,False,28,1
WZ-K-21K21S2,728,experiment,55,↑,up,↑,0.42079330002889037,True,28,1
WZ-K-21K21S2,729,experiment,61,→,right,→,0.4870531999040395,True,28,1
WZ-K-21K21S2,730,experiment,66,↑,up,↑,0.5173016998451203,True,28,1
WZ-K-21K21S2,731,experiment,84,↑,up,↑,0.4201892002020031,True,28,1
WZ-K-21K21S2,732,experiment,71,↑,up,↑,0.35126059991307557,True,28,1
WZ-K-21K21S2,733,experiment,96,↓,up,↑,0.5893369000405073,False,28,1
WZ-K-21K21S2,734,training,68,→,right,→,0.4487311001867056,True,28,0
WZ-K-21K21S2,735,training,104,↓,down,↓,0.5160825999919325,True,28,1
WZ-K-21K21S2,736,experiment,97,↓,down,↓,0.6066737999208272,True,28,1
WZ-K-21K21S2,737,experiment,92,→,right,→,0.4312396999448538,True,28,1
WZ-K-21K21S2,738,experiment,108,→,right,→,0.5534528999123722,True,28,1
WZ-K-21K21S2,739,experiment,55,←,left,←,0.4486791999079287,True,28,1
WZ-K-21K21S2,740,experiment,83,↑,down,↓,0.5308507999870926,False,28,1
WZ-K-21K21S2,741,experiment,87,→,right,→,0.5761258001439273,True,28,1
WZ-K-21K21S2,742,experiment,77,←,left,←,0.5112557001411915,True,28,1
WZ-K-21K21S2,743,experiment,52,↓,down,↓,0.6093762000091374,True,28,1
WZ-K-21K21S2,744,experiment,79,↑,up,↑,0.5983286998234689,True,28,1
WZ-K-21K21S2,745,experiment,101,↓,down,↓,0.5083740002010018,True,28,1
WZ-K-21K21S2,746,experiment,76,↓,down,↓,0.5824045001063496,True,28,1
WZ-K-21K21S2,747,experiment,62,↑,up,↑,0.47431700001470745,True,28,1
WZ-K-21K21S2,748,experiment,69,←,left,←,0.5039540999568999,True,28,1
WZ-K-21K21S2,749,experiment,75,←,left,←,0.38465510006062686,True,28,1
WZ-K-21K21S2,750,experiment,98,←,left,←,0.5382588000502437,True,28,0
WZ-K-21K21S2,751,experiment,72,←,left,←,0.7722427998669446,True,28,1
WZ-K-21K21S2,752,experiment,59,→,right,→,1.0090677000116557,True,28,1
WZ-K-21K21S2,753,experiment,94,↓,down,↓,0.5293976000975817,True,28,1
WZ-K-21K21S2,754,experiment,82,←,left,←,0.696251800050959,True,28,1
WZ-K-21K21S2,755,experiment,105,↓,down,↓,0.5209456000011414,True,28,1
WZ-K-21K21S2,756,experiment,65,→,left,←,0.5821426999755204,False,28,1
WZ-K-21K21S2,757,experiment,74,←,left,←,0.5818777999375015,True,28,1
WZ-K-21K21S2,758,experiment,71,↓,down,↓,0.5666324000339955,True,28,1
WZ-K-21K21S2,759,experiment,103,↑,up,↑,0.5812242000829428,True,28,1
WZ-K-21K21S2,760,experiment,50,↑,up,↑,0.4849553001113236,True,28,1
WZ-K-21K21S2,761,experiment,89,↓,up,↑,0.7638075000140816,False,28,1
WZ-K-21K21S2,762,experiment,81,→,right,→,0.49874509987421334,True,28,1
WZ-K-21K21S2,763,experiment,73,↓,up,↑,0.6693114000372589,False,28,1
WZ-K-21K21S2,764,experiment,67,↑,up,↑,0.44399100006558,True,28,1
WZ-K-21K21S2,765,experiment,58,→,right,→,0.4626884001772851,True,28,1
WZ-K-21K21S2,766,experiment,56,→,right,→,0.9051971000153571,True,28,1
WZ-K-21K21S2,767,experiment,88,←,left,←,0.4871463000308722,True,28,1
WZ-K-21K21S2,768,experiment,80,↑,up,↑,0.6005725001450628,True,28,1
WZ-K-21K21S2,769,experiment,102,→,right,→,0.606334799900651,True,28,1
WZ-K-21K21S2,770,experiment,91,←,left,←,0.7192693999968469,True,28,1
WZ-K-21K21S2,771,experiment,63,←,left,←,0.43744430015794933,True,28,1
WZ-K-21K21S2,772,experiment,99,↓,down,↓,0.618448100052774,True,28,1
WZ-K-21K21S2,773,experiment,107,←,left,←,0.4218677000608295,True,28,1
WZ-K-21K21S2,774,experiment,54,←,left,←,0.5545423000585288,True,28,1
WZ-K-21K21S2,775,experiment,85,↓,down,↓,0.5036844999995083,True,28,1
WZ-K-21K21S2,776,experiment,104,←,left,←,0.7124683000147343,True,28,1
WZ-K-21K21S2,777,experiment,66,↑,up,↑,0.7177695999853313,True,28,1
WZ-K-21K21S2,778,experiment,48,→,right,→,0.5127805001102388,True,28,1
WZ-K-21K21S2,779,experiment,106,↓,down,↓,0.5365081999916583,True,28,1
WZ-K-21K21S2,780,experiment,78,↓,down,↓,1.0248742999974638,True,28,1
WZ-K-21K21S2,781,experiment,70,↓,down,↓,1.2165612999815494,True,28,1
WZ-K-21K21S2,782,experiment,95,←,left,←,0.5994396000169218,True,28,1
WZ-K-21K21S2,783,experiment,51,↓,down,↓,0.9022425999864936,True,28,1
WZ-K-21K21S2,784,experiment,100,←,left,←,0.45616189995780587,True,28,1
WZ-K-21K21S2,785,experiment,86,↑,up,↑,0.5529899999964982,True,28,1
WZ-K-21K21S2,786,experiment,90,↓,down,↓,0.46868249983526766,True,28,1
WZ-K-21K21S2,787,experiment,68,←,down,↓,0.570726300124079,False,28,1
WZ-K-21K21S2,788,experiment,64,→,right,→,0.902112300042063,True,28,1
WZ-K-21K21S2,789,experiment,96,↓,down,↓,0.6418498998973519,True,28,1
WZ-K-21K21S2,790,experiment,61,→,right,→,0.4675545000936836,True,28,1
WZ-K-21K21S2,791,experiment,49,↑,up,↑,0.7443548999726772,True,28,1
WZ-K-21K21S2,792,experiment,53,↑,up,↑,0.8807246000505984,True,28,1
WZ-K-21K21S2,793,experiment,84,←,left,←,0.6171472000423819,True,28,1
WZ-K-21K21S2,794,experiment,60,←,left,←,0.6522767001297325,True,28,1
WZ-K-21K21S2,795,experiment,57,→,right,→,0.5513186999596655,True,28,1
WZ-K-21K21S2,796,experiment,93,↑,up,↑,0.6577278999611735,True,28,1
WZ-K-21K21S2,797,training,50,↑,up,↑,0.7200864998158067,True,28,0
WZ-K-21K21S2,798,training,63,↓,up,↑,0.6061437998432666,False,28,1
WZ-K-21K21S2,799,experiment,90,↓,down,↓,0.6394376999232918,True,28,1
WZ-K-21K21S2,800,experiment,78,↓,down,↓,0.6035225000232458,True,28,1
WZ-K-21K21S2,801,experiment,79,↑,up,↑,0.6490064999088645,True,28,1
WZ-K-21K21S2,802,experiment,69,→,right,→,0.45579289994202554,True,28,1
WZ-K-21K21S2,803,experiment,98,←,left,←,0.4124074000865221,True,28,1
WZ-K-21K21S2,804,experiment,86,←,left,←,0.7751271000597626,True,28,1
WZ-K-21K21S2,805,experiment,101,→,left,←,0.5583752000238746,False,28,1
WZ-K-21K21S2,806,experiment,106,↑,up,↑,0.5401435999665409,True,28,1
WZ-K-21K21S2,807,experiment,56,↑,up,↑,0.5874304999597371,True,28,1
WZ-K-21K21S2,808,experiment,58,→,right,→,0.47237289999611676,True,28,1
WZ-K-21K21S2,809,experiment,67,←,left,←,0.4866915000602603,True,28,1
WZ-K-21K21S2,810,experiment,51,←,left,←,0.5302200000733137,True,28,1
WZ-K-21K21S2,811,experiment,97,←,left,←,0.412680400069803,True,28,1
WZ-K-21K21S2,812,experiment,93,↓,down,↓,0.6043343001510948,True,28,1
WZ-K-21K21S2,813,experiment,66,↓,down,↓,0.6379207000136375,True,28,1
WZ-K-21K21S2,814,experiment,75,↑,up,↑,0.4431596000213176,True,28,1
WZ-K-21K21S2,815,experiment,49,→,right,→,0.4172382999677211,True,28,1
WZ-K-21K21S2,816,experiment,82,←,left,←,0.4286555000580847,True,28,1
WZ-K-21K21S2,817,experiment,74,↑,up,↑,0.43472199980169535,True,28,1
WZ-K-21K21S2,818,experiment,103,↓,down,↓,1.0783014001790434,True,28,1
WZ-K-21K21S2,819,experiment,87,↓,down,↓,0.42225910001434386,True,28,1
WZ-K-21K21S2,820,experiment,63,↓,down,↓,0.4957329002209008,True,28,1
WZ-K-21K21S2,821,experiment,107,→,right,→,0.5757691999897361,True,28,1
WZ-K-21K21S2,822,experiment,72,↑,up,↑,0.6890096000861377,True,28,1
WZ-K-21K21S2,823,experiment,50,↓,down,↓,0.5082119000144303,True,28,1
WZ-K-21K21S2,824,experiment,62,→,down,↓,0.5627530999481678,False,28,1
WZ-K-21K21S2,825,experiment,92,→,right,→,0.6373618000652641,True,28,1
WZ-K-21K21S2,826,experiment,53,→,no_key,no_letter,-1.0,False,28,1
WZ-K-21K21S2,827,experiment,55,↑,up,↑,0.811043200083077,True,28,1
WZ-K-21K21S2,828,experiment,52,↓,down,↓,0.6012850999832153,True,28,1
WZ-K-21K21S2,829,experiment,81,↓,down,↓,0.5098375000525266,True,28,1
WZ-K-21K21S2,830,experiment,68,↓,down,↓,0.57880730018951,True,28,1
WZ-K-21K21S2,831,experiment,95,↓,down,↓,0.6515840999782085,True,28,1
WZ-K-21K21S2,832,experiment,85,↓,down,↓,0.4371361001394689,True,28,1
WZ-K-21K21S2,833,experiment,80,→,left,←,1.2805055000353605,False,28,1
WZ-K-21K21S2,834,experiment,77,↓,down,↓,0.8430381000507623,True,28,1
WZ-K-21K21S2,835,experiment,83,→,left,←,0.8854056999552995,False,28,1
WZ-K-21K21S2,836,experiment,99,↓,down,↓,0.6090279000345618,True,28,1
WZ-K-21K21S2,837,experiment,88,→,right,→,0.8828201999422163,True,28,1
WZ-K-21K21S2,838,experiment,61,↓,down,↓,0.475059200078249,True,28,1
WZ-K-21K21S2,839,experiment,71,↓,down,↓,0.5839726000558585,True,28,1
WZ-K-21K21S2,840,experiment,89,↑,up,↑,0.5947326000314206,True,28,1
WZ-K-21K21S2,841,experiment,59,←,left,←,0.5107352999038994,True,28,1
WZ-K-21K21S2,842,experiment,54,↓,down,↓,0.7122329000849277,True,28,1
WZ-K-21K21S2,843,experiment,108,→,right,→,0.5832666999194771,True,28,1
WZ-K-21K21S2,844,experiment,91,↓,down,↓,0.4174269000068307,True,28,1
WZ-K-21K21S2,845,experiment,96,↑,up,↑,0.5603952000383288,True,28,1
WZ-K-21K21S2,846,experiment,100,↑,up,↑,0.5685042999684811,True,28,1
WZ-K-21K21S2,847,experiment,104,←,left,←,0.550774599891156,True,28,1
WZ-K-21K21S2,848,experiment,102,↓,up,↑,0.8864965001121163,False,28,1
WZ-K-21K21S2,849,experiment,73,↓,up,↑,0.874377999920398,False,28,1
WZ-K-21K21S2,850,experiment,70,→,right,→,0.5357777001336217,True,28,1
WZ-K-21K21S2,851,experiment,48,↑,up,↑,0.6182043000590056,True,28,1
WZ-K-21K21S2,852,experiment,65,←,left,←,0.5078386999666691,True,28,1
WZ-K-21K21S2,853,experiment,84,↓,down,↓,0.5869820001535118,True,28,1
WZ-K-21K21S2,854,experiment,94,←,left,←,0.48395880009047687,True,28,1
WZ-K-21K21S2,855,experiment,76,↑,up,↑,0.8151257999707013,True,28,1
WZ-K-21K21S2,856,experiment,105,↑,up,↑,0.5869013001210988,True,28,1
WZ-K-21K21S2,857,experiment,57,→,right,→,1.0803595001343638,True,28,1
WZ-K-21K21S2,858,experiment,60,→,left,←,0.8245010001119226,False,28,1
WZ-K-21K21S2,859,experiment,64,↓,up,↑,0.794040200067684,False,28,1
WZ-K-21K21S2,860,training,83,↓,down,↓,0.5470376999583095,True,28,0
WZ-K-21K21S2,861,training,70,↑,up,↑,0.6933010998181999,True,28,1
WZ-K-21K21S2,862,experiment,84,↑,up,↑,0.5813152000773698,True,28,1
WZ-K-21K21S2,863,experiment,59,→,right,→,0.5541187999770045,True,28,1
WZ-K-21K21S2,864,experiment,68,↑,up,↑,0.4688559998758137,True,28,1
WZ-K-21K21S2,865,experiment,49,↓,down,↓,0.4491207997780293,True,28,1
WZ-K-21K21S2,866,experiment,91,↑,up,↑,0.5366292998660356,True,28,1
WZ-K-21K21S2,867,experiment,63,↓,down,↓,0.6056949000339955,True,28,1
WZ-K-21K21S2,868,experiment,97,↑,up,↑,0.45283860014751554,True,28,1
WZ-K-21K21S2,869,experiment,66,←,left,←,0.4286893999669701,True,28,1
WZ-K-21K21S2,870,experiment,86,↓,down,↓,0.5102361999452114,True,28,1
WZ-K-21K21S2,871,experiment,69,↓,down,↓,1.1945928998757154,True,28,1
WZ-K-21K21S2,872,experiment,64,↑,up,↑,0.5732611999846995,True,28,1
WZ-K-21K21S2,873,experiment,102,←,left,←,0.6199908000417054,True,28,1
WZ-K-21K21S2,874,experiment,82,→,right,→,0.6395623998250812,True,28,1
WZ-K-21K21S2,875,experiment,80,↓,down,↓,0.6667534001171589,True,28,1
WZ-K-21K21S2,876,experiment,88,↑,up,↑,0.47452459996566176,True,28,1
WZ-K-21K21S2,877,experiment,56,↑,up,↑,0.5085505999159068,True,28,1
WZ-K-21K21S2,878,experiment,73,↓,down,↓,0.6557597999926656,True,28,1
WZ-K-21K21S2,879,experiment,101,→,right,→,0.5234565001446754,True,28,1
WZ-K-21K21S2,880,experiment,61,→,right,→,0.48181729996576905,True,28,1
WZ-K-21K21S2,881,experiment,103,←,left,←,0.5160159000661224,True,28,1
WZ-K-21K21S2,882,experiment,76,↓,down,↓,0.6378564999904484,True,28,1
WZ-K-21K21S2,883,experiment,60,↓,down,↓,0.7036333000287414,True,28,1
WZ-K-21K21S2,884,experiment,87,↓,down,↓,0.6707026001531631,True,28,1
WZ-K-21K21S2,885,experiment,58,←,left,←,0.8475041999481618,True,28,1
WZ-K-21K21S2,886,experiment,50,←,left,←,0.4687858000397682,True,28,1
WZ-K-21K21S2,887,experiment,65,↑,up,↑,0.4922668000217527,True,28,1
WZ-K-21K21S2,888,experiment,93,↓,down,↓,0.4976958001498133,True,28,1
WZ-K-21K21S2,889,experiment,83,↓,down,↓,0.5453078001737595,True,28,1
WZ-K-21K21S2,890,experiment,70,↓,down,↓,0.42788289999589324,True,28,1
WZ-K-21K21S2,891,experiment,96,→,right,→,0.5785903998184949,True,28,1
WZ-K-21K21S2,892,experiment,106,→,right,→,0.5039516999386251,True,28,1
WZ-K-21K21S2,893,experiment,67,↓,down,↓,0.6129451000597328,True,28,1
WZ-K-21K21S2,894,experiment,71,↑,up,↑,0.5004980000667274,True,28,1
WZ-K-21K21S2,895,experiment,52,→,right,→,0.4309787000529468,True,28,1
WZ-K-21K21S2,896,experiment,51,↓,down,↓,0.5001992001198232,True,28,1
WZ-K-21K21S2,897,experiment,98,←,left,←,0.43936840002425015,True,28,1
WZ-K-21K21S2,898,experiment,94,←,left,←,0.5819741999730468,True,28,1
WZ-K-21K21S2,899,experiment,100,↑,left,←,0.4609847997780889,False,28,1
WZ-K-21K21S2,900,experiment,104,↑,up,↑,0.5917965997941792,True,28,1
WZ-K-21K21S2,901,experiment,92,←,left,←,0.5532040998805314,True,28,1
WZ-K-21K21S2,902,experiment,54,↓,down,↓,0.5610072000417858,True,28,1
WZ-K-21K21S2,903,experiment,81,←,left,←,0.5029321999754757,True,28,1
WZ-K-21K21S2,904,experiment,99,↑,up,↑,0.4497884998563677,True,28,1
WZ-K-21K21S2,905,experiment,74,→,right,→,0.9827393998857588,True,28,1
WZ-K-21K21S2,906,experiment,90,→,right,→,0.384543500142172,True,28,1
WZ-K-21K21S2,907,experiment,95,↓,down,↓,0.5535536000970751,True,28,1
WZ-K-21K21S2,908,experiment,53,→,right,→,0.6256625999230891,True,28,1
WZ-K-21K21S2,909,experiment,85,↓,down,↓,0.49994989996775985,True,28,1
WZ-K-21K21S2,910,experiment,48,↑,up,↑,0.4797128001227975,True,28,1
WZ-K-21K21S2,911,experiment,107,→,right,→,0.5605373000726104,True,28,1
WZ-K-21K21S2,912,experiment,105,↑,up,↑,0.4224978999700397,True,28,1
WZ-K-21K21S2,913,experiment,55,↓,down,↓,0.41093340003862977,True,28,1
WZ-K-21K21S2,914,experiment,72,↓,down,↓,0.49836980015970767,True,28,1
WZ-K-21K21S2,915,experiment,79,↑,up,↑,0.4039944999385625,True,28,1
WZ-K-21K21S2,916,experiment,78,↑,up,↑,0.433219299884513,True,28,0
WZ-K-21K21S2,917,experiment,108,→,right,→,1.65934280003421,True,28,1
WZ-K-21K21S2,918,experiment,62,↑,up,↑,0.6040862998925149,True,28,1
WZ-K-21K21S2,919,experiment,89,←,left,←,0.422089499887079,True,28,1
WZ-K-21K21S2,920,experiment,77,→,left,←,0.6510305001866072,False,28,1
WZ-K-21K21S2,921,experiment,75,←,up,↑,0.7757810999173671,False,28,1
WZ-K-21K21S2,922,experiment,57,↑,up,↑,0.5493590000551194,True,28,1
WZ-K-21K21S2,923,training,91,←,left,←,0.5510011999867857,True,28,0
WZ-K-21K21S2,924,training,52,↑,up,↑,0.471212700009346,True,28,1
WZ-K-21K21S2,925,experiment,52,↑,up,↑,0.33433230011723936,True,28,1
WZ-K-21K21S2,926,experiment,107,←,left,←,0.3589574999641627,True,28,0
WZ-K-21K21S2,927,experiment,80,←,left,←,0.30984269990585744,True,28,0
WZ-K-21K21S2,928,experiment,99,→,right,→,0.42618559999391437,True,28,1
WZ-K-21K21S2,929,experiment,97,←,left,←,0.36934720003046095,True,28,1
WZ-K-21K21S2,930,experiment,71,↓,down,↓,0.6172718000598252,True,28,0
WZ-K-21K21S2,931,experiment,78,↓,down,↓,0.5503328999038786,True,28,1
WZ-K-21K21S2,932,experiment,108,←,left,←,0.5239155001472682,True,28,1
WZ-K-21K21S2,933,experiment,95,→,right,→,0.6229910000693053,True,28,1
WZ-K-21K21S2,934,experiment,57,→,right,→,0.618581100134179,True,28,1
WZ-K-21K21S2,935,experiment,65,↑,up,↑,0.5079697999171913,True,28,1
WZ-K-21K21S2,936,experiment,104,↑,up,↑,0.5728859999217093,True,28,1
WZ-K-21K21S2,937,experiment,96,←,left,←,0.45360119990073144,True,28,1
WZ-K-21K21S2,938,experiment,61,→,right,→,0.4549245999660343,True,28,1
WZ-K-21K21S2,939,experiment,53,↓,up,↑,0.6508188999723643,False,28,1
WZ-K-21K21S2,940,experiment,93,↑,up,↑,0.46541270008310676,True,28,1
WZ-K-21K21S2,941,experiment,103,↓,up,↑,0.6602668000850827,False,28,1
WZ-K-21K21S2,942,experiment,98,↑,up,↑,0.6166330000851303,True,28,1
WZ-K-21K21S2,943,experiment,50,↓,up,↑,0.8390786000527442,False,28,1
WZ-K-21K21S2,944,experiment,81,↑,up,↑,0.5860671000555158,True,28,1
WZ-K-21K21S2,945,experiment,101,←,left,←,0.48827799991704524,True,28,1
WZ-K-21K21S2,946,experiment,72,↑,up,↑,0.5404147999361157,True,28,1
WZ-K-21K21S2,947,experiment,51,↑,up,↑,0.5414952000137419,True,28,1
WZ-K-21K21S2,948,experiment,84,↓,up,↑,0.8276808999944478,False,28,1
WZ-K-21K21S2,949,experiment,89,←,left,←,0.532561199972406,True,28,1
WZ-K-21K21S2,950,experiment,68,↑,up,↑,0.49636389990337193,True,28,1
WZ-K-21K21S2,951,experiment,73,↑,up,↑,0.5237873999867588,True,28,1
WZ-K-21K21S2,952,experiment,55,←,left,←,0.6842541999649256,True,28,1
WZ-K-21K21S2,953,experiment,67,←,left,←,1.4425190999172628,True,28,1
WZ-K-21K21S2,954,experiment,106,→,right,→,0.4129363000392914,True,28,1
WZ-K-21K21S2,955,experiment,82,↓,down,↓,0.6807283998932689,True,28,1
WZ-K-21K21S2,956,experiment,58,↑,down,↓,0.7057539999950677,False,28,1
WZ-K-21K21S2,957,experiment,92,←,left,←,0.43815520009957254,True,28,1
WZ-K-21K21S2,958,experiment,69,←,left,←,0.3425183000508696,True,28,1
WZ-K-21K21S2,959,experiment,83,↑,down,↓,0.5634763000998646,False,28,0
WZ-K-21K21S2,960,experiment,91,→,right,→,0.4303343999199569,True,28,1
WZ-K-21K21S2,961,experiment,86,↓,down,↓,0.416075199842453,True,28,1
WZ-K-21K21S2,962,experiment,85,↓,down,↓,0.3596230000257492,True,28,1
WZ-K-21K21S2,963,experiment,66,←,left,←,0.6057709001470357,True,28,1
WZ-K-21K21S2,964,experiment,64,→,right,→,0.3669803999364376,True,28,1
WZ-K-21K21S2,965,experiment,74,↓,down,↓,0.5362145998515189,True,28,0
WZ-K-21K21S2,966,experiment,75,↑,up,↑,0.5370908000040799,True,28,1
WZ-K-21K21S2,967,experiment,76,↓,up,↑,0.8898320998996496,False,28,1
WZ-K-21K21S2,968,experiment,62,↓,down,↓,0.44909840007312596,True,28,1
WZ-K-21K21S2,969,experiment,63,↑,up,↑,0.594067299971357,True,28,1
WZ-K-21K21S2,970,experiment,48,↑,down,↓,0.8099617999978364,False,28,1
WZ-K-21K21S2,971,experiment,56,↓,down,↓,0.3527319999411702,True,28,1
WZ-K-21K21S2,972,experiment,88,←,left,←,0.5786525001749396,True,28,0
WZ-K-21K21S2,973,experiment,105,↓,down,↓,0.5759890000335872,True,28,1
WZ-K-21K21S2,974,experiment,60,↓,down,↓,0.5169779998250306,True,28,1
WZ-K-21K21S2,975,experiment,59,←,left,←,0.7960562999360263,True,28,1
WZ-K-21K21S2,976,experiment,90,→,right,→,0.4139563001226634,True,28,1
WZ-K-21K21S2,977,experiment,54,→,right,→,0.35125540010631084,True,28,1
WZ-K-21K21S2,978,experiment,77,←,left,←,0.4747067999560386,True,28,1
WZ-K-21K21S2,979,experiment,94,→,right,→,0.7040129001252353,True,28,1
WZ-K-21K21S2,980,experiment,49,↑,up,↑,0.49915020004846156,True,28,1
WZ-K-21K21S2,981,experiment,87,↓,up,↑,0.6658410998061299,False,28,1
WZ-K-21K21S2,982,experiment,79,↓,down,↓,0.4605390999931842,True,28,1
WZ-K-21K21S2,983,experiment,100,→,right,→,0.4645386999472976,True,28,1
WZ-K-21K21S2,984,experiment,102,←,left,←,0.563694299897179,True,28,1
WZ-K-21K21S2,985,experiment,70,←,left,←,0.3763123999815434,True,28,1
WZ-K-21K21S2,986,training,93,→,right,→,0.4158189999870956,True,28,0
WZ-K-21K21S2,987,training,87,↑,up,↑,0.6258694999851286,True,28,1
WZ-K-21K21S2,988,experiment,81,↓,down,↓,0.6615330001804978,True,28,1
WZ-K-21K21S2,989,experiment,69,→,right,→,0.38454399979673326,True,28,1
WZ-K-21K21S2,990,experiment,93,←,left,←,0.437025299994275,True,28,1
WZ-K-21K21S2,991,experiment,78,↑,up,↑,0.4812763000372797,True,28,1
WZ-K-21K21S2,992,experiment,77,←,left,←,0.4122179998084903,True,28,1
WZ-K-21K21S2,993,experiment,85,↓,down,↓,0.5587453001644462,True,28,1
WZ-K-21K21S2,994,experiment,51,←,left,←,0.43920430005528033,True,28,1
WZ-K-21K21S2,995,experiment,73,→,right,→,0.5648036999627948,True,28,1
WZ-K-21K21S2,996,experiment,61,↓,down,↓,0.5376183001790196,True,28,1
WZ-K-21K21S2,997,experiment,80,↑,up,↑,0.696987499948591,True,28,1
WZ-K-21K21S2,998,experiment,67,←,left,←,0.40692869992926717,True,28,1
WZ-K-21K21S2,999,experiment,88,←,left,←,0.616438299883157,True,28,0
WZ-K-21K21S2,1000,experiment,75,→,right,→,0.5584905000869185,True,28,1
WZ-K-21K21S2,1001,experiment,71,←,right,→,0.4562095000874251,False,28,1
WZ-K-21K21S2,1002,experiment,86,↓,up,↑,0.6490766000933945,False,28,1
WZ-K-21K21S2,1003,experiment,72,←,left,←,0.5348002999089658,True,28,1
WZ-K-21K21S2,1004,experiment,83,←,left,←,0.7014601000119001,True,28,1
WZ-K-21K21S2,1005,experiment,74,↓,down,↓,1.1124638000037521,True,28,1
WZ-K-21K21S2,1006,experiment,104,↑,up,↑,0.6728332000784576,True,28,1
WZ-K-21K21S2,1007,experiment,95,↑,up,↑,0.5740226998459548,True,28,1
WZ-K-21K21S2,1008,experiment,65,→,right,→,0.4810275000054389,True,28,1
WZ-K-21K21S2,1009,experiment,102,→,right,→,0.3672285000793636,True,28,1
WZ-K-21K21S2,1010,experiment,103,↑,up,↑,0.4657309998292476,True,28,0
WZ-K-21K21S2,1011,experiment,66,↑,up,↑,0.4247749999631196,True,28,1
WZ-K-21K21S2,1012,experiment,48,←,left,←,0.4874211000278592,True,28,1
WZ-K-21K21S2,1013,experiment,58,←,left,←,0.30885929986834526,True,28,1
WZ-K-21K21S2,1014,experiment,94,→,right,→,0.8844640001188964,True,28,0
WZ-K-21K21S2,1015,experiment,96,↑,up,↑,0.5048167000059038,True,28,1
WZ-K-21K21S2,1016,experiment,76,↓,up,↑,0.4987667999230325,False,28,1
WZ-K-21K21S2,1017,experiment,70,→,right,→,0.38348950003273785,True,28,1
WZ-K-21K21S2,1018,experiment,92,←,left,←,0.5286435000598431,True,28,0
WZ-K-21K21S2,1019,experiment,59,→,right,→,0.6154998000711203,True,28,1
WZ-K-21K21S2,1020,experiment,63,←,left,←,0.7935522000771016,True,28,1
WZ-K-21K21S2,1021,experiment,101,↑,up,↑,0.551935400115326,True,28,1
WZ-K-21K21S2,1022,experiment,84,←,left,←,0.4055413999594748,True,28,1
WZ-K-21K21S2,1023,experiment,107,↓,down,↓,0.5373076000250876,True,28,0
WZ-K-21K21S2,1024,experiment,50,↑,up,↑,0.4908064999617636,True,28,1
WZ-K-21K21S2,1025,experiment,52,←,left,←,0.3845100000035018,True,28,1
WZ-K-21K21S2,1026,experiment,64,→,left,←,0.5522191000636667,False,28,1
WZ-K-21K21S2,1027,experiment,57,↓,down,↓,0.43882529996335506,True,28,1
WZ-K-21K21S2,1028,experiment,90,→,right,→,0.5827141001354903,True,28,1
WZ-K-21K21S2,1029,experiment,54,↑,up,↑,0.46157380007207394,True,28,1
WZ-K-21K21S2,1030,experiment,53,↑,up,↑,0.6092581001576036,True,28,1
WZ-K-21K21S2,1031,experiment,98,↑,up,↑,1.664177699945867,True,28,1
WZ-K-21K21S2,1032,experiment,87,↓,down,↓,0.48789620003663003,True,28,1
WZ-K-21K21S2,1033,experiment,108,↑,up,↑,0.5439389001112431,True,28,1
WZ-K-21K21S2,1034,experiment,106,↑,up,↑,0.4945920999161899,True,28,1
WZ-K-21K21S2,1035,experiment,82,←,left,←,0.4230186000932008,True,28,1
WZ-K-21K21S2,1036,experiment,55,↑,up,↑,0.6993984999135137,True,28,1
WZ-K-21K21S2,1037,experiment,79,←,left,←,0.4928411999717355,True,28,1
WZ-K-21K21S2,1038,experiment,56,↓,down,↓,0.43046960001811385,True,28,1
WZ-K-21K21S2,1039,experiment,68,→,right,→,0.7017973000183702,True,28,1
WZ-K-21K21S2,1040,experiment,49,→,left,←,0.4975759000517428,False,28,1
WZ-K-21K21S2,1041,experiment,105,↓,down,↓,0.634155600098893,True,28,1
WZ-K-21K21S2,1042,experiment,89,→,right,→,0.4428556999191642,True,28,1
WZ-K-21K21S2,1043,experiment,60,→,left,←,0.5649528000503778,False,28,1
WZ-K-21K21S2,1044,experiment,100,↑,up,↑,0.6367128000129014,True,28,1
WZ-K-21K21S2,1045,experiment,99,↑,up,↑,0.617993599968031,True,28,1
WZ-K-21K21S2,1046,experiment,97,←,left,←,0.6889810001011938,True,28,1
WZ-K-21K21S2,1047,experiment,91,↓,down,↓,0.5904214000329375,True,28,1
WZ-K-21K21S2,1048,experiment,62,→,right,→,0.6658331998623908,True,28,1
WZ-K-21K21S2,1049,training,65,↑,up,↑,0.41299429978244007,True,28,0
WZ-K-21K21S2,1050,training,65,←,left,←,0.3270382999908179,True,28,1
WZ-K-21K21S2,1051,experiment,102,→,right,→,0.4066575998440385,True,28,0
WZ-K-21K21S2,1052,experiment,77,→,left,←,0.7641839999705553,False,28,0
WZ-K-21K21S2,1053,experiment,66,←,left,←,0.5434180998709053,True,28,1
WZ-K-21K21S2,1054,experiment,57,↑,up,↑,0.43044829997234046,True,28,1
WZ-K-21K21S2,1055,experiment,70,→,right,→,0.37594300019554794,True,28,1
WZ-K-21K21S2,1056,experiment,62,↑,up,↑,0.4893025001510978,True,28,1
WZ-K-21K21S2,1057,experiment,76,↓,down,↓,0.6361591999884695,True,28,1
WZ-K-21K21S2,1058,experiment,85,↓,down,↓,0.5820060998667032,True,28,1
WZ-K-21K21S2,1059,experiment,61,↓,up,↑,0.6022887998260558,False,28,1
WZ-K-21K21S2,1060,experiment,60,→,right,→,0.359636299777776,True,28,1
WZ-K-21K21S2,1061,experiment,91,→,right,→,0.3588527999818325,True,28,0
WZ-K-21K21S2,1062,experiment,71,←,left,←,0.6181738001760095,True,28,0
WZ-K-21K21S2,1063,experiment,54,↓,right,→,0.32525349990464747,False,28,1
WZ-K-21K21S2,1064,experiment,65,→,right,→,0.43633980001322925,True,28,0
WZ-K-21K21S2,1065,experiment,87,→,right,→,0.38434420013800263,True,28,1
WZ-K-21K21S2,1066,experiment,92,→,right,→,0.510687300004065,True,28,0
WZ-K-21K21S2,1067,experiment,58,→,right,→,0.3432369001675397,True,28,1
WZ-K-21K21S2,1068,experiment,108,↑,up,↑,0.540452599991113,True,28,0
WZ-K-21K21S2,1069,experiment,95,↓,down,↓,0.6145900001283735,True,28,1
WZ-K-21K21S2,1070,experiment,55,↑,up,↑,0.5473079001531005,True,28,1
WZ-K-21K21S2,1071,experiment,82,↓,down,↓,0.4418468999210745,True,28,1
WZ-K-21K21S2,1072,experiment,78,↓,down,↓,1.3657701001502573,True,28,1
WZ-K-21K21S2,1073,experiment,105,←,left,←,0.47577799996361136,True,28,1
WZ-K-21K21S2,1074,experiment,52,→,right,→,0.7353665998671204,True,28,1
WZ-K-21K21S2,1075,experiment,74,↑,up,↑,0.40951679996214807,True,28,1
WZ-K-21K21S2,1076,experiment,81,↓,down,↓,0.5410347001161426,True,28,1
WZ-K-21K21S2,1077,experiment,53,→,right,→,0.42144639999605715,True,28,1
WZ-K-21K21S2,1078,experiment,97,←,left,←,0.5075252000242472,True,28,1
WZ-K-21K21S2,1079,experiment,100,↓,down,↓,0.43790290015749633,True,28,1
WZ-K-21K21S2,1080,experiment,106,→,right,→,0.40864100004546344,True,28,1
WZ-K-21K21S2,1081,experiment,103,←,left,←,0.5896308000665158,True,28,1
WZ-K-21K21S2,1082,experiment,86,→,left,←,0.6010661001782864,False,28,1
WZ-K-21K21S2,1083,experiment,79,←,left,←,0.6304183001630008,True,28,1
WZ-K-21K21S2,1084,experiment,48,→,right,→,0.3762188002001494,True,28,1
WZ-K-21K21S2,1085,experiment,64,→,right,→,0.33381070010364056,True,28,0
WZ-K-21K21S2,1086,experiment,50,→,right,→,0.3338150999043137,True,28,0
WZ-K-21K21S2,1087,experiment,84,↑,up,↑,0.6715332001913339,True,28,0
WZ-K-21K21S2,1088,experiment,98,↓,up,↑,0.6035563999321312,False,28,1
WZ-K-21K21S2,1089,experiment,75,←,up,↑,0.6421968000940979,False,28,1
WZ-K-21K21S2,1090,experiment,89,↑,up,↑,0.4023566998075694,True,28,1
WZ-K-21K21S2,1091,experiment,49,↑,up,↑,0.37614289997145534,True,28,0
WZ-K-21K21S2,1092,experiment,69,↓,down,↓,1.0909978998824954,True,28,1
WZ-K-21K21S2,1093,experiment,101,→,left,←,0.6610377000179142,False,28,1
WZ-K-21K21S2,1094,experiment,107,→,right,→,0.430744799785316,True,28,1
WZ-K-21K21S2,1095,experiment,94,←,left,←,0.4218768998980522,True,28,1
WZ-K-21K21S2,1096,experiment,67,→,left,←,0.5583273000083864,False,28,1
WZ-K-21K21S2,1097,experiment,93,↑,up,↑,0.48057910008355975,True,28,1
WZ-K-21K21S2,1098,experiment,73,→,right,→,0.4127365001477301,True,28,1
WZ-K-21K21S2,1099,experiment,56,←,left,←,0.5773050999268889,True,28,1
WZ-K-21K21S2,1100,experiment,88,↑,up,↑,1.2284611999057233,True,28,1
WZ-K-21K21S2,1101,experiment,99,←,left,←,0.5619266999419779,True,28,1
WZ-K-21K21S2,1102,experiment,83,→,right,→,0.6156253998633474,True,28,1
WZ-K-21K21S2,1103,experiment,68,↑,up,↑,0.6400211001746356,True,28,1
WZ-K-21K21S2,1104,experiment,96,↓,down,↓,0.42211270006373525,True,28,1
WZ-K-21K21S2,1105,experiment,72,→,right,→,0.4608411998488009,True,28,1
WZ-K-21K21S2,1106,experiment,104,→,right,→,0.4793861999642104,True,28,1
WZ-K-21K21S2,1107,experiment,51,↑,up,↑,0.5550160000566393,True,28,1
WZ-K-21K21S2,1108,experiment,90,↑,up,↑,0.4068329001311213,True,28,1
WZ-K-21K21S2,1109,experiment,80,←,left,←,1.0350720998831093,True,28,1
WZ-K-21K21S2,1110,experiment,63,←,left,←,0.3839594000019133,True,28,1
WZ-K-21K21S2,1111,experiment,59,↑,up,↑,0.40881549986079335,True,28,0
WZ-K-21K21S2,1112,training,97,↓,up,↑,0.7405481000896543,False,28,0
WZ-K-21K21S2,1113,training,77,←,left,←,0.6770187998190522,True,28,1
WZ-K-21K21S2,1114,experiment,53,→,left,←,0.7760760998353362,False,28,1
WZ-K-21K21S2,1115,experiment,93,↑,up,↑,0.5457205998245627,True,28,1
WZ-K-21K21S2,1116,experiment,91,→,left,←,0.46922519989311695,False,28,1
WZ-K-21K21S2,1117,experiment,90,←,left,←,0.3507856000214815,True,28,1
WZ-K-21K21S2,1118,experiment,86,→,left,←,0.31808919995091856,False,28,0
WZ-K-21K21S2,1119,experiment,88,↑,up,↑,0.5343220999930054,True,28,1
WZ-K-21K21S2,1120,experiment,102,↑,up,↑,0.5427004001103342,True,28,1
WZ-K-21K21S2,1121,experiment,108,↓,down,↓,0.652734899893403,True,28,1
WZ-K-21K21S2,1122,experiment,97,→,right,→,0.4740087001118809,True,28,1
WZ-K-21K21S2,1123,experiment,48,↓,up,↑,0.8384875999763608,False,28,1
WZ-K-21K21S2,1124,experiment,77,←,left,←,0.6029500002041459,True,28,1
WZ-K-21K21S2,1125,experiment,87,↓,down,↓,0.38375929999165237,True,28,1
WZ-K-21K21S2,1126,experiment,57,↑,up,↑,0.46678299992345273,True,28,0
WZ-K-21K21S2,1127,experiment,82,→,left,←,0.5484863000456244,False,28,1
WZ-K-21K21S2,1128,experiment,99,←,left,←,0.43738949997350574,True,28,1
WZ-K-21K21S2,1129,experiment,74,↓,down,↓,0.8186519001610577,True,28,1
WZ-K-21K21S2,1130,experiment,96,↓,down,↓,0.6257253000512719,True,28,1
WZ-K-21K21S2,1131,experiment,95,→,right,→,0.4887550000566989,True,28,1
WZ-K-21K21S2,1132,experiment,75,↓,down,↓,0.6281972001306713,True,28,1
WZ-K-21K21S2,1133,experiment,49,→,left,←,0.7299365000799298,False,28,1
WZ-K-21K21S2,1134,experiment,65,←,left,←,0.439142300048843,True,28,1
WZ-K-21K21S2,1135,experiment,100,↓,down,↓,0.579719000030309,True,28,1
WZ-K-21K21S2,1136,experiment,54,→,right,→,0.6022744001820683,True,28,1
WZ-K-21K21S2,1137,experiment,60,↑,up,↑,0.6697855000384152,True,28,1
WZ-K-21K21S2,1138,experiment,80,↑,up,↑,0.463945799972862,True,28,1
WZ-K-21K21S2,1139,experiment,51,→,right,→,0.6199733999092132,True,28,1
WZ-K-21K21S2,1140,experiment,72,←,left,←,0.41894140001386404,True,28,1
WZ-K-21K21S2,1141,experiment,79,↓,down,↓,0.4956475000362843,True,28,1
WZ-K-21K21S2,1142,experiment,70,↓,down,↓,0.5481892998795956,True,28,1
WZ-K-21K21S2,1143,experiment,107,→,right,→,0.43433140008710325,True,28,1
WZ-K-21K21S2,1144,experiment,63,↑,up,↑,0.5876863000448793,True,28,1
WZ-K-21K21S2,1145,experiment,101,↑,up,↑,0.6822965000756085,True,28,1
WZ-K-21K21S2,1146,experiment,81,↑,up,↑,0.43601760012097657,True,28,1
WZ-K-21K21S2,1147,experiment,89,→,right,→,0.420968399848789,True,28,1
WZ-K-21K21S2,1148,experiment,56,↓,down,↓,0.6643121999222785,True,28,1
WZ-K-21K21S2,1149,experiment,98,←,left,←,0.4134998999070376,True,28,1
WZ-K-21K21S2,1150,experiment,67,←,left,←,0.4373747000936419,True,28,1
WZ-K-21K21S2,1151,experiment,69,↑,up,↑,0.44428589986637235,True,28,1
WZ-K-21K21S2,1152,experiment,76,↓,down,↓,0.6652285000309348,True,28,1
WZ-K-21K21S2,1153,experiment,94,←,left,←,0.3839451000094414,True,28,1
WZ-K-21K21S2,1154,experiment,78,↓,down,↓,0.3345851998310536,True,28,0
WZ-K-21K21S2,1155,experiment,62,←,left,←,0.43443810008466244,True,28,0
WZ-K-21K21S2,1156,experiment,92,→,right,→,0.41824450017884374,True,28,1
WZ-K-21K21S2,1157,experiment,64,←,right,→,0.7563124001026154,False,28,1
WZ-K-21K21S2,1158,experiment,61,→,right,→,0.8172138000372797,True,28,1
WZ-K-21K21S2,1159,experiment,71,→,right,→,0.4563290998339653,True,28,1
WZ-K-21K21S2,1160,experiment,66,↑,up,↑,0.6719703001435846,True,28,1
WZ-K-21K21S2,1161,experiment,85,→,right,→,0.8883029001299292,True,28,1
WZ-K-21K21S2,1162,experiment,105,↓,up,↑,0.6092988001182675,False,28,1
WZ-K-21K21S2,1163,experiment,58,←,left,←,0.4454667998943478,True,28,1
WZ-K-21K21S2,1164,experiment,73,→,right,→,0.49100899999029934,True,28,1
WZ-K-21K21S2,1165,experiment,103,↓,down,↓,0.8606664999388158,True,28,1
WZ-K-21K21S2,1166,experiment,106,↓,down,↓,0.6467149998061359,True,28,1
WZ-K-21K21S2,1167,experiment,55,↓,down,↓,0.4419140999671072,True,28,1
WZ-K-21K21S2,1168,experiment,104,→,right,→,0.4376752998214215,True,28,1
WZ-K-21K21S2,1169,experiment,59,←,left,←,0.6477667998988181,True,28,1
WZ-K-21K21S2,1170,experiment,68,→,left,←,0.6709737000055611,False,28,1
WZ-K-21K21S2,1171,experiment,84,→,right,→,0.5598158999346197,True,28,1
WZ-K-21K21S2,1172,experiment,50,↓,down,↓,0.4644756999332458,True,28,1
WZ-K-21K21S2,1173,experiment,83,←,left,←,0.5457932001445442,True,28,1
WZ-K-21K21S2,1174,experiment,52,←,left,←,0.3843996000941843,True,28,1
WZ-K-21K21S2,1175,training,98,→,right,→,1.5332329999655485,True,28,0
WZ-K-21K21S2,1176,training,64,←,left,←,0.42588430014438927,True,28,1
WZ-K-21K21S2,1177,experiment,99,↓,down,↓,0.4559073999989778,True,28,1
WZ-K-21K21S2,1178,experiment,86,←,left,←,0.4405761999078095,True,28,1
WZ-K-21K21S2,1179,experiment,82,→,right,→,0.7552443000022322,True,28,1
WZ-K-21K21S2,1180,experiment,105,↓,down,↓,0.4655987999867648,True,28,1
WZ-K-21K21S2,1181,experiment,50,↓,up,↑,0.5901969999540597,False,28,1
WZ-K-21K21S2,1182,experiment,48,↓,down,↓,0.5902829999104142,True,28,1
WZ-K-21K21S2,1183,experiment,54,↓,down,↓,0.41274780011735857,True,28,1
WZ-K-21K21S2,1184,experiment,49,↑,up,↑,0.6512957999948412,True,28,1
WZ-K-21K21S2,1185,experiment,107,→,right,→,0.3757870998233557,True,28,1
WZ-K-21K21S2,1186,experiment,88,↓,up,↑,0.5922377998940647,False,28,0
WZ-K-21K21S2,1187,experiment,83,→,right,→,0.3669330000411719,True,28,1
WZ-K-21K21S2,1188,experiment,85,↑,up,↑,0.38388650002889335,True,28,0
WZ-K-21K21S2,1189,experiment,89,↓,up,↑,0.5393502998631448,False,28,0
WZ-K-21K21S2,1190,experiment,96,←,left,←,0.6695230999030173,True,28,1
WZ-K-21K21S2,1191,experiment,106,←,left,←,0.5429354999214411,True,28,1
WZ-K-21K21S2,1192,experiment,52,→,right,→,0.567936799954623,True,28,1
WZ-K-21K21S2,1193,experiment,73,↓,down,↓,0.6566884000785649,True,28,1
WZ-K-21K21S2,1194,experiment,64,↑,up,↑,0.377739799907431,True,28,1
WZ-K-21K21S2,1195,experiment,87,←,left,←,0.7397683998569846,True,28,0
WZ-K-21K21S2,1196,experiment,97,←,left,←,0.37606500019319355,True,28,1
WZ-K-21K21S2,1197,experiment,65,←,left,←,0.5842661000788212,True,28,0
WZ-K-21K21S2,1198,experiment,91,↑,up,↑,0.48228359990753233,True,28,1
WZ-K-21K21S2,1199,experiment,68,↓,down,↓,0.5759787999559194,True,28,1
WZ-K-21K21S2,1200,experiment,67,←,left,←,0.3844598000869155,True,28,1
WZ-K-21K21S2,1201,experiment,58,↑,up,↑,0.43113350006751716,True,28,0
WZ-K-21K21S2,1202,experiment,63,→,up,↑,0.5767247998155653,False,28,1
WZ-K-21K21S2,1203,experiment,59,→,right,→,0.5656274000648409,True,28,1
WZ-K-21K21S2,1204,experiment,74,↑,up,↑,0.4780057000461966,True,28,1
WZ-K-21K21S2,1205,experiment,62,→,left,←,0.5743223000317812,False,28,1
WZ-K-21K21S2,1206,experiment,69,↑,up,↑,0.3850966999307275,True,28,1
WZ-K-21K21S2,1207,experiment,103,←,left,←,0.6214964999817312,True,28,1
WZ-K-21K21S2,1208,experiment,100,→,right,→,1.1630047000944614,True,28,1
WZ-K-21K21S2,1209,experiment,56,←,left,←,0.3507233001291752,True,28,1
WZ-K-21K21S2,1210,experiment,55,←,left,←,0.4085276999976486,True,28,0
WZ-K-21K21S2,1211,experiment,70,→,right,→,1.0083195997867733,True,28,1
WZ-K-21K21S2,1212,experiment,66,↑,up,↑,0.44987120013684034,True,28,1
WZ-K-21K21S2,1213,experiment,93,→,right,→,0.36789549980312586,True,28,1
WZ-K-21K21S2,1214,experiment,60,←,left,←,0.9492586001288146,True,28,1
WZ-K-21K21S2,1215,experiment,78,↑,up,↑,0.3423067000694573,True,28,1
WZ-K-21K21S2,1216,experiment,53,↓,down,↓,0.5572579998988658,True,28,0
WZ-K-21K21S2,1217,experiment,76,←,left,←,0.7092008998151869,True,28,1
WZ-K-21K21S2,1218,experiment,104,→,right,→,0.3594772999640554,True,28,1
WZ-K-21K21S2,1219,experiment,102,←,right,→,0.5731392998714,False,28,1
WZ-K-21K21S2,1220,experiment,72,↑,up,↑,0.517598900012672,True,28,1
WZ-K-21K21S2,1221,experiment,101,→,right,→,0.4870537999086082,True,28,1
WZ-K-21K21S2,1222,experiment,92,←,up,↑,0.46061259997077286,False,28,1
WZ-K-21K21S2,1223,experiment,81,↑,up,↑,0.9748847000300884,True,28,1
WZ-K-21K21S2,1224,experiment,108,←,left,←,0.955348800169304,True,28,1
WZ-K-21K21S2,1225,experiment,71,←,left,←,0.7494818998966366,True,28,1
WZ-K-21K21S2,1226,experiment,84,←,left,←,0.6189246000722051,True,28,1
WZ-K-21K21S2,1227,experiment,79,→,right,→,0.903561000013724,True,28,1
WZ-K-21K21S2,1228,experiment,95,↓,down,↓,0.5714378000702709,True,28,1
WZ-K-21K21S2,1229,experiment,77,↓,down,↓,0.4268633001483977,True,28,1
WZ-K-21K21S2,1230,experiment,98,→,left,←,0.8168047999497503,False,28,1
WZ-K-21K21S2,1231,experiment,61,↓,down,↓,0.35955599998123944,True,28,1
WZ-K-21K21S2,1232,experiment,90,→,right,→,0.5103978998959064,True,28,1
WZ-K-21K21S2,1233,experiment,57,←,left,←,1.654826199868694,True,28,1
WZ-K-21K21S2,1234,experiment,51,←,left,←,0.42713999981060624,True,28,1
WZ-K-21K21S2,1235,experiment,80,↓,down,↓,0.4714820000808686,True,28,1
WZ-K-21K21S2,1236,experiment,75,↓,down,↓,0.3595376000739634,True,28,1
WZ-K-21K21S2,1237,experiment,94,→,left,←,0.3422473000828177,False,28,1
WZ-K-21K21S2,1238,training,83,→,right,→,1.0586226000450552,True,28,0
WZ-K-21K21S2,1239,training,91,→,right,→,0.45747840008698404,True,28,1
WZ-K-21K21S2,1240,experiment,66,↓,down,↓,0.45831919996999204,True,28,1
WZ-K-21K21S2,1241,experiment,81,↓,down,↓,0.5956565998494625,True,28,1
WZ-K-21K21S2,1242,experiment,79,→,right,→,0.6491260000038892,True,28,1
WZ-K-21K21S2,1243,experiment,65,←,left,←,0.585026599932462,True,28,1
WZ-K-21K21S2,1244,experiment,60,→,right,→,0.5816073999740183,True,28,1
WZ-K-21K21S2,1245,experiment,99,←,left,←,0.8766359000001103,True,28,1
WZ-K-21K21S2,1246,experiment,52,←,left,←,0.6721572999376804,True,28,1
WZ-K-21K21S2,1247,experiment,91,↑,up,↑,0.5745983000379056,True,28,1
WZ-K-21K21S2,1248,experiment,74,↑,up,↑,0.4226655999664217,True,28,1
WZ-K-21K21S2,1249,experiment,86,→,right,→,0.35056690010242164,True,28,1
WZ-K-21K21S2,1250,experiment,49,←,left,←,0.6818188999313861,True,28,0
WZ-K-21K21S2,1251,experiment,69,→,right,→,0.511471499921754,True,28,1
WZ-K-21K21S2,1252,experiment,70,↓,up,↑,0.6111722998321056,False,28,1
WZ-K-21K21S2,1253,experiment,68,←,left,←,0.6436992001254112,True,28,1
WZ-K-21K21S2,1254,experiment,51,→,left,←,0.5689666999969631,False,28,1
WZ-K-21K21S2,1255,experiment,90,←,left,←,0.3677135999314487,True,28,1
WZ-K-21K21S2,1256,experiment,80,↑,up,↑,0.49761729990132153,True,28,1
WZ-K-21K21S2,1257,experiment,48,↓,down,↓,0.46132560004480183,True,28,1
WZ-K-21K21S2,1258,experiment,59,↑,up,↑,0.5028561998624355,True,28,1
WZ-K-21K21S2,1259,experiment,50,↓,down,↓,0.5299790999852121,True,28,1
WZ-K-21K21S2,1260,experiment,82,→,right,→,0.9531115000136197,True,28,1
WZ-K-21K21S2,1261,experiment,58,←,left,←,0.5269824999850243,True,28,1
WZ-K-21K21S2,1262,experiment,72,→,right,→,1.0576357999816537,True,28,1
WZ-K-21K21S2,1263,experiment,92,↑,up,↑,0.3429328999482095,True,28,1
WZ-K-21K21S2,1264,experiment,56,←,left,←,0.5199171998538077,True,28,1
WZ-K-21K21S2,1265,experiment,104,↑,up,↑,0.5520164000336081,True,28,1
WZ-K-21K21S2,1266,experiment,76,↑,up,↑,0.544363799970597,True,28,1
WZ-K-21K21S2,1267,experiment,108,←,left,←,0.6219224999658763,True,28,1
WZ-K-21K21S2,1268,experiment,87,↑,up,↑,0.5356626999564469,True,28,1
WZ-K-21K21S2,1269,experiment,84,→,right,→,0.3591376000549644,True,28,1
WZ-K-21K21S2,1270,experiment,75,→,right,→,0.5584444000851363,True,28,0
WZ-K-21K21S2,1271,experiment,88,→,right,→,0.5543545000255108,True,28,1
WZ-K-21K21S2,1272,experiment,97,←,left,←,0.43520800000987947,True,28,1
WZ-K-21K21S2,1273,experiment,100,↓,down,↓,0.49603480007499456,True,28,1
WZ-K-21K21S2,1274,experiment,61,↓,down,↓,0.48772850004024804,True,28,1
WZ-K-21K21S2,1275,experiment,93,→,right,→,0.5409026998095214,True,28,1
WZ-K-21K21S2,1276,experiment,98,↑,up,↑,0.4069169999565929,True,28,1
WZ-K-21K21S2,1277,experiment,105,↑,up,↑,0.5067501000594348,True,28,1
WZ-K-21K21S2,1278,experiment,101,←,left,←,0.46023950004018843,True,28,1
WZ-K-21K21S2,1279,experiment,67,→,right,→,0.3506056999322027,True,28,1
WZ-K-21K21S2,1280,experiment,83,↓,down,↓,0.46491959993727505,True,28,0
WZ-K-21K21S2,1281,experiment,106,↑,up,↑,0.7306737001053989,True,28,1
WZ-K-21K21S2,1282,experiment,107,←,left,←,0.5212280999403447,True,28,1
WZ-K-21K21S2,1283,experiment,53,→,right,→,0.5063858001958579,True,28,1
WZ-K-21K21S2,1284,experiment,96,↓,down,↓,0.5099017000757158,True,28,1
WZ-K-21K21S2,1285,experiment,103,↓,down,↓,0.5266446999739856,True,28,1
WZ-K-21K21S2,1286,experiment,102,→,left,←,0.5754304998554289,False,28,1
WZ-K-21K21S2,1287,experiment,95,↑,up,↑,0.37767119985073805,True,28,1
WZ-K-21K21S2,1288,experiment,55,↓,up,↑,0.5345837001223117,False,28,0
WZ-K-21K21S2,1289,experiment,89,→,right,→,0.37593399989418685,True,28,1
WZ-K-21K21S2,1290,experiment,63,←,left,←,0.6303808998782188,True,28,0
WZ-K-21K21S2,1291,experiment,94,←,left,←,0.35106940008699894,True,28,1
WZ-K-21K21S2,1292,experiment,54,↓,down,↓,0.6210128001403064,True,28,1
WZ-K-21K21S2,1293,experiment,57,←,left,←,0.5047364998608828,True,28,1
WZ-K-21K21S2,1294,experiment,71,↑,up,↑,0.36785009992308915,True,28,1
WZ-K-21K21S2,1295,experiment,64,↑,up,↑,0.5520564999897033,True,28,0
WZ-K-21K21S2,1296,experiment,62,↑,up,↑,0.40508739999495447,True,28,1
WZ-K-21K21S2,1297,experiment,73,→,right,→,0.3757826001383364,True,28,1
WZ-K-21K21S2,1298,experiment,77,↓,down,↓,0.5467106001451612,True,28,0
WZ-K-21K21S2,1299,experiment,78,↓,down,↓,0.351243200013414,True,28,1
WZ-K-21K21S2,1300,experiment,85,↑,up,↑,0.5676769001875073,True,28,1
WZ-K-21K21S2,1301,training,102,→,right,→,0.38441019994206727,True,28,0
WZ-K-21K21S2,1302,training,54,→,right,→,0.6504865000024438,True,28,0
WZ-K-21K21S2,1303,experiment,64,←,left,←,0.44279700005427003,True,28,1
WZ-K-21K21S2,1304,experiment,68,↑,up,↑,0.46624390012584627,True,28,1
WZ-K-21K21S2,1305,experiment,57,↑,up,↑,0.5082783999387175,True,28,1
WZ-K-21K21S2,1306,experiment,103,→,right,→,0.4775515999644995,True,28,1
WZ-K-21K21S2,1307,experiment,73,↓,up,↑,0.5697844999376684,False,28,1
WZ-K-21K21S2,1308,experiment,70,→,right,→,0.3594929000828415,True,28,1
WZ-K-21K21S2,1309,experiment,79,→,right,→,0.442197100026533,True,28,0
WZ-K-21K21S2,1310,experiment,98,↓,up,↑,0.5036732999142259,False,28,1
WZ-K-21K21S2,1311,experiment,92,→,right,→,0.42094300012104213,True,28,1
WZ-K-21K21S2,1312,experiment,63,↑,up,↑,0.5345142998266965,True,28,1
WZ-K-21K21S2,1313,experiment,54,→,right,→,0.34476789995096624,True,28,1
WZ-K-21K21S2,1314,experiment,102,←,left,←,0.542282999958843,True,28,0
WZ-K-21K21S2,1315,experiment,107,↑,up,↑,0.5165297000203282,True,28,1
WZ-K-21K21S2,1316,experiment,87,↑,up,↑,1.250769800040871,True,28,1
WZ-K-21K21S2,1317,experiment,76,↓,down,↓,0.5672379999887198,True,28,1
WZ-K-21K21S2,1318,experiment,81,↓,down,↓,0.35105219995602965,True,28,1
WZ-K-21K21S2,1319,experiment,77,↓,down,↓,0.34184099989943206,True,28,0
WZ-K-21K21S2,1320,experiment,101,→,right,→,0.5091564001049846,True,28,0
WZ-K-21K21S2,1321,experiment,88,←,left,←,0.4114691000431776,True,28,1
WZ-K-21K21S2,1322,experiment,59,←,left,←,0.43046310008503497,True,28,1
WZ-K-21K21S2,1323,experiment,86,←,left,←,0.35096190008334816,True,28,1
WZ-K-21K21S2,1324,experiment,69,↑,left,←,0.29185159993357956,False,28,0
WZ-K-21K21S2,1325,experiment,96,↑,up,↑,0.4224624999333173,True,28,0
WZ-K-21K21S2,1326,experiment,67,↓,down,↓,0.5907966999802738,True,28,1
WZ-K-21K21S2,1327,experiment,108,↓,up,↑,0.5627160998992622,False,28,1
WZ-K-21K21S2,1328,experiment,51,↑,up,↑,0.44293919997289777,True,28,1
WZ-K-21K21S2,1329,experiment,75,←,left,←,1.4719984999392182,True,28,1
WZ-K-21K21S2,1330,experiment,71,↓,up,↑,0.5730938999913633,False,28,1
WZ-K-21K21S2,1331,experiment,105,↓,down,↓,0.6267452000174671,True,28,1
WZ-K-21K21S2,1332,experiment,52,↑,up,↑,0.4882575999945402,True,28,1
WZ-K-21K21S2,1333,experiment,99,→,right,→,0.5470781000331044,True,28,1
WZ-K-21K21S2,1334,experiment,58,←,left,←,0.37553489999845624,True,28,1
WZ-K-21K21S2,1335,experiment,91,↑,up,↑,0.5475520000327379,True,28,0
WZ-K-21K21S2,1336,experiment,62,←,left,←,0.3594516001176089,True,28,1
WZ-K-21K21S2,1337,experiment,50,↑,up,↑,0.5531431999988854,True,28,0
WZ-K-21K21S2,1338,experiment,93,↑,up,↑,0.4122226000763476,True,28,1
WZ-K-21K21S2,1339,experiment,90,↑,up,↑,0.33376350020989776,True,28,1
WZ-K-21K21S2,1340,experiment,60,→,right,→,0.8432054000440985,True,28,0
WZ-K-21K21S2,1341,experiment,100,→,right,→,1.0956516999285668,True,28,1
WZ-K-21K21S2,1342,experiment,94,→,right,→,0.5478815000969917,True,28,1
WZ-K-21K21S2,1343,experiment,61,↑,up,↑,0.5695338998921216,True,28,1
WZ-K-21K21S2,1344,experiment,56,→,left,←,0.7918511999305338,False,28,1
WZ-K-21K21S2,1345,experiment,66,←,left,←,0.36738619999960065,True,28,1
WZ-K-21K21S2,1346,experiment,106,↓,down,↓,0.6553953001275659,True,28,0
WZ-K-21K21S2,1347,experiment,95,←,left,←,0.5411092001013458,True,28,1
WZ-K-21K21S2,1348,experiment,53,↓,down,↓,1.021435899892822,True,28,1
WZ-K-21K21S2,1349,experiment,65,→,right,→,0.5424514000769705,True,28,1
WZ-K-21K21S2,1350,experiment,82,→,right,→,0.3677284000441432,True,28,1
WZ-K-21K21S2,1351,experiment,49,←,left,←,0.4536335999146104,True,28,1
WZ-K-21K21S2,1352,experiment,89,↓,down,↓,0.4294431998860091,True,28,1
WZ-K-21K21S2,1353,experiment,55,←,left,←,0.47357600019313395,True,28,1
WZ-K-21K21S2,1354,experiment,48,↓,down,↓,1.1582070000004023,True,28,1
WZ-K-21K21S2,1355,experiment,84,↑,up,↑,0.6834384999237955,True,28,1
WZ-K-21K21S2,1356,experiment,83,←,left,←,0.5483160999137908,True,28,1
WZ-K-21K21S2,1357,experiment,72,↓,down,↓,0.5020316999871284,True,28,1
WZ-K-21K21S2,1358,experiment,78,→,right,→,0.3693792999256402,True,28,1
WZ-K-21K21S2,1359,experiment,85,↓,down,↓,0.4999500000849366,True,28,0
WZ-K-21K21S2,1360,experiment,104,←,right,→,1.1168856001459062,False,28,1
WZ-K-21K21S2,1361,experiment,97,↓,down,↓,0.4474828999955207,True,28,1
WZ-K-21K21S2,1362,experiment,80,↓,down,↓,0.6184576998930424,True,28,1
WZ-K-21K21S2,1363,experiment,74,↓,down,↓,0.43289180006831884,True,28,1
WZ-K-21K21S2,1364,training,51,→,left,←,0.6523358998820186,False,28,0
WZ-K-21K21S2,1365,training,70,↑,up,↑,0.6988450998906046,True,28,1
WZ-K-21K21S2,1366,experiment,51,↓,up,↑,0.6938837999477983,False,28,1
WZ-K-21K21S2,1367,experiment,61,↓,down,↓,0.6610975000075996,True,28,1
WZ-K-21K21S2,1368,experiment,68,↓,down,↓,0.6117287999950349,True,28,1
WZ-K-21K21S2,1369,experiment,97,→,right,→,0.6027287000324577,True,28,1
WZ-K-21K21S2,1370,experiment,105,↓,down,↓,0.9675256998743862,True,28,1
WZ-K-21K21S2,1371,experiment,88,→,right,→,0.40287770004943013,True,28,1
WZ-K-21K21S2,1372,experiment,56,↓,down,↓,0.5116916000843048,True,28,0
WZ-K-21K21S2,1373,experiment,55,←,left,←,0.4090346999000758,True,28,1
WZ-K-21K21S2,1374,experiment,53,↑,up,↑,0.49424550007097423,True,28,1
WZ-K-21K21S2,1375,experiment,95,→,right,→,0.3844706998206675,True,28,1
WZ-K-21K21S2,1376,experiment,67,←,right,→,0.5960307999048382,False,28,1
WZ-K-21K21S2,1377,experiment,90,↓,down,↓,0.4538112999871373,True,28,1
WZ-K-21K21S2,1378,experiment,77,←,left,←,0.3504251998383552,True,28,1
WZ-K-21K21S2,1379,experiment,57,↑,up,↑,0.6081825001165271,True,28,0
WZ-K-21K21S2,1380,experiment,104,↓,up,↑,0.8127559998538345,False,28,1
WZ-K-21K21S2,1381,experiment,66,→,right,→,0.6777733999770135,True,28,1
WZ-K-21K21S2,1382,experiment,93,→,right,→,0.6754162001889199,True,28,1
WZ-K-21K21S2,1383,experiment,106,←,right,→,0.5887955999933183,False,28,1
WZ-K-21K21S2,1384,experiment,52,←,left,←,0.44344569998793304,True,28,1
WZ-K-21K21S2,1385,experiment,101,←,left,←,1.0397401000373065,True,28,1
WZ-K-21K21S2,1386,experiment,89,↑,up,↑,0.5602247999049723,True,28,1
WZ-K-21K21S2,1387,experiment,92,↑,up,↑,0.971039499854669,True,28,1
WZ-K-21K21S2,1388,experiment,91,←,left,←,0.42147970013320446,True,28,1
WZ-K-21K21S2,1389,experiment,69,←,left,←,0.35090780002065003,True,28,1
WZ-K-21K21S2,1390,experiment,103,←,left,←,0.6521045002155006,True,28,0
WZ-K-21K21S2,1391,experiment,83,→,right,→,0.7821540001314133,True,28,1
WZ-K-21K21S2,1392,experiment,49,→,right,→,0.3669988999608904,True,28,1
WZ-K-21K21S2,1393,experiment,86,←,left,←,0.43424790003336966,True,28,0
WZ-K-21K21S2,1394,experiment,94,↑,up,↑,0.6413022999186069,True,28,1
WZ-K-21K21S2,1395,experiment,65,←,left,←,0.42574700014665723,True,28,1
WZ-K-21K21S2,1396,experiment,84,↓,down,↓,0.580278699984774,True,28,1
WZ-K-21K21S2,1397,experiment,70,↑,up,↑,0.5012439000420272,True,28,1
WZ-K-21K21S2,1398,experiment,102,→,right,→,0.40713639999739826,True,28,1
WZ-K-21K21S2,1399,experiment,100,↓,down,↓,1.5649640001356602,True,28,1
WZ-K-21K21S2,1400,experiment,63,↓,down,↓,0.5292746000923216,True,28,1
WZ-K-21K21S2,1401,experiment,98,↑,up,↑,0.49051179992966354,True,28,1
WZ-K-21K21S2,1402,experiment,50,↑,up,↑,0.5260318999644369,True,28,1
WZ-K-21K21S2,1403,experiment,78,←,left,←,0.5986961000598967,True,28,1
WZ-K-21K21S2,1404,experiment,59,↓,down,↓,0.4588238000869751,True,28,1
WZ-K-21K21S2,1405,experiment,108,←,left,←,0.7323851999826729,True,28,1
WZ-K-21K21S2,1406,experiment,74,→,right,→,0.6140891001559794,True,28,1
WZ-K-21K21S2,1407,experiment,96,←,left,←,0.9968628000933677,True,28,1
WZ-K-21K21S2,1408,experiment,82,←,left,←,0.6735216001980007,True,28,1
WZ-K-21K21S2,1409,experiment,72,→,right,→,0.5499799000099301,True,28,1
WZ-K-21K21S2,1410,experiment,79,↑,up,↑,0.413446799851954,True,28,1
WZ-K-21K21S2,1411,experiment,62,←,left,←,0.8639685001689941,True,28,1
WZ-K-21K21S2,1412,experiment,64,↑,up,↑,1.0074664999265224,True,28,1
WZ-K-21K21S2,1413,experiment,76,↑,up,↑,0.36749659990891814,True,28,1
WZ-K-21K21S2,1414,experiment,58,→,right,→,0.42692140000872314,True,28,1
WZ-K-21K21S2,1415,experiment,107,↓,down,↓,0.48620199994184077,True,28,1
WZ-K-21K21S2,1416,experiment,75,↑,up,↑,0.6094504999928176,True,28,1
WZ-K-21K21S2,1417,experiment,85,↓,down,↓,0.5245417000260204,True,28,1
WZ-K-21K21S2,1418,experiment,48,↓,down,↓,0.655439400114119,True,28,1
WZ-K-21K21S2,1419,experiment,60,←,left,←,0.44873069995082915,True,28,1
WZ-K-21K21S2,1420,experiment,87,→,right,→,0.4256331000942737,True,28,1
WZ-K-21K21S2,1421,experiment,81,↓,down,↓,0.7331662999931723,True,28,1
WZ-K-21K21S2,1422,experiment,80,↑,up,↑,0.4929837000090629,True,28,1
WZ-K-21K21S2,1423,experiment,71,↓,down,↓,0.6894030999392271,True,28,1
WZ-K-21K21S2,1424,experiment,99,↑,up,↑,0.4443703000433743,True,28,1
