PART_ID,Trial_no,Trial_type,CSI,Stim_letter,Key_pressed,letter_choose,Rt,Corr,Stimulus Time,nDropped
ZC-K-23K23S2,1,training,120,←,left,←,0.5673498001415282,True,60,0
ZC-K-23K23S2,2,training,120,→,right,→,0.5349001998547465,True,60,0
ZC-K-23K23S2,3,training,120,←,left,←,0.6089963000267744,True,60,0
ZC-K-23K23S2,4,training,120,→,right,→,0.5923451997805387,True,60,0
ZC-K-23K23S2,5,training,120,←,left,←,0.5426498998422176,True,60,0
ZC-K-23K23S2,6,training,120,→,no_key,no_letter,-1.0,False,60,0
ZC-K-23K23S2,7,training,120,→,left,←,0.8697118000127375,False,60,0
ZC-K-23K23S2,8,training,120,↓,down,↓,0.6975632000248879,True,60,0
ZC-K-23K23S2,9,training,120,↓,down,↓,0.6169900000095367,True,60,0
ZC-K-23K23S2,10,training,120,↑,up,↑,0.6252782999072224,True,60,0
ZC-K-23K23S2,11,training,120,→,right,→,0.5760061999317259,True,60,0
ZC-K-23K23S2,12,training,120,↓,down,↓,0.6101478000637144,True,60,0
ZC-K-23K23S2,13,training,120,←,left,←,0.5257087999489158,True,60,0
ZC-K-23K23S2,14,training,120,↓,down,↓,0.592136399820447,True,60,0
ZC-K-23K23S2,15,training,120,↑,up,↑,0.5509609999135137,True,60,0
ZC-K-23K23S2,16,training,120,←,left,←,0.4766635000705719,True,60,0
ZC-K-23K23S2,17,training,120,↓,down,↓,1.4597968000452965,True,60,0
ZC-K-23K23S2,18,training,120,→,right,→,0.5583742000162601,True,60,0
ZC-K-23K23S2,19,training,120,→,right,→,0.5509424000047147,True,60,0
ZC-K-23K23S2,20,training,120,→,right,→,0.5588754999917,True,60,0
ZC-K-23K23S2,21,no_adaptation,120,→,right,→,0.5578832998871803,True,36,0
ZC-K-23K23S2,22,no_adaptation,120,←,left,←,0.49463240010663867,True,36,0
ZC-K-23K23S2,23,no_adaptation,120,↑,up,↑,0.5376387999858707,True,36,0
ZC-K-23K23S2,24,no_adaptation,120,↓,down,↓,0.619068699888885,True,36,0
ZC-K-23K23S2,25,no_adaptation,120,←,left,←,0.5053703000303358,True,36,0
ZC-K-23K23S2,26,no_adaptation,120,→,right,→,1.2681526998057961,True,36,0
ZC-K-23K23S2,27,no_adaptation,120,↑,up,↑,0.520770400064066,True,36,0
ZC-K-23K23S2,28,no_adaptation,120,→,right,→,0.44248179998248816,True,36,0
ZC-K-23K23S2,29,no_adaptation,120,↓,down,↓,0.5600268000271171,True,36,0
ZC-K-23K23S2,30,no_adaptation,120,→,right,→,0.4742403000127524,True,36,0
ZC-K-23K23S2,31,no_adaptation,120,↓,down,↓,0.6049286001361907,True,36,0
ZC-K-23K23S2,32,no_adaptation,120,↓,down,↓,0.5876056000124663,True,36,0
ZC-K-23K23S2,33,no_adaptation,120,←,left,←,0.47595019987784326,True,36,0
ZC-K-23K23S2,34,no_adaptation,120,→,right,→,0.41730380011722445,True,36,0
ZC-K-23K23S2,35,no_adaptation,120,→,right,→,0.5970687000080943,True,36,0
ZC-K-23K23S2,36,no_adaptation,120,→,right,→,0.4692035000771284,True,36,0
ZC-K-23K23S2,37,no_adaptation,120,→,right,→,0.4734204998239875,True,36,0
ZC-K-23K23S2,38,no_adaptation,120,←,left,←,0.5484018002171069,True,36,0
ZC-K-23K23S2,39,no_adaptation,120,→,right,→,0.47006079996936023,True,36,0
ZC-K-23K23S2,40,no_adaptation,120,←,left,←,1.1136598999146372,True,36,0
ZC-K-23K23S2,41,training,100,↑,up,↑,0.4896833999082446,True,36,0
ZC-K-23K23S2,42,training,63,→,left,←,0.7044047000817955,False,36,1
ZC-K-23K23S2,43,experiment,108,↑,up,↑,0.5116732998285443,True,36,1
ZC-K-23K23S2,44,experiment,58,↓,down,↓,0.5434353000018746,True,36,1
ZC-K-23K23S2,45,experiment,53,↓,down,↓,0.5200775000266731,True,36,1
ZC-K-23K23S2,46,experiment,105,↓,down,↓,1.3759703999385238,True,36,1
ZC-K-23K23S2,47,experiment,56,↓,down,↓,0.5262449998408556,True,36,1
ZC-K-23K23S2,48,experiment,54,↑,up,↑,0.5187975000590086,True,36,1
ZC-K-23K23S2,49,experiment,96,↓,down,↓,0.4979521001223475,True,36,1
ZC-K-23K23S2,50,experiment,78,↑,up,↑,0.6677300001028925,True,36,1
ZC-K-23K23S2,51,experiment,104,→,right,→,0.4422402000054717,True,36,1
ZC-K-23K23S2,52,experiment,86,↑,up,↑,0.5191204999573529,True,36,0
ZC-K-23K23S2,53,experiment,49,↓,down,↓,0.5219870998989791,True,36,1
ZC-K-23K23S2,54,experiment,68,↑,up,↑,0.5260051998775452,True,36,1
ZC-K-23K23S2,55,experiment,55,↓,down,↓,0.5023862000089139,True,36,1
ZC-K-23K23S2,56,experiment,107,↓,down,↓,0.5264232999179512,True,36,1
ZC-K-23K23S2,57,experiment,85,↑,up,↑,0.4694560000207275,True,36,1
ZC-K-23K23S2,58,experiment,60,←,left,←,0.49417770002037287,True,36,0
ZC-K-23K23S2,59,experiment,80,→,right,→,0.49511920008808374,True,36,1
ZC-K-23K23S2,60,experiment,50,↑,up,↑,0.5061945000197738,True,36,1
ZC-K-23K23S2,61,experiment,103,→,right,→,1.339038300095126,True,36,1
ZC-K-23K23S2,62,experiment,69,←,left,←,0.45002969983033836,True,36,1
ZC-K-23K23S2,63,experiment,102,↓,up,↑,1.5134093998931348,False,36,0
ZC-K-23K23S2,64,experiment,81,↑,up,↑,0.5615658999886364,True,36,1
ZC-K-23K23S2,65,experiment,66,←,right,→,0.42504740017466247,False,36,1
ZC-K-23K23S2,66,experiment,100,→,right,→,0.4349382999353111,True,36,0
ZC-K-23K23S2,67,experiment,65,→,right,→,0.5139254999812692,True,36,0
ZC-K-23K23S2,68,experiment,48,↑,up,↑,0.5648723999038339,True,36,1
ZC-K-23K23S2,69,experiment,75,←,left,←,0.4172413998749107,True,36,1
ZC-K-23K23S2,70,experiment,59,→,right,→,0.47278670012019575,True,36,0
ZC-K-23K23S2,71,experiment,87,↓,down,↓,0.6006990000605583,True,36,0
ZC-K-23K23S2,72,experiment,94,↓,down,↓,0.5283480000216514,True,36,1
ZC-K-23K23S2,73,experiment,95,→,right,→,0.571441899985075,True,36,1
ZC-K-23K23S2,74,experiment,90,←,left,←,0.5502625000663102,True,36,1
ZC-K-23K23S2,75,experiment,79,→,right,→,0.4783671998884529,True,36,1
ZC-K-23K23S2,76,experiment,52,←,right,→,0.5529616000130773,False,36,1
ZC-K-23K23S2,77,experiment,106,←,left,←,0.5673986000474542,True,36,1
ZC-K-23K23S2,78,experiment,91,←,left,←,0.5220191001426429,True,36,1
ZC-K-23K23S2,79,experiment,71,↓,down,↓,0.5970692001283169,True,36,1
ZC-K-23K23S2,80,experiment,76,↓,down,↓,0.6674355000723153,True,36,1
ZC-K-23K23S2,81,experiment,98,↑,up,↑,0.6318515001330525,True,36,1
ZC-K-23K23S2,82,experiment,57,←,left,←,0.5314426999539137,True,36,1
ZC-K-23K23S2,83,experiment,84,→,right,→,0.5616341000422835,True,36,1
ZC-K-23K23S2,84,experiment,63,→,right,→,0.518160599982366,True,36,1
ZC-K-23K23S2,85,experiment,93,↓,down,↓,0.5621879999525845,True,36,1
ZC-K-23K23S2,86,experiment,88,←,left,←,0.47877179994247854,True,36,1
ZC-K-23K23S2,87,experiment,64,↑,up,↑,0.5334503001067787,True,36,1
ZC-K-23K23S2,88,experiment,70,→,left,←,0.5365689999889582,False,36,1
ZC-K-23K23S2,89,experiment,101,↓,down,↓,0.6490639999974519,True,36,1
ZC-K-23K23S2,90,experiment,99,←,left,←,0.5098057999275625,True,36,1
ZC-K-23K23S2,91,experiment,61,→,right,→,0.5250822999514639,True,36,1
ZC-K-23K23S2,92,experiment,74,↑,up,↑,0.4715647997800261,True,36,1
ZC-K-23K23S2,93,experiment,83,←,left,←,0.4879630000796169,True,36,0
ZC-K-23K23S2,94,experiment,67,←,left,←,0.4707604998257011,True,36,1
ZC-K-23K23S2,95,experiment,97,↓,down,↓,0.6026414998341352,True,36,0
ZC-K-23K23S2,96,experiment,73,→,right,→,0.5219033001922071,True,36,1
ZC-K-23K23S2,97,experiment,82,↓,down,↓,0.505289199994877,True,36,1
ZC-K-23K23S2,98,experiment,72,↓,down,↓,0.7484832999762148,True,36,1
ZC-K-23K23S2,99,experiment,92,→,right,→,0.5116883001755923,True,36,1
ZC-K-23K23S2,100,experiment,51,↑,up,↑,0.6501513998955488,True,36,1
ZC-K-23K23S2,101,experiment,77,→,right,→,0.40001520002260804,True,36,1
ZC-K-23K23S2,102,experiment,62,←,left,←,0.5291114000137895,True,36,0
ZC-K-23K23S2,103,experiment,89,→,right,→,0.5021272001322359,True,36,1
ZC-K-23K23S2,104,training,78,↑,up,↑,0.5637534998822957,True,35,0
ZC-K-23K23S2,105,training,93,↑,up,↑,0.42607170017436147,True,35,1
ZC-K-23K23S2,106,experiment,49,←,left,←,0.4841382000595331,True,35,0
ZC-K-23K23S2,107,experiment,77,↓,down,↓,0.5746148999314755,True,35,1
ZC-K-23K23S2,108,experiment,84,←,left,←,0.46001129993237555,True,35,1
ZC-K-23K23S2,109,experiment,53,→,right,→,0.471509899944067,True,35,0
ZC-K-23K23S2,110,experiment,57,↑,up,↑,0.48888539988547564,True,35,1
ZC-K-23K23S2,111,experiment,50,↑,up,↑,0.5638906999956816,True,35,1
ZC-K-23K23S2,112,experiment,99,↑,up,↑,0.4608285999856889,True,35,1
ZC-K-23K23S2,113,experiment,103,↓,down,↓,0.6068736000452191,True,35,0
ZC-K-23K23S2,114,experiment,65,↓,down,↓,0.5845827998127788,True,35,1
ZC-K-23K23S2,115,experiment,82,←,left,←,1.1495511999819428,True,35,1
ZC-K-23K23S2,116,experiment,55,↓,down,↓,0.6367375999689102,True,35,1
ZC-K-23K23S2,117,experiment,58,←,left,←,0.4962641999591142,True,35,1
ZC-K-23K23S2,118,experiment,72,↓,down,↓,0.49984259996563196,True,35,1
ZC-K-23K23S2,119,experiment,97,←,left,←,1.391027799807489,True,35,1
ZC-K-23K23S2,120,experiment,106,→,right,→,0.5076552000828087,True,35,1
ZC-K-23K23S2,121,experiment,101,↑,up,↑,1.0213965999428183,True,35,1
ZC-K-23K23S2,122,experiment,87,→,right,→,0.48714470001868904,True,35,1
ZC-K-23K23S2,123,experiment,93,→,right,→,0.5803739000111818,True,35,1
ZC-K-23K23S2,124,experiment,100,→,right,→,0.46752479998394847,True,35,1
ZC-K-23K23S2,125,experiment,76,↓,down,↓,0.5993306001182646,True,35,1
ZC-K-23K23S2,126,experiment,67,↑,up,↑,0.5206107001286,True,35,1
ZC-K-23K23S2,127,experiment,61,←,left,←,0.5110979999881238,True,35,1
ZC-K-23K23S2,128,experiment,105,↑,up,↑,0.4795603998936713,True,35,1
ZC-K-23K23S2,129,experiment,92,↑,up,↑,1.077227700036019,True,35,1
ZC-K-23K23S2,130,experiment,73,←,left,←,0.4977204999886453,True,35,1
ZC-K-23K23S2,131,experiment,60,↑,up,↑,0.5692838998511434,True,35,1
ZC-K-23K23S2,132,experiment,83,←,left,←,0.47141260001808405,True,35,1
ZC-K-23K23S2,133,experiment,78,↓,down,↓,0.6334031999576837,True,35,1
ZC-K-23K23S2,134,experiment,89,→,right,→,0.5383180999197066,True,35,1
ZC-K-23K23S2,135,experiment,48,→,left,←,0.4424767999444157,False,35,1
ZC-K-23K23S2,136,experiment,90,↑,up,↑,0.516362400026992,True,35,0
ZC-K-23K23S2,137,experiment,85,↑,up,↑,0.5312077000271529,True,35,1
ZC-K-23K23S2,138,experiment,56,↓,down,↓,0.6188092001248151,True,35,1
ZC-K-23K23S2,139,experiment,81,↓,down,↓,0.49484930001199245,True,35,1
ZC-K-23K23S2,140,experiment,51,↓,down,↓,0.5061419000849128,True,35,1
ZC-K-23K23S2,141,experiment,80,↑,up,↑,0.6026435000821948,True,35,1
ZC-K-23K23S2,142,experiment,107,↓,down,↓,0.6065200001467019,True,35,1
ZC-K-23K23S2,143,experiment,71,↓,down,↓,0.5025359001010656,True,35,1
ZC-K-23K23S2,144,experiment,68,→,right,→,0.5315031998325139,True,35,1
ZC-K-23K23S2,145,experiment,104,→,right,→,1.7792952000163496,True,35,1
ZC-K-23K23S2,146,experiment,74,↓,down,↓,0.5871308001223952,True,35,1
ZC-K-23K23S2,147,experiment,70,↑,up,↑,0.5081466999836266,True,35,1
ZC-K-23K23S2,148,experiment,69,←,left,←,0.5525336000137031,True,35,1
ZC-K-23K23S2,149,experiment,63,→,right,→,1.3332086000591516,True,35,1
ZC-K-23K23S2,150,experiment,75,→,right,→,0.502900600200519,True,35,1
ZC-K-23K23S2,151,experiment,88,→,right,→,0.5170229999348521,True,35,1
ZC-K-23K23S2,152,experiment,54,↑,up,↑,0.5581551999785006,True,35,1
ZC-K-23K23S2,153,experiment,64,←,left,←,0.4349921999964863,True,35,1
ZC-K-23K23S2,154,experiment,86,→,right,→,0.531272399937734,True,35,0
ZC-K-23K23S2,155,experiment,95,→,right,→,0.5341696999967098,True,35,1
ZC-K-23K23S2,156,experiment,108,←,left,←,0.4924631000030786,True,35,1
ZC-K-23K23S2,157,experiment,62,↑,up,↑,0.5237790001556277,True,35,1
ZC-K-23K23S2,158,experiment,79,↓,down,↓,0.6043829000554979,True,35,1
ZC-K-23K23S2,159,experiment,59,↓,down,↓,0.5524808999616653,True,35,1
ZC-K-23K23S2,160,experiment,102,↓,down,↓,0.6080084999557585,True,35,1
ZC-K-23K23S2,161,experiment,91,↑,up,↑,0.5770306000486016,True,35,1
ZC-K-23K23S2,162,experiment,94,←,left,←,0.49838729994371533,True,35,1
ZC-K-23K23S2,163,experiment,66,↑,up,↑,0.4882360000628978,True,35,1
ZC-K-23K23S2,164,experiment,52,↓,down,↓,0.4831338000949472,True,35,1
ZC-K-23K23S2,165,experiment,98,→,right,→,0.5828264998272061,True,35,1
ZC-K-23K23S2,166,experiment,96,↑,up,↑,0.5430449000559747,True,35,1
ZC-K-23K23S2,167,training,91,←,left,←,0.5118021999951452,True,34,0
ZC-K-23K23S2,168,training,80,→,right,→,0.45685170008800924,True,34,1
ZC-K-23K23S2,169,experiment,91,↓,down,↓,0.6076166999991983,True,34,0
ZC-K-23K23S2,170,experiment,68,→,right,→,0.5284816999919713,True,34,1
ZC-K-23K23S2,171,experiment,54,←,right,→,0.6175798000767827,False,34,1
ZC-K-23K23S2,172,experiment,104,↑,up,↑,0.5338270000647753,True,34,1
ZC-K-23K23S2,173,experiment,70,←,left,←,0.504679799778387,True,34,1
ZC-K-23K23S2,174,experiment,74,←,left,←,0.49195749987848103,True,34,1
ZC-K-23K23S2,175,experiment,105,→,right,→,0.45380569994449615,True,34,1
ZC-K-23K23S2,176,experiment,82,↑,up,↑,0.48717219987884164,True,34,1
ZC-K-23K23S2,177,experiment,69,↓,down,↓,0.6039364999160171,True,34,1
ZC-K-23K23S2,178,experiment,53,→,right,→,0.577822599792853,True,34,1
ZC-K-23K23S2,179,experiment,66,↑,up,↑,0.48471010010689497,True,34,1
ZC-K-23K23S2,180,experiment,65,←,left,←,0.47532729990780354,True,34,1
ZC-K-23K23S2,181,experiment,75,←,right,→,0.39316059998236597,False,34,1
ZC-K-23K23S2,182,experiment,58,↓,down,↓,0.5955526998732239,True,34,0
ZC-K-23K23S2,183,experiment,61,↓,down,↓,0.48705610004253685,True,34,1
ZC-K-23K23S2,184,experiment,79,↓,down,↓,0.43441580003127456,True,34,1
ZC-K-23K23S2,185,experiment,52,↓,down,↓,0.7581013001035899,True,34,0
ZC-K-23K23S2,186,experiment,57,↑,up,↑,0.7003740998916328,True,34,1
ZC-K-23K23S2,187,experiment,76,↑,up,↑,0.4867934000212699,True,34,1
ZC-K-23K23S2,188,experiment,96,→,right,→,0.49903860013000667,True,34,1
ZC-K-23K23S2,189,experiment,63,→,right,→,0.5296237000729889,True,34,1
ZC-K-23K23S2,190,experiment,92,↓,down,↓,0.6852794999722391,True,34,1
ZC-K-23K23S2,191,experiment,100,→,right,→,0.528447600081563,True,34,1
ZC-K-23K23S2,192,experiment,78,↑,up,↑,0.5770161999389529,True,34,1
ZC-K-23K23S2,193,experiment,71,←,left,←,0.4903869000263512,True,34,1
ZC-K-23K23S2,194,experiment,108,→,right,→,0.5227224000263959,True,34,1
ZC-K-23K23S2,195,experiment,55,←,left,←,0.5387491998262703,True,34,1
ZC-K-23K23S2,196,experiment,98,↑,up,↑,0.4528111999388784,True,34,1
ZC-K-23K23S2,197,experiment,81,←,left,←,0.5424332998227328,True,34,0
ZC-K-23K23S2,198,experiment,86,↑,up,↑,0.5080150999128819,True,34,1
ZC-K-23K23S2,199,experiment,64,↓,down,↓,0.5937799999956042,True,34,1
ZC-K-23K23S2,200,experiment,89,↑,up,↑,0.5883190999738872,True,34,1
ZC-K-23K23S2,201,experiment,67,↓,down,↓,0.7260111998766661,True,34,1
ZC-K-23K23S2,202,experiment,60,→,right,→,0.5407114000990987,True,34,1
ZC-K-23K23S2,203,experiment,90,↓,down,↓,0.4339153999462724,True,34,1
ZC-K-23K23S2,204,experiment,48,→,right,→,0.5269456999376416,True,34,0
ZC-K-23K23S2,205,experiment,106,↓,down,↓,0.6542871999554336,True,34,1
ZC-K-23K23S2,206,experiment,83,↑,up,↑,0.8237872000318021,True,34,1
ZC-K-23K23S2,207,experiment,87,→,right,→,0.4976838000584394,True,34,1
ZC-K-23K23S2,208,experiment,49,↑,up,↑,0.4851424000225961,True,34,1
ZC-K-23K23S2,209,experiment,77,↓,down,↓,0.5998567000497133,True,34,1
ZC-K-23K23S2,210,experiment,107,↑,up,↑,0.4999013999477029,True,34,1
ZC-K-23K23S2,211,experiment,95,←,left,←,0.5039291998837143,True,34,1
ZC-K-23K23S2,212,experiment,59,→,right,→,0.6081658999901265,True,34,1
ZC-K-23K23S2,213,experiment,94,↑,up,↑,0.5122806997969747,True,34,1
ZC-K-23K23S2,214,experiment,62,→,right,→,0.5189775999169797,True,34,1
ZC-K-23K23S2,215,experiment,88,↑,up,↑,1.3483998000156134,True,34,1
ZC-K-23K23S2,216,experiment,73,←,left,←,0.5017848999705166,True,34,1
ZC-K-23K23S2,217,experiment,85,↓,down,↓,0.5652341002132744,True,34,1
ZC-K-23K23S2,218,experiment,97,↑,up,↑,0.613916999893263,True,34,1
ZC-K-23K23S2,219,experiment,72,←,left,←,0.48507470008917153,True,34,1
ZC-K-23K23S2,220,experiment,50,←,left,←,0.48095170012675226,True,34,1
ZC-K-23K23S2,221,experiment,93,←,left,←,0.5181112000718713,True,34,1
ZC-K-23K23S2,222,experiment,101,↑,up,↑,0.5115571001078933,True,34,1
ZC-K-23K23S2,223,experiment,103,↓,down,↓,0.680570499971509,True,34,1
ZC-K-23K23S2,224,experiment,56,↓,down,↓,0.6342406999319792,True,34,1
ZC-K-23K23S2,225,experiment,51,←,left,←,0.4877046002075076,True,34,1
ZC-K-23K23S2,226,experiment,80,↓,down,↓,0.5530181000940502,True,34,1
ZC-K-23K23S2,227,experiment,99,↑,up,↑,0.5938917000312358,True,34,1
ZC-K-23K23S2,228,experiment,102,↓,down,↓,0.5040735001675785,True,34,1
ZC-K-23K23S2,229,experiment,84,←,left,←,0.5594415001105517,True,34,1
ZC-K-23K23S2,230,training,91,↑,up,↑,0.45601429999805987,True,33,0
ZC-K-23K23S2,231,training,85,↓,down,↓,0.6003437000326812,True,33,1
ZC-K-23K23S2,232,experiment,48,→,right,→,0.49621429992839694,True,33,1
ZC-K-23K23S2,233,experiment,87,↑,up,↑,0.47920880001038313,True,33,1
ZC-K-23K23S2,234,experiment,66,←,left,←,0.4852779000066221,True,33,1
ZC-K-23K23S2,235,experiment,68,←,left,←,0.47519499994814396,True,33,1
ZC-K-23K23S2,236,experiment,107,→,right,→,0.5002029000315815,True,33,1
ZC-K-23K23S2,237,experiment,55,→,left,←,0.5335327000357211,False,33,1
ZC-K-23K23S2,238,experiment,50,→,right,→,0.5198866000864655,True,33,1
ZC-K-23K23S2,239,experiment,58,↓,down,↓,0.5911109000444412,True,33,1
ZC-K-23K23S2,240,experiment,101,↓,down,↓,0.5893909998703748,True,33,1
ZC-K-23K23S2,241,experiment,99,↑,up,↑,0.5245396001264453,True,33,1
ZC-K-23K23S2,242,experiment,104,↑,up,↑,0.5647024998907,True,33,1
ZC-K-23K23S2,243,experiment,90,←,left,←,0.4481804999522865,True,33,1
ZC-K-23K23S2,244,experiment,54,←,left,←,0.4518979999702424,True,33,0
ZC-K-23K23S2,245,experiment,81,↑,up,↑,0.5817605999764055,True,33,1
ZC-K-23K23S2,246,experiment,65,↓,down,↓,0.6165382999461144,True,33,1
ZC-K-23K23S2,247,experiment,62,→,right,→,0.5470777000300586,True,33,1
ZC-K-23K23S2,248,experiment,103,↑,up,↑,0.46641420014202595,True,33,1
ZC-K-23K23S2,249,experiment,100,↓,down,↓,0.5980502001475543,True,33,1
ZC-K-23K23S2,250,experiment,64,←,left,←,0.5046135999727994,True,33,1
ZC-K-23K23S2,251,experiment,93,↓,down,↓,0.6366618000902236,True,33,1
ZC-K-23K23S2,252,experiment,76,↓,down,↓,0.45043730014003813,True,33,1
ZC-K-23K23S2,253,experiment,82,→,left,←,0.5240515999030322,False,33,1
ZC-K-23K23S2,254,experiment,70,→,right,→,0.543319399934262,True,33,1
ZC-K-23K23S2,255,experiment,83,←,left,←,0.5177066000178456,True,33,1
ZC-K-23K23S2,256,experiment,67,↓,down,↓,0.586474800016731,True,33,1
ZC-K-23K23S2,257,experiment,86,←,left,←,1.3260707999579608,True,33,1
ZC-K-23K23S2,258,experiment,80,↓,down,↓,0.638176399981603,True,33,1
ZC-K-23K23S2,259,experiment,78,←,left,←,0.4821806000545621,True,33,1
ZC-K-23K23S2,260,experiment,51,→,right,→,0.509867100045085,True,33,1
ZC-K-23K23S2,261,experiment,72,↓,down,↓,0.5930093999486417,True,33,1
ZC-K-23K23S2,262,experiment,79,↑,up,↑,0.5989190998952836,True,33,1
ZC-K-23K23S2,263,experiment,94,↑,up,↑,0.54332339996472,True,33,1
ZC-K-23K23S2,264,experiment,73,↓,down,↓,0.5691674998961389,True,33,1
ZC-K-23K23S2,265,experiment,108,←,left,←,0.6059870000462979,True,33,1
ZC-K-23K23S2,266,experiment,59,←,left,←,0.6100268999580294,True,33,1
ZC-K-23K23S2,267,experiment,69,↓,down,↓,0.585949300089851,True,33,1
ZC-K-23K23S2,268,experiment,74,→,right,→,0.4659076000098139,True,33,1
ZC-K-23K23S2,269,experiment,57,↓,down,↓,0.5561955999583006,True,33,1
ZC-K-23K23S2,270,experiment,52,←,left,←,0.6120274001732469,True,33,1
ZC-K-23K23S2,271,experiment,91,→,right,→,0.47707909997552633,True,33,1
ZC-K-23K23S2,272,experiment,106,→,right,→,0.4785234001465142,True,33,1
ZC-K-23K23S2,273,experiment,97,↓,down,↓,0.5465430999174714,True,33,1
ZC-K-23K23S2,274,experiment,71,←,left,←,0.4925432000309229,True,33,1
ZC-K-23K23S2,275,experiment,84,↓,down,↓,0.5808262000791728,True,33,1
ZC-K-23K23S2,276,experiment,85,→,right,→,0.504834100138396,True,33,1
ZC-K-23K23S2,277,experiment,92,←,left,←,0.5013584999833256,True,33,1
ZC-K-23K23S2,278,experiment,53,↓,down,↓,0.567435999866575,True,33,1
ZC-K-23K23S2,279,experiment,89,↑,up,↑,0.691045599989593,True,33,1
ZC-K-23K23S2,280,experiment,49,→,right,→,0.44669039989821613,True,33,1
ZC-K-23K23S2,281,experiment,98,→,right,→,0.6836563001852483,True,33,0
ZC-K-23K23S2,282,experiment,75,→,left,←,0.48728570016101,False,33,1
ZC-K-23K23S2,283,experiment,96,→,right,→,0.5555191000457853,True,33,1
ZC-K-23K23S2,284,experiment,88,↓,down,↓,0.5834737000986934,True,33,1
ZC-K-23K23S2,285,experiment,102,↓,down,↓,0.5259097998496145,True,33,1
ZC-K-23K23S2,286,experiment,61,←,left,←,0.5083427999634296,True,33,1
ZC-K-23K23S2,287,experiment,95,↑,up,↑,0.5440293999854475,True,33,1
ZC-K-23K23S2,288,experiment,60,←,left,←,0.5104579001199454,True,33,1
ZC-K-23K23S2,289,experiment,77,→,right,→,0.46418799995444715,True,33,1
ZC-K-23K23S2,290,experiment,56,→,right,→,0.48239889997057617,True,33,1
ZC-K-23K23S2,291,experiment,105,←,left,←,0.563853699946776,True,33,1
ZC-K-23K23S2,292,experiment,63,→,right,→,0.5276770999189466,True,33,1
ZC-K-23K23S2,293,training,80,←,left,←,0.4163455998059362,True,32,0
ZC-K-23K23S2,294,training,64,→,right,→,0.400908499956131,True,32,0
ZC-K-23K23S2,295,experiment,51,←,left,←,0.3838901000563055,True,32,0
ZC-K-23K23S2,296,experiment,107,↓,down,↓,0.6266580999363214,True,32,0
ZC-K-23K23S2,297,experiment,66,↑,up,↑,0.5554196999873966,True,32,1
ZC-K-23K23S2,298,experiment,69,←,left,←,0.39239150006324053,True,32,1
ZC-K-23K23S2,299,experiment,74,↑,up,↑,1.1808106999378651,True,32,0
ZC-K-23K23S2,300,experiment,90,↑,up,↑,0.49512410000897944,True,32,1
ZC-K-23K23S2,301,experiment,76,↓,down,↓,0.5940411000046879,True,32,1
ZC-K-23K23S2,302,experiment,73,↑,up,↑,0.4501026999205351,True,32,1
ZC-K-23K23S2,303,experiment,48,↑,up,↑,0.4167158999480307,True,32,1
ZC-K-23K23S2,304,experiment,58,→,right,→,0.5389298000372946,True,32,0
ZC-K-23K23S2,305,experiment,53,↑,up,↑,0.49929980002343655,True,32,1
ZC-K-23K23S2,306,experiment,108,↑,up,↑,0.4590739000122994,True,32,1
ZC-K-23K23S2,307,experiment,105,↓,down,↓,0.6136896000243723,True,32,1
ZC-K-23K23S2,308,experiment,91,←,left,←,0.4940871000289917,True,32,1
ZC-K-23K23S2,309,experiment,77,↑,up,↑,0.46497449977323413,True,32,1
ZC-K-23K23S2,310,experiment,88,↓,down,↓,0.5764872999861836,True,32,1
ZC-K-23K23S2,311,experiment,104,↓,down,↓,0.5503463998902589,True,32,1
ZC-K-23K23S2,312,experiment,78,←,left,←,0.5101154998410493,True,32,1
ZC-K-23K23S2,313,experiment,68,↑,up,↑,0.49869309994392097,True,32,1
ZC-K-23K23S2,314,experiment,101,↑,up,↑,0.445189299993217,True,32,1
ZC-K-23K23S2,315,experiment,81,←,left,←,0.49585109995678067,True,32,1
ZC-K-23K23S2,316,experiment,106,→,right,→,0.5043127001263201,True,32,1
ZC-K-23K23S2,317,experiment,98,↑,up,↑,0.4592021000571549,True,32,1
ZC-K-23K23S2,318,experiment,86,←,left,←,0.5557568999938667,True,32,1
ZC-K-23K23S2,319,experiment,103,→,right,→,0.6185551998205483,True,32,1
ZC-K-23K23S2,320,experiment,49,←,left,←,0.5295539000071585,True,32,1
ZC-K-23K23S2,321,experiment,85,←,left,←,1.8484682000707835,True,32,1
ZC-K-23K23S2,322,experiment,65,←,left,←,0.5760395000688732,True,32,1
ZC-K-23K23S2,323,experiment,55,↑,up,↑,0.4782489000353962,True,32,1
ZC-K-23K23S2,324,experiment,82,→,right,→,0.5274853000883013,True,32,1
ZC-K-23K23S2,325,experiment,83,↓,down,↓,0.6311921000014991,True,32,1
ZC-K-23K23S2,326,experiment,93,→,right,→,0.5182871001306921,True,32,1
ZC-K-23K23S2,327,experiment,95,→,right,→,0.5296254002023488,True,32,1
ZC-K-23K23S2,328,experiment,100,←,left,←,0.49898070003837347,True,32,1
ZC-K-23K23S2,329,experiment,71,↑,up,↑,0.4786710999906063,True,32,1
ZC-K-23K23S2,330,experiment,57,↑,up,↑,0.5604643998667598,True,32,1
ZC-K-23K23S2,331,experiment,96,↑,up,↑,0.44973589992150664,True,32,1
ZC-K-23K23S2,332,experiment,84,→,right,→,0.5154659000691026,True,32,1
ZC-K-23K23S2,333,experiment,50,→,right,→,0.46209990000352263,True,32,1
ZC-K-23K23S2,334,experiment,59,↓,down,↓,0.6313515000510961,True,32,1
ZC-K-23K23S2,335,experiment,87,←,left,←,0.45681130001321435,True,32,1
ZC-K-23K23S2,336,experiment,70,↑,up,↑,0.4709402001462877,True,32,1
ZC-K-23K23S2,337,experiment,72,↑,up,↑,0.4680006999988109,True,32,1
ZC-K-23K23S2,338,experiment,75,↓,down,↓,0.6639864000026137,True,32,1
ZC-K-23K23S2,339,experiment,64,→,right,→,0.47179169999435544,True,32,1
ZC-K-23K23S2,340,experiment,79,↓,down,↓,0.5943293001037091,True,32,1
ZC-K-23K23S2,341,experiment,99,↑,up,↑,0.5453566999640316,True,32,1
ZC-K-23K23S2,342,experiment,52,→,right,→,0.5458748999517411,True,32,1
ZC-K-23K23S2,343,experiment,67,↓,down,↓,0.5973799000494182,True,32,1
ZC-K-23K23S2,344,experiment,61,←,left,←,0.5367245001252741,True,32,1
ZC-K-23K23S2,345,experiment,54,→,right,→,0.5612788000144064,True,32,1
ZC-K-23K23S2,346,experiment,60,←,left,←,0.5426938999444246,True,32,1
ZC-K-23K23S2,347,experiment,97,→,right,→,0.5045536998659372,True,32,1
ZC-K-23K23S2,348,experiment,80,↓,down,↓,0.6091161000076681,True,32,1
ZC-K-23K23S2,349,experiment,92,↓,down,↓,0.4738330999389291,True,32,1
ZC-K-23K23S2,350,experiment,63,↓,down,↓,0.5775404998566955,True,32,1
ZC-K-23K23S2,351,experiment,89,↓,down,↓,0.5245868999045342,True,32,1
ZC-K-23K23S2,352,experiment,102,→,right,→,0.46937229996547103,True,32,1
ZC-K-23K23S2,353,experiment,94,←,down,↓,0.5710989001672715,False,32,1
ZC-K-23K23S2,354,experiment,62,→,right,→,0.5837429999373853,True,32,1
ZC-K-23K23S2,355,experiment,56,↑,up,↑,0.4609972001053393,True,32,1
ZC-K-23K23S2,356,training,50,↑,up,↑,0.5622647998388857,True,31,0
ZC-K-23K23S2,357,training,74,↑,up,↑,0.4910883998963982,True,31,1
ZC-K-23K23S2,358,experiment,89,↓,down,↓,0.7776037000585347,True,31,1
ZC-K-23K23S2,359,experiment,108,↓,down,↓,0.6141728998627514,True,31,1
ZC-K-23K23S2,360,experiment,54,↓,down,↓,0.6272024998907,True,31,1
ZC-K-23K23S2,361,experiment,69,→,right,→,0.4434468001127243,True,31,1
ZC-K-23K23S2,362,experiment,103,↑,up,↑,0.5584112000651658,True,31,1
ZC-K-23K23S2,363,experiment,71,→,right,→,0.5921187000349164,True,31,1
ZC-K-23K23S2,364,experiment,95,↓,down,↓,0.624482800019905,True,31,1
ZC-K-23K23S2,365,experiment,75,↑,up,↑,0.5421765998471528,True,31,1
ZC-K-23K23S2,366,experiment,62,↑,up,↑,0.5317900001537055,True,31,1
ZC-K-23K23S2,367,experiment,97,↓,down,↓,0.6457722000777721,True,31,1
ZC-K-23K23S2,368,experiment,55,↑,up,↑,0.81725770002231,True,31,1
ZC-K-23K23S2,369,experiment,56,←,left,←,0.5975583998952061,True,31,1
ZC-K-23K23S2,370,experiment,60,←,left,←,0.5294336997903883,True,31,1
ZC-K-23K23S2,371,experiment,48,→,right,→,0.5796397998929024,True,31,1
ZC-K-23K23S2,372,experiment,86,←,left,←,0.4714549998752773,True,31,1
ZC-K-23K23S2,373,experiment,91,↑,up,↑,0.4858164000324905,True,31,1
ZC-K-23K23S2,374,experiment,65,←,left,←,0.5406106000300497,True,31,1
ZC-K-23K23S2,375,experiment,92,↓,down,↓,0.615862000035122,True,31,1
ZC-K-23K23S2,376,experiment,100,→,right,→,0.49379930016584694,True,31,1
ZC-K-23K23S2,377,experiment,96,↓,down,↓,0.633873000042513,True,31,1
ZC-K-23K23S2,378,experiment,101,↑,up,↑,0.5263338000513613,True,31,1
ZC-K-23K23S2,379,experiment,51,→,left,←,0.5762561000883579,False,31,1
ZC-K-23K23S2,380,experiment,93,↑,up,↑,0.5058296001516283,True,31,1
ZC-K-23K23S2,381,experiment,79,→,right,→,0.5549049000255764,True,31,1
ZC-K-23K23S2,382,experiment,73,←,left,←,0.5000515999272466,True,31,1
ZC-K-23K23S2,383,experiment,52,↑,up,↑,0.5664621000178158,True,31,1
ZC-K-23K23S2,384,experiment,70,→,right,→,0.4402721000369638,True,31,1
ZC-K-23K23S2,385,experiment,80,↑,up,↑,0.5158166999462992,True,31,1
ZC-K-23K23S2,386,experiment,67,↑,up,↑,0.4485606998205185,True,31,1
ZC-K-23K23S2,387,experiment,104,↓,down,↓,0.6036074999719858,True,31,1
ZC-K-23K23S2,388,experiment,74,←,left,←,0.4665526000317186,True,31,1
ZC-K-23K23S2,389,experiment,99,↓,down,↓,0.5904791001230478,True,31,1
ZC-K-23K23S2,390,experiment,87,↓,down,↓,0.7455818001180887,True,31,1
ZC-K-23K23S2,391,experiment,64,←,left,←,0.4620691000018269,True,31,1
ZC-K-23K23S2,392,experiment,90,↑,up,↑,0.6049858999904245,True,31,1
ZC-K-23K23S2,393,experiment,106,↓,down,↓,0.5690326001495123,True,31,1
ZC-K-23K23S2,394,experiment,49,↑,up,↑,0.4500842001289129,True,31,1
ZC-K-23K23S2,395,experiment,61,←,left,←,0.507384299999103,True,31,1
ZC-K-23K23S2,396,experiment,85,↑,up,↑,0.6661982000805438,True,31,1
ZC-K-23K23S2,397,experiment,78,←,left,←,0.6294496001210064,True,31,1
ZC-K-23K23S2,398,experiment,58,←,left,←,0.5927116998936981,True,31,1
ZC-K-23K23S2,399,experiment,102,→,right,→,0.47071089991368353,True,31,1
ZC-K-23K23S2,400,experiment,88,↓,down,↓,0.6780481000896543,True,31,1
ZC-K-23K23S2,401,experiment,63,←,left,←,0.4859284001868218,True,31,1
ZC-K-23K23S2,402,experiment,82,↑,up,↑,1.2390932000707835,True,31,1
ZC-K-23K23S2,403,experiment,53,↑,up,↑,0.4753409998957068,True,31,1
ZC-K-23K23S2,404,experiment,72,↑,up,↑,0.4402328999713063,True,31,1
ZC-K-23K23S2,405,experiment,50,→,right,→,0.4777029000688344,True,31,1
ZC-K-23K23S2,406,experiment,66,←,left,←,1.1961930999532342,True,31,1
ZC-K-23K23S2,407,experiment,84,↓,down,↓,0.6401056000031531,True,31,1
ZC-K-23K23S2,408,experiment,77,↓,down,↓,0.6845164000988007,True,31,1
ZC-K-23K23S2,409,experiment,107,↑,up,↑,0.5331329999025911,True,31,1
ZC-K-23K23S2,410,experiment,81,←,left,←,0.5003774000797421,True,31,1
ZC-K-23K23S2,411,experiment,76,↓,down,↓,0.6386933999601752,True,31,1
ZC-K-23K23S2,412,experiment,57,↑,up,↑,0.5620455001480877,True,31,1
ZC-K-23K23S2,413,experiment,59,←,left,←,0.5915815001353621,True,31,1
ZC-K-23K23S2,414,experiment,98,→,right,→,0.5830578999593854,True,31,1
ZC-K-23K23S2,415,experiment,83,←,left,←,0.42846859991550446,True,31,1
ZC-K-23K23S2,416,experiment,105,→,right,→,0.4551978998351842,True,31,1
ZC-K-23K23S2,417,experiment,68,↑,up,↑,0.5418554998468608,True,31,1
ZC-K-23K23S2,418,experiment,94,↓,up,↑,0.9924542000517249,False,31,1
ZC-K-23K23S2,419,training,68,←,left,←,0.48344040010124445,True,30,0
ZC-K-23K23S2,420,training,66,↓,down,↓,0.6417018999345601,True,30,1
ZC-K-23K23S2,421,experiment,93,↓,down,↓,0.47274810005910695,True,30,1
ZC-K-23K23S2,422,experiment,94,↑,up,↑,0.646095700096339,True,30,1
ZC-K-23K23S2,423,experiment,95,→,right,→,0.4760191000532359,True,30,1
ZC-K-23K23S2,424,experiment,55,←,left,←,0.47078300011344254,True,30,1
ZC-K-23K23S2,425,experiment,89,→,right,→,0.4379979001823813,True,30,1
ZC-K-23K23S2,426,experiment,108,←,left,←,0.5119440001435578,True,30,1
ZC-K-23K23S2,427,experiment,99,→,right,→,0.4745819999370724,True,30,1
ZC-K-23K23S2,428,experiment,97,↑,up,↑,0.49466919992119074,True,30,1
ZC-K-23K23S2,429,experiment,76,↓,down,↓,0.6095437000039965,True,30,1
ZC-K-23K23S2,430,experiment,57,↓,down,↓,0.5581126001197845,True,30,1
ZC-K-23K23S2,431,experiment,72,↓,down,↓,0.5192994000390172,True,30,1
ZC-K-23K23S2,432,experiment,71,↓,down,↓,0.49879690003581345,True,30,1
ZC-K-23K23S2,433,experiment,65,→,left,←,0.45691510010510683,False,30,1
ZC-K-23K23S2,434,experiment,77,←,left,←,0.47656870004720986,True,30,1
ZC-K-23K23S2,435,experiment,54,←,left,←,0.4795034001581371,True,30,1
ZC-K-23K23S2,436,experiment,61,↑,up,↑,0.4955224001314491,True,30,1
ZC-K-23K23S2,437,experiment,96,←,left,←,0.6032348000444472,True,30,1
ZC-K-23K23S2,438,experiment,50,↑,up,↑,0.5383146000094712,True,30,1
ZC-K-23K23S2,439,experiment,59,←,left,←,0.5289063998498023,True,30,1
ZC-K-23K23S2,440,experiment,87,↓,down,↓,0.6140488998498768,True,30,1
ZC-K-23K23S2,441,experiment,48,↑,up,↑,0.517253200057894,True,30,1
ZC-K-23K23S2,442,experiment,60,←,left,←,0.4523704000748694,True,30,1
ZC-K-23K23S2,443,experiment,91,→,right,→,0.4997445000335574,True,30,1
ZC-K-23K23S2,444,experiment,75,←,left,←,0.42294230009429157,True,30,1
ZC-K-23K23S2,445,experiment,103,←,left,←,0.4750131999608129,True,30,0
ZC-K-23K23S2,446,experiment,82,→,right,→,0.5562766001094133,True,30,1
ZC-K-23K23S2,447,experiment,53,↑,up,↑,0.48398310015909374,True,30,1
ZC-K-23K23S2,448,experiment,98,→,right,→,0.519731700187549,True,30,1
ZC-K-23K23S2,449,experiment,70,←,left,←,0.49135680007748306,True,30,1
ZC-K-23K23S2,450,experiment,83,↓,down,↓,0.6197442999109626,True,30,1
ZC-K-23K23S2,451,experiment,101,→,right,→,0.5218098999466747,True,30,1
ZC-K-23K23S2,452,experiment,81,→,right,→,0.47319040005095303,True,30,1
ZC-K-23K23S2,453,experiment,102,←,left,←,0.6039607001002878,True,30,1
ZC-K-23K23S2,454,experiment,52,←,left,←,0.5303464999888092,True,30,1
ZC-K-23K23S2,455,experiment,69,↓,down,↓,0.5818784001749009,True,30,1
ZC-K-23K23S2,456,experiment,84,↓,down,↓,0.6342012998647988,True,30,1
ZC-K-23K23S2,457,experiment,88,↓,down,↓,0.5790489001665264,True,30,1
ZC-K-23K23S2,458,experiment,78,↓,down,↓,0.5699486001394689,True,30,1
ZC-K-23K23S2,459,experiment,106,↑,up,↑,0.6156843998469412,True,30,1
ZC-K-23K23S2,460,experiment,92,↓,down,↓,0.5680189998820424,True,30,1
ZC-K-23K23S2,461,experiment,58,→,right,→,0.6218279001768678,True,30,1
ZC-K-23K23S2,462,experiment,80,↑,up,↑,0.47395720006898046,True,30,1
ZC-K-23K23S2,463,experiment,100,→,right,→,0.4934193999506533,True,30,1
ZC-K-23K23S2,464,experiment,107,→,right,→,0.5576303999405354,True,30,1
ZC-K-23K23S2,465,experiment,49,←,left,←,0.574955000076443,True,30,1
ZC-K-23K23S2,466,experiment,90,→,right,→,0.5296281001064926,True,30,1
ZC-K-23K23S2,467,experiment,79,→,right,→,0.4578660000115633,True,30,1
ZC-K-23K23S2,468,experiment,68,↑,up,↑,0.48697689990513027,True,30,1
ZC-K-23K23S2,469,experiment,86,↑,up,↑,0.49467109981924295,True,30,1
ZC-K-23K23S2,470,experiment,67,→,right,→,0.5883575999177992,True,30,1
ZC-K-23K23S2,471,experiment,64,→,right,→,0.49530609999783337,True,30,1
ZC-K-23K23S2,472,experiment,51,↑,up,↑,0.5382519999984652,True,30,1
ZC-K-23K23S2,473,experiment,62,↑,up,↑,0.43222360010258853,True,30,1
ZC-K-23K23S2,474,experiment,73,↑,up,↑,0.4386045001447201,True,30,1
ZC-K-23K23S2,475,experiment,105,↑,up,↑,0.5773622000124305,True,30,1
ZC-K-23K23S2,476,experiment,104,↑,up,↑,0.5194246000610292,True,30,1
ZC-K-23K23S2,477,experiment,63,←,left,←,0.5173076000064611,True,30,1
ZC-K-23K23S2,478,experiment,85,←,left,←,0.6121189000550658,True,30,1
ZC-K-23K23S2,479,experiment,74,→,right,→,0.5225094999186695,True,30,1
ZC-K-23K23S2,480,experiment,66,→,right,→,0.4950516999233514,True,30,1
ZC-K-23K23S2,481,experiment,56,↑,up,↑,0.5606302998494357,True,30,1
ZC-K-23K23S2,482,training,55,←,left,←,0.5706039001233876,True,29,0
ZC-K-23K23S2,483,training,69,↓,down,↓,0.6046019999776036,True,29,1
ZC-K-23K23S2,484,experiment,81,↑,up,↑,0.59313779999502,True,29,1
ZC-K-23K23S2,485,experiment,50,↓,down,↓,0.5846067001111805,True,29,1
ZC-K-23K23S2,486,experiment,48,←,left,←,0.5289058999624103,True,29,1
ZC-K-23K23S2,487,experiment,66,↓,down,↓,0.5338405000511557,True,29,1
ZC-K-23K23S2,488,experiment,71,↓,down,↓,0.600552799878642,True,29,1
ZC-K-23K23S2,489,experiment,79,←,left,←,0.4697434001136571,True,29,1
ZC-K-23K23S2,490,experiment,63,→,right,→,1.2298633998725563,True,29,1
ZC-K-23K23S2,491,experiment,67,↓,down,↓,0.72599279996939,True,29,1
ZC-K-23K23S2,492,experiment,107,↓,down,↓,0.548786599887535,True,29,1
ZC-K-23K23S2,493,experiment,92,→,right,→,0.5519423000514507,True,29,1
ZC-K-23K23S2,494,experiment,62,↓,down,↓,0.6529641000088304,True,29,1
ZC-K-23K23S2,495,experiment,61,↓,down,↓,0.5264233001507819,True,29,1
ZC-K-23K23S2,496,experiment,82,↑,up,↑,0.6136940999422222,True,29,1
ZC-K-23K23S2,497,experiment,51,←,left,←,0.5238718001637608,True,29,1
ZC-K-23K23S2,498,experiment,70,↑,up,↑,0.511275899829343,True,29,1
ZC-K-23K23S2,499,experiment,54,→,right,→,0.5687176999635994,True,29,1
ZC-K-23K23S2,500,experiment,86,↓,down,↓,0.5010905000381172,True,29,1
ZC-K-23K23S2,501,experiment,97,↓,down,↓,0.7123151000123471,True,29,1
ZC-K-23K23S2,502,experiment,68,↑,up,↑,0.5011463998816907,True,29,1
ZC-K-23K23S2,503,experiment,57,→,right,→,0.4856326000299305,True,29,1
ZC-K-23K23S2,504,experiment,95,↓,down,↓,0.7303603999316692,True,29,1
ZC-K-23K23S2,505,experiment,56,←,left,←,0.5143703001085669,True,29,1
ZC-K-23K23S2,506,experiment,89,←,left,←,0.5513473998289555,True,29,1
ZC-K-23K23S2,507,experiment,75,↑,up,↑,0.5043204999528825,True,29,1
ZC-K-23K23S2,508,experiment,102,↑,up,↑,0.4579712999984622,True,29,1
ZC-K-23K23S2,509,experiment,74,↓,down,↓,0.6228710999712348,True,29,1
ZC-K-23K23S2,510,experiment,83,←,left,←,0.537773400079459,True,29,1
ZC-K-23K23S2,511,experiment,76,→,right,→,0.4907169998623431,True,29,1
ZC-K-23K23S2,512,experiment,72,↓,down,↓,0.5106764000374824,True,29,1
ZC-K-23K23S2,513,experiment,78,→,right,→,0.464008100097999,True,29,1
ZC-K-23K23S2,514,experiment,73,←,left,←,0.540870999917388,True,29,1
ZC-K-23K23S2,515,experiment,87,↑,up,↑,0.49782509985379875,True,29,1
ZC-K-23K23S2,516,experiment,108,→,right,→,0.46567369997501373,True,29,1
ZC-K-23K23S2,517,experiment,49,↑,up,↑,0.5024411000777036,True,29,1
ZC-K-23K23S2,518,experiment,91,←,left,←,0.523681300226599,True,29,1
ZC-K-23K23S2,519,experiment,88,→,right,→,0.44112430000677705,True,29,1
ZC-K-23K23S2,520,experiment,93,←,left,←,0.5443697001319379,True,29,1
ZC-K-23K23S2,521,experiment,105,↓,down,↓,0.543250200105831,True,29,1
ZC-K-23K23S2,522,experiment,106,←,left,←,0.6058916000183672,True,29,1
ZC-K-23K23S2,523,experiment,64,←,left,←,0.5116956999991089,True,29,1
ZC-K-23K23S2,524,experiment,84,←,left,←,0.47132929996587336,True,29,1
ZC-K-23K23S2,525,experiment,103,→,right,→,0.681738699786365,True,29,1
ZC-K-23K23S2,526,experiment,65,←,left,←,0.5366758999880403,True,29,1
ZC-K-23K23S2,527,experiment,55,↓,down,↓,0.6565630999393761,True,29,1
ZC-K-23K23S2,528,experiment,90,→,right,→,0.6318950999993831,True,29,1
ZC-K-23K23S2,529,experiment,59,→,right,→,0.5546422000043094,True,29,1
ZC-K-23K23S2,530,experiment,99,→,right,→,0.5155531000345945,True,29,1
ZC-K-23K23S2,531,experiment,96,→,right,→,0.5424017999321222,True,29,1
ZC-K-23K23S2,532,experiment,53,→,right,→,0.5588450999930501,True,29,1
ZC-K-23K23S2,533,experiment,69,→,right,→,0.5054950001649559,True,29,1
ZC-K-23K23S2,534,experiment,60,→,right,→,0.6966559002175927,True,29,1
ZC-K-23K23S2,535,experiment,77,←,left,←,0.5227236999198794,True,29,1
ZC-K-23K23S2,536,experiment,52,→,right,→,0.6519033000804484,True,29,1
ZC-K-23K23S2,537,experiment,80,→,right,→,0.5189988000784069,True,29,1
ZC-K-23K23S2,538,experiment,94,↓,down,↓,0.65120520000346,True,29,1
ZC-K-23K23S2,539,experiment,58,↓,down,↓,0.5492908000014722,True,29,1
ZC-K-23K23S2,540,experiment,100,↑,up,↑,0.5817026998847723,True,29,1
ZC-K-23K23S2,541,experiment,101,↑,up,↑,0.49237700016237795,True,29,1
ZC-K-23K23S2,542,experiment,98,→,right,→,0.5277854001615196,True,29,1
ZC-K-23K23S2,543,experiment,104,↓,down,↓,0.5919864000752568,True,29,1
ZC-K-23K23S2,544,experiment,85,↓,down,↓,0.6114941001869738,True,29,1
ZC-K-23K23S2,545,training,56,↓,no_key,no_letter,-1.0,False,28,0
ZC-K-23K23S2,546,training,51,→,right,→,0.5234527001157403,True,28,1
ZC-K-23K23S2,547,experiment,54,↑,up,↑,0.5084687999915332,True,28,1
ZC-K-23K23S2,548,experiment,100,←,left,←,0.5421768999658525,True,28,1
ZC-K-23K23S2,549,experiment,88,↓,down,↓,0.6032259000930935,True,28,1
ZC-K-23K23S2,550,experiment,75,↓,down,↓,0.48982129991054535,True,28,1
ZC-K-23K23S2,551,experiment,97,←,left,←,0.5255246001761407,True,28,1
ZC-K-23K23S2,552,experiment,62,←,left,←,0.49977520015090704,True,28,1
ZC-K-23K23S2,553,experiment,55,←,right,→,0.46103130001574755,False,28,1
ZC-K-23K23S2,554,experiment,63,↑,up,↑,0.5493607001844794,True,28,1
ZC-K-23K23S2,555,experiment,96,→,right,→,0.56717549986206,True,28,1
ZC-K-23K23S2,556,experiment,91,↑,up,↑,0.5459445999003947,True,28,1
ZC-K-23K23S2,557,experiment,74,↑,up,↑,0.4992458999622613,True,28,1
ZC-K-23K23S2,558,experiment,107,↑,up,↑,0.5314319999888539,True,28,1
ZC-K-23K23S2,559,experiment,56,↓,down,↓,0.6514743000734597,True,28,1
ZC-K-23K23S2,560,experiment,73,←,left,←,0.44874360016547143,True,28,1
ZC-K-23K23S2,561,experiment,103,→,right,→,0.532003799919039,True,28,1
ZC-K-23K23S2,562,experiment,94,↓,down,↓,0.5509374998509884,True,28,1
ZC-K-23K23S2,563,experiment,53,↑,up,↑,0.511040500132367,True,28,1
ZC-K-23K23S2,564,experiment,50,↓,down,↓,0.6338506999891251,True,28,1
ZC-K-23K23S2,565,experiment,83,↓,down,↓,0.5806066999211907,True,28,1
ZC-K-23K23S2,566,experiment,70,→,right,→,0.46949899988248944,True,28,1
ZC-K-23K23S2,567,experiment,52,↑,up,↑,0.5453365000430495,True,28,1
ZC-K-23K23S2,568,experiment,80,↓,down,↓,0.5366265999618918,True,28,1
ZC-K-23K23S2,569,experiment,92,↓,down,↓,0.5804988001473248,True,28,1
ZC-K-23K23S2,570,experiment,68,↓,down,↓,0.5261748000048101,True,28,1
ZC-K-23K23S2,571,experiment,90,↑,up,↑,0.5149822998791933,True,28,1
ZC-K-23K23S2,572,experiment,57,↓,down,↓,0.49916139990091324,True,28,1
ZC-K-23K23S2,573,experiment,77,←,left,←,0.5573053997941315,True,28,1
ZC-K-23K23S2,574,experiment,99,→,right,→,0.43774829991161823,True,28,1
ZC-K-23K23S2,575,experiment,89,↑,up,↑,0.5581229000817984,True,28,1
ZC-K-23K23S2,576,experiment,61,↓,down,↓,0.539013700094074,True,28,1
ZC-K-23K23S2,577,experiment,85,↑,up,↑,0.592675399966538,True,28,1
ZC-K-23K23S2,578,experiment,65,↑,up,↑,0.5471250000409782,True,28,1
ZC-K-23K23S2,579,experiment,81,↓,down,↓,0.570203399984166,True,28,1
ZC-K-23K23S2,580,experiment,79,←,left,←,0.4805747999344021,True,28,1
ZC-K-23K23S2,581,experiment,82,↑,up,↑,0.4657328000757843,True,28,1
ZC-K-23K23S2,582,experiment,86,↓,down,↓,0.6098931999877095,True,28,1
ZC-K-23K23S2,583,experiment,51,→,right,→,0.5604622999671847,True,28,1
ZC-K-23K23S2,584,experiment,101,↑,up,↑,0.5762072000652552,True,28,1
ZC-K-23K23S2,585,experiment,76,←,left,←,0.5275829001329839,True,28,1
ZC-K-23K23S2,586,experiment,58,↓,down,↓,0.550968499854207,True,28,1
ZC-K-23K23S2,587,experiment,105,↑,up,↑,0.5578507999889553,True,28,1
ZC-K-23K23S2,588,experiment,102,←,left,←,0.5251978000160307,True,28,1
ZC-K-23K23S2,589,experiment,66,↓,down,↓,0.6738991998136044,True,28,1
ZC-K-23K23S2,590,experiment,93,←,left,←,0.5996964999940246,True,28,1
ZC-K-23K23S2,591,experiment,78,↓,down,↓,0.565215399954468,True,28,1
ZC-K-23K23S2,592,experiment,49,←,left,←,0.5819949000142515,True,28,1
ZC-K-23K23S2,593,experiment,84,↓,down,↓,0.6027931000571698,True,28,1
ZC-K-23K23S2,594,experiment,60,←,left,←,0.5502083001192659,True,28,1
ZC-K-23K23S2,595,experiment,67,↓,down,↓,0.5056082999799401,True,28,1
ZC-K-23K23S2,596,experiment,59,→,right,→,0.6972552000079304,True,28,1
ZC-K-23K23S2,597,experiment,106,←,left,←,0.6099214998539537,True,28,1
ZC-K-23K23S2,598,experiment,71,↑,up,↑,0.5695907999761403,True,28,1
ZC-K-23K23S2,599,experiment,69,↑,up,↑,0.4754951000213623,True,28,1
ZC-K-23K23S2,600,experiment,72,↓,down,↓,0.5603940999135375,True,28,1
ZC-K-23K23S2,601,experiment,104,↓,down,↓,0.5191284997854382,True,28,1
ZC-K-23K23S2,602,experiment,98,←,left,←,0.49730159994214773,True,28,1
ZC-K-23K23S2,603,experiment,108,→,right,→,0.4970144000835717,True,28,1
ZC-K-23K23S2,604,experiment,87,↓,down,↓,0.5277365001384169,True,28,1
ZC-K-23K23S2,605,experiment,48,↑,up,↑,0.6106887999922037,True,28,1
ZC-K-23K23S2,606,experiment,95,↓,down,↓,0.5463521999772638,True,28,1
ZC-K-23K23S2,607,experiment,64,↓,down,↓,0.4949318999424577,True,28,1
ZC-K-23K23S2,608,training,98,→,right,→,0.5114182999823242,True,28,0
ZC-K-23K23S2,609,training,77,↑,up,↑,0.5531333000399172,True,28,1
ZC-K-23K23S2,610,experiment,101,→,right,→,0.5690667000599205,True,28,1
ZC-K-23K23S2,611,experiment,74,→,right,→,0.5853555998764932,True,28,1
ZC-K-23K23S2,612,experiment,66,↓,down,↓,0.6279503998812288,True,28,1
ZC-K-23K23S2,613,experiment,73,↑,up,↑,0.5464593998622149,True,28,1
ZC-K-23K23S2,614,experiment,77,←,left,←,0.5225520001258701,True,28,1
ZC-K-23K23S2,615,experiment,72,←,left,←,0.5408206998836249,True,28,1
ZC-K-23K23S2,616,experiment,65,↑,up,↑,0.5136435001622885,True,28,1
ZC-K-23K23S2,617,experiment,64,←,left,←,0.5193362000863999,True,28,1
ZC-K-23K23S2,618,experiment,52,↓,down,↓,0.6330905000213534,True,28,1
ZC-K-23K23S2,619,experiment,104,↓,down,↓,0.5088331000879407,True,28,1
ZC-K-23K23S2,620,experiment,81,↑,up,↑,0.509248600108549,True,28,1
ZC-K-23K23S2,621,experiment,89,↓,down,↓,0.6509481000248343,True,28,1
ZC-K-23K23S2,622,experiment,57,↑,up,↑,0.5257374998182058,True,28,1
ZC-K-23K23S2,623,experiment,62,↓,down,↓,0.5875269998796284,True,28,1
ZC-K-23K23S2,624,experiment,76,↓,down,↓,0.6827966999262571,True,28,1
ZC-K-23K23S2,625,experiment,60,←,left,←,0.5310022998601198,True,28,1
ZC-K-23K23S2,626,experiment,58,→,right,→,0.5222787000238895,True,28,1
ZC-K-23K23S2,627,experiment,55,↑,up,↑,0.5307062000501901,True,28,1
ZC-K-23K23S2,628,experiment,108,↓,down,↓,0.6812394999433309,True,28,1
ZC-K-23K23S2,629,experiment,107,↓,down,↓,0.5699598998762667,True,28,1
ZC-K-23K23S2,630,experiment,79,↑,up,↑,0.5846305000595748,True,28,1
ZC-K-23K23S2,631,experiment,59,↓,down,↓,0.6053772000595927,True,28,1
ZC-K-23K23S2,632,experiment,61,↑,up,↑,0.6084839999675751,True,28,1
ZC-K-23K23S2,633,experiment,87,←,left,←,0.5229034000076354,True,28,1
ZC-K-23K23S2,634,experiment,84,↓,down,↓,0.5694167998153716,True,28,1
ZC-K-23K23S2,635,experiment,82,→,no_key,no_letter,-1.0,False,28,1
ZC-K-23K23S2,636,experiment,90,↓,down,↓,0.5805548001080751,True,28,1
ZC-K-23K23S2,637,experiment,88,←,left,←,0.6476708000991493,True,28,1
ZC-K-23K23S2,638,experiment,70,↑,up,↑,0.9182718999218196,True,28,1
ZC-K-23K23S2,639,experiment,56,→,right,→,0.6067572999745607,True,28,1
ZC-K-23K23S2,640,experiment,85,←,left,←,0.5135671999305487,True,28,1
ZC-K-23K23S2,641,experiment,71,←,left,←,0.5970805000979453,True,28,1
ZC-K-23K23S2,642,experiment,68,→,right,→,0.5180597000289708,True,28,1
ZC-K-23K23S2,643,experiment,83,→,right,→,0.5173984998837113,True,28,1
ZC-K-23K23S2,644,experiment,49,↓,down,↓,0.6962530000600964,True,28,1
ZC-K-23K23S2,645,experiment,98,↑,up,↑,0.5552274000365287,True,28,1
ZC-K-23K23S2,646,experiment,94,←,left,←,0.48526440002024174,True,28,1
ZC-K-23K23S2,647,experiment,86,→,right,→,0.5894371999893337,True,28,1
ZC-K-23K23S2,648,experiment,48,↓,down,↓,0.7650878001004457,True,28,1
ZC-K-23K23S2,649,experiment,80,←,left,←,0.46748590003699064,True,28,1
ZC-K-23K23S2,650,experiment,102,←,left,←,0.5825133000034839,True,28,1
ZC-K-23K23S2,651,experiment,99,←,left,←,0.5417371999938041,True,28,1
ZC-K-23K23S2,652,experiment,93,↓,down,↓,0.5530910999514163,True,28,1
ZC-K-23K23S2,653,experiment,69,→,right,→,0.531650000018999,True,28,1
ZC-K-23K23S2,654,experiment,97,→,right,→,0.5100062999408692,True,28,1
ZC-K-23K23S2,655,experiment,100,←,left,←,0.48779139993712306,True,28,1
ZC-K-23K23S2,656,experiment,67,↑,up,↑,0.5495124999433756,True,28,1
ZC-K-23K23S2,657,experiment,91,↑,up,↑,0.4811581000685692,True,28,1
ZC-K-23K23S2,658,experiment,92,↑,up,↑,0.5026632000226527,True,28,1
ZC-K-23K23S2,659,experiment,50,→,right,→,0.5697995000518858,True,28,1
ZC-K-23K23S2,660,experiment,78,←,left,←,0.488922200165689,True,28,1
ZC-K-23K23S2,661,experiment,53,↑,up,↑,0.49948709993623197,True,28,1
ZC-K-23K23S2,662,experiment,51,↑,up,↑,0.5421895000617951,True,28,1
ZC-K-23K23S2,663,experiment,75,→,right,→,0.4950543998274952,True,28,1
ZC-K-23K23S2,664,experiment,54,↑,up,↑,0.48921569995582104,True,28,1
ZC-K-23K23S2,665,experiment,105,↓,up,↑,0.5702792999800295,False,28,1
ZC-K-23K23S2,666,experiment,106,←,left,←,0.4799533998593688,True,28,1
ZC-K-23K23S2,667,experiment,95,←,left,←,0.6131853999104351,True,28,1
ZC-K-23K23S2,668,experiment,103,↑,up,↑,0.5299146000761539,True,28,1
ZC-K-23K23S2,669,experiment,63,→,right,→,0.6070814998820424,True,28,1
ZC-K-23K23S2,670,experiment,96,→,right,→,0.5266277999617159,True,28,1
ZC-K-23K23S2,671,training,55,→,right,→,0.5082456998061389,True,28,0
ZC-K-23K23S2,672,training,89,↑,up,↑,0.5541888999287039,True,28,1
ZC-K-23K23S2,673,experiment,61,↑,up,↑,0.48754579992964864,True,28,1
ZC-K-23K23S2,674,experiment,48,→,right,→,0.5156747000291944,True,28,1
ZC-K-23K23S2,675,experiment,84,←,left,←,0.5946806999854743,True,28,1
ZC-K-23K23S2,676,experiment,63,→,right,→,0.5420089000836015,True,28,1
ZC-K-23K23S2,677,experiment,66,↓,down,↓,0.6579145002178848,True,28,1
ZC-K-23K23S2,678,experiment,56,↓,down,↓,0.5886429999954998,True,28,1
ZC-K-23K23S2,679,experiment,86,↑,up,↑,0.4879939998500049,True,28,1
ZC-K-23K23S2,680,experiment,69,→,right,→,0.5171756001655012,True,28,1
ZC-K-23K23S2,681,experiment,50,↓,down,↓,0.65544190001674,True,28,1
ZC-K-23K23S2,682,experiment,92,↑,up,↑,0.55836659995839,True,28,1
ZC-K-23K23S2,683,experiment,67,↓,down,↓,0.8495658000465482,True,28,1
ZC-K-23K23S2,684,experiment,82,←,left,←,0.5235659000463784,True,28,1
ZC-K-23K23S2,685,experiment,64,↓,down,↓,0.6010064000729471,True,28,1
ZC-K-23K23S2,686,experiment,71,→,right,→,0.561061300104484,True,28,1
ZC-K-23K23S2,687,experiment,60,←,left,←,0.4946064001414925,True,28,1
ZC-K-23K23S2,688,experiment,91,←,left,←,0.47612430015578866,True,28,1
ZC-K-23K23S2,689,experiment,88,↑,up,↑,0.5393989000003785,True,28,1
ZC-K-23K23S2,690,experiment,55,↑,up,↑,0.5633670999668539,True,28,1
ZC-K-23K23S2,691,experiment,95,↑,no_key,no_letter,-1.0,False,28,1
ZC-K-23K23S2,692,experiment,101,↓,down,↓,0.6946274000220001,True,28,1
ZC-K-23K23S2,693,experiment,65,→,right,→,0.5331806000322104,True,28,1
ZC-K-23K23S2,694,experiment,107,→,right,→,0.49986280011944473,True,28,1
ZC-K-23K23S2,695,experiment,105,↓,down,↓,0.572580800158903,True,28,1
ZC-K-23K23S2,696,experiment,59,←,left,←,0.505957700079307,True,28,1
ZC-K-23K23S2,697,experiment,52,←,left,←,0.5876246001571417,True,28,1
ZC-K-23K23S2,698,experiment,54,↑,up,↑,0.5857043999712914,True,28,1
ZC-K-23K23S2,699,experiment,103,↓,down,↓,0.6317030999343842,True,28,1
ZC-K-23K23S2,700,experiment,78,←,left,←,0.588304600212723,True,28,1
ZC-K-23K23S2,701,experiment,77,↓,down,↓,0.6264912001788616,True,28,1
ZC-K-23K23S2,702,experiment,58,→,right,→,0.49384799995459616,True,28,1
ZC-K-23K23S2,703,experiment,53,↑,up,↑,0.6403994001448154,True,28,1
ZC-K-23K23S2,704,experiment,75,←,left,←,0.5094494000077248,True,28,1
ZC-K-23K23S2,705,experiment,68,→,right,→,0.5463660999666899,True,28,1
ZC-K-23K23S2,706,experiment,89,←,left,←,0.5662062000483274,True,28,1
ZC-K-23K23S2,707,experiment,106,←,left,←,0.603960599983111,True,28,1
ZC-K-23K23S2,708,experiment,81,↓,down,↓,0.6408301999326795,True,28,1
ZC-K-23K23S2,709,experiment,94,→,right,→,0.5273529998958111,True,28,1
ZC-K-23K23S2,710,experiment,102,→,right,→,0.5761404999066144,True,28,1
ZC-K-23K23S2,711,experiment,96,↑,up,↑,0.5208952000830323,True,28,1
ZC-K-23K23S2,712,experiment,51,←,left,←,0.5945864000823349,True,28,1
ZC-K-23K23S2,713,experiment,80,→,right,→,0.5679168000351638,True,28,1
ZC-K-23K23S2,714,experiment,76,↓,down,↓,0.6235766999889165,True,28,1
ZC-K-23K23S2,715,experiment,108,←,left,←,0.562417299952358,True,28,1
ZC-K-23K23S2,716,experiment,49,→,right,→,0.5474202998448163,True,28,1
ZC-K-23K23S2,717,experiment,72,↓,down,↓,0.6207435000687838,True,28,1
ZC-K-23K23S2,718,experiment,57,←,no_key,no_letter,-1.0,False,28,1
ZC-K-23K23S2,719,experiment,93,→,right,→,0.5573668000288308,True,28,1
ZC-K-23K23S2,720,experiment,100,←,left,←,0.5491738000418991,True,28,1
ZC-K-23K23S2,721,experiment,98,→,right,→,0.6384038999676704,True,28,1
ZC-K-23K23S2,722,experiment,73,←,left,←,0.56393239996396,True,28,1
ZC-K-23K23S2,723,experiment,70,←,left,←,0.509679300012067,True,28,1
ZC-K-23K23S2,724,experiment,83,↓,down,↓,0.6455367000307888,True,28,1
ZC-K-23K23S2,725,experiment,104,←,left,←,0.7769027999602258,True,28,1
ZC-K-23K23S2,726,experiment,99,↑,up,↑,0.5442613000050187,True,28,1
ZC-K-23K23S2,727,experiment,87,→,right,→,0.4934323001652956,True,28,1
ZC-K-23K23S2,728,experiment,74,↓,down,↓,0.5608683000318706,True,28,1
ZC-K-23K23S2,729,experiment,85,←,left,←,0.5338203001301736,True,28,1
ZC-K-23K23S2,730,experiment,90,↑,up,↑,0.5145387998782098,True,28,1
ZC-K-23K23S2,731,experiment,79,↓,down,↓,0.5632772999815643,True,28,1
ZC-K-23K23S2,732,experiment,62,→,right,→,0.4873221998568624,True,28,1
ZC-K-23K23S2,733,experiment,97,→,right,→,0.5475465001072735,True,28,1
ZC-K-23K23S2,734,training,84,↓,down,↓,0.5748490998521447,True,28,0
ZC-K-23K23S2,735,training,96,↑,up,↑,0.48747320007532835,True,28,1
ZC-K-23K23S2,736,experiment,51,←,left,←,0.4910192000679672,True,28,1
ZC-K-23K23S2,737,experiment,101,→,right,→,0.5259416999761015,True,28,1
ZC-K-23K23S2,738,experiment,105,↑,up,↑,0.4770198999904096,True,28,1
ZC-K-23K23S2,739,experiment,87,→,right,→,0.5887674998957664,True,28,1
ZC-K-23K23S2,740,experiment,90,→,right,→,0.44682720000855625,True,28,1
ZC-K-23K23S2,741,experiment,85,↑,up,↑,0.6001653999555856,True,28,1
ZC-K-23K23S2,742,experiment,78,→,right,→,0.6459516000468284,True,28,1
ZC-K-23K23S2,743,experiment,61,→,right,→,0.5034805000759661,True,28,1
ZC-K-23K23S2,744,experiment,56,↓,down,↓,0.6489107999950647,True,28,1
ZC-K-23K23S2,745,experiment,81,↑,up,↑,0.5794337000697851,True,28,1
ZC-K-23K23S2,746,experiment,89,↓,down,↓,0.5583973999600857,True,28,1
ZC-K-23K23S2,747,experiment,106,→,right,→,0.5881728001404554,True,28,1
ZC-K-23K23S2,748,experiment,75,↓,down,↓,0.6272319999989122,True,28,1
ZC-K-23K23S2,749,experiment,63,↓,down,↓,0.6609553000889719,True,28,1
ZC-K-23K23S2,750,experiment,68,←,left,←,0.5561962998472154,True,28,1
ZC-K-23K23S2,751,experiment,99,→,right,→,0.4922913999762386,True,28,1
ZC-K-23K23S2,752,experiment,50,←,left,←,0.5357178000267595,True,28,1
ZC-K-23K23S2,753,experiment,100,↑,up,↑,0.656611799960956,True,28,1
ZC-K-23K23S2,754,experiment,91,↑,up,↑,0.5194250999484211,True,28,1
ZC-K-23K23S2,755,experiment,92,→,right,→,0.5079780998639762,True,28,1
ZC-K-23K23S2,756,experiment,64,↑,up,↑,0.5221463998313993,True,28,1
ZC-K-23K23S2,757,experiment,84,↓,down,↓,0.6408950001932681,True,28,1
ZC-K-23K23S2,758,experiment,54,↑,up,↑,0.5729042999446392,True,28,1
ZC-K-23K23S2,759,experiment,102,↓,down,↓,0.619724899996072,True,28,1
ZC-K-23K23S2,760,experiment,103,←,left,←,0.5364572000689805,True,28,1
ZC-K-23K23S2,761,experiment,88,↑,down,↓,0.6214044999796897,False,28,1
ZC-K-23K23S2,762,experiment,53,→,right,→,0.5624604001641273,True,28,1
ZC-K-23K23S2,763,experiment,80,↓,down,↓,0.5769114000722766,True,28,1
ZC-K-23K23S2,764,experiment,55,↑,up,↑,0.5435203001834452,True,28,1
ZC-K-23K23S2,765,experiment,83,↑,up,↑,0.5497959000058472,True,28,1
ZC-K-23K23S2,766,experiment,66,←,left,←,0.529648199910298,True,28,1
ZC-K-23K23S2,767,experiment,98,↓,down,↓,0.6192000999581069,True,28,1
ZC-K-23K23S2,768,experiment,95,←,left,←,0.5386695000343025,True,28,1
ZC-K-23K23S2,769,experiment,76,←,right,→,0.595444800099358,False,28,1
ZC-K-23K23S2,770,experiment,58,←,left,←,0.5280953999608755,True,28,1
ZC-K-23K23S2,771,experiment,86,↓,down,↓,0.5821798001416028,True,28,1
ZC-K-23K23S2,772,experiment,104,↓,down,↓,0.6118945998605341,True,28,1
ZC-K-23K23S2,773,experiment,79,↓,down,↓,0.7690460998564959,True,28,1
ZC-K-23K23S2,774,experiment,74,↓,down,↓,0.6491155000403523,True,28,1
ZC-K-23K23S2,775,experiment,73,↓,down,↓,0.5425181000027806,True,28,1
ZC-K-23K23S2,776,experiment,93,→,right,→,0.537618599832058,True,28,1
ZC-K-23K23S2,777,experiment,52,←,left,←,0.5546099999919534,True,28,1
ZC-K-23K23S2,778,experiment,107,←,left,←,0.5123876999132335,True,28,1
ZC-K-23K23S2,779,experiment,72,↑,up,↑,0.5318716000765562,True,28,1
ZC-K-23K23S2,780,experiment,62,↑,up,↑,0.5613593000452965,True,28,1
ZC-K-23K23S2,781,experiment,60,←,left,←,0.49515980016440153,True,28,1
ZC-K-23K23S2,782,experiment,57,→,right,→,0.5123001001775265,True,28,1
ZC-K-23K23S2,783,experiment,77,→,right,→,0.5140444000717252,True,28,1
ZC-K-23K23S2,784,experiment,48,→,right,→,0.5334220000077039,True,28,1
ZC-K-23K23S2,785,experiment,97,→,right,→,0.5269901000428945,True,28,1
ZC-K-23K23S2,786,experiment,69,→,right,→,0.4829532001167536,True,28,1
ZC-K-23K23S2,787,experiment,49,↑,up,↑,0.5430075000040233,True,28,1
ZC-K-23K23S2,788,experiment,96,→,right,→,0.5531266001053154,True,28,1
ZC-K-23K23S2,789,experiment,59,→,right,→,0.6312577999196947,True,28,1
ZC-K-23K23S2,790,experiment,70,→,right,→,0.5342131000943482,True,28,1
ZC-K-23K23S2,791,experiment,94,←,left,←,0.48912040004506707,True,28,1
ZC-K-23K23S2,792,experiment,108,↓,down,↓,0.6893082000315189,True,28,1
ZC-K-23K23S2,793,experiment,82,→,right,→,0.5219742001499981,True,28,1
ZC-K-23K23S2,794,experiment,67,←,left,←,0.5103289999533445,True,28,1
ZC-K-23K23S2,795,experiment,71,←,left,←,0.48202889994718134,True,28,1
ZC-K-23K23S2,796,experiment,65,→,right,→,0.5129786999896169,True,28,1
ZC-K-23K23S2,797,training,73,→,right,→,0.735906400019303,True,28,0
ZC-K-23K23S2,798,training,87,→,right,→,0.4770395001396537,True,28,1
ZC-K-23K23S2,799,experiment,92,←,left,←,0.5713541000150144,True,28,1
ZC-K-23K23S2,800,experiment,79,↓,down,↓,0.673685000045225,True,28,1
ZC-K-23K23S2,801,experiment,105,↓,down,↓,0.523158699972555,True,28,1
ZC-K-23K23S2,802,experiment,94,→,right,→,0.5189153999090195,True,28,1
ZC-K-23K23S2,803,experiment,96,↑,down,↓,0.6018607998266816,False,28,1
ZC-K-23K23S2,804,experiment,76,←,left,←,0.5764968001749367,True,28,1
ZC-K-23K23S2,805,experiment,101,→,right,→,0.5279574000742286,True,28,1
ZC-K-23K23S2,806,experiment,48,→,right,→,0.761986400000751,True,28,1
ZC-K-23K23S2,807,experiment,95,→,right,→,0.5157812999095768,True,28,1
ZC-K-23K23S2,808,experiment,107,←,left,←,0.6033872000407428,True,28,1
ZC-K-23K23S2,809,experiment,77,→,right,→,0.5613132999278605,True,28,1
ZC-K-23K23S2,810,experiment,71,↑,up,↑,0.5629777999129146,True,28,1
ZC-K-23K23S2,811,experiment,90,→,right,→,0.5420095000881702,True,28,1
ZC-K-23K23S2,812,experiment,73,←,left,←,0.6239184001460671,True,28,1
ZC-K-23K23S2,813,experiment,57,←,left,←,0.5795913999900222,True,28,1
ZC-K-23K23S2,814,experiment,58,←,left,←,0.4729551998898387,True,28,1
ZC-K-23K23S2,815,experiment,106,↑,up,↑,0.5062210001051426,True,28,1
ZC-K-23K23S2,816,experiment,88,←,left,←,0.48028440005145967,True,28,1
ZC-K-23K23S2,817,experiment,85,↓,down,↓,0.5684537999331951,True,28,1
ZC-K-23K23S2,818,experiment,68,↓,down,↓,0.5228267000056803,True,28,1
ZC-K-23K23S2,819,experiment,69,→,right,→,0.49446309986524284,True,28,1
ZC-K-23K23S2,820,experiment,104,←,left,←,0.5597457000985742,True,28,1
ZC-K-23K23S2,821,experiment,78,←,left,←,0.519189199898392,True,28,1
ZC-K-23K23S2,822,experiment,67,←,left,←,0.5720875000115484,True,28,1
ZC-K-23K23S2,823,experiment,72,→,right,→,0.5648198998533189,True,28,1
ZC-K-23K23S2,824,experiment,54,↑,up,↑,0.571910300059244,True,28,1
ZC-K-23K23S2,825,experiment,52,←,left,←,0.5233777000103146,True,28,1
ZC-K-23K23S2,826,experiment,55,↑,up,↑,0.50771540007554,True,28,1
ZC-K-23K23S2,827,experiment,61,↑,up,↑,0.6268772999756038,True,28,1
ZC-K-23K23S2,828,experiment,80,↑,up,↑,0.4551119999960065,True,28,1
ZC-K-23K23S2,829,experiment,97,↑,up,↑,0.5240868998225778,True,28,1
ZC-K-23K23S2,830,experiment,91,↑,up,↑,0.4723630999214947,True,28,1
ZC-K-23K23S2,831,experiment,59,→,right,→,0.5054159997962415,True,28,1
ZC-K-23K23S2,832,experiment,99,↓,down,↓,0.6040282999165356,True,28,1
ZC-K-23K23S2,833,experiment,83,→,right,→,0.6161688999272883,True,28,1
ZC-K-23K23S2,834,experiment,86,←,left,←,0.5468484000302851,True,28,1
ZC-K-23K23S2,835,experiment,102,→,right,→,0.5859850000124425,True,28,1
ZC-K-23K23S2,836,experiment,51,←,left,←,0.5294629998970777,True,28,1
ZC-K-23K23S2,837,experiment,74,→,right,→,0.5392249000724405,True,28,1
ZC-K-23K23S2,838,experiment,103,↓,down,↓,0.5468212000560015,True,28,1
ZC-K-23K23S2,839,experiment,70,→,left,←,0.6694009001366794,False,28,1
ZC-K-23K23S2,840,experiment,60,→,right,→,0.5023157999385148,True,28,1
ZC-K-23K23S2,841,experiment,75,↑,no_key,no_letter,-1.0,False,28,1
ZC-K-23K23S2,842,experiment,66,←,left,←,0.5907143999356776,True,28,1
ZC-K-23K23S2,843,experiment,82,↑,up,↑,0.5792610000353307,True,28,1
ZC-K-23K23S2,844,experiment,84,↓,down,↓,0.5197421000339091,True,28,1
ZC-K-23K23S2,845,experiment,98,→,right,→,0.5621150000952184,True,28,1
ZC-K-23K23S2,846,experiment,108,↓,down,↓,0.6072810001205653,True,28,1
ZC-K-23K23S2,847,experiment,64,↑,up,↑,0.6655421000905335,True,28,1
ZC-K-23K23S2,848,experiment,50,→,right,→,0.6377892000600696,True,28,1
ZC-K-23K23S2,849,experiment,53,↑,up,↑,0.5548764998093247,True,28,1
ZC-K-23K23S2,850,experiment,93,↑,up,↑,0.5010234001092613,True,28,1
ZC-K-23K23S2,851,experiment,81,←,left,←,0.5259576998651028,True,28,1
ZC-K-23K23S2,852,experiment,63,→,right,→,0.49954520002938807,True,28,1
ZC-K-23K23S2,853,experiment,56,↑,up,↑,0.5405025000218302,True,28,1
ZC-K-23K23S2,854,experiment,100,↑,up,↑,0.5014202001038939,True,28,1
ZC-K-23K23S2,855,experiment,65,←,left,←,0.5394488999154419,True,28,1
ZC-K-23K23S2,856,experiment,87,↓,down,↓,0.5931553998962045,True,28,1
ZC-K-23K23S2,857,experiment,49,↑,up,↑,0.5922423999290913,True,28,1
ZC-K-23K23S2,858,experiment,62,→,right,→,0.5238115000538528,True,28,1
ZC-K-23K23S2,859,experiment,89,↓,down,↓,0.5445379000157118,True,28,1
ZC-K-23K23S2,860,training,93,↑,up,↑,0.5539559000171721,True,28,0
ZC-K-23K23S2,861,training,52,←,left,←,0.4898421000689268,True,28,1
ZC-K-23K23S2,862,experiment,83,↓,down,↓,0.5784263999667019,True,28,1
ZC-K-23K23S2,863,experiment,51,→,right,→,0.538276500068605,True,28,1
ZC-K-23K23S2,864,experiment,99,↑,up,↑,0.5231522000394762,True,28,1
ZC-K-23K23S2,865,experiment,98,↓,down,↓,0.5492594998795539,True,28,1
ZC-K-23K23S2,866,experiment,85,→,right,→,0.5706638998817652,True,28,1
ZC-K-23K23S2,867,experiment,67,↓,down,↓,0.5650653999764472,True,28,1
ZC-K-23K23S2,868,experiment,74,↓,down,↓,0.4453290000092238,True,28,1
ZC-K-23K23S2,869,experiment,60,←,left,←,0.6074912999756634,True,28,1
ZC-K-23K23S2,870,experiment,84,←,left,←,0.5710131998639554,True,28,1
ZC-K-23K23S2,871,experiment,89,↑,up,↑,0.6781174999196082,True,28,1
ZC-K-23K23S2,872,experiment,90,→,right,→,0.5406383001245558,True,28,1
ZC-K-23K23S2,873,experiment,56,→,right,→,0.6758944999892265,True,28,1
ZC-K-23K23S2,874,experiment,106,←,left,←,0.5254542001057416,True,28,1
ZC-K-23K23S2,875,experiment,92,↓,down,↓,0.5215453999117017,True,28,1
ZC-K-23K23S2,876,experiment,95,↑,up,↑,0.6045542999636382,True,28,1
ZC-K-23K23S2,877,experiment,82,→,right,→,0.5284239000175148,True,28,1
ZC-K-23K23S2,878,experiment,73,↑,up,↑,0.571066299919039,True,28,1
ZC-K-23K23S2,879,experiment,79,→,no_key,no_letter,-1.0,False,28,1
ZC-K-23K23S2,880,experiment,59,→,no_key,no_letter,-1.0,False,28,1
ZC-K-23K23S2,881,experiment,57,←,left,←,0.5778523001354188,True,28,1
ZC-K-23K23S2,882,experiment,50,↓,down,↓,0.5621513999067247,True,28,1
ZC-K-23K23S2,883,experiment,86,↓,down,↓,0.5026717998553067,True,28,1
ZC-K-23K23S2,884,experiment,52,↑,up,↑,0.625210499856621,True,28,1
ZC-K-23K23S2,885,experiment,75,→,right,→,0.5674850000068545,True,28,1
ZC-K-23K23S2,886,experiment,49,←,left,←,0.5276345000602305,True,28,1
ZC-K-23K23S2,887,experiment,97,←,left,←,0.48264990001916885,True,28,1
ZC-K-23K23S2,888,experiment,71,→,right,→,0.44714209996163845,True,28,1
ZC-K-23K23S2,889,experiment,66,↓,down,↓,0.6144840000197291,True,28,1
ZC-K-23K23S2,890,experiment,78,↑,up,↑,1.003573799971491,True,28,1
ZC-K-23K23S2,891,experiment,72,←,left,←,0.5473984000273049,True,28,1
ZC-K-23K23S2,892,experiment,107,↓,down,↓,0.5694327999372035,True,28,1
ZC-K-23K23S2,893,experiment,101,↑,up,↑,0.5846611999440938,True,28,1
ZC-K-23K23S2,894,experiment,55,↑,up,↑,0.6067560000810772,True,28,1
ZC-K-23K23S2,895,experiment,68,→,right,→,0.5915657000150532,True,28,1
ZC-K-23K23S2,896,experiment,87,↑,up,↑,0.6904827998951077,True,28,1
ZC-K-23K23S2,897,experiment,63,↓,down,↓,0.5936562998685986,True,28,1
ZC-K-23K23S2,898,experiment,61,↓,down,↓,0.5495092000346631,True,28,1
ZC-K-23K23S2,899,experiment,69,↓,down,↓,0.5280566001310945,True,28,1
ZC-K-23K23S2,900,experiment,94,←,no_key,no_letter,-1.0,False,28,1
ZC-K-23K23S2,901,experiment,88,→,right,→,0.529884000075981,True,28,1
ZC-K-23K23S2,902,experiment,96,→,right,→,0.48413449991494417,True,28,1
ZC-K-23K23S2,903,experiment,77,↓,down,↓,0.7510087999980897,True,28,1
ZC-K-23K23S2,904,experiment,62,↑,up,↑,0.6600474000442773,True,28,1
ZC-K-23K23S2,905,experiment,58,↓,down,↓,0.5342223001644015,True,28,1
ZC-K-23K23S2,906,experiment,80,↓,down,↓,0.5101449000649154,True,28,1
ZC-K-23K23S2,907,experiment,70,→,no_key,no_letter,-1.0,False,28,1
ZC-K-23K23S2,908,experiment,104,→,right,→,0.563096099998802,True,28,1
ZC-K-23K23S2,909,experiment,76,←,left,←,0.60268360003829,True,28,1
ZC-K-23K23S2,910,experiment,91,↓,down,↓,0.7719374999869615,True,28,1
ZC-K-23K23S2,911,experiment,54,→,right,→,0.570852099917829,True,28,1
ZC-K-23K23S2,912,experiment,105,↑,up,↑,0.5043633000459522,True,28,1
ZC-K-23K23S2,913,experiment,108,↓,down,↓,0.591713200090453,True,28,1
ZC-K-23K23S2,914,experiment,102,→,left,←,0.7577988000120968,False,28,1
ZC-K-23K23S2,915,experiment,48,↑,right,→,1.0393330999650061,False,28,1
ZC-K-23K23S2,916,experiment,93,←,left,←,0.4941763000097126,True,28,1
ZC-K-23K23S2,917,experiment,53,←,left,←,0.544723300030455,True,28,1
ZC-K-23K23S2,918,experiment,64,←,left,←,0.5413152000401169,True,28,1
ZC-K-23K23S2,919,experiment,65,↓,down,↓,0.561799299903214,True,28,1
ZC-K-23K23S2,920,experiment,81,←,left,←,0.48007010016590357,True,28,1
ZC-K-23K23S2,921,experiment,100,→,right,→,0.5553915000054985,True,28,1
ZC-K-23K23S2,922,experiment,103,↑,up,↑,0.4824170998763293,True,28,1
ZC-K-23K23S2,923,training,61,↑,left,←,0.8470709000248462,False,28,0
ZC-K-23K23S2,924,training,75,→,right,→,0.42780109983868897,True,28,1
ZC-K-23K23S2,925,experiment,48,↑,up,↑,0.530575199984014,True,28,1
ZC-K-23K23S2,926,experiment,77,←,left,←,0.523271800018847,True,28,1
ZC-K-23K23S2,927,experiment,54,↑,up,↑,0.47591430018655956,True,28,1
ZC-K-23K23S2,928,experiment,93,←,left,←,0.5138826000038534,True,28,1
ZC-K-23K23S2,929,experiment,55,↓,down,↓,0.5384726000484079,True,28,1
ZC-K-23K23S2,930,experiment,76,←,left,←,0.49104290013201535,True,28,1
ZC-K-23K23S2,931,experiment,57,↓,down,↓,0.5402619999367744,True,28,1
ZC-K-23K23S2,932,experiment,69,↑,up,↑,0.5914336999412626,True,28,1
ZC-K-23K23S2,933,experiment,104,↓,down,↓,0.5249907998368144,True,28,1
ZC-K-23K23S2,934,experiment,94,↑,up,↑,0.5526421000249684,True,28,1
ZC-K-23K23S2,935,experiment,64,↓,down,↓,0.46855290001258254,True,28,1
ZC-K-23K23S2,936,experiment,106,←,left,←,0.5102434000000358,True,28,1
ZC-K-23K23S2,937,experiment,84,→,right,→,0.5337156001478434,True,28,1
ZC-K-23K23S2,938,experiment,79,↑,up,↑,0.4538165000267327,True,28,1
ZC-K-23K23S2,939,experiment,83,←,left,←,0.4795209001749754,True,28,1
ZC-K-23K23S2,940,experiment,51,←,left,←,0.44321070006117225,True,28,1
ZC-K-23K23S2,941,experiment,92,↓,down,↓,0.5305725000798702,True,28,1
ZC-K-23K23S2,942,experiment,60,←,left,←,0.4890985998790711,True,28,1
ZC-K-23K23S2,943,experiment,89,↓,down,↓,0.4795083999633789,True,28,1
ZC-K-23K23S2,944,experiment,53,↓,down,↓,0.4747051000595093,True,28,1
ZC-K-23K23S2,945,experiment,49,←,left,←,0.5509485998190939,True,28,1
ZC-K-23K23S2,946,experiment,97,↑,up,↑,0.5684887999668717,True,28,1
ZC-K-23K23S2,947,experiment,107,→,right,→,0.5419446001760662,True,28,1
ZC-K-23K23S2,948,experiment,90,↓,down,↓,0.58584040007554,True,28,1
ZC-K-23K23S2,949,experiment,91,→,right,→,0.48396220011636615,True,28,1
ZC-K-23K23S2,950,experiment,67,↓,down,↓,0.4979654001072049,True,28,1
ZC-K-23K23S2,951,experiment,78,↑,up,↑,0.5476122000254691,True,28,1
ZC-K-23K23S2,952,experiment,63,→,right,→,0.5845556000713259,True,28,1
ZC-K-23K23S2,953,experiment,108,↑,up,↑,0.5568454000167549,True,28,1
ZC-K-23K23S2,954,experiment,98,↓,down,↓,0.5097244998905808,True,28,1
ZC-K-23K23S2,955,experiment,56,←,left,←,0.5663071000017226,True,28,1
ZC-K-23K23S2,956,experiment,86,←,left,←,0.610886299982667,True,28,1
ZC-K-23K23S2,957,experiment,95,→,right,→,0.4982813000679016,True,28,1
ZC-K-23K23S2,958,experiment,105,←,left,←,0.5631689000874758,True,28,1
ZC-K-23K23S2,959,experiment,52,→,right,→,0.53075490007177,True,28,1
ZC-K-23K23S2,960,experiment,101,←,left,←,0.5395579999312758,True,28,1
ZC-K-23K23S2,961,experiment,66,↑,down,↓,0.5438849001657218,False,28,1
ZC-K-23K23S2,962,experiment,61,↑,up,↑,0.653603200102225,True,28,1
ZC-K-23K23S2,963,experiment,88,↑,up,↑,0.5098119000904262,True,28,1
ZC-K-23K23S2,964,experiment,81,→,right,→,0.5101339998655021,True,28,1
ZC-K-23K23S2,965,experiment,50,→,right,→,0.568956800037995,True,28,1
ZC-K-23K23S2,966,experiment,58,↑,up,↑,0.5107278998475522,True,28,1
ZC-K-23K23S2,967,experiment,62,←,left,←,0.5338663998991251,True,28,1
ZC-K-23K23S2,968,experiment,96,→,right,→,0.5838586001191288,True,28,1
ZC-K-23K23S2,969,experiment,59,→,right,→,0.7005825000815094,True,28,1
ZC-K-23K23S2,970,experiment,65,↑,up,↑,0.5147639999631792,True,28,1
ZC-K-23K23S2,971,experiment,75,→,right,→,0.5406613999512047,True,28,1
ZC-K-23K23S2,972,experiment,71,←,left,←,0.6713511999696493,True,28,1
ZC-K-23K23S2,973,experiment,68,↑,up,↑,0.5891209000255913,True,28,1
ZC-K-23K23S2,974,experiment,82,↓,down,↓,0.5861283999402076,True,28,1
ZC-K-23K23S2,975,experiment,85,↓,down,↓,0.6299896999262273,True,28,1
ZC-K-23K23S2,976,experiment,73,←,left,←,0.49225859995931387,True,28,1
ZC-K-23K23S2,977,experiment,87,←,left,←,0.5154239998664707,True,28,1
ZC-K-23K23S2,978,experiment,100,←,left,←,0.5169926001690328,True,28,1
ZC-K-23K23S2,979,experiment,74,←,left,←,0.5271711000241339,True,28,1
ZC-K-23K23S2,980,experiment,70,→,right,→,0.6186303000431508,True,28,1
ZC-K-23K23S2,981,experiment,102,←,left,←,0.5833624999504536,True,28,1
ZC-K-23K23S2,982,experiment,80,→,right,→,0.6053764000535011,True,28,1
ZC-K-23K23S2,983,experiment,103,↑,up,↑,0.5706408999394625,True,28,1
ZC-K-23K23S2,984,experiment,99,↑,left,←,0.7145002998877317,False,28,1
ZC-K-23K23S2,985,experiment,72,↓,down,↓,0.6214626000728458,True,28,1
ZC-K-23K23S2,986,training,83,↑,up,↑,0.4890332999639213,True,28,0
ZC-K-23K23S2,987,training,78,↑,up,↑,0.5388710999395698,True,28,1
ZC-K-23K23S2,988,experiment,96,↑,up,↑,0.484735099831596,True,28,1
ZC-K-23K23S2,989,experiment,60,←,left,←,0.4611430000513792,True,28,1
ZC-K-23K23S2,990,experiment,98,↑,up,↑,0.48185310000553727,True,28,1
ZC-K-23K23S2,991,experiment,51,←,left,←,0.5335301000159234,True,28,1
ZC-K-23K23S2,992,experiment,78,→,left,←,0.4297352998983115,False,28,1
ZC-K-23K23S2,993,experiment,75,↓,down,↓,0.5871542000677437,True,28,1
ZC-K-23K23S2,994,experiment,91,↑,up,↑,0.5248566998634487,True,28,1
ZC-K-23K23S2,995,experiment,57,↑,up,↑,0.48455419996753335,True,28,1
ZC-K-23K23S2,996,experiment,80,↓,down,↓,0.5428302998188883,True,28,1
ZC-K-23K23S2,997,experiment,108,←,left,←,0.612836099928245,True,28,1
ZC-K-23K23S2,998,experiment,95,←,left,←,0.5002831998281181,True,28,1
ZC-K-23K23S2,999,experiment,85,↑,up,↑,0.5396626000292599,True,28,1
ZC-K-23K23S2,1000,experiment,56,→,right,→,0.49890869995579123,True,28,1
ZC-K-23K23S2,1001,experiment,77,↑,up,↑,0.4850019000004977,True,28,1
ZC-K-23K23S2,1002,experiment,82,→,right,→,0.558089200174436,True,28,1
ZC-K-23K23S2,1003,experiment,100,→,right,→,0.5021194000728428,True,28,1
ZC-K-23K23S2,1004,experiment,93,↓,down,↓,0.5228261000011116,True,28,1
ZC-K-23K23S2,1005,experiment,94,↓,down,↓,0.4941497000399977,True,28,1
ZC-K-23K23S2,1006,experiment,61,←,left,←,0.6380179999396205,True,28,1
ZC-K-23K23S2,1007,experiment,68,→,right,→,0.4533778000622988,True,28,1
ZC-K-23K23S2,1008,experiment,49,→,right,→,0.5147512000985444,True,28,1
ZC-K-23K23S2,1009,experiment,88,↓,down,↓,0.6005132000427693,True,28,1
ZC-K-23K23S2,1010,experiment,62,↑,down,↓,0.47556759999133646,False,28,1
ZC-K-23K23S2,1011,experiment,66,←,right,→,0.7703313000965863,False,28,1
ZC-K-23K23S2,1012,experiment,99,→,no_key,no_letter,-1.0,False,28,1
ZC-K-23K23S2,1013,experiment,79,↑,up,↑,0.6035781998652965,True,28,1
ZC-K-23K23S2,1014,experiment,84,↓,down,↓,0.5354490000754595,True,28,1
ZC-K-23K23S2,1015,experiment,53,↑,up,↑,0.6160468999296427,True,28,1
ZC-K-23K23S2,1016,experiment,73,↑,up,↑,0.4869340998120606,True,28,1
ZC-K-23K23S2,1017,experiment,48,←,left,←,0.6514085000380874,True,28,1
ZC-K-23K23S2,1018,experiment,83,→,right,→,0.5492928999010473,True,28,1
ZC-K-23K23S2,1019,experiment,106,←,left,←,0.5876330998726189,True,28,1
ZC-K-23K23S2,1020,experiment,86,←,left,←,0.48728400003165007,True,28,1
ZC-K-23K23S2,1021,experiment,50,↑,up,↑,0.5708001998718828,True,28,1
ZC-K-23K23S2,1022,experiment,107,↑,up,↑,0.5281895000953227,True,28,1
ZC-K-23K23S2,1023,experiment,72,→,right,→,0.4909463000949472,True,28,1
ZC-K-23K23S2,1024,experiment,92,↑,up,↑,0.4403983000665903,True,28,1
ZC-K-23K23S2,1025,experiment,70,↑,up,↑,0.47918080003000796,True,28,1
ZC-K-23K23S2,1026,experiment,104,↑,up,↑,0.481265899958089,True,28,1
ZC-K-23K23S2,1027,experiment,101,←,left,←,0.4836154000367969,True,28,1
ZC-K-23K23S2,1028,experiment,63,→,right,→,0.5071793000679463,True,28,1
ZC-K-23K23S2,1029,experiment,71,↑,up,↑,0.503121200017631,True,28,1
ZC-K-23K23S2,1030,experiment,64,↑,up,↑,0.4536282999906689,True,28,1
ZC-K-23K23S2,1031,experiment,103,→,right,→,0.5205981000326574,True,28,1
ZC-K-23K23S2,1032,experiment,55,↑,up,↑,0.4893739998806268,True,28,1
ZC-K-23K23S2,1033,experiment,90,←,left,←,0.48754439991898835,True,28,1
ZC-K-23K23S2,1034,experiment,52,←,left,←,0.49851339985616505,True,28,1
ZC-K-23K23S2,1035,experiment,58,↓,down,↓,0.5628372998908162,True,28,1
ZC-K-23K23S2,1036,experiment,102,←,left,←,0.5458999997936189,True,28,1
ZC-K-23K23S2,1037,experiment,65,↓,down,↓,0.5500994001049548,True,28,1
ZC-K-23K23S2,1038,experiment,97,→,right,→,0.5352327998261899,True,28,1
ZC-K-23K23S2,1039,experiment,87,←,left,←,0.5246900001075119,True,28,1
ZC-K-23K23S2,1040,experiment,67,↓,down,↓,0.5611833999864757,True,28,1
ZC-K-23K23S2,1041,experiment,74,↓,down,↓,0.4899929000530392,True,28,1
ZC-K-23K23S2,1042,experiment,59,↓,down,↓,0.44246539985761046,True,28,1
ZC-K-23K23S2,1043,experiment,69,↓,down,↓,0.4413734001573175,True,28,1
ZC-K-23K23S2,1044,experiment,76,→,right,→,0.5342719000764191,True,28,1
ZC-K-23K23S2,1045,experiment,81,→,right,→,0.5976117998361588,True,28,1
ZC-K-23K23S2,1046,experiment,89,←,left,←,0.6557888998650014,True,28,1
ZC-K-23K23S2,1047,experiment,105,←,left,←,0.4578835000284016,True,28,1
ZC-K-23K23S2,1048,experiment,54,←,left,←,0.4615458999760449,True,28,1
ZC-K-23K23S2,1049,training,82,↓,down,↓,0.5554301000665873,True,28,0
ZC-K-23K23S2,1050,training,108,↓,down,↓,0.5768724998924881,True,28,1
ZC-K-23K23S2,1051,experiment,55,↑,up,↑,1.3512730998918414,True,28,1
ZC-K-23K23S2,1052,experiment,101,←,left,←,0.5431701999623328,True,28,1
ZC-K-23K23S2,1053,experiment,78,↓,down,↓,0.7032659000251442,True,28,1
ZC-K-23K23S2,1054,experiment,65,↓,down,↓,0.5574149000458419,True,28,1
ZC-K-23K23S2,1055,experiment,84,↑,up,↑,0.5709363000933081,True,28,1
ZC-K-23K23S2,1056,experiment,69,↓,down,↓,0.5485823000781238,True,28,1
ZC-K-23K23S2,1057,experiment,103,↓,down,↓,0.4999645999632776,True,28,1
ZC-K-23K23S2,1058,experiment,77,→,right,→,0.5178417998831719,True,28,1
ZC-K-23K23S2,1059,experiment,104,→,right,→,0.5582073999103159,True,28,1
ZC-K-23K23S2,1060,experiment,93,↓,down,↓,0.5125872998032719,True,28,1
ZC-K-23K23S2,1061,experiment,86,↓,down,↓,0.4794075000099838,True,28,1
ZC-K-23K23S2,1062,experiment,57,↑,up,↑,0.632780299987644,True,28,1
ZC-K-23K23S2,1063,experiment,48,→,right,→,0.47920699999667704,True,28,1
ZC-K-23K23S2,1064,experiment,75,→,right,→,0.49112939997576177,True,28,1
ZC-K-23K23S2,1065,experiment,74,→,right,→,0.502383999992162,True,28,1
ZC-K-23K23S2,1066,experiment,108,→,right,→,0.5181324000004679,True,28,1
ZC-K-23K23S2,1067,experiment,73,←,left,←,0.5849022998008877,True,28,1
ZC-K-23K23S2,1068,experiment,92,→,right,→,0.5945543998386711,True,28,1
ZC-K-23K23S2,1069,experiment,100,→,right,→,0.5214062999002635,True,28,1
ZC-K-23K23S2,1070,experiment,63,←,left,←,0.5350325000472367,True,28,1
ZC-K-23K23S2,1071,experiment,76,→,right,→,0.4881525000091642,True,28,1
ZC-K-23K23S2,1072,experiment,72,↑,up,↑,0.5081482999958098,True,28,1
ZC-K-23K23S2,1073,experiment,94,↑,up,↑,0.5442170000169426,True,28,1
ZC-K-23K23S2,1074,experiment,51,→,right,→,0.5773608998861164,True,28,1
ZC-K-23K23S2,1075,experiment,98,←,left,←,0.5051884998101741,True,28,1
ZC-K-23K23S2,1076,experiment,97,↓,down,↓,0.5724190999753773,True,28,1
ZC-K-23K23S2,1077,experiment,83,→,right,→,0.4576667998917401,True,28,1
ZC-K-23K23S2,1078,experiment,60,↓,down,↓,0.5468975000549108,True,28,1
ZC-K-23K23S2,1079,experiment,59,→,right,→,0.5369831998832524,True,28,1
ZC-K-23K23S2,1080,experiment,70,↑,up,↑,0.524213100085035,True,28,1
ZC-K-23K23S2,1081,experiment,49,↑,up,↑,0.4944688999094069,True,28,1
ZC-K-23K23S2,1082,experiment,102,←,left,←,0.552548399893567,True,28,1
ZC-K-23K23S2,1083,experiment,56,↓,down,↓,0.5520599000155926,True,28,1
ZC-K-23K23S2,1084,experiment,52,←,left,←,0.5760676998179406,True,28,1
ZC-K-23K23S2,1085,experiment,79,↑,up,↑,0.502222599927336,True,28,1
ZC-K-23K23S2,1086,experiment,106,↓,down,↓,0.48679999983869493,True,28,1
ZC-K-23K23S2,1087,experiment,71,←,right,→,0.6114149000495672,False,28,1
ZC-K-23K23S2,1088,experiment,105,↓,down,↓,0.45648139994591475,True,28,1
ZC-K-23K23S2,1089,experiment,62,←,left,←,0.5529734001029283,True,28,1
ZC-K-23K23S2,1090,experiment,85,→,right,→,0.5021159998141229,True,28,1
ZC-K-23K23S2,1091,experiment,99,←,left,←,0.46474710013717413,True,28,1
ZC-K-23K23S2,1092,experiment,61,↓,down,↓,0.4574149998370558,True,28,1
ZC-K-23K23S2,1093,experiment,82,↑,up,↑,0.587601900100708,True,28,1
ZC-K-23K23S2,1094,experiment,87,→,right,→,0.5187292001210153,True,28,1
ZC-K-23K23S2,1095,experiment,89,↓,down,↓,0.4602940999902785,True,28,1
ZC-K-23K23S2,1096,experiment,81,↓,down,↓,0.4784547998569906,True,28,1
ZC-K-23K23S2,1097,experiment,96,→,right,→,0.49138160003349185,True,28,1
ZC-K-23K23S2,1098,experiment,88,←,left,←,0.5379524999298155,True,28,1
ZC-K-23K23S2,1099,experiment,68,→,right,→,0.5092802001163363,True,28,1
ZC-K-23K23S2,1100,experiment,58,↑,up,↑,0.5255593999754637,True,28,1
ZC-K-23K23S2,1101,experiment,64,↓,no_key,no_letter,-1.0,False,28,1
ZC-K-23K23S2,1102,experiment,53,↑,up,↑,0.6050012998748571,True,28,1
ZC-K-23K23S2,1103,experiment,66,→,right,→,0.5102454000152647,True,28,1
ZC-K-23K23S2,1104,experiment,107,←,left,←,0.5662272002082318,True,28,1
ZC-K-23K23S2,1105,experiment,91,→,right,→,0.46455999999307096,True,28,1
ZC-K-23K23S2,1106,experiment,54,←,left,←,0.651659700088203,True,28,1
ZC-K-23K23S2,1107,experiment,90,→,right,→,0.7954074998851866,True,28,1
ZC-K-23K23S2,1108,experiment,80,←,left,←,0.52870689984411,True,28,1
ZC-K-23K23S2,1109,experiment,67,↓,down,↓,0.5973910000175238,True,28,1
ZC-K-23K23S2,1110,experiment,95,↓,down,↓,0.5571087000425905,True,28,1
ZC-K-23K23S2,1111,experiment,50,↑,up,↑,0.581880799960345,True,28,1
ZC-K-23K23S2,1112,training,52,←,left,←,0.6122449999675155,True,28,0
ZC-K-23K23S2,1113,training,48,←,left,←,0.467495399992913,True,28,1
ZC-K-23K23S2,1114,experiment,101,←,left,←,0.526873999973759,True,28,1
ZC-K-23K23S2,1115,experiment,106,←,no_key,no_letter,-1.0,False,28,1
ZC-K-23K23S2,1116,experiment,54,↓,down,↓,0.616046000039205,True,28,1
ZC-K-23K23S2,1117,experiment,66,→,right,→,0.4490851000882685,True,28,1
ZC-K-23K23S2,1118,experiment,64,↓,down,↓,0.521231499966234,True,28,1
ZC-K-23K23S2,1119,experiment,76,↓,down,↓,0.4991657000500709,True,28,1
ZC-K-23K23S2,1120,experiment,62,→,right,→,0.5143964998424053,True,28,1
ZC-K-23K23S2,1121,experiment,86,↓,down,↓,0.528455900028348,True,28,1
ZC-K-23K23S2,1122,experiment,87,←,left,←,0.6222504999022931,True,28,1
ZC-K-23K23S2,1123,experiment,78,↑,up,↑,0.5551171000115573,True,28,1
ZC-K-23K23S2,1124,experiment,49,↓,down,↓,0.5485068000853062,True,28,1
ZC-K-23K23S2,1125,experiment,53,↑,up,↑,0.6362524998839945,True,28,1
ZC-K-23K23S2,1126,experiment,94,↑,up,↑,0.5312167000956833,True,28,1
ZC-K-23K23S2,1127,experiment,93,↓,down,↓,0.5267343998420984,True,28,1
ZC-K-23K23S2,1128,experiment,95,←,left,←,0.5377239999361336,True,28,1
ZC-K-23K23S2,1129,experiment,99,↓,down,↓,0.5067058000713587,True,28,1
ZC-K-23K23S2,1130,experiment,59,→,right,→,0.5385016000363976,True,28,1
ZC-K-23K23S2,1131,experiment,48,↑,up,↑,0.8125962999183685,True,28,1
ZC-K-23K23S2,1132,experiment,69,→,right,→,0.4848295000847429,True,28,1
ZC-K-23K23S2,1133,experiment,61,↓,down,↓,0.5407195999287069,True,28,1
ZC-K-23K23S2,1134,experiment,89,↓,down,↓,0.43320650001987815,True,28,1
ZC-K-23K23S2,1135,experiment,55,→,right,→,0.46121710003353655,True,28,1
ZC-K-23K23S2,1136,experiment,73,↓,down,↓,0.5144068000372499,True,28,1
ZC-K-23K23S2,1137,experiment,108,→,right,→,0.4415351999923587,True,28,1
ZC-K-23K23S2,1138,experiment,103,↑,up,↑,0.5170647001359612,True,28,1
ZC-K-23K23S2,1139,experiment,65,↑,up,↑,0.49845980014652014,True,28,1
ZC-K-23K23S2,1140,experiment,58,→,right,→,0.4830370999407023,True,28,1
ZC-K-23K23S2,1141,experiment,82,→,right,→,0.5639111001510173,True,28,1
ZC-K-23K23S2,1142,experiment,83,→,right,→,0.45731889992021024,True,28,1
ZC-K-23K23S2,1143,experiment,91,↑,up,↑,0.5363499000668526,True,28,1
ZC-K-23K23S2,1144,experiment,77,→,right,→,0.47379640000872314,True,28,1
ZC-K-23K23S2,1145,experiment,50,←,left,←,0.677200999809429,True,28,1
ZC-K-23K23S2,1146,experiment,104,←,left,←,0.5672636001836509,True,28,1
ZC-K-23K23S2,1147,experiment,92,←,left,←,0.6574510000646114,True,28,1
ZC-K-23K23S2,1148,experiment,75,→,right,→,0.662025999976322,True,28,1
ZC-K-23K23S2,1149,experiment,80,↑,up,↑,0.5207154999952763,True,28,1
ZC-K-23K23S2,1150,experiment,51,↓,down,↓,0.6024843999184668,True,28,1
ZC-K-23K23S2,1151,experiment,98,↑,up,↑,0.6575625000987202,True,28,1
ZC-K-23K23S2,1152,experiment,84,←,left,←,0.5391647999640554,True,28,1
ZC-K-23K23S2,1153,experiment,63,→,right,→,0.6160259998869151,True,28,1
ZC-K-23K23S2,1154,experiment,107,→,right,→,0.5955401000101119,True,28,1
ZC-K-23K23S2,1155,experiment,100,←,left,←,0.5861333999782801,True,28,1
ZC-K-23K23S2,1156,experiment,74,←,left,←,0.5937848999164999,True,28,1
ZC-K-23K23S2,1157,experiment,105,←,left,←,0.5509219998493791,True,28,1
ZC-K-23K23S2,1158,experiment,70,↑,up,↑,0.6170733000617474,True,28,1
ZC-K-23K23S2,1159,experiment,81,↓,down,↓,0.6779666000511497,True,28,1
ZC-K-23K23S2,1160,experiment,60,↑,up,↑,0.5580084000248462,True,28,1
ZC-K-23K23S2,1161,experiment,102,→,right,→,0.525688000023365,True,28,1
ZC-K-23K23S2,1162,experiment,52,→,right,→,0.6709405998699367,True,28,1
ZC-K-23K23S2,1163,experiment,72,→,right,→,0.5879822000861168,True,28,1
ZC-K-23K23S2,1164,experiment,79,→,right,→,0.4900738999713212,True,28,1
ZC-K-23K23S2,1165,experiment,97,→,right,→,0.47772149997763336,True,28,1
ZC-K-23K23S2,1166,experiment,57,←,left,←,0.6474222999531776,True,28,1
ZC-K-23K23S2,1167,experiment,88,←,left,←,0.5518604998942465,True,28,1
ZC-K-23K23S2,1168,experiment,67,←,left,←,0.555469400016591,True,28,1
ZC-K-23K23S2,1169,experiment,56,←,left,←,0.4817486999090761,True,28,1
ZC-K-23K23S2,1170,experiment,68,↑,up,↑,0.5597497001290321,True,28,1
ZC-K-23K23S2,1171,experiment,96,↓,down,↓,0.5771979000419378,True,28,1
ZC-K-23K23S2,1172,experiment,90,←,left,←,0.6439069001935422,True,28,1
ZC-K-23K23S2,1173,experiment,71,↑,up,↑,0.5542931999079883,True,28,1
ZC-K-23K23S2,1174,experiment,85,→,right,→,0.519631499890238,True,28,1
ZC-K-23K23S2,1175,training,55,↑,up,↑,0.5664454998914152,True,28,0
ZC-K-23K23S2,1176,training,103,→,right,→,0.5331606999970973,True,28,1
ZC-K-23K23S2,1177,experiment,63,↓,down,↓,0.8506542998366058,True,28,1
ZC-K-23K23S2,1178,experiment,97,↑,up,↑,0.7041565000545233,True,28,1
ZC-K-23K23S2,1179,experiment,81,↓,down,↓,0.5290355000179261,True,28,1
ZC-K-23K23S2,1180,experiment,73,↓,down,↓,0.5470026000402868,True,28,1
ZC-K-23K23S2,1181,experiment,93,↓,down,↓,0.5256600000429899,True,28,1
ZC-K-23K23S2,1182,experiment,108,↑,up,↑,0.6444661000277847,True,28,1
ZC-K-23K23S2,1183,experiment,70,↑,up,↑,0.6509481999091804,True,28,1
ZC-K-23K23S2,1184,experiment,68,↓,down,↓,0.5779122000094503,True,28,1
ZC-K-23K23S2,1185,experiment,49,→,right,→,0.5786711999680847,True,28,1
ZC-K-23K23S2,1186,experiment,84,←,left,←,0.43913650000467896,True,28,1
ZC-K-23K23S2,1187,experiment,77,→,right,→,0.5234795999713242,True,28,1
ZC-K-23K23S2,1188,experiment,55,↓,down,↓,0.6120064998976886,True,28,1
ZC-K-23K23S2,1189,experiment,85,→,right,→,0.47109819995239377,True,28,1
ZC-K-23K23S2,1190,experiment,61,→,right,→,0.49560200003907084,True,28,1
ZC-K-23K23S2,1191,experiment,107,→,right,→,0.4645425998605788,True,28,1
ZC-K-23K23S2,1192,experiment,86,←,left,←,0.5764663000591099,True,28,1
ZC-K-23K23S2,1193,experiment,101,←,left,←,0.5037346000317484,True,28,1
ZC-K-23K23S2,1194,experiment,98,←,left,←,0.5146563998423517,True,28,1
ZC-K-23K23S2,1195,experiment,64,↓,down,↓,0.696625699987635,True,28,1
ZC-K-23K23S2,1196,experiment,66,↓,down,↓,0.6145885998848826,True,28,1
ZC-K-23K23S2,1197,experiment,83,→,right,→,0.5938922998029739,True,28,1
ZC-K-23K23S2,1198,experiment,103,↓,down,↓,0.6155555001460016,True,28,1
ZC-K-23K23S2,1199,experiment,57,→,right,→,0.4997904999181628,True,28,1
ZC-K-23K23S2,1200,experiment,80,↑,up,↑,0.5325960000045598,True,28,1
ZC-K-23K23S2,1201,experiment,99,→,right,→,0.5181284002028406,True,28,1
ZC-K-23K23S2,1202,experiment,69,←,left,←,0.54633569996804,True,28,1
ZC-K-23K23S2,1203,experiment,94,→,right,→,0.5407163999043405,True,28,1
ZC-K-23K23S2,1204,experiment,102,→,right,→,0.5565771998371929,True,28,1
ZC-K-23K23S2,1205,experiment,90,←,left,←,0.5761635000817478,True,28,1
ZC-K-23K23S2,1206,experiment,95,↑,up,↑,0.5849804000463337,True,28,1
ZC-K-23K23S2,1207,experiment,88,↑,up,↑,0.5400691002141684,True,28,1
ZC-K-23K23S2,1208,experiment,56,↑,up,↑,0.5154909999109805,True,28,1
ZC-K-23K23S2,1209,experiment,67,←,left,←,0.5280367999803275,True,28,1
ZC-K-23K23S2,1210,experiment,100,→,right,→,0.5296704999636859,True,28,1
ZC-K-23K23S2,1211,experiment,89,←,left,←,0.5503575999755412,True,28,1
ZC-K-23K23S2,1212,experiment,92,↑,up,↑,0.5692896998953074,True,28,1
ZC-K-23K23S2,1213,experiment,60,←,left,←,0.5427025000099093,True,28,1
ZC-K-23K23S2,1214,experiment,62,←,left,←,0.5396547999698669,True,28,1
ZC-K-23K23S2,1215,experiment,72,←,left,←,0.4939780000131577,True,28,1
ZC-K-23K23S2,1216,experiment,50,←,left,←,0.4653809000737965,True,28,1
ZC-K-23K23S2,1217,experiment,106,↑,up,↑,0.5551618998870254,True,28,1
ZC-K-23K23S2,1218,experiment,54,→,right,→,0.5544151000212878,True,28,1
ZC-K-23K23S2,1219,experiment,59,↓,down,↓,0.728718200000003,True,28,1
ZC-K-23K23S2,1220,experiment,48,↑,up,↑,0.523237599991262,True,28,1
ZC-K-23K23S2,1221,experiment,58,→,right,→,0.5785137000493705,True,28,1
ZC-K-23K23S2,1222,experiment,105,↑,up,↑,0.5202691000886261,True,28,1
ZC-K-23K23S2,1223,experiment,79,↑,up,↑,0.47288249991834164,True,28,1
ZC-K-23K23S2,1224,experiment,76,←,left,←,0.5085348000284284,True,28,1
ZC-K-23K23S2,1225,experiment,71,↑,up,↑,0.48810030007734895,True,28,1
ZC-K-23K23S2,1226,experiment,53,←,left,←,0.522833599941805,True,28,1
ZC-K-23K23S2,1227,experiment,75,↓,down,↓,0.6282763001509011,True,28,1
ZC-K-23K23S2,1228,experiment,96,→,right,→,0.5790983999613672,True,28,1
ZC-K-23K23S2,1229,experiment,65,←,left,←,0.5658931999932975,True,28,1
ZC-K-23K23S2,1230,experiment,82,↓,down,↓,0.6433834000490606,True,28,1
ZC-K-23K23S2,1231,experiment,91,←,left,←,0.9071849000174552,True,28,1
ZC-K-23K23S2,1232,experiment,87,←,left,←,0.5294951000250876,True,28,1
ZC-K-23K23S2,1233,experiment,104,→,right,→,0.521209399914369,True,28,1
ZC-K-23K23S2,1234,experiment,52,←,left,←,0.5946664998773485,True,28,1
ZC-K-23K23S2,1235,experiment,51,↑,up,↑,0.5218543999362737,True,28,1
ZC-K-23K23S2,1236,experiment,74,←,left,←,0.5398042001761496,True,28,1
ZC-K-23K23S2,1237,experiment,78,↑,up,↑,0.4758727999869734,True,28,1
ZC-K-23K23S2,1238,training,99,↑,up,↑,0.5790655999444425,True,28,0
ZC-K-23K23S2,1239,training,81,←,left,←,0.512526199920103,True,28,1
ZC-K-23K23S2,1240,experiment,62,↓,down,↓,0.6711465998087078,True,28,1
ZC-K-23K23S2,1241,experiment,96,←,left,←,0.45162410009652376,True,28,1
ZC-K-23K23S2,1242,experiment,72,↓,down,↓,0.5454647000879049,True,28,1
ZC-K-23K23S2,1243,experiment,105,←,left,←,0.48023780016228557,True,28,1
ZC-K-23K23S2,1244,experiment,52,↓,down,↓,0.571187200024724,True,28,1
ZC-K-23K23S2,1245,experiment,85,→,right,→,0.527589299948886,True,28,1
ZC-K-23K23S2,1246,experiment,101,→,right,→,0.5846707997843623,True,28,1
ZC-K-23K23S2,1247,experiment,58,↓,down,↓,0.6063509001396596,True,28,1
ZC-K-23K23S2,1248,experiment,91,←,left,←,0.5267236998770386,True,28,1
ZC-K-23K23S2,1249,experiment,83,↑,up,↑,0.5658323999959975,True,28,1
ZC-K-23K23S2,1250,experiment,79,↓,down,↓,0.6045407000929117,True,28,1
ZC-K-23K23S2,1251,experiment,69,→,right,→,0.4689512001350522,True,28,1
ZC-K-23K23S2,1252,experiment,71,→,right,→,0.7465301998890936,True,28,1
ZC-K-23K23S2,1253,experiment,48,↓,down,↓,0.5160014000721276,True,28,1
ZC-K-23K23S2,1254,experiment,99,↓,down,↓,0.582327299984172,True,28,1
ZC-K-23K23S2,1255,experiment,89,↑,up,↑,0.6726280001457781,True,28,1
ZC-K-23K23S2,1256,experiment,50,↓,down,↓,0.5651118999812752,True,28,1
ZC-K-23K23S2,1257,experiment,82,↑,up,↑,0.6667354998644441,True,28,1
ZC-K-23K23S2,1258,experiment,56,→,right,→,0.5172274999786168,True,28,1
ZC-K-23K23S2,1259,experiment,94,↓,down,↓,0.536955599905923,True,28,1
ZC-K-23K23S2,1260,experiment,70,↑,up,↑,0.5718998999800533,True,28,1
ZC-K-23K23S2,1261,experiment,84,↓,down,↓,0.5766976000741124,True,28,1
ZC-K-23K23S2,1262,experiment,95,↑,up,↑,0.5538451999891549,True,28,1
ZC-K-23K23S2,1263,experiment,90,↑,up,↑,0.46159889991395175,True,28,1
ZC-K-23K23S2,1264,experiment,57,←,left,←,0.5997840999625623,True,28,1
ZC-K-23K23S2,1265,experiment,88,↓,down,↓,0.5301701999269426,True,28,1
ZC-K-23K23S2,1266,experiment,59,↑,up,↑,0.5690770000219345,True,28,1
ZC-K-23K23S2,1267,experiment,54,←,left,←,0.44000349985435605,True,28,1
ZC-K-23K23S2,1268,experiment,103,→,right,→,0.5477001999970526,True,28,1
ZC-K-23K23S2,1269,experiment,108,→,right,→,0.7135501001030207,True,28,1
ZC-K-23K23S2,1270,experiment,61,←,left,←,0.5921527000609785,True,28,1
ZC-K-23K23S2,1271,experiment,104,↑,up,↑,0.5497363000176847,True,28,1
ZC-K-23K23S2,1272,experiment,74,←,left,←,0.4946246000472456,True,28,1
ZC-K-23K23S2,1273,experiment,73,→,right,→,0.5383729001041502,True,28,1
ZC-K-23K23S2,1274,experiment,65,→,right,→,0.5112620000727475,True,28,1
ZC-K-23K23S2,1275,experiment,102,↓,down,↓,0.5607006000354886,True,28,1
ZC-K-23K23S2,1276,experiment,55,→,right,→,0.5517806999851018,True,28,1
ZC-K-23K23S2,1277,experiment,76,↓,down,↓,0.5199698999058455,True,28,1
ZC-K-23K23S2,1278,experiment,97,→,right,→,0.47466320008970797,True,28,1
ZC-K-23K23S2,1279,experiment,77,←,left,←,0.5496753000188619,True,28,1
ZC-K-23K23S2,1280,experiment,51,→,right,→,0.5666433000005782,True,28,1
ZC-K-23K23S2,1281,experiment,92,←,left,←,0.5128870001062751,True,28,1
ZC-K-23K23S2,1282,experiment,78,←,left,←,0.570288100047037,True,28,1
ZC-K-23K23S2,1283,experiment,93,→,right,→,0.4363990998826921,True,28,1
ZC-K-23K23S2,1284,experiment,107,↑,up,↑,0.5353282000869513,True,28,1
ZC-K-23K23S2,1285,experiment,67,←,left,←,0.5232744000386447,True,28,1
ZC-K-23K23S2,1286,experiment,87,↓,down,↓,0.5851094000972807,True,28,1
ZC-K-23K23S2,1287,experiment,53,→,right,→,0.5043680998496711,True,28,1
ZC-K-23K23S2,1288,experiment,49,↓,down,↓,0.538787700003013,True,28,1
ZC-K-23K23S2,1289,experiment,106,↑,up,↑,0.5536711001768708,True,28,1
ZC-K-23K23S2,1290,experiment,66,↓,down,↓,0.6052245001774281,True,28,1
ZC-K-23K23S2,1291,experiment,81,←,left,←,0.5455406000837684,True,28,1
ZC-K-23K23S2,1292,experiment,80,↑,up,↑,0.585185999982059,True,28,1
ZC-K-23K23S2,1293,experiment,86,→,right,→,0.5247329999692738,True,28,1
ZC-K-23K23S2,1294,experiment,75,↑,up,↑,0.486432199832052,True,28,1
ZC-K-23K23S2,1295,experiment,100,↓,down,↓,0.5214907999616116,True,28,1
ZC-K-23K23S2,1296,experiment,98,←,left,←,0.5235585002228618,True,28,1
ZC-K-23K23S2,1297,experiment,60,←,left,←,0.5465261000208557,True,28,1
ZC-K-23K23S2,1298,experiment,63,↑,up,↑,0.5109743000939488,True,28,1
ZC-K-23K23S2,1299,experiment,64,↑,no_key,no_letter,-1.0,False,28,1
ZC-K-23K23S2,1300,experiment,68,←,left,←,0.5540200998075306,True,28,1
ZC-K-23K23S2,1301,training,71,←,left,←,0.5467890999279916,True,28,0
ZC-K-23K23S2,1302,training,52,→,right,→,0.5233895001001656,True,28,1
ZC-K-23K23S2,1303,experiment,57,→,right,→,0.5870939998421818,True,28,1
ZC-K-23K23S2,1304,experiment,108,←,left,←,0.5912570999935269,True,28,1
ZC-K-23K23S2,1305,experiment,50,→,no_key,no_letter,-1.0,False,28,1
ZC-K-23K23S2,1306,experiment,96,→,right,→,0.6984620001167059,True,28,1
ZC-K-23K23S2,1307,experiment,82,←,left,←,0.5706419998314232,True,28,1
ZC-K-23K23S2,1308,experiment,62,←,left,←,0.6149299000389874,True,28,1
ZC-K-23K23S2,1309,experiment,99,↓,down,↓,0.757226999849081,True,28,1
ZC-K-23K23S2,1310,experiment,73,→,right,→,0.5582046001218259,True,28,1
ZC-K-23K23S2,1311,experiment,56,→,right,→,0.5245153000578284,True,28,1
ZC-K-23K23S2,1312,experiment,101,←,left,←,0.5579768000170588,True,28,1
ZC-K-23K23S2,1313,experiment,52,↑,up,↑,0.6299731999170035,True,28,1
ZC-K-23K23S2,1314,experiment,69,←,left,←,0.5413515998516232,True,28,1
ZC-K-23K23S2,1315,experiment,85,←,left,←,0.5470231999643147,True,28,1
ZC-K-23K23S2,1316,experiment,61,↓,down,↓,0.5687279999256134,True,28,1
ZC-K-23K23S2,1317,experiment,55,↑,up,↑,0.567362500121817,True,28,1
ZC-K-23K23S2,1318,experiment,79,↑,up,↑,0.5500699998810887,True,28,1
ZC-K-23K23S2,1319,experiment,84,↑,up,↑,0.5319406997878104,True,28,1
ZC-K-23K23S2,1320,experiment,74,→,right,→,0.501398499822244,True,28,1
ZC-K-23K23S2,1321,experiment,83,↓,down,↓,0.533900200156495,True,28,1
ZC-K-23K23S2,1322,experiment,98,←,left,←,0.5512810000218451,True,28,1
ZC-K-23K23S2,1323,experiment,59,←,left,←,0.5093716001138091,True,28,1
ZC-K-23K23S2,1324,experiment,88,→,right,→,0.48339840001426637,True,28,1
ZC-K-23K23S2,1325,experiment,63,→,right,→,0.6108620001468807,True,28,1
ZC-K-23K23S2,1326,experiment,80,→,right,→,0.4795363999437541,True,28,1
ZC-K-23K23S2,1327,experiment,81,↓,down,↓,0.5049409000203013,True,28,1
ZC-K-23K23S2,1328,experiment,66,←,left,←,0.6463638998102397,True,28,1
ZC-K-23K23S2,1329,experiment,75,←,left,←,0.507677000015974,True,28,1
ZC-K-23K23S2,1330,experiment,87,↓,down,↓,0.6578633999451995,True,28,1
ZC-K-23K23S2,1331,experiment,103,←,left,←,0.5328720000106841,True,28,1
ZC-K-23K23S2,1332,experiment,77,→,right,→,0.5655643998179585,True,28,1
ZC-K-23K23S2,1333,experiment,58,←,left,←,0.5873940999154001,True,28,1
ZC-K-23K23S2,1334,experiment,71,←,left,←,0.48439890006557107,True,28,1
ZC-K-23K23S2,1335,experiment,89,←,left,←,0.5467738001607358,True,28,1
ZC-K-23K23S2,1336,experiment,67,←,left,←,0.4704491999000311,True,28,1
ZC-K-23K23S2,1337,experiment,60,↑,up,↑,0.5198104998562485,True,28,1
ZC-K-23K23S2,1338,experiment,68,→,right,→,0.49991940008476377,True,28,1
ZC-K-23K23S2,1339,experiment,54,↓,down,↓,0.5334037998691201,True,28,1
ZC-K-23K23S2,1340,experiment,92,↑,up,↑,0.505681499838829,True,28,1
ZC-K-23K23S2,1341,experiment,102,↑,up,↑,0.6032899001147598,True,28,1
ZC-K-23K23S2,1342,experiment,51,→,right,→,0.4893219000659883,True,28,1
ZC-K-23K23S2,1343,experiment,93,↑,up,↑,0.5906148999929428,True,28,1
ZC-K-23K23S2,1344,experiment,95,↓,down,↓,0.5747058000415564,True,28,1
ZC-K-23K23S2,1345,experiment,49,→,right,→,0.6071920001413673,True,28,1
ZC-K-23K23S2,1346,experiment,72,→,right,→,0.5027720001526177,True,28,1
ZC-K-23K23S2,1347,experiment,97,↑,up,↑,0.4979637998621911,True,28,1
ZC-K-23K23S2,1348,experiment,76,←,left,←,0.5403458001092076,True,28,1
ZC-K-23K23S2,1349,experiment,91,→,right,→,0.568206800147891,True,28,1
ZC-K-23K23S2,1350,experiment,107,→,right,→,0.501285299891606,True,28,1
ZC-K-23K23S2,1351,experiment,86,↓,down,↓,0.5807304000481963,True,28,1
ZC-K-23K23S2,1352,experiment,53,→,right,→,0.5473050000146031,True,28,1
ZC-K-23K23S2,1353,experiment,94,↑,up,↑,0.5259052999317646,True,28,1
ZC-K-23K23S2,1354,experiment,64,←,left,←,0.5071384999901056,True,28,1
ZC-K-23K23S2,1355,experiment,106,←,left,←,0.4992373997811228,True,28,1
ZC-K-23K23S2,1356,experiment,104,→,right,→,0.5804373999126256,True,28,1
ZC-K-23K23S2,1357,experiment,48,→,right,→,0.5245437999255955,True,28,1
ZC-K-23K23S2,1358,experiment,90,←,left,←,0.6013824001420289,True,28,1
ZC-K-23K23S2,1359,experiment,105,↑,up,↑,0.5418263000901788,True,28,1
ZC-K-23K23S2,1360,experiment,70,↓,down,↓,0.5610554001759738,True,28,1
ZC-K-23K23S2,1361,experiment,78,↓,down,↓,0.5604456001892686,True,28,1
ZC-K-23K23S2,1362,experiment,65,←,left,←,0.5559979998506606,True,28,1
ZC-K-23K23S2,1363,experiment,100,←,no_key,no_letter,-1.0,False,28,1
ZC-K-23K23S2,1364,training,83,↓,down,↓,0.634438700042665,True,28,0
ZC-K-23K23S2,1365,training,87,↑,up,↑,0.6438481002114713,True,28,1
ZC-K-23K23S2,1366,experiment,88,↓,down,↓,0.5164979000110179,True,28,1
ZC-K-23K23S2,1367,experiment,55,→,right,→,0.49346379982307553,True,28,1
ZC-K-23K23S2,1368,experiment,83,←,left,←,0.47783169988542795,True,28,1
ZC-K-23K23S2,1369,experiment,49,←,left,←,0.4423211000394076,True,28,1
ZC-K-23K23S2,1370,experiment,67,→,right,→,0.5541270999237895,True,28,1
ZC-K-23K23S2,1371,experiment,59,→,right,→,0.5280979000963271,True,28,1
ZC-K-23K23S2,1372,experiment,105,←,left,←,0.5116846000310034,True,28,1
ZC-K-23K23S2,1373,experiment,82,→,right,→,0.5519254000391811,True,28,1
ZC-K-23K23S2,1374,experiment,74,↓,down,↓,0.6009901999495924,True,28,1
ZC-K-23K23S2,1375,experiment,85,←,left,←,0.5319003998301923,True,28,1
ZC-K-23K23S2,1376,experiment,57,→,right,→,0.5394653000403196,True,28,1
ZC-K-23K23S2,1377,experiment,73,←,left,←,0.541387900011614,True,28,1
ZC-K-23K23S2,1378,experiment,66,↑,up,↑,0.5697368001565337,True,28,1
ZC-K-23K23S2,1379,experiment,93,↓,down,↓,0.5634777001105249,True,28,1
ZC-K-23K23S2,1380,experiment,100,→,right,→,0.48343780008144677,True,28,1
ZC-K-23K23S2,1381,experiment,94,↓,down,↓,0.6243700000923127,True,28,1
ZC-K-23K23S2,1382,experiment,70,→,right,→,0.7918149000033736,True,28,1
ZC-K-23K23S2,1383,experiment,80,←,left,←,0.5892250998876989,True,28,1
ZC-K-23K23S2,1384,experiment,64,←,left,←,0.5756707000546157,True,28,1
ZC-K-23K23S2,1385,experiment,87,←,left,←,0.5316749999765307,True,28,1
ZC-K-23K23S2,1386,experiment,60,↑,up,↑,0.5939092000480741,True,28,1
ZC-K-23K23S2,1387,experiment,101,←,left,←,0.5764601000119001,True,28,1
ZC-K-23K23S2,1388,experiment,53,↑,up,↑,0.567372300196439,True,28,1
ZC-K-23K23S2,1389,experiment,48,→,right,→,0.6244438998401165,True,28,1
ZC-K-23K23S2,1390,experiment,81,→,right,→,0.5162825000006706,True,28,1
ZC-K-23K23S2,1391,experiment,91,←,left,←,0.5928875000681728,True,28,1
ZC-K-23K23S2,1392,experiment,77,→,right,→,0.4633961000945419,True,28,1
ZC-K-23K23S2,1393,experiment,107,→,right,→,0.5130755000282079,True,28,1
ZC-K-23K23S2,1394,experiment,69,↑,up,↑,0.5570744001306593,True,28,1
ZC-K-23K23S2,1395,experiment,71,→,right,→,0.4868401999119669,True,28,1
ZC-K-23K23S2,1396,experiment,103,←,left,←,0.5527999999467283,True,28,1
ZC-K-23K23S2,1397,experiment,89,↓,down,↓,0.7806975999847054,True,28,1
ZC-K-23K23S2,1398,experiment,96,↓,down,↓,0.5894035999663174,True,28,1
ZC-K-23K23S2,1399,experiment,65,↓,down,↓,0.48791989986784756,True,28,1
ZC-K-23K23S2,1400,experiment,106,↓,down,↓,0.5529855000786483,True,28,1
ZC-K-23K23S2,1401,experiment,63,→,right,→,0.5014822999946773,True,28,1
ZC-K-23K23S2,1402,experiment,86,↑,up,↑,0.5885000999551266,True,28,1
ZC-K-23K23S2,1403,experiment,97,↑,up,↑,0.47621580003760755,True,28,1
ZC-K-23K23S2,1404,experiment,102,←,left,←,0.5829167999327183,True,28,1
ZC-K-23K23S2,1405,experiment,51,←,left,←,0.5263589001260698,True,28,1
ZC-K-23K23S2,1406,experiment,78,↑,up,↑,0.551100900163874,True,28,1
ZC-K-23K23S2,1407,experiment,79,↑,up,↑,0.606572600081563,True,28,1
ZC-K-23K23S2,1408,experiment,50,←,left,←,0.48522499995306134,True,28,1
ZC-K-23K23S2,1409,experiment,54,←,left,←,0.49552270001731813,True,28,1
ZC-K-23K23S2,1410,experiment,72,↓,down,↓,0.5636366000398993,True,28,1
ZC-K-23K23S2,1411,experiment,90,↓,down,↓,0.518400700064376,True,28,1
ZC-K-23K23S2,1412,experiment,104,↓,down,↓,0.5910302000120282,True,28,1
ZC-K-23K23S2,1413,experiment,92,↑,up,↑,0.5845906999893486,True,28,1
ZC-K-23K23S2,1414,experiment,68,→,right,→,0.5620555998757482,True,28,1
ZC-K-23K23S2,1415,experiment,52,↑,up,↑,0.5541181999724358,True,28,1
ZC-K-23K23S2,1416,experiment,95,→,right,→,0.45969419996254146,True,28,1
ZC-K-23K23S2,1417,experiment,56,↓,down,↓,0.6066179000772536,True,28,1
ZC-K-23K23S2,1418,experiment,62,←,left,←,0.5292990999296308,True,28,1
ZC-K-23K23S2,1419,experiment,99,→,right,→,0.5784978999290615,True,28,1
ZC-K-23K23S2,1420,experiment,108,↓,down,↓,0.6153921000659466,True,28,1
ZC-K-23K23S2,1421,experiment,61,↓,down,↓,0.5301282999571413,True,28,1
ZC-K-23K23S2,1422,experiment,58,↑,up,↑,0.5450905999168754,True,28,1
ZC-K-23K23S2,1423,experiment,84,↑,up,↑,0.46327669988386333,True,28,1
ZC-K-23K23S2,1424,experiment,76,↑,up,↑,0.5315898000262678,True,28,1
ZC-K-23K23S2,1425,experiment,98,↑,up,↑,0.45309669990092516,True,28,1