PART_ID,Trial_no,Trial_type,CSI,Stim_letter,Key_pressed,letter_choose,Rt,Corr,Stimulus Time,nDropped
ZC-K-23K23S1,1,training,120,↓,down,↓,1.141166100045666,True,60,1
ZC-K-23K23S1,2,training,120,←,right,→,1.0704159999731928,False,60,0
ZC-K-23K23S1,3,training,120,↓,down,↓,0.9223195998929441,True,60,0
ZC-K-23K23S1,4,training,120,↑,up,↑,0.7725738999433815,True,60,0
ZC-K-23K23S1,5,training,120,↑,up,↑,0.7007570001296699,True,60,0
ZC-K-23K23S1,6,training,120,↓,down,↓,0.720060600200668,True,60,0
ZC-K-23K23S1,7,training,120,↓,down,↓,0.7779413000680506,True,60,0
ZC-K-23K23S1,8,training,120,←,left,←,0.6098950000014156,True,60,0
ZC-K-23K23S1,9,training,120,←,left,←,0.7285019000992179,True,60,0
ZC-K-23K23S1,10,training,120,→,right,→,0.7542036999948323,True,60,0
ZC-K-23K23S1,11,training,120,↓,down,↓,0.5926371000241488,True,60,0
ZC-K-23K23S1,12,training,120,→,right,→,0.7301284000277519,True,60,0
ZC-K-23K23S1,13,training,120,→,right,→,0.7402437999844551,True,60,0
ZC-K-23K23S1,14,training,120,→,right,→,0.5426808001939207,True,60,0
ZC-K-23K23S1,15,training,120,←,left,←,0.8229555001016706,True,60,0
ZC-K-23K23S1,16,training,120,→,left,←,0.6416104999370873,False,60,0
ZC-K-23K23S1,17,training,120,↓,up,↑,0.9062302999664098,False,60,0
ZC-K-23K23S1,18,training,120,↓,no_key,no_letter,-1.0,False,60,0
ZC-K-23K23S1,19,training,120,↓,down,↓,0.8852664998266846,True,60,0
ZC-K-23K23S1,20,training,120,→,right,→,0.6509961998090148,True,60,0
ZC-K-23K23S1,21,no_adaptation,120,→,right,→,0.7382406999822706,True,36,0
ZC-K-23K23S1,22,no_adaptation,120,→,right,→,0.6835614000447094,True,36,0
ZC-K-23K23S1,23,no_adaptation,120,←,left,←,0.7189940998796374,True,36,0
ZC-K-23K23S1,24,no_adaptation,120,↑,up,↑,0.7931697000749409,True,36,0
ZC-K-23K23S1,25,no_adaptation,120,↑,up,↑,0.5845208999235183,True,36,0
ZC-K-23K23S1,26,no_adaptation,120,→,right,→,0.5686752998735756,True,36,0
ZC-K-23K23S1,27,no_adaptation,120,↑,up,↑,0.5446720998734236,True,36,0
ZC-K-23K23S1,28,no_adaptation,120,↓,down,↓,0.7939456000458449,True,36,0
ZC-K-23K23S1,29,no_adaptation,120,↑,up,↑,0.6492920001037419,True,36,0
ZC-K-23K23S1,30,no_adaptation,120,→,right,→,0.6065417998470366,True,36,0
ZC-K-23K23S1,31,no_adaptation,120,↑,up,↑,0.7090799999423325,True,36,0
ZC-K-23K23S1,32,no_adaptation,120,→,right,→,0.5760057999286801,True,36,0
ZC-K-23K23S1,33,no_adaptation,120,←,left,←,0.5921832998283207,True,36,0
ZC-K-23K23S1,34,no_adaptation,120,→,right,→,0.5276651000604033,True,36,0
ZC-K-23K23S1,35,no_adaptation,120,↓,down,↓,0.6817749000620097,True,36,0
ZC-K-23K23S1,36,no_adaptation,120,↑,up,↑,0.4780854000709951,True,36,0
ZC-K-23K23S1,37,no_adaptation,120,↑,up,↑,0.513450900092721,True,36,0
ZC-K-23K23S1,38,no_adaptation,120,↑,up,↑,0.5638849998358637,True,36,0
ZC-K-23K23S1,39,no_adaptation,120,→,right,→,0.6281449000816792,True,36,0
ZC-K-23K23S1,40,no_adaptation,120,↓,down,↓,0.6422446998767555,True,36,0
ZC-K-23K23S1,41,training,84,↑,up,↑,0.6268623000942171,True,36,0
ZC-K-23K23S1,42,training,65,→,right,→,0.9157665001694113,True,36,1
ZC-K-23K23S1,43,experiment,100,←,left,←,0.5174332999158651,True,36,1
ZC-K-23K23S1,44,experiment,51,↓,down,↓,0.7273879998829216,True,36,1
ZC-K-23K23S1,45,experiment,86,↑,up,↑,0.6137105999514461,True,36,1
ZC-K-23K23S1,46,experiment,90,↑,up,↑,0.5026418999768794,True,36,1
ZC-K-23K23S1,47,experiment,57,↑,up,↑,0.4719068999402225,True,36,1
ZC-K-23K23S1,48,experiment,48,↑,up,↑,0.46854490018449724,True,36,0
ZC-K-23K23S1,49,experiment,56,←,left,←,0.5101918999571353,True,36,0
ZC-K-23K23S1,50,experiment,70,←,up,↑,0.48282229993492365,False,36,1
ZC-K-23K23S1,51,experiment,84,↑,up,↑,0.6667350002098829,True,36,1
ZC-K-23K23S1,52,experiment,77,↑,up,↑,0.6141355999279767,True,36,1
ZC-K-23K23S1,53,experiment,103,↓,down,↓,0.6746743000112474,True,36,1
ZC-K-23K23S1,54,experiment,92,←,right,→,0.6408830999862403,False,36,1
ZC-K-23K23S1,55,experiment,53,↑,up,↑,0.6299428001511842,True,36,1
ZC-K-23K23S1,56,experiment,108,↓,down,↓,0.6876245997846127,True,36,1
ZC-K-23K23S1,57,experiment,79,↑,up,↑,0.5854944998864084,True,36,1
ZC-K-23K23S1,58,experiment,61,←,left,←,0.5256586000323296,True,36,1
ZC-K-23K23S1,59,experiment,82,↓,down,↓,0.7248547000344843,True,36,1
ZC-K-23K23S1,60,experiment,89,↑,up,↑,0.5298425999935716,True,36,1
ZC-K-23K23S1,61,experiment,49,→,right,→,0.9558739999774843,True,36,1
ZC-K-23K23S1,62,experiment,101,→,right,→,0.8916040998883545,True,36,1
ZC-K-23K23S1,63,experiment,106,↓,down,↓,0.7404424000997096,True,36,1
ZC-K-23K23S1,64,experiment,80,↑,up,↑,0.5797499001491815,True,36,1
ZC-K-23K23S1,65,experiment,104,↑,up,↑,0.6738064999226481,True,36,1
ZC-K-23K23S1,66,experiment,50,→,right,→,0.6696560999844223,True,36,1
ZC-K-23K23S1,67,experiment,75,→,right,→,0.7457498000003397,True,36,1
ZC-K-23K23S1,68,experiment,63,↑,up,↑,0.622490799985826,True,36,1
ZC-K-23K23S1,69,experiment,55,↓,down,↓,0.6988519001752138,True,36,1
ZC-K-23K23S1,70,experiment,62,↑,up,↑,0.7859100999776274,True,36,1
ZC-K-23K23S1,71,experiment,73,→,right,→,0.6419723001308739,True,36,1
ZC-K-23K23S1,72,experiment,59,↓,down,↓,0.8045091999229044,True,36,1
ZC-K-23K23S1,73,experiment,76,→,no_key,no_letter,-1.0,False,36,1
ZC-K-23K23S1,74,experiment,91,↑,up,↑,0.6771090000402182,True,36,1
ZC-K-23K23S1,75,experiment,65,←,left,←,0.5880905999802053,True,36,1
ZC-K-23K23S1,76,experiment,99,↑,up,↑,0.7870324000250548,True,36,1
ZC-K-23K23S1,77,experiment,96,↑,up,↑,0.579579999903217,True,36,1
ZC-K-23K23S1,78,experiment,54,↓,down,↓,0.7618979001417756,True,36,1
ZC-K-23K23S1,79,experiment,69,↑,up,↑,0.7241754999849945,True,36,1
ZC-K-23K23S1,80,experiment,71,↑,up,↑,0.6713461999315768,True,36,1
ZC-K-23K23S1,81,experiment,78,↑,up,↑,0.618359100073576,True,36,1
ZC-K-23K23S1,82,experiment,107,↓,down,↓,0.725584999890998,True,36,1
ZC-K-23K23S1,83,experiment,83,→,right,→,0.7726518998388201,True,36,1
ZC-K-23K23S1,84,experiment,72,←,left,←,0.6375941999722272,True,36,1
ZC-K-23K23S1,85,experiment,95,→,right,→,0.5875945000443608,True,36,1
ZC-K-23K23S1,86,experiment,64,←,right,→,1.6386051999870688,False,36,1
ZC-K-23K23S1,87,experiment,105,↓,down,↓,1.0572265998926014,True,36,1
ZC-K-23K23S1,88,experiment,88,↑,up,↑,0.5772452000528574,True,36,1
ZC-K-23K23S1,89,experiment,66,↓,down,↓,0.8039718999061733,True,36,1
ZC-K-23K23S1,90,experiment,102,←,left,←,0.6733279000036418,True,36,1
ZC-K-23K23S1,91,experiment,67,↑,up,↑,0.631929999915883,True,36,1
ZC-K-23K23S1,92,experiment,52,←,left,←,0.6689011000562459,True,36,1
ZC-K-23K23S1,93,experiment,93,↓,down,↓,0.7791424999013543,True,36,1
ZC-K-23K23S1,94,experiment,81,↓,down,↓,0.688631100114435,True,36,1
ZC-K-23K23S1,95,experiment,58,↓,down,↓,0.8252722001634538,True,36,1
ZC-K-23K23S1,96,experiment,94,→,right,→,0.7606313999276608,True,36,1
ZC-K-23K23S1,97,experiment,97,←,left,←,0.6658503001090139,True,36,1
ZC-K-23K23S1,98,experiment,87,←,left,←,0.7139284000732005,True,36,1
ZC-K-23K23S1,99,experiment,98,↓,down,↓,0.8122364000882953,True,36,1
ZC-K-23K23S1,100,experiment,60,→,right,→,0.8877101999241859,True,36,1
ZC-K-23K23S1,101,experiment,74,↓,down,↓,0.6028255999553949,True,36,1
ZC-K-23K23S1,102,experiment,85,→,right,→,0.7742242999374866,True,36,1
ZC-K-23K23S1,103,experiment,68,↓,down,↓,0.5522640999406576,True,36,1
ZC-K-23K23S1,104,training,100,→,right,→,0.6529558999463916,True,35,0
ZC-K-23K23S1,105,training,80,→,right,→,0.6549140000715852,True,35,1
ZC-K-23K23S1,106,experiment,69,→,right,→,0.9173163000959903,True,35,1
ZC-K-23K23S1,107,experiment,88,↑,up,↑,0.6590450999792665,True,35,1
ZC-K-23K23S1,108,experiment,104,↑,up,↑,0.7178680999204516,True,35,1
ZC-K-23K23S1,109,experiment,105,→,right,→,0.5258795998524874,True,35,1
ZC-K-23K23S1,110,experiment,71,↑,up,↑,0.5769376999232918,True,35,1
ZC-K-23K23S1,111,experiment,56,→,right,→,0.6788998001720756,True,35,1
ZC-K-23K23S1,112,experiment,97,←,left,←,0.6188942000735551,True,35,1
ZC-K-23K23S1,113,experiment,72,←,right,→,0.7145827999338508,False,35,1
ZC-K-23K23S1,114,experiment,76,←,left,←,0.5956613998860121,True,35,1
ZC-K-23K23S1,115,experiment,92,↑,up,↑,0.764679899904877,True,35,1
ZC-K-23K23S1,116,experiment,57,←,left,←,0.714712800225243,True,35,1
ZC-K-23K23S1,117,experiment,75,→,right,→,0.6288077000062913,True,35,1
ZC-K-23K23S1,118,experiment,54,←,left,←,0.6576783999335021,True,35,1
ZC-K-23K23S1,119,experiment,94,↑,up,↑,0.5676382998935878,True,35,1
ZC-K-23K23S1,120,experiment,55,↓,down,↓,0.7343726998660713,True,35,1
ZC-K-23K23S1,121,experiment,52,↑,up,↑,0.8794682999141514,True,35,1
ZC-K-23K23S1,122,experiment,65,→,right,→,0.6141599998809397,True,35,1
ZC-K-23K23S1,123,experiment,80,→,right,→,0.602718000067398,True,35,1
ZC-K-23K23S1,124,experiment,49,→,left,←,0.8422458998393267,False,35,1
ZC-K-23K23S1,125,experiment,77,→,right,→,0.7425026998389512,True,35,1
ZC-K-23K23S1,126,experiment,99,→,right,→,0.6634905999526381,True,35,1
ZC-K-23K23S1,127,experiment,63,←,left,←,0.6635493999347091,True,35,1
ZC-K-23K23S1,128,experiment,93,↓,down,↓,0.805532000027597,True,35,1
ZC-K-23K23S1,129,experiment,51,←,left,←,0.8119707000441849,True,35,1
ZC-K-23K23S1,130,experiment,78,←,right,→,0.7212044999469072,False,35,1
ZC-K-23K23S1,131,experiment,102,←,left,←,0.666389900026843,True,35,1
ZC-K-23K23S1,132,experiment,64,↑,up,↑,0.7620399000588804,True,35,1
ZC-K-23K23S1,133,experiment,79,←,left,←,0.7769321999512613,True,35,1
ZC-K-23K23S1,134,experiment,96,↓,down,↓,0.7936810001265258,True,35,1
ZC-K-23K23S1,135,experiment,100,→,right,→,0.8245257998351008,True,35,1
ZC-K-23K23S1,136,experiment,48,↓,down,↓,0.6471023000776768,True,35,1
ZC-K-23K23S1,137,experiment,58,↓,down,↓,0.6656276001594961,True,35,1
ZC-K-23K23S1,138,experiment,74,↑,up,↑,0.5978127999696881,True,35,1
ZC-K-23K23S1,139,experiment,103,↑,up,↑,0.6113472001161426,True,35,1
ZC-K-23K23S1,140,experiment,73,→,right,→,0.5703068000730127,True,35,1
ZC-K-23K23S1,141,experiment,50,←,left,←,0.5545952001120895,True,35,1
ZC-K-23K23S1,142,experiment,68,↓,up,↑,0.837337699951604,False,35,1
ZC-K-23K23S1,143,experiment,60,↓,down,↓,0.7517631999216974,True,35,1
ZC-K-23K23S1,144,experiment,107,←,left,←,0.6057496999856085,True,35,1
ZC-K-23K23S1,145,experiment,108,→,right,→,0.6970003000460565,True,35,1
ZC-K-23K23S1,146,experiment,89,→,right,→,0.7433543000370264,True,35,1
ZC-K-23K23S1,147,experiment,82,→,right,→,0.7660173000767827,True,35,1
ZC-K-23K23S1,148,experiment,81,↑,up,↑,0.6520683001726866,True,35,1
ZC-K-23K23S1,149,experiment,95,↓,down,↓,0.7301385998725891,True,35,1
ZC-K-23K23S1,150,experiment,61,↑,up,↑,1.3680285001173615,True,35,1
ZC-K-23K23S1,151,experiment,66,↑,up,↑,0.6990104999858886,True,35,1
ZC-K-23K23S1,152,experiment,67,←,left,←,0.5283996998332441,True,35,1
ZC-K-23K23S1,153,experiment,70,↑,up,↑,0.723764699883759,True,35,1
ZC-K-23K23S1,154,experiment,83,↑,up,↑,0.5388631999958307,True,35,1
ZC-K-23K23S1,155,experiment,86,→,right,→,0.8962423000484705,True,35,1
ZC-K-23K23S1,156,experiment,101,→,right,→,0.6265205999370664,True,35,1
ZC-K-23K23S1,157,experiment,106,↓,down,↓,0.654053800040856,True,35,1
ZC-K-23K23S1,158,experiment,91,→,right,→,0.6771998999174684,True,35,1
ZC-K-23K23S1,159,experiment,90,→,left,←,0.7161095000337809,False,35,1
ZC-K-23K23S1,160,experiment,62,↓,down,↓,0.7301915001589805,True,35,1
ZC-K-23K23S1,161,experiment,98,↑,up,↑,0.7320528998970985,True,35,1
ZC-K-23K23S1,162,experiment,59,↑,up,↑,0.7627115000505,True,35,1
ZC-K-23K23S1,163,experiment,85,↑,up,↑,0.6318965998943895,True,35,1
ZC-K-23K23S1,164,experiment,87,←,left,←,0.609162800014019,True,35,1
ZC-K-23K23S1,165,experiment,53,↑,up,↑,0.7108872998505831,True,35,1
ZC-K-23K23S1,166,experiment,84,↑,up,↑,0.5662986999377608,True,35,1
ZC-K-23K23S1,167,training,84,←,left,←,0.5812558999750763,True,34,0
ZC-K-23K23S1,168,training,99,→,right,→,0.620371799916029,True,34,1
ZC-K-23K23S1,169,experiment,62,↓,down,↓,0.7988631001207978,True,34,1
ZC-K-23K23S1,170,experiment,57,↑,up,↑,0.7234667001757771,True,34,1
ZC-K-23K23S1,171,experiment,91,↓,down,↓,0.6638470999896526,True,34,1
ZC-K-23K23S1,172,experiment,85,←,left,←,0.6247378000989556,True,34,1
ZC-K-23K23S1,173,experiment,101,↓,down,↓,0.6458459000568837,True,34,1
ZC-K-23K23S1,174,experiment,102,→,right,→,0.5614318000152707,True,34,1
ZC-K-23K23S1,175,experiment,99,↑,up,↑,0.55384900001809,True,34,1
ZC-K-23K23S1,176,experiment,80,↓,down,↓,0.6646772001404315,True,34,1
ZC-K-23K23S1,177,experiment,76,↑,up,↑,0.5726415000390261,True,34,1
ZC-K-23K23S1,178,experiment,97,→,right,→,0.6771962998900563,True,34,1
ZC-K-23K23S1,179,experiment,89,↓,down,↓,0.7321082998532802,True,34,1
ZC-K-23K23S1,180,experiment,81,↓,down,↓,0.6833894001320004,True,34,1
ZC-K-23K23S1,181,experiment,68,←,left,←,0.6568914998788387,True,34,1
ZC-K-23K23S1,182,experiment,64,↓,down,↓,0.6330178000498563,True,34,1
ZC-K-23K23S1,183,experiment,67,→,right,→,0.6331013001035899,True,34,1
ZC-K-23K23S1,184,experiment,104,↓,down,↓,0.6848107001278549,True,34,1
ZC-K-23K23S1,185,experiment,90,←,left,←,0.6590869000647217,True,34,1
ZC-K-23K23S1,186,experiment,108,←,left,←,0.6764995001722127,True,34,1
ZC-K-23K23S1,187,experiment,86,↑,down,↓,0.908577699912712,False,34,1
ZC-K-23K23S1,188,experiment,66,↑,up,↑,0.7538453999441117,True,34,1
ZC-K-23K23S1,189,experiment,95,→,right,→,0.651643899967894,True,34,1
ZC-K-23K23S1,190,experiment,52,↑,up,↑,0.7206804000306875,True,34,1
ZC-K-23K23S1,191,experiment,65,←,left,←,0.5653626001439989,True,34,1
ZC-K-23K23S1,192,experiment,96,↑,up,↑,0.5664017000235617,True,34,1
ZC-K-23K23S1,193,experiment,61,→,right,→,0.6990960000548512,True,34,1
ZC-K-23K23S1,194,experiment,92,↑,up,↑,0.6321975998580456,True,34,1
ZC-K-23K23S1,195,experiment,103,↓,down,↓,0.6282391001004726,True,34,1
ZC-K-23K23S1,196,experiment,100,↑,up,↑,0.6657504001632333,True,34,1
ZC-K-23K23S1,197,experiment,78,→,right,→,0.6285200000274926,True,34,1
ZC-K-23K23S1,198,experiment,56,←,left,←,0.6408565999008715,True,34,1
ZC-K-23K23S1,199,experiment,58,↑,up,↑,0.6196445999667048,True,34,1
ZC-K-23K23S1,200,experiment,70,←,left,←,0.7872690998483449,True,34,1
ZC-K-23K23S1,201,experiment,60,↓,down,↓,0.6791758998297155,True,34,1
ZC-K-23K23S1,202,experiment,73,↑,no_key,no_letter,-1.0,False,34,1
ZC-K-23K23S1,203,experiment,83,↑,up,↑,0.7690884000621736,True,34,1
ZC-K-23K23S1,204,experiment,49,↑,up,↑,0.6259482000023127,True,34,1
ZC-K-23K23S1,205,experiment,69,→,right,→,0.6657664000522345,True,34,1
ZC-K-23K23S1,206,experiment,93,→,right,→,0.7038271001074463,True,34,1
ZC-K-23K23S1,207,experiment,72,→,left,←,0.7475539001170546,False,34,1
ZC-K-23K23S1,208,experiment,51,→,right,→,0.6765052000992,True,34,1
ZC-K-23K23S1,209,experiment,75,↑,up,↑,0.6557569999713451,True,34,1
ZC-K-23K23S1,210,experiment,71,→,right,→,0.6535544998478144,True,34,1
ZC-K-23K23S1,211,experiment,94,↓,down,↓,0.6679237000644207,True,34,1
ZC-K-23K23S1,212,experiment,48,↑,up,↑,0.745042199967429,True,34,1
ZC-K-23K23S1,213,experiment,63,←,left,←,0.5981024000793695,True,34,1
ZC-K-23K23S1,214,experiment,77,→,right,→,1.0363655001856387,True,34,1
ZC-K-23K23S1,215,experiment,84,↓,down,↓,0.6706409000325948,True,34,1
ZC-K-23K23S1,216,experiment,106,←,left,←,0.6080136001110077,True,34,1
ZC-K-23K23S1,217,experiment,59,←,left,←,0.595808699959889,True,34,1
ZC-K-23K23S1,218,experiment,53,←,left,←,0.5142272000666708,True,34,1
ZC-K-23K23S1,219,experiment,105,↓,down,↓,0.6022627998609096,True,34,1
ZC-K-23K23S1,220,experiment,74,←,left,←,0.6093862000852823,True,34,1
ZC-K-23K23S1,221,experiment,50,↑,up,↑,0.6803182999137789,True,34,1
ZC-K-23K23S1,222,experiment,82,←,left,←,0.5693678001407534,True,34,1
ZC-K-23K23S1,223,experiment,87,←,left,←,0.5495288998354226,True,34,1
ZC-K-23K23S1,224,experiment,79,←,left,←,0.6926909000612795,True,34,1
ZC-K-23K23S1,225,experiment,54,→,left,←,0.6947520999237895,False,34,1
ZC-K-23K23S1,226,experiment,98,→,left,←,0.6658158001955599,False,34,1
ZC-K-23K23S1,227,experiment,55,←,left,←,0.6447800998575985,True,34,1
ZC-K-23K23S1,228,experiment,107,←,left,←,0.6391505000647157,True,34,1
ZC-K-23K23S1,229,experiment,88,←,left,←,0.648372899973765,True,34,1
ZC-K-23K23S1,230,training,98,←,left,←,0.5976886998396367,True,33,0
ZC-K-23K23S1,231,training,63,↓,down,↓,0.7924615999218076,True,33,1
ZC-K-23K23S1,232,experiment,72,←,left,←,0.51248349994421,True,33,1
ZC-K-23K23S1,233,experiment,94,↑,up,↑,0.7564600999467075,True,33,1
ZC-K-23K23S1,234,experiment,100,↑,up,↑,0.700163200031966,True,33,1
ZC-K-23K23S1,235,experiment,77,↓,down,↓,0.7182312000077218,True,33,1
ZC-K-23K23S1,236,experiment,97,←,left,←,0.5769150999840349,True,33,1
ZC-K-23K23S1,237,experiment,88,↑,up,↑,0.588234200142324,True,33,1
ZC-K-23K23S1,238,experiment,92,↓,up,↑,0.6057619999628514,False,33,1
ZC-K-23K23S1,239,experiment,67,←,left,←,0.7027553000953048,True,33,1
ZC-K-23K23S1,240,experiment,108,↑,up,↑,0.6864577000960708,True,33,1
ZC-K-23K23S1,241,experiment,53,→,right,→,0.6413539999630302,True,33,1
ZC-K-23K23S1,242,experiment,76,↓,down,↓,0.7499088998883963,True,33,1
ZC-K-23K23S1,243,experiment,91,↓,down,↓,0.7132717999629676,True,33,1
ZC-K-23K23S1,244,experiment,56,↓,down,↓,0.6976926000788808,True,33,1
ZC-K-23K23S1,245,experiment,84,↓,down,↓,0.6972349998541176,True,33,1
ZC-K-23K23S1,246,experiment,55,↑,down,↓,0.7949746001977473,False,33,1
ZC-K-23K23S1,247,experiment,51,↓,down,↓,0.8665219999384135,True,33,1
ZC-K-23K23S1,248,experiment,59,↓,down,↓,0.6993637001141906,True,33,1
ZC-K-23K23S1,249,experiment,93,↑,down,↓,1.3280524997971952,False,33,1
ZC-K-23K23S1,250,experiment,65,↑,down,↓,0.7488309999462217,False,33,1
ZC-K-23K23S1,251,experiment,85,←,left,←,0.7143256000708789,True,33,1
ZC-K-23K23S1,252,experiment,64,→,right,→,0.7119382000528276,True,33,1
ZC-K-23K23S1,253,experiment,82,←,left,←,0.608071600086987,True,33,1
ZC-K-23K23S1,254,experiment,63,↓,down,↓,0.6424088999629021,True,33,1
ZC-K-23K23S1,255,experiment,61,→,right,→,0.5641372001264244,True,33,1
ZC-K-23K23S1,256,experiment,71,↓,down,↓,0.7577500001061708,True,33,1
ZC-K-23K23S1,257,experiment,98,→,right,→,0.6541788000613451,True,33,1
ZC-K-23K23S1,258,experiment,101,→,right,→,0.6502348999492824,True,33,1
ZC-K-23K23S1,259,experiment,83,↑,up,↑,0.7962545000482351,True,33,1
ZC-K-23K23S1,260,experiment,66,↑,up,↑,0.750563699984923,True,33,1
ZC-K-23K23S1,261,experiment,96,↓,down,↓,0.6400200999341905,True,33,1
ZC-K-23K23S1,262,experiment,95,↓,down,↓,0.5663821999914944,True,33,1
ZC-K-23K23S1,263,experiment,48,↑,down,↓,1.0635822000913322,False,33,1
ZC-K-23K23S1,264,experiment,80,→,right,→,0.6737465998157859,True,33,1
ZC-K-23K23S1,265,experiment,106,←,left,←,0.6513494998216629,True,33,1
ZC-K-23K23S1,266,experiment,86,↓,down,↓,0.7963956000749022,True,33,1
ZC-K-23K23S1,267,experiment,87,↓,left,←,1.2393908000085503,False,33,1
ZC-K-23K23S1,268,experiment,81,←,left,←,1.3059611998032779,True,33,1
ZC-K-23K23S1,269,experiment,70,→,right,→,0.6701379001606256,True,33,1
ZC-K-23K23S1,270,experiment,103,↓,down,↓,0.6808754000812769,True,33,1
ZC-K-23K23S1,271,experiment,74,↑,down,↓,0.6685398002155125,False,33,1
ZC-K-23K23S1,272,experiment,62,↑,up,↑,1.4931531001348048,True,33,1
ZC-K-23K23S1,273,experiment,104,↓,down,↓,1.5664165001362562,True,33,1
ZC-K-23K23S1,274,experiment,105,↑,up,↑,0.8523353000637144,True,33,1
ZC-K-23K23S1,275,experiment,50,→,right,→,0.8492843999993056,True,33,1
ZC-K-23K23S1,276,experiment,99,↑,up,↑,0.9258661000058055,True,33,1
ZC-K-23K23S1,277,experiment,57,←,right,→,1.3334156000055373,False,33,1
ZC-K-23K23S1,278,experiment,79,↑,up,↑,0.7179839999880642,True,33,1
ZC-K-23K23S1,279,experiment,60,↑,up,↑,0.8527141001541167,True,33,1
ZC-K-23K23S1,280,experiment,73,←,right,→,0.9058924000710249,False,33,1
ZC-K-23K23S1,281,experiment,89,←,left,←,0.735579099971801,True,33,1
ZC-K-23K23S1,282,experiment,58,↓,down,↓,0.7106612001080066,True,33,1
ZC-K-23K23S1,283,experiment,54,←,left,←,0.6238788000773638,True,33,1
ZC-K-23K23S1,284,experiment,49,↓,down,↓,0.7664540999103338,True,33,1
ZC-K-23K23S1,285,experiment,69,↓,down,↓,0.5524758999235928,True,33,1
ZC-K-23K23S1,286,experiment,75,↑,up,↑,0.6811539998743683,True,33,1
ZC-K-23K23S1,287,experiment,90,↑,up,↑,0.6558008999563754,True,33,1
ZC-K-23K23S1,288,experiment,78,↓,down,↓,0.6191899999976158,True,33,1
ZC-K-23K23S1,289,experiment,102,→,right,→,1.0878977000247687,True,33,1
ZC-K-23K23S1,290,experiment,52,↑,up,↑,1.402708699926734,True,33,1
ZC-K-23K23S1,291,experiment,68,→,left,←,1.435780000174418,False,33,1
ZC-K-23K23S1,292,experiment,107,↓,down,↓,0.6381552000530064,True,33,1
ZC-K-23K23S1,293,training,83,→,right,→,0.8363646001089364,True,33,0
ZC-K-23K23S1,294,training,101,↑,up,↑,0.6489800999406725,True,33,1
ZC-K-23K23S1,295,experiment,65,←,left,←,0.5691276001743972,True,33,1
ZC-K-23K23S1,296,experiment,99,→,right,→,0.6568978000432253,True,33,1
ZC-K-23K23S1,297,experiment,60,←,left,←,0.6105817998759449,True,33,1
ZC-K-23K23S1,298,experiment,64,↓,down,↓,0.7085619000717998,True,33,1
ZC-K-23K23S1,299,experiment,84,→,right,→,0.5479393999557942,True,33,1
ZC-K-23K23S1,300,experiment,49,↓,down,↓,0.6532733999192715,True,33,1
ZC-K-23K23S1,301,experiment,108,←,left,←,0.7031692999880761,True,33,1
ZC-K-23K23S1,302,experiment,53,↑,up,↑,1.145091300131753,True,33,1
ZC-K-23K23S1,303,experiment,94,↓,down,↓,0.8837198000401258,True,33,1
ZC-K-23K23S1,304,experiment,50,↓,down,↓,0.6237115000840276,True,33,1
ZC-K-23K23S1,305,experiment,74,↓,down,↓,0.9657017001882195,True,33,1
ZC-K-23K23S1,306,experiment,102,→,right,→,0.7164528998546302,True,33,1
ZC-K-23K23S1,307,experiment,85,↑,up,↑,0.8112864999566227,True,33,1
ZC-K-23K23S1,308,experiment,73,→,right,→,0.658286000136286,True,33,1
ZC-K-23K23S1,309,experiment,67,↓,down,↓,0.769223100040108,True,33,1
ZC-K-23K23S1,310,experiment,95,←,left,←,0.6343731998931617,True,33,1
ZC-K-23K23S1,311,experiment,70,←,left,←,0.5856723000761122,True,33,1
ZC-K-23K23S1,312,experiment,72,↓,down,↓,0.7627307998482138,True,33,1
ZC-K-23K23S1,313,experiment,54,↓,down,↓,0.641400899970904,True,33,1
ZC-K-23K23S1,314,experiment,105,←,left,←,0.7242877001408488,True,33,1
ZC-K-23K23S1,315,experiment,92,↑,up,↑,0.6325689000077546,True,33,1
ZC-K-23K23S1,316,experiment,59,←,left,←,0.6992418000008911,True,33,1
ZC-K-23K23S1,317,experiment,62,↓,down,↓,0.6021920999046415,True,33,1
ZC-K-23K23S1,318,experiment,100,→,right,→,0.5367451999336481,True,33,1
ZC-K-23K23S1,319,experiment,83,→,right,→,0.92750160000287,True,33,1
ZC-K-23K23S1,320,experiment,93,→,right,→,0.587194399908185,True,33,1
ZC-K-23K23S1,321,experiment,69,↑,up,↑,0.6843328000977635,True,33,1
ZC-K-23K23S1,322,experiment,61,←,left,←,0.516200999962166,True,33,1
ZC-K-23K23S1,323,experiment,101,←,left,←,0.5814897001255304,True,33,1
ZC-K-23K23S1,324,experiment,91,←,left,←,0.527661400148645,True,33,1
ZC-K-23K23S1,325,experiment,87,←,left,←,0.49339530011639,True,33,1
ZC-K-23K23S1,326,experiment,89,↓,down,↓,0.7477365999948233,True,33,1
ZC-K-23K23S1,327,experiment,51,↑,up,↑,0.6442334000021219,True,33,1
ZC-K-23K23S1,328,experiment,106,←,right,→,1.3912064000032842,False,33,1
ZC-K-23K23S1,329,experiment,88,↓,down,↓,0.762091499986127,True,33,1
ZC-K-23K23S1,330,experiment,96,→,right,→,0.6351016000844538,True,33,1
ZC-K-23K23S1,331,experiment,97,↓,down,↓,0.5771647999063134,True,33,1
ZC-K-23K23S1,332,experiment,75,↑,up,↑,0.6088896999135613,True,33,1
ZC-K-23K23S1,333,experiment,77,↑,up,↑,0.526594600174576,True,33,1
ZC-K-23K23S1,334,experiment,82,↑,up,↑,0.5898447998333722,True,33,1
ZC-K-23K23S1,335,experiment,103,→,right,→,0.5798567000310868,True,33,1
ZC-K-23K23S1,336,experiment,79,→,right,→,0.6981112998910248,True,33,1
ZC-K-23K23S1,337,experiment,90,→,right,→,0.5437900999095291,True,33,1
ZC-K-23K23S1,338,experiment,63,↓,down,↓,0.8691171000245959,True,33,1
ZC-K-23K23S1,339,experiment,98,↑,up,↑,0.5932082999497652,True,33,1
ZC-K-23K23S1,340,experiment,57,←,left,←,0.5343629000708461,True,33,1
ZC-K-23K23S1,341,experiment,80,←,left,←,0.5900532999075949,True,33,1
ZC-K-23K23S1,342,experiment,58,→,right,→,0.8587778999935836,True,33,1
ZC-K-23K23S1,343,experiment,104,←,left,←,0.6214437999296933,True,33,1
ZC-K-23K23S1,344,experiment,78,↓,down,↓,0.962014100048691,True,33,1
ZC-K-23K23S1,345,experiment,48,↑,up,↑,1.5075270000379533,True,33,1
ZC-K-23K23S1,346,experiment,52,→,right,→,1.0134720001369715,True,33,1
ZC-K-23K23S1,347,experiment,68,→,right,→,0.5580221000127494,True,33,1
ZC-K-23K23S1,348,experiment,56,←,left,←,0.7006169001106173,True,33,1
ZC-K-23K23S1,349,experiment,71,←,left,←,0.6727171000093222,True,33,1
ZC-K-23K23S1,350,experiment,76,↓,down,↓,0.6599954999983311,True,33,1
ZC-K-23K23S1,351,experiment,66,→,right,→,0.6434069001115859,True,33,1
ZC-K-23K23S1,352,experiment,86,↑,up,↑,0.8608967000618577,True,33,1
ZC-K-23K23S1,353,experiment,55,↓,up,↑,1.447864199988544,False,33,1
ZC-K-23K23S1,354,experiment,81,↑,up,↑,0.9307389999739826,True,33,1
ZC-K-23K23S1,355,experiment,107,↑,up,↑,1.5372635000385344,True,33,1
ZC-K-23K23S1,356,training,58,←,left,←,0.5367506998591125,True,32,0
ZC-K-23K23S1,357,training,54,↓,down,↓,0.6492937998846173,True,32,1
ZC-K-23K23S1,358,experiment,107,→,right,→,0.8832254998851568,True,32,1
ZC-K-23K23S1,359,experiment,102,↑,up,↑,0.6216107001528144,True,32,1
ZC-K-23K23S1,360,experiment,53,↑,up,↑,0.6509074000641704,True,32,1
ZC-K-23K23S1,361,experiment,52,↓,down,↓,0.6392704001627862,True,32,1
ZC-K-23K23S1,362,experiment,54,←,left,←,0.6113519999198616,True,32,1
ZC-K-23K23S1,363,experiment,69,↓,down,↓,0.5558227000292391,True,32,1
ZC-K-23K23S1,364,experiment,61,↑,up,↑,0.8808550999965519,True,32,1
ZC-K-23K23S1,365,experiment,80,↓,down,↓,0.6346148001030087,True,32,1
ZC-K-23K23S1,366,experiment,96,↑,up,↑,0.6965564000420272,True,32,1
ZC-K-23K23S1,367,experiment,67,↓,down,↓,0.7823767999652773,True,32,1
ZC-K-23K23S1,368,experiment,64,←,left,←,0.5693052001297474,True,32,1
ZC-K-23K23S1,369,experiment,75,←,left,←,0.5612686001695693,True,32,1
ZC-K-23K23S1,370,experiment,85,↑,up,↑,0.6064490000717342,True,32,1
ZC-K-23K23S1,371,experiment,74,→,right,→,0.5733008999377489,True,32,1
ZC-K-23K23S1,372,experiment,59,↓,down,↓,0.5941725999582559,True,32,1
ZC-K-23K23S1,373,experiment,50,→,right,→,0.5857405001297593,True,32,1
ZC-K-23K23S1,374,experiment,93,↓,down,↓,0.5309484000317752,True,32,1
ZC-K-23K23S1,375,experiment,94,→,right,→,1.3740024000871927,True,32,1
ZC-K-23K23S1,376,experiment,55,↓,down,↓,0.5725753998849541,True,32,1
ZC-K-23K23S1,377,experiment,89,←,left,←,0.5513486000709236,True,32,1
ZC-K-23K23S1,378,experiment,88,↓,down,↓,0.6518017998896539,True,32,1
ZC-K-23K23S1,379,experiment,100,↓,down,↓,0.6563164999242872,True,32,1
ZC-K-23K23S1,380,experiment,79,←,left,←,0.5230928000528365,True,32,1
ZC-K-23K23S1,381,experiment,78,→,right,→,0.7238880000077188,True,32,1
ZC-K-23K23S1,382,experiment,70,←,left,←,0.5272254999727011,True,32,1
ZC-K-23K23S1,383,experiment,103,←,left,←,0.6156607000157237,True,32,1
ZC-K-23K23S1,384,experiment,76,↑,up,↑,0.6453273000661284,True,32,1
ZC-K-23K23S1,385,experiment,104,↓,down,↓,0.5846641000825912,True,32,1
ZC-K-23K23S1,386,experiment,57,↑,up,↑,0.9901057998649776,True,32,1
ZC-K-23K23S1,387,experiment,99,↑,up,↑,0.669097000034526,True,32,1
ZC-K-23K23S1,388,experiment,97,↑,down,↓,0.7218476999551058,False,32,1
ZC-K-23K23S1,389,experiment,65,↓,down,↓,0.7507873999420553,True,32,1
ZC-K-23K23S1,390,experiment,92,↓,down,↓,0.5540893001016229,True,32,1
ZC-K-23K23S1,391,experiment,105,↑,up,↑,0.7922590000089258,True,32,1
ZC-K-23K23S1,392,experiment,90,←,left,←,0.8662294999230653,True,32,1
ZC-K-23K23S1,393,experiment,71,↑,up,↑,0.6317344000563025,True,32,1
ZC-K-23K23S1,394,experiment,108,↓,down,↓,0.5862006000243127,True,32,1
ZC-K-23K23S1,395,experiment,66,↓,down,↓,0.740641999989748,True,32,1
ZC-K-23K23S1,396,experiment,87,↑,left,←,0.7614541000220925,False,32,1
ZC-K-23K23S1,397,experiment,60,→,right,→,0.6947095000650734,True,32,1
ZC-K-23K23S1,398,experiment,82,↑,up,↑,0.6077150998171419,True,32,1
ZC-K-23K23S1,399,experiment,51,←,left,←,0.6460772000718862,True,32,1
ZC-K-23K23S1,400,experiment,72,↓,down,↓,0.7159101001452655,True,32,1
ZC-K-23K23S1,401,experiment,95,→,right,→,0.6551006000954658,True,32,1
ZC-K-23K23S1,402,experiment,63,↑,up,↑,0.6715068998746574,True,32,1
ZC-K-23K23S1,403,experiment,58,↑,up,↑,0.5612895998638123,True,32,1
ZC-K-23K23S1,404,experiment,83,←,right,→,0.8549269000068307,False,32,1
ZC-K-23K23S1,405,experiment,86,←,left,←,0.9121020000893623,True,32,1
ZC-K-23K23S1,406,experiment,62,↑,up,↑,0.6947584999725223,True,32,1
ZC-K-23K23S1,407,experiment,98,↓,down,↓,0.7060752999968827,True,32,1
ZC-K-23K23S1,408,experiment,49,↑,up,↑,0.8690472999587655,True,32,1
ZC-K-23K23S1,409,experiment,84,←,left,←,0.5901231998577714,True,32,1
ZC-K-23K23S1,410,experiment,48,→,right,→,0.6066295998170972,True,32,1
ZC-K-23K23S1,411,experiment,106,→,right,→,0.6261131998617202,True,32,1
ZC-K-23K23S1,412,experiment,73,↑,up,↑,0.6647510000038892,True,32,1
ZC-K-23K23S1,413,experiment,91,→,right,→,0.6792983000632375,True,32,1
ZC-K-23K23S1,414,experiment,81,↑,up,↑,0.6486267000436783,True,32,1
ZC-K-23K23S1,415,experiment,56,↑,up,↑,0.587779400171712,True,32,1
ZC-K-23K23S1,416,experiment,77,↑,up,↑,0.5944089000113308,True,32,1
ZC-K-23K23S1,417,experiment,101,←,left,←,0.5847926000133157,True,32,1
ZC-K-23K23S1,418,experiment,68,↑,up,↑,0.7627534000203013,True,32,1
ZC-K-23K23S1,419,training,49,←,left,←,0.5433908000122756,True,31,0
ZC-K-23K23S1,420,training,60,↑,up,↑,0.5576987001113594,True,31,1
ZC-K-23K23S1,421,experiment,78,↑,up,↑,0.6128243000712246,True,31,1
ZC-K-23K23S1,422,experiment,92,↓,down,↓,0.6454870000015944,True,31,1
ZC-K-23K23S1,423,experiment,76,↑,up,↑,0.6181207001209259,True,31,1
ZC-K-23K23S1,424,experiment,91,→,right,→,0.7867095000110567,True,31,1
ZC-K-23K23S1,425,experiment,58,←,left,←,0.5837590999435633,True,31,1
ZC-K-23K23S1,426,experiment,88,→,right,→,0.6588111000601202,True,31,1
ZC-K-23K23S1,427,experiment,102,↑,up,↑,0.5820125001482666,True,31,1
ZC-K-23K23S1,428,experiment,108,←,left,←,0.7626414999831468,True,31,1
ZC-K-23K23S1,429,experiment,95,↓,down,↓,0.7478642000351101,True,31,1
ZC-K-23K23S1,430,experiment,104,↑,up,↑,0.5628425998147577,True,31,1
ZC-K-23K23S1,431,experiment,72,↑,up,↑,0.5803017001599073,True,31,1
ZC-K-23K23S1,432,experiment,87,↑,up,↑,0.6237951999064535,True,31,1
ZC-K-23K23S1,433,experiment,73,←,left,←,0.5900355000048876,True,31,1
ZC-K-23K23S1,434,experiment,52,→,right,→,0.7088256001006812,True,31,1
ZC-K-23K23S1,435,experiment,48,→,right,→,0.5364134002011269,True,31,1
ZC-K-23K23S1,436,experiment,99,←,left,←,1.5537802998442203,True,31,1
ZC-K-23K23S1,437,experiment,66,↓,up,↑,0.8611938001122326,False,31,1
ZC-K-23K23S1,438,experiment,94,↑,up,↑,0.6192232999019325,True,31,1
ZC-K-23K23S1,439,experiment,86,↓,down,↓,0.6695699999108911,True,31,1
ZC-K-23K23S1,440,experiment,54,←,left,←,0.6170872000511736,True,31,1
ZC-K-23K23S1,441,experiment,81,↑,up,↑,0.7086730999872088,True,31,1
ZC-K-23K23S1,442,experiment,74,↓,down,↓,0.6074098001699895,True,31,1
ZC-K-23K23S1,443,experiment,84,←,left,←,0.5389487000647932,True,31,1
ZC-K-23K23S1,444,experiment,85,↑,up,↑,0.592566299950704,True,31,1
ZC-K-23K23S1,445,experiment,59,↓,left,←,0.7414168000686914,False,31,1
ZC-K-23K23S1,446,experiment,68,→,up,↑,1.4163605000358075,False,31,1
ZC-K-23K23S1,447,experiment,93,→,right,→,0.6402827000711113,True,31,1
ZC-K-23K23S1,448,experiment,65,↑,up,↑,0.5925739000085741,True,31,1
ZC-K-23K23S1,449,experiment,61,↓,down,↓,0.6523591000586748,True,31,1
ZC-K-23K23S1,450,experiment,51,↑,down,↓,0.9211689000949264,False,31,1
ZC-K-23K23S1,451,experiment,60,↑,up,↑,0.592376200016588,True,31,1
ZC-K-23K23S1,452,experiment,89,→,right,→,0.6185321998782456,True,31,1
ZC-K-23K23S1,453,experiment,57,←,left,←,0.7346975000109524,True,31,1
ZC-K-23K23S1,454,experiment,105,↑,up,↑,0.5979102000128478,True,31,1
ZC-K-23K23S1,455,experiment,71,←,left,←,0.6301826999988407,True,31,1
ZC-K-23K23S1,456,experiment,75,→,right,→,0.6196069000288844,True,31,1
ZC-K-23K23S1,457,experiment,90,↑,left,←,0.7324687000364065,False,31,1
ZC-K-23K23S1,458,experiment,64,↓,down,↓,0.6417308999225497,True,31,1
ZC-K-23K23S1,459,experiment,106,→,right,→,0.5560156998690218,True,31,1
ZC-K-23K23S1,460,experiment,101,←,left,←,0.6358817999716848,True,31,1
ZC-K-23K23S1,461,experiment,56,←,left,←,0.6237068998161703,True,31,1
ZC-K-23K23S1,462,experiment,67,↓,down,↓,0.7919952000956982,True,31,1
ZC-K-23K23S1,463,experiment,70,↓,down,↓,0.6167353000491858,True,31,1
ZC-K-23K23S1,464,experiment,53,→,right,→,0.6383966999128461,True,31,1
ZC-K-23K23S1,465,experiment,96,→,right,→,0.6125747000332922,True,31,1
ZC-K-23K23S1,466,experiment,103,↑,down,↓,0.7052059001289308,False,31,1
ZC-K-23K23S1,467,experiment,49,↓,down,↓,0.6365607001353055,True,31,1
ZC-K-23K23S1,468,experiment,77,←,left,←,0.6250609999988228,True,31,1
ZC-K-23K23S1,469,experiment,97,→,right,→,0.6154585001058877,True,31,1
ZC-K-23K23S1,470,experiment,98,↓,down,↓,0.541856300085783,True,31,1
ZC-K-23K23S1,471,experiment,79,→,right,→,0.635800999822095,True,31,1
ZC-K-23K23S1,472,experiment,63,↑,up,↑,0.7414619000628591,True,31,1
ZC-K-23K23S1,473,experiment,69,↓,down,↓,0.816278199898079,True,31,1
ZC-K-23K23S1,474,experiment,50,←,left,←,0.6226965999230742,True,31,1
ZC-K-23K23S1,475,experiment,62,→,right,→,0.6328316000290215,True,31,1
ZC-K-23K23S1,476,experiment,55,↓,down,↓,0.6049301999155432,True,31,1
ZC-K-23K23S1,477,experiment,80,↑,up,↑,0.6500176000408828,True,31,1
ZC-K-23K23S1,478,experiment,107,←,left,←,1.0835667999926955,True,31,1
ZC-K-23K23S1,479,experiment,82,↓,down,↓,0.596572499955073,True,31,1
ZC-K-23K23S1,480,experiment,83,←,left,←,0.6726655999664217,True,31,1
ZC-K-23K23S1,481,experiment,100,↓,down,↓,0.6280262998770922,True,31,1
ZC-K-23K23S1,482,training,98,↓,down,↓,0.6812325001228601,True,30,0
ZC-K-23K23S1,483,training,94,↑,up,↑,0.6222443000879139,True,30,1
ZC-K-23K23S1,484,experiment,62,→,right,→,0.5602567999158055,True,30,1
ZC-K-23K23S1,485,experiment,93,←,left,←,0.5786806000396609,True,30,1
ZC-K-23K23S1,486,experiment,106,→,right,→,0.640053799841553,True,30,1
ZC-K-23K23S1,487,experiment,90,↓,down,↓,0.7920753001235425,True,30,1
ZC-K-23K23S1,488,experiment,101,→,right,→,0.5745039999019355,True,30,1
ZC-K-23K23S1,489,experiment,70,↑,up,↑,0.5599050999153405,True,30,1
ZC-K-23K23S1,490,experiment,69,↑,up,↑,0.6502329001668841,True,30,1
ZC-K-23K23S1,491,experiment,71,↑,up,↑,0.584493099944666,True,30,1
ZC-K-23K23S1,492,experiment,108,←,left,←,0.5890244001056999,True,30,1
ZC-K-23K23S1,493,experiment,88,↑,up,↑,0.5913757998496294,True,30,1
ZC-K-23K23S1,494,experiment,102,↓,down,↓,0.7812293998431414,True,30,1
ZC-K-23K23S1,495,experiment,80,↑,up,↑,0.6269371001981199,True,30,1
ZC-K-23K23S1,496,experiment,51,→,left,←,0.816807100083679,False,30,1
ZC-K-23K23S1,497,experiment,54,←,left,←,0.5740161999128759,True,30,1
ZC-K-23K23S1,498,experiment,81,↑,up,↑,0.555547600146383,True,30,1
ZC-K-23K23S1,499,experiment,55,←,left,←,0.6108167001511902,True,30,1
ZC-K-23K23S1,500,experiment,67,→,right,→,0.7878567997831851,True,30,1
ZC-K-23K23S1,501,experiment,50,↓,down,↓,0.7712743999436498,True,30,1
ZC-K-23K23S1,502,experiment,60,↓,down,↓,0.7203611000441015,True,30,1
ZC-K-23K23S1,503,experiment,89,←,left,←,0.5896538000088185,True,30,1
ZC-K-23K23S1,504,experiment,104,→,right,→,0.7152570998296142,True,30,1
ZC-K-23K23S1,505,experiment,94,←,left,←,0.5508220000192523,True,30,1
ZC-K-23K23S1,506,experiment,74,↑,up,↑,0.5597098001744598,True,30,1
ZC-K-23K23S1,507,experiment,65,↑,up,↑,0.547757500084117,True,30,1
ZC-K-23K23S1,508,experiment,75,↑,up,↑,0.6205176000948995,True,30,1
ZC-K-23K23S1,509,experiment,63,←,left,←,0.6223514000885189,True,30,1
ZC-K-23K23S1,510,experiment,72,←,left,←,0.5649925000034273,True,30,1
ZC-K-23K23S1,511,experiment,97,↓,down,↓,0.7497830998618156,True,30,1
ZC-K-23K23S1,512,experiment,85,→,right,→,0.6353255000431091,True,30,1
ZC-K-23K23S1,513,experiment,59,←,left,←,0.614084400003776,True,30,1
ZC-K-23K23S1,514,experiment,86,↓,down,↓,0.632398399990052,True,30,1
ZC-K-23K23S1,515,experiment,84,→,right,→,0.586895699845627,True,30,1
ZC-K-23K23S1,516,experiment,48,↓,down,↓,0.7392037000972778,True,30,1
ZC-K-23K23S1,517,experiment,66,→,right,→,0.6313065998256207,True,30,1
ZC-K-23K23S1,518,experiment,52,→,right,→,0.564210900105536,True,30,1
ZC-K-23K23S1,519,experiment,96,↑,up,↑,0.6615118000190705,True,30,1
ZC-K-23K23S1,520,experiment,49,↑,up,↑,0.5782681000418961,True,30,1
ZC-K-23K23S1,521,experiment,78,←,left,←,0.5129097998142242,True,30,1
ZC-K-23K23S1,522,experiment,73,↑,up,↑,0.5238266000524163,True,30,1
ZC-K-23K23S1,523,experiment,105,→,right,→,0.6116774999536574,True,30,1
ZC-K-23K23S1,524,experiment,64,↑,up,↑,0.5576488000806421,True,30,1
ZC-K-23K23S1,525,experiment,77,→,right,→,0.49326210003346205,True,30,1
ZC-K-23K23S1,526,experiment,58,↑,up,↑,0.61421769997105,True,30,1
ZC-K-23K23S1,527,experiment,68,→,right,→,0.5905009000562131,True,30,1
ZC-K-23K23S1,528,experiment,53,←,right,→,0.7889044999610633,False,30,1
ZC-K-23K23S1,529,experiment,98,↑,right,→,1.1882807000074536,False,30,1
ZC-K-23K23S1,530,experiment,56,←,left,←,0.5615260999184102,True,30,1
ZC-K-23K23S1,531,experiment,76,↑,up,↑,0.6016773001756519,True,30,1
ZC-K-23K23S1,532,experiment,87,↓,up,↑,0.6844425001181662,False,30,1
ZC-K-23K23S1,533,experiment,107,→,right,→,0.637029399862513,True,30,1
ZC-K-23K23S1,534,experiment,91,↑,up,↑,0.701136999996379,True,30,1
ZC-K-23K23S1,535,experiment,95,←,left,←,0.649298399919644,True,30,1
ZC-K-23K23S1,536,experiment,82,↑,up,↑,1.4994338999968022,True,30,1
ZC-K-23K23S1,537,experiment,83,→,right,→,1.1475760999601334,True,30,1
ZC-K-23K23S1,538,experiment,99,→,right,→,0.6680271998047829,True,30,1
ZC-K-23K23S1,539,experiment,103,↓,down,↓,0.6787874000146985,True,30,1
ZC-K-23K23S1,540,experiment,57,↑,up,↑,0.7445586000103503,True,30,1
ZC-K-23K23S1,541,experiment,92,←,left,←,0.6198928998783231,True,30,1
ZC-K-23K23S1,542,experiment,79,↓,down,↓,0.7205340000800788,True,30,1
ZC-K-23K23S1,543,experiment,61,↓,down,↓,0.6792971000541002,True,30,1
ZC-K-23K23S1,544,experiment,100,→,down,↓,0.842176100006327,False,30,1
ZC-K-23K23S1,545,training,50,→,right,→,0.5840237999800593,True,29,0
ZC-K-23K23S1,546,training,56,←,left,←,0.5735528999939561,True,29,1
ZC-K-23K23S1,547,experiment,66,←,left,←,0.6723247000481933,True,29,1
ZC-K-23K23S1,548,experiment,76,→,right,→,0.5877929001580924,True,29,1
ZC-K-23K23S1,549,experiment,57,↑,up,↑,0.4967549000866711,True,29,1
ZC-K-23K23S1,550,experiment,56,←,left,←,0.5618040000554174,True,29,1
ZC-K-23K23S1,551,experiment,108,↓,down,↓,0.607199699850753,True,29,1
ZC-K-23K23S1,552,experiment,68,→,right,→,0.5839281000662595,True,29,1
ZC-K-23K23S1,553,experiment,69,↓,down,↓,0.6092928999569267,True,29,1
ZC-K-23K23S1,554,experiment,53,↑,up,↑,0.7513208999298513,True,29,1
ZC-K-23K23S1,555,experiment,92,←,down,↓,0.7383971000090241,False,29,1
ZC-K-23K23S1,556,experiment,65,→,left,←,1.1265944999177009,False,29,1
ZC-K-23K23S1,557,experiment,106,↓,down,↓,0.6859015999361873,True,29,1
ZC-K-23K23S1,558,experiment,95,←,down,↓,0.9943182999268174,False,29,1
ZC-K-23K23S1,559,experiment,60,↑,up,↑,0.8464978998526931,True,29,1
ZC-K-23K23S1,560,experiment,78,↑,up,↑,0.6105753998272121,True,29,1
ZC-K-23K23S1,561,experiment,94,←,left,←,0.6587541999761015,True,29,1
ZC-K-23K23S1,562,experiment,73,↓,down,↓,0.6237121999729425,True,29,1
ZC-K-23K23S1,563,experiment,50,↑,up,↑,0.7976760000456125,True,29,1
ZC-K-23K23S1,564,experiment,62,↑,up,↑,0.8407366999890655,True,29,1
ZC-K-23K23S1,565,experiment,90,↓,down,↓,0.5608342001214623,True,29,1
ZC-K-23K23S1,566,experiment,63,←,left,←,0.6691811999771744,True,29,1
ZC-K-23K23S1,567,experiment,103,←,left,←,0.6480488998349756,True,29,1
ZC-K-23K23S1,568,experiment,54,→,right,→,0.6195648000575602,True,29,1
ZC-K-23K23S1,569,experiment,79,→,right,→,0.9605664999689907,True,29,1
ZC-K-23K23S1,570,experiment,55,←,left,←,0.7675633998587728,True,29,1
ZC-K-23K23S1,571,experiment,102,↓,down,↓,0.5423729000613093,True,29,1
ZC-K-23K23S1,572,experiment,87,↓,down,↓,0.5798232001252472,True,29,1
ZC-K-23K23S1,573,experiment,72,↓,down,↓,0.5802960000000894,True,29,1
ZC-K-23K23S1,574,experiment,61,←,down,↓,0.5522502001840621,False,29,1
ZC-K-23K23S1,575,experiment,97,↓,down,↓,0.6338434999343008,True,29,1
ZC-K-23K23S1,576,experiment,100,→,right,→,0.8144527999684215,True,29,1
ZC-K-23K23S1,577,experiment,67,↑,up,↑,0.7435800000093877,True,29,1
ZC-K-23K23S1,578,experiment,81,→,up,↑,1.1023413999937475,False,29,1
ZC-K-23K23S1,579,experiment,105,↓,down,↓,0.5510279999580234,True,29,1
ZC-K-23K23S1,580,experiment,99,↓,down,↓,0.5516878999769688,True,29,1
ZC-K-23K23S1,581,experiment,93,→,right,→,0.6423581999260932,True,29,1
ZC-K-23K23S1,582,experiment,98,↓,down,↓,0.5678540000226349,True,29,1
ZC-K-23K23S1,583,experiment,58,→,right,→,0.58973029977642,True,29,1
ZC-K-23K23S1,584,experiment,88,→,right,→,0.47222910006530583,True,29,1
ZC-K-23K23S1,585,experiment,59,↑,left,←,1.073316300055012,False,29,1
ZC-K-23K23S1,586,experiment,49,←,right,→,0.8697054998483509,False,29,1
ZC-K-23K23S1,587,experiment,64,↓,down,↓,0.6854689000174403,True,29,1
ZC-K-23K23S1,588,experiment,86,↑,down,↓,0.7811737000010908,False,29,1
ZC-K-23K23S1,589,experiment,70,↑,up,↑,1.2220413000322878,True,29,1
ZC-K-23K23S1,590,experiment,84,↑,up,↑,0.864920899970457,True,29,1
ZC-K-23K23S1,591,experiment,104,↓,down,↓,0.7553550000302494,True,29,1
ZC-K-23K23S1,592,experiment,51,↑,up,↑,0.859732799930498,True,29,1
ZC-K-23K23S1,593,experiment,107,↑,up,↑,0.7171390999574214,True,29,1
ZC-K-23K23S1,594,experiment,74,↑,up,↑,0.7995541000273079,True,29,1
ZC-K-23K23S1,595,experiment,82,→,right,→,0.6520382999442518,True,29,1
ZC-K-23K23S1,596,experiment,89,←,left,←,0.7079846002161503,True,29,1
ZC-K-23K23S1,597,experiment,83,↓,down,↓,0.7956701999064535,True,29,1
ZC-K-23K23S1,598,experiment,75,→,right,→,0.7787369999568909,True,29,1
ZC-K-23K23S1,599,experiment,96,↑,up,↑,0.7153976999688894,True,29,1
ZC-K-23K23S1,600,experiment,52,←,left,←,0.7330654999241233,True,29,1
ZC-K-23K23S1,601,experiment,91,↓,down,↓,0.8089592000469565,True,29,1
ZC-K-23K23S1,602,experiment,80,←,left,←,0.597847199998796,True,29,1
ZC-K-23K23S1,603,experiment,101,↑,up,↑,0.7238010000437498,True,29,1
ZC-K-23K23S1,604,experiment,48,↓,down,↓,0.6147890000138432,True,29,1
ZC-K-23K23S1,605,experiment,77,↓,down,↓,0.5159222998190671,True,29,1
ZC-K-23K23S1,606,experiment,85,←,left,←,1.0188657001126558,True,29,1
ZC-K-23K23S1,607,experiment,71,↓,down,↓,0.82602409995161,True,29,1
ZC-K-23K23S1,608,training,83,↓,down,↓,1.120799200143665,True,29,0
ZC-K-23K23S1,609,training,71,→,right,→,0.6598471999168396,True,29,1
ZC-K-23K23S1,610,experiment,81,↓,down,↓,0.5823649000376463,True,29,1
ZC-K-23K23S1,611,experiment,51,←,left,←,0.6215916001237929,True,29,1
ZC-K-23K23S1,612,experiment,94,↓,down,↓,0.5811032999772578,True,29,1
ZC-K-23K23S1,613,experiment,63,←,left,←,0.5765780999790877,True,29,1
ZC-K-23K23S1,614,experiment,96,↑,right,→,1.025655800011009,False,29,1
ZC-K-23K23S1,615,experiment,49,↓,down,↓,0.6073922000359744,True,29,1
ZC-K-23K23S1,616,experiment,73,→,right,→,0.5905315999407321,True,29,1
ZC-K-23K23S1,617,experiment,68,→,right,→,0.5118396999314427,True,29,1
ZC-K-23K23S1,618,experiment,77,→,right,→,0.4658397000748664,True,29,1
ZC-K-23K23S1,619,experiment,90,↓,down,↓,0.5686359000392258,True,29,1
ZC-K-23K23S1,620,experiment,50,↓,down,↓,0.4651318001560867,True,29,1
ZC-K-23K23S1,621,experiment,88,↑,up,↑,0.7209956001024693,True,29,1
ZC-K-23K23S1,622,experiment,48,→,right,→,0.6757706000935286,True,29,1
ZC-K-23K23S1,623,experiment,92,↓,down,↓,0.6258086999878287,True,29,1
ZC-K-23K23S1,624,experiment,84,↑,down,↓,0.6684069999027997,False,29,1
ZC-K-23K23S1,625,experiment,58,→,left,←,1.0940857999958098,False,29,1
ZC-K-23K23S1,626,experiment,75,→,down,↓,0.7610214999876916,False,29,1
ZC-K-23K23S1,627,experiment,80,→,no_key,no_letter,-1.0,False,29,1
ZC-K-23K23S1,628,experiment,95,→,right,→,0.5873531000688672,True,29,1
ZC-K-23K23S1,629,experiment,59,→,right,→,0.599996899953112,True,29,1
ZC-K-23K23S1,630,experiment,71,↑,up,↑,0.600067500025034,True,29,1
ZC-K-23K23S1,631,experiment,61,→,right,→,0.5715191999915987,True,29,1
ZC-K-23K23S1,632,experiment,104,←,left,←,0.6894990999717265,True,29,1
ZC-K-23K23S1,633,experiment,89,↓,down,↓,0.6237955000251532,True,29,1
ZC-K-23K23S1,634,experiment,74,←,left,←,0.5662998000625521,True,29,1
ZC-K-23K23S1,635,experiment,83,↓,down,↓,0.5715397999156266,True,29,1
ZC-K-23K23S1,636,experiment,67,→,right,→,0.5578855001367629,True,29,1
ZC-K-23K23S1,637,experiment,62,↑,right,→,0.6748679999727756,False,29,1
ZC-K-23K23S1,638,experiment,103,↑,up,↑,0.8530220999382436,True,29,1
ZC-K-23K23S1,639,experiment,60,↓,down,↓,0.6707490999251604,True,29,1
ZC-K-23K23S1,640,experiment,91,↑,up,↑,0.8211103999055922,True,29,1
ZC-K-23K23S1,641,experiment,54,→,right,→,1.0255648999009281,True,29,1
ZC-K-23K23S1,642,experiment,55,→,right,→,0.6859613000415266,True,29,1
ZC-K-23K23S1,643,experiment,85,↓,down,↓,0.5660153001081198,True,29,1
ZC-K-23K23S1,644,experiment,52,↑,up,↑,0.6858439999632537,True,29,1
ZC-K-23K23S1,645,experiment,57,←,left,←,0.5832417998462915,True,29,1
ZC-K-23K23S1,646,experiment,98,↓,down,↓,0.502997700124979,True,29,1
ZC-K-23K23S1,647,experiment,66,↑,up,↑,0.6448712998535484,True,29,1
ZC-K-23K23S1,648,experiment,99,↑,up,↑,0.7218176999595016,True,29,1
ZC-K-23K23S1,649,experiment,69,←,left,←,0.613474499899894,True,29,1
ZC-K-23K23S1,650,experiment,65,↓,down,↓,0.5189251000992954,True,29,1
ZC-K-23K23S1,651,experiment,56,↓,down,↓,0.5913589999545366,True,29,1
ZC-K-23K23S1,652,experiment,101,↓,down,↓,0.5418020999059081,True,29,1
ZC-K-23K23S1,653,experiment,86,←,left,←,0.594931700034067,True,29,1
ZC-K-23K23S1,654,experiment,79,←,left,←,0.7367334000300616,True,29,1
ZC-K-23K23S1,655,experiment,82,←,left,←,0.767897300189361,True,29,1
ZC-K-23K23S1,656,experiment,100,←,down,↓,1.0396107998676598,False,29,1
ZC-K-23K23S1,657,experiment,97,←,no_key,no_letter,-1.0,False,29,1
ZC-K-23K23S1,658,experiment,87,←,left,←,0.6434392998926342,True,29,1
ZC-K-23K23S1,659,experiment,78,↓,down,↓,0.5753287000115961,True,29,1
ZC-K-23K23S1,660,experiment,76,←,left,←,0.6709219000767916,True,29,1
ZC-K-23K23S1,661,experiment,102,←,left,←,0.6017102999612689,True,29,1
ZC-K-23K23S1,662,experiment,70,↓,down,↓,0.5781458001583815,True,29,1
ZC-K-23K23S1,663,experiment,107,↑,up,↑,0.7192132000345737,True,29,1
ZC-K-23K23S1,664,experiment,53,←,left,←,0.5685929998289794,True,29,1
ZC-K-23K23S1,665,experiment,72,→,down,↓,1.0335650998167694,False,29,1
ZC-K-23K23S1,666,experiment,64,↑,up,↑,0.6187756999861449,True,29,1
ZC-K-23K23S1,667,experiment,106,←,left,←,0.5264866999350488,True,29,1
ZC-K-23K23S1,668,experiment,108,→,right,→,0.47704660007730126,True,29,1
ZC-K-23K23S1,669,experiment,105,↑,up,↑,0.5106726000085473,True,29,1
ZC-K-23K23S1,670,experiment,93,→,right,→,0.9394048999529332,True,29,1
ZC-K-23K23S1,671,training,51,←,left,←,0.686154399998486,True,29,0
ZC-K-23K23S1,672,training,92,←,left,←,0.49987189983949065,True,29,1
ZC-K-23K23S1,673,experiment,71,→,right,→,0.6557537999469787,True,29,1
ZC-K-23K23S1,674,experiment,48,→,right,→,0.4695165001321584,True,29,1
ZC-K-23K23S1,675,experiment,103,←,left,←,0.5759744001552463,True,29,1
ZC-K-23K23S1,676,experiment,80,↓,down,↓,0.6621302000712603,True,29,1
ZC-K-23K23S1,677,experiment,65,↓,down,↓,0.48584190011024475,True,29,1
ZC-K-23K23S1,678,experiment,59,↓,down,↓,0.5664552999660373,True,29,1
ZC-K-23K23S1,679,experiment,81,↓,down,↓,0.5646452000364661,True,29,1
ZC-K-23K23S1,680,experiment,56,→,right,→,0.5711552000138909,True,29,1
ZC-K-23K23S1,681,experiment,88,↑,up,↑,0.6305975001305342,True,29,1
ZC-K-23K23S1,682,experiment,82,↓,down,↓,0.5854796001221985,True,29,1
ZC-K-23K23S1,683,experiment,52,←,right,→,0.6566969999112189,False,29,1
ZC-K-23K23S1,684,experiment,60,→,down,↓,1.1859673000872135,False,29,1
ZC-K-23K23S1,685,experiment,68,↓,no_key,no_letter,-1.0,False,29,1
ZC-K-23K23S1,686,experiment,75,→,down,↓,1.2859763000160456,False,29,1
ZC-K-23K23S1,687,experiment,67,←,left,←,0.6678716000169516,True,29,1
ZC-K-23K23S1,688,experiment,69,↑,up,↑,1.0259945997968316,True,29,1
ZC-K-23K23S1,689,experiment,79,→,up,↑,1.030207799980417,False,29,1
ZC-K-23K23S1,690,experiment,62,↓,down,↓,0.6641035000793636,True,29,1
ZC-K-23K23S1,691,experiment,107,↑,up,↑,0.6733678998425603,True,29,1
ZC-K-23K23S1,692,experiment,51,↑,up,↑,0.5811377000063658,True,29,1
ZC-K-23K23S1,693,experiment,94,↑,up,↑,0.5180086998734623,True,29,1
ZC-K-23K23S1,694,experiment,53,←,up,↑,0.9193689001258463,False,29,1
ZC-K-23K23S1,695,experiment,100,→,right,→,0.5850631999783218,True,29,1
ZC-K-23K23S1,696,experiment,70,↓,down,↓,0.6660762999672443,True,29,1
ZC-K-23K23S1,697,experiment,57,←,left,←,0.812387099955231,True,29,1
ZC-K-23K23S1,698,experiment,99,→,right,→,0.5785701000131667,True,29,1
ZC-K-23K23S1,699,experiment,55,→,left,←,0.665385200176388,False,29,1
ZC-K-23K23S1,700,experiment,85,→,right,→,0.5617325000930578,True,29,1
ZC-K-23K23S1,701,experiment,89,←,left,←,0.5896361998748034,True,29,1
ZC-K-23K23S1,702,experiment,92,←,left,←,0.5107488001231104,True,29,1
ZC-K-23K23S1,703,experiment,74,↑,up,↑,0.7216636000666767,True,29,1
ZC-K-23K23S1,704,experiment,66,↑,up,↑,0.6305082999169827,True,29,1
ZC-K-23K23S1,705,experiment,101,←,left,←,0.5633084999863058,True,29,1
ZC-K-23K23S1,706,experiment,106,↑,left,←,0.6170433999504894,False,29,1
ZC-K-23K23S1,707,experiment,104,↑,up,↑,0.5414086000528187,True,29,1
ZC-K-23K23S1,708,experiment,93,↓,up,↑,0.6566027998924255,False,29,1
ZC-K-23K23S1,709,experiment,77,→,right,→,0.508440800011158,True,29,1
ZC-K-23K23S1,710,experiment,108,←,left,←,0.55567009979859,True,29,1
ZC-K-23K23S1,711,experiment,50,→,right,→,0.5882743000984192,True,29,1
ZC-K-23K23S1,712,experiment,83,→,right,→,0.4964962999802083,True,29,1
ZC-K-23K23S1,713,experiment,58,↑,up,↑,0.9532913998700678,True,29,1
ZC-K-23K23S1,714,experiment,95,→,right,→,0.49905280000530183,True,29,1
ZC-K-23K23S1,715,experiment,96,↓,down,↓,0.6387465000152588,True,29,1
ZC-K-23K23S1,716,experiment,49,→,right,→,0.7165262000635266,True,29,1
ZC-K-23K23S1,717,experiment,97,←,left,←,0.6552478999365121,True,29,1
ZC-K-23K23S1,718,experiment,54,←,left,←,0.5946296998299658,True,29,1
ZC-K-23K23S1,719,experiment,102,→,right,→,0.5606347001157701,True,29,1
ZC-K-23K23S1,720,experiment,91,↓,down,↓,0.5726568000391126,True,29,1
ZC-K-23K23S1,721,experiment,84,→,right,→,0.8803836998995394,True,29,1
ZC-K-23K23S1,722,experiment,63,↑,down,↓,0.6724638000596315,False,29,1
ZC-K-23K23S1,723,experiment,78,↑,down,↓,0.6827197999227792,False,29,1
ZC-K-23K23S1,724,experiment,73,←,left,←,0.6705426000989974,True,29,1
ZC-K-23K23S1,725,experiment,87,←,left,←,0.9184514998923987,True,29,1
ZC-K-23K23S1,726,experiment,98,↓,down,↓,1.0411423998884857,True,29,1
ZC-K-23K23S1,727,experiment,105,→,right,→,0.611794900149107,True,29,1
ZC-K-23K23S1,728,experiment,86,↓,down,↓,0.5266312998719513,True,29,1
ZC-K-23K23S1,729,experiment,61,↑,up,↑,0.6290162999648601,True,29,1
ZC-K-23K23S1,730,experiment,76,↑,up,↑,0.610645700013265,True,29,1
ZC-K-23K23S1,731,experiment,90,↑,up,↑,1.1879318999126554,True,29,1
ZC-K-23K23S1,732,experiment,72,↑,no_key,no_letter,-1.0,False,29,1
ZC-K-23K23S1,733,experiment,64,→,right,→,0.6020301000680774,True,29,1
ZC-K-23K23S1,734,training,65,↓,down,↓,0.9408081998117268,True,29,0
ZC-K-23K23S1,735,training,85,→,right,→,0.5543927000835538,True,29,1
ZC-K-23K23S1,736,experiment,54,↓,down,↓,0.4820200998801738,True,29,1
ZC-K-23K23S1,737,experiment,60,↑,up,↑,0.5943346999119967,True,29,1
ZC-K-23K23S1,738,experiment,52,↑,up,↑,0.5371139999479055,True,29,1
ZC-K-23K23S1,739,experiment,105,↑,up,↑,0.5524797001853585,True,29,1
ZC-K-23K23S1,740,experiment,81,↓,down,↓,0.5671738998498768,True,29,1
ZC-K-23K23S1,741,experiment,78,↓,down,↓,0.5823699000757188,True,29,1
ZC-K-23K23S1,742,experiment,87,↑,up,↑,0.5697582999709994,True,29,1
ZC-K-23K23S1,743,experiment,70,↓,down,↓,0.6033993000164628,True,29,1
ZC-K-23K23S1,744,experiment,56,↑,down,↓,0.6164872001390904,False,29,1
ZC-K-23K23S1,745,experiment,68,↑,down,↓,0.600938799791038,False,29,1
ZC-K-23K23S1,746,experiment,61,→,right,→,0.6281751000788063,True,29,1
ZC-K-23K23S1,747,experiment,100,←,left,←,0.6176980999298394,True,29,1
ZC-K-23K23S1,748,experiment,65,↑,up,↑,0.5470865000970662,True,29,1
ZC-K-23K23S1,749,experiment,83,↑,up,↑,0.616969499969855,True,29,1
ZC-K-23K23S1,750,experiment,107,↓,down,↓,0.6042150999419391,True,29,1
ZC-K-23K23S1,751,experiment,58,←,left,←,0.6165263000875711,True,29,1
ZC-K-23K23S1,752,experiment,84,←,left,←,0.5797300999984145,True,29,1
ZC-K-23K23S1,753,experiment,69,←,left,←,0.437396900029853,True,29,1
ZC-K-23K23S1,754,experiment,71,↓,down,↓,0.6277437000535429,True,29,1
ZC-K-23K23S1,755,experiment,80,↓,down,↓,0.6236811000853777,True,29,1
ZC-K-23K23S1,756,experiment,97,↑,up,↑,0.6140846000052989,True,29,1
ZC-K-23K23S1,757,experiment,91,←,left,←,0.5274336999282241,True,29,1
ZC-K-23K23S1,758,experiment,74,↑,up,↑,0.5530654999893159,True,29,1
ZC-K-23K23S1,759,experiment,94,↓,down,↓,0.5712037000339478,True,29,1
ZC-K-23K23S1,760,experiment,62,←,left,←,0.5593615998513997,True,29,1
ZC-K-23K23S1,761,experiment,108,←,left,←,0.6048828000202775,True,29,1
ZC-K-23K23S1,762,experiment,86,↑,up,↑,0.5435588001273572,True,29,1
ZC-K-23K23S1,763,experiment,89,↑,up,↑,0.5963911998551339,True,29,1
ZC-K-23K23S1,764,experiment,99,→,left,←,0.5470898000057787,False,29,1
ZC-K-23K23S1,765,experiment,63,↓,down,↓,0.6234161998145282,True,29,1
ZC-K-23K23S1,766,experiment,103,↓,down,↓,0.7476007000077516,True,29,1
ZC-K-23K23S1,767,experiment,59,←,no_key,no_letter,-1.0,False,29,1
ZC-K-23K23S1,768,experiment,82,↓,down,↓,0.6016978998668492,True,29,1
ZC-K-23K23S1,769,experiment,102,↑,up,↑,0.6634211998898536,True,29,1
ZC-K-23K23S1,770,experiment,101,←,left,←,0.5468923998996615,True,29,1
ZC-K-23K23S1,771,experiment,72,→,right,→,0.660545099992305,True,29,1
ZC-K-23K23S1,772,experiment,79,←,left,←,0.5834098001942039,True,29,1
ZC-K-23K23S1,773,experiment,96,←,left,←,0.45587489986792207,True,29,1
ZC-K-23K23S1,774,experiment,76,→,right,→,0.5558627001009881,True,29,1
ZC-K-23K23S1,775,experiment,93,↓,down,↓,0.5983710000291467,True,29,1
ZC-K-23K23S1,776,experiment,51,↑,down,↓,0.6211554000619799,False,29,1
ZC-K-23K23S1,777,experiment,53,←,left,←,0.5538061999250203,True,29,1
ZC-K-23K23S1,778,experiment,66,↑,up,↑,0.7493489000480622,True,29,1
ZC-K-23K23S1,779,experiment,106,←,left,←,0.5478277001529932,True,29,1
ZC-K-23K23S1,780,experiment,77,→,right,→,0.6439346000552177,True,29,1
ZC-K-23K23S1,781,experiment,90,→,left,←,0.5565028998535126,False,29,1
ZC-K-23K23S1,782,experiment,55,→,right,→,0.6270553998183459,True,29,1
ZC-K-23K23S1,783,experiment,48,↓,down,↓,0.5539315000642091,True,29,1
ZC-K-23K23S1,784,experiment,50,→,down,↓,0.6594951001461595,False,29,1
ZC-K-23K23S1,785,experiment,75,↑,no_key,no_letter,-1.0,False,29,1
ZC-K-23K23S1,786,experiment,57,←,left,←,0.6795047998894006,True,29,1
ZC-K-23K23S1,787,experiment,67,↑,up,↑,0.773619299987331,True,29,1
ZC-K-23K23S1,788,experiment,92,→,right,→,0.719514099881053,True,29,1
ZC-K-23K23S1,789,experiment,98,↓,down,↓,0.6259757000952959,True,29,1
ZC-K-23K23S1,790,experiment,88,←,left,←,0.5632470999844372,True,29,1
ZC-K-23K23S1,791,experiment,85,↓,down,↓,0.8400032999925315,True,29,1
ZC-K-23K23S1,792,experiment,95,↑,up,↑,0.5664731001015753,True,29,1
ZC-K-23K23S1,793,experiment,73,←,left,←,0.519241799833253,True,29,1
ZC-K-23K23S1,794,experiment,64,→,right,→,0.6767813998740166,True,29,1
ZC-K-23K23S1,795,experiment,49,←,left,←,0.5372378998436034,True,29,1
ZC-K-23K23S1,796,experiment,104,↑,down,↓,0.680632600095123,False,29,1
ZC-K-23K23S1,797,training,78,→,right,→,0.5028097999747843,True,29,0
ZC-K-23K23S1,798,training,61,↑,up,↑,0.5420349000487477,True,29,1
ZC-K-23K23S1,799,experiment,108,←,left,←,0.5000968999229372,True,29,1
ZC-K-23K23S1,800,experiment,94,→,right,→,0.520617599831894,True,29,1
ZC-K-23K23S1,801,experiment,59,→,right,→,0.5358644998632371,True,29,1
ZC-K-23K23S1,802,experiment,103,↓,down,↓,0.6320849999319762,True,29,1
ZC-K-23K23S1,803,experiment,53,→,right,→,0.5647704999428242,True,29,1
ZC-K-23K23S1,804,experiment,76,↓,down,↓,0.5403273000847548,True,29,1
ZC-K-23K23S1,805,experiment,102,←,right,→,0.5484603999648243,False,29,1
ZC-K-23K23S1,806,experiment,93,←,left,←,0.6233234999235719,True,29,1
ZC-K-23K23S1,807,experiment,84,→,right,→,0.60181919997558,True,29,1
ZC-K-23K23S1,808,experiment,57,→,right,→,0.6151721999049187,True,29,1
ZC-K-23K23S1,809,experiment,67,←,left,←,0.5673454001080245,True,29,1
ZC-K-23K23S1,810,experiment,100,→,right,→,0.5912091000936925,True,29,1
ZC-K-23K23S1,811,experiment,79,↓,down,↓,0.5729613997973502,True,29,1
ZC-K-23K23S1,812,experiment,105,→,down,↓,0.682562300004065,False,29,1
ZC-K-23K23S1,813,experiment,75,↑,down,↓,0.9660593001171947,False,29,1
ZC-K-23K23S1,814,experiment,101,→,left,←,0.7492235000245273,False,29,1
ZC-K-23K23S1,815,experiment,50,←,left,←,0.5661689001135528,True,29,1
ZC-K-23K23S1,816,experiment,92,↑,up,↑,0.592851199908182,True,29,1
ZC-K-23K23S1,817,experiment,106,↓,down,↓,0.6291590000037104,True,29,1
ZC-K-23K23S1,818,experiment,81,↓,down,↓,0.5297203999944031,True,29,1
ZC-K-23K23S1,819,experiment,74,↓,down,↓,0.5631721999961883,True,29,1
ZC-K-23K23S1,820,experiment,95,←,left,←,0.564680399838835,True,29,1
ZC-K-23K23S1,821,experiment,58,←,left,←,0.6022110001649708,True,29,1
ZC-K-23K23S1,822,experiment,70,←,left,←,0.467079299967736,True,29,1
ZC-K-23K23S1,823,experiment,66,↓,down,↓,0.5217871000058949,True,29,1
ZC-K-23K23S1,824,experiment,85,←,left,←,0.5523190000094473,True,29,1
ZC-K-23K23S1,825,experiment,62,→,left,←,0.47725799982436,False,29,1
ZC-K-23K23S1,826,experiment,68,↓,down,↓,0.49938370008021593,True,29,1
ZC-K-23K23S1,827,experiment,73,↓,down,↓,0.5750838001258671,True,29,1
ZC-K-23K23S1,828,experiment,80,→,right,→,0.6208194000646472,True,29,1
ZC-K-23K23S1,829,experiment,55,↓,down,↓,0.5537101000081748,True,29,1
ZC-K-23K23S1,830,experiment,48,↓,down,↓,0.5789441000670195,True,29,1
ZC-K-23K23S1,831,experiment,61,↓,down,↓,0.5514215000439435,True,29,1
ZC-K-23K23S1,832,experiment,78,↓,down,↓,0.599142599850893,True,29,1
ZC-K-23K23S1,833,experiment,91,←,left,←,0.5929194998461753,True,29,1
ZC-K-23K23S1,834,experiment,65,↑,up,↑,0.9388874999713153,True,29,1
ZC-K-23K23S1,835,experiment,104,↓,down,↓,0.6340117999352515,True,29,1
ZC-K-23K23S1,836,experiment,89,→,right,→,0.7707122000865638,True,29,1
ZC-K-23K23S1,837,experiment,96,←,left,←,0.6036160001531243,True,29,1
ZC-K-23K23S1,838,experiment,90,→,right,→,0.6215057000517845,True,29,1
ZC-K-23K23S1,839,experiment,51,←,right,→,0.9950095999520272,False,29,1
ZC-K-23K23S1,840,experiment,77,→,right,→,0.6975787000264972,True,29,1
ZC-K-23K23S1,841,experiment,72,→,right,→,0.5411630999296904,True,29,1
ZC-K-23K23S1,842,experiment,60,↑,no_key,no_letter,-1.0,False,29,1
ZC-K-23K23S1,843,experiment,86,↑,up,↑,0.6258177000563592,True,29,1
ZC-K-23K23S1,844,experiment,64,←,left,←,0.5712592999916524,True,29,1
ZC-K-23K23S1,845,experiment,99,→,right,→,0.6509868998546153,True,29,1
ZC-K-23K23S1,846,experiment,87,→,right,→,0.6917155999690294,True,29,1
ZC-K-23K23S1,847,experiment,52,←,left,←,0.6143038999289274,True,29,1
ZC-K-23K23S1,848,experiment,88,←,left,←,0.7680272001307458,True,29,1
ZC-K-23K23S1,849,experiment,71,←,left,←,0.5293410001322627,True,29,1
ZC-K-23K23S1,850,experiment,83,→,right,→,0.6482555998954922,True,29,1
ZC-K-23K23S1,851,experiment,98,↑,up,↑,0.7331737999338657,True,29,1
ZC-K-23K23S1,852,experiment,49,←,down,↓,1.0553989000618458,False,29,1
ZC-K-23K23S1,853,experiment,82,→,right,→,0.7693070999812335,True,29,1
ZC-K-23K23S1,854,experiment,56,→,right,→,0.7355879000388086,True,29,1
ZC-K-23K23S1,855,experiment,54,→,right,→,0.7601324999704957,True,29,1
ZC-K-23K23S1,856,experiment,107,↑,up,↑,0.7096716000232846,True,29,1
ZC-K-23K23S1,857,experiment,63,↓,down,↓,0.6440627002157271,True,29,1
ZC-K-23K23S1,858,experiment,69,↑,up,↑,0.635117799974978,True,29,1
ZC-K-23K23S1,859,experiment,97,←,left,←,0.5851602999027818,True,29,1
ZC-K-23K23S1,860,training,76,←,left,←,0.607005099998787,True,29,0
ZC-K-23K23S1,861,training,50,↓,down,↓,0.6457742999773473,True,29,1
ZC-K-23K23S1,862,experiment,53,←,left,←,0.6577514000236988,True,29,1
ZC-K-23K23S1,863,experiment,63,→,right,→,0.5462081001605839,True,29,1
ZC-K-23K23S1,864,experiment,84,↑,up,↑,0.5999705998692662,True,29,1
ZC-K-23K23S1,865,experiment,91,←,left,←,0.5534745999611914,True,29,1
ZC-K-23K23S1,866,experiment,65,→,right,→,0.5254518000874668,True,29,1
ZC-K-23K23S1,867,experiment,100,↑,up,↑,0.5666312999092042,True,29,1
ZC-K-23K23S1,868,experiment,51,↑,up,↑,0.5268559001851827,True,29,1
ZC-K-23K23S1,869,experiment,95,←,left,←,0.7059838999994099,True,29,1
ZC-K-23K23S1,870,experiment,75,↓,left,←,0.8043474999722093,False,29,1
ZC-K-23K23S1,871,experiment,55,←,left,←,0.5536582001950592,True,29,1
ZC-K-23K23S1,872,experiment,48,←,right,→,1.0271494998596609,False,29,1
ZC-K-23K23S1,873,experiment,87,↑,up,↑,0.5008264000061899,True,29,1
ZC-K-23K23S1,874,experiment,60,←,left,←,0.5885890000499785,True,29,1
ZC-K-23K23S1,875,experiment,52,←,left,←,0.5315280000213534,True,29,1
ZC-K-23K23S1,876,experiment,72,→,right,→,0.6697931999806315,True,29,1
ZC-K-23K23S1,877,experiment,108,↓,down,↓,0.5586804999038577,True,29,1
ZC-K-23K23S1,878,experiment,92,←,left,←,0.7535827001556754,True,29,1
ZC-K-23K23S1,879,experiment,107,↑,down,↓,0.7674426001030952,False,29,1
ZC-K-23K23S1,880,experiment,77,←,left,←,0.5027988001238555,True,29,1
ZC-K-23K23S1,881,experiment,99,↑,up,↑,0.5693355000112206,True,29,1
ZC-K-23K23S1,882,experiment,97,↓,down,↓,0.5703525000717491,True,29,1
ZC-K-23K23S1,883,experiment,61,→,right,→,0.6390223999042064,True,29,1
ZC-K-23K23S1,884,experiment,81,←,left,←,0.6340866000391543,True,29,1
ZC-K-23K23S1,885,experiment,76,→,right,→,0.863100300077349,True,29,1
ZC-K-23K23S1,886,experiment,94,→,right,→,0.7170451998244971,True,29,1
ZC-K-23K23S1,887,experiment,74,↓,down,↓,0.5676549000199884,True,29,1
ZC-K-23K23S1,888,experiment,62,↑,up,↑,0.5964407999999821,True,29,1
ZC-K-23K23S1,889,experiment,67,→,right,→,0.6532378001138568,True,29,1
ZC-K-23K23S1,890,experiment,79,↓,down,↓,0.5766390000935644,True,29,1
ZC-K-23K23S1,891,experiment,59,↓,down,↓,0.6459651000332087,True,29,1
ZC-K-23K23S1,892,experiment,85,→,right,→,0.5832917001098394,True,29,1
ZC-K-23K23S1,893,experiment,64,↑,up,↑,0.6821892000734806,True,29,1
ZC-K-23K23S1,894,experiment,101,←,up,↑,0.6052121000830084,False,29,1
ZC-K-23K23S1,895,experiment,56,↓,down,↓,0.6178106998559088,True,29,1
ZC-K-23K23S1,896,experiment,69,↓,down,↓,0.6097068001981825,True,29,1
ZC-K-23K23S1,897,experiment,50,↓,down,↓,0.9925011999439448,True,29,1
ZC-K-23K23S1,898,experiment,58,↓,down,↓,0.7733517999295145,True,29,1
ZC-K-23K23S1,899,experiment,93,↓,down,↓,0.5188853000290692,True,29,1
ZC-K-23K23S1,900,experiment,70,↓,down,↓,0.4586469999048859,True,29,1
ZC-K-23K23S1,901,experiment,98,↑,down,↓,0.6479772999882698,False,29,1
ZC-K-23K23S1,902,experiment,78,↓,down,↓,0.6110580000095069,True,29,1
ZC-K-23K23S1,903,experiment,86,↑,up,↑,0.6217765999026597,True,29,1
ZC-K-23K23S1,904,experiment,68,←,left,←,0.6058732001110911,True,29,1
ZC-K-23K23S1,905,experiment,57,←,left,←,0.6104104998521507,True,29,1
ZC-K-23K23S1,906,experiment,49,←,left,←,0.5293163999449462,True,29,1
ZC-K-23K23S1,907,experiment,104,→,right,→,0.5530808998737484,True,29,1
ZC-K-23K23S1,908,experiment,90,↑,down,↓,0.7489884998649359,False,29,1
ZC-K-23K23S1,909,experiment,96,↓,down,↓,0.5511064000893384,True,29,1
ZC-K-23K23S1,910,experiment,106,←,left,←,0.6529156998731196,True,29,1
ZC-K-23K23S1,911,experiment,103,←,left,←,0.5360217001289129,True,29,1
ZC-K-23K23S1,912,experiment,83,→,down,↓,1.2868983999360353,False,29,1
ZC-K-23K23S1,913,experiment,54,→,right,→,0.6492550000548363,True,29,1
ZC-K-23K23S1,914,experiment,66,←,left,←,0.5608643000014126,True,29,1
ZC-K-23K23S1,915,experiment,102,↑,up,↑,0.592235199874267,True,29,1
ZC-K-23K23S1,916,experiment,105,↑,up,↑,0.5973613997921348,True,29,1
ZC-K-23K23S1,917,experiment,89,↓,down,↓,0.6075849998742342,True,29,1
ZC-K-23K23S1,918,experiment,80,→,right,→,0.5960325999185443,True,29,1
ZC-K-23K23S1,919,experiment,88,←,left,←,0.5586729999631643,True,29,1
ZC-K-23K23S1,920,experiment,71,↓,down,↓,0.5441825999878347,True,29,1
ZC-K-23K23S1,921,experiment,73,←,left,←,0.5859171999618411,True,29,1
ZC-K-23K23S1,922,experiment,82,→,right,→,0.5911825001239777,True,29,1
ZC-K-23K23S1,923,training,73,↓,down,↓,0.5601537998300046,True,29,0
ZC-K-23K23S1,924,training,75,→,right,→,0.5363261001184583,True,29,1
ZC-K-23K23S1,925,experiment,103,→,right,→,0.5124973000492901,True,29,1
ZC-K-23K23S1,926,experiment,73,←,right,→,0.8990589000750333,False,29,1
ZC-K-23K23S1,927,experiment,61,←,left,←,0.6184747000224888,True,29,1
ZC-K-23K23S1,928,experiment,65,←,no_key,no_letter,-1.0,False,29,1
ZC-K-23K23S1,929,experiment,88,↑,up,↑,0.6018793000839651,True,29,1
ZC-K-23K23S1,930,experiment,50,→,right,→,0.48901850008405745,True,29,1
ZC-K-23K23S1,931,experiment,83,↑,up,↑,0.4733897999394685,True,29,1
ZC-K-23K23S1,932,experiment,85,←,left,←,0.5295043999794871,True,29,1
ZC-K-23K23S1,933,experiment,49,↑,up,↑,0.539523100014776,True,29,1
ZC-K-23K23S1,934,experiment,74,↓,down,↓,0.7010679999366403,True,29,1
ZC-K-23K23S1,935,experiment,104,→,right,→,0.6381294000893831,True,29,1
ZC-K-23K23S1,936,experiment,102,←,left,←,0.7141043997835368,True,29,1
ZC-K-23K23S1,937,experiment,105,↑,up,↑,0.5463300999253988,True,29,1
ZC-K-23K23S1,938,experiment,69,←,left,←,0.5569303999654949,True,29,1
ZC-K-23K23S1,939,experiment,96,←,left,←,0.47023039986379445,True,29,1
ZC-K-23K23S1,940,experiment,99,→,right,→,0.5305399999488145,True,29,1
ZC-K-23K23S1,941,experiment,77,→,right,→,0.5313385999761522,True,29,1
ZC-K-23K23S1,942,experiment,67,↓,down,↓,0.5992868999019265,True,29,1
ZC-K-23K23S1,943,experiment,107,→,right,→,0.5472717999946326,True,29,1
ZC-K-23K23S1,944,experiment,108,→,right,→,0.47287399997003376,True,29,1
ZC-K-23K23S1,945,experiment,54,→,right,→,0.6276112000923604,True,29,1
ZC-K-23K23S1,946,experiment,100,↑,up,↑,0.5051806999836117,True,29,1
ZC-K-23K23S1,947,experiment,75,←,left,←,0.6354078000877053,True,29,1
ZC-K-23K23S1,948,experiment,86,→,right,→,0.7569891999009997,True,29,1
ZC-K-23K23S1,949,experiment,52,↓,down,↓,0.5571409000549465,True,29,1
ZC-K-23K23S1,950,experiment,89,↓,down,↓,0.55292829987593,True,29,1
ZC-K-23K23S1,951,experiment,90,↓,down,↓,0.5566622000187635,True,29,1
ZC-K-23K23S1,952,experiment,94,←,left,←,0.5664794000331312,True,29,1
ZC-K-23K23S1,953,experiment,97,→,right,→,0.5274561000987887,True,29,1
ZC-K-23K23S1,954,experiment,95,←,left,←,0.49084599991329014,True,29,1
ZC-K-23K23S1,955,experiment,82,→,right,→,0.6992340998258442,True,29,1
ZC-K-23K23S1,956,experiment,60,↓,down,↓,0.6750911998096853,True,29,1
ZC-K-23K23S1,957,experiment,76,↑,up,↑,0.5503692000638694,True,29,1
ZC-K-23K23S1,958,experiment,93,←,left,←,0.5611429999116808,True,29,1
ZC-K-23K23S1,959,experiment,58,←,left,←,0.48714949982240796,True,29,1
ZC-K-23K23S1,960,experiment,48,→,left,←,0.36661150003783405,False,29,1
ZC-K-23K23S1,961,experiment,81,←,left,←,0.6572801000438631,True,29,0
ZC-K-23K23S1,962,experiment,56,←,left,←,0.6200200999155641,True,29,1
ZC-K-23K23S1,963,experiment,68,↓,left,←,0.4605372999794781,False,29,1
ZC-K-23K23S1,964,experiment,66,↑,up,↑,0.6918908997904509,True,29,1
ZC-K-23K23S1,965,experiment,92,↑,down,↓,0.7932975001167506,False,29,1
ZC-K-23K23S1,966,experiment,78,↑,up,↑,0.9032304999418557,True,29,1
ZC-K-23K23S1,967,experiment,64,↓,down,↓,0.477748200064525,True,29,1
ZC-K-23K23S1,968,experiment,84,↓,down,↓,0.454437900101766,True,29,1
ZC-K-23K23S1,969,experiment,101,←,left,←,0.6021177000366151,True,29,1
ZC-K-23K23S1,970,experiment,57,↓,down,↓,0.4787846999242902,True,29,1
ZC-K-23K23S1,971,experiment,55,←,left,←,0.6732389000244439,True,29,1
ZC-K-23K23S1,972,experiment,59,→,right,→,0.5624739998020232,True,29,1
ZC-K-23K23S1,973,experiment,72,→,right,→,1.0841388998087496,True,29,1
ZC-K-23K23S1,974,experiment,51,←,left,←,0.5677185000386089,True,29,1
ZC-K-23K23S1,975,experiment,91,→,right,→,0.5379836999345571,True,29,1
ZC-K-23K23S1,976,experiment,70,→,right,→,0.5730916000902653,True,29,1
ZC-K-23K23S1,977,experiment,98,→,left,←,0.8211177999619395,False,29,1
ZC-K-23K23S1,978,experiment,79,↑,left,←,0.6814275998622179,False,29,1
ZC-K-23K23S1,979,experiment,71,←,left,←,0.7106463999953121,True,29,1
ZC-K-23K23S1,980,experiment,106,←,right,→,0.5260285998228937,False,29,1
ZC-K-23K23S1,981,experiment,80,↓,down,↓,0.5661308001726866,True,29,1
ZC-K-23K23S1,982,experiment,87,←,left,←,0.5143323000520468,True,29,1
ZC-K-23K23S1,983,experiment,63,→,right,→,0.5683520999737084,True,29,1
ZC-K-23K23S1,984,experiment,62,←,left,←,0.5567324000876397,True,29,1
ZC-K-23K23S1,985,experiment,53,↑,up,↑,0.8683638998772949,True,29,1
ZC-K-23K23S1,986,training,79,→,right,→,0.6479718999471515,True,29,0
ZC-K-23K23S1,987,training,93,←,left,←,0.5185010000132024,True,29,1
ZC-K-23K23S1,988,experiment,92,→,right,→,0.6749819000251591,True,29,1
ZC-K-23K23S1,989,experiment,64,→,left,←,0.7547399001196027,False,29,1
ZC-K-23K23S1,990,experiment,95,→,right,→,0.5323690001387149,True,29,1
ZC-K-23K23S1,991,experiment,106,↓,down,↓,0.5799911001231521,True,29,1
ZC-K-23K23S1,992,experiment,68,→,right,→,0.5812685999553651,True,29,1
ZC-K-23K23S1,993,experiment,58,→,right,→,0.5140849999152124,True,29,1
ZC-K-23K23S1,994,experiment,52,↑,up,↑,0.5880875999573618,True,29,1
ZC-K-23K23S1,995,experiment,74,→,right,→,0.6192016999702901,True,29,1
ZC-K-23K23S1,996,experiment,86,←,left,←,0.6137127999681979,True,29,1
ZC-K-23K23S1,997,experiment,48,↓,down,↓,0.5088532001245767,True,29,1
ZC-K-23K23S1,998,experiment,88,↓,down,↓,0.7790145999751985,True,29,1
ZC-K-23K23S1,999,experiment,77,↑,up,↑,0.5376206999644637,True,29,1
ZC-K-23K23S1,1000,experiment,100,↓,down,↓,0.5942600001581013,True,29,1
ZC-K-23K23S1,1001,experiment,71,→,right,→,0.4904352000448853,True,29,1
ZC-K-23K23S1,1002,experiment,81,↓,down,↓,0.4839444998651743,True,29,1
ZC-K-23K23S1,1003,experiment,98,↑,up,↑,0.5195132000371814,True,29,1
ZC-K-23K23S1,1004,experiment,61,↑,down,↓,0.5581914000213146,False,29,1
ZC-K-23K23S1,1005,experiment,73,→,right,→,0.4870929999742657,True,29,1
ZC-K-23K23S1,1006,experiment,104,→,right,→,0.48892729985527694,True,29,1
ZC-K-23K23S1,1007,experiment,54,↑,up,↑,0.5072317998856306,True,29,1
ZC-K-23K23S1,1008,experiment,108,↑,up,↑,0.5304390999954194,True,29,1
ZC-K-23K23S1,1009,experiment,87,→,right,→,0.6319313999265432,True,29,1
ZC-K-23K23S1,1010,experiment,75,→,right,→,0.48547030007466674,True,29,1
ZC-K-23K23S1,1011,experiment,65,→,right,→,0.6284459000453353,True,29,1
ZC-K-23K23S1,1012,experiment,94,↓,down,↓,0.563562799943611,True,29,1
ZC-K-23K23S1,1013,experiment,101,←,left,←,0.6186679999809712,True,29,1
ZC-K-23K23S1,1014,experiment,67,→,left,←,0.5874337998684496,False,29,1
ZC-K-23K23S1,1015,experiment,62,←,left,←,0.5349367000162601,True,29,1
ZC-K-23K23S1,1016,experiment,53,↑,right,→,0.5680587999522686,False,29,1
ZC-K-23K23S1,1017,experiment,90,←,left,←,0.5627067000605166,True,29,1
ZC-K-23K23S1,1018,experiment,60,↑,up,↑,0.6960080999415368,True,29,1
ZC-K-23K23S1,1019,experiment,63,↓,down,↓,0.5666360999457538,True,29,1
ZC-K-23K23S1,1020,experiment,72,←,down,↓,0.6876157999504358,False,29,1
ZC-K-23K23S1,1021,experiment,96,↑,up,↑,0.5077206999994814,True,29,1
ZC-K-23K23S1,1022,experiment,55,→,left,←,0.6047472001519054,False,29,1
ZC-K-23K23S1,1023,experiment,76,↓,down,↓,0.6590331001207232,True,29,1
ZC-K-23K23S1,1024,experiment,70,→,right,→,0.592951999977231,True,29,1
ZC-K-23K23S1,1025,experiment,78,↓,down,↓,0.5669988999143243,True,29,1
ZC-K-23K23S1,1026,experiment,49,←,left,←,0.6641134999226779,True,29,1
ZC-K-23K23S1,1027,experiment,66,←,left,←,0.462778199929744,True,29,1
ZC-K-23K23S1,1028,experiment,82,↓,down,↓,0.5363604000303894,True,29,1
ZC-K-23K23S1,1029,experiment,50,→,right,→,0.49821859993971884,True,29,1
ZC-K-23K23S1,1030,experiment,56,←,right,→,0.7632795001845807,False,29,1
ZC-K-23K23S1,1031,experiment,80,↑,up,↑,0.6017138999886811,True,29,1
ZC-K-23K23S1,1032,experiment,89,→,right,→,0.5718692999798805,True,29,1
ZC-K-23K23S1,1033,experiment,99,↑,up,↑,0.5075002000667155,True,29,1
ZC-K-23K23S1,1034,experiment,83,↑,up,↑,0.5069526000879705,True,29,1
ZC-K-23K23S1,1035,experiment,105,→,right,→,0.5154505998361856,True,29,1
ZC-K-23K23S1,1036,experiment,97,↑,up,↑,0.5985055000055581,True,29,1
ZC-K-23K23S1,1037,experiment,85,→,right,→,0.5781216998584569,True,29,1
ZC-K-23K23S1,1038,experiment,107,↑,up,↑,0.5512403000611812,True,29,1
ZC-K-23K23S1,1039,experiment,103,↑,up,↑,0.5341976000927389,True,29,1
ZC-K-23K23S1,1040,experiment,91,↑,up,↑,0.5460926999803632,True,29,1
ZC-K-23K23S1,1041,experiment,84,↓,down,↓,0.607827799860388,True,29,1
ZC-K-23K23S1,1042,experiment,57,←,right,→,0.724287600023672,False,29,1
ZC-K-23K23S1,1043,experiment,79,←,left,←,0.5807701998855919,True,29,1
ZC-K-23K23S1,1044,experiment,59,↑,up,↑,0.6653664000332355,True,29,1
ZC-K-23K23S1,1045,experiment,69,→,right,→,0.5675737999845296,True,29,1
ZC-K-23K23S1,1046,experiment,51,↑,up,↑,0.6715271000284702,True,29,1
ZC-K-23K23S1,1047,experiment,102,→,right,→,0.5622253001201898,True,29,1
ZC-K-23K23S1,1048,experiment,93,↑,up,↑,0.5485551999881864,True,29,1
ZC-K-23K23S1,1049,training,69,↓,down,↓,0.6933751001488417,True,29,0
ZC-K-23K23S1,1050,training,85,→,right,→,0.5008133000228554,True,29,1
ZC-K-23K23S1,1051,experiment,94,↓,down,↓,0.5292412999551743,True,29,1
ZC-K-23K23S1,1052,experiment,63,→,right,→,0.4706528999377042,True,29,1
ZC-K-23K23S1,1053,experiment,92,↑,up,↑,0.4927260000258684,True,29,1
ZC-K-23K23S1,1054,experiment,53,↓,down,↓,0.5917306998744607,True,29,1
ZC-K-23K23S1,1055,experiment,77,→,right,→,0.5095623000524938,True,29,1
ZC-K-23K23S1,1056,experiment,83,→,right,→,0.5491293999366462,True,29,1
ZC-K-23K23S1,1057,experiment,102,↓,down,↓,0.5329513000324368,True,29,1
ZC-K-23K23S1,1058,experiment,80,↓,down,↓,0.4687536000274122,True,29,1
ZC-K-23K23S1,1059,experiment,60,→,right,→,0.5178793999366462,True,29,1
ZC-K-23K23S1,1060,experiment,61,←,left,←,0.5726701999083161,True,29,1
ZC-K-23K23S1,1061,experiment,76,↓,down,↓,0.5720438999123871,True,29,1
ZC-K-23K23S1,1062,experiment,103,↓,down,↓,0.5944117000326514,True,29,1
ZC-K-23K23S1,1063,experiment,90,→,right,→,0.4606482000090182,True,29,1
ZC-K-23K23S1,1064,experiment,71,↓,down,↓,0.5460277998354286,True,29,1
ZC-K-23K23S1,1065,experiment,97,↑,down,↓,0.507588200038299,False,29,1
ZC-K-23K23S1,1066,experiment,58,→,right,→,0.7317683999426663,True,29,1
ZC-K-23K23S1,1067,experiment,54,←,left,←,0.5961416999343783,True,29,1
ZC-K-23K23S1,1068,experiment,50,↓,down,↓,0.5312524999026209,True,29,1
ZC-K-23K23S1,1069,experiment,57,→,left,←,0.7144967999774963,False,29,1
ZC-K-23K23S1,1070,experiment,96,←,left,←,0.5974571001715958,True,29,1
ZC-K-23K23S1,1071,experiment,73,←,left,←,0.4694840000011027,True,29,1
ZC-K-23K23S1,1072,experiment,69,→,left,←,0.4912040000781417,False,29,1
ZC-K-23K23S1,1073,experiment,91,↓,down,↓,0.5928246001712978,True,29,1
ZC-K-23K23S1,1074,experiment,99,←,left,←,0.6400665999390185,True,29,1
ZC-K-23K23S1,1075,experiment,82,↑,up,↑,0.6506079998798668,True,29,1
ZC-K-23K23S1,1076,experiment,84,↑,up,↑,0.5320582999847829,True,29,1
ZC-K-23K23S1,1077,experiment,56,↓,down,↓,0.6199520998634398,True,29,1
ZC-K-23K23S1,1078,experiment,101,↑,up,↑,0.6735531000886112,True,29,1
ZC-K-23K23S1,1079,experiment,85,←,left,←,0.553695400012657,True,29,1
ZC-K-23K23S1,1080,experiment,52,→,right,→,0.8421120001003146,True,29,1
ZC-K-23K23S1,1081,experiment,100,→,right,→,0.6230088002048433,True,29,1
ZC-K-23K23S1,1082,experiment,87,↓,down,↓,0.5925543000921607,True,29,1
ZC-K-23K23S1,1083,experiment,104,↑,down,↓,0.821853999979794,False,29,1
ZC-K-23K23S1,1084,experiment,62,←,left,←,0.6319432000163943,True,29,1
ZC-K-23K23S1,1085,experiment,105,↓,down,↓,0.5151470000855625,True,29,1
ZC-K-23K23S1,1086,experiment,55,↑,up,↑,0.6842992000747472,True,29,1
ZC-K-23K23S1,1087,experiment,59,↓,down,↓,0.5090040999930352,True,29,1
ZC-K-23K23S1,1088,experiment,107,↑,down,↓,0.5406897999346256,False,29,1
ZC-K-23K23S1,1089,experiment,64,↓,up,↑,0.5931281999219209,False,29,1
ZC-K-23K23S1,1090,experiment,98,↑,up,↑,0.5766813000664115,True,29,1
ZC-K-23K23S1,1091,experiment,106,↑,down,↓,0.7581072000321001,False,29,1
ZC-K-23K23S1,1092,experiment,48,←,no_key,no_letter,-1.0,False,29,1
ZC-K-23K23S1,1093,experiment,70,→,right,→,0.6833534999750555,True,29,1
ZC-K-23K23S1,1094,experiment,86,↑,up,↑,0.5070299999788404,True,29,1
ZC-K-23K23S1,1095,experiment,89,↓,no_key,no_letter,-1.0,False,29,1
ZC-K-23K23S1,1096,experiment,95,↑,up,↑,0.6922108998987824,True,29,1
ZC-K-23K23S1,1097,experiment,72,↓,down,↓,0.6402477999217808,True,29,1
ZC-K-23K23S1,1098,experiment,81,↓,down,↓,0.6115018001291901,True,29,1
ZC-K-23K23S1,1099,experiment,66,→,right,→,0.5728934998624027,True,29,1
ZC-K-23K23S1,1100,experiment,79,→,right,→,0.48331949999555945,True,29,1
ZC-K-23K23S1,1101,experiment,49,←,left,←,0.591214899905026,True,29,1
ZC-K-23K23S1,1102,experiment,108,→,left,←,0.4354592999443412,False,29,1
ZC-K-23K23S1,1103,experiment,65,←,left,←,0.5806220001541078,True,29,1
ZC-K-23K23S1,1104,experiment,68,→,right,→,0.6057569000404328,True,29,1
ZC-K-23K23S1,1105,experiment,75,←,left,←,0.46020089997909963,True,29,1
ZC-K-23K23S1,1106,experiment,93,←,left,←,0.6746370000764728,True,29,1
ZC-K-23K23S1,1107,experiment,78,→,right,→,0.5654744000639766,True,29,1
ZC-K-23K23S1,1108,experiment,51,←,left,←,0.4614609000273049,True,29,1
ZC-K-23K23S1,1109,experiment,74,↓,no_key,no_letter,-1.0,False,29,1
ZC-K-23K23S1,1110,experiment,88,↑,down,↓,0.863963000010699,False,29,1
ZC-K-23K23S1,1111,experiment,67,←,left,←,0.44674320006743073,True,29,1
ZC-K-23K23S1,1112,training,104,→,right,→,0.5231064998079091,True,29,0
ZC-K-23K23S1,1113,training,61,←,left,←,0.49733819998800755,True,29,1
ZC-K-23K23S1,1114,experiment,92,←,left,←,0.7102277998346835,True,29,1
ZC-K-23K23S1,1115,experiment,66,→,right,→,0.5796701998915523,True,29,1
ZC-K-23K23S1,1116,experiment,88,↓,down,↓,0.9427253999747336,True,29,1
ZC-K-23K23S1,1117,experiment,94,←,left,←,0.5936165999155492,True,29,1
ZC-K-23K23S1,1118,experiment,64,↑,up,↑,0.6042730000335723,True,29,1
ZC-K-23K23S1,1119,experiment,107,↑,up,↑,0.5443636998534203,True,29,1
ZC-K-23K23S1,1120,experiment,72,↓,down,↓,0.5705013999249786,True,29,1
ZC-K-23K23S1,1121,experiment,69,←,left,←,0.5645500000100583,True,29,1
ZC-K-23K23S1,1122,experiment,49,←,left,←,0.5011619001161307,True,29,1
ZC-K-23K23S1,1123,experiment,76,←,left,←,0.5114972998853773,True,29,1
ZC-K-23K23S1,1124,experiment,80,↑,down,↓,0.6323321000672877,False,29,1
ZC-K-23K23S1,1125,experiment,93,↑,up,↑,0.6078054001554847,True,29,1
ZC-K-23K23S1,1126,experiment,65,←,right,→,0.6174282000865787,False,29,1
ZC-K-23K23S1,1127,experiment,50,↓,down,↓,0.5358092000242323,True,29,1
ZC-K-23K23S1,1128,experiment,53,→,right,→,0.6245202000718564,True,29,1
ZC-K-23K23S1,1129,experiment,85,↑,up,↑,0.5629656999371946,True,29,1
ZC-K-23K23S1,1130,experiment,63,↑,up,↑,0.5673158999998122,True,29,1
ZC-K-23K23S1,1131,experiment,78,←,left,←,0.4947399999946356,True,29,1
ZC-K-23K23S1,1132,experiment,73,→,right,→,0.7221540999598801,True,29,1
ZC-K-23K23S1,1133,experiment,91,↑,up,↑,0.5825588000006974,True,29,1
ZC-K-23K23S1,1134,experiment,54,←,right,→,0.557093899929896,False,29,1
ZC-K-23K23S1,1135,experiment,97,→,right,→,0.5659374000970274,True,29,1
ZC-K-23K23S1,1136,experiment,60,↓,down,↓,0.5791089998092502,True,29,1
ZC-K-23K23S1,1137,experiment,62,↓,down,↓,0.5671788000036031,True,29,1
ZC-K-23K23S1,1138,experiment,71,→,right,→,0.5686235998291522,True,29,1
ZC-K-23K23S1,1139,experiment,99,↑,up,↑,0.8086543001700193,True,29,1
ZC-K-23K23S1,1140,experiment,89,←,left,←,0.5864618001505733,True,29,1
ZC-K-23K23S1,1141,experiment,105,↑,up,↑,0.5356236000079662,True,29,1
ZC-K-23K23S1,1142,experiment,81,↑,up,↑,0.5110984998755157,True,29,1
ZC-K-23K23S1,1143,experiment,101,→,right,→,0.6407931998837739,True,29,1
ZC-K-23K23S1,1144,experiment,83,↑,right,→,0.8351906000170857,False,29,1
ZC-K-23K23S1,1145,experiment,95,←,left,←,0.6421481999568641,True,29,1
ZC-K-23K23S1,1146,experiment,108,←,left,←,0.7882097000256181,True,29,1
ZC-K-23K23S1,1147,experiment,106,↑,up,↑,0.5685328999534249,True,29,1
ZC-K-23K23S1,1148,experiment,100,↓,down,↓,0.4881939999759197,True,29,1
ZC-K-23K23S1,1149,experiment,102,→,right,→,0.46643949998542666,True,29,1
ZC-K-23K23S1,1150,experiment,57,→,right,→,0.5405220000538975,True,29,1
ZC-K-23K23S1,1151,experiment,79,↑,up,↑,0.5801001999061555,True,29,1
ZC-K-23K23S1,1152,experiment,96,↑,up,↑,0.5325706999283284,True,29,1
ZC-K-23K23S1,1153,experiment,84,↑,up,↑,0.46683120005764067,True,29,1
ZC-K-23K23S1,1154,experiment,59,←,right,→,0.5563193999696523,False,29,1
ZC-K-23K23S1,1155,experiment,58,→,right,→,0.5703233999665827,True,29,1
ZC-K-23K23S1,1156,experiment,104,←,left,←,0.4647129999939352,True,29,1
ZC-K-23K23S1,1157,experiment,48,→,right,→,0.5098087000660598,True,29,1
ZC-K-23K23S1,1158,experiment,56,→,right,→,0.6946606000419706,True,29,1
ZC-K-23K23S1,1159,experiment,51,↓,down,↓,0.6021609997842461,True,29,1
ZC-K-23K23S1,1160,experiment,67,←,left,←,0.5632207999005914,True,29,1
ZC-K-23K23S1,1161,experiment,68,↑,up,↑,0.5334488002117723,True,29,1
ZC-K-23K23S1,1162,experiment,55,↑,up,↑,0.5977181999478489,True,29,1
ZC-K-23K23S1,1163,experiment,82,→,right,→,0.6020062000025064,True,29,1
ZC-K-23K23S1,1164,experiment,74,←,left,←,0.6970697001088411,True,29,1
ZC-K-23K23S1,1165,experiment,61,↓,down,↓,0.6244981000199914,True,29,1
ZC-K-23K23S1,1166,experiment,103,↓,down,↓,0.46898830006830394,True,29,1
ZC-K-23K23S1,1167,experiment,98,←,left,←,0.5930645000189543,True,29,1
ZC-K-23K23S1,1168,experiment,87,←,left,←,0.46035930002108216,True,29,1
ZC-K-23K23S1,1169,experiment,90,↑,up,↑,0.6996283999178559,True,29,1
ZC-K-23K23S1,1170,experiment,75,↓,down,↓,0.574500200105831,True,29,1
ZC-K-23K23S1,1171,experiment,77,→,right,→,0.4933792999945581,True,29,1
ZC-K-23K23S1,1172,experiment,86,↑,up,↑,0.4846006000880152,True,29,1
ZC-K-23K23S1,1173,experiment,52,→,right,→,0.5923408998642117,True,29,1
ZC-K-23K23S1,1174,experiment,70,←,left,←,0.5206931999418885,True,29,1
ZC-K-23K23S1,1175,training,79,←,left,←,0.5536456999834627,True,28,0
ZC-K-23K23S1,1176,training,48,→,right,→,0.5872635000851005,True,28,1
ZC-K-23K23S1,1177,experiment,62,←,right,→,0.5990184000693262,False,28,1
ZC-K-23K23S1,1178,experiment,93,→,right,→,0.4800728000700474,True,28,1
ZC-K-23K23S1,1179,experiment,55,←,left,←,0.6338347001001239,True,28,1
ZC-K-23K23S1,1180,experiment,72,←,left,←,0.6721976001281291,True,28,1
ZC-K-23K23S1,1181,experiment,85,→,right,→,0.520541800186038,True,28,1
ZC-K-23K23S1,1182,experiment,87,←,left,←,0.5586457001045346,True,28,1
ZC-K-23K23S1,1183,experiment,89,↑,up,↑,0.5705251998733729,True,28,1
ZC-K-23K23S1,1184,experiment,60,←,right,→,0.599342199973762,False,28,1
ZC-K-23K23S1,1185,experiment,59,↑,up,↑,0.5076337000355124,True,28,1
ZC-K-23K23S1,1186,experiment,73,←,left,←,0.5747320000082254,True,28,1
ZC-K-23K23S1,1187,experiment,91,↑,up,↑,0.481073800008744,True,28,1
ZC-K-23K23S1,1188,experiment,95,→,left,←,0.5898324998561293,False,28,1
ZC-K-23K23S1,1189,experiment,67,→,right,→,0.6154541000723839,True,28,1
ZC-K-23K23S1,1190,experiment,96,→,right,→,0.5263859999831766,True,28,1
ZC-K-23K23S1,1191,experiment,77,→,right,→,0.41595309996046126,True,28,1
ZC-K-23K23S1,1192,experiment,104,↓,up,↑,0.5879712998867035,False,28,1
ZC-K-23K23S1,1193,experiment,97,→,right,→,0.44383869995363057,True,28,1
ZC-K-23K23S1,1194,experiment,99,↑,up,↑,0.41707940003834665,True,28,1
ZC-K-23K23S1,1195,experiment,101,↑,up,↑,0.494310500100255,True,28,1
ZC-K-23K23S1,1196,experiment,92,→,no_key,no_letter,-1.0,False,28,1
ZC-K-23K23S1,1197,experiment,82,←,left,←,0.46768209990113974,True,28,1
ZC-K-23K23S1,1198,experiment,84,←,left,←,0.6047461999114603,True,28,1
ZC-K-23K23S1,1199,experiment,51,↑,up,↑,0.6112238999921829,True,28,1
ZC-K-23K23S1,1200,experiment,90,←,left,←,0.5407650000415742,True,28,1
ZC-K-23K23S1,1201,experiment,66,←,left,←,0.49656110000796616,True,28,1
ZC-K-23K23S1,1202,experiment,64,↓,down,↓,0.6957863999996334,True,28,1
ZC-K-23K23S1,1203,experiment,63,↑,down,↓,0.5738782999105752,False,28,1
ZC-K-23K23S1,1204,experiment,94,↑,up,↑,0.5113264000974596,True,28,1
ZC-K-23K23S1,1205,experiment,102,→,no_key,no_letter,-1.0,False,28,1
ZC-K-23K23S1,1206,experiment,50,↑,up,↑,0.7396035999991,True,28,1
ZC-K-23K23S1,1207,experiment,86,→,right,→,1.0489952999632806,True,28,1
ZC-K-23K23S1,1208,experiment,98,↑,up,↑,0.5897635000292212,True,28,1
ZC-K-23K23S1,1209,experiment,108,↑,up,↑,0.5457164000254124,True,28,1
ZC-K-23K23S1,1210,experiment,75,←,left,←,0.41100510000251234,True,28,1
ZC-K-23K23S1,1211,experiment,81,↓,down,↓,0.4227299001067877,True,28,1
ZC-K-23K23S1,1212,experiment,49,←,left,←,0.44529510010033846,True,28,1
ZC-K-23K23S1,1213,experiment,58,↓,down,↓,0.567794700153172,True,28,1
ZC-K-23K23S1,1214,experiment,69,→,right,→,0.474077699938789,True,28,1
ZC-K-23K23S1,1215,experiment,105,←,left,←,0.49954530014656484,True,28,1
ZC-K-23K23S1,1216,experiment,79,↑,left,←,0.45281209982931614,False,28,1
ZC-K-23K23S1,1217,experiment,56,↑,up,↑,0.5681193999480456,True,28,1
ZC-K-23K23S1,1218,experiment,103,→,no_key,no_letter,-1.0,False,28,1
ZC-K-23K23S1,1219,experiment,48,→,no_key,no_letter,-1.0,False,28,1
ZC-K-23K23S1,1220,experiment,53,↑,up,↑,0.5404052000958472,True,28,1
ZC-K-23K23S1,1221,experiment,76,→,right,→,0.5172325000166893,True,28,1
ZC-K-23K23S1,1222,experiment,100,←,left,←,0.5187637999188155,True,28,1
ZC-K-23K23S1,1223,experiment,78,→,left,←,0.46403510007075965,False,28,1
ZC-K-23K23S1,1224,experiment,74,↓,down,↓,0.7967311001848429,True,28,1
ZC-K-23K23S1,1225,experiment,61,↑,up,↑,0.5276130000129342,True,28,1
ZC-K-23K23S1,1226,experiment,83,↑,up,↑,0.5268789997790009,True,28,1
ZC-K-23K23S1,1227,experiment,54,→,right,→,0.5914102999959141,True,28,1
ZC-K-23K23S1,1228,experiment,70,↓,down,↓,0.6088588999118656,True,28,1
ZC-K-23K23S1,1229,experiment,88,→,right,→,0.6904211998917162,True,28,1
ZC-K-23K23S1,1230,experiment,57,←,left,←,0.7073321999050677,True,28,1
ZC-K-23K23S1,1231,experiment,71,↑,up,↑,0.703098300145939,True,28,1
ZC-K-23K23S1,1232,experiment,65,←,left,←,0.6450785999186337,True,28,1
ZC-K-23K23S1,1233,experiment,107,→,left,←,0.5596265001222491,False,28,1
ZC-K-23K23S1,1234,experiment,68,←,down,↓,0.6583742999937385,False,28,1
ZC-K-23K23S1,1235,experiment,106,↓,down,↓,0.6443998999893665,True,28,1
ZC-K-23K23S1,1236,experiment,80,←,left,←,0.4877853998914361,True,28,1
ZC-K-23K23S1,1237,experiment,52,←,left,←,0.4428278000559658,True,28,1
ZC-K-23K23S1,1238,training,94,→,no_key,no_letter,-1.0,False,28,0
ZC-K-23K23S1,1239,training,106,↓,down,↓,0.5800324999727309,True,28,1
ZC-K-23K23S1,1240,experiment,89,↓,down,↓,0.43068280001170933,True,28,1
ZC-K-23K23S1,1241,experiment,48,↑,down,↓,0.4214361999183893,False,28,1
ZC-K-23K23S1,1242,experiment,99,←,left,←,0.6827010000124574,True,28,1
ZC-K-23K23S1,1243,experiment,107,↓,down,↓,0.5556672001257539,True,28,1
ZC-K-23K23S1,1244,experiment,80,←,no_key,no_letter,-1.0,False,28,1
ZC-K-23K23S1,1245,experiment,62,←,left,←,0.5212313998490572,True,28,1
ZC-K-23K23S1,1246,experiment,96,←,left,←,0.46826879982836545,True,28,1
ZC-K-23K23S1,1247,experiment,57,↓,down,↓,0.5665087001398206,True,28,1
ZC-K-23K23S1,1248,experiment,82,↑,down,↓,0.6283827000297606,False,28,1
ZC-K-23K23S1,1249,experiment,88,→,right,→,0.7493817999493331,True,28,1
ZC-K-23K23S1,1250,experiment,78,↑,up,↑,0.8610994999762625,True,28,1
ZC-K-23K23S1,1251,experiment,79,↓,down,↓,0.5121792999561876,True,28,1
ZC-K-23K23S1,1252,experiment,101,↓,down,↓,0.49810989992693067,True,28,1
ZC-K-23K23S1,1253,experiment,52,←,left,←,0.6203211999963969,True,28,1
ZC-K-23K23S1,1254,experiment,84,←,left,←,0.5595682000275701,True,28,1
ZC-K-23K23S1,1255,experiment,94,↑,left,←,0.6814578999765217,False,28,1
ZC-K-23K23S1,1256,experiment,104,↓,down,↓,0.5631269998848438,True,28,1
ZC-K-23K23S1,1257,experiment,63,↑,down,↓,0.5272443001158535,False,28,1
ZC-K-23K23S1,1258,experiment,93,←,right,→,0.691003599902615,False,28,1
ZC-K-23K23S1,1259,experiment,108,←,left,←,0.7071185999084264,True,28,1
ZC-K-23K23S1,1260,experiment,66,↓,down,↓,0.7044486999511719,True,28,1
ZC-K-23K23S1,1261,experiment,51,↑,down,↓,0.5227572000585496,False,28,1
ZC-K-23K23S1,1262,experiment,77,↑,up,↑,0.771938799880445,True,28,1
ZC-K-23K23S1,1263,experiment,106,↓,down,↓,0.6090643000788987,True,28,1
ZC-K-23K23S1,1264,experiment,49,→,right,→,0.6161565000656992,True,28,1
ZC-K-23K23S1,1265,experiment,75,↓,down,↓,0.5424695999827236,True,28,1
ZC-K-23K23S1,1266,experiment,53,↑,up,↑,0.7106985000427812,True,28,1
ZC-K-23K23S1,1267,experiment,92,←,left,←,0.6434232001192868,True,28,1
ZC-K-23K23S1,1268,experiment,85,↑,up,↑,0.7251900001429021,True,28,1
ZC-K-23K23S1,1269,experiment,70,↓,down,↓,0.6005261999089271,True,28,1
ZC-K-23K23S1,1270,experiment,58,→,right,→,0.588973700068891,True,28,1
ZC-K-23K23S1,1271,experiment,91,←,left,←,0.7347107999958098,True,28,1
ZC-K-23K23S1,1272,experiment,83,↑,down,↓,0.6453219000250101,False,28,1
ZC-K-23K23S1,1273,experiment,69,←,left,←,0.5323642999865115,True,28,1
ZC-K-23K23S1,1274,experiment,72,↑,no_key,no_letter,-1.0,False,28,1
ZC-K-23K23S1,1275,experiment,87,↓,down,↓,0.7172902000602335,True,28,1
ZC-K-23K23S1,1276,experiment,98,→,right,→,0.8397009999025613,True,28,1
ZC-K-23K23S1,1277,experiment,56,↓,down,↓,0.5073967999778688,True,28,1
ZC-K-23K23S1,1278,experiment,95,←,down,↓,0.6631628000177443,False,28,1
ZC-K-23K23S1,1279,experiment,61,←,left,←,0.5758853000588715,True,28,1
ZC-K-23K23S1,1280,experiment,86,↑,up,↑,0.6680233001243323,True,28,1
ZC-K-23K23S1,1281,experiment,81,→,right,→,0.5819490000139922,True,28,1
ZC-K-23K23S1,1282,experiment,68,←,left,←,0.543650500010699,True,28,1
ZC-K-23K23S1,1283,experiment,73,←,no_key,no_letter,-1.0,False,28,1
ZC-K-23K23S1,1284,experiment,100,↓,no_key,no_letter,-1.0,False,28,1
ZC-K-23K23S1,1285,experiment,103,←,left,←,0.5567801999859512,True,28,1
ZC-K-23K23S1,1286,experiment,54,←,left,←,0.5321396000217646,True,28,1
ZC-K-23K23S1,1287,experiment,65,↓,down,↓,0.568902499973774,True,28,1
ZC-K-23K23S1,1288,experiment,105,↑,left,←,0.7910078000277281,False,28,1
ZC-K-23K23S1,1289,experiment,97,→,right,→,0.5186237001325935,True,28,1
ZC-K-23K23S1,1290,experiment,90,→,right,→,0.6678968998603523,True,28,1
ZC-K-23K23S1,1291,experiment,71,↓,down,↓,0.5851428997702897,True,28,1
ZC-K-23K23S1,1292,experiment,64,→,down,↓,0.7641394999809563,False,28,1
ZC-K-23K23S1,1293,experiment,55,↓,down,↓,0.5548435000237077,True,28,1
ZC-K-23K23S1,1294,experiment,67,↓,down,↓,0.46218080003745854,True,28,1
ZC-K-23K23S1,1295,experiment,59,←,left,←,0.5198727999813855,True,28,1
ZC-K-23K23S1,1296,experiment,50,←,left,←,0.6420911999884993,True,28,1
ZC-K-23K23S1,1297,experiment,74,↑,up,↑,0.5196217999327928,True,28,1
ZC-K-23K23S1,1298,experiment,60,→,right,→,0.6145190999377519,True,28,1
ZC-K-23K23S1,1299,experiment,76,↓,down,↓,0.43669899995438755,True,28,1
ZC-K-23K23S1,1300,experiment,102,←,left,←,0.7129983999766409,True,28,1
ZC-K-23K23S1,1301,training,100,←,left,←,0.6424984999466687,True,28,0
ZC-K-23K23S1,1302,training,85,→,right,→,0.5798833998851478,True,28,1
ZC-K-23K23S1,1303,experiment,88,↑,left,←,0.7272673998959363,False,28,1
ZC-K-23K23S1,1304,experiment,104,←,left,←,0.5352674999739975,True,28,1
ZC-K-23K23S1,1305,experiment,54,←,left,←,0.47949970001354814,True,28,1
ZC-K-23K23S1,1306,experiment,82,→,right,→,0.6726234999950975,True,28,1
ZC-K-23K23S1,1307,experiment,70,↓,down,↓,0.7336879000067711,True,28,1
ZC-K-23K23S1,1308,experiment,84,↓,down,↓,0.5085008998867124,True,28,1
ZC-K-23K23S1,1309,experiment,57,↑,up,↑,0.6526945999357849,True,28,1
ZC-K-23K23S1,1310,experiment,51,↓,down,↓,0.5136675999965519,True,28,1
ZC-K-23K23S1,1311,experiment,59,↓,down,↓,0.5130755000282079,True,28,1
ZC-K-23K23S1,1312,experiment,94,↑,up,↑,0.6048065999057144,True,28,1
ZC-K-23K23S1,1313,experiment,53,←,left,←,0.5226084999740124,True,28,1
ZC-K-23K23S1,1314,experiment,107,←,left,←,0.4816385000012815,True,28,1
ZC-K-23K23S1,1315,experiment,100,↑,up,↑,0.5164663998875767,True,28,1
ZC-K-23K23S1,1316,experiment,50,↑,up,↑,0.5434340999927372,True,28,1
ZC-K-23K23S1,1317,experiment,55,↑,up,↑,0.6948348998557776,True,28,1
ZC-K-23K23S1,1318,experiment,90,→,right,→,0.5648294000420719,True,28,1
ZC-K-23K23S1,1319,experiment,80,↑,up,↑,0.5631386998575181,True,28,1
ZC-K-23K23S1,1320,experiment,98,↑,up,↑,0.7877668999135494,True,28,1
ZC-K-23K23S1,1321,experiment,96,←,left,←,0.6200572000816464,True,28,1
ZC-K-23K23S1,1322,experiment,105,↑,up,↑,0.5598167001735419,True,28,1
ZC-K-23K23S1,1323,experiment,86,↓,down,↓,0.5325812001246959,True,28,1
ZC-K-23K23S1,1324,experiment,76,→,right,→,0.5100924998987466,True,28,1
ZC-K-23K23S1,1325,experiment,102,→,right,→,0.5589290999341756,True,28,1
ZC-K-23K23S1,1326,experiment,108,↓,down,↓,0.5322080000769347,True,28,1
ZC-K-23K23S1,1327,experiment,83,→,right,→,0.5790971999522299,True,28,1
ZC-K-23K23S1,1328,experiment,75,←,left,←,0.570526400115341,True,28,1
ZC-K-23K23S1,1329,experiment,67,→,right,→,0.5571103000547737,True,28,1
ZC-K-23K23S1,1330,experiment,103,↓,down,↓,0.5319356999825686,True,28,1
ZC-K-23K23S1,1331,experiment,101,↑,up,↑,0.6366298000793904,True,28,1
ZC-K-23K23S1,1332,experiment,79,↑,up,↑,0.5207318000029773,True,28,1
ZC-K-23K23S1,1333,experiment,56,↑,up,↑,0.7212000000290573,True,28,1
ZC-K-23K23S1,1334,experiment,60,→,right,→,0.5679023000411689,True,28,1
ZC-K-23K23S1,1335,experiment,69,↑,up,↑,0.5860003000125289,True,28,1
ZC-K-23K23S1,1336,experiment,72,→,right,→,0.5785940999630839,True,28,1
ZC-K-23K23S1,1337,experiment,77,→,right,→,0.5133855000603944,True,28,1
ZC-K-23K23S1,1338,experiment,106,←,left,←,0.5931149998214096,True,28,1
ZC-K-23K23S1,1339,experiment,58,→,right,→,0.5658700000494719,True,28,1
ZC-K-23K23S1,1340,experiment,74,↑,up,↑,0.6304093000944704,True,28,1
ZC-K-23K23S1,1341,experiment,87,↑,up,↑,0.5356356999836862,True,28,1
ZC-K-23K23S1,1342,experiment,52,→,right,→,0.5768289000261575,True,28,1
ZC-K-23K23S1,1343,experiment,93,→,right,→,0.5145784001797438,True,28,1
ZC-K-23K23S1,1344,experiment,63,↑,up,↑,0.5285414000973105,True,28,1
ZC-K-23K23S1,1345,experiment,89,→,right,→,0.5027062001172453,True,28,1
ZC-K-23K23S1,1346,experiment,66,←,right,→,0.4433907999191433,False,28,1
ZC-K-23K23S1,1347,experiment,64,←,left,←,0.5323232000228018,True,28,1
ZC-K-23K23S1,1348,experiment,97,↓,down,↓,0.6460188999772072,True,28,1
ZC-K-23K23S1,1349,experiment,81,↓,down,↓,0.7693810998462141,True,28,1
ZC-K-23K23S1,1350,experiment,71,→,right,→,0.5947738001123071,True,28,1
ZC-K-23K23S1,1351,experiment,73,→,left,←,0.9222141997888684,False,28,1
ZC-K-23K23S1,1352,experiment,49,↓,down,↓,0.5089674000628293,True,28,1
ZC-K-23K23S1,1353,experiment,61,↑,up,↑,0.5238206000067294,True,28,1
ZC-K-23K23S1,1354,experiment,68,→,right,→,0.5600920999422669,True,28,1
ZC-K-23K23S1,1355,experiment,91,→,right,→,0.49908410012722015,True,28,1
ZC-K-23K23S1,1356,experiment,48,↓,down,↓,0.5185541000682861,True,28,1
ZC-K-23K23S1,1357,experiment,65,↑,down,↓,0.6443068000953645,False,28,1
ZC-K-23K23S1,1358,experiment,95,↓,down,↓,0.5306919000577182,True,28,1
ZC-K-23K23S1,1359,experiment,62,↓,down,↓,0.4089358998462558,True,28,1
ZC-K-23K23S1,1360,experiment,85,→,right,→,0.4590015998110175,True,28,1
ZC-K-23K23S1,1361,experiment,99,↑,up,↑,0.7195856000762433,True,28,1
ZC-K-23K23S1,1362,experiment,92,↓,down,↓,0.5877747999038547,True,28,1
ZC-K-23K23S1,1363,experiment,78,↑,right,→,0.6496713000815362,False,28,1
ZC-K-23K23S1,1364,training,60,↑,up,↑,0.5536114000715315,True,28,0
ZC-K-23K23S1,1365,training,90,←,left,←,0.5008551999926567,True,28,1
ZC-K-23K23S1,1366,experiment,66,←,left,←,0.5064864000305533,True,28,1
ZC-K-23K23S1,1367,experiment,72,→,right,→,0.622048299992457,True,28,1
ZC-K-23K23S1,1368,experiment,86,↓,down,↓,0.6002505000215024,True,28,1
ZC-K-23K23S1,1369,experiment,74,→,right,→,0.5031427000649273,True,28,1
ZC-K-23K23S1,1370,experiment,49,→,right,→,0.5464457999914885,True,28,1
ZC-K-23K23S1,1371,experiment,99,↑,down,↓,0.963155800011009,False,28,1
ZC-K-23K23S1,1372,experiment,88,←,left,←,0.6148976001422852,True,28,1
ZC-K-23K23S1,1373,experiment,68,←,left,←,0.46323480014689267,True,28,1
ZC-K-23K23S1,1374,experiment,83,→,right,→,0.5206550001166761,True,28,1
ZC-K-23K23S1,1375,experiment,104,↑,up,↑,0.560701800044626,True,28,1
ZC-K-23K23S1,1376,experiment,80,→,right,→,0.5034801999572664,True,28,1
ZC-K-23K23S1,1377,experiment,71,→,right,→,0.5715375000145286,True,28,1
ZC-K-23K23S1,1378,experiment,100,↓,down,↓,0.6269818001892418,True,28,1
ZC-K-23K23S1,1379,experiment,65,↑,up,↑,0.5399455998558551,True,28,1
ZC-K-23K23S1,1380,experiment,87,↑,up,↑,0.608999100048095,True,28,1
ZC-K-23K23S1,1381,experiment,62,→,right,→,0.6757698999717832,True,28,1
ZC-K-23K23S1,1382,experiment,92,←,left,←,0.5298210000619292,True,28,1
ZC-K-23K23S1,1383,experiment,91,→,right,→,0.4458869001828134,True,28,1
ZC-K-23K23S1,1384,experiment,48,←,left,←,0.4838473000563681,True,28,1
ZC-K-23K23S1,1385,experiment,93,→,right,→,0.4411911000497639,True,28,1
ZC-K-23K23S1,1386,experiment,78,↑,up,↑,0.741058399900794,True,28,1
ZC-K-23K23S1,1387,experiment,55,↑,up,↑,0.4529981999658048,True,28,1
ZC-K-23K23S1,1388,experiment,94,↓,down,↓,0.5952259998302907,True,28,1
ZC-K-23K23S1,1389,experiment,67,↓,down,↓,0.5411130001302809,True,28,1
ZC-K-23K23S1,1390,experiment,77,↑,up,↑,0.5093894000165164,True,28,1
ZC-K-23K23S1,1391,experiment,105,↓,down,↓,0.6057655999902636,True,28,1
ZC-K-23K23S1,1392,experiment,84,→,right,→,0.48109149979427457,True,28,1
ZC-K-23K23S1,1393,experiment,53,↓,down,↓,0.5241471000481397,True,28,1
ZC-K-23K23S1,1394,experiment,50,→,right,→,0.6380330000538379,True,28,1
ZC-K-23K23S1,1395,experiment,82,←,left,←,0.5367489000782371,True,28,1
ZC-K-23K23S1,1396,experiment,70,↑,up,↑,0.5478318000677973,True,28,1
ZC-K-23K23S1,1397,experiment,69,→,right,→,0.5826944999862462,True,28,1
ZC-K-23K23S1,1398,experiment,107,↓,up,↑,1.0754367001354694,False,28,1
ZC-K-23K23S1,1399,experiment,56,→,down,↓,0.5733158998191357,False,28,1
ZC-K-23K23S1,1400,experiment,52,↓,down,↓,0.5887748000677675,True,28,1
ZC-K-23K23S1,1401,experiment,58,↓,down,↓,0.46545560006052256,True,28,1
ZC-K-23K23S1,1402,experiment,54,←,right,→,0.948748999973759,False,28,1
ZC-K-23K23S1,1403,experiment,85,←,left,←,0.4740573999006301,True,28,1
ZC-K-23K23S1,1404,experiment,79,↑,up,↑,0.6124744999688119,True,28,1
ZC-K-23K23S1,1405,experiment,61,→,right,→,0.6472757000010461,True,28,1
ZC-K-23K23S1,1406,experiment,60,↓,down,↓,0.44870520010590553,True,28,1
ZC-K-23K23S1,1407,experiment,102,←,left,←,0.3755272999405861,True,28,1
ZC-K-23K23S1,1408,experiment,96,→,right,→,0.48514109989628196,True,28,0
ZC-K-23K23S1,1409,experiment,73,↓,down,↓,0.5530016999691725,True,28,1
ZC-K-23K23S1,1410,experiment,81,→,right,→,0.4797149000223726,True,28,1
ZC-K-23K23S1,1411,experiment,108,→,right,→,0.6004820999223739,True,28,1
ZC-K-23K23S1,1412,experiment,63,→,right,→,0.5710449998732656,True,28,1
ZC-K-23K23S1,1413,experiment,76,→,right,→,0.5148907999973744,True,28,1
ZC-K-23K23S1,1414,experiment,97,↓,down,↓,0.5256300000473857,True,28,1
ZC-K-23K23S1,1415,experiment,106,→,right,→,0.4051541001535952,True,28,1
ZC-K-23K23S1,1416,experiment,103,→,right,→,0.5219852000009269,True,28,0
ZC-K-23K23S1,1417,experiment,64,↑,down,↓,0.5115209999494255,False,28,1
ZC-K-23K23S1,1418,experiment,57,←,left,←,0.5437406001146883,True,28,1
ZC-K-23K23S1,1419,experiment,90,←,left,←,0.5000203000381589,True,28,1
ZC-K-23K23S1,1420,experiment,75,↓,left,←,0.43876269995234907,False,28,1
ZC-K-23K23S1,1421,experiment,95,→,right,→,0.901203699875623,True,28,1
ZC-K-23K23S1,1422,experiment,101,←,left,←,0.5670926999300718,True,28,1
ZC-K-23K23S1,1423,experiment,59,↓,down,↓,0.6051814001984894,True,28,1
ZC-K-23K23S1,1424,experiment,98,↓,down,↓,0.4675783000420779,True,28,1
ZC-K-23K23S1,1425,experiment,89,→,right,→,0.48290179995819926,True,28,1
ZC-K-23K23S1,1426,experiment,51,↓,down,↓,0.5902045001275837,True,28,1
ZC-K-23K23S1,1427,training,98,↑,up,↑,0.47398789995349944,True,28,0
ZC-K-23K23S1,1428,training,100,←,left,←,0.5732855000533164,True,28,1
ZC-K-23K23S1,1429,experiment,108,↓,down,↓,0.569849600084126,True,28,1
ZC-K-23K23S1,1430,experiment,107,↑,no_key,no_letter,-1.0,False,28,1
ZC-K-23K23S1,1431,experiment,93,→,up,↑,1.5879446000326425,False,28,1
ZC-K-23K23S1,1432,experiment,70,←,left,←,0.5322890998795629,True,28,1
ZC-K-23K23S1,1433,experiment,99,↓,down,↓,0.5578540000133216,True,28,1
ZC-K-23K23S1,1434,experiment,72,↓,down,↓,0.5352745000272989,True,28,1
ZC-K-23K23S1,1435,experiment,83,←,right,→,0.5100620000157505,False,28,1
ZC-K-23K23S1,1436,experiment,52,→,left,←,0.8080164999701083,False,28,1
ZC-K-23K23S1,1437,experiment,51,←,no_key,no_letter,-1.0,False,28,1
ZC-K-23K23S1,1438,experiment,91,↓,down,↓,0.6114807999692857,True,28,1
ZC-K-23K23S1,1439,experiment,56,←,left,←,0.56063749990426,True,28,1
ZC-K-23K23S1,1440,experiment,94,↑,up,↑,0.8022895997855812,True,28,1
ZC-K-23K23S1,1441,experiment,88,←,left,←,0.5246218999382108,True,28,1
ZC-K-23K23S1,1442,experiment,102,↑,up,↑,0.5173722000326961,True,28,1
ZC-K-23K23S1,1443,experiment,100,←,left,←,0.5030276000034064,True,28,1
ZC-K-23K23S1,1444,experiment,84,←,left,←,0.43878190009854734,True,28,1
ZC-K-23K23S1,1445,experiment,73,→,right,→,0.5805548999924213,True,28,1
