PART_ID,Block_no,Trial_no,Block_type,Trial_type,CSI,Stim_letter,Key_pressed,letter_choose,Rt,Corr,Stimulus Time,Level,Reversal,Revs_count
Y2-S2-174K19,1,1,PS,train,50,←,left,←,2.0405646001454443,True,30,-,-,-
Y2-S2-174K19,1,2,PS,train,25,↓,down,↓,1.0172668998129666,True,30,-,-,-
Y2-S2-174K19,1,3,PS,train,38,↑,up,↑,0.51735659991391,True,30,-,-,-
Y2-S2-174K19,1,4,PS,train,32,→,right,→,1.471025199862197,True,30,-,-,-
Y2-S2-174K19,1,5,PS,train,42,↑,up,↑,1.0267864000052214,True,30,-,-,-
Y2-S2-174K19,1,6,PS,train,28,→,right,→,0.6340621998533607,True,30,-,-,-
Y2-S2-174K19,1,7,PS,train,43,←,left,←,0.5006780000403523,True,30,-,-,-
Y2-S2-174K19,1,8,PS,train,49,↑,up,↑,0.8049512000288814,True,30,-,-,-
Y2-S2-174K19,1,9,PS,train,45,→,right,→,0.8489639000035822,True,30,-,-,-
Y2-S2-174K19,1,10,PS,train,29,←,left,←,0.8950020000338554,True,30,-,-,-
Y2-S2-174K19,2,11,AS,train,37,→,right,→,0.7171380999498069,True,45,-,-,-
Y2-S2-174K19,2,12,AS,train,34,↓,down,↓,1.0084599000401795,True,45,-,-,-
Y2-S2-174K19,2,13,AS,train,44,→,up,↑,0.5177650998812169,False,45,-,-,-
Y2-S2-174K19,2,14,AS,train,28,↑,left,←,0.8007517999503762,False,45,-,-,-
Y2-S2-174K19,2,15,AS,train,26,→,right,→,0.8006452000699937,True,45,-,-,-
Y2-S2-174K19,2,16,AS,train,46,↓,down,↓,1.0241056999657303,True,45,-,-,-
Y2-S2-174K19,2,17,AS,train,33,←,left,←,0.601252700202167,True,45,-,-,-
Y2-S2-174K19,2,18,AS,train,40,↓,down,↓,1.125307000009343,True,45,-,-,-
Y2-S2-174K19,2,19,AS,train,40,→,right,→,0.7841316000558436,True,45,-,-,-
Y2-S2-174K19,2,20,AS,train,28,↓,down,↓,0.9363792999647558,True,45,-,-,-
Y2-S2-174K19,-,21,PS,adaptive,37,←,left,←,0.37707150005735457,True,10,0,0,0
Y2-S2-174K19,-,22,PS,adaptive,32,↑,up,↑,0.6024406999349594,True,10,0,0,0
Y2-S2-174K19,-,23,PS,adaptive,37,↓,down,↓,0.4834781000390649,True,10,1,0,0
Y2-S2-174K19,-,24,PS,adaptive,46,↑,no_key,no_letter,-1.0,False,9,-1,1,1
Y2-S2-174K19,-,25,PS,adaptive,35,→,right,→,0.5283414998557419,True,10,-1,0,1
Y2-S2-174K19,-,26,PS,adaptive,29,←,left,←,0.7248466999735683,True,10,-1,0,1
Y2-S2-174K19,-,27,PS,adaptive,41,↑,up,↑,0.5106244999915361,True,10,1,1,2
Y2-S2-174K19,-,28,PS,adaptive,29,↓,right,→,0.6491052000783384,False,9,-1,1,3
Y2-S2-174K19,-,29,PS,adaptive,28,→,right,→,0.7430929001420736,True,10,-1,0,3
Y2-S2-174K19,-,30,PS,adaptive,36,↓,down,↓,0.6658645002171397,True,10,-1,0,3
Y2-S2-174K19,-,31,PS,adaptive,47,↑,up,↑,0.719877399969846,True,10,1,1,4
Y2-S2-174K19,-,32,AS,adaptive,29,→,right,→,0.6564034998882562,True,20,0,0,0
Y2-S2-174K19,-,33,AS,adaptive,43,←,left,←,0.5973703998606652,True,20,0,0,0
Y2-S2-174K19,-,34,AS,adaptive,39,↑,up,↑,0.6403316999785602,True,20,1,0,0
Y2-S2-174K19,-,35,AS,adaptive,28,↓,down,↓,0.7282217999454588,True,19,1,0,0
Y2-S2-174K19,-,36,AS,adaptive,40,↑,up,↑,0.35042060003615916,True,19,1,0,0
Y2-S2-174K19,-,37,AS,adaptive,25,→,left,←,0.6068818001076579,False,19,-1,1,1
Y2-S2-174K19,-,38,AS,adaptive,29,←,left,←,0.8352578999474645,True,20,-1,0,1
Y2-S2-174K19,-,39,AS,adaptive,37,↓,down,↓,0.7256953998003155,True,20,-1,0,1
Y2-S2-174K19,-,40,AS,adaptive,37,↑,left,←,0.4177993000485003,False,20,-1,0,1
Y2-S2-174K19,-,41,AS,adaptive,27,↓,left,←,0.9888577000238001,False,21,-1,0,1
Y2-S2-174K19,-,42,AS,adaptive,32,→,right,→,0.7971628999803215,True,22,-1,0,1
Y2-S2-174K19,-,43,AS,adaptive,44,←,left,←,0.639723600121215,True,22,-1,0,1
Y2-S2-174K19,-,44,AS,adaptive,32,→,right,→,0.9034123001620173,True,22,1,1,2
Y2-S2-174K19,-,45,AS,adaptive,44,←,right,→,1.127424699952826,False,21,-1,1,3
Y2-S2-174K19,-,46,AS,adaptive,48,↓,no_key,no_letter,-1.0,False,22,-1,0,3
Y2-S2-174K19,-,47,AS,adaptive,50,→,right,→,0.6023820999544114,True,23,-1,0,3
Y2-S2-174K19,-,48,AS,adaptive,36,←,up,↑,1.0080601999070495,False,23,-1,0,3
Y2-S2-174K19,-,49,AS,adaptive,47,↓,down,↓,0.7946828999556601,True,24,-1,0,3
Y2-S2-174K19,-,50,AS,adaptive,41,↑,left,←,1.1455514999106526,False,24,-1,0,3
Y2-S2-174K19,-,51,AS,adaptive,43,↓,down,↓,0.836626699892804,True,25,-1,0,3
Y2-S2-174K19,-,52,AS,adaptive,29,←,left,←,0.9605169999413192,True,25,-1,0,3
Y2-S2-174K19,-,53,AS,adaptive,39,↑,left,←,0.6138208999764174,False,25,-1,0,3
Y2-S2-174K19,-,54,AS,adaptive,47,←,left,←,0.5336970000062138,True,26,-1,0,3
Y2-S2-174K19,-,55,AS,adaptive,27,↓,down,↓,0.7690310999751091,True,26,-1,0,3
Y2-S2-174K19,-,56,AS,adaptive,44,←,left,←,0.6894439999014139,True,26,1,1,4
Y2-S2-174K19,1,57,AS,intra_train,41,↑,up,↑,0.6005726999137551,True,37,-,-,-
Y2-S2-174K19,1,58,AS,intra_train,34,↓,down,↓,1.029374900041148,True,37,-,-,-
Y2-S2-174K19,1,59,AS,intra_train,48,←,left,←,0.9730000998824835,True,37,-,-,-
Y2-S2-174K19,1,60,AS,intra_train,40,→,right,→,0.8223117999732494,True,37,-,-,-
Y2-S2-174K19,1,61,AS,intra_train,31,←,left,←,0.7338718001265079,True,37,-,-,-
Y2-S2-174K19,1,62,AS,exp,43,→,right,→,0.5007063001394272,True,25,0,0,0
Y2-S2-174K19,1,63,AS,exp,28,←,left,←,0.670996000058949,True,25,0,0,0
Y2-S2-174K19,1,64,AS,exp,25,↓,down,↓,0.9504029999952763,True,25,1,0,0
Y2-S2-174K19,1,65,AS,exp,45,→,right,→,0.7771057998761535,True,24,1,0,0
Y2-S2-174K19,1,66,AS,exp,38,↑,up,↑,0.4503839001990855,True,24,1,0,0
Y2-S2-174K19,1,67,AS,exp,27,←,no_key,no_letter,-1.0,False,24,-1,1,1
Y2-S2-174K19,1,68,AS,exp,44,↓,down,↓,0.9401071998290718,True,25,-1,0,1
Y2-S2-174K19,1,69,AS,exp,33,↑,up,↑,0.6700498999562114,True,25,-1,0,1
Y2-S2-174K19,1,70,AS,exp,40,←,no_key,no_letter,-1.0,False,25,-1,0,1
Y2-S2-174K19,1,71,AS,exp,45,↑,up,↑,0.8727446000557393,True,26,-1,0,1
Y2-S2-174K19,1,72,AS,exp,28,↓,down,↓,0.8216423999983817,True,26,-1,0,1
Y2-S2-174K19,1,73,AS,exp,50,←,left,←,0.8131027999334037,True,26,1,1,2
Y2-S2-174K19,1,74,AS,exp,35,↑,down,↓,1.0932390000671148,False,25,-1,1,3
Y2-S2-174K19,1,75,AS,exp,25,→,right,→,0.7090348999481648,True,26,-1,0,3
Y2-S2-174K19,1,76,AS,exp,39,↑,up,↑,0.7762975001242012,True,26,-1,0,3
Y2-S2-174K19,1,77,AS,exp,30,←,left,←,0.8317218001466244,True,26,1,1,4
Y2-S2-174K19,1,78,AS,exp,49,↑,up,↑,0.7430828001815826,True,25,1,0,4
Y2-S2-174K19,1,79,AS,exp,50,→,right,→,0.5505269998684525,True,25,1,0,4
Y2-S2-174K19,1,80,AS,exp,48,←,up,↑,1.0983635000884533,False,25,-1,1,5
Y2-S2-174K19,1,81,AS,exp,48,→,right,→,0.5507422001101077,True,26,-1,0,5
Y2-S2-174K19,1,82,AS,exp,32,←,left,←,0.7236939000431448,True,26,-1,0,5
Y2-S2-174K19,1,83,AS,exp,28,↑,up,↑,0.4674897000659257,True,26,1,1,6
Y2-S2-174K19,1,84,AS,exp,30,↓,down,↓,0.6786063001491129,True,25,1,0,6
Y2-S2-174K19,1,85,AS,exp,47,→,right,→,0.9248399999924004,True,25,1,0,6
Y2-S2-174K19,1,86,AS,exp,49,↑,up,↑,1.1054386999458075,True,25,1,0,6
Y2-S2-174K19,1,87,AS,exp,44,←,left,←,0.7420525001361966,True,24,1,0,6
Y2-S2-174K19,1,88,AS,exp,39,→,right,→,0.5005510000046343,True,24,1,0,6
Y2-S2-174K19,1,89,AS,exp,31,↑,up,↑,0.5340209000278264,True,24,1,0,6
Y2-S2-174K19,1,90,AS,exp,35,↓,down,↓,0.6261082999408245,True,23,1,0,6
Y2-S2-174K19,1,91,AS,exp,38,↑,down,↓,0.9851005000527948,False,23,-1,1,7
Y2-S2-174K19,1,92,AS,exp,35,↓,down,↓,1.0675150998868048,True,24,-1,0,7
Y2-S2-174K19,1,93,AS,exp,34,↑,up,↑,0.887628800002858,True,24,-1,0,7
Y2-S2-174K19,1,94,AS,exp,26,←,left,←,0.6734876001719385,True,24,1,1,8
Y2-S2-174K19,1,95,AS,exp,37,↑,up,↑,0.7009801000822335,True,23,1,0,8
Y2-S2-174K19,1,96,AS,exp,37,↓,right,→,0.6060383999720216,False,23,-1,1,9
Y2-S2-174K19,1,97,AS,exp,30,←,left,←,1.1596118998713791,True,24,-1,0,9
Y2-S2-174K19,1,98,AS,exp,49,→,right,→,0.7143939000088722,True,24,-1,0,9
Y2-S2-174K19,1,99,AS,exp,30,↓,down,↓,0.889008600031957,True,24,1,1,10
Y2-S2-174K19,1,100,AS,exp,38,↑,up,↑,1.6848627000581473,True,23,1,0,10
Y2-S2-174K19,1,101,AS,exp,29,←,right,→,0.8869125999044627,False,23,-1,1,11
Y2-S2-174K19,1,102,AS,exp,25,↓,down,↓,0.6532972999848425,True,24,-1,0,11
Y2-S2-174K19,1,103,AS,exp,31,→,down,↓,0.8998048000503331,False,24,-1,0,11
Y2-S2-174K19,1,104,AS,exp,37,↓,down,↓,0.705038599902764,True,25,-1,0,11
Y2-S2-174K19,1,105,AS,exp,42,→,right,→,0.9378582001663744,True,25,-1,0,11
Y2-S2-174K19,1,106,AS,exp,32,←,left,←,0.8408379999455065,True,25,1,1,12
Y2-S2-174K19,1,107,AS,exp,47,↓,down,↓,0.8584615001454949,True,24,1,0,12
Y2-S2-174K19,1,108,AS,exp,29,→,right,→,0.7357739999424666,True,24,1,0,12
Y2-S2-174K19,1,109,AS,exp,38,←,left,←,0.7457502998877317,True,24,1,0,12
Y2-S2-174K19,1,110,AS,exp,32,↑,up,↑,0.7074059001170099,True,23,1,0,12
Y2-S2-174K19,1,111,AS,exp,30,→,right,→,0.6628199000842869,True,23,1,0,12
Y2-S2-174K19,1,112,AS,exp,43,←,left,←,0.8454538998194039,True,23,1,0,12
Y2-S2-174K19,1,113,AS,exp,31,→,right,→,0.6996580001432449,True,22,1,0,12
Y2-S2-174K19,1,114,AS,exp,25,↓,up,↑,0.9848088000435382,False,22,-1,1,13
Y2-S2-174K19,1,115,AS,exp,49,←,left,←,0.6761171000543982,True,23,-1,0,13
Y2-S2-174K19,1,116,AS,exp,37,↑,left,←,1.1139791999012232,False,23,-1,0,13
Y2-S2-174K19,1,117,AS,exp,25,→,right,→,0.713208100060001,True,24,-1,0,13
Y2-S2-174K19,1,118,AS,exp,45,↑,up,↑,0.6143292998895049,True,24,-1,0,13
Y2-S2-174K19,1,119,AS,exp,30,←,left,←,0.6299137999303639,True,24,1,1,14
Y2-S2-174K19,1,120,AS,exp,38,→,up,↑,1.0696244998835027,False,23,-1,1,15
Y2-S2-174K19,1,121,AS,exp,26,↓,up,↑,0.9409884000197053,False,24,-1,0,15
Y2-S2-174K19,1,122,AS,exp,43,←,left,←,0.7639730998780578,True,25,-1,0,15
Y2-S2-174K19,1,123,AS,exp,32,↑,up,↑,0.8167688001412898,True,25,-1,0,15
Y2-S2-174K19,1,124,AS,exp,37,↓,down,↓,0.933705999981612,True,25,1,1,16
Y2-S2-174K19,2,125,PS,intra_train,29,↑,up,↑,0.7349718001205474,True,13,-,-,-
Y2-S2-174K19,2,126,PS,intra_train,27,↓,up,↑,1.5568146998994052,False,13,-,-,-
Y2-S2-174K19,2,127,PS,intra_train,40,→,right,→,0.6423876001499593,True,13,-,-,-
Y2-S2-174K19,2,128,PS,intra_train,25,↓,left,←,1.8049997000489384,False,13,-,-,-
Y2-S2-174K19,2,129,PS,intra_train,37,↑,up,↑,0.5463386999908835,True,13,-,-,-
Y2-S2-174K19,2,130,PS,exp,25,↓,down,↓,0.6290627000853419,True,9,0,0,0
Y2-S2-174K19,2,131,PS,exp,44,↑,up,↑,0.6908083001617342,True,9,0,0,0
Y2-S2-174K19,2,132,PS,exp,27,←,no_key,no_letter,-1.0,False,9,-1,0,0
Y2-S2-174K19,2,133,PS,exp,33,→,right,→,1.706793999997899,True,10,-1,0,0
Y2-S2-174K19,2,134,PS,exp,26,↓,up,↑,1.3354068000335246,False,10,-1,0,0
Y2-S2-174K19,2,135,PS,exp,39,→,right,→,0.6823414999525994,True,11,-1,0,0
Y2-S2-174K19,2,136,PS,exp,25,↓,up,↑,0.9522921000607312,False,11,-1,0,0
Y2-S2-174K19,2,137,PS,exp,32,←,left,←,0.5806207999121398,True,12,-1,0,0
Y2-S2-174K19,2,138,PS,exp,50,↑,up,↑,0.7982956001069397,True,12,-1,0,0
Y2-S2-174K19,2,139,PS,exp,29,↓,down,↓,0.8429767000488937,True,12,1,1,1
Y2-S2-174K19,2,140,PS,exp,46,←,left,←,1.049832799937576,True,11,1,0,1
Y2-S2-174K19,2,141,PS,exp,26,↑,up,↑,0.8734935999382287,True,11,1,0,1
Y2-S2-174K19,2,142,PS,exp,47,↓,down,↓,0.8581617998424917,True,11,1,0,1
Y2-S2-174K19,2,143,PS,exp,32,↑,left,←,0.8903670001309365,False,10,-1,1,2
Y2-S2-174K19,2,144,PS,exp,49,↓,down,↓,0.8487042000051588,True,11,-1,0,2
Y2-S2-174K19,2,145,PS,exp,37,↑,up,↑,1.0034539999905974,True,11,-1,0,2
Y2-S2-174K19,2,146,PS,exp,48,→,right,→,0.8509167998563498,True,11,1,1,3
Y2-S2-174K19,2,147,PS,exp,27,←,left,←,1.1275200999807566,True,10,1,0,3
Y2-S2-174K19,2,148,PS,exp,37,→,left,←,0.900326200062409,False,10,-1,1,4
Y2-S2-174K19,2,149,PS,exp,30,←,left,←,0.6953412999864668,True,11,-1,0,4
Y2-S2-174K19,2,150,PS,exp,37,↑,up,↑,0.6719468999654055,True,11,-1,0,4
Y2-S2-174K19,2,151,PS,exp,50,↓,left,←,0.8656928001437336,False,11,-1,0,4
Y2-S2-174K19,2,152,PS,exp,34,↑,left,←,0.9632635000161827,False,12,-1,0,4
Y2-S2-174K19,2,153,PS,exp,50,←,left,←,0.6802223999984562,True,13,-1,0,4
Y2-S2-174K19,2,154,PS,exp,27,↑,up,↑,0.6617571001406759,True,13,-1,0,4
Y2-S2-174K19,2,155,PS,exp,39,←,up,↑,1.260681499959901,False,13,-1,0,4
Y2-S2-174K19,2,156,PS,exp,43,↓,down,↓,0.8015997000038624,True,14,-1,0,4
Y2-S2-174K19,2,157,PS,exp,28,→,right,→,0.7531793001107872,True,14,-1,0,4
Y2-S2-174K19,2,158,PS,exp,27,←,left,←,0.9349829000420868,True,14,1,1,5
Y2-S2-174K19,2,159,PS,exp,31,↑,up,↑,0.601029200013727,True,13,1,0,5
Y2-S2-174K19,2,160,PS,exp,25,←,left,←,0.6443608000408858,True,13,1,0,5
Y2-S2-174K19,2,161,PS,exp,38,→,no_key,no_letter,-1.0,False,13,-1,1,6
Y2-S2-174K19,2,162,PS,exp,36,↓,down,↓,0.897191199939698,True,14,-1,0,6
Y2-S2-174K19,2,163,PS,exp,26,←,left,←,1.1432560000102967,True,14,-1,0,6
Y2-S2-174K19,2,164,PS,exp,45,↑,up,↑,0.6248154998756945,True,14,1,1,7
Y2-S2-174K19,2,165,PS,exp,37,←,left,←,0.7390813999809325,True,13,1,0,7
Y2-S2-174K19,2,166,PS,exp,45,→,left,←,0.6556726000271738,False,13,-1,1,8
Y2-S2-174K19,2,167,PS,exp,27,←,left,←,0.9770132000558078,True,14,-1,0,8
Y2-S2-174K19,2,168,PS,exp,27,↑,right,→,1.3729840000160038,False,14,-1,0,8
Y2-S2-174K19,2,169,PS,exp,41,↓,down,↓,0.8158810001332313,True,15,-1,0,8
Y2-S2-174K19,2,170,PS,exp,43,→,right,→,0.6789983999915421,True,15,-1,0,8
Y2-S2-174K19,2,171,PS,exp,34,↑,no_key,no_letter,-1.0,False,15,-1,0,8
Y2-S2-174K19,2,172,PS,exp,32,←,left,←,0.8054140000604093,True,16,-1,0,8
Y2-S2-174K19,2,173,PS,exp,33,↓,down,↓,0.9419128999579698,True,16,-1,0,8
Y2-S2-174K19,2,174,PS,exp,41,→,no_key,no_letter,-1.0,False,16,-1,0,8
Y2-S2-174K19,2,175,PS,exp,37,↓,down,↓,0.6880904000718147,True,17,-1,0,8
Y2-S2-174K19,2,176,PS,exp,40,→,right,→,0.8367862000595778,True,17,-1,0,8
Y2-S2-174K19,2,177,PS,exp,45,↓,down,↓,0.6868114999961108,True,17,1,1,9
Y2-S2-174K19,2,178,PS,exp,43,↑,no_key,no_letter,-1.0,False,16,-1,1,10
Y2-S2-174K19,2,179,PS,exp,45,←,left,←,0.8018817999400198,True,17,-1,0,10
Y2-S2-174K19,2,180,PS,exp,28,↓,down,↓,0.5707425000146031,True,17,-1,0,10
Y2-S2-174K19,2,181,PS,exp,35,←,left,←,0.8748738002032042,True,17,1,1,11
Y2-S2-174K19,2,182,PS,exp,49,↑,left,←,1.0967797001358122,False,16,-1,1,12
Y2-S2-174K19,2,183,PS,exp,33,↓,down,↓,0.805451099993661,True,17,-1,0,12
Y2-S2-174K19,2,184,PS,exp,35,←,no_key,no_letter,-1.0,False,17,-1,0,12
Y2-S2-174K19,2,185,PS,exp,41,→,no_key,no_letter,-1.0,False,18,-1,0,12
Y2-S2-174K19,2,186,PS,exp,47,↓,no_key,no_letter,-1.0,False,19,-1,0,12
Y2-S2-174K19,2,187,PS,exp,39,→,right,→,0.5299361001234502,True,20,-1,0,12
Y2-S2-174K19,2,188,PS,exp,28,↑,left,←,0.6406181999482214,False,20,-1,0,12
Y2-S2-174K19,2,189,PS,exp,46,↓,down,↓,0.6928616999648511,True,21,-1,0,12
Y2-S2-174K19,2,190,PS,exp,28,←,right,→,1.5273296998348087,False,21,-1,0,12
Y2-S2-174K19,2,191,PS,exp,31,→,no_key,no_letter,-1.0,False,22,-1,0,12
Y2-S2-174K19,2,192,PS,exp,44,↓,no_key,no_letter,-1.0,False,23,-1,0,12
Y2-S2-174K19,2,193,PS,exp,26,→,right,→,0.5951054999604821,True,24,-1,0,12
Y2-S2-174K19,2,194,PS,exp,39,↑,no_key,no_letter,-1.0,False,24,-1,0,12
Y2-S2-174K19,2,195,PS,exp,45,←,left,←,0.792492900043726,True,25,-1,0,12
Y2-S2-174K19,2,196,PS,exp,37,↓,down,↓,1.4726873999461532,True,25,-1,0,12
Y2-S2-174K19,2,197,PS,exp,48,←,right,→,0.9678392999339849,False,25,-1,0,12
Y2-S2-174K19,2,198,PS,exp,34,↑,up,↑,0.974487799918279,True,26,-1,0,12
Y2-S2-174K19,2,199,PS,exp,44,←,left,←,0.7880853000096977,True,26,-1,0,12
Y2-S2-174K19,2,200,PS,exp,41,→,no_key,no_letter,-1.0,False,26,-1,0,12
Y2-S2-174K19,2,201,PS,exp,26,↓,down,↓,0.9807653999887407,True,27,-1,0,12
Y2-S2-174K19,2,202,PS,exp,48,←,no_key,no_letter,-1.0,False,27,-1,0,12
Y2-S2-174K19,2,203,PS,exp,44,↑,no_key,no_letter,-1.0,False,28,-1,0,12
Y2-S2-174K19,2,204,PS,exp,29,↓,no_key,no_letter,-1.0,False,29,-1,0,12
Y2-S2-174K19,2,205,PS,exp,42,→,right,→,0.4510174999013543,True,30,-1,0,12
Y2-S2-174K19,2,206,PS,exp,30,↑,up,↑,0.8762201000936329,True,30,-1,0,12
Y2-S2-174K19,2,207,PS,exp,48,→,right,→,1.0087818000465631,True,30,1,1,13
Y2-S2-174K19,2,208,PS,exp,36,←,no_key,no_letter,-1.0,False,29,-1,1,14
Y2-S2-174K19,2,209,PS,exp,36,→,right,→,0.7765856999903917,True,30,-1,0,14
Y2-S2-174K19,2,210,PS,exp,30,↑,no_key,no_letter,-1.0,False,30,-1,0,14
Y2-S2-174K19,2,211,PS,exp,38,←,no_key,no_letter,-1.0,False,31,-1,0,14
Y2-S2-174K19,2,212,PS,exp,25,↑,up,↑,1.2870352999307215,True,32,-1,0,14
Y2-S2-174K19,2,213,PS,exp,33,→,right,→,0.7691309000365436,True,32,-1,0,14
Y2-S2-174K19,2,214,PS,exp,38,↓,down,↓,0.7691705001052469,True,32,1,1,15
Y2-S2-174K19,2,215,PS,exp,47,→,right,→,0.5508763000834733,True,31,1,0,15
Y2-S2-174K19,2,216,PS,exp,25,←,no_key,no_letter,-1.0,False,31,-1,1,16
Y2-S2-174K19,3,217,PS,intra_train,48,↑,up,↑,0.6600087999831885,True,13,-,-,-
Y2-S2-174K19,3,218,PS,intra_train,25,↓,down,↓,0.6143933997955173,True,13,-,-,-
Y2-S2-174K19,3,219,PS,intra_train,44,↑,up,↑,0.6858960001263767,True,13,-,-,-
Y2-S2-174K19,3,220,PS,intra_train,43,↓,down,↓,0.6805979998316616,True,13,-,-,-
Y2-S2-174K19,3,221,PS,intra_train,47,↑,up,↑,0.46699379989877343,True,13,-,-,-
Y2-S2-174K19,3,222,PS,exp,28,←,left,←,0.6322882000822574,True,9,0,0,0
Y2-S2-174K19,3,223,PS,exp,48,↓,up,↑,0.5888513000681996,False,9,-1,0,0
Y2-S2-174K19,3,224,PS,exp,49,↑,no_key,no_letter,-1.0,False,10,-1,0,0
Y2-S2-174K19,3,225,PS,exp,45,←,left,←,0.5329007001128048,True,11,-1,0,0
Y2-S2-174K19,3,226,PS,exp,40,↓,up,↑,0.8218205999583006,False,11,-1,0,0
Y2-S2-174K19,3,227,PS,exp,34,→,left,←,1.318868099944666,False,12,-1,0,0
Y2-S2-174K19,3,228,PS,exp,27,↑,up,↑,0.5158446000423282,True,13,-1,0,0
Y2-S2-174K19,3,229,PS,exp,45,→,no_key,no_letter,-1.0,False,13,-1,0,0
Y2-S2-174K19,3,230,PS,exp,34,↓,down,↓,0.7216238998807967,True,14,-1,0,0
Y2-S2-174K19,3,231,PS,exp,35,←,left,←,0.558134000049904,True,14,-1,0,0
Y2-S2-174K19,3,232,PS,exp,37,↑,up,↑,0.7379215001128614,True,14,1,1,1
Y2-S2-174K19,3,233,PS,exp,34,↓,no_key,no_letter,-1.0,False,13,-1,1,2
Y2-S2-174K19,3,234,PS,exp,27,→,no_key,no_letter,-1.0,False,14,-1,0,2
Y2-S2-174K19,3,235,PS,exp,30,↑,no_key,no_letter,-1.0,False,15,-1,0,2
Y2-S2-174K19,3,236,PS,exp,35,←,left,←,0.5279643998946995,True,16,-1,0,2
Y2-S2-174K19,3,237,PS,exp,38,↓,down,↓,0.6416740000713617,True,16,-1,0,2
Y2-S2-174K19,3,238,PS,exp,48,→,right,→,0.5507510001771152,True,16,1,1,3
Y2-S2-174K19,3,239,PS,exp,41,↑,up,↑,1.2749722998123616,True,15,1,0,3
Y2-S2-174K19,3,240,PS,exp,45,←,left,←,1.2750667999498546,True,15,1,0,3
Y2-S2-174K19,3,241,PS,exp,28,↓,no_key,no_letter,-1.0,False,15,-1,1,4
Y2-S2-174K19,3,242,PS,exp,46,↑,right,→,1.4353285001125187,False,16,-1,0,4
Y2-S2-174K19,3,243,PS,exp,31,↓,no_key,no_letter,-1.0,False,17,-1,0,4
Y2-S2-174K19,3,244,PS,exp,50,←,no_key,no_letter,-1.0,False,18,-1,0,4
Y2-S2-174K19,3,245,PS,exp,47,↑,up,↑,0.6550739998929203,True,19,-1,0,4
Y2-S2-174K19,3,246,PS,exp,33,↓,down,↓,0.9849602000322193,True,19,-1,0,4
Y2-S2-174K19,3,247,PS,exp,26,←,left,←,0.6350967998150736,True,19,1,1,5
Y2-S2-174K19,3,248,PS,exp,40,↓,down,↓,0.6216782000847161,True,18,1,0,5
Y2-S2-174K19,3,249,PS,exp,33,←,left,←,0.687738100066781,True,18,1,0,5
Y2-S2-174K19,3,250,PS,exp,32,↓,down,↓,0.6048811001237482,True,18,1,0,5
Y2-S2-174K19,3,251,PS,exp,31,↑,up,↑,0.623626499902457,True,17,1,0,5
Y2-S2-174K19,3,252,PS,exp,50,←,left,←,0.6189486999064684,True,17,1,0,5
Y2-S2-174K19,3,253,PS,exp,32,↑,up,↑,0.5247559999115765,True,17,1,0,5
Y2-S2-174K19,3,254,PS,exp,28,←,left,←,0.5782083999365568,True,16,1,0,5
Y2-S2-174K19,3,255,PS,exp,37,↓,no_key,no_letter,-1.0,False,16,-1,1,6
Y2-S2-174K19,3,256,PS,exp,35,→,left,←,0.5097916999366134,False,17,-1,0,6
Y2-S2-174K19,3,257,PS,exp,29,↑,no_key,no_letter,-1.0,False,18,-1,0,6
Y2-S2-174K19,3,258,PS,exp,44,↓,no_key,no_letter,-1.0,False,19,-1,0,6
Y2-S2-174K19,3,259,PS,exp,50,←,left,←,0.7097078999504447,True,20,-1,0,6
Y2-S2-174K19,3,260,PS,exp,28,→,no_key,no_letter,-1.0,False,20,-1,0,6
Y2-S2-174K19,3,261,PS,exp,35,↑,up,↑,0.5543199998792261,True,21,-1,0,6
Y2-S2-174K19,3,262,PS,exp,44,↓,down,↓,0.5543337999843061,True,21,-1,0,6
Y2-S2-174K19,3,263,PS,exp,32,←,left,←,0.46715639997273684,True,21,1,1,7
Y2-S2-174K19,3,264,PS,exp,33,↓,down,↓,1.4255747999995947,True,20,1,0,7
Y2-S2-174K19,3,265,PS,exp,40,↑,down,↓,1.4787131000775844,False,20,-1,1,8
Y2-S2-174K19,3,266,PS,exp,39,←,left,←,0.6748295000288635,True,21,-1,0,8
Y2-S2-174K19,3,267,PS,exp,27,↑,up,↑,0.5762517999392003,True,21,-1,0,8
Y2-S2-174K19,3,268,PS,exp,27,→,no_key,no_letter,-1.0,False,21,-1,0,8
Y2-S2-174K19,3,269,PS,exp,38,↑,no_key,no_letter,-1.0,False,22,-1,0,8
Y2-S2-174K19,3,270,PS,exp,46,←,no_key,no_letter,-1.0,False,23,-1,0,8
Y2-S2-174K19,3,271,PS,exp,28,↑,right,→,0.534126800019294,False,24,-1,0,8
Y2-S2-174K19,3,272,PS,exp,37,→,no_key,no_letter,-1.0,False,25,-1,0,8
Y2-S2-174K19,3,273,PS,exp,48,↓,down,↓,0.6699144998565316,True,26,-1,0,8
Y2-S2-174K19,3,274,PS,exp,30,→,left,←,1.226083300076425,False,26,-1,0,8
Y2-S2-174K19,3,275,PS,exp,25,↑,no_key,no_letter,-1.0,False,27,-1,0,8
Y2-S2-174K19,3,276,PS,exp,28,←,no_key,no_letter,-1.0,False,28,-1,0,8
Y2-S2-174K19,3,277,PS,exp,30,↓,no_key,no_letter,-1.0,False,29,-1,0,8
Y2-S2-174K19,3,278,PS,exp,25,↑,no_key,no_letter,-1.0,False,30,-1,0,8
Y2-S2-174K19,3,279,PS,exp,37,←,left,←,0.5671687999274582,True,31,-1,0,8
Y2-S2-174K19,3,280,PS,exp,42,↓,no_key,no_letter,-1.0,False,31,-1,0,8
Y2-S2-174K19,3,281,PS,exp,29,←,left,←,0.6506109999027103,True,32,-1,0,8
Y2-S2-174K19,3,282,PS,exp,25,→,right,→,0.912894600071013,True,32,-1,0,8
Y2-S2-174K19,3,283,PS,exp,32,←,no_key,no_letter,-1.0,False,32,-1,0,8
Y2-S2-174K19,3,284,PS,exp,42,↓,no_key,no_letter,-1.0,False,33,-1,0,8
Y2-S2-174K19,3,285,PS,exp,25,→,right,→,1.4022830000612885,True,34,-1,0,8
Y2-S2-174K19,3,286,PS,exp,50,←,no_key,no_letter,-1.0,False,34,-1,0,8
Y2-S2-174K19,3,287,PS,exp,40,↓,no_key,no_letter,-1.0,False,35,-1,0,8
Y2-S2-174K19,3,288,PS,exp,48,↑,up,↑,0.5342703000642359,True,36,-1,0,8
Y2-S2-174K19,3,289,PS,exp,27,←,left,←,0.633913999889046,True,36,-1,0,8
Y2-S2-174K19,3,290,PS,exp,37,→,left,←,1.6417006000410765,False,36,-1,0,8
Y2-S2-174K19,3,291,PS,exp,28,↑,up,↑,1.235983100021258,True,37,-1,0,8
Y2-S2-174K19,3,292,PS,exp,47,→,no_key,no_letter,-1.0,False,37,-1,0,8
Y2-S2-174K19,3,293,PS,exp,29,↑,no_key,no_letter,-1.0,False,38,-1,0,8
Y2-S2-174K19,3,294,PS,exp,37,↓,down,↓,1.1848174000624567,True,39,-1,0,8
Y2-S2-174K19,3,295,PS,exp,31,↑,no_key,no_letter,-1.0,False,39,-1,0,8
Y2-S2-174K19,3,296,PS,exp,25,→,no_key,no_letter,-1.0,False,40,-1,0,8
Y2-S2-174K19,3,297,PS,exp,27,←,left,←,1.1151290000416338,True,41,-1,0,8
Y2-S2-174K19,3,298,PS,exp,36,↓,down,↓,0.650896199978888,True,41,-1,0,8
Y2-S2-174K19,3,299,PS,exp,36,→,right,→,0.8945659999735653,True,41,1,1,9
Y2-S2-174K19,3,300,PS,exp,42,←,no_key,no_letter,-1.0,False,40,-1,1,10
Y2-S2-174K19,3,301,PS,exp,44,→,no_key,no_letter,-1.0,False,41,-1,0,10
Y2-S2-174K19,3,302,PS,exp,43,↓,up,↑,0.7005346999503672,False,42,-1,0,10
Y2-S2-174K19,3,303,PS,exp,28,←,no_key,no_letter,-1.0,False,43,-1,0,10
Y2-S2-174K19,3,304,PS,exp,40,↓,no_key,no_letter,-1.0,False,44,-1,0,10
Y2-S2-174K19,3,305,PS,exp,49,←,no_key,no_letter,-1.0,False,45,-1,0,10
Y2-S2-174K19,3,306,PS,exp,26,↑,no_key,no_letter,-1.0,False,46,-1,0,10
Y2-S2-174K19,3,307,PS,exp,30,→,right,→,0.5843865000642836,True,47,-1,0,10
Y2-S2-174K19,3,308,PS,exp,48,↑,up,↑,0.9634022999089211,True,47,-1,0,10
Y2-S2-174K19,3,309,PS,exp,50,←,left,←,0.5848991998936981,True,47,1,1,11
Y2-S2-174K19,3,310,PS,exp,34,→,right,→,1.9452647001016885,True,46,1,0,11
Y2-S2-174K19,3,311,PS,exp,48,↓,no_key,no_letter,-1.0,False,46,-1,1,12
Y2-S2-174K19,3,312,PS,exp,30,→,right,→,0.9174051999580115,True,47,-1,0,12
Y2-S2-174K19,3,313,PS,exp,38,↑,no_key,no_letter,-1.0,False,47,-1,0,12
Y2-S2-174K19,3,314,PS,exp,35,→,no_key,no_letter,-1.0,False,48,-1,0,12
Y2-S2-174K19,3,315,PS,exp,36,←,left,←,0.7683431999757886,True,49,-1,0,12
Y2-S2-174K19,3,316,PS,exp,45,↓,down,↓,0.7341984000522643,True,49,-1,0,12
Y2-S2-174K19,3,317,PS,exp,35,←,left,←,0.8675625000614673,True,49,1,1,13
Y2-S2-174K19,3,318,PS,exp,35,↓,down,↓,0.8341741999611259,True,48,1,0,13
Y2-S2-174K19,3,319,PS,exp,42,↑,no_key,no_letter,-1.0,False,48,-1,1,14
Y2-S2-174K19,3,320,PS,exp,46,→,no_key,no_letter,-1.0,False,49,-1,0,14
Y2-S2-174K19,3,321,PS,exp,36,↑,no_key,no_letter,-1.0,False,50,-1,0,14
Y2-S2-174K19,3,322,PS,exp,31,↓,no_key,no_letter,-1.0,False,51,-1,0,14
Y2-S2-174K19,3,323,PS,exp,26,→,right,→,0.5009255998302251,True,52,-1,0,14
Y2-S2-174K19,3,324,PS,exp,36,↑,up,↑,0.5014871000312269,True,52,-1,0,14
Y2-S2-174K19,3,325,PS,exp,46,↓,down,↓,0.6688079999294132,True,52,1,1,15
Y2-S2-174K19,3,326,PS,exp,27,→,right,→,1.3305206000804901,True,51,1,0,15
Y2-S2-174K19,3,327,PS,exp,42,←,left,←,0.7342600000556558,True,51,1,0,15
Y2-S2-174K19,3,328,PS,exp,28,↑,up,↑,0.5509941999334842,True,51,1,0,15
Y2-S2-174K19,3,329,PS,exp,50,←,left,←,0.6511668998282403,True,50,1,0,15
Y2-S2-174K19,3,330,PS,exp,28,↑,up,↑,0.7175606999080628,True,50,1,0,15
Y2-S2-174K19,3,331,PS,exp,45,↓,down,↓,2.1071934001520276,True,50,1,0,15
Y2-S2-174K19,3,332,PS,exp,34,↑,up,↑,0.6842173999175429,True,49,1,0,15
Y2-S2-174K19,3,333,PS,exp,28,←,left,←,0.5843609999865294,True,49,1,0,15
Y2-S2-174K19,3,334,PS,exp,42,↑,up,↑,0.8007086999714375,True,49,1,0,15
Y2-S2-174K19,3,335,PS,exp,35,→,no_key,no_letter,-1.0,False,48,-1,1,16
Y2-S2-174K19,4,336,AS,intra_train,36,←,left,←,1.9464247999712825,True,37,-,-,-
Y2-S2-174K19,4,337,AS,intra_train,44,→,right,→,0.8446396000217646,True,37,-,-,-
Y2-S2-174K19,4,338,AS,intra_train,47,←,left,←,0.8987194998189807,True,37,-,-,-
Y2-S2-174K19,4,339,AS,intra_train,42,↑,up,↑,0.7338664000853896,True,37,-,-,-
Y2-S2-174K19,4,340,AS,intra_train,33,↓,down,↓,0.9429851998575032,True,37,-,-,-
Y2-S2-174K19,4,341,AS,exp,30,←,left,←,0.8972199999261647,True,25,0,0,0
Y2-S2-174K19,4,342,AS,exp,43,↓,down,↓,0.8592995000071824,True,25,0,0,0
Y2-S2-174K19,4,343,AS,exp,47,→,right,→,0.9549696000758559,True,25,1,0,0
Y2-S2-174K19,4,344,AS,exp,38,←,down,↓,0.9747067999560386,False,24,-1,1,1
Y2-S2-174K19,4,345,AS,exp,46,↑,no_key,no_letter,-1.0,False,25,-1,0,1
Y2-S2-174K19,4,346,AS,exp,27,→,no_key,no_letter,-1.0,False,26,-1,0,1
Y2-S2-174K19,4,347,AS,exp,26,↓,no_key,no_letter,-1.0,False,27,-1,0,1
Y2-S2-174K19,4,348,AS,exp,25,↑,no_key,no_letter,-1.0,False,28,-1,0,1
Y2-S2-174K19,4,349,AS,exp,37,←,no_key,no_letter,-1.0,False,29,-1,0,1
Y2-S2-174K19,4,350,AS,exp,46,↑,no_key,no_letter,-1.0,False,30,-1,0,1
Y2-S2-174K19,4,351,AS,exp,37,↓,no_key,no_letter,-1.0,False,31,-1,0,1
Y2-S2-174K19,4,352,AS,exp,25,↑,no_key,no_letter,-1.0,False,32,-1,0,1
Y2-S2-174K19,4,353,AS,exp,41,↓,down,↓,1.236459600040689,True,33,-1,0,1
Y2-S2-174K19,4,354,AS,exp,25,→,right,→,0.8073700999375433,True,33,-1,0,1
Y2-S2-174K19,4,355,AS,exp,34,↑,up,↑,0.9213227999862283,True,33,1,1,2
Y2-S2-174K19,4,356,AS,exp,27,↓,down,↓,0.910377899883315,True,32,1,0,2
Y2-S2-174K19,4,357,AS,exp,37,←,left,←,0.9974234001711011,True,32,1,0,2
Y2-S2-174K19,4,358,AS,exp,27,→,right,→,0.8833602000959218,True,32,1,0,2
Y2-S2-174K19,4,359,AS,exp,37,←,left,←,0.8729306000750512,True,31,1,0,2
Y2-S2-174K19,4,360,AS,exp,31,↑,up,↑,0.5672198999673128,True,31,1,0,2
Y2-S2-174K19,4,361,AS,exp,49,←,left,←,0.7324063000269234,True,31,1,0,2
Y2-S2-174K19,4,362,AS,exp,26,↓,down,↓,0.9523762001190335,True,30,1,0,2
Y2-S2-174K19,4,363,AS,exp,42,→,right,→,0.9617916999850422,True,30,1,0,2
Y2-S2-174K19,4,364,AS,exp,47,←,left,←,1.3071836000308394,True,30,1,0,2
Y2-S2-174K19,4,365,AS,exp,28,↓,down,↓,1.0812208000570536,True,29,1,0,2
Y2-S2-174K19,4,366,AS,exp,33,←,no_key,no_letter,-1.0,False,29,-1,1,3
Y2-S2-174K19,4,367,AS,exp,46,↑,no_key,no_letter,-1.0,False,30,-1,0,3
Y2-S2-174K19,4,368,AS,exp,25,→,no_key,no_letter,-1.0,False,31,-1,0,3
Y2-S2-174K19,4,369,AS,exp,31,←,no_key,no_letter,-1.0,False,32,-1,0,3
Y2-S2-174K19,4,370,AS,exp,50,↓,no_key,no_letter,-1.0,False,33,-1,0,3
Y2-S2-174K19,4,371,AS,exp,32,←,left,←,1.9078935000579804,True,34,-1,0,3
Y2-S2-174K19,4,372,AS,exp,41,→,right,→,1.0319258000236005,True,34,-1,0,3
Y2-S2-174K19,4,373,AS,exp,26,↑,up,↑,0.5175359998829663,True,34,1,1,4
Y2-S2-174K19,4,374,AS,exp,27,←,left,←,0.5002086998429149,True,33,1,0,4
Y2-S2-174K19,4,375,AS,exp,38,↑,up,↑,1.4604026000015438,True,33,1,0,4
Y2-S2-174K19,4,376,AS,exp,44,→,right,→,0.6671663001179695,True,33,1,0,4
Y2-S2-174K19,4,377,AS,exp,41,↓,down,↓,1.0988100001122802,True,32,1,0,4
Y2-S2-174K19,4,378,AS,exp,43,←,left,←,0.903925099875778,True,32,1,0,4
Y2-S2-174K19,4,379,AS,exp,48,↓,no_key,no_letter,-1.0,False,32,-1,1,5
Y2-S2-174K19,4,380,AS,exp,31,↑,right,→,0.6505918998736888,False,33,-1,0,5
Y2-S2-174K19,4,381,AS,exp,30,→,right,→,0.8530368998181075,True,34,-1,0,5
Y2-S2-174K19,4,382,AS,exp,33,↑,up,↑,0.7006534999236465,True,34,-1,0,5
Y2-S2-174K19,4,383,AS,exp,43,←,left,←,0.5505215998273343,True,34,1,1,6
Y2-S2-174K19,4,384,AS,exp,42,→,right,→,0.9516555001027882,True,33,1,0,6
Y2-S2-174K19,4,385,AS,exp,47,↓,down,↓,0.9665534999221563,True,33,1,0,6
Y2-S2-174K19,4,386,AS,exp,38,↑,up,↑,0.9716578000225127,True,33,1,0,6
Y2-S2-174K19,4,387,AS,exp,39,←,left,←,0.8635766999796033,True,32,1,0,6
Y2-S2-174K19,4,388,AS,exp,44,→,right,→,0.6341514999512583,True,32,1,0,6
Y2-S2-174K19,4,389,AS,exp,33,↑,up,↑,0.8480497000273317,True,32,1,0,6
Y2-S2-174K19,4,390,AS,exp,30,↓,no_key,no_letter,-1.0,False,31,-1,1,7
Y2-S2-174K19,4,391,AS,exp,28,←,no_key,no_letter,-1.0,False,32,-1,0,7
Y2-S2-174K19,4,392,AS,exp,26,↓,right,→,1.853940000059083,False,33,-1,0,7
Y2-S2-174K19,4,393,AS,exp,49,→,no_key,no_letter,-1.0,False,34,-1,0,7
Y2-S2-174K19,4,394,AS,exp,40,↑,up,↑,1.0191627999302,True,35,-1,0,7
Y2-S2-174K19,4,395,AS,exp,39,↓,no_key,no_letter,-1.0,False,35,-1,0,7
Y2-S2-174K19,4,396,AS,exp,36,←,no_key,no_letter,-1.0,False,36,-1,0,7
Y2-S2-174K19,4,397,AS,exp,33,↑,no_key,no_letter,-1.0,False,37,-1,0,7
Y2-S2-174K19,4,398,AS,exp,47,↓,no_key,no_letter,-1.0,False,38,-1,0,7
Y2-S2-174K19,4,399,AS,exp,37,←,left,←,1.1588366001378745,True,39,-1,0,7
Y2-S2-174K19,4,400,AS,exp,45,↑,no_key,no_letter,-1.0,False,39,-1,0,7
Y2-S2-174K19,4,401,AS,exp,42,→,no_key,no_letter,-1.0,False,40,-1,0,7
Y2-S2-174K19,4,402,AS,exp,32,←,no_key,no_letter,-1.0,False,41,-1,0,7
Y2-S2-174K19,4,403,AS,exp,30,→,no_key,no_letter,-1.0,False,42,-1,0,7
Y2-S2-174K19,4,404,AS,exp,29,↑,no_key,no_letter,-1.0,False,43,-1,0,7
Y2-S2-174K19,4,405,AS,exp,45,→,no_key,no_letter,-1.0,False,44,-1,0,7
Y2-S2-174K19,4,406,AS,exp,33,↓,no_key,no_letter,-1.0,False,45,-1,0,7
Y2-S2-174K19,4,407,AS,exp,49,→,no_key,no_letter,-1.0,False,46,-1,0,7
Y2-S2-174K19,4,408,AS,exp,26,↓,no_key,no_letter,-1.0,False,47,-1,0,7
Y2-S2-174K19,4,409,AS,exp,32,←,no_key,no_letter,-1.0,False,48,-1,0,7
Y2-S2-174K19,4,410,AS,exp,27,↓,down,↓,1.0975347999483347,True,49,-1,0,7
Y2-S2-174K19,4,411,AS,exp,45,←,left,←,0.6175999001134187,True,49,-1,0,7
Y2-S2-174K19,4,412,AS,exp,39,↓,down,↓,0.7677547999192029,True,49,1,1,8
Y2-S2-174K19,4,413,AS,exp,32,↑,up,↑,1.0637963998597115,True,48,1,0,8
Y2-S2-174K19,4,414,AS,exp,37,↓,no_key,no_letter,-1.0,False,48,-1,1,9
Y2-S2-174K19,4,415,AS,exp,45,→,no_key,no_letter,-1.0,False,49,-1,0,9
Y2-S2-174K19,4,416,AS,exp,43,↑,no_key,no_letter,-1.0,False,50,-1,0,9
Y2-S2-174K19,4,417,AS,exp,36,↓,no_key,no_letter,-1.0,False,51,-1,0,9
Y2-S2-174K19,4,418,AS,exp,25,↑,up,↑,1.202464000089094,True,52,-1,0,9
Y2-S2-174K19,4,419,AS,exp,44,→,right,→,0.618276400025934,True,52,-1,0,9
Y2-S2-174K19,4,420,AS,exp,41,←,left,←,0.7510801998432726,True,52,1,1,10
Y2-S2-174K19,4,421,AS,exp,46,↑,up,↑,0.8338188999332488,True,51,1,0,10
Y2-S2-174K19,4,422,AS,exp,48,→,right,→,0.9668551001232117,True,51,1,0,10
Y2-S2-174K19,4,423,AS,exp,25,↑,no_key,no_letter,-1.0,False,51,-1,1,11
Y2-S2-174K19,4,424,AS,exp,43,↓,no_key,no_letter,-1.0,False,52,-1,0,11
Y2-S2-174K19,4,425,AS,exp,40,↑,no_key,no_letter,-1.0,False,53,-1,0,11
Y2-S2-174K19,4,426,AS,exp,42,←,up,↑,2.1450286998879164,False,54,-1,0,11
Y2-S2-174K19,4,427,AS,exp,42,↑,up,↑,2.0519888000562787,True,55,-1,0,11
Y2-S2-174K19,4,428,AS,exp,31,↓,up,↑,1.0006309000309557,False,55,-1,0,11
Y2-S2-174K19,4,429,AS,exp,40,↑,no_key,no_letter,-1.0,False,56,-1,0,11
Y2-S2-174K19,4,430,AS,exp,34,←,no_key,no_letter,-1.0,False,57,-1,0,11
Y2-S2-174K19,4,431,AS,exp,33,↑,no_key,no_letter,-1.0,False,58,-1,0,11
Y2-S2-174K19,4,432,AS,exp,36,←,left,←,1.067257999908179,True,59,-1,0,11
Y2-S2-174K19,4,433,AS,exp,29,↓,no_key,no_letter,-1.0,False,59,-1,0,11
Y2-S2-174K19,4,434,AS,exp,46,→,no_key,no_letter,-1.0,False,60,-1,0,11
Y2-S2-174K19,4,435,AS,exp,36,←,no_key,no_letter,-1.0,False,61,-1,0,11
Y2-S2-174K19,4,436,AS,exp,36,→,no_key,no_letter,-1.0,False,62,-1,0,11
Y2-S2-174K19,4,437,AS,exp,47,↑,right,→,0.684364499989897,False,63,-1,0,11
Y2-S2-174K19,4,438,AS,exp,25,↓,down,↓,0.6677463999949396,True,64,-1,0,11
Y2-S2-174K19,4,439,AS,exp,44,←,left,←,1.4362865998409688,True,64,-1,0,11
Y2-S2-174K19,4,440,AS,exp,39,↑,up,↑,0.9011800999287516,True,64,1,1,12
Y2-S2-174K19,4,441,AS,exp,38,↓,down,↓,0.8010641001164913,True,63,1,0,12
Y2-S2-174K19,4,442,AS,exp,44,→,right,→,0.8177375001832843,True,63,1,0,12
Y2-S2-174K19,4,443,AS,exp,30,←,left,←,0.7011517998762429,True,63,1,0,12
Y2-S2-174K19,4,444,AS,exp,31,→,right,→,0.66765830013901,True,62,1,0,12
Y2-S2-174K19,4,445,AS,exp,38,↑,up,↑,1.0011767998803407,True,62,1,0,12
Y2-S2-174K19,4,446,AS,exp,32,→,no_key,no_letter,-1.0,False,62,-1,1,13
Y2-S2-174K19,4,447,AS,exp,50,↑,no_key,no_letter,-1.0,False,63,-1,0,13
Y2-S2-174K19,4,448,AS,exp,27,←,no_key,no_letter,-1.0,False,64,-1,0,13
Y2-S2-174K19,4,449,AS,exp,39,↓,down,↓,0.9011608997825533,True,65,-1,0,13
Y2-S2-174K19,4,450,AS,exp,46,←,left,←,0.9841171998996288,True,65,-1,0,13
Y2-S2-174K19,4,451,AS,exp,27,→,right,→,0.85098069999367,True,65,1,1,14
Y2-S2-174K19,4,452,AS,exp,41,↓,down,↓,0.9512010000180453,True,64,1,0,14
Y2-S2-174K19,4,453,AS,exp,31,↑,up,↑,0.9343828000128269,True,64,1,0,14
Y2-S2-174K19,4,454,AS,exp,37,→,right,→,2.403674300061539,True,64,1,0,14
Y2-S2-174K19,4,455,AS,exp,30,←,left,←,1.16742859990336,True,63,1,0,14
Y2-S2-174K19,4,456,AS,exp,26,→,right,→,0.7844439998734742,True,63,1,0,14
Y2-S2-174K19,4,457,AS,exp,29,←,left,←,1.0841351000126451,True,63,1,0,14
Y2-S2-174K19,4,458,AS,exp,37,→,right,→,0.6345259000081569,True,62,1,0,14
Y2-S2-174K19,4,459,AS,exp,42,←,left,←,0.7508841999806464,True,62,1,0,14
Y2-S2-174K19,4,460,AS,exp,50,↓,down,↓,0.984173099976033,True,62,1,0,14
Y2-S2-174K19,4,461,AS,exp,33,↑,up,↑,0.8344896000344306,True,61,1,0,14
Y2-S2-174K19,4,462,AS,exp,41,↓,down,↓,0.8687369998078793,True,61,1,0,14
Y2-S2-174K19,4,463,AS,exp,40,↑,up,↑,0.8510856998618692,True,61,1,0,14
Y2-S2-174K19,4,464,AS,exp,45,→,right,→,0.7010405000764877,True,60,1,0,14
Y2-S2-174K19,4,465,AS,exp,40,←,left,←,0.6843355998862535,True,60,1,0,14
Y2-S2-174K19,4,466,AS,exp,49,↑,up,↑,0.9679252998903394,True,60,1,0,14
Y2-S2-174K19,4,467,AS,exp,41,↓,down,↓,1.1004985000472516,True,59,1,0,14
Y2-S2-174K19,4,468,AS,exp,31,↑,up,↑,0.6510904999449849,True,59,1,0,14
Y2-S2-174K19,4,469,AS,exp,39,↓,down,↓,1.0182587997987866,True,59,1,0,14
Y2-S2-174K19,4,470,AS,exp,48,←,left,←,1.0005482998676598,True,58,1,0,14
Y2-S2-174K19,4,471,AS,exp,46,→,right,→,0.767649200046435,True,58,1,0,14
Y2-S2-174K19,4,472,AS,exp,29,←,left,←,0.9838574000168592,True,58,1,0,14
Y2-S2-174K19,4,473,AS,exp,37,↑,left,←,1.2723817001096904,False,57,-1,1,15
Y2-S2-174K19,4,474,AS,exp,32,←,left,←,0.8010158999823034,True,58,-1,0,15
Y2-S2-174K19,4,475,AS,exp,37,↓,no_key,no_letter,-1.0,False,58,-1,0,15
Y2-S2-174K19,4,476,AS,exp,46,←,left,←,0.5667888999450952,True,59,-1,0,15
Y2-S2-174K19,4,477,AS,exp,30,↓,down,↓,0.58372120000422,True,59,-1,0,15
Y2-S2-174K19,4,478,AS,exp,50,↑,up,↑,0.9673353999387473,True,59,1,1,16
Y2-S2-174K19,5,479,AS,intra_train,31,←,left,←,0.6839932000730187,True,37,-,-,-
Y2-S2-174K19,5,480,AS,intra_train,34,↓,down,↓,0.7994032001588494,True,37,-,-,-
Y2-S2-174K19,5,481,AS,intra_train,37,←,left,←,0.6508538001216948,True,37,-,-,-
Y2-S2-174K19,5,482,AS,intra_train,30,↑,up,↑,0.8233240998815745,True,37,-,-,-
Y2-S2-174K19,5,483,AS,intra_train,38,←,left,←,0.7498683999292552,True,37,-,-,-
Y2-S2-174K19,5,484,AS,exp,41,↑,up,↑,0.9643735999707133,True,25,0,0,0
Y2-S2-174K19,5,485,AS,exp,48,↓,down,↓,0.8900659000501037,True,25,0,0,0
Y2-S2-174K19,5,486,AS,exp,25,←,up,↑,0.8514702001120895,False,25,-1,0,0
Y2-S2-174K19,5,487,AS,exp,40,↓,down,↓,0.8338138000108302,True,26,-1,0,0
Y2-S2-174K19,5,488,AS,exp,26,←,left,←,0.9783987000118941,True,26,-1,0,0
Y2-S2-174K19,5,489,AS,exp,41,↑,up,↑,1.8566547997761518,True,26,1,1,1
Y2-S2-174K19,5,490,AS,exp,47,↓,down,↓,0.9561015001963824,True,25,1,0,1
Y2-S2-174K19,5,491,AS,exp,33,↑,up,↑,0.9924341000150889,True,25,1,0,1
Y2-S2-174K19,5,492,AS,exp,25,→,left,←,0.8001612999942154,False,25,-1,1,2
Y2-S2-174K19,5,493,AS,exp,26,←,left,←,0.6019286001101136,True,26,-1,0,2
Y2-S2-174K19,5,494,AS,exp,29,↑,up,↑,1.0484723998233676,True,26,-1,0,2
Y2-S2-174K19,5,495,AS,exp,40,←,down,↓,1.1540759999770671,False,26,-1,0,2
Y2-S2-174K19,5,496,AS,exp,37,→,right,→,0.8486954998224974,True,27,-1,0,2
Y2-S2-174K19,5,497,AS,exp,27,←,left,←,1.7365558000747114,True,27,-1,0,2
Y2-S2-174K19,5,498,AS,exp,44,→,right,→,0.6824334999546409,True,27,1,1,3
Y2-S2-174K19,5,499,AS,exp,26,↓,down,↓,0.932287700008601,True,26,1,0,3
Y2-S2-174K19,5,500,AS,exp,49,→,right,→,0.8480186001397669,True,26,1,0,3
Y2-S2-174K19,5,501,AS,exp,44,↑,up,↑,0.8661785000003874,True,26,1,0,3
Y2-S2-174K19,5,502,AS,exp,29,↓,down,↓,0.9277801001444459,True,25,1,0,3
Y2-S2-174K19,5,503,AS,exp,44,↑,up,↑,0.5173877999186516,True,25,1,0,3
Y2-S2-174K19,5,504,AS,exp,36,←,left,←,0.6180331001523882,True,25,1,0,3
Y2-S2-174K19,5,505,AS,exp,31,→,right,→,0.646043999819085,True,24,1,0,3
Y2-S2-174K19,5,506,AS,exp,32,↓,up,↑,0.9644067999906838,False,24,-1,1,4
Y2-S2-174K19,5,507,AS,exp,29,↑,up,↑,1.0391053000930697,True,25,-1,0,4
Y2-S2-174K19,5,508,AS,exp,33,↓,down,↓,0.7892956999130547,True,25,-1,0,4
Y2-S2-174K19,5,509,AS,exp,39,→,right,→,0.9112758999690413,True,25,1,1,5
Y2-S2-174K19,5,510,AS,exp,33,↑,up,↑,0.8009544999804348,True,24,1,0,5
Y2-S2-174K19,5,511,AS,exp,28,↓,down,↓,0.656284200027585,True,24,1,0,5
Y2-S2-174K19,5,512,AS,exp,37,→,left,←,1.3950561000965536,False,24,-1,1,6
Y2-S2-174K19,5,513,AS,exp,38,↑,up,↑,0.6869734998326749,True,25,-1,0,6
Y2-S2-174K19,5,514,AS,exp,36,→,no_key,no_letter,-1.0,False,25,-1,0,6
Y2-S2-174K19,5,515,AS,exp,37,←,left,←,1.3150124999228865,True,26,-1,0,6
Y2-S2-174K19,5,516,AS,exp,47,→,right,→,0.7457691999152303,True,26,-1,0,6
Y2-S2-174K19,5,517,AS,exp,45,←,left,←,0.7403313999529928,True,26,1,1,7
Y2-S2-174K19,5,518,AS,exp,49,↑,up,↑,0.7807213000487536,True,25,1,0,7
Y2-S2-174K19,5,519,AS,exp,50,→,right,→,0.5338194000069052,True,25,1,0,7
Y2-S2-174K19,5,520,AS,exp,27,↓,down,↓,0.6742998000700027,True,25,1,0,7
Y2-S2-174K19,5,521,AS,exp,35,→,right,→,1.2214356998447329,True,24,1,0,7
Y2-S2-174K19,5,522,AS,exp,42,↓,down,↓,0.7421327999327332,True,24,1,0,7
Y2-S2-174K19,5,523,AS,exp,25,↑,up,↑,0.7725544001441449,True,24,1,0,7
Y2-S2-174K19,5,524,AS,exp,31,→,no_key,no_letter,-1.0,False,23,-1,1,8
Y2-S2-174K19,5,525,AS,exp,44,↑,up,↑,0.574975100113079,True,24,-1,0,8
Y2-S2-174K19,5,526,AS,exp,32,↓,down,↓,1.0902360999025404,True,24,-1,0,8
Y2-S2-174K19,5,527,AS,exp,42,→,down,↓,1.1522994998376817,False,24,-1,0,8
Y2-S2-174K19,5,528,AS,exp,28,↓,down,↓,0.7269849998410791,True,25,-1,0,8
Y2-S2-174K19,5,529,AS,exp,41,↑,up,↑,0.7087456998415291,True,25,-1,0,8
Y2-S2-174K19,5,530,AS,exp,45,←,left,←,0.7438773000612855,True,25,1,1,9
Y2-S2-174K19,5,531,AS,exp,41,→,right,→,0.8390820000786334,True,24,1,0,9
Y2-S2-174K19,5,532,AS,exp,31,↑,up,↑,0.8396840998902917,True,24,1,0,9
Y2-S2-174K19,5,533,AS,exp,27,↓,down,↓,1.2635883002076298,True,24,1,0,9
Y2-S2-174K19,5,534,AS,exp,49,↑,left,←,1.097228900063783,False,23,-1,1,10
Y2-S2-174K19,5,535,AS,exp,35,↓,down,↓,0.9756658000405878,True,24,-1,0,10
Y2-S2-174K19,5,536,AS,exp,32,←,left,←,1.4297327999956906,True,24,-1,0,10
Y2-S2-174K19,5,537,AS,exp,37,↑,up,↑,0.7986676001455635,True,24,1,1,11
Y2-S2-174K19,5,538,AS,exp,40,←,left,←,0.5005733000580221,True,23,1,0,11
Y2-S2-174K19,5,539,AS,exp,27,→,right,→,0.8961897001136094,True,23,1,0,11
Y2-S2-174K19,5,540,AS,exp,25,↑,up,↑,0.7945363998878747,True,23,1,0,11
Y2-S2-174K19,5,541,AS,exp,35,→,right,→,0.9805703999008983,True,22,1,0,11
Y2-S2-174K19,5,542,AS,exp,35,↑,up,↑,0.5005663998890668,True,22,1,0,11
Y2-S2-174K19,5,543,AS,exp,48,←,left,←,0.5528235998935997,True,22,1,0,11
Y2-S2-174K19,5,544,AS,exp,49,↓,up,↑,1.1215423000976443,False,21,-1,1,12
Y2-S2-174K19,5,545,AS,exp,41,↑,no_key,no_letter,-1.0,False,22,-1,0,12
Y2-S2-174K19,5,546,AS,exp,38,↓,down,↓,1.063974600052461,True,23,-1,0,12
Y2-S2-174K19,5,547,AS,exp,31,↑,up,↑,1.0411227999720722,True,23,-1,0,12
Y2-S2-174K19,5,548,AS,exp,50,←,no_key,no_letter,-1.0,False,23,-1,0,12
Y2-S2-174K19,5,549,AS,exp,42,→,right,→,0.736070399871096,True,24,-1,0,12
Y2-S2-174K19,5,550,AS,exp,38,↓,up,↑,1.1567530001047999,False,24,-1,0,12
Y2-S2-174K19,5,551,AS,exp,45,↑,up,↑,0.6619625999592245,True,25,-1,0,12
Y2-S2-174K19,5,552,AS,exp,31,←,no_key,no_letter,-1.0,False,25,-1,0,12
Y2-S2-174K19,5,553,AS,exp,45,→,right,→,0.8746776001062244,True,26,-1,0,12
Y2-S2-174K19,5,554,AS,exp,46,↓,right,→,1.0114464000798762,False,26,-1,0,12
Y2-S2-174K19,5,555,AS,exp,44,↑,up,↑,0.7392514001112431,True,27,-1,0,12
Y2-S2-174K19,5,556,AS,exp,25,→,no_key,no_letter,-1.0,False,27,-1,0,12
Y2-S2-174K19,5,557,AS,exp,48,←,left,←,1.1581473001278937,True,28,-1,0,12
Y2-S2-174K19,5,558,AS,exp,35,↓,down,↓,0.8697430999018252,True,28,-1,0,12
Y2-S2-174K19,5,559,AS,exp,44,↑,up,↑,0.9316012999042869,True,28,1,1,13
Y2-S2-174K19,5,560,AS,exp,29,←,left,←,0.7158907998818904,True,27,1,0,13
Y2-S2-174K19,5,561,AS,exp,40,→,right,→,0.823702699970454,True,27,1,0,13
Y2-S2-174K19,5,562,AS,exp,38,↑,right,→,0.9982959998305887,False,27,-1,1,14
Y2-S2-174K19,5,563,AS,exp,28,←,no_key,no_letter,-1.0,False,28,-1,0,14
Y2-S2-174K19,5,564,AS,exp,49,↑,right,→,0.7744560001883656,False,29,-1,0,14
Y2-S2-174K19,5,565,AS,exp,46,↓,up,↑,2.114725099876523,False,30,-1,0,14
Y2-S2-174K19,5,566,AS,exp,44,←,left,←,1.0007003000937402,True,31,-1,0,14
Y2-S2-174K19,5,567,AS,exp,27,↓,down,↓,1.0288711001630872,True,31,-1,0,14
Y2-S2-174K19,5,568,AS,exp,35,←,left,←,1.0242655999027193,True,31,1,1,15
Y2-S2-174K19,5,569,AS,exp,37,→,right,→,0.8516699001193047,True,30,1,0,15
Y2-S2-174K19,5,570,AS,exp,27,←,no_key,no_letter,-1.0,False,30,-1,1,16
Y2-S2-174K19,6,571,PS,intra_train,26,↓,up,↑,1.82386239990592,False,13,-,-,-
Y2-S2-174K19,6,572,PS,intra_train,34,↑,up,↑,0.5540771000087261,True,13,-,-,-
Y2-S2-174K19,6,573,PS,intra_train,26,→,right,→,0.6227073001209646,True,13,-,-,-
Y2-S2-174K19,6,574,PS,intra_train,47,↓,down,↓,0.7938574000727385,True,13,-,-,-
Y2-S2-174K19,6,575,PS,intra_train,32,←,up,↑,1.0495416999328882,False,13,-,-,-
Y2-S2-174K19,6,576,PS,exp,34,↓,down,↓,0.6371139001566917,True,9,0,0,0
Y2-S2-174K19,6,577,PS,exp,29,←,down,↓,0.7290622999425977,False,9,-1,0,0
Y2-S2-174K19,6,578,PS,exp,48,→,right,→,0.7880265000276268,True,10,-1,0,0
Y2-S2-174K19,6,579,PS,exp,33,←,up,↑,0.906371199991554,False,10,-1,0,0
Y2-S2-174K19,6,580,PS,exp,48,↑,up,↑,0.6826226999983191,True,11,-1,0,0
Y2-S2-174K19,6,581,PS,exp,28,↓,down,↓,0.6513602999038994,True,11,-1,0,0
Y2-S2-174K19,6,582,PS,exp,47,→,right,→,0.6623388000298291,True,11,1,1,1
Y2-S2-174K19,6,583,PS,exp,31,←,no_key,no_letter,-1.0,False,10,-1,1,2
Y2-S2-174K19,6,584,PS,exp,30,→,right,→,0.6226357999257743,True,11,-1,0,2
Y2-S2-174K19,6,585,PS,exp,25,↓,up,↑,0.971996600041166,False,11,-1,0,2
Y2-S2-174K19,6,586,PS,exp,31,→,right,→,0.5976776001043618,True,12,-1,0,2
Y2-S2-174K19,6,587,PS,exp,36,←,right,→,0.8893587000202388,False,12,-1,0,2
Y2-S2-174K19,6,588,PS,exp,33,→,right,→,0.8478558999486268,True,13,-1,0,2
Y2-S2-174K19,6,589,PS,exp,46,↑,up,↑,1.1057837000116706,True,13,-1,0,2
Y2-S2-174K19,6,590,PS,exp,43,↓,up,↑,0.8595505999401212,False,13,-1,0,2
Y2-S2-174K19,6,591,PS,exp,46,→,right,→,0.5553897998761386,True,14,-1,0,2
Y2-S2-174K19,6,592,PS,exp,40,↑,up,↑,0.5427592999767512,True,14,-1,0,2
Y2-S2-174K19,6,593,PS,exp,43,↓,up,↑,1.1961697000078857,False,14,-1,0,2
Y2-S2-174K19,6,594,PS,exp,41,←,left,←,0.4858808999415487,True,15,-1,0,2
Y2-S2-174K19,6,595,PS,exp,47,→,right,→,0.44467430002987385,True,15,-1,0,2
Y2-S2-174K19,6,596,PS,exp,44,↑,up,↑,0.6230365999508649,True,15,1,1,3
Y2-S2-174K19,6,597,PS,exp,34,←,left,←,0.7286879001185298,True,14,1,0,3
Y2-S2-174K19,6,598,PS,exp,27,↑,up,↑,0.5925304999109358,True,14,1,0,3
Y2-S2-174K19,6,599,PS,exp,32,↓,down,↓,0.7133464000653476,True,14,1,0,3
Y2-S2-174K19,6,600,PS,exp,38,←,left,←,0.4603847998660058,True,13,1,0,3
Y2-S2-174K19,6,601,PS,exp,41,↑,right,→,0.6060275000054389,False,13,-1,1,4
Y2-S2-174K19,6,602,PS,exp,39,→,right,→,0.5632737001869828,True,14,-1,0,4
Y2-S2-174K19,6,603,PS,exp,32,↑,up,↑,0.6811610001605004,True,14,-1,0,4
Y2-S2-174K19,6,604,PS,exp,49,←,no_key,no_letter,-1.0,False,14,-1,0,4
Y2-S2-174K19,6,605,PS,exp,40,↓,no_key,no_letter,-1.0,False,15,-1,0,4
Y2-S2-174K19,6,606,PS,exp,38,↑,up,↑,0.5467099000234157,True,16,-1,0,4
Y2-S2-174K19,6,607,PS,exp,46,↓,up,↑,1.1193171001505107,False,16,-1,0,4
Y2-S2-174K19,6,608,PS,exp,33,←,up,↑,0.5594081000890583,False,17,-1,0,4
Y2-S2-174K19,6,609,PS,exp,42,→,up,↑,0.48885209998115897,False,18,-1,0,4
Y2-S2-174K19,6,610,PS,exp,31,↓,left,←,0.4507375000976026,False,19,-1,0,4
Y2-S2-174K19,6,611,PS,exp,32,→,right,→,0.6319010001607239,True,20,-1,0,4
Y2-S2-174K19,6,612,PS,exp,31,←,left,←,0.6483511000405997,True,20,-1,0,4
Y2-S2-174K19,6,613,PS,exp,31,↓,down,↓,0.7784537000115961,True,20,1,1,5
Y2-S2-174K19,6,614,PS,exp,38,←,no_key,no_letter,-1.0,False,19,-1,1,6
Y2-S2-174K19,6,615,PS,exp,26,→,no_key,no_letter,-1.0,False,20,-1,0,6
Y2-S2-174K19,6,616,PS,exp,38,←,left,←,0.6117974000517279,True,21,-1,0,6
Y2-S2-174K19,6,617,PS,exp,38,→,right,→,0.5757015000563115,True,21,-1,0,6
Y2-S2-174K19,6,618,PS,exp,35,←,left,←,0.6033538000192493,True,21,1,1,7
Y2-S2-174K19,6,619,PS,exp,27,↓,no_key,no_letter,-1.0,False,20,-1,1,8
Y2-S2-174K19,6,620,PS,exp,25,←,no_key,no_letter,-1.0,False,21,-1,0,8
Y2-S2-174K19,6,621,PS,exp,36,→,no_key,no_letter,-1.0,False,22,-1,0,8
Y2-S2-174K19,6,622,PS,exp,45,↑,up,↑,0.6943677999079227,True,23,-1,0,8
Y2-S2-174K19,6,623,PS,exp,38,←,right,→,1.236629700055346,False,23,-1,0,8
Y2-S2-174K19,6,624,PS,exp,50,↓,no_key,no_letter,-1.0,False,24,-1,0,8
Y2-S2-174K19,6,625,PS,exp,41,↑,no_key,no_letter,-1.0,False,25,-1,0,8
Y2-S2-174K19,6,626,PS,exp,49,←,no_key,no_letter,-1.0,False,26,-1,0,8
Y2-S2-174K19,6,627,PS,exp,26,→,no_key,no_letter,-1.0,False,27,-1,0,8
Y2-S2-174K19,6,628,PS,exp,31,←,no_key,no_letter,-1.0,False,28,-1,0,8
Y2-S2-174K19,6,629,PS,exp,50,↓,down,↓,0.5675264000892639,True,29,-1,0,8
Y2-S2-174K19,6,630,PS,exp,33,→,right,→,0.5674952999688685,True,29,-1,0,8
Y2-S2-174K19,6,631,PS,exp,46,↓,down,↓,0.9227726000826806,True,29,1,1,9
Y2-S2-174K19,6,632,PS,exp,37,↑,up,↑,0.5341737000271678,True,28,1,0,9
Y2-S2-174K19,6,633,PS,exp,42,↓,down,↓,0.6006507000420243,True,28,1,0,9
Y2-S2-174K19,6,634,PS,exp,32,←,no_key,no_letter,-1.0,False,28,-1,1,10
Y2-S2-174K19,6,635,PS,exp,42,↑,no_key,no_letter,-1.0,False,29,-1,0,10
Y2-S2-174K19,6,636,PS,exp,32,→,no_key,no_letter,-1.0,False,30,-1,0,10
Y2-S2-174K19,6,637,PS,exp,39,↓,down,↓,0.7640215000137687,True,31,-1,0,10
Y2-S2-174K19,6,638,PS,exp,49,→,no_key,no_letter,-1.0,False,31,-1,0,10
Y2-S2-174K19,6,639,PS,exp,50,←,no_key,no_letter,-1.0,False,32,-1,0,10
Y2-S2-174K19,6,640,PS,exp,35,↑,no_key,no_letter,-1.0,False,33,-1,0,10
Y2-S2-174K19,6,641,PS,exp,41,←,no_key,no_letter,-1.0,False,34,-1,0,10
Y2-S2-174K19,6,642,PS,exp,34,→,right,→,0.9521896000951529,True,35,-1,0,10
Y2-S2-174K19,6,643,PS,exp,49,↓,down,↓,0.7515539000742137,True,35,-1,0,10
Y2-S2-174K19,6,644,PS,exp,48,→,right,→,0.6007803999818861,True,35,1,1,11
Y2-S2-174K19,6,645,PS,exp,30,↓,down,↓,1.0643795998767018,True,34,1,0,11
Y2-S2-174K19,6,646,PS,exp,30,←,right,→,1.9059976998250932,False,34,-1,1,12
Y2-S2-174K19,6,647,PS,exp,39,↓,down,↓,1.0551609999965876,True,35,-1,0,12
Y2-S2-174K19,6,648,PS,exp,45,←,no_key,no_letter,-1.0,False,35,-1,0,12
Y2-S2-174K19,6,649,PS,exp,47,↑,no_key,no_letter,-1.0,False,36,-1,0,12
Y2-S2-174K19,6,650,PS,exp,45,←,left,←,0.7003028998151422,True,37,-1,0,12
Y2-S2-174K19,6,651,PS,exp,29,↓,down,↓,1.115787000162527,True,37,-1,0,12
Y2-S2-174K19,6,652,PS,exp,38,→,right,→,1.132956000044942,True,37,1,1,13
Y2-S2-174K19,6,653,PS,exp,48,←,no_key,no_letter,-1.0,False,36,-1,1,14
Y2-S2-174K19,6,654,PS,exp,43,→,no_key,no_letter,-1.0,False,37,-1,0,14
Y2-S2-174K19,6,655,PS,exp,31,↑,no_key,no_letter,-1.0,False,38,-1,0,14
Y2-S2-174K19,6,656,PS,exp,33,↓,no_key,no_letter,-1.0,False,39,-1,0,14
Y2-S2-174K19,6,657,PS,exp,47,↑,no_key,no_letter,-1.0,False,40,-1,0,14
Y2-S2-174K19,6,658,PS,exp,32,←,left,←,0.7173981000669301,True,41,-1,0,14
Y2-S2-174K19,6,659,PS,exp,39,↓,down,↓,1.7439830999355763,True,41,-1,0,14
Y2-S2-174K19,6,660,PS,exp,33,←,right,→,1.263364100130275,False,41,-1,0,14
Y2-S2-174K19,6,661,PS,exp,50,↑,up,↑,0.6010239000897855,True,42,-1,0,14
Y2-S2-174K19,6,662,PS,exp,29,↓,down,↓,0.9192872999701649,True,42,-1,0,14
Y2-S2-174K19,6,663,PS,exp,37,→,right,→,0.5009230999276042,True,42,1,1,15
Y2-S2-174K19,6,664,PS,exp,30,↑,up,↑,0.5676275999285281,True,41,1,0,15
Y2-S2-174K19,6,665,PS,exp,41,→,right,→,1.2029866999946535,True,41,1,0,15
Y2-S2-174K19,6,666,PS,exp,49,↓,down,↓,1.003485199995339,True,41,1,0,15
Y2-S2-174K19,6,667,PS,exp,38,→,no_key,no_letter,-1.0,False,40,-1,1,16
Y2-S2-174K19,7,668,PS,intra_train,36,←,left,←,0.7141758999787271,True,13,-,-,-
Y2-S2-174K19,7,669,PS,intra_train,39,↓,down,↓,0.6529480000026524,True,13,-,-,-
Y2-S2-174K19,7,670,PS,intra_train,41,←,left,←,1.1970718000084162,True,13,-,-,-
Y2-S2-174K19,7,671,PS,intra_train,26,↑,no_key,no_letter,-1.0,False,13,-,-,-
Y2-S2-174K19,7,672,PS,intra_train,38,→,no_key,no_letter,-1.0,False,13,-,-,-
Y2-S2-174K19,7,673,PS,exp,46,←,no_key,no_letter,-1.0,False,9,-1,0,0
Y2-S2-174K19,7,674,PS,exp,35,↑,no_key,no_letter,-1.0,False,10,-1,0,0
Y2-S2-174K19,7,675,PS,exp,26,←,no_key,no_letter,-1.0,False,11,-1,0,0
Y2-S2-174K19,7,676,PS,exp,50,↑,up,↑,0.49556479998864233,True,12,-1,0,0
Y2-S2-174K19,7,677,PS,exp,36,→,up,↑,0.46862119995057583,False,12,-1,0,0
Y2-S2-174K19,7,678,PS,exp,26,↓,down,↓,0.5841127999592572,True,13,-1,0,0
Y2-S2-174K19,7,679,PS,exp,35,→,down,↓,1.0741735000628978,False,13,-1,0,0
Y2-S2-174K19,7,680,PS,exp,41,↑,up,↑,0.5297606000676751,True,14,-1,0,0
Y2-S2-174K19,7,681,PS,exp,27,↓,down,↓,0.6443938999436796,True,14,-1,0,0
Y2-S2-174K19,7,682,PS,exp,36,←,left,←,0.5365680002141744,True,14,1,1,1
Y2-S2-174K19,7,683,PS,exp,31,→,no_key,no_letter,-1.0,False,13,-1,1,2
Y2-S2-174K19,7,684,PS,exp,37,↓,down,↓,0.5974874999374151,True,14,-1,0,2
Y2-S2-174K19,7,685,PS,exp,45,→,right,→,0.6648091000970453,True,14,-1,0,2
Y2-S2-174K19,7,686,PS,exp,48,↓,no_key,no_letter,-1.0,False,14,-1,0,2
Y2-S2-174K19,7,687,PS,exp,37,→,no_key,no_letter,-1.0,False,15,-1,0,2
Y2-S2-174K19,7,688,PS,exp,37,←,no_key,no_letter,-1.0,False,16,-1,0,2
Y2-S2-174K19,7,689,PS,exp,50,↓,down,↓,1.0540603999979794,True,17,-1,0,2
Y2-S2-174K19,7,690,PS,exp,26,↑,no_key,no_letter,-1.0,False,17,-1,0,2
Y2-S2-174K19,7,691,PS,exp,49,↓,no_key,no_letter,-1.0,False,18,-1,0,2
Y2-S2-174K19,7,692,PS,exp,41,→,no_key,no_letter,-1.0,False,19,-1,0,2
Y2-S2-174K19,7,693,PS,exp,45,↓,no_key,no_letter,-1.0,False,20,-1,0,2
Y2-S2-174K19,7,694,PS,exp,49,↑,no_key,no_letter,-1.0,False,21,-1,0,2
Y2-S2-174K19,7,695,PS,exp,27,→,no_key,no_letter,-1.0,False,22,-1,0,2
Y2-S2-174K19,7,696,PS,exp,38,↑,no_key,no_letter,-1.0,False,23,-1,0,2
Y2-S2-174K19,7,697,PS,exp,45,←,no_key,no_letter,-1.0,False,24,-1,0,2
Y2-S2-174K19,7,698,PS,exp,30,→,right,→,0.5509340998250991,True,25,-1,0,2
Y2-S2-174K19,7,699,PS,exp,27,←,up,↑,1.0802267999388278,False,25,-1,0,2
Y2-S2-174K19,7,700,PS,exp,49,→,up,↑,1.1935533001087606,False,26,-1,0,2
Y2-S2-174K19,7,701,PS,exp,49,↑,up,↑,1.0926141000818461,True,27,-1,0,2
Y2-S2-174K19,7,702,PS,exp,35,→,no_key,no_letter,-1.0,False,27,-1,0,2
Y2-S2-174K19,7,703,PS,exp,27,↑,no_key,no_letter,-1.0,False,28,-1,0,2
Y2-S2-174K19,7,704,PS,exp,26,↓,no_key,no_letter,-1.0,False,29,-1,0,2
Y2-S2-174K19,7,705,PS,exp,44,←,left,←,0.5003274998161942,True,30,-1,0,2
Y2-S2-174K19,7,706,PS,exp,32,→,right,→,0.5339845002163202,True,30,-1,0,2
Y2-S2-174K19,7,707,PS,exp,31,←,left,←,1.2032918999902904,True,30,1,1,3
Y2-S2-174K19,7,708,PS,exp,47,↑,up,↑,0.5505731001030654,True,29,1,0,3
Y2-S2-174K19,7,709,PS,exp,25,↓,no_key,no_letter,-1.0,False,29,-1,1,4
Y2-S2-174K19,7,710,PS,exp,44,↑,up,↑,1.108476399909705,True,30,-1,0,4
Y2-S2-174K19,7,711,PS,exp,32,←,left,←,0.7123450001236051,True,30,-1,0,4
Y2-S2-174K19,7,712,PS,exp,39,→,no_key,no_letter,-1.0,False,30,-1,0,4
Y2-S2-174K19,7,713,PS,exp,46,←,no_key,no_letter,-1.0,False,31,-1,0,4
Y2-S2-174K19,7,714,PS,exp,28,↑,no_key,no_letter,-1.0,False,32,-1,0,4
Y2-S2-174K19,7,715,PS,exp,25,→,right,→,0.6837511002086103,True,33,-1,0,4
Y2-S2-174K19,7,716,PS,exp,25,↑,up,↑,0.891045100055635,True,33,-1,0,4
Y2-S2-174K19,7,717,PS,exp,36,→,right,→,0.7694713999517262,True,33,1,1,5
Y2-S2-174K19,7,718,PS,exp,40,↓,no_key,no_letter,-1.0,False,32,-1,1,6
Y2-S2-174K19,7,719,PS,exp,26,→,no_key,no_letter,-1.0,False,33,-1,0,6
Y2-S2-174K19,7,720,PS,exp,48,←,no_key,no_letter,-1.0,False,34,-1,0,6
Y2-S2-174K19,7,721,PS,exp,30,→,right,→,0.7943061999976635,True,35,-1,0,6
Y2-S2-174K19,7,722,PS,exp,42,↑,up,↑,0.48424239992164075,True,35,-1,0,6
Y2-S2-174K19,7,723,PS,exp,43,→,right,→,0.6004498999100178,True,35,1,1,7
Y2-S2-174K19,7,724,PS,exp,45,↓,down,↓,0.5839106999337673,True,34,1,0,7
Y2-S2-174K19,7,725,PS,exp,34,←,left,←,0.6672276998870075,True,34,1,0,7
Y2-S2-174K19,7,726,PS,exp,35,→,left,←,1.353605099953711,False,34,-1,1,8
Y2-S2-174K19,7,727,PS,exp,35,←,left,←,0.9078754999209195,True,35,-1,0,8
Y2-S2-174K19,7,728,PS,exp,32,→,right,→,0.5345107999164611,True,35,-1,0,8
Y2-S2-174K19,7,729,PS,exp,43,↑,up,↑,0.8290766999125481,True,35,1,1,9
Y2-S2-174K19,7,730,PS,exp,27,↓,down,↓,0.6506346999667585,True,34,1,0,9
Y2-S2-174K19,7,731,PS,exp,47,←,left,←,0.7007544999942183,True,34,1,0,9
Y2-S2-174K19,7,732,PS,exp,26,↓,down,↓,1.0242399000562727,True,34,1,0,9
Y2-S2-174K19,7,733,PS,exp,37,↑,up,↑,1.6518841001670808,True,33,1,0,9
Y2-S2-174K19,7,734,PS,exp,50,↓,down,↓,0.6671688000205904,True,33,1,0,9
Y2-S2-174K19,7,735,PS,exp,39,←,left,←,0.45119070005603135,True,33,1,0,9
Y2-S2-174K19,7,736,PS,exp,40,↓,down,↓,0.6508474999573082,True,32,1,0,9
Y2-S2-174K19,7,737,PS,exp,39,↑,up,↑,0.703767699887976,True,32,1,0,9
Y2-S2-174K19,7,738,PS,exp,50,←,left,←,0.5341717000119388,True,32,1,0,9
Y2-S2-174K19,7,739,PS,exp,50,↓,down,↓,0.7040516999550164,True,31,1,0,9
Y2-S2-174K19,7,740,PS,exp,38,→,right,→,0.8804929999168962,True,31,1,0,9
Y2-S2-174K19,7,741,PS,exp,38,←,left,←,0.41790980007499456,True,31,1,0,9
Y2-S2-174K19,7,742,PS,exp,48,↓,down,↓,0.8328436999581754,True,30,1,0,9
Y2-S2-174K19,7,743,PS,exp,48,→,right,→,1.047610100125894,True,30,1,0,9
Y2-S2-174K19,7,744,PS,exp,37,←,left,←,0.6890368000604212,True,30,1,0,9
Y2-S2-174K19,7,745,PS,exp,34,↓,down,↓,1.6278417001012713,True,29,1,0,9
Y2-S2-174K19,7,746,PS,exp,36,→,right,→,0.8923212001100183,True,29,1,0,9
Y2-S2-174K19,7,747,PS,exp,44,←,left,←,0.6924149000551552,True,29,1,0,9
Y2-S2-174K19,7,748,PS,exp,28,↓,right,→,0.9056700998917222,False,28,-1,1,10
Y2-S2-174K19,7,749,PS,exp,35,←,left,←,1.0558016998693347,True,29,-1,0,10
Y2-S2-174K19,7,750,PS,exp,43,→,no_key,no_letter,-1.0,False,29,-1,0,10
Y2-S2-174K19,7,751,PS,exp,30,↓,down,↓,0.6342323001008481,True,30,-1,0,10
Y2-S2-174K19,7,752,PS,exp,39,→,right,→,1.8935544001869857,True,30,-1,0,10
Y2-S2-174K19,7,753,PS,exp,43,←,left,←,0.6173638999462128,True,30,1,1,11
Y2-S2-174K19,7,754,PS,exp,27,↓,down,↓,1.736707900185138,True,29,1,0,11
Y2-S2-174K19,7,755,PS,exp,45,→,right,→,0.5005870999302715,True,29,1,0,11
Y2-S2-174K19,7,756,PS,exp,38,←,left,←,0.5004339998122305,True,29,1,0,11
Y2-S2-174K19,7,757,PS,exp,35,↑,up,↑,0.7619777000509202,True,28,1,0,11
Y2-S2-174K19,7,758,PS,exp,27,→,no_key,no_letter,-1.0,False,28,-1,1,12
Y2-S2-174K19,7,759,PS,exp,44,↑,up,↑,0.5672889000270516,True,29,-1,0,12
Y2-S2-174K19,7,760,PS,exp,45,→,right,→,0.5839744000695646,True,29,-1,0,12
Y2-S2-174K19,7,761,PS,exp,49,↓,down,↓,1.4998476000037044,True,29,1,1,13
Y2-S2-174K19,7,762,PS,exp,48,↑,up,↑,0.5506533000152558,True,28,1,0,13
Y2-S2-174K19,7,763,PS,exp,46,→,right,→,0.5338201001286507,True,28,1,0,13
Y2-S2-174K19,7,764,PS,exp,29,↓,right,→,1.3404655000194907,False,28,-1,1,14
Y2-S2-174K19,7,765,PS,exp,44,↑,up,↑,0.5173868997953832,True,29,-1,0,14
Y2-S2-174K19,7,766,PS,exp,37,←,left,←,0.6628507999703288,True,29,-1,0,14
Y2-S2-174K19,7,767,PS,exp,30,→,right,→,0.9264905999880284,True,29,1,1,15
Y2-S2-174K19,7,768,PS,exp,41,←,left,←,0.6005894001573324,True,28,1,0,15
Y2-S2-174K19,7,769,PS,exp,35,↑,right,→,0.6003902999218553,False,28,-1,1,16
Y2-S2-174K19,8,770,AS,intra_train,40,↓,right,→,0.9246531000826508,False,37,-,-,-
Y2-S2-174K19,8,771,AS,intra_train,46,←,left,←,0.717994200065732,True,37,-,-,-
Y2-S2-174K19,8,772,AS,intra_train,43,↓,right,→,0.7341638999059796,False,37,-,-,-
Y2-S2-174K19,8,773,AS,intra_train,27,→,right,→,1.0241153000388294,True,37,-,-,-
Y2-S2-174K19,8,774,AS,intra_train,36,↑,up,↑,0.7009908000472933,True,37,-,-,-
Y2-S2-174K19,8,775,AS,exp,44,↓,down,↓,1.0900620999746025,True,25,0,0,0
Y2-S2-174K19,8,776,AS,exp,38,←,up,↑,1.9188381000421941,False,25,-1,0,0
Y2-S2-174K19,8,777,AS,exp,38,↑,up,↑,0.9261551999952644,True,26,-1,0,0
Y2-S2-174K19,8,778,AS,exp,50,→,right,→,0.7952912000473589,True,26,-1,0,0
Y2-S2-174K19,8,779,AS,exp,32,↑,up,↑,0.9928129999898374,True,26,1,1,1
Y2-S2-174K19,8,780,AS,exp,46,→,right,→,1.1239378000609577,True,25,1,0,1
Y2-S2-174K19,8,781,AS,exp,41,↓,no_key,no_letter,-1.0,False,25,-1,1,2
Y2-S2-174K19,8,782,AS,exp,49,←,right,→,1.0565524999983609,False,26,-1,0,2
Y2-S2-174K19,8,783,AS,exp,38,→,right,→,0.8548491999972612,True,27,-1,0,2
Y2-S2-174K19,8,784,AS,exp,44,←,left,←,0.8688946000766009,True,27,-1,0,2
Y2-S2-174K19,8,785,AS,exp,50,↑,up,↑,0.703763399971649,True,27,1,1,3
Y2-S2-174K19,8,786,AS,exp,36,→,left,←,0.9003109000623226,False,26,-1,1,4
Y2-S2-174K19,8,787,AS,exp,34,↓,down,↓,1.7712008999660611,True,27,-1,0,4
Y2-S2-174K19,8,788,AS,exp,28,←,left,←,0.6293636998161674,True,27,-1,0,4
Y2-S2-174K19,8,789,AS,exp,26,→,no_key,no_letter,-1.0,False,27,-1,0,4
Y2-S2-174K19,8,790,AS,exp,45,←,left,←,0.7546321998815984,True,28,-1,0,4
Y2-S2-174K19,8,791,AS,exp,34,→,right,→,0.4341195998713374,True,28,-1,0,4
Y2-S2-174K19,8,792,AS,exp,31,↓,down,↓,0.9823143999092281,True,28,1,1,5
Y2-S2-174K19,8,793,AS,exp,33,←,left,←,0.6404544999822974,True,27,1,0,5
Y2-S2-174K19,8,794,AS,exp,27,→,right,→,0.46738389995880425,True,27,1,0,5
Y2-S2-174K19,8,795,AS,exp,40,←,left,←,0.9039148001465946,True,27,1,0,5
Y2-S2-174K19,8,796,AS,exp,47,→,left,←,0.7752688999753445,False,26,-1,1,6
Y2-S2-174K19,8,797,AS,exp,35,↓,down,↓,0.9201688999310136,True,27,-1,0,6
Y2-S2-174K19,8,798,AS,exp,37,→,right,→,1.0720204999670386,True,27,-1,0,6
Y2-S2-174K19,8,799,AS,exp,46,←,left,←,0.5672988998703659,True,27,1,1,7
Y2-S2-174K19,8,800,AS,exp,25,→,right,→,0.7546426998451352,True,26,1,0,7
Y2-S2-174K19,8,801,AS,exp,32,↑,up,↑,1.0801427999977022,True,26,1,0,7
Y2-S2-174K19,8,802,AS,exp,30,→,right,→,0.8863480999134481,True,26,1,0,7
Y2-S2-174K19,8,803,AS,exp,39,↑,up,↑,0.8935707001946867,True,25,1,0,7
Y2-S2-174K19,8,804,AS,exp,34,←,left,←,0.4676368997897953,True,25,1,0,7
Y2-S2-174K19,8,805,AS,exp,33,→,right,→,0.6604831998702139,True,25,1,0,7
Y2-S2-174K19,8,806,AS,exp,39,↑,up,↑,1.587691499851644,True,24,1,0,7
Y2-S2-174K19,8,807,AS,exp,31,→,right,→,1.1234015000518411,True,24,1,0,7
Y2-S2-174K19,8,808,AS,exp,39,↓,down,↓,0.8772336000110954,True,24,1,0,7
Y2-S2-174K19,8,809,AS,exp,37,→,right,→,0.6817982001230121,True,23,1,0,7
Y2-S2-174K19,8,810,AS,exp,48,↑,up,↑,0.8167627998627722,True,23,1,0,7
Y2-S2-174K19,8,811,AS,exp,46,←,left,←,0.9767835999373347,True,23,1,0,7
Y2-S2-174K19,8,812,AS,exp,40,→,right,→,0.9412404000759125,True,22,1,0,7
Y2-S2-174K19,8,813,AS,exp,28,↓,down,↓,0.7161677998956293,True,22,1,0,7
Y2-S2-174K19,8,814,AS,exp,39,←,left,←,1.0084482999518514,True,22,1,0,7
Y2-S2-174K19,8,815,AS,exp,28,→,right,→,0.7299840999767184,True,21,1,0,7
Y2-S2-174K19,8,816,AS,exp,33,↑,no_key,no_letter,-1.0,False,21,-1,1,8
Y2-S2-174K19,8,817,AS,exp,45,↓,down,↓,0.8887283999938518,True,22,-1,0,8
Y2-S2-174K19,8,818,AS,exp,38,↑,down,↓,0.8808518999721855,False,22,-1,0,8
Y2-S2-174K19,8,819,AS,exp,42,←,up,↑,0.48355549992993474,False,23,-1,0,8
Y2-S2-174K19,8,820,AS,exp,46,↓,down,↓,0.890729500213638,True,24,-1,0,8
Y2-S2-174K19,8,821,AS,exp,39,↑,up,↑,0.7422756999731064,True,24,-1,0,8
Y2-S2-174K19,8,822,AS,exp,29,↓,down,↓,0.5810923001263291,True,24,1,1,9
Y2-S2-174K19,8,823,AS,exp,26,←,left,←,0.6090421001426876,True,23,1,0,9
Y2-S2-174K19,8,824,AS,exp,46,→,down,↓,0.8567823001649231,False,23,-1,1,10
Y2-S2-174K19,8,825,AS,exp,40,←,left,←,0.7144315000623465,True,24,-1,0,10
Y2-S2-174K19,8,826,AS,exp,43,↑,up,↑,0.8392624999396503,True,24,-1,0,10
Y2-S2-174K19,8,827,AS,exp,30,→,right,→,1.4816044999752194,True,24,1,1,11
Y2-S2-174K19,8,828,AS,exp,37,←,left,←,0.48402650002390146,True,23,1,0,11
Y2-S2-174K19,8,829,AS,exp,32,↑,up,↑,0.7801033998839557,True,23,1,0,11
Y2-S2-174K19,8,830,AS,exp,27,←,left,←,0.5876313999760896,True,23,1,0,11
Y2-S2-174K19,8,831,AS,exp,49,→,right,→,0.7127060000784695,True,22,1,0,11
Y2-S2-174K19,8,832,AS,exp,45,↑,up,↑,0.5487148000393063,True,22,1,0,11
Y2-S2-174K19,8,833,AS,exp,32,←,left,←,1.0600814998615533,True,22,1,0,11
Y2-S2-174K19,8,834,AS,exp,37,→,right,→,0.6238834001123905,True,21,1,0,11
Y2-S2-174K19,8,835,AS,exp,27,↓,right,→,0.9457149000372738,False,21,-1,1,12
Y2-S2-174K19,8,836,AS,exp,50,←,left,←,0.5433610000181943,True,22,-1,0,12
Y2-S2-174K19,8,837,AS,exp,49,→,right,→,1.383848100202158,True,22,-1,0,12
Y2-S2-174K19,8,838,AS,exp,26,↑,up,↑,0.6281224000267684,True,22,1,1,13
Y2-S2-174K19,8,839,AS,exp,32,↓,down,↓,0.8890077997930348,True,21,1,0,13
Y2-S2-174K19,8,840,AS,exp,41,←,left,←,0.40057850000448525,True,21,1,0,13
Y2-S2-174K19,8,841,AS,exp,49,→,right,→,1.327244499931112,True,21,1,0,13
Y2-S2-174K19,8,842,AS,exp,50,←,left,←,0.4507391999941319,True,20,1,0,13
Y2-S2-174K19,8,843,AS,exp,39,↑,up,↑,0.759222500026226,True,20,1,0,13
Y2-S2-174K19,8,844,AS,exp,40,↓,up,↑,0.956284600077197,False,20,-1,1,14
Y2-S2-174K19,8,845,AS,exp,36,→,right,→,0.519904299871996,True,21,-1,0,14
Y2-S2-174K19,8,846,AS,exp,34,↓,up,↑,1.0989632001146674,False,21,-1,0,14
Y2-S2-174K19,8,847,AS,exp,40,↑,up,↑,0.5637280999217182,True,22,-1,0,14
Y2-S2-174K19,8,848,AS,exp,29,←,left,←,0.7028038001153618,True,22,-1,0,14
Y2-S2-174K19,8,849,AS,exp,48,↑,up,↑,0.81789859989658,True,22,1,1,15
Y2-S2-174K19,8,850,AS,exp,45,↓,no_key,no_letter,-1.0,False,21,-1,1,16
