PART_ID,Block_no,Trial_no,Block_type,Trial_type,CSI,Stim_letter,Key_pressed,letter_choose,Rt,Corr,Stimulus Time,Level,Reversal,Revs_count
Y2-S2-147K19,1,1,PS,train,43,→,right,→,0.7290413998998702,True,30,-,-,-
Y2-S2-147K19,1,2,PS,train,42,←,left,←,0.5841344001237303,True,30,-,-,-
Y2-S2-147K19,1,3,PS,train,48,↓,down,↓,1.2709858000744134,True,30,-,-,-
Y2-S2-147K19,1,4,PS,train,30,←,no_key,no_letter,-1.0,False,30,-,-,-
Y2-S2-147K19,1,5,PS,train,36,↓,down,↓,1.0831404000055045,True,30,-,-,-
Y2-S2-147K19,1,6,PS,train,40,→,right,→,0.633822200121358,True,30,-,-,-
Y2-S2-147K19,1,7,PS,train,45,←,left,←,1.1156737999990582,True,30,-,-,-
Y2-S2-147K19,1,8,PS,train,32,↓,down,↓,0.6005351999774575,True,30,-,-,-
Y2-S2-147K19,1,9,PS,train,33,←,left,←,0.6339944999199361,True,30,-,-,-
Y2-S2-147K19,1,10,PS,train,31,↑,up,↑,1.4169300999492407,True,30,-,-,-
Y2-S2-147K19,2,11,AS,train,40,→,right,→,1.0488191000185907,True,45,-,-,-
Y2-S2-147K19,2,12,AS,train,41,←,left,←,0.8672766999807209,True,45,-,-,-
Y2-S2-147K19,2,13,AS,train,40,↓,down,↓,0.750497099943459,True,45,-,-,-
Y2-S2-147K19,2,14,AS,train,35,→,right,→,0.6010078999679536,True,45,-,-,-
Y2-S2-147K19,2,15,AS,train,31,↓,down,↓,0.701110600028187,True,45,-,-,-
Y2-S2-147K19,2,16,AS,train,37,→,right,→,0.6842923001386225,True,45,-,-,-
Y2-S2-147K19,2,17,AS,train,38,↓,down,↓,0.6515667999628931,True,45,-,-,-
Y2-S2-147K19,2,18,AS,train,25,→,right,→,0.7011510001029819,True,45,-,-,-
Y2-S2-147K19,2,19,AS,train,46,↓,down,↓,0.5849933000281453,True,45,-,-,-
Y2-S2-147K19,2,20,AS,train,48,→,right,→,0.6679130999837071,True,45,-,-,-
Y2-S2-147K19,-,21,PS,adaptive,37,↑,up,↑,0.7327248000074178,True,10,0,0,0
Y2-S2-147K19,-,22,PS,adaptive,30,↓,up,↑,0.8036293999757618,False,10,-1,0,0
Y2-S2-147K19,-,23,PS,adaptive,49,←,left,←,0.6634535999037325,True,11,-1,0,0
Y2-S2-147K19,-,24,PS,adaptive,27,↓,down,↓,0.5898599000647664,True,11,-1,0,0
Y2-S2-147K19,-,25,PS,adaptive,49,↑,up,↑,0.5223571001552045,True,11,1,1,1
Y2-S2-147K19,-,26,PS,adaptive,48,←,left,←,0.7761472000274807,True,10,1,0,1
Y2-S2-147K19,-,27,PS,adaptive,26,↑,up,↑,0.5293240000028163,True,10,1,0,1
Y2-S2-147K19,-,28,PS,adaptive,48,→,right,→,0.5558240998070687,True,10,1,0,1
Y2-S2-147K19,-,29,PS,adaptive,37,↑,down,↓,1.2158222999423742,False,9,-1,1,2
Y2-S2-147K19,-,30,PS,adaptive,25,↓,down,↓,0.5697715999558568,True,10,-1,0,2
Y2-S2-147K19,-,31,PS,adaptive,42,↑,up,↑,0.5146709000691772,True,10,-1,0,2
Y2-S2-147K19,-,32,PS,adaptive,25,→,right,→,0.4874877999536693,True,10,1,1,3
Y2-S2-147K19,-,33,PS,adaptive,39,↑,up,↑,0.5462050999049097,True,9,1,0,3
Y2-S2-147K19,-,34,PS,adaptive,28,→,right,→,0.5432378998957574,True,9,1,0,3
Y2-S2-147K19,-,35,PS,adaptive,30,↓,left,←,0.742731399834156,False,9,-1,1,4
Y2-S2-147K19,-,36,AS,adaptive,40,↑,up,↑,1.1033258000388741,True,20,0,0,0
Y2-S2-147K19,-,37,AS,adaptive,36,↓,down,↓,0.6737613999284804,True,20,0,0,0
Y2-S2-147K19,-,38,AS,adaptive,29,←,left,←,0.7591870999895036,True,20,1,0,0
Y2-S2-147K19,-,39,AS,adaptive,43,↓,down,↓,0.45060180011205375,True,19,1,0,0
Y2-S2-147K19,-,40,AS,adaptive,42,↑,up,↑,0.6752845000009984,True,19,1,0,0
Y2-S2-147K19,-,41,AS,adaptive,43,↓,no_key,no_letter,-1.0,False,19,-1,1,1
Y2-S2-147K19,-,42,AS,adaptive,39,←,right,→,0.6738148999866098,False,20,-1,0,1
Y2-S2-147K19,-,43,AS,adaptive,48,→,right,→,0.5867085000500083,True,21,-1,0,1
Y2-S2-147K19,-,44,AS,adaptive,39,↑,up,↑,0.5986973999533802,True,21,-1,0,1
Y2-S2-147K19,-,45,AS,adaptive,41,→,right,→,0.6186680002138019,True,21,1,1,2
Y2-S2-147K19,-,46,AS,adaptive,50,↓,down,↓,0.6333637000061572,True,20,1,0,2
Y2-S2-147K19,-,47,AS,adaptive,28,→,right,→,0.5700495999772102,True,20,1,0,2
Y2-S2-147K19,-,48,AS,adaptive,36,↓,left,←,0.8230991000309587,False,20,-1,1,3
Y2-S2-147K19,-,49,AS,adaptive,25,↑,up,↑,0.6504083001054823,True,21,-1,0,3
Y2-S2-147K19,-,50,AS,adaptive,26,←,left,←,0.5497812998946756,True,21,-1,0,3
Y2-S2-147K19,-,51,AS,adaptive,47,↑,up,↑,0.6297594998031855,True,21,1,1,4
Y2-S2-147K19,1,52,PS,intra_train,27,↓,down,↓,0.5918367998674512,True,15,-,-,-
Y2-S2-147K19,1,53,PS,intra_train,48,↑,up,↑,0.4674955001100898,True,15,-,-,-
Y2-S2-147K19,1,54,PS,intra_train,42,→,right,→,0.6645628002006561,True,15,-,-,-
Y2-S2-147K19,1,55,PS,intra_train,32,↑,up,↑,1.1882003000937402,True,15,-,-,-
Y2-S2-147K19,1,56,PS,intra_train,29,→,right,→,0.622517199954018,True,15,-,-,-
Y2-S2-147K19,1,57,PS,exp,43,↓,down,↓,0.5481567000970244,True,10,0,0,0
Y2-S2-147K19,1,58,PS,exp,25,↑,left,←,0.8411521001253277,False,10,-1,0,0
Y2-S2-147K19,1,59,PS,exp,45,→,right,→,0.7071461998857558,True,11,-1,0,0
Y2-S2-147K19,1,60,PS,exp,41,↑,left,←,0.5571000999771059,False,11,-1,0,0
Y2-S2-147K19,1,61,PS,exp,46,→,right,→,0.555085200117901,True,12,-1,0,0
Y2-S2-147K19,1,62,PS,exp,35,↑,right,→,0.7105969998519868,False,12,-1,0,0
Y2-S2-147K19,1,63,PS,exp,30,←,left,←,0.4749712999910116,True,13,-1,0,0
Y2-S2-147K19,1,64,PS,exp,25,↓,right,→,0.8739878002088517,False,13,-1,0,0
Y2-S2-147K19,1,65,PS,exp,49,↑,up,↑,0.527964900014922,True,14,-1,0,0
Y2-S2-147K19,1,66,PS,exp,30,↓,up,↑,0.5607139999046922,False,14,-1,0,0
Y2-S2-147K19,1,67,PS,exp,41,←,left,←,0.4492330998182297,True,15,-1,0,0
Y2-S2-147K19,1,68,PS,exp,36,→,right,→,0.6359886999707669,True,15,-1,0,0
Y2-S2-147K19,1,69,PS,exp,48,↑,no_key,no_letter,-1.0,False,15,-1,0,0
Y2-S2-147K19,1,70,PS,exp,31,↓,down,↓,0.5277546001598239,True,16,-1,0,0
Y2-S2-147K19,1,71,PS,exp,28,↑,up,↑,0.5405013998970389,True,16,-1,0,0
Y2-S2-147K19,1,72,PS,exp,41,↓,right,→,0.5515550000127405,False,16,-1,0,0
Y2-S2-147K19,1,73,PS,exp,34,←,left,←,0.5453552000690252,True,17,-1,0,0
Y2-S2-147K19,1,74,PS,exp,39,↓,down,↓,0.6545444999355823,True,17,-1,0,0
Y2-S2-147K19,1,75,PS,exp,35,←,left,←,1.393029100028798,True,17,1,1,1
Y2-S2-147K19,1,76,PS,exp,28,↓,down,↓,0.5566334000322968,True,16,1,0,1
Y2-S2-147K19,1,77,PS,exp,41,←,left,←,0.4805296999402344,True,16,1,0,1
Y2-S2-147K19,1,78,PS,exp,47,↓,down,↓,0.44236389989964664,True,16,1,0,1
Y2-S2-147K19,1,79,PS,exp,37,←,left,←,0.5583172000478953,True,15,1,0,1
Y2-S2-147K19,1,80,PS,exp,25,↓,down,↓,0.48084399988874793,True,15,1,0,1
Y2-S2-147K19,1,81,PS,exp,30,←,left,←,0.4832187001593411,True,15,1,0,1
Y2-S2-147K19,1,82,PS,exp,40,→,right,→,0.628523200051859,True,14,1,0,1
Y2-S2-147K19,1,83,PS,exp,43,←,left,←,0.4911774001084268,True,14,1,0,1
Y2-S2-147K19,1,84,PS,exp,43,↓,down,↓,0.6285844000522047,True,14,1,0,1
Y2-S2-147K19,1,85,PS,exp,45,←,left,←,0.4941962000448257,True,13,1,0,1
Y2-S2-147K19,1,86,PS,exp,41,↓,down,↓,0.6074671999085695,True,13,1,0,1
Y2-S2-147K19,1,87,PS,exp,41,↑,up,↑,0.6120396999176592,True,13,1,0,1
Y2-S2-147K19,1,88,PS,exp,30,←,left,←,0.4867845999542624,True,12,1,0,1
Y2-S2-147K19,1,89,PS,exp,36,↓,left,←,0.683418600121513,False,12,-1,1,2
Y2-S2-147K19,1,90,PS,exp,48,←,left,←,0.46249599987640977,True,13,-1,0,2
Y2-S2-147K19,1,91,PS,exp,46,↑,up,↑,0.6213434000965208,True,13,-1,0,2
Y2-S2-147K19,1,92,PS,exp,39,→,up,↑,0.5187814000528306,False,13,-1,0,2
Y2-S2-147K19,1,93,PS,exp,26,←,left,←,0.5249946999829262,True,14,-1,0,2
Y2-S2-147K19,1,94,PS,exp,43,↑,right,→,0.5911033998709172,False,14,-1,0,2
Y2-S2-147K19,1,95,PS,exp,34,←,left,←,0.3846456999890506,True,15,-1,0,2
Y2-S2-147K19,1,96,PS,exp,27,↓,down,↓,0.5287118998821825,True,15,-1,0,2
Y2-S2-147K19,1,97,PS,exp,27,←,left,←,0.42630850011482835,True,15,1,1,3
Y2-S2-147K19,1,98,PS,exp,49,→,right,→,0.47438870021142066,True,14,1,0,3
Y2-S2-147K19,1,99,PS,exp,38,↓,down,↓,0.49353490001522005,True,14,1,0,3
Y2-S2-147K19,1,100,PS,exp,39,→,right,→,0.5738668998237699,True,14,1,0,3
Y2-S2-147K19,1,101,PS,exp,49,↑,up,↑,0.6410244000144303,True,13,1,0,3
Y2-S2-147K19,1,102,PS,exp,50,→,right,→,0.4053780999965966,True,13,1,0,3
Y2-S2-147K19,1,103,PS,exp,39,←,right,→,0.486037400085479,False,13,-1,1,4
Y2-S2-147K19,1,104,PS,exp,25,↓,down,↓,0.6476640000473708,True,14,-1,0,4
Y2-S2-147K19,1,105,PS,exp,28,→,right,→,0.5469277000520378,True,14,-1,0,4
Y2-S2-147K19,1,106,PS,exp,29,←,left,←,0.5531781001482159,True,14,1,1,5
Y2-S2-147K19,1,107,PS,exp,31,↓,down,↓,0.5840117998886853,True,13,1,0,5
Y2-S2-147K19,1,108,PS,exp,39,←,left,←,0.4604823000263423,True,13,1,0,5
Y2-S2-147K19,1,109,PS,exp,27,→,right,→,1.4794991998933256,True,13,1,0,5
Y2-S2-147K19,1,110,PS,exp,48,↑,down,↓,0.7543284001294523,False,12,-1,1,6
Y2-S2-147K19,1,111,PS,exp,37,↓,down,↓,0.6831946999300271,True,13,-1,0,6
Y2-S2-147K19,1,112,PS,exp,28,→,right,→,0.6136672999709845,True,13,-1,0,6
Y2-S2-147K19,1,113,PS,exp,36,←,down,↓,0.5605713000986725,False,13,-1,0,6
Y2-S2-147K19,1,114,PS,exp,35,→,right,→,0.5494379999581724,True,14,-1,0,6
Y2-S2-147K19,1,115,PS,exp,37,↓,down,↓,0.599253699881956,True,14,-1,0,6
Y2-S2-147K19,1,116,PS,exp,49,↑,up,↑,0.46505029988475144,True,14,1,1,7
Y2-S2-147K19,1,117,PS,exp,25,↓,down,↓,0.5817442999687046,True,13,1,0,7
Y2-S2-147K19,1,118,PS,exp,28,↑,up,↑,0.6438392999116331,True,13,1,0,7
Y2-S2-147K19,1,119,PS,exp,26,→,right,→,0.47721899999305606,True,13,1,0,7
Y2-S2-147K19,1,120,PS,exp,41,↑,up,↑,0.48605599999427795,True,12,1,0,7
Y2-S2-147K19,1,121,PS,exp,48,↓,down,↓,0.48266760003753006,True,12,1,0,7
Y2-S2-147K19,1,122,PS,exp,38,↑,up,↑,0.5548489999491721,True,12,1,0,7
Y2-S2-147K19,1,123,PS,exp,50,↓,down,↓,0.5485143000259995,True,11,1,0,7
Y2-S2-147K19,1,124,PS,exp,49,→,right,→,0.5329585999716073,True,11,1,0,7
Y2-S2-147K19,1,125,PS,exp,27,↓,down,↓,0.4543170998804271,True,11,1,0,7
Y2-S2-147K19,1,126,PS,exp,43,←,left,←,0.5036836999934167,True,10,1,0,7
Y2-S2-147K19,1,127,PS,exp,48,↓,up,↑,0.6395751999225467,False,10,-1,1,8
Y2-S2-147K19,1,128,PS,exp,32,→,right,→,0.5027165999636054,True,11,-1,0,8
Y2-S2-147K19,1,129,PS,exp,33,↑,right,→,0.877951700007543,False,11,-1,0,8
Y2-S2-147K19,1,130,PS,exp,39,↓,down,↓,0.5588574002031237,True,12,-1,0,8
Y2-S2-147K19,1,131,PS,exp,38,↑,up,↑,0.511416899971664,True,12,-1,0,8
Y2-S2-147K19,1,132,PS,exp,50,←,left,←,0.5854745998512954,True,12,1,1,9
Y2-S2-147K19,1,133,PS,exp,50,↓,down,↓,0.49668530002236366,True,11,1,0,9
Y2-S2-147K19,1,134,PS,exp,36,→,right,→,0.6080183999147266,True,11,1,0,9
Y2-S2-147K19,1,135,PS,exp,42,↓,down,↓,0.5309661999344826,True,11,1,0,9
Y2-S2-147K19,1,136,PS,exp,26,→,right,→,0.506163900019601,True,10,1,0,9
Y2-S2-147K19,1,137,PS,exp,41,↓,down,↓,0.5091742998920381,True,10,1,0,9
Y2-S2-147K19,1,138,PS,exp,41,↑,up,↑,0.571003699908033,True,10,1,0,9
Y2-S2-147K19,1,139,PS,exp,30,↓,down,↓,0.5274314000271261,True,9,1,0,9
Y2-S2-147K19,1,140,PS,exp,50,→,right,→,0.48546930006705225,True,9,1,0,9
Y2-S2-147K19,1,141,PS,exp,47,←,left,←,0.6831642999313772,True,9,1,0,9
Y2-S2-147K19,1,142,PS,exp,50,→,right,→,0.38737650006078184,True,8,1,0,9
Y2-S2-147K19,1,143,PS,exp,48,←,left,←,0.6432578999083489,True,8,1,0,9
Y2-S2-147K19,1,144,PS,exp,37,↓,right,→,0.5280936998315156,False,8,-1,1,10
Y2-S2-147K19,1,145,PS,exp,29,←,right,→,0.5459290998987854,False,9,-1,0,10
Y2-S2-147K19,1,146,PS,exp,49,↓,right,→,0.5536384999286383,False,10,-1,0,10
Y2-S2-147K19,1,147,PS,exp,31,↑,up,↑,0.685522000072524,True,11,-1,0,10
Y2-S2-147K19,1,148,PS,exp,29,←,left,←,0.5941121999640018,True,11,-1,0,10
Y2-S2-147K19,1,149,PS,exp,40,↑,up,↑,0.5571445000823587,True,11,1,1,11
Y2-S2-147K19,1,150,PS,exp,41,↓,down,↓,0.5658847000449896,True,10,1,0,11
Y2-S2-147K19,1,151,PS,exp,44,←,left,←,0.5962678999640048,True,10,1,0,11
Y2-S2-147K19,1,152,PS,exp,36,↑,up,↑,0.6421666999813169,True,10,1,0,11
Y2-S2-147K19,1,153,PS,exp,42,←,left,←,0.5354239998850971,True,9,1,0,11
Y2-S2-147K19,1,154,PS,exp,40,→,right,→,0.509378100046888,True,9,1,0,11
Y2-S2-147K19,1,155,PS,exp,29,↓,right,→,0.5410412999335676,False,9,-1,1,12
Y2-S2-147K19,1,156,PS,exp,36,↑,right,→,0.5492225999478251,False,10,-1,0,12
Y2-S2-147K19,1,157,PS,exp,26,↓,down,↓,0.5252203000709414,True,11,-1,0,12
Y2-S2-147K19,1,158,PS,exp,46,↑,right,→,0.5833090001251549,False,11,-1,0,12
Y2-S2-147K19,1,159,PS,exp,40,↓,down,↓,0.45574619993567467,True,12,-1,0,12
Y2-S2-147K19,1,160,PS,exp,39,←,left,←,0.5048358000349253,True,12,-1,0,12
Y2-S2-147K19,1,161,PS,exp,27,→,right,→,0.4426229000091553,True,12,1,1,13
Y2-S2-147K19,1,162,PS,exp,49,↓,right,→,1.3439711998216808,False,11,-1,1,14
Y2-S2-147K19,1,163,PS,exp,27,↑,up,↑,0.5117208999581635,True,12,-1,0,14
Y2-S2-147K19,1,164,PS,exp,50,↓,up,↑,0.7997568999417126,False,12,-1,0,14
Y2-S2-147K19,1,165,PS,exp,44,←,left,←,0.5008668000809848,True,13,-1,0,14
Y2-S2-147K19,1,166,PS,exp,48,↓,down,↓,0.6318624999839813,True,13,-1,0,14
Y2-S2-147K19,1,167,PS,exp,47,→,right,→,0.4462337999138981,True,13,1,1,15
Y2-S2-147K19,1,168,PS,exp,48,←,left,←,0.5369761001784354,True,12,1,0,15
Y2-S2-147K19,1,169,PS,exp,41,↓,down,↓,0.5080462000332773,True,12,1,0,15
Y2-S2-147K19,1,170,PS,exp,46,→,right,→,0.6064160999376327,True,12,1,0,15
Y2-S2-147K19,1,171,PS,exp,42,↓,down,↓,0.6136308000423014,True,11,1,0,15
Y2-S2-147K19,1,172,PS,exp,50,→,right,→,0.7016173999290913,True,11,1,0,15
Y2-S2-147K19,1,173,PS,exp,30,←,right,→,0.6136465000454336,False,11,-1,1,16
Y2-S2-147K19,2,174,AS,intra_train,28,↓,up,↑,1.029603100148961,False,30,-,-,-
Y2-S2-147K19,2,175,AS,intra_train,40,↑,up,↑,0.7389928000047803,True,30,-,-,-
Y2-S2-147K19,2,176,AS,intra_train,30,←,left,←,0.5004360999446362,True,30,-,-,-
Y2-S2-147K19,2,177,AS,intra_train,41,→,left,←,0.6338886998128146,False,30,-,-,-
Y2-S2-147K19,2,178,AS,intra_train,49,←,left,←,0.5337584998924285,True,30,-,-,-
Y2-S2-147K19,2,179,AS,exp,30,↑,up,↑,0.5659215999767184,True,20,0,0,0
Y2-S2-147K19,2,180,AS,exp,44,→,right,→,0.6913011998403817,True,20,0,0,0
Y2-S2-147K19,2,181,AS,exp,35,↑,right,→,0.6047722999937832,False,20,-1,0,0
Y2-S2-147K19,2,182,AS,exp,33,→,right,→,0.5819073000457138,True,21,-1,0,0
Y2-S2-147K19,2,183,AS,exp,30,←,right,→,0.5673554998356849,False,21,-1,0,0
Y2-S2-147K19,2,184,AS,exp,45,↑,up,↑,0.6732582999393344,True,22,-1,0,0
Y2-S2-147K19,2,185,AS,exp,39,←,left,←,1.8099296998698264,True,22,-1,0,0
Y2-S2-147K19,2,186,AS,exp,26,↓,up,↑,1.3992731000762433,False,22,-1,0,0
Y2-S2-147K19,2,187,AS,exp,41,→,right,→,0.5551910998765379,True,23,-1,0,0
Y2-S2-147K19,2,188,AS,exp,44,←,left,←,0.9655260997824371,True,23,-1,0,0
Y2-S2-147K19,2,189,AS,exp,45,↑,no_key,no_letter,-1.0,False,23,-1,0,0
Y2-S2-147K19,2,190,AS,exp,30,→,right,→,0.5338262999430299,True,24,-1,0,0
Y2-S2-147K19,2,191,AS,exp,33,←,left,←,0.629662899998948,True,24,-1,0,0
Y2-S2-147K19,2,192,AS,exp,43,↓,down,↓,0.8194799998309463,True,24,1,1,1
Y2-S2-147K19,2,193,AS,exp,47,←,left,←,0.5706536001525819,True,23,1,0,1
Y2-S2-147K19,2,194,AS,exp,43,↑,right,→,0.5629537000786513,False,23,-1,1,2
Y2-S2-147K19,2,195,AS,exp,44,→,right,→,0.7152052000164986,True,24,-1,0,2
Y2-S2-147K19,2,196,AS,exp,41,←,left,←,0.8400036001112312,True,24,-1,0,2
Y2-S2-147K19,2,197,AS,exp,42,→,right,→,0.6519400000106543,True,24,1,1,3
Y2-S2-147K19,2,198,AS,exp,44,←,left,←,1.299242899985984,True,23,1,0,3
Y2-S2-147K19,2,199,AS,exp,31,↓,down,↓,0.7067950000055134,True,23,1,0,3
Y2-S2-147K19,2,200,AS,exp,26,←,left,←,1.589966099942103,True,23,1,0,3
Y2-S2-147K19,2,201,AS,exp,43,↑,up,↑,0.6773220000322908,True,22,1,0,3
Y2-S2-147K19,2,202,AS,exp,28,←,right,→,0.7009547001216561,False,22,-1,1,4
Y2-S2-147K19,2,203,AS,exp,40,↓,down,↓,1.6409374000504613,True,23,-1,0,4
Y2-S2-147K19,2,204,AS,exp,31,→,right,→,1.1168694999068975,True,23,-1,0,4
Y2-S2-147K19,2,205,AS,exp,41,↑,up,↑,0.9041678002104163,True,23,1,1,5
Y2-S2-147K19,2,206,AS,exp,31,↓,down,↓,0.9893493999261409,True,22,1,0,5
Y2-S2-147K19,2,207,AS,exp,42,↑,up,↑,0.8156565998215228,True,22,1,0,5
Y2-S2-147K19,2,208,AS,exp,31,→,right,→,0.8399302999023348,True,22,1,0,5
Y2-S2-147K19,2,209,AS,exp,34,↓,up,↑,0.837050500093028,False,21,-1,1,6
Y2-S2-147K19,2,210,AS,exp,49,→,right,→,0.7834284999407828,True,22,-1,0,6
Y2-S2-147K19,2,211,AS,exp,47,←,left,←,0.6995490998961031,True,22,-1,0,6
Y2-S2-147K19,2,212,AS,exp,39,→,right,→,0.5354383999947459,True,22,1,1,7
Y2-S2-147K19,2,213,AS,exp,33,↑,up,↑,0.8441258000675589,True,21,1,0,7
Y2-S2-147K19,2,214,AS,exp,38,→,right,→,0.5886794000398368,True,21,1,0,7
Y2-S2-147K19,2,215,AS,exp,38,←,left,←,0.7075221999548376,True,21,1,0,7
Y2-S2-147K19,2,216,AS,exp,30,↓,down,↓,0.8388024000450969,True,20,1,0,7
Y2-S2-147K19,2,217,AS,exp,45,←,left,←,0.7057469999417663,True,20,1,0,7
Y2-S2-147K19,2,218,AS,exp,33,↑,right,→,0.7500944000203162,False,20,-1,1,8
Y2-S2-147K19,2,219,AS,exp,26,↓,down,↓,0.5941142998635769,True,21,-1,0,8
Y2-S2-147K19,2,220,AS,exp,50,←,left,←,0.7001281999982893,True,21,-1,0,8
Y2-S2-147K19,2,221,AS,exp,33,↓,down,↓,0.7211029999889433,True,21,1,1,9
Y2-S2-147K19,2,222,AS,exp,33,←,left,←,0.7229190999642015,True,20,1,0,9
Y2-S2-147K19,2,223,AS,exp,45,→,right,→,0.7957210999447852,True,20,1,0,9
Y2-S2-147K19,2,224,AS,exp,42,↑,up,↑,0.7044544001109898,True,20,1,0,9
Y2-S2-147K19,2,225,AS,exp,26,→,right,→,0.7303377001080662,True,19,1,0,9
Y2-S2-147K19,2,226,AS,exp,35,↑,down,↓,0.7408655001781881,False,19,-1,1,10
Y2-S2-147K19,2,227,AS,exp,31,←,left,←,0.529239600058645,True,20,-1,0,10
Y2-S2-147K19,2,228,AS,exp,48,↓,down,↓,0.7627888999413699,True,20,-1,0,10
Y2-S2-147K19,2,229,AS,exp,27,←,right,→,0.514363800175488,False,20,-1,0,10
Y2-S2-147K19,2,230,AS,exp,50,↓,right,→,0.6219568999949843,False,21,-1,0,10
Y2-S2-147K19,2,231,AS,exp,45,↑,up,↑,0.566443599993363,True,22,-1,0,10
Y2-S2-147K19,2,232,AS,exp,28,←,left,←,0.6759677999652922,True,22,-1,0,10
Y2-S2-147K19,2,233,AS,exp,28,↓,down,↓,0.7221643999218941,True,22,1,1,11
Y2-S2-147K19,2,234,AS,exp,39,←,left,←,0.5644102001097053,True,21,1,0,11
Y2-S2-147K19,2,235,AS,exp,47,↑,down,↓,0.6590894998516887,False,21,-1,1,12
Y2-S2-147K19,2,236,AS,exp,35,→,right,→,0.7567324999254197,True,22,-1,0,12
Y2-S2-147K19,2,237,AS,exp,44,↑,up,↑,0.6802604999393225,True,22,-1,0,12
Y2-S2-147K19,2,238,AS,exp,36,←,left,←,0.7610959999728948,True,22,1,1,13
Y2-S2-147K19,2,239,AS,exp,47,↓,down,↓,0.6617110001388937,True,21,1,0,13
Y2-S2-147K19,2,240,AS,exp,37,↑,up,↑,0.635721700033173,True,21,1,0,13
Y2-S2-147K19,2,241,AS,exp,36,←,left,←,0.7299903000239283,True,21,1,0,13
Y2-S2-147K19,2,242,AS,exp,50,↑,up,↑,0.581819900078699,True,20,1,0,13
Y2-S2-147K19,2,243,AS,exp,30,←,left,←,0.7503675001207739,True,20,1,0,13
Y2-S2-147K19,2,244,AS,exp,46,→,right,→,0.5289946000557393,True,20,1,0,13
Y2-S2-147K19,2,245,AS,exp,48,←,left,←,0.6488057000096887,True,19,1,0,13
Y2-S2-147K19,2,246,AS,exp,39,→,right,→,0.6214028999675065,True,19,1,0,13
Y2-S2-147K19,2,247,AS,exp,30,↑,up,↑,0.7540070998948067,True,19,1,0,13
Y2-S2-147K19,2,248,AS,exp,46,→,right,→,0.8331536001060158,True,18,1,0,13
Y2-S2-147K19,2,249,AS,exp,26,↓,down,↓,0.9767978000454605,True,18,1,0,13
Y2-S2-147K19,2,250,AS,exp,25,↑,up,↑,0.7188202000688761,True,18,1,0,13
Y2-S2-147K19,2,251,AS,exp,28,→,right,→,0.5840640000533313,True,17,1,0,13
Y2-S2-147K19,2,252,AS,exp,37,↑,right,→,0.7317214999347925,False,17,-1,1,14
Y2-S2-147K19,2,253,AS,exp,27,→,right,→,0.6062414001207799,True,18,-1,0,14
Y2-S2-147K19,2,254,AS,exp,40,↑,up,↑,0.7054679999127984,True,18,-1,0,14
Y2-S2-147K19,2,255,AS,exp,47,↓,down,↓,0.6912549000699073,True,18,1,1,15
Y2-S2-147K19,2,256,AS,exp,26,→,right,→,0.6075420998968184,True,17,1,0,15
Y2-S2-147K19,2,257,AS,exp,48,↑,right,→,0.658769299974665,False,17,-1,1,16
Y2-S2-147K19,3,258,AS,intra_train,29,→,left,←,0.7512695000041276,False,30,-,-,-
Y2-S2-147K19,3,259,AS,intra_train,47,←,left,←,0.5839986999053508,True,30,-,-,-
Y2-S2-147K19,3,260,AS,intra_train,28,→,right,→,0.5840049998369068,True,30,-,-,-
Y2-S2-147K19,3,261,AS,intra_train,46,↑,up,↑,0.7186329001560807,True,30,-,-,-
Y2-S2-147K19,3,262,AS,intra_train,46,←,left,←,0.6003025001846254,True,30,-,-,-
Y2-S2-147K19,3,263,AS,exp,28,↑,up,↑,1.1765809000935405,True,20,0,0,0
Y2-S2-147K19,3,264,AS,exp,44,→,right,→,0.5357816000469029,True,20,0,0,0
Y2-S2-147K19,3,265,AS,exp,29,←,right,→,0.773738200077787,False,20,-1,0,0
Y2-S2-147K19,3,266,AS,exp,41,↑,no_key,no_letter,-1.0,False,21,-1,0,0
Y2-S2-147K19,3,267,AS,exp,25,→,right,→,0.6872594999149442,True,22,-1,0,0
Y2-S2-147K19,3,268,AS,exp,25,↓,up,↑,0.875167999882251,False,22,-1,0,0
Y2-S2-147K19,3,269,AS,exp,44,↑,up,↑,0.629238500026986,True,23,-1,0,0
Y2-S2-147K19,3,270,AS,exp,35,↓,down,↓,0.6440518000163138,True,23,-1,0,0
Y2-S2-147K19,3,271,AS,exp,29,→,right,→,0.787692700047046,True,23,1,1,1
Y2-S2-147K19,3,272,AS,exp,40,←,left,←,0.6921183001250029,True,22,1,0,1
Y2-S2-147K19,3,273,AS,exp,27,↓,down,↓,0.6214073000010103,True,22,1,0,1
Y2-S2-147K19,3,274,AS,exp,45,↑,up,↑,1.3111135999206454,True,22,1,0,1
Y2-S2-147K19,3,275,AS,exp,29,↓,down,↓,0.7272175999823958,True,21,1,0,1
Y2-S2-147K19,3,276,AS,exp,33,←,left,←,1.2773410000372678,True,21,1,0,1
Y2-S2-147K19,3,277,AS,exp,48,↑,up,↑,0.7801450998522341,True,21,1,0,1
Y2-S2-147K19,3,278,AS,exp,50,↓,down,↓,0.7082612002268434,True,20,1,0,1
Y2-S2-147K19,3,279,AS,exp,31,→,right,→,0.5351517000235617,True,20,1,0,1
Y2-S2-147K19,3,280,AS,exp,28,↑,up,↑,0.6101031000725925,True,20,1,0,1
Y2-S2-147K19,3,281,AS,exp,36,↓,down,↓,0.6432519999798387,True,19,1,0,1
Y2-S2-147K19,3,282,AS,exp,43,↑,right,→,0.9702038001269102,False,19,-1,1,2
Y2-S2-147K19,3,283,AS,exp,45,↓,right,→,1.0147694000042975,False,20,-1,0,2
Y2-S2-147K19,3,284,AS,exp,34,↑,up,↑,0.6220074000302702,True,21,-1,0,2
Y2-S2-147K19,3,285,AS,exp,27,←,left,←,0.7008458999916911,True,21,-1,0,2
Y2-S2-147K19,3,286,AS,exp,48,→,right,→,0.5821482001338154,True,21,1,1,3
Y2-S2-147K19,3,287,AS,exp,28,←,right,→,0.8736157999373972,False,20,-1,1,4
Y2-S2-147K19,3,288,AS,exp,35,↓,down,↓,0.5914847000967711,True,21,-1,0,4
Y2-S2-147K19,3,289,AS,exp,36,→,right,→,0.6344803001265973,True,21,-1,0,4
Y2-S2-147K19,3,290,AS,exp,43,↑,up,↑,1.397457899991423,True,21,1,1,5
Y2-S2-147K19,3,291,AS,exp,43,→,right,→,0.5728985001333058,True,20,1,0,5
Y2-S2-147K19,3,292,AS,exp,49,↑,up,↑,0.5998333001043648,True,20,1,0,5
Y2-S2-147K19,3,293,AS,exp,33,→,right,→,0.7812802998814732,True,20,1,0,5
Y2-S2-147K19,3,294,AS,exp,50,↑,left,←,0.7313657000195235,False,19,-1,1,6
Y2-S2-147K19,3,295,AS,exp,27,←,right,→,0.753590399865061,False,20,-1,0,6
Y2-S2-147K19,3,296,AS,exp,47,↑,up,↑,0.7691522999666631,True,21,-1,0,6
Y2-S2-147K19,3,297,AS,exp,36,←,left,←,0.8314816001802683,True,21,-1,0,6
Y2-S2-147K19,3,298,AS,exp,38,↑,up,↑,0.9112839000299573,True,21,1,1,7
Y2-S2-147K19,3,299,AS,exp,45,↓,down,↓,0.8396564999129623,True,20,1,0,7
Y2-S2-147K19,3,300,AS,exp,39,→,right,→,0.6378031999338418,True,20,1,0,7
Y2-S2-147K19,3,301,AS,exp,40,↓,down,↓,0.5915522999130189,True,20,1,0,7
Y2-S2-147K19,3,302,AS,exp,32,→,right,→,0.56573689985089,True,19,1,0,7
Y2-S2-147K19,3,303,AS,exp,46,↓,left,←,0.7746460998896509,False,19,-1,1,8
Y2-S2-147K19,3,304,AS,exp,35,↑,up,↑,0.7343206000514328,True,20,-1,0,8
Y2-S2-147K19,3,305,AS,exp,35,↓,down,↓,0.5694346998352557,True,20,-1,0,8
Y2-S2-147K19,3,306,AS,exp,48,←,left,←,0.5986251998692751,True,20,1,1,9
Y2-S2-147K19,3,307,AS,exp,34,↑,up,↑,0.5123106001410633,True,19,1,0,9
Y2-S2-147K19,3,308,AS,exp,44,→,right,→,0.7203698998782784,True,19,1,0,9
Y2-S2-147K19,3,309,AS,exp,36,↓,right,→,0.6152284001000226,False,19,-1,1,10
Y2-S2-147K19,3,310,AS,exp,26,↑,up,↑,0.8596495999954641,True,20,-1,0,10
Y2-S2-147K19,3,311,AS,exp,28,→,right,→,0.6160548001062125,True,20,-1,0,10
Y2-S2-147K19,3,312,AS,exp,44,↑,up,↑,0.5451839999295771,True,20,1,1,11
Y2-S2-147K19,3,313,AS,exp,39,←,left,←,0.906447899993509,True,19,1,0,11
Y2-S2-147K19,3,314,AS,exp,49,↑,up,↑,0.510578399989754,True,19,1,0,11
Y2-S2-147K19,3,315,AS,exp,27,→,right,→,0.5675969000440091,True,19,1,0,11
Y2-S2-147K19,3,316,AS,exp,50,←,right,→,0.6214034000877291,False,18,-1,1,12
Y2-S2-147K19,3,317,AS,exp,32,↑,up,↑,0.5297133000567555,True,19,-1,0,12
Y2-S2-147K19,3,318,AS,exp,26,↓,down,↓,0.8062740999739617,True,19,-1,0,12
Y2-S2-147K19,3,319,AS,exp,25,↑,up,↑,0.6673751999624074,True,19,1,1,13
Y2-S2-147K19,3,320,AS,exp,27,↓,down,↓,0.5704010999761522,True,18,1,0,13
Y2-S2-147K19,3,321,AS,exp,34,←,up,↑,0.622894800035283,False,18,-1,1,14
Y2-S2-147K19,3,322,AS,exp,28,↑,down,↓,0.6727471000049263,False,19,-1,0,14
Y2-S2-147K19,3,323,AS,exp,25,↓,down,↓,0.8605959999840707,True,20,-1,0,14
Y2-S2-147K19,3,324,AS,exp,39,←,left,←,0.7454883998725563,True,20,-1,0,14
Y2-S2-147K19,3,325,AS,exp,25,↑,up,↑,0.6701569000724703,True,20,1,1,15
Y2-S2-147K19,3,326,AS,exp,45,→,up,↑,0.592606500023976,False,19,-1,1,16
Y2-S2-147K19,4,327,PS,intra_train,49,←,left,←,0.5863866000436246,True,15,-,-,-
Y2-S2-147K19,4,328,PS,intra_train,30,↓,right,→,0.8345988001674414,False,15,-,-,-
Y2-S2-147K19,4,329,PS,intra_train,38,→,right,→,0.49701339984312654,True,15,-,-,-
Y2-S2-147K19,4,330,PS,intra_train,25,←,left,←,0.8923539000097662,True,15,-,-,-
Y2-S2-147K19,4,331,PS,intra_train,34,↑,up,↑,0.5115211000666022,True,15,-,-,-
Y2-S2-147K19,4,332,PS,exp,41,→,right,→,0.5794865998905152,True,10,0,0,0
Y2-S2-147K19,4,333,PS,exp,28,←,right,→,0.6547018999699503,False,10,-1,0,0
Y2-S2-147K19,4,334,PS,exp,50,→,right,→,0.5243077999912202,True,11,-1,0,0
Y2-S2-147K19,4,335,PS,exp,43,←,left,←,0.7322861000429839,True,11,-1,0,0
Y2-S2-147K19,4,336,PS,exp,30,↑,up,↑,0.6152660001534969,True,11,1,1,1
Y2-S2-147K19,4,337,PS,exp,28,→,left,←,0.7650365000590682,False,10,-1,1,2
Y2-S2-147K19,4,338,PS,exp,27,↑,up,↑,0.5749842000659555,True,11,-1,0,2
Y2-S2-147K19,4,339,PS,exp,50,↓,down,↓,0.5406400000210851,True,11,-1,0,2
Y2-S2-147K19,4,340,PS,exp,42,↑,up,↑,0.5526805000845343,True,11,1,1,3
Y2-S2-147K19,4,341,PS,exp,31,←,left,←,0.49520580004900694,True,10,1,0,3
Y2-S2-147K19,4,342,PS,exp,26,↑,up,↑,0.5316138998605311,True,10,1,0,3
Y2-S2-147K19,4,343,PS,exp,30,←,left,←,0.4995462999213487,True,10,1,0,3
Y2-S2-147K19,4,344,PS,exp,50,↑,up,↑,0.544913100078702,True,9,1,0,3
Y2-S2-147K19,4,345,PS,exp,31,→,right,→,0.8861768001224846,True,9,1,0,3
Y2-S2-147K19,4,346,PS,exp,25,↓,right,→,0.7046014000661671,False,9,-1,1,4
Y2-S2-147K19,4,347,PS,exp,39,→,right,→,0.49598869984038174,True,10,-1,0,4
Y2-S2-147K19,4,348,PS,exp,45,↑,up,↑,0.5333198001608253,True,10,-1,0,4
Y2-S2-147K19,4,349,PS,exp,41,←,right,→,0.5457967999391258,False,10,-1,0,4
Y2-S2-147K19,4,350,PS,exp,38,→,right,→,0.5289152998011559,True,11,-1,0,4
Y2-S2-147K19,4,351,PS,exp,50,↑,up,↑,0.50397550011985,True,11,-1,0,4
Y2-S2-147K19,4,352,PS,exp,39,↓,down,↓,0.5527637000195682,True,11,1,1,5
Y2-S2-147K19,4,353,PS,exp,42,↑,up,↑,0.6422367999330163,True,10,1,0,5
Y2-S2-147K19,4,354,PS,exp,27,↓,down,↓,0.6427484999876469,True,10,1,0,5
Y2-S2-147K19,4,355,PS,exp,36,→,right,→,0.576052000047639,True,10,1,0,5
Y2-S2-147K19,4,356,PS,exp,44,←,left,←,0.48064070008695126,True,9,1,0,5
Y2-S2-147K19,4,357,PS,exp,33,→,right,→,0.599627000046894,True,9,1,0,5
Y2-S2-147K19,4,358,PS,exp,25,↑,up,↑,0.5590544000733644,True,9,1,0,5
Y2-S2-147K19,4,359,PS,exp,48,↓,down,↓,0.6985482000745833,True,8,1,0,5
Y2-S2-147K19,4,360,PS,exp,27,↑,up,↑,0.5881372999865562,True,8,1,0,5
Y2-S2-147K19,4,361,PS,exp,43,←,left,←,0.6293492999393493,True,8,1,0,5
Y2-S2-147K19,4,362,PS,exp,25,→,right,→,0.5520560999866575,True,7,1,0,5
Y2-S2-147K19,4,363,PS,exp,49,↓,left,←,0.6957745000254363,False,7,-1,1,6
Y2-S2-147K19,4,364,PS,exp,38,→,right,→,0.5459648000542074,True,8,-1,0,6
Y2-S2-147K19,4,365,PS,exp,33,↓,down,↓,0.605601100018248,True,8,-1,0,6
Y2-S2-147K19,4,366,PS,exp,48,↑,right,→,0.6136688999831676,False,8,-1,0,6
Y2-S2-147K19,4,367,PS,exp,29,←,left,←,0.49988060002215207,True,9,-1,0,6
Y2-S2-147K19,4,368,PS,exp,48,↓,down,↓,0.5708548000548035,True,9,-1,0,6
Y2-S2-147K19,4,369,PS,exp,46,←,left,←,0.6309551999438554,True,9,1,1,7
Y2-S2-147K19,4,370,PS,exp,40,↑,left,←,0.8334122998639941,False,8,-1,1,8
Y2-S2-147K19,4,371,PS,exp,28,↓,down,↓,0.5194828000385314,True,9,-1,0,8
Y2-S2-147K19,4,372,PS,exp,42,→,right,→,0.519352899864316,True,9,-1,0,8
Y2-S2-147K19,4,373,PS,exp,27,↑,up,↑,0.5652489000931382,True,9,1,1,9
Y2-S2-147K19,4,374,PS,exp,47,↓,down,↓,0.5153032999951392,True,8,1,0,9
Y2-S2-147K19,4,375,PS,exp,45,←,left,←,0.5154146999120712,True,8,1,0,9
Y2-S2-147K19,4,376,PS,exp,40,→,right,→,0.530096200061962,True,8,1,0,9
Y2-S2-147K19,4,377,PS,exp,41,↓,down,↓,0.4900656999088824,True,7,1,0,9
Y2-S2-147K19,4,378,PS,exp,49,↑,right,→,0.7053132001310587,False,7,-1,1,10
Y2-S2-147K19,4,379,PS,exp,45,←,left,←,0.48726650001481175,True,8,-1,0,10
Y2-S2-147K19,4,380,PS,exp,35,↓,down,↓,0.48632590007036924,True,8,-1,0,10
Y2-S2-147K19,4,381,PS,exp,44,←,right,→,0.5665948998648673,False,8,-1,0,10
Y2-S2-147K19,4,382,PS,exp,33,↑,down,↓,1.3888363000005484,False,9,-1,0,10
Y2-S2-147K19,4,383,PS,exp,42,→,down,↓,0.5735810999758542,False,10,-1,0,10
Y2-S2-147K19,4,384,PS,exp,34,↑,up,↑,0.7206446998752654,True,11,-1,0,10
Y2-S2-147K19,4,385,PS,exp,42,←,left,←,0.46991529990918934,True,11,-1,0,10
Y2-S2-147K19,4,386,PS,exp,47,↓,down,↓,0.6000320999883115,True,11,1,1,11
Y2-S2-147K19,4,387,PS,exp,28,→,right,→,0.5196018000133336,True,10,1,0,11
Y2-S2-147K19,4,388,PS,exp,31,↓,down,↓,0.6264713001437485,True,10,1,0,11
Y2-S2-147K19,4,389,PS,exp,32,↑,up,↑,0.5408785999752581,True,10,1,0,11
Y2-S2-147K19,4,390,PS,exp,41,→,right,→,0.4886610000394285,True,9,1,0,11
Y2-S2-147K19,4,391,PS,exp,39,↑,up,↑,0.5263704999815673,True,9,1,0,11
Y2-S2-147K19,4,392,PS,exp,38,←,left,←,0.6454223999753594,True,9,1,0,11
Y2-S2-147K19,4,393,PS,exp,31,→,right,→,0.4813288999721408,True,8,1,0,11
Y2-S2-147K19,4,394,PS,exp,27,↑,right,→,0.30886870017275214,False,8,-1,1,12
Y2-S2-147K19,4,395,PS,exp,36,←,left,←,0.5702072000131011,True,9,-1,0,12
Y2-S2-147K19,4,396,PS,exp,45,↑,up,↑,0.6606430998072028,True,9,-1,0,12
Y2-S2-147K19,4,397,PS,exp,29,←,left,←,0.47661280003376305,True,9,1,1,13
Y2-S2-147K19,4,398,PS,exp,42,→,left,←,0.6437435999978334,False,8,-1,1,14
Y2-S2-147K19,4,399,PS,exp,32,↑,up,↑,0.441950700012967,True,9,-1,0,14
Y2-S2-147K19,4,400,PS,exp,39,→,right,→,0.6031652998644859,True,9,-1,0,14
Y2-S2-147K19,4,401,PS,exp,50,←,left,←,0.50679190014489,True,9,1,1,15
Y2-S2-147K19,4,402,PS,exp,42,↑,left,←,0.6090691999997944,False,8,-1,1,16
Y2-S2-147K19,5,403,PS,intra_train,29,↓,down,↓,0.6292461999692023,True,15,-,-,-
Y2-S2-147K19,5,404,PS,intra_train,48,→,left,←,0.6761996999848634,False,15,-,-,-
Y2-S2-147K19,5,405,PS,intra_train,47,↓,down,↓,0.43098850012756884,True,15,-,-,-
Y2-S2-147K19,5,406,PS,intra_train,33,→,right,→,0.5493642999790609,True,15,-,-,-
Y2-S2-147K19,5,407,PS,intra_train,37,↑,up,↑,0.5433928999118507,True,15,-,-,-
Y2-S2-147K19,5,408,PS,exp,46,↓,right,→,0.5472506999503821,False,10,-1,0,0
Y2-S2-147K19,5,409,PS,exp,37,↑,up,↑,0.48146170005202293,True,11,-1,0,0
Y2-S2-147K19,5,410,PS,exp,41,→,left,←,0.5236285999417305,False,11,-1,0,0
Y2-S2-147K19,5,411,PS,exp,40,←,left,←,0.5211322999093682,True,12,-1,0,0
Y2-S2-147K19,5,412,PS,exp,47,↑,up,↑,0.6265137000009418,True,12,-1,0,0
Y2-S2-147K19,5,413,PS,exp,38,→,right,→,0.5270805999170989,True,12,1,1,1
Y2-S2-147K19,5,414,PS,exp,43,←,left,←,0.5850229999050498,True,11,1,0,1
Y2-S2-147K19,5,415,PS,exp,35,↓,down,↓,0.5564250000752509,True,11,1,0,1
Y2-S2-147K19,5,416,PS,exp,28,→,right,→,0.4581208999734372,True,11,1,0,1
Y2-S2-147K19,5,417,PS,exp,37,↑,up,↑,0.5029846001416445,True,10,1,0,1
Y2-S2-147K19,5,418,PS,exp,40,←,left,←,0.5426888999063522,True,10,1,0,1
Y2-S2-147K19,5,419,PS,exp,38,↓,down,↓,0.5667831001337618,True,10,1,0,1
Y2-S2-147K19,5,420,PS,exp,26,←,left,←,0.5438318999949843,True,9,1,0,1
Y2-S2-147K19,5,421,PS,exp,33,↑,up,↑,0.43335569999180734,True,9,1,0,1
Y2-S2-147K19,5,422,PS,exp,45,↓,down,↓,0.4457471000496298,True,9,1,0,1
Y2-S2-147K19,5,423,PS,exp,41,←,left,←,0.4734342999290675,True,8,1,0,1
Y2-S2-147K19,5,424,PS,exp,44,↓,up,↑,0.6844837998505682,False,8,-1,1,2
Y2-S2-147K19,5,425,PS,exp,50,→,right,→,0.4355210999492556,True,9,-1,0,2
Y2-S2-147K19,5,426,PS,exp,41,↑,up,↑,0.4419768999796361,True,9,-1,0,2
Y2-S2-147K19,5,427,PS,exp,46,←,left,←,0.4068187999073416,True,9,1,1,3
Y2-S2-147K19,5,428,PS,exp,32,↓,down,↓,0.5485242998693138,True,8,1,0,3
Y2-S2-147K19,5,429,PS,exp,33,↑,up,↑,0.5151755001861602,True,8,1,0,3
Y2-S2-147K19,5,430,PS,exp,33,←,left,←,0.3685870999470353,True,8,1,0,3
Y2-S2-147K19,5,431,PS,exp,30,→,down,↓,0.6540895998477936,False,7,-1,1,4
Y2-S2-147K19,5,432,PS,exp,45,←,left,←,0.6338468000758439,True,8,-1,0,4
Y2-S2-147K19,5,433,PS,exp,41,→,right,→,0.6026153001002967,True,8,-1,0,4
Y2-S2-147K19,5,434,PS,exp,47,↓,down,↓,0.4740830999799073,True,8,1,1,5
Y2-S2-147K19,5,435,PS,exp,48,↑,up,↑,0.6579925001133233,True,7,1,0,5
Y2-S2-147K19,5,436,PS,exp,37,↓,down,↓,0.4693724000826478,True,7,1,0,5
Y2-S2-147K19,5,437,PS,exp,27,←,down,↓,0.44473510002717376,False,7,-1,1,6
Y2-S2-147K19,5,438,PS,exp,34,↑,down,↓,0.5985059000086039,False,8,-1,0,6
Y2-S2-147K19,5,439,PS,exp,47,←,left,←,0.4907711998093873,True,9,-1,0,6
Y2-S2-147K19,5,440,PS,exp,31,↓,down,↓,0.46260750014334917,True,9,-1,0,6
Y2-S2-147K19,5,441,PS,exp,41,→,right,→,0.4538386999629438,True,9,1,1,7
Y2-S2-147K19,5,442,PS,exp,28,↓,down,↓,0.4516611001454294,True,8,1,0,7
Y2-S2-147K19,5,443,PS,exp,31,↑,down,↓,0.7136191001627594,False,8,-1,1,8
Y2-S2-147K19,5,444,PS,exp,31,↓,right,→,0.5451650999020785,False,9,-1,0,8
Y2-S2-147K19,5,445,PS,exp,25,→,right,→,0.47760600014589727,True,10,-1,0,8
Y2-S2-147K19,5,446,PS,exp,42,↓,down,↓,0.4937252998352051,True,10,-1,0,8
Y2-S2-147K19,5,447,PS,exp,47,←,left,←,0.4120555000845343,True,10,1,1,9
Y2-S2-147K19,5,448,PS,exp,43,↓,down,↓,0.4355772999115288,True,9,1,0,9
Y2-S2-147K19,5,449,PS,exp,27,←,right,→,0.5992072001099586,False,9,-1,1,10
Y2-S2-147K19,5,450,PS,exp,48,↑,up,↑,0.5454293000511825,True,10,-1,0,10
Y2-S2-147K19,5,451,PS,exp,26,←,right,→,0.489361000014469,False,10,-1,0,10
Y2-S2-147K19,5,452,PS,exp,30,↓,right,→,0.4462412998545915,False,11,-1,0,10
Y2-S2-147K19,5,453,PS,exp,38,↑,up,↑,0.46226969989947975,True,12,-1,0,10
Y2-S2-147K19,5,454,PS,exp,39,←,left,←,0.5104282000102103,True,12,-1,0,10
Y2-S2-147K19,5,455,PS,exp,39,↓,left,←,0.6634408000390977,False,12,-1,0,10
Y2-S2-147K19,5,456,PS,exp,50,→,right,→,0.4228596999309957,True,13,-1,0,10
Y2-S2-147K19,5,457,PS,exp,35,↑,up,↑,0.5728208001237363,True,13,-1,0,10
Y2-S2-147K19,5,458,PS,exp,44,↓,down,↓,0.49727819999679923,True,13,1,1,11
Y2-S2-147K19,5,459,PS,exp,42,←,left,←,0.5008359998464584,True,12,1,0,11
Y2-S2-147K19,5,460,PS,exp,29,↓,down,↓,0.5295776999555528,True,12,1,0,11
Y2-S2-147K19,5,461,PS,exp,43,↑,up,↑,0.5425680000334978,True,12,1,0,11
Y2-S2-147K19,5,462,PS,exp,29,→,right,→,0.44523150008171797,True,11,1,0,11
Y2-S2-147K19,5,463,PS,exp,29,↑,up,↑,0.5148299001157284,True,11,1,0,11
Y2-S2-147K19,5,464,PS,exp,45,→,right,→,0.44132439978420734,True,11,1,0,11
Y2-S2-147K19,5,465,PS,exp,25,↑,up,↑,0.5323272000532597,True,10,1,0,11
Y2-S2-147K19,5,466,PS,exp,29,←,left,←,0.5092709998134524,True,10,1,0,11
Y2-S2-147K19,5,467,PS,exp,32,↓,down,↓,0.5416341999080032,True,10,1,0,11
Y2-S2-147K19,5,468,PS,exp,31,↑,up,↑,0.43057919992133975,True,9,1,0,11
Y2-S2-147K19,5,469,PS,exp,44,→,right,→,0.44813650008291006,True,9,1,0,11
Y2-S2-147K19,5,470,PS,exp,46,↑,up,↑,0.4172368999570608,True,9,1,0,11
Y2-S2-147K19,5,471,PS,exp,38,←,right,→,0.45399000006727874,False,8,-1,1,12
Y2-S2-147K19,5,472,PS,exp,43,↓,right,→,0.35157230007462204,False,9,-1,0,12
Y2-S2-147K19,5,473,PS,exp,46,↑,up,↑,0.5540527999401093,True,10,-1,0,12
Y2-S2-147K19,5,474,PS,exp,26,→,right,→,0.40621350007131696,True,10,-1,0,12
Y2-S2-147K19,5,475,PS,exp,35,↑,up,↑,0.4166542999446392,True,10,1,1,13
Y2-S2-147K19,5,476,PS,exp,45,→,right,→,0.3648411000613123,True,9,1,0,13
Y2-S2-147K19,5,477,PS,exp,32,↑,up,↑,0.5160888000391424,True,9,1,0,13
Y2-S2-147K19,5,478,PS,exp,38,↓,down,↓,0.45019429991953075,True,9,1,0,13
Y2-S2-147K19,5,479,PS,exp,44,↑,down,↓,0.4998176998924464,False,8,-1,1,14
Y2-S2-147K19,5,480,PS,exp,32,↓,down,↓,0.45046459999866784,True,9,-1,0,14
Y2-S2-147K19,5,481,PS,exp,27,→,down,↓,0.5589921998325735,False,9,-1,0,14
Y2-S2-147K19,5,482,PS,exp,31,↓,down,↓,0.42243000003509223,True,10,-1,0,14
Y2-S2-147K19,5,483,PS,exp,41,→,right,→,0.4867329001426697,True,10,-1,0,14
Y2-S2-147K19,5,484,PS,exp,47,↓,down,↓,0.5471094998065382,True,10,1,1,15
Y2-S2-147K19,5,485,PS,exp,46,↑,down,↓,0.65819750004448,False,9,-1,1,16
Y2-S2-147K19,6,486,AS,intra_train,32,↓,down,↓,1.2239070001523942,True,30,-,-,-
Y2-S2-147K19,6,487,AS,intra_train,41,←,left,←,0.9232831001281738,True,30,-,-,-
Y2-S2-147K19,6,488,AS,intra_train,30,→,right,→,0.6704714999068528,True,30,-,-,-
Y2-S2-147K19,6,489,AS,intra_train,27,↑,left,←,0.5173392000142485,False,30,-,-,-
Y2-S2-147K19,6,490,AS,intra_train,38,↓,down,↓,0.6990130001213402,True,30,-,-,-
Y2-S2-147K19,6,491,AS,exp,32,→,right,→,0.6824344000779092,True,20,0,0,0
Y2-S2-147K19,6,492,AS,exp,43,↓,left,←,0.6757732999976724,False,20,-1,0,0
Y2-S2-147K19,6,493,AS,exp,41,←,right,→,0.5274337001610547,False,21,-1,0,0
Y2-S2-147K19,6,494,AS,exp,36,↑,down,↓,0.9091948999557644,False,22,-1,0,0
Y2-S2-147K19,6,495,AS,exp,30,→,right,→,0.5175227001309395,True,23,-1,0,0
Y2-S2-147K19,6,496,AS,exp,26,←,left,←,0.6324923001229763,True,23,-1,0,0
Y2-S2-147K19,6,497,AS,exp,37,→,right,→,0.6892685000784695,True,23,1,1,1
Y2-S2-147K19,6,498,AS,exp,45,↓,left,←,0.5490256999619305,False,22,-1,1,2
Y2-S2-147K19,6,499,AS,exp,38,→,right,→,0.8446421001572162,True,23,-1,0,2
Y2-S2-147K19,6,500,AS,exp,30,↑,down,↓,0.569551499793306,False,23,-1,0,2
Y2-S2-147K19,6,501,AS,exp,25,←,left,←,0.6972453000489622,True,24,-1,0,2
Y2-S2-147K19,6,502,AS,exp,41,↑,up,↑,0.6782494999933988,True,24,-1,0,2
Y2-S2-147K19,6,503,AS,exp,49,↓,down,↓,0.7036536999512464,True,24,1,1,3
Y2-S2-147K19,6,504,AS,exp,35,→,right,→,0.7385978999081999,True,23,1,0,3
Y2-S2-147K19,6,505,AS,exp,27,↓,down,↓,0.4835842000320554,True,23,1,0,3
Y2-S2-147K19,6,506,AS,exp,49,←,left,←,0.6811662998516113,True,23,1,0,3
Y2-S2-147K19,6,507,AS,exp,28,↑,up,↑,0.6994644999504089,True,22,1,0,3
Y2-S2-147K19,6,508,AS,exp,50,←,down,↓,0.9074432000052184,False,22,-1,1,4
Y2-S2-147K19,6,509,AS,exp,48,↑,up,↑,0.6732276999391615,True,23,-1,0,4
Y2-S2-147K19,6,510,AS,exp,32,↓,down,↓,0.6757777999155223,True,23,-1,0,4
Y2-S2-147K19,6,511,AS,exp,44,→,right,→,1.660720300162211,True,23,1,1,5
Y2-S2-147K19,6,512,AS,exp,47,↓,down,↓,0.5006287000142038,True,22,1,0,5
Y2-S2-147K19,6,513,AS,exp,43,←,left,←,0.7422946998849511,True,22,1,0,5
Y2-S2-147K19,6,514,AS,exp,27,↑,down,↓,0.8755091999191791,False,22,-1,1,6
Y2-S2-147K19,6,515,AS,exp,39,→,right,→,0.6020225000102073,True,23,-1,0,6
Y2-S2-147K19,6,516,AS,exp,25,↑,up,↑,0.6475905999541283,True,23,-1,0,6
Y2-S2-147K19,6,517,AS,exp,42,↓,down,↓,0.6985327999573201,True,23,1,1,7
Y2-S2-147K19,6,518,AS,exp,26,↑,up,↑,0.6367722998838872,True,22,1,0,7
Y2-S2-147K19,6,519,AS,exp,47,←,left,←,0.6628020000644028,True,22,1,0,7
Y2-S2-147K19,6,520,AS,exp,48,→,right,→,0.946534400107339,True,22,1,0,7
Y2-S2-147K19,6,521,AS,exp,30,↓,down,↓,0.7067259999457747,True,21,1,0,7
Y2-S2-147K19,6,522,AS,exp,38,←,left,←,0.6128537999466062,True,21,1,0,7
Y2-S2-147K19,6,523,AS,exp,27,↓,down,↓,0.743013700004667,True,21,1,0,7
Y2-S2-147K19,6,524,AS,exp,50,→,left,←,0.502745799953118,False,20,-1,1,8
Y2-S2-147K19,6,525,AS,exp,37,↑,up,↑,0.6828832000028342,True,21,-1,0,8
Y2-S2-147K19,6,526,AS,exp,32,↓,right,→,1.5133344000205398,False,21,-1,0,8
Y2-S2-147K19,6,527,AS,exp,25,←,left,←,0.6665827000979334,True,22,-1,0,8
Y2-S2-147K19,6,528,AS,exp,33,→,left,←,0.8525761000346392,False,22,-1,0,8
Y2-S2-147K19,6,529,AS,exp,48,↑,up,↑,0.7202317998744547,True,23,-1,0,8
Y2-S2-147K19,6,530,AS,exp,25,↓,down,↓,0.6975243999622762,True,23,-1,0,8
Y2-S2-147K19,6,531,AS,exp,46,→,right,→,0.613599699921906,True,23,1,1,9
Y2-S2-147K19,6,532,AS,exp,50,↑,up,↑,0.500430200016126,True,22,1,0,9
Y2-S2-147K19,6,533,AS,exp,36,←,left,←,0.7166496999561787,True,22,1,0,9
Y2-S2-147K19,6,534,AS,exp,31,↑,up,↑,0.5693331998772919,True,22,1,0,9
Y2-S2-147K19,6,535,AS,exp,39,←,left,←,1.4277085000649095,True,21,1,0,9
Y2-S2-147K19,6,536,AS,exp,47,↑,up,↑,0.8224746000487357,True,21,1,0,9
Y2-S2-147K19,6,537,AS,exp,30,→,right,→,0.60940369986929,True,21,1,0,9
Y2-S2-147K19,6,538,AS,exp,39,↓,down,↓,0.5958400000818074,True,20,1,0,9
Y2-S2-147K19,6,539,AS,exp,40,→,right,→,0.6578587000258267,True,20,1,0,9
Y2-S2-147K19,6,540,AS,exp,46,↑,up,↑,0.6977770000230521,True,20,1,0,9
Y2-S2-147K19,6,541,AS,exp,31,←,left,←,0.5965011999942362,True,19,1,0,9
Y2-S2-147K19,6,542,AS,exp,45,→,right,→,0.9028205999638885,True,19,1,0,9
Y2-S2-147K19,6,543,AS,exp,25,↓,down,↓,0.7787042001727968,True,19,1,0,9
Y2-S2-147K19,6,544,AS,exp,29,←,left,←,0.8154729998204857,True,18,1,0,9
Y2-S2-147K19,6,545,AS,exp,36,↓,down,↓,0.7991406999062747,True,18,1,0,9
Y2-S2-147K19,6,546,AS,exp,33,←,right,→,0.5899447000119835,False,18,-1,1,10
Y2-S2-147K19,6,547,AS,exp,33,↑,up,↑,0.6089427000842988,True,19,-1,0,10
Y2-S2-147K19,6,548,AS,exp,30,←,left,←,0.45027639996260405,True,19,-1,0,10
Y2-S2-147K19,6,549,AS,exp,31,↑,up,↑,0.6355835997965187,True,19,1,1,11
Y2-S2-147K19,6,550,AS,exp,46,←,left,←,0.5495540001429617,True,18,1,0,11
Y2-S2-147K19,6,551,AS,exp,40,↑,up,↑,0.5078098000958562,True,18,1,0,11
Y2-S2-147K19,6,552,AS,exp,48,→,right,→,0.6189464998897165,True,18,1,0,11
Y2-S2-147K19,6,553,AS,exp,50,←,right,→,0.6263514999300241,False,17,-1,1,12
Y2-S2-147K19,6,554,AS,exp,29,↑,up,↑,0.7470536001492292,True,18,-1,0,12
Y2-S2-147K19,6,555,AS,exp,34,→,right,→,0.48841500002890825,True,18,-1,0,12
Y2-S2-147K19,6,556,AS,exp,35,↓,down,↓,0.5855769000481814,True,18,1,1,13
Y2-S2-147K19,6,557,AS,exp,41,←,right,→,0.7172114998102188,False,17,-1,1,14
Y2-S2-147K19,6,558,AS,exp,33,↑,up,↑,0.43383749993517995,True,18,-1,0,14
Y2-S2-147K19,6,559,AS,exp,30,→,right,→,0.6631182001437992,True,18,-1,0,14
Y2-S2-147K19,6,560,AS,exp,48,↓,right,→,0.7850120000075549,False,18,-1,0,14
Y2-S2-147K19,6,561,AS,exp,30,←,left,←,0.5283592001069337,True,19,-1,0,14
Y2-S2-147K19,6,562,AS,exp,43,↓,down,↓,0.6603394001722336,True,19,-1,0,14
Y2-S2-147K19,6,563,AS,exp,27,↑,up,↑,0.5146832999307662,True,19,1,1,15
Y2-S2-147K19,6,564,AS,exp,38,→,right,→,0.8966208000201732,True,18,1,0,15
Y2-S2-147K19,6,565,AS,exp,30,↓,right,→,0.816435500048101,False,18,-1,1,16
Y2-S2-147K19,7,566,AS,intra_train,48,←,left,←,0.5172162000089884,True,30,-,-,-
Y2-S2-147K19,7,567,AS,intra_train,28,↑,up,↑,0.7008348999079317,True,30,-,-,-
Y2-S2-147K19,7,568,AS,intra_train,32,→,right,→,0.5171040999703109,True,30,-,-,-
Y2-S2-147K19,7,569,AS,intra_train,35,↑,up,↑,0.719634999986738,True,30,-,-,-
Y2-S2-147K19,7,570,AS,intra_train,41,↓,down,↓,0.5173226001206785,True,30,-,-,-
Y2-S2-147K19,7,571,AS,exp,41,→,right,→,0.46702710003592074,True,20,0,0,0
Y2-S2-147K19,7,572,AS,exp,49,←,left,←,0.6246561000589281,True,20,0,0,0
Y2-S2-147K19,7,573,AS,exp,50,→,right,→,0.8064725000876933,True,20,1,0,0
Y2-S2-147K19,7,574,AS,exp,42,↓,left,←,0.49762260005809367,False,19,-1,1,1
Y2-S2-147K19,7,575,AS,exp,44,→,down,↓,0.7834468998480588,False,20,-1,0,1
Y2-S2-147K19,7,576,AS,exp,37,↑,up,↑,0.4838011998217553,True,21,-1,0,1
Y2-S2-147K19,7,577,AS,exp,50,←,left,←,0.71235609985888,True,21,-1,0,1
Y2-S2-147K19,7,578,AS,exp,30,→,right,→,0.5378446998074651,True,21,1,1,2
Y2-S2-147K19,7,579,AS,exp,36,←,right,→,0.5532684000208974,False,20,-1,1,3
Y2-S2-147K19,7,580,AS,exp,30,↑,up,↑,0.7265882999636233,True,21,-1,0,3
Y2-S2-147K19,7,581,AS,exp,28,→,right,→,0.6004091999493539,True,21,-1,0,3
Y2-S2-147K19,7,582,AS,exp,28,↑,up,↑,0.7269246000796556,True,21,1,1,4
Y2-S2-147K19,7,583,AS,exp,50,→,right,→,0.6890137000009418,True,20,1,0,4
Y2-S2-147K19,7,584,AS,exp,44,↓,down,↓,0.7230801000259817,True,20,1,0,4
Y2-S2-147K19,7,585,AS,exp,46,←,left,←,0.5074215000495315,True,20,1,0,4
Y2-S2-147K19,7,586,AS,exp,37,→,right,→,0.5804105000570416,True,19,1,0,4
Y2-S2-147K19,7,587,AS,exp,35,←,right,→,0.6535479999147356,False,19,-1,1,5
Y2-S2-147K19,7,588,AS,exp,28,→,right,→,0.4006787999533117,True,20,-1,0,5
Y2-S2-147K19,7,589,AS,exp,33,↑,up,↑,0.6587477999273688,True,20,-1,0,5
Y2-S2-147K19,7,590,AS,exp,42,↓,down,↓,1.478593499865383,True,20,1,1,6
Y2-S2-147K19,7,591,AS,exp,39,←,up,↑,0.6309994999319315,False,19,-1,1,7
Y2-S2-147K19,7,592,AS,exp,36,→,right,→,0.5013278000988066,True,20,-1,0,7
Y2-S2-147K19,7,593,AS,exp,43,←,left,←,0.7215690999291837,True,20,-1,0,7
Y2-S2-147K19,7,594,AS,exp,48,↑,down,↓,0.8788911998271942,False,20,-1,0,7
Y2-S2-147K19,7,595,AS,exp,36,↓,down,↓,0.8083369000814855,True,21,-1,0,7
Y2-S2-147K19,7,596,AS,exp,43,→,right,→,0.6595047998707741,True,21,-1,0,7
Y2-S2-147K19,7,597,AS,exp,39,↑,up,↑,0.6468871999531984,True,21,1,1,8
Y2-S2-147K19,7,598,AS,exp,50,↓,down,↓,0.6314624999649823,True,20,1,0,8
Y2-S2-147K19,7,599,AS,exp,39,↑,up,↑,0.5969793999101967,True,20,1,0,8
Y2-S2-147K19,7,600,AS,exp,50,→,right,→,1.1649064999073744,True,20,1,0,8
Y2-S2-147K19,7,601,AS,exp,42,←,left,←,1.2923198998905718,True,19,1,0,8
Y2-S2-147K19,7,602,AS,exp,37,↓,down,↓,0.5368180000223219,True,19,1,0,8
Y2-S2-147K19,7,603,AS,exp,31,←,left,←,0.7879401000682265,True,19,1,0,8
Y2-S2-147K19,7,604,AS,exp,44,↓,down,↓,0.7167593000922352,True,18,1,0,8
Y2-S2-147K19,7,605,AS,exp,43,↑,down,↓,0.7005800001788884,False,18,-1,1,9
Y2-S2-147K19,7,606,AS,exp,42,→,left,←,0.5250686001963913,False,19,-1,0,9
Y2-S2-147K19,7,607,AS,exp,34,↑,up,↑,0.7596249000634998,True,20,-1,0,9
Y2-S2-147K19,7,608,AS,exp,28,↓,left,←,1.153158700093627,False,20,-1,0,9
Y2-S2-147K19,7,609,AS,exp,37,←,right,→,0.9205366000533104,False,21,-1,0,9
Y2-S2-147K19,7,610,AS,exp,31,→,right,→,0.6183130000717938,True,22,-1,0,9
Y2-S2-147K19,7,611,AS,exp,50,↑,up,↑,0.7948121998924762,True,22,-1,0,9
Y2-S2-147K19,7,612,AS,exp,43,↓,down,↓,0.8192628000397235,True,22,1,1,10
Y2-S2-147K19,7,613,AS,exp,39,←,left,←,0.6522188000380993,True,21,1,0,10
Y2-S2-147K19,7,614,AS,exp,47,↓,down,↓,0.7012541999574751,True,21,1,0,10
Y2-S2-147K19,7,615,AS,exp,46,←,left,←,0.6368088000454009,True,21,1,0,10
Y2-S2-147K19,7,616,AS,exp,43,↑,up,↑,0.6941903999540955,True,20,1,0,10
Y2-S2-147K19,7,617,AS,exp,34,→,left,←,0.7172938999719918,False,20,-1,1,11
Y2-S2-147K19,7,618,AS,exp,39,↑,up,↑,0.7147865002043545,True,21,-1,0,11
Y2-S2-147K19,7,619,AS,exp,38,↓,down,↓,0.5248243000824004,True,21,-1,0,11
Y2-S2-147K19,7,620,AS,exp,35,→,right,→,0.7795354998670518,True,21,1,1,12
Y2-S2-147K19,7,621,AS,exp,35,↓,down,↓,0.5274815999437124,True,20,1,0,12
Y2-S2-147K19,7,622,AS,exp,39,←,left,←,0.5028427999932319,True,20,1,0,12
Y2-S2-147K19,7,623,AS,exp,36,→,right,→,0.7332182000391185,True,20,1,0,12
Y2-S2-147K19,7,624,AS,exp,35,←,right,→,1.0869687001686543,False,19,-1,1,13
Y2-S2-147K19,7,625,AS,exp,44,↓,right,→,0.7933312999084592,False,20,-1,0,13
Y2-S2-147K19,7,626,AS,exp,29,←,left,←,0.5349128998350352,True,21,-1,0,13
Y2-S2-147K19,7,627,AS,exp,25,↑,up,↑,0.8267076998017728,True,21,-1,0,13
Y2-S2-147K19,7,628,AS,exp,41,←,left,←,0.6566633998882025,True,21,1,1,14
Y2-S2-147K19,7,629,AS,exp,42,↓,down,↓,0.7178483998868614,True,20,1,0,14
Y2-S2-147K19,7,630,AS,exp,46,↑,up,↑,0.7492674998939037,True,20,1,0,14
Y2-S2-147K19,7,631,AS,exp,31,↓,down,↓,0.5045513000804931,True,20,1,0,14
Y2-S2-147K19,7,632,AS,exp,32,←,left,←,0.7026415001600981,True,19,1,0,14
Y2-S2-147K19,7,633,AS,exp,41,→,right,→,0.6343483999371529,True,19,1,0,14
Y2-S2-147K19,7,634,AS,exp,47,←,left,←,0.5550128000322729,True,19,1,0,14
Y2-S2-147K19,7,635,AS,exp,26,↑,up,↑,0.589028799906373,True,18,1,0,14
Y2-S2-147K19,7,636,AS,exp,40,↓,down,↓,0.6169980000704527,True,18,1,0,14
Y2-S2-147K19,7,637,AS,exp,39,↑,up,↑,0.6335307001136243,True,18,1,0,14
Y2-S2-147K19,7,638,AS,exp,34,→,right,→,0.6466159999836236,True,17,1,0,14
Y2-S2-147K19,7,639,AS,exp,25,↓,down,↓,1.2543689000885934,True,17,1,0,14
Y2-S2-147K19,7,640,AS,exp,29,↑,up,↑,0.733694699825719,True,17,1,0,14
Y2-S2-147K19,7,641,AS,exp,31,←,right,→,0.6993933999910951,False,16,-1,1,15
Y2-S2-147K19,7,642,AS,exp,40,↓,down,↓,0.6011655000038445,True,17,-1,0,15
Y2-S2-147K19,7,643,AS,exp,42,↑,up,↑,0.6676378999836743,True,17,-1,0,15
Y2-S2-147K19,7,644,AS,exp,48,↓,down,↓,0.6533478999044746,True,17,1,1,16
Y2-S2-147K19,8,645,PS,intra_train,43,↑,right,→,0.9920419999398291,False,15,-,-,-
Y2-S2-147K19,8,646,PS,intra_train,39,←,right,→,0.9365211999975145,False,15,-,-,-
Y2-S2-147K19,8,647,PS,intra_train,34,↑,up,↑,0.5061216999311,True,15,-,-,-
Y2-S2-147K19,8,648,PS,intra_train,37,←,down,↓,0.9100914001464844,False,15,-,-,-
Y2-S2-147K19,8,649,PS,intra_train,35,→,down,↓,0.8550343001261353,False,15,-,-,-
Y2-S2-147K19,8,650,PS,exp,32,↑,up,↑,0.46894520008936524,True,10,0,0,0
Y2-S2-147K19,8,651,PS,exp,49,↓,right,→,0.6357168999966234,False,10,-1,0,0
Y2-S2-147K19,8,652,PS,exp,30,←,left,←,0.4483488998375833,True,11,-1,0,0
Y2-S2-147K19,8,653,PS,exp,26,↓,right,→,0.44276710017584264,False,11,-1,0,0
Y2-S2-147K19,8,654,PS,exp,47,↑,right,→,0.5762898998800665,False,12,-1,0,0
Y2-S2-147K19,8,655,PS,exp,36,←,left,←,0.5173561000265181,True,13,-1,0,0
Y2-S2-147K19,8,656,PS,exp,39,→,right,→,0.4812386999838054,True,13,-1,0,0
Y2-S2-147K19,8,657,PS,exp,47,←,left,←,0.6208540999796242,True,13,1,1,1
Y2-S2-147K19,8,658,PS,exp,32,↑,up,↑,0.491583300055936,True,12,1,0,1
Y2-S2-147K19,8,659,PS,exp,27,→,right,→,0.5432619000785053,True,12,1,0,1
Y2-S2-147K19,8,660,PS,exp,37,↓,down,↓,0.6176577999722213,True,12,1,0,1
Y2-S2-147K19,8,661,PS,exp,39,→,right,→,0.457023800117895,True,11,1,0,1
Y2-S2-147K19,8,662,PS,exp,34,↑,up,↑,0.8676967001520097,True,11,1,0,1
Y2-S2-147K19,8,663,PS,exp,39,←,left,←,0.5275732001755387,True,11,1,0,1
Y2-S2-147K19,8,664,PS,exp,28,→,right,→,0.5028880999889225,True,10,1,0,1
Y2-S2-147K19,8,665,PS,exp,46,←,left,←,0.8221702000591904,True,10,1,0,1
Y2-S2-147K19,8,666,PS,exp,31,→,right,→,0.5901118998881429,True,10,1,0,1
Y2-S2-147K19,8,667,PS,exp,43,↓,down,↓,0.5423862000461668,True,9,1,0,1
Y2-S2-147K19,8,668,PS,exp,47,←,left,←,0.4961804000195116,True,9,1,0,1
Y2-S2-147K19,8,669,PS,exp,36,↓,down,↓,0.6162186998408288,True,9,1,0,1
Y2-S2-147K19,8,670,PS,exp,29,→,right,→,0.43740739999338984,True,8,1,0,1
Y2-S2-147K19,8,671,PS,exp,33,←,left,←,0.5329704000614583,True,8,1,0,1
Y2-S2-147K19,8,672,PS,exp,38,↓,left,←,0.39201329997740686,False,8,-1,1,2
Y2-S2-147K19,8,673,PS,exp,26,←,left,←,0.441108200000599,True,9,-1,0,2
Y2-S2-147K19,8,674,PS,exp,35,→,left,←,0.42764610005542636,False,9,-1,0,2
Y2-S2-147K19,8,675,PS,exp,50,↑,right,→,0.7447297000326216,False,10,-1,0,2
Y2-S2-147K19,8,676,PS,exp,30,←,left,←,0.5054632998071611,True,11,-1,0,2
Y2-S2-147K19,8,677,PS,exp,35,→,right,→,0.5948157000821084,True,11,-1,0,2
Y2-S2-147K19,8,678,PS,exp,44,↑,up,↑,0.54097789991647,True,11,1,1,3
Y2-S2-147K19,8,679,PS,exp,49,←,left,←,0.4374052998609841,True,10,1,0,3
Y2-S2-147K19,8,680,PS,exp,25,↑,up,↑,0.6138637999538332,True,10,1,0,3
Y2-S2-147K19,8,681,PS,exp,36,↓,down,↓,0.451393999857828,True,10,1,0,3
Y2-S2-147K19,8,682,PS,exp,38,←,left,←,0.38993680011481047,True,9,1,0,3
Y2-S2-147K19,8,683,PS,exp,35,↑,right,→,0.7039489999879152,False,9,-1,1,4
Y2-S2-147K19,8,684,PS,exp,30,↓,left,←,0.3630103000905365,False,10,-1,0,4
Y2-S2-147K19,8,685,PS,exp,38,←,down,↓,0.3007958000525832,False,11,-1,0,4
Y2-S2-147K19,8,686,PS,exp,29,↓,down,↓,0.4777408998925239,True,12,-1,0,4
Y2-S2-147K19,8,687,PS,exp,48,←,left,←,0.381725300103426,True,12,-1,0,4
Y2-S2-147K19,8,688,PS,exp,44,↓,down,↓,0.4435468998271972,True,12,1,1,5
Y2-S2-147K19,8,689,PS,exp,40,→,right,→,0.5681902999058366,True,11,1,0,5
Y2-S2-147K19,8,690,PS,exp,38,←,left,←,0.5622873001266271,True,11,1,0,5
Y2-S2-147K19,8,691,PS,exp,37,↑,up,↑,0.5596650999505073,True,11,1,0,5
Y2-S2-147K19,8,692,PS,exp,26,↓,down,↓,0.44481880008243024,True,10,1,0,5
Y2-S2-147K19,8,693,PS,exp,40,→,right,→,0.5159393001813442,True,10,1,0,5
Y2-S2-147K19,8,694,PS,exp,46,↑,up,↑,0.47306019999086857,True,10,1,0,5
Y2-S2-147K19,8,695,PS,exp,49,↓,down,↓,0.4850365000311285,True,9,1,0,5
Y2-S2-147K19,8,696,PS,exp,31,←,left,←,0.4562379999551922,True,9,1,0,5
Y2-S2-147K19,8,697,PS,exp,31,→,right,→,0.4650936000980437,True,9,1,0,5
Y2-S2-147K19,8,698,PS,exp,36,↑,right,→,0.5792006999254227,False,8,-1,1,6
Y2-S2-147K19,8,699,PS,exp,45,→,right,→,0.5011502001434565,True,9,-1,0,6
Y2-S2-147K19,8,700,PS,exp,40,↓,down,↓,0.6132714999839664,True,9,-1,0,6
Y2-S2-147K19,8,701,PS,exp,29,↑,up,↑,0.5418629001360387,True,9,1,1,7
Y2-S2-147K19,8,702,PS,exp,37,→,right,→,0.5298901998903602,True,8,1,0,7
Y2-S2-147K19,8,703,PS,exp,30,↑,up,↑,0.5004425998777151,True,8,1,0,7
Y2-S2-147K19,8,704,PS,exp,42,↓,down,↓,0.5307130999863148,True,8,1,0,7
Y2-S2-147K19,8,705,PS,exp,43,↑,down,↓,0.680661000078544,False,7,-1,1,8
Y2-S2-147K19,8,706,PS,exp,50,↓,right,→,0.517913999967277,False,8,-1,0,8
Y2-S2-147K19,8,707,PS,exp,38,↑,up,↑,0.8036852001678199,True,9,-1,0,8
Y2-S2-147K19,8,708,PS,exp,49,↓,down,↓,0.4198004000354558,True,9,-1,0,8
Y2-S2-147K19,8,709,PS,exp,27,←,right,→,0.5680827000178397,False,9,-1,0,8
Y2-S2-147K19,8,710,PS,exp,40,↑,up,↑,0.5297339002136141,True,10,-1,0,8
Y2-S2-147K19,8,711,PS,exp,37,→,right,→,0.4524000999517739,True,10,-1,0,8
Y2-S2-147K19,8,712,PS,exp,42,↓,down,↓,0.5214537000283599,True,10,1,1,9
Y2-S2-147K19,8,713,PS,exp,46,→,down,↓,0.7870181000325829,False,9,-1,1,10
Y2-S2-147K19,8,714,PS,exp,32,↓,down,↓,0.4342628000304103,True,10,-1,0,10
Y2-S2-147K19,8,715,PS,exp,40,↑,right,→,0.3949293999467045,False,10,-1,0,10
Y2-S2-147K19,8,716,PS,exp,36,↓,down,↓,0.4491046001203358,True,11,-1,0,10
Y2-S2-147K19,8,717,PS,exp,37,→,right,→,0.40141359996050596,True,11,-1,0,10
Y2-S2-147K19,8,718,PS,exp,40,↑,right,→,0.38465939997695386,False,11,-1,0,10
Y2-S2-147K19,8,719,PS,exp,37,←,right,→,0.3828555999789387,False,12,-1,0,10
Y2-S2-147K19,8,720,PS,exp,49,↓,down,↓,0.5084400998894125,True,13,-1,0,10
Y2-S2-147K19,8,721,PS,exp,34,↑,up,↑,0.6235968000255525,True,13,-1,0,10
Y2-S2-147K19,8,722,PS,exp,43,↓,down,↓,0.4661956001073122,True,13,1,1,11
Y2-S2-147K19,8,723,PS,exp,28,↑,up,↑,0.4713005998637527,True,12,1,0,11
Y2-S2-147K19,8,724,PS,exp,49,←,right,→,0.413078400073573,False,12,-1,1,12
Y2-S2-147K19,8,725,PS,exp,36,→,right,→,0.4360136999748647,True,13,-1,0,12
Y2-S2-147K19,8,726,PS,exp,34,↑,up,↑,0.5774095999076962,True,13,-1,0,12
Y2-S2-147K19,8,727,PS,exp,40,←,left,←,0.4593997998163104,True,13,1,1,13
Y2-S2-147K19,8,728,PS,exp,42,→,right,→,0.4086106999311596,True,12,1,0,13
Y2-S2-147K19,8,729,PS,exp,49,←,right,→,0.47034969995729625,False,12,-1,1,14
Y2-S2-147K19,8,730,PS,exp,41,→,right,→,0.4884872999973595,True,13,-1,0,14
Y2-S2-147K19,8,731,PS,exp,41,←,left,←,0.4880760998930782,True,13,-1,0,14
Y2-S2-147K19,8,732,PS,exp,42,↓,down,↓,0.4667698999401182,True,13,1,1,15
Y2-S2-147K19,8,733,PS,exp,26,↑,up,↑,0.5046560999471694,True,12,1,0,15
Y2-S2-147K19,8,734,PS,exp,45,→,left,←,0.7262114000041038,False,12,-1,1,16
