PART_ID,Block_no,Trial_no,Block_type,Trial_type,CSI,Stim_letter,Key_pressed,letter_choose,Rt,Corr,Stimulus Time,Level,Reversal,Revs_count
Y2-S2-268M21,1,1,PS,train,38,↑,left,←,0.4851623997092247,False,30,-,-,-
Y2-S2-268M21,1,2,PS,train,25,←,left,←,0.6172994002699852,True,30,-,-,-
Y2-S2-268M21,1,3,PS,train,31,↑,up,↑,1.605574299581349,True,30,-,-,-
Y2-S2-268M21,1,4,PS,train,33,↓,down,↓,0.6997904004529119,True,30,-,-,-
Y2-S2-268M21,1,5,PS,train,38,←,left,←,0.8537127999588847,True,30,-,-,-
Y2-S2-268M21,1,6,PS,train,47,→,right,→,0.7222754005342722,True,30,-,-,-
Y2-S2-268M21,1,7,PS,train,28,↑,up,↑,0.7035742998123169,True,30,-,-,-
Y2-S2-268M21,1,8,PS,train,50,↓,down,↓,0.7723668003454804,True,30,-,-,-
Y2-S2-268M21,1,9,PS,train,40,←,left,←,0.5838671000674367,True,30,-,-,-
Y2-S2-268M21,1,10,PS,train,46,→,right,→,0.6006442001089454,True,30,-,-,-
Y2-S2-268M21,2,11,AS,train,31,↑,up,↑,1.9899389995262027,True,45,-,-,-
Y2-S2-268M21,2,12,AS,train,29,←,left,←,0.6010154997929931,True,45,-,-,-
Y2-S2-268M21,2,13,AS,train,29,↑,up,↑,0.6180350007489324,True,45,-,-,-
Y2-S2-268M21,2,14,AS,train,36,←,up,↑,0.5012509003281593,False,45,-,-,-
Y2-S2-268M21,2,15,AS,train,34,↑,up,↑,0.5512012001127005,True,45,-,-,-
Y2-S2-268M21,2,16,AS,train,35,←,left,←,0.7841274999082088,True,45,-,-,-
Y2-S2-268M21,2,17,AS,train,38,↑,up,↑,0.6343021001666784,True,45,-,-,-
Y2-S2-268M21,2,18,AS,train,43,→,left,←,0.5674844002351165,False,45,-,-,-
Y2-S2-268M21,2,19,AS,train,50,↑,right,→,0.6515229996293783,False,45,-,-,-
Y2-S2-268M21,2,20,AS,train,42,↓,down,↓,0.9302382003515959,True,45,-,-,-
Y2-S2-268M21,-,21,PS,adaptive,41,←,left,←,0.7932887999340892,True,10,0,0,0
Y2-S2-268M21,-,22,PS,adaptive,41,↑,up,↑,1.6841861000284553,True,10,0,0,0
Y2-S2-268M21,-,23,PS,adaptive,36,→,right,→,0.5194359002634883,True,10,1,0,0
Y2-S2-268M21,-,24,PS,adaptive,44,↑,up,↑,0.7940787002444267,True,9,1,0,0
Y2-S2-268M21,-,25,PS,adaptive,37,↓,left,←,0.8730317000299692,False,9,-1,1,1
Y2-S2-268M21,-,26,PS,adaptive,30,↑,left,←,0.9677020004019141,False,10,-1,0,1
Y2-S2-268M21,-,27,PS,adaptive,37,↓,down,↓,0.9180516004562378,True,11,-1,0,1
Y2-S2-268M21,-,28,PS,adaptive,49,↑,up,↑,0.6125859003514051,True,11,-1,0,1
Y2-S2-268M21,-,29,PS,adaptive,31,←,right,→,0.8928551999852061,False,11,-1,0,1
Y2-S2-268M21,-,30,PS,adaptive,50,↑,up,↑,0.6935323001816869,True,12,-1,0,1
Y2-S2-268M21,-,31,PS,adaptive,45,↓,down,↓,1.0294896000996232,True,12,-1,0,1
Y2-S2-268M21,-,32,PS,adaptive,46,↑,right,→,1.0711887003853917,False,12,-1,0,1
Y2-S2-268M21,-,33,PS,adaptive,40,→,right,→,0.697354500181973,True,13,-1,0,1
Y2-S2-268M21,-,34,PS,adaptive,42,↑,up,↑,0.627623500302434,True,13,-1,0,1
Y2-S2-268M21,-,35,PS,adaptive,43,←,left,←,0.6759729003533721,True,13,1,1,2
Y2-S2-268M21,-,36,PS,adaptive,40,↑,right,→,0.6950203003361821,False,12,-1,1,3
Y2-S2-268M21,-,37,PS,adaptive,45,→,right,→,0.6937740994617343,True,13,-1,0,3
Y2-S2-268M21,-,38,PS,adaptive,33,↓,down,↓,0.8407139992341399,True,13,-1,0,3
Y2-S2-268M21,-,39,PS,adaptive,26,→,right,→,0.8828693004325032,True,13,1,1,4
Y2-S2-268M21,-,40,AS,adaptive,29,↓,down,↓,0.6747116008773446,True,20,0,0,0
Y2-S2-268M21,-,41,AS,adaptive,50,←,left,←,0.5801625000312924,True,20,0,0,0
Y2-S2-268M21,-,42,AS,adaptive,46,↑,up,↑,0.5694391001015902,True,20,1,0,0
Y2-S2-268M21,-,43,AS,adaptive,28,↓,down,↓,0.7746072001755238,True,19,1,0,0
Y2-S2-268M21,-,44,AS,adaptive,37,→,right,→,0.6096950992941856,True,19,1,0,0
Y2-S2-268M21,-,45,AS,adaptive,47,←,left,←,0.536679900251329,True,19,1,0,0
Y2-S2-268M21,-,46,AS,adaptive,29,↓,down,↓,0.6722339000552893,True,18,1,0,0
Y2-S2-268M21,-,47,AS,adaptive,50,←,left,←,0.6494005993008614,True,18,1,0,0
Y2-S2-268M21,-,48,AS,adaptive,37,→,right,→,0.5152736995369196,True,18,1,0,0
Y2-S2-268M21,-,49,AS,adaptive,26,↑,up,↑,0.721416600048542,True,17,1,0,0
Y2-S2-268M21,-,50,AS,adaptive,50,→,right,→,0.5817760992795229,True,17,1,0,0
Y2-S2-268M21,-,51,AS,adaptive,37,↑,up,↑,0.9174132999032736,True,17,1,0,0
Y2-S2-268M21,-,52,AS,adaptive,42,→,right,→,0.5618408005684614,True,16,1,0,0
Y2-S2-268M21,-,53,AS,adaptive,39,←,right,→,0.743563299998641,False,16,-1,1,1
Y2-S2-268M21,-,54,AS,adaptive,25,↓,up,↑,0.7155559994280338,False,17,-1,0,1
Y2-S2-268M21,-,55,AS,adaptive,28,↑,up,↑,0.6067026006057858,True,18,-1,0,1
Y2-S2-268M21,-,56,AS,adaptive,41,←,left,←,0.5508995000272989,True,18,-1,0,1
Y2-S2-268M21,-,57,AS,adaptive,41,↑,up,↑,0.5090872002765536,True,18,1,1,2
Y2-S2-268M21,-,58,AS,adaptive,35,→,right,→,0.48659890051931143,True,17,1,0,2
Y2-S2-268M21,-,59,AS,adaptive,30,↓,down,↓,0.7382516004145145,True,17,1,0,2
Y2-S2-268M21,-,60,AS,adaptive,32,→,right,→,0.4700904004275799,True,17,1,0,2
Y2-S2-268M21,-,61,AS,adaptive,48,←,right,→,0.5669475002214313,False,16,-1,1,3
Y2-S2-268M21,-,62,AS,adaptive,44,↓,left,←,0.6553670996800065,False,17,-1,0,3
Y2-S2-268M21,-,63,AS,adaptive,44,←,left,←,0.49969450011849403,True,18,-1,0,3
Y2-S2-268M21,-,64,AS,adaptive,35,↓,down,↓,0.7937166998162866,True,18,-1,0,3
Y2-S2-268M21,-,65,AS,adaptive,41,←,left,←,0.5526120997965336,True,18,1,1,4
Y2-S2-268M21,1,66,PS,intra_train,42,↓,down,↓,0.5591281000524759,True,18,-,-,-
Y2-S2-268M21,1,67,PS,intra_train,33,↑,up,↑,0.5957512995228171,True,18,-,-,-
Y2-S2-268M21,1,68,PS,intra_train,40,→,right,→,0.5866395002231002,True,18,-,-,-
Y2-S2-268M21,1,69,PS,intra_train,34,↑,up,↑,1.4231935003772378,True,18,-,-,-
Y2-S2-268M21,1,70,PS,intra_train,41,→,right,→,0.5799712995067239,True,18,-,-,-
Y2-S2-268M21,1,71,PS,exp,33,←,left,←,0.546722199767828,True,12,0,0,0
Y2-S2-268M21,1,72,PS,exp,35,↑,right,→,0.7999595003202558,False,12,-1,0,0
Y2-S2-268M21,1,73,PS,exp,40,↓,down,↓,0.7552332999184728,True,13,-1,0,0
Y2-S2-268M21,1,74,PS,exp,44,↑,up,↑,0.7010265998542309,True,13,-1,0,0
Y2-S2-268M21,1,75,PS,exp,36,←,left,←,0.6999981999397278,True,13,1,1,1
Y2-S2-268M21,1,76,PS,exp,46,→,right,→,1.1346587995067239,True,12,1,0,1
Y2-S2-268M21,1,77,PS,exp,46,↑,up,↑,0.5996663998812437,True,12,1,0,1
Y2-S2-268M21,1,78,PS,exp,40,↓,down,↓,0.741342599503696,True,12,1,0,1
Y2-S2-268M21,1,79,PS,exp,35,←,right,→,0.9237974993884563,False,11,-1,1,2
Y2-S2-268M21,1,80,PS,exp,34,→,right,→,0.5900191999971867,True,12,-1,0,2
Y2-S2-268M21,1,81,PS,exp,48,↑,up,↑,0.5669180992990732,True,12,-1,0,2
Y2-S2-268M21,1,82,PS,exp,42,↓,up,↑,0.5623407000675797,False,12,-1,0,2
Y2-S2-268M21,1,83,PS,exp,37,→,right,→,0.6478040004149079,True,13,-1,0,2
Y2-S2-268M21,1,84,PS,exp,39,←,left,←,0.465344300493598,True,13,-1,0,2
Y2-S2-268M21,1,85,PS,exp,41,→,right,→,0.4233768004924059,True,13,1,1,3
Y2-S2-268M21,1,86,PS,exp,37,↑,right,→,0.7299512000754476,False,12,-1,1,4
Y2-S2-268M21,1,87,PS,exp,31,←,left,←,0.5270854998379946,True,13,-1,0,4
Y2-S2-268M21,1,88,PS,exp,41,↓,down,↓,0.7042768998071551,True,13,-1,0,4
Y2-S2-268M21,1,89,PS,exp,37,←,left,←,0.552568300627172,True,13,1,1,5
Y2-S2-268M21,1,90,PS,exp,42,↓,down,↓,0.665862800553441,True,12,1,0,5
Y2-S2-268M21,1,91,PS,exp,47,↑,down,↓,0.9613888999447227,False,12,-1,1,6
Y2-S2-268M21,1,92,PS,exp,31,→,right,→,0.4572382001206279,True,13,-1,0,6
Y2-S2-268M21,1,93,PS,exp,40,↑,up,↑,0.6313175996765494,True,13,-1,0,6
Y2-S2-268M21,1,94,PS,exp,40,↓,down,↓,0.7118565002456307,True,13,1,1,7
Y2-S2-268M21,1,95,PS,exp,26,←,left,←,0.5878203995525837,True,12,1,0,7
Y2-S2-268M21,1,96,PS,exp,42,↓,down,↓,0.6497333999723196,True,12,1,0,7
Y2-S2-268M21,1,97,PS,exp,45,←,left,←,0.6212374996393919,True,12,1,0,7
Y2-S2-268M21,1,98,PS,exp,49,↑,up,↑,0.6731821000576019,True,11,1,0,7
Y2-S2-268M21,1,99,PS,exp,31,↓,down,↓,0.9929043995216489,True,11,1,0,7
Y2-S2-268M21,1,100,PS,exp,31,→,right,→,0.5366310998797417,True,11,1,0,7
Y2-S2-268M21,1,101,PS,exp,37,↓,up,↑,0.6233362006023526,False,10,-1,1,8
Y2-S2-268M21,1,102,PS,exp,27,↑,up,↑,0.5227808998897672,True,11,-1,0,8
Y2-S2-268M21,1,103,PS,exp,40,↓,up,↑,1.1172031993046403,False,11,-1,0,8
Y2-S2-268M21,1,104,PS,exp,35,→,right,→,0.5044807996600866,True,12,-1,0,8
Y2-S2-268M21,1,105,PS,exp,48,←,left,←,0.4491698993369937,True,12,-1,0,8
Y2-S2-268M21,1,106,PS,exp,40,↓,down,↓,0.5688197994604707,True,12,1,1,9
Y2-S2-268M21,1,107,PS,exp,49,←,left,←,0.467947400175035,True,11,1,0,9
Y2-S2-268M21,1,108,PS,exp,28,↓,down,↓,0.6614611996337771,True,11,1,0,9
Y2-S2-268M21,1,109,PS,exp,26,↑,up,↑,0.6451011998578906,True,11,1,0,9
Y2-S2-268M21,1,110,PS,exp,38,↓,down,↓,0.6770358001813293,True,10,1,0,9
Y2-S2-268M21,1,111,PS,exp,50,→,right,→,0.5058460999280214,True,10,1,0,9
Y2-S2-268M21,1,112,PS,exp,46,←,down,↓,0.7449131002649665,False,10,-1,1,10
Y2-S2-268M21,1,113,PS,exp,45,↓,down,↓,0.7314777001738548,True,11,-1,0,10
Y2-S2-268M21,1,114,PS,exp,38,←,left,←,1.0086508998647332,True,11,-1,0,10
Y2-S2-268M21,1,115,PS,exp,41,→,right,→,0.5748039996251464,True,11,1,1,11
Y2-S2-268M21,1,116,PS,exp,36,↑,down,↓,0.8082980001345277,False,10,-1,1,12
Y2-S2-268M21,1,117,PS,exp,43,←,left,←,0.6163248997181654,True,11,-1,0,12
Y2-S2-268M21,1,118,PS,exp,43,↑,up,↑,0.5158476997166872,True,11,-1,0,12
Y2-S2-268M21,1,119,PS,exp,33,↓,up,↑,1.2458332004025578,False,11,-1,0,12
Y2-S2-268M21,1,120,PS,exp,29,→,right,→,0.6255406998097897,True,12,-1,0,12
Y2-S2-268M21,1,121,PS,exp,37,↓,down,↓,0.7666189996525645,True,12,-1,0,12
Y2-S2-268M21,1,122,PS,exp,40,→,right,→,0.48548240028321743,True,12,1,1,13
Y2-S2-268M21,1,123,PS,exp,37,↓,down,↓,0.654839500784874,True,11,1,0,13
Y2-S2-268M21,1,124,PS,exp,29,←,right,→,0.6356269000098109,False,11,-1,1,14
Y2-S2-268M21,1,125,PS,exp,31,→,right,→,0.7843687999993563,True,12,-1,0,14
Y2-S2-268M21,1,126,PS,exp,42,↓,down,↓,0.5993086006492376,True,12,-1,0,14
Y2-S2-268M21,1,127,PS,exp,40,←,right,→,0.4642597995698452,False,12,-1,0,14
Y2-S2-268M21,1,128,PS,exp,44,↓,down,↓,0.6613521995022893,True,13,-1,0,14
Y2-S2-268M21,1,129,PS,exp,30,→,right,→,0.565302100032568,True,13,-1,0,14
Y2-S2-268M21,1,130,PS,exp,26,↑,up,↑,0.6996987005695701,True,13,1,1,15
Y2-S2-268M21,1,131,PS,exp,35,←,left,←,0.516338499262929,True,12,1,0,15
Y2-S2-268M21,1,132,PS,exp,30,→,right,→,0.6127999993041158,True,12,1,0,15
Y2-S2-268M21,1,133,PS,exp,30,←,left,←,0.46218909975141287,True,12,1,0,15
Y2-S2-268M21,1,134,PS,exp,50,→,right,→,0.5054906997829676,True,11,1,0,15
Y2-S2-268M21,1,135,PS,exp,40,↑,up,↑,0.8763570999726653,True,11,1,0,15
Y2-S2-268M21,1,136,PS,exp,48,←,left,←,0.4519386999309063,True,11,1,0,15
Y2-S2-268M21,1,137,PS,exp,25,↑,up,↑,0.7082011997699738,True,10,1,0,15
Y2-S2-268M21,1,138,PS,exp,42,←,left,←,0.49426550045609474,True,10,1,0,15
Y2-S2-268M21,1,139,PS,exp,45,→,left,←,0.8058571005240083,False,10,-1,1,16
Y2-S2-268M21,2,140,AS,intra_train,32,↓,down,↓,0.5172073002904654,True,25,-,-,-
Y2-S2-268M21,2,141,AS,intra_train,41,←,left,←,0.6380877001211047,True,25,-,-,-
Y2-S2-268M21,2,142,AS,intra_train,40,→,right,→,0.5172374006360769,True,25,-,-,-
Y2-S2-268M21,2,143,AS,intra_train,43,↓,down,↓,0.8193978993222117,True,25,-,-,-
Y2-S2-268M21,2,144,AS,intra_train,33,→,right,→,0.5172326993197203,True,25,-,-,-
Y2-S2-268M21,2,145,AS,exp,46,↓,down,↓,0.6085400003939867,True,17,0,0,0
Y2-S2-268M21,2,146,AS,exp,33,→,right,→,0.8542226999998093,True,17,0,0,0
Y2-S2-268M21,2,147,AS,exp,31,←,left,←,0.6428012996912003,True,17,1,0,0
Y2-S2-268M21,2,148,AS,exp,43,→,right,→,0.6071907998993993,True,16,1,0,0
Y2-S2-268M21,2,149,AS,exp,47,←,left,←,0.6874676998704672,True,16,1,0,0
Y2-S2-268M21,2,150,AS,exp,47,→,right,→,0.6256211996078491,True,16,1,0,0
Y2-S2-268M21,2,151,AS,exp,43,↓,down,↓,0.666843700222671,True,15,1,0,0
Y2-S2-268M21,2,152,AS,exp,49,↑,down,↓,0.6353613007813692,False,15,-1,1,1
Y2-S2-268M21,2,153,AS,exp,47,←,left,←,0.4959317008033395,True,16,-1,0,1
Y2-S2-268M21,2,154,AS,exp,49,↑,up,↑,0.6936347000300884,True,16,-1,0,1
Y2-S2-268M21,2,155,AS,exp,32,←,left,←,0.5006531001999974,True,16,1,1,2
Y2-S2-268M21,2,156,AS,exp,46,→,right,→,0.4982626996934414,True,15,1,0,2
Y2-S2-268M21,2,157,AS,exp,37,←,left,←,0.6068527000024915,True,15,1,0,2
Y2-S2-268M21,2,158,AS,exp,35,↑,up,↑,0.6652434002608061,True,15,1,0,2
Y2-S2-268M21,2,159,AS,exp,32,←,left,←,0.5827371003106236,True,14,1,0,2
Y2-S2-268M21,2,160,AS,exp,42,→,right,→,0.4810738004744053,True,14,1,0,2
Y2-S2-268M21,2,161,AS,exp,49,↓,left,←,0.5269643003121018,False,14,-1,1,3
Y2-S2-268M21,2,162,AS,exp,35,→,left,←,0.8436150997877121,False,15,-1,0,3
Y2-S2-268M21,2,163,AS,exp,27,↑,up,↑,1.0293796993792057,True,16,-1,0,3
Y2-S2-268M21,2,164,AS,exp,27,←,left,←,0.5522406008094549,True,16,-1,0,3
Y2-S2-268M21,2,165,AS,exp,28,→,right,→,0.7315714992582798,True,16,1,1,4
Y2-S2-268M21,2,166,AS,exp,36,←,right,→,0.5303821992129087,False,15,-1,1,5
Y2-S2-268M21,2,167,AS,exp,41,↑,up,↑,0.6740307994186878,True,16,-1,0,5
Y2-S2-268M21,2,168,AS,exp,33,↓,down,↓,0.7474156003445387,True,16,-1,0,5
Y2-S2-268M21,2,169,AS,exp,46,↑,up,↑,0.6143868993967772,True,16,1,1,6
Y2-S2-268M21,2,170,AS,exp,48,→,right,→,0.544616399332881,True,15,1,0,6
Y2-S2-268M21,2,171,AS,exp,41,←,left,←,0.5593596994876862,True,15,1,0,6
Y2-S2-268M21,2,172,AS,exp,38,↑,up,↑,0.617914299480617,True,15,1,0,6
Y2-S2-268M21,2,173,AS,exp,37,←,up,↑,0.8024693001061678,False,14,-1,1,7
Y2-S2-268M21,2,174,AS,exp,48,→,up,↑,1.1077444003894925,False,15,-1,0,7
Y2-S2-268M21,2,175,AS,exp,40,←,left,←,0.6808819994330406,True,16,-1,0,7
Y2-S2-268M21,2,176,AS,exp,41,↓,down,↓,0.776999200694263,True,16,-1,0,7
Y2-S2-268M21,2,177,AS,exp,37,←,left,←,0.5800222996622324,True,16,1,1,8
Y2-S2-268M21,2,178,AS,exp,35,→,right,→,0.5473008994013071,True,15,1,0,8
Y2-S2-268M21,2,179,AS,exp,39,↓,down,↓,0.5809642998501658,True,15,1,0,8
Y2-S2-268M21,2,180,AS,exp,43,↑,up,↑,0.5942081995308399,True,15,1,0,8
Y2-S2-268M21,2,181,AS,exp,39,↓,up,↑,0.8922410001978278,False,14,-1,1,9
Y2-S2-268M21,2,182,AS,exp,47,→,right,→,0.5166138997301459,True,15,-1,0,9
Y2-S2-268M21,2,183,AS,exp,39,↓,down,↓,0.5835411008447409,True,15,-1,0,9
Y2-S2-268M21,2,184,AS,exp,44,→,right,→,0.5823178999125957,True,15,1,1,10
Y2-S2-268M21,2,185,AS,exp,33,←,right,→,0.7504276996478438,False,14,-1,1,11
Y2-S2-268M21,2,186,AS,exp,46,→,right,→,0.6651050001382828,True,15,-1,0,11
Y2-S2-268M21,2,187,AS,exp,32,↓,up,↑,1.0101666999980807,False,15,-1,0,11
Y2-S2-268M21,2,188,AS,exp,27,↑,up,↑,0.5636120997369289,True,16,-1,0,11
Y2-S2-268M21,2,189,AS,exp,37,←,left,←,0.6233257995918393,True,16,-1,0,11
Y2-S2-268M21,2,190,AS,exp,37,→,right,→,0.587809800170362,True,16,1,1,12
Y2-S2-268M21,2,191,AS,exp,30,↓,down,↓,0.6518760994076729,True,15,1,0,12
Y2-S2-268M21,2,192,AS,exp,46,↑,up,↑,0.5369533998891711,True,15,1,0,12
Y2-S2-268M21,2,193,AS,exp,31,↓,down,↓,0.6223103003576398,True,15,1,0,12
Y2-S2-268M21,2,194,AS,exp,32,→,right,→,0.5622605998069048,True,14,1,0,12
Y2-S2-268M21,2,195,AS,exp,42,↑,up,↑,0.5908923000097275,True,14,1,0,12
Y2-S2-268M21,2,196,AS,exp,43,→,right,→,0.7421361999586225,True,14,1,0,12
Y2-S2-268M21,2,197,AS,exp,33,←,right,→,0.803668400272727,False,13,-1,1,13
Y2-S2-268M21,2,198,AS,exp,32,→,right,→,0.5259079001843929,True,14,-1,0,13
Y2-S2-268M21,2,199,AS,exp,26,↓,down,↓,0.6067839004099369,True,14,-1,0,13
Y2-S2-268M21,2,200,AS,exp,37,←,right,→,0.7849201997742057,False,14,-1,0,13
Y2-S2-268M21,2,201,AS,exp,30,↑,up,↑,0.5359191000461578,True,15,-1,0,13
Y2-S2-268M21,2,202,AS,exp,36,→,right,→,0.7528313007205725,True,15,-1,0,13
Y2-S2-268M21,2,203,AS,exp,27,↑,up,↑,0.7802315996959805,True,15,1,1,14
Y2-S2-268M21,2,204,AS,exp,38,←,right,→,0.6518419999629259,False,14,-1,1,15
Y2-S2-268M21,2,205,AS,exp,44,↓,down,↓,0.910844499245286,True,15,-1,0,15
Y2-S2-268M21,2,206,AS,exp,42,↑,up,↑,0.9718261994421482,True,15,-1,0,15
Y2-S2-268M21,2,207,AS,exp,37,↓,down,↓,0.6653388002887368,True,15,1,1,16
Y2-S2-268M21,3,208,AS,intra_train,29,←,left,←,0.7396141001954675,True,25,-,-,-
Y2-S2-268M21,3,209,AS,intra_train,47,↑,up,↑,0.8777745999395847,True,25,-,-,-
Y2-S2-268M21,3,210,AS,intra_train,37,↓,down,↓,0.8979336004704237,True,25,-,-,-
Y2-S2-268M21,3,211,AS,intra_train,37,→,right,→,0.5503480993211269,True,25,-,-,-
Y2-S2-268M21,3,212,AS,intra_train,40,↓,left,←,0.45051119942218065,False,25,-,-,-
Y2-S2-268M21,3,213,AS,exp,39,←,left,←,0.5554887000471354,True,17,0,0,0
Y2-S2-268M21,3,214,AS,exp,40,↑,right,→,0.5907389996573329,False,17,-1,0,0
Y2-S2-268M21,3,215,AS,exp,36,→,right,→,0.5064019002020359,True,18,-1,0,0
Y2-S2-268M21,3,216,AS,exp,41,↓,down,↓,0.6778835002332926,True,18,-1,0,0
Y2-S2-268M21,3,217,AS,exp,28,←,left,←,0.7411979995667934,True,18,1,1,1
Y2-S2-268M21,3,218,AS,exp,29,→,right,→,0.5765780005604029,True,17,1,0,1
Y2-S2-268M21,3,219,AS,exp,38,↓,down,↓,0.6555418996140361,True,17,1,0,1
Y2-S2-268M21,3,220,AS,exp,42,←,no_key,no_letter,-1.0,False,17,-1,1,2
Y2-S2-268M21,3,221,AS,exp,50,↓,down,↓,0.5827755993232131,True,18,-1,0,2
Y2-S2-268M21,3,222,AS,exp,35,→,right,→,0.7161750998347998,True,18,-1,0,2
Y2-S2-268M21,3,223,AS,exp,47,↓,down,↓,0.6877599004656076,True,18,1,1,3
Y2-S2-268M21,3,224,AS,exp,41,←,right,→,0.7833484001457691,False,17,-1,1,4
Y2-S2-268M21,3,225,AS,exp,39,→,right,→,0.6930208001285791,True,18,-1,0,4
Y2-S2-268M21,3,226,AS,exp,33,↓,down,↓,0.6999666001647711,True,18,-1,0,4
Y2-S2-268M21,3,227,AS,exp,27,←,left,←,0.8204788994044065,True,18,1,1,5
Y2-S2-268M21,3,228,AS,exp,42,↑,up,↑,1.145562999881804,True,17,1,0,5
Y2-S2-268M21,3,229,AS,exp,48,↓,down,↓,0.7706920001655817,True,17,1,0,5
Y2-S2-268M21,3,230,AS,exp,27,←,left,←,0.6365168998017907,True,17,1,0,5
Y2-S2-268M21,3,231,AS,exp,31,↑,up,↑,0.7288013994693756,True,16,1,0,5
Y2-S2-268M21,3,232,AS,exp,33,↓,down,↓,0.7854263996705413,True,16,1,0,5
Y2-S2-268M21,3,233,AS,exp,31,→,right,→,0.7234757002443075,True,16,1,0,5
Y2-S2-268M21,3,234,AS,exp,26,←,right,→,0.8675115993246436,False,15,-1,1,6
Y2-S2-268M21,3,235,AS,exp,30,↑,up,↑,0.9107443001121283,True,16,-1,0,6
Y2-S2-268M21,3,236,AS,exp,45,←,left,←,0.6631397996097803,True,16,-1,0,6
Y2-S2-268M21,3,237,AS,exp,49,↑,left,←,0.6887542000040412,False,16,-1,0,6
Y2-S2-268M21,3,238,AS,exp,50,→,right,→,0.6627866001799703,True,17,-1,0,6
Y2-S2-268M21,3,239,AS,exp,41,↑,up,↑,0.9002724997699261,True,17,-1,0,6
Y2-S2-268M21,3,240,AS,exp,33,↓,up,↑,1.3338027000427246,False,17,-1,0,6
Y2-S2-268M21,3,241,AS,exp,42,←,down,↓,1.666283399797976,False,18,-1,0,6
Y2-S2-268M21,3,242,AS,exp,41,→,right,→,0.6772010000422597,True,19,-1,0,6
Y2-S2-268M21,3,243,AS,exp,36,↑,up,↑,0.7067194003611803,True,19,-1,0,6
Y2-S2-268M21,3,244,AS,exp,38,←,left,←,0.8131448002532125,True,19,1,1,7
Y2-S2-268M21,3,245,AS,exp,36,↑,up,↑,0.7304352996870875,True,18,1,0,7
Y2-S2-268M21,3,246,AS,exp,41,↓,down,↓,0.8674534996971488,True,18,1,0,7
Y2-S2-268M21,3,247,AS,exp,25,→,right,→,0.7355497004464269,True,18,1,0,7
Y2-S2-268M21,3,248,AS,exp,30,↓,down,↓,0.7804560996592045,True,17,1,0,7
Y2-S2-268M21,3,249,AS,exp,28,→,right,→,0.5279923994094133,True,17,1,0,7
Y2-S2-268M21,3,250,AS,exp,41,↓,up,↑,0.8743284996598959,False,17,-1,1,8
Y2-S2-268M21,3,251,AS,exp,47,←,right,→,0.8866119999438524,False,18,-1,0,8
Y2-S2-268M21,3,252,AS,exp,25,→,right,→,0.6585833001881838,True,19,-1,0,8
Y2-S2-268M21,3,253,AS,exp,46,↓,right,→,1.6698853997513652,False,19,-1,0,8
Y2-S2-268M21,3,254,AS,exp,39,↑,up,↑,0.7174912998452783,True,20,-1,0,8
Y2-S2-268M21,3,255,AS,exp,36,↓,up,↑,1.001175300218165,False,20,-1,0,8
Y2-S2-268M21,3,256,AS,exp,25,→,right,→,0.7819005995988846,True,21,-1,0,8
Y2-S2-268M21,3,257,AS,exp,37,↓,down,↓,0.9722733004018664,True,21,-1,0,8
Y2-S2-268M21,3,258,AS,exp,31,→,right,→,0.6582627994939685,True,21,1,1,9
Y2-S2-268M21,3,259,AS,exp,48,←,left,←,0.6957213999703526,True,20,1,0,9
Y2-S2-268M21,3,260,AS,exp,38,↑,up,↑,0.8017402999103069,True,20,1,0,9
Y2-S2-268M21,3,261,AS,exp,39,↓,left,←,1.4211768005043268,False,20,-1,1,10
Y2-S2-268M21,3,262,AS,exp,46,→,right,→,0.7214182000607252,True,21,-1,0,10
Y2-S2-268M21,3,263,AS,exp,47,↓,down,↓,0.7643050001934171,True,21,-1,0,10
Y2-S2-268M21,3,264,AS,exp,40,↑,right,→,1.6434158999472857,False,21,-1,0,10
Y2-S2-268M21,3,265,AS,exp,49,↓,down,↓,0.6511404998600483,True,22,-1,0,10
Y2-S2-268M21,3,266,AS,exp,40,←,left,←,0.7097589997574687,True,22,-1,0,10
Y2-S2-268M21,3,267,AS,exp,25,↑,down,↓,1.0502279000356793,False,22,-1,0,10
Y2-S2-268M21,3,268,AS,exp,33,←,left,←,0.6932964008301497,True,23,-1,0,10
Y2-S2-268M21,3,269,AS,exp,25,↑,up,↑,1.1007613996043801,True,23,-1,0,10
Y2-S2-268M21,3,270,AS,exp,46,→,right,→,0.7041754005476832,True,23,1,1,11
Y2-S2-268M21,3,271,AS,exp,26,↓,down,↓,1.1016147006303072,True,22,1,0,11
Y2-S2-268M21,3,272,AS,exp,33,←,down,↓,1.5245642997324467,False,22,-1,1,12
Y2-S2-268M21,3,273,AS,exp,38,↓,no_key,no_letter,-1.0,False,23,-1,0,12
Y2-S2-268M21,3,274,AS,exp,32,↑,left,←,0.7483316995203495,False,24,-1,0,12
Y2-S2-268M21,3,275,AS,exp,34,→,right,→,0.6770402006804943,True,25,-1,0,12
Y2-S2-268M21,3,276,AS,exp,37,←,left,←,0.643554300069809,True,25,-1,0,12
Y2-S2-268M21,3,277,AS,exp,49,↑,up,↑,0.864283699542284,True,25,1,1,13
Y2-S2-268M21,3,278,AS,exp,26,←,left,←,0.5808055000379682,True,24,1,0,13
Y2-S2-268M21,3,279,AS,exp,26,↑,up,↑,0.5836440995335579,True,24,1,0,13
Y2-S2-268M21,3,280,AS,exp,28,↓,down,↓,0.7531456993892789,True,24,1,0,13
Y2-S2-268M21,3,281,AS,exp,41,←,left,←,0.6945777991786599,True,23,1,0,13
Y2-S2-268M21,3,282,AS,exp,31,↑,left,←,0.5776680000126362,False,23,-1,1,14
Y2-S2-268M21,3,283,AS,exp,30,↓,down,↓,0.9221615996211767,True,24,-1,0,14
Y2-S2-268M21,3,284,AS,exp,36,→,up,↑,1.6227009007707238,False,24,-1,0,14
Y2-S2-268M21,3,285,AS,exp,29,↑,up,↑,0.7142000999301672,True,25,-1,0,14
Y2-S2-268M21,3,286,AS,exp,41,↓,down,↓,0.7411647001281381,True,25,-1,0,14
Y2-S2-268M21,3,287,AS,exp,34,→,right,→,0.6757972007617354,True,25,1,1,15
Y2-S2-268M21,3,288,AS,exp,39,↓,up,↑,1.0180548997595906,False,24,-1,1,16
Y2-S2-268M21,4,289,PS,intra_train,43,←,left,←,0.685173200443387,True,18,-,-,-
Y2-S2-268M21,4,290,PS,intra_train,45,↓,up,↑,0.48848200030624866,False,18,-,-,-
Y2-S2-268M21,4,291,PS,intra_train,49,↑,up,↑,0.6693920996040106,True,18,-,-,-
Y2-S2-268M21,4,292,PS,intra_train,48,↓,down,↓,0.578660499304533,True,18,-,-,-
Y2-S2-268M21,4,293,PS,intra_train,36,↑,up,↑,0.6817082995548844,True,18,-,-,-
Y2-S2-268M21,4,294,PS,exp,45,↓,down,↓,0.6597154997289181,True,12,0,0,0
Y2-S2-268M21,4,295,PS,exp,46,↑,up,↑,0.6072238003835082,True,12,0,0,0
Y2-S2-268M21,4,296,PS,exp,33,→,left,←,0.571437300182879,False,12,-1,0,0
Y2-S2-268M21,4,297,PS,exp,42,←,left,←,0.6396900992840528,True,13,-1,0,0
Y2-S2-268M21,4,298,PS,exp,30,↑,up,↑,0.6366683999076486,True,13,-1,0,0
Y2-S2-268M21,4,299,PS,exp,50,↓,down,↓,0.8279038006439805,True,13,1,1,1
Y2-S2-268M21,4,300,PS,exp,47,↑,right,→,0.8085626000538468,False,12,-1,1,2
Y2-S2-268M21,4,301,PS,exp,41,←,left,←,0.5767421005293727,True,13,-1,0,2
Y2-S2-268M21,4,302,PS,exp,48,↓,down,↓,0.5958356996998191,True,13,-1,0,2
Y2-S2-268M21,4,303,PS,exp,31,←,right,→,0.8359046000987291,False,13,-1,0,2
Y2-S2-268M21,4,304,PS,exp,29,↑,up,↑,0.708695599809289,True,14,-1,0,2
Y2-S2-268M21,4,305,PS,exp,44,→,right,→,0.626387900672853,True,14,-1,0,2
Y2-S2-268M21,4,306,PS,exp,39,↑,left,←,1.1010378003120422,False,14,-1,0,2
Y2-S2-268M21,4,307,PS,exp,43,←,left,←,0.6180917005985975,True,15,-1,0,2
Y2-S2-268M21,4,308,PS,exp,29,↓,down,↓,1.0414783004671335,True,15,-1,0,2
Y2-S2-268M21,4,309,PS,exp,26,↑,up,↑,0.85880639962852,True,15,1,1,3
Y2-S2-268M21,4,310,PS,exp,47,↓,up,↑,1.1753342999145389,False,14,-1,1,4
Y2-S2-268M21,4,311,PS,exp,28,→,right,→,0.691384400241077,True,15,-1,0,4
Y2-S2-268M21,4,312,PS,exp,30,↓,up,↑,0.7669186992570758,False,15,-1,0,4
Y2-S2-268M21,4,313,PS,exp,49,↑,up,↑,0.6210180995985866,True,16,-1,0,4
Y2-S2-268M21,4,314,PS,exp,36,→,right,→,0.7337788008153439,True,16,-1,0,4
Y2-S2-268M21,4,315,PS,exp,49,↑,up,↑,0.5707265995442867,True,16,1,1,5
Y2-S2-268M21,4,316,PS,exp,28,↓,up,↑,0.8802493000403047,False,15,-1,1,6
Y2-S2-268M21,4,317,PS,exp,49,→,left,←,1.151574899442494,False,16,-1,0,6
Y2-S2-268M21,4,318,PS,exp,30,↑,up,↑,0.7330541992560029,True,17,-1,0,6
Y2-S2-268M21,4,319,PS,exp,37,→,right,→,0.6964827002957463,True,17,-1,0,6
Y2-S2-268M21,4,320,PS,exp,33,←,no_key,no_letter,-1.0,False,17,-1,0,6
Y2-S2-268M21,4,321,PS,exp,49,↑,up,↑,0.773352699354291,True,18,-1,0,6
Y2-S2-268M21,4,322,PS,exp,29,→,right,→,0.6065834006294608,True,18,-1,0,6
Y2-S2-268M21,4,323,PS,exp,46,↓,down,↓,0.6901847003027797,True,18,1,1,7
Y2-S2-268M21,4,324,PS,exp,35,←,left,←,0.5153296999633312,True,17,1,0,7
Y2-S2-268M21,4,325,PS,exp,39,→,up,↑,0.3505301997065544,False,17,-1,1,8
Y2-S2-268M21,4,326,PS,exp,27,↑,up,↑,0.7378829000517726,True,18,-1,0,8
Y2-S2-268M21,4,327,PS,exp,48,↓,down,↓,0.8440290996804833,True,18,-1,0,8
Y2-S2-268M21,4,328,PS,exp,38,←,up,↑,0.31706840079277754,False,18,-1,0,8
Y2-S2-268M21,4,329,PS,exp,35,↓,down,↓,0.788608000613749,True,19,-1,0,8
Y2-S2-268M21,4,330,PS,exp,41,→,right,→,0.43361750058829784,True,19,-1,0,8
Y2-S2-268M21,4,331,PS,exp,43,↓,down,↓,0.7802683003246784,True,19,1,1,9
Y2-S2-268M21,4,332,PS,exp,30,↑,up,↑,0.6403660997748375,True,18,1,0,9
Y2-S2-268M21,4,333,PS,exp,37,←,left,←,0.7222096994519234,True,18,1,0,9
Y2-S2-268M21,4,334,PS,exp,26,→,right,→,1.0099031003192067,True,18,1,0,9
Y2-S2-268M21,4,335,PS,exp,32,↑,right,→,1.2168707996606827,False,17,-1,1,10
Y2-S2-268M21,4,336,PS,exp,48,→,right,→,0.8757167998701334,True,18,-1,0,10
Y2-S2-268M21,4,337,PS,exp,48,↑,up,↑,0.6402061004191637,True,18,-1,0,10
Y2-S2-268M21,4,338,PS,exp,29,→,left,←,0.7647069999948144,False,18,-1,0,10
Y2-S2-268M21,4,339,PS,exp,36,↓,down,↓,0.6149346996098757,True,19,-1,0,10
Y2-S2-268M21,4,340,PS,exp,30,←,left,←,0.8312187995761633,True,19,-1,0,10
Y2-S2-268M21,4,341,PS,exp,27,→,right,→,0.5759416008368134,True,19,1,1,11
Y2-S2-268M21,4,342,PS,exp,28,↑,up,↑,0.6610302999615669,True,18,1,0,11
Y2-S2-268M21,4,343,PS,exp,48,→,right,→,0.6961545003578067,True,18,1,0,11
Y2-S2-268M21,4,344,PS,exp,34,↑,right,→,1.0417948001995683,False,18,-1,1,12
Y2-S2-268M21,4,345,PS,exp,44,→,right,→,0.5193502996116877,True,19,-1,0,12
Y2-S2-268M21,4,346,PS,exp,28,↓,down,↓,0.5843056002631783,True,19,-1,0,12
Y2-S2-268M21,4,347,PS,exp,47,←,no_key,no_letter,-1.0,False,19,-1,0,12
Y2-S2-268M21,4,348,PS,exp,47,↑,up,↑,0.7882637996226549,True,20,-1,0,12
Y2-S2-268M21,4,349,PS,exp,41,→,right,→,0.7160384999588132,True,20,-1,0,12
Y2-S2-268M21,4,350,PS,exp,31,↑,up,↑,1.367201100103557,True,20,1,1,13
Y2-S2-268M21,4,351,PS,exp,41,↓,up,↑,1.644943899475038,False,19,-1,1,14
Y2-S2-268M21,4,352,PS,exp,39,↑,up,↑,0.5633873995393515,True,20,-1,0,14
Y2-S2-268M21,4,353,PS,exp,50,→,no_key,no_letter,-1.0,False,20,-1,0,14
Y2-S2-268M21,4,354,PS,exp,43,↑,up,↑,0.5420802002772689,True,21,-1,0,14
Y2-S2-268M21,4,355,PS,exp,37,↓,down,↓,0.7131653996184468,True,21,-1,0,14
Y2-S2-268M21,4,356,PS,exp,39,→,right,→,0.6086504003033042,True,21,1,1,15
Y2-S2-268M21,4,357,PS,exp,30,↓,down,↓,0.7864800002425909,True,20,1,0,15
Y2-S2-268M21,4,358,PS,exp,28,←,down,↓,0.7071444997563958,False,20,-1,1,16
Y2-S2-268M21,5,359,PS,intra_train,34,↑,up,↑,1.3243078999221325,True,18,-,-,-
Y2-S2-268M21,5,360,PS,intra_train,34,←,left,←,0.4763870006427169,True,18,-,-,-
Y2-S2-268M21,5,361,PS,intra_train,48,↑,up,↑,0.49386149924248457,True,18,-,-,-
Y2-S2-268M21,5,362,PS,intra_train,32,←,left,←,0.4338935995474458,True,18,-,-,-
Y2-S2-268M21,5,363,PS,intra_train,40,↑,up,↑,0.41701299976557493,True,18,-,-,-
Y2-S2-268M21,5,364,PS,exp,29,↓,down,↓,0.677178599871695,True,12,0,0,0
Y2-S2-268M21,5,365,PS,exp,34,→,left,←,0.5597841003909707,False,12,-1,0,0
Y2-S2-268M21,5,366,PS,exp,31,←,left,←,0.6963243996724486,True,13,-1,0,0
Y2-S2-268M21,5,367,PS,exp,33,↓,down,↓,0.7407499998807907,True,13,-1,0,0
Y2-S2-268M21,5,368,PS,exp,25,←,left,←,0.7118513006716967,True,13,1,1,1
Y2-S2-268M21,5,369,PS,exp,41,→,right,→,0.43474269937723875,True,12,1,0,1
Y2-S2-268M21,5,370,PS,exp,27,↓,left,←,0.8772665001451969,False,12,-1,1,2
Y2-S2-268M21,5,371,PS,exp,36,←,left,←,0.448415600694716,True,13,-1,0,2
Y2-S2-268M21,5,372,PS,exp,39,→,right,→,0.5398971000686288,True,13,-1,0,2
Y2-S2-268M21,5,373,PS,exp,50,←,left,←,0.5787559999153018,True,13,1,1,3
Y2-S2-268M21,5,374,PS,exp,34,↓,down,↓,0.8787358999252319,True,12,1,0,3
Y2-S2-268M21,5,375,PS,exp,38,↑,up,↑,0.5385038005188107,True,12,1,0,3
Y2-S2-268M21,5,376,PS,exp,49,↓,down,↓,0.5549742998555303,True,12,1,0,3
Y2-S2-268M21,5,377,PS,exp,47,→,right,→,0.5247061001136899,True,11,1,0,3
Y2-S2-268M21,5,378,PS,exp,36,←,left,←,0.6063859993591905,True,11,1,0,3
Y2-S2-268M21,5,379,PS,exp,36,↓,down,↓,0.7205477999523282,True,11,1,0,3
Y2-S2-268M21,5,380,PS,exp,26,→,left,←,0.7110248999670148,False,10,-1,1,4
Y2-S2-268M21,5,381,PS,exp,37,←,left,←,0.6668742997571826,True,11,-1,0,4
Y2-S2-268M21,5,382,PS,exp,30,→,right,→,0.6022458001971245,True,11,-1,0,4
Y2-S2-268M21,5,383,PS,exp,45,←,left,←,0.6561843995004892,True,11,1,1,5
Y2-S2-268M21,5,384,PS,exp,49,↓,right,→,0.6934944000095129,False,10,-1,1,6
Y2-S2-268M21,5,385,PS,exp,36,→,right,→,0.6054501999169588,True,11,-1,0,6
Y2-S2-268M21,5,386,PS,exp,48,←,left,←,0.4597680000588298,True,11,-1,0,6
Y2-S2-268M21,5,387,PS,exp,30,→,right,→,0.5911814998835325,True,11,1,1,7
Y2-S2-268M21,5,388,PS,exp,33,←,left,←,0.5217618998140097,True,10,1,0,7
Y2-S2-268M21,5,389,PS,exp,36,↓,right,→,0.7137980991974473,False,10,-1,1,8
Y2-S2-268M21,5,390,PS,exp,27,→,right,→,0.5223592994734645,True,11,-1,0,8
Y2-S2-268M21,5,391,PS,exp,30,←,left,←,0.4733930993825197,True,11,-1,0,8
Y2-S2-268M21,5,392,PS,exp,40,→,right,→,0.5507354000583291,True,11,1,1,9
Y2-S2-268M21,5,393,PS,exp,36,↑,right,→,1.1479692999273539,False,10,-1,1,10
Y2-S2-268M21,5,394,PS,exp,33,←,right,→,0.7009157994762063,False,11,-1,0,10
Y2-S2-268M21,5,395,PS,exp,48,↑,up,↑,0.729424599558115,True,12,-1,0,10
Y2-S2-268M21,5,396,PS,exp,31,←,left,←,0.5773670999333262,True,12,-1,0,10
Y2-S2-268M21,5,397,PS,exp,41,→,right,→,0.5094213001430035,True,12,1,1,11
Y2-S2-268M21,5,398,PS,exp,50,↑,up,↑,0.604997199960053,True,11,1,0,11
Y2-S2-268M21,5,399,PS,exp,45,←,left,←,0.47242380026727915,True,11,1,0,11
Y2-S2-268M21,5,400,PS,exp,34,→,right,→,0.5352015998214483,True,11,1,0,11
Y2-S2-268M21,5,401,PS,exp,26,←,left,←,0.635376900434494,True,10,1,0,11
Y2-S2-268M21,5,402,PS,exp,27,↑,up,↑,0.5561032993718982,True,10,1,0,11
Y2-S2-268M21,5,403,PS,exp,36,→,right,→,0.4757677000015974,True,10,1,0,11
Y2-S2-268M21,5,404,PS,exp,43,↓,right,→,0.6315378993749619,False,9,-1,1,12
Y2-S2-268M21,5,405,PS,exp,33,←,left,←,0.4635421996936202,True,10,-1,0,12
Y2-S2-268M21,5,406,PS,exp,33,↑,up,↑,0.45872619934380054,True,10,-1,0,12
Y2-S2-268M21,5,407,PS,exp,39,←,left,←,0.5412932997569442,True,10,1,1,13
Y2-S2-268M21,5,408,PS,exp,29,↓,down,↓,0.6159950001165271,True,9,1,0,13
Y2-S2-268M21,5,409,PS,exp,49,↑,up,↑,0.4973149998113513,True,9,1,0,13
Y2-S2-268M21,5,410,PS,exp,32,↓,right,→,0.6283072996884584,False,9,-1,1,14
Y2-S2-268M21,5,411,PS,exp,43,→,right,→,0.4330722000449896,True,10,-1,0,14
Y2-S2-268M21,5,412,PS,exp,50,←,left,←,0.47145670000463724,True,10,-1,0,14
Y2-S2-268M21,5,413,PS,exp,48,→,right,→,0.4768609004095197,True,10,1,1,15
Y2-S2-268M21,5,414,PS,exp,32,↑,right,→,0.5967028997838497,False,9,-1,1,16
Y2-S2-268M21,6,415,AS,intra_train,32,→,right,→,0.5508101992309093,True,25,-,-,-
Y2-S2-268M21,6,416,AS,intra_train,39,←,right,→,0.517344300635159,False,25,-,-,-
Y2-S2-268M21,6,417,AS,intra_train,49,→,left,←,0.46735330019146204,False,25,-,-,-
Y2-S2-268M21,6,418,AS,intra_train,26,←,left,←,0.5942152999341488,True,25,-,-,-
Y2-S2-268M21,6,419,AS,intra_train,27,↑,up,↑,0.7176271993666887,True,25,-,-,-
Y2-S2-268M21,6,420,AS,exp,47,→,left,←,0.5060114003717899,False,17,-1,0,0
Y2-S2-268M21,6,421,AS,exp,35,↓,down,↓,0.7982561998069286,True,18,-1,0,0
Y2-S2-268M21,6,422,AS,exp,44,←,left,←,0.5448508998379111,True,18,-1,0,0
Y2-S2-268M21,6,423,AS,exp,31,↑,up,↑,0.6395757999271154,True,18,1,1,1
Y2-S2-268M21,6,424,AS,exp,35,→,right,→,0.514592700637877,True,17,1,0,1
Y2-S2-268M21,6,425,AS,exp,48,↑,up,↑,0.6121621998026967,True,17,1,0,1
Y2-S2-268M21,6,426,AS,exp,38,←,left,←,0.5133466999977827,True,17,1,0,1
Y2-S2-268M21,6,427,AS,exp,35,→,left,←,0.7517922995612025,False,16,-1,1,2
Y2-S2-268M21,6,428,AS,exp,37,↑,up,↑,0.6686284001916647,True,17,-1,0,2
Y2-S2-268M21,6,429,AS,exp,41,←,left,←,0.5660082995891571,True,17,-1,0,2
Y2-S2-268M21,6,430,AS,exp,29,↓,down,↓,0.7204452995210886,True,17,1,1,3
Y2-S2-268M21,6,431,AS,exp,36,↑,up,↑,0.7308057006448507,True,16,1,0,3
Y2-S2-268M21,6,432,AS,exp,31,→,right,→,0.508101200684905,True,16,1,0,3
Y2-S2-268M21,6,433,AS,exp,29,←,left,←,0.5894141998142004,True,16,1,0,3
Y2-S2-268M21,6,434,AS,exp,34,→,right,→,0.6321251997724175,True,15,1,0,3
Y2-S2-268M21,6,435,AS,exp,32,←,left,←,0.4907804001122713,True,15,1,0,3
Y2-S2-268M21,6,436,AS,exp,45,↑,up,↑,0.6216456005349755,True,15,1,0,3
Y2-S2-268M21,6,437,AS,exp,40,→,up,↑,0.7570251002907753,False,14,-1,1,4
Y2-S2-268M21,6,438,AS,exp,50,↓,down,↓,0.5546947997063398,True,15,-1,0,4
Y2-S2-268M21,6,439,AS,exp,29,←,left,←,0.4628554992377758,True,15,-1,0,4
Y2-S2-268M21,6,440,AS,exp,34,↑,up,↑,0.6379709001630545,True,15,1,1,5
Y2-S2-268M21,6,441,AS,exp,39,←,left,←,0.47497169952839613,True,14,1,0,5
Y2-S2-268M21,6,442,AS,exp,37,↓,down,↓,0.6435895999893546,True,14,1,0,5
Y2-S2-268M21,6,443,AS,exp,37,→,right,→,0.5524641005322337,True,14,1,0,5
Y2-S2-268M21,6,444,AS,exp,32,↓,down,↓,0.7682127999141812,True,13,1,0,5
Y2-S2-268M21,6,445,AS,exp,46,→,right,→,0.5500057004392147,True,13,1,0,5
Y2-S2-268M21,6,446,AS,exp,42,↓,down,↓,0.6496074004098773,True,13,1,0,5
Y2-S2-268M21,6,447,AS,exp,27,↑,up,↑,0.6497786995023489,True,12,1,0,5
Y2-S2-268M21,6,448,AS,exp,34,←,left,←,0.5366660999134183,True,12,1,0,5
Y2-S2-268M21,6,449,AS,exp,47,↓,up,↑,1.0617337003350258,False,12,-1,1,6
Y2-S2-268M21,6,450,AS,exp,28,←,right,→,0.633088800124824,False,13,-1,0,6
Y2-S2-268M21,6,451,AS,exp,29,↓,down,↓,1.202874499373138,True,14,-1,0,6
Y2-S2-268M21,6,452,AS,exp,30,↑,up,↑,0.6177609004080296,True,14,-1,0,6
Y2-S2-268M21,6,453,AS,exp,32,→,right,→,0.585805400274694,True,14,1,1,7
Y2-S2-268M21,6,454,AS,exp,39,←,right,→,0.6688315002247691,False,13,-1,1,8
Y2-S2-268M21,6,455,AS,exp,47,↑,up,↑,0.7992599997669458,True,14,-1,0,8
Y2-S2-268M21,6,456,AS,exp,26,←,left,←,0.5384288001805544,True,14,-1,0,8
Y2-S2-268M21,6,457,AS,exp,30,↓,up,↑,0.6049652993679047,False,14,-1,0,8
Y2-S2-268M21,6,458,AS,exp,27,↑,up,↑,0.5901870001107454,True,15,-1,0,8
Y2-S2-268M21,6,459,AS,exp,50,↓,up,↑,0.6439951006323099,False,15,-1,0,8
Y2-S2-268M21,6,460,AS,exp,33,→,right,→,0.5836648000404239,True,16,-1,0,8
Y2-S2-268M21,6,461,AS,exp,43,↓,up,↑,0.49442469980567694,False,16,-1,0,8
Y2-S2-268M21,6,462,AS,exp,49,→,right,→,0.656793300062418,True,17,-1,0,8
Y2-S2-268M21,6,463,AS,exp,25,←,left,←,0.581534399650991,True,17,-1,0,8
Y2-S2-268M21,6,464,AS,exp,32,→,right,→,0.5120202004909515,True,17,1,1,9
Y2-S2-268M21,6,465,AS,exp,41,←,left,←,0.5576906995847821,True,16,1,0,9
Y2-S2-268M21,6,466,AS,exp,36,→,right,→,0.5789783000946045,True,16,1,0,9
Y2-S2-268M21,6,467,AS,exp,33,↑,up,↑,0.5905344998463988,True,16,1,0,9
Y2-S2-268M21,6,468,AS,exp,35,↓,up,↑,0.780354899354279,False,15,-1,1,10
Y2-S2-268M21,6,469,AS,exp,46,→,right,→,0.5044246995821595,True,16,-1,0,10
Y2-S2-268M21,6,470,AS,exp,40,←,up,↑,0.9052431005984545,False,16,-1,0,10
Y2-S2-268M21,6,471,AS,exp,44,↑,up,↑,0.5113557996228337,True,17,-1,0,10
Y2-S2-268M21,6,472,AS,exp,42,→,right,→,0.47229620069265366,True,17,-1,0,10
Y2-S2-268M21,6,473,AS,exp,37,↑,up,↑,0.6703567998483777,True,17,1,1,11
Y2-S2-268M21,6,474,AS,exp,25,↓,down,↓,0.6215409999713302,True,16,1,0,11
Y2-S2-268M21,6,475,AS,exp,35,↑,up,↑,0.49307060055434704,True,16,1,0,11
Y2-S2-268M21,6,476,AS,exp,45,↓,down,↓,0.598824200220406,True,16,1,0,11
Y2-S2-268M21,6,477,AS,exp,28,↑,up,↑,0.6295197997242212,True,15,1,0,11
Y2-S2-268M21,6,478,AS,exp,42,←,left,←,0.6225736998021603,True,15,1,0,11
Y2-S2-268M21,6,479,AS,exp,28,↑,up,↑,0.5217983005568385,True,15,1,0,11
Y2-S2-268M21,6,480,AS,exp,47,←,right,→,0.5149705000221729,False,14,-1,1,12
Y2-S2-268M21,6,481,AS,exp,39,↓,down,↓,0.5522154998034239,True,15,-1,0,12
Y2-S2-268M21,6,482,AS,exp,49,←,left,←,0.5441441992297769,True,15,-1,0,12
Y2-S2-268M21,6,483,AS,exp,34,↑,right,→,0.8463544994592667,False,15,-1,0,12
Y2-S2-268M21,6,484,AS,exp,33,↓,down,↓,0.5688481004908681,True,16,-1,0,12
Y2-S2-268M21,6,485,AS,exp,50,→,right,→,0.6320542003959417,True,16,-1,0,12
Y2-S2-268M21,6,486,AS,exp,39,↑,up,↑,0.5394855998456478,True,16,1,1,13
Y2-S2-268M21,6,487,AS,exp,38,→,right,→,0.5369961997494102,True,15,1,0,13
Y2-S2-268M21,6,488,AS,exp,49,↑,up,↑,0.5777805000543594,True,15,1,0,13
Y2-S2-268M21,6,489,AS,exp,35,↓,down,↓,0.7572806999087334,True,15,1,0,13
Y2-S2-268M21,6,490,AS,exp,50,↑,up,↑,0.6893978007137775,True,14,1,0,13
Y2-S2-268M21,6,491,AS,exp,49,←,right,→,0.6685686996206641,False,14,-1,1,14
Y2-S2-268M21,6,492,AS,exp,39,→,right,→,0.5523253995925188,True,15,-1,0,14
Y2-S2-268M21,6,493,AS,exp,29,←,left,←,0.49536020029336214,True,15,-1,0,14
Y2-S2-268M21,6,494,AS,exp,44,↓,down,↓,0.8390362001955509,True,15,1,1,15
Y2-S2-268M21,6,495,AS,exp,48,←,left,←,0.578668000176549,True,14,1,0,15
Y2-S2-268M21,6,496,AS,exp,26,↑,down,↓,0.995745999738574,False,14,-1,1,16
Y2-S2-268M21,7,497,AS,intra_train,32,↓,down,↓,0.6903045997023582,True,25,-,-,-
Y2-S2-268M21,7,498,AS,intra_train,35,↑,up,↑,0.7198556000366807,True,25,-,-,-
Y2-S2-268M21,7,499,AS,intra_train,27,↓,down,↓,0.8004610994830728,True,25,-,-,-
Y2-S2-268M21,7,500,AS,intra_train,27,↑,up,↑,0.8027142006903887,True,25,-,-,-
Y2-S2-268M21,7,501,AS,intra_train,28,↓,up,↑,0.46721170004457235,False,25,-,-,-
Y2-S2-268M21,7,502,AS,exp,35,←,left,←,0.5359041998162866,True,17,0,0,0
Y2-S2-268M21,7,503,AS,exp,27,↑,up,↑,0.6261173002421856,True,17,0,0,0
Y2-S2-268M21,7,504,AS,exp,48,←,left,←,0.483873700723052,True,17,1,0,0
Y2-S2-268M21,7,505,AS,exp,29,→,right,→,0.5358763001859188,True,16,1,0,0
Y2-S2-268M21,7,506,AS,exp,40,↓,down,↓,0.644794899970293,True,16,1,0,0
Y2-S2-268M21,7,507,AS,exp,44,→,right,→,0.5856371000409126,True,16,1,0,0
Y2-S2-268M21,7,508,AS,exp,28,↑,up,↑,0.5734252007678151,True,15,1,0,0
Y2-S2-268M21,7,509,AS,exp,38,↓,down,↓,0.5760119995102286,True,15,1,0,0
Y2-S2-268M21,7,510,AS,exp,43,←,left,←,0.7258222000673413,True,15,1,0,0
Y2-S2-268M21,7,511,AS,exp,29,→,right,→,0.531755599193275,True,14,1,0,0
Y2-S2-268M21,7,512,AS,exp,32,←,left,←,0.5361641002818942,True,14,1,0,0
Y2-S2-268M21,7,513,AS,exp,26,↑,up,↑,0.8543995004147291,True,14,1,0,0
Y2-S2-268M21,7,514,AS,exp,48,←,up,↑,0.7900801999494433,False,13,-1,1,1
Y2-S2-268M21,7,515,AS,exp,32,→,right,→,0.5212458996102214,True,14,-1,0,1
Y2-S2-268M21,7,516,AS,exp,49,↑,up,↑,0.7220809999853373,True,14,-1,0,1
Y2-S2-268M21,7,517,AS,exp,48,←,right,→,0.6079037999734282,False,14,-1,0,1
Y2-S2-268M21,7,518,AS,exp,33,↑,up,↑,1.1023078998550773,True,15,-1,0,1
Y2-S2-268M21,7,519,AS,exp,41,→,right,→,0.5191852999851108,True,15,-1,0,1
Y2-S2-268M21,7,520,AS,exp,40,←,right,→,0.809693600051105,False,15,-1,0,1
Y2-S2-268M21,7,521,AS,exp,49,↑,up,↑,0.7279281001538038,True,16,-1,0,1
Y2-S2-268M21,7,522,AS,exp,27,↓,down,↓,0.6674079997465014,True,16,-1,0,1
Y2-S2-268M21,7,523,AS,exp,39,←,left,←,0.5950555996969342,True,16,1,1,2
Y2-S2-268M21,7,524,AS,exp,49,↓,down,↓,0.5719562992453575,True,15,1,0,2
Y2-S2-268M21,7,525,AS,exp,30,↑,up,↑,0.7182047003880143,True,15,1,0,2
Y2-S2-268M21,7,526,AS,exp,33,→,right,→,0.5458000004291534,True,15,1,0,2
Y2-S2-268M21,7,527,AS,exp,30,↓,down,↓,0.6613676995038986,True,14,1,0,2
Y2-S2-268M21,7,528,AS,exp,38,←,right,→,1.2899468997493386,False,14,-1,1,3
Y2-S2-268M21,7,529,AS,exp,40,↑,right,→,1.0143773006275296,False,15,-1,0,3
Y2-S2-268M21,7,530,AS,exp,44,→,right,→,0.6135799996554852,True,16,-1,0,3
Y2-S2-268M21,7,531,AS,exp,28,↓,no_key,no_letter,-1.0,False,16,-1,0,3
Y2-S2-268M21,7,532,AS,exp,48,←,left,←,0.6223632991313934,True,17,-1,0,3
Y2-S2-268M21,7,533,AS,exp,35,→,right,→,0.6280354997143149,True,17,-1,0,3
Y2-S2-268M21,7,534,AS,exp,37,↓,down,↓,0.7694487003609538,True,17,1,1,4
Y2-S2-268M21,7,535,AS,exp,26,←,left,←,0.6316561996936798,True,16,1,0,4
Y2-S2-268M21,7,536,AS,exp,32,↓,down,↓,0.5678305998444557,True,16,1,0,4
Y2-S2-268M21,7,537,AS,exp,44,↑,up,↑,0.6541907005012035,True,16,1,0,4
Y2-S2-268M21,7,538,AS,exp,25,←,left,←,0.6748134000226855,True,15,1,0,4
Y2-S2-268M21,7,539,AS,exp,35,↓,down,↓,0.5172303998842835,True,15,1,0,4
Y2-S2-268M21,7,540,AS,exp,25,←,left,←,0.6679966999217868,True,15,1,0,4
Y2-S2-268M21,7,541,AS,exp,49,↓,down,↓,0.6562360003590584,True,14,1,0,4
Y2-S2-268M21,7,542,AS,exp,42,→,right,→,0.7436555000022054,True,14,1,0,4
Y2-S2-268M21,7,543,AS,exp,41,↓,down,↓,0.6037397002801299,True,14,1,0,4
Y2-S2-268M21,7,544,AS,exp,45,↑,up,↑,0.6422747997567058,True,13,1,0,4
Y2-S2-268M21,7,545,AS,exp,39,←,left,←,0.5066345008090138,True,13,1,0,4
Y2-S2-268M21,7,546,AS,exp,30,↓,down,↓,0.6064467001706362,True,13,1,0,4
Y2-S2-268M21,7,547,AS,exp,41,→,left,←,0.5118872001767159,False,12,-1,1,5
Y2-S2-268M21,7,548,AS,exp,42,↓,down,↓,0.641419599764049,True,13,-1,0,5
Y2-S2-268M21,7,549,AS,exp,36,←,left,←,0.5590361999347806,True,13,-1,0,5
Y2-S2-268M21,7,550,AS,exp,28,↑,right,→,0.42955869995057583,False,13,-1,0,5
Y2-S2-268M21,7,551,AS,exp,46,↓,down,↓,0.5650340998545289,True,14,-1,0,5
Y2-S2-268M21,7,552,AS,exp,39,←,up,↑,0.8892280999571085,False,14,-1,0,5
Y2-S2-268M21,7,553,AS,exp,27,↑,up,↑,0.49221889954060316,True,15,-1,0,5
Y2-S2-268M21,7,554,AS,exp,28,→,right,→,0.6124025993049145,True,15,-1,0,5
Y2-S2-268M21,7,555,AS,exp,30,↑,up,↑,0.6393848992884159,True,15,1,1,6
Y2-S2-268M21,7,556,AS,exp,42,→,right,→,0.5581924002617598,True,14,1,0,6
Y2-S2-268M21,7,557,AS,exp,40,←,right,→,0.4762570997700095,False,14,-1,1,7
Y2-S2-268M21,7,558,AS,exp,27,→,right,→,0.4840427003800869,True,15,-1,0,7
Y2-S2-268M21,7,559,AS,exp,46,↓,up,↑,0.7769232001155615,False,15,-1,0,7
Y2-S2-268M21,7,560,AS,exp,41,←,left,←,0.6570941992104053,True,16,-1,0,7
Y2-S2-268M21,7,561,AS,exp,33,→,right,→,0.7196028996258974,True,16,-1,0,7
Y2-S2-268M21,7,562,AS,exp,33,←,left,←,0.6223128996789455,True,16,1,1,8
Y2-S2-268M21,7,563,AS,exp,29,↓,down,↓,0.7561312997713685,True,15,1,0,8
Y2-S2-268M21,7,564,AS,exp,42,←,left,←,0.6398636000230908,True,15,1,0,8
Y2-S2-268M21,7,565,AS,exp,45,↑,up,↑,0.5725445998832583,True,15,1,0,8
Y2-S2-268M21,7,566,AS,exp,47,→,right,→,1.0163785992190242,True,14,1,0,8
Y2-S2-268M21,7,567,AS,exp,28,←,left,←,0.792119799181819,True,14,1,0,8
Y2-S2-268M21,7,568,AS,exp,40,↓,down,↓,0.5879302993416786,True,14,1,0,8
Y2-S2-268M21,7,569,AS,exp,44,↑,up,↑,0.5610155994072556,True,13,1,0,8
Y2-S2-268M21,7,570,AS,exp,50,←,up,↑,0.6969878999516368,False,13,-1,1,9
Y2-S2-268M21,7,571,AS,exp,42,↑,up,↑,0.7189352996647358,True,14,-1,0,9
Y2-S2-268M21,7,572,AS,exp,28,←,left,←,0.49942220002412796,True,14,-1,0,9
Y2-S2-268M21,7,573,AS,exp,49,↑,up,↑,0.49297340027987957,True,14,1,1,10
Y2-S2-268M21,7,574,AS,exp,36,→,right,→,0.6582566006109118,True,13,1,0,10
Y2-S2-268M21,7,575,AS,exp,36,↓,up,↑,0.6434209998697042,False,13,-1,1,11
Y2-S2-268M21,7,576,AS,exp,39,↑,up,↑,0.504123299382627,True,14,-1,0,11
Y2-S2-268M21,7,577,AS,exp,29,→,right,→,0.6473912000656128,True,14,-1,0,11
Y2-S2-268M21,7,578,AS,exp,46,↑,up,↑,0.5871655000373721,True,14,1,1,12
Y2-S2-268M21,7,579,AS,exp,38,→,right,→,0.4882271997630596,True,13,1,0,12
Y2-S2-268M21,7,580,AS,exp,26,←,right,→,0.6938054002821445,False,13,-1,1,13
Y2-S2-268M21,7,581,AS,exp,46,↑,up,↑,0.6205930998548865,True,14,-1,0,13
Y2-S2-268M21,7,582,AS,exp,27,↓,up,↑,0.8008383996784687,False,14,-1,0,13
Y2-S2-268M21,7,583,AS,exp,34,→,right,→,0.49957400001585484,True,15,-1,0,13
Y2-S2-268M21,7,584,AS,exp,36,←,right,→,0.7354609994217753,False,15,-1,0,13
Y2-S2-268M21,7,585,AS,exp,33,→,right,→,0.5856763003394008,True,16,-1,0,13
Y2-S2-268M21,7,586,AS,exp,45,←,left,←,0.5933342995122075,True,16,-1,0,13
Y2-S2-268M21,7,587,AS,exp,27,↑,up,↑,0.5469695003703237,True,16,1,1,14
Y2-S2-268M21,7,588,AS,exp,25,←,left,←,0.553337600082159,True,15,1,0,14
Y2-S2-268M21,7,589,AS,exp,33,↑,up,↑,0.5069388998672366,True,15,1,0,14
Y2-S2-268M21,7,590,AS,exp,46,→,right,→,0.5462386002764106,True,15,1,0,14
Y2-S2-268M21,7,591,AS,exp,37,↑,up,↑,0.5180080998688936,True,14,1,0,14
Y2-S2-268M21,7,592,AS,exp,40,←,left,←,0.4681930998340249,True,14,1,0,14
Y2-S2-268M21,7,593,AS,exp,40,↓,down,↓,0.8369847005233169,True,14,1,0,14
Y2-S2-268M21,7,594,AS,exp,43,↑,up,↑,0.5875989003106952,True,13,1,0,14
Y2-S2-268M21,7,595,AS,exp,32,→,right,→,0.5351472003385425,True,13,1,0,14
Y2-S2-268M21,7,596,AS,exp,27,↓,down,↓,0.6562593001872301,True,13,1,0,14
Y2-S2-268M21,7,597,AS,exp,38,→,left,←,0.6563761997967958,False,12,-1,1,15
Y2-S2-268M21,7,598,AS,exp,38,←,left,←,0.7491954006254673,True,13,-1,0,15
Y2-S2-268M21,7,599,AS,exp,31,↓,down,↓,0.6884378995746374,True,13,-1,0,15
Y2-S2-268M21,7,600,AS,exp,31,←,left,←,0.5598232001066208,True,13,1,1,16
Y2-S2-268M21,8,601,PS,intra_train,28,↑,up,↑,0.5194052997976542,True,18,-,-,-
Y2-S2-268M21,8,602,PS,intra_train,45,→,right,→,0.6755280001088977,True,18,-,-,-
Y2-S2-268M21,8,603,PS,intra_train,44,↓,up,↑,0.5660697994753718,False,18,-,-,-
Y2-S2-268M21,8,604,PS,intra_train,48,→,right,→,0.6480585001409054,True,18,-,-,-
Y2-S2-268M21,8,605,PS,intra_train,40,↑,up,↑,0.6666493006050587,True,18,-,-,-
Y2-S2-268M21,8,606,PS,exp,27,←,left,←,0.6395319998264313,True,12,0,0,0
Y2-S2-268M21,8,607,PS,exp,47,↓,up,↑,0.6319169998168945,False,12,-1,0,0
Y2-S2-268M21,8,608,PS,exp,44,→,right,→,0.5711607998237014,True,13,-1,0,0
Y2-S2-268M21,8,609,PS,exp,30,↑,up,↑,0.6014045001938939,True,13,-1,0,0
Y2-S2-268M21,8,610,PS,exp,26,←,left,←,0.7708449000492692,True,13,1,1,1
Y2-S2-268M21,8,611,PS,exp,27,→,right,→,0.5893486998975277,True,12,1,0,1
Y2-S2-268M21,8,612,PS,exp,35,↑,up,↑,0.5105437999591231,True,12,1,0,1
Y2-S2-268M21,8,613,PS,exp,43,→,right,→,0.5614863000810146,True,12,1,0,1
Y2-S2-268M21,8,614,PS,exp,28,↓,right,→,0.6830986002460122,False,11,-1,1,2
Y2-S2-268M21,8,615,PS,exp,39,↑,up,↑,0.5953380996361375,True,12,-1,0,2
Y2-S2-268M21,8,616,PS,exp,35,↓,down,↓,0.6667690994217992,True,12,-1,0,2
Y2-S2-268M21,8,617,PS,exp,32,→,right,→,0.6587389996275306,True,12,1,1,3
Y2-S2-268M21,8,618,PS,exp,33,←,right,→,0.5454243002459407,False,11,-1,1,4
Y2-S2-268M21,8,619,PS,exp,45,↑,up,↑,0.4958139006048441,True,12,-1,0,4
Y2-S2-268M21,8,620,PS,exp,26,↓,down,↓,0.649443400092423,True,12,-1,0,4
Y2-S2-268M21,8,621,PS,exp,41,↑,up,↑,0.6012237006798387,True,12,1,1,5
Y2-S2-268M21,8,622,PS,exp,47,←,left,←,0.6445067999884486,True,11,1,0,5
Y2-S2-268M21,8,623,PS,exp,28,↑,up,↑,0.4921842999756336,True,11,1,0,5
Y2-S2-268M21,8,624,PS,exp,49,↓,up,↑,0.6685517998412251,False,11,-1,1,6
Y2-S2-268M21,8,625,PS,exp,31,←,left,←,0.5121520003303885,True,12,-1,0,6
Y2-S2-268M21,8,626,PS,exp,33,↓,left,←,0.7244472000747919,False,12,-1,0,6
Y2-S2-268M21,8,627,PS,exp,48,↑,up,↑,0.5149002000689507,True,13,-1,0,6
Y2-S2-268M21,8,628,PS,exp,33,↓,down,↓,0.6072293994948268,True,13,-1,0,6
Y2-S2-268M21,8,629,PS,exp,44,←,left,←,0.5194812994450331,True,13,1,1,7
Y2-S2-268M21,8,630,PS,exp,26,↑,up,↑,0.5905457995831966,True,12,1,0,7
Y2-S2-268M21,8,631,PS,exp,35,↓,down,↓,0.7213177001103759,True,12,1,0,7
Y2-S2-268M21,8,632,PS,exp,48,←,left,←,0.47999109979718924,True,12,1,0,7
Y2-S2-268M21,8,633,PS,exp,37,↑,left,←,0.640205199830234,False,11,-1,1,8
Y2-S2-268M21,8,634,PS,exp,29,←,left,←,0.5069896997883916,True,12,-1,0,8
Y2-S2-268M21,8,635,PS,exp,46,↓,down,↓,0.5166096994653344,True,12,-1,0,8
Y2-S2-268M21,8,636,PS,exp,27,↑,up,↑,0.7194980997592211,True,12,1,1,9
Y2-S2-268M21,8,637,PS,exp,29,←,left,←,0.471705200150609,True,11,1,0,9
Y2-S2-268M21,8,638,PS,exp,36,→,right,→,0.6007417999207973,True,11,1,0,9
Y2-S2-268M21,8,639,PS,exp,30,←,left,←,0.7349418997764587,True,11,1,0,9
Y2-S2-268M21,8,640,PS,exp,36,↑,up,↑,0.5928007997572422,True,10,1,0,9
Y2-S2-268M21,8,641,PS,exp,42,↓,down,↓,0.5822310000658035,True,10,1,0,9
Y2-S2-268M21,8,642,PS,exp,48,→,right,→,0.6135587999597192,True,10,1,0,9
Y2-S2-268M21,8,643,PS,exp,40,↑,right,→,0.6382018001750112,False,9,-1,1,10
Y2-S2-268M21,8,644,PS,exp,43,↓,down,↓,0.6494843997061253,True,10,-1,0,10
Y2-S2-268M21,8,645,PS,exp,28,→,right,→,0.6048723999410868,True,10,-1,0,10
Y2-S2-268M21,8,646,PS,exp,36,↓,down,↓,0.8892193008214235,True,10,1,1,11
Y2-S2-268M21,8,647,PS,exp,45,↑,down,↓,0.7051745001226664,False,9,-1,1,12
Y2-S2-268M21,8,648,PS,exp,30,↓,down,↓,0.6564066996797919,True,10,-1,0,12
Y2-S2-268M21,8,649,PS,exp,28,→,right,→,0.5321626998484135,True,10,-1,0,12
Y2-S2-268M21,8,650,PS,exp,38,↑,up,↑,0.5233165007084608,True,10,1,1,13
Y2-S2-268M21,8,651,PS,exp,38,←,left,←,0.5078280996531248,True,9,1,0,13
Y2-S2-268M21,8,652,PS,exp,34,→,right,→,0.5381843997165561,True,9,1,0,13
Y2-S2-268M21,8,653,PS,exp,31,↑,left,←,0.6394251994788647,False,9,-1,1,14
Y2-S2-268M21,8,654,PS,exp,38,←,left,←,0.5634642001241446,True,10,-1,0,14
Y2-S2-268M21,8,655,PS,exp,33,↑,up,↑,0.5710063995793462,True,10,-1,0,14
Y2-S2-268M21,8,656,PS,exp,45,←,left,←,0.6487750001251698,True,10,1,1,15
Y2-S2-268M21,8,657,PS,exp,35,↑,up,↑,0.6163114998489618,True,9,1,0,15
Y2-S2-268M21,8,658,PS,exp,50,↓,down,↓,0.5995090994983912,True,9,1,0,15
Y2-S2-268M21,8,659,PS,exp,33,↑,up,↑,0.8405811004340649,True,9,1,0,15
Y2-S2-268M21,8,660,PS,exp,48,↓,down,↓,0.5139566008001566,True,8,1,0,15
Y2-S2-268M21,8,661,PS,exp,27,←,right,→,0.8837443003430963,False,8,-1,1,16
