PART_ID,Block_no,Trial_no,Block_type,Trial_type,CSI,Stim_letter,Key_pressed,letter_choose,Rt,Corr,Stimulus Time,Level,Reversal,Revs_count
Y2-S2-107K21,1,1,PS,train,35,↓,down,↓,0.9090120000182651,True,30,-,-,-
Y2-S2-107K21,1,2,PS,train,30,↑,up,↑,0.8694045000011101,True,30,-,-,-
Y2-S2-107K21,1,3,PS,train,34,→,no_key,no_letter,-1.0,False,30,-,-,-
Y2-S2-107K21,1,4,PS,train,30,↓,down,↓,0.5505819999962114,True,30,-,-,-
Y2-S2-107K21,1,5,PS,train,48,←,left,←,0.5005910999607295,True,30,-,-,-
Y2-S2-107K21,1,6,PS,train,29,↓,down,↓,0.6006622000131756,True,30,-,-,-
Y2-S2-107K21,1,7,PS,train,47,↑,up,↑,0.9582471000030637,True,30,-,-,-
Y2-S2-107K21,1,8,PS,train,31,←,left,←,0.6173362999688834,True,30,-,-,-
Y2-S2-107K21,1,9,PS,train,25,→,right,→,0.6171046000090428,True,30,-,-,-
Y2-S2-107K21,1,10,PS,train,38,↓,down,↓,0.9285244999919087,True,30,-,-,-
Y2-S2-107K21,2,11,AS,train,50,←,left,←,0.46800160000566393,True,45,-,-,-
Y2-S2-107K21,2,12,AS,train,39,↓,down,↓,0.6844978000153787,True,45,-,-,-
Y2-S2-107K21,2,13,AS,train,32,←,left,←,0.6677323000039905,True,45,-,-,-
Y2-S2-107K21,2,14,AS,train,34,↓,down,↓,0.6178604000015184,True,45,-,-,-
Y2-S2-107K21,2,15,AS,train,38,→,right,→,0.6343797000008635,True,45,-,-,-
Y2-S2-107K21,2,16,AS,train,45,↓,down,↓,0.6008203999954276,True,45,-,-,-
Y2-S2-107K21,2,17,AS,train,33,↑,up,↑,0.6676504000206478,True,45,-,-,-
Y2-S2-107K21,2,18,AS,train,30,→,right,→,0.7338035000138916,True,45,-,-,-
Y2-S2-107K21,2,19,AS,train,40,↓,down,↓,0.5675984999979846,True,45,-,-,-
Y2-S2-107K21,2,20,AS,train,31,↑,up,↑,0.7836896000080742,True,45,-,-,-
Y2-S2-107K21,-,21,PS,adaptive,45,→,right,→,0.5436322999885306,True,10,0,0,0
Y2-S2-107K21,-,22,PS,adaptive,45,←,right,→,0.706330299959518,False,10,-1,0,0
Y2-S2-107K21,-,23,PS,adaptive,34,↓,down,↓,0.6939808999886736,True,11,-1,0,0
Y2-S2-107K21,-,24,PS,adaptive,39,←,left,←,0.9597531000035815,True,11,-1,0,0
Y2-S2-107K21,-,25,PS,adaptive,46,→,left,←,0.8111124000279233,False,11,-1,0,0
Y2-S2-107K21,-,26,PS,adaptive,26,←,left,←,0.6298329000128433,True,12,-1,0,0
Y2-S2-107K21,-,27,PS,adaptive,27,↓,down,↓,0.7681533999857493,True,12,-1,0,0
Y2-S2-107K21,-,28,PS,adaptive,44,←,left,←,0.6583754000021145,True,12,1,1,1
Y2-S2-107K21,-,29,PS,adaptive,42,↓,down,↓,0.5327119000139646,True,11,1,0,1
Y2-S2-107K21,-,30,PS,adaptive,46,→,right,→,0.7388562999549322,True,11,1,0,1
Y2-S2-107K21,-,31,PS,adaptive,34,↓,right,→,0.7562569000292569,False,11,-1,1,2
Y2-S2-107K21,-,32,PS,adaptive,34,→,right,→,0.5994168999604881,True,12,-1,0,2
Y2-S2-107K21,-,33,PS,adaptive,31,↓,down,↓,0.6395522000384517,True,12,-1,0,2
Y2-S2-107K21,-,34,PS,adaptive,30,←,left,←,0.5604745000018738,True,12,1,1,3
Y2-S2-107K21,-,35,PS,adaptive,47,↓,right,→,0.668684599979315,False,11,-1,1,4
Y2-S2-107K21,-,36,AS,adaptive,44,↑,up,↑,1.308948599966243,True,20,0,0,0
Y2-S2-107K21,-,37,AS,adaptive,36,→,right,→,0.5677445000037551,True,20,0,0,0
Y2-S2-107K21,-,38,AS,adaptive,39,↑,up,↑,0.7016795999952592,True,20,1,0,0
Y2-S2-107K21,-,39,AS,adaptive,39,←,right,→,1.1272393999970518,False,19,-1,1,1
Y2-S2-107K21,-,40,AS,adaptive,49,↓,down,↓,0.6789328000159003,True,20,-1,0,1
Y2-S2-107K21,-,41,AS,adaptive,34,←,left,←,0.5310824000043795,True,20,-1,0,1
Y2-S2-107K21,-,42,AS,adaptive,27,↑,up,↑,0.8316765999770723,True,20,1,1,2
Y2-S2-107K21,-,43,AS,adaptive,28,←,left,←,1.059989899978973,True,19,1,0,2
Y2-S2-107K21,-,44,AS,adaptive,27,↑,up,↑,0.8245485000079498,True,19,1,0,2
Y2-S2-107K21,-,45,AS,adaptive,30,←,left,←,0.5560538999852724,True,19,1,0,2
Y2-S2-107K21,-,46,AS,adaptive,27,↑,up,↑,0.5909801000379957,True,18,1,0,2
Y2-S2-107K21,-,47,AS,adaptive,30,↓,down,↓,0.9380724999937229,True,18,1,0,2
Y2-S2-107K21,-,48,AS,adaptive,32,←,right,→,0.5720681000384502,False,18,-1,1,3
Y2-S2-107K21,-,49,AS,adaptive,34,→,right,→,0.7162241999758407,True,19,-1,0,3
Y2-S2-107K21,-,50,AS,adaptive,37,↓,down,↓,0.667050400050357,True,19,-1,0,3
Y2-S2-107K21,-,51,AS,adaptive,46,←,left,←,1.0374256999930367,True,19,1,1,4
Y2-S2-107K21,1,52,PS,intra_train,25,→,right,→,0.5606801999965683,True,18,-,-,-
Y2-S2-107K21,1,53,PS,intra_train,30,←,right,→,0.7130596999777481,False,18,-,-,-
Y2-S2-107K21,1,54,PS,intra_train,32,↓,down,↓,0.6728789000189863,True,18,-,-,-
Y2-S2-107K21,1,55,PS,intra_train,50,↑,up,↑,0.6401871000416577,True,18,-,-,-
Y2-S2-107K21,1,56,PS,intra_train,27,→,right,→,0.5478476000134833,True,18,-,-,-
Y2-S2-107K21,1,57,PS,exp,30,←,left,←,0.48308909998741,True,12,0,0,0
Y2-S2-107K21,1,58,PS,exp,36,→,right,→,0.722382000007201,True,12,0,0,0
Y2-S2-107K21,1,59,PS,exp,44,↓,down,↓,0.7159355999901891,True,12,1,0,0
Y2-S2-107K21,1,60,PS,exp,48,→,right,→,0.5583502000081353,True,11,1,0,0
Y2-S2-107K21,1,61,PS,exp,28,↓,down,↓,0.5708130999701098,True,11,1,0,0
Y2-S2-107K21,1,62,PS,exp,28,↑,up,↑,0.5028103000367992,True,11,1,0,0
Y2-S2-107K21,1,63,PS,exp,34,←,left,←,0.5832993999938481,True,10,1,0,0
Y2-S2-107K21,1,64,PS,exp,38,↑,up,↑,0.5616063000052236,True,10,1,0,0
Y2-S2-107K21,1,65,PS,exp,29,↓,down,↓,0.5963781999889761,True,10,1,0,0
Y2-S2-107K21,1,66,PS,exp,35,→,right,→,0.46829849999630824,True,9,1,0,0
Y2-S2-107K21,1,67,PS,exp,39,↓,down,↓,0.4985103000071831,True,9,1,0,0
Y2-S2-107K21,1,68,PS,exp,42,←,down,↓,0.7851822000229731,False,9,-1,1,1
Y2-S2-107K21,1,69,PS,exp,36,↑,up,↑,0.6928605999564752,True,10,-1,0,1
Y2-S2-107K21,1,70,PS,exp,45,←,left,←,0.6366506000049412,True,10,-1,0,1
Y2-S2-107K21,1,71,PS,exp,40,↓,left,←,0.827485500019975,False,10,-1,0,1
Y2-S2-107K21,1,72,PS,exp,29,←,left,←,0.5957919999491423,True,11,-1,0,1
Y2-S2-107K21,1,73,PS,exp,48,↓,down,↓,0.6917133000097238,True,11,-1,0,1
Y2-S2-107K21,1,74,PS,exp,46,→,down,↓,0.8884997999994084,False,11,-1,0,1
Y2-S2-107K21,1,75,PS,exp,30,↓,down,↓,0.655954199959524,True,12,-1,0,1
Y2-S2-107K21,1,76,PS,exp,38,↑,up,↑,0.8208467999938875,True,12,-1,0,1
Y2-S2-107K21,1,77,PS,exp,36,↓,down,↓,0.7638863999745809,True,12,1,1,2
Y2-S2-107K21,1,78,PS,exp,48,←,down,↓,1.7622852000058629,False,11,-1,1,3
Y2-S2-107K21,1,79,PS,exp,30,↓,down,↓,0.5305505000287667,True,12,-1,0,3
Y2-S2-107K21,1,80,PS,exp,41,←,left,←,0.8481570000294596,True,12,-1,0,3
Y2-S2-107K21,1,81,PS,exp,26,↓,down,↓,0.553729800041765,True,12,1,1,4
Y2-S2-107K21,1,82,PS,exp,47,↑,up,↑,0.6780103999772109,True,11,1,0,4
Y2-S2-107K21,1,83,PS,exp,44,→,right,→,0.6066052000387572,True,11,1,0,4
Y2-S2-107K21,1,84,PS,exp,32,←,left,←,0.9316970999934711,True,11,1,0,4
Y2-S2-107K21,1,85,PS,exp,48,↓,down,↓,0.8907755000400357,True,10,1,0,4
Y2-S2-107K21,1,86,PS,exp,30,→,right,→,0.5737399000208825,True,10,1,0,4
Y2-S2-107K21,1,87,PS,exp,36,↓,down,↓,0.7510800000163727,True,10,1,0,4
Y2-S2-107K21,1,88,PS,exp,39,←,left,←,0.5350358999567106,True,9,1,0,4
Y2-S2-107K21,1,89,PS,exp,27,→,down,↓,1.1602328000008129,False,9,-1,1,5
Y2-S2-107K21,1,90,PS,exp,29,↓,down,↓,0.6102871000184678,True,10,-1,0,5
Y2-S2-107K21,1,91,PS,exp,32,←,down,↓,0.8881411000038497,False,10,-1,0,5
Y2-S2-107K21,1,92,PS,exp,47,↓,down,↓,0.8361025999765843,True,11,-1,0,5
Y2-S2-107K21,1,93,PS,exp,45,←,left,←,0.8106149999657646,True,11,-1,0,5
Y2-S2-107K21,1,94,PS,exp,38,↓,down,↓,0.730645400006324,True,11,1,1,6
Y2-S2-107K21,1,95,PS,exp,49,→,right,→,0.6666852000053041,True,10,1,0,6
Y2-S2-107K21,1,96,PS,exp,49,↓,down,↓,0.7690607999684289,True,10,1,0,6
Y2-S2-107K21,1,97,PS,exp,34,↑,up,↑,0.5887436000048183,True,10,1,0,6
Y2-S2-107K21,1,98,PS,exp,41,←,left,←,0.6135416000033729,True,9,1,0,6
Y2-S2-107K21,1,99,PS,exp,34,↑,up,↑,0.5637512000394054,True,9,1,0,6
Y2-S2-107K21,1,100,PS,exp,34,←,left,←,0.5285941000329331,True,9,1,0,6
Y2-S2-107K21,1,101,PS,exp,31,↓,down,↓,0.8088931000092998,True,8,1,0,6
Y2-S2-107K21,1,102,PS,exp,29,→,left,←,1.4791487999609672,False,8,-1,1,7
Y2-S2-107K21,1,103,PS,exp,25,↑,left,←,0.7251271000131965,False,9,-1,0,7
Y2-S2-107K21,1,104,PS,exp,34,↓,down,↓,0.7178201000206172,True,10,-1,0,7
Y2-S2-107K21,1,105,PS,exp,30,↑,up,↑,0.8004528000019491,True,10,-1,0,7
Y2-S2-107K21,1,106,PS,exp,44,←,left,←,0.6400018999702297,True,10,1,1,8
Y2-S2-107K21,1,107,PS,exp,29,→,right,→,0.8120854999870062,True,9,1,0,8
Y2-S2-107K21,1,108,PS,exp,28,↓,down,↓,0.7648245000164025,True,9,1,0,8
Y2-S2-107K21,1,109,PS,exp,30,↑,up,↑,0.6213463000021875,True,9,1,0,8
Y2-S2-107K21,1,110,PS,exp,27,←,left,←,0.7924464999814518,True,8,1,0,8
Y2-S2-107K21,1,111,PS,exp,29,↑,up,↑,0.5735312000033446,True,8,1,0,8
Y2-S2-107K21,1,112,PS,exp,44,←,up,↑,1.0145686999894679,False,8,-1,1,9
Y2-S2-107K21,1,113,PS,exp,49,↓,up,↑,1.2314398000016809,False,9,-1,0,9
Y2-S2-107K21,1,114,PS,exp,35,←,left,←,0.6805149000138044,True,10,-1,0,9
Y2-S2-107K21,1,115,PS,exp,47,↑,up,↑,0.9097105000400916,True,10,-1,0,9
Y2-S2-107K21,1,116,PS,exp,25,←,left,←,0.821647499979008,True,10,1,1,10
Y2-S2-107K21,1,117,PS,exp,43,→,right,→,0.7536255000159144,True,9,1,0,10
Y2-S2-107K21,1,118,PS,exp,29,←,left,←,0.6947338000172749,True,9,1,0,10
Y2-S2-107K21,1,119,PS,exp,41,→,down,↓,1.1242330999812111,False,9,-1,1,11
Y2-S2-107K21,1,120,PS,exp,28,↓,down,↓,1.5056195000070147,True,10,-1,0,11
Y2-S2-107K21,1,121,PS,exp,27,→,right,→,0.5957452999427915,True,10,-1,0,11
Y2-S2-107K21,1,122,PS,exp,46,↑,up,↑,0.6832781999837607,True,10,1,1,12
Y2-S2-107K21,1,123,PS,exp,35,↓,up,↑,1.043272299983073,False,9,-1,1,13
Y2-S2-107K21,1,124,PS,exp,50,←,left,←,0.5228927999851294,True,10,-1,0,13
Y2-S2-107K21,1,125,PS,exp,44,↓,down,↓,0.7316165000083856,True,10,-1,0,13
Y2-S2-107K21,1,126,PS,exp,39,↑,up,↑,0.4909837000304833,True,10,1,1,14
Y2-S2-107K21,1,127,PS,exp,47,←,left,←,0.920678099966608,True,9,1,0,14
Y2-S2-107K21,1,128,PS,exp,45,↓,down,↓,0.6169857000350021,True,9,1,0,14
Y2-S2-107K21,1,129,PS,exp,42,↑,up,↑,1.100457600026857,True,9,1,0,14
Y2-S2-107K21,1,130,PS,exp,28,←,down,↓,0.957531799969729,False,8,-1,1,15
Y2-S2-107K21,1,131,PS,exp,31,↓,down,↓,0.8977174000465311,True,9,-1,0,15
Y2-S2-107K21,1,132,PS,exp,44,↑,up,↑,0.7599307000054978,True,9,-1,0,15
Y2-S2-107K21,1,133,PS,exp,30,←,left,←,0.5480951000354253,True,9,1,1,16
Y2-S2-107K21,2,134,AS,intra_train,27,↑,up,↑,0.996728099999018,True,27,-,-,-
Y2-S2-107K21,2,135,AS,intra_train,48,→,right,→,0.6754747999948449,True,27,-,-,-
Y2-S2-107K21,2,136,AS,intra_train,27,↑,up,↑,0.6756144000100903,True,27,-,-,-
Y2-S2-107K21,2,137,AS,intra_train,43,→,right,→,0.5171901999856345,True,27,-,-,-
Y2-S2-107K21,2,138,AS,intra_train,26,↓,down,↓,0.6382463999907486,True,27,-,-,-
Y2-S2-107K21,2,139,AS,exp,27,↑,up,↑,0.6548553999746218,True,18,0,0,0
Y2-S2-107K21,2,140,AS,exp,41,↓,down,↓,0.6533596999943256,True,18,0,0,0
Y2-S2-107K21,2,141,AS,exp,27,↑,down,↓,0.8562291999696754,False,18,-1,0,0
Y2-S2-107K21,2,142,AS,exp,49,←,left,←,0.6707695000222884,True,19,-1,0,0
Y2-S2-107K21,2,143,AS,exp,39,↑,down,↓,0.9095226000063121,False,19,-1,0,0
Y2-S2-107K21,2,144,AS,exp,41,↓,no_key,no_letter,-1.0,False,20,-1,0,0
Y2-S2-107K21,2,145,AS,exp,48,←,left,←,0.48378400004003197,True,21,-1,0,0
Y2-S2-107K21,2,146,AS,exp,27,↓,down,↓,0.610103800019715,True,21,-1,0,0
Y2-S2-107K21,2,147,AS,exp,46,→,right,→,0.6202493999735452,True,21,1,1,1
Y2-S2-107K21,2,148,AS,exp,42,←,right,→,0.7005634999950416,False,20,-1,1,2
Y2-S2-107K21,2,149,AS,exp,31,↑,up,↑,0.9950525999884121,True,21,-1,0,2
Y2-S2-107K21,2,150,AS,exp,46,←,left,←,0.7156316000036895,True,21,-1,0,2
Y2-S2-107K21,2,151,AS,exp,48,↑,up,↑,0.8415290999691933,True,21,1,1,3
Y2-S2-107K21,2,152,AS,exp,34,→,right,→,1.4891812999849208,True,20,1,0,3
Y2-S2-107K21,2,153,AS,exp,31,↑,up,↑,0.7809259999776259,True,20,1,0,3
Y2-S2-107K21,2,154,AS,exp,27,↓,down,↓,0.8401995000313036,True,20,1,0,3
Y2-S2-107K21,2,155,AS,exp,25,↑,down,↓,0.6994982999749482,False,19,-1,1,4
Y2-S2-107K21,2,156,AS,exp,48,←,left,←,0.5128548999782652,True,20,-1,0,4
Y2-S2-107K21,2,157,AS,exp,35,→,right,→,0.6367183000547811,True,20,-1,0,4
Y2-S2-107K21,2,158,AS,exp,43,↓,down,↓,0.7051650000503287,True,20,1,1,5
Y2-S2-107K21,2,159,AS,exp,28,↑,down,↓,0.7360583999543451,False,19,-1,1,6
Y2-S2-107K21,2,160,AS,exp,35,→,right,→,0.7344965999945998,True,20,-1,0,6
Y2-S2-107K21,2,161,AS,exp,43,↑,up,↑,0.8509822000050917,True,20,-1,0,6
Y2-S2-107K21,2,162,AS,exp,46,↓,down,↓,0.6293322999845259,True,20,1,1,7
Y2-S2-107K21,2,163,AS,exp,49,→,right,→,0.6274150999961421,True,19,1,0,7
Y2-S2-107K21,2,164,AS,exp,30,↑,down,↓,1.0643630000413395,False,19,-1,1,8
Y2-S2-107K21,2,165,AS,exp,33,↓,down,↓,0.7333240999723785,True,20,-1,0,8
Y2-S2-107K21,2,166,AS,exp,44,←,left,←,0.5294885999755934,True,20,-1,0,8
Y2-S2-107K21,2,167,AS,exp,46,↓,no_key,no_letter,-1.0,False,20,-1,0,8
Y2-S2-107K21,2,168,AS,exp,43,↑,up,↑,0.830368000024464,True,21,-1,0,8
Y2-S2-107K21,2,169,AS,exp,45,→,right,→,0.553844999987632,True,21,-1,0,8
Y2-S2-107K21,2,170,AS,exp,33,←,left,←,0.810173100035172,True,21,1,1,9
Y2-S2-107K21,2,171,AS,exp,27,↓,down,↓,0.747317600005772,True,20,1,0,9
Y2-S2-107K21,2,172,AS,exp,35,↑,up,↑,0.7323515000171028,True,20,1,0,9
Y2-S2-107K21,2,173,AS,exp,44,→,right,→,0.6518051000311971,True,20,1,0,9
Y2-S2-107K21,2,174,AS,exp,37,↑,up,↑,0.8123456000466831,True,19,1,0,9
Y2-S2-107K21,2,175,AS,exp,30,↓,down,↓,0.5436973999603651,True,19,1,0,9
Y2-S2-107K21,2,176,AS,exp,36,←,left,←,0.6967389000346884,True,19,1,0,9
Y2-S2-107K21,2,177,AS,exp,40,↑,down,↓,0.881996399955824,False,18,-1,1,10
Y2-S2-107K21,2,178,AS,exp,28,→,right,→,0.5834904999937862,True,19,-1,0,10
Y2-S2-107K21,2,179,AS,exp,48,↓,down,↓,0.5892725000157952,True,19,-1,0,10
Y2-S2-107K21,2,180,AS,exp,48,←,left,←,0.5622375000384636,True,19,1,1,11
Y2-S2-107K21,2,181,AS,exp,41,↑,up,↑,0.764534099958837,True,18,1,0,11
Y2-S2-107K21,2,182,AS,exp,29,←,left,←,0.6147755999700166,True,18,1,0,11
Y2-S2-107K21,2,183,AS,exp,41,→,right,→,0.5412934999912977,True,18,1,0,11
Y2-S2-107K21,2,184,AS,exp,34,↓,down,↓,0.6360451999935322,True,17,1,0,11
Y2-S2-107K21,2,185,AS,exp,35,←,left,←,0.6305490000522695,True,17,1,0,11
Y2-S2-107K21,2,186,AS,exp,33,↓,down,↓,0.8718514999491163,True,17,1,0,11
Y2-S2-107K21,2,187,AS,exp,28,→,right,→,0.4877962999744341,True,16,1,0,11
Y2-S2-107K21,2,188,AS,exp,28,↓,down,↓,0.6006278999848291,True,16,1,0,11
Y2-S2-107K21,2,189,AS,exp,45,←,left,←,0.8519193999818526,True,16,1,0,11
Y2-S2-107K21,2,190,AS,exp,28,→,right,→,0.6739762999932282,True,15,1,0,11
Y2-S2-107K21,2,191,AS,exp,27,←,right,→,0.8275059999432415,False,15,-1,1,12
Y2-S2-107K21,2,192,AS,exp,35,→,left,←,0.8020585000049323,False,16,-1,0,12
Y2-S2-107K21,2,193,AS,exp,26,↑,down,↓,1.2134574000374414,False,17,-1,0,12
Y2-S2-107K21,2,194,AS,exp,34,→,right,→,0.5782682999852113,True,18,-1,0,12
Y2-S2-107K21,2,195,AS,exp,43,↓,down,↓,1.2169330999604426,True,18,-1,0,12
Y2-S2-107K21,2,196,AS,exp,40,←,left,←,0.9306858999771066,True,18,1,1,13
Y2-S2-107K21,2,197,AS,exp,30,↑,up,↑,0.8213509999914095,True,17,1,0,13
Y2-S2-107K21,2,198,AS,exp,27,↓,down,↓,0.6799083999940194,True,17,1,0,13
Y2-S2-107K21,2,199,AS,exp,27,←,left,←,1.3148228999925777,True,17,1,0,13
Y2-S2-107K21,2,200,AS,exp,27,↑,up,↑,0.9397595999762416,True,16,1,0,13
Y2-S2-107K21,2,201,AS,exp,29,↓,down,↓,0.6148513000225648,True,16,1,0,13
Y2-S2-107K21,2,202,AS,exp,48,→,right,→,0.5594039999996312,True,16,1,0,13
Y2-S2-107K21,2,203,AS,exp,37,←,left,←,0.6991254999884404,True,15,1,0,13
Y2-S2-107K21,2,204,AS,exp,42,↓,down,↓,0.7135751000023447,True,15,1,0,13
Y2-S2-107K21,2,205,AS,exp,47,→,right,→,0.5067952999961562,True,15,1,0,13
Y2-S2-107K21,2,206,AS,exp,46,←,left,←,0.52163129998371,True,14,1,0,13
Y2-S2-107K21,2,207,AS,exp,37,↑,down,↓,0.8400292000151239,False,14,-1,1,14
Y2-S2-107K21,2,208,AS,exp,39,↓,down,↓,0.96359170001233,True,15,-1,0,14
Y2-S2-107K21,2,209,AS,exp,38,↑,up,↑,0.7602341999881901,True,15,-1,0,14
Y2-S2-107K21,2,210,AS,exp,44,↓,down,↓,0.8436995000229217,True,15,1,1,15
Y2-S2-107K21,2,211,AS,exp,44,↑,up,↑,0.7219615999492817,True,14,1,0,15
Y2-S2-107K21,2,212,AS,exp,48,←,left,←,0.7986089999903925,True,14,1,0,15
Y2-S2-107K21,2,213,AS,exp,26,→,right,→,0.8081619000295177,True,14,1,0,15
Y2-S2-107K21,2,214,AS,exp,49,↑,down,↓,0.69110360002378,False,13,-1,1,16
Y2-S2-107K21,3,215,AS,intra_train,29,→,right,→,0.6332592000253499,True,27,-,-,-
Y2-S2-107K21,3,216,AS,intra_train,25,↑,up,↑,0.8275064000044949,True,27,-,-,-
Y2-S2-107K21,3,217,AS,intra_train,35,→,right,→,0.48394659999758005,True,27,-,-,-
Y2-S2-107K21,3,218,AS,intra_train,38,↑,up,↑,0.4847254999913275,True,27,-,-,-
Y2-S2-107K21,3,219,AS,intra_train,35,↓,down,↓,1.2889690999872983,True,27,-,-,-
Y2-S2-107K21,3,220,AS,exp,30,←,down,↓,0.7685113999759778,False,18,-1,0,0
Y2-S2-107K21,3,221,AS,exp,41,↑,up,↑,1.3817066000192426,True,19,-1,0,0
Y2-S2-107K21,3,222,AS,exp,49,↓,down,↓,0.9274730999604799,True,19,-1,0,0
Y2-S2-107K21,3,223,AS,exp,49,→,right,→,1.1488324999809265,True,19,1,1,1
Y2-S2-107K21,3,224,AS,exp,44,←,right,→,0.8103621000191197,False,18,-1,1,2
Y2-S2-107K21,3,225,AS,exp,40,↑,down,↓,1.1096716999891214,False,19,-1,0,2
Y2-S2-107K21,3,226,AS,exp,38,←,left,←,0.6572919000172988,True,20,-1,0,2
Y2-S2-107K21,3,227,AS,exp,46,→,no_key,no_letter,-1.0,False,20,-1,0,2
Y2-S2-107K21,3,228,AS,exp,49,↓,down,↓,0.585163299983833,True,21,-1,0,2
Y2-S2-107K21,3,229,AS,exp,42,→,right,→,1.0144822000293061,True,21,-1,0,2
Y2-S2-107K21,3,230,AS,exp,39,↑,down,↓,0.5363734000129625,False,21,-1,0,2
Y2-S2-107K21,3,231,AS,exp,30,←,left,←,0.7729308999842033,True,22,-1,0,2
Y2-S2-107K21,3,232,AS,exp,35,→,right,→,0.483939099998679,True,22,-1,0,2
Y2-S2-107K21,3,233,AS,exp,44,↓,down,↓,0.6762512999703176,True,22,1,1,3
Y2-S2-107K21,3,234,AS,exp,41,↑,up,↑,1.237306700029876,True,21,1,0,3
Y2-S2-107K21,3,235,AS,exp,45,←,down,↓,1.0328471999964677,False,21,-1,1,4
Y2-S2-107K21,3,236,AS,exp,30,↑,up,↑,0.9618521999800578,True,22,-1,0,4
Y2-S2-107K21,3,237,AS,exp,33,→,right,→,1.1740096000139602,True,22,-1,0,4
Y2-S2-107K21,3,238,AS,exp,38,←,left,←,0.8121656000148505,True,22,1,1,5
Y2-S2-107K21,3,239,AS,exp,36,↓,down,↓,0.6786338000092655,True,21,1,0,5
Y2-S2-107K21,3,240,AS,exp,40,→,left,←,0.7100974000059068,False,21,-1,1,6
Y2-S2-107K21,3,241,AS,exp,48,↑,up,↑,1.006691700022202,True,22,-1,0,6
Y2-S2-107K21,3,242,AS,exp,30,←,left,←,0.6505981999798678,True,22,-1,0,6
Y2-S2-107K21,3,243,AS,exp,40,→,right,→,0.6958407000056468,True,22,1,1,7
Y2-S2-107K21,3,244,AS,exp,32,↓,down,↓,0.8430908999871463,True,21,1,0,7
Y2-S2-107K21,3,245,AS,exp,33,→,right,→,0.6292986000189558,True,21,1,0,7
Y2-S2-107K21,3,246,AS,exp,45,↓,down,↓,0.45153469999786466,True,21,1,0,7
Y2-S2-107K21,3,247,AS,exp,27,→,right,→,0.5431375000043772,True,20,1,0,7
Y2-S2-107K21,3,248,AS,exp,39,←,left,←,0.7261801999993622,True,20,1,0,7
Y2-S2-107K21,3,249,AS,exp,25,↓,down,↓,1.075269400025718,True,20,1,0,7
Y2-S2-107K21,3,250,AS,exp,43,↑,up,↑,0.7355248000239953,True,19,1,0,7
Y2-S2-107K21,3,251,AS,exp,48,→,right,→,0.5365321999997832,True,19,1,0,7
Y2-S2-107K21,3,252,AS,exp,33,←,left,←,0.8054735999903642,True,19,1,0,7
Y2-S2-107K21,3,253,AS,exp,28,→,right,→,0.5526430999743752,True,18,1,0,7
Y2-S2-107K21,3,254,AS,exp,35,←,left,←,0.5541474999627098,True,18,1,0,7
Y2-S2-107K21,3,255,AS,exp,41,→,right,→,0.734186299960129,True,18,1,0,7
Y2-S2-107K21,3,256,AS,exp,36,↑,up,↑,0.8200175000238232,True,17,1,0,7
Y2-S2-107K21,3,257,AS,exp,25,←,left,←,0.5718816999578848,True,17,1,0,7
Y2-S2-107K21,3,258,AS,exp,43,↓,down,↓,0.5117240999825299,True,17,1,0,7
Y2-S2-107K21,3,259,AS,exp,46,↑,up,↑,0.7150350000010803,True,16,1,0,7
Y2-S2-107K21,3,260,AS,exp,33,→,right,→,0.5891239999909885,True,16,1,0,7
Y2-S2-107K21,3,261,AS,exp,49,↑,up,↑,0.7009812999749556,True,16,1,0,7
Y2-S2-107K21,3,262,AS,exp,34,↓,down,↓,0.7664354000007734,True,15,1,0,7
Y2-S2-107K21,3,263,AS,exp,48,←,left,←,0.5650614999467507,True,15,1,0,7
Y2-S2-107K21,3,264,AS,exp,39,↓,down,↓,0.7707999999984168,True,15,1,0,7
Y2-S2-107K21,3,265,AS,exp,26,↑,up,↑,0.6782216999563389,True,14,1,0,7
Y2-S2-107K21,3,266,AS,exp,46,→,right,→,0.6054791000206023,True,14,1,0,7
Y2-S2-107K21,3,267,AS,exp,27,↑,up,↑,0.7570420000120066,True,14,1,0,7
Y2-S2-107K21,3,268,AS,exp,33,←,left,←,0.4999826999846846,True,13,1,0,7
Y2-S2-107K21,3,269,AS,exp,39,↑,up,↑,0.6204452000092715,True,13,1,0,7
Y2-S2-107K21,3,270,AS,exp,35,↓,down,↓,0.4422204999718815,True,13,1,0,7
Y2-S2-107K21,3,271,AS,exp,26,←,left,←,0.5647613000473939,True,12,1,0,7
Y2-S2-107K21,3,272,AS,exp,48,→,left,←,0.7563956999802031,False,12,-1,1,8
Y2-S2-107K21,3,273,AS,exp,27,←,right,→,0.750816699990537,False,13,-1,0,8
Y2-S2-107K21,3,274,AS,exp,34,→,right,→,0.8088430999778211,True,14,-1,0,8
Y2-S2-107K21,3,275,AS,exp,36,↓,down,↓,0.765958399977535,True,14,-1,0,8
Y2-S2-107K21,3,276,AS,exp,50,↑,up,↑,0.7223806999973021,True,14,1,1,9
Y2-S2-107K21,3,277,AS,exp,30,←,left,←,0.6329810000024736,True,13,1,0,9
Y2-S2-107K21,3,278,AS,exp,27,↑,up,↑,1.095002599991858,True,13,1,0,9
Y2-S2-107K21,3,279,AS,exp,39,→,down,↓,0.7870200999896042,False,13,-1,1,10
Y2-S2-107K21,3,280,AS,exp,31,←,down,↓,1.0712964999838732,False,14,-1,0,10
Y2-S2-107K21,3,281,AS,exp,40,↓,down,↓,0.7408156000310555,True,15,-1,0,10
Y2-S2-107K21,3,282,AS,exp,27,←,down,↓,1.104755699983798,False,15,-1,0,10
Y2-S2-107K21,3,283,AS,exp,38,↑,down,↓,0.8525182000012137,False,16,-1,0,10
Y2-S2-107K21,3,284,AS,exp,29,↓,up,↑,1.6820439000148326,False,17,-1,0,10
Y2-S2-107K21,3,285,AS,exp,44,←,left,←,0.6413354999967851,True,18,-1,0,10
Y2-S2-107K21,3,286,AS,exp,27,↑,down,↓,0.8342694999882951,False,18,-1,0,10
Y2-S2-107K21,3,287,AS,exp,42,↓,down,↓,0.8107267000013962,True,19,-1,0,10
Y2-S2-107K21,3,288,AS,exp,50,→,right,→,0.631065099965781,True,19,-1,0,10
Y2-S2-107K21,3,289,AS,exp,36,↑,up,↑,0.697314900055062,True,19,1,1,11
Y2-S2-107K21,3,290,AS,exp,34,↓,down,↓,0.6026719000074081,True,18,1,0,11
Y2-S2-107K21,3,291,AS,exp,50,←,left,←,0.6534351999871433,True,18,1,0,11
Y2-S2-107K21,3,292,AS,exp,46,↓,down,↓,0.5919501999742351,True,18,1,0,11
Y2-S2-107K21,3,293,AS,exp,35,→,right,→,0.6980821000179276,True,17,1,0,11
Y2-S2-107K21,3,294,AS,exp,28,↑,up,↑,0.6773180000018328,True,17,1,0,11
Y2-S2-107K21,3,295,AS,exp,50,↓,down,↓,0.5699802999733947,True,17,1,0,11
Y2-S2-107K21,3,296,AS,exp,46,↑,down,↓,0.6730491999769583,False,16,-1,1,12
Y2-S2-107K21,3,297,AS,exp,46,↓,down,↓,0.47763439995469525,True,17,-1,0,12
Y2-S2-107K21,3,298,AS,exp,43,←,left,←,0.6511259999824688,True,17,-1,0,12
Y2-S2-107K21,3,299,AS,exp,36,→,down,↓,1.393449299968779,False,17,-1,0,12
Y2-S2-107K21,3,300,AS,exp,30,↑,up,↑,0.7038911000126973,True,18,-1,0,12
Y2-S2-107K21,3,301,AS,exp,29,↓,down,↓,0.607549200009089,True,18,-1,0,12
Y2-S2-107K21,3,302,AS,exp,36,↑,up,↑,0.7519027999951504,True,18,1,1,13
Y2-S2-107K21,3,303,AS,exp,48,→,right,→,1.656541100004688,True,17,1,0,13
Y2-S2-107K21,3,304,AS,exp,30,↑,up,↑,0.8142503999988548,True,17,1,0,13
Y2-S2-107K21,3,305,AS,exp,33,→,right,→,0.5014605000033043,True,17,1,0,13
Y2-S2-107K21,3,306,AS,exp,40,↓,down,↓,0.6292457000236027,True,16,1,0,13
Y2-S2-107K21,3,307,AS,exp,50,←,left,←,0.44058639998547733,True,16,1,0,13
Y2-S2-107K21,3,308,AS,exp,38,→,right,→,0.6393881000112742,True,16,1,0,13
Y2-S2-107K21,3,309,AS,exp,45,←,right,→,0.6699476000503637,False,15,-1,1,14
Y2-S2-107K21,3,310,AS,exp,33,→,right,→,1.1336726000299677,True,16,-1,0,14
Y2-S2-107K21,3,311,AS,exp,35,↓,down,↓,0.6575741000124253,True,16,-1,0,14
Y2-S2-107K21,3,312,AS,exp,29,←,left,←,0.6358486999524757,True,16,1,1,15
Y2-S2-107K21,3,313,AS,exp,41,↓,down,↓,0.9014781000441872,True,15,1,0,15
Y2-S2-107K21,3,314,AS,exp,49,→,right,→,0.5171711999573745,True,15,1,0,15
Y2-S2-107K21,3,315,AS,exp,33,↑,down,↓,0.7241370999836363,False,15,-1,1,16
Y2-S2-107K21,4,316,PS,intra_train,41,↓,left,←,0.5049976999871433,False,18,-,-,-
Y2-S2-107K21,4,317,PS,intra_train,30,↑,up,↑,0.47038530005374923,True,18,-,-,-
Y2-S2-107K21,4,318,PS,intra_train,26,←,left,←,0.5697474000044167,True,18,-,-,-
Y2-S2-107K21,4,319,PS,intra_train,31,↑,up,↑,0.4891112000332214,True,18,-,-,-
Y2-S2-107K21,4,320,PS,intra_train,49,→,right,→,0.47667920001549646,True,18,-,-,-
Y2-S2-107K21,4,321,PS,exp,41,↑,up,↑,0.4146742000011727,True,12,0,0,0
Y2-S2-107K21,4,322,PS,exp,47,→,right,→,0.430611299991142,True,12,0,0,0
Y2-S2-107K21,4,323,PS,exp,50,←,left,←,0.7378833999973722,True,12,1,0,0
Y2-S2-107K21,4,324,PS,exp,44,→,right,→,0.6542718000127934,True,11,1,0,0
Y2-S2-107K21,4,325,PS,exp,30,←,up,↑,0.7244441999937408,False,11,-1,1,1
Y2-S2-107K21,4,326,PS,exp,48,↑,up,↑,0.8965969000128098,True,12,-1,0,1
Y2-S2-107K21,4,327,PS,exp,42,↓,down,↓,0.6860111000132747,True,12,-1,0,1
Y2-S2-107K21,4,328,PS,exp,28,↑,up,↑,0.472138500015717,True,12,1,1,2
Y2-S2-107K21,4,329,PS,exp,27,↓,down,↓,0.9286324999993667,True,11,1,0,2
Y2-S2-107K21,4,330,PS,exp,43,↑,up,↑,0.5356379000004381,True,11,1,0,2
Y2-S2-107K21,4,331,PS,exp,25,↓,down,↓,0.6723341000033543,True,11,1,0,2
Y2-S2-107K21,4,332,PS,exp,49,→,right,→,0.485290199983865,True,10,1,0,2
Y2-S2-107K21,4,333,PS,exp,47,←,left,←,0.46484510001027957,True,10,1,0,2
Y2-S2-107K21,4,334,PS,exp,28,↑,up,↑,0.5407239000196569,True,10,1,0,2
Y2-S2-107K21,4,335,PS,exp,33,←,left,←,0.6708122999989428,True,9,1,0,2
Y2-S2-107K21,4,336,PS,exp,37,→,left,←,0.6148494000080973,False,9,-1,1,3
Y2-S2-107K21,4,337,PS,exp,33,↓,down,↓,0.7862050000112504,True,10,-1,0,3
Y2-S2-107K21,4,338,PS,exp,41,←,left,←,0.6394277000217699,True,10,-1,0,3
Y2-S2-107K21,4,339,PS,exp,46,→,right,→,0.5116077000275254,True,10,1,1,4
Y2-S2-107K21,4,340,PS,exp,48,↑,down,↓,1.7178288999712095,False,9,-1,1,5
Y2-S2-107K21,4,341,PS,exp,38,↓,down,↓,0.6253755000070669,True,10,-1,0,5
Y2-S2-107K21,4,342,PS,exp,37,←,right,→,0.5423558999900706,False,10,-1,0,5
Y2-S2-107K21,4,343,PS,exp,39,→,left,←,1.274869500019122,False,11,-1,0,5
Y2-S2-107K21,4,344,PS,exp,26,↓,down,↓,0.6663906999747269,True,12,-1,0,5
Y2-S2-107K21,4,345,PS,exp,25,←,left,←,0.47325260000070557,True,12,-1,0,5
Y2-S2-107K21,4,346,PS,exp,43,↑,up,↑,0.765989699983038,True,12,1,1,6
Y2-S2-107K21,4,347,PS,exp,40,→,right,→,0.3993720000144094,True,11,1,0,6
Y2-S2-107K21,4,348,PS,exp,32,↑,up,↑,0.670463899965398,True,11,1,0,6
Y2-S2-107K21,4,349,PS,exp,27,↓,down,↓,0.49269069998990744,True,11,1,0,6
Y2-S2-107K21,4,350,PS,exp,31,←,right,→,0.8263191999867558,False,10,-1,1,7
Y2-S2-107K21,4,351,PS,exp,25,↑,up,↑,0.6898917999933474,True,11,-1,0,7
Y2-S2-107K21,4,352,PS,exp,42,↓,down,↓,0.47858809999888763,True,11,-1,0,7
Y2-S2-107K21,4,353,PS,exp,36,←,left,←,0.4467762000276707,True,11,1,1,8
Y2-S2-107K21,4,354,PS,exp,32,→,down,↓,0.7890859000035562,False,10,-1,1,9
Y2-S2-107K21,4,355,PS,exp,27,←,left,←,0.48299540003063157,True,11,-1,0,9
Y2-S2-107K21,4,356,PS,exp,38,↑,up,↑,0.6684466999722645,True,11,-1,0,9
Y2-S2-107K21,4,357,PS,exp,34,↓,down,↓,0.45431810000445694,True,11,1,1,10
Y2-S2-107K21,4,358,PS,exp,43,←,left,←,0.45819869998376817,True,10,1,0,10
Y2-S2-107K21,4,359,PS,exp,40,→,down,↓,1.0741746999556199,False,10,-1,1,11
Y2-S2-107K21,4,360,PS,exp,43,←,left,←,0.5487400999991223,True,11,-1,0,11
Y2-S2-107K21,4,361,PS,exp,47,↓,down,↓,0.7253469999996014,True,11,-1,0,11
Y2-S2-107K21,4,362,PS,exp,37,←,down,↓,0.7210800999891944,False,11,-1,0,11
Y2-S2-107K21,4,363,PS,exp,37,↓,down,↓,0.9573158000130206,True,12,-1,0,11
Y2-S2-107K21,4,364,PS,exp,37,←,left,←,0.4540400000405498,True,12,-1,0,11
Y2-S2-107K21,4,365,PS,exp,37,↑,up,↑,0.5318665999802761,True,12,1,1,12
Y2-S2-107K21,4,366,PS,exp,40,←,left,←,0.5351666000206023,True,11,1,0,12
Y2-S2-107K21,4,367,PS,exp,39,↓,down,↓,1.0364032999495976,True,11,1,0,12
Y2-S2-107K21,4,368,PS,exp,39,→,right,→,0.4529268000042066,True,11,1,0,12
Y2-S2-107K21,4,369,PS,exp,37,↓,down,↓,0.9344766999711283,True,10,1,0,12
Y2-S2-107K21,4,370,PS,exp,39,→,right,→,0.47234939999179915,True,10,1,0,12
Y2-S2-107K21,4,371,PS,exp,42,↑,right,→,1.175623299961444,False,10,-1,1,13
Y2-S2-107K21,4,372,PS,exp,26,↓,down,↓,0.5225253000389785,True,11,-1,0,13
Y2-S2-107K21,4,373,PS,exp,29,←,left,←,0.6019689000095241,True,11,-1,0,13
Y2-S2-107K21,4,374,PS,exp,44,↑,down,↓,1.4408648999524303,False,11,-1,0,13
Y2-S2-107K21,4,375,PS,exp,50,↓,down,↓,0.4879260999732651,True,12,-1,0,13
Y2-S2-107K21,4,376,PS,exp,50,←,left,←,0.7865985999815166,True,12,-1,0,13
Y2-S2-107K21,4,377,PS,exp,44,→,no_key,no_letter,-1.0,False,12,-1,0,13
Y2-S2-107K21,4,378,PS,exp,26,↓,down,↓,0.9020168000133708,True,13,-1,0,13
Y2-S2-107K21,4,379,PS,exp,37,↑,up,↑,0.7271723999874666,True,13,-1,0,13
Y2-S2-107K21,4,380,PS,exp,30,→,right,→,0.5438546999939717,True,13,1,1,14
Y2-S2-107K21,4,381,PS,exp,29,←,left,←,0.9998472000006586,True,12,1,0,14
Y2-S2-107K21,4,382,PS,exp,39,↓,down,↓,0.8517005000030622,True,12,1,0,14
Y2-S2-107K21,4,383,PS,exp,38,←,left,←,0.4717254000133835,True,12,1,0,14
Y2-S2-107K21,4,384,PS,exp,36,↑,up,↑,0.700115600018762,True,11,1,0,14
Y2-S2-107K21,4,385,PS,exp,28,→,down,↓,0.8425052000093274,False,11,-1,1,15
Y2-S2-107K21,4,386,PS,exp,30,←,down,↓,1.05900919996202,False,12,-1,0,15
Y2-S2-107K21,4,387,PS,exp,46,↑,up,↑,0.7773740999982692,True,13,-1,0,15
Y2-S2-107K21,4,388,PS,exp,26,↓,down,↓,0.7612762000062503,True,13,-1,0,15
Y2-S2-107K21,4,389,PS,exp,36,←,down,↓,0.8484197000507265,False,13,-1,0,15
Y2-S2-107K21,4,390,PS,exp,37,↓,left,←,0.7066984999692068,False,14,-1,0,15
Y2-S2-107K21,4,391,PS,exp,50,←,left,←,1.5878707999945618,True,15,-1,0,15
Y2-S2-107K21,4,392,PS,exp,29,↓,down,↓,0.7658154999953695,True,15,-1,0,15
Y2-S2-107K21,4,393,PS,exp,44,→,down,↓,0.7130220000399277,False,15,-1,0,15
Y2-S2-107K21,4,394,PS,exp,45,↑,up,↑,0.6884938000002876,True,16,-1,0,15
Y2-S2-107K21,4,395,PS,exp,45,→,right,→,0.44236950000049546,True,16,-1,0,15
Y2-S2-107K21,4,396,PS,exp,37,↓,down,↓,0.5287051000050269,True,16,1,1,16
Y2-S2-107K21,5,397,PS,intra_train,42,←,left,←,0.690257299982477,True,18,-,-,-
Y2-S2-107K21,5,398,PS,intra_train,32,↓,down,↓,0.6159445999655873,True,18,-,-,-
Y2-S2-107K21,5,399,PS,intra_train,48,→,right,→,0.5776632000342943,True,18,-,-,-
Y2-S2-107K21,5,400,PS,intra_train,33,←,left,←,0.4172366000129841,True,18,-,-,-
Y2-S2-107K21,5,401,PS,intra_train,49,→,left,←,0.8772744999732822,False,18,-,-,-
Y2-S2-107K21,5,402,PS,exp,36,←,left,←,0.5291382999857888,True,12,0,0,0
Y2-S2-107K21,5,403,PS,exp,45,↑,left,←,0.5241737999604084,False,12,-1,0,0
Y2-S2-107K21,5,404,PS,exp,48,↓,right,→,0.7729790000012144,False,13,-1,0,0
Y2-S2-107K21,5,405,PS,exp,34,↑,up,↑,0.6106609999551438,True,14,-1,0,0
Y2-S2-107K21,5,406,PS,exp,26,↓,down,↓,0.6227149000042118,True,14,-1,0,0
Y2-S2-107K21,5,407,PS,exp,35,↑,up,↑,0.5531210000044666,True,14,1,1,1
Y2-S2-107K21,5,408,PS,exp,27,←,down,↓,0.8653885999810882,False,13,-1,1,2
Y2-S2-107K21,5,409,PS,exp,39,↑,up,↑,0.49086109997006133,True,14,-1,0,2
Y2-S2-107K21,5,410,PS,exp,39,↓,down,↓,0.6099480999982916,True,14,-1,0,2
Y2-S2-107K21,5,411,PS,exp,48,←,down,↓,0.7656230999855325,False,14,-1,0,2
Y2-S2-107K21,5,412,PS,exp,44,↓,down,↓,0.7062054999987595,True,15,-1,0,2
Y2-S2-107K21,5,413,PS,exp,34,→,left,←,0.6203358999919146,False,15,-1,0,2
Y2-S2-107K21,5,414,PS,exp,49,←,left,←,0.4469118999550119,True,16,-1,0,2
Y2-S2-107K21,5,415,PS,exp,41,→,right,→,0.4369971000123769,True,16,-1,0,2
Y2-S2-107K21,5,416,PS,exp,44,↓,down,↓,0.6563756999676116,True,16,1,1,3
Y2-S2-107K21,5,417,PS,exp,31,←,left,←,0.5383221000083722,True,15,1,0,3
Y2-S2-107K21,5,418,PS,exp,35,↓,down,↓,0.9262234999914654,True,15,1,0,3
Y2-S2-107K21,5,419,PS,exp,43,←,left,←,0.42429439997067675,True,15,1,0,3
Y2-S2-107K21,5,420,PS,exp,39,↓,down,↓,0.599048700009007,True,14,1,0,3
Y2-S2-107K21,5,421,PS,exp,45,→,down,↓,0.7274522000225261,False,14,-1,1,4
Y2-S2-107K21,5,422,PS,exp,31,←,left,←,0.42838470003334805,True,15,-1,0,4
Y2-S2-107K21,5,423,PS,exp,39,↑,up,↑,0.683469099982176,True,15,-1,0,4
Y2-S2-107K21,5,424,PS,exp,30,↓,left,←,0.5906037999666296,False,15,-1,0,4
Y2-S2-107K21,5,425,PS,exp,32,←,left,←,0.46276329999091104,True,16,-1,0,4
Y2-S2-107K21,5,426,PS,exp,41,↑,up,↑,0.8190364000038244,True,16,-1,0,4
Y2-S2-107K21,5,427,PS,exp,33,←,up,↑,0.8569648999837227,False,16,-1,0,4
Y2-S2-107K21,5,428,PS,exp,49,↑,up,↑,0.4954256000346504,True,17,-1,0,4
Y2-S2-107K21,5,429,PS,exp,40,↓,down,↓,0.6379812999512069,True,17,-1,0,4
Y2-S2-107K21,5,430,PS,exp,28,↑,up,↑,0.6644697000156157,True,17,1,1,5
Y2-S2-107K21,5,431,PS,exp,41,↓,down,↓,0.3669538000249304,True,16,1,0,5
Y2-S2-107K21,5,432,PS,exp,44,↑,up,↑,0.5710818000370637,True,16,1,0,5
Y2-S2-107K21,5,433,PS,exp,37,←,up,↑,0.9207677000085823,False,16,-1,1,6
Y2-S2-107K21,5,434,PS,exp,36,→,up,↑,0.7425266000209376,False,17,-1,0,6
Y2-S2-107K21,5,435,PS,exp,43,↑,up,↑,0.8546380999614485,True,18,-1,0,6
Y2-S2-107K21,5,436,PS,exp,36,↓,down,↓,0.7907842000131495,True,18,-1,0,6
Y2-S2-107K21,5,437,PS,exp,32,←,no_key,no_letter,-1.0,False,18,-1,0,6
Y2-S2-107K21,5,438,PS,exp,32,↑,up,↑,0.5819931000005454,True,19,-1,0,6
Y2-S2-107K21,5,439,PS,exp,47,↓,down,↓,0.5216145000304095,True,19,-1,0,6
Y2-S2-107K21,5,440,PS,exp,36,→,right,→,1.2744280999759212,True,19,1,1,7
Y2-S2-107K21,5,441,PS,exp,39,↑,down,↓,0.6032212999998592,False,18,-1,1,8
Y2-S2-107K21,5,442,PS,exp,40,←,left,←,0.43373190000420436,True,19,-1,0,8
Y2-S2-107K21,5,443,PS,exp,47,↑,up,↑,0.8043051999993622,True,19,-1,0,8
Y2-S2-107K21,5,444,PS,exp,45,↓,down,↓,0.6696243999758735,True,19,1,1,9
Y2-S2-107K21,5,445,PS,exp,48,←,left,←,0.6888945999671705,True,18,1,0,9
Y2-S2-107K21,5,446,PS,exp,36,→,left,←,0.7288149000378326,False,18,-1,1,10
Y2-S2-107K21,5,447,PS,exp,30,↑,up,↑,0.8494357999879867,True,19,-1,0,10
Y2-S2-107K21,5,448,PS,exp,27,←,left,←,0.5003211000002921,True,19,-1,0,10
Y2-S2-107K21,5,449,PS,exp,29,↓,down,↓,0.6787520000361837,True,19,1,1,11
Y2-S2-107K21,5,450,PS,exp,28,↑,up,↑,0.6733315999736078,True,18,1,0,11
Y2-S2-107K21,5,451,PS,exp,50,↓,down,↓,0.9790168000035919,True,18,1,0,11
Y2-S2-107K21,5,452,PS,exp,30,→,right,→,1.0755586000159383,True,18,1,0,11
Y2-S2-107K21,5,453,PS,exp,43,↓,down,↓,0.6374186999746598,True,17,1,0,11
Y2-S2-107K21,5,454,PS,exp,47,↑,up,↑,0.8538179999450222,True,17,1,0,11
Y2-S2-107K21,5,455,PS,exp,36,↓,down,↓,1.0227098999894224,True,17,1,0,11
Y2-S2-107K21,5,456,PS,exp,35,←,left,←,0.8284805999719538,True,16,1,0,11
Y2-S2-107K21,5,457,PS,exp,47,↓,down,↓,0.7587713000248186,True,16,1,0,11
Y2-S2-107K21,5,458,PS,exp,37,→,right,→,0.5787836000090465,True,16,1,0,11
Y2-S2-107K21,5,459,PS,exp,25,↓,down,↓,0.6950832000002265,True,15,1,0,11
Y2-S2-107K21,5,460,PS,exp,27,←,left,←,1.0041672000079416,True,15,1,0,11
Y2-S2-107K21,5,461,PS,exp,50,→,right,→,0.6078640000196174,True,15,1,0,11
Y2-S2-107K21,5,462,PS,exp,42,↑,right,→,0.9659819999942556,False,14,-1,1,12
Y2-S2-107K21,5,463,PS,exp,48,←,right,→,0.8473496999940835,False,15,-1,0,12
Y2-S2-107K21,5,464,PS,exp,26,→,right,→,0.5973190999939106,True,16,-1,0,12
Y2-S2-107K21,5,465,PS,exp,29,←,right,→,1.6239229000057094,False,16,-1,0,12
Y2-S2-107K21,5,466,PS,exp,28,↑,up,↑,0.594047499995213,True,17,-1,0,12
Y2-S2-107K21,5,467,PS,exp,25,↓,down,↓,0.8051723999669775,True,17,-1,0,12
Y2-S2-107K21,5,468,PS,exp,38,→,down,↓,1.0313650000025518,False,17,-1,0,12
Y2-S2-107K21,5,469,PS,exp,49,↑,up,↑,0.5777092999778688,True,18,-1,0,12
Y2-S2-107K21,5,470,PS,exp,43,↓,up,↑,0.8273117000353523,False,18,-1,0,12
Y2-S2-107K21,5,471,PS,exp,38,↑,up,↑,0.6817429999937303,True,19,-1,0,12
Y2-S2-107K21,5,472,PS,exp,33,←,down,↓,1.027151699992828,False,19,-1,0,12
Y2-S2-107K21,5,473,PS,exp,34,↓,down,↓,1.085358800017275,True,20,-1,0,12
Y2-S2-107K21,5,474,PS,exp,46,←,left,←,0.5694391000433825,True,20,-1,0,12
Y2-S2-107K21,5,475,PS,exp,42,↑,down,↓,1.305343999993056,False,20,-1,0,12
Y2-S2-107K21,5,476,PS,exp,25,↓,down,↓,0.8384844000102021,True,21,-1,0,12
Y2-S2-107K21,5,477,PS,exp,43,↑,up,↑,0.7081900000339374,True,21,-1,0,12
Y2-S2-107K21,5,478,PS,exp,47,←,left,←,1.117207400035113,True,21,1,1,13
Y2-S2-107K21,5,479,PS,exp,29,↓,down,↓,0.5674477000138722,True,20,1,0,13
Y2-S2-107K21,5,480,PS,exp,35,←,left,←,0.5996665999991819,True,20,1,0,13
Y2-S2-107K21,5,481,PS,exp,28,→,left,←,1.3562039999524131,False,20,-1,1,14
Y2-S2-107K21,5,482,PS,exp,47,↓,down,↓,0.4673081000219099,True,21,-1,0,14
Y2-S2-107K21,5,483,PS,exp,29,←,left,←,0.9836051999591291,True,21,-1,0,14
Y2-S2-107K21,5,484,PS,exp,41,↓,down,↓,0.5274993000202812,True,21,1,1,15
Y2-S2-107K21,5,485,PS,exp,37,←,left,←,0.4672537999576889,True,20,1,0,15
Y2-S2-107K21,5,486,PS,exp,29,→,left,←,0.777705899963621,False,20,-1,1,16
Y2-S2-107K21,6,487,AS,intra_train,42,↑,up,↑,0.45068710000487044,True,27,-,-,-
Y2-S2-107K21,6,488,AS,intra_train,37,←,left,←,0.7519499000045471,True,27,-,-,-
Y2-S2-107K21,6,489,AS,intra_train,49,→,left,←,0.7743725999607705,False,27,-,-,-
Y2-S2-107K21,6,490,AS,intra_train,43,↓,down,↓,0.5670558999991044,True,27,-,-,-
Y2-S2-107K21,6,491,AS,intra_train,25,←,left,←,0.6483815999818034,True,27,-,-,-
Y2-S2-107K21,6,492,AS,exp,34,↓,down,↓,0.8004252000246197,True,18,0,0,0
Y2-S2-107K21,6,493,AS,exp,44,→,down,↓,0.808623599994462,False,18,-1,0,0
Y2-S2-107K21,6,494,AS,exp,39,↓,down,↓,0.5885055999970064,True,19,-1,0,0
Y2-S2-107K21,6,495,AS,exp,31,→,left,←,0.4908008999773301,False,19,-1,0,0
Y2-S2-107K21,6,496,AS,exp,32,←,left,←,0.4006729000248015,True,20,-1,0,0
Y2-S2-107K21,6,497,AS,exp,31,↓,down,↓,0.504228699952364,True,20,-1,0,0
Y2-S2-107K21,6,498,AS,exp,43,↑,up,↑,0.6043753999983892,True,20,1,1,1
Y2-S2-107K21,6,499,AS,exp,30,→,right,→,0.5289269000058994,True,19,1,0,1
Y2-S2-107K21,6,500,AS,exp,45,↑,up,↑,0.7725934000336565,True,19,1,0,1
Y2-S2-107K21,6,501,AS,exp,41,↓,down,↓,0.5438100000028498,True,19,1,0,1
Y2-S2-107K21,6,502,AS,exp,26,↑,up,↑,0.8414967000135221,True,18,1,0,1
Y2-S2-107K21,6,503,AS,exp,48,←,right,→,0.7407112999935634,False,18,-1,1,2
Y2-S2-107K21,6,504,AS,exp,31,↑,up,↑,0.7260743000078946,True,19,-1,0,2
Y2-S2-107K21,6,505,AS,exp,31,↓,down,↓,0.6376762000145391,True,19,-1,0,2
Y2-S2-107K21,6,506,AS,exp,33,→,right,→,0.6384710999554954,True,19,1,1,3
Y2-S2-107K21,6,507,AS,exp,45,↓,down,↓,0.7420448000193574,True,18,1,0,3
Y2-S2-107K21,6,508,AS,exp,27,↑,up,↑,0.5948790999827906,True,18,1,0,3
Y2-S2-107K21,6,509,AS,exp,31,↓,down,↓,0.576167399995029,True,18,1,0,3
Y2-S2-107K21,6,510,AS,exp,45,↑,up,↑,0.852850099967327,True,17,1,0,3
Y2-S2-107K21,6,511,AS,exp,43,↓,down,↓,0.5385749000124633,True,17,1,0,3
Y2-S2-107K21,6,512,AS,exp,29,→,right,→,0.51016060000984,True,17,1,0,3
Y2-S2-107K21,6,513,AS,exp,46,↓,down,↓,0.4785136000136845,True,16,1,0,3
Y2-S2-107K21,6,514,AS,exp,46,↑,down,↓,0.8516149999923073,False,16,-1,1,4
Y2-S2-107K21,6,515,AS,exp,33,←,left,←,0.5945240000146441,True,17,-1,0,4
Y2-S2-107K21,6,516,AS,exp,27,↓,down,↓,0.6861693999962881,True,17,-1,0,4
Y2-S2-107K21,6,517,AS,exp,31,↑,up,↑,0.677833899972029,True,17,1,1,5
Y2-S2-107K21,6,518,AS,exp,46,→,right,→,0.5337397999828681,True,16,1,0,5
Y2-S2-107K21,6,519,AS,exp,46,↑,down,↓,1.083606099942699,False,16,-1,1,6
Y2-S2-107K21,6,520,AS,exp,35,↓,down,↓,0.5393634999636561,True,17,-1,0,6
Y2-S2-107K21,6,521,AS,exp,45,→,right,→,0.6883478999952786,True,17,-1,0,6
Y2-S2-107K21,6,522,AS,exp,33,↓,down,↓,0.645073100051377,True,17,1,1,7
Y2-S2-107K21,6,523,AS,exp,44,↑,up,↑,0.6160388000425883,True,16,1,0,7
Y2-S2-107K21,6,524,AS,exp,42,↓,down,↓,0.5556707999785431,True,16,1,0,7
Y2-S2-107K21,6,525,AS,exp,28,→,right,→,0.6592458999948576,True,16,1,0,7
Y2-S2-107K21,6,526,AS,exp,46,↑,up,↑,0.9786842000321485,True,15,1,0,7
Y2-S2-107K21,6,527,AS,exp,44,↓,down,↓,0.697710599983111,True,15,1,0,7
Y2-S2-107K21,6,528,AS,exp,37,←,left,←,0.6381543000461534,True,15,1,0,7
Y2-S2-107K21,6,529,AS,exp,28,↑,up,↑,0.8090155000099912,True,14,1,0,7
Y2-S2-107K21,6,530,AS,exp,45,←,right,→,0.6477577000041492,False,14,-1,1,8
Y2-S2-107K21,6,531,AS,exp,30,→,right,→,0.7316816999809816,True,15,-1,0,8
Y2-S2-107K21,6,532,AS,exp,25,←,left,←,0.5171308999997564,True,15,-1,0,8
Y2-S2-107K21,6,533,AS,exp,27,↑,up,↑,0.749028799997177,True,15,1,1,9
Y2-S2-107K21,6,534,AS,exp,48,←,left,←,0.46915059996536,True,14,1,0,9
Y2-S2-107K21,6,535,AS,exp,42,→,right,→,0.43934230000013486,True,14,1,0,9
Y2-S2-107K21,6,536,AS,exp,43,←,right,→,0.8563432999653742,False,14,-1,1,10
Y2-S2-107K21,6,537,AS,exp,32,↑,up,↑,0.8281410000054166,True,15,-1,0,10
Y2-S2-107K21,6,538,AS,exp,41,→,right,→,0.7668464000453241,True,15,-1,0,10
Y2-S2-107K21,6,539,AS,exp,46,←,left,←,0.7576646000379696,True,15,1,1,11
Y2-S2-107K21,6,540,AS,exp,44,→,right,→,0.5873955000424758,True,14,1,0,11
Y2-S2-107K21,6,541,AS,exp,40,↑,left,←,0.8103057999978773,False,14,-1,1,12
Y2-S2-107K21,6,542,AS,exp,27,↓,down,↓,0.7185669000027701,True,15,-1,0,12
Y2-S2-107K21,6,543,AS,exp,40,→,right,→,0.5532390000298619,True,15,-1,0,12
Y2-S2-107K21,6,544,AS,exp,45,↑,down,↓,1.2389492000220343,False,15,-1,0,12
Y2-S2-107K21,6,545,AS,exp,37,←,left,←,0.5218113999580964,True,16,-1,0,12
Y2-S2-107K21,6,546,AS,exp,45,→,left,←,0.6764846000005491,False,16,-1,0,12
Y2-S2-107K21,6,547,AS,exp,43,↓,down,↓,0.6458121000323445,True,17,-1,0,12
Y2-S2-107K21,6,548,AS,exp,25,↑,up,↑,0.5222619000123814,True,17,-1,0,12
Y2-S2-107K21,6,549,AS,exp,33,←,left,←,1.055599900020752,True,17,1,1,13
Y2-S2-107K21,6,550,AS,exp,26,↓,down,↓,0.4646653999807313,True,16,1,0,13
Y2-S2-107K21,6,551,AS,exp,40,→,left,←,0.7469002000289038,False,16,-1,1,14
Y2-S2-107K21,6,552,AS,exp,30,↑,up,↑,0.9160989999654703,True,17,-1,0,14
Y2-S2-107K21,6,553,AS,exp,50,↓,down,↓,0.5617654999950901,True,17,-1,0,14
Y2-S2-107K21,6,554,AS,exp,38,↑,up,↑,0.7660130000440404,True,17,1,1,15
Y2-S2-107K21,6,555,AS,exp,34,↓,down,↓,1.4676332999952137,True,16,1,0,15
Y2-S2-107K21,6,556,AS,exp,42,←,down,↓,0.7902900000335649,False,16,-1,1,16
Y2-S2-107K21,7,557,AS,intra_train,29,↑,up,↑,0.8735057999729179,True,27,-,-,-
Y2-S2-107K21,7,558,AS,intra_train,40,←,left,←,0.5840366000193171,True,27,-,-,-
Y2-S2-107K21,7,559,AS,intra_train,41,→,right,→,0.7304275000351481,True,27,-,-,-
Y2-S2-107K21,7,560,AS,intra_train,32,←,left,←,0.683784699998796,True,27,-,-,-
Y2-S2-107K21,7,561,AS,intra_train,45,→,left,←,0.5339643000042997,False,27,-,-,-
Y2-S2-107K21,7,562,AS,exp,35,↑,up,↑,0.5697530000470579,True,18,0,0,0
Y2-S2-107K21,7,563,AS,exp,30,↓,down,↓,0.4734429999953136,True,18,0,0,0
Y2-S2-107K21,7,564,AS,exp,31,↑,up,↑,0.7702539999736473,True,18,1,0,0
Y2-S2-107K21,7,565,AS,exp,27,→,right,→,0.4566359000164084,True,17,1,0,0
Y2-S2-107K21,7,566,AS,exp,32,↓,down,↓,0.5976912999758497,True,17,1,0,0
Y2-S2-107K21,7,567,AS,exp,32,←,left,←,0.6866656999918632,True,17,1,0,0
Y2-S2-107K21,7,568,AS,exp,49,↓,down,↓,0.4422995999921113,True,16,1,0,0
Y2-S2-107K21,7,569,AS,exp,26,↑,down,↓,0.8395386000047438,False,16,-1,1,1
Y2-S2-107K21,7,570,AS,exp,49,↓,down,↓,0.7521661999635398,True,17,-1,0,1
Y2-S2-107K21,7,571,AS,exp,34,→,right,→,0.45487419998971745,True,17,-1,0,1
Y2-S2-107K21,7,572,AS,exp,32,↑,up,↑,0.5835949999745935,True,17,1,1,2
Y2-S2-107K21,7,573,AS,exp,47,↓,down,↓,0.5872933000209741,True,16,1,0,2
Y2-S2-107K21,7,574,AS,exp,36,←,right,→,0.7351067999843508,False,16,-1,1,3
Y2-S2-107K21,7,575,AS,exp,28,↓,down,↓,0.6303261000430211,True,17,-1,0,3
Y2-S2-107K21,7,576,AS,exp,50,→,right,→,0.47636199998669326,True,17,-1,0,3
Y2-S2-107K21,7,577,AS,exp,50,↓,down,↓,0.47957880003377795,True,17,1,1,4
Y2-S2-107K21,7,578,AS,exp,45,→,right,→,0.40047779999440536,True,16,1,0,4
Y2-S2-107K21,7,579,AS,exp,41,←,left,←,0.462684000027366,True,16,1,0,4
Y2-S2-107K21,7,580,AS,exp,48,→,right,→,0.4004673999734223,True,16,1,0,4
Y2-S2-107K21,7,581,AS,exp,29,↓,down,↓,0.9571438999846578,True,15,1,0,4
Y2-S2-107K21,7,582,AS,exp,28,→,right,→,0.4816436000401154,True,15,1,0,4
Y2-S2-107K21,7,583,AS,exp,36,↑,down,↓,0.4895865000435151,False,15,-1,1,5
Y2-S2-107K21,7,584,AS,exp,30,↓,down,↓,0.7371717999922112,True,16,-1,0,5
Y2-S2-107K21,7,585,AS,exp,45,→,right,→,0.4006649000220932,True,16,-1,0,5
Y2-S2-107K21,7,586,AS,exp,32,↑,down,↓,0.6748906999710016,False,16,-1,0,5
Y2-S2-107K21,7,587,AS,exp,33,→,right,→,0.36730979999992996,True,17,-1,0,5
Y2-S2-107K21,7,588,AS,exp,37,←,right,→,0.6443920999881811,False,17,-1,0,5
Y2-S2-107K21,7,589,AS,exp,43,↑,up,↑,0.6353229000233114,True,18,-1,0,5
Y2-S2-107K21,7,590,AS,exp,38,←,left,←,0.4339845000067726,True,18,-1,0,5
Y2-S2-107K21,7,591,AS,exp,43,↑,up,↑,0.6010777999763377,True,18,1,1,6
Y2-S2-107K21,7,592,AS,exp,39,→,left,←,0.6419908999814652,False,17,-1,1,7
Y2-S2-107K21,7,593,AS,exp,35,←,left,←,0.9520463999942876,True,18,-1,0,7
Y2-S2-107K21,7,594,AS,exp,31,↑,up,↑,0.6892061999533325,True,18,-1,0,7
Y2-S2-107K21,7,595,AS,exp,47,↓,down,↓,0.7948601999669336,True,18,1,1,8
Y2-S2-107K21,7,596,AS,exp,44,→,right,→,0.49420889996690676,True,17,1,0,8
Y2-S2-107K21,7,597,AS,exp,26,↓,down,↓,0.49148650001734495,True,17,1,0,8
Y2-S2-107K21,7,598,AS,exp,25,↑,up,↑,0.7511972000356764,True,17,1,0,8
Y2-S2-107K21,7,599,AS,exp,43,←,left,←,0.4350840999977663,True,16,1,0,8
Y2-S2-107K21,7,600,AS,exp,27,↓,down,↓,0.4408533999812789,True,16,1,0,8
Y2-S2-107K21,7,601,AS,exp,35,→,right,→,0.6623841999680735,True,16,1,0,8
Y2-S2-107K21,7,602,AS,exp,33,↓,down,↓,0.7452029000269249,True,15,1,0,8
Y2-S2-107K21,7,603,AS,exp,26,←,left,←,1.0842249999986961,True,15,1,0,8
Y2-S2-107K21,7,604,AS,exp,28,↑,up,↑,0.6579295999836177,True,15,1,0,8
Y2-S2-107K21,7,605,AS,exp,43,←,left,←,0.8875907000037841,True,14,1,0,8
Y2-S2-107K21,7,606,AS,exp,29,↓,down,↓,0.442049200006295,True,14,1,0,8
Y2-S2-107K21,7,607,AS,exp,31,↑,up,↑,0.5695180000038818,True,14,1,0,8
Y2-S2-107K21,7,608,AS,exp,34,↓,down,↓,0.6219795999932103,True,13,1,0,8
Y2-S2-107K21,7,609,AS,exp,26,↑,up,↑,0.57467220001854,True,13,1,0,8
Y2-S2-107K21,7,610,AS,exp,25,→,right,→,0.56548190000467,True,13,1,0,8
Y2-S2-107K21,7,611,AS,exp,28,←,left,←,0.7274381999741308,True,12,1,0,8
Y2-S2-107K21,7,612,AS,exp,35,↓,down,↓,0.5353295000386424,True,12,1,0,8
Y2-S2-107K21,7,613,AS,exp,37,↑,up,↑,0.6461639999761246,True,12,1,0,8
Y2-S2-107K21,7,614,AS,exp,26,↓,down,↓,0.5933472999604419,True,11,1,0,8
Y2-S2-107K21,7,615,AS,exp,43,←,down,↓,0.7413806000258774,False,11,-1,1,9
Y2-S2-107K21,7,616,AS,exp,25,↑,down,↓,0.665834299987182,False,12,-1,0,9
Y2-S2-107K21,7,617,AS,exp,35,←,left,←,0.48180889996001497,True,13,-1,0,9
Y2-S2-107K21,7,618,AS,exp,45,↑,down,↓,0.7443156000226736,False,13,-1,0,9
Y2-S2-107K21,7,619,AS,exp,47,↓,down,↓,0.5283758000005037,True,14,-1,0,9
Y2-S2-107K21,7,620,AS,exp,39,→,right,→,0.597728900029324,True,14,-1,0,9
Y2-S2-107K21,7,621,AS,exp,34,↑,up,↑,0.6207279000082053,True,14,1,1,10
Y2-S2-107K21,7,622,AS,exp,34,←,left,←,0.5795883999671787,True,13,1,0,10
Y2-S2-107K21,7,623,AS,exp,44,↓,down,↓,0.5040818999987096,True,13,1,0,10
Y2-S2-107K21,7,624,AS,exp,32,↑,down,↓,0.6703556000138633,False,13,-1,1,11
Y2-S2-107K21,7,625,AS,exp,34,↓,down,↓,0.4267543999594636,True,14,-1,0,11
Y2-S2-107K21,7,626,AS,exp,28,←,right,→,0.9307939999853261,False,14,-1,0,11
Y2-S2-107K21,7,627,AS,exp,34,↓,down,↓,0.5183849000022747,True,15,-1,0,11
Y2-S2-107K21,7,628,AS,exp,43,→,right,→,0.5527370999916457,True,15,-1,0,11
Y2-S2-107K21,7,629,AS,exp,41,←,right,→,0.5814182999893092,False,15,-1,0,11
Y2-S2-107K21,7,630,AS,exp,36,→,right,→,0.48491449997527525,True,16,-1,0,11
Y2-S2-107K21,7,631,AS,exp,34,←,left,←,0.4925619999994524,True,16,-1,0,11
Y2-S2-107K21,7,632,AS,exp,45,↓,down,↓,0.7148426999920048,True,16,1,1,12
Y2-S2-107K21,7,633,AS,exp,38,↑,down,↓,0.9381305999704637,False,15,-1,1,13
Y2-S2-107K21,7,634,AS,exp,48,→,right,→,0.47680089995265007,True,16,-1,0,13
Y2-S2-107K21,7,635,AS,exp,36,←,left,←,0.5650211999891326,True,16,-1,0,13
Y2-S2-107K21,7,636,AS,exp,38,→,right,→,0.510021099995356,True,16,1,1,14
Y2-S2-107K21,7,637,AS,exp,40,↓,down,↓,0.7654601000249386,True,15,1,0,14
Y2-S2-107K21,7,638,AS,exp,31,↑,down,↓,0.7609679999877699,False,15,-1,1,15
Y2-S2-107K21,7,639,AS,exp,37,→,right,→,0.6527135000214912,True,16,-1,0,15
Y2-S2-107K21,7,640,AS,exp,42,↑,up,↑,0.6776341999648139,True,16,-1,0,15
Y2-S2-107K21,7,641,AS,exp,28,↓,down,↓,0.8574284000205807,True,16,1,1,16
Y2-S2-107K21,8,642,PS,intra_train,45,←,left,←,0.7464969999855384,True,18,-,-,-
Y2-S2-107K21,8,643,PS,intra_train,37,↑,up,↑,1.0622011999948882,True,18,-,-,-
Y2-S2-107K21,8,644,PS,intra_train,44,→,right,→,0.4173437000135891,True,18,-,-,-
Y2-S2-107K21,8,645,PS,intra_train,25,↑,down,↓,0.7806166000082158,False,18,-,-,-
Y2-S2-107K21,8,646,PS,intra_train,44,↓,down,↓,0.5851150000235066,True,18,-,-,-
Y2-S2-107K21,8,647,PS,exp,45,↑,down,↓,0.6344070000341162,False,12,-1,0,0
Y2-S2-107K21,8,648,PS,exp,43,↓,down,↓,0.5130857999902219,True,13,-1,0,0
Y2-S2-107K21,8,649,PS,exp,26,←,left,←,0.46040360000915825,True,13,-1,0,0
Y2-S2-107K21,8,650,PS,exp,25,→,right,→,0.422693700005766,True,13,1,1,1
Y2-S2-107K21,8,651,PS,exp,30,↓,down,↓,0.49649230000795797,True,12,1,0,1
Y2-S2-107K21,8,652,PS,exp,32,→,right,→,0.4481632999959402,True,12,1,0,1
Y2-S2-107K21,8,653,PS,exp,48,↓,down,↓,0.40156809997279197,True,12,1,0,1
Y2-S2-107K21,8,654,PS,exp,26,↑,left,←,0.3759915000409819,False,11,-1,1,2
Y2-S2-107K21,8,655,PS,exp,25,←,right,→,0.6069134999997914,False,12,-1,0,2
Y2-S2-107K21,8,656,PS,exp,28,↑,up,↑,0.5936400000355206,True,13,-1,0,2
Y2-S2-107K21,8,657,PS,exp,38,←,left,←,0.4628654000116512,True,13,-1,0,2
Y2-S2-107K21,8,658,PS,exp,38,→,right,→,0.4104619999998249,True,13,1,1,3
Y2-S2-107K21,8,659,PS,exp,33,↑,up,↑,0.7463759999955073,True,12,1,0,3
Y2-S2-107K21,8,660,PS,exp,32,←,left,←,0.4354235000209883,True,12,1,0,3
Y2-S2-107K21,8,661,PS,exp,44,↑,up,↑,0.6280687000253238,True,12,1,0,3
Y2-S2-107K21,8,662,PS,exp,50,←,down,↓,0.47687949996907264,False,11,-1,1,4
Y2-S2-107K21,8,663,PS,exp,40,↓,left,←,0.5739010999677703,False,12,-1,0,4
Y2-S2-107K21,8,664,PS,exp,30,→,right,→,0.46053469995968044,True,13,-1,0,4
Y2-S2-107K21,8,665,PS,exp,30,←,no_key,no_letter,-1.0,False,13,-1,0,4
Y2-S2-107K21,8,666,PS,exp,32,→,right,→,0.5914148999727331,True,14,-1,0,4
Y2-S2-107K21,8,667,PS,exp,27,←,left,←,0.45508099999278784,True,14,-1,0,4
Y2-S2-107K21,8,668,PS,exp,31,↓,down,↓,0.5748771000071429,True,14,1,1,5
Y2-S2-107K21,8,669,PS,exp,40,↑,up,↑,0.6236972999759018,True,13,1,0,5
Y2-S2-107K21,8,670,PS,exp,35,↓,down,↓,0.46280870004557073,True,13,1,0,5
Y2-S2-107K21,8,671,PS,exp,33,→,right,→,0.7927153999917209,True,13,1,0,5
Y2-S2-107K21,8,672,PS,exp,47,↑,down,↓,0.5773094000178389,False,12,-1,1,6
Y2-S2-107K21,8,673,PS,exp,30,↓,down,↓,0.4383707000524737,True,13,-1,0,6
Y2-S2-107K21,8,674,PS,exp,46,←,down,↓,0.5076254999730736,False,13,-1,0,6
Y2-S2-107K21,8,675,PS,exp,32,↑,down,↓,0.6898100999533199,False,14,-1,0,6
Y2-S2-107K21,8,676,PS,exp,36,←,left,←,0.42378310003550723,True,15,-1,0,6
Y2-S2-107K21,8,677,PS,exp,38,↑,up,↑,0.6641884999698959,True,15,-1,0,6
Y2-S2-107K21,8,678,PS,exp,32,→,right,→,0.7639704000321217,True,15,1,1,7
Y2-S2-107K21,8,679,PS,exp,39,←,down,↓,0.7124235999654047,False,14,-1,1,8
Y2-S2-107K21,8,680,PS,exp,43,↓,down,↓,0.545263200008776,True,15,-1,0,8
Y2-S2-107K21,8,681,PS,exp,36,↑,up,↑,0.5739148000138812,True,15,-1,0,8
Y2-S2-107K21,8,682,PS,exp,39,→,up,↑,0.6917832999606617,False,15,-1,0,8
Y2-S2-107K21,8,683,PS,exp,37,↑,up,↑,0.5380829999921843,True,16,-1,0,8
Y2-S2-107K21,8,684,PS,exp,35,←,left,←,0.4004822999704629,True,16,-1,0,8
Y2-S2-107K21,8,685,PS,exp,31,→,left,←,0.4809940999839455,False,16,-1,0,8
Y2-S2-107K21,8,686,PS,exp,38,←,left,←,0.35074929997790605,True,17,-1,0,8
Y2-S2-107K21,8,687,PS,exp,37,↑,left,←,0.3838273999863304,False,17,-1,0,8
Y2-S2-107K21,8,688,PS,exp,49,→,right,→,0.46885800000745803,True,18,-1,0,8
Y2-S2-107K21,8,689,PS,exp,36,←,left,←,0.43389980000210926,True,18,-1,0,8
Y2-S2-107K21,8,690,PS,exp,35,→,right,→,0.400423499988392,True,18,1,1,9
Y2-S2-107K21,8,691,PS,exp,46,↓,left,←,0.7631362999673001,False,17,-1,1,10
Y2-S2-107K21,8,692,PS,exp,25,↑,up,↑,0.854458199988585,True,18,-1,0,10
Y2-S2-107K21,8,693,PS,exp,35,←,left,←,0.8919507000246085,True,18,-1,0,10
Y2-S2-107K21,8,694,PS,exp,40,↓,down,↓,0.47362110001267865,True,18,1,1,11
Y2-S2-107K21,8,695,PS,exp,26,↑,up,↑,0.5729163999785669,True,17,1,0,11
Y2-S2-107K21,8,696,PS,exp,32,↓,down,↓,0.665528199984692,True,17,1,0,11
Y2-S2-107K21,8,697,PS,exp,50,→,down,↓,0.8242303000297397,False,17,-1,1,12
Y2-S2-107K21,8,698,PS,exp,31,←,right,→,1.5600354000343941,False,18,-1,0,12
Y2-S2-107K21,8,699,PS,exp,36,↑,up,↑,0.8493907999945804,True,19,-1,0,12
Y2-S2-107K21,8,700,PS,exp,28,→,right,→,0.615867700020317,True,19,-1,0,12
Y2-S2-107K21,8,701,PS,exp,47,↑,down,↓,0.7430034999852069,False,19,-1,0,12
Y2-S2-107K21,8,702,PS,exp,31,→,right,→,0.4339120000367984,True,20,-1,0,12
Y2-S2-107K21,8,703,PS,exp,27,←,left,←,0.4672499999869615,True,20,-1,0,12
Y2-S2-107K21,8,704,PS,exp,38,→,right,→,0.38378589996136725,True,20,1,1,13
Y2-S2-107K21,8,705,PS,exp,26,←,left,←,0.41751649999059737,True,19,1,0,13
Y2-S2-107K21,8,706,PS,exp,39,→,right,→,0.7196277999901213,True,19,1,0,13
Y2-S2-107K21,8,707,PS,exp,27,↑,up,↑,0.9051664999569766,True,19,1,0,13
Y2-S2-107K21,8,708,PS,exp,41,←,left,←,0.5860286999959499,True,18,1,0,13
Y2-S2-107K21,8,709,PS,exp,43,→,right,→,0.41728920000605285,True,18,1,0,13
Y2-S2-107K21,8,710,PS,exp,49,←,left,←,0.7484740999643691,True,18,1,0,13
Y2-S2-107K21,8,711,PS,exp,44,↑,up,↑,0.6317263999953866,True,17,1,0,13
Y2-S2-107K21,8,712,PS,exp,47,↓,down,↓,0.5765475999796763,True,17,1,0,13
Y2-S2-107K21,8,713,PS,exp,36,←,down,↓,0.7435889999615029,False,17,-1,1,14
Y2-S2-107K21,8,714,PS,exp,25,↓,down,↓,1.0071632000035606,True,18,-1,0,14
Y2-S2-107K21,8,715,PS,exp,40,↑,up,↑,0.5319465000065975,True,18,-1,0,14
Y2-S2-107K21,8,716,PS,exp,33,↓,down,↓,0.6351324000279419,True,18,1,1,15
Y2-S2-107K21,8,717,PS,exp,32,↑,up,↑,0.5317963000270538,True,17,1,0,15
Y2-S2-107K21,8,718,PS,exp,47,←,down,↓,0.86421250004787,False,17,-1,1,16
