PART_ID,Block_no,Trial_no,Block_type,Trial_type,CSI,Stim_letter,Key_pressed,letter_choose,Rt,Corr,Stimulus Time,Level,Reversal,Revs_count
Y2-S2-031M33,1,1,PS,train,43,←,left,←,0.5839340998791158,True,30,-,-,-
Y2-S2-031M33,1,2,PS,train,34,↑,up,↑,0.517312599811703,True,30,-,-,-
Y2-S2-031M33,1,3,PS,train,44,←,left,←,0.3844665999058634,True,30,-,-,-
Y2-S2-031M33,1,4,PS,train,44,↓,down,↓,0.7154570000711828,True,30,-,-,-
Y2-S2-031M33,1,5,PS,train,40,↑,up,↑,0.5674407999031246,True,30,-,-,-
Y2-S2-031M33,1,6,PS,train,27,←,left,←,0.38435119995847344,True,30,-,-,-
Y2-S2-031M33,1,7,PS,train,46,→,right,→,0.6175162000581622,True,30,-,-,-
Y2-S2-031M33,1,8,PS,train,41,↑,up,↑,0.6005822999868542,True,30,-,-,-
Y2-S2-031M33,1,9,PS,train,31,↓,down,↓,0.7009228998795152,True,30,-,-,-
Y2-S2-031M33,1,10,PS,train,30,←,right,→,0.43367990013211966,False,30,-,-,-
Y2-S2-031M33,2,11,AS,train,32,↓,left,←,0.6679831999354064,False,45,-,-,-
Y2-S2-031M33,2,12,AS,train,34,→,right,→,0.5177374000195414,True,45,-,-,-
Y2-S2-031M33,2,13,AS,train,29,↑,up,↑,0.6842590998858213,True,45,-,-,-
Y2-S2-031M33,2,14,AS,train,50,→,right,→,0.767057100078091,True,45,-,-,-
Y2-S2-031M33,2,15,AS,train,49,↑,up,↑,0.7673919000662863,True,45,-,-,-
Y2-S2-031M33,2,16,AS,train,44,↓,down,↓,0.5674572999123484,True,45,-,-,-
Y2-S2-031M33,2,17,AS,train,34,↑,up,↑,0.6173600999172777,True,45,-,-,-
Y2-S2-031M33,2,18,AS,train,25,←,left,←,0.6178870999719948,True,45,-,-,-
Y2-S2-031M33,2,19,AS,train,30,↓,down,↓,0.8507238000165671,True,45,-,-,-
Y2-S2-031M33,2,20,AS,train,42,→,right,→,0.5175404001493007,True,45,-,-,-
Y2-S2-031M33,-,21,PS,adaptive,42,↑,down,↓,1.4432300999760628,False,10,-1,0,0
Y2-S2-031M33,-,22,PS,adaptive,28,→,right,→,0.4809705999214202,True,11,-1,0,0
Y2-S2-031M33,-,23,PS,adaptive,32,↓,right,→,1.0466201000381261,False,11,-1,0,0
Y2-S2-031M33,-,24,PS,adaptive,49,↑,up,↑,0.5865589999593794,True,12,-1,0,0
Y2-S2-031M33,-,25,PS,adaptive,32,←,right,→,0.7683959000278264,False,12,-1,0,0
Y2-S2-031M33,-,26,PS,adaptive,41,↑,up,↑,0.42170760012231767,True,13,-1,0,0
Y2-S2-031M33,-,27,PS,adaptive,39,←,right,→,0.7881620000116527,False,13,-1,0,0
Y2-S2-031M33,-,28,PS,adaptive,36,↑,up,↑,0.43243979988619685,True,14,-1,0,0
Y2-S2-031M33,-,29,PS,adaptive,41,←,left,←,0.5390281998552382,True,14,-1,0,0
Y2-S2-031M33,-,30,PS,adaptive,45,→,right,→,0.5179826999083161,True,14,1,1,1
Y2-S2-031M33,-,31,PS,adaptive,27,←,left,←,0.5691180001012981,True,13,1,0,1
Y2-S2-031M33,-,32,PS,adaptive,29,→,up,↑,0.8693136998917907,False,13,-1,1,2
Y2-S2-031M33,-,33,PS,adaptive,48,↓,down,↓,0.6541253000032157,True,14,-1,0,2
Y2-S2-031M33,-,34,PS,adaptive,30,←,left,←,1.1181952999904752,True,14,-1,0,2
Y2-S2-031M33,-,35,PS,adaptive,32,↓,down,↓,0.6210104001220316,True,14,1,1,3
Y2-S2-031M33,-,36,PS,adaptive,43,←,right,→,0.7038829000666738,False,13,-1,1,4
Y2-S2-031M33,-,37,AS,adaptive,29,→,right,→,0.6537438000086695,True,20,0,0,0
Y2-S2-031M33,-,38,AS,adaptive,44,←,right,→,0.7154392001684755,False,20,-1,0,0
Y2-S2-031M33,-,39,AS,adaptive,31,↓,right,→,1.1209974999073893,False,21,-1,0,0
Y2-S2-031M33,-,40,AS,adaptive,42,→,right,→,0.6367788999341428,True,22,-1,0,0
Y2-S2-031M33,-,41,AS,adaptive,49,↓,down,↓,0.6432724001351744,True,22,-1,0,0
Y2-S2-031M33,-,42,AS,adaptive,39,←,left,←,0.7509475001133978,True,22,1,1,1
Y2-S2-031M33,-,43,AS,adaptive,30,↑,up,↑,0.5600870000198483,True,21,1,0,1
Y2-S2-031M33,-,44,AS,adaptive,42,↓,down,↓,0.65427380008623,True,21,1,0,1
Y2-S2-031M33,-,45,AS,adaptive,31,↑,up,↑,0.7466870001517236,True,21,1,0,1
Y2-S2-031M33,-,46,AS,adaptive,34,↓,down,↓,0.5288768000900745,True,20,1,0,1
Y2-S2-031M33,-,47,AS,adaptive,35,→,right,→,0.6711786999367177,True,20,1,0,1
Y2-S2-031M33,-,48,AS,adaptive,36,←,left,←,0.7232464000117034,True,20,1,0,1
Y2-S2-031M33,-,49,AS,adaptive,47,↓,right,→,1.0288772999774665,False,19,-1,1,2
Y2-S2-031M33,-,50,AS,adaptive,28,↑,right,→,0.6895409000571817,False,20,-1,0,2
Y2-S2-031M33,-,51,AS,adaptive,47,←,left,←,0.690270199906081,True,21,-1,0,2
Y2-S2-031M33,-,52,AS,adaptive,45,↓,down,↓,0.766057499917224,True,21,-1,0,2
Y2-S2-031M33,-,53,AS,adaptive,25,→,left,←,0.5857241998892277,False,21,-1,0,2
Y2-S2-031M33,-,54,AS,adaptive,34,↑,up,↑,0.7693295001517981,True,22,-1,0,2
Y2-S2-031M33,-,55,AS,adaptive,47,←,left,←,0.5931978998705745,True,22,-1,0,2
Y2-S2-031M33,-,56,AS,adaptive,34,→,right,→,0.5887701001483947,True,22,1,1,3
Y2-S2-031M33,-,57,AS,adaptive,30,↓,down,↓,0.5614227000623941,True,21,1,0,3
Y2-S2-031M33,-,58,AS,adaptive,40,↑,up,↑,0.9695939000230283,True,21,1,0,3
Y2-S2-031M33,-,59,AS,adaptive,46,↓,up,↑,0.9209084999747574,False,21,-1,1,4
Y2-S2-031M33,1,60,PS,intra_train,32,→,right,→,0.535295199835673,True,21,-,-,-
Y2-S2-031M33,1,61,PS,intra_train,48,↓,down,↓,0.5475670001469553,True,21,-,-,-
Y2-S2-031M33,1,62,PS,intra_train,39,→,right,→,0.7699219998903573,True,21,-,-,-
Y2-S2-031M33,1,63,PS,intra_train,28,↑,up,↑,0.4501557999756187,True,21,-,-,-
Y2-S2-031M33,1,64,PS,intra_train,40,→,right,→,0.41738350014202297,True,21,-,-,-
Y2-S2-031M33,1,65,PS,exp,36,↑,right,→,0.8203666000626981,False,14,-1,0,0
Y2-S2-031M33,1,66,PS,exp,27,↓,down,↓,0.5302913000341505,True,15,-1,0,0
Y2-S2-031M33,1,67,PS,exp,47,←,left,←,0.45750719984062016,True,15,-1,0,0
Y2-S2-031M33,1,68,PS,exp,45,→,right,→,0.43823969992809,True,15,1,1,1
Y2-S2-031M33,1,69,PS,exp,29,↑,left,←,0.7318548001348972,False,14,-1,1,2
Y2-S2-031M33,1,70,PS,exp,41,←,left,←,0.47245680005289614,True,15,-1,0,2
Y2-S2-031M33,1,71,PS,exp,39,↓,right,→,0.46425079996697605,False,15,-1,0,2
Y2-S2-031M33,1,72,PS,exp,28,→,right,→,0.8087300998158753,True,16,-1,0,2
Y2-S2-031M33,1,73,PS,exp,48,↓,down,↓,0.5383379000704736,True,16,-1,0,2
Y2-S2-031M33,1,74,PS,exp,35,→,no_key,no_letter,-1.0,False,16,-1,0,2
Y2-S2-031M33,1,75,PS,exp,42,↑,up,↑,0.47857869998551905,True,17,-1,0,2
Y2-S2-031M33,1,76,PS,exp,31,↓,down,↓,0.5012600000482053,True,17,-1,0,2
Y2-S2-031M33,1,77,PS,exp,32,→,right,→,0.678138499846682,True,17,1,1,3
Y2-S2-031M33,1,78,PS,exp,29,↑,no_key,no_letter,-1.0,False,16,-1,1,4
Y2-S2-031M33,1,79,PS,exp,31,→,right,→,0.400296299951151,True,17,-1,0,4
Y2-S2-031M33,1,80,PS,exp,37,↑,up,↑,0.4007341999094933,True,17,-1,0,4
Y2-S2-031M33,1,81,PS,exp,38,→,right,→,1.848483799956739,True,17,1,1,5
Y2-S2-031M33,1,82,PS,exp,31,←,right,→,1.2054514000192285,False,16,-1,1,6
Y2-S2-031M33,1,83,PS,exp,36,→,right,→,1.1028422999661416,True,17,-1,0,6
Y2-S2-031M33,1,84,PS,exp,32,↓,down,↓,0.5428267999086529,True,17,-1,0,6
Y2-S2-031M33,1,85,PS,exp,30,←,no_key,no_letter,-1.0,False,17,-1,0,6
Y2-S2-031M33,1,86,PS,exp,38,↑,up,↑,0.4336314999964088,True,18,-1,0,6
Y2-S2-031M33,1,87,PS,exp,27,→,right,→,0.967711600009352,True,18,-1,0,6
Y2-S2-031M33,1,88,PS,exp,46,↓,down,↓,0.6317202998325229,True,18,1,1,7
Y2-S2-031M33,1,89,PS,exp,46,←,left,←,0.4669823001604527,True,17,1,0,7
Y2-S2-031M33,1,90,PS,exp,38,↑,up,↑,0.4171654998790473,True,17,1,0,7
Y2-S2-031M33,1,91,PS,exp,35,↓,down,↓,0.6876901998184621,True,17,1,0,7
Y2-S2-031M33,1,92,PS,exp,36,→,up,↑,0.8244141000322998,False,16,-1,1,8
Y2-S2-031M33,1,93,PS,exp,42,←,right,→,0.8088959997985512,False,17,-1,0,8
Y2-S2-031M33,1,94,PS,exp,46,→,right,→,0.7230207999236882,True,18,-1,0,8
Y2-S2-031M33,1,95,PS,exp,48,↓,left,←,0.6058546998538077,False,18,-1,0,8
Y2-S2-031M33,1,96,PS,exp,48,→,right,→,0.5806732000783086,True,19,-1,0,8
Y2-S2-031M33,1,97,PS,exp,26,←,left,←,0.4003808998968452,True,19,-1,0,8
Y2-S2-031M33,1,98,PS,exp,35,↑,right,→,0.6265355998184532,False,19,-1,0,8
Y2-S2-031M33,1,99,PS,exp,50,←,left,←,0.3670730001758784,True,20,-1,0,8
Y2-S2-031M33,1,100,PS,exp,49,→,right,→,0.5210062998812646,True,20,-1,0,8
Y2-S2-031M33,1,101,PS,exp,42,↓,right,→,0.5078052000608295,False,20,-1,0,8
Y2-S2-031M33,1,102,PS,exp,32,→,right,→,0.5262466999702156,True,21,-1,0,8
Y2-S2-031M33,1,103,PS,exp,40,←,left,←,0.524781099986285,True,21,-1,0,8
Y2-S2-031M33,1,104,PS,exp,27,↑,down,↓,0.7555452999658883,False,21,-1,0,8
Y2-S2-031M33,1,105,PS,exp,34,←,left,←,0.4504035001154989,True,22,-1,0,8
Y2-S2-031M33,1,106,PS,exp,28,→,right,→,0.4507667999714613,True,22,-1,0,8
Y2-S2-031M33,1,107,PS,exp,27,↑,up,↑,0.541868899948895,True,22,1,1,9
Y2-S2-031M33,1,108,PS,exp,26,→,right,→,0.5900144001934677,True,21,1,0,9
Y2-S2-031M33,1,109,PS,exp,42,↑,up,↑,0.45084499986842275,True,21,1,0,9
Y2-S2-031M33,1,110,PS,exp,26,↓,down,↓,0.7051625999156386,True,21,1,0,9
Y2-S2-031M33,1,111,PS,exp,42,←,left,←,0.5619673000182956,True,20,1,0,9
Y2-S2-031M33,1,112,PS,exp,26,↓,right,→,1.2098683000076562,False,20,-1,1,10
Y2-S2-031M33,1,113,PS,exp,30,↑,up,↑,0.7960566999390721,True,21,-1,0,10
Y2-S2-031M33,1,114,PS,exp,28,→,right,→,0.4174250001087785,True,21,-1,0,10
Y2-S2-031M33,1,115,PS,exp,41,↑,up,↑,0.6673041000030935,True,21,1,1,11
Y2-S2-031M33,1,116,PS,exp,26,←,left,←,0.501502700150013,True,20,1,0,11
Y2-S2-031M33,1,117,PS,exp,37,→,right,→,0.5641424001660198,True,20,1,0,11
Y2-S2-031M33,1,118,PS,exp,36,↑,left,←,0.35035670013166964,False,20,-1,1,12
Y2-S2-031M33,1,119,PS,exp,26,→,right,→,0.4673564999829978,True,21,-1,0,12
Y2-S2-031M33,1,120,PS,exp,38,←,left,←,0.608420800184831,True,21,-1,0,12
Y2-S2-031M33,1,121,PS,exp,48,↓,down,↓,0.8145578999537975,True,21,1,1,13
Y2-S2-031M33,1,122,PS,exp,26,↑,up,↑,0.46724950009956956,True,20,1,0,13
Y2-S2-031M33,1,123,PS,exp,31,↓,down,↓,0.6632046001031995,True,20,1,0,13
Y2-S2-031M33,1,124,PS,exp,30,←,left,←,0.6454328000545502,True,20,1,0,13
Y2-S2-031M33,1,125,PS,exp,34,→,right,→,0.6078843998257071,True,19,1,0,13
Y2-S2-031M33,1,126,PS,exp,46,←,right,→,0.748414000030607,False,19,-1,1,14
Y2-S2-031M33,1,127,PS,exp,36,↑,up,↑,0.4341622998472303,True,20,-1,0,14
Y2-S2-031M33,1,128,PS,exp,39,↓,down,↓,0.5311272998806089,True,20,-1,0,14
Y2-S2-031M33,1,129,PS,exp,38,→,right,→,0.4339183000847697,True,20,1,1,15
Y2-S2-031M33,1,130,PS,exp,33,↓,down,↓,0.5236795002128929,True,19,1,0,15
Y2-S2-031M33,1,131,PS,exp,45,→,right,→,0.5030612000264227,True,19,1,0,15
Y2-S2-031M33,1,132,PS,exp,35,↓,right,→,0.7571302000433207,False,19,-1,1,16
Y2-S2-031M33,2,133,AS,intra_train,40,↑,up,↑,0.6677618999965489,True,33,-,-,-
Y2-S2-031M33,2,134,AS,intra_train,41,←,left,←,0.5840139000210911,True,33,-,-,-
Y2-S2-031M33,2,135,AS,intra_train,25,→,left,←,0.5507248998619616,False,33,-,-,-
Y2-S2-031M33,2,136,AS,intra_train,31,↓,down,↓,0.749052100116387,True,33,-,-,-
Y2-S2-031M33,2,137,AS,intra_train,28,↑,up,↑,0.7230110999662429,True,33,-,-,-
Y2-S2-031M33,2,138,AS,exp,47,←,left,←,0.7290141999255866,True,22,0,0,0
Y2-S2-031M33,2,139,AS,exp,40,↑,up,↑,0.6434768999461085,True,22,0,0,0
Y2-S2-031M33,2,140,AS,exp,37,↓,up,↑,0.7886306999716908,False,22,-1,0,0
Y2-S2-031M33,2,141,AS,exp,36,↑,up,↑,0.3673481000587344,True,23,-1,0,0
Y2-S2-031M33,2,142,AS,exp,44,↓,up,↑,0.35121580003760755,False,23,-1,0,0
Y2-S2-031M33,2,143,AS,exp,35,↑,up,↑,0.9408464999869466,True,24,-1,0,0
Y2-S2-031M33,2,144,AS,exp,37,↓,down,↓,0.5173660998698324,True,24,-1,0,0
Y2-S2-031M33,2,145,AS,exp,32,→,right,→,0.48402620013803244,True,24,1,1,1
Y2-S2-031M33,2,146,AS,exp,45,↓,no_key,no_letter,-1.0,False,23,-1,1,2
Y2-S2-031M33,2,147,AS,exp,46,→,right,→,0.7442023998592049,True,24,-1,0,2
Y2-S2-031M33,2,148,AS,exp,31,←,left,←,0.9905300000682473,True,24,-1,0,2
Y2-S2-031M33,2,149,AS,exp,47,↓,down,↓,1.7279445000458509,True,24,1,1,3
Y2-S2-031M33,2,150,AS,exp,49,↑,up,↑,0.4677628001663834,True,23,1,0,3
Y2-S2-031M33,2,151,AS,exp,27,←,left,←,0.48400730011053383,True,23,1,0,3
Y2-S2-031M33,2,152,AS,exp,47,↓,right,→,0.7948475000448525,False,23,-1,1,4
Y2-S2-031M33,2,153,AS,exp,47,→,right,→,0.7515195000451058,True,24,-1,0,4
Y2-S2-031M33,2,154,AS,exp,35,←,right,→,0.5005465999711305,False,24,-1,0,4
Y2-S2-031M33,2,155,AS,exp,25,↑,up,↑,0.41768379998393357,True,25,-1,0,4
Y2-S2-031M33,2,156,AS,exp,31,→,right,→,0.6577441999688745,True,25,-1,0,4
Y2-S2-031M33,2,157,AS,exp,31,←,left,←,0.7108915999997407,True,25,1,1,5
Y2-S2-031M33,2,158,AS,exp,47,↑,up,↑,0.6938039001543075,True,24,1,0,5
Y2-S2-031M33,2,159,AS,exp,33,↓,down,↓,0.5171194998547435,True,24,1,0,5
Y2-S2-031M33,2,160,AS,exp,34,↑,up,↑,0.38409690000116825,True,24,1,0,5
Y2-S2-031M33,2,161,AS,exp,33,←,left,←,0.3839402999728918,True,23,1,0,5
Y2-S2-031M33,2,162,AS,exp,50,↑,up,↑,0.8133495999500155,True,23,1,0,5
Y2-S2-031M33,2,163,AS,exp,43,→,right,→,0.5711260000243783,True,23,1,0,5
Y2-S2-031M33,2,164,AS,exp,33,←,left,←,0.8489756998606026,True,22,1,0,5
Y2-S2-031M33,2,165,AS,exp,49,→,right,→,0.8269024000037462,True,22,1,0,5
Y2-S2-031M33,2,166,AS,exp,26,↓,down,↓,0.5857329000718892,True,22,1,0,5
Y2-S2-031M33,2,167,AS,exp,35,↑,up,↑,0.40040550008416176,True,21,1,0,5
Y2-S2-031M33,2,168,AS,exp,41,←,left,←,0.4171285000629723,True,21,1,0,5
Y2-S2-031M33,2,169,AS,exp,40,→,right,→,1.0994812999852002,True,21,1,0,5
Y2-S2-031M33,2,170,AS,exp,28,↓,down,↓,0.5583083999808878,True,20,1,0,5
Y2-S2-031M33,2,171,AS,exp,25,↑,right,→,0.6619486000854522,False,20,-1,1,6
Y2-S2-031M33,2,172,AS,exp,32,↓,right,→,0.9770911999512464,False,21,-1,0,6
Y2-S2-031M33,2,173,AS,exp,26,↑,up,↑,0.7446910000871867,True,22,-1,0,6
Y2-S2-031M33,2,174,AS,exp,43,→,right,→,0.8883711998350918,True,22,-1,0,6
Y2-S2-031M33,2,175,AS,exp,40,↑,up,↑,0.4174571998883039,True,22,1,1,7
Y2-S2-031M33,2,176,AS,exp,42,↓,right,→,0.7141339001245797,False,21,-1,1,8
Y2-S2-031M33,2,177,AS,exp,28,↑,up,↑,0.40051409997977316,True,22,-1,0,8
Y2-S2-031M33,2,178,AS,exp,49,→,right,→,0.4508644000161439,True,22,-1,0,8
Y2-S2-031M33,2,179,AS,exp,34,←,left,←,0.41718150000087917,True,22,1,1,9
Y2-S2-031M33,2,180,AS,exp,41,→,right,→,0.3503743000328541,True,21,1,0,9
Y2-S2-031M33,2,181,AS,exp,28,←,right,→,0.6704051999840885,False,21,-1,1,10
Y2-S2-031M33,2,182,AS,exp,42,↓,down,↓,0.579947300022468,True,22,-1,0,10
Y2-S2-031M33,2,183,AS,exp,44,↑,up,↑,0.43412879994139075,True,22,-1,0,10
Y2-S2-031M33,2,184,AS,exp,25,←,left,←,0.43410259997472167,True,22,1,1,11
Y2-S2-031M33,2,185,AS,exp,31,→,right,→,0.43371489993296564,True,21,1,0,11
Y2-S2-031M33,2,186,AS,exp,46,↓,down,↓,0.5224196999333799,True,21,1,0,11
Y2-S2-031M33,2,187,AS,exp,50,→,right,→,0.9365571001544595,True,21,1,0,11
Y2-S2-031M33,2,188,AS,exp,48,↑,left,←,0.5226531999651343,False,20,-1,1,12
Y2-S2-031M33,2,189,AS,exp,35,→,right,→,0.433861400000751,True,21,-1,0,12
Y2-S2-031M33,2,190,AS,exp,38,↑,up,↑,0.3839815000537783,True,21,-1,0,12
Y2-S2-031M33,2,191,AS,exp,28,↓,down,↓,0.8020560999866575,True,21,1,1,13
Y2-S2-031M33,2,192,AS,exp,35,→,right,→,0.7040693000890315,True,20,1,0,13
Y2-S2-031M33,2,193,AS,exp,31,↑,right,→,0.5322823999449611,False,20,-1,1,14
Y2-S2-031M33,2,194,AS,exp,40,↓,right,→,0.3178278000559658,False,21,-1,0,14
Y2-S2-031M33,2,195,AS,exp,37,→,right,→,0.7307815998792648,True,22,-1,0,14
Y2-S2-031M33,2,196,AS,exp,48,←,left,←,0.4340239001903683,True,22,-1,0,14
Y2-S2-031M33,2,197,AS,exp,40,↑,up,↑,0.4000234000850469,True,22,1,1,15
Y2-S2-031M33,2,198,AS,exp,32,→,right,→,0.46712759998627007,True,21,1,0,15
Y2-S2-031M33,2,199,AS,exp,47,←,left,←,1.1278659000527114,True,21,1,0,15
Y2-S2-031M33,2,200,AS,exp,48,↓,right,→,0.5889627998694777,False,21,-1,1,16
Y2-S2-031M33,3,201,AS,intra_train,26,↑,up,↑,0.5508702001534402,True,33,-,-,-
Y2-S2-031M33,3,202,AS,intra_train,37,↓,right,→,0.5505854000803083,False,33,-,-,-
Y2-S2-031M33,3,203,AS,intra_train,34,↑,left,←,0.4842904999386519,False,33,-,-,-
Y2-S2-031M33,3,204,AS,intra_train,37,→,right,→,0.6170973998960108,True,33,-,-,-
Y2-S2-031M33,3,205,AS,intra_train,45,←,left,←,0.7195966001600027,True,33,-,-,-
Y2-S2-031M33,3,206,AS,exp,38,→,right,→,0.4837275000754744,True,22,0,0,0
Y2-S2-031M33,3,207,AS,exp,26,↓,down,↓,0.7772011000197381,True,22,0,0,0
Y2-S2-031M33,3,208,AS,exp,29,←,left,←,0.7766011999920011,True,22,1,0,0
Y2-S2-031M33,3,209,AS,exp,38,↑,up,↑,0.434006700059399,True,21,1,0,0
Y2-S2-031M33,3,210,AS,exp,39,←,left,←,0.40070610004477203,True,21,1,0,0
Y2-S2-031M33,3,211,AS,exp,29,→,right,→,0.4507586997933686,True,21,1,0,0
Y2-S2-031M33,3,212,AS,exp,47,↑,up,↑,0.7130344999022782,True,20,1,0,0
Y2-S2-031M33,3,213,AS,exp,49,→,right,→,1.0886707999743521,True,20,1,0,0
Y2-S2-031M33,3,214,AS,exp,42,↓,down,↓,0.5101890000514686,True,20,1,0,0
Y2-S2-031M33,3,215,AS,exp,35,←,left,←,0.9045432999264449,True,19,1,0,0
Y2-S2-031M33,3,216,AS,exp,29,→,right,→,0.7341396999545395,True,19,1,0,0
Y2-S2-031M33,3,217,AS,exp,43,↓,down,↓,0.491444599814713,True,19,1,0,0
Y2-S2-031M33,3,218,AS,exp,50,→,right,→,0.5649049000348896,True,18,1,0,0
Y2-S2-031M33,3,219,AS,exp,26,↓,left,←,0.6609580998774618,False,18,-1,1,1
Y2-S2-031M33,3,220,AS,exp,37,↑,up,↑,0.45033150003291667,True,19,-1,0,1
Y2-S2-031M33,3,221,AS,exp,30,←,right,→,0.6296788998879492,False,19,-1,0,1
Y2-S2-031M33,3,222,AS,exp,46,→,left,←,0.5798126999288797,False,20,-1,0,1
Y2-S2-031M33,3,223,AS,exp,43,←,left,←,0.3673111000098288,True,21,-1,0,1
Y2-S2-031M33,3,224,AS,exp,48,↓,down,↓,0.6128175999037921,True,21,-1,0,1
Y2-S2-031M33,3,225,AS,exp,30,←,right,→,0.5238330999854952,False,21,-1,0,1
Y2-S2-031M33,3,226,AS,exp,47,↑,up,↑,0.6836008001118898,True,22,-1,0,1
Y2-S2-031M33,3,227,AS,exp,39,→,right,→,0.4171933999750763,True,22,-1,0,1
Y2-S2-031M33,3,228,AS,exp,34,↑,up,↑,0.48363619996234775,True,22,1,1,2
Y2-S2-031M33,3,229,AS,exp,33,←,up,↑,0.4005757998675108,False,21,-1,1,3
Y2-S2-031M33,3,230,AS,exp,38,↓,down,↓,0.860977599862963,True,22,-1,0,3
Y2-S2-031M33,3,231,AS,exp,45,→,right,→,1.0855409998912364,True,22,-1,0,3
Y2-S2-031M33,3,232,AS,exp,29,↑,up,↑,0.8196628999430686,True,22,1,1,4
Y2-S2-031M33,3,233,AS,exp,30,←,left,←,0.7668868000619113,True,21,1,0,4
Y2-S2-031M33,3,234,AS,exp,25,↑,up,↑,0.433341900119558,True,21,1,0,4
Y2-S2-031M33,3,235,AS,exp,39,←,left,←,0.36734260013327,True,21,1,0,4
Y2-S2-031M33,3,236,AS,exp,26,→,left,←,0.5840481999330223,False,20,-1,1,5
Y2-S2-031M33,3,237,AS,exp,35,↑,up,↑,0.4340300001204014,True,21,-1,0,5
Y2-S2-031M33,3,238,AS,exp,30,←,left,←,0.40074800001457334,True,21,-1,0,5
Y2-S2-031M33,3,239,AS,exp,45,↑,up,↑,0.8262183000333607,True,21,1,1,6
Y2-S2-031M33,3,240,AS,exp,28,↓,up,↑,1.006949600065127,False,20,-1,1,7
Y2-S2-031M33,3,241,AS,exp,27,←,right,→,0.5460304000880569,False,21,-1,0,7
Y2-S2-031M33,3,242,AS,exp,37,↑,up,↑,0.623767200158909,True,22,-1,0,7
Y2-S2-031M33,3,243,AS,exp,40,↓,down,↓,0.931423099944368,True,22,-1,0,7
Y2-S2-031M33,3,244,AS,exp,25,←,left,←,0.46736499993130565,True,22,1,1,8
Y2-S2-031M33,3,245,AS,exp,25,↓,down,↓,0.9787513001356274,True,21,1,0,8
Y2-S2-031M33,3,246,AS,exp,48,→,right,→,0.8157836999744177,True,21,1,0,8
Y2-S2-031M33,3,247,AS,exp,28,←,left,←,0.45152410003356636,True,21,1,0,8
Y2-S2-031M33,3,248,AS,exp,39,↑,up,↑,0.4342213999480009,True,20,1,0,8
Y2-S2-031M33,3,249,AS,exp,33,↓,right,→,0.7324876999482512,False,20,-1,1,9
Y2-S2-031M33,3,250,AS,exp,39,↑,up,↑,0.4171708000358194,True,21,-1,0,9
Y2-S2-031M33,3,251,AS,exp,41,→,right,→,0.5303307001013309,True,21,-1,0,9
Y2-S2-031M33,3,252,AS,exp,42,↓,down,↓,0.800158099969849,True,21,1,1,10
Y2-S2-031M33,3,253,AS,exp,42,←,left,←,0.6413370000664145,True,20,1,0,10
Y2-S2-031M33,3,254,AS,exp,36,↓,down,↓,0.8918689999263734,True,20,1,0,10
Y2-S2-031M33,3,255,AS,exp,48,→,right,→,0.6890642000362277,True,20,1,0,10
Y2-S2-031M33,3,256,AS,exp,43,←,left,←,0.4506963000167161,True,19,1,0,10
Y2-S2-031M33,3,257,AS,exp,25,↓,down,↓,0.6513617001473904,True,19,1,0,10
Y2-S2-031M33,3,258,AS,exp,39,↑,up,↑,0.7890807001385838,True,19,1,0,10
Y2-S2-031M33,3,259,AS,exp,45,→,left,←,0.9030485998373479,False,18,-1,1,11
Y2-S2-031M33,3,260,AS,exp,25,↑,left,←,0.8987835999578238,False,19,-1,0,11
Y2-S2-031M33,3,261,AS,exp,42,↓,down,↓,0.511853100033477,True,20,-1,0,11
Y2-S2-031M33,3,262,AS,exp,26,←,left,←,0.3850424000993371,True,20,-1,0,11
Y2-S2-031M33,3,263,AS,exp,42,↓,right,→,0.910658799810335,False,20,-1,0,11
Y2-S2-031M33,3,264,AS,exp,26,←,right,→,0.6869115000590682,False,21,-1,0,11
Y2-S2-031M33,3,265,AS,exp,25,→,right,→,0.806630700128153,True,22,-1,0,11
Y2-S2-031M33,3,266,AS,exp,26,↑,up,↑,0.4508078000508249,True,22,-1,0,11
Y2-S2-031M33,3,267,AS,exp,45,←,left,←,0.8085075002163649,True,22,1,1,12
Y2-S2-031M33,3,268,AS,exp,28,↑,right,→,1.1674641999416053,False,21,-1,1,13
Y2-S2-031M33,3,269,AS,exp,26,→,right,→,0.43406399991363287,True,22,-1,0,13
Y2-S2-031M33,3,270,AS,exp,49,←,left,←,0.7320149999577552,True,22,-1,0,13
Y2-S2-031M33,3,271,AS,exp,42,↑,right,→,0.9676495001185685,False,22,-1,0,13
Y2-S2-031M33,3,272,AS,exp,31,→,right,→,0.6207437999546528,True,23,-1,0,13
Y2-S2-031M33,3,273,AS,exp,33,↑,up,↑,0.501369799952954,True,23,-1,0,13
Y2-S2-031M33,3,274,AS,exp,27,↓,down,↓,0.8425248998682946,True,23,1,1,14
Y2-S2-031M33,3,275,AS,exp,45,↑,up,↑,0.7519044000655413,True,22,1,0,14
Y2-S2-031M33,3,276,AS,exp,40,↓,down,↓,0.7951512997969985,True,22,1,0,14
Y2-S2-031M33,3,277,AS,exp,45,↑,right,→,0.5519542000256479,False,22,-1,1,15
Y2-S2-031M33,3,278,AS,exp,31,→,right,→,0.48396240011788905,True,23,-1,0,15
Y2-S2-031M33,3,279,AS,exp,36,↑,up,↑,0.35092959995381534,True,23,-1,0,15
Y2-S2-031M33,3,280,AS,exp,44,←,left,←,0.4672103999182582,True,23,1,1,16
Y2-S2-031M33,4,281,PS,intra_train,36,→,right,→,1.1100302000995725,True,21,-,-,-
Y2-S2-031M33,4,282,PS,intra_train,39,↓,down,↓,0.5987016998697072,True,21,-,-,-
Y2-S2-031M33,4,283,PS,intra_train,46,→,right,→,0.6892304001376033,True,21,-,-,-
Y2-S2-031M33,4,284,PS,intra_train,25,↑,up,↑,1.012497500050813,True,21,-,-,-
Y2-S2-031M33,4,285,PS,intra_train,30,→,right,→,0.5216687000356615,True,21,-,-,-
Y2-S2-031M33,4,286,PS,exp,29,↑,left,←,0.43458370002917945,False,14,-1,0,0
Y2-S2-031M33,4,287,PS,exp,30,↓,down,↓,0.5911010999698192,True,15,-1,0,0
Y2-S2-031M33,4,288,PS,exp,25,→,right,→,0.5707038000691682,True,15,-1,0,0
Y2-S2-031M33,4,289,PS,exp,27,↓,right,→,0.5250150999054313,False,15,-1,0,0
Y2-S2-031M33,4,290,PS,exp,34,→,right,→,0.4988329999614507,True,16,-1,0,0
Y2-S2-031M33,4,291,PS,exp,41,↓,down,↓,0.6576676999684423,True,16,-1,0,0
Y2-S2-031M33,4,292,PS,exp,25,→,right,→,0.56143520004116,True,16,1,1,1
Y2-S2-031M33,4,293,PS,exp,48,↑,left,←,0.7325104000046849,False,15,-1,1,2
Y2-S2-031M33,4,294,PS,exp,33,→,right,→,0.5043786999303848,True,16,-1,0,2
Y2-S2-031M33,4,295,PS,exp,34,←,left,←,0.47343929996713996,True,16,-1,0,2
Y2-S2-031M33,4,296,PS,exp,38,↑,up,↑,0.7264762001577765,True,16,1,1,3
Y2-S2-031M33,4,297,PS,exp,38,→,right,→,0.5153334999922663,True,15,1,0,3
Y2-S2-031M33,4,298,PS,exp,28,←,right,→,0.5175800998695195,False,15,-1,1,4
Y2-S2-031M33,4,299,PS,exp,40,→,right,→,0.4524399999063462,True,16,-1,0,4
Y2-S2-031M33,4,300,PS,exp,35,←,right,→,0.5996099000331014,False,16,-1,0,4
Y2-S2-031M33,4,301,PS,exp,45,↓,down,↓,0.7054849001578987,True,17,-1,0,4
Y2-S2-031M33,4,302,PS,exp,45,←,left,←,0.5039236000739038,True,17,-1,0,4
Y2-S2-031M33,4,303,PS,exp,33,↑,right,→,0.8215669998899102,False,17,-1,0,4
Y2-S2-031M33,4,304,PS,exp,43,→,right,→,0.6141456998884678,True,18,-1,0,4
Y2-S2-031M33,4,305,PS,exp,32,↑,left,←,1.0603067001793534,False,18,-1,0,4
Y2-S2-031M33,4,306,PS,exp,33,↓,left,←,0.4003460998646915,False,19,-1,0,4
Y2-S2-031M33,4,307,PS,exp,36,↑,up,↑,0.7879359000362456,True,20,-1,0,4
Y2-S2-031M33,4,308,PS,exp,37,↓,right,→,0.5085233000572771,False,20,-1,0,4
Y2-S2-031M33,4,309,PS,exp,27,←,right,→,0.5553596999961883,False,21,-1,0,4
Y2-S2-031M33,4,310,PS,exp,44,→,right,→,0.4843150000087917,True,22,-1,0,4
Y2-S2-031M33,4,311,PS,exp,33,←,left,←,0.45142509997822344,True,22,-1,0,4
Y2-S2-031M33,4,312,PS,exp,28,↑,up,↑,0.703601400135085,True,22,1,1,5
Y2-S2-031M33,4,313,PS,exp,27,←,left,←,0.6060987999662757,True,21,1,0,5
Y2-S2-031M33,4,314,PS,exp,37,↓,down,↓,0.6708817000035197,True,21,1,0,5
Y2-S2-031M33,4,315,PS,exp,30,↑,up,↑,0.5982671000529081,True,21,1,0,5
Y2-S2-031M33,4,316,PS,exp,40,↓,down,↓,0.5454025999642909,True,20,1,0,5
Y2-S2-031M33,4,317,PS,exp,36,←,left,←,0.7315602998714894,True,20,1,0,5
Y2-S2-031M33,4,318,PS,exp,28,↓,down,↓,0.5950255000498146,True,20,1,0,5
Y2-S2-031M33,4,319,PS,exp,42,→,right,→,0.7571038999594748,True,19,1,0,5
Y2-S2-031M33,4,320,PS,exp,26,↑,up,↑,0.7407724999357015,True,19,1,0,5
Y2-S2-031M33,4,321,PS,exp,38,←,left,←,0.6945517000276595,True,19,1,0,5
Y2-S2-031M33,4,322,PS,exp,29,↑,left,←,0.8181283001322299,False,18,-1,1,6
Y2-S2-031M33,4,323,PS,exp,39,→,right,→,0.49508200003765523,True,19,-1,0,6
Y2-S2-031M33,4,324,PS,exp,38,↓,down,↓,0.5904498000163585,True,19,-1,0,6
Y2-S2-031M33,4,325,PS,exp,25,↑,right,→,1.174362399848178,False,19,-1,0,6
Y2-S2-031M33,4,326,PS,exp,40,←,right,→,1.0430815999861807,False,20,-1,0,6
Y2-S2-031M33,4,327,PS,exp,42,↑,up,↑,0.7549723000265658,True,21,-1,0,6
Y2-S2-031M33,4,328,PS,exp,36,←,left,←,0.6092008999548852,True,21,-1,0,6
Y2-S2-031M33,4,329,PS,exp,46,↑,up,↑,0.5597653998993337,True,21,1,1,7
Y2-S2-031M33,4,330,PS,exp,48,←,left,←,0.5378884000238031,True,20,1,0,7
Y2-S2-031M33,4,331,PS,exp,43,→,right,→,1.0000377998221666,True,20,1,0,7
Y2-S2-031M33,4,332,PS,exp,44,←,left,←,0.6196288999635726,True,20,1,0,7
Y2-S2-031M33,4,333,PS,exp,41,↑,up,↑,0.7389119998551905,True,19,1,0,7
Y2-S2-031M33,4,334,PS,exp,28,↓,left,←,0.962267299881205,False,19,-1,1,8
Y2-S2-031M33,4,335,PS,exp,49,↑,up,↑,0.5389986999798566,True,20,-1,0,8
Y2-S2-031M33,4,336,PS,exp,34,→,right,→,0.6187549000605941,True,20,-1,0,8
Y2-S2-031M33,4,337,PS,exp,32,↑,up,↑,0.4343569001648575,True,20,1,1,9
Y2-S2-031M33,4,338,PS,exp,26,↓,down,↓,0.8119633998721838,True,19,1,0,9
Y2-S2-031M33,4,339,PS,exp,39,←,left,←,0.4339621998369694,True,19,1,0,9
Y2-S2-031M33,4,340,PS,exp,46,↑,up,↑,0.5373704000376165,True,19,1,0,9
Y2-S2-031M33,4,341,PS,exp,43,↓,up,↑,1.289832100039348,False,18,-1,1,10
Y2-S2-031M33,4,342,PS,exp,29,←,right,→,1.1393034001812339,False,19,-1,0,10
Y2-S2-031M33,4,343,PS,exp,26,↓,left,←,0.9662005000282079,False,20,-1,0,10
Y2-S2-031M33,4,344,PS,exp,41,↑,up,↑,0.8217079997994006,True,21,-1,0,10
Y2-S2-031M33,4,345,PS,exp,42,→,right,→,0.9755989001132548,True,21,-1,0,10
Y2-S2-031M33,4,346,PS,exp,32,↓,left,←,1.6643874000292271,False,21,-1,0,10
Y2-S2-031M33,4,347,PS,exp,27,←,left,←,0.6615116000175476,True,22,-1,0,10
Y2-S2-031M33,4,348,PS,exp,41,↑,up,↑,0.6630851000081748,True,22,-1,0,10
Y2-S2-031M33,4,349,PS,exp,38,→,right,→,0.450385499978438,True,22,1,1,11
Y2-S2-031M33,4,350,PS,exp,34,←,left,←,0.5285875999834388,True,21,1,0,11
Y2-S2-031M33,4,351,PS,exp,36,→,right,→,0.6191327997948974,True,21,1,0,11
Y2-S2-031M33,4,352,PS,exp,44,↓,left,←,0.9055882999673486,False,21,-1,1,12
Y2-S2-031M33,4,353,PS,exp,39,←,left,←,0.5735325000714511,True,22,-1,0,12
Y2-S2-031M33,4,354,PS,exp,42,↑,up,↑,0.7196104000322521,True,22,-1,0,12
Y2-S2-031M33,4,355,PS,exp,37,←,left,←,0.5804500998929143,True,22,1,1,13
Y2-S2-031M33,4,356,PS,exp,45,↑,right,→,1.129456799943,False,21,-1,1,14
Y2-S2-031M33,4,357,PS,exp,40,←,left,←,0.4838078001048416,True,22,-1,0,14
Y2-S2-031M33,4,358,PS,exp,50,↑,up,↑,0.7967348999809474,True,22,-1,0,14
Y2-S2-031M33,4,359,PS,exp,28,→,right,→,0.5869450999889523,True,22,1,1,15
Y2-S2-031M33,4,360,PS,exp,49,↓,down,↓,0.7285859000403434,True,21,1,0,15
Y2-S2-031M33,4,361,PS,exp,46,↑,up,↑,0.48387289978563786,True,21,1,0,15
Y2-S2-031M33,4,362,PS,exp,45,↓,up,↑,0.9661968001164496,False,21,-1,1,16
Y2-S2-031M33,5,363,PS,intra_train,35,→,no_key,no_letter,-1.0,False,21,-,-,-
Y2-S2-031M33,5,364,PS,intra_train,42,←,left,←,0.6361012000124902,True,21,-,-,-
Y2-S2-031M33,5,365,PS,intra_train,48,↑,up,↑,0.45077130012214184,True,21,-,-,-
Y2-S2-031M33,5,366,PS,intra_train,39,→,right,→,0.6019458000082523,True,21,-,-,-
Y2-S2-031M33,5,367,PS,intra_train,46,↓,down,↓,0.5979396000038832,True,21,-,-,-
Y2-S2-031M33,5,368,PS,exp,27,↑,up,↑,0.49974030000157654,True,14,0,0,0
Y2-S2-031M33,5,369,PS,exp,47,→,left,←,0.7424713999498636,False,14,-1,0,0
Y2-S2-031M33,5,370,PS,exp,45,↓,right,→,0.7633235000539571,False,15,-1,0,0
Y2-S2-031M33,5,371,PS,exp,29,←,left,←,0.4881380998995155,True,16,-1,0,0
Y2-S2-031M33,5,372,PS,exp,46,→,right,→,0.48497439990751445,True,16,-1,0,0
Y2-S2-031M33,5,373,PS,exp,50,←,left,←,0.46191029995679855,True,16,1,1,1
Y2-S2-031M33,5,374,PS,exp,44,↓,down,↓,0.5974765000864863,True,15,1,0,1
Y2-S2-031M33,5,375,PS,exp,25,→,right,→,0.6437768000178039,True,15,1,0,1
Y2-S2-031M33,5,376,PS,exp,46,↑,up,↑,0.6562861998099834,True,15,1,0,1
Y2-S2-031M33,5,377,PS,exp,39,←,left,←,0.4309803999494761,True,14,1,0,1
Y2-S2-031M33,5,378,PS,exp,40,↓,down,↓,0.5683345999568701,True,14,1,0,1
Y2-S2-031M33,5,379,PS,exp,32,→,right,→,0.49035710003226995,True,14,1,0,1
Y2-S2-031M33,5,380,PS,exp,50,↑,up,↑,0.5567224000114948,True,13,1,0,1
Y2-S2-031M33,5,381,PS,exp,28,↓,down,↓,0.6520954000297934,True,13,1,0,1
Y2-S2-031M33,5,382,PS,exp,48,←,left,←,0.627961799968034,True,13,1,0,1
Y2-S2-031M33,5,383,PS,exp,44,↑,up,↑,0.4079398000612855,True,12,1,0,1
Y2-S2-031M33,5,384,PS,exp,41,←,left,←,0.45537559990771115,True,12,1,0,1
Y2-S2-031M33,5,385,PS,exp,35,→,left,←,0.8817368000745773,False,12,-1,1,2
Y2-S2-031M33,5,386,PS,exp,37,←,left,←,0.4651467001531273,True,13,-1,0,2
Y2-S2-031M33,5,387,PS,exp,39,→,right,→,0.4515104000456631,True,13,-1,0,2
Y2-S2-031M33,5,388,PS,exp,25,←,left,←,1.2059966998640448,True,13,1,1,3
Y2-S2-031M33,5,389,PS,exp,35,→,right,→,0.6170450001955032,True,12,1,0,3
Y2-S2-031M33,5,390,PS,exp,25,←,left,←,0.4271054998971522,True,12,1,0,3
Y2-S2-031M33,5,391,PS,exp,27,↑,right,→,0.5780735998414457,False,12,-1,1,4
Y2-S2-031M33,5,392,PS,exp,28,→,right,→,0.5143311000429094,True,13,-1,0,4
Y2-S2-031M33,5,393,PS,exp,41,←,right,→,0.5529618000146002,False,13,-1,0,4
Y2-S2-031M33,5,394,PS,exp,25,↓,up,↑,0.7509790000040084,False,14,-1,0,4
Y2-S2-031M33,5,395,PS,exp,47,←,left,←,0.44428409985266626,True,15,-1,0,4
Y2-S2-031M33,5,396,PS,exp,46,↓,down,↓,0.571312100160867,True,15,-1,0,4
Y2-S2-031M33,5,397,PS,exp,42,←,right,→,0.7060446001123637,False,15,-1,0,4
Y2-S2-031M33,5,398,PS,exp,50,↓,down,↓,0.599863100098446,True,16,-1,0,4
Y2-S2-031M33,5,399,PS,exp,38,↑,right,→,0.5014307000674307,False,16,-1,0,4
Y2-S2-031M33,5,400,PS,exp,31,↓,down,↓,0.7313437999691814,True,17,-1,0,4
Y2-S2-031M33,5,401,PS,exp,33,←,left,←,0.3344523999840021,True,17,-1,0,4
Y2-S2-031M33,5,402,PS,exp,41,↑,up,↑,0.5604389999061823,True,17,1,1,5
Y2-S2-031M33,5,403,PS,exp,25,←,left,←,0.40052400017157197,True,16,1,0,5
Y2-S2-031M33,5,404,PS,exp,38,↑,up,↑,0.38447230006568134,True,16,1,0,5
Y2-S2-031M33,5,405,PS,exp,37,↓,down,↓,0.5332144000567496,True,16,1,0,5
Y2-S2-031M33,5,406,PS,exp,27,↑,up,↑,0.44396890001371503,True,15,1,0,5
Y2-S2-031M33,5,407,PS,exp,28,←,left,←,0.7775626999791712,True,15,1,0,5
Y2-S2-031M33,5,408,PS,exp,40,↓,down,↓,0.5019391002133489,True,15,1,0,5
Y2-S2-031M33,5,409,PS,exp,42,←,left,←,0.8756753001362085,True,14,1,0,5
Y2-S2-031M33,5,410,PS,exp,41,↓,down,↓,0.5702603000681847,True,14,1,0,5
Y2-S2-031M33,5,411,PS,exp,32,↑,up,↑,0.7535472998861223,True,14,1,0,5
Y2-S2-031M33,5,412,PS,exp,38,↓,down,↓,0.5466079998295754,True,13,1,0,5
Y2-S2-031M33,5,413,PS,exp,28,→,right,→,0.5343782999552786,True,13,1,0,5
Y2-S2-031M33,5,414,PS,exp,44,↓,down,↓,0.4403691999614239,True,13,1,0,5
Y2-S2-031M33,5,415,PS,exp,33,→,up,↑,0.8879980000201613,False,12,-1,1,6
Y2-S2-031M33,5,416,PS,exp,27,←,up,↑,0.7137414000462741,False,13,-1,0,6
Y2-S2-031M33,5,417,PS,exp,28,↓,down,↓,0.4957612999714911,True,14,-1,0,6
Y2-S2-031M33,5,418,PS,exp,27,↑,right,→,1.099881500005722,False,14,-1,0,6
Y2-S2-031M33,5,419,PS,exp,32,↓,down,↓,0.5925731998868287,True,15,-1,0,6
Y2-S2-031M33,5,420,PS,exp,44,←,left,←,0.6558332000859082,True,15,-1,0,6
Y2-S2-031M33,5,421,PS,exp,31,→,right,→,0.5042618000879884,True,15,1,1,7
Y2-S2-031M33,5,422,PS,exp,30,↑,up,↑,0.437296099960804,True,14,1,0,7
Y2-S2-031M33,5,423,PS,exp,40,←,left,←,0.4304317000787705,True,14,1,0,7
Y2-S2-031M33,5,424,PS,exp,25,↓,down,↓,0.533557599876076,True,14,1,0,7
Y2-S2-031M33,5,425,PS,exp,29,→,right,→,0.4461455000564456,True,13,1,0,7
Y2-S2-031M33,5,426,PS,exp,43,↓,down,↓,0.5344704000744969,True,13,1,0,7
Y2-S2-031M33,5,427,PS,exp,42,←,left,←,0.8728267999831587,True,13,1,0,7
Y2-S2-031M33,5,428,PS,exp,29,↑,left,←,0.7436287000309676,False,12,-1,1,8
Y2-S2-031M33,5,429,PS,exp,45,←,left,←,0.4466658001765609,True,13,-1,0,8
Y2-S2-031M33,5,430,PS,exp,32,↓,right,→,0.8200405000243336,False,13,-1,0,8
Y2-S2-031M33,5,431,PS,exp,37,→,right,→,0.4818551999051124,True,14,-1,0,8
Y2-S2-031M33,5,432,PS,exp,40,↑,left,←,0.43257220019586384,False,14,-1,0,8
Y2-S2-031M33,5,433,PS,exp,29,←,left,←,0.6275055001024157,True,15,-1,0,8
Y2-S2-031M33,5,434,PS,exp,30,↓,down,↓,0.6646543999668211,True,15,-1,0,8
Y2-S2-031M33,5,435,PS,exp,42,←,left,←,0.43100830004550517,True,15,1,1,9
Y2-S2-031M33,5,436,PS,exp,27,↑,up,↑,0.41432400001212955,True,14,1,0,9
Y2-S2-031M33,5,437,PS,exp,27,↓,down,↓,0.7762757998425514,True,14,1,0,9
Y2-S2-031M33,5,438,PS,exp,45,↑,up,↑,0.5346756998915225,True,14,1,0,9
Y2-S2-031M33,5,439,PS,exp,45,←,left,←,0.448799500009045,True,13,1,0,9
Y2-S2-031M33,5,440,PS,exp,28,↑,up,↑,0.4167196999769658,True,13,1,0,9
Y2-S2-031M33,5,441,PS,exp,25,↓,left,←,0.6045935000292957,False,13,-1,1,10
Y2-S2-031M33,5,442,PS,exp,34,←,left,←,0.5971129999961704,True,14,-1,0,10
Y2-S2-031M33,5,443,PS,exp,44,↑,up,↑,0.41478779981844127,True,14,-1,0,10
Y2-S2-031M33,5,444,PS,exp,32,↓,down,↓,0.5607602000236511,True,14,1,1,11
Y2-S2-031M33,5,445,PS,exp,39,→,right,→,0.45489010005258024,True,13,1,0,11
Y2-S2-031M33,5,446,PS,exp,27,←,right,→,0.7491174000315368,False,13,-1,1,12
Y2-S2-031M33,5,447,PS,exp,41,↑,up,↑,0.5336966998875141,True,14,-1,0,12
Y2-S2-031M33,5,448,PS,exp,32,↓,down,↓,0.6667178999632597,True,14,-1,0,12
Y2-S2-031M33,5,449,PS,exp,49,→,right,→,0.4568474998231977,True,14,1,1,13
Y2-S2-031M33,5,450,PS,exp,47,←,left,←,0.4525865998584777,True,13,1,0,13
Y2-S2-031M33,5,451,PS,exp,41,↓,down,↓,0.7764852000400424,True,13,1,0,13
Y2-S2-031M33,5,452,PS,exp,35,→,right,→,0.5143236999865621,True,13,1,0,13
Y2-S2-031M33,5,453,PS,exp,43,↓,down,↓,0.5819930001161993,True,12,1,0,13
Y2-S2-031M33,5,454,PS,exp,28,↑,left,←,0.3997732000425458,False,12,-1,1,14
Y2-S2-031M33,5,455,PS,exp,46,←,left,←,0.48772630002349615,True,13,-1,0,14
Y2-S2-031M33,5,456,PS,exp,26,↓,no_key,no_letter,-1.0,False,13,-1,0,14
Y2-S2-031M33,5,457,PS,exp,50,←,left,←,1.315815499983728,True,14,-1,0,14
Y2-S2-031M33,5,458,PS,exp,42,→,right,→,0.4758043000474572,True,14,-1,0,14
Y2-S2-031M33,5,459,PS,exp,31,←,left,←,0.6718510999344289,True,14,1,1,15
Y2-S2-031M33,5,460,PS,exp,35,↑,up,↑,0.42228899989277124,True,13,1,0,15
Y2-S2-031M33,5,461,PS,exp,30,←,right,→,0.7259079001378268,False,13,-1,1,16
Y2-S2-031M33,6,462,AS,intra_train,43,→,right,→,0.6177399000152946,True,33,-,-,-
Y2-S2-031M33,6,463,AS,intra_train,48,↓,down,↓,0.9218842000700533,True,33,-,-,-
Y2-S2-031M33,6,464,AS,intra_train,50,↑,up,↑,0.6175381999928504,True,33,-,-,-
Y2-S2-031M33,6,465,AS,intra_train,25,←,left,←,0.7371916999109089,True,33,-,-,-
Y2-S2-031M33,6,466,AS,intra_train,43,↑,up,↑,0.4341807998716831,True,33,-,-,-
Y2-S2-031M33,6,467,AS,exp,28,→,right,→,1.163581799948588,True,22,0,0,0
Y2-S2-031M33,6,468,AS,exp,40,↓,up,↑,0.8021655001211911,False,22,-1,0,0
Y2-S2-031M33,6,469,AS,exp,33,←,left,←,0.6308237998746336,True,23,-1,0,0
Y2-S2-031M33,6,470,AS,exp,29,↓,down,↓,0.7599084000103176,True,23,-1,0,0
Y2-S2-031M33,6,471,AS,exp,38,↑,up,↑,0.8849712999071926,True,23,1,1,1
Y2-S2-031M33,6,472,AS,exp,32,←,left,←,0.6197705001104623,True,22,1,0,1
Y2-S2-031M33,6,473,AS,exp,47,→,right,→,0.8183780000545084,True,22,1,0,1
Y2-S2-031M33,6,474,AS,exp,39,↓,down,↓,0.8044889001175761,True,22,1,0,1
Y2-S2-031M33,6,475,AS,exp,46,←,left,←,0.7602669999469072,True,21,1,0,1
Y2-S2-031M33,6,476,AS,exp,36,↑,up,↑,1.1046328998636454,True,21,1,0,1
Y2-S2-031M33,6,477,AS,exp,26,←,left,←,0.5803467999212444,True,21,1,0,1
Y2-S2-031M33,6,478,AS,exp,39,→,left,←,0.562473600031808,False,20,-1,1,2
Y2-S2-031M33,6,479,AS,exp,40,↑,up,↑,0.5869202001485974,True,21,-1,0,2
Y2-S2-031M33,6,480,AS,exp,40,↓,down,↓,0.7441306998953223,True,21,-1,0,2
Y2-S2-031M33,6,481,AS,exp,45,←,left,←,0.5458923999685794,True,21,1,1,3
Y2-S2-031M33,6,482,AS,exp,26,↑,up,↑,0.5767657000105828,True,20,1,0,3
Y2-S2-031M33,6,483,AS,exp,27,→,right,→,0.6154790001455694,True,20,1,0,3
Y2-S2-031M33,6,484,AS,exp,26,←,left,←,0.4007384998258203,True,20,1,0,3
Y2-S2-031M33,6,485,AS,exp,49,→,right,→,0.5330852000042796,True,19,1,0,3
Y2-S2-031M33,6,486,AS,exp,49,←,left,←,0.39983289991505444,True,19,1,0,3
Y2-S2-031M33,6,487,AS,exp,29,→,right,→,0.45081690000370145,True,19,1,0,3
Y2-S2-031M33,6,488,AS,exp,38,←,right,→,0.6384429999161512,False,18,-1,1,4
Y2-S2-031M33,6,489,AS,exp,43,↓,down,↓,0.5093652999494225,True,19,-1,0,4
Y2-S2-031M33,6,490,AS,exp,46,←,right,→,0.7630402001086622,False,19,-1,0,4
Y2-S2-031M33,6,491,AS,exp,25,↓,down,↓,0.5426148998085409,True,20,-1,0,4
Y2-S2-031M33,6,492,AS,exp,34,←,left,←,0.4002795999404043,True,20,-1,0,4
Y2-S2-031M33,6,493,AS,exp,27,↓,right,→,0.6330216999631375,False,20,-1,0,4
Y2-S2-031M33,6,494,AS,exp,42,→,right,→,1.1036219999659806,True,21,-1,0,4
Y2-S2-031M33,6,495,AS,exp,38,↑,up,↑,0.41722610010765493,True,21,-1,0,4
Y2-S2-031M33,6,496,AS,exp,32,←,left,←,0.41746010002680123,True,21,1,1,5
Y2-S2-031M33,6,497,AS,exp,28,↑,up,↑,0.4007117999717593,True,20,1,0,5
Y2-S2-031M33,6,498,AS,exp,35,→,right,→,0.4504273000638932,True,20,1,0,5
Y2-S2-031M33,6,499,AS,exp,37,↑,up,↑,0.3677356999833137,True,20,1,0,5
Y2-S2-031M33,6,500,AS,exp,38,→,right,→,0.49798400001600385,True,19,1,0,5
Y2-S2-031M33,6,501,AS,exp,42,↑,right,→,0.3841815998312086,False,19,-1,1,6
Y2-S2-031M33,6,502,AS,exp,30,←,left,←,1.179966599913314,True,20,-1,0,6
Y2-S2-031M33,6,503,AS,exp,29,↑,right,→,0.6234531002119184,False,20,-1,0,6
Y2-S2-031M33,6,504,AS,exp,38,→,right,→,0.3838708000257611,True,21,-1,0,6
Y2-S2-031M33,6,505,AS,exp,40,←,right,→,0.5543653999920934,False,21,-1,0,6
Y2-S2-031M33,6,506,AS,exp,33,→,right,→,0.5506555000320077,True,22,-1,0,6
Y2-S2-031M33,6,507,AS,exp,41,↓,down,↓,1.2269376998301595,True,22,-1,0,6
Y2-S2-031M33,6,508,AS,exp,44,←,left,←,0.4173307998571545,True,22,1,1,7
Y2-S2-031M33,6,509,AS,exp,36,↑,right,→,0.8385385000146925,False,21,-1,1,8
Y2-S2-031M33,6,510,AS,exp,43,↓,right,→,0.46717020007781684,False,22,-1,0,8
Y2-S2-031M33,6,511,AS,exp,32,↑,left,←,0.5723198000341654,False,23,-1,0,8
Y2-S2-031M33,6,512,AS,exp,50,→,right,→,0.500547899864614,True,24,-1,0,8
Y2-S2-031M33,6,513,AS,exp,43,←,left,←,1.4059443001169711,True,24,-1,0,8
Y2-S2-031M33,6,514,AS,exp,48,→,right,→,0.5172135001048446,True,24,1,1,9
Y2-S2-031M33,6,515,AS,exp,43,↓,down,↓,0.5016075999010354,True,23,1,0,9
Y2-S2-031M33,6,516,AS,exp,32,←,left,←,0.8130057000089437,True,23,1,0,9
Y2-S2-031M33,6,517,AS,exp,45,→,right,→,0.6767740999348462,True,23,1,0,9
Y2-S2-031M33,6,518,AS,exp,29,↑,right,→,0.8392142998054624,False,22,-1,1,10
Y2-S2-031M33,6,519,AS,exp,29,←,left,←,0.43374840007163584,True,23,-1,0,10
Y2-S2-031M33,6,520,AS,exp,34,↓,down,↓,1.779765099985525,True,23,-1,0,10
Y2-S2-031M33,6,521,AS,exp,32,←,left,←,0.45053209993056953,True,23,1,1,11
Y2-S2-031M33,6,522,AS,exp,33,↑,up,↑,0.4675652999430895,True,22,1,0,11
Y2-S2-031M33,6,523,AS,exp,37,→,right,→,0.5005394001491368,True,22,1,0,11
Y2-S2-031M33,6,524,AS,exp,49,←,left,←,0.8320339999627322,True,22,1,0,11
Y2-S2-031M33,6,525,AS,exp,25,→,right,→,0.7032085999380797,True,21,1,0,11
Y2-S2-031M33,6,526,AS,exp,27,←,left,←,0.6934934998862445,True,21,1,0,11
Y2-S2-031M33,6,527,AS,exp,31,↓,down,↓,0.5710896998643875,True,21,1,0,11
Y2-S2-031M33,6,528,AS,exp,31,→,right,→,0.434326000045985,True,20,1,0,11
Y2-S2-031M33,6,529,AS,exp,30,↑,up,↑,0.4004643999505788,True,20,1,0,11
Y2-S2-031M33,6,530,AS,exp,50,→,right,→,0.8047185000032187,True,20,1,0,11
Y2-S2-031M33,6,531,AS,exp,50,↓,down,↓,0.5511068000923842,True,19,1,0,11
Y2-S2-031M33,6,532,AS,exp,28,←,right,→,0.7414710999000818,False,19,-1,1,12
Y2-S2-031M33,6,533,AS,exp,32,↑,up,↑,0.7852429000195116,True,20,-1,0,12
Y2-S2-031M33,6,534,AS,exp,41,→,up,↑,0.5510766999796033,False,20,-1,0,12
Y2-S2-031M33,6,535,AS,exp,50,↑,up,↑,0.40042720013298094,True,21,-1,0,12
Y2-S2-031M33,6,536,AS,exp,33,↓,down,↓,1.205808199942112,True,21,-1,0,12
Y2-S2-031M33,6,537,AS,exp,26,↑,up,↑,0.48411349998787045,True,21,1,1,13
Y2-S2-031M33,6,538,AS,exp,27,←,left,←,0.38404629984870553,True,20,1,0,13
Y2-S2-031M33,6,539,AS,exp,39,↓,down,↓,0.4671150001231581,True,20,1,0,13
Y2-S2-031M33,6,540,AS,exp,41,↑,right,→,0.735265800030902,False,20,-1,1,14
Y2-S2-031M33,6,541,AS,exp,32,↓,down,↓,0.46688609989359975,True,21,-1,0,14
Y2-S2-031M33,6,542,AS,exp,45,→,right,→,0.45074249990284443,True,21,-1,0,14
Y2-S2-031M33,6,543,AS,exp,26,←,left,←,0.7908435999415815,True,21,1,1,15
Y2-S2-031M33,6,544,AS,exp,28,↓,down,↓,0.7871467999648303,True,20,1,0,15
Y2-S2-031M33,6,545,AS,exp,26,↑,up,↑,0.43404540000483394,True,20,1,0,15
Y2-S2-031M33,6,546,AS,exp,49,←,left,←,0.4335666000843048,True,20,1,0,15
Y2-S2-031M33,6,547,AS,exp,32,↑,up,↑,0.7268644999712706,True,19,1,0,15
Y2-S2-031M33,6,548,AS,exp,29,←,left,←,0.4505686000920832,True,19,1,0,15
Y2-S2-031M33,6,549,AS,exp,28,↓,down,↓,0.5459063998423517,True,19,1,0,15
Y2-S2-031M33,6,550,AS,exp,28,↑,up,↑,0.40080210007727146,True,18,1,0,15
Y2-S2-031M33,6,551,AS,exp,50,→,right,→,0.5007243000436574,True,18,1,0,15
Y2-S2-031M33,6,552,AS,exp,38,↓,up,↑,0.7730005998164415,False,18,-1,1,16
Y2-S2-031M33,7,553,AS,intra_train,44,←,left,←,0.501088900025934,True,33,-,-,-
Y2-S2-031M33,7,554,AS,intra_train,27,→,right,→,0.48424680018797517,True,33,-,-,-
Y2-S2-031M33,7,555,AS,intra_train,37,←,left,←,0.719123300164938,True,33,-,-,-
Y2-S2-031M33,7,556,AS,intra_train,32,↑,up,↑,0.40083159995265305,True,33,-,-,-
Y2-S2-031M33,7,557,AS,intra_train,31,↓,down,↓,0.5177596001885831,True,33,-,-,-
Y2-S2-031M33,7,558,AS,exp,44,←,left,←,0.6471903000492603,True,22,0,0,0
Y2-S2-031M33,7,559,AS,exp,25,↓,down,↓,1.1635298000182956,True,22,0,0,0
Y2-S2-031M33,7,560,AS,exp,35,→,right,→,0.41742479987442493,True,22,1,0,0
Y2-S2-031M33,7,561,AS,exp,38,←,left,←,0.9489204999990761,True,21,1,0,0
Y2-S2-031M33,7,562,AS,exp,28,→,left,←,0.3505867999047041,False,21,-1,1,1
Y2-S2-031M33,7,563,AS,exp,37,↑,up,↑,0.5802943999879062,True,22,-1,0,1
Y2-S2-031M33,7,564,AS,exp,39,←,left,←,0.41731159994378686,True,22,-1,0,1
Y2-S2-031M33,7,565,AS,exp,28,↓,down,↓,1.4074628001544625,True,22,1,1,2
Y2-S2-031M33,7,566,AS,exp,41,←,right,→,0.6671921999659389,False,21,-1,1,3
Y2-S2-031M33,7,567,AS,exp,43,↑,up,↑,0.41719289985485375,True,22,-1,0,3
Y2-S2-031M33,7,568,AS,exp,37,←,left,←,0.4505539000965655,True,22,-1,0,3
Y2-S2-031M33,7,569,AS,exp,35,→,right,→,0.45030710007995367,True,22,1,1,4
Y2-S2-031M33,7,570,AS,exp,40,↓,up,↑,0.7187522000167519,False,21,-1,1,5
Y2-S2-031M33,7,571,AS,exp,32,→,right,→,0.48436150001361966,True,22,-1,0,5
Y2-S2-031M33,7,572,AS,exp,27,←,left,←,0.46738220006227493,True,22,-1,0,5
Y2-S2-031M33,7,573,AS,exp,40,↑,up,↑,0.3840998001396656,True,22,1,1,6
Y2-S2-031M33,7,574,AS,exp,37,→,right,→,0.40057059982791543,True,21,1,0,6
Y2-S2-031M33,7,575,AS,exp,39,←,left,←,0.4170142998918891,True,21,1,0,6
Y2-S2-031M33,7,576,AS,exp,32,→,right,→,0.7662317999638617,True,21,1,0,6
Y2-S2-031M33,7,577,AS,exp,44,←,left,←,0.6896673000883311,True,20,1,0,6
Y2-S2-031M33,7,578,AS,exp,25,↓,down,↓,0.536132900044322,True,20,1,0,6
Y2-S2-031M33,7,579,AS,exp,25,←,left,←,0.4335566000081599,True,20,1,0,6
Y2-S2-031M33,7,580,AS,exp,31,↓,right,→,0.662539100041613,False,19,-1,1,7
Y2-S2-031M33,7,581,AS,exp,25,←,left,←,0.450666599906981,True,20,-1,0,7
Y2-S2-031M33,7,582,AS,exp,32,↑,down,↓,0.754123599966988,False,20,-1,0,7
Y2-S2-031M33,7,583,AS,exp,31,↓,down,↓,1.806400400120765,True,21,-1,0,7
Y2-S2-031M33,7,584,AS,exp,29,→,right,→,0.4339300999417901,True,21,-1,0,7
Y2-S2-031M33,7,585,AS,exp,34,↑,down,↓,0.9321143000852317,False,21,-1,0,7
Y2-S2-031M33,7,586,AS,exp,28,→,right,→,0.43417080002836883,True,22,-1,0,7
Y2-S2-031M33,7,587,AS,exp,44,↓,down,↓,0.4837798001244664,True,22,-1,0,7
Y2-S2-031M33,7,588,AS,exp,29,→,right,→,0.46788110001944005,True,22,1,1,8
Y2-S2-031M33,7,589,AS,exp,46,←,left,←,0.4507417001295835,True,21,1,0,8
Y2-S2-031M33,7,590,AS,exp,25,↓,down,↓,1.191783200018108,True,21,1,0,8
Y2-S2-031M33,7,591,AS,exp,43,↑,up,↑,0.4172739000059664,True,21,1,0,8
Y2-S2-031M33,7,592,AS,exp,41,↓,right,→,0.98617670009844,False,20,-1,1,9
Y2-S2-031M33,7,593,AS,exp,46,↑,up,↑,0.3672165998723358,True,21,-1,0,9
Y2-S2-031M33,7,594,AS,exp,40,↓,down,↓,0.8952955999411643,True,21,-1,0,9
Y2-S2-031M33,7,595,AS,exp,35,→,left,←,1.152193499961868,False,21,-1,0,9
Y2-S2-031M33,7,596,AS,exp,34,↓,right,→,0.8689296001102775,False,22,-1,0,9
Y2-S2-031M33,7,597,AS,exp,42,←,left,←,0.8312291000038385,True,23,-1,0,9
Y2-S2-031M33,7,598,AS,exp,28,→,right,→,0.7237206001300365,True,23,-1,0,9
Y2-S2-031M33,7,599,AS,exp,35,←,left,←,0.8723532999865711,True,23,1,1,10
Y2-S2-031M33,7,600,AS,exp,34,→,right,→,0.6983922999352217,True,22,1,0,10
Y2-S2-031M33,7,601,AS,exp,50,↑,up,↑,1.0460037000011653,True,22,1,0,10
Y2-S2-031M33,7,602,AS,exp,40,←,right,→,0.5733914999291301,False,22,-1,1,11
Y2-S2-031M33,7,603,AS,exp,41,→,left,←,0.48365810001268983,False,23,-1,0,11
Y2-S2-031M33,7,604,AS,exp,29,↓,down,↓,1.9689970000181347,True,24,-1,0,11
Y2-S2-031M33,7,605,AS,exp,50,→,right,→,0.6213402999565005,True,24,-1,0,11
Y2-S2-031M33,7,606,AS,exp,38,←,left,←,0.7536196999717504,True,24,1,1,12
Y2-S2-031M33,7,607,AS,exp,40,→,right,→,1.560635499889031,True,23,1,0,12
Y2-S2-031M33,7,608,AS,exp,29,↓,down,↓,0.909381499979645,True,23,1,0,12
Y2-S2-031M33,7,609,AS,exp,43,→,right,→,0.7481619000900537,True,23,1,0,12
Y2-S2-031M33,7,610,AS,exp,37,←,left,←,1.063040800159797,True,22,1,0,12
Y2-S2-031M33,7,611,AS,exp,33,↓,down,↓,0.7956548000220209,True,22,1,0,12
Y2-S2-031M33,7,612,AS,exp,42,←,left,←,0.5635524999815971,True,22,1,0,12
Y2-S2-031M33,7,613,AS,exp,40,→,right,→,1.3028686000034213,True,21,1,0,12
Y2-S2-031M33,7,614,AS,exp,33,↑,up,↑,0.9933968998957425,True,21,1,0,12
Y2-S2-031M33,7,615,AS,exp,34,↓,down,↓,0.542135699884966,True,21,1,0,12
Y2-S2-031M33,7,616,AS,exp,25,←,right,→,0.8293216000311077,False,20,-1,1,13
Y2-S2-031M33,7,617,AS,exp,33,↓,down,↓,0.5573565000668168,True,21,-1,0,13
Y2-S2-031M33,7,618,AS,exp,40,←,left,←,0.4005948998965323,True,21,-1,0,13
Y2-S2-031M33,7,619,AS,exp,25,↓,down,↓,0.5707497000694275,True,21,1,1,14
Y2-S2-031M33,7,620,AS,exp,36,↑,up,↑,0.41712919995188713,True,20,1,0,14
Y2-S2-031M33,7,621,AS,exp,33,→,up,↑,0.38389229984022677,False,20,-1,1,15
Y2-S2-031M33,7,622,AS,exp,44,↓,right,→,0.8211507999803871,False,21,-1,0,15
Y2-S2-031M33,7,623,AS,exp,31,←,left,←,0.4338884998578578,True,22,-1,0,15
Y2-S2-031M33,7,624,AS,exp,32,↑,up,↑,0.43414030014537275,True,22,-1,0,15
Y2-S2-031M33,7,625,AS,exp,39,→,right,→,0.6322436002083123,True,22,1,1,16
Y2-S2-031M33,8,626,PS,intra_train,45,←,left,←,0.45074630016461015,True,21,-,-,-
Y2-S2-031M33,8,627,PS,intra_train,34,↓,down,↓,0.6234156999271363,True,21,-,-,-
Y2-S2-031M33,8,628,PS,intra_train,50,→,right,→,0.4670806999783963,True,21,-,-,-
Y2-S2-031M33,8,629,PS,intra_train,41,↑,up,↑,0.4837754999753088,True,21,-,-,-
Y2-S2-031M33,8,630,PS,intra_train,35,↓,down,↓,0.5689930999651551,True,21,-,-,-
Y2-S2-031M33,8,631,PS,exp,48,→,right,→,0.49638800020329654,True,14,0,0,0
Y2-S2-031M33,8,632,PS,exp,31,←,left,←,0.5086831001099199,True,14,0,0,0
Y2-S2-031M33,8,633,PS,exp,40,↑,up,↑,0.45699910004623234,True,14,1,0,0
Y2-S2-031M33,8,634,PS,exp,30,→,right,→,0.49334429996088147,True,13,1,0,0
Y2-S2-031M33,8,635,PS,exp,26,←,left,←,0.4143492002040148,True,13,1,0,0
Y2-S2-031M33,8,636,PS,exp,37,→,right,→,0.7737408999819309,True,13,1,0,0
Y2-S2-031M33,8,637,PS,exp,33,↓,down,↓,0.5785256999079138,True,12,1,0,0
Y2-S2-031M33,8,638,PS,exp,50,←,right,→,0.6623986999038607,False,12,-1,1,1
Y2-S2-031M33,8,639,PS,exp,47,→,right,→,0.6082427001092583,True,13,-1,0,1
Y2-S2-031M33,8,640,PS,exp,31,↑,right,→,0.5265735001303256,False,13,-1,0,1
Y2-S2-031M33,8,641,PS,exp,46,↓,down,↓,0.5394513001665473,True,14,-1,0,1
Y2-S2-031M33,8,642,PS,exp,49,←,left,←,0.5173192000947893,True,14,-1,0,1
Y2-S2-031M33,8,643,PS,exp,34,↓,down,↓,0.5881074999924749,True,14,1,1,2
Y2-S2-031M33,8,644,PS,exp,37,↑,right,→,0.8018007001373917,False,13,-1,1,3
Y2-S2-031M33,8,645,PS,exp,36,↓,down,↓,0.6459470998961478,True,14,-1,0,3
Y2-S2-031M33,8,646,PS,exp,36,→,down,↓,0.8884884000290185,False,14,-1,0,3
Y2-S2-031M33,8,647,PS,exp,42,↓,right,→,0.727821100037545,False,15,-1,0,3
Y2-S2-031M33,8,648,PS,exp,34,←,left,←,0.5146371000446379,True,16,-1,0,3
Y2-S2-031M33,8,649,PS,exp,43,→,right,→,0.8345135001000017,True,16,-1,0,3
Y2-S2-031M33,8,650,PS,exp,47,↓,down,↓,0.6258451999165118,True,16,1,1,4
Y2-S2-031M33,8,651,PS,exp,43,←,left,←,0.7933964000549167,True,15,1,0,4
Y2-S2-031M33,8,652,PS,exp,33,→,right,→,0.6304250000976026,True,15,1,0,4
Y2-S2-031M33,8,653,PS,exp,32,↓,right,→,1.077433800091967,False,15,-1,1,5
Y2-S2-031M33,8,654,PS,exp,27,→,right,→,0.5423856999259442,True,16,-1,0,5
Y2-S2-031M33,8,655,PS,exp,47,←,left,←,0.6066582000348717,True,16,-1,0,5
Y2-S2-031M33,8,656,PS,exp,44,→,right,→,0.5949063000734895,True,16,1,1,6
Y2-S2-031M33,8,657,PS,exp,48,↓,down,↓,0.5975273000076413,True,15,1,0,6
Y2-S2-031M33,8,658,PS,exp,48,↑,up,↑,0.6070936000905931,True,15,1,0,6
Y2-S2-031M33,8,659,PS,exp,34,→,right,→,0.5917489000130445,True,15,1,0,6
Y2-S2-031M33,8,660,PS,exp,34,←,left,←,0.5749437999911606,True,14,1,0,6
Y2-S2-031M33,8,661,PS,exp,27,↓,down,↓,0.6079558997880667,True,14,1,0,6
Y2-S2-031M33,8,662,PS,exp,39,←,left,←,0.48475790000520647,True,14,1,0,6
Y2-S2-031M33,8,663,PS,exp,33,↓,right,→,1.258816999848932,False,13,-1,1,7
Y2-S2-031M33,8,664,PS,exp,38,←,left,←,0.4305564002133906,True,14,-1,0,7
Y2-S2-031M33,8,665,PS,exp,49,↓,down,↓,0.5311930000316352,True,14,-1,0,7
Y2-S2-031M33,8,666,PS,exp,27,↑,up,↑,0.4362738998606801,True,14,1,1,8
Y2-S2-031M33,8,667,PS,exp,47,↓,right,→,0.6136379998642951,False,13,-1,1,9
Y2-S2-031M33,8,668,PS,exp,34,↑,up,↑,0.6252118998672813,True,14,-1,0,9
Y2-S2-031M33,8,669,PS,exp,42,↓,down,↓,0.5747696999460459,True,14,-1,0,9
Y2-S2-031M33,8,670,PS,exp,49,→,right,→,0.5568661999423057,True,14,1,1,10
Y2-S2-031M33,8,671,PS,exp,43,←,left,←,0.43472640006802976,True,13,1,0,10
Y2-S2-031M33,8,672,PS,exp,32,↓,left,←,0.8904231002088636,False,13,-1,1,11
Y2-S2-031M33,8,673,PS,exp,43,→,right,→,0.512041199952364,True,14,-1,0,11
Y2-S2-031M33,8,674,PS,exp,27,↓,down,↓,0.5627345000393689,True,14,-1,0,11
Y2-S2-031M33,8,675,PS,exp,47,↑,up,↑,0.46617909986525774,True,14,1,1,12
Y2-S2-031M33,8,676,PS,exp,47,←,left,←,0.45458779996261,True,13,1,0,12
Y2-S2-031M33,8,677,PS,exp,27,→,right,→,0.5309061000589281,True,13,1,0,12
Y2-S2-031M33,8,678,PS,exp,31,↑,right,→,0.6380908000282943,False,13,-1,1,13
Y2-S2-031M33,8,679,PS,exp,36,↓,down,↓,0.6792373999487609,True,14,-1,0,13
Y2-S2-031M33,8,680,PS,exp,49,↑,up,↑,0.7172344999853522,True,14,-1,0,13
Y2-S2-031M33,8,681,PS,exp,50,→,right,→,0.5154025999363512,True,14,1,1,14
Y2-S2-031M33,8,682,PS,exp,28,←,left,←,0.4532514000311494,True,13,1,0,14
Y2-S2-031M33,8,683,PS,exp,25,→,right,→,0.445938799995929,True,13,1,0,14
Y2-S2-031M33,8,684,PS,exp,46,↑,up,↑,0.6333253001794219,True,13,1,0,14
Y2-S2-031M33,8,685,PS,exp,25,↓,down,↓,0.7478702999651432,True,12,1,0,14
Y2-S2-031M33,8,686,PS,exp,27,↑,down,↓,0.8139233000110835,False,12,-1,1,15
Y2-S2-031M33,8,687,PS,exp,29,→,no_key,no_letter,-1.0,False,13,-1,0,15
Y2-S2-031M33,8,688,PS,exp,30,↑,up,↑,0.4252967000938952,True,14,-1,0,15
Y2-S2-031M33,8,689,PS,exp,25,→,right,→,0.8230047000106424,True,14,-1,0,15
Y2-S2-031M33,8,690,PS,exp,43,↓,down,↓,0.5845963000319898,True,14,1,1,16
