PART_ID,Block_no,Trial_no,Block_type,Trial_type,CSI,Stim_letter,Key_pressed,letter_choose,Rt,Corr,Stimulus Time,Level,Reversal,Revs_count
Y2-S2-224K20,1,1,PS,train,49,←,left,←,0.9535509999841452,True,30,-,-,-
Y2-S2-224K20,1,2,PS,train,28,↓,no_key,no_letter,-1.0,False,30,-,-,-
Y2-S2-224K20,1,3,PS,train,27,→,right,→,0.8293399000540376,True,30,-,-,-
Y2-S2-224K20,1,4,PS,train,41,↑,up,↑,0.8725025001913309,True,30,-,-,-
Y2-S2-224K20,1,5,PS,train,44,↓,down,↓,1.0113820997066796,True,30,-,-,-
Y2-S2-224K20,1,6,PS,train,30,→,right,→,0.7403702000156045,True,30,-,-,-
Y2-S2-224K20,1,7,PS,train,40,←,left,←,0.9549119002185762,True,30,-,-,-
Y2-S2-224K20,1,8,PS,train,35,→,right,→,0.8291758000850677,True,30,-,-,-
Y2-S2-224K20,1,9,PS,train,42,←,left,←,0.6340640997514129,True,30,-,-,-
Y2-S2-224K20,1,10,PS,train,50,→,no_key,no_letter,-1.0,False,30,-,-,-
Y2-S2-224K20,2,11,AS,train,49,←,left,←,0.5678253001533449,True,45,-,-,-
Y2-S2-224K20,2,12,AS,train,45,↓,down,↓,0.8006037999875844,True,45,-,-,-
Y2-S2-224K20,2,13,AS,train,34,←,left,←,0.7506671999581158,True,45,-,-,-
Y2-S2-224K20,2,14,AS,train,50,↑,up,↑,0.8510213000699878,True,45,-,-,-
Y2-S2-224K20,2,15,AS,train,47,→,right,→,0.5841657998971641,True,45,-,-,-
Y2-S2-224K20,2,16,AS,train,34,←,left,←,1.840975800063461,True,45,-,-,-
Y2-S2-224K20,2,17,AS,train,33,↓,down,↓,0.8848204999230802,True,45,-,-,-
Y2-S2-224K20,2,18,AS,train,33,←,left,←,0.6014791000634432,True,45,-,-,-
Y2-S2-224K20,2,19,AS,train,34,↑,up,↑,0.7671676999889314,True,45,-,-,-
Y2-S2-224K20,2,20,AS,train,26,←,left,←,0.5511479000560939,True,45,-,-,-
Y2-S2-224K20,-,21,PS,adaptive,28,↓,down,↓,0.5868608001619577,True,10,0,0,0
Y2-S2-224K20,-,22,PS,adaptive,30,↑,up,↑,0.5257876999676228,True,10,0,0,0
Y2-S2-224K20,-,23,PS,adaptive,25,↓,down,↓,0.6137498999014497,True,10,1,0,0
Y2-S2-224K20,-,24,PS,adaptive,30,→,right,→,0.5459826998412609,True,9,1,0,0
Y2-S2-224K20,-,25,PS,adaptive,32,↓,down,↓,0.6482497001998127,True,9,1,0,0
Y2-S2-224K20,-,26,PS,adaptive,39,↑,up,↑,0.5633769002743065,True,9,1,0,0
Y2-S2-224K20,-,27,PS,adaptive,32,←,up,↑,1.2107885996811092,False,8,-1,1,1
Y2-S2-224K20,-,28,PS,adaptive,33,→,right,→,0.9952521002851427,True,9,-1,0,1
Y2-S2-224K20,-,29,PS,adaptive,25,←,left,←,0.5572723997756839,True,9,-1,0,1
Y2-S2-224K20,-,30,PS,adaptive,26,→,right,→,0.5179530000314116,True,9,1,1,2
Y2-S2-224K20,-,31,PS,adaptive,25,←,right,→,1.354928100015968,False,8,-1,1,3
Y2-S2-224K20,-,32,PS,adaptive,50,↓,down,↓,0.8527277000248432,True,9,-1,0,3
Y2-S2-224K20,-,33,PS,adaptive,46,↑,up,↑,1.0987528003752232,True,9,-1,0,3
Y2-S2-224K20,-,34,PS,adaptive,47,→,right,→,0.7854555998928845,True,9,1,1,4
Y2-S2-224K20,-,35,AS,adaptive,44,↑,up,↑,0.681853000074625,True,20,0,0,0
Y2-S2-224K20,-,36,AS,adaptive,38,→,right,→,0.7635717000812292,True,20,0,0,0
Y2-S2-224K20,-,37,AS,adaptive,45,↑,no_key,no_letter,-1.0,False,20,-1,0,0
Y2-S2-224K20,-,38,AS,adaptive,49,↓,down,↓,0.6640327996574342,True,21,-1,0,0
Y2-S2-224K20,-,39,AS,adaptive,42,↑,up,↑,0.7771159997209907,True,21,-1,0,0
Y2-S2-224K20,-,40,AS,adaptive,48,←,left,←,0.6095565999858081,True,21,1,1,1
Y2-S2-224K20,-,41,AS,adaptive,40,→,right,→,0.6498259999789298,True,20,1,0,1
Y2-S2-224K20,-,42,AS,adaptive,46,↓,down,↓,0.9407572001218796,True,20,1,0,1
Y2-S2-224K20,-,43,AS,adaptive,50,←,up,↑,0.7813033000566065,False,20,-1,1,2
Y2-S2-224K20,-,44,AS,adaptive,33,↓,down,↓,0.8145193997770548,True,21,-1,0,2
Y2-S2-224K20,-,45,AS,adaptive,36,←,right,→,0.6317784995771945,False,21,-1,0,2
Y2-S2-224K20,-,46,AS,adaptive,29,↓,down,↓,0.589823099784553,True,22,-1,0,2
Y2-S2-224K20,-,47,AS,adaptive,32,↑,up,↑,0.7049277001060545,True,22,-1,0,2
Y2-S2-224K20,-,48,AS,adaptive,50,→,right,→,0.7764854999259114,True,22,1,1,3
Y2-S2-224K20,-,49,AS,adaptive,27,↑,up,↑,0.4505289001390338,True,21,1,0,3
Y2-S2-224K20,-,50,AS,adaptive,48,→,right,→,0.6768753998912871,True,21,1,0,3
Y2-S2-224K20,-,51,AS,adaptive,34,↑,up,↑,0.6246750997379422,True,21,1,0,3
Y2-S2-224K20,-,52,AS,adaptive,38,↓,down,↓,0.8954050997272134,True,20,1,0,3
Y2-S2-224K20,-,53,AS,adaptive,37,←,left,←,0.839075000025332,True,20,1,0,3
Y2-S2-224K20,-,54,AS,adaptive,30,→,right,→,0.9928895002231002,True,20,1,0,3
Y2-S2-224K20,-,55,AS,adaptive,40,↓,up,↑,0.9166441997513175,False,19,-1,1,4
Y2-S2-224K20,1,56,PS,intra_train,31,→,right,→,0.6415431001223624,True,12,-,-,-
Y2-S2-224K20,1,57,PS,intra_train,39,←,left,←,0.6742894998751581,True,12,-,-,-
Y2-S2-224K20,1,58,PS,intra_train,38,↑,up,↑,0.5233310000039637,True,12,-,-,-
Y2-S2-224K20,1,59,PS,intra_train,41,↓,down,↓,0.7289096997119486,True,12,-,-,-
Y2-S2-224K20,1,60,PS,intra_train,30,←,down,↓,0.8160820002667606,False,12,-,-,-
Y2-S2-224K20,1,61,PS,exp,39,↑,up,↑,0.6276980000548065,True,8,0,0,0
Y2-S2-224K20,1,62,PS,exp,25,←,up,↑,1.1367210000753403,False,8,-1,0,0
Y2-S2-224K20,1,63,PS,exp,42,↓,down,↓,0.6512058000080287,True,9,-1,0,0
Y2-S2-224K20,1,64,PS,exp,30,←,left,←,0.6345918998122215,True,9,-1,0,0
Y2-S2-224K20,1,65,PS,exp,42,→,right,→,0.5437254998832941,True,9,1,1,1
Y2-S2-224K20,1,66,PS,exp,40,←,left,←,0.5806483998894691,True,8,1,0,1
Y2-S2-224K20,1,67,PS,exp,34,↓,down,↓,0.5646298001520336,True,8,1,0,1
Y2-S2-224K20,1,68,PS,exp,28,→,right,→,0.6933798999525607,True,8,1,0,1
Y2-S2-224K20,1,69,PS,exp,25,↑,up,↑,0.5237576002255082,True,7,1,0,1
Y2-S2-224K20,1,70,PS,exp,25,←,right,→,0.697709099855274,False,7,-1,1,2
Y2-S2-224K20,1,71,PS,exp,50,→,right,→,0.49266580026596785,True,8,-1,0,2
Y2-S2-224K20,1,72,PS,exp,29,←,left,←,0.5608168998733163,True,8,-1,0,2
Y2-S2-224K20,1,73,PS,exp,36,↑,right,→,0.7798413997516036,False,8,-1,0,2
Y2-S2-224K20,1,74,PS,exp,47,→,right,→,0.5022900998592377,True,9,-1,0,2
Y2-S2-224K20,1,75,PS,exp,42,↑,right,→,0.6792867998592556,False,9,-1,0,2
Y2-S2-224K20,1,76,PS,exp,32,←,left,←,0.5068247998133302,True,10,-1,0,2
Y2-S2-224K20,1,77,PS,exp,27,→,right,→,0.6625883001834154,True,10,-1,0,2
Y2-S2-224K20,1,78,PS,exp,34,↑,up,↑,0.7162537998519838,True,10,1,1,3
Y2-S2-224K20,1,79,PS,exp,37,←,left,←,0.4920811001211405,True,9,1,0,3
Y2-S2-224K20,1,80,PS,exp,45,↓,right,→,0.5643257996998727,False,9,-1,1,4
Y2-S2-224K20,1,81,PS,exp,48,←,left,←,0.5700176996178925,True,10,-1,0,4
Y2-S2-224K20,1,82,PS,exp,45,→,right,→,0.48585329996421933,True,10,-1,0,4
Y2-S2-224K20,1,83,PS,exp,33,↓,down,↓,0.7576138000003994,True,10,1,1,5
Y2-S2-224K20,1,84,PS,exp,26,↑,left,←,0.6396672995761037,False,9,-1,1,6
Y2-S2-224K20,1,85,PS,exp,49,↓,down,↓,0.6934599997475743,True,10,-1,0,6
Y2-S2-224K20,1,86,PS,exp,25,→,left,←,0.6266668001189828,False,10,-1,0,6
Y2-S2-224K20,1,87,PS,exp,48,↑,left,←,0.6574065000750124,False,11,-1,0,6
Y2-S2-224K20,1,88,PS,exp,41,→,right,→,0.4676908999681473,True,12,-1,0,6
Y2-S2-224K20,1,89,PS,exp,42,↑,left,←,0.632574399933219,False,12,-1,0,6
Y2-S2-224K20,1,90,PS,exp,28,↓,down,↓,0.7235896000638604,True,13,-1,0,6
Y2-S2-224K20,1,91,PS,exp,48,↑,up,↑,0.5264238002710044,True,13,-1,0,6
Y2-S2-224K20,1,92,PS,exp,27,↓,up,↑,0.9319829996675253,False,13,-1,0,6
Y2-S2-224K20,1,93,PS,exp,37,↑,up,↑,0.5534233003854752,True,14,-1,0,6
Y2-S2-224K20,1,94,PS,exp,28,↓,down,↓,0.8794301003217697,True,14,-1,0,6
Y2-S2-224K20,1,95,PS,exp,26,←,left,←,0.7711223997175694,True,14,1,1,7
Y2-S2-224K20,1,96,PS,exp,50,→,right,→,0.6009084996767342,True,13,1,0,7
Y2-S2-224K20,1,97,PS,exp,29,←,left,←,0.5181753002107143,True,13,1,0,7
Y2-S2-224K20,1,98,PS,exp,28,→,right,→,0.5361505998298526,True,13,1,0,7
Y2-S2-224K20,1,99,PS,exp,29,↓,down,↓,0.7495059003122151,True,12,1,0,7
Y2-S2-224K20,1,100,PS,exp,45,←,left,←,0.5759099996648729,True,12,1,0,7
Y2-S2-224K20,1,101,PS,exp,45,↓,down,↓,0.7069283998571336,True,12,1,0,7
Y2-S2-224K20,1,102,PS,exp,43,←,left,←,0.515431699808687,True,11,1,0,7
Y2-S2-224K20,1,103,PS,exp,33,↑,down,↓,1.1243437002412975,False,11,-1,1,8
Y2-S2-224K20,1,104,PS,exp,45,←,left,←,0.5411517000757158,True,12,-1,0,8
Y2-S2-224K20,1,105,PS,exp,26,↓,left,←,0.7245979998260736,False,12,-1,0,8
Y2-S2-224K20,1,106,PS,exp,36,↑,up,↑,0.5063024000264704,True,13,-1,0,8
Y2-S2-224K20,1,107,PS,exp,46,→,right,→,0.5476143998093903,True,13,-1,0,8
Y2-S2-224K20,1,108,PS,exp,25,←,left,←,0.7905004001222551,True,13,1,1,9
Y2-S2-224K20,1,109,PS,exp,34,↑,up,↑,0.4603407997637987,True,12,1,0,9
Y2-S2-224K20,1,110,PS,exp,28,↓,down,↓,0.7196076000109315,True,12,1,0,9
Y2-S2-224K20,1,111,PS,exp,31,→,right,→,0.7742790002375841,True,12,1,0,9
Y2-S2-224K20,1,112,PS,exp,30,↓,down,↓,0.6904355003498495,True,11,1,0,9
Y2-S2-224K20,1,113,PS,exp,39,↑,up,↑,0.8759134002029896,True,11,1,0,9
Y2-S2-224K20,1,114,PS,exp,48,←,left,←,1.4054633998312056,True,11,1,0,9
Y2-S2-224K20,1,115,PS,exp,30,→,right,→,0.5206426000222564,True,10,1,0,9
Y2-S2-224K20,1,116,PS,exp,34,↓,down,↓,0.7721428000368178,True,10,1,0,9
Y2-S2-224K20,1,117,PS,exp,43,←,right,→,0.8044886998832226,False,10,-1,1,10
Y2-S2-224K20,1,118,PS,exp,41,↑,up,↑,0.5228633000515401,True,11,-1,0,10
Y2-S2-224K20,1,119,PS,exp,30,→,right,→,0.5994655997492373,True,11,-1,0,10
Y2-S2-224K20,1,120,PS,exp,30,←,left,←,0.5868013999424875,True,11,1,1,11
Y2-S2-224K20,1,121,PS,exp,29,↑,up,↑,0.4356327001005411,True,10,1,0,11
Y2-S2-224K20,1,122,PS,exp,25,↓,down,↓,0.6005489998497069,True,10,1,0,11
Y2-S2-224K20,1,123,PS,exp,27,↑,up,↑,0.559867000207305,True,10,1,0,11
Y2-S2-224K20,1,124,PS,exp,28,↓,down,↓,0.6771743004210293,True,9,1,0,11
Y2-S2-224K20,1,125,PS,exp,42,↑,down,↓,0.7114578001201153,False,9,-1,1,12
Y2-S2-224K20,1,126,PS,exp,36,→,no_key,no_letter,-1.0,False,10,-1,0,12
Y2-S2-224K20,1,127,PS,exp,34,↓,down,↓,0.6644564000889659,True,11,-1,0,12
Y2-S2-224K20,1,128,PS,exp,38,→,down,↓,1.3309751003980637,False,11,-1,0,12
Y2-S2-224K20,1,129,PS,exp,45,↑,up,↑,0.6305236001498997,True,12,-1,0,12
Y2-S2-224K20,1,130,PS,exp,45,→,right,→,0.7294105999171734,True,12,-1,0,12
Y2-S2-224K20,1,131,PS,exp,49,↑,up,↑,0.46619690023362637,True,12,1,1,13
Y2-S2-224K20,1,132,PS,exp,47,←,left,←,0.6109446999616921,True,11,1,0,13
Y2-S2-224K20,1,133,PS,exp,25,→,left,←,1.1812753998674452,False,11,-1,1,14
Y2-S2-224K20,1,134,PS,exp,36,↑,up,↑,0.44096550019457936,True,12,-1,0,14
Y2-S2-224K20,1,135,PS,exp,29,↓,down,↓,0.6108596003614366,True,12,-1,0,14
Y2-S2-224K20,1,136,PS,exp,49,←,up,↑,0.659744500182569,False,12,-1,0,14
Y2-S2-224K20,1,137,PS,exp,37,↑,up,↑,0.7651184001006186,True,13,-1,0,14
Y2-S2-224K20,1,138,PS,exp,29,↓,down,↓,0.681373099796474,True,13,-1,0,14
Y2-S2-224K20,1,139,PS,exp,48,→,right,→,0.8005657000467181,True,13,1,1,15
Y2-S2-224K20,1,140,PS,exp,37,←,left,←,0.4887470998801291,True,12,1,0,15
Y2-S2-224K20,1,141,PS,exp,27,→,right,→,0.5141366003081203,True,12,1,0,15
Y2-S2-224K20,1,142,PS,exp,29,↓,down,↓,0.7709002997726202,True,12,1,0,15
Y2-S2-224K20,1,143,PS,exp,45,→,left,←,0.9444005996920168,False,11,-1,1,16
Y2-S2-224K20,2,144,AS,intra_train,30,↓,down,↓,0.7231022999621928,True,30,-,-,-
Y2-S2-224K20,2,145,AS,intra_train,49,←,left,←,0.6003978997468948,True,30,-,-,-
Y2-S2-224K20,2,146,AS,intra_train,35,↑,left,←,1.2830306002870202,False,30,-,-,-
Y2-S2-224K20,2,147,AS,intra_train,43,←,left,←,0.667752499692142,True,30,-,-,-
Y2-S2-224K20,2,148,AS,intra_train,26,↓,down,↓,0.6006730999797583,True,30,-,-,-
Y2-S2-224K20,2,149,AS,exp,45,↑,up,↑,0.7426912998780608,True,20,0,0,0
Y2-S2-224K20,2,150,AS,exp,28,↓,down,↓,0.7416146998293698,True,20,0,0,0
Y2-S2-224K20,2,151,AS,exp,33,→,right,→,0.6601167996414006,True,20,1,0,0
Y2-S2-224K20,2,152,AS,exp,49,↓,down,↓,0.662746500223875,True,19,1,0,0
Y2-S2-224K20,2,153,AS,exp,27,↑,up,↑,0.5847069998271763,True,19,1,0,0
Y2-S2-224K20,2,154,AS,exp,34,←,left,←,0.4926881003193557,True,19,1,0,0
Y2-S2-224K20,2,155,AS,exp,42,→,right,→,0.6676751002669334,True,18,1,0,0
Y2-S2-224K20,2,156,AS,exp,37,←,left,←,0.6091721998527646,True,18,1,0,0
Y2-S2-224K20,2,157,AS,exp,28,→,left,←,1.0875475998036563,False,18,-1,1,1
Y2-S2-224K20,2,158,AS,exp,27,←,left,←,0.49929049983620644,True,19,-1,0,1
Y2-S2-224K20,2,159,AS,exp,35,↓,left,←,1.0238089999184012,False,19,-1,0,1
Y2-S2-224K20,2,160,AS,exp,48,←,no_key,no_letter,-1.0,False,20,-1,0,1
Y2-S2-224K20,2,161,AS,exp,33,→,right,→,0.6751160998828709,True,21,-1,0,1
Y2-S2-224K20,2,162,AS,exp,28,←,left,←,0.6905777999199927,True,21,-1,0,1
Y2-S2-224K20,2,163,AS,exp,36,→,no_key,no_letter,-1.0,False,21,-1,0,1
Y2-S2-224K20,2,164,AS,exp,41,↑,up,↑,0.5625255000777543,True,22,-1,0,1
Y2-S2-224K20,2,165,AS,exp,31,←,left,←,0.8384438999928534,True,22,-1,0,1
Y2-S2-224K20,2,166,AS,exp,28,↑,up,↑,0.41726680006831884,True,22,1,1,2
Y2-S2-224K20,2,167,AS,exp,29,↓,down,↓,0.7068811999633908,True,21,1,0,2
Y2-S2-224K20,2,168,AS,exp,43,↑,up,↑,0.8149787001311779,True,21,1,0,2
Y2-S2-224K20,2,169,AS,exp,37,↓,down,↓,0.6089481003582478,True,21,1,0,2
Y2-S2-224K20,2,170,AS,exp,39,←,no_key,no_letter,-1.0,False,20,-1,1,3
Y2-S2-224K20,2,171,AS,exp,47,↑,up,↑,0.7277581999078393,True,21,-1,0,3
Y2-S2-224K20,2,172,AS,exp,27,↓,down,↓,0.8651301003992558,True,21,-1,0,3
Y2-S2-224K20,2,173,AS,exp,29,→,right,→,0.7735271998681128,True,21,1,1,4
Y2-S2-224K20,2,174,AS,exp,44,←,left,←,0.4505714997649193,True,20,1,0,4
Y2-S2-224K20,2,175,AS,exp,45,↓,down,↓,0.6473210998810828,True,20,1,0,4
Y2-S2-224K20,2,176,AS,exp,26,↑,down,↓,1.0814584996551275,False,20,-1,1,5
Y2-S2-224K20,2,177,AS,exp,32,→,right,→,0.7715459996834397,True,21,-1,0,5
Y2-S2-224K20,2,178,AS,exp,42,↓,down,↓,0.6271502003073692,True,21,-1,0,5
Y2-S2-224K20,2,179,AS,exp,29,→,right,→,0.7789173000492156,True,21,1,1,6
Y2-S2-224K20,2,180,AS,exp,48,←,left,←,0.8131521996110678,True,20,1,0,6
Y2-S2-224K20,2,181,AS,exp,27,↑,up,↑,0.5776948998682201,True,20,1,0,6
Y2-S2-224K20,2,182,AS,exp,46,→,right,→,0.6160924001596868,True,20,1,0,6
Y2-S2-224K20,2,183,AS,exp,46,↓,down,↓,0.5586286997422576,True,19,1,0,6
Y2-S2-224K20,2,184,AS,exp,25,→,right,→,0.8630699999630451,True,19,1,0,6
Y2-S2-224K20,2,185,AS,exp,36,↓,down,↓,0.7054761000908911,True,19,1,0,6
Y2-S2-224K20,2,186,AS,exp,33,←,right,→,0.5233484003692865,False,18,-1,1,7
Y2-S2-224K20,2,187,AS,exp,39,↓,down,↓,0.822466999758035,True,19,-1,0,7
Y2-S2-224K20,2,188,AS,exp,38,→,right,→,0.5721722999587655,True,19,-1,0,7
Y2-S2-224K20,2,189,AS,exp,46,←,left,←,0.6943000997416675,True,19,1,1,8
Y2-S2-224K20,2,190,AS,exp,40,↑,up,↑,0.6554378997534513,True,18,1,0,8
Y2-S2-224K20,2,191,AS,exp,40,→,right,→,0.5892725000157952,True,18,1,0,8
Y2-S2-224K20,2,192,AS,exp,47,↓,down,↓,0.6905307001434267,True,18,1,0,8
Y2-S2-224K20,2,193,AS,exp,47,→,right,→,0.7547404998913407,True,17,1,0,8
Y2-S2-224K20,2,194,AS,exp,36,←,left,←,0.595607400406152,True,17,1,0,8
Y2-S2-224K20,2,195,AS,exp,37,→,no_key,no_letter,-1.0,False,17,-1,1,9
Y2-S2-224K20,2,196,AS,exp,28,↓,right,→,0.9062167997471988,False,18,-1,0,9
Y2-S2-224K20,2,197,AS,exp,50,→,right,→,0.5639582998119295,True,19,-1,0,9
Y2-S2-224K20,2,198,AS,exp,36,↓,down,↓,1.1245232997462153,True,19,-1,0,9
Y2-S2-224K20,2,199,AS,exp,50,→,right,→,0.7010770002380013,True,19,1,1,10
Y2-S2-224K20,2,200,AS,exp,50,←,left,←,0.8135085999965668,True,18,1,0,10
Y2-S2-224K20,2,201,AS,exp,47,↑,up,↑,0.8023165999911726,True,18,1,0,10
Y2-S2-224K20,2,202,AS,exp,46,↓,down,↓,0.8415911002084613,True,18,1,0,10
Y2-S2-224K20,2,203,AS,exp,28,←,left,←,0.7028542999178171,True,17,1,0,10
Y2-S2-224K20,2,204,AS,exp,30,→,right,→,0.7048266995698214,True,17,1,0,10
Y2-S2-224K20,2,205,AS,exp,38,↑,up,↑,1.5866046999581158,True,17,1,0,10
Y2-S2-224K20,2,206,AS,exp,35,←,left,←,0.6330542997457087,True,16,1,0,10
Y2-S2-224K20,2,207,AS,exp,30,↑,up,↑,0.7410166999325156,True,16,1,0,10
Y2-S2-224K20,2,208,AS,exp,27,←,up,↑,0.7314218999817967,False,16,-1,1,11
Y2-S2-224K20,2,209,AS,exp,49,↓,down,↓,0.9127703998237848,True,17,-1,0,11
Y2-S2-224K20,2,210,AS,exp,36,→,right,→,0.5297368997707963,True,17,-1,0,11
Y2-S2-224K20,2,211,AS,exp,34,↓,down,↓,0.6953688999637961,True,17,1,1,12
Y2-S2-224K20,2,212,AS,exp,40,→,right,→,0.4689609999768436,True,16,1,0,12
Y2-S2-224K20,2,213,AS,exp,25,↓,down,↓,0.763705899938941,True,16,1,0,12
Y2-S2-224K20,2,214,AS,exp,31,←,left,←,0.8925193999893963,True,16,1,0,12
Y2-S2-224K20,2,215,AS,exp,45,↑,right,→,1.4677662998437881,False,15,-1,1,13
Y2-S2-224K20,2,216,AS,exp,49,→,right,→,0.563593199942261,True,16,-1,0,13
Y2-S2-224K20,2,217,AS,exp,35,↓,down,↓,0.5366469002328813,True,16,-1,0,13
Y2-S2-224K20,2,218,AS,exp,48,↑,down,↓,1.341221199836582,False,16,-1,0,13
Y2-S2-224K20,2,219,AS,exp,50,→,right,→,0.7078002002090216,True,17,-1,0,13
Y2-S2-224K20,2,220,AS,exp,45,←,left,←,0.5636583999730647,True,17,-1,0,13
Y2-S2-224K20,2,221,AS,exp,43,→,left,←,1.0020258999429643,False,17,-1,0,13
Y2-S2-224K20,2,222,AS,exp,42,↓,down,↓,0.5857003997080028,True,18,-1,0,13
Y2-S2-224K20,2,223,AS,exp,31,↑,down,↓,0.7365413000807166,False,18,-1,0,13
Y2-S2-224K20,2,224,AS,exp,48,→,right,→,0.5126021998003125,True,19,-1,0,13
Y2-S2-224K20,2,225,AS,exp,37,↑,up,↑,0.9067601002752781,True,19,-1,0,13
Y2-S2-224K20,2,226,AS,exp,48,←,left,←,0.9051039996556938,True,19,1,1,14
Y2-S2-224K20,2,227,AS,exp,40,↑,up,↑,0.7361761000938714,True,18,1,0,14
Y2-S2-224K20,2,228,AS,exp,31,↓,up,↑,0.8237219001166523,False,18,-1,1,15
Y2-S2-224K20,2,229,AS,exp,47,↑,up,↑,0.9600655999965966,True,19,-1,0,15
Y2-S2-224K20,2,230,AS,exp,40,↓,down,↓,0.9598349002189934,True,19,-1,0,15
Y2-S2-224K20,2,231,AS,exp,30,←,right,→,1.0855032000690699,False,19,-1,0,15
Y2-S2-224K20,2,232,AS,exp,36,→,right,→,0.5599022000096738,True,20,-1,0,15
Y2-S2-224K20,2,233,AS,exp,33,←,left,←,0.6196854002773762,True,20,-1,0,15
Y2-S2-224K20,2,234,AS,exp,42,↓,down,↓,0.6717973002232611,True,20,1,1,16
Y2-S2-224K20,3,235,AS,intra_train,45,←,left,←,0.6004364998079836,True,30,-,-,-
Y2-S2-224K20,3,236,AS,intra_train,47,↓,down,↓,0.8660813001915812,True,30,-,-,-
Y2-S2-224K20,3,237,AS,intra_train,29,↑,no_key,no_letter,-1.0,False,30,-,-,-
Y2-S2-224K20,3,238,AS,intra_train,43,←,left,←,1.3743891003541648,True,30,-,-,-
Y2-S2-224K20,3,239,AS,intra_train,36,→,right,→,0.7279098001308739,True,30,-,-,-
Y2-S2-224K20,3,240,AS,exp,29,↓,down,↓,0.7712273998185992,True,20,0,0,0
Y2-S2-224K20,3,241,AS,exp,43,→,left,←,0.6727213999256492,False,20,-1,0,0
Y2-S2-224K20,3,242,AS,exp,43,↓,down,↓,0.8031185995787382,True,21,-1,0,0
Y2-S2-224K20,3,243,AS,exp,32,↑,up,↑,0.7831915998831391,True,21,-1,0,0
Y2-S2-224K20,3,244,AS,exp,34,→,right,→,0.6093461001291871,True,21,1,1,1
Y2-S2-224K20,3,245,AS,exp,46,↓,down,↓,0.843429199885577,True,20,1,0,1
Y2-S2-224K20,3,246,AS,exp,35,←,left,←,1.6444943002425134,True,20,1,0,1
Y2-S2-224K20,3,247,AS,exp,44,↓,down,↓,0.8423264003358781,True,20,1,0,1
Y2-S2-224K20,3,248,AS,exp,40,←,right,→,0.8495473000220954,False,19,-1,1,2
Y2-S2-224K20,3,249,AS,exp,46,→,right,→,1.28402219992131,True,20,-1,0,2
Y2-S2-224K20,3,250,AS,exp,44,←,left,←,0.533358400221914,True,20,-1,0,2
Y2-S2-224K20,3,251,AS,exp,43,→,right,→,1.617995799984783,True,20,1,1,3
Y2-S2-224K20,3,252,AS,exp,33,↑,up,↑,0.7766291000880301,True,19,1,0,3
Y2-S2-224K20,3,253,AS,exp,29,↓,up,↑,0.7959435000084341,False,19,-1,1,4
Y2-S2-224K20,3,254,AS,exp,28,↑,up,↑,0.7252016002312303,True,20,-1,0,4
Y2-S2-224K20,3,255,AS,exp,43,←,left,←,1.459018399938941,True,20,-1,0,4
Y2-S2-224K20,3,256,AS,exp,46,↑,up,↑,0.4173019998706877,True,20,1,1,5
Y2-S2-224K20,3,257,AS,exp,33,↓,down,↓,0.8792767999693751,True,19,1,0,5
Y2-S2-224K20,3,258,AS,exp,46,→,right,→,0.5257175001315773,True,19,1,0,5
Y2-S2-224K20,3,259,AS,exp,45,↓,down,↓,0.8625281001441181,True,19,1,0,5
Y2-S2-224K20,3,260,AS,exp,30,←,right,→,0.5028248997405171,False,18,-1,1,6
Y2-S2-224K20,3,261,AS,exp,50,↓,down,↓,0.5182743999175727,True,19,-1,0,6
Y2-S2-224K20,3,262,AS,exp,28,→,up,↑,0.7874268000014126,False,19,-1,0,6
Y2-S2-224K20,3,263,AS,exp,38,←,right,→,0.6271715997718275,False,20,-1,0,6
Y2-S2-224K20,3,264,AS,exp,31,↑,up,↑,0.5650630001910031,True,21,-1,0,6
Y2-S2-224K20,3,265,AS,exp,31,↓,down,↓,0.7621341999620199,True,21,-1,0,6
Y2-S2-224K20,3,266,AS,exp,41,↑,up,↑,0.36722780019044876,True,21,1,1,7
Y2-S2-224K20,3,267,AS,exp,44,←,left,←,0.5554590001702309,True,20,1,0,7
Y2-S2-224K20,3,268,AS,exp,31,↓,down,↓,0.5256190998479724,True,20,1,0,7
Y2-S2-224K20,3,269,AS,exp,40,↑,up,↑,0.4506818996742368,True,20,1,0,7
Y2-S2-224K20,3,270,AS,exp,25,←,left,←,0.5494792996905744,True,19,1,0,7
Y2-S2-224K20,3,271,AS,exp,32,→,right,→,0.5149209997616708,True,19,1,0,7
Y2-S2-224K20,3,272,AS,exp,25,↓,down,↓,1.20447689993307,True,19,1,0,7
Y2-S2-224K20,3,273,AS,exp,43,↑,up,↑,0.5273068998940289,True,18,1,0,7
Y2-S2-224K20,3,274,AS,exp,41,↓,down,↓,0.47197850001975894,True,18,1,0,7
Y2-S2-224K20,3,275,AS,exp,41,→,no_key,no_letter,-1.0,False,18,-1,1,8
Y2-S2-224K20,3,276,AS,exp,49,↓,down,↓,0.9269804996438324,True,19,-1,0,8
Y2-S2-224K20,3,277,AS,exp,50,↑,up,↑,0.5138198002241552,True,19,-1,0,8
Y2-S2-224K20,3,278,AS,exp,38,→,right,→,0.7235102001577616,True,19,1,1,9
Y2-S2-224K20,3,279,AS,exp,50,↓,down,↓,0.5498039000667632,True,18,1,0,9
Y2-S2-224K20,3,280,AS,exp,50,→,right,→,0.7231775000691414,True,18,1,0,9
Y2-S2-224K20,3,281,AS,exp,34,↓,down,↓,0.7810494997538626,True,18,1,0,9
Y2-S2-224K20,3,282,AS,exp,26,↑,up,↑,0.4171972000040114,True,17,1,0,9
Y2-S2-224K20,3,283,AS,exp,41,↓,down,↓,0.8791984999552369,True,17,1,0,9
Y2-S2-224K20,3,284,AS,exp,36,→,right,→,0.5022742999717593,True,17,1,0,9
Y2-S2-224K20,3,285,AS,exp,32,↓,right,→,1.2741846996359527,False,16,-1,1,10
Y2-S2-224K20,3,286,AS,exp,45,←,left,←,0.7083434001542628,True,17,-1,0,10
Y2-S2-224K20,3,287,AS,exp,33,↑,up,↑,0.855918699875474,True,17,-1,0,10
Y2-S2-224K20,3,288,AS,exp,45,↓,down,↓,0.6495695998892188,True,17,1,1,11
Y2-S2-224K20,3,289,AS,exp,46,←,left,←,0.7237372002564371,True,16,1,0,11
Y2-S2-224K20,3,290,AS,exp,41,→,left,←,0.6000131000764668,False,16,-1,1,12
Y2-S2-224K20,3,291,AS,exp,36,↓,left,←,0.8468112000264227,False,17,-1,0,12
Y2-S2-224K20,3,292,AS,exp,43,←,left,←,0.6624024002812803,True,18,-1,0,12
Y2-S2-224K20,3,293,AS,exp,25,↑,up,↑,0.7249431000091136,True,18,-1,0,12
Y2-S2-224K20,3,294,AS,exp,44,←,right,→,0.6064571999013424,False,18,-1,0,12
Y2-S2-224K20,3,295,AS,exp,42,↓,down,↓,0.8791137998923659,True,19,-1,0,12
Y2-S2-224K20,3,296,AS,exp,25,→,right,→,0.9041022998280823,True,19,-1,0,12
Y2-S2-224K20,3,297,AS,exp,34,↑,up,↑,0.7694096001796424,True,19,1,1,13
Y2-S2-224K20,3,298,AS,exp,38,↓,down,↓,0.7266462999396026,True,18,1,0,13
Y2-S2-224K20,3,299,AS,exp,30,→,right,→,0.5248401998542249,True,18,1,0,13
Y2-S2-224K20,3,300,AS,exp,29,↑,up,↑,0.7063448000699282,True,18,1,0,13
Y2-S2-224K20,3,301,AS,exp,41,←,left,←,0.6245842999778688,True,17,1,0,13
Y2-S2-224K20,3,302,AS,exp,42,↓,down,↓,0.6954059000127017,True,17,1,0,13
Y2-S2-224K20,3,303,AS,exp,25,←,right,→,0.539113899692893,False,17,-1,1,14
Y2-S2-224K20,3,304,AS,exp,43,↓,down,↓,0.8531940001994371,True,18,-1,0,14
Y2-S2-224K20,3,305,AS,exp,40,→,right,→,0.524796299636364,True,18,-1,0,14
Y2-S2-224K20,3,306,AS,exp,39,←,left,←,0.5474787000566721,True,18,1,1,15
Y2-S2-224K20,3,307,AS,exp,42,↓,down,↓,0.6595767000690103,True,17,1,0,15
Y2-S2-224K20,3,308,AS,exp,28,↑,up,↑,0.8450509998947382,True,17,1,0,15
Y2-S2-224K20,3,309,AS,exp,34,→,right,→,1.1843101000413299,True,17,1,0,15
Y2-S2-224K20,3,310,AS,exp,34,←,left,←,0.6492448002099991,True,16,1,0,15
Y2-S2-224K20,3,311,AS,exp,50,→,up,↑,0.7971235997974873,False,16,-1,1,16
Y2-S2-224K20,4,312,PS,intra_train,45,↑,left,←,1.4036181000992656,False,12,-,-,-
Y2-S2-224K20,4,313,PS,intra_train,37,→,right,→,0.5581041998229921,True,12,-,-,-
Y2-S2-224K20,4,314,PS,intra_train,30,↓,down,↓,0.6529495995491743,True,12,-,-,-
Y2-S2-224K20,4,315,PS,intra_train,30,↑,right,→,1.1231463002040982,False,12,-,-,-
Y2-S2-224K20,4,316,PS,intra_train,41,←,left,←,0.5684867999516428,True,12,-,-,-
Y2-S2-224K20,4,317,PS,exp,43,↓,right,→,1.4445234998129308,False,8,-1,0,0
Y2-S2-224K20,4,318,PS,exp,46,↑,up,↑,0.5529976999387145,True,9,-1,0,0
Y2-S2-224K20,4,319,PS,exp,43,↓,down,↓,0.6970808999612927,True,9,-1,0,0
Y2-S2-224K20,4,320,PS,exp,49,←,left,←,0.7784003000706434,True,9,1,1,1
Y2-S2-224K20,4,321,PS,exp,48,→,right,→,0.4945632996968925,True,8,1,0,1
Y2-S2-224K20,4,322,PS,exp,44,↑,up,↑,0.5003260001540184,True,8,1,0,1
Y2-S2-224K20,4,323,PS,exp,25,↓,down,↓,0.6821648003533483,True,8,1,0,1
Y2-S2-224K20,4,324,PS,exp,29,←,left,←,0.5244587999768555,True,7,1,0,1
Y2-S2-224K20,4,325,PS,exp,50,→,right,→,0.5209403000771999,True,7,1,0,1
Y2-S2-224K20,4,326,PS,exp,36,↓,down,↓,0.6986652002669871,True,7,1,0,1
Y2-S2-224K20,4,327,PS,exp,29,→,left,←,0.7368901004083455,False,6,-1,1,2
Y2-S2-224K20,4,328,PS,exp,37,↑,up,↑,0.4873026995919645,True,7,-1,0,2
Y2-S2-224K20,4,329,PS,exp,42,←,left,←,0.7015384002588689,True,7,-1,0,2
Y2-S2-224K20,4,330,PS,exp,41,↑,up,↑,0.4864012999460101,True,7,1,1,3
Y2-S2-224K20,4,331,PS,exp,46,←,up,↑,0.9895283002406359,False,6,-1,1,4
Y2-S2-224K20,4,332,PS,exp,40,→,right,→,0.5311107002198696,True,7,-1,0,4
Y2-S2-224K20,4,333,PS,exp,30,↑,up,↑,0.5218005999922752,True,7,-1,0,4
Y2-S2-224K20,4,334,PS,exp,50,→,right,→,0.622503099963069,True,7,1,1,5
Y2-S2-224K20,4,335,PS,exp,35,↑,up,↑,0.5744091002270579,True,6,1,0,5
Y2-S2-224K20,4,336,PS,exp,38,←,left,←,1.2267980999313295,True,6,1,0,5
Y2-S2-224K20,4,337,PS,exp,49,→,right,→,0.5610231999307871,True,6,1,0,5
Y2-S2-224K20,4,338,PS,exp,43,←,left,←,1.0255777998827398,True,5,1,0,5
Y2-S2-224K20,4,339,PS,exp,40,→,right,→,0.44895589957013726,True,5,1,0,5
Y2-S2-224K20,4,340,PS,exp,41,←,right,→,0.4222240997478366,False,5,-1,1,6
Y2-S2-224K20,4,341,PS,exp,38,↑,right,→,0.5566839999519289,False,6,-1,0,6
Y2-S2-224K20,4,342,PS,exp,44,↓,down,↓,0.7733970996923745,True,7,-1,0,6
Y2-S2-224K20,4,343,PS,exp,36,↑,up,↑,0.46656160010024905,True,7,-1,0,6
Y2-S2-224K20,4,344,PS,exp,40,→,right,→,0.5117594003677368,True,7,1,1,7
Y2-S2-224K20,4,345,PS,exp,46,↑,up,↑,0.4784224000759423,True,6,1,0,7
Y2-S2-224K20,4,346,PS,exp,29,→,right,→,0.9415364996530116,True,6,1,0,7
Y2-S2-224K20,4,347,PS,exp,34,↑,up,↑,0.45302109979093075,True,6,1,0,7
Y2-S2-224K20,4,348,PS,exp,35,→,right,→,0.7155464002862573,True,5,1,0,7
Y2-S2-224K20,4,349,PS,exp,29,←,right,→,0.6506288000382483,False,5,-1,1,8
Y2-S2-224K20,4,350,PS,exp,42,↓,right,→,0.5737250000238419,False,6,-1,0,8
Y2-S2-224K20,4,351,PS,exp,43,←,left,←,0.5339815001934767,True,7,-1,0,8
Y2-S2-224K20,4,352,PS,exp,40,↓,down,↓,0.7386897997930646,True,7,-1,0,8
Y2-S2-224K20,4,353,PS,exp,47,→,right,→,0.4772137999534607,True,7,1,1,9
Y2-S2-224K20,4,354,PS,exp,29,↓,right,→,0.6423414000310004,False,6,-1,1,10
Y2-S2-224K20,4,355,PS,exp,36,→,right,→,0.4766232999972999,True,7,-1,0,10
Y2-S2-224K20,4,356,PS,exp,32,↓,down,↓,0.653997799847275,True,7,-1,0,10
Y2-S2-224K20,4,357,PS,exp,33,↑,up,↑,0.5362464999780059,True,7,1,1,11
Y2-S2-224K20,4,358,PS,exp,31,↓,right,→,0.641637799795717,False,6,-1,1,12
Y2-S2-224K20,4,359,PS,exp,41,→,right,→,0.46375499991700053,True,7,-1,0,12
Y2-S2-224K20,4,360,PS,exp,50,←,left,←,0.5240098000504076,True,7,-1,0,12
Y2-S2-224K20,4,361,PS,exp,33,↓,left,←,0.5594550999812782,False,7,-1,0,12
Y2-S2-224K20,4,362,PS,exp,41,↑,up,↑,0.48272630013525486,True,8,-1,0,12
Y2-S2-224K20,4,363,PS,exp,50,↓,up,↑,0.8879972002469003,False,8,-1,0,12
Y2-S2-224K20,4,364,PS,exp,34,↑,up,↑,0.537973899859935,True,9,-1,0,12
Y2-S2-224K20,4,365,PS,exp,26,→,right,→,0.5744326999410987,True,9,-1,0,12
Y2-S2-224K20,4,366,PS,exp,25,←,left,←,0.8443265999667346,True,9,1,1,13
Y2-S2-224K20,4,367,PS,exp,44,↓,down,↓,0.7598626003600657,True,8,1,0,13
Y2-S2-224K20,4,368,PS,exp,32,→,right,→,0.4656156999990344,True,8,1,0,13
Y2-S2-224K20,4,369,PS,exp,27,↑,right,→,0.5675380998291075,False,8,-1,1,14
Y2-S2-224K20,4,370,PS,exp,38,↓,left,←,0.6611719001084566,False,9,-1,0,14
Y2-S2-224K20,4,371,PS,exp,41,→,right,→,0.526191100012511,True,10,-1,0,14
Y2-S2-224K20,4,372,PS,exp,49,↓,down,↓,0.5071723000146449,True,10,-1,0,14
Y2-S2-224K20,4,373,PS,exp,26,→,right,→,0.442051799967885,True,10,1,1,15
Y2-S2-224K20,4,374,PS,exp,50,←,left,←,0.4015851002186537,True,9,1,0,15
Y2-S2-224K20,4,375,PS,exp,28,↑,right,→,0.6951787997968495,False,9,-1,1,16
Y2-S2-224K20,5,376,PS,intra_train,41,←,left,←,0.460272999946028,True,12,-,-,-
Y2-S2-224K20,5,377,PS,intra_train,47,↓,down,↓,0.642045599874109,True,12,-,-,-
Y2-S2-224K20,5,378,PS,intra_train,40,←,left,←,0.4822909999638796,True,12,-,-,-
Y2-S2-224K20,5,379,PS,intra_train,49,↑,up,↑,0.4517660001292825,True,12,-,-,-
Y2-S2-224K20,5,380,PS,intra_train,50,→,right,→,0.6726035997271538,True,12,-,-,-
Y2-S2-224K20,5,381,PS,exp,36,↓,down,↓,0.7430751002393663,True,8,0,0,0
Y2-S2-224K20,5,382,PS,exp,28,←,left,←,0.7906275996938348,True,8,0,0,0
Y2-S2-224K20,5,383,PS,exp,39,↓,right,→,0.9377017999067903,False,8,-1,0,0
Y2-S2-224K20,5,384,PS,exp,38,→,right,→,0.6416448000818491,True,9,-1,0,0
Y2-S2-224K20,5,385,PS,exp,33,←,left,←,0.5206418000161648,True,9,-1,0,0
Y2-S2-224K20,5,386,PS,exp,50,↓,down,↓,0.7151501998305321,True,9,1,1,1
Y2-S2-224K20,5,387,PS,exp,46,→,down,↓,0.7019866001792252,False,8,-1,1,2
Y2-S2-224K20,5,388,PS,exp,42,←,left,←,0.6989939999766648,True,9,-1,0,2
Y2-S2-224K20,5,389,PS,exp,29,→,right,→,0.532620900310576,True,9,-1,0,2
Y2-S2-224K20,5,390,PS,exp,38,←,left,←,0.44320370024070144,True,9,1,1,3
Y2-S2-224K20,5,391,PS,exp,43,→,right,→,0.48564339987933636,True,8,1,0,3
Y2-S2-224K20,5,392,PS,exp,25,↑,up,↑,0.5558150000870228,True,8,1,0,3
Y2-S2-224K20,5,393,PS,exp,49,↓,down,↓,0.9685255996882915,True,8,1,0,3
Y2-S2-224K20,5,394,PS,exp,41,↑,up,↑,1.1457297001034021,True,7,1,0,3
Y2-S2-224K20,5,395,PS,exp,50,←,left,←,0.4582532998174429,True,7,1,0,3
Y2-S2-224K20,5,396,PS,exp,40,→,right,→,0.5245898999273777,True,7,1,0,3
Y2-S2-224K20,5,397,PS,exp,45,↑,right,→,0.46668059984222054,False,6,-1,1,4
Y2-S2-224K20,5,398,PS,exp,32,→,right,→,0.7220295998267829,True,7,-1,0,4
Y2-S2-224K20,5,399,PS,exp,40,↑,no_key,no_letter,-1.0,False,7,-1,0,4
Y2-S2-224K20,5,400,PS,exp,40,→,right,→,0.6309214001521468,True,8,-1,0,4
Y2-S2-224K20,5,401,PS,exp,39,↑,right,→,0.7415774003602564,False,8,-1,0,4
Y2-S2-224K20,5,402,PS,exp,35,↓,right,→,0.52899120002985,False,9,-1,0,4
Y2-S2-224K20,5,403,PS,exp,25,↑,right,→,0.635442600119859,False,10,-1,0,4
Y2-S2-224K20,5,404,PS,exp,40,←,left,←,0.6309247999452055,True,11,-1,0,4
Y2-S2-224K20,5,405,PS,exp,37,↑,left,←,0.8477797997184098,False,11,-1,0,4
Y2-S2-224K20,5,406,PS,exp,41,↓,right,→,0.826967999804765,False,12,-1,0,4
Y2-S2-224K20,5,407,PS,exp,39,→,right,→,0.5284583000466228,True,13,-1,0,4
Y2-S2-224K20,5,408,PS,exp,43,↓,down,↓,0.7989244996570051,True,13,-1,0,4
Y2-S2-224K20,5,409,PS,exp,49,→,right,→,0.47858130000531673,True,13,1,1,5
Y2-S2-224K20,5,410,PS,exp,44,↓,down,↓,0.5612420998513699,True,12,1,0,5
Y2-S2-224K20,5,411,PS,exp,40,→,right,→,0.4754768996499479,True,12,1,0,5
Y2-S2-224K20,5,412,PS,exp,33,←,right,→,0.8740697000175714,False,12,-1,1,6
Y2-S2-224K20,5,413,PS,exp,35,→,right,→,0.43601470021530986,True,13,-1,0,6
Y2-S2-224K20,5,414,PS,exp,42,←,left,←,0.4811869002878666,True,13,-1,0,6
Y2-S2-224K20,5,415,PS,exp,30,↓,down,↓,0.6773422001861036,True,13,1,1,7
Y2-S2-224K20,5,416,PS,exp,37,→,right,→,0.4688709997572005,True,12,1,0,7
Y2-S2-224K20,5,417,PS,exp,48,↑,up,↑,0.5595376002602279,True,12,1,0,7
Y2-S2-224K20,5,418,PS,exp,29,←,left,←,0.4591743000783026,True,12,1,0,7
Y2-S2-224K20,5,419,PS,exp,35,↓,down,↓,0.6885027000680566,True,11,1,0,7
Y2-S2-224K20,5,420,PS,exp,29,→,right,→,0.5055852001532912,True,11,1,0,7
Y2-S2-224K20,5,421,PS,exp,33,←,left,←,0.4896510001271963,True,11,1,0,7
Y2-S2-224K20,5,422,PS,exp,25,→,right,→,0.6290369997732341,True,10,1,0,7
Y2-S2-224K20,5,423,PS,exp,37,↑,up,↑,0.6043047998100519,True,10,1,0,7
Y2-S2-224K20,5,424,PS,exp,26,↓,down,↓,0.8012582003138959,True,10,1,0,7
Y2-S2-224K20,5,425,PS,exp,29,←,left,←,0.9913039999082685,True,9,1,0,7
Y2-S2-224K20,5,426,PS,exp,25,↑,up,↑,0.5899861003272235,True,9,1,0,7
Y2-S2-224K20,5,427,PS,exp,26,↓,down,↓,0.7744050999172032,True,9,1,0,7
Y2-S2-224K20,5,428,PS,exp,49,←,left,←,0.6960040000267327,True,8,1,0,7
Y2-S2-224K20,5,429,PS,exp,50,↑,up,↑,0.45691550010815263,True,8,1,0,7
Y2-S2-224K20,5,430,PS,exp,42,↓,right,→,0.5891927001066506,False,8,-1,1,8
Y2-S2-224K20,5,431,PS,exp,35,↑,right,→,0.6225134995765984,False,9,-1,0,8
Y2-S2-224K20,5,432,PS,exp,29,→,right,→,0.6155300000682473,True,10,-1,0,8
Y2-S2-224K20,5,433,PS,exp,37,↓,down,↓,0.7944442997686565,True,10,-1,0,8
Y2-S2-224K20,5,434,PS,exp,29,↑,up,↑,0.5772720999084413,True,10,1,1,9
Y2-S2-224K20,5,435,PS,exp,37,←,left,←,0.5526515999808908,True,9,1,0,9
Y2-S2-224K20,5,436,PS,exp,29,→,right,→,0.7115502003580332,True,9,1,0,9
Y2-S2-224K20,5,437,PS,exp,37,↓,right,→,0.5446087000891566,False,9,-1,1,10
Y2-S2-224K20,5,438,PS,exp,42,←,left,←,0.7150111999362707,True,10,-1,0,10
Y2-S2-224K20,5,439,PS,exp,39,↓,up,↑,0.8449145001359284,False,10,-1,0,10
Y2-S2-224K20,5,440,PS,exp,33,↑,up,↑,0.47123090038076043,True,11,-1,0,10
Y2-S2-224K20,5,441,PS,exp,49,↓,down,↓,0.761727100238204,True,11,-1,0,10
Y2-S2-224K20,5,442,PS,exp,46,←,up,↑,0.911200599744916,False,11,-1,0,10
Y2-S2-224K20,5,443,PS,exp,25,↑,up,↑,0.4585329000838101,True,12,-1,0,10
Y2-S2-224K20,5,444,PS,exp,31,→,right,→,0.5366448001004755,True,12,-1,0,10
Y2-S2-224K20,5,445,PS,exp,27,↑,up,↑,0.5348163000307977,True,12,1,1,11
Y2-S2-224K20,5,446,PS,exp,49,→,up,↑,0.5697871996089816,False,11,-1,1,12
Y2-S2-224K20,5,447,PS,exp,43,←,left,←,0.8116249996237457,True,12,-1,0,12
Y2-S2-224K20,5,448,PS,exp,38,↑,up,↑,0.5315926000475883,True,12,-1,0,12
Y2-S2-224K20,5,449,PS,exp,28,→,right,→,0.7525908998213708,True,12,1,1,13
Y2-S2-224K20,5,450,PS,exp,26,↑,up,↑,1.1101950001902878,True,11,1,0,13
Y2-S2-224K20,5,451,PS,exp,37,→,up,↑,0.660026399884373,False,11,-1,1,14
Y2-S2-224K20,5,452,PS,exp,47,↓,up,↑,0.6846327004022896,False,12,-1,0,14
Y2-S2-224K20,5,453,PS,exp,48,←,left,←,0.6690913001075387,True,13,-1,0,14
Y2-S2-224K20,5,454,PS,exp,42,↓,left,←,0.7093275999650359,False,13,-1,0,14
Y2-S2-224K20,5,455,PS,exp,37,→,right,→,0.5100059998221695,True,14,-1,0,14
Y2-S2-224K20,5,456,PS,exp,30,←,left,←,0.6301251999102533,True,14,-1,0,14
Y2-S2-224K20,5,457,PS,exp,30,→,right,→,0.6705514001660049,True,14,1,1,15
Y2-S2-224K20,5,458,PS,exp,40,↑,up,↑,0.4669041996821761,True,13,1,0,15
Y2-S2-224K20,5,459,PS,exp,42,←,left,←,0.5715512000024319,True,13,1,0,15
Y2-S2-224K20,5,460,PS,exp,37,→,right,→,0.49370510037988424,True,13,1,0,15
Y2-S2-224K20,5,461,PS,exp,33,←,left,←,0.6558010000735521,True,12,1,0,15
Y2-S2-224K20,5,462,PS,exp,34,↑,up,↑,0.5452708001248538,True,12,1,0,15
Y2-S2-224K20,5,463,PS,exp,32,→,right,→,0.48045509960502386,True,12,1,0,15
Y2-S2-224K20,5,464,PS,exp,25,←,left,←,1.3400873001664877,True,11,1,0,15
Y2-S2-224K20,5,465,PS,exp,25,↓,down,↓,0.7573481001891196,True,11,1,0,15
Y2-S2-224K20,5,466,PS,exp,32,→,right,→,0.6033084997907281,True,11,1,0,15
Y2-S2-224K20,5,467,PS,exp,25,↑,up,↑,0.4388576000928879,True,10,1,0,15
Y2-S2-224K20,5,468,PS,exp,40,←,left,←,0.4203713000752032,True,10,1,0,15
Y2-S2-224K20,5,469,PS,exp,44,↑,up,↑,0.4030941999517381,True,10,1,0,15
Y2-S2-224K20,5,470,PS,exp,28,→,right,→,0.5677219997160137,True,9,1,0,15
Y2-S2-224K20,5,471,PS,exp,37,↓,down,↓,0.5645293002016842,True,9,1,0,15
Y2-S2-224K20,5,472,PS,exp,36,↑,left,←,0.9430146999657154,False,9,-1,1,16
Y2-S2-224K20,6,473,AS,intra_train,37,←,left,←,0.5838815998286009,True,30,-,-,-
Y2-S2-224K20,6,474,AS,intra_train,41,→,right,→,0.5506466003134847,True,30,-,-,-
Y2-S2-224K20,6,475,AS,intra_train,26,←,left,←,0.7351939002983272,True,30,-,-,-
Y2-S2-224K20,6,476,AS,intra_train,49,→,right,→,0.7429893999360502,True,30,-,-,-
Y2-S2-224K20,6,477,AS,intra_train,45,↓,down,↓,0.6176028996706009,True,30,-,-,-
Y2-S2-224K20,6,478,AS,exp,42,→,right,→,1.0181162999942899,True,20,0,0,0
Y2-S2-224K20,6,479,AS,exp,39,↓,right,→,1.313441399950534,False,20,-1,0,0
Y2-S2-224K20,6,480,AS,exp,35,↑,down,↓,0.8870878997258842,False,21,-1,0,0
Y2-S2-224K20,6,481,AS,exp,43,←,left,←,0.7838908000849187,True,22,-1,0,0
Y2-S2-224K20,6,482,AS,exp,25,→,right,→,0.7177284997887909,True,22,-1,0,0
Y2-S2-224K20,6,483,AS,exp,34,←,left,←,0.743113299831748,True,22,1,1,1
Y2-S2-224K20,6,484,AS,exp,34,→,right,→,0.696826099883765,True,21,1,0,1
Y2-S2-224K20,6,485,AS,exp,36,↓,right,→,0.9230248001404107,False,21,-1,1,2
Y2-S2-224K20,6,486,AS,exp,37,↑,up,↑,0.647212399635464,True,22,-1,0,2
Y2-S2-224K20,6,487,AS,exp,46,→,right,→,0.7534429999068379,True,22,-1,0,2
Y2-S2-224K20,6,488,AS,exp,50,↑,up,↑,0.7131690001115203,True,22,1,1,3
Y2-S2-224K20,6,489,AS,exp,40,→,right,→,0.6257433001883328,True,21,1,0,3
Y2-S2-224K20,6,490,AS,exp,42,↓,down,↓,0.8948777997866273,True,21,1,0,3
Y2-S2-224K20,6,491,AS,exp,29,←,no_key,no_letter,-1.0,False,21,-1,1,4
Y2-S2-224K20,6,492,AS,exp,40,↑,up,↑,0.7369216000661254,True,22,-1,0,4
Y2-S2-224K20,6,493,AS,exp,32,→,right,→,0.546796000096947,True,22,-1,0,4
Y2-S2-224K20,6,494,AS,exp,42,←,left,←,0.8135132002644241,True,22,1,1,5
Y2-S2-224K20,6,495,AS,exp,44,↓,down,↓,0.7558491001836956,True,21,1,0,5
Y2-S2-224K20,6,496,AS,exp,39,←,left,←,0.696997799910605,True,21,1,0,5
Y2-S2-224K20,6,497,AS,exp,34,↑,up,↑,0.6201301999390125,True,21,1,0,5
Y2-S2-224K20,6,498,AS,exp,30,↓,up,↑,1.1446589003317058,False,20,-1,1,6
Y2-S2-224K20,6,499,AS,exp,36,←,left,←,0.8287196001037955,True,21,-1,0,6
Y2-S2-224K20,6,500,AS,exp,34,↓,down,↓,1.0711260996758938,True,21,-1,0,6
Y2-S2-224K20,6,501,AS,exp,48,→,right,→,0.6097837998531759,True,21,1,1,7
Y2-S2-224K20,6,502,AS,exp,43,↓,down,↓,0.8328619999811053,True,20,1,0,7
Y2-S2-224K20,6,503,AS,exp,30,→,no_key,no_letter,-1.0,False,20,-1,1,8
Y2-S2-224K20,6,504,AS,exp,48,↓,down,↓,0.8582796999253333,True,21,-1,0,8
Y2-S2-224K20,6,505,AS,exp,46,↑,up,↑,0.636043599806726,True,21,-1,0,8
Y2-S2-224K20,6,506,AS,exp,42,→,right,→,0.7686133999377489,True,21,1,1,9
Y2-S2-224K20,6,507,AS,exp,48,↑,up,↑,0.5045572998933494,True,20,1,0,9
Y2-S2-224K20,6,508,AS,exp,33,↓,down,↓,0.8682810999453068,True,20,1,0,9
Y2-S2-224K20,6,509,AS,exp,34,↑,down,↓,1.0198614997789264,False,20,-1,1,10
Y2-S2-224K20,6,510,AS,exp,30,→,right,→,0.6723565999418497,True,21,-1,0,10
Y2-S2-224K20,6,511,AS,exp,49,↑,up,↑,0.4342615995556116,True,21,-1,0,10
Y2-S2-224K20,6,512,AS,exp,29,↓,down,↓,0.7132708001881838,True,21,1,1,11
Y2-S2-224K20,6,513,AS,exp,25,→,right,→,0.5892163999378681,True,20,1,0,11
Y2-S2-224K20,6,514,AS,exp,47,↑,up,↑,0.9564988999627531,True,20,1,0,11
Y2-S2-224K20,6,515,AS,exp,40,→,right,→,0.5526869003660977,True,20,1,0,11
Y2-S2-224K20,6,516,AS,exp,33,↓,down,↓,0.6287330002523959,True,19,1,0,11
Y2-S2-224K20,6,517,AS,exp,32,↑,down,↓,1.0344337997958064,False,19,-1,1,12
Y2-S2-224K20,6,518,AS,exp,34,↓,down,↓,0.7808608999475837,True,20,-1,0,12
Y2-S2-224K20,6,519,AS,exp,36,↑,up,↑,1.2102554002776742,True,20,-1,0,12
Y2-S2-224K20,6,520,AS,exp,32,←,left,←,0.8577882996760309,True,20,1,1,13
Y2-S2-224K20,6,521,AS,exp,34,↓,down,↓,0.756670500151813,True,19,1,0,13
Y2-S2-224K20,6,522,AS,exp,43,→,right,→,0.7711434001103044,True,19,1,0,13
Y2-S2-224K20,6,523,AS,exp,47,↑,up,↑,0.5030572996474802,True,19,1,0,13
Y2-S2-224K20,6,524,AS,exp,39,→,right,→,0.5289469002746046,True,18,1,0,13
Y2-S2-224K20,6,525,AS,exp,49,←,left,←,0.6662525003775954,True,18,1,0,13
Y2-S2-224K20,6,526,AS,exp,33,↓,down,↓,0.7859261003322899,True,18,1,0,13
Y2-S2-224K20,6,527,AS,exp,28,←,left,←,0.6790851000696421,True,17,1,0,13
Y2-S2-224K20,6,528,AS,exp,42,↓,down,↓,0.7529004998505116,True,17,1,0,13
Y2-S2-224K20,6,529,AS,exp,46,→,right,→,0.5279454002156854,True,17,1,0,13
Y2-S2-224K20,6,530,AS,exp,47,←,right,→,0.7526528001762927,False,16,-1,1,14
Y2-S2-224K20,6,531,AS,exp,45,↓,right,→,0.946470900438726,False,17,-1,0,14
Y2-S2-224K20,6,532,AS,exp,47,→,right,→,0.5270974999293685,True,18,-1,0,14
Y2-S2-224K20,6,533,AS,exp,39,↓,down,↓,0.8321435996331275,True,18,-1,0,14
Y2-S2-224K20,6,534,AS,exp,28,←,right,→,0.7583417999558151,False,18,-1,0,14
Y2-S2-224K20,6,535,AS,exp,37,↓,down,↓,0.7393827997148037,True,19,-1,0,14
Y2-S2-224K20,6,536,AS,exp,35,↑,up,↑,0.8515695002861321,True,19,-1,0,14
Y2-S2-224K20,6,537,AS,exp,37,↓,down,↓,0.8389989999122918,True,19,1,1,15
Y2-S2-224K20,6,538,AS,exp,45,↑,up,↑,0.6054039997979999,True,18,1,0,15
Y2-S2-224K20,6,539,AS,exp,31,←,left,←,0.6962544000707567,True,18,1,0,15
Y2-S2-224K20,6,540,AS,exp,50,↑,up,↑,0.7937635001726449,True,18,1,0,15
Y2-S2-224K20,6,541,AS,exp,34,↓,down,↓,0.8841018001548946,True,17,1,0,15
Y2-S2-224K20,6,542,AS,exp,29,→,right,→,0.5581216001883149,True,17,1,0,15
Y2-S2-224K20,6,543,AS,exp,33,↑,up,↑,0.7459063003771007,True,17,1,0,15
Y2-S2-224K20,6,544,AS,exp,49,←,left,←,0.47733259992673993,True,16,1,0,15
Y2-S2-224K20,6,545,AS,exp,36,↓,down,↓,0.7255790000781417,True,16,1,0,15
Y2-S2-224K20,6,546,AS,exp,30,→,down,↓,0.7821545000188053,False,16,-1,1,16
Y2-S2-224K20,7,547,AS,intra_train,36,↑,up,↑,1.5555433998815715,True,30,-,-,-
Y2-S2-224K20,7,548,AS,intra_train,40,←,left,←,0.7370088999159634,True,30,-,-,-
Y2-S2-224K20,7,549,AS,intra_train,46,↓,down,↓,0.8108350997790694,True,30,-,-,-
Y2-S2-224K20,7,550,AS,intra_train,44,↑,up,↑,0.680800300091505,True,30,-,-,-
Y2-S2-224K20,7,551,AS,intra_train,31,←,left,←,0.6173999002203345,True,30,-,-,-
Y2-S2-224K20,7,552,AS,exp,35,↑,up,↑,0.7376860999502242,True,20,0,0,0
Y2-S2-224K20,7,553,AS,exp,38,↓,down,↓,0.8596097002737224,True,20,0,0,0
Y2-S2-224K20,7,554,AS,exp,42,→,right,→,0.692374600097537,True,20,1,0,0
Y2-S2-224K20,7,555,AS,exp,43,←,left,←,0.45084119960665703,True,19,1,0,0
Y2-S2-224K20,7,556,AS,exp,41,→,right,→,0.6869967998936772,True,19,1,0,0
Y2-S2-224K20,7,557,AS,exp,40,↑,up,↑,0.45113119995221496,True,19,1,0,0
Y2-S2-224K20,7,558,AS,exp,36,→,no_key,no_letter,-1.0,False,18,-1,1,1
Y2-S2-224K20,7,559,AS,exp,46,↓,up,↑,0.8974763001315296,False,19,-1,0,1
Y2-S2-224K20,7,560,AS,exp,37,←,left,←,0.8368478999473155,True,20,-1,0,1
Y2-S2-224K20,7,561,AS,exp,45,→,right,→,0.6523707997985184,True,20,-1,0,1
Y2-S2-224K20,7,562,AS,exp,44,↓,down,↓,0.7893313001841307,True,20,1,1,2
Y2-S2-224K20,7,563,AS,exp,32,→,right,→,0.7138631995767355,True,19,1,0,2
Y2-S2-224K20,7,564,AS,exp,36,↑,up,↑,0.6275067999958992,True,19,1,0,2
Y2-S2-224K20,7,565,AS,exp,48,→,right,→,0.6343368999660015,True,19,1,0,2
Y2-S2-224K20,7,566,AS,exp,42,↑,up,↑,0.9833244998008013,True,18,1,0,2
Y2-S2-224K20,7,567,AS,exp,49,↓,right,→,0.9361254000104964,False,18,-1,1,3
Y2-S2-224K20,7,568,AS,exp,46,←,left,←,0.5796525999903679,True,19,-1,0,3
Y2-S2-224K20,7,569,AS,exp,35,→,left,←,0.8959666998125613,False,19,-1,0,3
Y2-S2-224K20,7,570,AS,exp,37,↓,down,↓,0.7912456002086401,True,20,-1,0,3
Y2-S2-224K20,7,571,AS,exp,29,←,left,←,0.5055697998031974,True,20,-1,0,3
Y2-S2-224K20,7,572,AS,exp,39,↑,up,↑,0.46728589991107583,True,20,1,1,4
Y2-S2-224K20,7,573,AS,exp,43,←,up,↑,0.8751753997057676,False,19,-1,1,5
Y2-S2-224K20,7,574,AS,exp,26,↓,down,↓,0.7264077002182603,True,20,-1,0,5
Y2-S2-224K20,7,575,AS,exp,48,←,left,←,0.467363600153476,True,20,-1,0,5
Y2-S2-224K20,7,576,AS,exp,30,→,right,→,0.7307385997846723,True,20,1,1,6
Y2-S2-224K20,7,577,AS,exp,44,←,right,→,0.8448176998645067,False,19,-1,1,7
Y2-S2-224K20,7,578,AS,exp,48,↑,up,↑,0.8345177001319826,True,20,-1,0,7
Y2-S2-224K20,7,579,AS,exp,45,↓,down,↓,0.5704574999399483,True,20,-1,0,7
Y2-S2-224K20,7,580,AS,exp,46,←,right,→,0.6562434998340905,False,20,-1,0,7
Y2-S2-224K20,7,581,AS,exp,32,↑,up,↑,0.7187938001006842,True,21,-1,0,7
Y2-S2-224K20,7,582,AS,exp,42,↓,down,↓,0.813612500205636,True,21,-1,0,7
Y2-S2-224K20,7,583,AS,exp,25,←,left,←,0.558417699765414,True,21,1,1,8
Y2-S2-224K20,7,584,AS,exp,32,↑,up,↑,0.7666362002491951,True,20,1,0,8
Y2-S2-224K20,7,585,AS,exp,25,→,right,→,0.7779211001470685,True,20,1,0,8
Y2-S2-224K20,7,586,AS,exp,34,↓,down,↓,0.9282209002412856,True,20,1,0,8
Y2-S2-224K20,7,587,AS,exp,43,↑,up,↑,0.7951332000084221,True,19,1,0,8
Y2-S2-224K20,7,588,AS,exp,37,↓,up,↑,1.2292709997855127,False,19,-1,1,9
Y2-S2-224K20,7,589,AS,exp,44,↑,up,↑,0.467210799921304,True,20,-1,0,9
Y2-S2-224K20,7,590,AS,exp,28,→,right,→,0.5424146000295877,True,20,-1,0,9
Y2-S2-224K20,7,591,AS,exp,41,↑,up,↑,0.6617093998938799,True,20,1,1,10
Y2-S2-224K20,7,592,AS,exp,49,↓,down,↓,0.8283740999177098,True,19,1,0,10
Y2-S2-224K20,7,593,AS,exp,33,↑,right,→,1.7136842999607325,False,19,-1,1,11
Y2-S2-224K20,7,594,AS,exp,26,←,left,←,0.6559643000364304,True,20,-1,0,11
Y2-S2-224K20,7,595,AS,exp,27,↑,up,↑,1.2252038000151515,True,20,-1,0,11
Y2-S2-224K20,7,596,AS,exp,47,↓,down,↓,1.0055369003675878,True,20,1,1,12
Y2-S2-224K20,7,597,AS,exp,49,←,left,←,0.6639140001498163,True,19,1,0,12
Y2-S2-224K20,7,598,AS,exp,37,↓,down,↓,0.921654099598527,True,19,1,0,12
Y2-S2-224K20,7,599,AS,exp,41,←,left,←,0.9534235000610352,True,19,1,0,12
Y2-S2-224K20,7,600,AS,exp,49,↓,down,↓,0.6729359999299049,True,18,1,0,12
Y2-S2-224K20,7,601,AS,exp,32,→,right,→,0.9976766998879611,True,18,1,0,12
Y2-S2-224K20,7,602,AS,exp,50,↑,up,↑,0.6650694999843836,True,18,1,0,12
Y2-S2-224K20,7,603,AS,exp,50,←,left,←,0.7960628001019359,True,17,1,0,12
Y2-S2-224K20,7,604,AS,exp,35,↑,up,↑,0.6321523999795318,True,17,1,0,12
Y2-S2-224K20,7,605,AS,exp,30,↓,up,↑,0.8727573002688587,False,17,-1,1,13
Y2-S2-224K20,7,606,AS,exp,36,→,right,→,0.5557168000377715,True,18,-1,0,13
Y2-S2-224K20,7,607,AS,exp,47,↓,right,→,0.6477283998392522,False,18,-1,0,13
Y2-S2-224K20,7,608,AS,exp,47,↑,up,↑,0.8005007999017835,True,19,-1,0,13
Y2-S2-224K20,7,609,AS,exp,31,→,right,→,0.522392500191927,True,19,-1,0,13
Y2-S2-224K20,7,610,AS,exp,46,←,left,←,0.641274799592793,True,19,1,1,14
Y2-S2-224K20,7,611,AS,exp,39,↑,up,↑,0.4917106004431844,True,18,1,0,14
Y2-S2-224K20,7,612,AS,exp,42,↓,down,↓,0.6751990001648664,True,18,1,0,14
Y2-S2-224K20,7,613,AS,exp,29,→,no_key,no_letter,-1.0,False,18,-1,1,15
Y2-S2-224K20,7,614,AS,exp,31,↑,up,↑,0.5133056999184191,True,19,-1,0,15
Y2-S2-224K20,7,615,AS,exp,49,←,left,←,0.7885974999517202,True,19,-1,0,15
Y2-S2-224K20,7,616,AS,exp,28,→,right,→,0.5366132999770343,True,19,1,1,16
Y2-S2-224K20,8,617,PS,intra_train,42,←,left,←,0.5228265002369881,True,12,-,-,-
Y2-S2-224K20,8,618,PS,intra_train,40,↑,up,↑,0.5235271998681128,True,12,-,-,-
Y2-S2-224K20,8,619,PS,intra_train,43,→,right,→,0.499995999969542,True,12,-,-,-
Y2-S2-224K20,8,620,PS,intra_train,27,↑,up,↑,0.6120893997140229,True,12,-,-,-
Y2-S2-224K20,8,621,PS,intra_train,32,↓,up,↑,1.0251787002198398,False,12,-,-,-
Y2-S2-224K20,8,622,PS,exp,40,→,right,→,0.7494724998250604,True,8,0,0,0
Y2-S2-224K20,8,623,PS,exp,50,←,left,←,0.4552063997834921,True,8,0,0,0
Y2-S2-224K20,8,624,PS,exp,39,↓,left,←,1.0515125999227166,False,8,-1,0,0
Y2-S2-224K20,8,625,PS,exp,41,→,right,→,0.6867330996319652,True,9,-1,0,0
Y2-S2-224K20,8,626,PS,exp,46,↑,up,↑,0.557779099792242,True,9,-1,0,0
Y2-S2-224K20,8,627,PS,exp,34,←,left,←,1.052962299901992,True,9,1,1,1
Y2-S2-224K20,8,628,PS,exp,41,↑,left,←,0.620888200122863,False,8,-1,1,2
Y2-S2-224K20,8,629,PS,exp,42,→,right,→,0.6699659000150859,True,9,-1,0,2
Y2-S2-224K20,8,630,PS,exp,50,↑,up,↑,0.6341587002389133,True,9,-1,0,2
Y2-S2-224K20,8,631,PS,exp,47,→,up,↑,0.767554400023073,False,9,-1,0,2
Y2-S2-224K20,8,632,PS,exp,38,↓,down,↓,0.8013389999978244,True,10,-1,0,2
Y2-S2-224K20,8,633,PS,exp,46,→,right,→,0.6009006001986563,True,10,-1,0,2
Y2-S2-224K20,8,634,PS,exp,38,↓,down,↓,1.074069700203836,True,10,1,1,3
Y2-S2-224K20,8,635,PS,exp,29,↑,up,↑,0.61933369981125,True,9,1,0,3
Y2-S2-224K20,8,636,PS,exp,34,←,left,←,0.4566257996484637,True,9,1,0,3
Y2-S2-224K20,8,637,PS,exp,47,↓,down,↓,0.6822746000252664,True,9,1,0,3
Y2-S2-224K20,8,638,PS,exp,33,←,left,←,0.40847459994256496,True,8,1,0,3
Y2-S2-224K20,8,639,PS,exp,42,→,right,→,0.5780501998960972,True,8,1,0,3
Y2-S2-224K20,8,640,PS,exp,32,←,down,↓,1.0031804000027478,False,8,-1,1,4
Y2-S2-224K20,8,641,PS,exp,41,↑,up,↑,0.5762380002997816,True,9,-1,0,4
Y2-S2-224K20,8,642,PS,exp,39,↓,down,↓,0.7866442003287375,True,9,-1,0,4
Y2-S2-224K20,8,643,PS,exp,33,→,right,→,0.7424432998523116,True,9,1,1,5
Y2-S2-224K20,8,644,PS,exp,34,↓,down,↓,0.7114734002389014,True,8,1,0,5
Y2-S2-224K20,8,645,PS,exp,46,→,right,→,0.5787543002516031,True,8,1,0,5
Y2-S2-224K20,8,646,PS,exp,49,↑,up,↑,0.49506149999797344,True,8,1,0,5
Y2-S2-224K20,8,647,PS,exp,44,←,left,←,0.6411573002114892,True,7,1,0,5
Y2-S2-224K20,8,648,PS,exp,46,↓,left,←,0.7449864996597171,False,7,-1,1,6
Y2-S2-224K20,8,649,PS,exp,34,→,left,←,0.503622000105679,False,8,-1,0,6
Y2-S2-224K20,8,650,PS,exp,47,↓,down,↓,0.7728432002477348,True,9,-1,0,6
Y2-S2-224K20,8,651,PS,exp,32,↑,left,←,0.6369421002455056,False,9,-1,0,6
Y2-S2-224K20,8,652,PS,exp,43,↓,left,←,0.650322999805212,False,10,-1,0,6
Y2-S2-224K20,8,653,PS,exp,48,←,left,←,0.3924934002570808,True,11,-1,0,6
Y2-S2-224K20,8,654,PS,exp,28,↓,down,↓,0.5779240000993013,True,11,-1,0,6
Y2-S2-224K20,8,655,PS,exp,38,←,left,←,0.6323722996748984,True,11,1,1,7
Y2-S2-224K20,8,656,PS,exp,42,↓,left,←,0.5311420997604728,False,10,-1,1,8
Y2-S2-224K20,8,657,PS,exp,48,→,left,←,0.4375335001386702,False,11,-1,0,8
Y2-S2-224K20,8,658,PS,exp,43,↑,down,↓,0.769830399658531,False,12,-1,0,8
Y2-S2-224K20,8,659,PS,exp,29,↓,left,←,0.5255395001731813,False,13,-1,0,8
Y2-S2-224K20,8,660,PS,exp,28,→,right,→,0.5130477999337018,True,14,-1,0,8
Y2-S2-224K20,8,661,PS,exp,49,↓,down,↓,0.6950582000426948,True,14,-1,0,8
Y2-S2-224K20,8,662,PS,exp,41,→,right,→,0.4636151003651321,True,14,1,1,9
Y2-S2-224K20,8,663,PS,exp,31,↑,up,↑,0.6076174001209438,True,13,1,0,9
Y2-S2-224K20,8,664,PS,exp,25,→,right,→,0.5985791999846697,True,13,1,0,9
Y2-S2-224K20,8,665,PS,exp,37,↑,up,↑,0.5368747999891639,True,13,1,0,9
Y2-S2-224K20,8,666,PS,exp,50,→,up,↑,0.5479934001341462,False,12,-1,1,10
Y2-S2-224K20,8,667,PS,exp,45,←,left,←,0.5759586002677679,True,13,-1,0,10
Y2-S2-224K20,8,668,PS,exp,28,→,right,→,0.6251244000159204,True,13,-1,0,10
Y2-S2-224K20,8,669,PS,exp,39,↑,right,→,0.8633361998945475,False,13,-1,0,10
Y2-S2-224K20,8,670,PS,exp,43,↓,down,↓,0.733273500110954,True,14,-1,0,10
Y2-S2-224K20,8,671,PS,exp,42,→,right,→,0.46059329994022846,True,14,-1,0,10
Y2-S2-224K20,8,672,PS,exp,26,↑,up,↑,0.5212246999144554,True,14,1,1,11
Y2-S2-224K20,8,673,PS,exp,38,→,right,→,0.8011214998550713,True,13,1,0,11
Y2-S2-224K20,8,674,PS,exp,28,←,left,←,0.7062686998397112,True,13,1,0,11
Y2-S2-224K20,8,675,PS,exp,46,→,right,→,0.8243777002207935,True,13,1,0,11
Y2-S2-224K20,8,676,PS,exp,39,←,left,←,0.6393315000459552,True,12,1,0,11
Y2-S2-224K20,8,677,PS,exp,30,↑,up,↑,0.4890252002514899,True,12,1,0,11
Y2-S2-224K20,8,678,PS,exp,47,↓,down,↓,0.5683695003390312,True,12,1,0,11
Y2-S2-224K20,8,679,PS,exp,34,←,left,←,0.6376808998174965,True,11,1,0,11
Y2-S2-224K20,8,680,PS,exp,29,↓,down,↓,0.501581400167197,True,11,1,0,11
Y2-S2-224K20,8,681,PS,exp,31,↑,up,↑,0.4407519996166229,True,11,1,0,11
Y2-S2-224K20,8,682,PS,exp,34,←,left,←,0.7810229999013245,True,10,1,0,11
Y2-S2-224K20,8,683,PS,exp,42,↓,down,↓,0.5605526999570429,True,10,1,0,11
Y2-S2-224K20,8,684,PS,exp,35,→,right,→,0.4225265998393297,True,10,1,0,11
Y2-S2-224K20,8,685,PS,exp,27,↓,right,→,0.8894385998137295,False,9,-1,1,12
Y2-S2-224K20,8,686,PS,exp,36,↑,left,←,0.8295582002028823,False,10,-1,0,12
Y2-S2-224K20,8,687,PS,exp,34,←,left,←,0.6493648001924157,True,11,-1,0,12
Y2-S2-224K20,8,688,PS,exp,30,↑,up,↑,0.484211599919945,True,11,-1,0,12
Y2-S2-224K20,8,689,PS,exp,28,→,left,←,0.6025107000023127,False,11,-1,0,12
Y2-S2-224K20,8,690,PS,exp,41,↑,left,←,0.493898699991405,False,12,-1,0,12
Y2-S2-224K20,8,691,PS,exp,50,→,right,→,0.6651387000456452,True,13,-1,0,12
Y2-S2-224K20,8,692,PS,exp,50,↓,down,↓,0.5992109002545476,True,13,-1,0,12
Y2-S2-224K20,8,693,PS,exp,45,→,right,→,0.7194472998380661,True,13,1,1,13
Y2-S2-224K20,8,694,PS,exp,44,↓,down,↓,0.6436656001023948,True,12,1,0,13
Y2-S2-224K20,8,695,PS,exp,32,↑,down,↓,0.8943365998566151,False,12,-1,1,14
Y2-S2-224K20,8,696,PS,exp,46,→,right,→,1.8497709003277123,True,13,-1,0,14
Y2-S2-224K20,8,697,PS,exp,29,←,left,←,0.5569222001358867,True,13,-1,0,14
Y2-S2-224K20,8,698,PS,exp,46,↓,down,↓,0.5747679998166859,True,13,1,1,15
Y2-S2-224K20,8,699,PS,exp,42,←,left,←,0.48526240000501275,True,12,1,0,15
Y2-S2-224K20,8,700,PS,exp,32,↓,down,↓,0.5125400996766984,True,12,1,0,15
Y2-S2-224K20,8,701,PS,exp,39,←,left,←,0.751706900075078,True,12,1,0,15
Y2-S2-224K20,8,702,PS,exp,30,↓,down,↓,0.8724600998684764,True,11,1,0,15
Y2-S2-224K20,8,703,PS,exp,29,←,left,←,0.9010095996782184,True,11,1,0,15
Y2-S2-224K20,8,704,PS,exp,37,→,right,→,0.6507815001532435,True,11,1,0,15
Y2-S2-224K20,8,705,PS,exp,28,↑,right,→,0.6417894000187516,False,10,-1,1,16
