PART_ID,Block_no,Trial_no,Block_type,Trial_type,CSI,Stim_letter,Key_pressed,letter_choose,Rt,Corr,Stimulus Time,Level,Reversal,Revs_count
Y2-S2-265K19,1,1,PS,train,26,→,right,→,0.5671440999722108,True,30,-,-,-
Y2-S2-265K19,1,2,PS,train,27,↑,up,↑,0.5669774999842048,True,30,-,-,-
Y2-S2-265K19,1,3,PS,train,35,←,left,←,0.5343700000084937,True,30,-,-,-
Y2-S2-265K19,1,4,PS,train,48,→,right,→,0.48445399990305305,True,30,-,-,-
Y2-S2-265K19,1,5,PS,train,43,↑,up,↑,0.5847442999947816,True,30,-,-,-
Y2-S2-265K19,1,6,PS,train,40,←,left,←,0.48400189995300025,True,30,-,-,-
Y2-S2-265K19,1,7,PS,train,45,↑,up,↑,0.46784820000175387,True,30,-,-,-
Y2-S2-265K19,1,8,PS,train,43,↓,down,↓,0.7495722000021487,True,30,-,-,-
Y2-S2-265K19,1,9,PS,train,35,↑,up,↑,0.7295975999440998,True,30,-,-,-
Y2-S2-265K19,1,10,PS,train,38,→,right,→,0.5336607000790536,True,30,-,-,-
Y2-S2-265K19,2,11,AS,train,30,↑,up,↑,0.6676462000468746,True,45,-,-,-
Y2-S2-265K19,2,12,AS,train,45,←,left,←,0.6509779000189155,True,45,-,-,-
Y2-S2-265K19,2,13,AS,train,50,→,right,→,0.6508164999540895,True,45,-,-,-
Y2-S2-265K19,2,14,AS,train,47,←,left,←,0.7009698000038043,True,45,-,-,-
Y2-S2-265K19,2,15,AS,train,30,↓,down,↓,0.9773480000440031,True,45,-,-,-
Y2-S2-265K19,2,16,AS,train,37,↑,up,↑,0.8171492000110447,True,45,-,-,-
Y2-S2-265K19,2,17,AS,train,39,→,right,→,0.7010365000460297,True,45,-,-,-
Y2-S2-265K19,2,18,AS,train,33,↑,up,↑,0.7837817000690848,True,45,-,-,-
Y2-S2-265K19,2,19,AS,train,43,→,right,→,0.7010089999530464,True,45,-,-,-
Y2-S2-265K19,2,20,AS,train,43,↑,up,↑,0.717882200027816,True,45,-,-,-
Y2-S2-265K19,-,21,PS,adaptive,39,↓,up,↑,1.2556934000458568,False,10,-1,0,0
Y2-S2-265K19,-,22,PS,adaptive,45,→,right,→,0.5460572999436408,True,11,-1,0,0
Y2-S2-265K19,-,23,PS,adaptive,30,↑,up,↑,0.6045256999786943,True,11,-1,0,0
Y2-S2-265K19,-,24,PS,adaptive,42,↓,down,↓,0.9771260999841616,True,11,1,1,1
Y2-S2-265K19,-,25,PS,adaptive,31,←,left,←,0.41255409992299974,True,10,1,0,1
Y2-S2-265K19,-,26,PS,adaptive,31,→,right,→,0.41185889998450875,True,10,1,0,1
Y2-S2-265K19,-,27,PS,adaptive,27,↑,right,→,0.6612931999843568,False,10,-1,1,2
Y2-S2-265K19,-,28,PS,adaptive,29,↓,down,↓,0.7237580000655726,True,11,-1,0,2
Y2-S2-265K19,-,29,PS,adaptive,42,←,left,←,0.6359243999468163,True,11,-1,0,2
Y2-S2-265K19,-,30,PS,adaptive,44,↓,down,↓,0.9200346999568865,True,11,1,1,3
Y2-S2-265K19,-,31,PS,adaptive,46,↑,up,↑,0.7788613999728113,True,10,1,0,3
Y2-S2-265K19,-,32,PS,adaptive,48,→,right,→,0.49550570000428706,True,10,1,0,3
Y2-S2-265K19,-,33,PS,adaptive,49,↓,down,↓,0.8801408000290394,True,10,1,0,3
Y2-S2-265K19,-,34,PS,adaptive,33,↑,right,→,0.665777099900879,False,9,-1,1,4
Y2-S2-265K19,-,35,AS,adaptive,31,←,left,←,0.6541421000147238,True,20,0,0,0
Y2-S2-265K19,-,36,AS,adaptive,40,↓,down,↓,0.7963311999337748,True,20,0,0,0
Y2-S2-265K19,-,37,AS,adaptive,26,↑,right,→,1.104972600005567,False,20,-1,0,0
Y2-S2-265K19,-,38,AS,adaptive,49,←,left,←,0.6216556000290439,True,21,-1,0,0
Y2-S2-265K19,-,39,AS,adaptive,37,↑,up,↑,0.6698686999734491,True,21,-1,0,0
Y2-S2-265K19,-,40,AS,adaptive,44,→,right,→,0.6348635999020189,True,21,1,1,1
Y2-S2-265K19,-,41,AS,adaptive,46,←,right,→,0.7061642999760807,False,20,-1,1,2
Y2-S2-265K19,-,42,AS,adaptive,26,↑,up,↑,1.2491557999746874,True,21,-1,0,2
Y2-S2-265K19,-,43,AS,adaptive,36,↓,down,↓,1.9976542999502271,True,21,-1,0,2
Y2-S2-265K19,-,44,AS,adaptive,35,←,left,←,0.7081324000610039,True,21,1,1,3
Y2-S2-265K19,-,45,AS,adaptive,36,→,right,→,0.7394156999653205,True,20,1,0,3
Y2-S2-265K19,-,46,AS,adaptive,47,←,left,←,0.7107325999531895,True,20,1,0,3
Y2-S2-265K19,-,47,AS,adaptive,34,↑,up,↑,0.7750591000076383,True,20,1,0,3
Y2-S2-265K19,-,48,AS,adaptive,38,→,right,→,0.5205871000653133,True,19,1,0,3
Y2-S2-265K19,-,49,AS,adaptive,48,←,left,←,0.6469218999845907,True,19,1,0,3
Y2-S2-265K19,-,50,AS,adaptive,33,↓,down,↓,0.8717452000128105,True,19,1,0,3
Y2-S2-265K19,-,51,AS,adaptive,33,←,left,←,0.6451261000474915,True,18,1,0,3
Y2-S2-265K19,-,52,AS,adaptive,42,→,right,→,0.6061036000028253,True,18,1,0,3
Y2-S2-265K19,-,53,AS,adaptive,41,↓,down,↓,1.0847631000215188,True,18,1,0,3
Y2-S2-265K19,-,54,AS,adaptive,44,↑,up,↑,0.6144028999842703,True,17,1,0,3
Y2-S2-265K19,-,55,AS,adaptive,40,↓,up,↑,1.0293938999529928,False,17,-1,1,4
Y2-S2-265K19,1,56,AS,intra_train,29,↑,up,↑,0.6389544999692589,True,27,-,-,-
Y2-S2-265K19,1,57,AS,intra_train,49,↓,down,↓,0.7475276999175549,True,27,-,-,-
Y2-S2-265K19,1,58,AS,intra_train,37,↑,up,↑,0.5839739999501035,True,27,-,-,-
Y2-S2-265K19,1,59,AS,intra_train,25,↓,down,↓,0.8248916000593454,True,27,-,-,-
Y2-S2-265K19,1,60,AS,intra_train,39,↑,up,↑,0.7468259000452235,True,27,-,-,-
Y2-S2-265K19,1,61,AS,exp,39,→,right,→,0.5742661999538541,True,18,0,0,0
Y2-S2-265K19,1,62,AS,exp,45,↑,down,↓,1.4560403000796214,False,18,-1,0,0
Y2-S2-265K19,1,63,AS,exp,48,↓,down,↓,0.8728021000279114,True,19,-1,0,0
Y2-S2-265K19,1,64,AS,exp,41,←,left,←,0.7915260000154376,True,19,-1,0,0
Y2-S2-265K19,1,65,AS,exp,27,↑,right,→,1.1501202000072226,False,19,-1,0,0
Y2-S2-265K19,1,66,AS,exp,40,←,left,←,0.7158763000043109,True,20,-1,0,0
Y2-S2-265K19,1,67,AS,exp,39,→,right,→,0.7385434000752866,True,20,-1,0,0
Y2-S2-265K19,1,68,AS,exp,47,↓,down,↓,0.7435737999621779,True,20,1,1,1
Y2-S2-265K19,1,69,AS,exp,28,↑,up,↑,0.7539105000905693,True,19,1,0,1
Y2-S2-265K19,1,70,AS,exp,35,→,right,→,0.5562777000013739,True,19,1,0,1
Y2-S2-265K19,1,71,AS,exp,26,↓,no_key,no_letter,-1.0,False,19,-1,1,2
Y2-S2-265K19,1,72,AS,exp,29,→,right,→,0.6539919999195263,True,20,-1,0,2
Y2-S2-265K19,1,73,AS,exp,32,↓,down,↓,0.9160483999876305,True,20,-1,0,2
Y2-S2-265K19,1,74,AS,exp,47,←,left,←,0.6337698999559507,True,20,1,1,3
Y2-S2-265K19,1,75,AS,exp,42,↑,up,↑,0.7949166999896988,True,19,1,0,3
Y2-S2-265K19,1,76,AS,exp,34,↓,down,↓,0.7297325000399724,True,19,1,0,3
Y2-S2-265K19,1,77,AS,exp,30,→,right,→,0.6327282000565901,True,19,1,0,3
Y2-S2-265K19,1,78,AS,exp,45,↑,up,↑,0.5377693000482395,True,18,1,0,3
Y2-S2-265K19,1,79,AS,exp,30,→,right,→,0.5377946000080556,True,18,1,0,3
Y2-S2-265K19,1,80,AS,exp,50,←,left,←,0.5476746999192983,True,18,1,0,3
Y2-S2-265K19,1,81,AS,exp,28,↓,down,↓,0.8482393999584019,True,17,1,0,3
Y2-S2-265K19,1,82,AS,exp,35,→,right,→,0.6896321000531316,True,17,1,0,3
Y2-S2-265K19,1,83,AS,exp,25,↓,down,↓,0.8734871000051498,True,17,1,0,3
Y2-S2-265K19,1,84,AS,exp,46,↑,up,↑,1.3323086999589577,True,16,1,0,3
Y2-S2-265K19,1,85,AS,exp,47,↓,down,↓,0.8973234000150114,True,16,1,0,3
Y2-S2-265K19,1,86,AS,exp,38,→,right,→,0.6439101001014933,True,16,1,0,3
Y2-S2-265K19,1,87,AS,exp,27,←,left,←,0.678221800015308,True,15,1,0,3
Y2-S2-265K19,1,88,AS,exp,38,↑,up,↑,0.9994677000213414,True,15,1,0,3
Y2-S2-265K19,1,89,AS,exp,25,←,left,←,0.6032099999720231,True,15,1,0,3
Y2-S2-265K19,1,90,AS,exp,27,↑,up,↑,0.8219460000982508,True,14,1,0,3
Y2-S2-265K19,1,91,AS,exp,29,→,left,←,0.8980850999942049,False,14,-1,1,4
Y2-S2-265K19,1,92,AS,exp,33,↓,down,↓,0.8898955000331625,True,15,-1,0,4
Y2-S2-265K19,1,93,AS,exp,33,←,right,→,0.7389484000159428,False,15,-1,0,4
Y2-S2-265K19,1,94,AS,exp,31,→,right,→,0.5357504000421613,True,16,-1,0,4
Y2-S2-265K19,1,95,AS,exp,44,↑,up,↑,0.5851016000378877,True,16,-1,0,4
Y2-S2-265K19,1,96,AS,exp,34,←,left,←,0.4971572000067681,True,16,1,1,5
Y2-S2-265K19,1,97,AS,exp,35,→,right,→,0.4680206999182701,True,15,1,0,5
Y2-S2-265K19,1,98,AS,exp,50,↓,right,→,0.9521096999524161,False,15,-1,1,6
Y2-S2-265K19,1,99,AS,exp,42,→,right,→,0.6193227999610826,True,16,-1,0,6
Y2-S2-265K19,1,100,AS,exp,36,↑,up,↑,0.63292789994739,True,16,-1,0,6
Y2-S2-265K19,1,101,AS,exp,31,↓,up,↑,1.0206746000330895,False,16,-1,0,6
Y2-S2-265K19,1,102,AS,exp,37,←,left,←,0.5898367000045255,True,17,-1,0,6
Y2-S2-265K19,1,103,AS,exp,26,↑,up,↑,0.7193086000625044,True,17,-1,0,6
Y2-S2-265K19,1,104,AS,exp,34,→,right,→,0.6502322999294847,True,17,1,1,7
Y2-S2-265K19,1,105,AS,exp,27,←,left,←,0.7090894000139087,True,16,1,0,7
Y2-S2-265K19,1,106,AS,exp,44,→,right,→,0.48436010000295937,True,16,1,0,7
Y2-S2-265K19,1,107,AS,exp,35,←,left,←,0.5923162999097258,True,16,1,0,7
Y2-S2-265K19,1,108,AS,exp,50,↑,up,↑,0.5426237999927253,True,15,1,0,7
Y2-S2-265K19,1,109,AS,exp,43,↓,down,↓,0.9953190999804065,True,15,1,0,7
Y2-S2-265K19,1,110,AS,exp,37,→,right,→,0.9924344000173733,True,15,1,0,7
Y2-S2-265K19,1,111,AS,exp,47,←,right,→,0.6966308000264689,False,14,-1,1,8
Y2-S2-265K19,1,112,AS,exp,28,↑,up,↑,0.6195658000651747,True,15,-1,0,8
Y2-S2-265K19,1,113,AS,exp,50,↓,up,↑,0.9060141999507323,False,15,-1,0,8
Y2-S2-265K19,1,114,AS,exp,39,←,left,←,0.610413399990648,True,16,-1,0,8
Y2-S2-265K19,1,115,AS,exp,43,↑,down,↓,1.2448189000133425,False,16,-1,0,8
Y2-S2-265K19,1,116,AS,exp,38,←,right,→,0.6615443000337109,False,17,-1,0,8
Y2-S2-265K19,1,117,AS,exp,30,↑,up,↑,1.7679221000289544,True,18,-1,0,8
Y2-S2-265K19,1,118,AS,exp,48,→,right,→,0.6379055000143126,True,18,-1,0,8
Y2-S2-265K19,1,119,AS,exp,29,↑,up,↑,0.6211867000674829,True,18,1,1,9
Y2-S2-265K19,1,120,AS,exp,47,→,left,←,1.3011860999977216,False,17,-1,1,10
Y2-S2-265K19,1,121,AS,exp,43,↑,up,↑,0.7171713999705389,True,18,-1,0,10
Y2-S2-265K19,1,122,AS,exp,37,↓,down,↓,0.996505199931562,True,18,-1,0,10
Y2-S2-265K19,1,123,AS,exp,30,↑,up,↑,0.6897397999418899,True,18,1,1,11
Y2-S2-265K19,1,124,AS,exp,47,→,left,←,0.8484662999399006,False,17,-1,1,12
Y2-S2-265K19,1,125,AS,exp,41,↓,down,↓,0.9817631000187248,True,18,-1,0,12
Y2-S2-265K19,1,126,AS,exp,39,→,right,→,0.6619646000908688,True,18,-1,0,12
Y2-S2-265K19,1,127,AS,exp,36,←,left,←,0.7697644999716431,True,18,1,1,13
Y2-S2-265K19,1,128,AS,exp,27,↑,left,←,0.8372169000795111,False,17,-1,1,14
Y2-S2-265K19,1,129,AS,exp,46,↓,left,←,0.7083425999153405,False,18,-1,0,14
Y2-S2-265K19,1,130,AS,exp,43,↑,up,↑,0.6861647999612615,True,19,-1,0,14
Y2-S2-265K19,1,131,AS,exp,47,↓,down,↓,0.9968903999542817,True,19,-1,0,14
Y2-S2-265K19,1,132,AS,exp,46,→,right,→,0.6968184999423102,True,19,1,1,15
Y2-S2-265K19,1,133,AS,exp,33,←,right,→,0.7842646999051794,False,18,-1,1,16
Y2-S2-265K19,2,134,PS,intra_train,31,↑,right,→,0.9352669999934733,False,15,-,-,-
Y2-S2-265K19,2,135,PS,intra_train,36,←,left,←,0.805300600011833,True,15,-,-,-
Y2-S2-265K19,2,136,PS,intra_train,30,↑,up,↑,0.7654388000955805,True,15,-,-,-
Y2-S2-265K19,2,137,PS,intra_train,40,→,right,→,0.5536768001038581,True,15,-,-,-
Y2-S2-265K19,2,138,PS,intra_train,34,↑,right,→,0.8451921000378206,False,15,-,-,-
Y2-S2-265K19,2,139,PS,exp,47,←,left,←,0.5450379999820143,True,10,0,0,0
Y2-S2-265K19,2,140,PS,exp,31,↓,down,↓,1.0601690000621602,True,10,0,0,0
Y2-S2-265K19,2,141,PS,exp,41,↑,left,←,0.6734353000065312,False,10,-1,0,0
Y2-S2-265K19,2,142,PS,exp,43,→,right,→,0.605769700021483,True,11,-1,0,0
Y2-S2-265K19,2,143,PS,exp,33,←,left,←,0.40783100004773587,True,11,-1,0,0
Y2-S2-265K19,2,144,PS,exp,48,→,right,→,0.38342839991673827,True,11,1,1,1
Y2-S2-265K19,2,145,PS,exp,41,↓,down,↓,0.6109668000135571,True,10,1,0,1
Y2-S2-265K19,2,146,PS,exp,48,←,left,←,0.513661100063473,True,10,1,0,1
Y2-S2-265K19,2,147,PS,exp,38,↓,left,←,1.1202606000006199,False,10,-1,1,2
Y2-S2-265K19,2,148,PS,exp,29,←,left,←,0.9312404999509454,True,11,-1,0,2
Y2-S2-265K19,2,149,PS,exp,28,→,right,→,1.015017700032331,True,11,-1,0,2
Y2-S2-265K19,2,150,PS,exp,47,↑,left,←,0.7763748000143096,False,11,-1,0,2
Y2-S2-265K19,2,151,PS,exp,47,←,right,→,0.5678521000081673,False,12,-1,0,2
Y2-S2-265K19,2,152,PS,exp,29,↑,up,↑,0.47860470006708056,True,13,-1,0,2
Y2-S2-265K19,2,153,PS,exp,27,←,left,←,0.4013594000134617,True,13,-1,0,2
Y2-S2-265K19,2,154,PS,exp,48,↑,up,↑,0.4714800000656396,True,13,1,1,3
Y2-S2-265K19,2,155,PS,exp,30,→,right,→,0.40444890002254397,True,12,1,0,3
Y2-S2-265K19,2,156,PS,exp,27,↓,down,↓,0.9343637999845669,True,12,1,0,3
Y2-S2-265K19,2,157,PS,exp,50,←,left,←,0.4330299000721425,True,12,1,0,3
Y2-S2-265K19,2,158,PS,exp,36,↓,down,↓,0.7265044000232592,True,11,1,0,3
Y2-S2-265K19,2,159,PS,exp,35,→,right,→,0.7076421000529081,True,11,1,0,3
Y2-S2-265K19,2,160,PS,exp,31,↓,right,→,0.5852898999582976,False,11,-1,1,4
Y2-S2-265K19,2,161,PS,exp,38,↑,up,↑,0.5841316999867558,True,12,-1,0,4
Y2-S2-265K19,2,162,PS,exp,29,↓,right,→,0.8406201000325382,False,12,-1,0,4
Y2-S2-265K19,2,163,PS,exp,34,←,right,→,0.41260209993924946,False,13,-1,0,4
Y2-S2-265K19,2,164,PS,exp,32,→,right,→,0.5075550000183284,True,14,-1,0,4
Y2-S2-265K19,2,165,PS,exp,38,↑,up,↑,0.5662767000030726,True,14,-1,0,4
Y2-S2-265K19,2,166,PS,exp,44,←,left,←,0.5793668000260368,True,14,1,1,5
Y2-S2-265K19,2,167,PS,exp,36,↓,down,↓,1.0022543000523,True,13,1,0,5
Y2-S2-265K19,2,168,PS,exp,30,↑,right,→,0.9215279000345618,False,13,-1,1,6
Y2-S2-265K19,2,169,PS,exp,41,→,right,→,0.4952464000089094,True,14,-1,0,6
Y2-S2-265K19,2,170,PS,exp,34,↓,down,↓,0.7246921000769362,True,14,-1,0,6
Y2-S2-265K19,2,171,PS,exp,45,←,right,→,0.4893654000479728,False,14,-1,0,6
Y2-S2-265K19,2,172,PS,exp,25,→,right,→,0.4701798000605777,True,15,-1,0,6
Y2-S2-265K19,2,173,PS,exp,32,↑,up,↑,1.2900572000071406,True,15,-1,0,6
Y2-S2-265K19,2,174,PS,exp,37,↓,down,↓,1.0987588000716642,True,15,1,1,7
Y2-S2-265K19,2,175,PS,exp,40,←,left,←,0.48282370006199926,True,14,1,0,7
Y2-S2-265K19,2,176,PS,exp,39,↑,up,↑,0.4636975000612438,True,14,1,0,7
Y2-S2-265K19,2,177,PS,exp,49,→,right,→,0.5019753000233322,True,14,1,0,7
Y2-S2-265K19,2,178,PS,exp,37,←,left,←,0.5428368999855593,True,13,1,0,7
Y2-S2-265K19,2,179,PS,exp,31,↑,right,→,0.7812762999674305,False,13,-1,1,8
Y2-S2-265K19,2,180,PS,exp,29,↓,down,↓,0.8430672000395134,True,14,-1,0,8
Y2-S2-265K19,2,181,PS,exp,35,↑,up,↑,0.4865009000059217,True,14,-1,0,8
Y2-S2-265K19,2,182,PS,exp,37,→,right,→,0.6696963000576943,True,14,1,1,9
Y2-S2-265K19,2,183,PS,exp,36,←,left,←,0.48280649993103,True,13,1,0,9
Y2-S2-265K19,2,184,PS,exp,25,↓,down,↓,0.7991719000274315,True,13,1,0,9
Y2-S2-265K19,2,185,PS,exp,36,←,right,→,0.5593378000194207,False,13,-1,1,10
Y2-S2-265K19,2,186,PS,exp,42,↓,left,←,0.3341214000247419,False,14,-1,0,10
Y2-S2-265K19,2,187,PS,exp,27,↑,up,↑,0.572818599990569,True,15,-1,0,10
Y2-S2-265K19,2,188,PS,exp,43,←,left,←,0.5452543999999762,True,15,-1,0,10
Y2-S2-265K19,2,189,PS,exp,46,→,right,→,0.4458105999510735,True,15,1,1,11
Y2-S2-265K19,2,190,PS,exp,41,←,left,←,0.3678060000529513,True,14,1,0,11
Y2-S2-265K19,2,191,PS,exp,33,→,right,→,0.43157459993381053,True,14,1,0,11
Y2-S2-265K19,2,192,PS,exp,44,↓,down,↓,0.9417869000462815,True,14,1,0,11
Y2-S2-265K19,2,193,PS,exp,37,←,left,←,0.5549081999342889,True,13,1,0,11
Y2-S2-265K19,2,194,PS,exp,43,↓,down,↓,0.4389865000266582,True,13,1,0,11
Y2-S2-265K19,2,195,PS,exp,47,→,right,→,0.45596019993536174,True,13,1,0,11
Y2-S2-265K19,2,196,PS,exp,45,←,left,←,0.418043699930422,True,12,1,0,11
Y2-S2-265K19,2,197,PS,exp,48,↑,right,→,0.7813101999927312,False,12,-1,1,12
Y2-S2-265K19,2,198,PS,exp,48,→,right,→,0.4210159999784082,True,13,-1,0,12
Y2-S2-265K19,2,199,PS,exp,25,←,left,←,0.4906387999653816,True,13,-1,0,12
Y2-S2-265K19,2,200,PS,exp,39,→,right,→,0.3860201999777928,True,13,1,1,13
Y2-S2-265K19,2,201,PS,exp,39,↑,up,↑,0.5137868999736384,True,12,1,0,13
Y2-S2-265K19,2,202,PS,exp,39,←,left,←,0.46147939993534237,True,12,1,0,13
Y2-S2-265K19,2,203,PS,exp,29,↑,up,↑,0.473617099924013,True,12,1,0,13
Y2-S2-265K19,2,204,PS,exp,33,→,right,→,0.5199173999717459,True,11,1,0,13
Y2-S2-265K19,2,205,PS,exp,37,↓,down,↓,0.9290527999401093,True,11,1,0,13
Y2-S2-265K19,2,206,PS,exp,41,→,right,→,0.45838530000764877,True,11,1,0,13
Y2-S2-265K19,2,207,PS,exp,38,←,left,←,0.4457900000270456,True,10,1,0,13
Y2-S2-265K19,2,208,PS,exp,34,↓,down,↓,0.914576799958013,True,10,1,0,13
Y2-S2-265K19,2,209,PS,exp,34,→,right,→,0.3682663000654429,True,10,1,0,13
Y2-S2-265K19,2,210,PS,exp,28,←,left,←,0.6396110000787303,True,9,1,0,13
Y2-S2-265K19,2,211,PS,exp,36,→,right,→,0.35513599996920675,True,9,1,0,13
Y2-S2-265K19,2,212,PS,exp,32,←,right,→,0.3466611000476405,False,9,-1,1,14
Y2-S2-265K19,2,213,PS,exp,30,→,right,→,0.42023039993364364,True,10,-1,0,14
Y2-S2-265K19,2,214,PS,exp,29,↓,right,→,0.5930389999412,False,10,-1,0,14
Y2-S2-265K19,2,215,PS,exp,29,←,left,←,0.4363091998966411,True,11,-1,0,14
Y2-S2-265K19,2,216,PS,exp,30,→,right,→,0.4173383000306785,True,11,-1,0,14
Y2-S2-265K19,2,217,PS,exp,47,↓,down,↓,0.942277800058946,True,11,1,1,15
Y2-S2-265K19,2,218,PS,exp,28,←,left,←,0.46441300003789365,True,10,1,0,15
Y2-S2-265K19,2,219,PS,exp,35,↑,up,↑,0.49853160011116415,True,10,1,0,15
Y2-S2-265K19,2,220,PS,exp,27,←,left,←,0.3992370000341907,True,10,1,0,15
Y2-S2-265K19,2,221,PS,exp,40,↓,down,↓,0.7357789999805391,True,9,1,0,15
Y2-S2-265K19,2,222,PS,exp,46,↑,up,↑,0.5706708000507206,True,9,1,0,15
Y2-S2-265K19,2,223,PS,exp,36,→,right,→,0.45299170003272593,True,9,1,0,15
Y2-S2-265K19,2,224,PS,exp,31,↓,down,↓,1.0628137999447063,True,8,1,0,15
Y2-S2-265K19,2,225,PS,exp,50,↑,right,→,0.9933227000292391,False,8,-1,1,16
Y2-S2-265K19,3,226,PS,intra_train,46,→,right,→,0.43578140006866306,True,15,-,-,-
Y2-S2-265K19,3,227,PS,intra_train,26,←,left,←,0.6198121999623254,True,15,-,-,-
Y2-S2-265K19,3,228,PS,intra_train,28,↓,down,↓,1.352032499969937,True,15,-,-,-
Y2-S2-265K19,3,229,PS,intra_train,37,↑,up,↑,0.7253830999834463,True,15,-,-,-
Y2-S2-265K19,3,230,PS,intra_train,38,→,right,→,0.45030990010127425,True,15,-,-,-
Y2-S2-265K19,3,231,PS,exp,31,↑,up,↑,0.6423156999517232,True,10,0,0,0
Y2-S2-265K19,3,232,PS,exp,39,→,right,→,0.39989280002191663,True,10,0,0,0
Y2-S2-265K19,3,233,PS,exp,42,↑,up,↑,0.8245250000618398,True,10,1,0,0
Y2-S2-265K19,3,234,PS,exp,40,→,right,→,0.4769744999939576,True,9,1,0,0
Y2-S2-265K19,3,235,PS,exp,29,↑,right,→,1.0867927999934182,False,9,-1,1,1
Y2-S2-265K19,3,236,PS,exp,25,→,right,→,0.49812320002820343,True,10,-1,0,1
Y2-S2-265K19,3,237,PS,exp,30,←,right,→,0.7286749000195414,False,10,-1,0,1
Y2-S2-265K19,3,238,PS,exp,29,↑,up,↑,0.38582289998885244,True,11,-1,0,1
Y2-S2-265K19,3,239,PS,exp,42,↓,down,↓,0.7953317000064999,True,11,-1,0,1
Y2-S2-265K19,3,240,PS,exp,41,←,right,→,0.6181502001127228,False,11,-1,0,1
Y2-S2-265K19,3,241,PS,exp,44,↑,up,↑,0.4156311000697315,True,12,-1,0,1
Y2-S2-265K19,3,242,PS,exp,38,↓,down,↓,0.55144199996721,True,12,-1,0,1
Y2-S2-265K19,3,243,PS,exp,26,←,left,←,0.40855729999020696,True,12,1,1,2
Y2-S2-265K19,3,244,PS,exp,36,↓,down,↓,0.71935529995244,True,11,1,0,2
Y2-S2-265K19,3,245,PS,exp,39,↑,up,↑,0.4148223999654874,True,11,1,0,2
Y2-S2-265K19,3,246,PS,exp,31,←,left,←,1.0022228000452742,True,11,1,0,2
Y2-S2-265K19,3,247,PS,exp,39,↓,right,→,0.6936448999913409,False,10,-1,1,3
Y2-S2-265K19,3,248,PS,exp,39,→,right,→,0.35827820003032684,True,11,-1,0,3
Y2-S2-265K19,3,249,PS,exp,45,↑,right,→,0.9391942000947893,False,11,-1,0,3
Y2-S2-265K19,3,250,PS,exp,44,←,right,→,0.8070211999583989,False,12,-1,0,3
Y2-S2-265K19,3,251,PS,exp,32,↓,right,→,0.593002500012517,False,13,-1,0,3
Y2-S2-265K19,3,252,PS,exp,41,→,right,→,0.4353349000448361,True,14,-1,0,3
Y2-S2-265K19,3,253,PS,exp,47,↑,right,→,0.7814938999945298,False,14,-1,0,3
Y2-S2-265K19,3,254,PS,exp,48,↓,down,↓,0.953681799932383,True,15,-1,0,3
Y2-S2-265K19,3,255,PS,exp,29,←,left,←,0.8943259000079706,True,15,-1,0,3
Y2-S2-265K19,3,256,PS,exp,43,↑,up,↑,0.7008457999909297,True,15,1,1,4
Y2-S2-265K19,3,257,PS,exp,40,→,right,→,0.44646539993118495,True,14,1,0,4
Y2-S2-265K19,3,258,PS,exp,42,↑,up,↑,0.5845315000042319,True,14,1,0,4
Y2-S2-265K19,3,259,PS,exp,47,→,no_key,no_letter,-1.0,False,14,-1,1,5
Y2-S2-265K19,3,260,PS,exp,48,↑,up,↑,0.4606657999102026,True,15,-1,0,5
Y2-S2-265K19,3,261,PS,exp,50,↓,down,↓,0.7451104999054223,True,15,-1,0,5
Y2-S2-265K19,3,262,PS,exp,39,↑,up,↑,0.4307059000711888,True,15,1,1,6
Y2-S2-265K19,3,263,PS,exp,50,↓,right,→,0.5639935999643058,False,14,-1,1,7
Y2-S2-265K19,3,264,PS,exp,40,←,right,→,0.567870800034143,False,15,-1,0,7
Y2-S2-265K19,3,265,PS,exp,36,↓,down,↓,0.7197220999514684,True,16,-1,0,7
Y2-S2-265K19,3,266,PS,exp,25,↑,up,↑,0.508977200021036,True,16,-1,0,7
Y2-S2-265K19,3,267,PS,exp,37,↓,down,↓,0.6980577000649646,True,16,1,1,8
Y2-S2-265K19,3,268,PS,exp,50,↑,up,↑,0.5646759999217466,True,15,1,0,8
Y2-S2-265K19,3,269,PS,exp,36,←,left,←,0.7020713000092655,True,15,1,0,8
Y2-S2-265K19,3,270,PS,exp,34,→,right,→,0.45124500000383705,True,15,1,0,8
Y2-S2-265K19,3,271,PS,exp,31,←,left,←,0.4738437000196427,True,14,1,0,8
Y2-S2-265K19,3,272,PS,exp,27,→,right,→,1.0269151999382302,True,14,1,0,8
Y2-S2-265K19,3,273,PS,exp,33,↑,right,→,0.6534603000618517,False,14,-1,1,9
Y2-S2-265K19,3,274,PS,exp,38,←,left,←,0.4635951000964269,True,15,-1,0,9
Y2-S2-265K19,3,275,PS,exp,26,→,no_key,no_letter,-1.0,False,15,-1,0,9
Y2-S2-265K19,3,276,PS,exp,40,↓,down,↓,1.0457594000035897,True,16,-1,0,9
Y2-S2-265K19,3,277,PS,exp,50,↑,up,↑,0.8369784000096843,True,16,-1,0,9
Y2-S2-265K19,3,278,PS,exp,44,↓,down,↓,0.9180860000196844,True,16,1,1,10
Y2-S2-265K19,3,279,PS,exp,29,↑,up,↑,0.5366913999896497,True,15,1,0,10
Y2-S2-265K19,3,280,PS,exp,42,↓,down,↓,0.7081401000032201,True,15,1,0,10
Y2-S2-265K19,3,281,PS,exp,27,↑,up,↑,1.4981964000035077,True,15,1,0,10
Y2-S2-265K19,3,282,PS,exp,48,→,right,→,0.48893460002727807,True,14,1,0,10
Y2-S2-265K19,3,283,PS,exp,48,←,left,←,0.46578670002054423,True,14,1,0,10
Y2-S2-265K19,3,284,PS,exp,34,↑,up,↑,0.49747299996670336,True,14,1,0,10
Y2-S2-265K19,3,285,PS,exp,47,↓,down,↓,0.8953379000304267,True,13,1,0,10
Y2-S2-265K19,3,286,PS,exp,43,←,right,→,0.8778994999593124,False,13,-1,1,11
Y2-S2-265K19,3,287,PS,exp,33,↓,down,↓,0.9399512999225408,True,14,-1,0,11
Y2-S2-265K19,3,288,PS,exp,33,→,right,→,0.4396419000113383,True,14,-1,0,11
Y2-S2-265K19,3,289,PS,exp,49,↓,up,↑,0.8375603999011219,False,14,-1,0,11
Y2-S2-265K19,3,290,PS,exp,26,→,right,→,0.4785989999072626,True,15,-1,0,11
Y2-S2-265K19,3,291,PS,exp,36,←,right,→,0.6494609001092613,False,15,-1,0,11
Y2-S2-265K19,3,292,PS,exp,48,↑,up,↑,0.45738030003849417,True,16,-1,0,11
Y2-S2-265K19,3,293,PS,exp,31,↓,right,→,0.6889572000363842,False,16,-1,0,11
Y2-S2-265K19,3,294,PS,exp,43,←,right,→,0.4636544999666512,False,17,-1,0,11
Y2-S2-265K19,3,295,PS,exp,29,→,right,→,0.43441109999548644,True,18,-1,0,11
Y2-S2-265K19,3,296,PS,exp,29,↑,up,↑,0.7684142999351025,True,18,-1,0,11
Y2-S2-265K19,3,297,PS,exp,35,←,left,←,0.36729309998918325,True,18,1,1,12
Y2-S2-265K19,3,298,PS,exp,32,↑,up,↑,0.6721475999802351,True,17,1,0,12
Y2-S2-265K19,3,299,PS,exp,41,→,no_key,no_letter,-1.0,False,17,-1,1,13
Y2-S2-265K19,3,300,PS,exp,37,↓,down,↓,0.841785000055097,True,18,-1,0,13
Y2-S2-265K19,3,301,PS,exp,49,↑,up,↑,0.5746332999551669,True,18,-1,0,13
Y2-S2-265K19,3,302,PS,exp,27,←,left,←,0.5236115000443533,True,18,1,1,14
Y2-S2-265K19,3,303,PS,exp,31,↓,down,↓,1.122730000060983,True,17,1,0,14
Y2-S2-265K19,3,304,PS,exp,48,→,right,→,0.5749341999180615,True,17,1,0,14
Y2-S2-265K19,3,305,PS,exp,50,↓,down,↓,0.5947677000658587,True,17,1,0,14
Y2-S2-265K19,3,306,PS,exp,25,→,no_key,no_letter,-1.0,False,16,-1,1,15
Y2-S2-265K19,3,307,PS,exp,49,↑,up,↑,0.8236337000271305,True,17,-1,0,15
Y2-S2-265K19,3,308,PS,exp,31,↓,down,↓,0.8560732000041753,True,17,-1,0,15
Y2-S2-265K19,3,309,PS,exp,40,↑,up,↑,0.9656260000774637,True,17,1,1,16
Y2-S2-265K19,4,310,AS,intra_train,41,→,right,→,0.46702570002526045,True,27,-,-,-
Y2-S2-265K19,4,311,AS,intra_train,33,↑,up,↑,0.8259690999984741,True,27,-,-,-
Y2-S2-265K19,4,312,AS,intra_train,29,→,right,→,0.699979699915275,True,27,-,-,-
Y2-S2-265K19,4,313,AS,intra_train,42,↓,down,↓,0.700848100008443,True,27,-,-,-
Y2-S2-265K19,4,314,AS,intra_train,26,→,no_key,no_letter,-1.0,False,27,-,-,-
Y2-S2-265K19,4,315,AS,exp,38,←,left,←,0.6817862000316381,True,18,0,0,0
Y2-S2-265K19,4,316,AS,exp,45,→,right,→,0.5030550999799743,True,18,0,0,0
Y2-S2-265K19,4,317,AS,exp,25,↓,right,→,0.7342825999949127,False,18,-1,0,0
Y2-S2-265K19,4,318,AS,exp,25,→,right,→,0.5893215000396594,True,19,-1,0,0
Y2-S2-265K19,4,319,AS,exp,38,↓,up,↑,0.7341548999538645,False,19,-1,0,0
Y2-S2-265K19,4,320,AS,exp,29,↑,up,↑,0.5610444999765605,True,20,-1,0,0
Y2-S2-265K19,4,321,AS,exp,32,→,no_key,no_letter,-1.0,False,20,-1,0,0
Y2-S2-265K19,4,322,AS,exp,48,↑,up,↑,0.7236515999538824,True,21,-1,0,0
Y2-S2-265K19,4,323,AS,exp,39,↓,no_key,no_letter,-1.0,False,21,-1,0,0
Y2-S2-265K19,4,324,AS,exp,30,←,left,←,0.5900067000184208,True,22,-1,0,0
Y2-S2-265K19,4,325,AS,exp,32,↓,left,←,0.8724381000502035,False,22,-1,0,0
Y2-S2-265K19,4,326,AS,exp,36,→,no_key,no_letter,-1.0,False,23,-1,0,0
Y2-S2-265K19,4,327,AS,exp,30,↑,up,↑,0.5340366000309587,True,24,-1,0,0
Y2-S2-265K19,4,328,AS,exp,32,←,left,←,0.5163980999495834,True,24,-1,0,0
Y2-S2-265K19,4,329,AS,exp,34,→,right,→,0.43390539998654276,True,24,1,1,1
Y2-S2-265K19,4,330,AS,exp,29,←,no_key,no_letter,-1.0,False,23,-1,1,2
Y2-S2-265K19,4,331,AS,exp,32,→,right,→,0.40033310011494905,True,24,-1,0,2
Y2-S2-265K19,4,332,AS,exp,32,←,left,←,0.5172876000870019,True,24,-1,0,2
Y2-S2-265K19,4,333,AS,exp,28,↓,right,→,0.9200809000758454,False,24,-1,0,2
Y2-S2-265K19,4,334,AS,exp,31,←,no_key,no_letter,-1.0,False,25,-1,0,2
Y2-S2-265K19,4,335,AS,exp,33,↓,down,↓,1.3090645000338554,True,26,-1,0,2
Y2-S2-265K19,4,336,AS,exp,48,→,right,→,0.7063078000210226,True,26,-1,0,2
Y2-S2-265K19,4,337,AS,exp,48,↑,right,→,0.9985417999560013,False,26,-1,0,2
Y2-S2-265K19,4,338,AS,exp,39,→,right,→,0.5672146000433713,True,27,-1,0,2
Y2-S2-265K19,4,339,AS,exp,41,←,right,→,0.5672866000095382,False,27,-1,0,2
Y2-S2-265K19,4,340,AS,exp,37,↓,down,↓,0.9488562999758869,True,28,-1,0,2
Y2-S2-265K19,4,341,AS,exp,26,↑,up,↑,0.8156950999982655,True,28,-1,0,2
Y2-S2-265K19,4,342,AS,exp,43,→,right,→,0.48430350003764033,True,28,1,1,3
Y2-S2-265K19,4,343,AS,exp,29,←,left,←,0.4669442999875173,True,27,1,0,3
Y2-S2-265K19,4,344,AS,exp,47,↑,up,↑,0.5504981999984011,True,27,1,0,3
Y2-S2-265K19,4,345,AS,exp,30,↓,down,↓,0.7736609999556094,True,27,1,0,3
Y2-S2-265K19,4,346,AS,exp,25,↑,up,↑,0.7161281999433413,True,26,1,0,3
Y2-S2-265K19,4,347,AS,exp,33,←,left,←,0.6186276999069378,True,26,1,0,3
Y2-S2-265K19,4,348,AS,exp,44,↓,down,↓,0.8963426999980584,True,26,1,0,3
Y2-S2-265K19,4,349,AS,exp,43,→,right,→,0.5343025999609381,True,25,1,0,3
Y2-S2-265K19,4,350,AS,exp,33,↓,down,↓,1.3825773999560624,True,25,1,0,3
Y2-S2-265K19,4,351,AS,exp,25,↑,up,↑,0.7758761999430135,True,25,1,0,3
Y2-S2-265K19,4,352,AS,exp,36,↓,down,↓,1.390293899923563,True,24,1,0,3
Y2-S2-265K19,4,353,AS,exp,46,↑,up,↑,0.9038971000118181,True,24,1,0,3
Y2-S2-265K19,4,354,AS,exp,50,↓,down,↓,1.2771485999692231,True,24,1,0,3
Y2-S2-265K19,4,355,AS,exp,30,→,right,→,0.48398440005257726,True,23,1,0,3
Y2-S2-265K19,4,356,AS,exp,28,←,left,←,0.5724127000430599,True,23,1,0,3
Y2-S2-265K19,4,357,AS,exp,37,↓,down,↓,0.7638725000433624,True,23,1,0,3
Y2-S2-265K19,4,358,AS,exp,46,←,left,←,0.6403193000005558,True,22,1,0,3
Y2-S2-265K19,4,359,AS,exp,29,↑,no_key,no_letter,-1.0,False,22,-1,1,4
Y2-S2-265K19,4,360,AS,exp,45,←,left,←,0.7623609999427572,True,23,-1,0,4
Y2-S2-265K19,4,361,AS,exp,36,↓,down,↓,0.8141318999696523,True,23,-1,0,4
Y2-S2-265K19,4,362,AS,exp,37,←,left,←,0.5505559999728575,True,23,1,1,5
Y2-S2-265K19,4,363,AS,exp,25,↓,down,↓,0.690478999982588,True,22,1,0,5
Y2-S2-265K19,4,364,AS,exp,40,→,left,←,0.6268399000400677,False,22,-1,1,6
Y2-S2-265K19,4,365,AS,exp,41,↓,down,↓,1.0676823999965563,True,23,-1,0,6
Y2-S2-265K19,4,366,AS,exp,29,→,right,→,0.7080294000916183,True,23,-1,0,6
Y2-S2-265K19,4,367,AS,exp,50,↑,left,←,1.7322320999810472,False,23,-1,0,6
Y2-S2-265K19,4,368,AS,exp,32,→,left,←,0.7142408000072464,False,24,-1,0,6
Y2-S2-265K19,4,369,AS,exp,48,↓,down,↓,0.9475067000603303,True,25,-1,0,6
Y2-S2-265K19,4,370,AS,exp,26,↑,up,↑,0.6553442999720573,True,25,-1,0,6
Y2-S2-265K19,4,371,AS,exp,44,→,no_key,no_letter,-1.0,False,25,-1,0,6
Y2-S2-265K19,4,372,AS,exp,25,←,left,←,0.5675443999934942,True,26,-1,0,6
Y2-S2-265K19,4,373,AS,exp,28,↑,up,↑,0.6304099999833852,True,26,-1,0,6
Y2-S2-265K19,4,374,AS,exp,48,←,left,←,0.4841608999995515,True,26,1,1,7
Y2-S2-265K19,4,375,AS,exp,49,→,right,→,0.4671201000455767,True,25,1,0,7
Y2-S2-265K19,4,376,AS,exp,48,↓,down,↓,0.9039726000046358,True,25,1,0,7
Y2-S2-265K19,4,377,AS,exp,44,←,left,←,0.4680704000638798,True,25,1,0,7
Y2-S2-265K19,4,378,AS,exp,27,↓,down,↓,0.9943986000726,True,24,1,0,7
Y2-S2-265K19,4,379,AS,exp,41,←,left,←,0.5004331000382081,True,24,1,0,7
Y2-S2-265K19,4,380,AS,exp,27,↓,down,↓,0.9989237999543548,True,24,1,0,7
Y2-S2-265K19,4,381,AS,exp,38,↑,up,↑,0.7367263999767601,True,23,1,0,7
Y2-S2-265K19,4,382,AS,exp,28,←,left,←,0.6400537000736222,True,23,1,0,7
Y2-S2-265K19,4,383,AS,exp,37,→,right,→,0.587155899964273,True,23,1,0,7
Y2-S2-265K19,4,384,AS,exp,49,↑,up,↑,0.5598282000282779,True,22,1,0,7
Y2-S2-265K19,4,385,AS,exp,41,→,right,→,0.4838080999907106,True,22,1,0,7
Y2-S2-265K19,4,386,AS,exp,32,↑,up,↑,0.5399190000025555,True,22,1,0,7
Y2-S2-265K19,4,387,AS,exp,25,↓,down,↓,0.8626101000700146,True,21,1,0,7
Y2-S2-265K19,4,388,AS,exp,45,→,right,→,0.417312000063248,True,21,1,0,7
Y2-S2-265K19,4,389,AS,exp,47,↓,down,↓,0.9504482999909669,True,21,1,0,7
Y2-S2-265K19,4,390,AS,exp,26,←,left,←,0.568222799920477,True,20,1,0,7
Y2-S2-265K19,4,391,AS,exp,28,→,no_key,no_letter,-1.0,False,20,-1,1,8
Y2-S2-265K19,4,392,AS,exp,36,←,right,→,0.5851401999825612,False,21,-1,0,8
Y2-S2-265K19,4,393,AS,exp,43,↓,down,↓,1.087694099987857,True,22,-1,0,8
Y2-S2-265K19,4,394,AS,exp,48,→,right,→,0.6116697998950258,True,22,-1,0,8
Y2-S2-265K19,4,395,AS,exp,35,←,right,→,0.5005237000295892,False,22,-1,0,8
Y2-S2-265K19,4,396,AS,exp,37,↑,up,↑,0.5607796999393031,True,23,-1,0,8
Y2-S2-265K19,4,397,AS,exp,34,←,left,←,0.6327213000040501,True,23,-1,0,8
Y2-S2-265K19,4,398,AS,exp,31,→,right,→,0.5172277999809012,True,23,1,1,9
Y2-S2-265K19,4,399,AS,exp,30,↓,down,↓,0.8211375999962911,True,22,1,0,9
Y2-S2-265K19,4,400,AS,exp,27,→,left,←,0.8343893999699503,False,22,-1,1,10
Y2-S2-265K19,4,401,AS,exp,29,↓,down,↓,1.0476734000258148,True,23,-1,0,10
Y2-S2-265K19,4,402,AS,exp,31,→,right,→,0.8138357999268919,True,23,-1,0,10
Y2-S2-265K19,4,403,AS,exp,47,↓,down,↓,0.9172226999653503,True,23,1,1,11
Y2-S2-265K19,4,404,AS,exp,25,→,left,←,0.9274060999741778,False,22,-1,1,12
Y2-S2-265K19,4,405,AS,exp,38,↑,up,↑,0.7687247999710962,True,23,-1,0,12
Y2-S2-265K19,4,406,AS,exp,43,→,right,→,0.517404199927114,True,23,-1,0,12
Y2-S2-265K19,4,407,AS,exp,48,↑,up,↑,0.7534988999832422,True,23,1,1,13
Y2-S2-265K19,4,408,AS,exp,42,↓,down,↓,0.9559498999733478,True,22,1,0,13
Y2-S2-265K19,4,409,AS,exp,43,→,right,→,0.43409059999976307,True,22,1,0,13
Y2-S2-265K19,4,410,AS,exp,42,←,right,→,0.6824274000246078,False,22,-1,1,14
Y2-S2-265K19,4,411,AS,exp,25,↓,left,←,0.8141931999707595,False,23,-1,0,14
Y2-S2-265K19,4,412,AS,exp,35,↑,up,↑,0.5794443000340834,True,24,-1,0,14
Y2-S2-265K19,4,413,AS,exp,48,↓,down,↓,0.8873485999647528,True,24,-1,0,14
Y2-S2-265K19,4,414,AS,exp,28,←,left,←,0.5753909000195563,True,24,1,1,15
Y2-S2-265K19,4,415,AS,exp,44,→,right,→,0.8853403999237344,True,23,1,0,15
Y2-S2-265K19,4,416,AS,exp,46,↓,down,↓,1.0560251999413595,True,23,1,0,15
Y2-S2-265K19,4,417,AS,exp,39,←,no_key,no_letter,-1.0,False,23,-1,1,16
Y2-S2-265K19,5,418,AS,intra_train,40,→,no_key,no_letter,-1.0,False,27,-,-,-
Y2-S2-265K19,5,419,AS,intra_train,46,←,left,←,0.8998797000385821,True,27,-,-,-
Y2-S2-265K19,5,420,AS,intra_train,31,↓,down,↓,1.1365712000988424,True,27,-,-,-
Y2-S2-265K19,5,421,AS,intra_train,50,←,left,←,0.8194428998976946,True,27,-,-,-
Y2-S2-265K19,5,422,AS,intra_train,48,↓,down,↓,0.9477227000752464,True,27,-,-,-
Y2-S2-265K19,5,423,AS,exp,49,↑,up,↑,1.0453464000020176,True,18,0,0,0
Y2-S2-265K19,5,424,AS,exp,26,→,right,→,0.9934261000016704,True,18,0,0,0
Y2-S2-265K19,5,425,AS,exp,43,←,left,←,0.6836782998871058,True,18,1,0,0
Y2-S2-265K19,5,426,AS,exp,26,↑,up,↑,0.995890700025484,True,17,1,0,0
Y2-S2-265K19,5,427,AS,exp,33,→,down,↓,0.9652405000524595,False,17,-1,1,1
Y2-S2-265K19,5,428,AS,exp,48,↓,up,↑,1.0231080000521615,False,18,-1,0,1
Y2-S2-265K19,5,429,AS,exp,28,↑,up,↑,0.5904027000069618,True,19,-1,0,1
Y2-S2-265K19,5,430,AS,exp,34,←,no_key,no_letter,-1.0,False,19,-1,0,1
Y2-S2-265K19,5,431,AS,exp,37,→,right,→,0.6480256000068039,True,20,-1,0,1
Y2-S2-265K19,5,432,AS,exp,48,↓,down,↓,0.8550025000004098,True,20,-1,0,1
Y2-S2-265K19,5,433,AS,exp,41,↑,up,↑,0.7132072999374941,True,20,1,1,2
Y2-S2-265K19,5,434,AS,exp,25,←,left,←,0.669467700063251,True,19,1,0,2
Y2-S2-265K19,5,435,AS,exp,42,↓,up,↑,0.7685642000287771,False,19,-1,1,3
Y2-S2-265K19,5,436,AS,exp,37,←,left,←,0.5287197000579908,True,20,-1,0,3
Y2-S2-265K19,5,437,AS,exp,44,↑,up,↑,0.6291999999666587,True,20,-1,0,3
Y2-S2-265K19,5,438,AS,exp,28,→,right,→,0.43408809998072684,True,20,1,1,4
Y2-S2-265K19,5,439,AS,exp,35,↓,up,↑,0.8471915000118315,False,19,-1,1,5
Y2-S2-265K19,5,440,AS,exp,25,→,right,→,0.6179567999206483,True,20,-1,0,5
Y2-S2-265K19,5,441,AS,exp,33,↑,right,→,0.7617410999955609,False,20,-1,0,5
Y2-S2-265K19,5,442,AS,exp,47,←,left,←,0.4336934000020847,True,21,-1,0,5
Y2-S2-265K19,5,443,AS,exp,33,→,right,→,0.6397282999241725,True,21,-1,0,5
Y2-S2-265K19,5,444,AS,exp,45,↑,left,←,0.7440496999770403,False,21,-1,0,5
Y2-S2-265K19,5,445,AS,exp,47,←,left,←,0.7211549999192357,True,22,-1,0,5
Y2-S2-265K19,5,446,AS,exp,44,↓,right,→,0.8714626000728458,False,22,-1,0,5
Y2-S2-265K19,5,447,AS,exp,32,←,left,←,0.7292612000601366,True,23,-1,0,5
Y2-S2-265K19,5,448,AS,exp,44,↓,down,↓,0.8984476999612525,True,23,-1,0,5
Y2-S2-265K19,5,449,AS,exp,34,↑,up,↑,1.0010262000141665,True,23,1,1,6
Y2-S2-265K19,5,450,AS,exp,44,←,left,←,0.6627477000001818,True,22,1,0,6
Y2-S2-265K19,5,451,AS,exp,34,↑,no_key,no_letter,-1.0,False,22,-1,1,7
Y2-S2-265K19,5,452,AS,exp,30,↓,down,↓,0.9932107999920845,True,23,-1,0,7
Y2-S2-265K19,5,453,AS,exp,30,←,left,←,0.6878922000760213,True,23,-1,0,7
Y2-S2-265K19,5,454,AS,exp,35,↑,up,↑,0.8181151000317186,True,23,1,1,8
Y2-S2-265K19,5,455,AS,exp,50,←,no_key,no_letter,-1.0,False,22,-1,1,9
Y2-S2-265K19,5,456,AS,exp,40,↓,down,↓,1.1360444000456482,True,23,-1,0,9
Y2-S2-265K19,5,457,AS,exp,25,↑,up,↑,0.670324599952437,True,23,-1,0,9
Y2-S2-265K19,5,458,AS,exp,27,←,left,←,0.638986499980092,True,23,1,1,10
Y2-S2-265K19,5,459,AS,exp,37,↓,down,↓,0.8755909000756219,True,22,1,0,10
Y2-S2-265K19,5,460,AS,exp,49,↑,up,↑,0.7218626000685617,True,22,1,0,10
Y2-S2-265K19,5,461,AS,exp,42,↓,down,↓,0.8542316999519244,True,22,1,0,10
Y2-S2-265K19,5,462,AS,exp,26,→,right,→,0.4842481999658048,True,21,1,0,10
Y2-S2-265K19,5,463,AS,exp,44,←,left,←,0.6790323000168428,True,21,1,0,10
Y2-S2-265K19,5,464,AS,exp,31,↓,down,↓,1.1238309999462217,True,21,1,0,10
Y2-S2-265K19,5,465,AS,exp,28,↑,up,↑,0.8551450000377372,True,20,1,0,10
Y2-S2-265K19,5,466,AS,exp,44,→,down,↓,1.432064300053753,False,20,-1,1,11
Y2-S2-265K19,5,467,AS,exp,41,↑,up,↑,0.5388297999743372,True,21,-1,0,11
Y2-S2-265K19,5,468,AS,exp,46,←,no_key,no_letter,-1.0,False,21,-1,0,11
Y2-S2-265K19,5,469,AS,exp,38,↓,left,←,0.7839536999817938,False,22,-1,0,11
Y2-S2-265K19,5,470,AS,exp,34,↑,up,↑,0.643540000077337,True,23,-1,0,11
Y2-S2-265K19,5,471,AS,exp,39,←,left,←,0.4006529999896884,True,23,-1,0,11
Y2-S2-265K19,5,472,AS,exp,35,↓,down,↓,1.0294747999869287,True,23,1,1,12
Y2-S2-265K19,5,473,AS,exp,50,←,left,←,0.7457030999939889,True,22,1,0,12
Y2-S2-265K19,5,474,AS,exp,34,↓,down,↓,0.8106176999863237,True,22,1,0,12
Y2-S2-265K19,5,475,AS,exp,46,↑,up,↑,0.4671632999088615,True,22,1,0,12
Y2-S2-265K19,5,476,AS,exp,44,←,right,→,0.5185116999782622,False,21,-1,1,13
Y2-S2-265K19,5,477,AS,exp,44,↑,up,↑,0.6074540999252349,True,22,-1,0,13
Y2-S2-265K19,5,478,AS,exp,31,←,left,←,0.4505760999163613,True,22,-1,0,13
Y2-S2-265K19,5,479,AS,exp,46,↓,down,↓,0.7521568000083789,True,22,1,1,14
Y2-S2-265K19,5,480,AS,exp,41,→,right,→,0.41710259998217225,True,21,1,0,14
Y2-S2-265K19,5,481,AS,exp,45,↓,down,↓,0.7157784000737593,True,21,1,0,14
Y2-S2-265K19,5,482,AS,exp,27,←,left,←,0.4838101000059396,True,21,1,0,14
Y2-S2-265K19,5,483,AS,exp,50,↑,up,↑,0.663905999972485,True,20,1,0,14
Y2-S2-265K19,5,484,AS,exp,27,→,right,→,0.38368730002548546,True,20,1,0,14
Y2-S2-265K19,5,485,AS,exp,26,↓,down,↓,0.710151500068605,True,20,1,0,14
Y2-S2-265K19,5,486,AS,exp,42,→,left,←,0.5890777000458911,False,19,-1,1,15
Y2-S2-265K19,5,487,AS,exp,32,↑,right,→,0.857376900035888,False,20,-1,0,15
Y2-S2-265K19,5,488,AS,exp,47,←,no_key,no_letter,-1.0,False,21,-1,0,15
Y2-S2-265K19,5,489,AS,exp,44,↑,up,↑,0.6215897999936715,True,22,-1,0,15
Y2-S2-265K19,5,490,AS,exp,26,→,right,→,0.467285200022161,True,22,-1,0,15
Y2-S2-265K19,5,491,AS,exp,47,↑,up,↑,0.4842693000100553,True,22,1,1,16
Y2-S2-265K19,6,492,PS,intra_train,36,→,right,→,0.5838519000681117,True,15,-,-,-
Y2-S2-265K19,6,493,PS,intra_train,34,←,left,←,0.712070900015533,True,15,-,-,-
Y2-S2-265K19,6,494,PS,intra_train,36,→,right,→,0.6829065999481827,True,15,-,-,-
Y2-S2-265K19,6,495,PS,intra_train,32,↓,down,↓,0.8472405000356957,True,15,-,-,-
Y2-S2-265K19,6,496,PS,intra_train,25,→,right,→,0.44761549995746464,True,15,-,-,-
Y2-S2-265K19,6,497,PS,exp,40,↓,down,↓,0.6308773999335244,True,10,0,0,0
Y2-S2-265K19,6,498,PS,exp,33,→,right,→,0.46364910004194826,True,10,0,0,0
Y2-S2-265K19,6,499,PS,exp,50,←,left,←,0.599456200026907,True,10,1,0,0
Y2-S2-265K19,6,500,PS,exp,31,→,right,→,0.6625897000776604,True,9,1,0,0
Y2-S2-265K19,6,501,PS,exp,33,←,right,→,0.7204049000283703,False,9,-1,1,1
Y2-S2-265K19,6,502,PS,exp,39,→,right,→,0.46142039995174855,True,10,-1,0,1
Y2-S2-265K19,6,503,PS,exp,38,←,right,→,0.6166631999658421,False,10,-1,0,1
Y2-S2-265K19,6,504,PS,exp,28,↓,down,↓,0.759991200058721,True,11,-1,0,1
Y2-S2-265K19,6,505,PS,exp,43,←,right,→,0.759265200002119,False,11,-1,0,1
Y2-S2-265K19,6,506,PS,exp,50,→,left,←,1.009279099991545,False,12,-1,0,1
Y2-S2-265K19,6,507,PS,exp,48,←,left,←,0.6326681999489665,True,13,-1,0,1
Y2-S2-265K19,6,508,PS,exp,40,→,right,→,0.4937675000401214,True,13,-1,0,1
Y2-S2-265K19,6,509,PS,exp,50,←,left,←,0.46725660003721714,True,13,1,1,2
Y2-S2-265K19,6,510,PS,exp,39,↑,right,→,1.386924699996598,False,12,-1,1,3
Y2-S2-265K19,6,511,PS,exp,37,↓,down,↓,0.844591400003992,True,13,-1,0,3
Y2-S2-265K19,6,512,PS,exp,29,←,right,→,0.7564717999193817,False,13,-1,0,3
Y2-S2-265K19,6,513,PS,exp,34,→,right,→,0.43950460001360625,True,14,-1,0,3
Y2-S2-265K19,6,514,PS,exp,47,↓,down,↓,1.2068920000456274,True,14,-1,0,3
Y2-S2-265K19,6,515,PS,exp,36,↑,up,↑,0.4943529999582097,True,14,1,1,4
Y2-S2-265K19,6,516,PS,exp,28,↓,down,↓,0.6450674999505281,True,13,1,0,4
Y2-S2-265K19,6,517,PS,exp,35,←,right,→,0.6312300999416038,False,13,-1,1,5
Y2-S2-265K19,6,518,PS,exp,37,→,left,←,0.7203498999588192,False,14,-1,0,5
Y2-S2-265K19,6,519,PS,exp,37,↑,up,↑,0.44544269994366914,True,15,-1,0,5
Y2-S2-265K19,6,520,PS,exp,42,←,left,←,0.436223299941048,True,15,-1,0,5
Y2-S2-265K19,6,521,PS,exp,33,→,right,→,0.48759699997026473,True,15,1,1,6
Y2-S2-265K19,6,522,PS,exp,41,←,left,←,0.4358611000934616,True,14,1,0,6
Y2-S2-265K19,6,523,PS,exp,48,→,right,→,0.43736410001292825,True,14,1,0,6
Y2-S2-265K19,6,524,PS,exp,41,↓,down,↓,0.9924533000448719,True,14,1,0,6
Y2-S2-265K19,6,525,PS,exp,47,←,left,←,0.6437837000703439,True,13,1,0,6
Y2-S2-265K19,6,526,PS,exp,44,→,right,→,0.45387760002631694,True,13,1,0,6
Y2-S2-265K19,6,527,PS,exp,43,↑,left,←,0.9268089000834152,False,13,-1,1,7
Y2-S2-265K19,6,528,PS,exp,46,→,left,←,0.7743622000562027,False,14,-1,0,7
Y2-S2-265K19,6,529,PS,exp,29,←,left,←,0.4269469999708235,True,15,-1,0,7
Y2-S2-265K19,6,530,PS,exp,43,↓,down,↓,0.989356700098142,True,15,-1,0,7
Y2-S2-265K19,6,531,PS,exp,35,↑,up,↑,0.6591164999408647,True,15,1,1,8
Y2-S2-265K19,6,532,PS,exp,35,↓,down,↓,1.1634499999927357,True,14,1,0,8
Y2-S2-265K19,6,533,PS,exp,41,→,left,←,0.7695394000038505,False,14,-1,1,9
Y2-S2-265K19,6,534,PS,exp,26,↑,up,↑,0.49467749998439103,True,15,-1,0,9
Y2-S2-265K19,6,535,PS,exp,46,↓,up,↑,1.2316711000166833,False,15,-1,0,9
Y2-S2-265K19,6,536,PS,exp,28,↑,up,↑,0.5286847999086604,True,16,-1,0,9
Y2-S2-265K19,6,537,PS,exp,40,→,right,→,0.7066879000049084,True,16,-1,0,9
Y2-S2-265K19,6,538,PS,exp,38,↓,down,↓,0.7161396000301465,True,16,1,1,10
Y2-S2-265K19,6,539,PS,exp,49,←,no_key,no_letter,-1.0,False,15,-1,1,11
Y2-S2-265K19,6,540,PS,exp,42,→,right,→,0.6616141999838874,True,16,-1,0,11
Y2-S2-265K19,6,541,PS,exp,49,←,left,←,0.8991630000527948,True,16,-1,0,11
Y2-S2-265K19,6,542,PS,exp,48,↓,left,←,0.7043343998957425,False,16,-1,0,11
Y2-S2-265K19,6,543,PS,exp,47,↑,up,↑,0.5167372000869364,True,17,-1,0,11
Y2-S2-265K19,6,544,PS,exp,29,←,left,←,0.5639000999508426,True,17,-1,0,11
Y2-S2-265K19,6,545,PS,exp,25,→,right,→,0.4823070000857115,True,17,1,1,12
Y2-S2-265K19,6,546,PS,exp,35,←,right,→,0.7649327999679372,False,16,-1,1,13
Y2-S2-265K19,6,547,PS,exp,37,→,right,→,0.703213999979198,True,17,-1,0,13
Y2-S2-265K19,6,548,PS,exp,33,↓,left,←,0.8146247001131997,False,17,-1,0,13
Y2-S2-265K19,6,549,PS,exp,44,←,left,←,0.535305899917148,True,18,-1,0,13
Y2-S2-265K19,6,550,PS,exp,39,↑,left,←,0.3672981000272557,False,18,-1,0,13
Y2-S2-265K19,6,551,PS,exp,28,←,left,←,0.4007796999067068,True,19,-1,0,13
Y2-S2-265K19,6,552,PS,exp,41,→,no_key,no_letter,-1.0,False,19,-1,0,13
Y2-S2-265K19,6,553,PS,exp,40,↑,up,↑,0.6234707999974489,True,20,-1,0,13
Y2-S2-265K19,6,554,PS,exp,35,↓,down,↓,0.899083900032565,True,20,-1,0,13
Y2-S2-265K19,6,555,PS,exp,26,↑,up,↑,0.5101693000178784,True,20,1,1,14
Y2-S2-265K19,6,556,PS,exp,44,↓,down,↓,0.6110073999734595,True,19,1,0,14
Y2-S2-265K19,6,557,PS,exp,40,←,left,←,0.45080839993897825,True,19,1,0,14
Y2-S2-265K19,6,558,PS,exp,44,→,right,→,0.5225276999408379,True,19,1,0,14
Y2-S2-265K19,6,559,PS,exp,36,←,left,←,0.5837066000094637,True,18,1,0,14
Y2-S2-265K19,6,560,PS,exp,28,→,right,→,0.8493097999598831,True,18,1,0,14
Y2-S2-265K19,6,561,PS,exp,27,↓,down,↓,0.6977889999980107,True,18,1,0,14
Y2-S2-265K19,6,562,PS,exp,31,←,left,←,0.48160360008478165,True,17,1,0,14
Y2-S2-265K19,6,563,PS,exp,35,↓,down,↓,0.7173413999844342,True,17,1,0,14
Y2-S2-265K19,6,564,PS,exp,29,→,right,→,0.47876430000178516,True,17,1,0,14
Y2-S2-265K19,6,565,PS,exp,47,↑,up,↑,0.47428080008830875,True,16,1,0,14
Y2-S2-265K19,6,566,PS,exp,49,→,right,→,0.4432412999449298,True,16,1,0,14
Y2-S2-265K19,6,567,PS,exp,26,↓,down,↓,0.8265919999685138,True,16,1,0,14
Y2-S2-265K19,6,568,PS,exp,49,↑,up,↑,0.7126355998916551,True,15,1,0,14
Y2-S2-265K19,6,569,PS,exp,39,→,right,→,0.46677489997819066,True,15,1,0,14
Y2-S2-265K19,6,570,PS,exp,37,↑,up,↑,0.5298078000778332,True,15,1,0,14
Y2-S2-265K19,6,571,PS,exp,47,←,left,←,0.47112199990078807,True,14,1,0,14
Y2-S2-265K19,6,572,PS,exp,42,↓,down,↓,0.7151546999812126,True,14,1,0,14
Y2-S2-265K19,6,573,PS,exp,40,→,right,→,1.2833995999535546,True,14,1,0,14
Y2-S2-265K19,6,574,PS,exp,27,↓,left,←,0.6637914999155328,False,13,-1,1,15
Y2-S2-265K19,6,575,PS,exp,42,↑,up,↑,0.648519100039266,True,14,-1,0,15
Y2-S2-265K19,6,576,PS,exp,43,↓,down,↓,0.7160759000107646,True,14,-1,0,15
Y2-S2-265K19,6,577,PS,exp,48,↑,up,↑,0.5645444999681786,True,14,1,1,16
Y2-S2-265K19,7,578,PS,intra_train,33,←,left,←,0.8589482000097632,True,15,-,-,-
Y2-S2-265K19,7,579,PS,intra_train,32,→,right,→,0.5020167999900877,True,15,-,-,-
Y2-S2-265K19,7,580,PS,intra_train,43,↓,down,↓,0.6861995999934152,True,15,-,-,-
Y2-S2-265K19,7,581,PS,intra_train,32,→,no_key,no_letter,-1.0,False,15,-,-,-
Y2-S2-265K19,7,582,PS,intra_train,26,↓,left,←,0.7181147000519559,False,15,-,-,-
Y2-S2-265K19,7,583,PS,exp,29,←,left,←,0.7605848000384867,True,10,0,0,0
Y2-S2-265K19,7,584,PS,exp,27,↑,left,←,0.5379750001011416,False,10,-1,0,0
Y2-S2-265K19,7,585,PS,exp,50,→,right,→,0.4517928999848664,True,11,-1,0,0
Y2-S2-265K19,7,586,PS,exp,27,↑,up,↑,0.5546821999596432,True,11,-1,0,0
Y2-S2-265K19,7,587,PS,exp,28,→,left,←,0.5081775999860838,False,11,-1,0,0
Y2-S2-265K19,7,588,PS,exp,26,↑,up,↑,0.4804018000140786,True,12,-1,0,0
Y2-S2-265K19,7,589,PS,exp,28,←,left,←,0.38415259995963424,True,12,-1,0,0
Y2-S2-265K19,7,590,PS,exp,40,↑,up,↑,0.49553269997704774,True,12,1,1,1
Y2-S2-265K19,7,591,PS,exp,32,→,right,→,0.4206469999626279,True,11,1,0,1
Y2-S2-265K19,7,592,PS,exp,49,←,left,←,0.3951600999571383,True,11,1,0,1
Y2-S2-265K19,7,593,PS,exp,27,↑,up,↑,0.5260402000276372,True,11,1,0,1
Y2-S2-265K19,7,594,PS,exp,44,↓,left,←,0.33704909996595234,False,10,-1,1,2
Y2-S2-265K19,7,595,PS,exp,34,→,right,→,0.6931338999420404,True,11,-1,0,2
Y2-S2-265K19,7,596,PS,exp,31,←,left,←,0.400548700010404,True,11,-1,0,2
Y2-S2-265K19,7,597,PS,exp,44,↑,up,↑,1.4258747999556363,True,11,1,1,3
Y2-S2-265K19,7,598,PS,exp,43,↓,down,↓,0.715771900024265,True,10,1,0,3
Y2-S2-265K19,7,599,PS,exp,32,→,right,→,0.4930993999587372,True,10,1,0,3
Y2-S2-265K19,7,600,PS,exp,37,←,right,→,0.5905925999395549,False,10,-1,1,4
Y2-S2-265K19,7,601,PS,exp,26,→,right,→,0.4618707000045106,True,11,-1,0,4
Y2-S2-265K19,7,602,PS,exp,33,↑,up,↑,0.501293700071983,True,11,-1,0,4
Y2-S2-265K19,7,603,PS,exp,44,←,left,←,0.4109427999937907,True,11,1,1,5
Y2-S2-265K19,7,604,PS,exp,46,↑,up,↑,0.5312894999515265,True,10,1,0,5
Y2-S2-265K19,7,605,PS,exp,44,←,left,←,0.5354258000152186,True,10,1,0,5
Y2-S2-265K19,7,606,PS,exp,30,→,right,→,0.5809728000313044,True,10,1,0,5
Y2-S2-265K19,7,607,PS,exp,31,↑,up,↑,0.695576399913989,True,9,1,0,5
Y2-S2-265K19,7,608,PS,exp,32,←,left,←,0.4158826000057161,True,9,1,0,5
Y2-S2-265K19,7,609,PS,exp,38,→,right,→,0.4004784000571817,True,9,1,0,5
Y2-S2-265K19,7,610,PS,exp,30,↑,up,↑,1.0979716998990625,True,8,1,0,5
Y2-S2-265K19,7,611,PS,exp,43,→,right,→,0.4632087000645697,True,8,1,0,5
Y2-S2-265K19,7,612,PS,exp,47,↑,up,↑,0.8046268000034615,True,8,1,0,5
Y2-S2-265K19,7,613,PS,exp,45,→,right,→,0.5680763000855222,True,7,1,0,5
Y2-S2-265K19,7,614,PS,exp,36,←,right,→,0.5046230999287218,False,7,-1,1,6
Y2-S2-265K19,7,615,PS,exp,43,↑,right,→,0.6429560999386013,False,8,-1,0,6
Y2-S2-265K19,7,616,PS,exp,34,↓,down,↓,1.4149210999021307,True,9,-1,0,6
Y2-S2-265K19,7,617,PS,exp,39,→,right,→,0.41894060000777245,True,9,-1,0,6
Y2-S2-265K19,7,618,PS,exp,32,↑,right,→,0.5528411999111995,False,9,-1,0,6
Y2-S2-265K19,7,619,PS,exp,40,↓,down,↓,0.7107245998922735,True,10,-1,0,6
Y2-S2-265K19,7,620,PS,exp,37,←,right,→,0.6908285999670625,False,10,-1,0,6
Y2-S2-265K19,7,621,PS,exp,33,↑,down,↓,0.8467208000365645,False,11,-1,0,6
Y2-S2-265K19,7,622,PS,exp,26,→,right,→,0.49371579999569803,True,12,-1,0,6
Y2-S2-265K19,7,623,PS,exp,45,←,left,←,0.4291724000358954,True,12,-1,0,6
Y2-S2-265K19,7,624,PS,exp,41,→,right,→,0.41963479993864894,True,12,1,1,7
Y2-S2-265K19,7,625,PS,exp,28,↓,down,↓,0.8869173999410123,True,11,1,0,7
Y2-S2-265K19,7,626,PS,exp,25,←,left,←,0.41968139994423836,True,11,1,0,7
Y2-S2-265K19,7,627,PS,exp,47,→,right,→,0.38196510006673634,True,11,1,0,7
Y2-S2-265K19,7,628,PS,exp,43,←,left,←,0.6897919999901205,True,10,1,0,7
Y2-S2-265K19,7,629,PS,exp,41,↑,down,↓,0.7640156000852585,False,10,-1,1,8
Y2-S2-265K19,7,630,PS,exp,36,←,left,←,0.4633588999276981,True,11,-1,0,8
Y2-S2-265K19,7,631,PS,exp,47,→,right,→,0.42577840003650635,True,11,-1,0,8
Y2-S2-265K19,7,632,PS,exp,38,↓,down,↓,0.6966333000455052,True,11,1,1,9
Y2-S2-265K19,7,633,PS,exp,27,↑,up,↑,0.5105780999874696,True,10,1,0,9
Y2-S2-265K19,7,634,PS,exp,39,←,left,←,0.44876019994262606,True,10,1,0,9
Y2-S2-265K19,7,635,PS,exp,41,↑,left,←,0.5959000999573618,False,10,-1,1,10
Y2-S2-265K19,7,636,PS,exp,44,↓,left,←,0.5900759999640286,False,11,-1,0,10
Y2-S2-265K19,7,637,PS,exp,45,↑,up,↑,0.5681738000130281,True,12,-1,0,10
Y2-S2-265K19,7,638,PS,exp,36,→,right,→,0.40319710003677756,True,12,-1,0,10
Y2-S2-265K19,7,639,PS,exp,38,←,left,←,0.3904888000106439,True,12,1,1,11
Y2-S2-265K19,7,640,PS,exp,37,↓,down,↓,0.9052737000165507,True,11,1,0,11
Y2-S2-265K19,7,641,PS,exp,31,↑,up,↑,0.7214359999634326,True,11,1,0,11
Y2-S2-265K19,7,642,PS,exp,32,←,right,→,0.5565213999943808,False,11,-1,1,12
Y2-S2-265K19,7,643,PS,exp,28,→,right,→,0.38140820001717657,True,12,-1,0,12
Y2-S2-265K19,7,644,PS,exp,40,←,down,↓,1.0133745999773964,False,12,-1,0,12
Y2-S2-265K19,7,645,PS,exp,28,↓,down,↓,0.8691237999591976,True,13,-1,0,12
Y2-S2-265K19,7,646,PS,exp,43,←,left,←,0.4198161999229342,True,13,-1,0,12
Y2-S2-265K19,7,647,PS,exp,47,↓,down,↓,0.8469609000021592,True,13,1,1,13
Y2-S2-265K19,7,648,PS,exp,47,↑,up,↑,0.8193761999718845,True,12,1,0,13
Y2-S2-265K19,7,649,PS,exp,26,→,right,→,0.7800897000124678,True,12,1,0,13
Y2-S2-265K19,7,650,PS,exp,43,↓,right,→,0.7403148000594229,False,12,-1,1,14
Y2-S2-265K19,7,651,PS,exp,34,←,left,←,0.45690220000687987,True,13,-1,0,14
Y2-S2-265K19,7,652,PS,exp,33,→,right,→,0.46099149994552135,True,13,-1,0,14
Y2-S2-265K19,7,653,PS,exp,47,↑,up,↑,0.445715400041081,True,13,1,1,15
Y2-S2-265K19,7,654,PS,exp,38,↓,right,→,0.28397140000015497,False,12,-1,1,16
Y2-S2-265K19,8,655,AS,intra_train,40,↑,up,↑,0.7010415999684483,True,27,-,-,-
Y2-S2-265K19,8,656,AS,intra_train,30,↓,down,↓,0.8700700999470428,True,27,-,-,-
Y2-S2-265K19,8,657,AS,intra_train,37,←,left,←,0.7433921000920236,True,27,-,-,-
Y2-S2-265K19,8,658,AS,intra_train,43,→,no_key,no_letter,-1.0,False,27,-,-,-
Y2-S2-265K19,8,659,AS,intra_train,34,↑,up,↑,1.0663391000125557,True,27,-,-,-
Y2-S2-265K19,8,660,AS,exp,42,←,left,←,0.5055616999743506,True,18,0,0,0
Y2-S2-265K19,8,661,AS,exp,27,↓,left,←,1.4551197999389842,False,18,-1,0,0
Y2-S2-265K19,8,662,AS,exp,29,←,left,←,0.43389109999407083,True,19,-1,0,0
Y2-S2-265K19,8,663,AS,exp,37,→,right,→,0.45071019988972694,True,19,-1,0,0
Y2-S2-265K19,8,664,AS,exp,48,↓,down,↓,1.0282815999817103,True,19,1,1,1
Y2-S2-265K19,8,665,AS,exp,28,←,left,←,0.5291470000520349,True,18,1,0,1
Y2-S2-265K19,8,666,AS,exp,31,↑,up,↑,0.9957818000111729,True,18,1,0,1
Y2-S2-265K19,8,667,AS,exp,47,↓,down,↓,0.8071377000305802,True,18,1,0,1
Y2-S2-265K19,8,668,AS,exp,41,↑,up,↑,0.7031303000403568,True,17,1,0,1
Y2-S2-265K19,8,669,AS,exp,34,←,no_key,no_letter,-1.0,False,17,-1,1,2
Y2-S2-265K19,8,670,AS,exp,41,↑,up,↑,1.1374517999356613,True,18,-1,0,2
Y2-S2-265K19,8,671,AS,exp,29,←,right,→,1.2775944001041353,False,18,-1,0,2
Y2-S2-265K19,8,672,AS,exp,39,↑,no_key,no_letter,-1.0,False,19,-1,0,2
Y2-S2-265K19,8,673,AS,exp,30,←,down,↓,1.1885782000608742,False,20,-1,0,2
Y2-S2-265K19,8,674,AS,exp,40,↓,down,↓,0.82169549993705,True,21,-1,0,2
Y2-S2-265K19,8,675,AS,exp,31,←,left,←,0.7354720999719575,True,21,-1,0,2
Y2-S2-265K19,8,676,AS,exp,33,↑,down,↓,0.549723899923265,False,21,-1,0,2
Y2-S2-265K19,8,677,AS,exp,39,→,right,→,0.6167579999892041,True,22,-1,0,2
Y2-S2-265K19,8,678,AS,exp,33,↑,up,↑,1.3324370000045747,True,22,-1,0,2
Y2-S2-265K19,8,679,AS,exp,34,←,left,←,0.6877361000515521,True,22,1,1,3
Y2-S2-265K19,8,680,AS,exp,27,↑,up,↑,0.750133000081405,True,21,1,0,3
Y2-S2-265K19,8,681,AS,exp,46,←,left,←,0.6128143999958411,True,21,1,0,3
Y2-S2-265K19,8,682,AS,exp,33,↓,down,↓,0.8062039000215009,True,21,1,0,3
Y2-S2-265K19,8,683,AS,exp,42,↑,up,↑,0.8303497999440879,True,20,1,0,3
Y2-S2-265K19,8,684,AS,exp,50,←,left,←,0.7204648000188172,True,20,1,0,3
Y2-S2-265K19,8,685,AS,exp,29,↓,down,↓,0.8635562000563368,True,20,1,0,3
Y2-S2-265K19,8,686,AS,exp,25,↑,up,↑,0.523990900022909,True,19,1,0,3
Y2-S2-265K19,8,687,AS,exp,49,↓,down,↓,0.8937602000078186,True,19,1,0,3
Y2-S2-265K19,8,688,AS,exp,47,←,left,←,0.6413189000450075,True,19,1,0,3
Y2-S2-265K19,8,689,AS,exp,30,→,right,→,0.9997092999983579,True,18,1,0,3
Y2-S2-265K19,8,690,AS,exp,49,←,left,←,0.6142616999568418,True,18,1,0,3
Y2-S2-265K19,8,691,AS,exp,45,↓,down,↓,1.0010623999405652,True,18,1,0,3
Y2-S2-265K19,8,692,AS,exp,31,←,right,→,1.0763657999923453,False,17,-1,1,4
Y2-S2-265K19,8,693,AS,exp,37,→,left,←,0.8476299999747425,False,18,-1,0,4
Y2-S2-265K19,8,694,AS,exp,34,↑,up,↑,0.7239314999897033,True,19,-1,0,4
Y2-S2-265K19,8,695,AS,exp,30,←,left,←,0.6978341999929398,True,19,-1,0,4
Y2-S2-265K19,8,696,AS,exp,29,↑,right,→,0.7359023001044989,False,19,-1,0,4
Y2-S2-265K19,8,697,AS,exp,41,↓,down,↓,0.9195135999470949,True,20,-1,0,4
Y2-S2-265K19,8,698,AS,exp,43,←,left,←,0.7553570999298245,True,20,-1,0,4
Y2-S2-265K19,8,699,AS,exp,25,↓,left,←,0.7307705000275746,False,20,-1,0,4
Y2-S2-265K19,8,700,AS,exp,27,↑,up,↑,1.101869799895212,True,21,-1,0,4
Y2-S2-265K19,8,701,AS,exp,25,→,right,→,0.7932424999307841,True,21,-1,0,4
Y2-S2-265K19,8,702,AS,exp,45,←,left,←,0.4841297999955714,True,21,1,1,5
Y2-S2-265K19,8,703,AS,exp,39,↓,down,↓,1.069096300052479,True,20,1,0,5
Y2-S2-265K19,8,704,AS,exp,45,↑,up,↑,1.0600914999376982,True,20,1,0,5
Y2-S2-265K19,8,705,AS,exp,29,↓,down,↓,0.9575648000463843,True,20,1,0,5
Y2-S2-265K19,8,706,AS,exp,27,→,right,→,0.9593978999182582,True,19,1,0,5
Y2-S2-265K19,8,707,AS,exp,28,↑,no_key,no_letter,-1.0,False,19,-1,1,6
Y2-S2-265K19,8,708,AS,exp,33,↓,down,↓,0.9605979999760166,True,20,-1,0,6
Y2-S2-265K19,8,709,AS,exp,34,←,no_key,no_letter,-1.0,False,20,-1,0,6
Y2-S2-265K19,8,710,AS,exp,47,→,right,→,0.5558335999958217,True,21,-1,0,6
Y2-S2-265K19,8,711,AS,exp,34,↓,down,↓,0.910902600036934,True,21,-1,0,6
Y2-S2-265K19,8,712,AS,exp,30,↑,right,→,0.8447474999120459,False,21,-1,0,6
Y2-S2-265K19,8,713,AS,exp,28,↓,right,→,0.8928964999504387,False,22,-1,0,6
Y2-S2-265K19,8,714,AS,exp,28,→,no_key,no_letter,-1.0,False,23,-1,0,6
Y2-S2-265K19,8,715,AS,exp,32,↑,no_key,no_letter,-1.0,False,24,-1,0,6
Y2-S2-265K19,8,716,AS,exp,33,←,left,←,0.7337299000937492,True,25,-1,0,6
Y2-S2-265K19,8,717,AS,exp,47,↓,down,↓,0.7227695001056418,True,25,-1,0,6
Y2-S2-265K19,8,718,AS,exp,36,→,right,→,0.9056181999621913,True,25,1,1,7
Y2-S2-265K19,8,719,AS,exp,37,←,left,←,0.5004495999310166,True,24,1,0,7
Y2-S2-265K19,8,720,AS,exp,38,→,right,→,0.6605286999838427,True,24,1,0,7
Y2-S2-265K19,8,721,AS,exp,25,↑,no_key,no_letter,-1.0,False,24,-1,1,8
Y2-S2-265K19,8,722,AS,exp,34,←,left,←,0.5507802000502124,True,25,-1,0,8
Y2-S2-265K19,8,723,AS,exp,31,↓,down,↓,0.7427939999615774,True,25,-1,0,8
Y2-S2-265K19,8,724,AS,exp,38,↑,up,↑,0.8672295999713242,True,25,1,1,9
Y2-S2-265K19,8,725,AS,exp,35,←,left,←,0.6264374000020325,True,24,1,0,9
Y2-S2-265K19,8,726,AS,exp,38,↓,down,↓,0.7227546999929473,True,24,1,0,9
Y2-S2-265K19,8,727,AS,exp,45,→,right,→,0.6488448999589309,True,24,1,0,9
Y2-S2-265K19,8,728,AS,exp,34,↓,down,↓,0.7142040999606252,True,23,1,0,9
Y2-S2-265K19,8,729,AS,exp,47,→,right,→,0.4672898999415338,True,23,1,0,9
Y2-S2-265K19,8,730,AS,exp,46,↓,down,↓,0.8022945000557229,True,23,1,0,9
Y2-S2-265K19,8,731,AS,exp,32,↑,up,↑,0.6705134999938309,True,22,1,0,9
Y2-S2-265K19,8,732,AS,exp,49,←,left,←,0.41736379999201745,True,22,1,0,9
Y2-S2-265K19,8,733,AS,exp,30,↓,down,↓,0.6642554000718519,True,22,1,0,9
Y2-S2-265K19,8,734,AS,exp,33,→,right,→,0.6043490000301972,True,21,1,0,9
Y2-S2-265K19,8,735,AS,exp,50,←,left,←,0.6744273999938741,True,21,1,0,9
Y2-S2-265K19,8,736,AS,exp,33,↓,down,↓,0.8035812999587506,True,21,1,0,9
Y2-S2-265K19,8,737,AS,exp,32,↑,up,↑,0.7106482000090182,True,20,1,0,9
Y2-S2-265K19,8,738,AS,exp,35,→,right,→,0.7545391999883577,True,20,1,0,9
Y2-S2-265K19,8,739,AS,exp,31,↓,down,↓,0.5536675000330433,True,20,1,0,9
Y2-S2-265K19,8,740,AS,exp,26,→,right,→,0.4894077000208199,True,19,1,0,9
Y2-S2-265K19,8,741,AS,exp,31,←,left,←,0.7150238000322133,True,19,1,0,9
Y2-S2-265K19,8,742,AS,exp,44,↓,down,↓,0.9127999999327585,True,19,1,0,9
Y2-S2-265K19,8,743,AS,exp,40,↑,up,↑,0.4823066999670118,True,18,1,0,9
Y2-S2-265K19,8,744,AS,exp,41,←,left,←,0.4340679000597447,True,18,1,0,9
Y2-S2-265K19,8,745,AS,exp,41,↑,up,↑,0.8999217000091448,True,18,1,0,9
Y2-S2-265K19,8,746,AS,exp,29,←,left,←,0.4179365000454709,True,17,1,0,9
Y2-S2-265K19,8,747,AS,exp,47,↓,down,↓,0.8336530999513343,True,17,1,0,9
Y2-S2-265K19,8,748,AS,exp,38,→,left,←,0.6179241000209004,False,17,-1,1,10
Y2-S2-265K19,8,749,AS,exp,37,↓,down,↓,0.8232377000385895,True,18,-1,0,10
Y2-S2-265K19,8,750,AS,exp,34,↑,right,→,0.956231200019829,False,18,-1,0,10
Y2-S2-265K19,8,751,AS,exp,39,→,right,→,0.6959266999037936,True,19,-1,0,10
Y2-S2-265K19,8,752,AS,exp,34,←,left,←,0.4006491999607533,True,19,-1,0,10
Y2-S2-265K19,8,753,AS,exp,25,↑,left,←,0.6277964001055807,False,19,-1,0,10
Y2-S2-265K19,8,754,AS,exp,36,→,no_key,no_letter,-1.0,False,20,-1,0,10
Y2-S2-265K19,8,755,AS,exp,27,↑,up,↑,0.5440807999111712,True,21,-1,0,10
Y2-S2-265K19,8,756,AS,exp,44,↓,down,↓,0.5946759999496862,True,21,-1,0,10
Y2-S2-265K19,8,757,AS,exp,28,←,left,←,0.7953038000268862,True,21,1,1,11
Y2-S2-265K19,8,758,AS,exp,32,↑,up,↑,0.6739448999287561,True,20,1,0,11
Y2-S2-265K19,8,759,AS,exp,42,→,right,→,0.4006932999473065,True,20,1,0,11
Y2-S2-265K19,8,760,AS,exp,41,←,right,→,0.5658652000129223,False,20,-1,1,12
Y2-S2-265K19,8,761,AS,exp,38,↓,down,↓,0.8241131000686437,True,21,-1,0,12
Y2-S2-265K19,8,762,AS,exp,47,←,left,←,0.659198599983938,True,21,-1,0,12
Y2-S2-265K19,8,763,AS,exp,28,↑,up,↑,0.7549183999653906,True,21,1,1,13
Y2-S2-265K19,8,764,AS,exp,34,←,left,←,0.6321378999855369,True,20,1,0,13
Y2-S2-265K19,8,765,AS,exp,36,↓,down,↓,0.7826839999761432,True,20,1,0,13
Y2-S2-265K19,8,766,AS,exp,28,↑,no_key,no_letter,-1.0,False,20,-1,1,14
Y2-S2-265K19,8,767,AS,exp,33,←,left,←,0.9316600000020117,True,21,-1,0,14
Y2-S2-265K19,8,768,AS,exp,31,↑,up,↑,0.6534497999818996,True,21,-1,0,14
Y2-S2-265K19,8,769,AS,exp,33,→,right,→,0.4338973000412807,True,21,1,1,15
Y2-S2-265K19,8,770,AS,exp,25,↑,up,↑,0.6074464999837801,True,20,1,0,15
Y2-S2-265K19,8,771,AS,exp,25,←,left,←,0.41712210001423955,True,20,1,0,15
Y2-S2-265K19,8,772,AS,exp,42,→,right,→,0.5338529000291601,True,20,1,0,15
Y2-S2-265K19,8,773,AS,exp,34,↓,right,→,1.2186517999507487,False,19,-1,1,16
