PART_ID,Block_no,Trial_no,Block_type,Trial_type,CSI,Stim_letter,Key_pressed,letter_choose,Rt,Corr,Stimulus Time,Level,Reversal,Revs_count
Y2-S2-133K20,1,1,PS,train,29,←,left,←,1.7607395999948494,True,30,-,-,-
Y2-S2-133K20,1,2,PS,train,40,→,right,→,1.3614043000270613,True,30,-,-,-
Y2-S2-133K20,1,3,PS,train,26,↓,down,↓,0.7300318999914452,True,30,-,-,-
Y2-S2-133K20,1,4,PS,train,44,↑,up,↑,0.5338006999809295,True,30,-,-,-
Y2-S2-133K20,1,5,PS,train,28,←,left,←,0.5844258000142872,True,30,-,-,-
Y2-S2-133K20,1,6,PS,train,36,↑,up,↑,0.6007658999878913,True,30,-,-,-
Y2-S2-133K20,1,7,PS,train,41,↓,up,↑,0.617534099961631,False,30,-,-,-
Y2-S2-133K20,1,8,PS,train,40,←,left,←,0.7417294000042602,True,30,-,-,-
Y2-S2-133K20,1,9,PS,train,33,→,right,→,0.5504733000416309,True,30,-,-,-
Y2-S2-133K20,1,10,PS,train,35,←,left,←,0.6006107999710366,True,30,-,-,-
Y2-S2-133K20,2,11,AS,train,35,→,right,→,0.7338117999606766,True,45,-,-,-
Y2-S2-133K20,2,12,AS,train,50,↓,down,↓,0.6339787000324577,True,45,-,-,-
Y2-S2-133K20,2,13,AS,train,49,↑,up,↑,0.7512526000500657,True,45,-,-,-
Y2-S2-133K20,2,14,AS,train,47,↓,down,↓,0.7507284000166692,True,45,-,-,-
Y2-S2-133K20,2,15,AS,train,34,↑,up,↑,0.5673963000299409,True,45,-,-,-
Y2-S2-133K20,2,16,AS,train,39,→,right,→,0.7673303000046872,True,45,-,-,-
Y2-S2-133K20,2,17,AS,train,39,↑,up,↑,0.9649946999852546,True,45,-,-,-
Y2-S2-133K20,2,18,AS,train,42,→,right,→,0.7175571999978274,True,45,-,-,-
Y2-S2-133K20,2,19,AS,train,31,↓,down,↓,1.089833499980159,True,45,-,-,-
Y2-S2-133K20,2,20,AS,train,29,↑,up,↑,0.5510909000295214,True,45,-,-,-
Y2-S2-133K20,-,21,PS,adaptive,27,↓,down,↓,0.8487508000107482,True,10,0,0,0
Y2-S2-133K20,-,22,PS,adaptive,25,←,left,←,0.47469449997879565,True,10,0,0,0
Y2-S2-133K20,-,23,PS,adaptive,39,↑,up,↑,0.5801967000006698,True,10,1,0,0
Y2-S2-133K20,-,24,PS,adaptive,41,↓,down,↓,0.844930800027214,True,9,1,0,0
Y2-S2-133K20,-,25,PS,adaptive,50,→,right,→,0.5604286000016145,True,9,1,0,0
Y2-S2-133K20,-,26,PS,adaptive,28,↑,left,←,1.2264700999949127,False,9,-1,1,1
Y2-S2-133K20,-,27,PS,adaptive,46,←,up,↑,0.8657975000096485,False,10,-1,0,1
Y2-S2-133K20,-,28,PS,adaptive,33,↑,up,↑,0.5492876000353135,True,11,-1,0,1
Y2-S2-133K20,-,29,PS,adaptive,46,→,left,←,0.9040303999790922,False,11,-1,0,1
Y2-S2-133K20,-,30,PS,adaptive,43,↑,up,↑,0.49197920004371554,True,12,-1,0,1
Y2-S2-133K20,-,31,PS,adaptive,39,→,right,→,0.550408500013873,True,12,-1,0,1
Y2-S2-133K20,-,32,PS,adaptive,46,↑,up,↑,0.6696555000380613,True,12,1,1,2
Y2-S2-133K20,-,33,PS,adaptive,39,↓,left,←,0.753632900014054,False,11,-1,1,3
Y2-S2-133K20,-,34,PS,adaptive,41,↑,left,←,0.7585789999575354,False,12,-1,0,3
Y2-S2-133K20,-,35,PS,adaptive,50,←,left,←,0.7395058000111021,True,13,-1,0,3
Y2-S2-133K20,-,36,PS,adaptive,25,↑,up,↑,0.5134344000252895,True,13,-1,0,3
Y2-S2-133K20,-,37,PS,adaptive,37,↓,down,↓,0.7525803999742493,True,13,1,1,4
Y2-S2-133K20,-,38,AS,adaptive,43,←,right,→,0.6835605999804102,False,20,-1,0,0
Y2-S2-133K20,-,39,AS,adaptive,49,→,left,←,1.0190337999956682,False,21,-1,0,0
Y2-S2-133K20,-,40,AS,adaptive,33,↑,up,↑,0.6737616999889724,True,22,-1,0,0
Y2-S2-133K20,-,41,AS,adaptive,48,←,left,←,0.716417099989485,True,22,-1,0,0
Y2-S2-133K20,-,42,AS,adaptive,49,→,right,→,0.6765149999991991,True,22,1,1,1
Y2-S2-133K20,-,43,AS,adaptive,50,↑,up,↑,0.6789887999766506,True,21,1,0,1
Y2-S2-133K20,-,44,AS,adaptive,33,←,left,←,0.6476436999510042,True,21,1,0,1
Y2-S2-133K20,-,45,AS,adaptive,30,→,right,→,0.6449223000090569,True,21,1,0,1
Y2-S2-133K20,-,46,AS,adaptive,38,↓,down,↓,0.6727341000223532,True,20,1,0,1
Y2-S2-133K20,-,47,AS,adaptive,49,↑,up,↑,0.5294857999542728,True,20,1,0,1
Y2-S2-133K20,-,48,AS,adaptive,34,→,right,→,0.4335521000321023,True,20,1,0,1
Y2-S2-133K20,-,49,AS,adaptive,36,←,up,↑,0.9027682999731041,False,19,-1,1,2
Y2-S2-133K20,-,50,AS,adaptive,30,↓,down,↓,1.5150063000037335,True,20,-1,0,2
Y2-S2-133K20,-,51,AS,adaptive,27,←,left,←,0.7444179999874905,True,20,-1,0,2
Y2-S2-133K20,-,52,AS,adaptive,43,→,right,→,0.5491277999826707,True,20,1,1,3
Y2-S2-133K20,-,53,AS,adaptive,38,←,left,←,0.6582623000140302,True,19,1,0,3
Y2-S2-133K20,-,54,AS,adaptive,26,↑,up,↑,0.6734244000399485,True,19,1,0,3
Y2-S2-133K20,-,55,AS,adaptive,43,←,right,→,0.7581103999982588,False,19,-1,1,4
Y2-S2-133K20,1,56,AS,intra_train,39,↓,down,↓,0.6741523999953642,True,30,-,-,-
Y2-S2-133K20,1,57,AS,intra_train,35,↑,up,↑,0.6179095999686979,True,30,-,-,-
Y2-S2-133K20,1,58,AS,intra_train,31,→,right,→,0.7332470999681391,True,30,-,-,-
Y2-S2-133K20,1,59,AS,intra_train,35,↑,up,↑,0.5843369000358507,True,30,-,-,-
Y2-S2-133K20,1,60,AS,intra_train,29,←,left,←,0.8019721999880858,True,30,-,-,-
Y2-S2-133K20,1,61,AS,exp,47,↑,up,↑,0.4675948999938555,True,20,0,0,0
Y2-S2-133K20,1,62,AS,exp,42,→,right,→,0.732018600043375,True,20,0,0,0
Y2-S2-133K20,1,63,AS,exp,27,↓,down,↓,0.46730710001429543,True,20,1,0,0
Y2-S2-133K20,1,64,AS,exp,36,→,right,→,0.6703016000101343,True,19,1,0,0
Y2-S2-133K20,1,65,AS,exp,47,←,left,←,0.7517961999983527,True,19,1,0,0
Y2-S2-133K20,1,66,AS,exp,40,↑,up,↑,1.3245649000164121,True,19,1,0,0
Y2-S2-133K20,1,67,AS,exp,41,→,right,→,0.5476762999896891,True,18,1,0,0
Y2-S2-133K20,1,68,AS,exp,36,↓,down,↓,0.8681932999752462,True,18,1,0,0
Y2-S2-133K20,1,69,AS,exp,28,→,right,→,0.6048548000399023,True,18,1,0,0
Y2-S2-133K20,1,70,AS,exp,44,↓,down,↓,0.6811937000020407,True,17,1,0,0
Y2-S2-133K20,1,71,AS,exp,40,←,right,→,0.6551603000261821,False,17,-1,1,1
Y2-S2-133K20,1,72,AS,exp,41,↑,up,↑,0.6410797999706119,True,18,-1,0,1
Y2-S2-133K20,1,73,AS,exp,26,↓,down,↓,0.789976000029128,True,18,-1,0,1
Y2-S2-133K20,1,74,AS,exp,30,→,down,↓,0.7674893999937922,False,18,-1,0,1
Y2-S2-133K20,1,75,AS,exp,30,↓,down,↓,0.7158709000214003,True,19,-1,0,1
Y2-S2-133K20,1,76,AS,exp,42,↑,no_key,no_letter,-1.0,False,19,-1,0,1
Y2-S2-133K20,1,77,AS,exp,41,↓,down,↓,0.7877993000438437,True,20,-1,0,1
Y2-S2-133K20,1,78,AS,exp,49,↑,up,↑,0.6639699999941513,True,20,-1,0,1
Y2-S2-133K20,1,79,AS,exp,34,←,left,←,0.6519321999512613,True,20,1,1,2
Y2-S2-133K20,1,80,AS,exp,47,↓,right,→,0.7241246000048704,False,19,-1,1,3
Y2-S2-133K20,1,81,AS,exp,29,→,right,→,0.7252785000018775,True,20,-1,0,3
Y2-S2-133K20,1,82,AS,exp,34,↑,up,↑,0.7594341000076383,True,20,-1,0,3
Y2-S2-133K20,1,83,AS,exp,41,←,left,←,0.6944365000235848,True,20,1,1,4
Y2-S2-133K20,1,84,AS,exp,35,↓,down,↓,0.7130028000101447,True,19,1,0,4
Y2-S2-133K20,1,85,AS,exp,36,←,left,←,0.869098600000143,True,19,1,0,4
Y2-S2-133K20,1,86,AS,exp,35,→,right,→,0.7505724999937229,True,19,1,0,4
Y2-S2-133K20,1,87,AS,exp,49,↑,up,↑,0.5513181000133045,True,18,1,0,4
Y2-S2-133K20,1,88,AS,exp,45,→,up,↑,0.819901300012134,False,18,-1,1,5
Y2-S2-133K20,1,89,AS,exp,47,↓,down,↓,1.059547700046096,True,19,-1,0,5
Y2-S2-133K20,1,90,AS,exp,29,→,left,←,0.95423660002416,False,19,-1,0,5
Y2-S2-133K20,1,91,AS,exp,36,↑,no_key,no_letter,-1.0,False,20,-1,0,5
Y2-S2-133K20,1,92,AS,exp,48,←,left,←,0.5448485999950208,True,21,-1,0,5
Y2-S2-133K20,1,93,AS,exp,50,→,right,→,0.4507617999915965,True,21,-1,0,5
Y2-S2-133K20,1,94,AS,exp,30,←,left,←,0.647795099997893,True,21,1,1,6
Y2-S2-133K20,1,95,AS,exp,41,→,left,←,0.7506171999848448,False,20,-1,1,7
Y2-S2-133K20,1,96,AS,exp,47,↑,up,↑,0.7728338000015356,True,21,-1,0,7
Y2-S2-133K20,1,97,AS,exp,41,→,right,→,0.8076444000471383,True,21,-1,0,7
Y2-S2-133K20,1,98,AS,exp,45,↓,down,↓,0.6114502000273205,True,21,1,1,8
Y2-S2-133K20,1,99,AS,exp,30,→,right,→,0.8028305000043474,True,20,1,0,8
Y2-S2-133K20,1,100,AS,exp,43,←,left,←,1.2440538000082597,True,20,1,0,8
Y2-S2-133K20,1,101,AS,exp,30,↑,up,↑,0.8877932999748737,True,20,1,0,8
Y2-S2-133K20,1,102,AS,exp,29,←,left,←,0.6853286999976262,True,19,1,0,8
Y2-S2-133K20,1,103,AS,exp,28,↑,up,↑,0.792003900045529,True,19,1,0,8
Y2-S2-133K20,1,104,AS,exp,38,→,up,↑,0.6261771999998018,False,19,-1,1,9
Y2-S2-133K20,1,105,AS,exp,33,←,right,→,0.9588279000017792,False,20,-1,0,9
Y2-S2-133K20,1,106,AS,exp,25,↓,right,→,0.5688210999942385,False,21,-1,0,9
Y2-S2-133K20,1,107,AS,exp,40,→,left,←,1.067092599987518,False,22,-1,0,9
Y2-S2-133K20,1,108,AS,exp,34,↑,up,↑,1.587170500017237,True,23,-1,0,9
Y2-S2-133K20,1,109,AS,exp,26,←,left,←,0.628234000003431,True,23,-1,0,9
Y2-S2-133K20,1,110,AS,exp,47,↑,up,↑,0.8252228999626823,True,23,1,1,10
Y2-S2-133K20,1,111,AS,exp,48,↓,down,↓,0.9708776000188664,True,22,1,0,10
Y2-S2-133K20,1,112,AS,exp,50,→,right,→,1.1500279000028968,True,22,1,0,10
Y2-S2-133K20,1,113,AS,exp,48,↑,up,↑,0.7967967999866232,True,22,1,0,10
Y2-S2-133K20,1,114,AS,exp,37,→,right,→,0.7221852999646217,True,21,1,0,10
Y2-S2-133K20,1,115,AS,exp,45,↑,left,←,1.115668500016909,False,21,-1,1,11
Y2-S2-133K20,1,116,AS,exp,39,←,left,←,0.5896238000132143,True,22,-1,0,11
Y2-S2-133K20,1,117,AS,exp,31,→,right,→,0.5576491000247188,True,22,-1,0,11
Y2-S2-133K20,1,118,AS,exp,31,↓,down,↓,0.7242421000264585,True,22,1,1,12
Y2-S2-133K20,1,119,AS,exp,25,↑,up,↑,0.8031246000318788,True,21,1,0,12
Y2-S2-133K20,1,120,AS,exp,39,↓,down,↓,0.7379792000283487,True,21,1,0,12
Y2-S2-133K20,1,121,AS,exp,36,↑,up,↑,0.6946445999783464,True,21,1,0,12
Y2-S2-133K20,1,122,AS,exp,38,→,right,→,0.6145775999757461,True,20,1,0,12
Y2-S2-133K20,1,123,AS,exp,40,↑,left,←,1.0931644000229426,False,20,-1,1,13
Y2-S2-133K20,1,124,AS,exp,48,↓,up,↑,0.9042293999809772,False,21,-1,0,13
Y2-S2-133K20,1,125,AS,exp,33,←,left,←,0.5786130000487901,True,22,-1,0,13
Y2-S2-133K20,1,126,AS,exp,40,↓,down,↓,0.7547589999740012,True,22,-1,0,13
Y2-S2-133K20,1,127,AS,exp,43,←,left,←,1.5680322999833152,True,22,1,1,14
Y2-S2-133K20,1,128,AS,exp,32,↑,up,↑,0.8030860000289977,True,21,1,0,14
Y2-S2-133K20,1,129,AS,exp,46,←,no_key,no_letter,-1.0,False,21,-1,1,15
Y2-S2-133K20,1,130,AS,exp,48,↑,up,↑,0.6680057999910787,True,22,-1,0,15
Y2-S2-133K20,1,131,AS,exp,50,↓,down,↓,0.8332309999968857,True,22,-1,0,15
Y2-S2-133K20,1,132,AS,exp,45,↑,up,↑,0.669198099989444,True,22,1,1,16
Y2-S2-133K20,2,133,PS,intra_train,49,↓,down,↓,0.5259493000339717,True,18,-,-,-
Y2-S2-133K20,2,134,PS,intra_train,47,↑,up,↑,0.4005596999777481,True,18,-,-,-
Y2-S2-133K20,2,135,PS,intra_train,31,→,down,↓,1.0974403999862261,False,18,-,-,-
Y2-S2-133K20,2,136,PS,intra_train,26,↑,up,↑,1.0814947999897413,True,18,-,-,-
Y2-S2-133K20,2,137,PS,intra_train,28,←,left,←,0.6178701000171714,True,18,-,-,-
Y2-S2-133K20,2,138,PS,exp,39,↓,down,↓,0.5213135000085458,True,12,0,0,0
Y2-S2-133K20,2,139,PS,exp,25,↑,left,←,1.0461673999670893,False,12,-1,0,0
Y2-S2-133K20,2,140,PS,exp,49,←,left,←,0.6747197999502532,True,13,-1,0,0
Y2-S2-133K20,2,141,PS,exp,34,↑,up,↑,0.568700700008776,True,13,-1,0,0
Y2-S2-133K20,2,142,PS,exp,36,↓,down,↓,1.0255229999893345,True,13,1,1,1
Y2-S2-133K20,2,143,PS,exp,28,→,right,→,0.6486536000156775,True,12,1,0,1
Y2-S2-133K20,2,144,PS,exp,37,↓,down,↓,0.5821840999997221,True,12,1,0,1
Y2-S2-133K20,2,145,PS,exp,38,←,left,←,0.546391699986998,True,12,1,0,1
Y2-S2-133K20,2,146,PS,exp,42,↑,up,↑,0.4857855000300333,True,11,1,0,1
Y2-S2-133K20,2,147,PS,exp,27,↓,right,→,0.6339945000363514,False,11,-1,1,2
Y2-S2-133K20,2,148,PS,exp,36,↑,up,↑,0.6046956999925897,True,12,-1,0,2
Y2-S2-133K20,2,149,PS,exp,26,←,left,←,0.5745852999971248,True,12,-1,0,2
Y2-S2-133K20,2,150,PS,exp,38,↑,up,↑,0.5977583000203595,True,12,1,1,3
Y2-S2-133K20,2,151,PS,exp,44,↓,down,↓,0.5060968000325374,True,11,1,0,3
Y2-S2-133K20,2,152,PS,exp,47,↑,up,↑,0.5464029000140727,True,11,1,0,3
Y2-S2-133K20,2,153,PS,exp,41,↓,down,↓,0.3982747999834828,True,11,1,0,3
Y2-S2-133K20,2,154,PS,exp,48,↑,down,↓,0.585261799977161,False,10,-1,1,4
Y2-S2-133K20,2,155,PS,exp,43,↓,up,↑,0.7425923999981023,False,11,-1,0,4
Y2-S2-133K20,2,156,PS,exp,27,↑,right,→,0.9687236999743618,False,12,-1,0,4
Y2-S2-133K20,2,157,PS,exp,29,←,left,←,1.1424178999732248,True,13,-1,0,4
Y2-S2-133K20,2,158,PS,exp,43,→,left,←,0.8722552999970503,False,13,-1,0,4
Y2-S2-133K20,2,159,PS,exp,43,↑,up,↑,0.5054003999684937,True,14,-1,0,4
Y2-S2-133K20,2,160,PS,exp,47,←,left,←,0.5678456000168808,True,14,-1,0,4
Y2-S2-133K20,2,161,PS,exp,26,↑,down,↓,0.7500948999659158,False,14,-1,0,4
Y2-S2-133K20,2,162,PS,exp,37,↓,up,↑,0.6748828000272624,False,15,-1,0,4
Y2-S2-133K20,2,163,PS,exp,25,→,right,→,0.9596593999885954,True,16,-1,0,4
Y2-S2-133K20,2,164,PS,exp,44,←,left,←,0.8770394999883138,True,16,-1,0,4
Y2-S2-133K20,2,165,PS,exp,43,↑,left,←,0.7310567999957129,False,16,-1,0,4
Y2-S2-133K20,2,166,PS,exp,30,↓,right,→,0.7111223999527283,False,17,-1,0,4
Y2-S2-133K20,2,167,PS,exp,39,←,left,←,0.4829326000181027,True,18,-1,0,4
Y2-S2-133K20,2,168,PS,exp,32,↑,up,↑,0.7182841999456286,True,18,-1,0,4
Y2-S2-133K20,2,169,PS,exp,32,←,right,→,0.7978696000063792,False,18,-1,0,4
Y2-S2-133K20,2,170,PS,exp,49,↓,down,↓,0.6430095999967307,True,19,-1,0,4
Y2-S2-133K20,2,171,PS,exp,48,↑,up,↑,0.6380682999733835,True,19,-1,0,4
Y2-S2-133K20,2,172,PS,exp,42,←,left,←,0.6464006000314839,True,19,1,1,5
Y2-S2-133K20,2,173,PS,exp,27,→,right,→,0.49128489999566227,True,18,1,0,5
Y2-S2-133K20,2,174,PS,exp,30,↑,up,↑,0.5573175000026822,True,18,1,0,5
Y2-S2-133K20,2,175,PS,exp,35,←,left,←,0.5119039000128396,True,18,1,0,5
Y2-S2-133K20,2,176,PS,exp,27,↓,down,↓,0.997920099995099,True,17,1,0,5
Y2-S2-133K20,2,177,PS,exp,36,←,left,←,0.6311422999715433,True,17,1,0,5
Y2-S2-133K20,2,178,PS,exp,49,→,right,→,0.5042935000383295,True,17,1,0,5
Y2-S2-133K20,2,179,PS,exp,30,↑,up,↑,0.5863177999854088,True,16,1,0,5
Y2-S2-133K20,2,180,PS,exp,27,←,left,←,0.5717285999562591,True,16,1,0,5
Y2-S2-133K20,2,181,PS,exp,34,→,right,→,0.4945511000114493,True,16,1,0,5
Y2-S2-133K20,2,182,PS,exp,48,↑,up,↑,0.6666897000395693,True,15,1,0,5
Y2-S2-133K20,2,183,PS,exp,49,↓,down,↓,0.46909269999014214,True,15,1,0,5
Y2-S2-133K20,2,184,PS,exp,43,←,left,←,0.834219700016547,True,15,1,0,5
Y2-S2-133K20,2,185,PS,exp,40,↓,down,↓,0.5602447999990545,True,14,1,0,5
Y2-S2-133K20,2,186,PS,exp,35,→,right,→,0.534334099967964,True,14,1,0,5
Y2-S2-133K20,2,187,PS,exp,37,↓,down,↓,0.6660127000068314,True,14,1,0,5
Y2-S2-133K20,2,188,PS,exp,46,→,right,→,0.5209916000021622,True,13,1,0,5
Y2-S2-133K20,2,189,PS,exp,32,←,left,←,0.7459405999979936,True,13,1,0,5
Y2-S2-133K20,2,190,PS,exp,40,↓,up,↑,0.5458934999769554,False,13,-1,1,6
Y2-S2-133K20,2,191,PS,exp,31,←,left,←,0.6974540000082925,True,14,-1,0,6
Y2-S2-133K20,2,192,PS,exp,42,→,right,→,0.44618630001787096,True,14,-1,0,6
Y2-S2-133K20,2,193,PS,exp,26,↓,down,↓,0.8184763000463136,True,14,1,1,7
Y2-S2-133K20,2,194,PS,exp,43,↑,up,↑,0.4874775999924168,True,13,1,0,7
Y2-S2-133K20,2,195,PS,exp,27,←,left,←,0.8157447999692522,True,13,1,0,7
Y2-S2-133K20,2,196,PS,exp,38,↓,down,↓,0.7232824999955483,True,13,1,0,7
Y2-S2-133K20,2,197,PS,exp,44,←,down,↓,0.7267177000176162,False,12,-1,1,8
Y2-S2-133K20,2,198,PS,exp,27,↓,down,↓,0.7787719999905676,True,13,-1,0,8
Y2-S2-133K20,2,199,PS,exp,28,←,down,↓,0.8374760000151582,False,13,-1,0,8
Y2-S2-133K20,2,200,PS,exp,25,↑,up,↑,0.6017303999979049,True,14,-1,0,8
Y2-S2-133K20,2,201,PS,exp,37,←,left,←,0.6050925999879837,True,14,-1,0,8
Y2-S2-133K20,2,202,PS,exp,42,→,right,→,0.5467560000251979,True,14,1,1,9
Y2-S2-133K20,2,203,PS,exp,43,↑,up,↑,0.5288704999838956,True,13,1,0,9
Y2-S2-133K20,2,204,PS,exp,34,←,left,←,0.43095539999194443,True,13,1,0,9
Y2-S2-133K20,2,205,PS,exp,40,↑,up,↑,0.5533563999924809,True,13,1,0,9
Y2-S2-133K20,2,206,PS,exp,29,→,up,↑,0.6599298999644816,False,12,-1,1,10
Y2-S2-133K20,2,207,PS,exp,43,↑,up,↑,0.6694797999807633,True,13,-1,0,10
Y2-S2-133K20,2,208,PS,exp,34,↓,down,↓,0.6080141999991611,True,13,-1,0,10
Y2-S2-133K20,2,209,PS,exp,27,←,left,←,1.2315250999527052,True,13,1,1,11
Y2-S2-133K20,2,210,PS,exp,45,→,right,→,0.7567671000142582,True,12,1,0,11
Y2-S2-133K20,2,211,PS,exp,41,↓,down,↓,0.492885000014212,True,12,1,0,11
Y2-S2-133K20,2,212,PS,exp,50,→,right,→,0.601662100001704,True,12,1,0,11
Y2-S2-133K20,2,213,PS,exp,27,↑,right,→,0.8388316999771632,False,11,-1,1,12
Y2-S2-133K20,2,214,PS,exp,29,↓,left,←,0.7807627999573015,False,12,-1,0,12
Y2-S2-133K20,2,215,PS,exp,39,←,right,→,0.6334662999724969,False,13,-1,0,12
Y2-S2-133K20,2,216,PS,exp,45,↑,up,↑,0.4541748000192456,True,14,-1,0,12
Y2-S2-133K20,2,217,PS,exp,35,→,no_key,no_letter,-1.0,False,14,-1,0,12
Y2-S2-133K20,2,218,PS,exp,50,↑,up,↑,0.5267682000412606,True,15,-1,0,12
Y2-S2-133K20,2,219,PS,exp,26,↓,up,↑,0.8754975000047125,False,15,-1,0,12
Y2-S2-133K20,2,220,PS,exp,50,↑,up,↑,0.5257739999797195,True,16,-1,0,12
Y2-S2-133K20,2,221,PS,exp,45,↓,down,↓,0.4751410000026226,True,16,-1,0,12
Y2-S2-133K20,2,222,PS,exp,50,←,left,←,0.6915639999788254,True,16,1,1,13
Y2-S2-133K20,2,223,PS,exp,28,↑,up,↑,0.4589570999960415,True,15,1,0,13
Y2-S2-133K20,2,224,PS,exp,38,↓,down,↓,0.4910078999819234,True,15,1,0,13
Y2-S2-133K20,2,225,PS,exp,49,←,left,←,0.6185470999917015,True,15,1,0,13
Y2-S2-133K20,2,226,PS,exp,48,↑,up,↑,0.5461574000073597,True,14,1,0,13
Y2-S2-133K20,2,227,PS,exp,31,→,right,→,0.4533204000326805,True,14,1,0,13
Y2-S2-133K20,2,228,PS,exp,37,↓,down,↓,1.2687816999969073,True,14,1,0,13
Y2-S2-133K20,2,229,PS,exp,44,↑,up,↑,0.5199935000273399,True,13,1,0,13
Y2-S2-133K20,2,230,PS,exp,48,↓,down,↓,0.8411510000005364,True,13,1,0,13
Y2-S2-133K20,2,231,PS,exp,45,↑,up,↑,0.5173898999928497,True,13,1,0,13
Y2-S2-133K20,2,232,PS,exp,41,→,right,→,0.466904999979306,True,12,1,0,13
Y2-S2-133K20,2,233,PS,exp,37,↓,down,↓,0.6535759000107646,True,12,1,0,13
Y2-S2-133K20,2,234,PS,exp,40,↑,up,↑,0.5413424999569543,True,12,1,0,13
Y2-S2-133K20,2,235,PS,exp,38,←,left,←,0.5555596000049263,True,11,1,0,13
Y2-S2-133K20,2,236,PS,exp,45,↑,up,↑,0.5331064999918453,True,11,1,0,13
Y2-S2-133K20,2,237,PS,exp,50,↓,down,↓,0.4737370000220835,True,11,1,0,13
Y2-S2-133K20,2,238,PS,exp,28,←,left,←,0.5098038999713026,True,10,1,0,13
Y2-S2-133K20,2,239,PS,exp,50,↓,down,↓,0.652985599997919,True,10,1,0,13
Y2-S2-133K20,2,240,PS,exp,38,→,right,→,0.5390067999833263,True,10,1,0,13
Y2-S2-133K20,2,241,PS,exp,32,↓,up,↑,0.7425567000173032,False,9,-1,1,14
Y2-S2-133K20,2,242,PS,exp,32,↑,right,→,0.6622212000074796,False,10,-1,0,14
Y2-S2-133K20,2,243,PS,exp,33,→,left,←,0.8257359000272118,False,11,-1,0,14
Y2-S2-133K20,2,244,PS,exp,49,↑,up,↑,0.5623516000341624,True,12,-1,0,14
Y2-S2-133K20,2,245,PS,exp,40,→,right,→,0.5188961999956518,True,12,-1,0,14
Y2-S2-133K20,2,246,PS,exp,32,↓,down,↓,0.5504318000166677,True,12,1,1,15
Y2-S2-133K20,2,247,PS,exp,27,→,right,→,0.5104184999945574,True,11,1,0,15
Y2-S2-133K20,2,248,PS,exp,44,↑,left,←,0.5940553999971598,False,11,-1,1,16
Y2-S2-133K20,3,249,PS,intra_train,40,↓,down,↓,0.6765934000140987,True,18,-,-,-
Y2-S2-133K20,3,250,PS,intra_train,49,→,right,→,0.4782402000273578,True,18,-,-,-
Y2-S2-133K20,3,251,PS,intra_train,37,←,left,←,0.5349600000190549,True,18,-,-,-
Y2-S2-133K20,3,252,PS,intra_train,25,↑,up,↑,0.5592297000112012,True,18,-,-,-
Y2-S2-133K20,3,253,PS,intra_train,47,↓,left,←,0.7702537000295706,False,18,-,-,-
Y2-S2-133K20,3,254,PS,exp,45,↑,up,↑,0.5124974999926053,True,12,0,0,0
Y2-S2-133K20,3,255,PS,exp,40,←,left,←,0.4883720999932848,True,12,0,0,0
Y2-S2-133K20,3,256,PS,exp,25,→,right,→,0.457584899966605,True,12,1,0,0
Y2-S2-133K20,3,257,PS,exp,36,←,left,←,0.4098056999500841,True,11,1,0,0
Y2-S2-133K20,3,258,PS,exp,42,→,right,→,0.5340989000396803,True,11,1,0,0
Y2-S2-133K20,3,259,PS,exp,28,↑,left,←,0.7297733000013977,False,11,-1,1,1
Y2-S2-133K20,3,260,PS,exp,29,←,left,←,0.5679484999855049,True,12,-1,0,1
Y2-S2-133K20,3,261,PS,exp,47,→,right,→,0.6068504000431858,True,12,-1,0,1
Y2-S2-133K20,3,262,PS,exp,32,←,right,→,0.9201819999725558,False,12,-1,0,1
Y2-S2-133K20,3,263,PS,exp,30,→,right,→,0.44826049997936934,True,13,-1,0,1
Y2-S2-133K20,3,264,PS,exp,28,←,right,→,0.491648500028532,False,13,-1,0,1
Y2-S2-133K20,3,265,PS,exp,44,→,right,→,0.6027714000083506,True,14,-1,0,1
Y2-S2-133K20,3,266,PS,exp,30,↓,down,↓,0.7047775000100955,True,14,-1,0,1
Y2-S2-133K20,3,267,PS,exp,41,↑,up,↑,0.5232082000002265,True,14,1,1,2
Y2-S2-133K20,3,268,PS,exp,26,←,left,←,0.4959652000106871,True,13,1,0,2
Y2-S2-133K20,3,269,PS,exp,34,↓,down,↓,0.8556081000133418,True,13,1,0,2
Y2-S2-133K20,3,270,PS,exp,44,←,left,←,0.6312665999867022,True,13,1,0,2
Y2-S2-133K20,3,271,PS,exp,39,↑,up,↑,0.5037851000088267,True,12,1,0,2
Y2-S2-133K20,3,272,PS,exp,25,→,right,→,0.6167468000203371,True,12,1,0,2
Y2-S2-133K20,3,273,PS,exp,28,↑,up,↑,0.6596284999977797,True,12,1,0,2
Y2-S2-133K20,3,274,PS,exp,30,←,left,←,0.6179224000079557,True,11,1,0,2
Y2-S2-133K20,3,275,PS,exp,36,↑,up,↑,0.7177829000283964,True,11,1,0,2
Y2-S2-133K20,3,276,PS,exp,45,←,left,←,0.5502237000036985,True,11,1,0,2
Y2-S2-133K20,3,277,PS,exp,48,↓,left,←,0.711649699951522,False,10,-1,1,3
Y2-S2-133K20,3,278,PS,exp,38,↑,up,↑,0.5331671999883838,True,11,-1,0,3
Y2-S2-133K20,3,279,PS,exp,30,→,right,→,1.3088869999628514,True,11,-1,0,3
Y2-S2-133K20,3,280,PS,exp,48,↓,down,↓,1.3635059000225738,True,11,1,1,4
Y2-S2-133K20,3,281,PS,exp,33,←,right,→,0.9866433999850415,False,10,-1,1,5
Y2-S2-133K20,3,282,PS,exp,28,↓,left,←,0.9084203000529669,False,11,-1,0,5
Y2-S2-133K20,3,283,PS,exp,49,→,left,←,1.1122714999946766,False,12,-1,0,5
Y2-S2-133K20,3,284,PS,exp,41,↓,down,↓,0.6647522000130266,True,13,-1,0,5
Y2-S2-133K20,3,285,PS,exp,43,↑,up,↑,0.5665838000131771,True,13,-1,0,5
Y2-S2-133K20,3,286,PS,exp,30,←,left,←,0.511640399985481,True,13,1,1,6
Y2-S2-133K20,3,287,PS,exp,26,↓,down,↓,0.47256449999986216,True,12,1,0,6
Y2-S2-133K20,3,288,PS,exp,31,←,left,←,0.6086483999970369,True,12,1,0,6
Y2-S2-133K20,3,289,PS,exp,50,→,up,↑,0.796879000030458,False,12,-1,1,7
Y2-S2-133K20,3,290,PS,exp,44,↓,down,↓,0.7926650000154041,True,13,-1,0,7
Y2-S2-133K20,3,291,PS,exp,31,→,right,→,0.5858243000111543,True,13,-1,0,7
Y2-S2-133K20,3,292,PS,exp,50,↑,up,↑,0.5389138999744318,True,13,1,1,8
Y2-S2-133K20,3,293,PS,exp,39,←,left,←,0.63231309998082,True,12,1,0,8
Y2-S2-133K20,3,294,PS,exp,31,→,right,→,0.5015814000507817,True,12,1,0,8
Y2-S2-133K20,3,295,PS,exp,50,↓,down,↓,0.7489562000264414,True,12,1,0,8
Y2-S2-133K20,3,296,PS,exp,50,↑,right,→,0.9194898999994621,False,11,-1,1,9
Y2-S2-133K20,3,297,PS,exp,31,←,left,←,0.5229256000020541,True,12,-1,0,9
Y2-S2-133K20,3,298,PS,exp,49,↑,right,→,0.4071002000127919,False,12,-1,0,9
Y2-S2-133K20,3,299,PS,exp,31,→,right,→,0.45018520002486184,True,13,-1,0,9
Y2-S2-133K20,3,300,PS,exp,49,↑,up,↑,0.4023161000222899,True,13,-1,0,9
Y2-S2-133K20,3,301,PS,exp,32,→,left,←,0.7639163000276312,False,13,-1,0,9
Y2-S2-133K20,3,302,PS,exp,49,←,left,←,0.5137805000413209,True,14,-1,0,9
Y2-S2-133K20,3,303,PS,exp,37,→,right,→,0.559732099995017,True,14,-1,0,9
Y2-S2-133K20,3,304,PS,exp,45,↓,down,↓,0.6577885000151582,True,14,1,1,10
Y2-S2-133K20,3,305,PS,exp,48,→,right,→,0.6539992000325583,True,13,1,0,10
Y2-S2-133K20,3,306,PS,exp,47,←,left,←,0.4682100000209175,True,13,1,0,10
Y2-S2-133K20,3,307,PS,exp,25,→,right,→,0.4608216999913566,True,13,1,0,10
Y2-S2-133K20,3,308,PS,exp,48,←,left,←,0.45388180000009015,True,12,1,0,10
Y2-S2-133K20,3,309,PS,exp,47,↑,up,↑,0.37511850002920255,True,12,1,0,10
Y2-S2-133K20,3,310,PS,exp,35,→,right,→,0.4369418999995105,True,12,1,0,10
Y2-S2-133K20,3,311,PS,exp,41,↓,left,←,1.1541081999894232,False,11,-1,1,11
Y2-S2-133K20,3,312,PS,exp,48,↑,up,↑,0.6153007999528199,True,12,-1,0,11
Y2-S2-133K20,3,313,PS,exp,41,↓,down,↓,0.6644558000261895,True,12,-1,0,11
Y2-S2-133K20,3,314,PS,exp,43,↑,up,↑,0.44812780001666397,True,12,1,1,12
Y2-S2-133K20,3,315,PS,exp,48,↓,left,←,0.7084751999936998,False,11,-1,1,13
Y2-S2-133K20,3,316,PS,exp,33,↑,up,↑,0.59645620000083,True,12,-1,0,13
Y2-S2-133K20,3,317,PS,exp,40,↓,left,←,0.4853827999904752,False,12,-1,0,13
Y2-S2-133K20,3,318,PS,exp,41,↑,up,↑,0.7060860000201501,True,13,-1,0,13
Y2-S2-133K20,3,319,PS,exp,50,←,left,←,0.582599300018046,True,13,-1,0,13
Y2-S2-133K20,3,320,PS,exp,42,↑,up,↑,0.48702090000733733,True,13,1,1,14
Y2-S2-133K20,3,321,PS,exp,37,→,right,→,0.4285370000288822,True,12,1,0,14
Y2-S2-133K20,3,322,PS,exp,39,←,left,←,0.4904900999972597,True,12,1,0,14
Y2-S2-133K20,3,323,PS,exp,36,↑,up,↑,0.5215020999894477,True,12,1,0,14
Y2-S2-133K20,3,324,PS,exp,26,↓,down,↓,0.6188250999548472,True,11,1,0,14
Y2-S2-133K20,3,325,PS,exp,48,→,right,→,0.6634855000302196,True,11,1,0,14
Y2-S2-133K20,3,326,PS,exp,47,←,left,←,0.5009431000216864,True,11,1,0,14
Y2-S2-133K20,3,327,PS,exp,41,↑,up,↑,0.5281310999998823,True,10,1,0,14
Y2-S2-133K20,3,328,PS,exp,36,←,down,↓,0.6537232000264339,False,10,-1,1,15
Y2-S2-133K20,3,329,PS,exp,43,→,right,→,0.6661550999851897,True,11,-1,0,15
Y2-S2-133K20,3,330,PS,exp,40,↑,up,↑,0.6448851000168361,True,11,-1,0,15
Y2-S2-133K20,3,331,PS,exp,40,↓,left,←,0.7079368999693543,False,11,-1,0,15
Y2-S2-133K20,3,332,PS,exp,34,←,left,←,0.45322850003140047,True,12,-1,0,15
Y2-S2-133K20,3,333,PS,exp,48,↓,down,↓,0.6278612000169232,True,12,-1,0,15
Y2-S2-133K20,3,334,PS,exp,45,→,right,→,0.6363096999702975,True,12,1,1,16
Y2-S2-133K20,4,335,AS,intra_train,27,↓,left,←,0.550622700015083,False,30,-,-,-
Y2-S2-133K20,4,336,AS,intra_train,29,↑,down,↓,0.7033322000061162,False,30,-,-,-
Y2-S2-133K20,4,337,AS,intra_train,38,↓,down,↓,1.0065744000021368,True,30,-,-,-
Y2-S2-133K20,4,338,AS,intra_train,40,↑,up,↑,1.0389014999964274,True,30,-,-,-
Y2-S2-133K20,4,339,AS,intra_train,45,↓,down,↓,0.7437495000194758,True,30,-,-,-
Y2-S2-133K20,4,340,AS,exp,48,↑,up,↑,0.6548204999999143,True,20,0,0,0
Y2-S2-133K20,4,341,AS,exp,32,→,down,↓,1.119059799995739,False,20,-1,0,0
Y2-S2-133K20,4,342,AS,exp,28,↑,up,↑,0.9460950999637134,True,21,-1,0,0
Y2-S2-133K20,4,343,AS,exp,48,←,up,↑,1.561217200011015,False,21,-1,0,0
Y2-S2-133K20,4,344,AS,exp,41,↓,down,↓,0.9113827000255696,True,22,-1,0,0
Y2-S2-133K20,4,345,AS,exp,44,←,left,←,0.7787474000360817,True,22,-1,0,0
Y2-S2-133K20,4,346,AS,exp,35,→,right,→,0.6816741999937221,True,22,1,1,1
Y2-S2-133K20,4,347,AS,exp,46,↑,up,↑,0.6572701000259258,True,21,1,0,1
Y2-S2-133K20,4,348,AS,exp,33,→,right,→,0.7505174999823794,True,21,1,0,1
Y2-S2-133K20,4,349,AS,exp,45,↓,up,↑,0.7556019999901764,False,21,-1,1,2
Y2-S2-133K20,4,350,AS,exp,36,→,right,→,0.6964556999737397,True,22,-1,0,2
Y2-S2-133K20,4,351,AS,exp,38,↓,left,←,0.7743750999798067,False,22,-1,0,2
Y2-S2-133K20,4,352,AS,exp,32,←,right,→,0.9499514999915846,False,23,-1,0,2
Y2-S2-133K20,4,353,AS,exp,28,↑,no_key,no_letter,-1.0,False,24,-1,0,2
Y2-S2-133K20,4,354,AS,exp,40,←,left,←,0.5506929999683052,True,25,-1,0,2
Y2-S2-133K20,4,355,AS,exp,32,↑,up,↑,0.6646989000146277,True,25,-1,0,2
Y2-S2-133K20,4,356,AS,exp,46,←,left,←,0.45069510000757873,True,25,1,1,3
Y2-S2-133K20,4,357,AS,exp,46,→,right,→,0.6232095999876037,True,24,1,0,3
Y2-S2-133K20,4,358,AS,exp,35,↑,up,↑,0.4669846000033431,True,24,1,0,3
Y2-S2-133K20,4,359,AS,exp,48,↓,up,↑,0.8013287999783643,False,24,-1,1,4
Y2-S2-133K20,4,360,AS,exp,44,→,right,→,0.5338986999704503,True,25,-1,0,4
Y2-S2-133K20,4,361,AS,exp,31,←,left,←,0.7325104000046849,True,25,-1,0,4
Y2-S2-133K20,4,362,AS,exp,31,↓,up,↑,0.6768305999576114,False,25,-1,0,4
Y2-S2-133K20,4,363,AS,exp,47,↑,up,↑,0.4172590000089258,True,26,-1,0,4
Y2-S2-133K20,4,364,AS,exp,50,←,right,→,0.7618072999757715,False,26,-1,0,4
Y2-S2-133K20,4,365,AS,exp,38,→,right,→,0.5004610000178218,True,27,-1,0,4
Y2-S2-133K20,4,366,AS,exp,37,↑,up,↑,0.6616829999838956,True,27,-1,0,4
Y2-S2-133K20,4,367,AS,exp,50,→,right,→,0.731140099989716,True,27,1,1,5
Y2-S2-133K20,4,368,AS,exp,37,↑,up,↑,0.4009660999872722,True,26,1,0,5
Y2-S2-133K20,4,369,AS,exp,46,↓,right,→,0.5674609999987297,False,26,-1,1,6
Y2-S2-133K20,4,370,AS,exp,48,←,left,←,0.5669800999457948,True,27,-1,0,6
Y2-S2-133K20,4,371,AS,exp,37,↓,up,↑,0.467359000002034,False,27,-1,0,6
Y2-S2-133K20,4,372,AS,exp,48,↑,up,↑,0.5671573000145145,True,28,-1,0,6
Y2-S2-133K20,4,373,AS,exp,38,←,left,←,0.5006282000103965,True,28,-1,0,6
Y2-S2-133K20,4,374,AS,exp,41,↑,right,→,0.6629752999870107,False,28,-1,0,6
Y2-S2-133K20,4,375,AS,exp,49,←,no_key,no_letter,-1.0,False,29,-1,0,6
Y2-S2-133K20,4,376,AS,exp,41,↑,up,↑,1.0069773999857716,True,30,-1,0,6
Y2-S2-133K20,4,377,AS,exp,42,←,left,←,0.5172029000241309,True,30,-1,0,6
Y2-S2-133K20,4,378,AS,exp,44,↓,down,↓,0.4839841999928467,True,30,1,1,7
Y2-S2-133K20,4,379,AS,exp,26,←,left,←,0.9418138999608345,True,29,1,0,7
Y2-S2-133K20,4,380,AS,exp,41,↓,down,↓,0.7642317000427283,True,29,1,0,7
Y2-S2-133K20,4,381,AS,exp,42,←,left,←,0.5005140000139363,True,29,1,0,7
Y2-S2-133K20,4,382,AS,exp,29,→,right,→,0.7065389999770559,True,28,1,0,7
Y2-S2-133K20,4,383,AS,exp,46,←,left,←,0.5340927000506781,True,28,1,0,7
Y2-S2-133K20,4,384,AS,exp,31,→,right,→,0.9661763000185601,True,28,1,0,7
Y2-S2-133K20,4,385,AS,exp,35,↓,down,↓,1.5104446000186726,True,27,1,0,7
Y2-S2-133K20,4,386,AS,exp,43,←,left,←,0.8439077000366524,True,27,1,0,7
Y2-S2-133K20,4,387,AS,exp,43,→,right,→,0.897672799997963,True,27,1,0,7
Y2-S2-133K20,4,388,AS,exp,42,↑,up,↑,0.7810028999811038,True,26,1,0,7
Y2-S2-133K20,4,389,AS,exp,47,←,left,←,0.5338021999923512,True,26,1,0,7
Y2-S2-133K20,4,390,AS,exp,49,↑,left,←,0.7047702999552712,False,26,-1,1,8
Y2-S2-133K20,4,391,AS,exp,31,←,left,←,1.355720299994573,True,27,-1,0,8
Y2-S2-133K20,4,392,AS,exp,40,↑,up,↑,0.6745116999954917,True,27,-1,0,8
Y2-S2-133K20,4,393,AS,exp,29,→,right,→,0.5172211999888532,True,27,1,1,9
Y2-S2-133K20,4,394,AS,exp,41,←,left,←,0.5005641000461765,True,26,1,0,9
Y2-S2-133K20,4,395,AS,exp,43,→,right,→,1.2628463999717496,True,26,1,0,9
Y2-S2-133K20,4,396,AS,exp,29,←,left,←,0.6444643000140786,True,26,1,0,9
Y2-S2-133K20,4,397,AS,exp,50,↑,up,↑,0.6568047000328079,True,25,1,0,9
Y2-S2-133K20,4,398,AS,exp,46,↓,down,↓,0.7746328000212088,True,25,1,0,9
Y2-S2-133K20,4,399,AS,exp,35,↑,up,↑,0.8700696000014432,True,25,1,0,9
Y2-S2-133K20,4,400,AS,exp,48,↓,down,↓,0.6478670000215061,True,24,1,0,9
Y2-S2-133K20,4,401,AS,exp,31,↑,left,←,0.9316321000223979,False,24,-1,1,10
Y2-S2-133K20,4,402,AS,exp,44,↓,left,←,0.7496704999939539,False,25,-1,0,10
Y2-S2-133K20,4,403,AS,exp,35,←,left,←,0.8172767999931239,True,26,-1,0,10
Y2-S2-133K20,4,404,AS,exp,42,↓,down,↓,0.7247363000060432,True,26,-1,0,10
Y2-S2-133K20,4,405,AS,exp,32,→,left,←,0.7484777000499889,False,26,-1,0,10
Y2-S2-133K20,4,406,AS,exp,37,↑,left,←,0.618131400027778,False,27,-1,0,10
Y2-S2-133K20,4,407,AS,exp,26,←,left,←,0.5004273999948055,True,28,-1,0,10
Y2-S2-133K20,4,408,AS,exp,41,↓,down,↓,0.9979828999494202,True,28,-1,0,10
Y2-S2-133K20,4,409,AS,exp,38,→,right,→,0.7542034999933094,True,28,1,1,11
Y2-S2-133K20,4,410,AS,exp,27,←,left,←,0.9462957999785431,True,27,1,0,11
Y2-S2-133K20,4,411,AS,exp,44,→,right,→,0.9953642000327818,True,27,1,0,11
Y2-S2-133K20,4,412,AS,exp,42,←,up,↑,1.2295571999857202,False,27,-1,1,12
Y2-S2-133K20,4,413,AS,exp,29,↓,down,↓,1.1094268999877386,True,28,-1,0,12
Y2-S2-133K20,4,414,AS,exp,37,↑,up,↑,1.0968177000177093,True,28,-1,0,12
Y2-S2-133K20,4,415,AS,exp,47,←,left,←,0.9831252999720164,True,28,1,1,13
Y2-S2-133K20,4,416,AS,exp,28,↑,up,↑,0.9137381999753416,True,27,1,0,13
Y2-S2-133K20,4,417,AS,exp,45,→,right,→,0.8059360999614,True,27,1,0,13
Y2-S2-133K20,4,418,AS,exp,29,↑,up,↑,0.888273400021717,True,27,1,0,13
Y2-S2-133K20,4,419,AS,exp,26,←,left,←,0.8077945000259206,True,26,1,0,13
Y2-S2-133K20,4,420,AS,exp,36,↑,up,↑,0.8087625000043772,True,26,1,0,13
Y2-S2-133K20,4,421,AS,exp,36,←,left,←,0.705643399967812,True,26,1,0,13
Y2-S2-133K20,4,422,AS,exp,42,↑,up,↑,0.5339881000109017,True,25,1,0,13
Y2-S2-133K20,4,423,AS,exp,43,←,left,←,0.633620000036899,True,25,1,0,13
Y2-S2-133K20,4,424,AS,exp,35,↑,up,↑,0.6583586999913678,True,25,1,0,13
Y2-S2-133K20,4,425,AS,exp,40,↓,down,↓,1.0543580000521615,True,24,1,0,13
Y2-S2-133K20,4,426,AS,exp,39,↑,up,↑,0.46747099998174235,True,24,1,0,13
Y2-S2-133K20,4,427,AS,exp,38,→,right,→,0.5173794999718666,True,24,1,0,13
Y2-S2-133K20,4,428,AS,exp,33,↑,left,←,0.45124780002515763,False,23,-1,1,14
Y2-S2-133K20,4,429,AS,exp,30,↓,down,↓,0.8710607999819331,True,24,-1,0,14
Y2-S2-133K20,4,430,AS,exp,40,←,left,←,0.6062625999911688,True,24,-1,0,14
Y2-S2-133K20,4,431,AS,exp,43,↓,down,↓,0.5340290000312962,True,24,1,1,15
Y2-S2-133K20,4,432,AS,exp,35,→,right,→,0.5170563000137918,True,23,1,0,15
Y2-S2-133K20,4,433,AS,exp,44,←,left,←,0.667927399976179,True,23,1,0,15
Y2-S2-133K20,4,434,AS,exp,48,→,right,→,0.4839166000019759,True,23,1,0,15
Y2-S2-133K20,4,435,AS,exp,40,↓,down,↓,0.5838062000111677,True,22,1,0,15
Y2-S2-133K20,4,436,AS,exp,28,↑,up,↑,1.3196347000193782,True,22,1,0,15
Y2-S2-133K20,4,437,AS,exp,44,→,right,→,0.41730039997491986,True,22,1,0,15
Y2-S2-133K20,4,438,AS,exp,40,←,left,←,0.5249742000014521,True,21,1,0,15
Y2-S2-133K20,4,439,AS,exp,42,→,right,→,1.4474400999606587,True,21,1,0,15
Y2-S2-133K20,4,440,AS,exp,30,←,left,←,0.664046399993822,True,21,1,0,15
Y2-S2-133K20,4,441,AS,exp,33,↑,left,←,0.7134276999859139,False,20,-1,1,16
Y2-S2-133K20,5,442,AS,intra_train,48,↓,down,↓,0.5503730000345968,True,30,-,-,-
Y2-S2-133K20,5,443,AS,intra_train,41,↑,up,↑,0.8426463999785483,True,30,-,-,-
Y2-S2-133K20,5,444,AS,intra_train,37,←,left,←,0.6003332000109367,True,30,-,-,-
Y2-S2-133K20,5,445,AS,intra_train,28,↓,down,↓,0.7298035999992862,True,30,-,-,-
Y2-S2-133K20,5,446,AS,intra_train,45,↑,up,↑,0.617351199965924,True,30,-,-,-
Y2-S2-133K20,5,447,AS,exp,37,→,right,→,0.5513626000029035,True,20,0,0,0
Y2-S2-133K20,5,448,AS,exp,44,↓,up,↑,0.696585799974855,False,20,-1,0,0
Y2-S2-133K20,5,449,AS,exp,46,↑,up,↑,0.697200900001917,True,21,-1,0,0
Y2-S2-133K20,5,450,AS,exp,26,←,left,←,0.6538197999470867,True,21,-1,0,0
Y2-S2-133K20,5,451,AS,exp,49,→,right,→,1.7963255000067875,True,21,1,1,1
Y2-S2-133K20,5,452,AS,exp,35,↑,right,→,0.7013944000354968,False,20,-1,1,2
Y2-S2-133K20,5,453,AS,exp,46,→,right,→,0.4840196000295691,True,21,-1,0,2
Y2-S2-133K20,5,454,AS,exp,34,↑,up,↑,0.46736730000702664,True,21,-1,0,2
Y2-S2-133K20,5,455,AS,exp,44,←,left,←,1.0354723999626003,True,21,1,1,3
Y2-S2-133K20,5,456,AS,exp,45,↑,up,↑,0.6450381999602541,True,20,1,0,3
Y2-S2-133K20,5,457,AS,exp,31,→,left,←,1.0381096999626607,False,20,-1,1,4
Y2-S2-133K20,5,458,AS,exp,40,↓,left,←,0.9763110000058077,False,21,-1,0,4
Y2-S2-133K20,5,459,AS,exp,25,↑,left,←,0.9258922000299208,False,22,-1,0,4
Y2-S2-133K20,5,460,AS,exp,32,←,left,←,0.95673119998537,True,23,-1,0,4
Y2-S2-133K20,5,461,AS,exp,36,↓,down,↓,0.8629468000144698,True,23,-1,0,4
Y2-S2-133K20,5,462,AS,exp,47,→,right,→,0.7921362000051886,True,23,1,1,5
Y2-S2-133K20,5,463,AS,exp,41,↑,up,↑,0.5655479999841191,True,22,1,0,5
Y2-S2-133K20,5,464,AS,exp,33,↓,down,↓,0.5510049000149593,True,22,1,0,5
Y2-S2-133K20,5,465,AS,exp,31,→,right,→,0.45133959996746853,True,22,1,0,5
Y2-S2-133K20,5,466,AS,exp,33,←,left,←,0.43407670001033694,True,21,1,0,5
Y2-S2-133K20,5,467,AS,exp,43,↓,left,←,0.8482101000263356,False,21,-1,1,6
Y2-S2-133K20,5,468,AS,exp,33,↑,no_key,no_letter,-1.0,False,22,-1,0,6
Y2-S2-133K20,5,469,AS,exp,29,↓,down,↓,0.4674700999748893,True,23,-1,0,6
Y2-S2-133K20,5,470,AS,exp,38,↑,down,↓,1.206995700020343,False,23,-1,0,6
Y2-S2-133K20,5,471,AS,exp,44,↓,down,↓,0.772976899985224,True,24,-1,0,6
Y2-S2-133K20,5,472,AS,exp,46,←,left,←,0.48384250001981854,True,24,-1,0,6
Y2-S2-133K20,5,473,AS,exp,44,→,right,→,0.4171804999932647,True,24,1,1,7
Y2-S2-133K20,5,474,AS,exp,42,↑,up,↑,0.5174867999739945,True,23,1,0,7
Y2-S2-133K20,5,475,AS,exp,34,←,left,←,0.48364890000084415,True,23,1,0,7
Y2-S2-133K20,5,476,AS,exp,39,→,right,→,0.35108349996153265,True,23,1,0,7
Y2-S2-133K20,5,477,AS,exp,43,←,left,←,0.8138704999582842,True,22,1,0,7
Y2-S2-133K20,5,478,AS,exp,36,↓,down,↓,0.9071764000109397,True,22,1,0,7
Y2-S2-133K20,5,479,AS,exp,43,←,left,←,0.48402210004860535,True,22,1,0,7
Y2-S2-133K20,5,480,AS,exp,44,↓,left,←,0.8478928999975324,False,21,-1,1,8
Y2-S2-133K20,5,481,AS,exp,44,←,right,→,0.667314299964346,False,22,-1,0,8
Y2-S2-133K20,5,482,AS,exp,27,↑,up,↑,0.7687817999976687,True,23,-1,0,8
Y2-S2-133K20,5,483,AS,exp,25,↓,down,↓,0.6851928000105545,True,23,-1,0,8
Y2-S2-133K20,5,484,AS,exp,33,←,left,←,0.4838257000083104,True,23,1,1,9
Y2-S2-133K20,5,485,AS,exp,39,↑,up,↑,0.46721699996851385,True,22,1,0,9
Y2-S2-133K20,5,486,AS,exp,44,→,right,→,0.43403109995415434,True,22,1,0,9
Y2-S2-133K20,5,487,AS,exp,41,↓,left,←,0.6037582000135444,False,22,-1,1,10
Y2-S2-133K20,5,488,AS,exp,37,→,right,→,0.8263299000100233,True,23,-1,0,10
Y2-S2-133K20,5,489,AS,exp,30,←,left,←,1.221712699974887,True,23,-1,0,10
Y2-S2-133K20,5,490,AS,exp,50,↓,down,↓,0.569918500026688,True,23,1,1,11
Y2-S2-133K20,5,491,AS,exp,25,→,right,→,0.7925599000300281,True,22,1,0,11
Y2-S2-133K20,5,492,AS,exp,42,←,no_key,no_letter,-1.0,False,22,-1,1,12
Y2-S2-133K20,5,493,AS,exp,42,↑,up,↑,0.7622007000027224,True,23,-1,0,12
Y2-S2-133K20,5,494,AS,exp,29,←,left,←,0.4505611999775283,True,23,-1,0,12
Y2-S2-133K20,5,495,AS,exp,36,↓,left,←,0.5944034999702126,False,23,-1,0,12
Y2-S2-133K20,5,496,AS,exp,31,↑,up,↑,0.500613699958194,True,24,-1,0,12
Y2-S2-133K20,5,497,AS,exp,26,→,right,→,0.6239880999783054,True,24,-1,0,12
Y2-S2-133K20,5,498,AS,exp,31,↑,up,↑,0.5172307000029832,True,24,1,1,13
Y2-S2-133K20,5,499,AS,exp,34,←,left,←,0.6254381000180729,True,23,1,0,13
Y2-S2-133K20,5,500,AS,exp,25,↓,down,↓,0.9070405999664217,True,23,1,0,13
Y2-S2-133K20,5,501,AS,exp,47,←,left,←,0.8202283999999054,True,23,1,0,13
Y2-S2-133K20,5,502,AS,exp,39,→,right,→,1.2856787000200711,True,22,1,0,13
Y2-S2-133K20,5,503,AS,exp,43,↑,up,↑,0.6000095999916084,True,22,1,0,13
Y2-S2-133K20,5,504,AS,exp,41,↓,down,↓,0.6994534999830648,True,22,1,0,13
Y2-S2-133K20,5,505,AS,exp,38,←,left,←,1.5993615000043064,True,21,1,0,13
Y2-S2-133K20,5,506,AS,exp,42,→,right,→,0.4338980999891646,True,21,1,0,13
Y2-S2-133K20,5,507,AS,exp,39,↑,up,↑,0.6178817999898456,True,21,1,0,13
Y2-S2-133K20,5,508,AS,exp,37,→,right,→,0.5112762000062503,True,20,1,0,13
Y2-S2-133K20,5,509,AS,exp,39,↑,up,↑,0.5763763000140898,True,20,1,0,13
Y2-S2-133K20,5,510,AS,exp,38,→,right,→,0.7346174000413157,True,20,1,0,13
Y2-S2-133K20,5,511,AS,exp,44,↑,left,←,0.766380199987907,False,19,-1,1,14
Y2-S2-133K20,5,512,AS,exp,43,←,no_key,no_letter,-1.0,False,20,-1,0,14
Y2-S2-133K20,5,513,AS,exp,45,↓,down,↓,0.522568499960471,True,21,-1,0,14
Y2-S2-133K20,5,514,AS,exp,32,→,left,←,1.7596421000198461,False,21,-1,0,14
Y2-S2-133K20,5,515,AS,exp,50,↓,down,↓,0.8379857000545599,True,22,-1,0,14
Y2-S2-133K20,5,516,AS,exp,35,←,left,←,0.818784200004302,True,22,-1,0,14
Y2-S2-133K20,5,517,AS,exp,47,↑,up,↑,0.8555650999769568,True,22,1,1,15
Y2-S2-133K20,5,518,AS,exp,25,↓,down,↓,0.5960040999925695,True,21,1,0,15
Y2-S2-133K20,5,519,AS,exp,42,←,left,←,0.692260800045915,True,21,1,0,15
Y2-S2-133K20,5,520,AS,exp,33,↓,down,↓,0.527525199984666,True,21,1,0,15
Y2-S2-133K20,5,521,AS,exp,31,↑,up,↑,0.6935275999712758,True,20,1,0,15
Y2-S2-133K20,5,522,AS,exp,37,←,left,←,0.5201705999788828,True,20,1,0,15
Y2-S2-133K20,5,523,AS,exp,34,↑,up,↑,1.8467197999707423,True,20,1,0,15
Y2-S2-133K20,5,524,AS,exp,43,↓,down,↓,0.6348123000352643,True,19,1,0,15
Y2-S2-133K20,5,525,AS,exp,36,↑,left,←,0.724910999997519,False,19,-1,1,16
Y2-S2-133K20,6,526,PS,intra_train,28,↓,down,↓,0.5662244000122882,True,18,-,-,-
Y2-S2-133K20,6,527,PS,intra_train,36,→,right,→,0.43392719997791573,True,18,-,-,-
Y2-S2-133K20,6,528,PS,intra_train,32,←,left,←,0.6463161000283435,True,18,-,-,-
Y2-S2-133K20,6,529,PS,intra_train,31,↑,up,↑,0.6070701999706216,True,18,-,-,-
Y2-S2-133K20,6,530,PS,intra_train,40,→,right,→,0.6349788999650627,True,18,-,-,-
Y2-S2-133K20,6,531,PS,exp,28,↓,down,↓,0.454455400002189,True,12,0,0,0
Y2-S2-133K20,6,532,PS,exp,39,←,left,←,0.49743609997676685,True,12,0,0,0
Y2-S2-133K20,6,533,PS,exp,50,→,right,→,0.3984301000018604,True,12,1,0,0
Y2-S2-133K20,6,534,PS,exp,31,↓,left,←,0.6134680999675766,False,11,-1,1,1
Y2-S2-133K20,6,535,PS,exp,31,↑,up,↑,0.5321157000144012,True,12,-1,0,1
Y2-S2-133K20,6,536,PS,exp,36,←,left,←,0.6240170000237413,True,12,-1,0,1
Y2-S2-133K20,6,537,PS,exp,46,→,right,→,0.5389494000119157,True,12,1,1,2
Y2-S2-133K20,6,538,PS,exp,49,↑,left,←,0.551526399969589,False,11,-1,1,3
Y2-S2-133K20,6,539,PS,exp,28,←,left,←,0.45068110001739115,True,12,-1,0,3
Y2-S2-133K20,6,540,PS,exp,38,↑,left,←,0.48316639999393374,False,12,-1,0,3
Y2-S2-133K20,6,541,PS,exp,31,→,right,→,0.4708107000333257,True,13,-1,0,3
Y2-S2-133K20,6,542,PS,exp,36,←,left,←,0.4799845999805257,True,13,-1,0,3
Y2-S2-133K20,6,543,PS,exp,31,→,right,→,0.3988311999710277,True,13,1,1,4
Y2-S2-133K20,6,544,PS,exp,29,↑,up,↑,0.5116808000020683,True,12,1,0,4
Y2-S2-133K20,6,545,PS,exp,46,↓,left,←,0.5983039999846369,False,12,-1,1,5
Y2-S2-133K20,6,546,PS,exp,31,←,left,←,0.5772792000207119,True,13,-1,0,5
Y2-S2-133K20,6,547,PS,exp,49,↓,down,↓,0.8855730999493971,True,13,-1,0,5
Y2-S2-133K20,6,548,PS,exp,45,→,right,→,0.4669959000311792,True,13,1,1,6
Y2-S2-133K20,6,549,PS,exp,46,↓,down,↓,0.7080918999854475,True,12,1,0,6
Y2-S2-133K20,6,550,PS,exp,34,←,left,←,0.6438528000144288,True,12,1,0,6
Y2-S2-133K20,6,551,PS,exp,44,→,right,→,0.49886350001906976,True,12,1,0,6
Y2-S2-133K20,6,552,PS,exp,38,←,left,←,0.5706257999991067,True,11,1,0,6
Y2-S2-133K20,6,553,PS,exp,43,→,right,→,0.43368389998795465,True,11,1,0,6
Y2-S2-133K20,6,554,PS,exp,37,↓,left,←,0.6002459000446834,False,11,-1,1,7
Y2-S2-133K20,6,555,PS,exp,39,←,left,←,0.4255644000368193,True,12,-1,0,7
Y2-S2-133K20,6,556,PS,exp,49,↑,up,↑,0.538075199990999,True,12,-1,0,7
Y2-S2-133K20,6,557,PS,exp,50,←,left,←,0.4644611999974586,True,12,1,1,8
Y2-S2-133K20,6,558,PS,exp,38,↓,down,↓,0.6236220999853685,True,11,1,0,8
Y2-S2-133K20,6,559,PS,exp,26,←,right,→,0.7110427999868989,False,11,-1,1,9
Y2-S2-133K20,6,560,PS,exp,29,↑,up,↑,0.5922121999901719,True,12,-1,0,9
Y2-S2-133K20,6,561,PS,exp,34,←,left,←,0.4857056000037119,True,12,-1,0,9
Y2-S2-133K20,6,562,PS,exp,46,↑,up,↑,0.6859010000480339,True,12,1,1,10
Y2-S2-133K20,6,563,PS,exp,39,↓,down,↓,0.5747183000203222,True,11,1,0,10
Y2-S2-133K20,6,564,PS,exp,50,←,left,←,0.5494749000063166,True,11,1,0,10
Y2-S2-133K20,6,565,PS,exp,38,↓,up,↑,0.8989525999641046,False,11,-1,1,11
Y2-S2-133K20,6,566,PS,exp,40,←,left,←,0.5538099000114016,True,12,-1,0,11
Y2-S2-133K20,6,567,PS,exp,27,↑,up,↑,0.7020139000378549,True,12,-1,0,11
Y2-S2-133K20,6,568,PS,exp,46,←,left,←,0.4868096000282094,True,12,1,1,12
Y2-S2-133K20,6,569,PS,exp,50,↑,up,↑,0.45011609996436164,True,11,1,0,12
Y2-S2-133K20,6,570,PS,exp,28,↓,left,←,0.7054853999870829,False,11,-1,1,13
Y2-S2-133K20,6,571,PS,exp,39,→,right,→,0.4632186000235379,True,12,-1,0,13
Y2-S2-133K20,6,572,PS,exp,33,↑,up,↑,0.5180762000381947,True,12,-1,0,13
Y2-S2-133K20,6,573,PS,exp,29,↓,down,↓,0.8025705000036396,True,12,1,1,14
Y2-S2-133K20,6,574,PS,exp,34,→,up,↑,0.6683376000146382,False,11,-1,1,15
Y2-S2-133K20,6,575,PS,exp,34,←,right,→,0.6154586999909952,False,12,-1,0,15
Y2-S2-133K20,6,576,PS,exp,43,↓,down,↓,0.5786739000468515,True,13,-1,0,15
Y2-S2-133K20,6,577,PS,exp,49,↑,up,↑,0.6399337000329979,True,13,-1,0,15
Y2-S2-133K20,6,578,PS,exp,49,→,right,→,0.691420899995137,True,13,1,1,16
Y2-S2-133K20,7,579,PS,intra_train,44,↑,up,↑,1.5798009000136517,True,18,-,-,-
Y2-S2-133K20,7,580,PS,intra_train,44,↓,down,↓,0.47309169999789447,True,18,-,-,-
Y2-S2-133K20,7,581,PS,intra_train,32,↑,up,↑,0.573757000034675,True,18,-,-,-
Y2-S2-133K20,7,582,PS,intra_train,49,←,left,←,0.5804321999894455,True,18,-,-,-
Y2-S2-133K20,7,583,PS,intra_train,46,→,right,→,0.4712489999947138,True,18,-,-,-
Y2-S2-133K20,7,584,PS,exp,42,↑,up,↑,0.6419369999784976,True,12,0,0,0
Y2-S2-133K20,7,585,PS,exp,45,→,right,→,0.5243846999946982,True,12,0,0,0
Y2-S2-133K20,7,586,PS,exp,30,↓,down,↓,0.6854597000055946,True,12,1,0,0
Y2-S2-133K20,7,587,PS,exp,28,↑,up,↑,0.41972360003273934,True,11,1,0,0
Y2-S2-133K20,7,588,PS,exp,46,←,left,←,0.387462799961213,True,11,1,0,0
Y2-S2-133K20,7,589,PS,exp,26,↑,right,→,0.6099566000048071,False,11,-1,1,1
Y2-S2-133K20,7,590,PS,exp,47,←,up,↑,0.6870550999883562,False,12,-1,0,1
Y2-S2-133K20,7,591,PS,exp,28,↑,up,↑,0.5812126999953762,True,13,-1,0,1
Y2-S2-133K20,7,592,PS,exp,34,↓,down,↓,0.4814259000122547,True,13,-1,0,1
Y2-S2-133K20,7,593,PS,exp,31,←,left,←,0.6632338000345044,True,13,1,1,2
Y2-S2-133K20,7,594,PS,exp,40,↓,down,↓,0.5758715000119992,True,12,1,0,2
Y2-S2-133K20,7,595,PS,exp,35,↑,up,↑,0.8191028999863192,True,12,1,0,2
Y2-S2-133K20,7,596,PS,exp,49,←,right,→,0.5955216999864206,False,12,-1,1,3
Y2-S2-133K20,7,597,PS,exp,49,↑,up,↑,1.1912060000468045,True,13,-1,0,3
Y2-S2-133K20,7,598,PS,exp,35,↓,down,↓,0.8675479999510571,True,13,-1,0,3
Y2-S2-133K20,7,599,PS,exp,28,←,right,→,0.8435990000143647,False,13,-1,0,3
Y2-S2-133K20,7,600,PS,exp,41,→,right,→,0.56242019997444,True,14,-1,0,3
Y2-S2-133K20,7,601,PS,exp,27,↑,up,↑,0.5709770999965258,True,14,-1,0,3
Y2-S2-133K20,7,602,PS,exp,40,←,left,←,0.6519029000191949,True,14,1,1,4
Y2-S2-133K20,7,603,PS,exp,43,→,right,→,0.5029414999880828,True,13,1,0,4
Y2-S2-133K20,7,604,PS,exp,50,←,left,←,0.557268499978818,True,13,1,0,4
Y2-S2-133K20,7,605,PS,exp,25,↑,up,↑,0.5704111000522971,True,13,1,0,4
Y2-S2-133K20,7,606,PS,exp,44,↓,down,↓,0.5225893000024371,True,12,1,0,4
Y2-S2-133K20,7,607,PS,exp,29,←,up,↑,0.6937394000124186,False,12,-1,1,5
Y2-S2-133K20,7,608,PS,exp,36,→,right,→,0.44617000001017004,True,13,-1,0,5
Y2-S2-133K20,7,609,PS,exp,46,↑,up,↑,0.6036862999899313,True,13,-1,0,5
Y2-S2-133K20,7,610,PS,exp,45,→,right,→,0.540458400035277,True,13,1,1,6
Y2-S2-133K20,7,611,PS,exp,45,↑,up,↑,0.595670499955304,True,12,1,0,6
Y2-S2-133K20,7,612,PS,exp,26,→,up,↑,0.6949444999918342,False,12,-1,1,7
Y2-S2-133K20,7,613,PS,exp,37,↓,down,↓,0.5482173000345938,True,13,-1,0,7
Y2-S2-133K20,7,614,PS,exp,48,→,right,→,0.509886700019706,True,13,-1,0,7
Y2-S2-133K20,7,615,PS,exp,40,↑,up,↑,0.5178758999682032,True,13,1,1,8
Y2-S2-133K20,7,616,PS,exp,47,←,left,←,0.5569057000102475,True,12,1,0,8
Y2-S2-133K20,7,617,PS,exp,43,→,left,←,0.4380413999897428,False,12,-1,1,9
Y2-S2-133K20,7,618,PS,exp,44,↓,down,↓,0.4991515999427065,True,13,-1,0,9
Y2-S2-133K20,7,619,PS,exp,31,↑,left,←,0.8407942000194453,False,13,-1,0,9
Y2-S2-133K20,7,620,PS,exp,28,→,right,→,0.5267642999533564,True,14,-1,0,9
Y2-S2-133K20,7,621,PS,exp,44,↑,up,↑,0.47160489996895194,True,14,-1,0,9
Y2-S2-133K20,7,622,PS,exp,50,→,right,→,1.1101589999743737,True,14,1,1,10
Y2-S2-133K20,7,623,PS,exp,47,↑,up,↑,0.5039843000122346,True,13,1,0,10
Y2-S2-133K20,7,624,PS,exp,36,←,left,←,0.7023066999972798,True,13,1,0,10
Y2-S2-133K20,7,625,PS,exp,34,→,left,←,0.5155688999802805,False,13,-1,1,11
Y2-S2-133K20,7,626,PS,exp,37,↑,left,←,0.9859737000078894,False,14,-1,0,11
Y2-S2-133K20,7,627,PS,exp,37,←,up,↑,0.9723535000230186,False,15,-1,0,11
Y2-S2-133K20,7,628,PS,exp,46,↓,down,↓,0.6992226000293158,True,16,-1,0,11
Y2-S2-133K20,7,629,PS,exp,50,↑,up,↑,0.6072873999946751,True,16,-1,0,11
Y2-S2-133K20,7,630,PS,exp,28,←,left,←,0.5421406999812461,True,16,1,1,12
Y2-S2-133K20,7,631,PS,exp,28,→,right,→,0.4640602999716066,True,15,1,0,12
Y2-S2-133K20,7,632,PS,exp,25,↓,left,←,0.6715147999930196,False,15,-1,1,13
Y2-S2-133K20,7,633,PS,exp,39,↑,right,→,0.38399780000327155,False,16,-1,0,13
Y2-S2-133K20,7,634,PS,exp,34,←,left,←,0.7126935999840498,True,17,-1,0,13
Y2-S2-133K20,7,635,PS,exp,41,↑,up,↑,0.6102702000061981,True,17,-1,0,13
Y2-S2-133K20,7,636,PS,exp,42,↓,right,→,0.5375956000061706,False,17,-1,0,13
Y2-S2-133K20,7,637,PS,exp,41,←,left,←,0.6364543000236154,True,18,-1,0,13
Y2-S2-133K20,7,638,PS,exp,45,→,no_key,no_letter,-1.0,False,18,-1,0,13
Y2-S2-133K20,7,639,PS,exp,29,↓,down,↓,0.5970556999673136,True,19,-1,0,13
Y2-S2-133K20,7,640,PS,exp,29,←,left,←,0.5367989999940619,True,19,-1,0,13
Y2-S2-133K20,7,641,PS,exp,28,→,right,→,1.037077099957969,True,19,1,1,14
Y2-S2-133K20,7,642,PS,exp,43,↓,down,↓,0.6583235000143759,True,18,1,0,14
Y2-S2-133K20,7,643,PS,exp,28,←,left,←,0.48234250000678003,True,18,1,0,14
Y2-S2-133K20,7,644,PS,exp,37,↓,down,↓,0.5718750999658369,True,18,1,0,14
Y2-S2-133K20,7,645,PS,exp,47,←,left,←,0.5814355000038631,True,17,1,0,14
Y2-S2-133K20,7,646,PS,exp,26,↓,down,↓,0.6519017999526113,True,17,1,0,14
Y2-S2-133K20,7,647,PS,exp,38,↑,up,↑,0.5682504000142217,True,17,1,0,14
Y2-S2-133K20,7,648,PS,exp,30,←,left,←,0.5419799000374041,True,16,1,0,14
Y2-S2-133K20,7,649,PS,exp,35,→,right,→,0.497888799989596,True,16,1,0,14
Y2-S2-133K20,7,650,PS,exp,40,↑,left,←,0.6708237999700941,False,16,-1,1,15
Y2-S2-133K20,7,651,PS,exp,46,←,left,←,0.48839409998618066,True,17,-1,0,15
Y2-S2-133K20,7,652,PS,exp,31,↑,up,↑,0.5559509000158869,True,17,-1,0,15
Y2-S2-133K20,7,653,PS,exp,42,←,left,←,0.4740381000447087,True,17,1,1,16
Y2-S2-133K20,8,654,AS,intra_train,35,↑,up,↑,0.836788600019645,True,30,-,-,-
Y2-S2-133K20,8,655,AS,intra_train,28,↓,down,↓,1.1631188999745063,True,30,-,-,-
Y2-S2-133K20,8,656,AS,intra_train,34,←,left,←,0.5504172999644652,True,30,-,-,-
Y2-S2-133K20,8,657,AS,intra_train,47,→,right,→,0.40059960004873574,True,30,-,-,-
Y2-S2-133K20,8,658,AS,intra_train,27,←,left,←,0.8725541000021622,True,30,-,-,-
Y2-S2-133K20,8,659,AS,exp,36,→,left,←,0.7710689000086859,False,20,-1,0,0
Y2-S2-133K20,8,660,AS,exp,30,↑,up,↑,1.7150001000263728,True,21,-1,0,0
Y2-S2-133K20,8,661,AS,exp,38,↓,down,↓,0.5263044000021182,True,21,-1,0,0
Y2-S2-133K20,8,662,AS,exp,41,→,left,←,0.8234347999677993,False,21,-1,0,0
Y2-S2-133K20,8,663,AS,exp,43,↑,up,↑,0.5007525999681093,True,22,-1,0,0
Y2-S2-133K20,8,664,AS,exp,29,↓,left,←,0.7583192000165582,False,22,-1,0,0
Y2-S2-133K20,8,665,AS,exp,33,←,right,→,0.7638203999958932,False,23,-1,0,0
Y2-S2-133K20,8,666,AS,exp,41,→,right,→,0.777247800026089,True,24,-1,0,0
Y2-S2-133K20,8,667,AS,exp,25,↓,down,↓,0.8617250999668613,True,24,-1,0,0
Y2-S2-133K20,8,668,AS,exp,34,↑,up,↑,0.702084599994123,True,24,1,1,1
Y2-S2-133K20,8,669,AS,exp,47,↓,down,↓,0.6147970000165515,True,23,1,0,1
Y2-S2-133K20,8,670,AS,exp,32,←,left,←,0.6840488000307232,True,23,1,0,1
Y2-S2-133K20,8,671,AS,exp,34,↑,up,↑,0.7011985999997705,True,23,1,0,1
Y2-S2-133K20,8,672,AS,exp,25,↓,down,↓,0.7341277999803424,True,22,1,0,1
Y2-S2-133K20,8,673,AS,exp,41,↑,up,↑,0.4504050000105053,True,22,1,0,1
Y2-S2-133K20,8,674,AS,exp,45,→,right,→,0.41720369999529794,True,22,1,0,1
Y2-S2-133K20,8,675,AS,exp,34,↑,up,↑,1.924888400011696,True,21,1,0,1
Y2-S2-133K20,8,676,AS,exp,46,←,left,←,0.5229418000089936,True,21,1,0,1
Y2-S2-133K20,8,677,AS,exp,31,→,right,→,0.5255273000220768,True,21,1,0,1
Y2-S2-133K20,8,678,AS,exp,38,↑,up,↑,0.8711812000256032,True,20,1,0,1
Y2-S2-133K20,8,679,AS,exp,43,→,right,→,0.7401160000008531,True,20,1,0,1
Y2-S2-133K20,8,680,AS,exp,37,↓,down,↓,0.8248878999729641,True,20,1,0,1
Y2-S2-133K20,8,681,AS,exp,43,←,left,←,0.5181500000180677,True,19,1,0,1
Y2-S2-133K20,8,682,AS,exp,29,↑,up,↑,0.6703028999618255,True,19,1,0,1
Y2-S2-133K20,8,683,AS,exp,49,↓,down,↓,0.49062810000032187,True,19,1,0,1
Y2-S2-133K20,8,684,AS,exp,45,↑,up,↑,0.6558791999705136,True,18,1,0,1
Y2-S2-133K20,8,685,AS,exp,33,↓,up,↑,1.2036561999702826,False,18,-1,1,2
Y2-S2-133K20,8,686,AS,exp,32,↑,down,↓,0.6582575000356883,False,19,-1,0,2
Y2-S2-133K20,8,687,AS,exp,31,←,left,←,0.7915127000305802,True,20,-1,0,2
Y2-S2-133K20,8,688,AS,exp,42,↑,up,↑,0.5417643999680877,True,20,-1,0,2
Y2-S2-133K20,8,689,AS,exp,40,←,up,↑,0.6035372000187635,False,20,-1,0,2
Y2-S2-133K20,8,690,AS,exp,42,↓,down,↓,0.5322063000057824,True,21,-1,0,2
Y2-S2-133K20,8,691,AS,exp,35,→,right,→,0.45055549999233335,True,21,-1,0,2
Y2-S2-133K20,8,692,AS,exp,36,←,left,←,0.7071123000350781,True,21,1,1,3
Y2-S2-133K20,8,693,AS,exp,43,↑,up,↑,0.7288519999710843,True,20,1,0,3
Y2-S2-133K20,8,694,AS,exp,36,↓,down,↓,0.8055463000200689,True,20,1,0,3
Y2-S2-133K20,8,695,AS,exp,45,↑,up,↑,0.41712090000510216,True,20,1,0,3
Y2-S2-133K20,8,696,AS,exp,49,←,left,←,0.6205340000451542,True,19,1,0,3
Y2-S2-133K20,8,697,AS,exp,43,↓,down,↓,0.5812239000224508,True,19,1,0,3
Y2-S2-133K20,8,698,AS,exp,37,→,right,→,0.5134530999930575,True,19,1,0,3
Y2-S2-133K20,8,699,AS,exp,32,←,up,↑,0.8723864000057802,False,18,-1,1,4
Y2-S2-133K20,8,700,AS,exp,34,→,right,→,0.6087208000244573,True,19,-1,0,4
Y2-S2-133K20,8,701,AS,exp,31,←,right,→,0.8981938999495469,False,19,-1,0,4
Y2-S2-133K20,8,702,AS,exp,37,↓,down,↓,0.5931018000119366,True,20,-1,0,4
Y2-S2-133K20,8,703,AS,exp,36,→,right,→,0.7545205000205897,True,20,-1,0,4
Y2-S2-133K20,8,704,AS,exp,30,↑,up,↑,0.5268385000526905,True,20,1,1,5
Y2-S2-133K20,8,705,AS,exp,40,↓,down,↓,0.5029056000057608,True,19,1,0,5
Y2-S2-133K20,8,706,AS,exp,37,↑,up,↑,0.4508915999904275,True,19,1,0,5
Y2-S2-133K20,8,707,AS,exp,50,↓,down,↓,1.526497200015001,True,19,1,0,5
Y2-S2-133K20,8,708,AS,exp,27,→,right,→,0.7764015999855474,True,18,1,0,5
Y2-S2-133K20,8,709,AS,exp,28,←,right,→,0.6951196999871172,False,18,-1,1,6
Y2-S2-133K20,8,710,AS,exp,38,↓,down,↓,0.6482917999965139,True,19,-1,0,6
Y2-S2-133K20,8,711,AS,exp,45,←,left,←,0.45060779998311773,True,19,-1,0,6
Y2-S2-133K20,8,712,AS,exp,47,→,right,→,1.7478921000147238,True,19,1,1,7
Y2-S2-133K20,8,713,AS,exp,42,↓,down,↓,0.8042259000358172,True,18,1,0,7
Y2-S2-133K20,8,714,AS,exp,37,↑,up,↑,0.6168170000310056,True,18,1,0,7
Y2-S2-133K20,8,715,AS,exp,49,←,left,←,0.7004332999931648,True,18,1,0,7
Y2-S2-133K20,8,716,AS,exp,50,↓,left,←,0.976047899981495,False,17,-1,1,8
Y2-S2-133K20,8,717,AS,exp,40,↑,up,↑,0.5581769000273198,True,18,-1,0,8
Y2-S2-133K20,8,718,AS,exp,26,↓,down,↓,0.7776651000021957,True,18,-1,0,8
Y2-S2-133K20,8,719,AS,exp,48,→,right,→,0.48910599999362603,True,18,1,1,9
Y2-S2-133K20,8,720,AS,exp,25,↑,left,←,0.8807903000270016,False,17,-1,1,10
Y2-S2-133K20,8,721,AS,exp,28,→,right,→,0.640638500044588,True,18,-1,0,10
Y2-S2-133K20,8,722,AS,exp,42,↑,up,↑,0.6001591999665834,True,18,-1,0,10
Y2-S2-133K20,8,723,AS,exp,43,→,right,→,0.6716669999877922,True,18,1,1,11
Y2-S2-133K20,8,724,AS,exp,50,↑,up,↑,0.4610423999838531,True,17,1,0,11
Y2-S2-133K20,8,725,AS,exp,47,←,left,←,0.660142500011716,True,17,1,0,11
Y2-S2-133K20,8,726,AS,exp,33,↑,right,→,0.9697044999920763,False,17,-1,1,12
Y2-S2-133K20,8,727,AS,exp,44,↓,up,↑,1.1113577000214718,False,18,-1,0,12
Y2-S2-133K20,8,728,AS,exp,30,↑,up,↑,1.3699069999856874,True,19,-1,0,12
Y2-S2-133K20,8,729,AS,exp,25,←,left,←,0.8198256999603473,True,19,-1,0,12
Y2-S2-133K20,8,730,AS,exp,46,↑,up,↑,0.4170927000232041,True,19,1,1,13
Y2-S2-133K20,8,731,AS,exp,25,←,left,←,0.7531814000103623,True,18,1,0,13
Y2-S2-133K20,8,732,AS,exp,43,↓,left,←,0.7921566999866627,False,18,-1,1,14
Y2-S2-133K20,8,733,AS,exp,43,↑,up,↑,0.5178173999884166,True,19,-1,0,14
Y2-S2-133K20,8,734,AS,exp,28,←,left,←,0.5089741999981925,True,19,-1,0,14
Y2-S2-133K20,8,735,AS,exp,28,→,left,←,0.819913599989377,False,19,-1,0,14
Y2-S2-133K20,8,736,AS,exp,33,↓,down,↓,0.5164832000155002,True,20,-1,0,14
Y2-S2-133K20,8,737,AS,exp,34,←,left,←,0.7961812000139616,True,20,-1,0,14
Y2-S2-133K20,8,738,AS,exp,42,↓,down,↓,0.7542123000021093,True,20,1,1,15
Y2-S2-133K20,8,739,AS,exp,38,→,up,↑,0.7639863999793306,False,19,-1,1,16
