PART_ID,Block_no,Trial_no,Block_type,Trial_type,CSI,Stim_letter,Key_pressed,letter_choose,Rt,Corr,Stimulus Time,Level,Reversal,Revs_count
Y2-S2-244K18,1,1,PS,train,48,↓,down,↓,1.6129648999776691,True,30,-,-,-
Y2-S2-244K18,1,2,PS,train,28,→,right,→,0.8956247000023723,True,30,-,-,-
Y2-S2-244K18,1,3,PS,train,37,↓,down,↓,0.7259843999054283,True,30,-,-,-
Y2-S2-244K18,1,4,PS,train,49,→,right,→,0.8330193001311272,True,30,-,-,-
Y2-S2-244K18,1,5,PS,train,43,←,left,←,0.6006277999840677,True,30,-,-,-
Y2-S2-244K18,1,6,PS,train,34,→,right,→,0.7023489000275731,True,30,-,-,-
Y2-S2-244K18,1,7,PS,train,25,↑,up,↑,0.9109026999212801,True,30,-,-,-
Y2-S2-244K18,1,8,PS,train,36,→,no_key,no_letter,-1.0,False,30,-,-,-
Y2-S2-244K18,1,9,PS,train,47,↓,down,↓,0.7913023000583053,True,30,-,-,-
Y2-S2-244K18,1,10,PS,train,37,→,right,→,0.7847338998690248,True,30,-,-,-
Y2-S2-244K18,2,11,AS,train,36,↓,down,↓,0.7342445999383926,True,45,-,-,-
Y2-S2-244K18,2,12,AS,train,49,↑,up,↑,1.0720569000113755,True,45,-,-,-
Y2-S2-244K18,2,13,AS,train,37,→,right,→,1.157676100032404,True,45,-,-,-
Y2-S2-244K18,2,14,AS,train,34,↓,down,↓,0.9942596000619233,True,45,-,-,-
Y2-S2-244K18,2,15,AS,train,25,←,left,←,1.0749594999942929,True,45,-,-,-
Y2-S2-244K18,2,16,AS,train,47,↑,up,↑,1.1310443999245763,True,45,-,-,-
Y2-S2-244K18,2,17,AS,train,44,→,right,→,1.2145553999580443,True,45,-,-,-
Y2-S2-244K18,2,18,AS,train,50,←,left,←,0.8337765999604017,True,45,-,-,-
Y2-S2-244K18,2,19,AS,train,46,→,right,→,1.0813197998795658,True,45,-,-,-
Y2-S2-244K18,2,20,AS,train,30,↓,down,↓,1.1490800001192838,True,45,-,-,-
Y2-S2-244K18,-,21,PS,adaptive,36,←,left,←,0.7098453000653535,True,10,0,0,0
Y2-S2-244K18,-,22,PS,adaptive,43,↓,down,↓,0.6599160998594016,True,10,0,0,0
Y2-S2-244K18,-,23,PS,adaptive,43,←,left,←,0.6881518000736833,True,10,1,0,0
Y2-S2-244K18,-,24,PS,adaptive,43,↑,up,↑,0.7058267998509109,True,9,1,0,0
Y2-S2-244K18,-,25,PS,adaptive,43,↓,right,→,1.0237929001450539,False,9,-1,1,1
Y2-S2-244K18,-,26,PS,adaptive,49,←,left,←,0.705201500095427,True,10,-1,0,1
Y2-S2-244K18,-,27,PS,adaptive,41,↑,up,↑,0.668379999930039,True,10,-1,0,1
Y2-S2-244K18,-,28,PS,adaptive,37,←,left,←,0.6432560000102967,True,10,1,1,2
Y2-S2-244K18,-,29,PS,adaptive,28,↑,left,←,0.725020700134337,False,9,-1,1,3
Y2-S2-244K18,-,30,PS,adaptive,36,→,right,→,0.6194511998910457,True,10,-1,0,3
Y2-S2-244K18,-,31,PS,adaptive,43,←,left,←,0.5711525999940932,True,10,-1,0,3
Y2-S2-244K18,-,32,PS,adaptive,39,↓,down,↓,0.5949756000190973,True,10,1,1,4
Y2-S2-244K18,-,33,AS,adaptive,43,→,right,→,0.756935799960047,True,20,0,0,0
Y2-S2-244K18,-,34,AS,adaptive,40,↑,up,↑,0.7134055998176336,True,20,0,0,0
Y2-S2-244K18,-,35,AS,adaptive,31,→,right,→,0.677939800079912,True,20,1,0,0
Y2-S2-244K18,-,36,AS,adaptive,45,↑,up,↑,0.6996139001566917,True,19,1,0,0
Y2-S2-244K18,-,37,AS,adaptive,49,→,right,→,0.784331199945882,True,19,1,0,0
Y2-S2-244K18,-,38,AS,adaptive,32,↑,up,↑,0.7584774999413639,True,19,1,0,0
Y2-S2-244K18,-,39,AS,adaptive,46,←,left,←,0.6598684000782669,True,18,1,0,0
Y2-S2-244K18,-,40,AS,adaptive,42,↓,down,↓,0.6451888999436051,True,18,1,0,0
Y2-S2-244K18,-,41,AS,adaptive,35,↑,up,↑,0.6657552001997828,True,18,1,0,0
Y2-S2-244K18,-,42,AS,adaptive,26,↓,down,↓,0.6347263001371175,True,17,1,0,0
Y2-S2-244K18,-,43,AS,adaptive,31,→,right,→,0.6517179999500513,True,17,1,0,0
Y2-S2-244K18,-,44,AS,adaptive,39,↓,down,↓,0.6845097998157144,True,17,1,0,0
Y2-S2-244K18,-,45,AS,adaptive,30,←,left,←,0.6087217999156564,True,16,1,0,0
Y2-S2-244K18,-,46,AS,adaptive,44,→,right,→,0.6036867999937385,True,16,1,0,0
Y2-S2-244K18,-,47,AS,adaptive,40,↑,up,↑,0.7555595999583602,True,16,1,0,0
Y2-S2-244K18,-,48,AS,adaptive,46,←,left,←,0.6434245998971164,True,15,1,0,0
Y2-S2-244K18,-,49,AS,adaptive,28,↓,down,↓,0.6255330999847502,True,15,1,0,0
Y2-S2-244K18,-,50,AS,adaptive,31,→,left,←,1.2192053999751806,False,15,-1,1,1
Y2-S2-244K18,-,51,AS,adaptive,42,↑,up,↑,0.7237685997970402,True,16,-1,0,1
Y2-S2-244K18,-,52,AS,adaptive,38,←,left,←,0.5995162001345307,True,16,-1,0,1
Y2-S2-244K18,-,53,AS,adaptive,34,→,right,→,0.569666099967435,True,16,1,1,2
Y2-S2-244K18,-,54,AS,adaptive,27,↑,up,↑,0.6371863000094891,True,15,1,0,2
Y2-S2-244K18,-,55,AS,adaptive,48,→,left,←,0.5811139999423176,False,15,-1,1,3
Y2-S2-244K18,-,56,AS,adaptive,30,↓,down,↓,0.5661261000204831,True,16,-1,0,3
Y2-S2-244K18,-,57,AS,adaptive,32,←,left,←,0.5198337999172509,True,16,-1,0,3
Y2-S2-244K18,-,58,AS,adaptive,28,↓,down,↓,0.8183272001333535,True,16,1,1,4
Y2-S2-244K18,1,59,AS,intra_train,41,←,left,←,0.6253442000597715,True,22,-,-,-
Y2-S2-244K18,1,60,AS,intra_train,49,↓,down,↓,0.7142009998206049,True,22,-,-,-
Y2-S2-244K18,1,61,AS,intra_train,48,→,right,→,0.6219404998701066,True,22,-,-,-
Y2-S2-244K18,1,62,AS,intra_train,33,↓,down,↓,1.3953313000965863,True,22,-,-,-
Y2-S2-244K18,1,63,AS,intra_train,47,↑,up,↑,0.7651589999441057,True,22,-,-,-
Y2-S2-244K18,1,64,AS,exp,41,↓,down,↓,0.6086844000965357,True,15,0,0,0
Y2-S2-244K18,1,65,AS,exp,46,↑,up,↑,0.8599274000152946,True,15,0,0,0
Y2-S2-244K18,1,66,AS,exp,37,↓,down,↓,0.7674155998975039,True,15,1,0,0
Y2-S2-244K18,1,67,AS,exp,29,←,left,←,0.7485319999977946,True,14,1,0,0
Y2-S2-244K18,1,68,AS,exp,35,↑,up,↑,0.7418545000255108,True,14,1,0,0
Y2-S2-244K18,1,69,AS,exp,43,→,right,→,0.5817162999883294,True,14,1,0,0
Y2-S2-244K18,1,70,AS,exp,31,↑,down,↓,0.7357186998706311,False,13,-1,1,1
Y2-S2-244K18,1,71,AS,exp,45,←,left,←,0.4643421999644488,True,14,-1,0,1
Y2-S2-244K18,1,72,AS,exp,44,→,right,→,0.5155142000876367,True,14,-1,0,1
Y2-S2-244K18,1,73,AS,exp,37,↑,left,←,0.9765629000030458,False,14,-1,0,1
Y2-S2-244K18,1,74,AS,exp,41,→,right,→,0.4994724001735449,True,15,-1,0,1
Y2-S2-244K18,1,75,AS,exp,50,↑,up,↑,1.2721249999012798,True,15,-1,0,1
Y2-S2-244K18,1,76,AS,exp,49,←,left,←,0.5301766998600215,True,15,1,1,2
Y2-S2-244K18,1,77,AS,exp,46,→,up,↑,1.426962599856779,False,14,-1,1,3
Y2-S2-244K18,1,78,AS,exp,48,←,left,←,0.6376731998752803,True,15,-1,0,3
Y2-S2-244K18,1,79,AS,exp,39,↑,up,↑,1.0767435000743717,True,15,-1,0,3
Y2-S2-244K18,1,80,AS,exp,44,→,right,→,0.5411027001682669,True,15,1,1,4
Y2-S2-244K18,1,81,AS,exp,33,←,right,→,0.7936658000107855,False,14,-1,1,5
Y2-S2-244K18,1,82,AS,exp,26,↓,down,↓,0.6940560999792069,True,15,-1,0,5
Y2-S2-244K18,1,83,AS,exp,26,↑,up,↑,0.7278583999723196,True,15,-1,0,5
Y2-S2-244K18,1,84,AS,exp,42,←,left,←,0.7076681000180542,True,15,1,1,6
Y2-S2-244K18,1,85,AS,exp,37,→,left,←,0.7688205000013113,False,14,-1,1,7
Y2-S2-244K18,1,86,AS,exp,35,↑,left,←,0.7057811999693513,False,15,-1,0,7
Y2-S2-244K18,1,87,AS,exp,46,↓,down,↓,0.6384755000472069,True,16,-1,0,7
Y2-S2-244K18,1,88,AS,exp,29,↑,up,↑,0.8545291000045836,True,16,-1,0,7
Y2-S2-244K18,1,89,AS,exp,37,→,right,→,0.5983478999696672,True,16,1,1,8
Y2-S2-244K18,1,90,AS,exp,34,↓,down,↓,0.6374341000337154,True,15,1,0,8
Y2-S2-244K18,1,91,AS,exp,31,↑,up,↑,0.5846158999484032,True,15,1,0,8
Y2-S2-244K18,1,92,AS,exp,46,←,left,←,0.5429954999126494,True,15,1,0,8
Y2-S2-244K18,1,93,AS,exp,31,↑,up,↑,0.8364540999755263,True,14,1,0,8
Y2-S2-244K18,1,94,AS,exp,27,→,right,→,0.6798823999706656,True,14,1,0,8
Y2-S2-244K18,1,95,AS,exp,44,←,left,←,0.5399665001314133,True,14,1,0,8
Y2-S2-244K18,1,96,AS,exp,49,→,right,→,0.5616238999646157,True,13,1,0,8
Y2-S2-244K18,1,97,AS,exp,32,←,right,→,0.5667862000409514,False,13,-1,1,9
Y2-S2-244K18,1,98,AS,exp,33,↑,down,↓,0.9985347997862846,False,14,-1,0,9
Y2-S2-244K18,1,99,AS,exp,49,←,left,←,0.6914176000282168,True,15,-1,0,9
Y2-S2-244K18,1,100,AS,exp,43,↓,down,↓,0.6910349000245333,True,15,-1,0,9
Y2-S2-244K18,1,101,AS,exp,30,←,left,←,0.4900386999361217,True,15,1,1,10
Y2-S2-244K18,1,102,AS,exp,48,↑,up,↑,0.5700858000200242,True,14,1,0,10
Y2-S2-244K18,1,103,AS,exp,29,←,left,←,0.5833900000434369,True,14,1,0,10
Y2-S2-244K18,1,104,AS,exp,40,↑,up,↑,1.177873299922794,True,14,1,0,10
Y2-S2-244K18,1,105,AS,exp,42,→,right,→,0.513385099824518,True,13,1,0,10
Y2-S2-244K18,1,106,AS,exp,33,↓,down,↓,0.5524732999037951,True,13,1,0,10
Y2-S2-244K18,1,107,AS,exp,46,→,right,→,0.5305430002044886,True,13,1,0,10
Y2-S2-244K18,1,108,AS,exp,42,↓,down,↓,0.6143088000826538,True,12,1,0,10
Y2-S2-244K18,1,109,AS,exp,44,↑,right,→,1.0315801000688225,False,12,-1,1,11
Y2-S2-244K18,1,110,AS,exp,36,↓,left,←,0.6525906999595463,False,13,-1,0,11
Y2-S2-244K18,1,111,AS,exp,30,↑,up,↑,0.5557951999362558,True,14,-1,0,11
Y2-S2-244K18,1,112,AS,exp,41,→,right,→,0.6932874000631273,True,14,-1,0,11
Y2-S2-244K18,1,113,AS,exp,50,←,left,←,0.70510119991377,True,14,1,1,12
Y2-S2-244K18,1,114,AS,exp,50,↑,up,↑,0.9180713999085128,True,13,1,0,12
Y2-S2-244K18,1,115,AS,exp,39,↓,down,↓,0.7161640000995249,True,13,1,0,12
Y2-S2-244K18,1,116,AS,exp,36,←,left,←,0.5250127001199871,True,13,1,0,12
Y2-S2-244K18,1,117,AS,exp,30,↑,up,↑,0.5249449999537319,True,12,1,0,12
Y2-S2-244K18,1,118,AS,exp,37,→,right,→,0.6331863000523299,True,12,1,0,12
Y2-S2-244K18,1,119,AS,exp,29,←,left,←,0.5455985001754016,True,12,1,0,12
Y2-S2-244K18,1,120,AS,exp,29,↑,up,↑,0.6701708000618964,True,11,1,0,12
Y2-S2-244K18,1,121,AS,exp,27,←,right,→,0.5701343000400811,False,11,-1,1,13
Y2-S2-244K18,1,122,AS,exp,26,↓,down,↓,0.5698798999655992,True,12,-1,0,13
Y2-S2-244K18,1,123,AS,exp,33,↑,down,↓,0.9542024000547826,False,12,-1,0,13
Y2-S2-244K18,1,124,AS,exp,42,←,left,←,0.5504433999303728,True,13,-1,0,13
Y2-S2-244K18,1,125,AS,exp,29,→,right,→,0.9409252000041306,True,13,-1,0,13
Y2-S2-244K18,1,126,AS,exp,25,↓,down,↓,0.8104413999244571,True,13,1,1,14
Y2-S2-244K18,1,127,AS,exp,48,→,right,→,1.3453917999286205,True,12,1,0,14
Y2-S2-244K18,1,128,AS,exp,37,↓,down,↓,0.6709654999431223,True,12,1,0,14
Y2-S2-244K18,1,129,AS,exp,26,→,right,→,1.6076822001487017,True,12,1,0,14
Y2-S2-244K18,1,130,AS,exp,26,←,left,←,0.5198520000558347,True,11,1,0,14
Y2-S2-244K18,1,131,AS,exp,31,→,left,←,0.7382051998283714,False,11,-1,1,15
Y2-S2-244K18,1,132,AS,exp,43,↑,right,→,1.526700699934736,False,12,-1,0,15
Y2-S2-244K18,1,133,AS,exp,48,→,right,→,1.618070599855855,True,13,-1,0,15
Y2-S2-244K18,1,134,AS,exp,37,↓,up,↑,0.9639320001006126,False,13,-1,0,15
Y2-S2-244K18,1,135,AS,exp,42,→,right,→,0.61200139997527,True,14,-1,0,15
Y2-S2-244K18,1,136,AS,exp,37,←,left,←,0.6372763998806477,True,14,-1,0,15
Y2-S2-244K18,1,137,AS,exp,34,↓,left,←,0.8132005999796093,False,14,-1,0,15
Y2-S2-244K18,1,138,AS,exp,49,→,right,→,0.7432130000088364,True,15,-1,0,15
Y2-S2-244K18,1,139,AS,exp,34,↑,up,↑,0.7971067000180483,True,15,-1,0,15
Y2-S2-244K18,1,140,AS,exp,50,→,right,→,0.5247067001182586,True,15,1,1,16
Y2-S2-244K18,2,141,PS,intra_train,36,←,left,←,0.972309899982065,True,13,-,-,-
Y2-S2-244K18,2,142,PS,intra_train,25,↓,down,↓,0.7727375999093056,True,13,-,-,-
Y2-S2-244K18,2,143,PS,intra_train,34,↑,up,↑,0.5838895998895168,True,13,-,-,-
Y2-S2-244K18,2,144,PS,intra_train,29,→,right,→,0.5839672998990864,True,13,-,-,-
Y2-S2-244K18,2,145,PS,intra_train,48,↓,down,↓,0.562756200088188,True,13,-,-,-
Y2-S2-244K18,2,146,PS,exp,40,←,left,←,0.5124269998632371,True,9,0,0,0
Y2-S2-244K18,2,147,PS,exp,42,↓,up,↑,1.0730901998467743,False,9,-1,0,0
Y2-S2-244K18,2,148,PS,exp,41,←,left,←,0.5546329999342561,True,10,-1,0,0
Y2-S2-244K18,2,149,PS,exp,50,→,right,→,0.641180400038138,True,10,-1,0,0
Y2-S2-244K18,2,150,PS,exp,29,↑,up,↑,0.5878745000809431,True,10,1,1,1
Y2-S2-244K18,2,151,PS,exp,45,←,left,←,0.5578983000013977,True,9,1,0,1
Y2-S2-244K18,2,152,PS,exp,42,↑,up,↑,0.6353069001343101,True,9,1,0,1
Y2-S2-244K18,2,153,PS,exp,25,→,up,↑,0.8050677001010627,False,9,-1,1,2
Y2-S2-244K18,2,154,PS,exp,43,↑,up,↑,0.5380569999106228,True,10,-1,0,2
Y2-S2-244K18,2,155,PS,exp,35,→,right,→,0.500575500074774,True,10,-1,0,2
Y2-S2-244K18,2,156,PS,exp,26,↑,up,↑,0.5809216999914497,True,10,1,1,3
Y2-S2-244K18,2,157,PS,exp,27,↓,up,↑,1.2190300999209285,False,9,-1,1,4
Y2-S2-244K18,2,158,PS,exp,28,→,right,→,0.6513181000482291,True,10,-1,0,4
Y2-S2-244K18,2,159,PS,exp,35,←,left,←,0.3984346999786794,True,10,-1,0,4
Y2-S2-244K18,2,160,PS,exp,31,→,left,←,0.7540561999194324,False,10,-1,0,4
Y2-S2-244K18,2,161,PS,exp,25,↓,down,↓,0.5739162000827491,True,11,-1,0,4
Y2-S2-244K18,2,162,PS,exp,26,→,right,→,0.49940799991600215,True,11,-1,0,4
Y2-S2-244K18,2,163,PS,exp,25,↑,up,↑,0.5579189001582563,True,11,1,1,5
Y2-S2-244K18,2,164,PS,exp,31,←,left,←,0.42277319985441864,True,10,1,0,5
Y2-S2-244K18,2,165,PS,exp,25,→,right,→,0.4372469999361783,True,10,1,0,5
Y2-S2-244K18,2,166,PS,exp,42,↑,up,↑,1.0262561000417918,True,10,1,0,5
Y2-S2-244K18,2,167,PS,exp,35,↓,left,←,1.4100574001204222,False,9,-1,1,6
Y2-S2-244K18,2,168,PS,exp,29,→,right,→,0.4470647000707686,True,10,-1,0,6
Y2-S2-244K18,2,169,PS,exp,44,←,left,←,0.4404413001611829,True,10,-1,0,6
Y2-S2-244K18,2,170,PS,exp,47,↓,left,←,0.7164666999597102,False,10,-1,0,6
Y2-S2-244K18,2,171,PS,exp,50,←,left,←,0.7854459001682699,True,11,-1,0,6
Y2-S2-244K18,2,172,PS,exp,47,↓,down,↓,0.620884400093928,True,11,-1,0,6
Y2-S2-244K18,2,173,PS,exp,28,→,left,←,0.5562107001896948,False,11,-1,0,6
Y2-S2-244K18,2,174,PS,exp,43,↑,up,↑,0.6842227000743151,True,12,-1,0,6
Y2-S2-244K18,2,175,PS,exp,31,←,left,←,0.5779979000799358,True,12,-1,0,6
Y2-S2-244K18,2,176,PS,exp,33,↓,down,↓,0.548281199997291,True,12,1,1,7
Y2-S2-244K18,2,177,PS,exp,40,→,right,→,0.528577399905771,True,11,1,0,7
Y2-S2-244K18,2,178,PS,exp,34,↑,up,↑,1.3497931000310928,True,11,1,0,7
Y2-S2-244K18,2,179,PS,exp,38,←,left,←,0.5493230998981744,True,11,1,0,7
Y2-S2-244K18,2,180,PS,exp,49,↓,down,↓,0.5721504001412541,True,10,1,0,7
Y2-S2-244K18,2,181,PS,exp,45,←,left,←,0.41064250003546476,True,10,1,0,7
Y2-S2-244K18,2,182,PS,exp,35,↓,down,↓,0.540634399978444,True,10,1,0,7
Y2-S2-244K18,2,183,PS,exp,44,→,right,→,0.5727808000519872,True,9,1,0,7
Y2-S2-244K18,2,184,PS,exp,40,↓,down,↓,0.4894385999068618,True,9,1,0,7
Y2-S2-244K18,2,185,PS,exp,29,↑,up,↑,0.626327499980107,True,9,1,0,7
Y2-S2-244K18,2,186,PS,exp,30,←,left,←,0.45687459991313517,True,8,1,0,7
Y2-S2-244K18,2,187,PS,exp,30,↑,left,←,0.7233957999851555,False,8,-1,1,8
Y2-S2-244K18,2,188,PS,exp,49,←,left,←,0.716549800010398,True,9,-1,0,8
Y2-S2-244K18,2,189,PS,exp,36,↓,down,↓,0.5271562999114394,True,9,-1,0,8
Y2-S2-244K18,2,190,PS,exp,29,↑,right,→,0.579832199960947,False,9,-1,0,8
Y2-S2-244K18,2,191,PS,exp,43,↓,down,↓,0.48411260009743273,True,10,-1,0,8
Y2-S2-244K18,2,192,PS,exp,32,↑,up,↑,0.6954834000207484,True,10,-1,0,8
Y2-S2-244K18,2,193,PS,exp,47,↓,down,↓,0.42947139986790717,True,10,1,1,9
Y2-S2-244K18,2,194,PS,exp,44,↑,down,↓,0.7791989000979811,False,9,-1,1,10
Y2-S2-244K18,2,195,PS,exp,43,←,down,↓,0.7145924000069499,False,10,-1,0,10
Y2-S2-244K18,2,196,PS,exp,27,↓,down,↓,0.5221464999485761,True,11,-1,0,10
Y2-S2-244K18,2,197,PS,exp,45,↑,left,←,0.6278333000373095,False,11,-1,0,10
Y2-S2-244K18,2,198,PS,exp,35,→,right,→,0.5480203998740762,True,12,-1,0,10
Y2-S2-244K18,2,199,PS,exp,26,←,left,←,0.5746054998598993,True,12,-1,0,10
Y2-S2-244K18,2,200,PS,exp,49,↓,down,↓,0.5405528999399394,True,12,1,1,11
Y2-S2-244K18,2,201,PS,exp,50,→,right,→,0.5011358000338078,True,11,1,0,11
Y2-S2-244K18,2,202,PS,exp,27,↓,right,→,1.4660742001142353,False,11,-1,1,12
Y2-S2-244K18,2,203,PS,exp,35,↑,up,↑,0.6606835999991745,True,12,-1,0,12
Y2-S2-244K18,2,204,PS,exp,46,→,right,→,0.6754880000371486,True,12,-1,0,12
Y2-S2-244K18,2,205,PS,exp,49,↑,up,↑,0.49196560005657375,True,12,1,1,13
Y2-S2-244K18,2,206,PS,exp,47,→,right,→,0.5758689998183399,True,11,1,0,13
Y2-S2-244K18,2,207,PS,exp,44,↓,down,↓,0.5823628001380712,True,11,1,0,13
Y2-S2-244K18,2,208,PS,exp,49,←,left,←,0.4345545000396669,True,11,1,0,13
Y2-S2-244K18,2,209,PS,exp,38,↓,down,↓,0.6337574999779463,True,10,1,0,13
Y2-S2-244K18,2,210,PS,exp,30,↑,up,↑,0.656405600020662,True,10,1,0,13
Y2-S2-244K18,2,211,PS,exp,29,←,left,←,0.4555915999226272,True,10,1,0,13
Y2-S2-244K18,2,212,PS,exp,41,↑,up,↑,0.6501406999304891,True,9,1,0,13
Y2-S2-244K18,2,213,PS,exp,44,←,left,←,0.45406850008293986,True,9,1,0,13
Y2-S2-244K18,2,214,PS,exp,43,→,right,→,0.5447315000928938,True,9,1,0,13
Y2-S2-244K18,2,215,PS,exp,37,↓,down,↓,0.5433527000714093,True,8,1,0,13
Y2-S2-244K18,2,216,PS,exp,39,→,right,→,0.5590997999534011,True,8,1,0,13
Y2-S2-244K18,2,217,PS,exp,48,←,left,←,0.3218223999720067,True,8,1,0,13
Y2-S2-244K18,2,218,PS,exp,33,↓,down,↓,0.47444749996066093,True,7,1,0,13
Y2-S2-244K18,2,219,PS,exp,34,→,right,→,0.556303899968043,True,7,1,0,13
Y2-S2-244K18,2,220,PS,exp,40,↑,up,↑,0.6475474000908434,True,7,1,0,13
Y2-S2-244K18,2,221,PS,exp,27,←,left,←,0.530363199999556,True,6,1,0,13
Y2-S2-244K18,2,222,PS,exp,37,↑,up,↑,0.5843770999927074,True,6,1,0,13
Y2-S2-244K18,2,223,PS,exp,49,→,left,←,0.5578065000008792,False,6,-1,1,14
Y2-S2-244K18,2,224,PS,exp,33,↑,up,↑,0.6003145999275148,True,7,-1,0,14
Y2-S2-244K18,2,225,PS,exp,26,→,left,←,0.4466641000472009,False,7,-1,0,14
Y2-S2-244K18,2,226,PS,exp,38,↑,up,↑,0.4803487998433411,True,8,-1,0,14
Y2-S2-244K18,2,227,PS,exp,46,↓,right,→,0.8728851999621838,False,8,-1,0,14
Y2-S2-244K18,2,228,PS,exp,36,↑,left,←,0.692140500061214,False,9,-1,0,14
Y2-S2-244K18,2,229,PS,exp,44,↓,down,↓,0.5522857001051307,True,10,-1,0,14
Y2-S2-244K18,2,230,PS,exp,43,←,left,←,0.3783514001406729,True,10,-1,0,14
Y2-S2-244K18,2,231,PS,exp,28,→,right,→,0.4710240000858903,True,10,1,1,15
Y2-S2-244K18,2,232,PS,exp,32,↑,up,↑,0.5507247999776155,True,9,1,0,15
Y2-S2-244K18,2,233,PS,exp,26,↓,down,↓,0.5590625999029726,True,9,1,0,15
Y2-S2-244K18,2,234,PS,exp,27,↑,up,↑,0.52788219996728,True,9,1,0,15
Y2-S2-244K18,2,235,PS,exp,40,←,left,←,0.4435783999506384,True,8,1,0,15
Y2-S2-244K18,2,236,PS,exp,41,↑,up,↑,0.5384833000134677,True,8,1,0,15
Y2-S2-244K18,2,237,PS,exp,33,→,left,←,0.6298297999892384,False,8,-1,1,16
Y2-S2-244K18,3,238,PS,intra_train,37,↑,up,↑,0.9708731998689473,True,13,-,-,-
Y2-S2-244K18,3,239,PS,intra_train,36,→,right,→,0.5786887998692691,True,13,-,-,-
Y2-S2-244K18,3,240,PS,intra_train,34,←,right,→,0.6896158000454307,False,13,-,-,-
Y2-S2-244K18,3,241,PS,intra_train,25,↑,left,←,0.7500032999087125,False,13,-,-,-
Y2-S2-244K18,3,242,PS,intra_train,29,→,right,→,0.7829435002058744,True,13,-,-,-
Y2-S2-244K18,3,243,PS,exp,27,↓,down,↓,0.5983114000409842,True,9,0,0,0
Y2-S2-244K18,3,244,PS,exp,29,←,left,←,0.6179021000862122,True,9,0,0,0
Y2-S2-244K18,3,245,PS,exp,34,↓,down,↓,0.6184344000648707,True,9,1,0,0
Y2-S2-244K18,3,246,PS,exp,43,↑,up,↑,0.5993506999220699,True,8,1,0,0
Y2-S2-244K18,3,247,PS,exp,42,↓,down,↓,0.624415900092572,True,8,1,0,0
Y2-S2-244K18,3,248,PS,exp,34,→,right,→,0.5123872999101877,True,8,1,0,0
Y2-S2-244K18,3,249,PS,exp,35,←,down,↓,0.9669464000035077,False,7,-1,1,1
Y2-S2-244K18,3,250,PS,exp,45,↑,up,↑,0.6445126999169588,True,8,-1,0,1
Y2-S2-244K18,3,251,PS,exp,27,←,right,→,0.6015524999238551,False,8,-1,0,1
Y2-S2-244K18,3,252,PS,exp,48,↓,down,↓,0.43054139986634254,True,9,-1,0,1
Y2-S2-244K18,3,253,PS,exp,37,↑,up,↑,0.9895417001098394,True,9,-1,0,1
Y2-S2-244K18,3,254,PS,exp,25,↓,down,↓,0.5052461000159383,True,9,1,1,2
Y2-S2-244K18,3,255,PS,exp,47,↑,right,→,0.576151299988851,False,8,-1,1,3
Y2-S2-244K18,3,256,PS,exp,44,←,left,←,0.37626689998432994,True,9,-1,0,3
Y2-S2-244K18,3,257,PS,exp,47,→,left,←,0.5174515000544488,False,9,-1,0,3
Y2-S2-244K18,3,258,PS,exp,50,↑,left,←,0.693530400050804,False,10,-1,0,3
Y2-S2-244K18,3,259,PS,exp,43,→,left,←,0.6579215000383556,False,11,-1,0,3
Y2-S2-244K18,3,260,PS,exp,32,←,left,←,0.5085320000071079,True,12,-1,0,3
Y2-S2-244K18,3,261,PS,exp,37,→,right,→,0.4862613999284804,True,12,-1,0,3
Y2-S2-244K18,3,262,PS,exp,48,↑,left,←,0.7097761000040919,False,12,-1,0,3
Y2-S2-244K18,3,263,PS,exp,37,←,left,←,0.6434299999382347,True,13,-1,0,3
Y2-S2-244K18,3,264,PS,exp,27,↓,left,←,0.40273829991929233,False,13,-1,0,3
Y2-S2-244K18,3,265,PS,exp,45,→,right,→,0.5284225000068545,True,14,-1,0,3
Y2-S2-244K18,3,266,PS,exp,46,↑,left,←,0.43218220002017915,False,14,-1,0,3
Y2-S2-244K18,3,267,PS,exp,44,→,right,→,0.9014419999439269,True,15,-1,0,3
Y2-S2-244K18,3,268,PS,exp,29,←,left,←,0.6749257000628859,True,15,-1,0,3
Y2-S2-244K18,3,269,PS,exp,48,↓,down,↓,0.4612920000217855,True,15,1,1,4
Y2-S2-244K18,3,270,PS,exp,32,→,right,→,0.6166446001734585,True,14,1,0,4
Y2-S2-244K18,3,271,PS,exp,25,↓,down,↓,0.4657295998185873,True,14,1,0,4
Y2-S2-244K18,3,272,PS,exp,33,→,right,→,0.4617908999789506,True,14,1,0,4
Y2-S2-244K18,3,273,PS,exp,27,↑,up,↑,0.5464228999335319,True,13,1,0,4
Y2-S2-244K18,3,274,PS,exp,34,→,right,→,0.5043405999895185,True,13,1,0,4
Y2-S2-244K18,3,275,PS,exp,33,↑,left,←,0.6168380999006331,False,13,-1,1,5
Y2-S2-244K18,3,276,PS,exp,34,←,left,←,0.4715830001514405,True,14,-1,0,5
Y2-S2-244K18,3,277,PS,exp,40,↑,up,↑,0.613813400035724,True,14,-1,0,5
Y2-S2-244K18,3,278,PS,exp,42,→,right,→,0.58261219994165,True,14,1,1,6
Y2-S2-244K18,3,279,PS,exp,48,↓,down,↓,0.46447580005042255,True,13,1,0,6
Y2-S2-244K18,3,280,PS,exp,26,↑,up,↑,0.5467207999899983,True,13,1,0,6
Y2-S2-244K18,3,281,PS,exp,37,↓,down,↓,0.4778514001518488,True,13,1,0,6
Y2-S2-244K18,3,282,PS,exp,30,↑,up,↑,0.5164647998753935,True,12,1,0,6
Y2-S2-244K18,3,283,PS,exp,34,→,right,→,0.4643610001076013,True,12,1,0,6
Y2-S2-244K18,3,284,PS,exp,37,←,left,←,0.46915280004031956,True,12,1,0,6
Y2-S2-244K18,3,285,PS,exp,25,↓,up,↑,1.4018856999464333,False,11,-1,1,7
Y2-S2-244K18,3,286,PS,exp,27,←,left,←,0.446019200142473,True,12,-1,0,7
Y2-S2-244K18,3,287,PS,exp,38,↑,up,↑,0.4710283000022173,True,12,-1,0,7
Y2-S2-244K18,3,288,PS,exp,42,↓,down,↓,0.5250554999802262,True,12,1,1,8
Y2-S2-244K18,3,289,PS,exp,27,↑,up,↑,0.46692300005815923,True,11,1,0,8
Y2-S2-244K18,3,290,PS,exp,25,←,left,←,0.39134859992191195,True,11,1,0,8
Y2-S2-244K18,3,291,PS,exp,29,↑,up,↑,0.5107035001274198,True,11,1,0,8
Y2-S2-244K18,3,292,PS,exp,42,↓,down,↓,0.5091289000120014,True,10,1,0,8
Y2-S2-244K18,3,293,PS,exp,46,←,left,←,0.4616958999540657,True,10,1,0,8
Y2-S2-244K18,3,294,PS,exp,37,→,right,→,0.6639754998032004,True,10,1,0,8
Y2-S2-244K18,3,295,PS,exp,34,↑,left,←,0.5939841000363231,False,9,-1,1,9
Y2-S2-244K18,3,296,PS,exp,29,↓,down,↓,0.501024299999699,True,10,-1,0,9
Y2-S2-244K18,3,297,PS,exp,47,→,right,→,0.5961086999159306,True,10,-1,0,9
Y2-S2-244K18,3,298,PS,exp,26,←,left,←,0.41189470002427697,True,10,1,1,10
Y2-S2-244K18,3,299,PS,exp,35,→,right,→,0.8005206000525504,True,9,1,0,10
Y2-S2-244K18,3,300,PS,exp,43,↑,up,↑,0.6408782000653446,True,9,1,0,10
Y2-S2-244K18,3,301,PS,exp,41,→,left,←,0.6036383998580277,False,9,-1,1,11
Y2-S2-244K18,3,302,PS,exp,29,↓,right,→,0.9194839000701904,False,10,-1,0,11
Y2-S2-244K18,3,303,PS,exp,48,←,left,←,0.4293776999693364,True,11,-1,0,11
Y2-S2-244K18,3,304,PS,exp,40,↑,up,↑,0.5122070999350399,True,11,-1,0,11
Y2-S2-244K18,3,305,PS,exp,34,↓,down,↓,0.5927904001437128,True,11,1,1,12
Y2-S2-244K18,3,306,PS,exp,47,↑,right,→,0.7338849999941885,False,10,-1,1,13
Y2-S2-244K18,3,307,PS,exp,31,→,right,→,0.5225851000286639,True,11,-1,0,13
Y2-S2-244K18,3,308,PS,exp,44,↑,up,↑,0.5504550999030471,True,11,-1,0,13
Y2-S2-244K18,3,309,PS,exp,48,↓,left,←,0.6198582998476923,False,11,-1,0,13
Y2-S2-244K18,3,310,PS,exp,25,→,right,→,0.4945688000880182,True,12,-1,0,13
Y2-S2-244K18,3,311,PS,exp,36,↓,down,↓,0.5476168000604957,True,12,-1,0,13
Y2-S2-244K18,3,312,PS,exp,32,→,left,←,0.5276173001620919,False,12,-1,0,13
Y2-S2-244K18,3,313,PS,exp,33,↑,up,↑,0.5258453001733869,True,13,-1,0,13
Y2-S2-244K18,3,314,PS,exp,46,→,right,→,0.489138700067997,True,13,-1,0,13
Y2-S2-244K18,3,315,PS,exp,46,↓,down,↓,0.6412235999014229,True,13,1,1,14
Y2-S2-244K18,3,316,PS,exp,29,↑,up,↑,0.5146671000402421,True,12,1,0,14
Y2-S2-244K18,3,317,PS,exp,37,↓,down,↓,0.583026299951598,True,12,1,0,14
Y2-S2-244K18,3,318,PS,exp,34,→,right,→,0.4432445000857115,True,12,1,0,14
Y2-S2-244K18,3,319,PS,exp,44,↓,down,↓,0.4919588998891413,True,11,1,0,14
Y2-S2-244K18,3,320,PS,exp,43,←,left,←,0.42393260006792843,True,11,1,0,14
Y2-S2-244K18,3,321,PS,exp,26,→,right,→,0.6336054999846965,True,11,1,0,14
Y2-S2-244K18,3,322,PS,exp,33,↓,down,↓,0.5371334999799728,True,10,1,0,14
Y2-S2-244K18,3,323,PS,exp,50,↑,up,↑,0.5458604998420924,True,10,1,0,14
Y2-S2-244K18,3,324,PS,exp,26,→,right,→,0.500316500198096,True,10,1,0,14
Y2-S2-244K18,3,325,PS,exp,33,↑,up,↑,0.4864008999429643,True,9,1,0,14
Y2-S2-244K18,3,326,PS,exp,25,←,left,←,0.4576954999938607,True,9,1,0,14
Y2-S2-244K18,3,327,PS,exp,25,↓,right,→,0.6466904000844806,False,9,-1,1,15
Y2-S2-244K18,3,328,PS,exp,26,↑,up,↑,0.465489000082016,True,10,-1,0,15
Y2-S2-244K18,3,329,PS,exp,25,→,left,←,0.8016096998471767,False,10,-1,0,15
Y2-S2-244K18,3,330,PS,exp,37,↑,up,↑,0.49495690013282,True,11,-1,0,15
Y2-S2-244K18,3,331,PS,exp,44,←,left,←,0.47235639998689294,True,11,-1,0,15
Y2-S2-244K18,3,332,PS,exp,42,↑,left,←,0.7573267999105155,False,11,-1,0,15
Y2-S2-244K18,3,333,PS,exp,47,→,left,←,0.7626883001066744,False,12,-1,0,15
Y2-S2-244K18,3,334,PS,exp,28,←,left,←,0.5442707999609411,True,13,-1,0,15
Y2-S2-244K18,3,335,PS,exp,50,↓,down,↓,0.5214506997726858,True,13,-1,0,15
Y2-S2-244K18,3,336,PS,exp,44,→,right,→,0.502131000161171,True,13,1,1,16
Y2-S2-244K18,4,337,AS,intra_train,29,↑,up,↑,0.8864140000659972,True,22,-,-,-
Y2-S2-244K18,4,338,AS,intra_train,44,→,right,→,0.6530210999771953,True,22,-,-,-
Y2-S2-244K18,4,339,AS,intra_train,41,↓,down,↓,0.622325399890542,True,22,-,-,-
Y2-S2-244K18,4,340,AS,intra_train,36,↑,up,↑,0.8197290000971407,True,22,-,-,-
Y2-S2-244K18,4,341,AS,intra_train,45,→,right,→,0.6105764000676572,True,22,-,-,-
Y2-S2-244K18,4,342,AS,exp,48,↓,down,↓,0.6469678999856114,True,15,0,0,0
Y2-S2-244K18,4,343,AS,exp,29,↑,down,↓,0.6723297999706119,False,15,-1,0,0
Y2-S2-244K18,4,344,AS,exp,43,→,right,→,0.5401884000748396,True,16,-1,0,0
Y2-S2-244K18,4,345,AS,exp,38,←,left,←,0.5900627998635173,True,16,-1,0,0
Y2-S2-244K18,4,346,AS,exp,30,→,right,→,1.0103898998349905,True,16,1,1,1
Y2-S2-244K18,4,347,AS,exp,31,←,left,←,0.5489563001319766,True,15,1,0,1
Y2-S2-244K18,4,348,AS,exp,38,→,right,→,0.48225590004585683,True,15,1,0,1
Y2-S2-244K18,4,349,AS,exp,38,↑,up,↑,0.6277511001098901,True,15,1,0,1
Y2-S2-244K18,4,350,AS,exp,35,↓,up,↑,0.9209223999641836,False,14,-1,1,2
Y2-S2-244K18,4,351,AS,exp,43,↑,up,↑,0.7353169999551028,True,15,-1,0,2
Y2-S2-244K18,4,352,AS,exp,34,→,right,→,0.578486500075087,True,15,-1,0,2
Y2-S2-244K18,4,353,AS,exp,44,←,left,←,0.5534153000917286,True,15,1,1,3
Y2-S2-244K18,4,354,AS,exp,33,↓,down,↓,0.6000775001011789,True,14,1,0,3
Y2-S2-244K18,4,355,AS,exp,34,↑,up,↑,0.7524985999334604,True,14,1,0,3
Y2-S2-244K18,4,356,AS,exp,38,→,right,→,0.5459911001380533,True,14,1,0,3
Y2-S2-244K18,4,357,AS,exp,41,↓,up,↑,0.8570741000585258,False,13,-1,1,4
Y2-S2-244K18,4,358,AS,exp,25,↑,up,↑,0.45558389998041093,True,14,-1,0,4
Y2-S2-244K18,4,359,AS,exp,44,←,left,←,1.0543959001079202,True,14,-1,0,4
Y2-S2-244K18,4,360,AS,exp,49,↓,down,↓,0.6227124000433832,True,14,1,1,5
Y2-S2-244K18,4,361,AS,exp,25,↑,up,↑,0.6898151000496,True,13,1,0,5
Y2-S2-244K18,4,362,AS,exp,31,→,right,→,0.6307562999427319,True,13,1,0,5
Y2-S2-244K18,4,363,AS,exp,38,↓,down,↓,0.5003624998498708,True,13,1,0,5
Y2-S2-244K18,4,364,AS,exp,27,←,down,↓,0.864242099924013,False,12,-1,1,6
Y2-S2-244K18,4,365,AS,exp,43,↓,down,↓,0.49006300000473857,True,13,-1,0,6
Y2-S2-244K18,4,366,AS,exp,27,←,left,←,0.563459699973464,True,13,-1,0,6
Y2-S2-244K18,4,367,AS,exp,40,↓,down,↓,0.6426235001999885,True,13,1,1,7
Y2-S2-244K18,4,368,AS,exp,32,→,left,←,0.5724161001853645,False,12,-1,1,8
Y2-S2-244K18,4,369,AS,exp,44,↑,up,↑,0.5693324999883771,True,13,-1,0,8
Y2-S2-244K18,4,370,AS,exp,36,←,left,←,0.5822479000780731,True,13,-1,0,8
Y2-S2-244K18,4,371,AS,exp,48,↓,down,↓,0.5277295000851154,True,13,1,1,9
Y2-S2-244K18,4,372,AS,exp,43,↑,up,↑,0.8339066000189632,True,12,1,0,9
Y2-S2-244K18,4,373,AS,exp,26,↓,down,↓,0.6804402000270784,True,12,1,0,9
Y2-S2-244K18,4,374,AS,exp,41,←,left,←,0.519065999891609,True,12,1,0,9
Y2-S2-244K18,4,375,AS,exp,32,↓,down,↓,0.7753761999774724,True,11,1,0,9
Y2-S2-244K18,4,376,AS,exp,50,↑,left,←,0.5807321998290718,False,11,-1,1,10
Y2-S2-244K18,4,377,AS,exp,32,←,left,←,0.5221052998676896,True,12,-1,0,10
Y2-S2-244K18,4,378,AS,exp,47,→,right,→,0.4543704001698643,True,12,-1,0,10
Y2-S2-244K18,4,379,AS,exp,38,↓,left,←,0.3933387000579387,False,12,-1,0,10
Y2-S2-244K18,4,380,AS,exp,36,↑,up,↑,0.5191258999984711,True,13,-1,0,10
Y2-S2-244K18,4,381,AS,exp,48,↓,left,←,0.4835013998672366,False,13,-1,0,10
Y2-S2-244K18,4,382,AS,exp,25,→,right,→,0.46178020001389086,True,14,-1,0,10
Y2-S2-244K18,4,383,AS,exp,37,←,left,←,0.5081394999288023,True,14,-1,0,10
Y2-S2-244K18,4,384,AS,exp,38,→,right,→,0.587677399860695,True,14,1,1,11
Y2-S2-244K18,4,385,AS,exp,34,↓,down,↓,0.6310584000311792,True,13,1,0,11
Y2-S2-244K18,4,386,AS,exp,27,→,down,↓,0.8483446999453008,False,13,-1,1,12
Y2-S2-244K18,4,387,AS,exp,28,↑,up,↑,0.6238645000848919,True,14,-1,0,12
Y2-S2-244K18,4,388,AS,exp,39,←,left,←,0.5352515999693424,True,14,-1,0,12
Y2-S2-244K18,4,389,AS,exp,34,↓,up,↑,0.9949366999790072,False,14,-1,0,12
Y2-S2-244K18,4,390,AS,exp,32,↑,up,↑,0.6403504000045359,True,15,-1,0,12
Y2-S2-244K18,4,391,AS,exp,46,↓,down,↓,0.5292851000558585,True,15,-1,0,12
Y2-S2-244K18,4,392,AS,exp,49,→,left,←,0.53876330005005,False,15,-1,0,12
Y2-S2-244K18,4,393,AS,exp,42,↑,up,↑,0.6875222001690418,True,16,-1,0,12
Y2-S2-244K18,4,394,AS,exp,50,↓,down,↓,0.7376873998437077,True,16,-1,0,12
Y2-S2-244K18,4,395,AS,exp,44,↑,up,↑,0.5116189001128078,True,16,1,1,13
Y2-S2-244K18,4,396,AS,exp,48,↓,down,↓,0.5844516998622566,True,15,1,0,13
Y2-S2-244K18,4,397,AS,exp,32,←,left,←,0.8423635999206454,True,15,1,0,13
Y2-S2-244K18,4,398,AS,exp,42,→,left,←,0.7697492998559028,False,15,-1,1,14
Y2-S2-244K18,4,399,AS,exp,30,↑,up,↑,0.6981221998576075,True,16,-1,0,14
Y2-S2-244K18,4,400,AS,exp,41,←,left,←,0.5932068999391049,True,16,-1,0,14
Y2-S2-244K18,4,401,AS,exp,38,↑,up,↑,0.4441708999220282,True,16,1,1,15
Y2-S2-244K18,4,402,AS,exp,35,←,left,←,0.5448209000751376,True,15,1,0,15
Y2-S2-244K18,4,403,AS,exp,30,↑,left,←,0.9890988999977708,False,15,-1,1,16
Y2-S2-244K18,5,404,AS,intra_train,34,↓,down,↓,0.596271000104025,True,22,-,-,-
Y2-S2-244K18,5,405,AS,intra_train,48,→,right,→,1.3192692999728024,True,22,-,-,-
Y2-S2-244K18,5,406,AS,intra_train,26,↑,up,↑,0.7210566999856383,True,22,-,-,-
Y2-S2-244K18,5,407,AS,intra_train,34,←,left,←,0.6068356998730451,True,22,-,-,-
Y2-S2-244K18,5,408,AS,intra_train,37,↑,up,↑,0.5493089999072254,True,22,-,-,-
Y2-S2-244K18,5,409,AS,exp,30,↓,up,↑,1.0883448999375105,False,15,-1,0,0
Y2-S2-244K18,5,410,AS,exp,45,↑,up,↑,0.5960313999094069,True,16,-1,0,0
Y2-S2-244K18,5,411,AS,exp,50,→,right,→,0.6580592999234796,True,16,-1,0,0
Y2-S2-244K18,5,412,AS,exp,45,↓,down,↓,0.5989804998971522,True,16,1,1,1
Y2-S2-244K18,5,413,AS,exp,29,→,right,→,0.8075798000209033,True,15,1,0,1
Y2-S2-244K18,5,414,AS,exp,40,←,left,←,0.6595156998373568,True,15,1,0,1
Y2-S2-244K18,5,415,AS,exp,31,→,left,←,0.7545741000212729,False,15,-1,1,2
Y2-S2-244K18,5,416,AS,exp,36,↑,up,↑,0.7584724000189453,True,16,-1,0,2
Y2-S2-244K18,5,417,AS,exp,43,←,left,←,0.7826072000898421,True,16,-1,0,2
Y2-S2-244K18,5,418,AS,exp,42,↓,down,↓,0.6333827001508325,True,16,1,1,3
Y2-S2-244K18,5,419,AS,exp,42,←,left,←,0.6266535001341254,True,15,1,0,3
Y2-S2-244K18,5,420,AS,exp,48,→,right,→,0.4696444000583142,True,15,1,0,3
Y2-S2-244K18,5,421,AS,exp,48,←,right,→,0.5163547000847757,False,15,-1,1,4
Y2-S2-244K18,5,422,AS,exp,25,→,right,→,0.7379587998148054,True,16,-1,0,4
Y2-S2-244K18,5,423,AS,exp,46,↓,down,↓,0.6757203999441117,True,16,-1,0,4
Y2-S2-244K18,5,424,AS,exp,28,←,left,←,0.6726218999829143,True,16,1,1,5
Y2-S2-244K18,5,425,AS,exp,43,↑,up,↑,0.6927680000662804,True,15,1,0,5
Y2-S2-244K18,5,426,AS,exp,45,←,left,←,0.6478458000347018,True,15,1,0,5
Y2-S2-244K18,5,427,AS,exp,36,→,right,→,0.5751777999103069,True,15,1,0,5
Y2-S2-244K18,5,428,AS,exp,30,↑,up,↑,0.6048703000415117,True,14,1,0,5
Y2-S2-244K18,5,429,AS,exp,36,←,left,←,0.551452600164339,True,14,1,0,5
Y2-S2-244K18,5,430,AS,exp,47,→,right,→,0.737349099945277,True,14,1,0,5
Y2-S2-244K18,5,431,AS,exp,43,←,left,←,0.49137189984321594,True,13,1,0,5
Y2-S2-244K18,5,432,AS,exp,37,↓,down,↓,0.7289280998520553,True,13,1,0,5
Y2-S2-244K18,5,433,AS,exp,26,←,left,←,0.502426799852401,True,13,1,0,5
Y2-S2-244K18,5,434,AS,exp,33,↑,up,↑,0.7475411999039352,True,12,1,0,5
Y2-S2-244K18,5,435,AS,exp,27,↓,left,←,0.6727276998572052,False,12,-1,1,6
Y2-S2-244K18,5,436,AS,exp,26,↑,up,↑,0.7042203000746667,True,13,-1,0,6
Y2-S2-244K18,5,437,AS,exp,27,→,right,→,0.5920673001091927,True,13,-1,0,6
Y2-S2-244K18,5,438,AS,exp,35,←,up,↑,0.8864462000783533,False,13,-1,0,6
Y2-S2-244K18,5,439,AS,exp,45,↑,left,←,0.5905289999209344,False,14,-1,0,6
Y2-S2-244K18,5,440,AS,exp,38,↓,down,↓,0.7333063997793943,True,15,-1,0,6
Y2-S2-244K18,5,441,AS,exp,50,↑,up,↑,0.6285594999790192,True,15,-1,0,6
Y2-S2-244K18,5,442,AS,exp,42,↓,down,↓,0.5851652000565082,True,15,1,1,7
Y2-S2-244K18,5,443,AS,exp,41,↑,up,↑,0.6735990000888705,True,14,1,0,7
Y2-S2-244K18,5,444,AS,exp,32,→,up,↑,1.4285361000802368,False,14,-1,1,8
Y2-S2-244K18,5,445,AS,exp,49,←,left,←,0.5029299000743777,True,15,-1,0,8
Y2-S2-244K18,5,446,AS,exp,44,↓,right,→,0.9348398000001907,False,15,-1,0,8
Y2-S2-244K18,5,447,AS,exp,32,←,left,←,0.5710640999022871,True,16,-1,0,8
Y2-S2-244K18,5,448,AS,exp,42,↓,no_key,no_letter,-1.0,False,16,-1,0,8
Y2-S2-244K18,5,449,AS,exp,28,←,left,←,0.8709764999803156,True,17,-1,0,8
Y2-S2-244K18,5,450,AS,exp,44,↑,up,↑,0.6061931001022458,True,17,-1,0,8
Y2-S2-244K18,5,451,AS,exp,50,↓,down,↓,0.5709647999610752,True,17,1,1,9
Y2-S2-244K18,5,452,AS,exp,25,↑,up,↑,0.6078286999836564,True,16,1,0,9
Y2-S2-244K18,5,453,AS,exp,42,←,left,←,0.5329152999911457,True,16,1,0,9
Y2-S2-244K18,5,454,AS,exp,34,→,right,→,0.522514299955219,True,16,1,0,9
Y2-S2-244K18,5,455,AS,exp,41,←,up,↑,0.8205603000242263,False,15,-1,1,10
Y2-S2-244K18,5,456,AS,exp,50,↑,up,↑,0.4876650001388043,True,16,-1,0,10
Y2-S2-244K18,5,457,AS,exp,39,↓,down,↓,0.6847564000636339,True,16,-1,0,10
Y2-S2-244K18,5,458,AS,exp,48,→,right,→,0.5454802000895143,True,16,1,1,11
Y2-S2-244K18,5,459,AS,exp,40,←,left,←,0.683574799913913,True,15,1,0,11
Y2-S2-244K18,5,460,AS,exp,36,↓,down,↓,0.6569808998610824,True,15,1,0,11
Y2-S2-244K18,5,461,AS,exp,47,←,left,←,0.5840998000930995,True,15,1,0,11
Y2-S2-244K18,5,462,AS,exp,33,↓,down,↓,0.6458002000581473,True,14,1,0,11
Y2-S2-244K18,5,463,AS,exp,29,↑,down,↓,0.7176465999800712,False,14,-1,1,12
Y2-S2-244K18,5,464,AS,exp,34,→,right,→,0.6647554999217391,True,15,-1,0,12
Y2-S2-244K18,5,465,AS,exp,42,↑,up,↑,0.4925675999838859,True,15,-1,0,12
Y2-S2-244K18,5,466,AS,exp,26,→,right,→,0.5428132000379264,True,15,1,1,13
Y2-S2-244K18,5,467,AS,exp,50,←,right,→,0.7056883999612182,False,14,-1,1,14
Y2-S2-244K18,5,468,AS,exp,46,↑,up,↑,0.4695387000683695,True,15,-1,0,14
Y2-S2-244K18,5,469,AS,exp,41,←,left,←,0.4593853000551462,True,15,-1,0,14
Y2-S2-244K18,5,470,AS,exp,43,→,right,→,0.42906560003757477,True,15,1,1,15
Y2-S2-244K18,5,471,AS,exp,42,←,left,←,0.43390069995075464,True,14,1,0,15
Y2-S2-244K18,5,472,AS,exp,35,→,right,→,0.615045899990946,True,14,1,0,15
Y2-S2-244K18,5,473,AS,exp,41,↓,up,↑,0.7286448001395911,False,14,-1,1,16
Y2-S2-244K18,6,474,PS,intra_train,32,←,left,←,0.7760493999812752,True,13,-,-,-
Y2-S2-244K18,6,475,PS,intra_train,30,↑,up,↑,1.5156422001309693,True,13,-,-,-
Y2-S2-244K18,6,476,PS,intra_train,38,↓,down,↓,0.6179599999450147,True,13,-,-,-
Y2-S2-244K18,6,477,PS,intra_train,41,←,left,←,1.2829351997934282,True,13,-,-,-
Y2-S2-244K18,6,478,PS,intra_train,38,→,right,→,0.43464510003104806,True,13,-,-,-
Y2-S2-244K18,6,479,PS,exp,48,←,left,←,0.40053649991750717,True,9,0,0,0
Y2-S2-244K18,6,480,PS,exp,44,↑,up,↑,0.6374808000400662,True,9,0,0,0
Y2-S2-244K18,6,481,PS,exp,43,←,left,←,0.4923374999780208,True,9,1,0,0
Y2-S2-244K18,6,482,PS,exp,37,↓,up,↑,0.5932867000810802,False,8,-1,1,1
Y2-S2-244K18,6,483,PS,exp,27,→,left,←,0.4934193000663072,False,9,-1,0,1
Y2-S2-244K18,6,484,PS,exp,32,↑,up,↑,0.6525341002270579,True,10,-1,0,1
Y2-S2-244K18,6,485,PS,exp,30,←,left,←,0.343275299994275,True,10,-1,0,1
Y2-S2-244K18,6,486,PS,exp,37,↓,down,↓,0.7023867999669164,True,10,1,1,2
Y2-S2-244K18,6,487,PS,exp,28,↑,up,↑,0.6631132999900728,True,9,1,0,2
Y2-S2-244K18,6,488,PS,exp,37,→,right,→,0.5474158001597971,True,9,1,0,2
Y2-S2-244K18,6,489,PS,exp,26,↑,up,↑,0.4628399999346584,True,9,1,0,2
Y2-S2-244K18,6,490,PS,exp,29,→,right,→,0.5571731000673026,True,8,1,0,2
Y2-S2-244K18,6,491,PS,exp,48,←,left,←,0.4700182001106441,True,8,1,0,2
Y2-S2-244K18,6,492,PS,exp,25,↑,up,↑,0.4279827999416739,True,8,1,0,2
Y2-S2-244K18,6,493,PS,exp,25,←,left,←,0.33080490003339946,True,7,1,0,2
Y2-S2-244K18,6,494,PS,exp,50,↑,up,↑,0.4849032999482006,True,7,1,0,2
Y2-S2-244K18,6,495,PS,exp,25,←,left,←,0.37876399978995323,True,7,1,0,2
Y2-S2-244K18,6,496,PS,exp,27,→,left,←,0.6031168000772595,False,6,-1,1,3
Y2-S2-244K18,6,497,PS,exp,48,↑,up,↑,0.5014778999611735,True,7,-1,0,3
Y2-S2-244K18,6,498,PS,exp,48,→,left,←,0.7523308000527322,False,7,-1,0,3
Y2-S2-244K18,6,499,PS,exp,26,↓,down,↓,0.5945277998689562,True,8,-1,0,3
Y2-S2-244K18,6,500,PS,exp,33,→,right,→,0.5416333000175655,True,8,-1,0,3
Y2-S2-244K18,6,501,PS,exp,33,←,right,→,0.5963156998623163,False,8,-1,0,3
Y2-S2-244K18,6,502,PS,exp,27,↑,up,↑,0.5290807001292706,True,9,-1,0,3
Y2-S2-244K18,6,503,PS,exp,29,→,right,→,0.6039841000456363,True,9,-1,0,3
Y2-S2-244K18,6,504,PS,exp,35,↑,up,↑,0.5242586999665946,True,9,1,1,4
Y2-S2-244K18,6,505,PS,exp,50,←,left,←,0.46236430015414953,True,8,1,0,4
Y2-S2-244K18,6,506,PS,exp,38,→,right,→,0.41528469999320805,True,8,1,0,4
Y2-S2-244K18,6,507,PS,exp,44,↓,down,↓,1.6014597001485527,True,8,1,0,4
Y2-S2-244K18,6,508,PS,exp,25,←,left,←,0.46633399999700487,True,7,1,0,4
Y2-S2-244K18,6,509,PS,exp,50,↑,up,↑,0.5455283999908715,True,7,1,0,4
Y2-S2-244K18,6,510,PS,exp,31,←,right,→,0.45630230009555817,False,7,-1,1,5
Y2-S2-244K18,6,511,PS,exp,48,→,right,→,0.7620666001457721,True,8,-1,0,5
Y2-S2-244K18,6,512,PS,exp,29,←,left,←,0.5273045999929309,True,8,-1,0,5
Y2-S2-244K18,6,513,PS,exp,40,→,right,→,0.5599839000497013,True,8,1,1,6
Y2-S2-244K18,6,514,PS,exp,48,←,left,←,0.5909178000874817,True,7,1,0,6
Y2-S2-244K18,6,515,PS,exp,36,↓,left,←,0.6322650001384318,False,7,-1,1,7
Y2-S2-244K18,6,516,PS,exp,42,↑,up,↑,0.4502325998619199,True,8,-1,0,7
Y2-S2-244K18,6,517,PS,exp,47,→,right,→,0.5084813998546451,True,8,-1,0,7
Y2-S2-244K18,6,518,PS,exp,50,↓,down,↓,0.5809806000906974,True,8,1,1,8
Y2-S2-244K18,6,519,PS,exp,34,→,right,→,0.5456725000403821,True,7,1,0,8
Y2-S2-244K18,6,520,PS,exp,26,←,left,←,0.3786656002048403,True,7,1,0,8
Y2-S2-244K18,6,521,PS,exp,25,↑,up,↑,0.5108253001235425,True,7,1,0,8
Y2-S2-244K18,6,522,PS,exp,30,←,right,→,0.6955193998292089,False,6,-1,1,9
Y2-S2-244K18,6,523,PS,exp,36,→,right,→,0.44637149991467595,True,7,-1,0,9
Y2-S2-244K18,6,524,PS,exp,44,↓,down,↓,0.5385696000885218,True,7,-1,0,9
Y2-S2-244K18,6,525,PS,exp,32,↑,up,↑,0.5681990999728441,True,7,1,1,10
Y2-S2-244K18,6,526,PS,exp,43,↓,down,↓,0.592326199868694,True,6,1,0,10
Y2-S2-244K18,6,527,PS,exp,32,→,right,→,0.4380886999424547,True,6,1,0,10
Y2-S2-244K18,6,528,PS,exp,41,←,down,↓,0.6192087000235915,False,6,-1,1,11
Y2-S2-244K18,6,529,PS,exp,42,→,left,←,0.5264439999591559,False,7,-1,0,11
Y2-S2-244K18,6,530,PS,exp,45,←,left,←,0.9478409998118877,True,8,-1,0,11
Y2-S2-244K18,6,531,PS,exp,37,→,left,←,0.5892564000096172,False,8,-1,0,11
Y2-S2-244K18,6,532,PS,exp,26,↑,up,↑,0.5306772000622004,True,9,-1,0,11
Y2-S2-244K18,6,533,PS,exp,41,↓,down,↓,0.5616959000471979,True,9,-1,0,11
Y2-S2-244K18,6,534,PS,exp,42,↑,up,↑,0.7520427000708878,True,9,1,1,12
Y2-S2-244K18,6,535,PS,exp,50,←,left,←,0.7541668999474496,True,8,1,0,12
Y2-S2-244K18,6,536,PS,exp,25,↑,left,←,0.7515871000941843,False,8,-1,1,13
Y2-S2-244K18,6,537,PS,exp,48,→,right,→,0.637451000045985,True,9,-1,0,13
Y2-S2-244K18,6,538,PS,exp,32,←,left,←,0.4943011000286788,True,9,-1,0,13
Y2-S2-244K18,6,539,PS,exp,27,↓,down,↓,0.5884775999002159,True,9,1,1,14
Y2-S2-244K18,6,540,PS,exp,43,→,left,←,0.5565611000638455,False,8,-1,1,15
Y2-S2-244K18,6,541,PS,exp,27,↑,up,↑,0.5311054999474436,True,9,-1,0,15
Y2-S2-244K18,6,542,PS,exp,41,↓,down,↓,0.5300445000175387,True,9,-1,0,15
Y2-S2-244K18,6,543,PS,exp,37,→,right,→,0.5509643999394029,True,9,1,1,16
Y2-S2-244K18,7,544,PS,intra_train,36,←,left,←,0.5407179000321776,True,13,-,-,-
Y2-S2-244K18,7,545,PS,intra_train,27,→,right,→,0.48649000003933907,True,13,-,-,-
Y2-S2-244K18,7,546,PS,intra_train,25,↓,down,↓,0.6050573999527842,True,13,-,-,-
Y2-S2-244K18,7,547,PS,intra_train,47,←,left,←,0.45933290012180805,True,13,-,-,-
Y2-S2-244K18,7,548,PS,intra_train,33,↑,left,←,0.5267239001113921,False,13,-,-,-
Y2-S2-244K18,7,549,PS,exp,49,↓,left,←,0.6713576000183821,False,9,-1,0,0
Y2-S2-244K18,7,550,PS,exp,47,←,right,→,0.6338055999949574,False,10,-1,0,0
Y2-S2-244K18,7,551,PS,exp,46,↓,down,↓,0.5758723998442292,True,11,-1,0,0
Y2-S2-244K18,7,552,PS,exp,31,↑,up,↑,0.6129617998376489,True,11,-1,0,0
Y2-S2-244K18,7,553,PS,exp,38,←,left,←,0.4366409000940621,True,11,1,1,1
Y2-S2-244K18,7,554,PS,exp,25,↑,up,↑,0.5440074999351054,True,10,1,0,1
Y2-S2-244K18,7,555,PS,exp,50,↓,down,↓,0.6590140000917017,True,10,1,0,1
Y2-S2-244K18,7,556,PS,exp,36,←,left,←,0.5520681000780314,True,10,1,0,1
Y2-S2-244K18,7,557,PS,exp,47,↓,down,↓,0.5684728999622166,True,9,1,0,1
Y2-S2-244K18,7,558,PS,exp,27,←,left,←,0.3999185999855399,True,9,1,0,1
Y2-S2-244K18,7,559,PS,exp,44,↓,down,↓,0.7187725999392569,True,9,1,0,1
Y2-S2-244K18,7,560,PS,exp,49,←,left,←,0.4754202999174595,True,8,1,0,1
Y2-S2-244K18,7,561,PS,exp,48,↑,up,↑,0.5791168001014739,True,8,1,0,1
Y2-S2-244K18,7,562,PS,exp,37,↓,down,↓,0.6004561998415738,True,8,1,0,1
Y2-S2-244K18,7,563,PS,exp,36,→,right,→,0.44304889999330044,True,7,1,0,1
Y2-S2-244K18,7,564,PS,exp,49,↑,down,↓,0.5978387000504881,False,7,-1,1,2
Y2-S2-244K18,7,565,PS,exp,39,←,left,←,0.6109920998569578,True,8,-1,0,2
Y2-S2-244K18,7,566,PS,exp,43,↓,down,↓,0.5616553998552263,True,8,-1,0,2
Y2-S2-244K18,7,567,PS,exp,25,↑,right,→,0.6551922000944614,False,8,-1,0,2
Y2-S2-244K18,7,568,PS,exp,40,←,left,←,0.4647871998604387,True,9,-1,0,2
Y2-S2-244K18,7,569,PS,exp,39,↑,up,↑,0.5519400001503527,True,9,-1,0,2
Y2-S2-244K18,7,570,PS,exp,36,←,left,←,0.512521900003776,True,9,1,1,3
Y2-S2-244K18,7,571,PS,exp,45,↑,down,↓,0.9576747000683099,False,8,-1,1,4
Y2-S2-244K18,7,572,PS,exp,49,←,left,←,0.5349468998610973,True,9,-1,0,4
Y2-S2-244K18,7,573,PS,exp,42,↑,left,←,0.7486749000381678,False,9,-1,0,4
Y2-S2-244K18,7,574,PS,exp,25,→,left,←,0.4799594001378864,False,10,-1,0,4
Y2-S2-244K18,7,575,PS,exp,26,↓,down,↓,0.5779278001282364,True,11,-1,0,4
Y2-S2-244K18,7,576,PS,exp,29,←,left,←,0.3984936000779271,True,11,-1,0,4
Y2-S2-244K18,7,577,PS,exp,28,↓,down,↓,0.49713639984838665,True,11,1,1,5
Y2-S2-244K18,7,578,PS,exp,32,←,left,←,0.5234755999408662,True,10,1,0,5
Y2-S2-244K18,7,579,PS,exp,40,↑,up,↑,0.5285841000732034,True,10,1,0,5
Y2-S2-244K18,7,580,PS,exp,50,→,right,→,0.4710197998210788,True,10,1,0,5
Y2-S2-244K18,7,581,PS,exp,27,↓,down,↓,0.5769308998715132,True,9,1,0,5
Y2-S2-244K18,7,582,PS,exp,50,←,left,←,0.5096970000304282,True,9,1,0,5
Y2-S2-244K18,7,583,PS,exp,45,↑,up,↑,0.5094840999227017,True,9,1,0,5
Y2-S2-244K18,7,584,PS,exp,44,↓,down,↓,0.5198616001289338,True,8,1,0,5
Y2-S2-244K18,7,585,PS,exp,48,←,left,←,0.48510649986565113,True,8,1,0,5
Y2-S2-244K18,7,586,PS,exp,29,→,right,→,0.6247763000428677,True,8,1,0,5
Y2-S2-244K18,7,587,PS,exp,34,↑,left,←,0.7140579000115395,False,7,-1,1,6
Y2-S2-244K18,7,588,PS,exp,47,→,left,←,0.5277754999697208,False,8,-1,0,6
Y2-S2-244K18,7,589,PS,exp,26,↑,up,↑,0.558518199948594,True,9,-1,0,6
Y2-S2-244K18,7,590,PS,exp,27,→,right,→,0.5276293000206351,True,9,-1,0,6
Y2-S2-244K18,7,591,PS,exp,48,←,left,←,0.42587989987805486,True,9,1,1,7
Y2-S2-244K18,7,592,PS,exp,36,→,left,←,0.7923308000899851,False,8,-1,1,8
Y2-S2-244K18,7,593,PS,exp,46,↓,left,←,0.5867600999772549,False,9,-1,0,8
Y2-S2-244K18,7,594,PS,exp,32,←,left,←,0.5012523999903351,True,10,-1,0,8
Y2-S2-244K18,7,595,PS,exp,50,↓,down,↓,0.6117926000151783,True,10,-1,0,8
Y2-S2-244K18,7,596,PS,exp,39,↑,left,←,0.6221332000568509,False,10,-1,0,8
Y2-S2-244K18,7,597,PS,exp,30,←,left,←,0.45557880005799234,True,11,-1,0,8
Y2-S2-244K18,7,598,PS,exp,42,→,right,→,0.5341239999979734,True,11,-1,0,8
Y2-S2-244K18,7,599,PS,exp,33,↑,up,↑,0.5503548998385668,True,11,1,1,9
Y2-S2-244K18,7,600,PS,exp,40,→,right,→,0.5724931000731885,True,10,1,0,9
Y2-S2-244K18,7,601,PS,exp,43,↑,left,←,0.41009289980866015,False,10,-1,1,10
Y2-S2-244K18,7,602,PS,exp,40,↓,down,↓,0.7058943998999894,True,11,-1,0,10
Y2-S2-244K18,7,603,PS,exp,28,↑,up,↑,0.5911581998225302,True,11,-1,0,10
Y2-S2-244K18,7,604,PS,exp,44,←,left,←,0.6272613999899477,True,11,1,1,11
Y2-S2-244K18,7,605,PS,exp,29,↑,up,↑,0.5376186000648886,True,10,1,0,11
Y2-S2-244K18,7,606,PS,exp,31,↓,down,↓,0.5824347999878228,True,10,1,0,11
Y2-S2-244K18,7,607,PS,exp,35,→,right,→,0.49842029996216297,True,10,1,0,11
Y2-S2-244K18,7,608,PS,exp,30,↓,down,↓,0.5499654999002814,True,9,1,0,11
Y2-S2-244K18,7,609,PS,exp,26,→,right,→,0.6120134999509901,True,9,1,0,11
Y2-S2-244K18,7,610,PS,exp,45,←,left,←,0.5936300999019295,True,9,1,0,11
Y2-S2-244K18,7,611,PS,exp,41,→,right,→,0.4985603999812156,True,8,1,0,11
Y2-S2-244K18,7,612,PS,exp,26,←,left,←,0.7014240000862628,True,8,1,0,11
Y2-S2-244K18,7,613,PS,exp,35,→,right,→,0.44929880020208657,True,8,1,0,11
Y2-S2-244K18,7,614,PS,exp,41,↑,up,↑,0.557877300074324,True,7,1,0,11
Y2-S2-244K18,7,615,PS,exp,40,←,left,←,0.4859800999984145,True,7,1,0,11
Y2-S2-244K18,7,616,PS,exp,34,↑,left,←,1.210905099986121,False,7,-1,1,12
Y2-S2-244K18,7,617,PS,exp,36,→,right,→,0.5050676001701504,True,8,-1,0,12
Y2-S2-244K18,7,618,PS,exp,35,↑,up,↑,0.5734073000494391,True,8,-1,0,12
Y2-S2-244K18,7,619,PS,exp,45,←,right,→,1.2831123999785632,False,8,-1,0,12
Y2-S2-244K18,7,620,PS,exp,36,↓,down,↓,0.6004605998750776,True,9,-1,0,12
Y2-S2-244K18,7,621,PS,exp,43,←,left,←,0.7304400999564677,True,9,-1,0,12
Y2-S2-244K18,7,622,PS,exp,40,↑,up,↑,0.5915963998995721,True,9,1,1,13
Y2-S2-244K18,7,623,PS,exp,34,↓,up,↑,0.6708017000928521,False,8,-1,1,14
Y2-S2-244K18,7,624,PS,exp,44,→,right,→,0.6017634000163525,True,9,-1,0,14
Y2-S2-244K18,7,625,PS,exp,37,↑,up,↑,0.582723299972713,True,9,-1,0,14
Y2-S2-244K18,7,626,PS,exp,45,←,left,←,0.5471087000332773,True,9,1,1,15
Y2-S2-244K18,7,627,PS,exp,33,→,right,→,0.49065669998526573,True,8,1,0,15
Y2-S2-244K18,7,628,PS,exp,36,←,left,←,0.508556199958548,True,8,1,0,15
Y2-S2-244K18,7,629,PS,exp,40,↓,left,←,0.6631367998197675,False,8,-1,1,16
Y2-S2-244K18,8,630,AS,intra_train,31,→,right,→,0.781411400064826,True,22,-,-,-
Y2-S2-244K18,8,631,AS,intra_train,43,↓,down,↓,0.5853714998811483,True,22,-,-,-
Y2-S2-244K18,8,632,AS,intra_train,40,↑,up,↑,1.0814469999168068,True,22,-,-,-
Y2-S2-244K18,8,633,AS,intra_train,29,→,right,→,0.6024460999760777,True,22,-,-,-
Y2-S2-244K18,8,634,AS,intra_train,38,↑,up,↑,0.7634618999436498,True,22,-,-,-
Y2-S2-244K18,8,635,AS,exp,36,→,right,→,1.2384858999866992,True,15,0,0,0
Y2-S2-244K18,8,636,AS,exp,30,←,left,←,0.6182789001613855,True,15,0,0,0
Y2-S2-244K18,8,637,AS,exp,26,↑,up,↑,0.5717706000432372,True,15,1,0,0
Y2-S2-244K18,8,638,AS,exp,37,↓,down,↓,0.5321885000448674,True,14,1,0,0
Y2-S2-244K18,8,639,AS,exp,38,→,right,→,0.5272331999149173,True,14,1,0,0
Y2-S2-244K18,8,640,AS,exp,33,↓,left,←,0.4071726000402123,False,14,-1,1,1
Y2-S2-244K18,8,641,AS,exp,29,←,left,←,0.5914084000978619,True,15,-1,0,1
Y2-S2-244K18,8,642,AS,exp,41,→,right,→,1.3366227000951767,True,15,-1,0,1
Y2-S2-244K18,8,643,AS,exp,45,←,left,←,0.5688960000406951,True,15,1,1,2
Y2-S2-244K18,8,644,AS,exp,44,→,right,→,0.9527471999172121,True,14,1,0,2
Y2-S2-244K18,8,645,AS,exp,36,↓,down,↓,0.6040866998955607,True,14,1,0,2
Y2-S2-244K18,8,646,AS,exp,30,→,right,→,0.4754155999980867,True,14,1,0,2
Y2-S2-244K18,8,647,AS,exp,38,←,left,←,0.4302523999940604,True,13,1,0,2
Y2-S2-244K18,8,648,AS,exp,49,↑,up,↑,0.6761880000121891,True,13,1,0,2
Y2-S2-244K18,8,649,AS,exp,49,↓,up,↑,0.7939620998222381,False,13,-1,1,3
Y2-S2-244K18,8,650,AS,exp,36,↑,up,↑,0.6548671999480575,True,14,-1,0,3
Y2-S2-244K18,8,651,AS,exp,50,↓,left,←,0.4247430001851171,False,14,-1,0,3
Y2-S2-244K18,8,652,AS,exp,36,↑,left,←,0.9695260000880808,False,15,-1,0,3
Y2-S2-244K18,8,653,AS,exp,50,←,left,←,0.5125174999702722,True,16,-1,0,3
Y2-S2-244K18,8,654,AS,exp,42,↓,down,↓,0.8020607000216842,True,16,-1,0,3
Y2-S2-244K18,8,655,AS,exp,44,→,right,→,0.6525252000428736,True,16,1,1,4
Y2-S2-244K18,8,656,AS,exp,48,↓,down,↓,0.6389649999327958,True,15,1,0,4
Y2-S2-244K18,8,657,AS,exp,31,→,left,←,0.690833400003612,False,15,-1,1,5
Y2-S2-244K18,8,658,AS,exp,38,←,left,←,0.49822890013456345,True,16,-1,0,5
Y2-S2-244K18,8,659,AS,exp,29,↑,up,↑,0.8756188000552356,True,16,-1,0,5
Y2-S2-244K18,8,660,AS,exp,39,←,left,←,0.5494172000326216,True,16,1,1,6
Y2-S2-244K18,8,661,AS,exp,38,→,right,→,0.6325848000124097,True,15,1,0,6
Y2-S2-244K18,8,662,AS,exp,29,↓,down,↓,0.5943681998178363,True,15,1,0,6
Y2-S2-244K18,8,663,AS,exp,40,←,left,←,0.6023192000575364,True,15,1,0,6
Y2-S2-244K18,8,664,AS,exp,40,↑,up,↑,1.0306554001290351,True,14,1,0,6
Y2-S2-244K18,8,665,AS,exp,34,↓,down,↓,0.8851113000418991,True,14,1,0,6
Y2-S2-244K18,8,666,AS,exp,39,→,right,→,0.6755660001654178,True,14,1,0,6
Y2-S2-244K18,8,667,AS,exp,38,←,right,→,0.5160234998911619,False,13,-1,1,7
Y2-S2-244K18,8,668,AS,exp,49,↓,down,↓,0.538296400103718,True,14,-1,0,7
Y2-S2-244K18,8,669,AS,exp,43,↑,up,↑,0.6284413000103086,True,14,-1,0,7
Y2-S2-244K18,8,670,AS,exp,35,←,down,↓,0.8432930000126362,False,14,-1,0,7
Y2-S2-244K18,8,671,AS,exp,26,↓,down,↓,0.6151725000236183,True,15,-1,0,7
Y2-S2-244K18,8,672,AS,exp,26,→,right,→,0.5976172999944538,True,15,-1,0,7
Y2-S2-244K18,8,673,AS,exp,35,←,left,←,0.6277691998984665,True,15,1,1,8
Y2-S2-244K18,8,674,AS,exp,34,↓,down,↓,0.5288314002100378,True,14,1,0,8
Y2-S2-244K18,8,675,AS,exp,48,→,right,→,0.5281163998879492,True,14,1,0,8
Y2-S2-244K18,8,676,AS,exp,40,↓,down,↓,0.6501523000188172,True,14,1,0,8
Y2-S2-244K18,8,677,AS,exp,34,←,left,←,0.47671730001457036,True,13,1,0,8
Y2-S2-244K18,8,678,AS,exp,49,→,right,→,0.7011090000160038,True,13,1,0,8
Y2-S2-244K18,8,679,AS,exp,27,←,left,←,0.5015751000028104,True,13,1,0,8
Y2-S2-244K18,8,680,AS,exp,39,↓,down,↓,0.6249337999615818,True,12,1,0,8
Y2-S2-244K18,8,681,AS,exp,48,→,right,→,0.7150717000477016,True,12,1,0,8
Y2-S2-244K18,8,682,AS,exp,33,↓,down,↓,0.6491868998855352,True,12,1,0,8
Y2-S2-244K18,8,683,AS,exp,36,→,right,→,0.5470064000692219,True,11,1,0,8
Y2-S2-244K18,8,684,AS,exp,26,↓,no_key,no_letter,-1.0,False,11,-1,1,9
Y2-S2-244K18,8,685,AS,exp,33,←,left,←,0.4845026999246329,True,12,-1,0,9
Y2-S2-244K18,8,686,AS,exp,25,→,up,↑,0.705119299935177,False,12,-1,0,9
Y2-S2-244K18,8,687,AS,exp,36,↓,down,↓,0.5472520999610424,True,13,-1,0,9
Y2-S2-244K18,8,688,AS,exp,48,←,left,←,0.4576228999067098,True,13,-1,0,9
Y2-S2-244K18,8,689,AS,exp,47,→,left,←,0.6945057001430541,False,13,-1,0,9
Y2-S2-244K18,8,690,AS,exp,47,←,left,←,0.552675599930808,True,14,-1,0,9
Y2-S2-244K18,8,691,AS,exp,41,→,right,→,0.5599678999278694,True,14,-1,0,9
Y2-S2-244K18,8,692,AS,exp,42,↑,down,↓,0.8271872999612242,False,14,-1,0,9
Y2-S2-244K18,8,693,AS,exp,25,→,right,→,0.6091887000948191,True,15,-1,0,9
Y2-S2-244K18,8,694,AS,exp,31,↑,up,↑,0.6145613000262529,True,15,-1,0,9
Y2-S2-244K18,8,695,AS,exp,27,↓,down,↓,0.6555177001282573,True,15,1,1,10
Y2-S2-244K18,8,696,AS,exp,50,→,down,↓,0.9494511000812054,False,14,-1,1,11
Y2-S2-244K18,8,697,AS,exp,42,↓,down,↓,0.5022322000004351,True,15,-1,0,11
Y2-S2-244K18,8,698,AS,exp,39,←,left,←,0.7599891999270767,True,15,-1,0,11
Y2-S2-244K18,8,699,AS,exp,44,↑,up,↑,0.46824309998191893,True,15,1,1,12
Y2-S2-244K18,8,700,AS,exp,43,↓,up,↑,0.6460997997783124,False,14,-1,1,13
Y2-S2-244K18,8,701,AS,exp,44,→,right,→,0.49783390015363693,True,15,-1,0,13
Y2-S2-244K18,8,702,AS,exp,48,↑,up,↑,0.5357023000251502,True,15,-1,0,13
Y2-S2-244K18,8,703,AS,exp,32,←,left,←,0.5871392001863569,True,15,1,1,14
Y2-S2-244K18,8,704,AS,exp,44,↓,up,↑,0.581226299982518,False,14,-1,1,15
Y2-S2-244K18,8,705,AS,exp,46,↑,up,↑,0.6435723002068698,True,15,-1,0,15
Y2-S2-244K18,8,706,AS,exp,34,↓,down,↓,0.5475987999234349,True,15,-1,0,15
Y2-S2-244K18,8,707,AS,exp,44,↑,down,↓,0.790325399953872,False,15,-1,0,15
Y2-S2-244K18,8,708,AS,exp,32,←,left,←,0.47482130001299083,True,16,-1,0,15
Y2-S2-244K18,8,709,AS,exp,40,↓,down,↓,0.6566566000692546,True,16,-1,0,15
Y2-S2-244K18,8,710,AS,exp,27,→,right,→,0.6407047000247985,True,16,1,1,16
