PART_ID,Block_no,Trial_no,Block_type,Trial_type,CSI,Stim_letter,Key_pressed,letter_choose,Rt,Corr,Stimulus Time,Level,Reversal,Revs_count
Y2-S2-269K20,1,1,PS,train,42,→,right,→,1.184416700154543,True,30,-,-,-
Y2-S2-269K20,1,2,PS,train,35,↓,down,↓,0.9297151998616755,True,30,-,-,-
Y2-S2-269K20,1,3,PS,train,31,↑,up,↑,0.8985717003233731,True,30,-,-,-
Y2-S2-269K20,1,4,PS,train,48,↓,down,↓,0.7629514001309872,True,30,-,-,-
Y2-S2-269K20,1,5,PS,train,43,←,left,←,0.9066149001009762,True,30,-,-,-
Y2-S2-269K20,1,6,PS,train,48,↑,up,↑,0.7589369998313487,True,30,-,-,-
Y2-S2-269K20,1,7,PS,train,30,←,left,←,0.7887569996528327,True,30,-,-,-
Y2-S2-269K20,1,8,PS,train,33,↓,down,↓,0.9054282000288367,True,30,-,-,-
Y2-S2-269K20,1,9,PS,train,25,←,left,←,0.8562272000126541,True,30,-,-,-
Y2-S2-269K20,1,10,PS,train,31,↑,up,↑,0.7469126000069082,True,30,-,-,-
Y2-S2-269K20,2,11,AS,train,32,↓,down,↓,0.9823654000647366,True,45,-,-,-
Y2-S2-269K20,2,12,AS,train,43,↑,up,↑,0.701124900020659,True,45,-,-,-
Y2-S2-269K20,2,13,AS,train,48,→,right,→,0.9200524999760091,True,45,-,-,-
Y2-S2-269K20,2,14,AS,train,47,↑,up,↑,0.7010665996931493,True,45,-,-,-
Y2-S2-269K20,2,15,AS,train,45,↓,down,↓,0.8501813001930714,True,45,-,-,-
Y2-S2-269K20,2,16,AS,train,27,↑,up,↑,0.7339256000705063,True,45,-,-,-
Y2-S2-269K20,2,17,AS,train,39,←,left,←,0.8673932002857327,True,45,-,-,-
Y2-S2-269K20,2,18,AS,train,47,↑,up,↑,0.8338065003044903,True,45,-,-,-
Y2-S2-269K20,2,19,AS,train,32,←,left,←,0.7338824002072215,True,45,-,-,-
Y2-S2-269K20,2,20,AS,train,42,→,right,→,1.053405599668622,True,45,-,-,-
Y2-S2-269K20,-,21,PS,adaptive,38,↑,up,↑,0.7744550001807511,True,10,0,0,0
Y2-S2-269K20,-,22,PS,adaptive,37,←,left,←,0.6100719003006816,True,10,0,0,0
Y2-S2-269K20,-,23,PS,adaptive,42,→,right,→,0.6900809998624027,True,10,1,0,0
Y2-S2-269K20,-,24,PS,adaptive,35,↓,down,↓,0.6320782001130283,True,9,1,0,0
Y2-S2-269K20,-,25,PS,adaptive,35,↑,up,↑,0.6429273001849651,True,9,1,0,0
Y2-S2-269K20,-,26,PS,adaptive,49,←,left,←,0.6709443996660411,True,9,1,0,0
Y2-S2-269K20,-,27,PS,adaptive,30,↑,down,↓,0.7123815999366343,False,8,-1,1,1
Y2-S2-269K20,-,28,PS,adaptive,47,←,left,←,0.6410425999201834,True,9,-1,0,1
Y2-S2-269K20,-,29,PS,adaptive,50,↓,left,←,0.7032449999824166,False,9,-1,0,1
Y2-S2-269K20,-,30,PS,adaptive,36,←,left,←,1.3665110999718308,True,10,-1,0,1
Y2-S2-269K20,-,31,PS,adaptive,37,↓,down,↓,0.5309500000439584,True,10,-1,0,1
Y2-S2-269K20,-,32,PS,adaptive,32,←,left,←,0.7457568999379873,True,10,1,1,2
Y2-S2-269K20,-,33,PS,adaptive,50,↓,down,↓,0.5481132999993861,True,9,1,0,2
Y2-S2-269K20,-,34,PS,adaptive,41,↑,up,↑,0.5360145997256041,True,9,1,0,2
Y2-S2-269K20,-,35,PS,adaptive,46,↓,left,←,0.6231036996468902,False,9,-1,1,3
Y2-S2-269K20,-,36,PS,adaptive,31,←,left,←,0.6983562996610999,True,10,-1,0,3
Y2-S2-269K20,-,37,PS,adaptive,45,→,left,←,0.8514634999446571,False,10,-1,0,3
Y2-S2-269K20,-,38,PS,adaptive,46,↑,up,↑,0.5927094998769462,True,11,-1,0,3
Y2-S2-269K20,-,39,PS,adaptive,26,↓,down,↓,0.6097273998893797,True,11,-1,0,3
Y2-S2-269K20,-,40,PS,adaptive,31,↑,up,↑,0.5379989999346435,True,11,1,1,4
Y2-S2-269K20,-,41,AS,adaptive,26,→,down,↓,0.8783016996458173,False,20,-1,0,0
Y2-S2-269K20,-,42,AS,adaptive,31,↑,up,↑,0.7163882995955646,True,21,-1,0,0
Y2-S2-269K20,-,43,AS,adaptive,26,→,right,→,0.8855606997385621,True,21,-1,0,0
Y2-S2-269K20,-,44,AS,adaptive,47,↓,down,↓,0.761417499743402,True,21,1,1,1
Y2-S2-269K20,-,45,AS,adaptive,29,→,right,→,0.8368138000369072,True,20,1,0,1
Y2-S2-269K20,-,46,AS,adaptive,33,←,left,←,0.6572905001230538,True,20,1,0,1
Y2-S2-269K20,-,47,AS,adaptive,39,↓,down,↓,0.7964918999932706,True,20,1,0,1
Y2-S2-269K20,-,48,AS,adaptive,43,←,up,↑,1.0875731999985874,False,19,-1,1,2
Y2-S2-269K20,-,49,AS,adaptive,29,↓,down,↓,0.6079902001656592,True,20,-1,0,2
Y2-S2-269K20,-,50,AS,adaptive,43,←,left,←,0.6967138997279108,True,20,-1,0,2
Y2-S2-269K20,-,51,AS,adaptive,46,↓,down,↓,0.807909999974072,True,20,1,1,3
Y2-S2-269K20,-,52,AS,adaptive,37,↑,down,↓,1.0734113999642432,False,19,-1,1,4
Y2-S2-269K20,1,53,PS,intra_train,35,→,right,→,0.7338747000321746,True,15,-,-,-
Y2-S2-269K20,1,54,PS,intra_train,34,↑,up,↑,0.6399241001345217,True,15,-,-,-
Y2-S2-269K20,1,55,PS,intra_train,30,→,right,→,0.658753199968487,True,15,-,-,-
Y2-S2-269K20,1,56,PS,intra_train,49,↑,up,↑,0.5943744000978768,True,15,-,-,-
Y2-S2-269K20,1,57,PS,intra_train,39,←,left,←,0.6062904996797442,True,15,-,-,-
Y2-S2-269K20,1,58,PS,exp,26,→,right,→,0.7092361003160477,True,10,0,0,0
Y2-S2-269K20,1,59,PS,exp,33,↓,down,↓,0.711034799925983,True,10,0,0,0
Y2-S2-269K20,1,60,PS,exp,36,↑,up,↑,0.5618461999110878,True,10,1,0,0
Y2-S2-269K20,1,61,PS,exp,46,↓,down,↓,0.622579799965024,True,9,1,0,0
Y2-S2-269K20,1,62,PS,exp,47,↑,up,↑,0.6694648000411689,True,9,1,0,0
Y2-S2-269K20,1,63,PS,exp,39,↓,down,↓,0.6325433002784848,True,9,1,0,0
Y2-S2-269K20,1,64,PS,exp,45,↑,up,↑,0.8578143999911845,True,8,1,0,0
Y2-S2-269K20,1,65,PS,exp,48,←,down,↓,0.8125897999852896,False,8,-1,1,1
Y2-S2-269K20,1,66,PS,exp,43,→,right,→,1.0693586999550462,True,9,-1,0,1
Y2-S2-269K20,1,67,PS,exp,40,↑,up,↑,0.8170668999664485,True,9,-1,0,1
Y2-S2-269K20,1,68,PS,exp,33,↓,down,↓,0.869698999915272,True,9,1,1,2
Y2-S2-269K20,1,69,PS,exp,40,→,right,→,0.6441373000852764,True,8,1,0,2
Y2-S2-269K20,1,70,PS,exp,40,↑,up,↑,0.8062816001474857,True,8,1,0,2
Y2-S2-269K20,1,71,PS,exp,35,→,right,→,0.8535462999716401,True,8,1,0,2
Y2-S2-269K20,1,72,PS,exp,25,↑,up,↑,0.7253248002380133,True,7,1,0,2
Y2-S2-269K20,1,73,PS,exp,41,←,up,↑,0.6933601000346243,False,7,-1,1,3
Y2-S2-269K20,1,74,PS,exp,31,→,right,→,0.7402484999038279,True,8,-1,0,3
Y2-S2-269K20,1,75,PS,exp,36,↓,down,↓,0.9656523000448942,True,8,-1,0,3
Y2-S2-269K20,1,76,PS,exp,41,←,left,←,0.68816679995507,True,8,1,1,4
Y2-S2-269K20,1,77,PS,exp,27,↑,up,↑,0.7631084998138249,True,7,1,0,4
Y2-S2-269K20,1,78,PS,exp,30,←,left,←,0.7023360999301076,True,7,1,0,4
Y2-S2-269K20,1,79,PS,exp,30,↑,left,←,0.7570801000110805,False,7,-1,1,5
Y2-S2-269K20,1,80,PS,exp,31,←,left,←,0.7799563002772629,True,8,-1,0,5
Y2-S2-269K20,1,81,PS,exp,35,→,right,→,0.5850860001519322,True,8,-1,0,5
Y2-S2-269K20,1,82,PS,exp,32,↓,right,→,0.9004341997206211,False,8,-1,0,5
Y2-S2-269K20,1,83,PS,exp,34,↑,up,↑,0.6435300000011921,True,9,-1,0,5
Y2-S2-269K20,1,84,PS,exp,30,→,right,→,0.6774872997775674,True,9,-1,0,5
Y2-S2-269K20,1,85,PS,exp,32,←,left,←,0.544083199929446,True,9,1,1,6
Y2-S2-269K20,1,86,PS,exp,35,↓,down,↓,1.0962299997918308,True,8,1,0,6
Y2-S2-269K20,1,87,PS,exp,44,↑,up,↑,0.6556514999829233,True,8,1,0,6
Y2-S2-269K20,1,88,PS,exp,45,→,right,→,0.7683712998405099,True,8,1,0,6
Y2-S2-269K20,1,89,PS,exp,37,←,left,←,0.6679124999791384,True,7,1,0,6
Y2-S2-269K20,1,90,PS,exp,39,→,right,→,0.6284572002477944,True,7,1,0,6
Y2-S2-269K20,1,91,PS,exp,40,↓,down,↓,0.8033554996363819,True,7,1,0,6
Y2-S2-269K20,1,92,PS,exp,48,→,right,→,0.71099659986794,True,6,1,0,6
Y2-S2-269K20,1,93,PS,exp,36,↓,down,↓,0.7757570999674499,True,6,1,0,6
Y2-S2-269K20,1,94,PS,exp,31,→,left,←,0.8206579997204244,False,6,-1,1,7
Y2-S2-269K20,1,95,PS,exp,32,↑,up,↑,0.7029200000688434,True,7,-1,0,7
Y2-S2-269K20,1,96,PS,exp,45,↓,down,↓,0.8130942001007497,True,7,-1,0,7
Y2-S2-269K20,1,97,PS,exp,32,←,left,←,0.6359580997377634,True,7,1,1,8
Y2-S2-269K20,1,98,PS,exp,39,↓,left,←,0.6258411998860538,False,6,-1,1,9
Y2-S2-269K20,1,99,PS,exp,29,←,left,←,0.6617322000674903,True,7,-1,0,9
Y2-S2-269K20,1,100,PS,exp,30,↑,up,↑,0.745984900277108,True,7,-1,0,9
Y2-S2-269K20,1,101,PS,exp,34,←,left,←,0.6269803000614047,True,7,1,1,10
Y2-S2-269K20,1,102,PS,exp,37,→,right,→,0.6729969000443816,True,6,1,0,10
Y2-S2-269K20,1,103,PS,exp,27,←,left,←,0.718700900208205,True,6,1,0,10
Y2-S2-269K20,1,104,PS,exp,27,↑,left,←,0.8342820997349918,False,6,-1,1,11
Y2-S2-269K20,1,105,PS,exp,47,↓,down,↓,0.9809840996749699,True,7,-1,0,11
Y2-S2-269K20,1,106,PS,exp,30,←,left,←,0.633447099942714,True,7,-1,0,11
Y2-S2-269K20,1,107,PS,exp,50,↑,up,↑,0.6012627999298275,True,7,1,1,12
Y2-S2-269K20,1,108,PS,exp,25,→,right,→,0.7678849999792874,True,6,1,0,12
Y2-S2-269K20,1,109,PS,exp,30,←,left,←,0.6670018997974694,True,6,1,0,12
Y2-S2-269K20,1,110,PS,exp,46,↑,down,↓,1.1927613001316786,False,6,-1,1,13
Y2-S2-269K20,1,111,PS,exp,28,→,right,→,0.6674126996658742,True,7,-1,0,13
Y2-S2-269K20,1,112,PS,exp,38,↓,down,↓,0.6979483999311924,True,7,-1,0,13
Y2-S2-269K20,1,113,PS,exp,29,→,right,→,0.6451447000727057,True,7,1,1,14
Y2-S2-269K20,1,114,PS,exp,50,↑,left,←,0.7088186000473797,False,6,-1,1,15
Y2-S2-269K20,1,115,PS,exp,48,←,left,←,0.6145285000093281,True,7,-1,0,15
Y2-S2-269K20,1,116,PS,exp,40,↑,up,↑,0.8094985000789165,True,7,-1,0,15
Y2-S2-269K20,1,117,PS,exp,31,→,right,→,0.6448198999278247,True,7,1,1,16
Y2-S2-269K20,2,118,AS,intra_train,40,←,left,←,0.5839742999523878,True,30,-,-,-
Y2-S2-269K20,2,119,AS,intra_train,40,→,right,→,0.7190479999408126,True,30,-,-,-
Y2-S2-269K20,2,120,AS,intra_train,35,↑,up,↑,0.6805477002635598,True,30,-,-,-
Y2-S2-269K20,2,121,AS,intra_train,41,→,right,→,0.8473847000859678,True,30,-,-,-
Y2-S2-269K20,2,122,AS,intra_train,29,↑,up,↑,0.6172397998161614,True,30,-,-,-
Y2-S2-269K20,2,123,AS,exp,38,↓,down,↓,0.8288492998108268,True,20,0,0,0
Y2-S2-269K20,2,124,AS,exp,44,→,right,→,0.671862700022757,True,20,0,0,0
Y2-S2-269K20,2,125,AS,exp,32,←,left,←,1.1740360003896058,True,20,1,0,0
Y2-S2-269K20,2,126,AS,exp,45,↓,down,↓,0.7296338998712599,True,19,1,0,0
Y2-S2-269K20,2,127,AS,exp,47,→,left,←,0.8603350003249943,False,19,-1,1,1
Y2-S2-269K20,2,128,AS,exp,34,←,left,←,0.6295292996801436,True,20,-1,0,1
Y2-S2-269K20,2,129,AS,exp,39,↓,down,↓,0.9226891999132931,True,20,-1,0,1
Y2-S2-269K20,2,130,AS,exp,49,←,left,←,0.6921359999105334,True,20,1,1,2
Y2-S2-269K20,2,131,AS,exp,35,→,right,→,1.2401823997497559,True,19,1,0,2
Y2-S2-269K20,2,132,AS,exp,49,↑,up,↑,0.6157245002686977,True,19,1,0,2
Y2-S2-269K20,2,133,AS,exp,47,←,left,←,0.764693200122565,True,19,1,0,2
Y2-S2-269K20,2,134,AS,exp,28,↓,down,↓,1.0249105002731085,True,18,1,0,2
Y2-S2-269K20,2,135,AS,exp,26,←,down,↓,1.1031761998310685,False,18,-1,1,3
Y2-S2-269K20,2,136,AS,exp,27,↓,down,↓,0.6663735001347959,True,19,-1,0,3
Y2-S2-269K20,2,137,AS,exp,33,↑,up,↑,0.8185789999552071,True,19,-1,0,3
Y2-S2-269K20,2,138,AS,exp,38,↓,down,↓,0.8458116999827325,True,19,1,1,4
Y2-S2-269K20,2,139,AS,exp,33,↑,up,↑,0.6203642999753356,True,18,1,0,4
Y2-S2-269K20,2,140,AS,exp,35,↓,down,↓,0.8306040000170469,True,18,1,0,4
Y2-S2-269K20,2,141,AS,exp,38,→,right,→,0.6246891999617219,True,18,1,0,4
Y2-S2-269K20,2,142,AS,exp,31,↑,up,↑,0.6175544997677207,True,17,1,0,4
Y2-S2-269K20,2,143,AS,exp,47,←,up,↑,0.7927485997788608,False,17,-1,1,5
Y2-S2-269K20,2,144,AS,exp,28,→,right,→,0.8155753999017179,True,18,-1,0,5
Y2-S2-269K20,2,145,AS,exp,48,←,left,←,0.8286549998447299,True,18,-1,0,5
Y2-S2-269K20,2,146,AS,exp,46,↓,up,↑,0.6477723000571132,False,18,-1,0,5
Y2-S2-269K20,2,147,AS,exp,42,→,right,→,0.5797091000713408,True,19,-1,0,5
Y2-S2-269K20,2,148,AS,exp,34,↑,up,↑,0.5231532999314368,True,19,-1,0,5
Y2-S2-269K20,2,149,AS,exp,49,←,left,←,0.7003361000679433,True,19,1,1,6
Y2-S2-269K20,2,150,AS,exp,49,↑,left,←,1.0427493997849524,False,18,-1,1,7
Y2-S2-269K20,2,151,AS,exp,48,←,left,←,0.7347323000431061,True,19,-1,0,7
Y2-S2-269K20,2,152,AS,exp,50,→,right,→,0.7638089996762574,True,19,-1,0,7
Y2-S2-269K20,2,153,AS,exp,46,←,left,←,0.6561634996905923,True,19,1,1,8
Y2-S2-269K20,2,154,AS,exp,26,↓,down,↓,0.8081424999982119,True,18,1,0,8
Y2-S2-269K20,2,155,AS,exp,28,←,left,←,0.7328690001741052,True,18,1,0,8
Y2-S2-269K20,2,156,AS,exp,40,↑,up,↑,0.6705332999117672,True,18,1,0,8
Y2-S2-269K20,2,157,AS,exp,32,↓,down,↓,0.8785279002040625,True,17,1,0,8
Y2-S2-269K20,2,158,AS,exp,40,↑,up,↑,0.5399465998634696,True,17,1,0,8
Y2-S2-269K20,2,159,AS,exp,44,←,left,←,0.8059590999037027,True,17,1,0,8
Y2-S2-269K20,2,160,AS,exp,34,→,right,→,0.6536135002970695,True,16,1,0,8
Y2-S2-269K20,2,161,AS,exp,50,←,left,←,0.7374626002274454,True,16,1,0,8
Y2-S2-269K20,2,162,AS,exp,45,↑,up,↑,0.5256631001830101,True,16,1,0,8
Y2-S2-269K20,2,163,AS,exp,46,←,left,←,0.7014297000132501,True,15,1,0,8
Y2-S2-269K20,2,164,AS,exp,46,↓,left,←,0.719552000053227,False,15,-1,1,9
Y2-S2-269K20,2,165,AS,exp,44,←,left,←,0.6085330001078546,True,16,-1,0,9
Y2-S2-269K20,2,166,AS,exp,38,↓,down,↓,0.7583523001521826,True,16,-1,0,9
Y2-S2-269K20,2,167,AS,exp,29,←,left,←,0.5647705001756549,True,16,1,1,10
Y2-S2-269K20,2,168,AS,exp,28,→,left,←,0.7533696000464261,False,15,-1,1,11
Y2-S2-269K20,2,169,AS,exp,49,↑,down,↓,0.854012199677527,False,16,-1,0,11
Y2-S2-269K20,2,170,AS,exp,47,←,left,←,0.6733722998760641,True,17,-1,0,11
Y2-S2-269K20,2,171,AS,exp,38,↓,down,↓,0.8438162999227643,True,17,-1,0,11
Y2-S2-269K20,2,172,AS,exp,50,↑,up,↑,0.8338047000579536,True,17,1,1,12
Y2-S2-269K20,2,173,AS,exp,41,←,down,↓,1.068756400141865,False,16,-1,1,13
Y2-S2-269K20,2,174,AS,exp,47,→,right,→,0.852394999936223,True,17,-1,0,13
Y2-S2-269K20,2,175,AS,exp,37,↓,down,↓,0.8029122003354132,True,17,-1,0,13
Y2-S2-269K20,2,176,AS,exp,45,→,left,←,0.7934311996214092,False,17,-1,0,13
Y2-S2-269K20,2,177,AS,exp,40,←,left,←,0.8751686997711658,True,18,-1,0,13
Y2-S2-269K20,2,178,AS,exp,35,↑,up,↑,0.8257828000932932,True,18,-1,0,13
Y2-S2-269K20,2,179,AS,exp,27,↓,down,↓,0.8277921001426876,True,18,1,1,14
Y2-S2-269K20,2,180,AS,exp,50,↑,up,↑,0.6919963997788727,True,17,1,0,14
Y2-S2-269K20,2,181,AS,exp,25,→,right,→,0.7400772999972105,True,17,1,0,14
Y2-S2-269K20,2,182,AS,exp,39,←,left,←,0.6885882001370192,True,17,1,0,14
Y2-S2-269K20,2,183,AS,exp,44,↑,up,↑,0.6076325997710228,True,16,1,0,14
Y2-S2-269K20,2,184,AS,exp,48,→,right,→,0.7339547001756728,True,16,1,0,14
Y2-S2-269K20,2,185,AS,exp,32,↓,down,↓,0.7902124999091029,True,16,1,0,14
Y2-S2-269K20,2,186,AS,exp,46,↑,up,↑,0.6985941999591887,True,15,1,0,14
Y2-S2-269K20,2,187,AS,exp,46,→,right,→,0.6272769998759031,True,15,1,0,14
Y2-S2-269K20,2,188,AS,exp,36,↓,down,↓,0.8453498999588192,True,15,1,0,14
Y2-S2-269K20,2,189,AS,exp,49,→,right,→,0.6670400002039969,True,14,1,0,14
Y2-S2-269K20,2,190,AS,exp,36,↑,up,↑,0.616303900256753,True,14,1,0,14
Y2-S2-269K20,2,191,AS,exp,28,↓,up,↑,0.683111899998039,False,14,-1,1,15
Y2-S2-269K20,2,192,AS,exp,42,↑,up,↑,0.6291008000262082,True,15,-1,0,15
Y2-S2-269K20,2,193,AS,exp,35,↓,down,↓,0.9154572999104857,True,15,-1,0,15
Y2-S2-269K20,2,194,AS,exp,37,↑,up,↑,0.5042357998900115,True,15,1,1,16
Y2-S2-269K20,3,195,AS,intra_train,42,↓,down,↓,0.6894991998560727,True,30,-,-,-
Y2-S2-269K20,3,196,AS,intra_train,34,↑,up,↑,0.5505931000225246,True,30,-,-,-
Y2-S2-269K20,3,197,AS,intra_train,46,↓,down,↓,0.9796331999823451,True,30,-,-,-
Y2-S2-269K20,3,198,AS,intra_train,35,←,left,←,0.7863660003058612,True,30,-,-,-
Y2-S2-269K20,3,199,AS,intra_train,39,↓,down,↓,0.7023808001540601,True,30,-,-,-
Y2-S2-269K20,3,200,AS,exp,39,→,right,→,0.6844308003783226,True,20,0,0,0
Y2-S2-269K20,3,201,AS,exp,27,↓,down,↓,1.1140923001803458,True,20,0,0,0
Y2-S2-269K20,3,202,AS,exp,42,→,left,←,0.7899203998968005,False,20,-1,0,0
Y2-S2-269K20,3,203,AS,exp,36,↓,down,↓,0.6854986003600061,True,21,-1,0,0
Y2-S2-269K20,3,204,AS,exp,49,↑,up,↑,0.7488581999205053,True,21,-1,0,0
Y2-S2-269K20,3,205,AS,exp,32,→,right,→,0.6909918002784252,True,21,1,1,1
Y2-S2-269K20,3,206,AS,exp,49,←,left,←,0.6270234999246895,True,20,1,0,1
Y2-S2-269K20,3,207,AS,exp,37,↓,down,↓,1.0786315998993814,True,20,1,0,1
Y2-S2-269K20,3,208,AS,exp,35,←,left,←,0.7973115998320282,True,20,1,0,1
Y2-S2-269K20,3,209,AS,exp,25,↓,down,↓,0.700543100014329,True,19,1,0,1
Y2-S2-269K20,3,210,AS,exp,34,↑,up,↑,0.675432899966836,True,19,1,0,1
Y2-S2-269K20,3,211,AS,exp,34,→,right,→,0.7495033000595868,True,19,1,0,1
Y2-S2-269K20,3,212,AS,exp,26,↓,down,↓,0.7823970001190901,True,18,1,0,1
Y2-S2-269K20,3,213,AS,exp,36,↑,up,↑,0.6317169000394642,True,18,1,0,1
Y2-S2-269K20,3,214,AS,exp,32,←,left,←,0.837990399915725,True,18,1,0,1
Y2-S2-269K20,3,215,AS,exp,31,→,right,→,0.936873400118202,True,17,1,0,1
Y2-S2-269K20,3,216,AS,exp,25,↑,up,↑,0.5421544997952878,True,17,1,0,1
Y2-S2-269K20,3,217,AS,exp,43,←,left,←,0.7402237001806498,True,17,1,0,1
Y2-S2-269K20,3,218,AS,exp,36,↑,up,↑,0.6580981998704374,True,16,1,0,1
Y2-S2-269K20,3,219,AS,exp,31,→,right,→,0.6853672000579536,True,16,1,0,1
Y2-S2-269K20,3,220,AS,exp,25,←,left,←,0.5870186001993716,True,16,1,0,1
Y2-S2-269K20,3,221,AS,exp,39,↑,up,↑,0.5674461000598967,True,15,1,0,1
Y2-S2-269K20,3,222,AS,exp,43,↓,up,↑,0.6904263999313116,False,15,-1,1,2
Y2-S2-269K20,3,223,AS,exp,26,↑,up,↑,0.6433210000395775,True,16,-1,0,2
Y2-S2-269K20,3,224,AS,exp,45,→,up,↑,0.8333197999745607,False,16,-1,0,2
Y2-S2-269K20,3,225,AS,exp,48,↑,up,↑,0.5952204000204802,True,17,-1,0,2
Y2-S2-269K20,3,226,AS,exp,34,↓,down,↓,0.8900244999676943,True,17,-1,0,2
Y2-S2-269K20,3,227,AS,exp,33,→,right,→,0.6538207000121474,True,17,1,1,3
Y2-S2-269K20,3,228,AS,exp,31,↓,down,↓,0.8277656999416649,True,16,1,0,3
Y2-S2-269K20,3,229,AS,exp,39,←,left,←,0.7964892000891268,True,16,1,0,3
Y2-S2-269K20,3,230,AS,exp,30,↓,down,↓,0.8284748997539282,True,16,1,0,3
Y2-S2-269K20,3,231,AS,exp,41,↑,down,↓,0.9563138000667095,False,15,-1,1,4
Y2-S2-269K20,3,232,AS,exp,40,→,right,→,0.6794139998964965,True,16,-1,0,4
Y2-S2-269K20,3,233,AS,exp,36,←,left,←,0.7998688002116978,True,16,-1,0,4
Y2-S2-269K20,3,234,AS,exp,35,↓,down,↓,0.818727099802345,True,16,1,1,5
Y2-S2-269K20,3,235,AS,exp,37,↑,up,↑,0.6864947001449764,True,15,1,0,5
Y2-S2-269K20,3,236,AS,exp,29,↓,down,↓,0.7211159002035856,True,15,1,0,5
Y2-S2-269K20,3,237,AS,exp,45,→,right,→,0.5855736001394689,True,15,1,0,5
Y2-S2-269K20,3,238,AS,exp,36,↑,left,←,0.5052320002578199,False,14,-1,1,6
Y2-S2-269K20,3,239,AS,exp,49,←,right,→,0.7149132001213729,False,15,-1,0,6
Y2-S2-269K20,3,240,AS,exp,27,↓,down,↓,0.8305362998507917,True,16,-1,0,6
Y2-S2-269K20,3,241,AS,exp,43,↑,up,↑,0.710337100084871,True,16,-1,0,6
Y2-S2-269K20,3,242,AS,exp,49,←,right,→,0.726637199986726,False,16,-1,0,6
Y2-S2-269K20,3,243,AS,exp,29,→,right,→,0.6060774000361562,True,17,-1,0,6
Y2-S2-269K20,3,244,AS,exp,25,↓,down,↓,0.834684600122273,True,17,-1,0,6
Y2-S2-269K20,3,245,AS,exp,47,←,left,←,0.6287454999983311,True,17,1,1,7
Y2-S2-269K20,3,246,AS,exp,47,↓,down,↓,0.7468678997829556,True,16,1,0,7
Y2-S2-269K20,3,247,AS,exp,39,↑,up,↑,0.683075400069356,True,16,1,0,7
Y2-S2-269K20,3,248,AS,exp,37,←,left,←,0.5577162001281977,True,16,1,0,7
Y2-S2-269K20,3,249,AS,exp,34,↑,up,↑,0.6949548996053636,True,15,1,0,7
Y2-S2-269K20,3,250,AS,exp,33,↓,down,↓,0.8066776003688574,True,15,1,0,7
Y2-S2-269K20,3,251,AS,exp,47,←,left,←,0.5525609999895096,True,15,1,0,7
Y2-S2-269K20,3,252,AS,exp,39,↑,up,↑,0.525055100210011,True,14,1,0,7
Y2-S2-269K20,3,253,AS,exp,31,→,right,→,0.5569712999276817,True,14,1,0,7
Y2-S2-269K20,3,254,AS,exp,38,↑,up,↑,0.5014138999395072,True,14,1,0,7
Y2-S2-269K20,3,255,AS,exp,46,→,left,←,0.6187795996665955,False,13,-1,1,8
Y2-S2-269K20,3,256,AS,exp,28,↓,down,↓,0.7727021998725832,True,14,-1,0,8
Y2-S2-269K20,3,257,AS,exp,37,→,right,→,0.5426692999899387,True,14,-1,0,8
Y2-S2-269K20,3,258,AS,exp,46,←,left,←,0.7043491997756064,True,14,1,1,9
Y2-S2-269K20,3,259,AS,exp,48,↑,up,↑,0.51546819973737,True,13,1,0,9
Y2-S2-269K20,3,260,AS,exp,35,→,up,↑,0.5858738999813795,False,13,-1,1,10
Y2-S2-269K20,3,261,AS,exp,37,←,right,→,0.5191978998482227,False,14,-1,0,10
Y2-S2-269K20,3,262,AS,exp,32,↑,up,↑,0.8099274002015591,True,15,-1,0,10
Y2-S2-269K20,3,263,AS,exp,35,→,right,→,0.5736161000095308,True,15,-1,0,10
Y2-S2-269K20,3,264,AS,exp,37,↑,up,↑,0.4746965002268553,True,15,1,1,11
Y2-S2-269K20,3,265,AS,exp,48,←,left,←,0.4772479999810457,True,14,1,0,11
Y2-S2-269K20,3,266,AS,exp,38,↑,right,→,0.7230660999193788,False,14,-1,1,12
Y2-S2-269K20,3,267,AS,exp,28,←,left,←,0.47445290023460984,True,15,-1,0,12
Y2-S2-269K20,3,268,AS,exp,38,↓,down,↓,0.717366199940443,True,15,-1,0,12
Y2-S2-269K20,3,269,AS,exp,38,↑,down,↓,0.9931584000587463,False,15,-1,0,12
Y2-S2-269K20,3,270,AS,exp,48,←,left,←,0.5600494001992047,True,16,-1,0,12
Y2-S2-269K20,3,271,AS,exp,29,↓,down,↓,0.6995871998369694,True,16,-1,0,12
Y2-S2-269K20,3,272,AS,exp,30,→,left,←,0.8480990002863109,False,16,-1,0,12
Y2-S2-269K20,3,273,AS,exp,46,↑,up,↑,0.5606031999923289,True,17,-1,0,12
Y2-S2-269K20,3,274,AS,exp,34,→,right,→,0.5732653997838497,True,17,-1,0,12
Y2-S2-269K20,3,275,AS,exp,50,↓,down,↓,0.8827364998869598,True,17,1,1,13
Y2-S2-269K20,3,276,AS,exp,38,←,left,←,0.5752928000874817,True,16,1,0,13
Y2-S2-269K20,3,277,AS,exp,49,↓,down,↓,0.7029968998394907,True,16,1,0,13
Y2-S2-269K20,3,278,AS,exp,30,→,right,→,0.48206930002197623,True,16,1,0,13
Y2-S2-269K20,3,279,AS,exp,42,←,left,←,0.7864061999134719,True,15,1,0,13
Y2-S2-269K20,3,280,AS,exp,40,↑,up,↑,0.5078326002694666,True,15,1,0,13
Y2-S2-269K20,3,281,AS,exp,38,←,right,→,0.5754798003472388,False,15,-1,1,14
Y2-S2-269K20,3,282,AS,exp,42,↓,down,↓,0.7003812999464571,True,16,-1,0,14
Y2-S2-269K20,3,283,AS,exp,47,↑,right,→,0.9865363002754748,False,16,-1,0,14
Y2-S2-269K20,3,284,AS,exp,26,←,left,←,1.8218085998669267,True,17,-1,0,14
Y2-S2-269K20,3,285,AS,exp,26,↓,down,↓,0.6418286003172398,True,17,-1,0,14
Y2-S2-269K20,3,286,AS,exp,50,←,left,←,0.5767234000377357,True,17,1,1,15
Y2-S2-269K20,3,287,AS,exp,45,↑,down,↓,0.6802858998999,False,16,-1,1,16
Y2-S2-269K20,4,288,PS,intra_train,37,←,left,←,0.6016826000995934,True,15,-,-,-
Y2-S2-269K20,4,289,PS,intra_train,44,→,right,→,0.6817907001823187,True,15,-,-,-
Y2-S2-269K20,4,290,PS,intra_train,31,←,right,→,1.050040400121361,False,15,-,-,-
Y2-S2-269K20,4,291,PS,intra_train,50,→,right,→,0.5668210000731051,True,15,-,-,-
Y2-S2-269K20,4,292,PS,intra_train,29,↑,left,←,0.6716380999423563,False,15,-,-,-
Y2-S2-269K20,4,293,PS,exp,31,←,left,←,0.598719900008291,True,10,0,0,0
Y2-S2-269K20,4,294,PS,exp,48,↑,up,↑,0.5262791002169251,True,10,0,0,0
Y2-S2-269K20,4,295,PS,exp,26,↓,down,↓,0.7965680002234876,True,10,1,0,0
Y2-S2-269K20,4,296,PS,exp,46,←,left,←,0.6092066001147032,True,9,1,0,0
Y2-S2-269K20,4,297,PS,exp,42,→,right,→,0.8592366999946535,True,9,1,0,0
Y2-S2-269K20,4,298,PS,exp,45,↑,up,↑,0.5694233002141118,True,9,1,0,0
Y2-S2-269K20,4,299,PS,exp,48,→,right,→,0.6869536000303924,True,8,1,0,0
Y2-S2-269K20,4,300,PS,exp,30,↓,down,↓,0.531793000176549,True,8,1,0,0
Y2-S2-269K20,4,301,PS,exp,38,→,down,↓,0.8327818997204304,False,8,-1,1,1
Y2-S2-269K20,4,302,PS,exp,28,↑,down,↓,0.8013758999295533,False,9,-1,0,1
Y2-S2-269K20,4,303,PS,exp,48,→,right,→,0.537399800028652,True,10,-1,0,1
Y2-S2-269K20,4,304,PS,exp,32,←,right,→,0.8030389999039471,False,10,-1,0,1
Y2-S2-269K20,4,305,PS,exp,44,↓,down,↓,1.251615600194782,True,11,-1,0,1
Y2-S2-269K20,4,306,PS,exp,37,→,right,→,0.44365249993279576,True,11,-1,0,1
Y2-S2-269K20,4,307,PS,exp,44,←,right,→,0.9334796001203358,False,11,-1,0,1
Y2-S2-269K20,4,308,PS,exp,36,→,right,→,0.4915839000605047,True,12,-1,0,1
Y2-S2-269K20,4,309,PS,exp,38,←,left,←,0.653033200185746,True,12,-1,0,1
Y2-S2-269K20,4,310,PS,exp,38,↓,down,↓,0.657029100228101,True,12,1,1,2
Y2-S2-269K20,4,311,PS,exp,30,→,left,←,1.2212797002866864,False,11,-1,1,3
Y2-S2-269K20,4,312,PS,exp,32,↑,up,↑,0.6363868000917137,True,12,-1,0,3
Y2-S2-269K20,4,313,PS,exp,28,↓,down,↓,0.5153554999269545,True,12,-1,0,3
Y2-S2-269K20,4,314,PS,exp,41,↑,up,↑,0.5800442001782358,True,12,1,1,4
Y2-S2-269K20,4,315,PS,exp,43,←,up,↑,0.9453211999498308,False,11,-1,1,5
Y2-S2-269K20,4,316,PS,exp,34,↓,down,↓,0.5342059000395238,True,12,-1,0,5
Y2-S2-269K20,4,317,PS,exp,25,←,right,→,0.8765182998031378,False,12,-1,0,5
Y2-S2-269K20,4,318,PS,exp,50,↑,up,↑,0.5285205999389291,True,13,-1,0,5
Y2-S2-269K20,4,319,PS,exp,48,→,right,→,0.5578793003223836,True,13,-1,0,5
Y2-S2-269K20,4,320,PS,exp,33,←,left,←,0.5387851996347308,True,13,1,1,6
Y2-S2-269K20,4,321,PS,exp,25,↓,down,↓,0.6176813999190927,True,12,1,0,6
Y2-S2-269K20,4,322,PS,exp,38,↑,up,↑,0.49425969971343875,True,12,1,0,6
Y2-S2-269K20,4,323,PS,exp,44,↓,down,↓,0.4760406999848783,True,12,1,0,6
Y2-S2-269K20,4,324,PS,exp,29,→,right,→,0.5638927002437413,True,11,1,0,6
Y2-S2-269K20,4,325,PS,exp,45,↓,down,↓,0.513790300115943,True,11,1,0,6
Y2-S2-269K20,4,326,PS,exp,29,→,left,←,0.7849598000757396,False,11,-1,1,7
Y2-S2-269K20,4,327,PS,exp,32,↓,down,↓,0.8859510002657771,True,12,-1,0,7
Y2-S2-269K20,4,328,PS,exp,31,←,left,←,0.6082302997820079,True,12,-1,0,7
Y2-S2-269K20,4,329,PS,exp,43,↓,down,↓,0.555513700004667,True,12,1,1,8
Y2-S2-269K20,4,330,PS,exp,35,←,left,←,0.5709063997492194,True,11,1,0,8
Y2-S2-269K20,4,331,PS,exp,38,→,right,→,0.48029359988868237,True,11,1,0,8
Y2-S2-269K20,4,332,PS,exp,49,↑,up,↑,0.5285406997427344,True,11,1,0,8
Y2-S2-269K20,4,333,PS,exp,45,↓,down,↓,0.49573149997740984,True,10,1,0,8
Y2-S2-269K20,4,334,PS,exp,37,→,right,→,0.5158008998259902,True,10,1,0,8
Y2-S2-269K20,4,335,PS,exp,32,←,left,←,0.8227635999210179,True,10,1,0,8
Y2-S2-269K20,4,336,PS,exp,35,↓,down,↓,0.532509499695152,True,9,1,0,8
Y2-S2-269K20,4,337,PS,exp,39,←,left,←,0.4793890002183616,True,9,1,0,8
Y2-S2-269K20,4,338,PS,exp,30,→,down,↓,0.8810328999534249,False,9,-1,1,9
Y2-S2-269K20,4,339,PS,exp,31,↓,up,↑,0.7773528001271188,False,10,-1,0,9
Y2-S2-269K20,4,340,PS,exp,50,→,right,→,0.5474830996245146,True,11,-1,0,9
Y2-S2-269K20,4,341,PS,exp,42,↓,down,↓,0.5557391997426748,True,11,-1,0,9
Y2-S2-269K20,4,342,PS,exp,25,←,left,←,0.5363404997624457,True,11,1,1,10
Y2-S2-269K20,4,343,PS,exp,37,→,right,→,0.8255255999974906,True,10,1,0,10
Y2-S2-269K20,4,344,PS,exp,33,←,left,←,0.6826562001369894,True,10,1,0,10
Y2-S2-269K20,4,345,PS,exp,34,↓,right,→,0.8726872997358441,False,10,-1,1,11
Y2-S2-269K20,4,346,PS,exp,49,→,right,→,0.6231169998645782,True,11,-1,0,11
Y2-S2-269K20,4,347,PS,exp,33,↑,up,↑,0.5853165001608431,True,11,-1,0,11
Y2-S2-269K20,4,348,PS,exp,28,→,right,→,0.463519100099802,True,11,1,1,12
Y2-S2-269K20,4,349,PS,exp,29,↓,down,↓,0.5315653998404741,True,10,1,0,12
Y2-S2-269K20,4,350,PS,exp,26,↑,up,↑,0.5428014001809061,True,10,1,0,12
Y2-S2-269K20,4,351,PS,exp,40,←,left,←,0.5595064000226557,True,10,1,0,12
Y2-S2-269K20,4,352,PS,exp,49,→,right,→,0.45194469997659326,True,9,1,0,12
Y2-S2-269K20,4,353,PS,exp,36,↑,down,↓,0.6513525997288525,False,9,-1,1,13
Y2-S2-269K20,4,354,PS,exp,26,↓,down,↓,0.5108421999029815,True,10,-1,0,13
Y2-S2-269K20,4,355,PS,exp,37,↑,up,↑,0.6390956002287567,True,10,-1,0,13
Y2-S2-269K20,4,356,PS,exp,45,←,left,←,0.43652800004929304,True,10,1,1,14
Y2-S2-269K20,4,357,PS,exp,28,→,right,→,0.4866876001469791,True,9,1,0,14
Y2-S2-269K20,4,358,PS,exp,45,↑,up,↑,0.4170848000794649,True,9,1,0,14
Y2-S2-269K20,4,359,PS,exp,29,→,up,↑,1.0308757000602782,False,9,-1,1,15
Y2-S2-269K20,4,360,PS,exp,26,↑,up,↑,0.4929443998262286,True,10,-1,0,15
Y2-S2-269K20,4,361,PS,exp,27,←,left,←,0.7342230002395809,True,10,-1,0,15
Y2-S2-269K20,4,362,PS,exp,44,↑,right,→,0.7717360001988709,False,10,-1,0,15
Y2-S2-269K20,4,363,PS,exp,48,←,left,←,0.5216959998942912,True,11,-1,0,15
Y2-S2-269K20,4,364,PS,exp,37,→,left,←,0.8307047002017498,False,11,-1,0,15
Y2-S2-269K20,4,365,PS,exp,30,←,left,←,0.40204120008274913,True,12,-1,0,15
Y2-S2-269K20,4,366,PS,exp,26,→,right,→,0.5726359998807311,True,12,-1,0,15
Y2-S2-269K20,4,367,PS,exp,45,↑,left,←,0.6497173001989722,False,12,-1,0,15
Y2-S2-269K20,4,368,PS,exp,45,↓,left,←,0.4061215999536216,False,13,-1,0,15
Y2-S2-269K20,4,369,PS,exp,28,→,right,→,0.7366019003093243,True,14,-1,0,15
Y2-S2-269K20,4,370,PS,exp,32,↑,up,↑,0.48633299954235554,True,14,-1,0,15
Y2-S2-269K20,4,371,PS,exp,27,←,down,↓,0.4772983998991549,False,14,-1,0,15
Y2-S2-269K20,4,372,PS,exp,31,↓,down,↓,0.6739313998259604,True,15,-1,0,15
Y2-S2-269K20,4,373,PS,exp,37,→,right,→,0.5976323001086712,True,15,-1,0,15
Y2-S2-269K20,4,374,PS,exp,29,←,left,←,0.6247112001292408,True,15,1,1,16
Y2-S2-269K20,5,375,PS,intra_train,47,↓,down,↓,0.6201244001276791,True,15,-,-,-
Y2-S2-269K20,5,376,PS,intra_train,48,↑,up,↑,0.5861805002205074,True,15,-,-,-
Y2-S2-269K20,5,377,PS,intra_train,44,→,right,→,0.5599307003431022,True,15,-,-,-
Y2-S2-269K20,5,378,PS,intra_train,32,↑,up,↑,0.5536597999744117,True,15,-,-,-
Y2-S2-269K20,5,379,PS,intra_train,39,↓,down,↓,0.7807207996957004,True,15,-,-,-
Y2-S2-269K20,5,380,PS,exp,43,←,left,←,0.7152379998005927,True,10,0,0,0
Y2-S2-269K20,5,381,PS,exp,49,↓,down,↓,0.9011576999910176,True,10,0,0,0
Y2-S2-269K20,5,382,PS,exp,31,↑,up,↑,0.5453951000235975,True,10,1,0,0
Y2-S2-269K20,5,383,PS,exp,38,←,left,←,0.45596109982579947,True,9,1,0,0
Y2-S2-269K20,5,384,PS,exp,33,↑,up,↑,0.539905899669975,True,9,1,0,0
Y2-S2-269K20,5,385,PS,exp,27,→,right,→,0.7720949002541602,True,9,1,0,0
Y2-S2-269K20,5,386,PS,exp,43,↑,up,↑,0.5610062996856868,True,8,1,0,0
Y2-S2-269K20,5,387,PS,exp,42,←,left,←,0.589023600332439,True,8,1,0,0
Y2-S2-269K20,5,388,PS,exp,30,↑,up,↑,0.4926351001486182,True,8,1,0,0
Y2-S2-269K20,5,389,PS,exp,44,↓,down,↓,0.6081767003051937,True,7,1,0,0
Y2-S2-269K20,5,390,PS,exp,46,→,right,→,0.7774315001443028,True,7,1,0,0
Y2-S2-269K20,5,391,PS,exp,31,↑,up,↑,0.5653254999779165,True,7,1,0,0
Y2-S2-269K20,5,392,PS,exp,48,←,up,↑,0.7731375996954739,False,6,-1,1,1
Y2-S2-269K20,5,393,PS,exp,48,→,left,←,0.8811642001383007,False,7,-1,0,1
Y2-S2-269K20,5,394,PS,exp,41,↓,down,↓,0.7460142998024821,True,8,-1,0,1
Y2-S2-269K20,5,395,PS,exp,26,→,right,→,0.707137799821794,True,8,-1,0,1
Y2-S2-269K20,5,396,PS,exp,29,↓,down,↓,0.7224456998519599,True,8,1,1,2
Y2-S2-269K20,5,397,PS,exp,42,→,right,→,0.5548457996919751,True,7,1,0,2
Y2-S2-269K20,5,398,PS,exp,25,↑,right,→,0.6325730001553893,False,7,-1,1,3
Y2-S2-269K20,5,399,PS,exp,41,←,left,←,0.527864099945873,True,8,-1,0,3
Y2-S2-269K20,5,400,PS,exp,33,→,right,→,0.4756815996952355,True,8,-1,0,3
Y2-S2-269K20,5,401,PS,exp,28,←,left,←,0.6504025002941489,True,8,1,1,4
Y2-S2-269K20,5,402,PS,exp,32,→,right,→,0.4330589999444783,True,7,1,0,4
Y2-S2-269K20,5,403,PS,exp,42,↓,left,←,0.8164689000695944,False,7,-1,1,5
Y2-S2-269K20,5,404,PS,exp,33,→,right,→,0.7846087999641895,True,8,-1,0,5
Y2-S2-269K20,5,405,PS,exp,33,↑,left,←,1.2498970003798604,False,8,-1,0,5
Y2-S2-269K20,5,406,PS,exp,37,←,left,←,0.7382884998805821,True,9,-1,0,5
Y2-S2-269K20,5,407,PS,exp,47,→,right,→,0.6217402997426689,True,9,-1,0,5
Y2-S2-269K20,5,408,PS,exp,31,↑,right,→,0.741045500151813,False,9,-1,0,5
Y2-S2-269K20,5,409,PS,exp,33,→,right,→,0.5915878997184336,True,10,-1,0,5
Y2-S2-269K20,5,410,PS,exp,35,←,right,→,0.9275811002589762,False,10,-1,0,5
Y2-S2-269K20,5,411,PS,exp,38,→,right,→,0.5286901001818478,True,11,-1,0,5
Y2-S2-269K20,5,412,PS,exp,25,↑,up,↑,0.6976709999144077,True,11,-1,0,5
Y2-S2-269K20,5,413,PS,exp,40,→,right,→,0.586343300063163,True,11,1,1,6
Y2-S2-269K20,5,414,PS,exp,35,↑,up,↑,0.7391001000069082,True,10,1,0,6
Y2-S2-269K20,5,415,PS,exp,47,→,right,→,0.6959878001362085,True,10,1,0,6
Y2-S2-269K20,5,416,PS,exp,45,←,left,←,0.5440580998547375,True,10,1,0,6
Y2-S2-269K20,5,417,PS,exp,40,↓,down,↓,0.7369118998758495,True,9,1,0,6
Y2-S2-269K20,5,418,PS,exp,25,→,right,→,0.623361499980092,True,9,1,0,6
Y2-S2-269K20,5,419,PS,exp,38,↓,down,↓,0.6590505000203848,True,9,1,0,6
Y2-S2-269K20,5,420,PS,exp,37,←,left,←,0.8750416003167629,True,8,1,0,6
Y2-S2-269K20,5,421,PS,exp,48,↓,down,↓,0.6562812998890877,True,8,1,0,6
Y2-S2-269K20,5,422,PS,exp,48,←,left,←,0.5497987000271678,True,8,1,0,6
Y2-S2-269K20,5,423,PS,exp,25,→,right,→,0.7027436997741461,True,7,1,0,6
Y2-S2-269K20,5,424,PS,exp,29,←,left,←,0.8678522002883255,True,7,1,0,6
Y2-S2-269K20,5,425,PS,exp,29,↑,left,←,0.7382486001588404,False,7,-1,1,7
Y2-S2-269K20,5,426,PS,exp,39,↓,left,←,0.7755609001033008,False,8,-1,0,7
Y2-S2-269K20,5,427,PS,exp,44,→,right,→,0.5869611999951303,True,9,-1,0,7
Y2-S2-269K20,5,428,PS,exp,32,↑,up,↑,0.6824097000062466,True,9,-1,0,7
Y2-S2-269K20,5,429,PS,exp,38,→,right,→,0.6774391001090407,True,9,1,1,8
Y2-S2-269K20,5,430,PS,exp,37,↑,up,↑,0.6442503998987377,True,8,1,0,8
Y2-S2-269K20,5,431,PS,exp,34,→,right,→,0.5046799001283944,True,8,1,0,8
Y2-S2-269K20,5,432,PS,exp,30,↓,down,↓,0.5735323997214437,True,8,1,0,8
Y2-S2-269K20,5,433,PS,exp,47,↑,down,↓,0.6404333999380469,False,7,-1,1,9
Y2-S2-269K20,5,434,PS,exp,25,←,right,→,0.47767689963802695,False,8,-1,0,9
Y2-S2-269K20,5,435,PS,exp,44,→,right,→,0.6975548998452723,True,9,-1,0,9
Y2-S2-269K20,5,436,PS,exp,45,↑,up,↑,0.6643540002405643,True,9,-1,0,9
Y2-S2-269K20,5,437,PS,exp,47,→,right,→,0.8179025002755225,True,9,1,1,10
Y2-S2-269K20,5,438,PS,exp,41,←,left,←,0.7816053000278771,True,8,1,0,10
Y2-S2-269K20,5,439,PS,exp,26,↑,up,↑,0.601365499664098,True,8,1,0,10
Y2-S2-269K20,5,440,PS,exp,27,→,right,→,0.6309376996941864,True,8,1,0,10
Y2-S2-269K20,5,441,PS,exp,33,↑,up,↑,0.7557894000783563,True,7,1,0,10
Y2-S2-269K20,5,442,PS,exp,49,↓,right,→,0.8548610000871122,False,7,-1,1,11
Y2-S2-269K20,5,443,PS,exp,32,→,right,→,0.7122072000056505,True,8,-1,0,11
Y2-S2-269K20,5,444,PS,exp,35,←,left,←,0.682752899825573,True,8,-1,0,11
Y2-S2-269K20,5,445,PS,exp,38,↓,down,↓,0.7432759003713727,True,8,1,1,12
Y2-S2-269K20,5,446,PS,exp,44,←,down,↓,0.6934158001095057,False,7,-1,1,13
Y2-S2-269K20,5,447,PS,exp,32,→,right,→,0.8303497000597417,True,8,-1,0,13
Y2-S2-269K20,5,448,PS,exp,33,←,right,→,0.7430432001128793,False,8,-1,0,13
Y2-S2-269K20,5,449,PS,exp,34,→,right,→,0.6127418000251055,True,9,-1,0,13
Y2-S2-269K20,5,450,PS,exp,48,↓,down,↓,0.7652598000131547,True,9,-1,0,13
Y2-S2-269K20,5,451,PS,exp,29,↑,up,↑,0.7202089000493288,True,9,1,1,14
Y2-S2-269K20,5,452,PS,exp,37,↓,down,↓,0.8043976998887956,True,8,1,0,14
Y2-S2-269K20,5,453,PS,exp,38,→,right,→,0.7430145000107586,True,8,1,0,14
Y2-S2-269K20,5,454,PS,exp,41,←,left,←,0.5503605999983847,True,8,1,0,14
Y2-S2-269K20,5,455,PS,exp,25,↑,left,←,0.9524212996475399,False,7,-1,1,15
Y2-S2-269K20,5,456,PS,exp,33,→,right,→,0.7176903998479247,True,8,-1,0,15
Y2-S2-269K20,5,457,PS,exp,40,↑,up,↑,0.644365900196135,True,8,-1,0,15
Y2-S2-269K20,5,458,PS,exp,40,↓,down,↓,0.6687188004143536,True,8,1,1,16
Y2-S2-269K20,6,459,AS,intra_train,34,→,right,→,0.7392675001174212,True,30,-,-,-
Y2-S2-269K20,6,460,AS,intra_train,27,↓,down,↓,0.7713331999257207,True,30,-,-,-
Y2-S2-269K20,6,461,AS,intra_train,44,↑,up,↑,0.6173065002076328,True,30,-,-,-
Y2-S2-269K20,6,462,AS,intra_train,25,→,right,→,0.48418560018762946,True,30,-,-,-
Y2-S2-269K20,6,463,AS,intra_train,40,↓,down,↓,0.8053310997784138,True,30,-,-,-
Y2-S2-269K20,6,464,AS,exp,46,→,right,→,0.8152053002268076,True,20,0,0,0
Y2-S2-269K20,6,465,AS,exp,45,↓,down,↓,0.9321401002816856,True,20,0,0,0
Y2-S2-269K20,6,466,AS,exp,25,←,left,←,0.9954176000319421,True,20,1,0,0
Y2-S2-269K20,6,467,AS,exp,48,↑,down,↓,0.8643943001516163,False,19,-1,1,1
Y2-S2-269K20,6,468,AS,exp,43,↓,down,↓,0.5977745000272989,True,20,-1,0,1
Y2-S2-269K20,6,469,AS,exp,42,→,left,←,0.5019339001737535,False,20,-1,0,1
Y2-S2-269K20,6,470,AS,exp,38,↑,down,↓,0.7277660998515785,False,21,-1,0,1
Y2-S2-269K20,6,471,AS,exp,48,←,left,←,0.6157607999630272,True,22,-1,0,1
Y2-S2-269K20,6,472,AS,exp,28,↑,left,←,0.38392059970647097,False,22,-1,0,1
Y2-S2-269K20,6,473,AS,exp,41,↓,down,↓,0.6322176996618509,True,23,-1,0,1
Y2-S2-269K20,6,474,AS,exp,49,←,left,←,0.7296968000009656,True,23,-1,0,1
Y2-S2-269K20,6,475,AS,exp,35,↓,down,↓,0.706377699971199,True,23,1,1,2
Y2-S2-269K20,6,476,AS,exp,38,→,left,←,0.43395530013367534,False,22,-1,1,3
Y2-S2-269K20,6,477,AS,exp,41,↑,up,↑,0.7088251998648047,True,23,-1,0,3
Y2-S2-269K20,6,478,AS,exp,44,↓,down,↓,0.6855114996433258,True,23,-1,0,3
Y2-S2-269K20,6,479,AS,exp,35,←,left,←,0.6172277997247875,True,23,1,1,4
Y2-S2-269K20,6,480,AS,exp,48,↓,down,↓,0.7603905000723898,True,22,1,0,4
Y2-S2-269K20,6,481,AS,exp,47,→,left,←,0.730489999987185,False,22,-1,1,5
Y2-S2-269K20,6,482,AS,exp,41,←,left,←,0.48405189998447895,True,23,-1,0,5
Y2-S2-269K20,6,483,AS,exp,50,↓,down,↓,0.7202463997527957,True,23,-1,0,5
Y2-S2-269K20,6,484,AS,exp,32,↑,up,↑,0.7731575998477638,True,23,1,1,6
Y2-S2-269K20,6,485,AS,exp,44,↓,down,↓,0.7598367002792656,True,22,1,0,6
Y2-S2-269K20,6,486,AS,exp,48,←,left,←,0.690575800370425,True,22,1,0,6
Y2-S2-269K20,6,487,AS,exp,25,→,right,→,0.9192361999303102,True,22,1,0,6
Y2-S2-269K20,6,488,AS,exp,46,←,left,←,0.45041179982945323,True,21,1,0,6
Y2-S2-269K20,6,489,AS,exp,32,↓,down,↓,0.7638934999704361,True,21,1,0,6
Y2-S2-269K20,6,490,AS,exp,26,←,down,↓,1.1364283999428153,False,21,-1,1,7
Y2-S2-269K20,6,491,AS,exp,30,→,left,←,0.6014728001318872,False,22,-1,0,7
Y2-S2-269K20,6,492,AS,exp,48,↓,down,↓,1.1879724999889731,True,23,-1,0,7
Y2-S2-269K20,6,493,AS,exp,50,←,left,←,0.6096606999635696,True,23,-1,0,7
Y2-S2-269K20,6,494,AS,exp,27,↓,down,↓,0.9451123001053929,True,23,1,1,8
Y2-S2-269K20,6,495,AS,exp,42,→,right,→,0.7878704997710884,True,22,1,0,8
Y2-S2-269K20,6,496,AS,exp,31,↓,down,↓,0.6314727999269962,True,22,1,0,8
Y2-S2-269K20,6,497,AS,exp,45,↑,up,↑,0.7109421002678573,True,22,1,0,8
Y2-S2-269K20,6,498,AS,exp,37,→,right,→,0.829714700113982,True,21,1,0,8
Y2-S2-269K20,6,499,AS,exp,31,←,left,←,0.66537019982934,True,21,1,0,8
Y2-S2-269K20,6,500,AS,exp,29,↑,up,↑,0.7365087000653148,True,21,1,0,8
Y2-S2-269K20,6,501,AS,exp,35,→,right,→,0.6424447000026703,True,20,1,0,8
Y2-S2-269K20,6,502,AS,exp,33,↑,up,↑,0.6935752001591027,True,20,1,0,8
Y2-S2-269K20,6,503,AS,exp,35,←,left,←,0.5556990001350641,True,20,1,0,8
Y2-S2-269K20,6,504,AS,exp,34,→,right,→,0.6337374001741409,True,19,1,0,8
Y2-S2-269K20,6,505,AS,exp,33,↓,down,↓,0.6779975998215377,True,19,1,0,8
Y2-S2-269K20,6,506,AS,exp,28,→,right,→,0.721518499776721,True,19,1,0,8
Y2-S2-269K20,6,507,AS,exp,33,←,left,←,0.8730210000649095,True,18,1,0,8
Y2-S2-269K20,6,508,AS,exp,44,→,right,→,0.49681519996374846,True,18,1,0,8
Y2-S2-269K20,6,509,AS,exp,50,←,left,←,0.7236462999135256,True,18,1,0,8
Y2-S2-269K20,6,510,AS,exp,28,↑,up,↑,0.6230065003037453,True,17,1,0,8
Y2-S2-269K20,6,511,AS,exp,47,←,left,←,1.095893600024283,True,17,1,0,8
Y2-S2-269K20,6,512,AS,exp,33,→,right,→,0.5391849996522069,True,17,1,0,8
Y2-S2-269K20,6,513,AS,exp,45,↑,up,↑,0.50739899976179,True,16,1,0,8
Y2-S2-269K20,6,514,AS,exp,47,↓,up,↑,1.0508177001029253,False,16,-1,1,9
Y2-S2-269K20,6,515,AS,exp,42,↑,up,↑,0.9059095000848174,True,17,-1,0,9
Y2-S2-269K20,6,516,AS,exp,33,↓,down,↓,0.7846710998564959,True,17,-1,0,9
Y2-S2-269K20,6,517,AS,exp,29,→,right,→,0.7403758997097611,True,17,1,1,10
Y2-S2-269K20,6,518,AS,exp,25,↓,down,↓,0.6846313001587987,True,16,1,0,10
Y2-S2-269K20,6,519,AS,exp,41,←,left,←,0.46962109999731183,True,16,1,0,10
Y2-S2-269K20,6,520,AS,exp,33,↑,up,↑,0.5480102002620697,True,16,1,0,10
Y2-S2-269K20,6,521,AS,exp,48,→,left,←,0.6581287002190948,False,15,-1,1,11
Y2-S2-269K20,6,522,AS,exp,48,↓,down,↓,0.6864649001508951,True,16,-1,0,11
Y2-S2-269K20,6,523,AS,exp,31,↑,up,↑,0.5639698999002576,True,16,-1,0,11
Y2-S2-269K20,6,524,AS,exp,34,→,right,→,0.7610735995694995,True,16,1,1,12
Y2-S2-269K20,6,525,AS,exp,45,←,left,←,0.6492047999054193,True,15,1,0,12
Y2-S2-269K20,6,526,AS,exp,30,↑,up,↑,0.6229574996978045,True,15,1,0,12
Y2-S2-269K20,6,527,AS,exp,45,→,right,→,0.7444099001586437,True,15,1,0,12
Y2-S2-269K20,6,528,AS,exp,35,↓,down,↓,0.7952570002526045,True,14,1,0,12
Y2-S2-269K20,6,529,AS,exp,29,↑,up,↑,0.5347647997550666,True,14,1,0,12
Y2-S2-269K20,6,530,AS,exp,25,←,left,←,0.7234171996824443,True,14,1,0,12
Y2-S2-269K20,6,531,AS,exp,32,→,right,→,0.7170432000420988,True,13,1,0,12
Y2-S2-269K20,6,532,AS,exp,43,↑,up,↑,0.46718170028179884,True,13,1,0,12
Y2-S2-269K20,6,533,AS,exp,49,←,left,←,0.49530640011653304,True,13,1,0,12
Y2-S2-269K20,6,534,AS,exp,26,↓,down,↓,0.7029451001435518,True,12,1,0,12
Y2-S2-269K20,6,535,AS,exp,45,←,right,→,0.6741268998011947,False,12,-1,1,13
Y2-S2-269K20,6,536,AS,exp,32,↑,up,↑,0.6323706000111997,True,13,-1,0,13
Y2-S2-269K20,6,537,AS,exp,25,↓,down,↓,0.7265694998204708,True,13,-1,0,13
Y2-S2-269K20,6,538,AS,exp,43,→,right,→,0.574706600047648,True,13,1,1,14
Y2-S2-269K20,6,539,AS,exp,41,←,left,←,0.5152265001088381,True,12,1,0,14
Y2-S2-269K20,6,540,AS,exp,36,↑,up,↑,0.45186210004612803,True,12,1,0,14
Y2-S2-269K20,6,541,AS,exp,25,←,left,←,0.7622107998467982,True,12,1,0,14
Y2-S2-269K20,6,542,AS,exp,33,→,up,↑,0.8874598001129925,False,11,-1,1,15
Y2-S2-269K20,6,543,AS,exp,27,←,left,←,0.4789923997595906,True,12,-1,0,15
Y2-S2-269K20,6,544,AS,exp,26,→,right,→,0.8726861998438835,True,12,-1,0,15
Y2-S2-269K20,6,545,AS,exp,41,←,left,←,0.44426440028473735,True,12,1,1,16
Y2-S2-269K20,7,546,AS,intra_train,26,↑,up,↑,0.5669450000859797,True,30,-,-,-
Y2-S2-269K20,7,547,AS,intra_train,39,←,left,←,0.7593661001883447,True,30,-,-,-
Y2-S2-269K20,7,548,AS,intra_train,26,→,right,→,0.517538100015372,True,30,-,-,-
Y2-S2-269K20,7,549,AS,intra_train,37,↓,down,↓,0.6175389001145959,True,30,-,-,-
Y2-S2-269K20,7,550,AS,intra_train,31,↑,up,↑,0.6339276996441185,True,30,-,-,-
Y2-S2-269K20,7,551,AS,exp,33,→,no_key,no_letter,-1.0,False,20,-1,0,0
Y2-S2-269K20,7,552,AS,exp,37,↑,up,↑,0.6999656995758414,True,21,-1,0,0
Y2-S2-269K20,7,553,AS,exp,43,→,right,→,0.6705613001249731,True,21,-1,0,0
Y2-S2-269K20,7,554,AS,exp,42,←,left,←,0.6241580001078546,True,21,1,1,1
Y2-S2-269K20,7,555,AS,exp,32,↓,down,↓,0.8469019001349807,True,20,1,0,1
Y2-S2-269K20,7,556,AS,exp,39,↑,up,↑,0.45055559976026416,True,20,1,0,1
Y2-S2-269K20,7,557,AS,exp,25,→,right,→,0.5813108999282122,True,20,1,0,1
Y2-S2-269K20,7,558,AS,exp,44,←,left,←,0.7687405999749899,True,19,1,0,1
Y2-S2-269K20,7,559,AS,exp,40,↑,up,↑,0.6033350001089275,True,19,1,0,1
Y2-S2-269K20,7,560,AS,exp,46,↓,down,↓,0.5776371001265943,True,19,1,0,1
Y2-S2-269K20,7,561,AS,exp,30,→,right,→,0.643792700022459,True,18,1,0,1
Y2-S2-269K20,7,562,AS,exp,50,←,left,←,0.8578285002149642,True,18,1,0,1
Y2-S2-269K20,7,563,AS,exp,34,↓,down,↓,0.6338325999677181,True,18,1,0,1
Y2-S2-269K20,7,564,AS,exp,42,→,right,→,0.656963299959898,True,17,1,0,1
Y2-S2-269K20,7,565,AS,exp,45,↑,up,↑,0.5310535999014974,True,17,1,0,1
Y2-S2-269K20,7,566,AS,exp,35,←,left,←,0.6862780000083148,True,17,1,0,1
Y2-S2-269K20,7,567,AS,exp,28,↑,up,↑,0.5352608999237418,True,16,1,0,1
Y2-S2-269K20,7,568,AS,exp,34,↓,down,↓,0.6399115999229252,True,16,1,0,1
Y2-S2-269K20,7,569,AS,exp,49,↑,up,↑,0.6415899000130594,True,16,1,0,1
Y2-S2-269K20,7,570,AS,exp,31,↓,down,↓,0.7095042001456022,True,15,1,0,1
Y2-S2-269K20,7,571,AS,exp,50,↑,down,↓,0.8426997000351548,False,15,-1,1,2
Y2-S2-269K20,7,572,AS,exp,49,↓,down,↓,0.6088991998694837,True,16,-1,0,2
Y2-S2-269K20,7,573,AS,exp,32,↑,up,↑,0.5325686996802688,True,16,-1,0,2
Y2-S2-269K20,7,574,AS,exp,42,↓,down,↓,0.721961900126189,True,16,1,1,3
Y2-S2-269K20,7,575,AS,exp,26,→,right,→,0.8978220000863075,True,15,1,0,3
Y2-S2-269K20,7,576,AS,exp,26,↓,down,↓,0.6626349999569356,True,15,1,0,3
Y2-S2-269K20,7,577,AS,exp,40,→,down,↓,0.8171087000519037,False,15,-1,1,4
Y2-S2-269K20,7,578,AS,exp,27,↓,down,↓,0.6590029001235962,True,16,-1,0,4
Y2-S2-269K20,7,579,AS,exp,25,↑,down,↓,0.7652247003279626,False,16,-1,0,4
Y2-S2-269K20,7,580,AS,exp,28,←,left,←,0.5048421998508275,True,17,-1,0,4
Y2-S2-269K20,7,581,AS,exp,25,↑,up,↑,0.8033817997202277,True,17,-1,0,4
Y2-S2-269K20,7,582,AS,exp,49,↓,down,↓,0.6145720002241433,True,17,1,1,5
Y2-S2-269K20,7,583,AS,exp,29,↑,up,↑,0.7731869998387992,True,16,1,0,5
Y2-S2-269K20,7,584,AS,exp,37,↓,down,↓,0.6499950997531414,True,16,1,0,5
Y2-S2-269K20,7,585,AS,exp,27,←,left,←,0.5705764000304043,True,16,1,0,5
Y2-S2-269K20,7,586,AS,exp,37,↑,right,→,1.144550499971956,False,15,-1,1,6
Y2-S2-269K20,7,587,AS,exp,46,←,left,←,0.6654926999472082,True,16,-1,0,6
Y2-S2-269K20,7,588,AS,exp,49,↓,left,←,0.6621873998083174,False,16,-1,0,6
Y2-S2-269K20,7,589,AS,exp,31,→,right,→,0.7028142004273832,True,17,-1,0,6
Y2-S2-269K20,7,590,AS,exp,50,←,right,→,0.8171693999320269,False,17,-1,0,6
Y2-S2-269K20,7,591,AS,exp,40,→,down,↓,1.1387110999785364,False,18,-1,0,6
Y2-S2-269K20,7,592,AS,exp,37,↓,down,↓,0.649564899969846,True,19,-1,0,6
Y2-S2-269K20,7,593,AS,exp,36,←,left,←,0.6252108998596668,True,19,-1,0,6
Y2-S2-269K20,7,594,AS,exp,34,↓,down,↓,0.588603800162673,True,19,1,1,7
Y2-S2-269K20,7,595,AS,exp,32,←,left,←,0.6093632001429796,True,18,1,0,7
Y2-S2-269K20,7,596,AS,exp,31,→,no_key,no_letter,-1.0,False,18,-1,1,8
Y2-S2-269K20,7,597,AS,exp,44,↓,down,↓,0.7194317001849413,True,19,-1,0,8
Y2-S2-269K20,7,598,AS,exp,34,←,left,←,0.6261451002210379,True,19,-1,0,8
Y2-S2-269K20,7,599,AS,exp,48,→,right,→,0.5818676999770105,True,19,1,1,9
Y2-S2-269K20,7,600,AS,exp,37,↓,down,↓,0.5249439002946019,True,18,1,0,9
Y2-S2-269K20,7,601,AS,exp,30,↑,left,←,0.5455871997401118,False,18,-1,1,10
Y2-S2-269K20,7,602,AS,exp,33,→,right,→,0.5487654004245996,True,19,-1,0,10
Y2-S2-269K20,7,603,AS,exp,38,↑,up,↑,0.5209328001365066,True,19,-1,0,10
Y2-S2-269K20,7,604,AS,exp,30,←,left,←,0.5582980001345277,True,19,1,1,11
Y2-S2-269K20,7,605,AS,exp,50,→,right,→,0.5823125001043081,True,18,1,0,11
Y2-S2-269K20,7,606,AS,exp,32,↓,down,↓,0.6237475997768342,True,18,1,0,11
Y2-S2-269K20,7,607,AS,exp,45,→,right,→,0.675938599742949,True,18,1,0,11
Y2-S2-269K20,7,608,AS,exp,31,↑,up,↑,0.6833063997328281,True,17,1,0,11
Y2-S2-269K20,7,609,AS,exp,30,↓,down,↓,0.6429225001484156,True,17,1,0,11
Y2-S2-269K20,7,610,AS,exp,36,←,down,↓,0.5836162003688514,False,17,-1,1,12
Y2-S2-269K20,7,611,AS,exp,40,↓,down,↓,0.8272182000800967,True,18,-1,0,12
Y2-S2-269K20,7,612,AS,exp,44,↑,left,←,1.1180600998923182,False,18,-1,0,12
Y2-S2-269K20,7,613,AS,exp,45,↓,down,↓,0.5603227000683546,True,19,-1,0,12
Y2-S2-269K20,7,614,AS,exp,49,→,right,→,0.7010387997142971,True,19,-1,0,12
Y2-S2-269K20,7,615,AS,exp,43,←,right,→,1.0520064998418093,False,19,-1,0,12
Y2-S2-269K20,7,616,AS,exp,27,→,right,→,0.7263706997036934,True,20,-1,0,12
Y2-S2-269K20,7,617,AS,exp,42,↑,up,↑,0.6894892998971045,True,20,-1,0,12
Y2-S2-269K20,7,618,AS,exp,30,↓,down,↓,0.7108865999616683,True,20,1,1,13
Y2-S2-269K20,7,619,AS,exp,31,→,right,→,0.5047595999203622,True,19,1,0,13
Y2-S2-269K20,7,620,AS,exp,37,←,left,←,0.6622808999381959,True,19,1,0,13
Y2-S2-269K20,7,621,AS,exp,37,↑,up,↑,0.6853480003774166,True,19,1,0,13
Y2-S2-269K20,7,622,AS,exp,50,↓,down,↓,0.7022072998806834,True,18,1,0,13
Y2-S2-269K20,7,623,AS,exp,38,←,left,←,0.5710970000363886,True,18,1,0,13
Y2-S2-269K20,7,624,AS,exp,39,↑,up,↑,0.6277685002423823,True,18,1,0,13
Y2-S2-269K20,7,625,AS,exp,47,←,left,←,0.691771799698472,True,17,1,0,13
Y2-S2-269K20,7,626,AS,exp,43,↑,up,↑,0.555819199886173,True,17,1,0,13
Y2-S2-269K20,7,627,AS,exp,28,←,up,↑,0.7839478999376297,False,17,-1,1,14
Y2-S2-269K20,7,628,AS,exp,43,→,right,→,0.6866510999388993,True,18,-1,0,14
Y2-S2-269K20,7,629,AS,exp,28,←,left,←,0.594002400059253,True,18,-1,0,14
Y2-S2-269K20,7,630,AS,exp,32,↑,up,↑,0.7649308000691235,True,18,1,1,15
Y2-S2-269K20,7,631,AS,exp,33,→,right,→,0.5585485999472439,True,17,1,0,15
Y2-S2-269K20,7,632,AS,exp,32,↑,up,↑,0.676931600086391,True,17,1,0,15
Y2-S2-269K20,7,633,AS,exp,33,←,left,←,0.5141341001726687,True,17,1,0,15
Y2-S2-269K20,7,634,AS,exp,41,↓,up,↑,0.6580710001289845,False,16,-1,1,16
Y2-S2-269K20,8,635,PS,intra_train,49,→,up,↑,0.9918363997712731,False,15,-,-,-
Y2-S2-269K20,8,636,PS,intra_train,35,↑,up,↑,0.8600603002123535,True,15,-,-,-
Y2-S2-269K20,8,637,PS,intra_train,42,↓,down,↓,0.517663000151515,True,15,-,-,-
Y2-S2-269K20,8,638,PS,intra_train,39,→,up,↑,0.8187827998772264,False,15,-,-,-
Y2-S2-269K20,8,639,PS,intra_train,35,↓,down,↓,0.5171397002413869,True,15,-,-,-
Y2-S2-269K20,8,640,PS,exp,47,↑,up,↑,0.5202425997704268,True,10,0,0,0
Y2-S2-269K20,8,641,PS,exp,42,→,right,→,0.5475697000510991,True,10,0,0,0
Y2-S2-269K20,8,642,PS,exp,39,↓,right,→,0.3767325999215245,False,10,-1,0,0
Y2-S2-269K20,8,643,PS,exp,37,→,right,→,0.5079370001330972,True,11,-1,0,0
Y2-S2-269K20,8,644,PS,exp,45,↓,down,↓,0.4564693998545408,True,11,-1,0,0
Y2-S2-269K20,8,645,PS,exp,38,→,right,→,0.47845839988440275,True,11,1,1,1
Y2-S2-269K20,8,646,PS,exp,33,↓,down,↓,0.4509352999739349,True,10,1,0,1
Y2-S2-269K20,8,647,PS,exp,46,↑,up,↑,0.5841445997357368,True,10,1,0,1
Y2-S2-269K20,8,648,PS,exp,32,→,right,→,0.5679991999641061,True,10,1,0,1
Y2-S2-269K20,8,649,PS,exp,27,↑,up,↑,0.45658789994195104,True,9,1,0,1
Y2-S2-269K20,8,650,PS,exp,39,→,right,→,0.49681670032441616,True,9,1,0,1
Y2-S2-269K20,8,651,PS,exp,35,↑,up,↑,0.6751683000475168,True,9,1,0,1
Y2-S2-269K20,8,652,PS,exp,37,→,right,→,0.3518916997127235,True,8,1,0,1
Y2-S2-269K20,8,653,PS,exp,40,↓,up,↑,0.5749075999483466,False,8,-1,1,2
Y2-S2-269K20,8,654,PS,exp,27,→,right,→,0.5023532002232969,True,9,-1,0,2
Y2-S2-269K20,8,655,PS,exp,33,←,right,→,0.377212299965322,False,9,-1,0,2
Y2-S2-269K20,8,656,PS,exp,49,→,right,→,0.6022025998681784,True,10,-1,0,2
Y2-S2-269K20,8,657,PS,exp,33,↑,up,↑,0.4889620002359152,True,10,-1,0,2
Y2-S2-269K20,8,658,PS,exp,36,→,up,↑,0.7018116000108421,False,10,-1,0,2
Y2-S2-269K20,8,659,PS,exp,47,↑,up,↑,0.36477520037442446,True,11,-1,0,2
Y2-S2-269K20,8,660,PS,exp,44,→,up,↑,0.6561422999948263,False,11,-1,0,2
Y2-S2-269K20,8,661,PS,exp,46,←,up,↑,0.6206725998781621,False,12,-1,0,2
Y2-S2-269K20,8,662,PS,exp,49,→,no_key,no_letter,-1.0,False,13,-1,0,2
Y2-S2-269K20,8,663,PS,exp,49,←,left,←,0.5438112001866102,True,14,-1,0,2
Y2-S2-269K20,8,664,PS,exp,43,↓,down,↓,0.7002167999744415,True,14,-1,0,2
Y2-S2-269K20,8,665,PS,exp,46,←,left,←,0.7294994997791946,True,14,1,1,3
Y2-S2-269K20,8,666,PS,exp,29,↓,down,↓,0.6641330001875758,True,13,1,0,3
Y2-S2-269K20,8,667,PS,exp,28,←,up,↑,0.6402565999887884,False,13,-1,1,4
Y2-S2-269K20,8,668,PS,exp,31,→,right,→,0.648110399954021,True,14,-1,0,4
Y2-S2-269K20,8,669,PS,exp,38,↓,down,↓,0.6969850999303162,True,14,-1,0,4
Y2-S2-269K20,8,670,PS,exp,34,←,left,←,1.0149937998503447,True,14,1,1,5
Y2-S2-269K20,8,671,PS,exp,41,→,right,→,0.5496423002332449,True,13,1,0,5
Y2-S2-269K20,8,672,PS,exp,35,←,left,←,0.5078400997444987,True,13,1,0,5
Y2-S2-269K20,8,673,PS,exp,45,→,right,→,0.5376396998763084,True,13,1,0,5
Y2-S2-269K20,8,674,PS,exp,31,←,left,←,0.6825450998730958,True,12,1,0,5
Y2-S2-269K20,8,675,PS,exp,36,↑,up,↑,0.45396440010517836,True,12,1,0,5
Y2-S2-269K20,8,676,PS,exp,31,↓,down,↓,0.6712919003330171,True,12,1,0,5
Y2-S2-269K20,8,677,PS,exp,46,←,left,←,0.5282538998872042,True,11,1,0,5
Y2-S2-269K20,8,678,PS,exp,25,↑,up,↑,0.527810599654913,True,11,1,0,5
Y2-S2-269K20,8,679,PS,exp,44,→,right,→,0.5050188000313938,True,11,1,0,5
Y2-S2-269K20,8,680,PS,exp,46,↓,down,↓,0.6677278000861406,True,10,1,0,5
Y2-S2-269K20,8,681,PS,exp,48,→,up,↑,0.5146631998941302,False,10,-1,1,6
Y2-S2-269K20,8,682,PS,exp,38,←,right,→,0.9913345002569258,False,11,-1,0,6
Y2-S2-269K20,8,683,PS,exp,35,→,right,→,0.5190294003114104,True,12,-1,0,6
Y2-S2-269K20,8,684,PS,exp,47,←,left,←,0.5226246998645365,True,12,-1,0,6
Y2-S2-269K20,8,685,PS,exp,28,↑,left,←,0.4381638001650572,False,12,-1,0,6
Y2-S2-269K20,8,686,PS,exp,33,←,right,→,0.5084373997524381,False,13,-1,0,6
Y2-S2-269K20,8,687,PS,exp,33,→,right,→,0.5381152001209557,True,14,-1,0,6
Y2-S2-269K20,8,688,PS,exp,44,↓,down,↓,0.6344220996834338,True,14,-1,0,6
Y2-S2-269K20,8,689,PS,exp,28,←,left,←,0.5844816002063453,True,14,1,1,7
Y2-S2-269K20,8,690,PS,exp,27,↑,up,↑,0.4734497996978462,True,13,1,0,7
Y2-S2-269K20,8,691,PS,exp,26,←,left,←,0.5426117000170052,True,13,1,0,7
Y2-S2-269K20,8,692,PS,exp,48,↓,down,↓,0.6495106997899711,True,13,1,0,7
Y2-S2-269K20,8,693,PS,exp,28,→,right,→,0.5261798999272287,True,12,1,0,7
Y2-S2-269K20,8,694,PS,exp,45,↑,left,←,0.7480867002159357,False,12,-1,1,8
Y2-S2-269K20,8,695,PS,exp,35,←,left,←,0.5219062999822199,True,13,-1,0,8
Y2-S2-269K20,8,696,PS,exp,48,↓,down,↓,0.6809319998137653,True,13,-1,0,8
Y2-S2-269K20,8,697,PS,exp,32,↑,up,↑,0.6150346999056637,True,13,1,1,9
Y2-S2-269K20,8,698,PS,exp,25,↓,left,←,0.8016372001729906,False,12,-1,1,10
Y2-S2-269K20,8,699,PS,exp,45,←,left,←,0.45399060007184744,True,13,-1,0,10
Y2-S2-269K20,8,700,PS,exp,27,↑,up,↑,0.44523240020498633,True,13,-1,0,10
Y2-S2-269K20,8,701,PS,exp,33,←,left,←,0.5253063999116421,True,13,1,1,11
Y2-S2-269K20,8,702,PS,exp,43,↑,up,↑,0.379840400069952,True,12,1,0,11
Y2-S2-269K20,8,703,PS,exp,34,→,right,→,0.5154577000066638,True,12,1,0,11
Y2-S2-269K20,8,704,PS,exp,29,↑,right,→,0.5028752000071108,False,12,-1,1,12
Y2-S2-269K20,8,705,PS,exp,33,↓,up,↑,0.20055200019851327,False,13,-1,0,12
Y2-S2-269K20,8,706,PS,exp,40,←,left,←,0.5078441998921335,True,14,-1,0,12
Y2-S2-269K20,8,707,PS,exp,49,→,right,→,0.5529465000145137,True,14,-1,0,12
Y2-S2-269K20,8,708,PS,exp,25,↓,down,↓,0.6685306001454592,True,14,1,1,13
Y2-S2-269K20,8,709,PS,exp,30,←,left,←,0.5453138002194464,True,13,1,0,13
Y2-S2-269K20,8,710,PS,exp,42,↑,up,↑,0.48463650001212955,True,13,1,0,13
Y2-S2-269K20,8,711,PS,exp,38,↓,down,↓,0.6820828998461366,True,13,1,0,13
Y2-S2-269K20,8,712,PS,exp,47,→,right,→,0.5562898996286094,True,12,1,0,13
Y2-S2-269K20,8,713,PS,exp,39,←,left,←,0.5243656998500228,True,12,1,0,13
Y2-S2-269K20,8,714,PS,exp,29,↑,up,↑,0.4506314001046121,True,12,1,0,13
Y2-S2-269K20,8,715,PS,exp,25,←,left,←,0.5117207001894712,True,11,1,0,13
Y2-S2-269K20,8,716,PS,exp,45,↑,up,↑,0.5526574999094009,True,11,1,0,13
Y2-S2-269K20,8,717,PS,exp,30,←,up,↑,0.58417379995808,False,11,-1,1,14
Y2-S2-269K20,8,718,PS,exp,49,↓,left,←,0.7864732001908123,False,12,-1,0,14
Y2-S2-269K20,8,719,PS,exp,36,←,left,←,0.5098810996860266,True,13,-1,0,14
Y2-S2-269K20,8,720,PS,exp,40,↑,up,↑,0.4332137000747025,True,13,-1,0,14
Y2-S2-269K20,8,721,PS,exp,30,↓,down,↓,1.0474482998251915,True,13,1,1,15
Y2-S2-269K20,8,722,PS,exp,30,←,down,↓,1.023827400058508,False,12,-1,1,16
