PART_ID,Block_no,Trial_no,Block_type,Trial_type,CSI,Stim_letter,Key_pressed,letter_choose,Rt,Corr,Stimulus Time,Level,Reversal,Revs_count
Y2-S2-111K20,1,1,PS,train,36,↑,up,↑,0.6846050000749528,True,30,-,-,-
Y2-S2-111K20,1,2,PS,train,34,↓,down,↓,0.6340975998900831,True,30,-,-,-
Y2-S2-111K20,1,3,PS,train,40,→,right,→,0.6347077996470034,True,30,-,-,-
Y2-S2-111K20,1,4,PS,train,48,↑,up,↑,0.7462412999011576,True,30,-,-,-
Y2-S2-111K20,1,5,PS,train,33,→,right,→,0.7295192000456154,True,30,-,-,-
Y2-S2-111K20,1,6,PS,train,26,↑,up,↑,1.476342000067234,True,30,-,-,-
Y2-S2-111K20,1,7,PS,train,47,→,right,→,0.6006778003647923,True,30,-,-,-
Y2-S2-111K20,1,8,PS,train,31,←,left,←,0.7327477000653744,True,30,-,-,-
Y2-S2-111K20,1,9,PS,train,36,↑,up,↑,0.7010086998343468,True,30,-,-,-
Y2-S2-111K20,1,10,PS,train,30,←,left,←,0.6344160996377468,True,30,-,-,-
Y2-S2-111K20,2,11,AS,train,43,↑,up,↑,0.6009879000484943,True,45,-,-,-
Y2-S2-111K20,2,12,AS,train,48,↓,down,↓,0.5675050001591444,True,45,-,-,-
Y2-S2-111K20,2,13,AS,train,28,←,left,←,0.5675238003022969,True,45,-,-,-
Y2-S2-111K20,2,14,AS,train,44,→,right,→,0.634844200219959,True,45,-,-,-
Y2-S2-111K20,2,15,AS,train,26,↑,up,↑,0.5846715997904539,True,45,-,-,-
Y2-S2-111K20,2,16,AS,train,41,→,right,→,0.7838905998505652,True,45,-,-,-
Y2-S2-111K20,2,17,AS,train,41,↑,up,↑,0.684532199986279,True,45,-,-,-
Y2-S2-111K20,2,18,AS,train,36,↓,down,↓,0.7176481997594237,True,45,-,-,-
Y2-S2-111K20,2,19,AS,train,26,↑,up,↑,0.5843673003837466,True,45,-,-,-
Y2-S2-111K20,2,20,AS,train,47,→,right,→,0.8338844999670982,True,45,-,-,-
Y2-S2-111K20,-,21,PS,adaptive,47,↑,up,↑,0.8215532000176609,True,10,0,0,0
Y2-S2-111K20,-,22,PS,adaptive,38,←,left,←,0.5367019004188478,True,10,0,0,0
Y2-S2-111K20,-,23,PS,adaptive,49,↓,down,↓,0.755763300228864,True,10,1,0,0
Y2-S2-111K20,-,24,PS,adaptive,30,→,down,↓,0.8846158999949694,False,9,-1,1,1
Y2-S2-111K20,-,25,PS,adaptive,39,←,right,→,1.3390656001865864,False,10,-1,0,1
Y2-S2-111K20,-,26,PS,adaptive,48,↓,down,↓,0.5394915998913348,True,11,-1,0,1
Y2-S2-111K20,-,27,PS,adaptive,45,↑,up,↑,0.851741099730134,True,11,-1,0,1
Y2-S2-111K20,-,28,PS,adaptive,34,→,right,→,0.5564140998758376,True,11,1,1,2
Y2-S2-111K20,-,29,PS,adaptive,34,↓,down,↓,0.6204772000201046,True,10,1,0,2
Y2-S2-111K20,-,30,PS,adaptive,29,→,right,→,0.822434900328517,True,10,1,0,2
Y2-S2-111K20,-,31,PS,adaptive,49,↓,down,↓,0.6824366999790072,True,10,1,0,2
Y2-S2-111K20,-,32,PS,adaptive,50,←,left,←,0.4951331000775099,True,9,1,0,2
Y2-S2-111K20,-,33,PS,adaptive,47,↑,up,↑,0.6380653004162014,True,9,1,0,2
Y2-S2-111K20,-,34,PS,adaptive,25,←,left,←,0.430111899971962,True,9,1,0,2
Y2-S2-111K20,-,35,PS,adaptive,50,↓,down,↓,0.6634978000074625,True,8,1,0,2
Y2-S2-111K20,-,36,PS,adaptive,46,←,down,↓,0.6022364003583789,False,8,-1,1,3
Y2-S2-111K20,-,37,PS,adaptive,30,→,left,←,0.545878800097853,False,9,-1,0,3
Y2-S2-111K20,-,38,PS,adaptive,49,←,left,←,0.5910181002691388,True,10,-1,0,3
Y2-S2-111K20,-,39,PS,adaptive,30,↑,up,↑,0.5406545996665955,True,10,-1,0,3
Y2-S2-111K20,-,40,PS,adaptive,28,→,right,→,0.7528353999368846,True,10,1,1,4
Y2-S2-111K20,-,41,AS,adaptive,41,←,left,←,0.5704393000341952,True,20,0,0,0
Y2-S2-111K20,-,42,AS,adaptive,31,↓,down,↓,0.5465402998961508,True,20,0,0,0
Y2-S2-111K20,-,43,AS,adaptive,33,↑,up,↑,0.5600074999965727,True,20,1,0,0
Y2-S2-111K20,-,44,AS,adaptive,47,←,left,←,0.6528521999716759,True,19,1,0,0
Y2-S2-111K20,-,45,AS,adaptive,28,↑,up,↑,0.5591099001467228,True,19,1,0,0
Y2-S2-111K20,-,46,AS,adaptive,48,↓,down,↓,0.8887959001585841,True,19,1,0,0
Y2-S2-111K20,-,47,AS,adaptive,42,→,right,→,0.5745473001152277,True,18,1,0,0
Y2-S2-111K20,-,48,AS,adaptive,47,↓,down,↓,0.5358597002923489,True,18,1,0,0
Y2-S2-111K20,-,49,AS,adaptive,43,→,right,→,0.556782899890095,True,18,1,0,0
Y2-S2-111K20,-,50,AS,adaptive,39,↑,up,↑,0.555203199852258,True,17,1,0,0
Y2-S2-111K20,-,51,AS,adaptive,48,↓,down,↓,0.5102611999027431,True,17,1,0,0
Y2-S2-111K20,-,52,AS,adaptive,50,←,left,←,0.5168101000599563,True,17,1,0,0
Y2-S2-111K20,-,53,AS,adaptive,35,↑,up,↑,0.5275562996976078,True,16,1,0,0
Y2-S2-111K20,-,54,AS,adaptive,25,↓,down,↓,0.5589818996377289,True,16,1,0,0
Y2-S2-111K20,-,55,AS,adaptive,41,↑,up,↑,0.4972136998549104,True,16,1,0,0
Y2-S2-111K20,-,56,AS,adaptive,30,←,down,↓,0.8827754999510944,False,15,-1,1,1
Y2-S2-111K20,-,57,AS,adaptive,44,↓,down,↓,0.5529895997606218,True,16,-1,0,1
Y2-S2-111K20,-,58,AS,adaptive,33,↑,up,↑,0.559789499733597,True,16,-1,0,1
Y2-S2-111K20,-,59,AS,adaptive,35,↓,down,↓,0.5844001001678407,True,16,1,1,2
Y2-S2-111K20,-,60,AS,adaptive,36,↑,down,↓,0.8070755996741354,False,15,-1,1,3
Y2-S2-111K20,-,61,AS,adaptive,34,→,left,←,0.8671298995614052,False,16,-1,0,3
Y2-S2-111K20,-,62,AS,adaptive,40,↑,up,↑,0.4932638998143375,True,17,-1,0,3
Y2-S2-111K20,-,63,AS,adaptive,46,↓,down,↓,0.5873548998497427,True,17,-1,0,3
Y2-S2-111K20,-,64,AS,adaptive,31,←,left,←,0.5820869002491236,True,17,1,1,4
Y2-S2-111K20,1,65,PS,intra_train,27,↑,up,↑,0.6434634001925588,True,13,-,-,-
Y2-S2-111K20,1,66,PS,intra_train,47,→,right,→,0.5153011996299028,True,13,-,-,-
Y2-S2-111K20,1,67,PS,intra_train,46,↓,down,↓,0.5658048000186682,True,13,-,-,-
Y2-S2-111K20,1,68,PS,intra_train,28,→,right,→,0.5372346001677215,True,13,-,-,-
Y2-S2-111K20,1,69,PS,intra_train,45,↓,down,↓,0.4865779997780919,True,13,-,-,-
Y2-S2-111K20,1,70,PS,exp,42,→,right,→,0.5499346000142395,True,9,0,0,0
Y2-S2-111K20,1,71,PS,exp,26,←,left,←,0.69081149995327,True,9,0,0,0
Y2-S2-111K20,1,72,PS,exp,35,→,right,→,0.43857190012931824,True,9,1,0,0
Y2-S2-111K20,1,73,PS,exp,47,↑,up,↑,0.49483450036495924,True,8,1,0,0
Y2-S2-111K20,1,74,PS,exp,50,←,left,←,0.5421401001513004,True,8,1,0,0
Y2-S2-111K20,1,75,PS,exp,25,→,right,→,0.668404099997133,True,8,1,0,0
Y2-S2-111K20,1,76,PS,exp,28,↓,down,↓,0.5840094997547567,True,7,1,0,0
Y2-S2-111K20,1,77,PS,exp,31,↑,up,↑,0.4669949999079108,True,7,1,0,0
Y2-S2-111K20,1,78,PS,exp,48,←,left,←,0.5107511002570391,True,7,1,0,0
Y2-S2-111K20,1,79,PS,exp,34,→,right,→,0.48935650009661913,True,6,1,0,0
Y2-S2-111K20,1,80,PS,exp,27,←,left,←,0.5015696999616921,True,6,1,0,0
Y2-S2-111K20,1,81,PS,exp,30,↑,left,←,0.9076731996610761,False,6,-1,1,1
Y2-S2-111K20,1,82,PS,exp,47,→,right,→,0.5023170998319983,True,7,-1,0,1
Y2-S2-111K20,1,83,PS,exp,34,↓,left,←,0.5744235999882221,False,7,-1,0,1
Y2-S2-111K20,1,84,PS,exp,39,←,left,←,0.47060100035741925,True,8,-1,0,1
Y2-S2-111K20,1,85,PS,exp,30,↓,down,↓,0.6071171001531184,True,8,-1,0,1
Y2-S2-111K20,1,86,PS,exp,41,←,left,←,0.5002570999786258,True,8,1,1,2
Y2-S2-111K20,1,87,PS,exp,47,↓,left,←,0.6101359003223479,False,7,-1,1,3
Y2-S2-111K20,1,88,PS,exp,36,↑,up,↑,0.4823537999764085,True,8,-1,0,3
Y2-S2-111K20,1,89,PS,exp,42,←,left,←,0.4037205995991826,True,8,-1,0,3
Y2-S2-111K20,1,90,PS,exp,39,→,right,→,0.5199627997353673,True,8,1,1,4
Y2-S2-111K20,1,91,PS,exp,45,↑,up,↑,0.7780880001373589,True,7,1,0,4
Y2-S2-111K20,1,92,PS,exp,50,→,right,→,0.5046091000549495,True,7,1,0,4
Y2-S2-111K20,1,93,PS,exp,30,↑,down,↓,0.7606441997922957,False,7,-1,1,5
Y2-S2-111K20,1,94,PS,exp,49,←,left,←,0.4627395002171397,True,8,-1,0,5
Y2-S2-111K20,1,95,PS,exp,30,↑,up,↑,0.5365285002626479,True,8,-1,0,5
Y2-S2-111K20,1,96,PS,exp,32,→,right,→,0.5200492003932595,True,8,1,1,6
Y2-S2-111K20,1,97,PS,exp,33,←,left,←,0.5537562002427876,True,7,1,0,6
Y2-S2-111K20,1,98,PS,exp,39,↓,down,↓,0.4854198000393808,True,7,1,0,6
Y2-S2-111K20,1,99,PS,exp,28,→,right,→,0.41908050002530217,True,7,1,0,6
Y2-S2-111K20,1,100,PS,exp,34,↑,up,↑,0.636224300134927,True,6,1,0,6
Y2-S2-111K20,1,101,PS,exp,50,→,right,→,0.6860120999626815,True,6,1,0,6
Y2-S2-111K20,1,102,PS,exp,25,↑,up,↑,0.5808628997765481,True,6,1,0,6
Y2-S2-111K20,1,103,PS,exp,25,←,right,→,0.5780315003357828,False,5,-1,1,7
Y2-S2-111K20,1,104,PS,exp,44,↑,left,←,0.6084211003035307,False,6,-1,0,7
Y2-S2-111K20,1,105,PS,exp,36,↓,left,←,0.5595958000048995,False,7,-1,0,7
Y2-S2-111K20,1,106,PS,exp,32,→,right,→,0.5024804999120533,True,8,-1,0,7
Y2-S2-111K20,1,107,PS,exp,26,↑,up,↑,0.5416451999917626,True,8,-1,0,7
Y2-S2-111K20,1,108,PS,exp,30,↓,down,↓,0.4903301000595093,True,8,1,1,8
Y2-S2-111K20,1,109,PS,exp,40,←,left,←,0.5725635001435876,True,7,1,0,8
Y2-S2-111K20,1,110,PS,exp,30,↑,up,↑,0.5021784999407828,True,7,1,0,8
Y2-S2-111K20,1,111,PS,exp,30,←,left,←,0.5364954001270235,True,7,1,0,8
Y2-S2-111K20,1,112,PS,exp,26,↑,left,←,0.8564720000140369,False,6,-1,1,9
Y2-S2-111K20,1,113,PS,exp,42,↓,down,↓,0.5385213000699878,True,7,-1,0,9
Y2-S2-111K20,1,114,PS,exp,44,←,left,←,0.4495172998867929,True,7,-1,0,9
Y2-S2-111K20,1,115,PS,exp,35,↑,up,↑,0.499537399969995,True,7,1,1,10
Y2-S2-111K20,1,116,PS,exp,31,←,left,←,0.5425249002873898,True,6,1,0,10
Y2-S2-111K20,1,117,PS,exp,30,↑,up,↑,0.511154199950397,True,6,1,0,10
Y2-S2-111K20,1,118,PS,exp,27,↓,up,↑,0.63836449990049,False,6,-1,1,11
Y2-S2-111K20,1,119,PS,exp,28,←,up,↑,0.7211454999633133,False,7,-1,0,11
Y2-S2-111K20,1,120,PS,exp,47,→,right,→,0.5098594999872148,True,8,-1,0,11
Y2-S2-111K20,1,121,PS,exp,28,↓,down,↓,0.5563761000521481,True,8,-1,0,11
Y2-S2-111K20,1,122,PS,exp,48,←,left,←,0.4312044996768236,True,8,1,1,12
Y2-S2-111K20,1,123,PS,exp,48,→,right,→,0.5796838002279401,True,7,1,0,12
Y2-S2-111K20,1,124,PS,exp,26,↑,up,↑,0.7613348998129368,True,7,1,0,12
Y2-S2-111K20,1,125,PS,exp,48,↓,down,↓,0.520801099948585,True,7,1,0,12
Y2-S2-111K20,1,126,PS,exp,43,←,left,←,0.4777290001511574,True,6,1,0,12
Y2-S2-111K20,1,127,PS,exp,41,→,up,↑,1.2567143002524972,False,6,-1,1,13
Y2-S2-111K20,1,128,PS,exp,50,←,left,←,0.4793687998317182,True,7,-1,0,13
Y2-S2-111K20,1,129,PS,exp,43,↓,down,↓,0.5397646999917924,True,7,-1,0,13
Y2-S2-111K20,1,130,PS,exp,29,↑,down,↓,0.9663374000228941,False,7,-1,0,13
Y2-S2-111K20,1,131,PS,exp,30,→,right,→,0.5253999996930361,True,8,-1,0,13
Y2-S2-111K20,1,132,PS,exp,40,↓,down,↓,0.7518635997548699,True,8,-1,0,13
Y2-S2-111K20,1,133,PS,exp,26,↑,up,↑,0.7833805000409484,True,8,1,1,14
Y2-S2-111K20,1,134,PS,exp,49,←,left,←,0.4528764998540282,True,7,1,0,14
Y2-S2-111K20,1,135,PS,exp,50,↓,down,↓,0.7160744997672737,True,7,1,0,14
Y2-S2-111K20,1,136,PS,exp,27,↑,up,↑,0.5070332000032067,True,7,1,0,14
Y2-S2-111K20,1,137,PS,exp,45,↓,down,↓,0.6278483998030424,True,6,1,0,14
Y2-S2-111K20,1,138,PS,exp,38,→,down,↓,0.5807224996387959,False,6,-1,1,15
Y2-S2-111K20,1,139,PS,exp,29,↓,down,↓,0.4856867999769747,True,7,-1,0,15
Y2-S2-111K20,1,140,PS,exp,37,↑,up,↑,0.46995009994134307,True,7,-1,0,15
Y2-S2-111K20,1,141,PS,exp,31,→,left,←,0.5887825000099838,False,7,-1,0,15
Y2-S2-111K20,1,142,PS,exp,37,↓,down,↓,0.4897020999342203,True,8,-1,0,15
Y2-S2-111K20,1,143,PS,exp,44,→,right,→,0.515172699932009,True,8,-1,0,15
Y2-S2-111K20,1,144,PS,exp,45,←,left,←,0.4331061998382211,True,8,1,1,16
Y2-S2-111K20,2,145,AS,intra_train,28,↓,down,↓,0.6535259000957012,True,24,-,-,-
Y2-S2-111K20,2,146,AS,intra_train,48,←,left,←,1.3282520002685487,True,24,-,-,-
Y2-S2-111K20,2,147,AS,intra_train,40,↑,up,↑,0.7405153000727296,True,24,-,-,-
Y2-S2-111K20,2,148,AS,intra_train,35,↓,down,↓,0.576412099879235,True,24,-,-,-
Y2-S2-111K20,2,149,AS,intra_train,42,↑,up,↑,1.1320452000945807,True,24,-,-,-
Y2-S2-111K20,2,150,AS,exp,45,↓,down,↓,0.5407928000204265,True,16,0,0,0
Y2-S2-111K20,2,151,AS,exp,44,↑,up,↑,0.6686712997034192,True,16,0,0,0
Y2-S2-111K20,2,152,AS,exp,41,←,left,←,0.5672144000418484,True,16,1,0,0
Y2-S2-111K20,2,153,AS,exp,46,→,right,→,0.6090947999618948,True,15,1,0,0
Y2-S2-111K20,2,154,AS,exp,28,↓,down,↓,0.4596353997476399,True,15,1,0,0
Y2-S2-111K20,2,155,AS,exp,36,→,right,→,1.179209599737078,True,15,1,0,0
Y2-S2-111K20,2,156,AS,exp,34,←,left,←,0.4553470001555979,True,14,1,0,0
Y2-S2-111K20,2,157,AS,exp,37,↑,up,↑,0.5980028999038041,True,14,1,0,0
Y2-S2-111K20,2,158,AS,exp,48,←,left,←,0.5858096997253597,True,14,1,0,0
Y2-S2-111K20,2,159,AS,exp,36,↑,up,↑,0.5177055997774005,True,13,1,0,0
Y2-S2-111K20,2,160,AS,exp,43,↓,up,↑,0.7169414004310966,False,13,-1,1,1
Y2-S2-111K20,2,161,AS,exp,28,↑,up,↑,0.582737899851054,True,14,-1,0,1
Y2-S2-111K20,2,162,AS,exp,34,←,left,←,0.4270399999804795,True,14,-1,0,1
Y2-S2-111K20,2,163,AS,exp,30,↓,down,↓,0.6073008002713323,True,14,1,1,2
Y2-S2-111K20,2,164,AS,exp,27,↑,up,↑,1.0522527997381985,True,13,1,0,2
Y2-S2-111K20,2,165,AS,exp,34,↓,down,↓,0.5206728000193834,True,13,1,0,2
Y2-S2-111K20,2,166,AS,exp,28,←,left,←,0.5515225999988616,True,13,1,0,2
Y2-S2-111K20,2,167,AS,exp,44,↑,up,↑,0.49524160008877516,True,12,1,0,2
Y2-S2-111K20,2,168,AS,exp,27,←,left,←,0.9882000000216067,True,12,1,0,2
Y2-S2-111K20,2,169,AS,exp,49,↓,down,↓,0.5745447999797761,True,12,1,0,2
Y2-S2-111K20,2,170,AS,exp,42,↑,up,↑,0.547817800194025,True,11,1,0,2
Y2-S2-111K20,2,171,AS,exp,35,↓,down,↓,0.608538799919188,True,11,1,0,2
Y2-S2-111K20,2,172,AS,exp,48,↑,up,↑,0.5715911001898348,True,11,1,0,2
Y2-S2-111K20,2,173,AS,exp,40,←,left,←,0.578950900118798,True,10,1,0,2
Y2-S2-111K20,2,174,AS,exp,30,↑,down,↓,0.5803072000853717,False,10,-1,1,3
Y2-S2-111K20,2,175,AS,exp,45,→,right,→,0.5935557996854186,True,11,-1,0,3
Y2-S2-111K20,2,176,AS,exp,29,↓,up,↑,1.39125100011006,False,11,-1,0,3
Y2-S2-111K20,2,177,AS,exp,30,↑,up,↑,0.5689723999239504,True,12,-1,0,3
Y2-S2-111K20,2,178,AS,exp,40,←,left,←,0.5219073002226651,True,12,-1,0,3
Y2-S2-111K20,2,179,AS,exp,44,→,right,→,0.6905983998440206,True,12,1,1,4
Y2-S2-111K20,2,180,AS,exp,34,↓,left,←,0.7980483002029359,False,11,-1,1,5
Y2-S2-111K20,2,181,AS,exp,50,→,right,→,0.5135335000231862,True,12,-1,0,5
Y2-S2-111K20,2,182,AS,exp,40,←,left,←,0.7462320998311043,True,12,-1,0,5
Y2-S2-111K20,2,183,AS,exp,47,→,left,←,0.6483606002293527,False,12,-1,0,5
Y2-S2-111K20,2,184,AS,exp,37,↓,down,↓,0.6094519002363086,True,13,-1,0,5
Y2-S2-111K20,2,185,AS,exp,43,↑,right,→,1.1974301002919674,False,13,-1,0,5
Y2-S2-111K20,2,186,AS,exp,47,←,left,←,0.4383566998876631,True,14,-1,0,5
Y2-S2-111K20,2,187,AS,exp,27,→,left,←,0.8844819003716111,False,14,-1,0,5
Y2-S2-111K20,2,188,AS,exp,46,←,left,←,1.0049760001711547,True,15,-1,0,5
Y2-S2-111K20,2,189,AS,exp,30,↓,down,↓,0.5055328998714685,True,15,-1,0,5
Y2-S2-111K20,2,190,AS,exp,27,→,down,↓,0.6323724999092519,False,15,-1,0,5
Y2-S2-111K20,2,191,AS,exp,38,←,left,←,0.5628331997431815,True,16,-1,0,5
Y2-S2-111K20,2,192,AS,exp,28,↑,up,↑,0.6093993000686169,True,16,-1,0,5
Y2-S2-111K20,2,193,AS,exp,33,→,right,→,0.6122114001773298,True,16,1,1,6
Y2-S2-111K20,2,194,AS,exp,40,←,left,←,0.5838088998571038,True,15,1,0,6
Y2-S2-111K20,2,195,AS,exp,32,→,left,←,0.7474350999109447,False,15,-1,1,7
Y2-S2-111K20,2,196,AS,exp,37,↓,down,↓,0.5660409000702202,True,16,-1,0,7
Y2-S2-111K20,2,197,AS,exp,38,→,right,→,0.6459669996984303,True,16,-1,0,7
Y2-S2-111K20,2,198,AS,exp,26,↓,down,↓,0.5428639003075659,True,16,1,1,8
Y2-S2-111K20,2,199,AS,exp,30,↑,up,↑,0.578753000125289,True,15,1,0,8
Y2-S2-111K20,2,200,AS,exp,31,←,right,→,1.0708530000410974,False,15,-1,1,9
Y2-S2-111K20,2,201,AS,exp,44,↓,down,↓,0.6167295998893678,True,16,-1,0,9
Y2-S2-111K20,2,202,AS,exp,46,↑,up,↑,0.4991460000164807,True,16,-1,0,9
Y2-S2-111K20,2,203,AS,exp,47,↓,down,↓,0.545705399941653,True,16,1,1,10
Y2-S2-111K20,2,204,AS,exp,49,→,right,→,0.5022486001253128,True,15,1,0,10
Y2-S2-111K20,2,205,AS,exp,44,↑,up,↑,0.4619491999037564,True,15,1,0,10
Y2-S2-111K20,2,206,AS,exp,30,↓,down,↓,0.5833832998760045,True,15,1,0,10
Y2-S2-111K20,2,207,AS,exp,45,→,right,→,0.7130881999619305,True,14,1,0,10
Y2-S2-111K20,2,208,AS,exp,48,↓,down,↓,0.7104731998406351,True,14,1,0,10
Y2-S2-111K20,2,209,AS,exp,43,→,right,→,0.5484570004045963,True,14,1,0,10
Y2-S2-111K20,2,210,AS,exp,44,↓,down,↓,0.571847700048238,True,13,1,0,10
Y2-S2-111K20,2,211,AS,exp,30,↑,up,↑,1.0720723001286387,True,13,1,0,10
Y2-S2-111K20,2,212,AS,exp,41,↓,down,↓,0.4265165999531746,True,13,1,0,10
Y2-S2-111K20,2,213,AS,exp,27,↑,up,↑,0.5173149998299778,True,12,1,0,10
Y2-S2-111K20,2,214,AS,exp,43,←,left,←,0.7377709001302719,True,12,1,0,10
Y2-S2-111K20,2,215,AS,exp,35,↓,down,↓,0.5884263999760151,True,12,1,0,10
Y2-S2-111K20,2,216,AS,exp,31,↑,down,↓,0.5848779999651015,False,11,-1,1,11
Y2-S2-111K20,2,217,AS,exp,38,↓,up,↑,0.6625961000099778,False,12,-1,0,11
Y2-S2-111K20,2,218,AS,exp,40,→,right,→,0.6250446001067758,True,13,-1,0,11
Y2-S2-111K20,2,219,AS,exp,50,↓,down,↓,0.4406385999172926,True,13,-1,0,11
Y2-S2-111K20,2,220,AS,exp,46,→,right,→,0.911126600112766,True,13,1,1,12
Y2-S2-111K20,2,221,AS,exp,29,←,right,→,0.615641999989748,False,12,-1,1,13
Y2-S2-111K20,2,222,AS,exp,29,↑,up,↑,0.5124118002131581,True,13,-1,0,13
Y2-S2-111K20,2,223,AS,exp,34,→,right,→,0.5827747001312673,True,13,-1,0,13
Y2-S2-111K20,2,224,AS,exp,28,↓,down,↓,0.6194238997995853,True,13,1,1,14
Y2-S2-111K20,2,225,AS,exp,49,↑,up,↑,0.5574586000293493,True,12,1,0,14
Y2-S2-111K20,2,226,AS,exp,37,↓,down,↓,0.6905760001391172,True,12,1,0,14
Y2-S2-111K20,2,227,AS,exp,25,↑,up,↑,0.49808999989181757,True,12,1,0,14
Y2-S2-111K20,2,228,AS,exp,43,→,right,→,0.3884414001367986,True,11,1,0,14
Y2-S2-111K20,2,229,AS,exp,30,↓,up,↑,0.6126053999178112,False,11,-1,1,15
Y2-S2-111K20,2,230,AS,exp,26,↑,up,↑,0.5837538996711373,True,12,-1,0,15
Y2-S2-111K20,2,231,AS,exp,35,←,up,↑,0.662069599609822,False,12,-1,0,15
Y2-S2-111K20,2,232,AS,exp,40,→,right,→,0.5643468997441232,True,13,-1,0,15
Y2-S2-111K20,2,233,AS,exp,36,←,left,←,1.432525800075382,True,13,-1,0,15
Y2-S2-111K20,2,234,AS,exp,35,↓,up,↑,0.5778796998783946,False,13,-1,0,15
Y2-S2-111K20,2,235,AS,exp,44,←,left,←,0.6642231997102499,True,14,-1,0,15
Y2-S2-111K20,2,236,AS,exp,29,↑,right,→,0.848036500159651,False,14,-1,0,15
Y2-S2-111K20,2,237,AS,exp,35,←,left,←,0.501827800180763,True,15,-1,0,15
Y2-S2-111K20,2,238,AS,exp,43,↓,down,↓,0.5915662003681064,True,15,-1,0,15
Y2-S2-111K20,2,239,AS,exp,48,↑,up,↑,0.6669247001409531,True,15,1,1,16
Y2-S2-111K20,3,240,AS,intra_train,44,→,right,→,0.5342828999273479,True,24,-,-,-
Y2-S2-111K20,3,241,AS,intra_train,43,←,left,←,1.1889945999719203,True,24,-,-,-
Y2-S2-111K20,3,242,AS,intra_train,34,↑,up,↑,0.6014254996553063,True,24,-,-,-
Y2-S2-111K20,3,243,AS,intra_train,47,→,right,→,0.5833400003612041,True,24,-,-,-
Y2-S2-111K20,3,244,AS,intra_train,44,↓,down,↓,0.46712859999388456,True,24,-,-,-
Y2-S2-111K20,3,245,AS,exp,26,↑,up,↑,0.5102140996605158,True,16,0,0,0
Y2-S2-111K20,3,246,AS,exp,47,←,right,→,0.5793346003629267,False,16,-1,0,0
Y2-S2-111K20,3,247,AS,exp,49,→,no_key,no_letter,-1.0,False,17,-1,0,0
Y2-S2-111K20,3,248,AS,exp,34,↓,down,↓,0.6987553997896612,True,18,-1,0,0
Y2-S2-111K20,3,249,AS,exp,36,→,right,→,0.5162435998208821,True,18,-1,0,0
Y2-S2-111K20,3,250,AS,exp,25,↑,up,↑,0.5675460998900235,True,18,1,1,1
Y2-S2-111K20,3,251,AS,exp,25,→,right,→,0.4950912999920547,True,17,1,0,1
Y2-S2-111K20,3,252,AS,exp,31,↑,right,→,0.4843741003423929,False,17,-1,1,2
Y2-S2-111K20,3,253,AS,exp,27,→,right,→,0.5297889998182654,True,18,-1,0,2
Y2-S2-111K20,3,254,AS,exp,25,←,left,←,0.6273157000541687,True,18,-1,0,2
Y2-S2-111K20,3,255,AS,exp,43,↑,up,↑,0.5577456001192331,True,18,1,1,3
Y2-S2-111K20,3,256,AS,exp,35,←,left,←,0.6906225001439452,True,17,1,0,3
Y2-S2-111K20,3,257,AS,exp,42,↓,down,↓,0.4673215001821518,True,17,1,0,3
Y2-S2-111K20,3,258,AS,exp,37,↑,up,↑,0.5833594999276102,True,17,1,0,3
Y2-S2-111K20,3,259,AS,exp,40,↓,down,↓,0.6609398000873625,True,16,1,0,3
Y2-S2-111K20,3,260,AS,exp,38,↑,up,↑,0.5790289998985827,True,16,1,0,3
Y2-S2-111K20,3,261,AS,exp,43,↓,down,↓,0.686971599701792,True,16,1,0,3
Y2-S2-111K20,3,262,AS,exp,40,→,down,↓,0.6154724000953138,False,15,-1,1,4
Y2-S2-111K20,3,263,AS,exp,39,←,left,←,0.5747857997193933,True,16,-1,0,4
Y2-S2-111K20,3,264,AS,exp,33,↑,left,←,1.815599899739027,False,16,-1,0,4
Y2-S2-111K20,3,265,AS,exp,44,→,right,→,0.5826661000028253,True,17,-1,0,4
Y2-S2-111K20,3,266,AS,exp,29,↑,up,↑,0.5164211001247168,True,17,-1,0,4
Y2-S2-111K20,3,267,AS,exp,26,→,right,→,0.513937100302428,True,17,1,1,5
Y2-S2-111K20,3,268,AS,exp,40,↑,up,↑,0.5434284997172654,True,16,1,0,5
Y2-S2-111K20,3,269,AS,exp,36,←,left,←,0.59872190002352,True,16,1,0,5
Y2-S2-111K20,3,270,AS,exp,50,↓,down,↓,0.586060700006783,True,16,1,0,5
Y2-S2-111K20,3,271,AS,exp,43,↑,up,↑,0.7005889001302421,True,15,1,0,5
Y2-S2-111K20,3,272,AS,exp,38,→,right,→,0.5954042999073863,True,15,1,0,5
Y2-S2-111K20,3,273,AS,exp,35,↑,up,↑,0.5270934998989105,True,15,1,0,5
Y2-S2-111K20,3,274,AS,exp,35,←,left,←,0.5879568997770548,True,14,1,0,5
Y2-S2-111K20,3,275,AS,exp,43,↓,down,↓,0.5789423999376595,True,14,1,0,5
Y2-S2-111K20,3,276,AS,exp,50,←,right,→,1.405005699954927,False,14,-1,1,6
Y2-S2-111K20,3,277,AS,exp,27,↑,up,↑,0.5350621999241412,True,15,-1,0,6
Y2-S2-111K20,3,278,AS,exp,31,→,left,←,1.8423611000180244,False,15,-1,0,6
Y2-S2-111K20,3,279,AS,exp,27,↓,down,↓,0.5021593999117613,True,16,-1,0,6
Y2-S2-111K20,3,280,AS,exp,41,↑,up,↑,0.6217077001929283,True,16,-1,0,6
Y2-S2-111K20,3,281,AS,exp,39,←,left,←,0.5841092001646757,True,16,1,1,7
Y2-S2-111K20,3,282,AS,exp,28,→,right,→,0.6217869999818504,True,15,1,0,7
Y2-S2-111K20,3,283,AS,exp,49,↑,left,←,0.9243481000885367,False,15,-1,1,8
Y2-S2-111K20,3,284,AS,exp,46,↓,down,↓,0.5613359003327787,True,16,-1,0,8
Y2-S2-111K20,3,285,AS,exp,43,←,left,←,0.5223490996286273,True,16,-1,0,8
Y2-S2-111K20,3,286,AS,exp,48,↓,down,↓,0.5712772002443671,True,16,1,1,9
Y2-S2-111K20,3,287,AS,exp,45,→,right,→,0.5458577997051179,True,15,1,0,9
Y2-S2-111K20,3,288,AS,exp,33,↓,down,↓,0.5594005999155343,True,15,1,0,9
Y2-S2-111K20,3,289,AS,exp,25,↑,down,↓,0.4708832004107535,False,15,-1,1,10
Y2-S2-111K20,3,290,AS,exp,46,←,left,←,0.5262389001436532,True,16,-1,0,10
Y2-S2-111K20,3,291,AS,exp,40,→,right,→,0.5926343998871744,True,16,-1,0,10
Y2-S2-111K20,3,292,AS,exp,40,←,left,←,0.6806068997830153,True,16,1,1,11
Y2-S2-111K20,3,293,AS,exp,36,↓,down,↓,0.5410887002944946,True,15,1,0,11
Y2-S2-111K20,3,294,AS,exp,34,→,right,→,0.6319401999935508,True,15,1,0,11
Y2-S2-111K20,3,295,AS,exp,42,↑,up,↑,0.622153100091964,True,15,1,0,11
Y2-S2-111K20,3,296,AS,exp,28,→,right,→,0.9425864000804722,True,14,1,0,11
Y2-S2-111K20,3,297,AS,exp,45,↓,down,↓,0.5828839000314474,True,14,1,0,11
Y2-S2-111K20,3,298,AS,exp,28,→,right,→,0.517537500243634,True,14,1,0,11
Y2-S2-111K20,3,299,AS,exp,50,←,left,←,0.6001920001581311,True,13,1,0,11
Y2-S2-111K20,3,300,AS,exp,25,↑,up,↑,0.6136286002583802,True,13,1,0,11
Y2-S2-111K20,3,301,AS,exp,48,←,right,→,0.5392891000956297,False,13,-1,1,12
Y2-S2-111K20,3,302,AS,exp,25,↑,right,→,0.4902527998201549,False,14,-1,0,12
Y2-S2-111K20,3,303,AS,exp,26,↓,down,↓,0.551458400208503,True,15,-1,0,12
Y2-S2-111K20,3,304,AS,exp,42,←,left,←,0.48903740011155605,True,15,-1,0,12
Y2-S2-111K20,3,305,AS,exp,44,↑,up,↑,0.6180954999290407,True,15,1,1,13
Y2-S2-111K20,3,306,AS,exp,31,↓,down,↓,0.5410593003034592,True,14,1,0,13
Y2-S2-111K20,3,307,AS,exp,28,→,right,→,0.45891410019248724,True,14,1,0,13
Y2-S2-111K20,3,308,AS,exp,28,↑,up,↑,0.631055099889636,True,14,1,0,13
Y2-S2-111K20,3,309,AS,exp,37,←,right,→,0.8071038001216948,False,13,-1,1,14
Y2-S2-111K20,3,310,AS,exp,29,↓,up,↑,0.7527699000202119,False,14,-1,0,14
Y2-S2-111K20,3,311,AS,exp,25,→,right,→,0.49730380019173026,True,15,-1,0,14
Y2-S2-111K20,3,312,AS,exp,27,↑,up,↑,0.44517459999769926,True,15,-1,0,14
Y2-S2-111K20,3,313,AS,exp,44,→,up,↑,1.114665700122714,False,15,-1,0,14
Y2-S2-111K20,3,314,AS,exp,42,↑,up,↑,0.44413290033116937,True,16,-1,0,14
Y2-S2-111K20,3,315,AS,exp,29,↓,down,↓,0.5457184002734721,True,16,-1,0,14
Y2-S2-111K20,3,316,AS,exp,34,→,right,→,0.544030399993062,True,16,1,1,15
Y2-S2-111K20,3,317,AS,exp,45,↑,up,↑,0.5563091998919845,True,15,1,0,15
Y2-S2-111K20,3,318,AS,exp,46,←,left,←,0.4873738996684551,True,15,1,0,15
Y2-S2-111K20,3,319,AS,exp,25,↓,down,↓,0.6066334000788629,True,15,1,0,15
Y2-S2-111K20,3,320,AS,exp,32,↑,up,↑,0.6308455998077989,True,14,1,0,15
Y2-S2-111K20,3,321,AS,exp,40,←,left,←,0.5407381001859903,True,14,1,0,15
Y2-S2-111K20,3,322,AS,exp,32,↓,down,↓,0.7919478002004325,True,14,1,0,15
Y2-S2-111K20,3,323,AS,exp,28,↑,up,↑,0.6226030997931957,True,13,1,0,15
Y2-S2-111K20,3,324,AS,exp,34,←,down,↓,0.9325640997849405,False,13,-1,1,16
Y2-S2-111K20,4,325,PS,intra_train,33,↑,up,↑,0.8701186999678612,True,13,-,-,-
Y2-S2-111K20,4,326,PS,intra_train,36,→,right,→,0.46234870003536344,True,13,-,-,-
Y2-S2-111K20,4,327,PS,intra_train,45,↑,up,↑,0.43894899962469935,True,13,-,-,-
Y2-S2-111K20,4,328,PS,intra_train,44,→,right,→,0.48619400011375546,True,13,-,-,-
Y2-S2-111K20,4,329,PS,intra_train,37,↑,up,↑,0.46550159994512796,True,13,-,-,-
Y2-S2-111K20,4,330,PS,exp,50,→,right,→,0.5745614003390074,True,9,0,0,0
Y2-S2-111K20,4,331,PS,exp,33,↑,left,←,1.061914199963212,False,9,-1,0,0
Y2-S2-111K20,4,332,PS,exp,38,↓,down,↓,0.5610855002887547,True,10,-1,0,0
Y2-S2-111K20,4,333,PS,exp,46,←,left,←,0.48788159992545843,True,10,-1,0,0
Y2-S2-111K20,4,334,PS,exp,30,→,right,→,0.4871387002058327,True,10,1,1,1
Y2-S2-111K20,4,335,PS,exp,30,↓,up,↑,0.5922314003109932,False,9,-1,1,2
Y2-S2-111K20,4,336,PS,exp,26,←,right,→,0.5741877998225391,False,10,-1,0,2
Y2-S2-111K20,4,337,PS,exp,38,↑,up,↑,0.5537928999401629,True,11,-1,0,2
Y2-S2-111K20,4,338,PS,exp,32,←,up,↑,0.6229669000022113,False,11,-1,0,2
Y2-S2-111K20,4,339,PS,exp,30,→,right,→,0.48059439985081553,True,12,-1,0,2
Y2-S2-111K20,4,340,PS,exp,33,↓,down,↓,0.6215411000885069,True,12,-1,0,2
Y2-S2-111K20,4,341,PS,exp,26,←,left,←,0.4740649997256696,True,12,1,1,3
Y2-S2-111K20,4,342,PS,exp,41,→,right,→,0.447168099693954,True,11,1,0,3
Y2-S2-111K20,4,343,PS,exp,29,↓,down,↓,0.6172938998788595,True,11,1,0,3
Y2-S2-111K20,4,344,PS,exp,39,←,left,←,0.4705220996402204,True,11,1,0,3
Y2-S2-111K20,4,345,PS,exp,40,↓,down,↓,0.5268044001422822,True,10,1,0,3
Y2-S2-111K20,4,346,PS,exp,37,←,left,←,0.4975691996514797,True,10,1,0,3
Y2-S2-111K20,4,347,PS,exp,31,→,right,→,0.7534524002112448,True,10,1,0,3
Y2-S2-111K20,4,348,PS,exp,36,↑,up,↑,0.4873800999484956,True,9,1,0,3
Y2-S2-111K20,4,349,PS,exp,48,←,left,←,0.42032420029863715,True,9,1,0,3
Y2-S2-111K20,4,350,PS,exp,31,→,left,←,1.1559138000011444,False,9,-1,1,4
Y2-S2-111K20,4,351,PS,exp,38,↑,up,↑,0.44683249993249774,True,10,-1,0,4
Y2-S2-111K20,4,352,PS,exp,29,↓,left,←,0.8025719998404384,False,10,-1,0,4
Y2-S2-111K20,4,353,PS,exp,40,→,right,→,0.45559180015698075,True,11,-1,0,4
Y2-S2-111K20,4,354,PS,exp,46,←,left,←,0.40392669988796115,True,11,-1,0,4
Y2-S2-111K20,4,355,PS,exp,28,↑,up,↑,0.6365304002538323,True,11,1,1,5
Y2-S2-111K20,4,356,PS,exp,43,↓,down,↓,0.4767418997362256,True,10,1,0,5
Y2-S2-111K20,4,357,PS,exp,32,↑,down,↓,0.8895535999909043,False,10,-1,1,6
Y2-S2-111K20,4,358,PS,exp,28,←,left,←,0.49045730009675026,True,11,-1,0,6
Y2-S2-111K20,4,359,PS,exp,33,→,right,→,0.4100468996912241,True,11,-1,0,6
Y2-S2-111K20,4,360,PS,exp,44,↓,down,↓,0.5213886997662485,True,11,1,1,7
Y2-S2-111K20,4,361,PS,exp,31,→,right,→,1.4092585002072155,True,10,1,0,7
Y2-S2-111K20,4,362,PS,exp,46,←,left,←,0.46215749997645617,True,10,1,0,7
Y2-S2-111K20,4,363,PS,exp,32,↑,up,↑,0.5856543998233974,True,10,1,0,7
Y2-S2-111K20,4,364,PS,exp,29,←,left,←,0.6183979003690183,True,9,1,0,7
Y2-S2-111K20,4,365,PS,exp,26,↓,right,→,0.4735402003861964,False,9,-1,1,8
Y2-S2-111K20,4,366,PS,exp,38,→,right,→,0.5194259998388588,True,10,-1,0,8
Y2-S2-111K20,4,367,PS,exp,33,←,left,←,0.5007536001503468,True,10,-1,0,8
Y2-S2-111K20,4,368,PS,exp,46,→,right,→,0.5544533999636769,True,10,1,1,9
Y2-S2-111K20,4,369,PS,exp,50,↓,down,↓,0.6134500000625849,True,9,1,0,9
Y2-S2-111K20,4,370,PS,exp,33,→,right,→,0.3958982997573912,True,9,1,0,9
Y2-S2-111K20,4,371,PS,exp,38,←,left,←,0.34193360013887286,True,9,1,0,9
Y2-S2-111K20,4,372,PS,exp,37,→,right,→,0.42889729980379343,True,8,1,0,9
Y2-S2-111K20,4,373,PS,exp,26,↓,left,←,0.3699898002669215,False,8,-1,1,10
Y2-S2-111K20,4,374,PS,exp,41,←,left,←,0.3531980002298951,True,9,-1,0,10
Y2-S2-111K20,4,375,PS,exp,39,→,right,→,0.41641000006347895,True,9,-1,0,10
Y2-S2-111K20,4,376,PS,exp,47,↓,down,↓,0.5008559999987483,True,9,1,1,11
Y2-S2-111K20,4,377,PS,exp,32,←,left,←,0.37368790013715625,True,8,1,0,11
Y2-S2-111K20,4,378,PS,exp,25,↑,right,→,0.8426327998749912,False,8,-1,1,12
Y2-S2-111K20,4,379,PS,exp,28,←,left,←,0.43549330020323396,True,9,-1,0,12
Y2-S2-111K20,4,380,PS,exp,40,↑,up,↑,0.4844845999032259,True,9,-1,0,12
Y2-S2-111K20,4,381,PS,exp,26,→,right,→,0.4633757001720369,True,9,1,1,13
Y2-S2-111K20,4,382,PS,exp,32,←,left,←,0.38206430012360215,True,8,1,0,13
Y2-S2-111K20,4,383,PS,exp,41,↑,up,↑,0.4846950997598469,True,8,1,0,13
Y2-S2-111K20,4,384,PS,exp,46,↓,down,↓,0.912425700109452,True,8,1,0,13
Y2-S2-111K20,4,385,PS,exp,30,↑,up,↑,0.4231312000192702,True,7,1,0,13
Y2-S2-111K20,4,386,PS,exp,50,→,right,→,0.508770199958235,True,7,1,0,13
Y2-S2-111K20,4,387,PS,exp,45,←,right,→,0.6976549001410604,False,7,-1,1,14
Y2-S2-111K20,4,388,PS,exp,32,↓,down,↓,0.47318160021677613,True,8,-1,0,14
Y2-S2-111K20,4,389,PS,exp,37,←,left,←,0.48824419965967536,True,8,-1,0,14
Y2-S2-111K20,4,390,PS,exp,26,↑,up,↑,0.49337980011478066,True,8,1,1,15
Y2-S2-111K20,4,391,PS,exp,27,←,right,→,0.5601145001128316,False,7,-1,1,16
Y2-S2-111K20,5,392,PS,intra_train,32,↑,up,↑,0.4822058998979628,True,13,-,-,-
Y2-S2-111K20,5,393,PS,intra_train,35,↓,down,↓,0.530186700168997,True,13,-,-,-
Y2-S2-111K20,5,394,PS,intra_train,31,→,right,→,0.5617349999956787,True,13,-,-,-
Y2-S2-111K20,5,395,PS,intra_train,33,↓,down,↓,0.458016499876976,True,13,-,-,-
Y2-S2-111K20,5,396,PS,intra_train,43,→,right,→,0.4509527999907732,True,13,-,-,-
Y2-S2-111K20,5,397,PS,exp,48,↑,up,↑,0.5114956996403635,True,9,0,0,0
Y2-S2-111K20,5,398,PS,exp,50,→,right,→,0.43018809985369444,True,9,0,0,0
Y2-S2-111K20,5,399,PS,exp,28,↓,down,↓,0.43639570008963346,True,9,1,0,0
Y2-S2-111K20,5,400,PS,exp,40,↑,up,↑,0.5923574003390968,True,8,1,0,0
Y2-S2-111K20,5,401,PS,exp,49,←,left,←,0.5092500997707248,True,8,1,0,0
Y2-S2-111K20,5,402,PS,exp,36,↓,right,→,0.8017715001478791,False,8,-1,1,1
Y2-S2-111K20,5,403,PS,exp,40,←,left,←,0.4418939999304712,True,9,-1,0,1
Y2-S2-111K20,5,404,PS,exp,39,→,right,→,0.503300900105387,True,9,-1,0,1
Y2-S2-111K20,5,405,PS,exp,45,↓,down,↓,0.4790692999958992,True,9,1,1,2
Y2-S2-111K20,5,406,PS,exp,49,→,right,→,0.5037442003376782,True,8,1,0,2
Y2-S2-111K20,5,407,PS,exp,40,←,left,←,0.4162225001491606,True,8,1,0,2
Y2-S2-111K20,5,408,PS,exp,49,→,right,→,0.41573019977658987,True,8,1,0,2
Y2-S2-111K20,5,409,PS,exp,47,↑,up,↑,0.479040399659425,True,7,1,0,2
Y2-S2-111K20,5,410,PS,exp,36,↓,down,↓,0.47856719978153706,True,7,1,0,2
Y2-S2-111K20,5,411,PS,exp,31,←,left,←,1.4681347999721766,True,7,1,0,2
Y2-S2-111K20,5,412,PS,exp,41,↓,left,←,0.932243499904871,False,6,-1,1,3
Y2-S2-111K20,5,413,PS,exp,48,↑,up,↑,0.5328763998113573,True,7,-1,0,3
Y2-S2-111K20,5,414,PS,exp,40,←,left,←,0.5076763997785747,True,7,-1,0,3
Y2-S2-111K20,5,415,PS,exp,47,↓,down,↓,0.5139564001001418,True,7,1,1,4
Y2-S2-111K20,5,416,PS,exp,41,←,down,↓,0.5483287996612489,False,6,-1,1,5
Y2-S2-111K20,5,417,PS,exp,26,→,left,←,0.5586967999115586,False,7,-1,0,5
Y2-S2-111K20,5,418,PS,exp,43,↑,up,↑,0.45889450004324317,True,8,-1,0,5
Y2-S2-111K20,5,419,PS,exp,41,→,right,→,0.4902017000131309,True,8,-1,0,5
Y2-S2-111K20,5,420,PS,exp,26,↓,down,↓,0.4202264999039471,True,8,1,1,6
Y2-S2-111K20,5,421,PS,exp,32,←,left,←,0.5754252001643181,True,7,1,0,6
Y2-S2-111K20,5,422,PS,exp,34,→,right,→,0.44189959997311234,True,7,1,0,6
Y2-S2-111K20,5,423,PS,exp,46,↓,down,↓,0.4459445998072624,True,7,1,0,6
Y2-S2-111K20,5,424,PS,exp,44,↑,up,↑,0.4234961997717619,True,6,1,0,6
Y2-S2-111K20,5,425,PS,exp,30,→,right,→,0.4823473999276757,True,6,1,0,6
Y2-S2-111K20,5,426,PS,exp,26,↑,up,↑,0.4713539998047054,True,6,1,0,6
Y2-S2-111K20,5,427,PS,exp,38,↓,down,↓,0.37556339986622334,True,5,1,0,6
Y2-S2-111K20,5,428,PS,exp,42,→,down,↓,0.5879602003842592,False,5,-1,1,7
Y2-S2-111K20,5,429,PS,exp,30,↓,down,↓,0.5279168002307415,True,6,-1,0,7
Y2-S2-111K20,5,430,PS,exp,50,↑,up,↑,0.4648080999031663,True,6,-1,0,7
Y2-S2-111K20,5,431,PS,exp,35,←,left,←,0.5045827999711037,True,6,1,1,8
Y2-S2-111K20,5,432,PS,exp,30,↑,left,←,0.2931245998479426,False,5,-1,1,9
Y2-S2-111K20,5,433,PS,exp,27,↓,down,↓,0.49257540004327893,True,6,-1,0,9
Y2-S2-111K20,5,434,PS,exp,33,→,right,→,0.3932881997898221,True,6,-1,0,9
Y2-S2-111K20,5,435,PS,exp,50,↑,left,←,0.9049367997795343,False,6,-1,0,9
Y2-S2-111K20,5,436,PS,exp,41,↓,down,↓,0.6558702001348138,True,7,-1,0,9
Y2-S2-111K20,5,437,PS,exp,31,←,left,←,0.4990433999337256,True,7,-1,0,9
Y2-S2-111K20,5,438,PS,exp,25,→,right,→,0.5643594996072352,True,7,1,1,10
Y2-S2-111K20,5,439,PS,exp,47,↑,up,↑,0.41478689992800355,True,6,1,0,10
Y2-S2-111K20,5,440,PS,exp,38,→,right,→,0.4651399999856949,True,6,1,0,10
Y2-S2-111K20,5,441,PS,exp,31,↓,up,↑,0.46096349973231554,False,6,-1,1,11
Y2-S2-111K20,5,442,PS,exp,37,←,left,←,0.44586140010505915,True,7,-1,0,11
Y2-S2-111K20,5,443,PS,exp,33,↑,up,↑,0.5986498999409378,True,7,-1,0,11
Y2-S2-111K20,5,444,PS,exp,26,→,left,←,0.5102109997533262,False,7,-1,0,11
Y2-S2-111K20,5,445,PS,exp,27,↓,down,↓,0.6711539998650551,True,8,-1,0,11
Y2-S2-111K20,5,446,PS,exp,34,←,left,←,0.3652228000573814,True,8,-1,0,11
Y2-S2-111K20,5,447,PS,exp,46,↓,down,↓,0.5039228000678122,True,8,1,1,12
Y2-S2-111K20,5,448,PS,exp,35,←,left,←,0.4960409998893738,True,7,1,0,12
Y2-S2-111K20,5,449,PS,exp,38,↑,up,↑,0.5623757001012564,True,7,1,0,12
Y2-S2-111K20,5,450,PS,exp,29,↓,right,→,0.41699379961937666,False,7,-1,1,13
Y2-S2-111K20,5,451,PS,exp,40,→,right,→,0.440934999845922,True,8,-1,0,13
Y2-S2-111K20,5,452,PS,exp,38,←,left,←,0.5179862999357283,True,8,-1,0,13
Y2-S2-111K20,5,453,PS,exp,50,↓,right,→,0.516162000130862,False,8,-1,0,13
Y2-S2-111K20,5,454,PS,exp,37,↑,left,←,0.4453043001703918,False,9,-1,0,13
Y2-S2-111K20,5,455,PS,exp,33,↓,down,↓,0.5614241999574006,True,10,-1,0,13
Y2-S2-111K20,5,456,PS,exp,46,→,right,→,0.4060897002927959,True,10,-1,0,13
Y2-S2-111K20,5,457,PS,exp,50,↓,down,↓,0.4547220002859831,True,10,1,1,14
Y2-S2-111K20,5,458,PS,exp,38,→,right,→,0.32995699997991323,True,9,1,0,14
Y2-S2-111K20,5,459,PS,exp,35,↑,up,↑,0.5942147998139262,True,9,1,0,14
Y2-S2-111K20,5,460,PS,exp,33,↓,down,↓,0.5384968002326787,True,9,1,0,14
Y2-S2-111K20,5,461,PS,exp,38,↑,up,↑,0.5171814002096653,True,8,1,0,14
Y2-S2-111K20,5,462,PS,exp,35,↓,up,↑,0.6700253002345562,False,8,-1,1,15
Y2-S2-111K20,5,463,PS,exp,35,↑,up,↑,0.595373900141567,True,9,-1,0,15
Y2-S2-111K20,5,464,PS,exp,35,→,right,→,0.45677579985931516,True,9,-1,0,15
Y2-S2-111K20,5,465,PS,exp,46,↓,down,↓,0.4775923998095095,True,9,1,1,16
Y2-S2-111K20,6,466,AS,intra_train,45,→,right,→,0.6795634999871254,True,24,-,-,-
Y2-S2-111K20,6,467,AS,intra_train,34,←,right,→,0.483994800131768,False,24,-,-,-
Y2-S2-111K20,6,468,AS,intra_train,38,↓,down,↓,1.184464099816978,True,24,-,-,-
Y2-S2-111K20,6,469,AS,intra_train,27,↑,up,↑,0.6811434999108315,True,24,-,-,-
Y2-S2-111K20,6,470,AS,intra_train,32,↓,down,↓,0.5988095998764038,True,24,-,-,-
Y2-S2-111K20,6,471,AS,exp,46,↑,up,↑,0.5689995000138879,True,16,0,0,0
Y2-S2-111K20,6,472,AS,exp,26,↓,down,↓,0.6748911999166012,True,16,0,0,0
Y2-S2-111K20,6,473,AS,exp,31,→,right,→,0.549804300069809,True,16,1,0,0
Y2-S2-111K20,6,474,AS,exp,45,↑,right,→,0.5892084003426135,False,15,-1,1,1
Y2-S2-111K20,6,475,AS,exp,46,↓,down,↓,0.5012473999522626,True,16,-1,0,1
Y2-S2-111K20,6,476,AS,exp,31,→,right,→,0.6399024999700487,True,16,-1,0,1
Y2-S2-111K20,6,477,AS,exp,38,←,down,↓,0.5983051997609437,False,16,-1,0,1
Y2-S2-111K20,6,478,AS,exp,28,→,right,→,0.5535736000165343,True,17,-1,0,1
Y2-S2-111K20,6,479,AS,exp,37,←,left,←,0.8546618996188045,True,17,-1,0,1
Y2-S2-111K20,6,480,AS,exp,50,↑,up,↑,0.8751481999643147,True,17,1,1,2
Y2-S2-111K20,6,481,AS,exp,50,→,right,→,0.4934299001470208,True,16,1,0,2
Y2-S2-111K20,6,482,AS,exp,49,←,left,←,0.6665524002164602,True,16,1,0,2
Y2-S2-111K20,6,483,AS,exp,47,→,right,→,0.9493656000122428,True,16,1,0,2
Y2-S2-111K20,6,484,AS,exp,43,↓,right,→,0.8287098002620041,False,15,-1,1,3
Y2-S2-111K20,6,485,AS,exp,29,←,left,←,0.7878867001272738,True,16,-1,0,3
Y2-S2-111K20,6,486,AS,exp,30,↓,down,↓,0.5936092003248632,True,16,-1,0,3
Y2-S2-111K20,6,487,AS,exp,34,→,right,→,0.4881886001676321,True,16,1,1,4
Y2-S2-111K20,6,488,AS,exp,27,↓,down,↓,0.6014123000204563,True,15,1,0,4
Y2-S2-111K20,6,489,AS,exp,43,↑,up,↑,0.7084693000651896,True,15,1,0,4
Y2-S2-111K20,6,490,AS,exp,29,↓,down,↓,0.44283349998295307,True,15,1,0,4
Y2-S2-111K20,6,491,AS,exp,48,→,right,→,0.6794177000410855,True,14,1,0,4
Y2-S2-111K20,6,492,AS,exp,40,↑,up,↑,0.6616298998706043,True,14,1,0,4
Y2-S2-111K20,6,493,AS,exp,39,←,left,←,0.5022518998011947,True,14,1,0,4
Y2-S2-111K20,6,494,AS,exp,36,↓,up,↑,0.6224461002275348,False,13,-1,1,5
Y2-S2-111K20,6,495,AS,exp,42,↑,up,↑,0.6801261999644339,True,14,-1,0,5
Y2-S2-111K20,6,496,AS,exp,42,↓,down,↓,0.6614578999578953,True,14,-1,0,5
Y2-S2-111K20,6,497,AS,exp,50,→,right,→,0.5657520997337997,True,14,1,1,6
Y2-S2-111K20,6,498,AS,exp,31,↑,up,↑,0.6160133997909725,True,13,1,0,6
Y2-S2-111K20,6,499,AS,exp,34,→,right,→,0.6337035000324249,True,13,1,0,6
Y2-S2-111K20,6,500,AS,exp,30,↓,down,↓,0.53842330025509,True,13,1,0,6
Y2-S2-111K20,6,501,AS,exp,40,↑,down,↓,0.4537514001131058,False,12,-1,1,7
Y2-S2-111K20,6,502,AS,exp,30,←,left,←,0.5723055000416934,True,13,-1,0,7
Y2-S2-111K20,6,503,AS,exp,36,→,right,→,0.462589000351727,True,13,-1,0,7
Y2-S2-111K20,6,504,AS,exp,29,↑,down,↓,0.7364455000497401,False,13,-1,0,7
Y2-S2-111K20,6,505,AS,exp,25,↓,down,↓,0.5993301998823881,True,14,-1,0,7
Y2-S2-111K20,6,506,AS,exp,40,↑,up,↑,0.6802884000353515,True,14,-1,0,7
Y2-S2-111K20,6,507,AS,exp,40,←,left,←,0.6580170998349786,True,14,1,1,8
Y2-S2-111K20,6,508,AS,exp,48,→,right,→,0.49493440007790923,True,13,1,0,8
Y2-S2-111K20,6,509,AS,exp,50,↓,down,↓,0.5780270998366177,True,13,1,0,8
Y2-S2-111K20,6,510,AS,exp,33,←,left,←,1.0367839001119137,True,13,1,0,8
Y2-S2-111K20,6,511,AS,exp,47,↑,up,↑,0.6259924001060426,True,12,1,0,8
Y2-S2-111K20,6,512,AS,exp,50,←,left,←,0.5905220001004636,True,12,1,0,8
Y2-S2-111K20,6,513,AS,exp,45,→,left,←,0.4392630001530051,False,12,-1,1,9
Y2-S2-111K20,6,514,AS,exp,49,←,left,←,1.5033823000267148,True,13,-1,0,9
Y2-S2-111K20,6,515,AS,exp,46,→,right,→,0.5771022997796535,True,13,-1,0,9
Y2-S2-111K20,6,516,AS,exp,29,↓,down,↓,0.5204461002722383,True,13,1,1,10
Y2-S2-111K20,6,517,AS,exp,47,→,left,←,0.630449699703604,False,12,-1,1,11
Y2-S2-111K20,6,518,AS,exp,45,←,up,↑,0.9003728996030986,False,13,-1,0,11
Y2-S2-111K20,6,519,AS,exp,28,↑,up,↑,0.5545041998848319,True,14,-1,0,11
Y2-S2-111K20,6,520,AS,exp,47,→,left,←,0.6680994001217186,False,14,-1,0,11
Y2-S2-111K20,6,521,AS,exp,40,←,left,←,0.5743721001781523,True,15,-1,0,11
Y2-S2-111K20,6,522,AS,exp,45,↓,down,↓,0.6099332002922893,True,15,-1,0,11
Y2-S2-111K20,6,523,AS,exp,34,↑,up,↑,0.548375700134784,True,15,1,1,12
Y2-S2-111K20,6,524,AS,exp,28,←,left,←,0.5946388999000192,True,14,1,0,12
Y2-S2-111K20,6,525,AS,exp,46,→,right,→,0.5324510000646114,True,14,1,0,12
Y2-S2-111K20,6,526,AS,exp,44,↑,up,↑,0.6714128996245563,True,14,1,0,12
Y2-S2-111K20,6,527,AS,exp,45,↓,right,→,0.6688248002901673,False,13,-1,1,13
Y2-S2-111K20,6,528,AS,exp,36,→,right,→,0.7014282001182437,True,14,-1,0,13
Y2-S2-111K20,6,529,AS,exp,29,←,left,←,0.843034700024873,True,14,-1,0,13
Y2-S2-111K20,6,530,AS,exp,44,↑,right,→,0.5788954002782702,False,14,-1,0,13
Y2-S2-111K20,6,531,AS,exp,39,←,left,←,0.5480432999320328,True,15,-1,0,13
Y2-S2-111K20,6,532,AS,exp,43,↓,up,↑,0.5873477002605796,False,15,-1,0,13
Y2-S2-111K20,6,533,AS,exp,38,↑,up,↑,0.7828416000120342,True,16,-1,0,13
Y2-S2-111K20,6,534,AS,exp,48,←,left,←,0.5318117002025247,True,16,-1,0,13
Y2-S2-111K20,6,535,AS,exp,49,↑,up,↑,0.7334354999475181,True,16,1,1,14
Y2-S2-111K20,6,536,AS,exp,36,→,left,←,0.5872958996333182,False,15,-1,1,15
Y2-S2-111K20,6,537,AS,exp,43,↓,down,↓,0.7174341999925673,True,16,-1,0,15
Y2-S2-111K20,6,538,AS,exp,44,↑,up,↑,0.5295877000316978,True,16,-1,0,15
Y2-S2-111K20,6,539,AS,exp,49,→,right,→,0.5435758996754885,True,16,1,1,16
Y2-S2-111K20,7,540,AS,intra_train,49,↓,down,↓,0.5675893998704851,True,24,-,-,-
Y2-S2-111K20,7,541,AS,intra_train,28,↑,up,↑,0.5794147001579404,True,24,-,-,-
Y2-S2-111K20,7,542,AS,intra_train,37,→,right,→,0.43382539972662926,True,24,-,-,-
Y2-S2-111K20,7,543,AS,intra_train,47,↓,down,↓,1.2219477999024093,True,24,-,-,-
Y2-S2-111K20,7,544,AS,intra_train,43,→,right,→,0.40066369995474815,True,24,-,-,-
Y2-S2-111K20,7,545,AS,exp,26,↓,down,↓,0.4361799000762403,True,16,0,0,0
Y2-S2-111K20,7,546,AS,exp,41,←,left,←,0.5850599999539554,True,16,0,0,0
Y2-S2-111K20,7,547,AS,exp,49,→,right,→,0.5133295999839902,True,16,1,0,0
Y2-S2-111K20,7,548,AS,exp,38,↓,down,↓,0.5181752000935376,True,15,1,0,0
Y2-S2-111K20,7,549,AS,exp,45,→,right,→,0.6163459001109004,True,15,1,0,0
Y2-S2-111K20,7,550,AS,exp,50,↑,up,↑,0.47949680034071207,True,15,1,0,0
Y2-S2-111K20,7,551,AS,exp,38,←,left,←,0.48636600002646446,True,14,1,0,0
Y2-S2-111K20,7,552,AS,exp,46,↑,up,↑,0.6679802001453936,True,14,1,0,0
Y2-S2-111K20,7,553,AS,exp,34,←,down,↓,0.6936106001958251,False,14,-1,1,1
Y2-S2-111K20,7,554,AS,exp,34,→,right,→,0.5169612001627684,True,15,-1,0,1
Y2-S2-111K20,7,555,AS,exp,25,↓,down,↓,0.527632299810648,True,15,-1,0,1
Y2-S2-111K20,7,556,AS,exp,27,→,right,→,0.5909989001229405,True,15,1,1,2
Y2-S2-111K20,7,557,AS,exp,32,↓,down,↓,0.5437039001844823,True,14,1,0,2
Y2-S2-111K20,7,558,AS,exp,32,→,right,→,0.4863654002547264,True,14,1,0,2
Y2-S2-111K20,7,559,AS,exp,37,←,left,←,0.4890945996157825,True,14,1,0,2
Y2-S2-111K20,7,560,AS,exp,47,↑,up,↑,0.5864447997882962,True,13,1,0,2
Y2-S2-111K20,7,561,AS,exp,50,←,right,→,0.5662759002298117,False,13,-1,1,3
Y2-S2-111K20,7,562,AS,exp,48,→,right,→,0.49808819964528084,True,14,-1,0,3
Y2-S2-111K20,7,563,AS,exp,40,↓,up,↑,1.3917787000536919,False,14,-1,0,3
Y2-S2-111K20,7,564,AS,exp,26,↑,down,↓,0.6707391999661922,False,15,-1,0,3
Y2-S2-111K20,7,565,AS,exp,42,→,right,→,0.5932947997935116,True,16,-1,0,3
Y2-S2-111K20,7,566,AS,exp,26,←,left,←,0.3838766999542713,True,16,-1,0,3
Y2-S2-111K20,7,567,AS,exp,26,↓,up,↑,1.0421941000968218,False,16,-1,0,3
Y2-S2-111K20,7,568,AS,exp,46,→,left,←,0.5188393001444638,False,17,-1,0,3
Y2-S2-111K20,7,569,AS,exp,50,←,left,←,0.5097097000107169,True,18,-1,0,3
Y2-S2-111K20,7,570,AS,exp,26,↓,down,↓,0.5430952003225684,True,18,-1,0,3
Y2-S2-111K20,7,571,AS,exp,45,→,right,→,0.434313400182873,True,18,1,1,4
Y2-S2-111K20,7,572,AS,exp,26,↑,up,↑,0.6017026002518833,True,17,1,0,4
Y2-S2-111K20,7,573,AS,exp,38,→,right,→,0.484500200022012,True,17,1,0,4
Y2-S2-111K20,7,574,AS,exp,45,←,left,←,0.5248476997949183,True,17,1,0,4
Y2-S2-111K20,7,575,AS,exp,38,↑,up,↑,0.5864287000149488,True,16,1,0,4
Y2-S2-111K20,7,576,AS,exp,32,←,left,←,0.6051822998560965,True,16,1,0,4
Y2-S2-111K20,7,577,AS,exp,34,↑,up,↑,0.6223850999958813,True,16,1,0,4
Y2-S2-111K20,7,578,AS,exp,25,↓,down,↓,0.7782601001672447,True,15,1,0,4
Y2-S2-111K20,7,579,AS,exp,39,←,down,↓,0.717658800072968,False,15,-1,1,5
Y2-S2-111K20,7,580,AS,exp,31,↓,down,↓,0.5580830997787416,True,16,-1,0,5
Y2-S2-111K20,7,581,AS,exp,36,↑,up,↑,0.6218444998376071,True,16,-1,0,5
Y2-S2-111K20,7,582,AS,exp,43,↓,down,↓,0.501220399979502,True,16,1,1,6
Y2-S2-111K20,7,583,AS,exp,26,→,right,→,0.5324745001271367,True,15,1,0,6
Y2-S2-111K20,7,584,AS,exp,47,←,down,↓,1.0084640001878142,False,15,-1,1,7
Y2-S2-111K20,7,585,AS,exp,42,↑,up,↑,0.4962440999224782,True,16,-1,0,7
Y2-S2-111K20,7,586,AS,exp,49,←,left,←,0.5118601997382939,True,16,-1,0,7
Y2-S2-111K20,7,587,AS,exp,49,↑,up,↑,0.4743856997229159,True,16,1,1,8
Y2-S2-111K20,7,588,AS,exp,45,←,left,←,0.555415500421077,True,15,1,0,8
Y2-S2-111K20,7,589,AS,exp,44,↓,down,↓,0.6355878002941608,True,15,1,0,8
Y2-S2-111K20,7,590,AS,exp,37,→,right,→,0.6335947997868061,True,15,1,0,8
Y2-S2-111K20,7,591,AS,exp,49,↓,down,↓,0.5658468999899924,True,14,1,0,8
Y2-S2-111K20,7,592,AS,exp,29,←,right,→,0.5535976998507977,False,14,-1,1,9
Y2-S2-111K20,7,593,AS,exp,32,↓,down,↓,0.5356191997416317,True,15,-1,0,9
Y2-S2-111K20,7,594,AS,exp,31,↑,down,↓,1.1470515998080373,False,15,-1,0,9
Y2-S2-111K20,7,595,AS,exp,31,→,right,→,0.538716500159353,True,16,-1,0,9
Y2-S2-111K20,7,596,AS,exp,25,←,left,←,0.5857901996932924,True,16,-1,0,9
Y2-S2-111K20,7,597,AS,exp,40,↑,up,↑,0.7510652998462319,True,16,1,1,10
Y2-S2-111K20,7,598,AS,exp,27,↓,down,↓,0.5200704000890255,True,15,1,0,10
Y2-S2-111K20,7,599,AS,exp,48,→,left,←,0.5962843997403979,False,15,-1,1,11
Y2-S2-111K20,7,600,AS,exp,47,←,left,←,0.43448719987645745,True,16,-1,0,11
Y2-S2-111K20,7,601,AS,exp,46,→,right,→,0.5992779000662267,True,16,-1,0,11
Y2-S2-111K20,7,602,AS,exp,43,↓,down,↓,0.5378976999782026,True,16,1,1,12
Y2-S2-111K20,7,603,AS,exp,32,→,right,→,0.6306277997791767,True,15,1,0,12
Y2-S2-111K20,7,604,AS,exp,40,↓,down,↓,0.6653391001746058,True,15,1,0,12
Y2-S2-111K20,7,605,AS,exp,35,←,left,←,0.42465020017698407,True,15,1,0,12
Y2-S2-111K20,7,606,AS,exp,42,↓,down,↓,0.563499300274998,True,14,1,0,12
Y2-S2-111K20,7,607,AS,exp,32,←,left,←,0.5427636001259089,True,14,1,0,12
Y2-S2-111K20,7,608,AS,exp,50,→,left,←,0.5811435002833605,False,14,-1,1,13
Y2-S2-111K20,7,609,AS,exp,32,←,left,←,0.421140399761498,True,15,-1,0,13
Y2-S2-111K20,7,610,AS,exp,27,→,right,→,1.6991423000581563,True,15,-1,0,13
Y2-S2-111K20,7,611,AS,exp,38,←,left,←,0.6350679001770914,True,15,1,1,14
Y2-S2-111K20,7,612,AS,exp,27,↓,down,↓,0.6466759997420013,True,14,1,0,14
Y2-S2-111K20,7,613,AS,exp,32,↑,up,↑,0.9593524001538754,True,14,1,0,14
Y2-S2-111K20,7,614,AS,exp,46,←,left,←,0.47211960004642606,True,14,1,0,14
Y2-S2-111K20,7,615,AS,exp,29,→,right,→,0.7573849996551871,True,13,1,0,14
Y2-S2-111K20,7,616,AS,exp,40,↑,down,↓,0.964391500223428,False,13,-1,1,15
Y2-S2-111K20,7,617,AS,exp,30,↓,down,↓,0.5838850000873208,True,14,-1,0,15
Y2-S2-111K20,7,618,AS,exp,48,→,left,←,0.5782149997539818,False,14,-1,0,15
Y2-S2-111K20,7,619,AS,exp,30,↑,up,↑,0.5079491003416479,True,15,-1,0,15
Y2-S2-111K20,7,620,AS,exp,25,←,left,←,0.47428590012714267,True,15,-1,0,15
Y2-S2-111K20,7,621,AS,exp,31,↓,down,↓,0.5667075999081135,True,15,1,1,16
Y2-S2-111K20,8,622,PS,intra_train,38,↑,up,↑,0.8239346998743713,True,13,-,-,-
Y2-S2-111K20,8,623,PS,intra_train,37,↓,down,↓,0.47250760020688176,True,13,-,-,-
Y2-S2-111K20,8,624,PS,intra_train,47,→,right,→,0.5373256001621485,True,13,-,-,-
Y2-S2-111K20,8,625,PS,intra_train,44,↓,down,↓,0.448700699955225,True,13,-,-,-
Y2-S2-111K20,8,626,PS,intra_train,34,→,right,→,0.9462235001847148,True,13,-,-,-
Y2-S2-111K20,8,627,PS,exp,34,↓,down,↓,0.4424457000568509,True,9,0,0,0
Y2-S2-111K20,8,628,PS,exp,47,↑,up,↑,0.4181655999273062,True,9,0,0,0
Y2-S2-111K20,8,629,PS,exp,45,←,left,←,0.5700206998735666,True,9,1,0,0
Y2-S2-111K20,8,630,PS,exp,42,↑,up,↑,0.5185465002432466,True,8,1,0,0
Y2-S2-111K20,8,631,PS,exp,34,→,right,→,0.9980699000880122,True,8,1,0,0
Y2-S2-111K20,8,632,PS,exp,39,←,left,←,0.8850777000188828,True,8,1,0,0
Y2-S2-111K20,8,633,PS,exp,42,↓,up,↑,0.7897986997850239,False,7,-1,1,1
Y2-S2-111K20,8,634,PS,exp,38,→,left,←,0.5554486000910401,False,8,-1,0,1
Y2-S2-111K20,8,635,PS,exp,50,←,left,←,0.4768015998415649,True,9,-1,0,1
Y2-S2-111K20,8,636,PS,exp,47,→,right,→,0.5612048003822565,True,9,-1,0,1
Y2-S2-111K20,8,637,PS,exp,32,↓,up,↑,0.6695844000205398,False,9,-1,0,1
Y2-S2-111K20,8,638,PS,exp,39,↑,up,↑,0.46207490004599094,True,10,-1,0,1
Y2-S2-111K20,8,639,PS,exp,48,←,left,←,0.4323375001549721,True,10,-1,0,1
Y2-S2-111K20,8,640,PS,exp,37,↓,down,↓,0.5089791002683342,True,10,1,1,2
Y2-S2-111K20,8,641,PS,exp,25,←,left,←,0.5694711999967694,True,9,1,0,2
Y2-S2-111K20,8,642,PS,exp,30,↓,down,↓,0.4883298999629915,True,9,1,0,2
Y2-S2-111K20,8,643,PS,exp,29,→,right,→,0.5039619002491236,True,9,1,0,2
Y2-S2-111K20,8,644,PS,exp,42,↑,up,↑,0.4086350998841226,True,8,1,0,2
Y2-S2-111K20,8,645,PS,exp,38,←,up,↑,1.3503104001283646,False,8,-1,1,3
Y2-S2-111K20,8,646,PS,exp,25,↑,down,↓,0.9664135999046266,False,9,-1,0,3
Y2-S2-111K20,8,647,PS,exp,40,←,left,←,0.444854199886322,True,10,-1,0,3
Y2-S2-111K20,8,648,PS,exp,40,→,right,→,0.38559200009331107,True,10,-1,0,3
Y2-S2-111K20,8,649,PS,exp,50,←,left,←,0.5204402999952435,True,10,1,1,4
Y2-S2-111K20,8,650,PS,exp,36,→,right,→,0.43330480018630624,True,9,1,0,4
Y2-S2-111K20,8,651,PS,exp,43,↑,up,↑,0.4213568000122905,True,9,1,0,4
Y2-S2-111K20,8,652,PS,exp,32,→,right,→,0.4355851002037525,True,9,1,0,4
Y2-S2-111K20,8,653,PS,exp,33,↑,up,↑,0.43661259999498725,True,8,1,0,4
Y2-S2-111K20,8,654,PS,exp,39,→,left,←,0.6243265001103282,False,8,-1,1,5
Y2-S2-111K20,8,655,PS,exp,37,←,left,←,0.3818306000903249,True,9,-1,0,5
Y2-S2-111K20,8,656,PS,exp,33,↑,up,↑,0.5078203002922237,True,9,-1,0,5
Y2-S2-111K20,8,657,PS,exp,29,→,right,→,0.37836619978770614,True,9,1,1,6
Y2-S2-111K20,8,658,PS,exp,48,↓,down,↓,0.5496801999397576,True,8,1,0,6
Y2-S2-111K20,8,659,PS,exp,47,←,left,←,1.1356572997756302,True,8,1,0,6
Y2-S2-111K20,8,660,PS,exp,45,↑,left,←,0.5246109999716282,False,8,-1,1,7
Y2-S2-111K20,8,661,PS,exp,49,↓,down,↓,0.5955222002230585,True,9,-1,0,7
Y2-S2-111K20,8,662,PS,exp,45,→,right,→,0.4451234000734985,True,9,-1,0,7
Y2-S2-111K20,8,663,PS,exp,35,←,left,←,0.5218107001855969,True,9,1,1,8
Y2-S2-111K20,8,664,PS,exp,42,↓,down,↓,0.4780109999701381,True,8,1,0,8
Y2-S2-111K20,8,665,PS,exp,28,→,right,→,0.4987868000753224,True,8,1,0,8
Y2-S2-111K20,8,666,PS,exp,27,←,right,→,0.4628862999379635,False,8,-1,1,9
Y2-S2-111K20,8,667,PS,exp,46,↑,left,←,0.8975211000069976,False,9,-1,0,9
Y2-S2-111K20,8,668,PS,exp,31,←,left,←,0.4128219997510314,True,10,-1,0,9
Y2-S2-111K20,8,669,PS,exp,46,↓,down,↓,0.4082319000735879,True,10,-1,0,9
Y2-S2-111K20,8,670,PS,exp,35,←,down,↓,0.5001579998061061,False,10,-1,0,9
Y2-S2-111K20,8,671,PS,exp,39,→,down,↓,0.49580200016498566,False,11,-1,0,9
Y2-S2-111K20,8,672,PS,exp,36,↑,up,↑,1.235607699956745,True,12,-1,0,9
Y2-S2-111K20,8,673,PS,exp,37,←,left,←,0.41328039998188615,True,12,-1,0,9
Y2-S2-111K20,8,674,PS,exp,47,↓,down,↓,0.5288358996622264,True,12,1,1,10
Y2-S2-111K20,8,675,PS,exp,50,→,right,→,0.40872809989377856,True,11,1,0,10
Y2-S2-111K20,8,676,PS,exp,46,←,down,↓,0.5499525000341237,False,11,-1,1,11
Y2-S2-111K20,8,677,PS,exp,48,→,right,→,0.4085169001482427,True,12,-1,0,11
Y2-S2-111K20,8,678,PS,exp,31,↑,up,↑,0.6117873997427523,True,12,-1,0,11
Y2-S2-111K20,8,679,PS,exp,34,←,right,→,0.5509017999283969,False,12,-1,0,11
Y2-S2-111K20,8,680,PS,exp,30,↓,down,↓,0.4586096997372806,True,13,-1,0,11
Y2-S2-111K20,8,681,PS,exp,46,→,right,→,0.3982573999091983,True,13,-1,0,11
Y2-S2-111K20,8,682,PS,exp,34,↑,up,↑,0.4345748000778258,True,13,1,1,12
Y2-S2-111K20,8,683,PS,exp,32,↓,down,↓,0.46996620018035173,True,12,1,0,12
Y2-S2-111K20,8,684,PS,exp,40,←,left,←,0.6299908999353647,True,12,1,0,12
Y2-S2-111K20,8,685,PS,exp,41,↓,no_key,no_letter,-1.0,False,12,-1,1,13
Y2-S2-111K20,8,686,PS,exp,25,↑,up,↑,0.4386613997630775,True,13,-1,0,13
Y2-S2-111K20,8,687,PS,exp,41,→,right,→,0.4168688002973795,True,13,-1,0,13
Y2-S2-111K20,8,688,PS,exp,43,↑,up,↑,0.45698439981788397,True,13,1,1,14
Y2-S2-111K20,8,689,PS,exp,32,→,right,→,0.568559399805963,True,12,1,0,14
Y2-S2-111K20,8,690,PS,exp,48,↓,down,↓,0.5284021999686956,True,12,1,0,14
Y2-S2-111K20,8,691,PS,exp,49,←,right,→,0.49013330042362213,False,12,-1,1,15
Y2-S2-111K20,8,692,PS,exp,35,↓,down,↓,0.5147441998124123,True,13,-1,0,15
Y2-S2-111K20,8,693,PS,exp,27,↑,up,↑,0.5618060999549925,True,13,-1,0,15
Y2-S2-111K20,8,694,PS,exp,30,→,left,←,1.2105139000341296,False,13,-1,0,15
Y2-S2-111K20,8,695,PS,exp,27,↑,up,↑,0.8038548002950847,True,14,-1,0,15
Y2-S2-111K20,8,696,PS,exp,34,↓,down,↓,0.48919230001047254,True,14,-1,0,15
Y2-S2-111K20,8,697,PS,exp,37,↑,up,↑,0.6359255998395383,True,14,1,1,16
