PART_ID,Block_no,Trial_no,Block_type,Trial_type,CSI,Stim_letter,Key_pressed,letter_choose,Rt,Corr,Stimulus Time,Level,Reversal,Revs_count
Y2-S2-104K22,1,1,PS,train,42,→,right,→,0.58404540000015,True,30,-,-,-
Y2-S2-104K22,1,2,PS,train,27,↑,up,↑,0.5838297000000239,True,30,-,-,-
Y2-S2-104K22,1,3,PS,train,26,←,left,←,0.38416400000005524,True,30,-,-,-
Y2-S2-104K22,1,4,PS,train,38,↑,up,↑,0.40131750000000466,True,30,-,-,-
Y2-S2-104K22,1,5,PS,train,29,←,left,←,0.5007162000001699,True,30,-,-,-
Y2-S2-104K22,1,6,PS,train,34,↑,up,↑,0.5508239999999205,True,30,-,-,-
Y2-S2-104K22,1,7,PS,train,41,↓,down,↓,0.73714700000005,True,30,-,-,-
Y2-S2-104K22,1,8,PS,train,40,←,left,←,0.6788765999999669,True,30,-,-,-
Y2-S2-104K22,1,9,PS,train,38,→,right,→,0.5672626000000491,True,30,-,-,-
Y2-S2-104K22,1,10,PS,train,25,↑,up,↑,0.5507949000000281,True,30,-,-,-
Y2-S2-104K22,2,11,AS,train,28,→,right,→,0.6676761999999599,True,45,-,-,-
Y2-S2-104K22,2,12,AS,train,26,←,left,←,0.5010590000001685,True,45,-,-,-
Y2-S2-104K22,2,13,AS,train,46,↑,up,↑,0.7841150000001562,True,45,-,-,-
Y2-S2-104K22,2,14,AS,train,48,↓,down,↓,0.8336060000001453,True,45,-,-,-
Y2-S2-104K22,2,15,AS,train,39,←,left,←,0.450792999999976,True,45,-,-,-
Y2-S2-104K22,2,16,AS,train,33,↑,up,↑,0.833979200000158,True,45,-,-,-
Y2-S2-104K22,2,17,AS,train,31,→,right,→,0.7837533999997959,True,45,-,-,-
Y2-S2-104K22,2,18,AS,train,38,←,left,←,0.767249799999945,True,45,-,-,-
Y2-S2-104K22,2,19,AS,train,45,→,right,→,0.9596546000000217,True,45,-,-,-
Y2-S2-104K22,2,20,AS,train,36,↓,down,↓,0.6347505999999612,True,45,-,-,-
Y2-S2-104K22,-,21,PS,adaptive,32,↑,up,↑,0.590212000000065,True,10,0,0,0
Y2-S2-104K22,-,22,PS,adaptive,46,←,left,←,0.5265029999998205,True,10,0,0,0
Y2-S2-104K22,-,23,PS,adaptive,41,→,right,→,0.6095049999998992,True,10,1,0,0
Y2-S2-104K22,-,24,PS,adaptive,44,↓,down,↓,0.6035463000000618,True,9,1,0,0
Y2-S2-104K22,-,25,PS,adaptive,45,←,left,←,0.5606992000000446,True,9,1,0,0
Y2-S2-104K22,-,26,PS,adaptive,37,→,left,←,0.6655112000000827,False,9,-1,1,1
Y2-S2-104K22,-,27,PS,adaptive,37,←,left,←,0.6108861000000161,True,10,-1,0,1
Y2-S2-104K22,-,28,PS,adaptive,30,↑,up,↑,0.8818813999998838,True,10,-1,0,1
Y2-S2-104K22,-,29,PS,adaptive,37,→,right,→,0.6028082000000268,True,10,1,1,2
Y2-S2-104K22,-,30,PS,adaptive,30,↑,up,↑,0.5676120000000537,True,9,1,0,2
Y2-S2-104K22,-,31,PS,adaptive,47,←,left,←,0.49433780000003935,True,9,1,0,2
Y2-S2-104K22,-,32,PS,adaptive,41,↑,up,↑,0.4953001999999742,True,9,1,0,2
Y2-S2-104K22,-,33,PS,adaptive,45,↓,left,←,0.6035002999999506,False,8,-1,1,3
Y2-S2-104K22,-,34,PS,adaptive,43,↑,up,↑,0.5866130000001704,True,9,-1,0,3
Y2-S2-104K22,-,35,PS,adaptive,45,→,right,→,0.5277158999999756,True,9,-1,0,3
Y2-S2-104K22,-,36,PS,adaptive,27,↑,up,↑,0.5098356999999396,True,9,1,1,4
Y2-S2-104K22,-,37,AS,adaptive,26,↓,down,↓,0.6211628999999448,True,20,0,0,0
Y2-S2-104K22,-,38,AS,adaptive,25,→,right,→,0.7175887000000785,True,20,0,0,0
Y2-S2-104K22,-,39,AS,adaptive,25,↓,down,↓,0.529724700000088,True,20,1,0,0
Y2-S2-104K22,-,40,AS,adaptive,27,↑,up,↑,0.6261377000000721,True,19,1,0,0
Y2-S2-104K22,-,41,AS,adaptive,30,→,right,→,0.645812400000068,True,19,1,0,0
Y2-S2-104K22,-,42,AS,adaptive,50,↑,up,↑,0.6383452999998553,True,19,1,0,0
Y2-S2-104K22,-,43,AS,adaptive,47,→,right,→,0.5121134000000893,True,18,1,0,0
Y2-S2-104K22,-,44,AS,adaptive,48,↑,down,↓,1.1723222000000533,False,18,-1,1,1
Y2-S2-104K22,-,45,AS,adaptive,40,←,left,←,0.7410506000001078,True,19,-1,0,1
Y2-S2-104K22,-,46,AS,adaptive,34,→,right,→,0.6655193999999938,True,19,-1,0,1
Y2-S2-104K22,-,47,AS,adaptive,45,↓,up,↑,0.8458720000000994,False,19,-1,0,1
Y2-S2-104K22,-,48,AS,adaptive,27,→,right,→,0.6176072999999178,True,20,-1,0,1
Y2-S2-104K22,-,49,AS,adaptive,25,↓,down,↓,0.651186800000005,True,20,-1,0,1
Y2-S2-104K22,-,50,AS,adaptive,37,↑,up,↑,0.567277600000125,True,20,1,1,2
Y2-S2-104K22,-,51,AS,adaptive,44,↓,down,↓,0.7261263999998846,True,19,1,0,2
Y2-S2-104K22,-,52,AS,adaptive,32,←,left,←,0.5146601999999803,True,19,1,0,2
Y2-S2-104K22,-,53,AS,adaptive,41,→,right,→,0.7515360999998393,True,19,1,0,2
Y2-S2-104K22,-,54,AS,adaptive,32,←,left,←,0.579296199999817,True,18,1,0,2
Y2-S2-104K22,-,55,AS,adaptive,50,→,right,→,0.6512809999999263,True,18,1,0,2
Y2-S2-104K22,-,56,AS,adaptive,36,←,left,←,0.8892212000000654,True,18,1,0,2
Y2-S2-104K22,-,57,AS,adaptive,38,→,right,→,0.8086712000001626,True,17,1,0,2
Y2-S2-104K22,-,58,AS,adaptive,25,←,left,←,0.7089538999998695,True,17,1,0,2
Y2-S2-104K22,-,59,AS,adaptive,37,→,right,→,0.5105509999998503,True,17,1,0,2
Y2-S2-104K22,-,60,AS,adaptive,31,↑,left,←,0.5786439999999402,False,16,-1,1,3
Y2-S2-104K22,-,61,AS,adaptive,28,←,left,←,0.70085569999992,True,17,-1,0,3
Y2-S2-104K22,-,62,AS,adaptive,28,↓,up,↑,0.7200877000000219,False,17,-1,0,3
Y2-S2-104K22,-,63,AS,adaptive,49,→,right,→,0.6166719000000285,True,18,-1,0,3
Y2-S2-104K22,-,64,AS,adaptive,28,↑,up,↑,0.6233132999998361,True,18,-1,0,3
Y2-S2-104K22,-,65,AS,adaptive,42,→,right,→,0.612256699999989,True,18,1,1,4
Y2-S2-104K22,1,66,AS,intra_train,28,↑,up,↑,0.4340672999999242,True,25,-,-,-
Y2-S2-104K22,1,67,AS,intra_train,33,←,left,←,0.6762301999999636,True,25,-,-,-
Y2-S2-104K22,1,68,AS,intra_train,31,↑,up,↑,0.6892551999999341,True,25,-,-,-
Y2-S2-104K22,1,69,AS,intra_train,41,→,right,→,0.6618675999998231,True,25,-,-,-
Y2-S2-104K22,1,70,AS,intra_train,35,↑,up,↑,0.6577505000000201,True,25,-,-,-
Y2-S2-104K22,1,71,AS,exp,45,↓,down,↓,0.7592486999999437,True,17,0,0,0
Y2-S2-104K22,1,72,AS,exp,50,←,left,←,0.6974715999999717,True,17,0,0,0
Y2-S2-104K22,1,73,AS,exp,42,↑,up,↑,0.6605713000001288,True,17,1,0,0
Y2-S2-104K22,1,74,AS,exp,43,→,right,→,0.7652730999998312,True,16,1,0,0
Y2-S2-104K22,1,75,AS,exp,47,↓,up,↑,1.222467300000062,False,16,-1,1,1
Y2-S2-104K22,1,76,AS,exp,28,↑,up,↑,0.5407400999999936,True,17,-1,0,1
Y2-S2-104K22,1,77,AS,exp,32,→,right,→,0.8007862000001751,True,17,-1,0,1
Y2-S2-104K22,1,78,AS,exp,29,←,left,←,0.5979112999998506,True,17,1,1,2
Y2-S2-104K22,1,79,AS,exp,31,↓,down,↓,0.666979099999935,True,16,1,0,2
Y2-S2-104K22,1,80,AS,exp,49,←,left,←,0.6382699000000684,True,16,1,0,2
Y2-S2-104K22,1,81,AS,exp,49,↓,down,↓,0.5391995999998471,True,16,1,0,2
Y2-S2-104K22,1,82,AS,exp,29,↑,up,↑,0.5121784000000389,True,15,1,0,2
Y2-S2-104K22,1,83,AS,exp,35,↓,down,↓,0.7170794999999544,True,15,1,0,2
Y2-S2-104K22,1,84,AS,exp,47,→,right,→,0.7537509999999656,True,15,1,0,2
Y2-S2-104K22,1,85,AS,exp,36,↑,up,↑,0.603896099999929,True,14,1,0,2
Y2-S2-104K22,1,86,AS,exp,49,↓,down,↓,0.4790074000000004,True,14,1,0,2
Y2-S2-104K22,1,87,AS,exp,46,↑,left,←,0.3503366999998434,False,14,-1,1,3
Y2-S2-104K22,1,88,AS,exp,50,→,right,→,0.8019077999999809,True,15,-1,0,3
Y2-S2-104K22,1,89,AS,exp,34,↓,down,↓,0.5028904999999213,True,15,-1,0,3
Y2-S2-104K22,1,90,AS,exp,39,↑,up,↑,0.6121565999999348,True,15,1,1,4
Y2-S2-104K22,1,91,AS,exp,28,←,left,←,0.5804181000000881,True,14,1,0,4
Y2-S2-104K22,1,92,AS,exp,42,→,left,←,1.3511595999998463,False,14,-1,1,5
Y2-S2-104K22,1,93,AS,exp,46,↑,up,↑,0.6287913999999546,True,15,-1,0,5
Y2-S2-104K22,1,94,AS,exp,37,←,left,←,1.089883699999973,True,15,-1,0,5
Y2-S2-104K22,1,95,AS,exp,35,↓,down,↓,0.6991296999999577,True,15,1,1,6
Y2-S2-104K22,1,96,AS,exp,46,→,right,→,0.5211870000000545,True,14,1,0,6
Y2-S2-104K22,1,97,AS,exp,46,↑,up,↑,0.6081936000000496,True,14,1,0,6
Y2-S2-104K22,1,98,AS,exp,47,←,left,←,0.6380250999998225,True,14,1,0,6
Y2-S2-104K22,1,99,AS,exp,27,↓,down,↓,0.5209485000000313,True,13,1,0,6
Y2-S2-104K22,1,100,AS,exp,39,↑,up,↑,0.5594582000001083,True,13,1,0,6
Y2-S2-104K22,1,101,AS,exp,46,↓,down,↓,0.8308349000001272,True,13,1,0,6
Y2-S2-104K22,1,102,AS,exp,32,←,left,←,0.4209359999999833,True,12,1,0,6
Y2-S2-104K22,1,103,AS,exp,43,↓,down,↓,0.6694855000000643,True,12,1,0,6
Y2-S2-104K22,1,104,AS,exp,33,→,right,→,0.9676773999999568,True,12,1,0,6
Y2-S2-104K22,1,105,AS,exp,42,↑,left,←,0.3978133999999045,False,11,-1,1,7
Y2-S2-104K22,1,106,AS,exp,35,→,right,→,0.6212325000001329,True,12,-1,0,7
Y2-S2-104K22,1,107,AS,exp,38,↓,down,↓,1.0026319999999487,True,12,-1,0,7
Y2-S2-104K22,1,108,AS,exp,39,↑,up,↑,0.5941588000000593,True,12,1,1,8
Y2-S2-104K22,1,109,AS,exp,36,↓,up,↑,0.8768162999999731,False,11,-1,1,9
Y2-S2-104K22,1,110,AS,exp,50,↑,down,↓,1.2666004000000157,False,12,-1,0,9
Y2-S2-104K22,1,111,AS,exp,26,↓,up,↑,0.9759271000000354,False,13,-1,0,9
Y2-S2-104K22,1,112,AS,exp,35,←,left,←,0.8910940000000664,True,14,-1,0,9
Y2-S2-104K22,1,113,AS,exp,46,→,right,→,0.5266100999999708,True,14,-1,0,9
Y2-S2-104K22,1,114,AS,exp,37,↓,down,↓,0.5736925999999585,True,14,1,1,10
Y2-S2-104K22,1,115,AS,exp,47,←,right,→,0.7124622999999701,False,13,-1,1,11
Y2-S2-104K22,1,116,AS,exp,47,↑,up,↑,0.7565409999999702,True,14,-1,0,11
Y2-S2-104K22,1,117,AS,exp,35,↓,right,→,0.9476086999998188,False,14,-1,0,11
Y2-S2-104K22,1,118,AS,exp,30,←,left,←,0.7119784999999865,True,15,-1,0,11
Y2-S2-104K22,1,119,AS,exp,35,↓,down,↓,0.6186565999998948,True,15,-1,0,11
Y2-S2-104K22,1,120,AS,exp,33,←,right,→,0.6132873000001382,False,15,-1,0,11
Y2-S2-104K22,1,121,AS,exp,47,↓,down,↓,0.6454228000000057,True,16,-1,0,11
Y2-S2-104K22,1,122,AS,exp,45,↑,left,←,0.9054760999999871,False,16,-1,0,11
Y2-S2-104K22,1,123,AS,exp,47,→,right,→,0.6702990000001137,True,17,-1,0,11
Y2-S2-104K22,1,124,AS,exp,42,↑,right,→,1.036372399999891,False,17,-1,0,11
Y2-S2-104K22,1,125,AS,exp,43,↓,down,↓,0.6334509999999227,True,18,-1,0,11
Y2-S2-104K22,1,126,AS,exp,40,↑,up,↑,0.6644992999999886,True,18,-1,0,11
Y2-S2-104K22,1,127,AS,exp,26,↓,up,↑,1.020253700000012,False,18,-1,0,11
Y2-S2-104K22,1,128,AS,exp,29,←,left,←,0.7472003999998833,True,19,-1,0,11
Y2-S2-104K22,1,129,AS,exp,48,→,right,→,0.5930590999996639,True,19,-1,0,11
Y2-S2-104K22,1,130,AS,exp,33,↑,up,↑,0.5120249999999942,True,19,1,1,12
Y2-S2-104K22,1,131,AS,exp,31,↓,down,↓,0.6413135000002512,True,18,1,0,12
Y2-S2-104K22,1,132,AS,exp,29,←,left,←,0.5668006999999307,True,18,1,0,12
Y2-S2-104K22,1,133,AS,exp,44,↓,down,↓,0.49977069999977175,True,18,1,0,12
Y2-S2-104K22,1,134,AS,exp,33,→,left,←,0.7693017000001419,False,17,-1,1,13
Y2-S2-104K22,1,135,AS,exp,49,↑,up,↑,0.5864416999997957,True,18,-1,0,13
Y2-S2-104K22,1,136,AS,exp,50,↓,down,↓,0.7809778999999253,True,18,-1,0,13
Y2-S2-104K22,1,137,AS,exp,34,↑,up,↑,0.43424300000015137,True,18,1,1,14
Y2-S2-104K22,1,138,AS,exp,41,→,right,→,0.5100082000003567,True,17,1,0,14
Y2-S2-104K22,1,139,AS,exp,33,↑,up,↑,0.7263465999999426,True,17,1,0,14
Y2-S2-104K22,1,140,AS,exp,45,→,right,→,0.4903239999998732,True,17,1,0,14
Y2-S2-104K22,1,141,AS,exp,37,↓,down,↓,0.6123938999999154,True,16,1,0,14
Y2-S2-104K22,1,142,AS,exp,32,↑,up,↑,0.4989430999999058,True,16,1,0,14
Y2-S2-104K22,1,143,AS,exp,38,←,left,←,0.4529448000002958,True,16,1,0,14
Y2-S2-104K22,1,144,AS,exp,27,→,right,→,0.45238800000015544,True,15,1,0,14
Y2-S2-104K22,1,145,AS,exp,32,↑,up,↑,0.430758799999694,True,15,1,0,14
Y2-S2-104K22,1,146,AS,exp,36,→,right,→,0.5838934000003064,True,15,1,0,14
Y2-S2-104K22,1,147,AS,exp,45,↓,down,↓,0.4540681999997105,True,14,1,0,14
Y2-S2-104K22,1,148,AS,exp,46,↑,up,↑,0.5525326000001769,True,14,1,0,14
Y2-S2-104K22,1,149,AS,exp,42,←,left,←,0.45193490000019665,True,14,1,0,14
Y2-S2-104K22,1,150,AS,exp,31,→,right,→,0.4829637999996521,True,13,1,0,14
Y2-S2-104K22,1,151,AS,exp,38,↑,right,→,1.0168253000001641,False,13,-1,1,15
Y2-S2-104K22,1,152,AS,exp,44,←,left,←,0.6005875000000742,True,14,-1,0,15
Y2-S2-104K22,1,153,AS,exp,29,→,right,→,0.5792513999999755,True,14,-1,0,15
Y2-S2-104K22,1,154,AS,exp,40,←,left,←,0.5749778000003971,True,14,1,1,16
Y2-S2-104K22,2,155,PS,intra_train,25,→,right,→,0.5987476999998762,True,12,-,-,-
Y2-S2-104K22,2,156,PS,intra_train,40,↑,up,↑,0.5534757000000354,True,12,-,-,-
Y2-S2-104K22,2,157,PS,intra_train,31,←,left,←,0.6556276000001162,True,12,-,-,-
Y2-S2-104K22,2,158,PS,intra_train,42,↓,down,↓,0.6109864000000016,True,12,-,-,-
Y2-S2-104K22,2,159,PS,intra_train,29,→,right,→,0.6123126999996202,True,12,-,-,-
Y2-S2-104K22,2,160,PS,exp,33,↑,up,↑,0.5160436000001027,True,8,0,0,0
Y2-S2-104K22,2,161,PS,exp,48,↓,right,→,1.0663516999998137,False,8,-1,0,0
Y2-S2-104K22,2,162,PS,exp,49,←,right,→,0.7861560000001191,False,9,-1,0,0
Y2-S2-104K22,2,163,PS,exp,43,↑,up,↑,0.4517107000001488,True,10,-1,0,0
Y2-S2-104K22,2,164,PS,exp,41,↓,down,↓,0.6280603000000156,True,10,-1,0,0
Y2-S2-104K22,2,165,PS,exp,47,←,right,→,1.1902479999998832,False,10,-1,0,0
Y2-S2-104K22,2,166,PS,exp,34,→,down,↓,0.8789566000000377,False,11,-1,0,0
Y2-S2-104K22,2,167,PS,exp,42,←,down,↓,1.2084555999999793,False,12,-1,0,0
Y2-S2-104K22,2,168,PS,exp,32,→,right,→,0.9012729999999465,True,13,-1,0,0
Y2-S2-104K22,2,169,PS,exp,27,←,left,←,0.6852856999998949,True,13,-1,0,0
Y2-S2-104K22,2,170,PS,exp,34,↓,down,↓,0.5584739999999329,True,13,1,1,1
Y2-S2-104K22,2,171,PS,exp,34,←,left,←,0.53777429999991,True,12,1,0,1
Y2-S2-104K22,2,172,PS,exp,47,↓,down,↓,0.6349253999997018,True,12,1,0,1
Y2-S2-104K22,2,173,PS,exp,30,→,right,→,0.49590829999988273,True,12,1,0,1
Y2-S2-104K22,2,174,PS,exp,48,↑,up,↑,0.49604409999983545,True,11,1,0,1
Y2-S2-104K22,2,175,PS,exp,27,←,left,←,0.6193155000000843,True,11,1,0,1
Y2-S2-104K22,2,176,PS,exp,28,→,right,→,0.4435440000002018,True,11,1,0,1
Y2-S2-104K22,2,177,PS,exp,31,←,left,←,0.9526644999996279,True,10,1,0,1
Y2-S2-104K22,2,178,PS,exp,26,↓,down,↓,0.7292027000003145,True,10,1,0,1
Y2-S2-104K22,2,179,PS,exp,44,←,left,←,0.49986340000032214,True,10,1,0,1
Y2-S2-104K22,2,180,PS,exp,40,↑,up,↑,0.4366160999998101,True,9,1,0,1
Y2-S2-104K22,2,181,PS,exp,27,→,right,→,0.7580480000001444,True,9,1,0,1
Y2-S2-104K22,2,182,PS,exp,33,←,left,←,0.4091220999998768,True,9,1,0,1
Y2-S2-104K22,2,183,PS,exp,32,→,left,←,0.8964245000001938,False,8,-1,1,2
Y2-S2-104K22,2,184,PS,exp,40,↓,up,↑,0.8515950999999404,False,9,-1,0,2
Y2-S2-104K22,2,185,PS,exp,31,→,right,→,0.4779985000000124,True,10,-1,0,2
Y2-S2-104K22,2,186,PS,exp,31,←,left,←,0.5790511999998671,True,10,-1,0,2
Y2-S2-104K22,2,187,PS,exp,32,→,right,→,0.5340116000002126,True,10,1,1,3
Y2-S2-104K22,2,188,PS,exp,46,↓,up,↑,0.8816061000002264,False,9,-1,1,4
Y2-S2-104K22,2,189,PS,exp,30,↑,up,↑,0.5912811999996848,True,10,-1,0,4
Y2-S2-104K22,2,190,PS,exp,44,←,left,←,0.4230297999997674,True,10,-1,0,4
Y2-S2-104K22,2,191,PS,exp,48,→,right,→,0.48895949999996446,True,10,1,1,5
Y2-S2-104K22,2,192,PS,exp,28,↑,up,↑,0.4692069000002448,True,9,1,0,5
Y2-S2-104K22,2,193,PS,exp,29,→,left,←,0.8046644000000924,False,9,-1,1,6
Y2-S2-104K22,2,194,PS,exp,42,↑,up,↑,0.5684661999998752,True,10,-1,0,6
Y2-S2-104K22,2,195,PS,exp,43,↓,down,↓,0.5684885000000577,True,10,-1,0,6
Y2-S2-104K22,2,196,PS,exp,45,←,left,←,0.6488033999999061,True,10,1,1,7
Y2-S2-104K22,2,197,PS,exp,36,↓,right,→,1.1538417000001573,False,9,-1,1,8
Y2-S2-104K22,2,198,PS,exp,39,→,right,→,0.44815520000020115,True,10,-1,0,8
Y2-S2-104K22,2,199,PS,exp,25,↑,up,↑,0.5317724999999882,True,10,-1,0,8
Y2-S2-104K22,2,200,PS,exp,40,→,right,→,0.5302194999999301,True,10,1,1,9
Y2-S2-104K22,2,201,PS,exp,27,↑,up,↑,0.6593370999999024,True,9,1,0,9
Y2-S2-104K22,2,202,PS,exp,27,→,right,→,0.5209359000000404,True,9,1,0,9
Y2-S2-104K22,2,203,PS,exp,48,←,left,←,0.6549866000000293,True,9,1,0,9
Y2-S2-104K22,2,204,PS,exp,27,↓,right,→,0.6423141000000214,False,8,-1,1,10
Y2-S2-104K22,2,205,PS,exp,39,←,left,←,0.4609112999996796,True,9,-1,0,10
Y2-S2-104K22,2,206,PS,exp,48,↓,down,↓,0.6232188999997561,True,9,-1,0,10
Y2-S2-104K22,2,207,PS,exp,34,→,right,→,0.4462687000000187,True,9,1,1,11
Y2-S2-104K22,2,208,PS,exp,27,↓,down,↓,0.6301598000000013,True,8,1,0,11
Y2-S2-104K22,2,209,PS,exp,27,←,left,←,0.6925672000002123,True,8,1,0,11
Y2-S2-104K22,2,210,PS,exp,47,→,left,←,0.47608309999986886,False,8,-1,1,12
Y2-S2-104K22,2,211,PS,exp,48,↓,down,↓,0.5556139999998777,True,9,-1,0,12
Y2-S2-104K22,2,212,PS,exp,48,→,right,→,0.7604169999999613,True,9,-1,0,12
Y2-S2-104K22,2,213,PS,exp,26,↑,down,↓,0.8487068999997973,False,9,-1,0,12
Y2-S2-104K22,2,214,PS,exp,48,←,left,←,0.4386398999999983,True,10,-1,0,12
Y2-S2-104K22,2,215,PS,exp,47,↑,up,↑,0.4957549000000654,True,10,-1,0,12
Y2-S2-104K22,2,216,PS,exp,33,↓,down,↓,0.6419608999999582,True,10,1,1,13
Y2-S2-104K22,2,217,PS,exp,47,←,left,←,0.5162672000001294,True,9,1,0,13
Y2-S2-104K22,2,218,PS,exp,30,↓,down,↓,0.5256809000002249,True,9,1,0,13
Y2-S2-104K22,2,219,PS,exp,30,↑,up,↑,0.5033915999997589,True,9,1,0,13
Y2-S2-104K22,2,220,PS,exp,37,↓,down,↓,1.134385000000293,True,8,1,0,13
Y2-S2-104K22,2,221,PS,exp,40,↑,up,↑,0.6669440999999097,True,8,1,0,13
Y2-S2-104K22,2,222,PS,exp,38,↓,up,↑,0.4967375000001084,False,8,-1,1,14
Y2-S2-104K22,2,223,PS,exp,27,←,up,↑,1.002922099999978,False,9,-1,0,14
Y2-S2-104K22,2,224,PS,exp,31,→,right,→,0.500264000000243,True,10,-1,0,14
Y2-S2-104K22,2,225,PS,exp,49,←,left,←,0.4966435999999703,True,10,-1,0,14
Y2-S2-104K22,2,226,PS,exp,30,→,left,←,0.7762969000000339,False,10,-1,0,14
Y2-S2-104K22,2,227,PS,exp,46,←,left,←,0.5011372999997548,True,11,-1,0,14
Y2-S2-104K22,2,228,PS,exp,49,↓,up,↑,0.9366625000002387,False,11,-1,0,14
Y2-S2-104K22,2,229,PS,exp,45,←,left,←,0.40734150000025693,True,12,-1,0,14
Y2-S2-104K22,2,230,PS,exp,28,↑,left,←,0.7807308999999805,False,12,-1,0,14
Y2-S2-104K22,2,231,PS,exp,44,↓,down,↓,0.6292930999998134,True,13,-1,0,14
Y2-S2-104K22,2,232,PS,exp,32,←,right,→,0.7228030000001127,False,13,-1,0,14
Y2-S2-104K22,2,233,PS,exp,29,↓,down,↓,0.7493374000000586,True,14,-1,0,14
Y2-S2-104K22,2,234,PS,exp,25,↑,up,↑,0.6826726999997845,True,14,-1,0,14
Y2-S2-104K22,2,235,PS,exp,27,↓,down,↓,0.629284799999823,True,14,1,1,15
Y2-S2-104K22,2,236,PS,exp,28,→,right,→,0.4346571999999469,True,13,1,0,15
Y2-S2-104K22,2,237,PS,exp,38,↓,down,↓,0.8066232999999556,True,13,1,0,15
Y2-S2-104K22,2,238,PS,exp,41,←,left,←,0.6282137999996849,True,13,1,0,15
Y2-S2-104K22,2,239,PS,exp,45,↑,up,↑,0.5499304999998458,True,12,1,0,15
Y2-S2-104K22,2,240,PS,exp,41,↓,down,↓,0.6312302999999702,True,12,1,0,15
Y2-S2-104K22,2,241,PS,exp,43,←,up,↑,0.6614213000002565,False,12,-1,1,16
Y2-S2-104K22,3,242,PS,intra_train,36,↑,right,→,0.6975582999998551,False,12,-,-,-
Y2-S2-104K22,3,243,PS,intra_train,26,↓,down,↓,0.5856628999999884,True,12,-,-,-
Y2-S2-104K22,3,244,PS,intra_train,40,↑,up,↑,0.4122474000000693,True,12,-,-,-
Y2-S2-104K22,3,245,PS,intra_train,49,←,left,←,0.5786274000001868,True,12,-,-,-
Y2-S2-104K22,3,246,PS,intra_train,46,↓,down,↓,0.7341624000000593,True,12,-,-,-
Y2-S2-104K22,3,247,PS,exp,36,→,right,→,0.5856541000002835,True,8,0,0,0
Y2-S2-104K22,3,248,PS,exp,34,↓,left,←,0.9508560000003854,False,8,-1,0,0
Y2-S2-104K22,3,249,PS,exp,34,↑,up,↑,0.44336799999973664,True,9,-1,0,0
Y2-S2-104K22,3,250,PS,exp,29,→,right,→,0.7154674999997042,True,9,-1,0,0
Y2-S2-104K22,3,251,PS,exp,49,←,left,←,0.48953720000008616,True,9,1,1,1
Y2-S2-104K22,3,252,PS,exp,28,↑,up,↑,0.4331385999998929,True,8,1,0,1
Y2-S2-104K22,3,253,PS,exp,36,→,right,→,0.4078819999999723,True,8,1,0,1
Y2-S2-104K22,3,254,PS,exp,43,←,right,→,0.5759886999999253,False,8,-1,1,2
Y2-S2-104K22,3,255,PS,exp,30,↓,right,→,0.7105747999999039,False,9,-1,0,2
Y2-S2-104K22,3,256,PS,exp,49,→,right,→,0.4595454999998765,True,10,-1,0,2
Y2-S2-104K22,3,257,PS,exp,46,←,left,←,0.452197999999953,True,10,-1,0,2
Y2-S2-104K22,3,258,PS,exp,45,↓,down,↓,0.5676387999997132,True,10,1,1,3
Y2-S2-104K22,3,259,PS,exp,44,→,right,→,1.1109877000003507,True,9,1,0,3
Y2-S2-104K22,3,260,PS,exp,29,↑,up,↑,0.49907519999987926,True,9,1,0,3
Y2-S2-104K22,3,261,PS,exp,33,←,left,←,0.6243794000001799,True,9,1,0,3
Y2-S2-104K22,3,262,PS,exp,45,→,right,→,1.6382978999999978,True,8,1,0,3
Y2-S2-104K22,3,263,PS,exp,29,←,left,←,0.45445459999973536,True,8,1,0,3
Y2-S2-104K22,3,264,PS,exp,32,→,right,→,0.4747716000001674,True,8,1,0,3
Y2-S2-104K22,3,265,PS,exp,36,↑,up,↑,0.8676842999998371,True,7,1,0,3
Y2-S2-104K22,3,266,PS,exp,48,↓,down,↓,0.44985319999977946,True,7,1,0,3
Y2-S2-104K22,3,267,PS,exp,40,←,left,←,0.34876859999985754,True,7,1,0,3
Y2-S2-104K22,3,268,PS,exp,34,↑,right,→,0.9062216000002081,False,6,-1,1,4
Y2-S2-104K22,3,269,PS,exp,31,↓,down,↓,0.584650999999667,True,7,-1,0,4
Y2-S2-104K22,3,270,PS,exp,36,→,right,→,0.4603726000000279,True,7,-1,0,4
Y2-S2-104K22,3,271,PS,exp,30,←,left,←,0.4137063000002854,True,7,1,1,5
Y2-S2-104K22,3,272,PS,exp,44,→,right,→,0.760772800000268,True,6,1,0,5
Y2-S2-104K22,3,273,PS,exp,43,←,left,←,0.48399949999975433,True,6,1,0,5
Y2-S2-104K22,3,274,PS,exp,43,→,left,←,0.8249532999998337,False,6,-1,1,6
Y2-S2-104K22,3,275,PS,exp,50,↑,left,←,1.0282706999996662,False,7,-1,0,6
Y2-S2-104K22,3,276,PS,exp,41,→,right,→,0.45973899999989953,True,8,-1,0,6
Y2-S2-104K22,3,277,PS,exp,39,←,left,←,0.38998979999996664,True,8,-1,0,6
Y2-S2-104K22,3,278,PS,exp,40,→,right,→,0.4084053000001404,True,8,1,1,7
Y2-S2-104K22,3,279,PS,exp,25,←,left,←,0.8101105000000643,True,7,1,0,7
Y2-S2-104K22,3,280,PS,exp,44,↑,left,←,0.7405983999997261,False,7,-1,1,8
Y2-S2-104K22,3,281,PS,exp,39,←,left,←,0.4413619000001745,True,8,-1,0,8
Y2-S2-104K22,3,282,PS,exp,31,↑,up,↑,0.4490528000001177,True,8,-1,0,8
Y2-S2-104K22,3,283,PS,exp,39,↓,down,↓,0.564013299999715,True,8,1,1,9
Y2-S2-104K22,3,284,PS,exp,33,←,left,←,0.48560029999998733,True,7,1,0,9
Y2-S2-104K22,3,285,PS,exp,43,→,up,↑,1.0124875999999858,False,7,-1,1,10
Y2-S2-104K22,3,286,PS,exp,27,↓,left,←,0.6314224000002469,False,8,-1,0,10
Y2-S2-104K22,3,287,PS,exp,40,↑,up,↑,0.5395220999998855,True,9,-1,0,10
Y2-S2-104K22,3,288,PS,exp,35,↓,down,↓,0.5760080999998536,True,9,-1,0,10
Y2-S2-104K22,3,289,PS,exp,46,↑,left,←,0.6202518000000055,False,9,-1,0,10
Y2-S2-104K22,3,290,PS,exp,31,↓,down,↓,0.5044410000000425,True,10,-1,0,10
Y2-S2-104K22,3,291,PS,exp,48,→,right,→,0.5469215000002805,True,10,-1,0,10
Y2-S2-104K22,3,292,PS,exp,38,↑,up,↑,0.5780451999999059,True,10,1,1,11
Y2-S2-104K22,3,293,PS,exp,43,→,right,→,0.46876909999991767,True,9,1,0,11
Y2-S2-104K22,3,294,PS,exp,35,←,left,←,0.6821303000001535,True,9,1,0,11
Y2-S2-104K22,3,295,PS,exp,44,↑,up,↑,0.47110109999994165,True,9,1,0,11
Y2-S2-104K22,3,296,PS,exp,40,↓,right,→,0.6532120999995641,False,8,-1,1,12
Y2-S2-104K22,3,297,PS,exp,44,↑,up,↑,0.8248931999996785,True,9,-1,0,12
Y2-S2-104K22,3,298,PS,exp,34,→,right,→,0.4845220000001973,True,9,-1,0,12
Y2-S2-104K22,3,299,PS,exp,43,←,left,←,0.42311540000036985,True,9,1,1,13
Y2-S2-104K22,3,300,PS,exp,40,→,right,→,0.43343380000032994,True,8,1,0,13
Y2-S2-104K22,3,301,PS,exp,47,↑,up,↑,0.4717827999998008,True,8,1,0,13
Y2-S2-104K22,3,302,PS,exp,46,→,down,↓,0.8453261999998176,False,8,-1,1,14
Y2-S2-104K22,3,303,PS,exp,28,←,left,←,0.5473865999997543,True,9,-1,0,14
Y2-S2-104K22,3,304,PS,exp,25,↓,down,↓,0.5162776999995913,True,9,-1,0,14
Y2-S2-104K22,3,305,PS,exp,36,↑,up,↑,0.40095819999987725,True,9,1,1,15
Y2-S2-104K22,3,306,PS,exp,30,↓,up,↑,1.333605599999828,False,8,-1,1,16
Y2-S2-104K22,4,307,AS,intra_train,49,→,right,→,0.46709499999997206,True,25,-,-,-
Y2-S2-104K22,4,308,AS,intra_train,25,←,left,←,1.364544399999886,True,25,-,-,-
Y2-S2-104K22,4,309,AS,intra_train,41,↑,up,↑,0.5506429000001845,True,25,-,-,-
Y2-S2-104K22,4,310,AS,intra_train,29,↓,down,↓,0.7171124000001328,True,25,-,-,-
Y2-S2-104K22,4,311,AS,intra_train,25,↑,up,↑,1.2999758000000838,True,25,-,-,-
Y2-S2-104K22,4,312,AS,exp,26,↓,down,↓,0.8476448000001255,True,17,0,0,0
Y2-S2-104K22,4,313,AS,exp,48,←,right,→,0.9075910000001386,False,17,-1,0,0
Y2-S2-104K22,4,314,AS,exp,41,→,right,→,0.5952336000000287,True,18,-1,0,0
Y2-S2-104K22,4,315,AS,exp,47,↑,up,↑,0.550828299999921,True,18,-1,0,0
Y2-S2-104K22,4,316,AS,exp,50,↓,down,↓,0.6291443000000072,True,18,1,1,1
Y2-S2-104K22,4,317,AS,exp,42,↑,up,↑,0.8324696999998196,True,17,1,0,1
Y2-S2-104K22,4,318,AS,exp,50,↓,down,↓,0.67339740000034,True,17,1,0,1
Y2-S2-104K22,4,319,AS,exp,37,→,right,→,0.6853986999999506,True,17,1,0,1
Y2-S2-104K22,4,320,AS,exp,44,←,left,←,0.46155029999999897,True,16,1,0,1
Y2-S2-104K22,4,321,AS,exp,41,↓,left,←,0.6496851000001698,False,16,-1,1,2
Y2-S2-104K22,4,322,AS,exp,42,→,right,→,0.7591524999998001,True,17,-1,0,2
Y2-S2-104K22,4,323,AS,exp,39,↓,down,↓,0.67493659999991,True,17,-1,0,2
Y2-S2-104K22,4,324,AS,exp,38,←,left,←,0.4955464999998185,True,17,1,1,3
Y2-S2-104K22,4,325,AS,exp,41,↓,down,↓,0.6974718000001303,True,16,1,0,3
Y2-S2-104K22,4,326,AS,exp,33,←,left,←,0.6458949999996548,True,16,1,0,3
Y2-S2-104K22,4,327,AS,exp,28,→,right,→,0.45656319999989137,True,16,1,0,3
Y2-S2-104K22,4,328,AS,exp,50,↑,up,↑,0.9731047999998736,True,15,1,0,3
Y2-S2-104K22,4,329,AS,exp,44,→,right,→,0.9292789999999513,True,15,1,0,3
Y2-S2-104K22,4,330,AS,exp,41,←,right,→,0.603440800000044,False,15,-1,1,4
Y2-S2-104K22,4,331,AS,exp,36,↑,up,↑,0.6571847999998681,True,16,-1,0,4
Y2-S2-104K22,4,332,AS,exp,36,←,left,←,0.5279995000000781,True,16,-1,0,4
Y2-S2-104K22,4,333,AS,exp,44,→,right,→,0.48585739999998623,True,16,1,1,5
Y2-S2-104K22,4,334,AS,exp,32,←,left,←,0.8564501000000746,True,15,1,0,5
Y2-S2-104K22,4,335,AS,exp,28,↓,down,↓,0.5203530000003411,True,15,1,0,5
Y2-S2-104K22,4,336,AS,exp,48,←,left,←,0.5633551000000807,True,15,1,0,5
Y2-S2-104K22,4,337,AS,exp,26,↑,up,↑,0.5852157999997871,True,14,1,0,5
Y2-S2-104K22,4,338,AS,exp,36,↓,down,↓,0.5875601999996434,True,14,1,0,5
Y2-S2-104K22,4,339,AS,exp,46,←,left,←,0.5416691000000355,True,14,1,0,5
Y2-S2-104K22,4,340,AS,exp,47,↑,up,↑,0.6717401000000791,True,13,1,0,5
Y2-S2-104K22,4,341,AS,exp,32,←,left,←,0.7487770000002456,True,13,1,0,5
Y2-S2-104K22,4,342,AS,exp,45,↓,down,↓,0.5917312000001402,True,13,1,0,5
Y2-S2-104K22,4,343,AS,exp,37,←,left,←,0.49822649999987334,True,12,1,0,5
Y2-S2-104K22,4,344,AS,exp,33,↑,up,↑,0.5405622999996922,True,12,1,0,5
Y2-S2-104K22,4,345,AS,exp,25,→,right,→,0.5235536000000138,True,12,1,0,5
Y2-S2-104K22,4,346,AS,exp,40,↓,up,↑,0.8573169999999664,False,11,-1,1,6
Y2-S2-104K22,4,347,AS,exp,32,→,left,←,0.7032653000001119,False,12,-1,0,6
Y2-S2-104K22,4,348,AS,exp,29,←,right,→,0.8389072999998461,False,13,-1,0,6
Y2-S2-104K22,4,349,AS,exp,46,↓,down,↓,0.6231993999999759,True,14,-1,0,6
Y2-S2-104K22,4,350,AS,exp,48,→,right,→,0.46161069999971005,True,14,-1,0,6
Y2-S2-104K22,4,351,AS,exp,35,←,left,←,0.5535030999999435,True,14,1,1,7
Y2-S2-104K22,4,352,AS,exp,46,↓,down,↓,0.5895798999999897,True,13,1,0,7
Y2-S2-104K22,4,353,AS,exp,43,←,left,←,0.5029505999996218,True,13,1,0,7
Y2-S2-104K22,4,354,AS,exp,41,↑,left,←,0.8044383999999809,False,13,-1,1,8
Y2-S2-104K22,4,355,AS,exp,34,←,left,←,0.9481329000000187,True,14,-1,0,8
Y2-S2-104K22,4,356,AS,exp,30,→,left,←,0.4690528000000995,False,14,-1,0,8
Y2-S2-104K22,4,357,AS,exp,43,↓,up,↑,0.8305972000002839,False,15,-1,0,8
Y2-S2-104K22,4,358,AS,exp,31,↑,up,↑,1.2881447999998272,True,16,-1,0,8
Y2-S2-104K22,4,359,AS,exp,42,→,right,→,0.8503983999999036,True,16,-1,0,8
Y2-S2-104K22,4,360,AS,exp,38,←,left,←,0.5815456000000268,True,16,1,1,9
Y2-S2-104K22,4,361,AS,exp,36,↓,up,↑,0.6630634000002829,False,15,-1,1,10
Y2-S2-104K22,4,362,AS,exp,47,←,left,←,0.5711182000000008,True,16,-1,0,10
Y2-S2-104K22,4,363,AS,exp,26,↑,up,↑,0.5031229000001076,True,16,-1,0,10
Y2-S2-104K22,4,364,AS,exp,45,→,right,→,0.5188402999997379,True,16,1,1,11
Y2-S2-104K22,4,365,AS,exp,49,↑,up,↑,0.5780609999997068,True,15,1,0,11
Y2-S2-104K22,4,366,AS,exp,46,→,right,→,0.5842608000002656,True,15,1,0,11
Y2-S2-104K22,4,367,AS,exp,46,↑,up,↑,0.7124175000003561,True,15,1,0,11
Y2-S2-104K22,4,368,AS,exp,42,→,right,→,0.760670200000277,True,14,1,0,11
Y2-S2-104K22,4,369,AS,exp,50,↓,down,↓,1.6780582000001232,True,14,1,0,11
Y2-S2-104K22,4,370,AS,exp,40,→,right,→,0.6137779999999111,True,14,1,0,11
Y2-S2-104K22,4,371,AS,exp,42,↑,up,↑,0.6033798000003117,True,13,1,0,11
Y2-S2-104K22,4,372,AS,exp,28,←,left,←,0.6977464999999938,True,13,1,0,11
Y2-S2-104K22,4,373,AS,exp,38,→,right,→,0.5581534000002648,True,13,1,0,11
Y2-S2-104K22,4,374,AS,exp,26,↓,up,↑,0.7115257999998903,False,12,-1,1,12
Y2-S2-104K22,4,375,AS,exp,47,→,up,↑,0.6598276999998234,False,13,-1,0,12
Y2-S2-104K22,4,376,AS,exp,36,↓,down,↓,0.7977276999999958,True,14,-1,0,12
Y2-S2-104K22,4,377,AS,exp,48,→,left,←,0.9785828999997648,False,14,-1,0,12
Y2-S2-104K22,4,378,AS,exp,30,←,left,←,0.4807998999999654,True,15,-1,0,12
Y2-S2-104K22,4,379,AS,exp,32,↓,down,↓,0.5309576999998171,True,15,-1,0,12
Y2-S2-104K22,4,380,AS,exp,45,↑,down,↓,0.8270345000000816,False,15,-1,0,12
Y2-S2-104K22,4,381,AS,exp,49,↓,down,↓,0.5430003000001307,True,16,-1,0,12
Y2-S2-104K22,4,382,AS,exp,34,↑,up,↑,1.0277525000001333,True,16,-1,0,12
Y2-S2-104K22,4,383,AS,exp,31,→,right,→,1.2348934999999983,True,16,1,1,13
Y2-S2-104K22,4,384,AS,exp,44,←,left,←,0.4524406000000454,True,15,1,0,13
Y2-S2-104K22,4,385,AS,exp,49,↑,up,↑,0.44718950000014956,True,15,1,0,13
Y2-S2-104K22,4,386,AS,exp,32,→,left,←,0.8480610999999953,False,15,-1,1,14
Y2-S2-104K22,4,387,AS,exp,35,↑,up,↑,0.4792318999998315,True,16,-1,0,14
Y2-S2-104K22,4,388,AS,exp,47,↓,down,↓,0.5186974999996892,True,16,-1,0,14
Y2-S2-104K22,4,389,AS,exp,27,↑,up,↑,1.8454164999998284,True,16,1,1,15
Y2-S2-104K22,4,390,AS,exp,28,←,left,←,0.6133205999999518,True,15,1,0,15
Y2-S2-104K22,4,391,AS,exp,33,→,left,←,0.547887400000036,False,15,-1,1,16
Y2-S2-104K22,5,392,AS,intra_train,41,↓,down,↓,0.7942926000000625,True,25,-,-,-
Y2-S2-104K22,5,393,AS,intra_train,48,←,left,←,0.43399159999989934,True,25,-,-,-
Y2-S2-104K22,5,394,AS,intra_train,45,→,right,→,0.6190341000001354,True,25,-,-,-
Y2-S2-104K22,5,395,AS,intra_train,26,↓,down,↓,0.6384211000004143,True,25,-,-,-
Y2-S2-104K22,5,396,AS,intra_train,30,→,right,→,1.2192496000002393,True,25,-,-,-
Y2-S2-104K22,5,397,AS,exp,38,↑,right,→,1.3555980000001,False,17,-1,0,0
Y2-S2-104K22,5,398,AS,exp,37,↓,down,↓,0.5771636999998009,True,18,-1,0,0
Y2-S2-104K22,5,399,AS,exp,32,→,right,→,0.6235497000002397,True,18,-1,0,0
Y2-S2-104K22,5,400,AS,exp,41,↓,down,↓,0.9804010999996535,True,18,1,1,1
Y2-S2-104K22,5,401,AS,exp,26,→,right,→,0.47488849999990634,True,17,1,0,1
Y2-S2-104K22,5,402,AS,exp,37,↓,down,↓,0.5765648999999939,True,17,1,0,1
Y2-S2-104K22,5,403,AS,exp,27,←,left,←,0.45836109999982,True,17,1,0,1
Y2-S2-104K22,5,404,AS,exp,47,↓,down,↓,0.6289865000003374,True,16,1,0,1
Y2-S2-104K22,5,405,AS,exp,42,↑,down,↓,0.7255636999998387,False,16,-1,1,2
Y2-S2-104K22,5,406,AS,exp,49,←,left,←,0.8449195999996846,True,17,-1,0,2
Y2-S2-104K22,5,407,AS,exp,47,→,right,→,0.6082914999997229,True,17,-1,0,2
Y2-S2-104K22,5,408,AS,exp,25,↓,down,↓,0.5551217000001998,True,17,1,1,3
Y2-S2-104K22,5,409,AS,exp,38,→,right,→,0.5382184000000052,True,16,1,0,3
Y2-S2-104K22,5,410,AS,exp,34,↑,up,↑,0.8384654999999839,True,16,1,0,3
Y2-S2-104K22,5,411,AS,exp,35,↓,down,↓,0.6484858000003442,True,16,1,0,3
Y2-S2-104K22,5,412,AS,exp,31,←,left,←,0.48428130000002056,True,15,1,0,3
Y2-S2-104K22,5,413,AS,exp,39,↑,up,↑,0.4558345999998892,True,15,1,0,3
Y2-S2-104K22,5,414,AS,exp,34,→,right,→,0.43374690000018745,True,15,1,0,3
Y2-S2-104K22,5,415,AS,exp,40,↓,down,↓,0.527420500000062,True,14,1,0,3
Y2-S2-104K22,5,416,AS,exp,30,↑,up,↑,0.6817669000001843,True,14,1,0,3
Y2-S2-104K22,5,417,AS,exp,32,→,up,↑,0.9376678000003267,False,14,-1,1,4
Y2-S2-104K22,5,418,AS,exp,27,←,left,←,0.514144700000088,True,15,-1,0,4
Y2-S2-104K22,5,419,AS,exp,37,↓,down,↓,0.687434100000246,True,15,-1,0,4
Y2-S2-104K22,5,420,AS,exp,34,→,right,→,0.4213626999999178,True,15,1,1,5
Y2-S2-104K22,5,421,AS,exp,34,←,left,←,0.7866968000002998,True,14,1,0,5
Y2-S2-104K22,5,422,AS,exp,36,→,right,→,1.0444599999996171,True,14,1,0,5
Y2-S2-104K22,5,423,AS,exp,31,↓,down,↓,0.7306357000002208,True,14,1,0,5
Y2-S2-104K22,5,424,AS,exp,35,←,left,←,0.4719746999999188,True,13,1,0,5
Y2-S2-104K22,5,425,AS,exp,34,↓,up,↑,0.7561307999999372,False,13,-1,1,6
Y2-S2-104K22,5,426,AS,exp,40,↑,right,→,1.1067997000000105,False,14,-1,0,6
Y2-S2-104K22,5,427,AS,exp,32,↓,up,↑,0.9250071000001299,False,15,-1,0,6
Y2-S2-104K22,5,428,AS,exp,48,→,right,→,0.5902790000000095,True,16,-1,0,6
Y2-S2-104K22,5,429,AS,exp,47,←,left,←,0.6077666999999565,True,16,-1,0,6
Y2-S2-104K22,5,430,AS,exp,25,↓,down,↓,0.6858219000000645,True,16,1,1,7
Y2-S2-104K22,5,431,AS,exp,37,↑,up,↑,0.4942132000001038,True,15,1,0,7
Y2-S2-104K22,5,432,AS,exp,37,←,left,←,0.5350409000002401,True,15,1,0,7
Y2-S2-104K22,5,433,AS,exp,28,→,right,→,0.38394249999964813,True,15,1,0,7
Y2-S2-104K22,5,434,AS,exp,35,↓,down,↓,1.5401984000000084,True,14,1,0,7
Y2-S2-104K22,5,435,AS,exp,33,←,left,←,0.5815901999999369,True,14,1,0,7
Y2-S2-104K22,5,436,AS,exp,41,→,right,→,0.8205051999998432,True,14,1,0,7
Y2-S2-104K22,5,437,AS,exp,34,←,left,←,0.7429935999998634,True,13,1,0,7
Y2-S2-104K22,5,438,AS,exp,28,↑,up,↑,0.6926248999998279,True,13,1,0,7
Y2-S2-104K22,5,439,AS,exp,37,←,right,→,0.7373349999998027,False,13,-1,1,8
Y2-S2-104K22,5,440,AS,exp,30,↑,up,↑,0.6487239999996746,True,14,-1,0,8
Y2-S2-104K22,5,441,AS,exp,32,↓,down,↓,0.8431776999996146,True,14,-1,0,8
Y2-S2-104K22,5,442,AS,exp,42,→,right,→,0.5980275000001711,True,14,1,1,9
Y2-S2-104K22,5,443,AS,exp,37,↓,down,↓,0.6656447999998818,True,13,1,0,9
Y2-S2-104K22,5,444,AS,exp,25,←,right,→,0.7072685999996793,False,13,-1,1,10
Y2-S2-104K22,5,445,AS,exp,37,↑,up,↑,0.6209736999999222,True,14,-1,0,10
Y2-S2-104K22,5,446,AS,exp,25,↓,up,↑,0.7695245999998406,False,14,-1,0,10
Y2-S2-104K22,5,447,AS,exp,49,↑,up,↑,0.5714762000002338,True,15,-1,0,10
Y2-S2-104K22,5,448,AS,exp,49,←,left,←,0.6539413000000422,True,15,-1,0,10
Y2-S2-104K22,5,449,AS,exp,26,→,right,→,0.5500889999998435,True,15,1,1,11
Y2-S2-104K22,5,450,AS,exp,48,↑,up,↑,0.5382165000000896,True,14,1,0,11
Y2-S2-104K22,5,451,AS,exp,25,←,right,→,0.4403874999998152,False,14,-1,1,12
Y2-S2-104K22,5,452,AS,exp,41,↓,down,↓,0.6274462999999741,True,15,-1,0,12
Y2-S2-104K22,5,453,AS,exp,32,←,left,←,0.5327551000000312,True,15,-1,0,12
Y2-S2-104K22,5,454,AS,exp,29,↓,down,↓,0.631372299999839,True,15,1,1,13
Y2-S2-104K22,5,455,AS,exp,43,↑,up,↑,0.6138564000002589,True,14,1,0,13
Y2-S2-104K22,5,456,AS,exp,43,←,left,←,0.5280250000000706,True,14,1,0,13
Y2-S2-104K22,5,457,AS,exp,40,↓,right,→,0.9977499000001444,False,14,-1,1,14
Y2-S2-104K22,5,458,AS,exp,42,←,left,←,0.492319999999836,True,15,-1,0,14
Y2-S2-104K22,5,459,AS,exp,26,↑,up,↑,0.5675661999998738,True,15,-1,0,14
Y2-S2-104K22,5,460,AS,exp,45,←,right,→,0.9017979000000196,False,15,-1,0,14
Y2-S2-104K22,5,461,AS,exp,28,↑,up,↑,0.6903850999997303,True,16,-1,0,14
Y2-S2-104K22,5,462,AS,exp,40,→,left,←,0.592804200000046,False,16,-1,0,14
Y2-S2-104K22,5,463,AS,exp,40,↑,up,↑,0.6044867999999042,True,17,-1,0,14
Y2-S2-104K22,5,464,AS,exp,40,←,right,→,0.5237283999999818,False,17,-1,0,14
Y2-S2-104K22,5,465,AS,exp,35,↑,up,↑,0.7758428000001913,True,18,-1,0,14
Y2-S2-104K22,5,466,AS,exp,43,↓,up,↑,1.463079800000287,False,18,-1,0,14
Y2-S2-104K22,5,467,AS,exp,28,←,left,←,0.5121680000002016,True,19,-1,0,14
Y2-S2-104K22,5,468,AS,exp,25,↑,up,↑,1.222249500000089,True,19,-1,0,14
Y2-S2-104K22,5,469,AS,exp,25,←,left,←,0.6046440999998595,True,19,1,1,15
Y2-S2-104K22,5,470,AS,exp,26,↓,down,↓,0.7548621999999341,True,18,1,0,15
Y2-S2-104K22,5,471,AS,exp,35,←,left,←,0.5262963999998647,True,18,1,0,15
Y2-S2-104K22,5,472,AS,exp,40,↓,down,↓,0.6163026999997783,True,18,1,0,15
Y2-S2-104K22,5,473,AS,exp,38,→,right,→,0.848677200000111,True,17,1,0,15
Y2-S2-104K22,5,474,AS,exp,34,↓,down,↓,0.5730745000000752,True,17,1,0,15
Y2-S2-104K22,5,475,AS,exp,37,→,right,→,0.49491170000010243,True,17,1,0,15
Y2-S2-104K22,5,476,AS,exp,32,↓,down,↓,0.6256702000000587,True,16,1,0,15
Y2-S2-104K22,5,477,AS,exp,42,←,left,←,0.6893286999998054,True,16,1,0,15
Y2-S2-104K22,5,478,AS,exp,33,↑,up,↑,0.6515161000002081,True,16,1,0,15
Y2-S2-104K22,5,479,AS,exp,41,←,right,→,0.8298775000002934,False,15,-1,1,16
Y2-S2-104K22,6,480,PS,intra_train,32,↓,down,↓,1.6299198000001525,True,12,-,-,-
Y2-S2-104K22,6,481,PS,intra_train,47,←,left,←,0.5789852999996583,True,12,-,-,-
Y2-S2-104K22,6,482,PS,intra_train,35,→,right,→,0.42844960000002175,True,12,-,-,-
Y2-S2-104K22,6,483,PS,intra_train,41,←,left,←,0.4990824999999859,True,12,-,-,-
Y2-S2-104K22,6,484,PS,intra_train,37,→,right,→,0.4052633999999671,True,12,-,-,-
Y2-S2-104K22,6,485,PS,exp,25,↓,down,↓,0.6069422999999006,True,8,0,0,0
Y2-S2-104K22,6,486,PS,exp,50,←,left,←,0.5490398000001733,True,8,0,0,0
Y2-S2-104K22,6,487,PS,exp,25,↑,up,↑,0.6455622000003132,True,8,1,0,0
Y2-S2-104K22,6,488,PS,exp,29,→,right,→,0.5579018000003089,True,7,1,0,0
Y2-S2-104K22,6,489,PS,exp,26,↓,down,↓,0.49652219999961744,True,7,1,0,0
Y2-S2-104K22,6,490,PS,exp,43,↑,up,↑,0.4166435000001911,True,7,1,0,0
Y2-S2-104K22,6,491,PS,exp,37,←,left,←,0.5014173999998093,True,6,1,0,0
Y2-S2-104K22,6,492,PS,exp,49,↓,down,↓,0.4739755000000514,True,6,1,0,0
Y2-S2-104K22,6,493,PS,exp,46,←,down,↓,0.819924699999774,False,6,-1,1,1
Y2-S2-104K22,6,494,PS,exp,32,→,up,↑,0.6812512999999853,False,7,-1,0,1
Y2-S2-104K22,6,495,PS,exp,37,↑,up,↑,0.47399870000026567,True,8,-1,0,1
Y2-S2-104K22,6,496,PS,exp,42,←,right,→,0.7239814999998089,False,8,-1,0,1
Y2-S2-104K22,6,497,PS,exp,39,↓,down,↓,0.586688200000026,True,9,-1,0,1
Y2-S2-104K22,6,498,PS,exp,50,→,right,→,0.5638960000001134,True,9,-1,0,1
Y2-S2-104K22,6,499,PS,exp,38,←,left,←,0.3685635999995611,True,9,1,1,2
Y2-S2-104K22,6,500,PS,exp,41,→,right,→,0.38876219999974637,True,8,1,0,2
Y2-S2-104K22,6,501,PS,exp,32,↑,up,↑,0.44122379999998884,True,8,1,0,2
Y2-S2-104K22,6,502,PS,exp,43,→,right,→,0.537921500000266,True,8,1,0,2
Y2-S2-104K22,6,503,PS,exp,44,←,right,→,0.656043899999986,False,7,-1,1,3
Y2-S2-104K22,6,504,PS,exp,49,→,right,→,0.4752590999996755,True,8,-1,0,3
Y2-S2-104K22,6,505,PS,exp,27,↑,up,↑,0.6166382000001249,True,8,-1,0,3
Y2-S2-104K22,6,506,PS,exp,36,→,left,←,0.5729471999998168,False,8,-1,0,3
Y2-S2-104K22,6,507,PS,exp,39,↓,down,↓,0.5179266999998617,True,9,-1,0,3
Y2-S2-104K22,6,508,PS,exp,28,↑,up,↑,0.5088590999998814,True,9,-1,0,3
Y2-S2-104K22,6,509,PS,exp,42,↓,down,↓,0.5312322999998287,True,9,1,1,4
Y2-S2-104K22,6,510,PS,exp,41,↑,left,←,0.7272773000004236,False,8,-1,1,5
Y2-S2-104K22,6,511,PS,exp,39,↓,up,↑,0.6249699999998484,False,9,-1,0,5
Y2-S2-104K22,6,512,PS,exp,27,←,left,←,0.42421680000006745,True,10,-1,0,5
Y2-S2-104K22,6,513,PS,exp,44,→,right,→,0.43861269999979413,True,10,-1,0,5
Y2-S2-104K22,6,514,PS,exp,43,↓,down,↓,0.48954649999996036,True,10,1,1,6
Y2-S2-104K22,6,515,PS,exp,43,→,right,→,0.5006026999999449,True,9,1,0,6
Y2-S2-104K22,6,516,PS,exp,32,↓,down,↓,0.4468218000001798,True,9,1,0,6
Y2-S2-104K22,6,517,PS,exp,41,↑,up,↑,0.41471950000004654,True,9,1,0,6
Y2-S2-104K22,6,518,PS,exp,39,↓,down,↓,0.37067019999994955,True,8,1,0,6
Y2-S2-104K22,6,519,PS,exp,44,↑,up,↑,0.3966822000002139,True,8,1,0,6
Y2-S2-104K22,6,520,PS,exp,30,↓,down,↓,0.3470197999999982,True,8,1,0,6
Y2-S2-104K22,6,521,PS,exp,31,→,up,↑,0.8547474000001785,False,7,-1,1,7
Y2-S2-104K22,6,522,PS,exp,31,↓,right,→,0.534883699999682,False,8,-1,0,7
Y2-S2-104K22,6,523,PS,exp,27,→,right,→,0.39484790000005887,True,9,-1,0,7
Y2-S2-104K22,6,524,PS,exp,47,↓,down,↓,0.4625981999997748,True,9,-1,0,7
Y2-S2-104K22,6,525,PS,exp,47,→,right,→,0.43932489999997415,True,9,1,1,8
Y2-S2-104K22,6,526,PS,exp,44,↓,down,↓,0.4149819000003845,True,8,1,0,8
Y2-S2-104K22,6,527,PS,exp,39,→,right,→,0.38539950000040335,True,8,1,0,8
Y2-S2-104K22,6,528,PS,exp,44,←,left,←,0.4636611000000812,True,8,1,0,8
Y2-S2-104K22,6,529,PS,exp,44,↓,down,↓,0.5142581000000064,True,7,1,0,8
Y2-S2-104K22,6,530,PS,exp,40,↑,right,→,0.7195606999998745,False,7,-1,1,9
Y2-S2-104K22,6,531,PS,exp,50,←,left,←,0.4336529999995946,True,8,-1,0,9
Y2-S2-104K22,6,532,PS,exp,37,→,left,←,1.0155894999998054,False,8,-1,0,9
Y2-S2-104K22,6,533,PS,exp,50,←,right,→,0.782913400000325,False,9,-1,0,9
Y2-S2-104K22,6,534,PS,exp,50,→,right,→,0.47597689999975046,True,10,-1,0,9
Y2-S2-104K22,6,535,PS,exp,38,↓,right,→,0.7030399000000216,False,10,-1,0,9
Y2-S2-104K22,6,536,PS,exp,31,↑,up,↑,0.7062674999997398,True,11,-1,0,9
Y2-S2-104K22,6,537,PS,exp,41,↓,down,↓,0.9477091999997356,True,11,-1,0,9
Y2-S2-104K22,6,538,PS,exp,36,←,right,→,1.0885874999999032,False,11,-1,0,9
Y2-S2-104K22,6,539,PS,exp,43,→,up,↑,0.8210822999999436,False,12,-1,0,9
Y2-S2-104K22,6,540,PS,exp,38,←,left,←,0.6332274999999754,True,13,-1,0,9
Y2-S2-104K22,6,541,PS,exp,41,→,right,→,0.484706499999902,True,13,-1,0,9
Y2-S2-104K22,6,542,PS,exp,34,←,left,←,0.5577562999997099,True,13,1,1,10
Y2-S2-104K22,6,543,PS,exp,42,→,right,→,0.6762767999998687,True,12,1,0,10
Y2-S2-104K22,6,544,PS,exp,35,↑,left,←,0.7464373000002524,False,12,-1,1,11
Y2-S2-104K22,6,545,PS,exp,41,←,left,←,0.607887799999844,True,13,-1,0,11
Y2-S2-104K22,6,546,PS,exp,44,↑,up,↑,0.4889047000001483,True,13,-1,0,11
Y2-S2-104K22,6,547,PS,exp,50,→,right,→,0.5617868999997881,True,13,1,1,12
Y2-S2-104K22,6,548,PS,exp,41,↓,up,↑,0.5582516999998006,False,12,-1,1,13
Y2-S2-104K22,6,549,PS,exp,44,↑,up,↑,0.39019639999969513,True,13,-1,0,13
Y2-S2-104K22,6,550,PS,exp,47,←,left,←,0.47841349999998783,True,13,-1,0,13
Y2-S2-104K22,6,551,PS,exp,31,↑,up,↑,0.4410157000002073,True,13,1,1,14
Y2-S2-104K22,6,552,PS,exp,35,↓,down,↓,0.5245703000000503,True,12,1,0,14
Y2-S2-104K22,6,553,PS,exp,39,↑,left,←,0.7333337999998548,False,12,-1,1,15
Y2-S2-104K22,6,554,PS,exp,28,←,left,←,0.41520879999961835,True,13,-1,0,15
Y2-S2-104K22,6,555,PS,exp,36,↑,left,←,0.581897200000185,False,13,-1,0,15
Y2-S2-104K22,6,556,PS,exp,27,↓,down,↓,0.47197430000005625,True,14,-1,0,15
Y2-S2-104K22,6,557,PS,exp,27,→,right,→,0.7159631999998055,True,14,-1,0,15
Y2-S2-104K22,6,558,PS,exp,36,↑,up,↑,0.46804679999968357,True,14,1,1,16
Y2-S2-104K22,7,559,PS,intra_train,40,↓,down,↓,0.8442801999999574,True,12,-,-,-
Y2-S2-104K22,7,560,PS,intra_train,34,↑,up,↑,0.41203889999997045,True,12,-,-,-
Y2-S2-104K22,7,561,PS,intra_train,27,→,right,→,0.50172399999974,True,12,-,-,-
Y2-S2-104K22,7,562,PS,intra_train,29,←,left,←,0.41555090000019845,True,12,-,-,-
Y2-S2-104K22,7,563,PS,intra_train,43,↑,up,↑,0.39591909999990094,True,12,-,-,-
Y2-S2-104K22,7,564,PS,exp,32,↓,down,↓,0.5027110000000903,True,8,0,0,0
Y2-S2-104K22,7,565,PS,exp,40,←,right,→,0.6792625000002772,False,8,-1,0,0
Y2-S2-104K22,7,566,PS,exp,40,↓,down,↓,0.41963650000025154,True,9,-1,0,0
Y2-S2-104K22,7,567,PS,exp,34,→,right,→,0.9544576000002962,True,9,-1,0,0
Y2-S2-104K22,7,568,PS,exp,36,←,left,←,0.43459779999966486,True,9,1,1,1
Y2-S2-104K22,7,569,PS,exp,42,↓,down,↓,0.4140953000000991,True,8,1,0,1
Y2-S2-104K22,7,570,PS,exp,46,←,right,→,1.3016589000003478,False,8,-1,1,2
Y2-S2-104K22,7,571,PS,exp,45,→,down,↓,0.6518206000000646,False,9,-1,0,2
Y2-S2-104K22,7,572,PS,exp,36,↓,down,↓,0.4743692000001829,True,10,-1,0,2
Y2-S2-104K22,7,573,PS,exp,42,←,left,←,0.39175599999998667,True,10,-1,0,2
Y2-S2-104K22,7,574,PS,exp,33,↓,right,→,0.8498986999998124,False,10,-1,0,2
Y2-S2-104K22,7,575,PS,exp,35,↑,up,↑,0.4062754000001405,True,11,-1,0,2
Y2-S2-104K22,7,576,PS,exp,35,←,down,↓,0.9540925000001153,False,11,-1,0,2
Y2-S2-104K22,7,577,PS,exp,33,↑,up,↑,0.41448399999990215,True,12,-1,0,2
Y2-S2-104K22,7,578,PS,exp,44,←,left,←,0.4312614999998914,True,12,-1,0,2
Y2-S2-104K22,7,579,PS,exp,28,↓,down,↓,1.0719398999999612,True,12,1,1,3
Y2-S2-104K22,7,580,PS,exp,28,↑,up,↑,0.4192017999998825,True,11,1,0,3
Y2-S2-104K22,7,581,PS,exp,32,→,right,→,0.6645520000001852,True,11,1,0,3
Y2-S2-104K22,7,582,PS,exp,38,←,up,↑,1.0386505999999827,False,11,-1,1,4
Y2-S2-104K22,7,583,PS,exp,37,↓,down,↓,0.5706967000000986,True,12,-1,0,4
Y2-S2-104K22,7,584,PS,exp,42,←,left,←,0.4363054000000375,True,12,-1,0,4
Y2-S2-104K22,7,585,PS,exp,32,→,right,→,0.4302723999999216,True,12,1,1,5
Y2-S2-104K22,7,586,PS,exp,44,←,no_key,no_letter,-1.0,False,11,-1,1,6
Y2-S2-104K22,7,587,PS,exp,26,↑,left,←,0.5011016999997082,False,12,-1,0,6
Y2-S2-104K22,7,588,PS,exp,26,↓,left,←,0.8635348000002523,False,13,-1,0,6
Y2-S2-104K22,7,589,PS,exp,42,→,right,→,0.4294221000000107,True,14,-1,0,6
Y2-S2-104K22,7,590,PS,exp,41,↑,up,↑,0.6858414999996967,True,14,-1,0,6
Y2-S2-104K22,7,591,PS,exp,32,←,left,←,0.45192610000003697,True,14,1,1,7
Y2-S2-104K22,7,592,PS,exp,50,→,right,→,0.45321640000020125,True,13,1,0,7
Y2-S2-104K22,7,593,PS,exp,30,↓,right,→,1.1070341999998163,False,13,-1,1,8
Y2-S2-104K22,7,594,PS,exp,40,→,right,→,0.5856794000001173,True,14,-1,0,8
Y2-S2-104K22,7,595,PS,exp,31,↑,up,↑,0.4968852000001789,True,14,-1,0,8
Y2-S2-104K22,7,596,PS,exp,43,↓,down,↓,1.1226222000000234,True,14,1,1,9
Y2-S2-104K22,7,597,PS,exp,38,←,left,←,0.41762659999994867,True,13,1,0,9
Y2-S2-104K22,7,598,PS,exp,37,↓,down,↓,0.5461480000003576,True,13,1,0,9
Y2-S2-104K22,7,599,PS,exp,32,←,left,←,0.5349123000000873,True,13,1,0,9
Y2-S2-104K22,7,600,PS,exp,36,→,right,→,0.5330911000000924,True,12,1,0,9
Y2-S2-104K22,7,601,PS,exp,45,↑,up,↑,0.41587459999982457,True,12,1,0,9
Y2-S2-104K22,7,602,PS,exp,35,→,right,→,0.44434300000011717,True,12,1,0,9
Y2-S2-104K22,7,603,PS,exp,31,↑,left,←,0.810229100000015,False,11,-1,1,10
Y2-S2-104K22,7,604,PS,exp,37,→,up,↑,1.254881800000021,False,12,-1,0,10
Y2-S2-104K22,7,605,PS,exp,36,↓,down,↓,0.6049402999997255,True,13,-1,0,10
Y2-S2-104K22,7,606,PS,exp,34,↑,up,↑,0.4334251000000222,True,13,-1,0,10
Y2-S2-104K22,7,607,PS,exp,45,←,left,←,0.5015445000003638,True,13,1,1,11
Y2-S2-104K22,7,608,PS,exp,45,↓,down,↓,0.5298170999999456,True,12,1,0,11
Y2-S2-104K22,7,609,PS,exp,27,↑,up,↑,0.4531167000000096,True,12,1,0,11
Y2-S2-104K22,7,610,PS,exp,29,↓,down,↓,0.875825900000109,True,12,1,0,11
Y2-S2-104K22,7,611,PS,exp,38,←,left,←,0.3881289000000834,True,11,1,0,11
Y2-S2-104K22,7,612,PS,exp,41,→,right,→,0.955189700000119,True,11,1,0,11
Y2-S2-104K22,7,613,PS,exp,33,←,up,↑,0.7068343000000823,False,11,-1,1,12
Y2-S2-104K22,7,614,PS,exp,29,→,right,→,0.5838193999998111,True,12,-1,0,12
Y2-S2-104K22,7,615,PS,exp,28,↓,down,↓,0.652983999999833,True,12,-1,0,12
Y2-S2-104K22,7,616,PS,exp,45,→,right,→,0.405918500000098,True,12,1,1,13
Y2-S2-104K22,7,617,PS,exp,27,↓,down,↓,0.46569440000030227,True,11,1,0,13
Y2-S2-104K22,7,618,PS,exp,41,→,right,→,0.3891887999998289,True,11,1,0,13
Y2-S2-104K22,7,619,PS,exp,39,←,left,←,0.4911240000001271,True,11,1,0,13
Y2-S2-104K22,7,620,PS,exp,39,↓,down,↓,0.6035757999998168,True,10,1,0,13
Y2-S2-104K22,7,621,PS,exp,25,→,right,→,0.4691040999996403,True,10,1,0,13
Y2-S2-104K22,7,622,PS,exp,42,←,left,←,0.44910150000032445,True,10,1,0,13
Y2-S2-104K22,7,623,PS,exp,39,↑,up,↑,0.4202445999999327,True,9,1,0,13
Y2-S2-104K22,7,624,PS,exp,28,↓,down,↓,0.48152170000003025,True,9,1,0,13
Y2-S2-104K22,7,625,PS,exp,40,↑,up,↑,0.4258260000001428,True,9,1,0,13
Y2-S2-104K22,7,626,PS,exp,41,→,right,→,0.39765680000027714,True,8,1,0,13
Y2-S2-104K22,7,627,PS,exp,38,←,up,↑,1.767878699999983,False,8,-1,1,14
Y2-S2-104K22,7,628,PS,exp,46,→,right,→,0.38489839999965625,True,9,-1,0,14
Y2-S2-104K22,7,629,PS,exp,50,↑,up,↑,0.4283559000000423,True,9,-1,0,14
Y2-S2-104K22,7,630,PS,exp,43,→,right,→,0.3512156000001596,True,9,1,1,15
Y2-S2-104K22,7,631,PS,exp,47,↓,right,→,0.6605232000001706,False,8,-1,1,16
Y2-S2-104K22,8,632,AS,intra_train,37,←,left,←,0.9332472999999482,True,25,-,-,-
Y2-S2-104K22,8,633,AS,intra_train,42,↓,down,↓,0.6675614999999198,True,25,-,-,-
Y2-S2-104K22,8,634,AS,intra_train,31,→,right,→,0.5174545999998372,True,25,-,-,-
Y2-S2-104K22,8,635,AS,intra_train,42,←,left,←,0.6281817999997656,True,25,-,-,-
Y2-S2-104K22,8,636,AS,intra_train,33,→,right,→,0.5871128000003409,True,25,-,-,-
Y2-S2-104K22,8,637,AS,exp,38,↑,left,←,0.9233070000000225,False,17,-1,0,0
Y2-S2-104K22,8,638,AS,exp,39,↓,down,↓,0.5587033000001611,True,18,-1,0,0
Y2-S2-104K22,8,639,AS,exp,30,↑,up,↑,0.4903321000001597,True,18,-1,0,0
Y2-S2-104K22,8,640,AS,exp,33,↓,down,↓,0.7088849000001574,True,18,1,1,1
Y2-S2-104K22,8,641,AS,exp,26,←,left,←,0.542537700000139,True,17,1,0,1
Y2-S2-104K22,8,642,AS,exp,43,→,right,→,0.6571398000000954,True,17,1,0,1
Y2-S2-104K22,8,643,AS,exp,33,↑,up,↑,0.5439013000000159,True,17,1,0,1
Y2-S2-104K22,8,644,AS,exp,38,→,left,←,0.4690867999997863,False,16,-1,1,2
Y2-S2-104K22,8,645,AS,exp,27,↓,up,↑,0.550391899999795,False,17,-1,0,2
Y2-S2-104K22,8,646,AS,exp,27,←,right,→,0.4912354999996751,False,18,-1,0,2
Y2-S2-104K22,8,647,AS,exp,43,↑,up,↑,0.7512360999999146,True,19,-1,0,2
Y2-S2-104K22,8,648,AS,exp,48,←,down,↓,1.261603500000092,False,19,-1,0,2
Y2-S2-104K22,8,649,AS,exp,29,↑,up,↑,0.5974635000002309,True,20,-1,0,2
Y2-S2-104K22,8,650,AS,exp,43,→,left,←,0.5314500999998018,False,20,-1,0,2
Y2-S2-104K22,8,651,AS,exp,31,↑,up,↑,0.561370899999929,True,21,-1,0,2
Y2-S2-104K22,8,652,AS,exp,39,→,right,→,0.4839742000003753,True,21,-1,0,2
Y2-S2-104K22,8,653,AS,exp,50,↓,up,↑,0.6254145000002609,False,21,-1,0,2
Y2-S2-104K22,8,654,AS,exp,46,↑,up,↑,0.5696066999998948,True,22,-1,0,2
Y2-S2-104K22,8,655,AS,exp,36,↓,down,↓,0.6477177000001575,True,22,-1,0,2
Y2-S2-104K22,8,656,AS,exp,36,→,right,→,0.7309562000000369,True,22,1,1,3
Y2-S2-104K22,8,657,AS,exp,30,↓,down,↓,0.7363522999999077,True,21,1,0,3
Y2-S2-104K22,8,658,AS,exp,25,↑,up,↑,0.6838237000001754,True,21,1,0,3
Y2-S2-104K22,8,659,AS,exp,49,↓,up,↑,0.8153145999999651,False,21,-1,1,4
Y2-S2-104K22,8,660,AS,exp,50,↑,up,↑,0.7016140000000632,True,22,-1,0,4
Y2-S2-104K22,8,661,AS,exp,49,←,left,←,0.6826369000000341,True,22,-1,0,4
Y2-S2-104K22,8,662,AS,exp,48,↓,down,↓,0.6535532000002604,True,22,1,1,5
Y2-S2-104K22,8,663,AS,exp,32,↑,up,↑,0.6669413999998142,True,21,1,0,5
Y2-S2-104K22,8,664,AS,exp,48,←,left,←,0.48400560000027326,True,21,1,0,5
Y2-S2-104K22,8,665,AS,exp,43,↑,right,→,1.523990899999717,False,21,-1,1,6
Y2-S2-104K22,8,666,AS,exp,50,←,left,←,1.442975199999637,True,22,-1,0,6
Y2-S2-104K22,8,667,AS,exp,49,↑,up,↑,0.7059555000000728,True,22,-1,0,6
Y2-S2-104K22,8,668,AS,exp,32,↓,down,↓,0.6867966999998316,True,22,1,1,7
Y2-S2-104K22,8,669,AS,exp,32,←,left,←,0.7704889000001458,True,21,1,0,7
Y2-S2-104K22,8,670,AS,exp,38,↓,down,↓,0.7757486000000426,True,21,1,0,7
Y2-S2-104K22,8,671,AS,exp,29,←,left,←,0.4675331000003098,True,21,1,0,7
Y2-S2-104K22,8,672,AS,exp,28,↑,up,↑,0.8815758999999161,True,20,1,0,7
Y2-S2-104K22,8,673,AS,exp,45,→,right,→,0.6057364000002963,True,20,1,0,7
Y2-S2-104K22,8,674,AS,exp,33,←,left,←,1.507629299999735,True,20,1,0,7
Y2-S2-104K22,8,675,AS,exp,33,↓,down,↓,0.6881098000003476,True,19,1,0,7
Y2-S2-104K22,8,676,AS,exp,40,←,left,←,0.6854082999998354,True,19,1,0,7
Y2-S2-104K22,8,677,AS,exp,50,→,right,→,0.59900719999996,True,19,1,0,7
Y2-S2-104K22,8,678,AS,exp,46,↑,up,↑,0.6593690999998216,True,18,1,0,7
Y2-S2-104K22,8,679,AS,exp,25,→,right,→,0.7319122000003517,True,18,1,0,7
Y2-S2-104K22,8,680,AS,exp,42,↑,up,↑,0.4338871999998446,True,18,1,0,7
Y2-S2-104K22,8,681,AS,exp,34,→,right,→,1.2216679000002841,True,17,1,0,7
Y2-S2-104K22,8,682,AS,exp,32,←,left,←,0.4173642999999174,True,17,1,0,7
Y2-S2-104K22,8,683,AS,exp,44,↑,up,↑,0.5765775999998368,True,17,1,0,7
Y2-S2-104K22,8,684,AS,exp,36,↓,down,↓,0.6000435000000834,True,16,1,0,7
Y2-S2-104K22,8,685,AS,exp,43,←,left,←,0.5747175999999854,True,16,1,0,7
Y2-S2-104K22,8,686,AS,exp,48,↓,down,↓,0.8195354999998017,True,16,1,0,7
Y2-S2-104K22,8,687,AS,exp,27,↑,up,↑,0.5481499000002259,True,15,1,0,7
Y2-S2-104K22,8,688,AS,exp,49,↓,down,↓,0.601183299999775,True,15,1,0,7
Y2-S2-104K22,8,689,AS,exp,25,↑,up,↑,0.7621360999996796,True,15,1,0,7
Y2-S2-104K22,8,690,AS,exp,37,→,right,→,0.5461615999997775,True,14,1,0,7
Y2-S2-104K22,8,691,AS,exp,48,←,left,←,0.4687293000001773,True,14,1,0,7
Y2-S2-104K22,8,692,AS,exp,44,↓,up,↑,0.6522870999997394,False,14,-1,1,8
Y2-S2-104K22,8,693,AS,exp,47,↑,up,↑,0.5607697999998891,True,15,-1,0,8
Y2-S2-104K22,8,694,AS,exp,36,←,no_key,no_letter,-1.0,False,15,-1,0,8
Y2-S2-104K22,8,695,AS,exp,34,↑,up,↑,1.856510800000251,True,16,-1,0,8
Y2-S2-104K22,8,696,AS,exp,45,→,right,→,0.5267972999999984,True,16,-1,0,8
Y2-S2-104K22,8,697,AS,exp,48,↑,up,↑,0.6581022000000303,True,16,1,1,9
Y2-S2-104K22,8,698,AS,exp,44,←,left,←,0.6577363000001242,True,15,1,0,9
Y2-S2-104K22,8,699,AS,exp,31,→,right,→,0.522613199999796,True,15,1,0,9
Y2-S2-104K22,8,700,AS,exp,33,↓,down,↓,0.912840700000288,True,15,1,0,9
Y2-S2-104K22,8,701,AS,exp,49,←,up,↑,0.7953808999995999,False,14,-1,1,10
Y2-S2-104K22,8,702,AS,exp,33,↑,up,↑,0.45619219999980487,True,15,-1,0,10
Y2-S2-104K22,8,703,AS,exp,44,→,right,→,0.4450509000002967,True,15,-1,0,10
Y2-S2-104K22,8,704,AS,exp,44,↑,up,↑,0.42933450000009543,True,15,1,1,11
Y2-S2-104K22,8,705,AS,exp,42,→,right,→,1.649608299999727,True,14,1,0,11
Y2-S2-104K22,8,706,AS,exp,38,←,right,→,0.6846025999998346,False,14,-1,1,12
Y2-S2-104K22,8,707,AS,exp,49,↑,up,↑,0.45057379999980185,True,15,-1,0,12
Y2-S2-104K22,8,708,AS,exp,50,↓,down,↓,0.487344000000121,True,15,-1,0,12
Y2-S2-104K22,8,709,AS,exp,38,←,left,←,1.1679056000002674,True,15,1,1,13
Y2-S2-104K22,8,710,AS,exp,26,↓,down,↓,0.6325701000000663,True,14,1,0,13
Y2-S2-104K22,8,711,AS,exp,29,↑,right,→,0.7413518000003023,False,14,-1,1,14
Y2-S2-104K22,8,712,AS,exp,47,→,right,→,0.6358061000000816,True,15,-1,0,14
Y2-S2-104K22,8,713,AS,exp,26,←,right,→,0.6928959000001669,False,15,-1,0,14
Y2-S2-104K22,8,714,AS,exp,32,→,right,→,0.587113699999918,True,16,-1,0,14
Y2-S2-104K22,8,715,AS,exp,42,↓,down,↓,0.6236204000001635,True,16,-1,0,14
Y2-S2-104K22,8,716,AS,exp,48,←,left,←,0.4557774999998401,True,16,1,1,15
Y2-S2-104K22,8,717,AS,exp,36,→,right,→,0.4269411999998738,True,15,1,0,15
Y2-S2-104K22,8,718,AS,exp,48,↑,up,↑,0.9429635000001326,True,15,1,0,15
Y2-S2-104K22,8,719,AS,exp,49,↓,down,↓,0.5734864999999445,True,15,1,0,15
Y2-S2-104K22,8,720,AS,exp,50,←,left,←,0.42610190000004877,True,14,1,0,15
Y2-S2-104K22,8,721,AS,exp,44,↓,down,↓,0.6770728999999847,True,14,1,0,15
Y2-S2-104K22,8,722,AS,exp,43,←,left,←,0.4723589999998694,True,14,1,0,15
Y2-S2-104K22,8,723,AS,exp,44,↓,down,↓,0.5904434000003675,True,13,1,0,15
Y2-S2-104K22,8,724,AS,exp,28,↑,up,↑,0.5926580000000286,True,13,1,0,15
Y2-S2-104K22,8,725,AS,exp,45,↓,down,↓,0.6404506999997466,True,13,1,0,15
Y2-S2-104K22,8,726,AS,exp,37,←,right,→,0.474112100000184,False,12,-1,1,16
