PART_ID,Block_no,Trial_no,Block_type,Trial_type,CSI,Stim_letter,Key_pressed,letter_choose,Rt,Corr,Stimulus Time,Level,Reversal,Revs_count
Y2-S2-071K29,1,1,PS,train,48,↑,up,↑,0.6339497002772987,True,30,-,-,-
Y2-S2-071K29,1,2,PS,train,47,←,left,←,0.5505879996344447,True,30,-,-,-
Y2-S2-071K29,1,3,PS,train,32,↓,down,↓,0.48428360000252724,True,30,-,-,-
Y2-S2-071K29,1,4,PS,train,32,↑,up,↑,0.51751619996503,True,30,-,-,-
Y2-S2-071K29,1,5,PS,train,40,←,left,←,0.5173935000784695,True,30,-,-,-
Y2-S2-071K29,1,6,PS,train,36,↓,down,↓,0.5674099000170827,True,30,-,-,-
Y2-S2-071K29,1,7,PS,train,37,↑,up,↑,0.723786000162363,True,30,-,-,-
Y2-S2-071K29,1,8,PS,train,43,↓,down,↓,0.5340582998469472,True,30,-,-,-
Y2-S2-071K29,1,9,PS,train,34,←,left,←,1.7590859001502395,True,30,-,-,-
Y2-S2-071K29,1,10,PS,train,28,↓,down,↓,0.6701040002517402,True,30,-,-,-
Y2-S2-071K29,2,11,AS,train,44,←,left,←,0.7840964999049902,True,45,-,-,-
Y2-S2-071K29,2,12,AS,train,32,↑,up,↑,2.16574120009318,True,45,-,-,-
Y2-S2-071K29,2,13,AS,train,44,↓,down,↓,0.6177827003411949,True,45,-,-,-
Y2-S2-071K29,2,14,AS,train,25,→,right,→,0.5008586999028921,True,45,-,-,-
Y2-S2-071K29,2,15,AS,train,49,↑,up,↑,0.6014101998880506,True,45,-,-,-
Y2-S2-071K29,2,16,AS,train,28,←,left,←,0.5510249002836645,True,45,-,-,-
Y2-S2-071K29,2,17,AS,train,36,↓,down,↓,0.5011709998361766,True,45,-,-,-
Y2-S2-071K29,2,18,AS,train,28,←,right,→,1.0505547998473048,False,45,-,-,-
Y2-S2-071K29,2,19,AS,train,36,↓,down,↓,0.484464299865067,True,45,-,-,-
Y2-S2-071K29,2,20,AS,train,27,→,right,→,0.5676078996621072,True,45,-,-,-
Y2-S2-071K29,-,21,PS,adaptive,38,↑,left,←,1.136010400019586,False,10,-1,0,0
Y2-S2-071K29,-,22,PS,adaptive,46,→,right,→,0.5672638998366892,True,11,-1,0,0
Y2-S2-071K29,-,23,PS,adaptive,26,←,right,→,0.9188573998399079,False,11,-1,0,0
Y2-S2-071K29,-,24,PS,adaptive,36,↑,up,↑,0.593446800019592,True,12,-1,0,0
Y2-S2-071K29,-,25,PS,adaptive,40,↓,up,↑,1.0285462001338601,False,12,-1,0,0
Y2-S2-071K29,-,26,PS,adaptive,44,→,right,→,0.6194134997203946,True,13,-1,0,0
Y2-S2-071K29,-,27,PS,adaptive,34,↑,up,↑,0.566751700360328,True,13,-1,0,0
Y2-S2-071K29,-,28,PS,adaptive,26,↓,down,↓,0.5357089997269213,True,13,1,1,1
Y2-S2-071K29,-,29,PS,adaptive,48,←,left,←,0.46088070003315806,True,12,1,0,1
Y2-S2-071K29,-,30,PS,adaptive,35,→,left,←,1.3996485001407564,False,12,-1,1,2
Y2-S2-071K29,-,31,PS,adaptive,32,↓,down,↓,0.7163967001251876,True,13,-1,0,2
Y2-S2-071K29,-,32,PS,adaptive,31,↑,up,↑,0.48565479973331094,True,13,-1,0,2
Y2-S2-071K29,-,33,PS,adaptive,49,↓,down,↓,0.4916205001063645,True,13,1,1,3
Y2-S2-071K29,-,34,PS,adaptive,39,←,left,←,1.4747151001356542,True,12,1,0,3
Y2-S2-071K29,-,35,PS,adaptive,40,↓,down,↓,0.49665179988369346,True,12,1,0,3
Y2-S2-071K29,-,36,PS,adaptive,43,→,down,↓,0.8414692999795079,False,12,-1,1,4
Y2-S2-071K29,-,37,AS,adaptive,37,↓,left,←,1.2565985000692308,False,20,-1,0,0
Y2-S2-071K29,-,38,AS,adaptive,45,←,left,←,0.6471242001280189,True,21,-1,0,0
Y2-S2-071K29,-,39,AS,adaptive,40,↑,up,↑,0.674418400041759,True,21,-1,0,0
Y2-S2-071K29,-,40,AS,adaptive,28,→,right,→,0.5928736999630928,True,21,1,1,1
Y2-S2-071K29,-,41,AS,adaptive,29,↑,up,↑,1.535981200169772,True,20,1,0,1
Y2-S2-071K29,-,42,AS,adaptive,38,↓,right,→,0.9407655000686646,False,20,-1,1,2
Y2-S2-071K29,-,43,AS,adaptive,27,↑,left,←,1.2323247999884188,False,21,-1,0,2
Y2-S2-071K29,-,44,AS,adaptive,35,↓,down,↓,0.8262490998022258,True,22,-1,0,2
Y2-S2-071K29,-,45,AS,adaptive,27,←,left,←,0.6753515000455081,True,22,-1,0,2
Y2-S2-071K29,-,46,AS,adaptive,39,→,left,←,1.1157980998978019,False,22,-1,0,2
Y2-S2-071K29,-,47,AS,adaptive,39,↓,down,↓,0.9224903997965157,True,23,-1,0,2
Y2-S2-071K29,-,48,AS,adaptive,31,→,right,→,0.8166171000339091,True,23,-1,0,2
Y2-S2-071K29,-,49,AS,adaptive,45,←,left,←,0.7606624001637101,True,23,1,1,3
Y2-S2-071K29,-,50,AS,adaptive,40,↓,down,↓,0.6545145004056394,True,22,1,0,3
Y2-S2-071K29,-,51,AS,adaptive,41,→,right,→,0.8306090999394655,True,22,1,0,3
Y2-S2-071K29,-,52,AS,adaptive,35,↓,down,↓,0.6735836998559535,True,22,1,0,3
Y2-S2-071K29,-,53,AS,adaptive,30,←,left,←,0.9412574996240437,True,21,1,0,3
Y2-S2-071K29,-,54,AS,adaptive,37,↓,down,↓,0.7275482998229563,True,21,1,0,3
Y2-S2-071K29,-,55,AS,adaptive,28,↑,up,↑,0.6825247001834214,True,21,1,0,3
Y2-S2-071K29,-,56,AS,adaptive,31,→,right,→,0.9207965000532568,True,20,1,0,3
Y2-S2-071K29,-,57,AS,adaptive,35,←,left,←,0.8835915001109242,True,20,1,0,3
Y2-S2-071K29,-,58,AS,adaptive,42,↑,up,↑,0.7527915998362005,True,20,1,0,3
Y2-S2-071K29,-,59,AS,adaptive,41,←,left,←,0.5977507997304201,True,19,1,0,3
Y2-S2-071K29,-,60,AS,adaptive,28,↓,down,↓,0.6112979999743402,True,19,1,0,3
Y2-S2-071K29,-,61,AS,adaptive,47,→,right,→,0.6088668997399509,True,19,1,0,3
Y2-S2-071K29,-,62,AS,adaptive,25,←,left,←,0.8890573000535369,True,18,1,0,3
Y2-S2-071K29,-,63,AS,adaptive,44,↑,up,↑,0.6658797999843955,True,18,1,0,3
Y2-S2-071K29,-,64,AS,adaptive,31,←,left,←,0.55994540033862,True,18,1,0,3
Y2-S2-071K29,-,65,AS,adaptive,33,→,right,→,0.6181206000037491,True,17,1,0,3
Y2-S2-071K29,-,66,AS,adaptive,33,↑,up,↑,0.7465248997323215,True,17,1,0,3
Y2-S2-071K29,-,67,AS,adaptive,38,←,left,←,0.4737456999719143,True,17,1,0,3
Y2-S2-071K29,-,68,AS,adaptive,32,↑,up,↑,0.8812521998770535,True,16,1,0,3
Y2-S2-071K29,-,69,AS,adaptive,30,→,up,↑,1.0352644002996385,False,16,-1,1,4
Y2-S2-071K29,1,70,PS,intra_train,44,↓,down,↓,0.7133625000715256,True,19,-,-,-
Y2-S2-071K29,1,71,PS,intra_train,46,→,right,→,0.7392045999877155,True,19,-,-,-
Y2-S2-071K29,1,72,PS,intra_train,43,↓,down,↓,0.675639399792999,True,19,-,-,-
Y2-S2-071K29,1,73,PS,intra_train,47,→,right,→,0.6423415001481771,True,19,-,-,-
Y2-S2-071K29,1,74,PS,intra_train,42,←,down,↓,0.8977238996885717,False,19,-,-,-
Y2-S2-071K29,1,75,PS,exp,33,→,right,→,0.828689900226891,True,13,0,0,0
Y2-S2-071K29,1,76,PS,exp,29,↓,down,↓,1.0277677001431584,True,13,0,0,0
Y2-S2-071K29,1,77,PS,exp,36,→,left,←,0.8358133998699486,False,13,-1,0,0
Y2-S2-071K29,1,78,PS,exp,37,↓,down,↓,0.5771689000539482,True,14,-1,0,0
Y2-S2-071K29,1,79,PS,exp,26,→,right,→,0.716017700266093,True,14,-1,0,0
Y2-S2-071K29,1,80,PS,exp,34,←,right,→,0.8993135001510382,False,14,-1,0,0
Y2-S2-071K29,1,81,PS,exp,38,↑,up,↑,0.6167566999793053,True,15,-1,0,0
Y2-S2-071K29,1,82,PS,exp,50,→,right,→,0.5771317998878658,True,15,-1,0,0
Y2-S2-071K29,1,83,PS,exp,48,←,left,←,0.6811301000416279,True,15,1,1,1
Y2-S2-071K29,1,84,PS,exp,34,↓,down,↓,0.6224726000800729,True,14,1,0,1
Y2-S2-071K29,1,85,PS,exp,29,→,right,→,0.7066819001920521,True,14,1,0,1
Y2-S2-071K29,1,86,PS,exp,50,↑,up,↑,0.6270929002203047,True,14,1,0,1
Y2-S2-071K29,1,87,PS,exp,35,↓,down,↓,0.7618573000654578,True,13,1,0,1
Y2-S2-071K29,1,88,PS,exp,44,↑,up,↑,0.628396799787879,True,13,1,0,1
Y2-S2-071K29,1,89,PS,exp,45,↓,down,↓,0.5386257003992796,True,13,1,0,1
Y2-S2-071K29,1,90,PS,exp,40,↑,down,↓,0.8574968003667891,False,12,-1,1,2
Y2-S2-071K29,1,91,PS,exp,48,←,left,←,0.5582236000336707,True,13,-1,0,2
Y2-S2-071K29,1,92,PS,exp,30,→,right,→,0.7177215996198356,True,13,-1,0,2
Y2-S2-071K29,1,93,PS,exp,30,←,right,→,1.121347100008279,False,13,-1,0,2
Y2-S2-071K29,1,94,PS,exp,43,↑,up,↑,0.7772456998936832,True,14,-1,0,2
Y2-S2-071K29,1,95,PS,exp,41,→,right,→,0.7463102000765502,True,14,-1,0,2
Y2-S2-071K29,1,96,PS,exp,43,←,left,←,0.6977245002053678,True,14,1,1,3
Y2-S2-071K29,1,97,PS,exp,33,→,right,→,1.6692249001935124,True,13,1,0,3
Y2-S2-071K29,1,98,PS,exp,31,↑,up,↑,0.8124688002280891,True,13,1,0,3
Y2-S2-071K29,1,99,PS,exp,44,→,right,→,0.6238290998153389,True,13,1,0,3
Y2-S2-071K29,1,100,PS,exp,30,↓,down,↓,0.5093022999353707,True,12,1,0,3
Y2-S2-071K29,1,101,PS,exp,32,←,left,←,0.7788815996609628,True,12,1,0,3
Y2-S2-071K29,1,102,PS,exp,28,↑,up,↑,0.5416166000068188,True,12,1,0,3
Y2-S2-071K29,1,103,PS,exp,25,←,up,↑,0.7810408999212086,False,11,-1,1,4
Y2-S2-071K29,1,104,PS,exp,25,↓,down,↓,0.6075571002438664,True,12,-1,0,4
Y2-S2-071K29,1,105,PS,exp,41,←,down,↓,0.7438381002284586,False,12,-1,0,4
Y2-S2-071K29,1,106,PS,exp,27,→,right,→,0.6522194002754986,True,13,-1,0,4
Y2-S2-071K29,1,107,PS,exp,28,↓,down,↓,0.6560247000306845,True,13,-1,0,4
Y2-S2-071K29,1,108,PS,exp,38,←,left,←,0.6296281996183097,True,13,1,1,5
Y2-S2-071K29,1,109,PS,exp,32,↓,down,↓,0.4728206000290811,True,12,1,0,5
Y2-S2-071K29,1,110,PS,exp,50,←,left,←,0.6017509000375867,True,12,1,0,5
Y2-S2-071K29,1,111,PS,exp,26,→,left,←,0.7558619999326766,False,12,-1,1,6
Y2-S2-071K29,1,112,PS,exp,28,↓,down,↓,0.5142549001611769,True,13,-1,0,6
Y2-S2-071K29,1,113,PS,exp,42,↑,up,↑,0.5991759998723865,True,13,-1,0,6
Y2-S2-071K29,1,114,PS,exp,27,→,right,→,0.6185464998707175,True,13,1,1,7
Y2-S2-071K29,1,115,PS,exp,48,↓,down,↓,0.5526548000052571,True,12,1,0,7
Y2-S2-071K29,1,116,PS,exp,48,→,right,→,0.7204630002379417,True,12,1,0,7
Y2-S2-071K29,1,117,PS,exp,38,←,down,↓,0.7580940998159349,False,12,-1,1,8
Y2-S2-071K29,1,118,PS,exp,44,↓,down,↓,0.6195966997183859,True,13,-1,0,8
Y2-S2-071K29,1,119,PS,exp,25,↑,up,↑,1.0183820999227464,True,13,-1,0,8
Y2-S2-071K29,1,120,PS,exp,34,↓,down,↓,0.5765454997308552,True,13,1,1,9
Y2-S2-071K29,1,121,PS,exp,32,→,left,←,0.7270650998689234,False,12,-1,1,10
Y2-S2-071K29,1,122,PS,exp,27,↓,down,↓,0.7304956000298262,True,13,-1,0,10
Y2-S2-071K29,1,123,PS,exp,34,↑,down,↓,0.9045147998258471,False,13,-1,0,10
Y2-S2-071K29,1,124,PS,exp,43,→,right,→,0.5756104001775384,True,14,-1,0,10
Y2-S2-071K29,1,125,PS,exp,43,↓,down,↓,0.4619358996860683,True,14,-1,0,10
Y2-S2-071K29,1,126,PS,exp,27,→,right,→,0.8397244000807405,True,14,1,1,11
Y2-S2-071K29,1,127,PS,exp,31,↓,down,↓,0.5113968001678586,True,13,1,0,11
Y2-S2-071K29,1,128,PS,exp,44,←,left,←,0.6095142997801304,True,13,1,0,11
Y2-S2-071K29,1,129,PS,exp,47,↓,down,↓,0.6211741999723017,True,13,1,0,11
Y2-S2-071K29,1,130,PS,exp,47,↑,up,↑,0.8023552000522614,True,12,1,0,11
Y2-S2-071K29,1,131,PS,exp,30,↓,down,↓,0.6076864995993674,True,12,1,0,11
Y2-S2-071K29,1,132,PS,exp,28,→,right,→,0.6066279001533985,True,12,1,0,11
Y2-S2-071K29,1,133,PS,exp,34,↓,right,→,1.180305200163275,False,11,-1,1,12
Y2-S2-071K29,1,134,PS,exp,43,→,right,→,0.5448672003112733,True,12,-1,0,12
Y2-S2-071K29,1,135,PS,exp,28,↑,up,↑,0.6396053000353277,True,12,-1,0,12
Y2-S2-071K29,1,136,PS,exp,25,→,left,←,0.7191288000904024,False,12,-1,0,12
Y2-S2-071K29,1,137,PS,exp,43,↓,left,←,1.0978721999563277,False,13,-1,0,12
Y2-S2-071K29,1,138,PS,exp,45,←,left,←,0.868724999949336,True,14,-1,0,12
Y2-S2-071K29,1,139,PS,exp,33,↑,up,↑,0.6108852000907063,True,14,-1,0,12
Y2-S2-071K29,1,140,PS,exp,36,←,left,←,0.6621890002861619,True,14,1,1,13
Y2-S2-071K29,1,141,PS,exp,34,↑,up,↑,0.7712934999726713,True,13,1,0,13
Y2-S2-071K29,1,142,PS,exp,50,↓,up,↑,0.7246314999647439,False,13,-1,1,14
Y2-S2-071K29,1,143,PS,exp,50,←,left,←,0.485408500302583,True,14,-1,0,14
Y2-S2-071K29,1,144,PS,exp,42,↑,up,↑,0.5880934000015259,True,14,-1,0,14
Y2-S2-071K29,1,145,PS,exp,30,←,left,←,0.5613412000238895,True,14,1,1,15
Y2-S2-071K29,1,146,PS,exp,38,↑,left,←,0.7153126001358032,False,13,-1,1,16
Y2-S2-071K29,2,147,AS,intra_train,50,↓,down,↓,1.2219024002552032,True,25,-,-,-
Y2-S2-071K29,2,148,AS,intra_train,36,←,left,←,0.915849800221622,True,25,-,-,-
Y2-S2-071K29,2,149,AS,intra_train,25,↑,up,↑,0.6766594997607172,True,25,-,-,-
Y2-S2-071K29,2,150,AS,intra_train,47,↓,down,↓,0.6663158000446856,True,25,-,-,-
Y2-S2-071K29,2,151,AS,intra_train,47,→,right,→,0.647051100153476,True,25,-,-,-
Y2-S2-071K29,2,152,AS,exp,30,↑,left,←,0.9048016997985542,False,17,-1,0,0
Y2-S2-071K29,2,153,AS,exp,40,→,left,←,0.863939099945128,False,18,-1,0,0
Y2-S2-071K29,2,154,AS,exp,50,←,no_key,no_letter,-1.0,False,19,-1,0,0
Y2-S2-071K29,2,155,AS,exp,25,↑,up,↑,0.6060105999931693,True,20,-1,0,0
Y2-S2-071K29,2,156,AS,exp,38,←,left,←,0.624868200160563,True,20,-1,0,0
Y2-S2-071K29,2,157,AS,exp,42,↑,up,↑,0.579087299760431,True,20,1,1,1
Y2-S2-071K29,2,158,AS,exp,39,←,left,←,0.5307022002525628,True,19,1,0,1
Y2-S2-071K29,2,159,AS,exp,48,↓,down,↓,0.7965488000772893,True,19,1,0,1
Y2-S2-071K29,2,160,AS,exp,26,←,left,←,0.7055810997262597,True,19,1,0,1
Y2-S2-071K29,2,161,AS,exp,25,↓,down,↓,0.4786435002461076,True,18,1,0,1
Y2-S2-071K29,2,162,AS,exp,34,↑,up,↑,0.5389251997694373,True,18,1,0,1
Y2-S2-071K29,2,163,AS,exp,48,←,left,←,0.5111239003017545,True,18,1,0,1
Y2-S2-071K29,2,164,AS,exp,43,↑,down,↓,0.7954141995869577,False,17,-1,1,2
Y2-S2-071K29,2,165,AS,exp,50,←,left,←,0.6153291002847254,True,18,-1,0,2
Y2-S2-071K29,2,166,AS,exp,32,↓,down,↓,0.5399493998847902,True,18,-1,0,2
Y2-S2-071K29,2,167,AS,exp,34,←,left,←,0.5318559003062546,True,18,1,1,3
Y2-S2-071K29,2,168,AS,exp,50,→,down,↓,1.1650168001651764,False,17,-1,1,4
Y2-S2-071K29,2,169,AS,exp,34,←,left,←,0.5653715999796987,True,18,-1,0,4
Y2-S2-071K29,2,170,AS,exp,34,→,right,→,0.6600060001946986,True,18,-1,0,4
Y2-S2-071K29,2,171,AS,exp,44,↓,down,↓,0.5241390001028776,True,18,1,1,5
Y2-S2-071K29,2,172,AS,exp,35,↑,up,↑,0.8244268000125885,True,17,1,0,5
Y2-S2-071K29,2,173,AS,exp,25,←,left,←,0.6510205999948084,True,17,1,0,5
Y2-S2-071K29,2,174,AS,exp,41,↓,down,↓,1.1176817999221385,True,17,1,0,5
Y2-S2-071K29,2,175,AS,exp,37,←,left,←,0.758948199916631,True,16,1,0,5
Y2-S2-071K29,2,176,AS,exp,32,↑,left,←,0.9276347998529673,False,16,-1,1,6
Y2-S2-071K29,2,177,AS,exp,36,↓,down,↓,0.5724776000715792,True,17,-1,0,6
Y2-S2-071K29,2,178,AS,exp,45,←,left,←,0.5792445000261068,True,17,-1,0,6
Y2-S2-071K29,2,179,AS,exp,44,↑,up,↑,0.6096696997992694,True,17,1,1,7
Y2-S2-071K29,2,180,AS,exp,41,↓,down,↓,0.5463870000094175,True,16,1,0,7
Y2-S2-071K29,2,181,AS,exp,46,↑,up,↑,0.5265655997209251,True,16,1,0,7
Y2-S2-071K29,2,182,AS,exp,40,←,left,←,0.6788971000351012,True,16,1,0,7
Y2-S2-071K29,2,183,AS,exp,39,↑,left,←,0.8791657001711428,False,15,-1,1,8
Y2-S2-071K29,2,184,AS,exp,49,↓,down,↓,0.5646987003274262,True,16,-1,0,8
Y2-S2-071K29,2,185,AS,exp,29,↑,up,↑,0.6618495001457632,True,16,-1,0,8
Y2-S2-071K29,2,186,AS,exp,26,↓,down,↓,0.6600655997171998,True,16,1,1,9
Y2-S2-071K29,2,187,AS,exp,28,←,left,←,0.6706520998850465,True,15,1,0,9
Y2-S2-071K29,2,188,AS,exp,30,↓,down,↓,0.7001407998614013,True,15,1,0,9
Y2-S2-071K29,2,189,AS,exp,25,←,left,←,0.5882868999615312,True,15,1,0,9
Y2-S2-071K29,2,190,AS,exp,29,↑,left,←,1.2075485000386834,False,14,-1,1,10
Y2-S2-071K29,2,191,AS,exp,47,←,left,←,0.6024605999700725,True,15,-1,0,10
Y2-S2-071K29,2,192,AS,exp,26,↑,up,↑,0.768582200165838,True,15,-1,0,10
Y2-S2-071K29,2,193,AS,exp,35,↓,up,↑,1.0394533001817763,False,15,-1,0,10
Y2-S2-071K29,2,194,AS,exp,28,↑,up,↑,0.5947867999784648,True,16,-1,0,10
Y2-S2-071K29,2,195,AS,exp,44,↓,down,↓,0.520837299991399,True,16,-1,0,10
Y2-S2-071K29,2,196,AS,exp,35,←,left,←,0.634063099976629,True,16,1,1,11
Y2-S2-071K29,2,197,AS,exp,29,→,right,→,0.8888616003096104,True,15,1,0,11
Y2-S2-071K29,2,198,AS,exp,34,↓,down,↓,0.8534081000834703,True,15,1,0,11
Y2-S2-071K29,2,199,AS,exp,27,→,right,→,0.6250192997977138,True,15,1,0,11
Y2-S2-071K29,2,200,AS,exp,41,↓,left,←,0.7666577999480069,False,14,-1,1,12
Y2-S2-071K29,2,201,AS,exp,29,→,right,→,0.5704886997118592,True,15,-1,0,12
Y2-S2-071K29,2,202,AS,exp,43,↓,right,→,1.5264782002195716,False,15,-1,0,12
Y2-S2-071K29,2,203,AS,exp,45,↑,up,↑,0.6483581000939012,True,16,-1,0,12
Y2-S2-071K29,2,204,AS,exp,49,→,right,→,0.6241258000954986,True,16,-1,0,12
Y2-S2-071K29,2,205,AS,exp,30,←,right,→,0.8582697003148496,False,16,-1,0,12
Y2-S2-071K29,2,206,AS,exp,31,↓,down,↓,0.5990433003753424,True,17,-1,0,12
Y2-S2-071K29,2,207,AS,exp,27,↑,up,↑,0.8011508998461068,True,17,-1,0,12
Y2-S2-071K29,2,208,AS,exp,33,←,left,←,0.6474218997173011,True,17,1,1,13
Y2-S2-071K29,2,209,AS,exp,38,↓,down,↓,0.6448400998488069,True,16,1,0,13
Y2-S2-071K29,2,210,AS,exp,37,→,down,↓,1.4467044002376497,False,16,-1,1,14
Y2-S2-071K29,2,211,AS,exp,28,↑,up,↑,0.536219900008291,True,17,-1,0,14
Y2-S2-071K29,2,212,AS,exp,32,→,right,→,0.7308551003225148,True,17,-1,0,14
Y2-S2-071K29,2,213,AS,exp,25,↑,up,↑,0.6155530996620655,True,17,1,1,15
Y2-S2-071K29,2,214,AS,exp,49,→,right,→,0.5517359003424644,True,16,1,0,15
Y2-S2-071K29,2,215,AS,exp,40,←,left,←,0.5454278001561761,True,16,1,0,15
Y2-S2-071K29,2,216,AS,exp,45,→,up,↑,0.888624900020659,False,16,-1,1,16
Y2-S2-071K29,3,217,AS,intra_train,28,↓,down,↓,0.707069399766624,True,25,-,-,-
Y2-S2-071K29,3,218,AS,intra_train,30,↑,up,↑,0.7709863996133208,True,25,-,-,-
Y2-S2-071K29,3,219,AS,intra_train,49,↓,down,↓,0.6784306997433305,True,25,-,-,-
Y2-S2-071K29,3,220,AS,intra_train,43,↑,up,↑,0.5005263001658022,True,25,-,-,-
Y2-S2-071K29,3,221,AS,intra_train,40,→,right,→,0.6957096001133323,True,25,-,-,-
Y2-S2-071K29,3,222,AS,exp,33,↓,down,↓,0.5443265000358224,True,17,0,0,0
Y2-S2-071K29,3,223,AS,exp,48,←,left,←,0.6755166999064386,True,17,0,0,0
Y2-S2-071K29,3,224,AS,exp,46,↓,right,→,0.7831103000789881,False,17,-1,0,0
Y2-S2-071K29,3,225,AS,exp,27,→,right,→,0.835844200104475,True,18,-1,0,0
Y2-S2-071K29,3,226,AS,exp,48,↑,up,↑,0.5948908999562263,True,18,-1,0,0
Y2-S2-071K29,3,227,AS,exp,48,→,right,→,0.7346373000182211,True,18,1,1,1
Y2-S2-071K29,3,228,AS,exp,32,↓,down,↓,0.517503600101918,True,17,1,0,1
Y2-S2-071K29,3,229,AS,exp,44,→,right,→,0.5307752001099288,True,17,1,0,1
Y2-S2-071K29,3,230,AS,exp,34,←,left,←,0.571271900087595,True,17,1,0,1
Y2-S2-071K29,3,231,AS,exp,33,→,right,→,0.6909725000150502,True,16,1,0,1
Y2-S2-071K29,3,232,AS,exp,27,↑,up,↑,0.6515878001227975,True,16,1,0,1
Y2-S2-071K29,3,233,AS,exp,25,←,left,←,0.6581211998127401,True,16,1,0,1
Y2-S2-071K29,3,234,AS,exp,50,↑,up,↑,0.946688000112772,True,15,1,0,1
Y2-S2-071K29,3,235,AS,exp,37,→,right,→,0.6022724001668394,True,15,1,0,1
Y2-S2-071K29,3,236,AS,exp,49,↑,up,↑,0.6651762002147734,True,15,1,0,1
Y2-S2-071K29,3,237,AS,exp,37,↓,left,←,0.8920713001862168,False,14,-1,1,2
Y2-S2-071K29,3,238,AS,exp,38,←,left,←,0.6598244002088904,True,15,-1,0,2
Y2-S2-071K29,3,239,AS,exp,27,↓,up,↑,0.8811829001642764,False,15,-1,0,2
Y2-S2-071K29,3,240,AS,exp,30,→,right,→,0.6402137000113726,True,16,-1,0,2
Y2-S2-071K29,3,241,AS,exp,30,↑,up,↑,0.8535595997236669,True,16,-1,0,2
Y2-S2-071K29,3,242,AS,exp,45,←,left,←,0.8486254001036286,True,16,1,1,3
Y2-S2-071K29,3,243,AS,exp,25,→,right,→,0.5454001999460161,True,15,1,0,3
Y2-S2-071K29,3,244,AS,exp,47,↓,up,↑,0.8583937999792397,False,15,-1,1,4
Y2-S2-071K29,3,245,AS,exp,36,→,right,→,0.669766599778086,True,16,-1,0,4
Y2-S2-071K29,3,246,AS,exp,36,←,left,←,0.6173489997163415,True,16,-1,0,4
Y2-S2-071K29,3,247,AS,exp,25,↓,down,↓,0.564710299950093,True,16,1,1,5
Y2-S2-071K29,3,248,AS,exp,45,→,left,←,1.2835617000237107,False,15,-1,1,6
Y2-S2-071K29,3,249,AS,exp,37,←,left,←,0.5758072002790868,True,16,-1,0,6
Y2-S2-071K29,3,250,AS,exp,31,↑,up,↑,0.8173833000473678,True,16,-1,0,6
Y2-S2-071K29,3,251,AS,exp,42,←,left,←,0.6706710001453757,True,16,1,1,7
Y2-S2-071K29,3,252,AS,exp,44,↓,down,↓,0.6230977000668645,True,15,1,0,7
Y2-S2-071K29,3,253,AS,exp,26,→,right,→,0.7762437001802027,True,15,1,0,7
Y2-S2-071K29,3,254,AS,exp,47,↑,up,↑,0.6101486999541521,True,15,1,0,7
Y2-S2-071K29,3,255,AS,exp,25,↓,down,↓,0.7650127001106739,True,14,1,0,7
Y2-S2-071K29,3,256,AS,exp,32,→,right,→,0.5543706999160349,True,14,1,0,7
Y2-S2-071K29,3,257,AS,exp,32,←,right,→,0.887947800103575,False,14,-1,1,8
Y2-S2-071K29,3,258,AS,exp,43,↓,down,↓,0.7586952997371554,True,15,-1,0,8
Y2-S2-071K29,3,259,AS,exp,32,→,right,→,0.576772800181061,True,15,-1,0,8
Y2-S2-071K29,3,260,AS,exp,27,←,left,←,0.7170215998776257,True,15,1,1,9
Y2-S2-071K29,3,261,AS,exp,43,↑,down,↓,0.9735648999921978,False,14,-1,1,10
Y2-S2-071K29,3,262,AS,exp,37,←,left,←,0.7229812000878155,True,15,-1,0,10
Y2-S2-071K29,3,263,AS,exp,48,↓,left,←,0.8660424998961389,False,15,-1,0,10
Y2-S2-071K29,3,264,AS,exp,32,↑,up,↑,0.899607399944216,True,16,-1,0,10
Y2-S2-071K29,3,265,AS,exp,50,↓,down,↓,0.9965927000157535,True,16,-1,0,10
Y2-S2-071K29,3,266,AS,exp,46,↑,down,↓,1.0424453997984529,False,16,-1,0,10
Y2-S2-071K29,3,267,AS,exp,27,↓,down,↓,0.9529452999122441,True,17,-1,0,10
Y2-S2-071K29,3,268,AS,exp,42,↑,up,↑,0.761858900077641,True,17,-1,0,10
Y2-S2-071K29,3,269,AS,exp,35,←,left,←,0.6160984998568892,True,17,1,1,11
Y2-S2-071K29,3,270,AS,exp,29,→,right,→,0.7258365997113287,True,16,1,0,11
Y2-S2-071K29,3,271,AS,exp,40,↑,up,↑,0.6577800996601582,True,16,1,0,11
Y2-S2-071K29,3,272,AS,exp,46,↓,down,↓,0.520669000223279,True,16,1,0,11
Y2-S2-071K29,3,273,AS,exp,36,→,up,↑,0.7405308000743389,False,15,-1,1,12
Y2-S2-071K29,3,274,AS,exp,39,←,left,←,0.5299050998874009,True,16,-1,0,12
Y2-S2-071K29,3,275,AS,exp,50,→,down,↓,0.780120899900794,False,16,-1,0,12
Y2-S2-071K29,3,276,AS,exp,44,↓,down,↓,0.7129422998987138,True,17,-1,0,12
Y2-S2-071K29,3,277,AS,exp,33,←,down,↓,0.8983716000802815,False,17,-1,0,12
Y2-S2-071K29,3,278,AS,exp,34,→,right,→,0.7370905000716448,True,18,-1,0,12
Y2-S2-071K29,3,279,AS,exp,31,↑,up,↑,0.7379445000551641,True,18,-1,0,12
Y2-S2-071K29,3,280,AS,exp,27,↓,down,↓,0.5682868002913892,True,18,1,1,13
Y2-S2-071K29,3,281,AS,exp,32,↑,up,↑,0.6190353999845684,True,17,1,0,13
Y2-S2-071K29,3,282,AS,exp,45,↓,down,↓,0.5745533001609147,True,17,1,0,13
Y2-S2-071K29,3,283,AS,exp,28,→,right,→,0.5982452002353966,True,17,1,0,13
Y2-S2-071K29,3,284,AS,exp,48,↑,up,↑,0.7426608996465802,True,16,1,0,13
Y2-S2-071K29,3,285,AS,exp,49,←,left,←,0.8377419002354145,True,16,1,0,13
Y2-S2-071K29,3,286,AS,exp,26,↓,down,↓,0.6472254996187985,True,16,1,0,13
Y2-S2-071K29,3,287,AS,exp,29,→,right,→,0.5810630000196397,True,15,1,0,13
Y2-S2-071K29,3,288,AS,exp,36,←,left,←,0.5539795998483896,True,15,1,0,13
Y2-S2-071K29,3,289,AS,exp,41,→,right,→,0.7857876000925899,True,15,1,0,13
Y2-S2-071K29,3,290,AS,exp,44,↑,up,↑,0.5952855995856225,True,14,1,0,13
Y2-S2-071K29,3,291,AS,exp,38,↓,down,↓,0.4742393000051379,True,14,1,0,13
Y2-S2-071K29,3,292,AS,exp,31,↑,up,↑,0.4836234003305435,True,14,1,0,13
Y2-S2-071K29,3,293,AS,exp,32,→,left,←,0.8098371000960469,False,13,-1,1,14
Y2-S2-071K29,3,294,AS,exp,46,↓,down,↓,0.5555843003094196,True,14,-1,0,14
Y2-S2-071K29,3,295,AS,exp,39,←,left,←,0.5918550002388656,True,14,-1,0,14
Y2-S2-071K29,3,296,AS,exp,40,→,right,→,0.6409280998632312,True,14,1,1,15
Y2-S2-071K29,3,297,AS,exp,32,↑,left,←,0.7700797999277711,False,13,-1,1,16
Y2-S2-071K29,4,298,PS,intra_train,35,↓,down,↓,0.6315705999732018,True,19,-,-,-
Y2-S2-071K29,4,299,PS,intra_train,32,→,right,→,0.59269730001688,True,19,-,-,-
Y2-S2-071K29,4,300,PS,intra_train,41,↑,up,↑,0.6810042001307011,True,19,-,-,-
Y2-S2-071K29,4,301,PS,intra_train,27,←,left,←,0.49269820004701614,True,19,-,-,-
Y2-S2-071K29,4,302,PS,intra_train,27,↓,down,↓,0.5643588001839817,True,19,-,-,-
Y2-S2-071K29,4,303,PS,exp,50,→,right,→,0.5311513999477029,True,13,0,0,0
Y2-S2-071K29,4,304,PS,exp,42,←,left,←,0.6642332999035716,True,13,0,0,0
Y2-S2-071K29,4,305,PS,exp,47,↑,up,↑,0.6126407999545336,True,13,1,0,0
Y2-S2-071K29,4,306,PS,exp,49,←,left,←,0.5986701999790967,True,12,1,0,0
Y2-S2-071K29,4,307,PS,exp,29,↑,left,←,0.7500339997932315,False,12,-1,1,1
Y2-S2-071K29,4,308,PS,exp,46,←,right,→,1.264017099980265,False,13,-1,0,1
Y2-S2-071K29,4,309,PS,exp,47,↓,down,↓,0.6029409999027848,True,14,-1,0,1
Y2-S2-071K29,4,310,PS,exp,25,→,right,→,0.5762348999269307,True,14,-1,0,1
Y2-S2-071K29,4,311,PS,exp,32,↓,down,↓,0.5226376000791788,True,14,1,1,2
Y2-S2-071K29,4,312,PS,exp,25,→,right,→,0.7544391001574695,True,13,1,0,2
Y2-S2-071K29,4,313,PS,exp,27,↓,down,↓,0.5201588999480009,True,13,1,0,2
Y2-S2-071K29,4,314,PS,exp,46,←,left,←,0.41414069989696145,True,13,1,0,2
Y2-S2-071K29,4,315,PS,exp,32,↑,left,←,0.6108463001437485,False,12,-1,1,3
Y2-S2-071K29,4,316,PS,exp,50,↓,down,↓,0.42706470005214214,True,13,-1,0,3
Y2-S2-071K29,4,317,PS,exp,33,↑,down,↓,0.6121670003049076,False,13,-1,0,3
Y2-S2-071K29,4,318,PS,exp,37,↓,down,↓,0.4131861999630928,True,14,-1,0,3
Y2-S2-071K29,4,319,PS,exp,43,↑,up,↑,0.5649681999348104,True,14,-1,0,3
Y2-S2-071K29,4,320,PS,exp,38,→,right,→,0.538816699758172,True,14,1,1,4
Y2-S2-071K29,4,321,PS,exp,33,↓,up,↑,0.7843873002566397,False,13,-1,1,5
Y2-S2-071K29,4,322,PS,exp,29,→,right,→,0.8163610999472439,True,14,-1,0,5
Y2-S2-071K29,4,323,PS,exp,25,↑,up,↑,0.5753062996082008,True,14,-1,0,5
Y2-S2-071K29,4,324,PS,exp,35,←,up,↑,0.6667257999069989,False,14,-1,0,5
Y2-S2-071K29,4,325,PS,exp,44,↓,down,↓,0.5515552996657789,True,15,-1,0,5
Y2-S2-071K29,4,326,PS,exp,30,↑,down,↓,0.6407669996842742,False,15,-1,0,5
Y2-S2-071K29,4,327,PS,exp,30,→,right,→,0.5542685003019869,True,16,-1,0,5
Y2-S2-071K29,4,328,PS,exp,33,←,right,→,0.7867328999564052,False,16,-1,0,5
Y2-S2-071K29,4,329,PS,exp,27,→,right,→,0.6187396999448538,True,17,-1,0,5
Y2-S2-071K29,4,330,PS,exp,41,←,left,←,0.5537943998351693,True,17,-1,0,5
Y2-S2-071K29,4,331,PS,exp,46,↓,down,↓,1.3145281001925468,True,17,1,1,6
Y2-S2-071K29,4,332,PS,exp,41,←,left,←,0.5695456000976264,True,16,1,0,6
Y2-S2-071K29,4,333,PS,exp,40,→,right,→,0.5695448997430503,True,16,1,0,6
Y2-S2-071K29,4,334,PS,exp,40,←,left,←,0.5556863001547754,True,16,1,0,6
Y2-S2-071K29,4,335,PS,exp,40,↓,down,↓,0.492979499977082,True,15,1,0,6
Y2-S2-071K29,4,336,PS,exp,26,→,right,→,0.7487795003689826,True,15,1,0,6
Y2-S2-071K29,4,337,PS,exp,44,↓,down,↓,0.6090311999432743,True,15,1,0,6
Y2-S2-071K29,4,338,PS,exp,33,↑,down,↓,0.6812026002444327,False,14,-1,1,7
Y2-S2-071K29,4,339,PS,exp,25,↓,down,↓,0.5603140001185238,True,15,-1,0,7
Y2-S2-071K29,4,340,PS,exp,26,→,right,→,0.6027633999474347,True,15,-1,0,7
Y2-S2-071K29,4,341,PS,exp,50,↓,down,↓,0.5176748996600509,True,15,1,1,8
Y2-S2-071K29,4,342,PS,exp,31,↑,up,↑,0.6243226998485625,True,14,1,0,8
Y2-S2-071K29,4,343,PS,exp,45,→,right,→,0.576214499771595,True,14,1,0,8
Y2-S2-071K29,4,344,PS,exp,45,↑,up,↑,0.6128921001218259,True,14,1,0,8
Y2-S2-071K29,4,345,PS,exp,50,↓,down,↓,0.5643377997912467,True,13,1,0,8
Y2-S2-071K29,4,346,PS,exp,38,↑,up,↑,0.5433189999312162,True,13,1,0,8
Y2-S2-071K29,4,347,PS,exp,27,→,right,→,0.6632715999148786,True,13,1,0,8
Y2-S2-071K29,4,348,PS,exp,44,↓,down,↓,0.6604086998850107,True,12,1,0,8
Y2-S2-071K29,4,349,PS,exp,41,→,right,→,0.6417434001341462,True,12,1,0,8
Y2-S2-071K29,4,350,PS,exp,46,←,left,←,0.5940190996043384,True,12,1,0,8
Y2-S2-071K29,4,351,PS,exp,31,→,right,→,0.7861481998115778,True,11,1,0,8
Y2-S2-071K29,4,352,PS,exp,47,↑,up,↑,0.5427076001651585,True,11,1,0,8
Y2-S2-071K29,4,353,PS,exp,36,←,right,→,0.7340104002505541,False,11,-1,1,9
Y2-S2-071K29,4,354,PS,exp,37,→,right,→,0.5329395001754165,True,12,-1,0,9
Y2-S2-071K29,4,355,PS,exp,43,↑,up,↑,0.6457745996303856,True,12,-1,0,9
Y2-S2-071K29,4,356,PS,exp,32,←,left,←,0.5604164996184409,True,12,1,1,10
Y2-S2-071K29,4,357,PS,exp,46,↓,up,↑,0.9262912999838591,False,11,-1,1,11
Y2-S2-071K29,4,358,PS,exp,28,↑,up,↑,0.5819446002133191,True,12,-1,0,11
Y2-S2-071K29,4,359,PS,exp,40,↓,up,↑,0.6083666998893023,False,12,-1,0,11
Y2-S2-071K29,4,360,PS,exp,30,→,right,→,0.5995768001303077,True,13,-1,0,11
Y2-S2-071K29,4,361,PS,exp,32,↑,up,↑,0.5597450998611748,True,13,-1,0,11
Y2-S2-071K29,4,362,PS,exp,42,→,right,→,0.5301457000896335,True,13,1,1,12
Y2-S2-071K29,4,363,PS,exp,30,↓,down,↓,0.5388857000507414,True,12,1,0,12
Y2-S2-071K29,4,364,PS,exp,45,↑,up,↑,0.5017804997041821,True,12,1,0,12
Y2-S2-071K29,4,365,PS,exp,46,←,left,←,0.6997503000311553,True,12,1,0,12
Y2-S2-071K29,4,366,PS,exp,36,→,right,→,0.6423605000600219,True,11,1,0,12
Y2-S2-071K29,4,367,PS,exp,34,↑,up,↑,0.5100875999778509,True,11,1,0,12
Y2-S2-071K29,4,368,PS,exp,41,←,left,←,0.6045744000002742,True,11,1,0,12
Y2-S2-071K29,4,369,PS,exp,45,↑,up,↑,0.49492179974913597,True,10,1,0,12
Y2-S2-071K29,4,370,PS,exp,46,←,left,←,0.648810800164938,True,10,1,0,12
Y2-S2-071K29,4,371,PS,exp,44,→,right,→,0.5375167997553945,True,10,1,0,12
Y2-S2-071K29,4,372,PS,exp,36,↓,down,↓,0.6211382998153567,True,9,1,0,12
Y2-S2-071K29,4,373,PS,exp,46,↑,down,↓,0.7500554001890123,False,9,-1,1,13
Y2-S2-071K29,4,374,PS,exp,33,←,left,←,0.6262351996265352,True,10,-1,0,13
Y2-S2-071K29,4,375,PS,exp,37,→,right,→,0.6194082000292838,True,10,-1,0,13
Y2-S2-071K29,4,376,PS,exp,49,↑,right,→,0.6089196000248194,False,10,-1,0,13
Y2-S2-071K29,4,377,PS,exp,44,↓,right,→,0.7172397002577782,False,11,-1,0,13
Y2-S2-071K29,4,378,PS,exp,30,→,right,→,0.5405845995992422,True,12,-1,0,13
Y2-S2-071K29,4,379,PS,exp,26,←,left,←,0.7410744996741414,True,12,-1,0,13
Y2-S2-071K29,4,380,PS,exp,26,↑,up,↑,0.5594963002949953,True,12,1,1,14
Y2-S2-071K29,4,381,PS,exp,50,←,left,←,0.4115327997133136,True,11,1,0,14
Y2-S2-071K29,4,382,PS,exp,37,↑,left,←,0.6511254999786615,False,11,-1,1,15
Y2-S2-071K29,4,383,PS,exp,40,↓,down,↓,0.5502788000740111,True,12,-1,0,15
Y2-S2-071K29,4,384,PS,exp,36,←,down,↓,0.5986518999561667,False,12,-1,0,15
Y2-S2-071K29,4,385,PS,exp,37,↑,up,↑,0.6557382997125387,True,13,-1,0,15
Y2-S2-071K29,4,386,PS,exp,35,←,left,←,0.557037599850446,True,13,-1,0,15
Y2-S2-071K29,4,387,PS,exp,27,→,right,→,0.58243010006845,True,13,1,1,16
Y2-S2-071K29,5,388,PS,intra_train,46,↑,up,↑,0.6522081000730395,True,19,-,-,-
Y2-S2-071K29,5,389,PS,intra_train,26,→,right,→,0.6246581999585032,True,19,-,-,-
Y2-S2-071K29,5,390,PS,intra_train,42,↓,down,↓,0.7038484001532197,True,19,-,-,-
Y2-S2-071K29,5,391,PS,intra_train,46,←,left,←,0.6232235999777913,True,19,-,-,-
Y2-S2-071K29,5,392,PS,intra_train,31,→,right,→,0.5948413000442088,True,19,-,-,-
Y2-S2-071K29,5,393,PS,exp,49,↓,down,↓,0.5528746000491083,True,13,0,0,0
Y2-S2-071K29,5,394,PS,exp,47,←,left,←,0.582551599945873,True,13,0,0,0
Y2-S2-071K29,5,395,PS,exp,32,↓,down,↓,0.4726240998134017,True,13,1,0,0
Y2-S2-071K29,5,396,PS,exp,43,→,right,→,0.6029106001369655,True,12,1,0,0
Y2-S2-071K29,5,397,PS,exp,43,←,left,←,0.7189879999496043,True,12,1,0,0
Y2-S2-071K29,5,398,PS,exp,44,↓,down,↓,0.46052439976483583,True,12,1,0,0
Y2-S2-071K29,5,399,PS,exp,41,↑,up,↑,0.5461414000019431,True,11,1,0,0
Y2-S2-071K29,5,400,PS,exp,36,→,right,→,0.724388999864459,True,11,1,0,0
Y2-S2-071K29,5,401,PS,exp,30,↑,up,↑,0.6074629998765886,True,11,1,0,0
Y2-S2-071K29,5,402,PS,exp,29,←,left,←,0.5545295998454094,True,10,1,0,0
Y2-S2-071K29,5,403,PS,exp,45,↑,left,←,0.8072643000632524,False,10,-1,1,1
Y2-S2-071K29,5,404,PS,exp,27,←,left,←,0.697337799705565,True,11,-1,0,1
Y2-S2-071K29,5,405,PS,exp,45,→,left,←,0.5035500000230968,False,11,-1,0,1
Y2-S2-071K29,5,406,PS,exp,46,↓,down,↓,0.5341134001500905,True,12,-1,0,1
Y2-S2-071K29,5,407,PS,exp,27,←,left,←,0.6065194001421332,True,12,-1,0,1
Y2-S2-071K29,5,408,PS,exp,32,↑,up,↑,0.6111189997754991,True,12,1,1,2
Y2-S2-071K29,5,409,PS,exp,25,→,right,→,0.6908304002135992,True,11,1,0,2
Y2-S2-071K29,5,410,PS,exp,40,↓,down,↓,0.6796230999752879,True,11,1,0,2
Y2-S2-071K29,5,411,PS,exp,38,↑,up,↑,0.5736245000734925,True,11,1,0,2
Y2-S2-071K29,5,412,PS,exp,47,→,right,→,0.5698780999518931,True,10,1,0,2
Y2-S2-071K29,5,413,PS,exp,45,↑,up,↑,0.5606331997551024,True,10,1,0,2
Y2-S2-071K29,5,414,PS,exp,36,←,left,←,0.6606997000053525,True,10,1,0,2
Y2-S2-071K29,5,415,PS,exp,31,→,left,←,0.8417095998302102,False,9,-1,1,3
Y2-S2-071K29,5,416,PS,exp,38,←,left,←,0.5838040001690388,True,10,-1,0,3
Y2-S2-071K29,5,417,PS,exp,35,↓,down,↓,0.5200366000644863,True,10,-1,0,3
Y2-S2-071K29,5,418,PS,exp,39,→,down,↓,0.6984171997755766,False,10,-1,0,3
Y2-S2-071K29,5,419,PS,exp,43,↑,up,↑,0.6257150997407734,True,11,-1,0,3
Y2-S2-071K29,5,420,PS,exp,30,→,right,→,0.5072947996668518,True,11,-1,0,3
Y2-S2-071K29,5,421,PS,exp,27,←,left,←,0.6237016003578901,True,11,1,1,4
Y2-S2-071K29,5,422,PS,exp,41,→,right,→,0.5867844996973872,True,10,1,0,4
Y2-S2-071K29,5,423,PS,exp,32,←,right,→,0.6480678003281355,False,10,-1,1,5
Y2-S2-071K29,5,424,PS,exp,32,→,right,→,0.545911599881947,True,11,-1,0,5
Y2-S2-071K29,5,425,PS,exp,46,←,left,←,0.5134803000837564,True,11,-1,0,5
Y2-S2-071K29,5,426,PS,exp,30,↓,left,←,0.5876771998591721,False,11,-1,0,5
Y2-S2-071K29,5,427,PS,exp,28,←,left,←,0.5095398002304137,True,12,-1,0,5
Y2-S2-071K29,5,428,PS,exp,32,↑,left,←,0.4272606000304222,False,12,-1,0,5
Y2-S2-071K29,5,429,PS,exp,28,→,right,→,0.5978963999077678,True,13,-1,0,5
Y2-S2-071K29,5,430,PS,exp,34,↓,down,↓,0.5919117997400463,True,13,-1,0,5
Y2-S2-071K29,5,431,PS,exp,42,↑,up,↑,0.8405575999058783,True,13,1,1,6
Y2-S2-071K29,5,432,PS,exp,40,↓,down,↓,0.579260400030762,True,12,1,0,6
Y2-S2-071K29,5,433,PS,exp,26,→,left,←,0.7743863998912275,False,12,-1,1,7
Y2-S2-071K29,5,434,PS,exp,27,↑,up,↑,0.6646866998635232,True,13,-1,0,7
Y2-S2-071K29,5,435,PS,exp,39,↓,down,↓,0.38961359998211265,True,13,-1,0,7
Y2-S2-071K29,5,436,PS,exp,30,↑,down,↓,0.7883472996763885,False,13,-1,0,7
Y2-S2-071K29,5,437,PS,exp,42,↓,down,↓,0.5008417000062764,True,14,-1,0,7
Y2-S2-071K29,5,438,PS,exp,41,←,left,←,0.5526235001161695,True,14,-1,0,7
Y2-S2-071K29,5,439,PS,exp,28,↑,up,↑,0.6171865002252162,True,14,1,1,8
Y2-S2-071K29,5,440,PS,exp,30,→,right,→,0.5249768998473883,True,13,1,0,8
Y2-S2-071K29,5,441,PS,exp,31,↓,down,↓,0.5184424999170005,True,13,1,0,8
Y2-S2-071K29,5,442,PS,exp,43,→,down,↓,0.8122566998936236,False,13,-1,1,9
Y2-S2-071K29,5,443,PS,exp,29,↑,up,↑,0.5339438002556562,True,14,-1,0,9
Y2-S2-071K29,5,444,PS,exp,35,←,left,←,0.6305360002443194,True,14,-1,0,9
Y2-S2-071K29,5,445,PS,exp,29,↑,up,↑,0.5053825997747481,True,14,1,1,10
Y2-S2-071K29,5,446,PS,exp,48,↓,up,↑,0.7822462003678083,False,13,-1,1,11
Y2-S2-071K29,5,447,PS,exp,31,←,left,←,0.5657771001569927,True,14,-1,0,11
Y2-S2-071K29,5,448,PS,exp,39,→,right,→,0.6315770000219345,True,14,-1,0,11
Y2-S2-071K29,5,449,PS,exp,50,↑,up,↑,0.5558986999094486,True,14,1,1,12
Y2-S2-071K29,5,450,PS,exp,38,↓,up,↑,0.829045900143683,False,13,-1,1,13
Y2-S2-071K29,5,451,PS,exp,30,↑,up,↑,0.5394792999140918,True,14,-1,0,13
Y2-S2-071K29,5,452,PS,exp,37,↓,down,↓,0.583143400028348,True,14,-1,0,13
Y2-S2-071K29,5,453,PS,exp,40,←,left,←,0.6057351003400981,True,14,1,1,14
Y2-S2-071K29,5,454,PS,exp,35,↓,down,↓,0.6032804003916681,True,13,1,0,14
Y2-S2-071K29,5,455,PS,exp,35,↑,up,↑,1.423763900063932,True,13,1,0,14
Y2-S2-071K29,5,456,PS,exp,49,→,right,→,0.6064579002559185,True,13,1,0,14
Y2-S2-071K29,5,457,PS,exp,50,↑,up,↑,0.5004042000509799,True,12,1,0,14
Y2-S2-071K29,5,458,PS,exp,40,↓,down,↓,0.5506032998673618,True,12,1,0,14
Y2-S2-071K29,5,459,PS,exp,28,↑,up,↑,0.5552273001521826,True,12,1,0,14
Y2-S2-071K29,5,460,PS,exp,50,↓,down,↓,0.45869849994778633,True,11,1,0,14
Y2-S2-071K29,5,461,PS,exp,40,←,left,←,0.6945668999105692,True,11,1,0,14
Y2-S2-071K29,5,462,PS,exp,35,→,down,↓,0.6702620997093618,False,11,-1,1,15
Y2-S2-071K29,5,463,PS,exp,28,←,left,←,0.5077985003590584,True,12,-1,0,15
Y2-S2-071K29,5,464,PS,exp,33,→,right,→,0.6149532999843359,True,12,-1,0,15
Y2-S2-071K29,5,465,PS,exp,48,↓,down,↓,0.5026294998824596,True,12,1,1,16
Y2-S2-071K29,6,466,AS,intra_train,31,←,left,←,1.8633229001425207,True,25,-,-,-
Y2-S2-071K29,6,467,AS,intra_train,26,→,right,→,0.7447556997649372,True,25,-,-,-
Y2-S2-071K29,6,468,AS,intra_train,47,↑,up,↑,0.7308042999356985,True,25,-,-,-
Y2-S2-071K29,6,469,AS,intra_train,38,←,left,←,0.7331292000599205,True,25,-,-,-
Y2-S2-071K29,6,470,AS,intra_train,42,↑,up,↑,0.5887005999684334,True,25,-,-,-
Y2-S2-071K29,6,471,AS,exp,49,→,right,→,0.6683808001689613,True,17,0,0,0
Y2-S2-071K29,6,472,AS,exp,30,↓,down,↓,0.9881058996543288,True,17,0,0,0
Y2-S2-071K29,6,473,AS,exp,46,←,left,←,1.0962648000568151,True,17,1,0,0
Y2-S2-071K29,6,474,AS,exp,42,↓,down,↓,0.7195917000062764,True,16,1,0,0
Y2-S2-071K29,6,475,AS,exp,27,→,right,→,0.6465251999907196,True,16,1,0,0
Y2-S2-071K29,6,476,AS,exp,28,↓,left,←,0.7846437999978662,False,16,-1,1,1
Y2-S2-071K29,6,477,AS,exp,44,→,right,→,1.1850916999392211,True,17,-1,0,1
Y2-S2-071K29,6,478,AS,exp,37,↓,left,←,0.8053399999625981,False,17,-1,0,1
Y2-S2-071K29,6,479,AS,exp,31,←,left,←,0.6144054997712374,True,18,-1,0,1
Y2-S2-071K29,6,480,AS,exp,45,↓,down,↓,0.5444681998342276,True,18,-1,0,1
Y2-S2-071K29,6,481,AS,exp,36,↑,up,↑,0.5369265000335872,True,18,1,1,2
Y2-S2-071K29,6,482,AS,exp,48,→,right,→,0.6569806998595595,True,17,1,0,2
Y2-S2-071K29,6,483,AS,exp,25,↑,up,↑,0.6098696999251842,True,17,1,0,2
Y2-S2-071K29,6,484,AS,exp,32,↓,down,↓,0.4888866003602743,True,17,1,0,2
Y2-S2-071K29,6,485,AS,exp,42,→,right,→,0.5666424999944866,True,16,1,0,2
Y2-S2-071K29,6,486,AS,exp,27,↑,up,↑,0.6018763999454677,True,16,1,0,2
Y2-S2-071K29,6,487,AS,exp,35,↓,down,↓,0.5882653999142349,True,16,1,0,2
Y2-S2-071K29,6,488,AS,exp,26,←,left,←,0.6240042997524142,True,15,1,0,2
Y2-S2-071K29,6,489,AS,exp,25,↓,down,↓,0.7378020999021828,True,15,1,0,2
Y2-S2-071K29,6,490,AS,exp,36,←,left,←,0.6389763997867703,True,15,1,0,2
Y2-S2-071K29,6,491,AS,exp,43,↑,up,↑,0.6082366001792252,True,14,1,0,2
Y2-S2-071K29,6,492,AS,exp,49,↓,right,→,0.7827941998839378,False,14,-1,1,3
Y2-S2-071K29,6,493,AS,exp,39,→,right,→,0.5990458000451326,True,15,-1,0,3
Y2-S2-071K29,6,494,AS,exp,32,↓,down,↓,0.7882329998537898,True,15,-1,0,3
Y2-S2-071K29,6,495,AS,exp,39,→,right,→,0.6321519003249705,True,15,1,1,4
Y2-S2-071K29,6,496,AS,exp,34,←,left,←,0.6841592998243868,True,14,1,0,4
Y2-S2-071K29,6,497,AS,exp,49,→,right,→,0.6848651003092527,True,14,1,0,4
Y2-S2-071K29,6,498,AS,exp,27,↑,up,↑,0.6683855000883341,True,14,1,0,4
Y2-S2-071K29,6,499,AS,exp,32,←,left,←,0.8866368997842073,True,13,1,0,4
Y2-S2-071K29,6,500,AS,exp,49,↓,down,↓,0.6324805999174714,True,13,1,0,4
Y2-S2-071K29,6,501,AS,exp,31,→,right,→,0.6868433998897672,True,13,1,0,4
Y2-S2-071K29,6,502,AS,exp,42,↑,up,↑,0.574800499714911,True,12,1,0,4
Y2-S2-071K29,6,503,AS,exp,48,↓,down,↓,0.516259899828583,True,12,1,0,4
Y2-S2-071K29,6,504,AS,exp,40,←,left,←,0.7251503998413682,True,12,1,0,4
Y2-S2-071K29,6,505,AS,exp,48,↓,down,↓,0.6420801999047399,True,11,1,0,4
Y2-S2-071K29,6,506,AS,exp,39,→,right,→,0.679708399809897,True,11,1,0,4
Y2-S2-071K29,6,507,AS,exp,35,←,right,→,0.5203208001330495,False,11,-1,1,5
Y2-S2-071K29,6,508,AS,exp,39,↓,down,↓,0.5544473002664745,True,12,-1,0,5
Y2-S2-071K29,6,509,AS,exp,48,←,down,↓,0.6687667001970112,False,12,-1,0,5
Y2-S2-071K29,6,510,AS,exp,43,↑,left,←,0.7374221999198198,False,13,-1,0,5
Y2-S2-071K29,6,511,AS,exp,50,→,left,←,0.6934048999100924,False,14,-1,0,5
Y2-S2-071K29,6,512,AS,exp,35,↑,up,↑,0.5745501997880638,True,15,-1,0,5
Y2-S2-071K29,6,513,AS,exp,40,→,right,→,0.6708911000750959,True,15,-1,0,5
Y2-S2-071K29,6,514,AS,exp,34,←,left,←,0.5407786001451313,True,15,1,1,6
Y2-S2-071K29,6,515,AS,exp,38,↓,down,↓,0.6572038000449538,True,14,1,0,6
Y2-S2-071K29,6,516,AS,exp,49,→,right,→,0.5301327998749912,True,14,1,0,6
Y2-S2-071K29,6,517,AS,exp,40,↓,down,↓,0.523807399906218,True,14,1,0,6
Y2-S2-071K29,6,518,AS,exp,38,→,right,→,0.49688419979065657,True,13,1,0,6
Y2-S2-071K29,6,519,AS,exp,30,↑,up,↑,0.6715599000453949,True,13,1,0,6
Y2-S2-071K29,6,520,AS,exp,29,→,right,→,0.5242402004078031,True,13,1,0,6
Y2-S2-071K29,6,521,AS,exp,32,←,down,↓,0.5785205997526646,False,12,-1,1,7
Y2-S2-071K29,6,522,AS,exp,44,↓,right,→,0.7791187996044755,False,13,-1,0,7
Y2-S2-071K29,6,523,AS,exp,43,→,right,→,0.6141261998564005,True,14,-1,0,7
Y2-S2-071K29,6,524,AS,exp,33,↑,right,→,0.6257346998900175,False,14,-1,0,7
Y2-S2-071K29,6,525,AS,exp,42,↓,down,↓,0.6003729002550244,True,15,-1,0,7
Y2-S2-071K29,6,526,AS,exp,29,↑,up,↑,0.6197790000587702,True,15,-1,0,7
Y2-S2-071K29,6,527,AS,exp,50,←,right,→,0.45042139990255237,False,15,-1,0,7
Y2-S2-071K29,6,528,AS,exp,50,↑,up,↑,0.9639940001070499,True,16,-1,0,7
Y2-S2-071K29,6,529,AS,exp,44,→,up,↑,0.8324273000471294,False,16,-1,0,7
Y2-S2-071K29,6,530,AS,exp,43,↑,left,←,1.099643100053072,False,17,-1,0,7
Y2-S2-071K29,6,531,AS,exp,49,↓,down,↓,0.5582085000351071,True,18,-1,0,7
Y2-S2-071K29,6,532,AS,exp,47,→,right,→,0.5585803999565542,True,18,-1,0,7
Y2-S2-071K29,6,533,AS,exp,32,↓,down,↓,0.9341247002594173,True,18,1,1,8
Y2-S2-071K29,6,534,AS,exp,46,→,right,→,0.6700925999321043,True,17,1,0,8
Y2-S2-071K29,6,535,AS,exp,32,↑,up,↑,0.6565164001658559,True,17,1,0,8
Y2-S2-071K29,6,536,AS,exp,29,↓,up,↑,0.7807550998404622,False,17,-1,1,9
Y2-S2-071K29,6,537,AS,exp,37,↑,up,↑,0.6919549000449479,True,18,-1,0,9
Y2-S2-071K29,6,538,AS,exp,46,←,right,→,0.6319631999358535,False,18,-1,0,9
Y2-S2-071K29,6,539,AS,exp,35,↑,up,↑,0.63049800042063,True,19,-1,0,9
Y2-S2-071K29,6,540,AS,exp,49,↓,down,↓,1.3339289999566972,True,19,-1,0,9
Y2-S2-071K29,6,541,AS,exp,34,↑,up,↑,0.6527161998674273,True,19,1,1,10
Y2-S2-071K29,6,542,AS,exp,42,←,left,←,0.6676131999120116,True,18,1,0,10
Y2-S2-071K29,6,543,AS,exp,50,↑,up,↑,0.5334930000826716,True,18,1,0,10
Y2-S2-071K29,6,544,AS,exp,33,↓,down,↓,0.5386025998741388,True,18,1,0,10
Y2-S2-071K29,6,545,AS,exp,43,→,right,→,0.6202225000597537,True,17,1,0,10
Y2-S2-071K29,6,546,AS,exp,36,↓,down,↓,0.5750280995853245,True,17,1,0,10
Y2-S2-071K29,6,547,AS,exp,41,↑,down,↓,0.8035351997241378,False,17,-1,1,11
Y2-S2-071K29,6,548,AS,exp,43,←,left,←,0.7263390999287367,True,18,-1,0,11
Y2-S2-071K29,6,549,AS,exp,33,→,right,→,0.6984441000968218,True,18,-1,0,11
Y2-S2-071K29,6,550,AS,exp,44,↑,up,↑,0.5961735998280346,True,18,1,1,12
Y2-S2-071K29,6,551,AS,exp,44,→,right,→,0.8069457998499274,True,17,1,0,12
Y2-S2-071K29,6,552,AS,exp,35,↓,up,↑,0.691472299862653,False,17,-1,1,13
Y2-S2-071K29,6,553,AS,exp,29,↑,up,↑,0.5945934001356363,True,18,-1,0,13
Y2-S2-071K29,6,554,AS,exp,27,↓,down,↓,0.5905213002115488,True,18,-1,0,13
Y2-S2-071K29,6,555,AS,exp,29,→,right,→,0.5442913002334535,True,18,1,1,14
Y2-S2-071K29,6,556,AS,exp,42,↓,down,↓,0.6521882996894419,True,17,1,0,14
Y2-S2-071K29,6,557,AS,exp,46,←,right,→,0.9484260003082454,False,17,-1,1,15
Y2-S2-071K29,6,558,AS,exp,41,→,right,→,0.5832242998294532,True,18,-1,0,15
Y2-S2-071K29,6,559,AS,exp,41,↑,up,↑,0.6796466000378132,True,18,-1,0,15
Y2-S2-071K29,6,560,AS,exp,37,←,left,←,0.6675851000472903,True,18,1,1,16
Y2-S2-071K29,7,561,AS,intra_train,46,↑,up,↑,0.7339239995926619,True,25,-,-,-
Y2-S2-071K29,7,562,AS,intra_train,27,→,right,→,0.550428899936378,True,25,-,-,-
Y2-S2-071K29,7,563,AS,intra_train,50,↓,down,↓,0.7918727998621762,True,25,-,-,-
Y2-S2-071K29,7,564,AS,intra_train,27,→,right,→,0.5994228003546596,True,25,-,-,-
Y2-S2-071K29,7,565,AS,intra_train,43,←,left,←,0.8856637999415398,True,25,-,-,-
Y2-S2-071K29,7,566,AS,exp,25,→,right,→,0.5908408001996577,True,17,0,0,0
Y2-S2-071K29,7,567,AS,exp,33,↓,down,↓,0.6109755001962185,True,17,0,0,0
Y2-S2-071K29,7,568,AS,exp,33,↑,up,↑,0.5325841000303626,True,17,1,0,0
Y2-S2-071K29,7,569,AS,exp,32,↓,down,↓,0.7103013996966183,True,16,1,0,0
Y2-S2-071K29,7,570,AS,exp,49,→,down,↓,1.0780686000362039,False,16,-1,1,1
Y2-S2-071K29,7,571,AS,exp,29,↓,down,↓,0.5386832002550364,True,17,-1,0,1
Y2-S2-071K29,7,572,AS,exp,25,→,right,→,0.5751090999692678,True,17,-1,0,1
Y2-S2-071K29,7,573,AS,exp,48,↓,down,↓,0.9543359996750951,True,17,1,1,2
Y2-S2-071K29,7,574,AS,exp,28,↑,up,↑,0.9141079001128674,True,16,1,0,2
Y2-S2-071K29,7,575,AS,exp,31,→,right,→,0.6333033996634185,True,16,1,0,2
Y2-S2-071K29,7,576,AS,exp,32,←,left,←,0.7596259000711143,True,16,1,0,2
Y2-S2-071K29,7,577,AS,exp,32,→,right,→,0.5146588003262877,True,15,1,0,2
Y2-S2-071K29,7,578,AS,exp,50,↓,down,↓,0.6648895996622741,True,15,1,0,2
Y2-S2-071K29,7,579,AS,exp,35,←,left,←,0.8486816002987325,True,15,1,0,2
Y2-S2-071K29,7,580,AS,exp,46,↓,left,←,0.7634099000133574,False,14,-1,1,3
Y2-S2-071K29,7,581,AS,exp,38,←,left,←,0.847495200112462,True,15,-1,0,3
Y2-S2-071K29,7,582,AS,exp,29,→,right,→,0.6126709999516606,True,15,-1,0,3
Y2-S2-071K29,7,583,AS,exp,27,←,left,←,0.6309371995739639,True,15,1,1,4
Y2-S2-071K29,7,584,AS,exp,34,→,left,←,0.6616974999196827,False,14,-1,1,5
Y2-S2-071K29,7,585,AS,exp,40,↓,down,↓,0.5666179000400007,True,15,-1,0,5
Y2-S2-071K29,7,586,AS,exp,32,←,left,←,0.6710127000696957,True,15,-1,0,5
Y2-S2-071K29,7,587,AS,exp,32,→,right,→,0.65440130000934,True,15,1,1,6
Y2-S2-071K29,7,588,AS,exp,31,↑,up,↑,0.7013114001601934,True,14,1,0,6
Y2-S2-071K29,7,589,AS,exp,32,↓,down,↓,0.6367341997101903,True,14,1,0,6
Y2-S2-071K29,7,590,AS,exp,43,→,right,→,0.5818794998340309,True,14,1,0,6
Y2-S2-071K29,7,591,AS,exp,26,←,left,←,0.6370565998367965,True,13,1,0,6
Y2-S2-071K29,7,592,AS,exp,36,↓,down,↓,0.4620594000443816,True,13,1,0,6
Y2-S2-071K29,7,593,AS,exp,30,←,left,←,0.6577851995825768,True,13,1,0,6
Y2-S2-071K29,7,594,AS,exp,44,↑,up,↑,0.7656320999376476,True,12,1,0,6
Y2-S2-071K29,7,595,AS,exp,26,←,left,←,0.7037549000233412,True,12,1,0,6
Y2-S2-071K29,7,596,AS,exp,37,↓,up,↑,0.7876925999298692,False,12,-1,1,7
Y2-S2-071K29,7,597,AS,exp,40,→,left,←,0.6073523997329175,False,13,-1,0,7
Y2-S2-071K29,7,598,AS,exp,48,←,left,←,0.7069898000918329,True,14,-1,0,7
Y2-S2-071K29,7,599,AS,exp,29,↓,left,←,0.7946370001882315,False,14,-1,0,7
Y2-S2-071K29,7,600,AS,exp,28,←,left,←,0.7605039002373815,True,15,-1,0,7
Y2-S2-071K29,7,601,AS,exp,36,→,right,→,0.5623907996341586,True,15,-1,0,7
Y2-S2-071K29,7,602,AS,exp,31,←,left,←,0.5546380002051592,True,15,1,1,8
Y2-S2-071K29,7,603,AS,exp,44,↓,down,↓,0.48602049984037876,True,14,1,0,8
Y2-S2-071K29,7,604,AS,exp,47,↑,up,↑,0.614103099796921,True,14,1,0,8
Y2-S2-071K29,7,605,AS,exp,37,←,left,←,0.5057973000220954,True,14,1,0,8
Y2-S2-071K29,7,606,AS,exp,27,→,right,→,0.5530718001537025,True,13,1,0,8
Y2-S2-071K29,7,607,AS,exp,49,↑,up,↑,0.8201036998070776,True,13,1,0,8
Y2-S2-071K29,7,608,AS,exp,33,←,up,↑,0.8851605001837015,False,13,-1,1,9
Y2-S2-071K29,7,609,AS,exp,49,↓,left,←,0.8113897000439465,False,14,-1,0,9
Y2-S2-071K29,7,610,AS,exp,33,←,left,←,0.6536314999684691,True,15,-1,0,9
Y2-S2-071K29,7,611,AS,exp,40,→,up,↑,0.9848134000785649,False,15,-1,0,9
Y2-S2-071K29,7,612,AS,exp,28,←,left,←,0.5920231998898089,True,16,-1,0,9
Y2-S2-071K29,7,613,AS,exp,37,↑,up,↑,0.61677740002051,True,16,-1,0,9
Y2-S2-071K29,7,614,AS,exp,48,←,left,←,0.5919711999595165,True,16,1,1,10
Y2-S2-071K29,7,615,AS,exp,26,↓,down,↓,0.6824427000246942,True,15,1,0,10
Y2-S2-071K29,7,616,AS,exp,37,→,right,→,0.6643805000931025,True,15,1,0,10
Y2-S2-071K29,7,617,AS,exp,49,↓,right,→,1.017141600139439,False,15,-1,1,11
Y2-S2-071K29,7,618,AS,exp,42,↑,up,↑,0.6932876002974808,True,16,-1,0,11
Y2-S2-071K29,7,619,AS,exp,45,←,left,←,0.6140634003095329,True,16,-1,0,11
Y2-S2-071K29,7,620,AS,exp,25,↑,up,↑,0.7207665997557342,True,16,1,1,12
Y2-S2-071K29,7,621,AS,exp,28,←,left,←,0.6145636001601815,True,15,1,0,12
Y2-S2-071K29,7,622,AS,exp,39,↓,down,↓,0.5563042000867426,True,15,1,0,12
Y2-S2-071K29,7,623,AS,exp,45,←,left,←,0.6391059001907706,True,15,1,0,12
Y2-S2-071K29,7,624,AS,exp,41,→,left,←,0.7729907999746501,False,14,-1,1,13
Y2-S2-071K29,7,625,AS,exp,38,↓,left,←,0.7163738999515772,False,15,-1,0,13
Y2-S2-071K29,7,626,AS,exp,37,↑,up,↑,0.6582957999780774,True,16,-1,0,13
Y2-S2-071K29,7,627,AS,exp,48,→,right,→,0.6262730997987092,True,16,-1,0,13
Y2-S2-071K29,7,628,AS,exp,25,↓,down,↓,0.6791916997171938,True,16,1,1,14
Y2-S2-071K29,7,629,AS,exp,25,↑,down,↓,0.7220100001432002,False,15,-1,1,15
Y2-S2-071K29,7,630,AS,exp,32,↓,down,↓,0.6996288001537323,True,16,-1,0,15
Y2-S2-071K29,7,631,AS,exp,50,→,right,→,0.9896029001101851,True,16,-1,0,15
Y2-S2-071K29,7,632,AS,exp,32,↑,right,→,1.6371597996912897,False,16,-1,0,15
Y2-S2-071K29,7,633,AS,exp,27,←,left,←,0.6712709004059434,True,17,-1,0,15
Y2-S2-071K29,7,634,AS,exp,26,→,left,←,0.6177798002026975,False,17,-1,0,15
Y2-S2-071K29,7,635,AS,exp,30,↑,up,↑,0.7208979995921254,True,18,-1,0,15
Y2-S2-071K29,7,636,AS,exp,39,→,right,→,1.1369618000462651,True,18,-1,0,15
Y2-S2-071K29,7,637,AS,exp,44,↑,up,↑,0.6248069000430405,True,18,1,1,16
Y2-S2-071K29,8,638,PS,intra_train,34,→,right,→,0.6359266000799835,True,19,-,-,-
Y2-S2-071K29,8,639,PS,intra_train,39,↓,down,↓,0.5732640000060201,True,19,-,-,-
Y2-S2-071K29,8,640,PS,intra_train,30,←,left,←,0.5550302001647651,True,19,-,-,-
Y2-S2-071K29,8,641,PS,intra_train,48,↑,up,↑,0.7116879001259804,True,19,-,-,-
Y2-S2-071K29,8,642,PS,intra_train,39,←,left,←,1.2471684999763966,True,19,-,-,-
Y2-S2-071K29,8,643,PS,exp,33,↑,up,↑,0.651570400223136,True,13,0,0,0
Y2-S2-071K29,8,644,PS,exp,35,↓,down,↓,0.5831189001910388,True,13,0,0,0
Y2-S2-071K29,8,645,PS,exp,42,→,right,→,0.717460900079459,True,13,1,0,0
Y2-S2-071K29,8,646,PS,exp,34,←,left,←,0.6034160000272095,True,12,1,0,0
Y2-S2-071K29,8,647,PS,exp,48,↓,left,←,0.610048099886626,False,12,-1,1,1
Y2-S2-071K29,8,648,PS,exp,30,→,right,→,0.6262276000343263,True,13,-1,0,1
Y2-S2-071K29,8,649,PS,exp,41,↑,up,↑,0.6471005999483168,True,13,-1,0,1
Y2-S2-071K29,8,650,PS,exp,27,→,right,→,0.6548289000056684,True,13,1,1,2
Y2-S2-071K29,8,651,PS,exp,42,←,left,←,0.5419811997562647,True,12,1,0,2
Y2-S2-071K29,8,652,PS,exp,36,↑,up,↑,0.6016491996124387,True,12,1,0,2
Y2-S2-071K29,8,653,PS,exp,36,↓,down,↓,0.5761660002171993,True,12,1,0,2
Y2-S2-071K29,8,654,PS,exp,29,→,right,→,0.5929262000136077,True,11,1,0,2
Y2-S2-071K29,8,655,PS,exp,43,←,left,←,0.5237234998494387,True,11,1,0,2
Y2-S2-071K29,8,656,PS,exp,47,→,right,→,0.6385107999667525,True,11,1,0,2
Y2-S2-071K29,8,657,PS,exp,30,↑,up,↑,0.6119572999887168,True,10,1,0,2
Y2-S2-071K29,8,658,PS,exp,25,↓,right,→,0.9132670001126826,False,10,-1,1,3
Y2-S2-071K29,8,659,PS,exp,34,→,right,→,0.5698900995776057,True,11,-1,0,3
Y2-S2-071K29,8,660,PS,exp,28,↓,right,→,0.8794566001743078,False,11,-1,0,3
Y2-S2-071K29,8,661,PS,exp,27,→,right,→,0.5980735998600721,True,12,-1,0,3
Y2-S2-071K29,8,662,PS,exp,47,↑,up,↑,0.7104790001176298,True,12,-1,0,3
Y2-S2-071K29,8,663,PS,exp,28,↓,down,↓,0.6099322000518441,True,12,1,1,4
Y2-S2-071K29,8,664,PS,exp,35,↑,down,↓,0.6569930999539793,False,11,-1,1,5
Y2-S2-071K29,8,665,PS,exp,37,→,right,→,0.5360722998157144,True,12,-1,0,5
Y2-S2-071K29,8,666,PS,exp,30,↑,up,↑,0.6940067000687122,True,12,-1,0,5
Y2-S2-071K29,8,667,PS,exp,47,←,left,←,0.6946996999904513,True,12,1,1,6
Y2-S2-071K29,8,668,PS,exp,37,→,right,→,0.5199564998038113,True,11,1,0,6
Y2-S2-071K29,8,669,PS,exp,33,↑,up,↑,0.6002255002968013,True,11,1,0,6
Y2-S2-071K29,8,670,PS,exp,48,←,up,↑,0.6639572000131011,False,11,-1,1,7
Y2-S2-071K29,8,671,PS,exp,31,↓,down,↓,0.5750401001423597,True,12,-1,0,7
Y2-S2-071K29,8,672,PS,exp,40,↑,up,↑,0.652456899639219,True,12,-1,0,7
Y2-S2-071K29,8,673,PS,exp,26,→,up,↑,0.7874440997838974,False,12,-1,0,7
Y2-S2-071K29,8,674,PS,exp,26,←,left,←,0.6744995000772178,True,13,-1,0,7
Y2-S2-071K29,8,675,PS,exp,46,↑,up,↑,0.6027612001635134,True,13,-1,0,7
Y2-S2-071K29,8,676,PS,exp,47,←,left,←,0.5890538999810815,True,13,1,1,8
Y2-S2-071K29,8,677,PS,exp,35,↓,down,↓,0.6538049001246691,True,12,1,0,8
Y2-S2-071K29,8,678,PS,exp,26,←,left,←,0.5960868000984192,True,12,1,0,8
Y2-S2-071K29,8,679,PS,exp,30,↓,down,↓,0.5363389998674393,True,12,1,0,8
Y2-S2-071K29,8,680,PS,exp,37,→,right,→,0.6732299001887441,True,11,1,0,8
Y2-S2-071K29,8,681,PS,exp,31,↓,down,↓,0.49570979969576,True,11,1,0,8
Y2-S2-071K29,8,682,PS,exp,45,↑,up,↑,0.6087109996005893,True,11,1,0,8
Y2-S2-071K29,8,683,PS,exp,44,↓,down,↓,0.5757863000035286,True,10,1,0,8
Y2-S2-071K29,8,684,PS,exp,26,←,down,↓,1.073019300121814,False,10,-1,1,9
Y2-S2-071K29,8,685,PS,exp,50,↓,left,←,0.6732465997338295,False,11,-1,0,9
Y2-S2-071K29,8,686,PS,exp,50,←,left,←,0.5798825998790562,True,12,-1,0,9
Y2-S2-071K29,8,687,PS,exp,50,↓,down,↓,0.5602925000712276,True,12,-1,0,9
Y2-S2-071K29,8,688,PS,exp,39,↑,up,↑,0.7009324999526143,True,12,1,1,10
Y2-S2-071K29,8,689,PS,exp,26,←,left,←,0.6729158000089228,True,11,1,0,10
Y2-S2-071K29,8,690,PS,exp,28,→,right,→,0.6279079997912049,True,11,1,0,10
Y2-S2-071K29,8,691,PS,exp,39,←,left,←,0.6336280000396073,True,11,1,0,10
Y2-S2-071K29,8,692,PS,exp,26,→,right,→,0.6313812998123467,True,10,1,0,10
Y2-S2-071K29,8,693,PS,exp,41,←,left,←,0.5425976002588868,True,10,1,0,10
Y2-S2-071K29,8,694,PS,exp,43,↑,up,↑,0.5612629000097513,True,10,1,0,10
Y2-S2-071K29,8,695,PS,exp,45,←,left,←,0.5663804998621345,True,9,1,0,10
Y2-S2-071K29,8,696,PS,exp,28,↓,left,←,0.9258575001731515,False,9,-1,1,11
Y2-S2-071K29,8,697,PS,exp,27,→,right,→,0.5930077000521123,True,10,-1,0,11
Y2-S2-071K29,8,698,PS,exp,46,↑,up,↑,0.71139350021258,True,10,-1,0,11
Y2-S2-071K29,8,699,PS,exp,25,↓,down,↓,0.663633500225842,True,10,1,1,12
Y2-S2-071K29,8,700,PS,exp,38,↑,up,↑,0.6684334999881685,True,9,1,0,12
Y2-S2-071K29,8,701,PS,exp,35,→,right,→,0.5661084000021219,True,9,1,0,12
Y2-S2-071K29,8,702,PS,exp,30,↓,down,↓,0.7058855001814663,True,9,1,0,12
Y2-S2-071K29,8,703,PS,exp,47,←,down,↓,0.5750843998976052,False,8,-1,1,13
Y2-S2-071K29,8,704,PS,exp,45,→,right,→,0.540136200375855,True,9,-1,0,13
Y2-S2-071K29,8,705,PS,exp,50,↑,right,→,1.064728899858892,False,9,-1,0,13
Y2-S2-071K29,8,706,PS,exp,32,↓,down,↓,0.5679485998116434,True,10,-1,0,13
Y2-S2-071K29,8,707,PS,exp,38,→,down,↓,0.5266975001432002,False,10,-1,0,13
Y2-S2-071K29,8,708,PS,exp,25,↑,down,↓,0.6169007001444697,False,11,-1,0,13
Y2-S2-071K29,8,709,PS,exp,50,→,up,↑,0.5186565001495183,False,12,-1,0,13
Y2-S2-071K29,8,710,PS,exp,26,↓,up,↑,0.5985060003586113,False,13,-1,0,13
Y2-S2-071K29,8,711,PS,exp,27,←,left,←,0.5775415999814868,True,14,-1,0,13
Y2-S2-071K29,8,712,PS,exp,34,↑,left,←,0.7493798998184502,False,14,-1,0,13
Y2-S2-071K29,8,713,PS,exp,25,←,left,←,0.6325476998463273,True,15,-1,0,13
Y2-S2-071K29,8,714,PS,exp,40,↓,down,↓,0.5797789003700018,True,15,-1,0,13
Y2-S2-071K29,8,715,PS,exp,43,←,left,←,0.6399718998000026,True,15,1,1,14
Y2-S2-071K29,8,716,PS,exp,32,→,right,→,0.5854492001235485,True,14,1,0,14
Y2-S2-071K29,8,717,PS,exp,29,↑,up,↑,0.5718058003112674,True,14,1,0,14
Y2-S2-071K29,8,718,PS,exp,40,←,left,←,0.6244583996012807,True,14,1,0,14
Y2-S2-071K29,8,719,PS,exp,43,↑,up,↑,0.5560749000869691,True,13,1,0,14
Y2-S2-071K29,8,720,PS,exp,46,←,left,←,0.557766200043261,True,13,1,0,14
Y2-S2-071K29,8,721,PS,exp,33,→,right,→,0.628169999923557,True,13,1,0,14
Y2-S2-071K29,8,722,PS,exp,28,↓,up,↑,0.7024269998073578,False,12,-1,1,15
Y2-S2-071K29,8,723,PS,exp,43,→,right,→,0.541737399995327,True,13,-1,0,15
Y2-S2-071K29,8,724,PS,exp,43,↑,up,↑,0.5553119000978768,True,13,-1,0,15
Y2-S2-071K29,8,725,PS,exp,48,←,left,←,0.5740786995738745,True,13,1,1,16
