PART_ID,Block_no,Trial_no,Block_type,Trial_type,CSI,Stim_letter,Key_pressed,letter_choose,Rt,Corr,Stimulus Time,Level,Reversal,Revs_count
Y2-S2-020K19,1,1,PS,train,38,→,right,→,0.5341469999402761,True,30,-,-,-
Y2-S2-020K19,1,2,PS,train,37,↑,up,↑,0.5677110999822617,True,30,-,-,-
Y2-S2-020K19,1,3,PS,train,41,←,left,←,0.3843745000194758,True,30,-,-,-
Y2-S2-020K19,1,4,PS,train,47,↓,down,↓,1.5048070999328047,True,30,-,-,-
Y2-S2-020K19,1,5,PS,train,37,↑,up,↑,0.5337844998575747,True,30,-,-,-
Y2-S2-020K19,1,6,PS,train,31,→,right,→,0.7022158000618219,True,30,-,-,-
Y2-S2-020K19,1,7,PS,train,25,↑,up,↑,0.5504802998621017,True,30,-,-,-
Y2-S2-020K19,1,8,PS,train,34,→,right,→,0.5338147000875324,True,30,-,-,-
Y2-S2-020K19,1,9,PS,train,50,↑,up,↑,0.4506812999024987,True,30,-,-,-
Y2-S2-020K19,1,10,PS,train,50,→,right,→,0.5508638001047075,True,30,-,-,-
Y2-S2-020K19,2,11,AS,train,34,←,left,←,0.6845158999785781,True,45,-,-,-
Y2-S2-020K19,2,12,AS,train,46,→,right,→,0.46786420000717044,True,45,-,-,-
Y2-S2-020K19,2,13,AS,train,42,↓,down,↓,0.6677738002035767,True,45,-,-,-
Y2-S2-020K19,2,14,AS,train,28,←,left,←,0.650922300061211,True,45,-,-,-
Y2-S2-020K19,2,15,AS,train,31,↓,down,↓,0.8671669999603182,True,45,-,-,-
Y2-S2-020K19,2,16,AS,train,49,↑,up,↑,0.6678492999635637,True,45,-,-,-
Y2-S2-020K19,2,17,AS,train,46,↓,down,↓,0.7172844000160694,True,45,-,-,-
Y2-S2-020K19,2,18,AS,train,34,↑,up,↑,0.8503282000310719,True,45,-,-,-
Y2-S2-020K19,2,19,AS,train,43,→,right,→,0.48457510001026094,True,45,-,-,-
Y2-S2-020K19,2,20,AS,train,30,↑,up,↑,0.9598548000212759,True,45,-,-,-
Y2-S2-020K19,-,21,PS,adaptive,43,↓,up,↑,0.9567127001937479,False,10,-1,0,0
Y2-S2-020K19,-,22,PS,adaptive,49,↑,up,↑,1.612339099869132,True,11,-1,0,0
Y2-S2-020K19,-,23,PS,adaptive,41,→,right,→,0.5052126999944448,True,11,-1,0,0
Y2-S2-020K19,-,24,PS,adaptive,39,↓,down,↓,0.6451441999524832,True,11,1,1,1
Y2-S2-020K19,-,25,PS,adaptive,50,↑,left,←,1.2437643001321703,False,10,-1,1,2
Y2-S2-020K19,-,26,PS,adaptive,45,→,right,→,0.9124042999465019,True,11,-1,0,2
Y2-S2-020K19,-,27,PS,adaptive,45,↓,down,↓,0.6032243999652565,True,11,-1,0,2
Y2-S2-020K19,-,28,PS,adaptive,48,←,up,↑,0.6319021000526845,False,11,-1,0,2
Y2-S2-020K19,-,29,PS,adaptive,41,↑,up,↑,0.6719456999562681,True,12,-1,0,2
Y2-S2-020K19,-,30,PS,adaptive,47,→,left,←,0.6025570998899639,False,12,-1,0,2
Y2-S2-020K19,-,31,PS,adaptive,37,↓,down,↓,0.6369950999505818,True,13,-1,0,2
Y2-S2-020K19,-,32,PS,adaptive,48,↑,up,↑,0.4952640999108553,True,13,-1,0,2
Y2-S2-020K19,-,33,PS,adaptive,31,←,left,←,0.48111579986289144,True,13,1,1,3
Y2-S2-020K19,-,34,PS,adaptive,40,↓,up,↑,0.6433419999666512,False,12,-1,1,4
Y2-S2-020K19,-,35,AS,adaptive,49,←,left,←,0.5326121000107378,True,20,0,0,0
Y2-S2-020K19,-,36,AS,adaptive,45,→,right,→,0.8132617000956088,True,20,0,0,0
Y2-S2-020K19,-,37,AS,adaptive,37,↓,down,↓,0.5490317998919636,True,20,1,0,0
Y2-S2-020K19,-,38,AS,adaptive,46,→,right,→,1.1935755999293178,True,19,1,0,0
Y2-S2-020K19,-,39,AS,adaptive,31,↑,up,↑,0.5537820998579264,True,19,1,0,0
Y2-S2-020K19,-,40,AS,adaptive,47,←,left,←,0.5405867998488247,True,19,1,0,0
Y2-S2-020K19,-,41,AS,adaptive,38,→,right,→,0.5138002999592572,True,18,1,0,0
Y2-S2-020K19,-,42,AS,adaptive,42,←,right,→,0.7074364998843521,False,18,-1,1,1
Y2-S2-020K19,-,43,AS,adaptive,26,→,right,→,0.6102068999316543,True,19,-1,0,1
Y2-S2-020K19,-,44,AS,adaptive,29,↓,down,↓,0.5694367999676615,True,19,-1,0,1
Y2-S2-020K19,-,45,AS,adaptive,43,→,right,→,0.5000301001127809,True,19,1,1,2
Y2-S2-020K19,-,46,AS,adaptive,26,↑,up,↑,0.5418769000098109,True,18,1,0,2
Y2-S2-020K19,-,47,AS,adaptive,27,→,right,→,0.5641874000430107,True,18,1,0,2
Y2-S2-020K19,-,48,AS,adaptive,48,↑,up,↑,0.5214307000860572,True,18,1,0,2
Y2-S2-020K19,-,49,AS,adaptive,50,↓,down,↓,0.674089000094682,True,17,1,0,2
Y2-S2-020K19,-,50,AS,adaptive,43,↑,up,↑,0.45963199995458126,True,17,1,0,2
Y2-S2-020K19,-,51,AS,adaptive,25,→,right,→,0.5679868999868631,True,17,1,0,2
Y2-S2-020K19,-,52,AS,adaptive,37,←,left,←,0.803796699969098,True,16,1,0,2
Y2-S2-020K19,-,53,AS,adaptive,45,→,right,→,0.5202485998161137,True,16,1,0,2
Y2-S2-020K19,-,54,AS,adaptive,33,↓,down,↓,0.7546022001188248,True,16,1,0,2
Y2-S2-020K19,-,55,AS,adaptive,37,→,right,→,0.5454282998107374,True,15,1,0,2
Y2-S2-020K19,-,56,AS,adaptive,36,←,left,←,0.6750192998442799,True,15,1,0,2
Y2-S2-020K19,-,57,AS,adaptive,26,→,right,→,0.687641000142321,True,15,1,0,2
Y2-S2-020K19,-,58,AS,adaptive,48,↓,down,↓,0.6942548002116382,True,14,1,0,2
Y2-S2-020K19,-,59,AS,adaptive,42,←,right,→,0.8869099000003189,False,14,-1,1,3
Y2-S2-020K19,-,60,AS,adaptive,41,↓,down,↓,0.6761842998676002,True,15,-1,0,3
Y2-S2-020K19,-,61,AS,adaptive,27,←,left,←,0.49418599996715784,True,15,-1,0,3
Y2-S2-020K19,-,62,AS,adaptive,28,→,right,→,0.4801938000600785,True,15,1,1,4
Y2-S2-020K19,1,63,AS,intra_train,34,←,left,←,0.6488763999659568,True,21,-,-,-
Y2-S2-020K19,1,64,AS,intra_train,37,→,right,→,1.1488320999778807,True,21,-,-,-
Y2-S2-020K19,1,65,AS,intra_train,39,↑,up,↑,0.6838006998877972,True,21,-,-,-
Y2-S2-020K19,1,66,AS,intra_train,26,↓,down,↓,0.63041410013102,True,21,-,-,-
Y2-S2-020K19,1,67,AS,intra_train,49,←,left,←,0.6277882000431418,True,21,-,-,-
Y2-S2-020K19,1,68,AS,exp,32,↑,up,↑,0.6658195999916643,True,14,0,0,0
Y2-S2-020K19,1,69,AS,exp,32,→,right,→,0.5800335998646915,True,14,0,0,0
Y2-S2-020K19,1,70,AS,exp,25,↑,up,↑,0.5889448998495936,True,14,1,0,0
Y2-S2-020K19,1,71,AS,exp,46,→,right,→,0.5669239000417292,True,13,1,0,0
Y2-S2-020K19,1,72,AS,exp,50,↓,down,↓,0.7444649999961257,True,13,1,0,0
Y2-S2-020K19,1,73,AS,exp,26,←,right,→,0.6608619999606162,False,13,-1,1,1
Y2-S2-020K19,1,74,AS,exp,38,↑,up,↑,0.4450425000395626,True,14,-1,0,1
Y2-S2-020K19,1,75,AS,exp,29,←,left,←,0.5186542000155896,True,14,-1,0,1
Y2-S2-020K19,1,76,AS,exp,32,→,right,→,0.4364024999085814,True,14,1,1,2
Y2-S2-020K19,1,77,AS,exp,50,↓,up,↑,0.8071552000474185,False,13,-1,1,3
Y2-S2-020K19,1,78,AS,exp,42,←,up,↑,0.5471570999361575,False,14,-1,0,3
Y2-S2-020K19,1,79,AS,exp,36,↑,up,↑,0.6204051000531763,True,15,-1,0,3
Y2-S2-020K19,1,80,AS,exp,44,→,right,→,0.6995141999796033,True,15,-1,0,3
Y2-S2-020K19,1,81,AS,exp,45,←,left,←,0.5328135997988284,True,15,1,1,4
Y2-S2-020K19,1,82,AS,exp,25,↑,up,↑,0.7110884999856353,True,14,1,0,4
Y2-S2-020K19,1,83,AS,exp,36,→,right,→,0.40991570008918643,True,14,1,0,4
Y2-S2-020K19,1,84,AS,exp,29,←,right,→,0.4434976999182254,False,14,-1,1,5
Y2-S2-020K19,1,85,AS,exp,38,↑,up,↑,0.5087391000706702,True,15,-1,0,5
Y2-S2-020K19,1,86,AS,exp,36,←,right,→,0.5432850001379848,False,15,-1,0,5
Y2-S2-020K19,1,87,AS,exp,38,↑,up,↑,0.559916399884969,True,16,-1,0,5
Y2-S2-020K19,1,88,AS,exp,41,→,right,→,0.5176691999658942,True,16,-1,0,5
Y2-S2-020K19,1,89,AS,exp,35,←,left,←,0.833492600126192,True,16,1,1,6
Y2-S2-020K19,1,90,AS,exp,25,↓,right,→,0.7502073000650853,False,15,-1,1,7
Y2-S2-020K19,1,91,AS,exp,32,→,right,→,0.5161295998841524,True,16,-1,0,7
Y2-S2-020K19,1,92,AS,exp,34,←,left,←,0.6070636000949889,True,16,-1,0,7
Y2-S2-020K19,1,93,AS,exp,39,→,left,←,0.4513138998299837,False,16,-1,0,7
Y2-S2-020K19,1,94,AS,exp,37,↓,down,↓,0.6317275001201779,True,17,-1,0,7
Y2-S2-020K19,1,95,AS,exp,46,→,left,←,0.5292499999050051,False,17,-1,0,7
Y2-S2-020K19,1,96,AS,exp,33,←,left,←,0.5496985998470336,True,18,-1,0,7
Y2-S2-020K19,1,97,AS,exp,49,↓,up,↑,0.6723952998872846,False,18,-1,0,7
Y2-S2-020K19,1,98,AS,exp,33,←,left,←,0.533700100146234,True,19,-1,0,7
Y2-S2-020K19,1,99,AS,exp,27,→,right,→,0.6588854000438005,True,19,-1,0,7
Y2-S2-020K19,1,100,AS,exp,30,↑,up,↑,0.6779451000038534,True,19,1,1,8
Y2-S2-020K19,1,101,AS,exp,34,→,right,→,0.5353035998996347,True,18,1,0,8
Y2-S2-020K19,1,102,AS,exp,39,↓,down,↓,0.5984032000415027,True,18,1,0,8
Y2-S2-020K19,1,103,AS,exp,47,←,left,←,0.624718600185588,True,18,1,0,8
Y2-S2-020K19,1,104,AS,exp,47,↑,up,↑,0.6472023001406342,True,17,1,0,8
Y2-S2-020K19,1,105,AS,exp,27,←,left,←,0.9031018000096083,True,17,1,0,8
Y2-S2-020K19,1,106,AS,exp,49,↑,up,↑,0.6220839000307024,True,17,1,0,8
Y2-S2-020K19,1,107,AS,exp,32,↓,down,↓,0.6508543998934329,True,16,1,0,8
Y2-S2-020K19,1,108,AS,exp,41,→,right,→,0.7154673999175429,True,16,1,0,8
Y2-S2-020K19,1,109,AS,exp,35,↑,up,↑,0.5312312999740243,True,16,1,0,8
Y2-S2-020K19,1,110,AS,exp,39,←,left,←,0.6828762001823634,True,15,1,0,8
Y2-S2-020K19,1,111,AS,exp,43,↓,up,↑,0.500295199919492,False,15,-1,1,9
Y2-S2-020K19,1,112,AS,exp,39,→,right,→,0.483245600014925,True,16,-1,0,9
Y2-S2-020K19,1,113,AS,exp,32,←,right,→,0.5563101000152528,False,16,-1,0,9
Y2-S2-020K19,1,114,AS,exp,28,↑,up,↑,0.5640130001120269,True,17,-1,0,9
Y2-S2-020K19,1,115,AS,exp,35,→,right,→,0.5941600000951439,True,17,-1,0,9
Y2-S2-020K19,1,116,AS,exp,47,←,no_key,no_letter,-1.0,False,17,-1,0,9
Y2-S2-020K19,1,117,AS,exp,46,→,right,→,0.6759575000032783,True,18,-1,0,9
Y2-S2-020K19,1,118,AS,exp,37,←,left,←,0.5848534000106156,True,18,-1,0,9
Y2-S2-020K19,1,119,AS,exp,35,↑,up,↑,0.4009577000979334,True,18,1,1,10
Y2-S2-020K19,1,120,AS,exp,37,↓,down,↓,0.6290485998615623,True,17,1,0,10
Y2-S2-020K19,1,121,AS,exp,33,→,right,→,0.5482739999424666,True,17,1,0,10
Y2-S2-020K19,1,122,AS,exp,43,↑,left,←,0.4173453999683261,False,17,-1,1,11
Y2-S2-020K19,1,123,AS,exp,44,←,up,↑,0.48563270014710724,False,18,-1,0,11
Y2-S2-020K19,1,124,AS,exp,30,→,right,→,0.6860961997881532,True,19,-1,0,11
Y2-S2-020K19,1,125,AS,exp,38,↓,down,↓,0.6358803999610245,True,19,-1,0,11
Y2-S2-020K19,1,126,AS,exp,39,←,left,←,0.5322348999325186,True,19,1,1,12
Y2-S2-020K19,1,127,AS,exp,34,→,right,→,0.5105326001066715,True,18,1,0,12
Y2-S2-020K19,1,128,AS,exp,49,↑,left,←,0.4340749999973923,False,18,-1,1,13
Y2-S2-020K19,1,129,AS,exp,43,↓,up,↑,0.4924413999542594,False,19,-1,0,13
Y2-S2-020K19,1,130,AS,exp,39,↑,up,↑,0.7190937001723796,True,20,-1,0,13
Y2-S2-020K19,1,131,AS,exp,45,→,right,→,0.5898402000311762,True,20,-1,0,13
Y2-S2-020K19,1,132,AS,exp,25,↑,right,→,0.5755519000813365,False,20,-1,0,13
Y2-S2-020K19,1,133,AS,exp,32,→,no_key,no_letter,-1.0,False,21,-1,0,13
Y2-S2-020K19,1,134,AS,exp,49,←,left,←,0.6198605999816209,True,22,-1,0,13
Y2-S2-020K19,1,135,AS,exp,50,→,right,→,0.5362118000630289,True,22,-1,0,13
Y2-S2-020K19,1,136,AS,exp,49,↑,right,→,0.8495567999780178,False,22,-1,0,13
Y2-S2-020K19,1,137,AS,exp,30,↓,down,↓,0.8026573001407087,True,23,-1,0,13
Y2-S2-020K19,1,138,AS,exp,50,↑,up,↑,0.6578019999433309,True,23,-1,0,13
Y2-S2-020K19,1,139,AS,exp,35,↓,down,↓,0.6103723999112844,True,23,1,1,14
Y2-S2-020K19,1,140,AS,exp,43,→,right,→,0.5838649999350309,True,22,1,0,14
Y2-S2-020K19,1,141,AS,exp,40,↓,down,↓,0.7297016999218613,True,22,1,0,14
Y2-S2-020K19,1,142,AS,exp,35,→,right,→,0.7025723999831825,True,22,1,0,14
Y2-S2-020K19,1,143,AS,exp,39,↑,up,↑,0.6520420999731869,True,21,1,0,14
Y2-S2-020K19,1,144,AS,exp,44,↓,down,↓,0.547236500075087,True,21,1,0,14
Y2-S2-020K19,1,145,AS,exp,47,←,left,←,0.621371699962765,True,21,1,0,14
Y2-S2-020K19,1,146,AS,exp,40,↑,up,↑,0.5303666999097914,True,20,1,0,14
Y2-S2-020K19,1,147,AS,exp,36,→,right,→,0.5736911999993026,True,20,1,0,14
Y2-S2-020K19,1,148,AS,exp,25,←,left,←,0.5769935001153499,True,20,1,0,14
Y2-S2-020K19,1,149,AS,exp,33,↓,down,↓,0.5401818999089301,True,19,1,0,14
Y2-S2-020K19,1,150,AS,exp,50,↑,up,↑,0.5262548001483083,True,19,1,0,14
Y2-S2-020K19,1,151,AS,exp,35,←,left,←,0.8148912000469863,True,19,1,0,14
Y2-S2-020K19,1,152,AS,exp,48,↓,down,↓,0.5033199000172317,True,18,1,0,14
Y2-S2-020K19,1,153,AS,exp,49,↑,up,↑,0.5342635998968035,True,18,1,0,14
Y2-S2-020K19,1,154,AS,exp,32,↓,down,↓,1.2280935000162572,True,18,1,0,14
Y2-S2-020K19,1,155,AS,exp,38,←,no_key,no_letter,-1.0,False,17,-1,1,15
Y2-S2-020K19,1,156,AS,exp,25,→,right,→,0.6472074000630528,True,18,-1,0,15
Y2-S2-020K19,1,157,AS,exp,49,↓,down,↓,0.6409048000350595,True,18,-1,0,15
Y2-S2-020K19,1,158,AS,exp,33,→,right,→,0.5507877999916673,True,18,1,1,16
Y2-S2-020K19,2,159,PS,intra_train,46,↓,down,↓,1.227893500123173,True,19,-,-,-
Y2-S2-020K19,2,160,PS,intra_train,32,↑,left,←,0.9535013998392969,False,19,-,-,-
Y2-S2-020K19,2,161,PS,intra_train,35,→,right,→,0.4986197999678552,True,19,-,-,-
Y2-S2-020K19,2,162,PS,intra_train,39,↓,down,↓,0.5995810001622885,True,19,-,-,-
Y2-S2-020K19,2,163,PS,intra_train,47,↑,up,↑,0.651314599905163,True,19,-,-,-
Y2-S2-020K19,2,164,PS,exp,26,→,left,←,0.458772299811244,False,13,-1,0,0
Y2-S2-020K19,2,165,PS,exp,33,↑,up,↑,0.5733978999778628,True,14,-1,0,0
Y2-S2-020K19,2,166,PS,exp,34,↓,down,↓,0.5479963000398129,True,14,-1,0,0
Y2-S2-020K19,2,167,PS,exp,47,←,up,↑,0.7386867001187056,False,14,-1,0,0
Y2-S2-020K19,2,168,PS,exp,30,↑,up,↑,0.5915106001775712,True,15,-1,0,0
Y2-S2-020K19,2,169,PS,exp,30,↓,down,↓,0.6458849997725338,True,15,-1,0,0
Y2-S2-020K19,2,170,PS,exp,38,→,right,→,0.4656277000904083,True,15,1,1,1
Y2-S2-020K19,2,171,PS,exp,33,↑,left,←,0.7471552998758852,False,14,-1,1,2
Y2-S2-020K19,2,172,PS,exp,32,←,left,←,0.572021999862045,True,15,-1,0,2
Y2-S2-020K19,2,173,PS,exp,48,→,left,←,0.5143810999579728,False,15,-1,0,2
Y2-S2-020K19,2,174,PS,exp,45,↑,up,↑,0.4547588999848813,True,16,-1,0,2
Y2-S2-020K19,2,175,PS,exp,25,←,right,→,0.5067087998613715,False,16,-1,0,2
Y2-S2-020K19,2,176,PS,exp,36,↓,down,↓,0.7309877001680434,True,17,-1,0,2
Y2-S2-020K19,2,177,PS,exp,48,←,left,←,0.5318992999382317,True,17,-1,0,2
Y2-S2-020K19,2,178,PS,exp,41,↓,up,↑,0.451995600014925,False,17,-1,0,2
Y2-S2-020K19,2,179,PS,exp,45,←,right,→,0.5685676999855787,False,18,-1,0,2
Y2-S2-020K19,2,180,PS,exp,50,↓,down,↓,0.7106874999590218,True,19,-1,0,2
Y2-S2-020K19,2,181,PS,exp,47,←,left,←,1.4871223999653012,True,19,-1,0,2
Y2-S2-020K19,2,182,PS,exp,31,↓,down,↓,0.5836583999916911,True,19,1,1,3
Y2-S2-020K19,2,183,PS,exp,31,↑,up,↑,0.5721986999269575,True,18,1,0,3
Y2-S2-020K19,2,184,PS,exp,25,↓,down,↓,0.5728193998802453,True,18,1,0,3
Y2-S2-020K19,2,185,PS,exp,48,→,right,→,0.5054271998815238,True,18,1,0,3
Y2-S2-020K19,2,186,PS,exp,28,↑,down,↓,0.7590379000175744,False,17,-1,1,4
Y2-S2-020K19,2,187,PS,exp,39,←,left,←,0.4713638999965042,True,18,-1,0,4
Y2-S2-020K19,2,188,PS,exp,29,↓,down,↓,0.5882329000160098,True,18,-1,0,4
Y2-S2-020K19,2,189,PS,exp,41,←,left,←,0.5634887998457998,True,18,1,1,5
Y2-S2-020K19,2,190,PS,exp,47,↑,up,↑,0.46708610001951456,True,17,1,0,5
Y2-S2-020K19,2,191,PS,exp,30,↓,down,↓,0.5813813998829573,True,17,1,0,5
Y2-S2-020K19,2,192,PS,exp,28,↑,up,↑,0.5308395000174642,True,17,1,0,5
Y2-S2-020K19,2,193,PS,exp,32,←,left,←,0.4996211000252515,True,16,1,0,5
Y2-S2-020K19,2,194,PS,exp,35,↓,down,↓,0.640788699965924,True,16,1,0,5
Y2-S2-020K19,2,195,PS,exp,31,↑,down,↓,0.685748599935323,False,16,-1,1,6
Y2-S2-020K19,2,196,PS,exp,44,←,left,←,0.49729389999993145,True,17,-1,0,6
Y2-S2-020K19,2,197,PS,exp,26,→,right,→,0.6130158000160009,True,17,-1,0,6
Y2-S2-020K19,2,198,PS,exp,34,←,left,←,0.3504135000985116,True,17,1,1,7
Y2-S2-020K19,2,199,PS,exp,47,↓,down,↓,0.8194444999098778,True,16,1,0,7
Y2-S2-020K19,2,200,PS,exp,48,↑,no_key,no_letter,-1.0,False,16,-1,1,8
Y2-S2-020K19,2,201,PS,exp,25,↓,down,↓,0.6024015999864787,True,17,-1,0,8
Y2-S2-020K19,2,202,PS,exp,31,→,left,←,0.5621853000484407,False,17,-1,0,8
Y2-S2-020K19,2,203,PS,exp,40,←,left,←,0.6324551000725478,True,18,-1,0,8
Y2-S2-020K19,2,204,PS,exp,26,↓,down,↓,0.619152600178495,True,18,-1,0,8
Y2-S2-020K19,2,205,PS,exp,27,↑,up,↑,0.623219600180164,True,18,1,1,9
Y2-S2-020K19,2,206,PS,exp,44,↓,down,↓,0.6251926999539137,True,17,1,0,9
Y2-S2-020K19,2,207,PS,exp,49,→,right,→,0.526433999883011,True,17,1,0,9
Y2-S2-020K19,2,208,PS,exp,39,↑,no_key,no_letter,-1.0,False,17,-1,1,10
Y2-S2-020K19,2,209,PS,exp,25,←,no_key,no_letter,-1.0,False,18,-1,0,10
Y2-S2-020K19,2,210,PS,exp,41,↓,down,↓,0.5223350999876857,True,19,-1,0,10
Y2-S2-020K19,2,211,PS,exp,40,←,left,←,0.45079130004160106,True,19,-1,0,10
Y2-S2-020K19,2,212,PS,exp,41,→,right,→,0.4339934999588877,True,19,1,1,11
Y2-S2-020K19,2,213,PS,exp,27,↑,up,↑,0.4757709999103099,True,18,1,0,11
Y2-S2-020K19,2,214,PS,exp,38,←,left,←,0.6556921999435872,True,18,1,0,11
Y2-S2-020K19,2,215,PS,exp,38,↓,up,↑,0.6140010000672191,False,18,-1,1,12
Y2-S2-020K19,2,216,PS,exp,25,→,left,←,0.4007330001331866,False,19,-1,0,12
Y2-S2-020K19,2,217,PS,exp,45,↓,no_key,no_letter,-1.0,False,20,-1,0,12
Y2-S2-020K19,2,218,PS,exp,29,←,left,←,0.40070909983478487,True,21,-1,0,12
Y2-S2-020K19,2,219,PS,exp,44,↑,up,↑,0.7332460000179708,True,21,-1,0,12
Y2-S2-020K19,2,220,PS,exp,46,←,left,←,0.4000604001339525,True,21,1,1,13
Y2-S2-020K19,2,221,PS,exp,44,↑,up,↑,0.43396479985676706,True,20,1,0,13
Y2-S2-020K19,2,222,PS,exp,40,→,right,→,0.8074304000474513,True,20,1,0,13
Y2-S2-020K19,2,223,PS,exp,49,↑,up,↑,0.544681099941954,True,20,1,0,13
Y2-S2-020K19,2,224,PS,exp,29,←,left,←,0.4175553999375552,True,19,1,0,13
Y2-S2-020K19,2,225,PS,exp,46,→,right,→,0.41770270001143217,True,19,1,0,13
Y2-S2-020K19,2,226,PS,exp,38,←,left,←,0.6017126999795437,True,19,1,0,13
Y2-S2-020K19,2,227,PS,exp,32,→,right,→,0.4714777001645416,True,18,1,0,13
Y2-S2-020K19,2,228,PS,exp,32,←,left,←,0.41717559983953834,True,18,1,0,13
Y2-S2-020K19,2,229,PS,exp,29,→,left,←,0.41736099985428154,False,18,-1,1,14
Y2-S2-020K19,2,230,PS,exp,34,↓,down,↓,0.4981715998146683,True,19,-1,0,14
Y2-S2-020K19,2,231,PS,exp,34,↑,up,↑,0.5816003999207169,True,19,-1,0,14
Y2-S2-020K19,2,232,PS,exp,49,→,right,→,0.4176531999837607,True,19,1,1,15
Y2-S2-020K19,2,233,PS,exp,30,↓,down,↓,0.5878094998188317,True,18,1,0,15
Y2-S2-020K19,2,234,PS,exp,50,→,no_key,no_letter,-1.0,False,18,-1,1,16
Y2-S2-020K19,3,235,PS,intra_train,34,←,left,←,0.4177657999098301,True,19,-,-,-
Y2-S2-020K19,3,236,PS,intra_train,34,↓,down,↓,0.5305955000221729,True,19,-,-,-
Y2-S2-020K19,3,237,PS,intra_train,41,→,right,→,1.1654336000792682,True,19,-,-,-
Y2-S2-020K19,3,238,PS,intra_train,39,↑,up,↑,1.0656252999324352,True,19,-,-,-
Y2-S2-020K19,3,239,PS,intra_train,41,→,right,→,0.4340202999301255,True,19,-,-,-
Y2-S2-020K19,3,240,PS,exp,44,←,left,←,0.493341299938038,True,13,0,0,0
Y2-S2-020K19,3,241,PS,exp,43,↑,up,↑,0.4011299000121653,True,13,0,0,0
Y2-S2-020K19,3,242,PS,exp,30,→,right,→,0.6835592999123037,True,13,1,0,0
Y2-S2-020K19,3,243,PS,exp,35,↑,up,↑,0.39397470001131296,True,12,1,0,0
Y2-S2-020K19,3,244,PS,exp,46,→,right,→,0.44918400002643466,True,12,1,0,0
Y2-S2-020K19,3,245,PS,exp,48,↑,up,↑,0.3842801998835057,True,12,1,0,0
Y2-S2-020K19,3,246,PS,exp,29,←,left,←,0.3529385000001639,True,11,1,0,0
Y2-S2-020K19,3,247,PS,exp,48,↑,up,↑,0.41313300002366304,True,11,1,0,0
Y2-S2-020K19,3,248,PS,exp,50,←,left,←,0.46589770005084574,True,11,1,0,0
Y2-S2-020K19,3,249,PS,exp,37,→,right,→,0.38733340008184314,True,10,1,0,0
Y2-S2-020K19,3,250,PS,exp,34,↑,up,↑,0.5658767998684198,True,10,1,0,0
Y2-S2-020K19,3,251,PS,exp,33,→,left,←,0.7235310999676585,False,10,-1,1,1
Y2-S2-020K19,3,252,PS,exp,40,↓,down,↓,0.5200122999958694,True,11,-1,0,1
Y2-S2-020K19,3,253,PS,exp,45,←,right,→,0.3765475999098271,False,11,-1,0,1
Y2-S2-020K19,3,254,PS,exp,33,→,left,←,0.5705296997912228,False,12,-1,0,1
Y2-S2-020K19,3,255,PS,exp,28,←,left,←,0.411718400195241,True,13,-1,0,1
Y2-S2-020K19,3,256,PS,exp,44,↓,down,↓,0.6805195000488311,True,13,-1,0,1
Y2-S2-020K19,3,257,PS,exp,31,↑,up,↑,0.4340040001552552,True,13,1,1,2
Y2-S2-020K19,3,258,PS,exp,30,←,up,↑,0.5234447999391705,False,12,-1,1,3
Y2-S2-020K19,3,259,PS,exp,33,→,right,→,0.441316100070253,True,13,-1,0,3
Y2-S2-020K19,3,260,PS,exp,49,↓,down,↓,0.5527753999922425,True,13,-1,0,3
Y2-S2-020K19,3,261,PS,exp,32,↑,up,↑,0.5673050000332296,True,13,1,1,4
Y2-S2-020K19,3,262,PS,exp,46,↓,down,↓,0.6767249000258744,True,12,1,0,4
Y2-S2-020K19,3,263,PS,exp,41,→,right,→,0.41804399993270636,True,12,1,0,4
Y2-S2-020K19,3,264,PS,exp,41,←,left,←,0.4204961999785155,True,12,1,0,4
Y2-S2-020K19,3,265,PS,exp,41,→,left,←,0.44768499978818,False,11,-1,1,5
Y2-S2-020K19,3,266,PS,exp,42,↓,down,↓,0.5459690999705344,True,12,-1,0,5
Y2-S2-020K19,3,267,PS,exp,35,→,right,→,0.45637959986925125,True,12,-1,0,5
Y2-S2-020K19,3,268,PS,exp,46,↓,left,←,0.5407014999072999,False,12,-1,0,5
Y2-S2-020K19,3,269,PS,exp,29,↑,up,↑,0.4895658001769334,True,13,-1,0,5
Y2-S2-020K19,3,270,PS,exp,48,→,right,→,0.5230241999961436,True,13,-1,0,5
Y2-S2-020K19,3,271,PS,exp,28,↓,down,↓,0.652898000087589,True,13,1,1,6
Y2-S2-020K19,3,272,PS,exp,28,→,up,↑,0.5097425999119878,False,12,-1,1,7
Y2-S2-020K19,3,273,PS,exp,25,←,left,←,0.487886399962008,True,13,-1,0,7
Y2-S2-020K19,3,274,PS,exp,47,→,left,←,1.1827708999626338,False,13,-1,0,7
Y2-S2-020K19,3,275,PS,exp,33,↓,down,↓,0.49783660005778074,True,14,-1,0,7
Y2-S2-020K19,3,276,PS,exp,38,→,right,→,0.5780259999446571,True,14,-1,0,7
Y2-S2-020K19,3,277,PS,exp,46,←,left,←,0.47960139997303486,True,14,1,1,8
Y2-S2-020K19,3,278,PS,exp,35,↑,up,↑,0.41076750005595386,True,13,1,0,8
Y2-S2-020K19,3,279,PS,exp,45,→,right,→,0.47838640003465116,True,13,1,0,8
Y2-S2-020K19,3,280,PS,exp,44,↑,up,↑,0.4780494999140501,True,13,1,0,8
Y2-S2-020K19,3,281,PS,exp,34,←,up,↑,0.40176969999447465,False,12,-1,1,9
Y2-S2-020K19,3,282,PS,exp,41,→,right,→,0.46494109998457134,True,13,-1,0,9
Y2-S2-020K19,3,283,PS,exp,32,↑,up,↑,1.1965870000422,True,13,-1,0,9
Y2-S2-020K19,3,284,PS,exp,32,←,left,←,0.5264270999468863,True,13,1,1,10
Y2-S2-020K19,3,285,PS,exp,30,↓,down,↓,0.5174548998475075,True,12,1,0,10
Y2-S2-020K19,3,286,PS,exp,33,←,left,←,0.4290655998047441,True,12,1,0,10
Y2-S2-020K19,3,287,PS,exp,47,↓,down,↓,0.5566141998860985,True,12,1,0,10
Y2-S2-020K19,3,288,PS,exp,50,←,left,←,0.4265960999764502,True,11,1,0,10
Y2-S2-020K19,3,289,PS,exp,26,↓,down,↓,0.5335059999488294,True,11,1,0,10
Y2-S2-020K19,3,290,PS,exp,43,↑,up,↑,0.4913640001323074,True,11,1,0,10
Y2-S2-020K19,3,291,PS,exp,31,→,right,→,0.5972629999741912,True,10,1,0,10
Y2-S2-020K19,3,292,PS,exp,27,↑,up,↑,0.4345307000912726,True,10,1,0,10
Y2-S2-020K19,3,293,PS,exp,41,↓,down,↓,0.5503533999435604,True,10,1,0,10
Y2-S2-020K19,3,294,PS,exp,34,←,left,←,0.49616000009700656,True,9,1,0,10
Y2-S2-020K19,3,295,PS,exp,33,↓,up,↑,0.5416889002081007,False,9,-1,1,11
Y2-S2-020K19,3,296,PS,exp,41,→,right,→,0.4962279999163002,True,10,-1,0,11
Y2-S2-020K19,3,297,PS,exp,34,↓,down,↓,0.5076568000949919,True,10,-1,0,11
Y2-S2-020K19,3,298,PS,exp,50,←,left,←,0.45565149979665875,True,10,1,1,12
Y2-S2-020K19,3,299,PS,exp,50,↑,up,↑,0.41024430003017187,True,9,1,0,12
Y2-S2-020K19,3,300,PS,exp,25,←,left,←,0.365740800043568,True,9,1,0,12
Y2-S2-020K19,3,301,PS,exp,46,↓,right,→,0.3570438001770526,False,9,-1,1,13
Y2-S2-020K19,3,302,PS,exp,31,↑,up,↑,0.45903850020840764,True,10,-1,0,13
Y2-S2-020K19,3,303,PS,exp,48,↓,left,←,0.3005282999947667,False,10,-1,0,13
Y2-S2-020K19,3,304,PS,exp,34,←,left,←,0.42721539991907775,True,11,-1,0,13
Y2-S2-020K19,3,305,PS,exp,30,→,right,→,0.5994098000228405,True,11,-1,0,13
Y2-S2-020K19,3,306,PS,exp,26,↑,up,↑,0.49023150000721216,True,11,1,1,14
Y2-S2-020K19,3,307,PS,exp,44,↓,down,↓,0.4722935000900179,True,10,1,0,14
Y2-S2-020K19,3,308,PS,exp,34,→,right,→,0.46128529985435307,True,10,1,0,14
Y2-S2-020K19,3,309,PS,exp,49,↑,right,→,0.46577839995734394,False,10,-1,1,15
Y2-S2-020K19,3,310,PS,exp,40,→,right,→,0.5057882000692189,True,11,-1,0,15
Y2-S2-020K19,3,311,PS,exp,32,↓,up,↑,0.4702258000615984,False,11,-1,0,15
Y2-S2-020K19,3,312,PS,exp,35,→,right,→,0.5785310999490321,True,12,-1,0,15
Y2-S2-020K19,3,313,PS,exp,50,←,left,←,1.2947607000824064,True,12,-1,0,15
Y2-S2-020K19,3,314,PS,exp,46,↓,up,↑,0.545064700068906,False,12,-1,0,15
Y2-S2-020K19,3,315,PS,exp,40,→,right,→,0.5203044000081718,True,13,-1,0,15
Y2-S2-020K19,3,316,PS,exp,26,↑,up,↑,0.48369110003113747,True,13,-1,0,15
Y2-S2-020K19,3,317,PS,exp,43,→,right,→,0.4027742000762373,True,13,1,1,16
Y2-S2-020K19,4,318,AS,intra_train,42,↑,up,↑,0.558459100080654,True,21,-,-,-
Y2-S2-020K19,4,319,AS,intra_train,28,→,right,→,0.5275040999986231,True,21,-,-,-
Y2-S2-020K19,4,320,AS,intra_train,40,↓,down,↓,1.0294497997965664,True,21,-,-,-
Y2-S2-020K19,4,321,AS,intra_train,47,→,right,→,0.46745950006879866,True,21,-,-,-
Y2-S2-020K19,4,322,AS,intra_train,42,↑,up,↑,0.6399566000327468,True,21,-,-,-
Y2-S2-020K19,4,323,AS,exp,41,←,up,↑,0.602330100024119,False,14,-1,0,0
Y2-S2-020K19,4,324,AS,exp,26,↓,down,↓,0.6320944000035524,True,15,-1,0,0
Y2-S2-020K19,4,325,AS,exp,40,←,left,←,0.594766499940306,True,15,-1,0,0
Y2-S2-020K19,4,326,AS,exp,43,↓,down,↓,0.6138144999276847,True,15,1,1,1
Y2-S2-020K19,4,327,AS,exp,37,←,up,↑,0.5759913998190314,False,14,-1,1,2
Y2-S2-020K19,4,328,AS,exp,27,↓,down,↓,0.6699119000695646,True,15,-1,0,2
Y2-S2-020K19,4,329,AS,exp,38,←,down,↓,0.6388309001922607,False,15,-1,0,2
Y2-S2-020K19,4,330,AS,exp,37,↓,right,→,0.6588589998427778,False,16,-1,0,2
Y2-S2-020K19,4,331,AS,exp,41,→,right,→,1.2079590999055654,True,17,-1,0,2
Y2-S2-020K19,4,332,AS,exp,42,↑,up,↑,0.5254218999762088,True,17,-1,0,2
Y2-S2-020K19,4,333,AS,exp,25,←,left,←,0.6393189001828432,True,17,1,1,3
Y2-S2-020K19,4,334,AS,exp,30,↓,down,↓,0.5714327001478523,True,16,1,0,3
Y2-S2-020K19,4,335,AS,exp,50,↑,up,↑,0.7567630999255925,True,16,1,0,3
Y2-S2-020K19,4,336,AS,exp,30,↓,down,↓,0.5926101000513881,True,16,1,0,3
Y2-S2-020K19,4,337,AS,exp,32,↑,up,↑,0.5570930999238044,True,15,1,0,3
Y2-S2-020K19,4,338,AS,exp,49,←,right,→,0.575924500124529,False,15,-1,1,4
Y2-S2-020K19,4,339,AS,exp,37,↑,up,↑,0.4522541998885572,True,16,-1,0,4
Y2-S2-020K19,4,340,AS,exp,29,↓,down,↓,0.5663562000263482,True,16,-1,0,4
Y2-S2-020K19,4,341,AS,exp,47,↑,up,↑,0.5361488999333233,True,16,1,1,5
Y2-S2-020K19,4,342,AS,exp,35,←,left,←,0.485052099917084,True,15,1,0,5
Y2-S2-020K19,4,343,AS,exp,28,↓,down,↓,0.6114125000312924,True,15,1,0,5
Y2-S2-020K19,4,344,AS,exp,32,↑,up,↑,0.4659641000907868,True,15,1,0,5
Y2-S2-020K19,4,345,AS,exp,44,→,right,→,0.47322800010442734,True,14,1,0,5
Y2-S2-020K19,4,346,AS,exp,27,←,left,←,0.4476972999982536,True,14,1,0,5
Y2-S2-020K19,4,347,AS,exp,39,↓,up,↑,0.4175579999573529,False,14,-1,1,6
Y2-S2-020K19,4,348,AS,exp,33,↑,up,↑,0.5525521000381559,True,15,-1,0,6
Y2-S2-020K19,4,349,AS,exp,43,↓,down,↓,0.6075055000837892,True,15,-1,0,6
Y2-S2-020K19,4,350,AS,exp,39,↑,up,↑,0.4988899000454694,True,15,1,1,7
Y2-S2-020K19,4,351,AS,exp,49,→,right,→,0.5162064000032842,True,14,1,0,7
Y2-S2-020K19,4,352,AS,exp,48,↓,down,↓,0.5873551000840962,True,14,1,0,7
Y2-S2-020K19,4,353,AS,exp,33,↑,up,↑,0.550670700147748,True,14,1,0,7
Y2-S2-020K19,4,354,AS,exp,49,←,left,←,0.5447706000413746,True,13,1,0,7
Y2-S2-020K19,4,355,AS,exp,32,↑,up,↑,0.653730999911204,True,13,1,0,7
Y2-S2-020K19,4,356,AS,exp,49,↓,left,←,0.5711923001799732,False,13,-1,1,8
Y2-S2-020K19,4,357,AS,exp,41,↑,up,↑,0.5986025000456721,True,14,-1,0,8
Y2-S2-020K19,4,358,AS,exp,44,↓,down,↓,0.48832009988836944,True,14,-1,0,8
Y2-S2-020K19,4,359,AS,exp,41,↑,up,↑,0.44519390002824366,True,14,1,1,9
Y2-S2-020K19,4,360,AS,exp,30,→,left,←,0.5422521000728011,False,13,-1,1,10
Y2-S2-020K19,4,361,AS,exp,29,↓,up,↑,0.5005956999957561,False,14,-1,0,10
Y2-S2-020K19,4,362,AS,exp,29,←,left,←,0.5229019999969751,True,15,-1,0,10
Y2-S2-020K19,4,363,AS,exp,39,→,right,→,0.4691191001329571,True,15,-1,0,10
Y2-S2-020K19,4,364,AS,exp,40,↓,down,↓,0.5274504001718014,True,15,1,1,11
Y2-S2-020K19,4,365,AS,exp,31,↑,down,↓,0.6192467000801116,False,14,-1,1,12
Y2-S2-020K19,4,366,AS,exp,46,↓,down,↓,0.5800542999058962,True,15,-1,0,12
Y2-S2-020K19,4,367,AS,exp,42,↑,left,←,0.6446764001157135,False,15,-1,0,12
Y2-S2-020K19,4,368,AS,exp,47,←,left,←,0.596519700018689,True,16,-1,0,12
Y2-S2-020K19,4,369,AS,exp,50,→,no_key,no_letter,-1.0,False,16,-1,0,12
Y2-S2-020K19,4,370,AS,exp,25,↓,down,↓,0.5915602999739349,True,17,-1,0,12
Y2-S2-020K19,4,371,AS,exp,30,↑,up,↑,0.5859340999741107,True,17,-1,0,12
Y2-S2-020K19,4,372,AS,exp,29,←,left,←,0.45993299991823733,True,17,1,1,13
Y2-S2-020K19,4,373,AS,exp,43,↓,down,↓,0.555873499950394,True,16,1,0,13
Y2-S2-020K19,4,374,AS,exp,49,→,no_key,no_letter,-1.0,False,16,-1,1,14
Y2-S2-020K19,4,375,AS,exp,48,←,left,←,0.4002543999813497,True,17,-1,0,14
Y2-S2-020K19,4,376,AS,exp,32,↑,right,→,0.6311232000589371,False,17,-1,0,14
Y2-S2-020K19,4,377,AS,exp,36,↓,down,↓,0.5581340999342501,True,18,-1,0,14
Y2-S2-020K19,4,378,AS,exp,38,↑,up,↑,1.0732328000012785,True,18,-1,0,14
Y2-S2-020K19,4,379,AS,exp,50,↓,down,↓,0.5600648000836372,True,18,1,1,15
Y2-S2-020K19,4,380,AS,exp,28,→,right,→,0.6610682001337409,True,17,1,0,15
Y2-S2-020K19,4,381,AS,exp,46,↑,up,↑,0.38379770005121827,True,17,1,0,15
Y2-S2-020K19,4,382,AS,exp,45,←,left,←,0.3838992998935282,True,17,1,0,15
Y2-S2-020K19,4,383,AS,exp,44,↓,right,→,0.6452977999579161,False,16,-1,1,16
Y2-S2-020K19,5,384,AS,intra_train,31,→,right,→,0.45134419994428754,True,21,-,-,-
Y2-S2-020K19,5,385,AS,intra_train,28,←,left,←,0.3837391999550164,True,21,-,-,-
Y2-S2-020K19,5,386,AS,intra_train,48,↓,down,↓,0.6290410000365227,True,21,-,-,-
Y2-S2-020K19,5,387,AS,intra_train,36,↑,up,↑,0.6332863999996334,True,21,-,-,-
Y2-S2-020K19,5,388,AS,intra_train,29,←,left,←,0.5378753000404686,True,21,-,-,-
Y2-S2-020K19,5,389,AS,exp,49,→,right,→,0.6773296999745071,True,14,0,0,0
Y2-S2-020K19,5,390,AS,exp,50,←,right,→,0.41507060010917485,False,14,-1,0,0
Y2-S2-020K19,5,391,AS,exp,49,↓,down,↓,0.5100006000138819,True,15,-1,0,0
Y2-S2-020K19,5,392,AS,exp,50,←,no_key,no_letter,-1.0,False,15,-1,0,0
Y2-S2-020K19,5,393,AS,exp,30,↑,up,↑,0.8539675001520663,True,16,-1,0,0
Y2-S2-020K19,5,394,AS,exp,44,→,up,↑,0.86586770019494,False,16,-1,0,0
Y2-S2-020K19,5,395,AS,exp,25,←,left,←,0.4173423000611365,True,17,-1,0,0
Y2-S2-020K19,5,396,AS,exp,49,→,right,→,0.5396408000960946,True,17,-1,0,0
Y2-S2-020K19,5,397,AS,exp,40,↓,down,↓,0.5818626000545919,True,17,1,1,1
Y2-S2-020K19,5,398,AS,exp,43,→,left,←,0.7054665999021381,False,16,-1,1,2
Y2-S2-020K19,5,399,AS,exp,35,↑,down,↓,0.6103060999885201,False,17,-1,0,2
Y2-S2-020K19,5,400,AS,exp,36,←,left,←,0.525605599861592,True,18,-1,0,2
Y2-S2-020K19,5,401,AS,exp,37,↓,up,↑,0.4875735999085009,False,18,-1,0,2
Y2-S2-020K19,5,402,AS,exp,50,→,right,→,0.45051780017092824,True,19,-1,0,2
Y2-S2-020K19,5,403,AS,exp,44,←,left,←,0.45050209993496537,True,19,-1,0,2
Y2-S2-020K19,5,404,AS,exp,28,→,right,→,0.49073520000092685,True,19,1,1,3
Y2-S2-020K19,5,405,AS,exp,48,↑,right,→,0.5281209000386298,False,18,-1,1,4
Y2-S2-020K19,5,406,AS,exp,43,→,right,→,1.1108387999702245,True,19,-1,0,4
Y2-S2-020K19,5,407,AS,exp,40,↑,up,↑,0.5493791000917554,True,19,-1,0,4
Y2-S2-020K19,5,408,AS,exp,36,←,left,←,0.5018289000727236,True,19,1,1,5
Y2-S2-020K19,5,409,AS,exp,27,↓,down,↓,0.5486775999888778,True,18,1,0,5
Y2-S2-020K19,5,410,AS,exp,41,→,right,→,0.47639810014516115,True,18,1,0,5
Y2-S2-020K19,5,411,AS,exp,34,←,left,←,0.47183619998395443,True,18,1,0,5
Y2-S2-020K19,5,412,AS,exp,29,↑,up,↑,0.5812204000540078,True,17,1,0,5
Y2-S2-020K19,5,413,AS,exp,48,←,right,→,0.483066099928692,False,17,-1,1,6
Y2-S2-020K19,5,414,AS,exp,33,→,right,→,0.4337010998278856,True,18,-1,0,6
Y2-S2-020K19,5,415,AS,exp,37,←,left,←,1.2562516999896616,True,18,-1,0,6
Y2-S2-020K19,5,416,AS,exp,41,→,right,→,0.6555059000384063,True,18,1,1,7
Y2-S2-020K19,5,417,AS,exp,30,↑,up,↑,0.5656218000221997,True,17,1,0,7
Y2-S2-020K19,5,418,AS,exp,28,↓,up,↑,0.5025667999871075,False,17,-1,1,8
Y2-S2-020K19,5,419,AS,exp,46,←,left,←,0.5440438999794424,True,18,-1,0,8
Y2-S2-020K19,5,420,AS,exp,28,→,left,←,0.5715625998564065,False,18,-1,0,8
Y2-S2-020K19,5,421,AS,exp,31,↑,up,↑,0.5096547999419272,True,19,-1,0,8
Y2-S2-020K19,5,422,AS,exp,30,←,left,←,0.6474644001573324,True,19,-1,0,8
Y2-S2-020K19,5,423,AS,exp,28,↓,down,↓,0.5497486998792738,True,19,1,1,9
Y2-S2-020K19,5,424,AS,exp,45,↑,up,↑,0.5076167001388967,True,18,1,0,9
Y2-S2-020K19,5,425,AS,exp,27,→,right,→,0.5631672998424619,True,18,1,0,9
Y2-S2-020K19,5,426,AS,exp,38,↓,down,↓,0.6753177000209689,True,18,1,0,9
Y2-S2-020K19,5,427,AS,exp,30,←,left,←,0.49518220010213554,True,17,1,0,9
Y2-S2-020K19,5,428,AS,exp,50,↑,up,↑,0.41733879991807044,True,17,1,0,9
Y2-S2-020K19,5,429,AS,exp,30,↓,right,→,0.6636266999412328,False,17,-1,1,10
Y2-S2-020K19,5,430,AS,exp,45,→,right,→,0.713127100141719,True,18,-1,0,10
Y2-S2-020K19,5,431,AS,exp,36,↓,down,↓,0.8159533999860287,True,18,-1,0,10
Y2-S2-020K19,5,432,AS,exp,32,↑,up,↑,0.5936218998394907,True,18,1,1,11
Y2-S2-020K19,5,433,AS,exp,41,←,right,→,0.5434912000782788,False,17,-1,1,12
Y2-S2-020K19,5,434,AS,exp,42,↓,down,↓,0.5368508000392467,True,18,-1,0,12
Y2-S2-020K19,5,435,AS,exp,41,→,right,→,0.7007574001327157,True,18,-1,0,12
Y2-S2-020K19,5,436,AS,exp,27,↑,up,↑,0.5213528999593109,True,18,1,1,13
Y2-S2-020K19,5,437,AS,exp,37,↓,down,↓,0.7270324998535216,True,17,1,0,13
Y2-S2-020K19,5,438,AS,exp,37,↑,up,↑,0.7006898000836372,True,17,1,0,13
Y2-S2-020K19,5,439,AS,exp,26,→,right,→,0.6628433999139816,True,17,1,0,13
Y2-S2-020K19,5,440,AS,exp,45,↑,up,↑,0.6953302000183612,True,16,1,0,13
Y2-S2-020K19,5,441,AS,exp,32,←,left,←,0.48294000001624227,True,16,1,0,13
Y2-S2-020K19,5,442,AS,exp,49,↑,no_key,no_letter,-1.0,False,16,-1,1,14
Y2-S2-020K19,5,443,AS,exp,45,←,left,←,0.753618499962613,True,17,-1,0,14
Y2-S2-020K19,5,444,AS,exp,42,↑,down,↓,0.8339998000301421,False,17,-1,0,14
Y2-S2-020K19,5,445,AS,exp,33,→,left,←,0.4933504001237452,False,18,-1,0,14
Y2-S2-020K19,5,446,AS,exp,30,←,left,←,0.6391890998929739,True,19,-1,0,14
Y2-S2-020K19,5,447,AS,exp,50,↓,down,↓,0.5401767001021653,True,19,-1,0,14
Y2-S2-020K19,5,448,AS,exp,29,→,right,→,0.48637269996106625,True,19,1,1,15
Y2-S2-020K19,5,449,AS,exp,40,↑,down,↓,0.7326816997956485,False,18,-1,1,16
Y2-S2-020K19,6,450,PS,intra_train,31,←,left,←,0.5276145001407713,True,19,-,-,-
Y2-S2-020K19,6,451,PS,intra_train,28,→,left,←,0.9337617999408394,False,19,-,-,-
Y2-S2-020K19,6,452,PS,intra_train,30,↑,up,↑,0.5831186999566853,True,19,-,-,-
Y2-S2-020K19,6,453,PS,intra_train,43,↓,down,↓,0.968018300132826,True,19,-,-,-
Y2-S2-020K19,6,454,PS,intra_train,32,↑,right,→,0.7841044999659061,False,19,-,-,-
Y2-S2-020K19,6,455,PS,exp,34,←,up,↑,0.5724402999039739,False,13,-1,0,0
Y2-S2-020K19,6,456,PS,exp,36,→,right,→,0.4746125000528991,True,14,-1,0,0
Y2-S2-020K19,6,457,PS,exp,29,↑,up,↑,0.5833250000141561,True,14,-1,0,0
Y2-S2-020K19,6,458,PS,exp,46,←,left,←,0.4770259999204427,True,14,1,1,1
Y2-S2-020K19,6,459,PS,exp,40,→,left,←,0.2844680999405682,False,13,-1,1,2
Y2-S2-020K19,6,460,PS,exp,28,↑,right,→,0.1676100001204759,False,14,-1,0,2
Y2-S2-020K19,6,461,PS,exp,35,→,right,→,0.47890459978953004,True,15,-1,0,2
Y2-S2-020K19,6,462,PS,exp,25,↑,up,↑,0.45473059988580644,True,15,-1,0,2
Y2-S2-020K19,6,463,PS,exp,50,↓,up,↑,0.5025891999248415,False,15,-1,0,2
Y2-S2-020K19,6,464,PS,exp,45,↑,up,↑,0.5081446999683976,True,16,-1,0,2
Y2-S2-020K19,6,465,PS,exp,43,←,left,←,0.3838421998079866,True,16,-1,0,2
Y2-S2-020K19,6,466,PS,exp,33,→,right,→,0.45279070013202727,True,16,1,1,3
Y2-S2-020K19,6,467,PS,exp,29,←,left,←,0.482661799993366,True,15,1,0,3
Y2-S2-020K19,6,468,PS,exp,50,↑,up,↑,0.9772031998727471,True,15,1,0,3
Y2-S2-020K19,6,469,PS,exp,39,→,right,→,0.520033799810335,True,15,1,0,3
Y2-S2-020K19,6,470,PS,exp,29,↓,down,↓,0.6536063998937607,True,14,1,0,3
Y2-S2-020K19,6,471,PS,exp,25,↑,up,↑,0.4540752999018878,True,14,1,0,3
Y2-S2-020K19,6,472,PS,exp,30,→,right,→,0.5066148999612778,True,14,1,0,3
Y2-S2-020K19,6,473,PS,exp,40,↑,up,↑,0.5427194000221789,True,13,1,0,3
Y2-S2-020K19,6,474,PS,exp,29,←,left,←,0.49378270003944635,True,13,1,0,3
Y2-S2-020K19,6,475,PS,exp,35,→,right,→,0.4103334001265466,True,13,1,0,3
Y2-S2-020K19,6,476,PS,exp,46,↓,down,↓,0.5701894999947399,True,12,1,0,3
Y2-S2-020K19,6,477,PS,exp,37,→,left,←,0.7089519000146538,False,12,-1,1,4
Y2-S2-020K19,6,478,PS,exp,43,←,up,↑,0.9852696999441832,False,13,-1,0,4
Y2-S2-020K19,6,479,PS,exp,39,↑,up,↑,0.5839030998758972,True,14,-1,0,4
Y2-S2-020K19,6,480,PS,exp,30,←,no_key,no_letter,-1.0,False,14,-1,0,4
Y2-S2-020K19,6,481,PS,exp,26,↑,up,↑,0.6621482998598367,True,15,-1,0,4
Y2-S2-020K19,6,482,PS,exp,44,←,right,→,0.6649428999517113,False,15,-1,0,4
Y2-S2-020K19,6,483,PS,exp,38,→,right,→,0.6810266999527812,True,16,-1,0,4
Y2-S2-020K19,6,484,PS,exp,49,↓,down,↓,0.7460456998087466,True,16,-1,0,4
Y2-S2-020K19,6,485,PS,exp,44,↑,left,←,0.5091466000303626,False,16,-1,0,4
Y2-S2-020K19,6,486,PS,exp,44,↓,no_key,no_letter,-1.0,False,17,-1,0,4
Y2-S2-020K19,6,487,PS,exp,43,←,left,←,0.36705420003272593,True,18,-1,0,4
Y2-S2-020K19,6,488,PS,exp,33,↓,down,↓,0.367350900080055,True,18,-1,0,4
Y2-S2-020K19,6,489,PS,exp,41,→,right,→,1.094289799919352,True,18,1,1,5
Y2-S2-020K19,6,490,PS,exp,32,←,left,←,0.9045679999981076,True,17,1,0,5
Y2-S2-020K19,6,491,PS,exp,36,→,right,→,0.41708109993487597,True,17,1,0,5
Y2-S2-020K19,6,492,PS,exp,47,↓,down,↓,0.4604791000019759,True,17,1,0,5
Y2-S2-020K19,6,493,PS,exp,50,↑,left,←,0.9241724000312388,False,16,-1,1,6
Y2-S2-020K19,6,494,PS,exp,26,→,left,←,0.7712658999953419,False,17,-1,0,6
Y2-S2-020K19,6,495,PS,exp,35,←,left,←,0.480904099997133,True,18,-1,0,6
Y2-S2-020K19,6,496,PS,exp,31,→,right,→,0.3840455999597907,True,18,-1,0,6
Y2-S2-020K19,6,497,PS,exp,40,←,left,←,1.156665600137785,True,18,1,1,7
Y2-S2-020K19,6,498,PS,exp,27,→,up,↑,1.4128889001440257,False,17,-1,1,8
Y2-S2-020K19,6,499,PS,exp,29,←,left,←,0.639774699928239,True,18,-1,0,8
Y2-S2-020K19,6,500,PS,exp,26,→,left,←,0.417077099904418,False,18,-1,0,8
Y2-S2-020K19,6,501,PS,exp,31,←,no_key,no_letter,-1.0,False,19,-1,0,8
Y2-S2-020K19,6,502,PS,exp,39,→,left,←,0.3338161997962743,False,20,-1,0,8
Y2-S2-020K19,6,503,PS,exp,28,↑,up,↑,0.4337800999637693,True,21,-1,0,8
Y2-S2-020K19,6,504,PS,exp,31,↓,left,←,1.0984568998683244,False,21,-1,0,8
Y2-S2-020K19,6,505,PS,exp,25,←,left,←,0.38500369992107153,True,22,-1,0,8
Y2-S2-020K19,6,506,PS,exp,50,↓,left,←,0.35055229999125004,False,22,-1,0,8
Y2-S2-020K19,6,507,PS,exp,44,↑,up,↑,0.64946150011383,True,23,-1,0,8
Y2-S2-020K19,6,508,PS,exp,44,→,right,→,0.4841674999333918,True,23,-1,0,8
Y2-S2-020K19,6,509,PS,exp,27,←,left,←,0.4841263999696821,True,23,1,1,9
Y2-S2-020K19,6,510,PS,exp,34,↓,down,↓,0.5601234999485314,True,22,1,0,9
Y2-S2-020K19,6,511,PS,exp,31,→,right,→,0.33396090008318424,True,22,1,0,9
Y2-S2-020K19,6,512,PS,exp,27,↑,left,←,0.301121799973771,False,22,-1,1,10
Y2-S2-020K19,6,513,PS,exp,32,→,right,→,0.581644400022924,True,23,-1,0,10
Y2-S2-020K19,6,514,PS,exp,31,↑,up,↑,0.43402559985406697,True,23,-1,0,10
Y2-S2-020K19,6,515,PS,exp,31,←,left,←,0.3839994000736624,True,23,1,1,11
Y2-S2-020K19,6,516,PS,exp,37,↑,up,↑,0.4007983999326825,True,22,1,0,11
Y2-S2-020K19,6,517,PS,exp,41,←,right,→,0.40122959995642304,False,22,-1,1,12
Y2-S2-020K19,6,518,PS,exp,48,↓,down,↓,1.1501176999881864,True,23,-1,0,12
Y2-S2-020K19,6,519,PS,exp,40,→,right,→,0.4174769998062402,True,23,-1,0,12
Y2-S2-020K19,6,520,PS,exp,46,↓,right,→,0.3346416999120265,False,23,-1,0,12
Y2-S2-020K19,6,521,PS,exp,26,←,left,←,0.5338890000712126,True,24,-1,0,12
Y2-S2-020K19,6,522,PS,exp,50,→,right,→,0.40051400009542704,True,24,-1,0,12
Y2-S2-020K19,6,523,PS,exp,40,↑,up,↑,0.48417260008864105,True,24,1,1,13
Y2-S2-020K19,6,524,PS,exp,39,→,right,→,0.45060919993557036,True,23,1,0,13
Y2-S2-020K19,6,525,PS,exp,37,↑,up,↑,0.45039770007133484,True,23,1,0,13
Y2-S2-020K19,6,526,PS,exp,41,→,right,→,0.45056589995510876,True,23,1,0,13
Y2-S2-020K19,6,527,PS,exp,43,↑,up,↑,0.5006452999077737,True,22,1,0,13
Y2-S2-020K19,6,528,PS,exp,50,←,left,←,0.4511721001472324,True,22,1,0,13
Y2-S2-020K19,6,529,PS,exp,39,→,right,→,0.4341436999384314,True,22,1,0,13
Y2-S2-020K19,6,530,PS,exp,36,↓,down,↓,0.6377593001816422,True,21,1,0,13
Y2-S2-020K19,6,531,PS,exp,31,↑,up,↑,1.1737269000150263,True,21,1,0,13
Y2-S2-020K19,6,532,PS,exp,37,↓,left,←,0.43377280002459884,False,21,-1,1,14
Y2-S2-020K19,6,533,PS,exp,35,→,right,→,1.107914799824357,True,22,-1,0,14
Y2-S2-020K19,6,534,PS,exp,37,↑,up,↑,0.5005242000333965,True,22,-1,0,14
Y2-S2-020K19,6,535,PS,exp,42,↓,down,↓,1.0721844998188317,True,22,1,1,15
Y2-S2-020K19,6,536,PS,exp,29,↑,up,↑,1.0500829999800771,True,21,1,0,15
Y2-S2-020K19,6,537,PS,exp,32,↓,left,←,0.48390350001864135,False,21,-1,1,16
Y2-S2-020K19,7,538,PS,intra_train,30,→,right,→,0.4003828000277281,True,19,-,-,-
Y2-S2-020K19,7,539,PS,intra_train,42,↑,left,←,0.38419810007326305,False,19,-,-,-
Y2-S2-020K19,7,540,PS,intra_train,33,←,left,←,1.0505287998821586,True,19,-,-,-
Y2-S2-020K19,7,541,PS,intra_train,41,↓,down,↓,0.5113751001190394,True,19,-,-,-
Y2-S2-020K19,7,542,PS,intra_train,25,←,left,←,0.5182016999460757,True,19,-,-,-
Y2-S2-020K19,7,543,PS,exp,32,↓,down,↓,0.7515344000421464,True,13,0,0,0
Y2-S2-020K19,7,544,PS,exp,29,←,up,↑,0.33402130007743835,False,13,-1,0,0
Y2-S2-020K19,7,545,PS,exp,38,→,right,→,0.2674491999205202,True,14,-1,0,0
Y2-S2-020K19,7,546,PS,exp,41,↑,left,←,0.47529540001414716,False,14,-1,0,0
Y2-S2-020K19,7,547,PS,exp,34,↓,down,↓,0.6432393998838961,True,15,-1,0,0
Y2-S2-020K19,7,548,PS,exp,25,←,left,←,0.4519515000283718,True,15,-1,0,0
Y2-S2-020K19,7,549,PS,exp,37,↑,up,↑,0.3837043000385165,True,15,1,1,1
Y2-S2-020K19,7,550,PS,exp,39,→,right,→,0.4364106000866741,True,14,1,0,1
Y2-S2-020K19,7,551,PS,exp,42,↓,down,↓,0.4108127998188138,True,14,1,0,1
Y2-S2-020K19,7,552,PS,exp,36,↑,left,←,0.5727484999224544,False,14,-1,1,2
Y2-S2-020K19,7,553,PS,exp,39,←,up,↑,0.49765189993195236,False,15,-1,0,2
Y2-S2-020K19,7,554,PS,exp,29,↓,down,↓,0.5689741999376565,True,16,-1,0,2
Y2-S2-020K19,7,555,PS,exp,39,←,left,←,0.4531894999090582,True,16,-1,0,2
Y2-S2-020K19,7,556,PS,exp,32,→,up,↑,1.6866716998629272,False,16,-1,0,2
Y2-S2-020K19,7,557,PS,exp,33,←,no_key,no_letter,-1.0,False,17,-1,0,2
Y2-S2-020K19,7,558,PS,exp,27,→,right,→,0.6266662999987602,True,18,-1,0,2
Y2-S2-020K19,7,559,PS,exp,31,←,left,←,1.047097499947995,True,18,-1,0,2
Y2-S2-020K19,7,560,PS,exp,26,→,right,→,0.4986152998171747,True,18,1,1,3
Y2-S2-020K19,7,561,PS,exp,46,↑,up,↑,0.41714429995045066,True,17,1,0,3
Y2-S2-020K19,7,562,PS,exp,50,↓,left,←,0.3341063999105245,False,17,-1,1,4
Y2-S2-020K19,7,563,PS,exp,39,←,left,←,0.3840042999945581,True,18,-1,0,4
Y2-S2-020K19,7,564,PS,exp,31,↓,down,↓,0.6152158998884261,True,18,-1,0,4
Y2-S2-020K19,7,565,PS,exp,25,↑,up,↑,0.5117642998229712,True,18,1,1,5
Y2-S2-020K19,7,566,PS,exp,37,←,left,←,1.0253512000199407,True,17,1,0,5
Y2-S2-020K19,7,567,PS,exp,35,→,right,→,0.5007893999572843,True,17,1,0,5
Y2-S2-020K19,7,568,PS,exp,27,←,left,←,0.9533846999984235,True,17,1,0,5
Y2-S2-020K19,7,569,PS,exp,45,→,right,→,0.4870107998140156,True,16,1,0,5
Y2-S2-020K19,7,570,PS,exp,49,↑,up,↑,0.4744925999548286,True,16,1,0,5
Y2-S2-020K19,7,571,PS,exp,29,↓,down,↓,0.6329753999598324,True,16,1,0,5
Y2-S2-020K19,7,572,PS,exp,26,→,right,→,1.2618082999251783,True,15,1,0,5
Y2-S2-020K19,7,573,PS,exp,39,↓,down,↓,0.4668221001047641,True,15,1,0,5
Y2-S2-020K19,7,574,PS,exp,30,→,right,→,0.5173132000491023,True,15,1,0,5
Y2-S2-020K19,7,575,PS,exp,44,↓,down,↓,0.5031707000453025,True,14,1,0,5
Y2-S2-020K19,7,576,PS,exp,42,↑,up,↑,0.4493954998906702,True,14,1,0,5
Y2-S2-020K19,7,577,PS,exp,26,→,down,↓,0.46867309999652207,False,14,-1,1,6
Y2-S2-020K19,7,578,PS,exp,27,←,left,←,0.3839794001542032,True,15,-1,0,6
Y2-S2-020K19,7,579,PS,exp,26,↓,down,↓,0.5621026998851448,True,15,-1,0,6
Y2-S2-020K19,7,580,PS,exp,44,→,right,→,0.42938370001502335,True,15,1,1,7
Y2-S2-020K19,7,581,PS,exp,26,↑,up,↑,0.40187110006809235,True,14,1,0,7
Y2-S2-020K19,7,582,PS,exp,39,→,right,→,0.4411565000191331,True,14,1,0,7
Y2-S2-020K19,7,583,PS,exp,42,↑,up,↑,0.49403439997695386,True,14,1,0,7
Y2-S2-020K19,7,584,PS,exp,38,→,right,→,0.4221439000684768,True,13,1,0,7
Y2-S2-020K19,7,585,PS,exp,37,↑,up,↑,0.4075834001414478,True,13,1,0,7
Y2-S2-020K19,7,586,PS,exp,50,↓,up,↑,0.4219947000965476,False,13,-1,1,8
Y2-S2-020K19,7,587,PS,exp,38,→,right,→,0.6251188998576254,True,14,-1,0,8
Y2-S2-020K19,7,588,PS,exp,49,←,left,←,1.784150700084865,True,14,-1,0,8
Y2-S2-020K19,7,589,PS,exp,42,→,right,→,0.4560678999405354,True,14,1,1,9
Y2-S2-020K19,7,590,PS,exp,45,←,left,←,0.4211279998999089,True,13,1,0,9
Y2-S2-020K19,7,591,PS,exp,40,→,right,→,0.44733119988813996,True,13,1,0,9
Y2-S2-020K19,7,592,PS,exp,50,↓,down,↓,0.8556895998772234,True,13,1,0,9
Y2-S2-020K19,7,593,PS,exp,39,→,right,→,0.40635900013148785,True,12,1,0,9
Y2-S2-020K19,7,594,PS,exp,40,↓,left,←,0.42210990004241467,False,12,-1,1,10
Y2-S2-020K19,7,595,PS,exp,43,↑,up,↑,1.004038100130856,True,13,-1,0,10
Y2-S2-020K19,7,596,PS,exp,39,↓,down,↓,0.636594100156799,True,13,-1,0,10
Y2-S2-020K19,7,597,PS,exp,35,→,right,→,0.43206899985671043,True,13,1,1,11
Y2-S2-020K19,7,598,PS,exp,40,↓,down,↓,0.5447945999912918,True,12,1,0,11
Y2-S2-020K19,7,599,PS,exp,45,←,right,→,0.5876897000707686,False,12,-1,1,12
Y2-S2-020K19,7,600,PS,exp,46,↓,up,↑,0.5941794000100344,False,13,-1,0,12
Y2-S2-020K19,7,601,PS,exp,47,→,right,→,0.539826299995184,True,14,-1,0,12
Y2-S2-020K19,7,602,PS,exp,49,←,left,←,0.6134693999774754,True,14,-1,0,12
Y2-S2-020K19,7,603,PS,exp,35,→,right,→,0.3337939998600632,True,14,1,1,13
Y2-S2-020K19,7,604,PS,exp,40,↓,down,↓,0.5452415999025106,True,13,1,0,13
Y2-S2-020K19,7,605,PS,exp,41,↑,down,↓,0.5659344000741839,False,13,-1,1,14
Y2-S2-020K19,7,606,PS,exp,31,↓,right,→,0.6746191000565886,False,14,-1,0,14
Y2-S2-020K19,7,607,PS,exp,48,↑,down,↓,0.5309574999846518,False,15,-1,0,14
Y2-S2-020K19,7,608,PS,exp,37,↓,left,←,0.3677649002056569,False,16,-1,0,14
Y2-S2-020K19,7,609,PS,exp,45,←,left,←,0.41749659995548427,True,17,-1,0,14
Y2-S2-020K19,7,610,PS,exp,36,→,down,↓,0.5754676999058574,False,17,-1,0,14
Y2-S2-020K19,7,611,PS,exp,27,←,left,←,0.41690960014238954,True,18,-1,0,14
Y2-S2-020K19,7,612,PS,exp,48,↓,down,↓,0.5050610001198947,True,18,-1,0,14
Y2-S2-020K19,7,613,PS,exp,26,→,right,→,0.49944439996033907,True,18,1,1,15
Y2-S2-020K19,7,614,PS,exp,32,↑,down,↓,0.6557009001262486,False,17,-1,1,16
Y2-S2-020K19,8,615,AS,intra_train,34,←,left,←,0.6328622000291944,True,21,-,-,-
Y2-S2-020K19,8,616,AS,intra_train,41,↑,up,↑,1.032203600043431,True,21,-,-,-
Y2-S2-020K19,8,617,AS,intra_train,38,↓,down,↓,0.6335658999159932,True,21,-,-,-
Y2-S2-020K19,8,618,AS,intra_train,28,→,right,→,0.5516520000528544,True,21,-,-,-
Y2-S2-020K19,8,619,AS,intra_train,39,↓,down,↓,0.6449998000171036,True,21,-,-,-
Y2-S2-020K19,8,620,AS,exp,31,↑,down,↓,0.7692489000037313,False,14,-1,0,0
Y2-S2-020K19,8,621,AS,exp,38,→,up,↑,0.35036859987303615,False,15,-1,0,0
Y2-S2-020K19,8,622,AS,exp,44,←,left,←,0.5779428998939693,True,16,-1,0,0
Y2-S2-020K19,8,623,AS,exp,33,↓,left,←,0.9919468001462519,False,16,-1,0,0
Y2-S2-020K19,8,624,AS,exp,30,→,left,←,0.5462605999782681,False,17,-1,0,0
Y2-S2-020K19,8,625,AS,exp,48,↓,down,↓,0.5589106001425534,True,18,-1,0,0
Y2-S2-020K19,8,626,AS,exp,46,→,left,←,0.5572373999748379,False,18,-1,0,0
Y2-S2-020K19,8,627,AS,exp,25,↑,down,↓,0.5602698000147939,False,19,-1,0,0
Y2-S2-020K19,8,628,AS,exp,44,↓,right,→,0.5484286998398602,False,20,-1,0,0
Y2-S2-020K19,8,629,AS,exp,43,←,down,↓,0.25103310006670654,False,21,-1,0,0
Y2-S2-020K19,8,630,AS,exp,40,↓,down,↓,0.33437700010836124,True,22,-1,0,0
Y2-S2-020K19,8,631,AS,exp,25,→,down,↓,0.10088680009357631,False,22,-1,0,0
Y2-S2-020K19,8,632,AS,exp,47,←,down,↓,0.23460730002261698,False,23,-1,0,0
Y2-S2-020K19,8,633,AS,exp,42,↑,up,↑,0.08436580002307892,True,24,-1,0,0
Y2-S2-020K19,8,634,AS,exp,42,←,down,↓,0.2509355000220239,False,24,-1,0,0
Y2-S2-020K19,8,635,AS,exp,25,→,left,←,0.23424989986233413,False,25,-1,0,0
Y2-S2-020K19,8,636,AS,exp,41,↑,right,→,0.48370850016362965,False,26,-1,0,0
Y2-S2-020K19,8,637,AS,exp,43,→,right,→,0.6965656001120806,True,27,-1,0,0
Y2-S2-020K19,8,638,AS,exp,31,←,left,←,1.2826898999046534,True,27,-1,0,0
Y2-S2-020K19,8,639,AS,exp,50,→,right,→,0.5174543999601156,True,27,1,1,1
Y2-S2-020K19,8,640,AS,exp,44,↓,left,←,0.4344345999415964,False,26,-1,1,2
Y2-S2-020K19,8,641,AS,exp,38,→,right,→,0.7186203999444842,True,27,-1,0,2
Y2-S2-020K19,8,642,AS,exp,42,↑,up,↑,1.1440221001394093,True,27,-1,0,2
Y2-S2-020K19,8,643,AS,exp,25,→,right,→,0.46738020004704595,True,27,1,1,3
Y2-S2-020K19,8,644,AS,exp,48,←,right,→,0.45094270003028214,False,26,-1,1,4
Y2-S2-020K19,8,645,AS,exp,33,↑,up,↑,0.38465839996933937,True,27,-1,0,4
Y2-S2-020K19,8,646,AS,exp,37,→,right,→,0.4177303002215922,True,27,-1,0,4
Y2-S2-020K19,8,647,AS,exp,30,←,left,←,0.4506938001140952,True,27,1,1,5
Y2-S2-020K19,8,648,AS,exp,29,→,right,→,0.3841807001736015,True,26,1,0,5
Y2-S2-020K19,8,649,AS,exp,36,↓,down,↓,0.45060350000858307,True,26,1,0,5
Y2-S2-020K19,8,650,AS,exp,41,↑,up,↑,0.621103199897334,True,26,1,0,5
Y2-S2-020K19,8,651,AS,exp,43,←,right,→,0.46737630013376474,False,25,-1,1,6
Y2-S2-020K19,8,652,AS,exp,48,↑,left,←,0.35090499999932945,False,26,-1,0,6
Y2-S2-020K19,8,653,AS,exp,34,←,right,→,0.1347643998451531,False,27,-1,0,6
Y2-S2-020K19,8,654,AS,exp,37,→,down,↓,0.08458260004408658,False,28,-1,0,6
Y2-S2-020K19,8,655,AS,exp,26,↑,up,↑,0.7453090997878462,True,29,-1,0,6
Y2-S2-020K19,8,656,AS,exp,38,→,down,↓,0.5505389999598265,False,29,-1,0,6
Y2-S2-020K19,8,657,AS,exp,26,↓,right,→,0.46772539988160133,False,30,-1,0,6
Y2-S2-020K19,8,658,AS,exp,43,←,left,←,0.43425559997558594,True,31,-1,0,6
Y2-S2-020K19,8,659,AS,exp,41,→,right,→,0.7254309998825192,True,31,-1,0,6
Y2-S2-020K19,8,660,AS,exp,26,↓,left,←,0.5180903999134898,False,31,-1,0,6
Y2-S2-020K19,8,661,AS,exp,27,→,down,↓,0.5008355001918972,False,32,-1,0,6
Y2-S2-020K19,8,662,AS,exp,31,↓,down,↓,0.5672431001439691,True,33,-1,0,6
Y2-S2-020K19,8,663,AS,exp,27,↑,right,→,0.45094250002875924,False,33,-1,0,6
Y2-S2-020K19,8,664,AS,exp,34,→,up,↑,0.18413239996880293,False,34,-1,0,6
Y2-S2-020K19,8,665,AS,exp,44,↓,up,↑,0.16787769994698465,False,35,-1,0,6
Y2-S2-020K19,8,666,AS,exp,26,↑,down,↓,0.367961100069806,False,36,-1,0,6
Y2-S2-020K19,8,667,AS,exp,45,↓,down,↓,0.5008539999835193,True,37,-1,0,6
Y2-S2-020K19,8,668,AS,exp,38,↑,down,↓,0.40109620010480285,False,37,-1,0,6
Y2-S2-020K19,8,669,AS,exp,32,→,right,→,0.7002501001115888,True,38,-1,0,6
Y2-S2-020K19,8,670,AS,exp,49,↑,left,←,0.534614399774,False,38,-1,0,6
Y2-S2-020K19,8,671,AS,exp,30,→,up,↑,0.15094529977068305,False,39,-1,0,6
Y2-S2-020K19,8,672,AS,exp,48,↓,up,↑,0.4012770999688655,False,40,-1,0,6
Y2-S2-020K19,8,673,AS,exp,35,↑,right,→,0.2509888999629766,False,41,-1,0,6
Y2-S2-020K19,8,674,AS,exp,49,→,right,→,0.46773719997145236,True,42,-1,0,6
Y2-S2-020K19,8,675,AS,exp,31,←,left,←,0.91739990003407,True,42,-1,0,6
Y2-S2-020K19,8,676,AS,exp,46,↓,right,→,1.3750091998372227,False,42,-1,0,6
Y2-S2-020K19,8,677,AS,exp,38,←,right,→,0.5344426999799907,False,43,-1,0,6
Y2-S2-020K19,8,678,AS,exp,47,↑,right,→,0.4668195000849664,False,44,-1,0,6
Y2-S2-020K19,8,679,AS,exp,27,←,up,↑,0.5678900999482721,False,45,-1,0,6
Y2-S2-020K19,8,680,AS,exp,41,→,right,→,0.4515609999652952,True,46,-1,0,6
Y2-S2-020K19,8,681,AS,exp,48,←,right,→,0.48444320005364716,False,46,-1,0,6
Y2-S2-020K19,8,682,AS,exp,25,↑,up,↑,2.1620414000935853,True,47,-1,0,6
Y2-S2-020K19,8,683,AS,exp,47,→,left,←,0.4343419000506401,False,47,-1,0,6
Y2-S2-020K19,8,684,AS,exp,25,←,left,←,0.5342948001343757,True,48,-1,0,6
Y2-S2-020K19,8,685,AS,exp,48,↑,up,↑,0.4339766998309642,True,48,-1,0,6
Y2-S2-020K19,8,686,AS,exp,32,←,left,←,0.6513132001273334,True,48,1,1,7
Y2-S2-020K19,8,687,AS,exp,42,↑,up,↑,0.7344216001220047,True,47,1,0,7
Y2-S2-020K19,8,688,AS,exp,49,↓,right,→,0.6844833998475224,False,47,-1,1,8
Y2-S2-020K19,8,689,AS,exp,44,↑,up,↑,0.5845802999101579,True,48,-1,0,8
Y2-S2-020K19,8,690,AS,exp,50,←,left,←,0.4177522000391036,True,48,-1,0,8
Y2-S2-020K19,8,691,AS,exp,38,↑,up,↑,0.40112659987062216,True,48,1,1,9
Y2-S2-020K19,8,692,AS,exp,26,↓,up,↑,0.40109380008652806,False,47,-1,1,10
Y2-S2-020K19,8,693,AS,exp,30,↑,up,↑,0.6511196999344975,True,48,-1,0,10
Y2-S2-020K19,8,694,AS,exp,34,←,left,←,0.46780360001139343,True,48,-1,0,10
Y2-S2-020K19,8,695,AS,exp,43,↑,up,↑,0.6012240999843925,True,48,1,1,11
Y2-S2-020K19,8,696,AS,exp,47,→,right,→,0.4512949998024851,True,47,1,0,11
Y2-S2-020K19,8,697,AS,exp,34,←,left,←,0.5844705000054091,True,47,1,0,11
Y2-S2-020K19,8,698,AS,exp,41,↑,up,↑,0.5844903998076916,True,47,1,0,11
Y2-S2-020K19,8,699,AS,exp,34,↓,up,↑,0.5844982000999153,False,46,-1,1,12
Y2-S2-020K19,8,700,AS,exp,35,←,left,←,0.4344063999596983,True,47,-1,0,12
Y2-S2-020K19,8,701,AS,exp,35,→,right,→,0.6179231000132859,True,47,-1,0,12
Y2-S2-020K19,8,702,AS,exp,29,↓,left,←,0.5680118000600487,False,47,-1,0,12
Y2-S2-020K19,8,703,AS,exp,30,↑,up,↑,0.7009153999388218,True,48,-1,0,12
Y2-S2-020K19,8,704,AS,exp,45,←,left,←,0.4511748000513762,True,48,-1,0,12
Y2-S2-020K19,8,705,AS,exp,26,→,right,→,0.6176951001398265,True,48,1,1,13
Y2-S2-020K19,8,706,AS,exp,46,↑,up,↑,0.6008339000400156,True,47,1,0,13
Y2-S2-020K19,8,707,AS,exp,36,←,left,←,0.45112939993850887,True,47,1,0,13
Y2-S2-020K19,8,708,AS,exp,46,→,right,→,0.4173892999533564,True,47,1,0,13
Y2-S2-020K19,8,709,AS,exp,36,↓,down,↓,0.6346330000087619,True,46,1,0,13
Y2-S2-020K19,8,710,AS,exp,31,↑,up,↑,0.61776930000633,True,46,1,0,13
Y2-S2-020K19,8,711,AS,exp,27,↓,down,↓,0.7012026000302285,True,46,1,0,13
Y2-S2-020K19,8,712,AS,exp,25,←,left,←,0.7504382999613881,True,45,1,0,13
Y2-S2-020K19,8,713,AS,exp,48,↑,up,↑,0.7504121998790652,True,45,1,0,13
Y2-S2-020K19,8,714,AS,exp,41,↓,down,↓,0.668038799893111,True,45,1,0,13
Y2-S2-020K19,8,715,AS,exp,38,→,left,←,0.5177307000849396,False,44,-1,1,14
Y2-S2-020K19,8,716,AS,exp,28,↑,up,↑,0.6346942000091076,True,45,-1,0,14
Y2-S2-020K19,8,717,AS,exp,33,→,right,→,0.7840471998788416,True,45,-1,0,14
Y2-S2-020K19,8,718,AS,exp,47,↓,down,↓,0.6842685998417437,True,45,1,1,15
Y2-S2-020K19,8,719,AS,exp,45,←,left,←,0.45114780007861555,True,44,1,0,15
Y2-S2-020K19,8,720,AS,exp,31,→,right,→,0.7009580999147147,True,44,1,0,15
Y2-S2-020K19,8,721,AS,exp,48,↓,down,↓,0.6510528000071645,True,44,1,0,15
Y2-S2-020K19,8,722,AS,exp,49,←,left,←,0.6178943999111652,True,43,1,0,15
Y2-S2-020K19,8,723,AS,exp,33,↑,up,↑,0.45140699995681643,True,43,1,0,15
Y2-S2-020K19,8,724,AS,exp,44,↓,right,→,0.5174991001840681,False,43,-1,1,16
