PART_ID,Block_no,Trial_no,Block_type,Trial_type,CSI,Stim_letter,Key_pressed,letter_choose,Rt,Corr,Stimulus Time,Level,Reversal,Revs_count
Y2-S2-123M22,1,1,PS,train,34,↓,no_key,no_letter,-1.0,False,30,-,-,-
Y2-S2-123M22,1,2,PS,train,41,←,left,←,1.1642359000106808,True,30,-,-,-
Y2-S2-123M22,1,3,PS,train,37,→,right,→,0.915908800001489,True,30,-,-,-
Y2-S2-123M22,1,4,PS,train,35,↓,down,↓,1.1099011999904178,True,30,-,-,-
Y2-S2-123M22,1,5,PS,train,33,←,left,←,0.9783931999991182,True,30,-,-,-
Y2-S2-123M22,1,6,PS,train,36,↑,up,↑,1.3439385000092443,True,30,-,-,-
Y2-S2-123M22,1,7,PS,train,33,↓,down,↓,0.7781008999736514,True,30,-,-,-
Y2-S2-123M22,1,8,PS,train,44,←,left,←,0.7245717000041623,True,30,-,-,-
Y2-S2-123M22,1,9,PS,train,27,→,right,→,0.8715709999960382,True,30,-,-,-
Y2-S2-123M22,1,10,PS,train,27,↓,down,↓,0.7747883999836631,True,30,-,-,-
Y2-S2-123M22,2,11,AS,train,50,←,left,←,0.8668849999958184,True,45,-,-,-
Y2-S2-123M22,2,12,AS,train,47,↓,down,↓,0.8837384000071324,True,45,-,-,-
Y2-S2-123M22,2,13,AS,train,41,↑,up,↑,1.6488554999814369,True,45,-,-,-
Y2-S2-123M22,2,14,AS,train,43,←,left,←,1.0899346999940462,True,45,-,-,-
Y2-S2-123M22,2,15,AS,train,33,↑,up,↑,0.7174557000107598,True,45,-,-,-
Y2-S2-123M22,2,16,AS,train,37,←,left,←,0.9775077999802306,True,45,-,-,-
Y2-S2-123M22,2,17,AS,train,46,↑,up,↑,0.9616387000132818,True,45,-,-,-
Y2-S2-123M22,2,18,AS,train,50,←,no_key,no_letter,-1.0,False,45,-,-,-
Y2-S2-123M22,2,19,AS,train,44,↓,down,↓,1.2500729000021238,True,45,-,-,-
Y2-S2-123M22,2,20,AS,train,50,→,right,→,0.783879499998875,True,45,-,-,-
Y2-S2-123M22,-,21,PS,adaptive,27,↓,right,→,1.1413111999863759,False,10,-1,0,0
Y2-S2-123M22,-,22,PS,adaptive,31,↑,up,↑,0.7406510000000708,True,11,-1,0,0
Y2-S2-123M22,-,23,PS,adaptive,50,→,right,→,0.6918879000004381,True,11,-1,0,0
Y2-S2-123M22,-,24,PS,adaptive,44,←,left,←,0.6464330999879166,True,11,1,1,1
Y2-S2-123M22,-,25,PS,adaptive,44,↓,down,↓,0.8071835000009742,True,10,1,0,1
Y2-S2-123M22,-,26,PS,adaptive,47,→,right,→,0.7158401999913622,True,10,1,0,1
Y2-S2-123M22,-,27,PS,adaptive,47,←,left,←,0.5721164999995381,True,10,1,0,1
Y2-S2-123M22,-,28,PS,adaptive,31,↑,up,↑,1.0423586000106297,True,9,1,0,1
Y2-S2-123M22,-,29,PS,adaptive,36,←,left,←,0.6596121999900788,True,9,1,0,1
Y2-S2-123M22,-,30,PS,adaptive,27,↑,up,↑,0.7440629000193439,True,9,1,0,1
Y2-S2-123M22,-,31,PS,adaptive,42,←,left,←,0.6262606999953277,True,8,1,0,1
Y2-S2-123M22,-,32,PS,adaptive,25,↓,down,↓,1.0237706000043545,True,8,1,0,1
Y2-S2-123M22,-,33,PS,adaptive,28,↑,up,↑,0.6744296999822836,True,8,1,0,1
Y2-S2-123M22,-,34,PS,adaptive,31,↓,left,←,0.7947937999852002,False,7,-1,1,2
Y2-S2-123M22,-,35,PS,adaptive,28,→,right,→,0.8533940000052098,True,8,-1,0,2
Y2-S2-123M22,-,36,PS,adaptive,46,↑,up,↑,0.7474443999817595,True,8,-1,0,2
Y2-S2-123M22,-,37,PS,adaptive,47,→,right,→,0.7671850000042468,True,8,1,1,3
Y2-S2-123M22,-,38,PS,adaptive,44,←,left,←,0.6582263000018429,True,7,1,0,3
Y2-S2-123M22,-,39,PS,adaptive,41,→,right,→,0.5530890000227373,True,7,1,0,3
Y2-S2-123M22,-,40,PS,adaptive,45,←,left,←,0.6156399000028614,True,7,1,0,3
Y2-S2-123M22,-,41,PS,adaptive,36,↑,right,→,0.6167313999903854,False,6,-1,1,4
Y2-S2-123M22,-,42,AS,adaptive,50,→,right,→,0.6240853999915998,True,20,0,0,0
Y2-S2-123M22,-,43,AS,adaptive,39,←,left,←,0.8513716999732424,True,20,0,0,0
Y2-S2-123M22,-,44,AS,adaptive,25,↓,up,↑,1.0812545999942813,False,20,-1,0,0
Y2-S2-123M22,-,45,AS,adaptive,47,←,left,←,0.6094699999957811,True,21,-1,0,0
Y2-S2-123M22,-,46,AS,adaptive,46,→,right,→,0.786922900006175,True,21,-1,0,0
Y2-S2-123M22,-,47,AS,adaptive,46,↑,up,↑,0.7813028000236955,True,21,1,1,1
Y2-S2-123M22,-,48,AS,adaptive,41,←,left,←,0.5991708000074141,True,20,1,0,1
Y2-S2-123M22,-,49,AS,adaptive,35,→,right,→,0.7300859999959357,True,20,1,0,1
Y2-S2-123M22,-,50,AS,adaptive,50,↓,down,↓,0.738982799986843,True,20,1,0,1
Y2-S2-123M22,-,51,AS,adaptive,49,←,left,←,0.765748200006783,True,19,1,0,1
Y2-S2-123M22,-,52,AS,adaptive,50,→,right,→,0.7916893000074197,True,19,1,0,1
Y2-S2-123M22,-,53,AS,adaptive,30,↑,up,↑,0.6539254000235815,True,19,1,0,1
Y2-S2-123M22,-,54,AS,adaptive,25,↓,down,↓,1.1665346999943722,True,18,1,0,1
Y2-S2-123M22,-,55,AS,adaptive,32,←,up,↑,0.9707319999870379,False,18,-1,1,2
Y2-S2-123M22,-,56,AS,adaptive,45,↑,up,↑,0.7989648999937344,True,19,-1,0,2
Y2-S2-123M22,-,57,AS,adaptive,28,↓,down,↓,0.7766602999763563,True,19,-1,0,2
Y2-S2-123M22,-,58,AS,adaptive,35,↑,up,↑,0.8996350000088569,True,19,1,1,3
Y2-S2-123M22,-,59,AS,adaptive,49,←,left,←,0.7604434999811929,True,18,1,0,3
Y2-S2-123M22,-,60,AS,adaptive,37,↑,down,↓,1.2057044999965,False,18,-1,1,4
Y2-S2-123M22,1,61,PS,intra_train,27,←,left,←,0.8717972000013106,True,10,-,-,-
Y2-S2-123M22,1,62,PS,intra_train,29,↑,up,↑,0.7653189999982715,True,10,-,-,-
Y2-S2-123M22,1,63,PS,intra_train,45,→,right,→,0.7349412000039592,True,10,-,-,-
Y2-S2-123M22,1,64,PS,intra_train,25,←,left,←,0.6170948999933898,True,10,-,-,-
Y2-S2-123M22,1,65,PS,intra_train,44,↓,down,↓,0.7841208000027109,True,10,-,-,-
Y2-S2-123M22,1,66,PS,exp,33,↑,up,↑,0.9346662999887485,True,7,0,0,0
Y2-S2-123M22,1,67,PS,exp,33,←,right,→,0.8748043999949005,False,7,-1,0,0
Y2-S2-123M22,1,68,PS,exp,33,↓,up,↑,1.6432088000001386,False,8,-1,0,0
Y2-S2-123M22,1,69,PS,exp,46,←,left,←,0.6292944999877363,True,9,-1,0,0
Y2-S2-123M22,1,70,PS,exp,42,↓,left,←,1.421113399992464,False,9,-1,0,0
Y2-S2-123M22,1,71,PS,exp,43,→,left,←,1.0565659999847412,False,10,-1,0,0
Y2-S2-123M22,1,72,PS,exp,34,←,left,←,0.6924793999933172,True,11,-1,0,0
Y2-S2-123M22,1,73,PS,exp,48,↓,down,↓,0.687828800000716,True,11,-1,0,0
Y2-S2-123M22,1,74,PS,exp,49,↑,up,↑,0.7088172000076156,True,11,1,1,1
Y2-S2-123M22,1,75,PS,exp,32,←,left,←,0.6498739999951795,True,10,1,0,1
Y2-S2-123M22,1,76,PS,exp,40,↓,down,↓,0.7993318999942858,True,10,1,0,1
Y2-S2-123M22,1,77,PS,exp,43,→,right,→,0.5995445000007749,True,10,1,0,1
Y2-S2-123M22,1,78,PS,exp,49,←,left,←,0.5624515000090469,True,9,1,0,1
Y2-S2-123M22,1,79,PS,exp,30,↑,up,↑,0.8101492999994662,True,9,1,0,1
Y2-S2-123M22,1,80,PS,exp,34,↓,left,←,0.8293953000102192,False,9,-1,1,2
Y2-S2-123M22,1,81,PS,exp,49,→,right,→,0.5064857999968808,True,10,-1,0,2
Y2-S2-123M22,1,82,PS,exp,43,↑,down,↓,1.207105000008596,False,10,-1,0,2
Y2-S2-123M22,1,83,PS,exp,37,←,left,←,0.6083683999895584,True,11,-1,0,2
Y2-S2-123M22,1,84,PS,exp,48,↓,down,↓,0.508949399983976,True,11,-1,0,2
Y2-S2-123M22,1,85,PS,exp,43,↑,up,↑,1.0693583999818657,True,11,1,1,3
Y2-S2-123M22,1,86,PS,exp,42,↓,down,↓,0.7403802000044379,True,10,1,0,3
Y2-S2-123M22,1,87,PS,exp,32,→,right,→,0.7192243999743368,True,10,1,0,3
Y2-S2-123M22,1,88,PS,exp,45,←,left,←,0.9821255000133533,True,10,1,0,3
Y2-S2-123M22,1,89,PS,exp,44,↑,down,↓,0.7416616999835242,False,9,-1,1,4
Y2-S2-123M22,1,90,PS,exp,40,→,right,→,0.6365891000023112,True,10,-1,0,4
Y2-S2-123M22,1,91,PS,exp,45,↑,right,→,1.0566040000121575,False,10,-1,0,4
Y2-S2-123M22,1,92,PS,exp,36,→,right,→,0.5796196000010241,True,11,-1,0,4
Y2-S2-123M22,1,93,PS,exp,25,←,left,←,0.6486466000205837,True,11,-1,0,4
Y2-S2-123M22,1,94,PS,exp,43,↓,left,←,0.7324299000028986,False,11,-1,0,4
Y2-S2-123M22,1,95,PS,exp,33,→,right,→,0.5530740999965928,True,12,-1,0,4
Y2-S2-123M22,1,96,PS,exp,41,↓,down,↓,0.729128299979493,True,12,-1,0,4
Y2-S2-123M22,1,97,PS,exp,33,↑,up,↑,0.7869489000004251,True,12,1,1,5
Y2-S2-123M22,1,98,PS,exp,26,←,left,←,0.5732963999907952,True,11,1,0,5
Y2-S2-123M22,1,99,PS,exp,34,→,right,→,0.4923664999951143,True,11,1,0,5
Y2-S2-123M22,1,100,PS,exp,34,↓,down,↓,0.5974976000143215,True,11,1,0,5
Y2-S2-123M22,1,101,PS,exp,26,←,left,←,0.6270421000081114,True,10,1,0,5
Y2-S2-123M22,1,102,PS,exp,34,↓,down,↓,0.8709895999927539,True,10,1,0,5
Y2-S2-123M22,1,103,PS,exp,50,←,left,←,0.6020351000188384,True,10,1,0,5
Y2-S2-123M22,1,104,PS,exp,26,→,right,→,0.48341389998677187,True,9,1,0,5
Y2-S2-123M22,1,105,PS,exp,34,↓,down,↓,0.774360000010347,True,9,1,0,5
Y2-S2-123M22,1,106,PS,exp,33,←,left,←,0.6887694000033662,True,9,1,0,5
Y2-S2-123M22,1,107,PS,exp,48,↑,up,↑,0.7901985000062268,True,8,1,0,5
Y2-S2-123M22,1,108,PS,exp,25,←,left,←,0.7967844000086188,True,8,1,0,5
Y2-S2-123M22,1,109,PS,exp,41,→,right,→,0.632190400006948,True,8,1,0,5
Y2-S2-123M22,1,110,PS,exp,49,↑,up,↑,0.8310056999907829,True,7,1,0,5
Y2-S2-123M22,1,111,PS,exp,34,→,left,←,0.9306471000018064,False,7,-1,1,6
Y2-S2-123M22,1,112,PS,exp,27,←,left,←,0.6733871000178624,True,8,-1,0,6
Y2-S2-123M22,1,113,PS,exp,45,↓,right,→,0.8263587999972515,False,8,-1,0,6
Y2-S2-123M22,1,114,PS,exp,36,→,right,→,0.6158014000102412,True,9,-1,0,6
Y2-S2-123M22,1,115,PS,exp,25,↓,down,↓,0.8551898000005167,True,9,-1,0,6
Y2-S2-123M22,1,116,PS,exp,31,→,right,→,0.5992570000234991,True,9,1,1,7
Y2-S2-123M22,1,117,PS,exp,26,↓,down,↓,0.9588263999903575,True,8,1,0,7
Y2-S2-123M22,1,118,PS,exp,31,↑,down,↓,0.7280550000141375,False,8,-1,1,8
Y2-S2-123M22,1,119,PS,exp,26,→,right,→,0.5922970000247005,True,9,-1,0,8
Y2-S2-123M22,1,120,PS,exp,35,←,left,←,0.7102471000107471,True,9,-1,0,8
Y2-S2-123M22,1,121,PS,exp,43,↑,up,↑,1.2906165000167675,True,9,1,1,9
Y2-S2-123M22,1,122,PS,exp,27,←,left,←,0.6271569000091404,True,8,1,0,9
Y2-S2-123M22,1,123,PS,exp,41,→,right,→,0.5931426000024658,True,8,1,0,9
Y2-S2-123M22,1,124,PS,exp,35,↓,down,↓,0.7371451999933925,True,8,1,0,9
Y2-S2-123M22,1,125,PS,exp,36,→,right,→,0.8259665000077803,True,7,1,0,9
Y2-S2-123M22,1,126,PS,exp,35,↓,down,↓,0.907301200000802,True,7,1,0,9
Y2-S2-123M22,1,127,PS,exp,26,←,left,←,0.663558500004001,True,7,1,0,9
Y2-S2-123M22,1,128,PS,exp,33,↓,left,←,0.7309304999944288,False,6,-1,1,10
Y2-S2-123M22,1,129,PS,exp,42,↑,up,↑,0.6972683999920264,True,7,-1,0,10
Y2-S2-123M22,1,130,PS,exp,29,←,left,←,0.5813600000110455,True,7,-1,0,10
Y2-S2-123M22,1,131,PS,exp,33,↓,left,←,0.6188583000039216,False,7,-1,0,10
Y2-S2-123M22,1,132,PS,exp,30,↑,left,←,0.667679699981818,False,8,-1,0,10
Y2-S2-123M22,1,133,PS,exp,33,←,left,←,0.5844470000010915,True,9,-1,0,10
Y2-S2-123M22,1,134,PS,exp,33,↑,up,↑,0.6400175000017043,True,9,-1,0,10
Y2-S2-123M22,1,135,PS,exp,45,→,right,→,0.6821180999977514,True,9,1,1,11
Y2-S2-123M22,1,136,PS,exp,48,↑,down,↓,0.855589399987366,False,8,-1,1,12
Y2-S2-123M22,1,137,PS,exp,47,←,left,←,0.6700828000030015,True,9,-1,0,12
Y2-S2-123M22,1,138,PS,exp,43,↑,up,↑,0.8070643999963067,True,9,-1,0,12
Y2-S2-123M22,1,139,PS,exp,26,→,right,→,0.7182900999905542,True,9,1,1,13
Y2-S2-123M22,1,140,PS,exp,37,↑,left,←,0.8358571999997366,False,8,-1,1,14
Y2-S2-123M22,1,141,PS,exp,32,↓,left,←,0.7256927999842446,False,9,-1,0,14
Y2-S2-123M22,1,142,PS,exp,30,→,right,→,0.6869156000029761,True,10,-1,0,14
Y2-S2-123M22,1,143,PS,exp,26,←,left,←,0.6969383000105154,True,10,-1,0,14
Y2-S2-123M22,1,144,PS,exp,29,↑,left,←,0.8149849000037648,False,10,-1,0,14
Y2-S2-123M22,1,145,PS,exp,31,→,right,→,0.7167400000034831,True,11,-1,0,14
Y2-S2-123M22,1,146,PS,exp,47,↑,up,↑,0.766361699992558,True,11,-1,0,14
Y2-S2-123M22,1,147,PS,exp,33,→,right,→,0.6158727000001818,True,11,1,1,15
Y2-S2-123M22,1,148,PS,exp,31,↓,down,↓,1.1209528000035789,True,10,1,0,15
Y2-S2-123M22,1,149,PS,exp,32,→,right,→,0.669261800008826,True,10,1,0,15
Y2-S2-123M22,1,150,PS,exp,46,↓,down,↓,0.7210844000219367,True,10,1,0,15
Y2-S2-123M22,1,151,PS,exp,38,→,right,→,0.7088219999859575,True,9,1,0,15
Y2-S2-123M22,1,152,PS,exp,39,↑,right,→,1.0172200000088196,False,9,-1,1,16
Y2-S2-123M22,2,153,AS,intra_train,26,↓,down,↓,0.8033454999967944,True,28,-,-,-
Y2-S2-123M22,2,154,AS,intra_train,26,→,right,→,0.7169833999942057,True,28,-,-,-
Y2-S2-123M22,2,155,AS,intra_train,39,←,left,←,0.6479438999958802,True,28,-,-,-
Y2-S2-123M22,2,156,AS,intra_train,31,↓,down,↓,0.5837739999988116,True,28,-,-,-
Y2-S2-123M22,2,157,AS,intra_train,35,↑,up,↑,0.9520284000027459,True,28,-,-,-
Y2-S2-123M22,2,158,AS,exp,25,←,left,←,0.6767655999865383,True,19,0,0,0
Y2-S2-123M22,2,159,AS,exp,41,↓,down,↓,0.9136746999865863,True,19,0,0,0
Y2-S2-123M22,2,160,AS,exp,45,←,left,←,0.7385145000007469,True,19,1,0,0
Y2-S2-123M22,2,161,AS,exp,46,↑,down,↓,1.3928236000065226,False,18,-1,1,1
Y2-S2-123M22,2,162,AS,exp,47,↓,down,↓,1.0284048999892548,True,19,-1,0,1
Y2-S2-123M22,2,163,AS,exp,32,→,left,←,1.3910000999749172,False,19,-1,0,1
Y2-S2-123M22,2,164,AS,exp,35,↑,up,↑,0.9133940000028815,True,20,-1,0,1
Y2-S2-123M22,2,165,AS,exp,34,→,right,→,0.5252780000155326,True,20,-1,0,1
Y2-S2-123M22,2,166,AS,exp,40,↑,up,↑,0.8266291000181809,True,20,1,1,2
Y2-S2-123M22,2,167,AS,exp,32,→,right,→,0.6964686999854166,True,19,1,0,2
Y2-S2-123M22,2,168,AS,exp,34,↓,down,↓,0.8113813000090886,True,19,1,0,2
Y2-S2-123M22,2,169,AS,exp,30,↑,up,↑,0.8320812000019941,True,19,1,0,2
Y2-S2-123M22,2,170,AS,exp,47,→,right,→,0.7223286000080407,True,18,1,0,2
Y2-S2-123M22,2,171,AS,exp,46,←,right,→,1.0829731000121683,False,18,-1,1,3
Y2-S2-123M22,2,172,AS,exp,29,↑,up,↑,0.7233560000022408,True,19,-1,0,3
Y2-S2-123M22,2,173,AS,exp,49,←,left,←,0.7223350999993272,True,19,-1,0,3
Y2-S2-123M22,2,174,AS,exp,32,↓,down,↓,0.7752237000095192,True,19,1,1,4
Y2-S2-123M22,2,175,AS,exp,37,→,right,→,0.6082619999942835,True,18,1,0,4
Y2-S2-123M22,2,176,AS,exp,32,↓,down,↓,0.5858466000063345,True,18,1,0,4
Y2-S2-123M22,2,177,AS,exp,36,←,left,←,0.9789203999971505,True,18,1,0,4
Y2-S2-123M22,2,178,AS,exp,41,↓,down,↓,0.5132149000128265,True,17,1,0,4
Y2-S2-123M22,2,179,AS,exp,41,↑,up,↑,0.9174787999945693,True,17,1,0,4
Y2-S2-123M22,2,180,AS,exp,41,→,right,→,0.7554152999946382,True,17,1,0,4
Y2-S2-123M22,2,181,AS,exp,45,↓,down,↓,0.9924384000187274,True,16,1,0,4
Y2-S2-123M22,2,182,AS,exp,28,→,right,→,0.6522680000052787,True,16,1,0,4
Y2-S2-123M22,2,183,AS,exp,33,↑,right,→,0.9904247999947984,False,16,-1,1,5
Y2-S2-123M22,2,184,AS,exp,43,↓,right,→,0.7360000000044238,False,17,-1,0,5
Y2-S2-123M22,2,185,AS,exp,48,↑,up,↑,0.7081348999927286,True,18,-1,0,5
Y2-S2-123M22,2,186,AS,exp,45,←,left,←,0.623689000000013,True,18,-1,0,5
Y2-S2-123M22,2,187,AS,exp,46,→,no_key,no_letter,-1.0,False,18,-1,0,5
Y2-S2-123M22,2,188,AS,exp,34,↑,up,↑,0.9439738999935798,True,19,-1,0,5
Y2-S2-123M22,2,189,AS,exp,44,↓,down,↓,1.5003919000155292,True,19,-1,0,5
Y2-S2-123M22,2,190,AS,exp,31,←,left,←,0.6327200999949127,True,19,1,1,6
Y2-S2-123M22,2,191,AS,exp,42,↓,down,↓,0.6681418000080157,True,18,1,0,6
Y2-S2-123M22,2,192,AS,exp,27,↑,up,↑,1.0630262999911793,True,18,1,0,6
Y2-S2-123M22,2,193,AS,exp,39,←,left,←,0.676217700005509,True,18,1,0,6
Y2-S2-123M22,2,194,AS,exp,40,→,right,→,0.7311826999939512,True,17,1,0,6
Y2-S2-123M22,2,195,AS,exp,25,↓,down,↓,0.7726406000147108,True,17,1,0,6
Y2-S2-123M22,2,196,AS,exp,31,←,left,←,0.7186614999955054,True,17,1,0,6
Y2-S2-123M22,2,197,AS,exp,40,↑,up,↑,0.6344615999842063,True,16,1,0,6
Y2-S2-123M22,2,198,AS,exp,50,↓,down,↓,0.8718760999909136,True,16,1,0,6
Y2-S2-123M22,2,199,AS,exp,37,→,right,→,0.9318227999901865,True,16,1,0,6
Y2-S2-123M22,2,200,AS,exp,50,↑,up,↑,1.357893599983072,True,15,1,0,6
Y2-S2-123M22,2,201,AS,exp,42,↓,down,↓,0.7149149000179023,True,15,1,0,6
Y2-S2-123M22,2,202,AS,exp,26,→,left,←,0.7704281999904197,False,15,-1,1,7
Y2-S2-123M22,2,203,AS,exp,34,↓,down,↓,0.8440821999975014,True,16,-1,0,7
Y2-S2-123M22,2,204,AS,exp,47,←,left,←,0.6698268000036478,True,16,-1,0,7
Y2-S2-123M22,2,205,AS,exp,43,↓,down,↓,0.7895587999955751,True,16,1,1,8
Y2-S2-123M22,2,206,AS,exp,34,↑,down,↓,1.116386900015641,False,15,-1,1,9
Y2-S2-123M22,2,207,AS,exp,49,←,left,←,1.0909545999893453,True,16,-1,0,9
Y2-S2-123M22,2,208,AS,exp,32,↑,up,↑,0.9394585000118241,True,16,-1,0,9
Y2-S2-123M22,2,209,AS,exp,34,←,left,←,0.7064799999934621,True,16,1,1,10
Y2-S2-123M22,2,210,AS,exp,43,↑,up,↑,0.564324899984058,True,15,1,0,10
Y2-S2-123M22,2,211,AS,exp,26,→,right,→,0.5911848999967333,True,15,1,0,10
Y2-S2-123M22,2,212,AS,exp,44,←,left,←,0.8804778999765404,True,15,1,0,10
Y2-S2-123M22,2,213,AS,exp,42,→,left,←,0.8037384000199381,False,14,-1,1,11
Y2-S2-123M22,2,214,AS,exp,38,↓,down,↓,0.9979825999762397,True,15,-1,0,11
Y2-S2-123M22,2,215,AS,exp,46,←,left,←,0.7364551999780815,True,15,-1,0,11
Y2-S2-123M22,2,216,AS,exp,40,↑,up,↑,0.7250752999971155,True,15,1,1,12
Y2-S2-123M22,2,217,AS,exp,28,→,right,→,0.6960050000052433,True,14,1,0,12
Y2-S2-123M22,2,218,AS,exp,46,←,left,←,0.9154832999920473,True,14,1,0,12
Y2-S2-123M22,2,219,AS,exp,36,→,right,→,1.4627316999831237,True,14,1,0,12
Y2-S2-123M22,2,220,AS,exp,47,←,right,→,0.8013574999931734,False,13,-1,1,13
Y2-S2-123M22,2,221,AS,exp,44,↑,up,↑,0.6524157999956515,True,14,-1,0,13
Y2-S2-123M22,2,222,AS,exp,33,→,right,→,0.6756227999867406,True,14,-1,0,13
Y2-S2-123M22,2,223,AS,exp,29,↑,up,↑,0.6785645999771077,True,14,1,1,14
Y2-S2-123M22,2,224,AS,exp,41,→,up,↑,0.8593193000124302,False,13,-1,1,15
Y2-S2-123M22,2,225,AS,exp,31,↓,down,↓,0.7559534000174608,True,14,-1,0,15
Y2-S2-123M22,2,226,AS,exp,43,←,right,→,0.6870605000003707,False,14,-1,0,15
Y2-S2-123M22,2,227,AS,exp,28,→,right,→,0.6832951999967918,True,15,-1,0,15
Y2-S2-123M22,2,228,AS,exp,43,↓,down,↓,0.8094873999943957,True,15,-1,0,15
Y2-S2-123M22,2,229,AS,exp,26,←,left,←,0.7329755999962799,True,15,1,1,16
Y2-S2-123M22,3,230,AS,intra_train,45,↓,down,↓,0.7359721999964677,True,28,-,-,-
Y2-S2-123M22,3,231,AS,intra_train,29,↑,up,↑,0.9770262999809347,True,28,-,-,-
Y2-S2-123M22,3,232,AS,intra_train,49,↓,down,↓,0.8521688000182621,True,28,-,-,-
Y2-S2-123M22,3,233,AS,intra_train,34,←,left,←,0.8225029000022914,True,28,-,-,-
Y2-S2-123M22,3,234,AS,intra_train,43,↓,down,↓,1.695026900008088,True,28,-,-,-
Y2-S2-123M22,3,235,AS,exp,41,←,left,←,0.8244434999942314,True,19,0,0,0
Y2-S2-123M22,3,236,AS,exp,37,↑,up,↑,0.799584100022912,True,19,0,0,0
Y2-S2-123M22,3,237,AS,exp,33,↓,down,↓,0.7931336000037845,True,19,1,0,0
Y2-S2-123M22,3,238,AS,exp,31,→,right,→,0.8271892999764532,True,18,1,0,0
Y2-S2-123M22,3,239,AS,exp,38,↑,up,↑,0.7441522000008263,True,18,1,0,0
Y2-S2-123M22,3,240,AS,exp,47,←,left,←,0.6956565999716986,True,18,1,0,0
Y2-S2-123M22,3,241,AS,exp,38,→,right,→,0.7092260000063106,True,17,1,0,0
Y2-S2-123M22,3,242,AS,exp,48,↑,up,↑,0.8902265999931842,True,17,1,0,0
Y2-S2-123M22,3,243,AS,exp,25,↓,down,↓,0.7215946999785956,True,17,1,0,0
Y2-S2-123M22,3,244,AS,exp,26,←,left,←,0.662253199989209,True,16,1,0,0
Y2-S2-123M22,3,245,AS,exp,31,→,right,→,0.5680848000047263,True,16,1,0,0
Y2-S2-123M22,3,246,AS,exp,30,←,left,←,0.6088586999976542,True,16,1,0,0
Y2-S2-123M22,3,247,AS,exp,35,→,right,→,0.6408935000072233,True,15,1,0,0
Y2-S2-123M22,3,248,AS,exp,45,←,left,←,0.6477389000065159,True,15,1,0,0
Y2-S2-123M22,3,249,AS,exp,33,↓,down,↓,0.6806591000058688,True,15,1,0,0
Y2-S2-123M22,3,250,AS,exp,32,↑,up,↑,0.9077915000088979,True,14,1,0,0
Y2-S2-123M22,3,251,AS,exp,35,←,up,↑,0.9741246000048704,False,14,-1,1,1
Y2-S2-123M22,3,252,AS,exp,33,↑,up,↑,0.5581650999956764,True,15,-1,0,1
Y2-S2-123M22,3,253,AS,exp,37,↓,down,↓,0.8382441000139806,True,15,-1,0,1
Y2-S2-123M22,3,254,AS,exp,50,↑,up,↑,0.8967340000090189,True,15,1,1,2
Y2-S2-123M22,3,255,AS,exp,43,↓,down,↓,0.6931488000263926,True,14,1,0,2
Y2-S2-123M22,3,256,AS,exp,47,←,left,←,0.7455748000065796,True,14,1,0,2
Y2-S2-123M22,3,257,AS,exp,37,↑,up,↑,0.833198700012872,True,14,1,0,2
Y2-S2-123M22,3,258,AS,exp,47,↓,down,↓,0.9333635999937542,True,13,1,0,2
Y2-S2-123M22,3,259,AS,exp,25,→,right,→,0.8399435000028461,True,13,1,0,2
Y2-S2-123M22,3,260,AS,exp,30,↑,up,↑,0.744433999992907,True,13,1,0,2
Y2-S2-123M22,3,261,AS,exp,46,←,left,←,0.9676433999848086,True,12,1,0,2
Y2-S2-123M22,3,262,AS,exp,48,→,down,↓,0.9275053999735974,False,12,-1,1,3
Y2-S2-123M22,3,263,AS,exp,44,↑,up,↑,0.5782929999986663,True,13,-1,0,3
Y2-S2-123M22,3,264,AS,exp,39,←,up,↑,1.0024787000147626,False,13,-1,0,3
Y2-S2-123M22,3,265,AS,exp,45,↑,up,↑,0.6891318999987561,True,14,-1,0,3
Y2-S2-123M22,3,266,AS,exp,26,←,up,↑,0.8734097999986261,False,14,-1,0,3
Y2-S2-123M22,3,267,AS,exp,27,↓,down,↓,0.8501063000003342,True,15,-1,0,3
Y2-S2-123M22,3,268,AS,exp,49,←,left,←,0.6782818999781739,True,15,-1,0,3
Y2-S2-123M22,3,269,AS,exp,48,↑,up,↑,0.5995838999806438,True,15,1,1,4
Y2-S2-123M22,3,270,AS,exp,41,→,right,→,0.7385517999937292,True,14,1,0,4
Y2-S2-123M22,3,271,AS,exp,33,↓,up,↑,0.7080558000016026,False,14,-1,1,5
Y2-S2-123M22,3,272,AS,exp,49,←,left,←,0.6932527000026312,True,15,-1,0,5
Y2-S2-123M22,3,273,AS,exp,44,→,right,→,0.6651877999829594,True,15,-1,0,5
Y2-S2-123M22,3,274,AS,exp,48,↓,down,↓,0.7872867000114638,True,15,1,1,6
Y2-S2-123M22,3,275,AS,exp,49,↑,up,↑,0.7367709999962244,True,14,1,0,6
Y2-S2-123M22,3,276,AS,exp,25,←,left,←,0.8271517000102904,True,14,1,0,6
Y2-S2-123M22,3,277,AS,exp,44,↑,up,↑,0.7656902999733575,True,14,1,0,6
Y2-S2-123M22,3,278,AS,exp,46,↓,down,↓,0.7005212999938522,True,13,1,0,6
Y2-S2-123M22,3,279,AS,exp,46,→,right,→,0.6466961000114679,True,13,1,0,6
Y2-S2-123M22,3,280,AS,exp,30,↓,down,↓,0.7834526000078768,True,13,1,0,6
Y2-S2-123M22,3,281,AS,exp,25,→,right,→,0.619756200001575,True,12,1,0,6
Y2-S2-123M22,3,282,AS,exp,45,←,left,←,0.8240542999992613,True,12,1,0,6
Y2-S2-123M22,3,283,AS,exp,44,→,left,←,0.6928442000062205,False,12,-1,1,7
Y2-S2-123M22,3,284,AS,exp,42,←,left,←,0.5573482000036165,True,13,-1,0,7
Y2-S2-123M22,3,285,AS,exp,31,↓,down,↓,0.8893834000045899,True,13,-1,0,7
Y2-S2-123M22,3,286,AS,exp,44,→,right,→,0.9661649000190664,True,13,1,1,8
Y2-S2-123M22,3,287,AS,exp,30,↑,up,↑,0.785970199998701,True,12,1,0,8
Y2-S2-123M22,3,288,AS,exp,37,↓,down,↓,0.9239049000025261,True,12,1,0,8
Y2-S2-123M22,3,289,AS,exp,29,↑,up,↑,0.7367642000026535,True,12,1,0,8
Y2-S2-123M22,3,290,AS,exp,36,↓,down,↓,0.8961264000099618,True,11,1,0,8
Y2-S2-123M22,3,291,AS,exp,34,←,up,↑,0.6996744000061881,False,11,-1,1,9
Y2-S2-123M22,3,292,AS,exp,32,↓,up,↑,0.6873924000246916,False,12,-1,0,9
Y2-S2-123M22,3,293,AS,exp,50,→,up,↑,0.6486482000036631,False,13,-1,0,9
Y2-S2-123M22,3,294,AS,exp,35,↑,down,↓,1.084826600010274,False,14,-1,0,9
Y2-S2-123M22,3,295,AS,exp,28,←,left,←,0.7309189999941736,True,15,-1,0,9
Y2-S2-123M22,3,296,AS,exp,27,↑,up,↑,1.0282793000224046,True,15,-1,0,9
Y2-S2-123M22,3,297,AS,exp,25,←,down,↓,1.4728332000086084,False,15,-1,0,9
Y2-S2-123M22,3,298,AS,exp,37,↑,down,↓,0.7524123000039253,False,16,-1,0,9
Y2-S2-123M22,3,299,AS,exp,38,↓,down,↓,0.7396681999962311,True,17,-1,0,9
Y2-S2-123M22,3,300,AS,exp,29,↑,up,↑,0.7874162000080105,True,17,-1,0,9
Y2-S2-123M22,3,301,AS,exp,31,↓,down,↓,0.8162820999859832,True,17,1,1,10
Y2-S2-123M22,3,302,AS,exp,47,↑,down,↓,1.3707057999854442,False,16,-1,1,11
Y2-S2-123M22,3,303,AS,exp,46,→,right,→,0.7551360999932513,True,17,-1,0,11
Y2-S2-123M22,3,304,AS,exp,49,↓,down,↓,0.8280793999729212,True,17,-1,0,11
Y2-S2-123M22,3,305,AS,exp,34,↑,up,↑,0.770930300001055,True,17,1,1,12
Y2-S2-123M22,3,306,AS,exp,34,←,left,←,0.7206732000049669,True,16,1,0,12
Y2-S2-123M22,3,307,AS,exp,36,↓,down,↓,0.983911999996053,True,16,1,0,12
Y2-S2-123M22,3,308,AS,exp,35,←,left,←,0.7732087000040337,True,16,1,0,12
Y2-S2-123M22,3,309,AS,exp,49,↓,down,↓,0.710606300010113,True,15,1,0,12
Y2-S2-123M22,3,310,AS,exp,31,→,right,→,0.5862496999907307,True,15,1,0,12
Y2-S2-123M22,3,311,AS,exp,34,↑,up,↑,1.2510234999936074,True,15,1,0,12
Y2-S2-123M22,3,312,AS,exp,41,←,left,←,0.6883634999976493,True,14,1,0,12
Y2-S2-123M22,3,313,AS,exp,34,→,right,→,1.318780700006755,True,14,1,0,12
Y2-S2-123M22,3,314,AS,exp,28,↓,down,↓,1.1016225999919698,True,14,1,0,12
Y2-S2-123M22,3,315,AS,exp,27,→,right,→,0.5725185000046622,True,13,1,0,12
Y2-S2-123M22,3,316,AS,exp,27,↑,up,↑,0.6932869000011124,True,13,1,0,12
Y2-S2-123M22,3,317,AS,exp,32,←,left,←,0.6754287999938242,True,13,1,0,12
Y2-S2-123M22,3,318,AS,exp,48,↓,down,↓,0.7772299999778625,True,12,1,0,12
Y2-S2-123M22,3,319,AS,exp,41,←,left,←,0.6532162000075914,True,12,1,0,12
Y2-S2-123M22,3,320,AS,exp,35,↑,up,↑,0.9624461000203155,True,12,1,0,12
Y2-S2-123M22,3,321,AS,exp,31,↓,down,↓,0.7482391999801621,True,11,1,0,12
Y2-S2-123M22,3,322,AS,exp,40,→,right,→,0.5484936000138987,True,11,1,0,12
Y2-S2-123M22,3,323,AS,exp,44,↑,up,↑,0.8096547000168357,True,11,1,0,12
Y2-S2-123M22,3,324,AS,exp,34,→,left,←,1.7129770999890752,False,10,-1,1,13
Y2-S2-123M22,3,325,AS,exp,31,←,left,←,0.9301303000247572,True,11,-1,0,13
Y2-S2-123M22,3,326,AS,exp,36,↓,down,↓,1.0834602999966592,True,11,-1,0,13
Y2-S2-123M22,3,327,AS,exp,31,→,left,←,0.9048565000121016,False,11,-1,0,13
Y2-S2-123M22,3,328,AS,exp,31,↑,up,↑,0.9456127999874298,True,12,-1,0,13
Y2-S2-123M22,3,329,AS,exp,40,→,right,→,0.5842788000009023,True,12,-1,0,13
Y2-S2-123M22,3,330,AS,exp,29,↑,up,↑,0.9927360999863595,True,12,1,1,14
Y2-S2-123M22,3,331,AS,exp,41,→,right,→,0.5985842999943998,True,11,1,0,14
Y2-S2-123M22,3,332,AS,exp,32,↓,right,→,1.1249034999927972,False,11,-1,1,15
Y2-S2-123M22,3,333,AS,exp,26,→,right,→,0.6292709000117611,True,12,-1,0,15
Y2-S2-123M22,3,334,AS,exp,39,↑,up,↑,1.0119392999913543,True,12,-1,0,15
Y2-S2-123M22,3,335,AS,exp,47,←,left,←,0.6385828000202309,True,12,1,1,16
Y2-S2-123M22,4,336,PS,intra_train,27,↓,down,↓,0.7624931999889668,True,10,-,-,-
Y2-S2-123M22,4,337,PS,intra_train,36,↑,up,↑,0.7687625999969896,True,10,-,-,-
Y2-S2-123M22,4,338,PS,intra_train,36,↓,down,↓,0.6928581999964081,True,10,-,-,-
Y2-S2-123M22,4,339,PS,intra_train,30,←,left,←,0.6662200000137091,True,10,-,-,-
Y2-S2-123M22,4,340,PS,intra_train,42,↑,up,↑,0.7802983000001404,True,10,-,-,-
Y2-S2-123M22,4,341,PS,exp,27,←,left,←,0.6830029000120703,True,7,0,0,0
Y2-S2-123M22,4,342,PS,exp,26,↑,up,↑,1.1431638000067323,True,7,0,0,0
Y2-S2-123M22,4,343,PS,exp,30,↓,left,←,0.6969911999767646,False,7,-1,0,0
Y2-S2-123M22,4,344,PS,exp,27,→,right,→,0.5221356000110973,True,8,-1,0,0
Y2-S2-123M22,4,345,PS,exp,33,←,left,←,0.6453293000231497,True,8,-1,0,0
Y2-S2-123M22,4,346,PS,exp,39,↓,left,←,0.704046400001971,False,8,-1,0,0
Y2-S2-123M22,4,347,PS,exp,48,↑,up,↑,0.7999362999980804,True,9,-1,0,0
Y2-S2-123M22,4,348,PS,exp,31,→,right,→,0.6052406999806408,True,9,-1,0,0
Y2-S2-123M22,4,349,PS,exp,39,↓,down,↓,0.7631568000069819,True,9,1,1,1
Y2-S2-123M22,4,350,PS,exp,28,→,right,→,0.670813700009603,True,8,1,0,1
Y2-S2-123M22,4,351,PS,exp,37,←,left,←,0.6135444999963511,True,8,1,0,1
Y2-S2-123M22,4,352,PS,exp,44,↓,left,←,0.688819799979683,False,8,-1,1,2
Y2-S2-123M22,4,353,PS,exp,35,→,left,←,1.4862443000019994,False,9,-1,0,2
Y2-S2-123M22,4,354,PS,exp,50,↓,down,↓,1.0124475999909919,True,10,-1,0,2
Y2-S2-123M22,4,355,PS,exp,40,↑,up,↑,1.0936023000103887,True,10,-1,0,2
Y2-S2-123M22,4,356,PS,exp,39,→,down,↓,0.9319550000072923,False,10,-1,0,2
Y2-S2-123M22,4,357,PS,exp,39,←,left,←,0.4445782999973744,True,11,-1,0,2
Y2-S2-123M22,4,358,PS,exp,39,→,left,←,0.780601399979787,False,11,-1,0,2
Y2-S2-123M22,4,359,PS,exp,31,↓,down,↓,0.6420622000005096,True,12,-1,0,2
Y2-S2-123M22,4,360,PS,exp,28,→,right,→,0.5146998000273015,True,12,-1,0,2
Y2-S2-123M22,4,361,PS,exp,44,↑,up,↑,0.8562378999777138,True,12,1,1,3
Y2-S2-123M22,4,362,PS,exp,35,↓,down,↓,0.6575658000074327,True,11,1,0,3
Y2-S2-123M22,4,363,PS,exp,39,↑,up,↑,1.020087799988687,True,11,1,0,3
Y2-S2-123M22,4,364,PS,exp,34,→,right,→,0.5978844999917783,True,11,1,0,3
Y2-S2-123M22,4,365,PS,exp,37,←,left,←,0.6556839999975637,True,10,1,0,3
Y2-S2-123M22,4,366,PS,exp,39,↑,up,↑,0.9773331000178587,True,10,1,0,3
Y2-S2-123M22,4,367,PS,exp,47,↓,down,↓,0.6723472999874502,True,10,1,0,3
Y2-S2-123M22,4,368,PS,exp,49,→,right,→,0.5624060000118334,True,9,1,0,3
Y2-S2-123M22,4,369,PS,exp,26,↓,down,↓,0.608109599997988,True,9,1,0,3
Y2-S2-123M22,4,370,PS,exp,40,↑,up,↑,0.8162419000000227,True,9,1,0,3
Y2-S2-123M22,4,371,PS,exp,45,→,right,→,0.5933650999795645,True,8,1,0,3
Y2-S2-123M22,4,372,PS,exp,37,←,left,←,0.7259396000008564,True,8,1,0,3
Y2-S2-123M22,4,373,PS,exp,43,↑,down,↓,0.8577743000059854,False,8,-1,1,4
Y2-S2-123M22,4,374,PS,exp,35,→,right,→,0.6290299000102095,True,9,-1,0,4
Y2-S2-123M22,4,375,PS,exp,42,←,left,←,0.7840957999869715,True,9,-1,0,4
Y2-S2-123M22,4,376,PS,exp,28,↓,down,↓,0.6794092000054661,True,9,1,1,5
Y2-S2-123M22,4,377,PS,exp,46,↑,down,↓,0.686387099995045,False,8,-1,1,6
Y2-S2-123M22,4,378,PS,exp,26,←,right,→,0.6016383999958634,False,9,-1,0,6
Y2-S2-123M22,4,379,PS,exp,35,↑,up,↑,0.9232106999843381,True,10,-1,0,6
Y2-S2-123M22,4,380,PS,exp,45,←,left,←,0.6606589999864809,True,10,-1,0,6
Y2-S2-123M22,4,381,PS,exp,43,↓,down,↓,0.8624907000048552,True,10,1,1,7
Y2-S2-123M22,4,382,PS,exp,36,←,left,←,0.600842299987562,True,9,1,0,7
Y2-S2-123M22,4,383,PS,exp,33,→,right,→,0.5851100999861956,True,9,1,0,7
Y2-S2-123M22,4,384,PS,exp,47,↑,up,↑,0.8321183000225574,True,9,1,0,7
Y2-S2-123M22,4,385,PS,exp,48,←,left,←,0.5266482000006363,True,8,1,0,7
Y2-S2-123M22,4,386,PS,exp,26,↑,up,↑,0.9112398999859579,True,8,1,0,7
Y2-S2-123M22,4,387,PS,exp,37,←,left,←,0.5434720999910496,True,8,1,0,7
Y2-S2-123M22,4,388,PS,exp,28,↑,down,↓,0.9487846000120044,False,7,-1,1,8
Y2-S2-123M22,4,389,PS,exp,43,↓,down,↓,0.63205640000524,True,8,-1,0,8
Y2-S2-123M22,4,390,PS,exp,37,→,right,→,0.5025097000179812,True,8,-1,0,8
Y2-S2-123M22,4,391,PS,exp,33,←,right,→,0.4797662999772001,False,8,-1,0,8
Y2-S2-123M22,4,392,PS,exp,39,→,right,→,0.5080617000057828,True,9,-1,0,8
Y2-S2-123M22,4,393,PS,exp,29,←,left,←,0.6414278000011109,True,9,-1,0,8
Y2-S2-123M22,4,394,PS,exp,49,↓,down,↓,0.5404627000098117,True,9,1,1,9
Y2-S2-123M22,4,395,PS,exp,30,→,right,→,0.49803450002218597,True,8,1,0,9
Y2-S2-123M22,4,396,PS,exp,39,↑,up,↑,0.8550287000252865,True,8,1,0,9
Y2-S2-123M22,4,397,PS,exp,50,↓,down,↓,0.800794999988284,True,8,1,0,9
Y2-S2-123M22,4,398,PS,exp,32,←,right,→,0.5371052999980748,False,7,-1,1,10
Y2-S2-123M22,4,399,PS,exp,47,↑,up,↑,0.9619426999997813,True,8,-1,0,10
Y2-S2-123M22,4,400,PS,exp,45,→,right,→,0.6668763000052422,True,8,-1,0,10
Y2-S2-123M22,4,401,PS,exp,25,↓,down,↓,0.7559849999961443,True,8,1,1,11
Y2-S2-123M22,4,402,PS,exp,26,←,left,←,0.6337116999784485,True,7,1,0,11
Y2-S2-123M22,4,403,PS,exp,27,↓,right,→,0.9364442999940366,False,7,-1,1,12
Y2-S2-123M22,4,404,PS,exp,43,↑,down,↓,0.8650092000025325,False,8,-1,0,12
Y2-S2-123M22,4,405,PS,exp,43,→,right,→,0.5650042000052053,True,9,-1,0,12
Y2-S2-123M22,4,406,PS,exp,41,←,left,←,0.6863436999847181,True,9,-1,0,12
Y2-S2-123M22,4,407,PS,exp,40,↓,down,↓,0.8934325999871362,True,9,1,1,13
Y2-S2-123M22,4,408,PS,exp,32,→,down,↓,0.8394942999875639,False,8,-1,1,14
Y2-S2-123M22,4,409,PS,exp,30,←,left,←,0.6202660000126343,True,9,-1,0,14
Y2-S2-123M22,4,410,PS,exp,41,→,right,→,0.5661677999887615,True,9,-1,0,14
Y2-S2-123M22,4,411,PS,exp,45,←,left,←,0.7897038999944925,True,9,1,1,15
Y2-S2-123M22,4,412,PS,exp,47,→,right,→,0.5401341000106186,True,8,1,0,15
Y2-S2-123M22,4,413,PS,exp,32,←,left,←,1.035317700006999,True,8,1,0,15
Y2-S2-123M22,4,414,PS,exp,42,↓,down,↓,0.7714490000216756,True,8,1,0,15
Y2-S2-123M22,4,415,PS,exp,40,↑,up,↑,0.9042124999978114,True,7,1,0,15
Y2-S2-123M22,4,416,PS,exp,37,←,up,↑,1.005147499992745,False,7,-1,1,16
Y2-S2-123M22,5,417,PS,intra_train,47,↓,down,↓,0.6588718999992125,True,10,-,-,-
Y2-S2-123M22,5,418,PS,intra_train,33,→,right,→,0.5504145000013523,True,10,-,-,-
Y2-S2-123M22,5,419,PS,intra_train,39,↓,down,↓,0.6951321999949869,True,10,-,-,-
Y2-S2-123M22,5,420,PS,intra_train,37,↑,up,↑,0.7467169000010472,True,10,-,-,-
Y2-S2-123M22,5,421,PS,intra_train,36,→,right,→,0.5995775000192225,True,10,-,-,-
Y2-S2-123M22,5,422,PS,exp,33,↓,down,↓,0.6808972000144422,True,7,0,0,0
Y2-S2-123M22,5,423,PS,exp,34,↑,down,↓,0.6908039000118151,False,7,-1,0,0
Y2-S2-123M22,5,424,PS,exp,27,↓,down,↓,0.6400056000275072,True,8,-1,0,0
Y2-S2-123M22,5,425,PS,exp,34,←,left,←,0.5569045000011101,True,8,-1,0,0
Y2-S2-123M22,5,426,PS,exp,26,↓,right,→,0.7155368000094313,False,8,-1,0,0
Y2-S2-123M22,5,427,PS,exp,34,↑,up,↑,0.6788161000004038,True,9,-1,0,0
Y2-S2-123M22,5,428,PS,exp,46,←,left,←,1.0321326999983285,True,9,-1,0,0
Y2-S2-123M22,5,429,PS,exp,27,↓,left,←,0.833532099990407,False,9,-1,0,0
Y2-S2-123M22,5,430,PS,exp,47,←,left,←,0.6021464999939781,True,10,-1,0,0
Y2-S2-123M22,5,431,PS,exp,39,→,right,→,0.8688790000160225,True,10,-1,0,0
Y2-S2-123M22,5,432,PS,exp,35,↓,left,←,1.304224100022111,False,10,-1,0,0
Y2-S2-123M22,5,433,PS,exp,42,←,right,→,0.7735357999918051,False,11,-1,0,0
Y2-S2-123M22,5,434,PS,exp,40,↑,up,↑,0.5805142000026535,True,12,-1,0,0
Y2-S2-123M22,5,435,PS,exp,33,←,left,←,0.5830836000095587,True,12,-1,0,0
Y2-S2-123M22,5,436,PS,exp,26,→,right,→,0.695697699993616,True,12,1,1,1
Y2-S2-123M22,5,437,PS,exp,31,↓,down,↓,0.731036800018046,True,11,1,0,1
Y2-S2-123M22,5,438,PS,exp,35,←,left,←,0.5361134999839123,True,11,1,0,1
Y2-S2-123M22,5,439,PS,exp,44,→,right,→,0.5077729999902658,True,11,1,0,1
Y2-S2-123M22,5,440,PS,exp,41,↑,up,↑,0.543117599998368,True,10,1,0,1
Y2-S2-123M22,5,441,PS,exp,29,←,left,←,0.555155600013677,True,10,1,0,1
Y2-S2-123M22,5,442,PS,exp,39,→,right,→,0.6914916000096127,True,10,1,0,1
Y2-S2-123M22,5,443,PS,exp,46,↑,up,↑,0.563738500000909,True,9,1,0,1
Y2-S2-123M22,5,444,PS,exp,26,←,left,←,0.6117843999818433,True,9,1,0,1
Y2-S2-123M22,5,445,PS,exp,31,→,right,→,0.5140185999916866,True,9,1,0,1
Y2-S2-123M22,5,446,PS,exp,37,←,right,→,0.6444992999895476,False,8,-1,1,2
Y2-S2-123M22,5,447,PS,exp,37,↑,right,→,0.6034100000106264,False,9,-1,0,2
Y2-S2-123M22,5,448,PS,exp,43,↓,right,→,0.640901800012216,False,10,-1,0,2
Y2-S2-123M22,5,449,PS,exp,28,→,right,→,0.6496543999819551,True,11,-1,0,2
Y2-S2-123M22,5,450,PS,exp,39,←,left,←,0.6694463999883737,True,11,-1,0,2
Y2-S2-123M22,5,451,PS,exp,47,→,right,→,0.5855836999835446,True,11,1,1,3
Y2-S2-123M22,5,452,PS,exp,34,↓,down,↓,1.0994895999901928,True,10,1,0,3
Y2-S2-123M22,5,453,PS,exp,30,↑,up,↑,0.5706199999840464,True,10,1,0,3
Y2-S2-123M22,5,454,PS,exp,31,↓,down,↓,0.6896440999989863,True,10,1,0,3
Y2-S2-123M22,5,455,PS,exp,45,←,left,←,0.547784700000193,True,9,1,0,3
Y2-S2-123M22,5,456,PS,exp,28,→,right,→,0.49571210000431165,True,9,1,0,3
Y2-S2-123M22,5,457,PS,exp,48,↓,down,↓,0.7696059999871068,True,9,1,0,3
Y2-S2-123M22,5,458,PS,exp,28,↑,down,↓,0.9665234000131022,False,8,-1,1,4
Y2-S2-123M22,5,459,PS,exp,28,→,right,→,0.5882031000219285,True,9,-1,0,4
Y2-S2-123M22,5,460,PS,exp,38,←,left,←,0.6043390000122599,True,9,-1,0,4
Y2-S2-123M22,5,461,PS,exp,49,↓,up,↑,0.9761657000053674,False,9,-1,0,4
Y2-S2-123M22,5,462,PS,exp,43,→,left,←,0.8244304000108968,False,10,-1,0,4
Y2-S2-123M22,5,463,PS,exp,38,↑,up,↑,0.8764717000012752,True,11,-1,0,4
Y2-S2-123M22,5,464,PS,exp,36,→,right,→,0.8565588999772444,True,11,-1,0,4
Y2-S2-123M22,5,465,PS,exp,50,←,left,←,0.5653611999878194,True,11,1,1,5
Y2-S2-123M22,5,466,PS,exp,48,↑,up,↑,0.5657469000143465,True,10,1,0,5
Y2-S2-123M22,5,467,PS,exp,44,↓,down,↓,0.8053669999935664,True,10,1,0,5
Y2-S2-123M22,5,468,PS,exp,30,←,left,←,0.6703844000003301,True,10,1,0,5
Y2-S2-123M22,5,469,PS,exp,28,→,right,→,0.5918080999981612,True,9,1,0,5
Y2-S2-123M22,5,470,PS,exp,46,↓,down,↓,0.5465813000046182,True,9,1,0,5
Y2-S2-123M22,5,471,PS,exp,40,→,right,→,0.575601699994877,True,9,1,0,5
Y2-S2-123M22,5,472,PS,exp,29,←,right,→,0.7697725000034552,False,8,-1,1,6
Y2-S2-123M22,5,473,PS,exp,48,↑,up,↑,0.8849964999826625,True,9,-1,0,6
Y2-S2-123M22,5,474,PS,exp,26,←,left,←,0.7064741000067443,True,9,-1,0,6
Y2-S2-123M22,5,475,PS,exp,43,→,right,→,0.4467818000121042,True,9,1,1,7
Y2-S2-123M22,5,476,PS,exp,25,↓,down,↓,0.684931299998425,True,8,1,0,7
Y2-S2-123M22,5,477,PS,exp,34,←,left,←,1.011669899977278,True,8,1,0,7
Y2-S2-123M22,5,478,PS,exp,34,↓,left,←,0.7218385000014678,False,8,-1,1,8
Y2-S2-123M22,5,479,PS,exp,35,←,left,←,0.6712808000156656,True,9,-1,0,8
Y2-S2-123M22,5,480,PS,exp,50,↑,up,↑,0.8567497000040021,True,9,-1,0,8
Y2-S2-123M22,5,481,PS,exp,30,→,right,→,0.6714879999926779,True,9,1,1,9
Y2-S2-123M22,5,482,PS,exp,37,←,right,→,0.793934800021816,False,8,-1,1,10
Y2-S2-123M22,5,483,PS,exp,49,↓,left,←,0.7639488999848254,False,9,-1,0,10
Y2-S2-123M22,5,484,PS,exp,46,←,left,←,0.6179880000127014,True,10,-1,0,10
Y2-S2-123M22,5,485,PS,exp,28,↑,up,↑,0.6100496999861207,True,10,-1,0,10
Y2-S2-123M22,5,486,PS,exp,37,↓,down,↓,0.8874187000037637,True,10,1,1,11
Y2-S2-123M22,5,487,PS,exp,32,←,left,←,0.5382715000014286,True,9,1,0,11
Y2-S2-123M22,5,488,PS,exp,42,→,right,→,0.5632117000059225,True,9,1,0,11
Y2-S2-123M22,5,489,PS,exp,44,↓,left,←,0.7153141000017058,False,9,-1,1,12
Y2-S2-123M22,5,490,PS,exp,25,←,left,←,0.6125332999799866,True,10,-1,0,12
Y2-S2-123M22,5,491,PS,exp,44,→,right,→,0.5677317999943625,True,10,-1,0,12
Y2-S2-123M22,5,492,PS,exp,31,↑,up,↑,0.968381100014085,True,10,1,1,13
Y2-S2-123M22,5,493,PS,exp,34,→,right,→,0.61928149999585,True,9,1,0,13
Y2-S2-123M22,5,494,PS,exp,39,↑,up,↑,0.5051977999974042,True,9,1,0,13
Y2-S2-123M22,5,495,PS,exp,36,↓,down,↓,0.7375023000058718,True,9,1,0,13
Y2-S2-123M22,5,496,PS,exp,45,↑,up,↑,0.6056355000182521,True,8,1,0,13
Y2-S2-123M22,5,497,PS,exp,43,←,left,←,0.6152448000211734,True,8,1,0,13
Y2-S2-123M22,5,498,PS,exp,34,↑,up,↑,0.6435403999930713,True,8,1,0,13
Y2-S2-123M22,5,499,PS,exp,29,→,up,↑,0.5979537000239361,False,7,-1,1,14
Y2-S2-123M22,5,500,PS,exp,26,←,up,↑,0.5322721999837086,False,8,-1,0,14
Y2-S2-123M22,5,501,PS,exp,49,↑,up,↑,0.5335548000002746,True,9,-1,0,14
Y2-S2-123M22,5,502,PS,exp,26,←,up,↑,0.5581594000104815,False,9,-1,0,14
Y2-S2-123M22,5,503,PS,exp,41,↓,down,↓,1.1122104999958538,True,10,-1,0,14
Y2-S2-123M22,5,504,PS,exp,38,→,right,→,0.5426371999783441,True,10,-1,0,14
Y2-S2-123M22,5,505,PS,exp,30,↓,down,↓,0.8071730999799911,True,10,1,1,15
Y2-S2-123M22,5,506,PS,exp,27,↑,up,↑,0.7933294999820646,True,9,1,0,15
Y2-S2-123M22,5,507,PS,exp,34,←,left,←,0.6198664999974426,True,9,1,0,15
Y2-S2-123M22,5,508,PS,exp,33,↑,left,←,0.7059592000150587,False,9,-1,1,16
Y2-S2-123M22,6,509,AS,intra_train,46,↓,down,↓,0.8213553000241518,True,28,-,-,-
Y2-S2-123M22,6,510,AS,intra_train,28,←,left,←,0.7228096000035293,True,28,-,-,-
Y2-S2-123M22,6,511,AS,intra_train,33,↓,down,↓,0.7527594999992289,True,28,-,-,-
Y2-S2-123M22,6,512,AS,intra_train,27,→,right,→,0.7715151000011247,True,28,-,-,-
Y2-S2-123M22,6,513,AS,intra_train,32,↑,up,↑,0.8516118999978062,True,28,-,-,-
Y2-S2-123M22,6,514,AS,exp,45,↓,down,↓,0.7648141000245232,True,19,0,0,0
Y2-S2-123M22,6,515,AS,exp,31,←,left,←,0.5471434000064619,True,19,0,0,0
Y2-S2-123M22,6,516,AS,exp,39,→,right,→,0.582865500007756,True,19,1,0,0
Y2-S2-123M22,6,517,AS,exp,30,←,left,←,0.5763369000051171,True,18,1,0,0
Y2-S2-123M22,6,518,AS,exp,31,→,left,←,1.267997299990384,False,18,-1,1,1
Y2-S2-123M22,6,519,AS,exp,29,↑,up,↑,0.5262880999944173,True,19,-1,0,1
Y2-S2-123M22,6,520,AS,exp,45,→,right,→,0.5433454000158235,True,19,-1,0,1
Y2-S2-123M22,6,521,AS,exp,33,↑,up,↑,0.5922359999967739,True,19,1,1,2
Y2-S2-123M22,6,522,AS,exp,28,↓,down,↓,0.7763648999971338,True,18,1,0,2
Y2-S2-123M22,6,523,AS,exp,31,↑,up,↑,0.7238622999866493,True,18,1,0,2
Y2-S2-123M22,6,524,AS,exp,46,→,right,→,0.8694644000206608,True,18,1,0,2
Y2-S2-123M22,6,525,AS,exp,46,↓,down,↓,0.7054639999987558,True,17,1,0,2
Y2-S2-123M22,6,526,AS,exp,31,↑,up,↑,0.9288527000171598,True,17,1,0,2
Y2-S2-123M22,6,527,AS,exp,47,←,left,←,0.8947325999906752,True,17,1,0,2
Y2-S2-123M22,6,528,AS,exp,36,↑,down,↓,0.9421518000017386,False,16,-1,1,3
Y2-S2-123M22,6,529,AS,exp,27,←,left,←,0.7623148999991827,True,17,-1,0,3
Y2-S2-123M22,6,530,AS,exp,39,↓,down,↓,0.7240383999887854,True,17,-1,0,3
Y2-S2-123M22,6,531,AS,exp,30,↑,down,↓,0.963886099983938,False,17,-1,0,3
Y2-S2-123M22,6,532,AS,exp,27,←,left,←,0.6156448000110686,True,18,-1,0,3
Y2-S2-123M22,6,533,AS,exp,46,→,right,→,0.6592866000137292,True,18,-1,0,3
Y2-S2-123M22,6,534,AS,exp,44,↓,down,↓,0.7506080000021029,True,18,1,1,4
Y2-S2-123M22,6,535,AS,exp,45,→,left,←,0.7480716000136454,False,17,-1,1,5
Y2-S2-123M22,6,536,AS,exp,32,↑,up,↑,0.7763459000270814,True,18,-1,0,5
Y2-S2-123M22,6,537,AS,exp,41,↓,down,↓,0.8149893999798223,True,18,-1,0,5
Y2-S2-123M22,6,538,AS,exp,29,←,left,←,0.6304815999756102,True,18,1,1,6
Y2-S2-123M22,6,539,AS,exp,41,→,right,→,0.7796496000082698,True,17,1,0,6
Y2-S2-123M22,6,540,AS,exp,36,←,left,←,0.5843965000240132,True,17,1,0,6
Y2-S2-123M22,6,541,AS,exp,33,↓,down,↓,0.8039054999826476,True,17,1,0,6
Y2-S2-123M22,6,542,AS,exp,33,↑,right,→,1.0132827000052202,False,16,-1,1,7
Y2-S2-123M22,6,543,AS,exp,50,←,left,←,0.49715970002580434,True,17,-1,0,7
Y2-S2-123M22,6,544,AS,exp,47,↑,up,↑,0.6983698999974877,True,17,-1,0,7
Y2-S2-123M22,6,545,AS,exp,27,←,left,←,0.5890113999776077,True,17,1,1,8
Y2-S2-123M22,6,546,AS,exp,44,→,right,→,1.5820566000184044,True,16,1,0,8
Y2-S2-123M22,6,547,AS,exp,47,↑,right,→,0.8552974999765866,False,16,-1,1,9
Y2-S2-123M22,6,548,AS,exp,26,↓,down,↓,0.8642573000106495,True,17,-1,0,9
Y2-S2-123M22,6,549,AS,exp,32,↑,up,↑,0.7410297000024002,True,17,-1,0,9
Y2-S2-123M22,6,550,AS,exp,26,←,left,←,0.7098960999865085,True,17,1,1,10
Y2-S2-123M22,6,551,AS,exp,34,↓,down,↓,0.8019103999831714,True,16,1,0,10
Y2-S2-123M22,6,552,AS,exp,43,→,right,→,0.6321630000020377,True,16,1,0,10
Y2-S2-123M22,6,553,AS,exp,27,↓,down,↓,1.0947570000134874,True,16,1,0,10
Y2-S2-123M22,6,554,AS,exp,34,←,left,←,0.5663291999953799,True,15,1,0,10
Y2-S2-123M22,6,555,AS,exp,30,→,right,→,0.801883700012695,True,15,1,0,10
Y2-S2-123M22,6,556,AS,exp,29,↑,left,←,0.8274570000066888,False,15,-1,1,11
Y2-S2-123M22,6,557,AS,exp,39,→,right,→,0.45439329999499023,True,16,-1,0,11
Y2-S2-123M22,6,558,AS,exp,30,↑,up,↑,0.7162994999962393,True,16,-1,0,11
Y2-S2-123M22,6,559,AS,exp,35,→,right,→,0.5440316000021994,True,16,1,1,12
Y2-S2-123M22,6,560,AS,exp,30,↑,down,↓,1.3958377999952063,False,15,-1,1,13
Y2-S2-123M22,6,561,AS,exp,50,→,right,→,0.5768973999947775,True,16,-1,0,13
Y2-S2-123M22,6,562,AS,exp,31,←,right,→,0.9772777000034694,False,16,-1,0,13
Y2-S2-123M22,6,563,AS,exp,30,↓,down,↓,1.047791299992241,True,17,-1,0,13
Y2-S2-123M22,6,564,AS,exp,30,←,left,←,0.7899859000172,True,17,-1,0,13
Y2-S2-123M22,6,565,AS,exp,34,↓,down,↓,0.8117204000009224,True,17,1,1,14
Y2-S2-123M22,6,566,AS,exp,39,←,down,↓,0.6758063000161201,False,16,-1,1,15
Y2-S2-123M22,6,567,AS,exp,48,→,right,→,0.7091191000072286,True,17,-1,0,15
Y2-S2-123M22,6,568,AS,exp,48,↑,right,→,0.8196529999841005,False,17,-1,0,15
Y2-S2-123M22,6,569,AS,exp,28,→,right,→,0.7137423999956809,True,18,-1,0,15
Y2-S2-123M22,6,570,AS,exp,33,↓,down,↓,0.8302931000071112,True,18,-1,0,15
Y2-S2-123M22,6,571,AS,exp,46,←,right,→,0.8943814000231214,False,18,-1,0,15
Y2-S2-123M22,6,572,AS,exp,44,↑,up,↑,1.1334751000104006,True,19,-1,0,15
Y2-S2-123M22,6,573,AS,exp,39,↓,down,↓,0.8684352000127546,True,19,-1,0,15
Y2-S2-123M22,6,574,AS,exp,34,→,right,→,0.7020591999753378,True,19,1,1,16
Y2-S2-123M22,7,575,AS,intra_train,48,↑,up,↑,0.6832783999852836,True,28,-,-,-
Y2-S2-123M22,7,576,AS,intra_train,50,→,right,→,1.5304968999989796,True,28,-,-,-
Y2-S2-123M22,7,577,AS,intra_train,50,←,left,←,1.588641699985601,True,28,-,-,-
Y2-S2-123M22,7,578,AS,intra_train,33,↓,down,↓,1.3670572999981232,True,28,-,-,-
Y2-S2-123M22,7,579,AS,intra_train,34,→,right,→,0.9506702999933623,True,28,-,-,-
Y2-S2-123M22,7,580,AS,exp,42,↓,up,↑,1.0771561000146903,False,19,-1,0,0
Y2-S2-123M22,7,581,AS,exp,34,←,left,←,0.6885738999990281,True,20,-1,0,0
Y2-S2-123M22,7,582,AS,exp,29,↓,down,↓,0.8319090000004508,True,20,-1,0,0
Y2-S2-123M22,7,583,AS,exp,36,→,right,→,0.9527668000082485,True,20,1,1,1
Y2-S2-123M22,7,584,AS,exp,41,↑,up,↑,1.0221064999932423,True,19,1,0,1
Y2-S2-123M22,7,585,AS,exp,32,↓,down,↓,0.8245204999984708,True,19,1,0,1
Y2-S2-123M22,7,586,AS,exp,39,→,right,→,0.8326624000037555,True,19,1,0,1
Y2-S2-123M22,7,587,AS,exp,32,←,left,←,0.7536129000072833,True,18,1,0,1
Y2-S2-123M22,7,588,AS,exp,33,↑,no_key,no_letter,-1.0,False,18,-1,1,2
Y2-S2-123M22,7,589,AS,exp,37,←,left,←,0.7832013000152074,True,19,-1,0,2
Y2-S2-123M22,7,590,AS,exp,48,↓,down,↓,1.0417878000007477,True,19,-1,0,2
Y2-S2-123M22,7,591,AS,exp,35,←,left,←,1.0882996000000276,True,19,1,1,3
Y2-S2-123M22,7,592,AS,exp,36,→,left,←,0.9567827999999281,False,18,-1,1,4
Y2-S2-123M22,7,593,AS,exp,29,←,left,←,0.6998490999976639,True,19,-1,0,4
Y2-S2-123M22,7,594,AS,exp,38,↑,up,↑,1.1673310000041965,True,19,-1,0,4
Y2-S2-123M22,7,595,AS,exp,29,→,right,→,0.7847946000110824,True,19,1,1,5
Y2-S2-123M22,7,596,AS,exp,26,←,left,←,0.8372600000002421,True,18,1,0,5
Y2-S2-123M22,7,597,AS,exp,41,↑,up,↑,0.6125324000022374,True,18,1,0,5
Y2-S2-123M22,7,598,AS,exp,34,←,left,←,0.6110839000029955,True,18,1,0,5
Y2-S2-123M22,7,599,AS,exp,40,↓,down,↓,0.9748018000100274,True,17,1,0,5
Y2-S2-123M22,7,600,AS,exp,41,↑,down,↓,0.9032164999807719,False,17,-1,1,6
Y2-S2-123M22,7,601,AS,exp,26,→,right,→,0.7286670999892522,True,18,-1,0,6
Y2-S2-123M22,7,602,AS,exp,28,←,left,←,0.8629006999835838,True,18,-1,0,6
Y2-S2-123M22,7,603,AS,exp,43,↑,up,↑,1.336404700006824,True,18,1,1,7
Y2-S2-123M22,7,604,AS,exp,41,←,left,←,0.5773552999889944,True,17,1,0,7
Y2-S2-123M22,7,605,AS,exp,37,↑,left,←,0.946472800016636,False,17,-1,1,8
Y2-S2-123M22,7,606,AS,exp,36,→,right,→,0.6896127999934833,True,18,-1,0,8
Y2-S2-123M22,7,607,AS,exp,38,↑,up,↑,0.7933618999959435,True,18,-1,0,8
Y2-S2-123M22,7,608,AS,exp,40,←,left,←,0.9543875000090338,True,18,1,1,9
Y2-S2-123M22,7,609,AS,exp,45,↑,up,↑,0.6797909000015352,True,17,1,0,9
Y2-S2-123M22,7,610,AS,exp,38,→,right,→,0.6600613000045996,True,17,1,0,9
Y2-S2-123M22,7,611,AS,exp,28,←,left,←,0.6300763999752235,True,17,1,0,9
Y2-S2-123M22,7,612,AS,exp,37,↓,down,↓,0.9597895000188146,True,16,1,0,9
Y2-S2-123M22,7,613,AS,exp,29,↑,up,↑,0.6214947999978904,True,16,1,0,9
Y2-S2-123M22,7,614,AS,exp,32,↓,down,↓,0.8650667000038084,True,16,1,0,9
Y2-S2-123M22,7,615,AS,exp,25,↑,up,↑,1.1022912999906112,True,15,1,0,9
Y2-S2-123M22,7,616,AS,exp,37,↓,down,↓,0.7744534999947064,True,15,1,0,9
Y2-S2-123M22,7,617,AS,exp,37,↑,up,↑,0.896868000010727,True,15,1,0,9
Y2-S2-123M22,7,618,AS,exp,31,←,left,←,0.6833448999968823,True,14,1,0,9
Y2-S2-123M22,7,619,AS,exp,49,→,right,→,0.6285252000088803,True,14,1,0,9
Y2-S2-123M22,7,620,AS,exp,39,←,left,←,0.6759000000020023,True,14,1,0,9
Y2-S2-123M22,7,621,AS,exp,44,↑,up,↑,1.019206299999496,True,13,1,0,9
Y2-S2-123M22,7,622,AS,exp,29,↓,down,↓,0.8043412999832071,True,13,1,0,9
Y2-S2-123M22,7,623,AS,exp,47,→,right,→,0.7276096999994479,True,13,1,0,9
Y2-S2-123M22,7,624,AS,exp,43,←,left,←,0.7241864999814425,True,12,1,0,9
Y2-S2-123M22,7,625,AS,exp,42,→,right,→,0.6804384999850299,True,12,1,0,9
Y2-S2-123M22,7,626,AS,exp,40,↑,up,↑,0.9513249000010546,True,12,1,0,9
Y2-S2-123M22,7,627,AS,exp,49,↓,left,←,0.8253670999838505,False,11,-1,1,10
Y2-S2-123M22,7,628,AS,exp,42,→,down,↓,0.9129853000049479,False,12,-1,0,10
Y2-S2-123M22,7,629,AS,exp,25,↑,up,↑,0.7650766000151634,True,13,-1,0,10
Y2-S2-123M22,7,630,AS,exp,41,→,right,→,0.6944627000193577,True,13,-1,0,10
Y2-S2-123M22,7,631,AS,exp,43,↓,down,↓,0.779313099978026,True,13,1,1,11
Y2-S2-123M22,7,632,AS,exp,45,↑,up,↑,0.7524198000028264,True,12,1,0,11
Y2-S2-123M22,7,633,AS,exp,44,→,up,↑,0.8056963999988511,False,12,-1,1,12
Y2-S2-123M22,7,634,AS,exp,31,↓,down,↓,0.8103798000083771,True,13,-1,0,12
Y2-S2-123M22,7,635,AS,exp,31,↑,up,↑,0.9849440999969374,True,13,-1,0,12
Y2-S2-123M22,7,636,AS,exp,35,→,up,↑,1.0383005999901798,False,13,-1,0,12
Y2-S2-123M22,7,637,AS,exp,39,↓,down,↓,0.8734830000030342,True,14,-1,0,12
Y2-S2-123M22,7,638,AS,exp,25,↑,up,↑,0.7399188000126742,True,14,-1,0,12
Y2-S2-123M22,7,639,AS,exp,49,→,right,→,0.8128787000023294,True,14,1,1,13
Y2-S2-123M22,7,640,AS,exp,27,↓,left,←,0.962313299998641,False,13,-1,1,14
Y2-S2-123M22,7,641,AS,exp,41,↑,up,↑,0.6602197000174783,True,14,-1,0,14
Y2-S2-123M22,7,642,AS,exp,32,→,right,→,0.7085687999788206,True,14,-1,0,14
Y2-S2-123M22,7,643,AS,exp,28,↑,left,←,0.9492060000193305,False,14,-1,0,14
Y2-S2-123M22,7,644,AS,exp,27,→,down,↓,0.7563872000027914,False,15,-1,0,14
Y2-S2-123M22,7,645,AS,exp,34,↓,down,↓,0.9267263000074308,True,16,-1,0,14
Y2-S2-123M22,7,646,AS,exp,46,←,left,←,0.7578125,True,16,-1,0,14
Y2-S2-123M22,7,647,AS,exp,25,↓,left,←,0.6896042999869678,False,16,-1,0,14
Y2-S2-123M22,7,648,AS,exp,32,↑,up,↑,0.6206923999998253,True,17,-1,0,14
Y2-S2-123M22,7,649,AS,exp,47,←,left,←,0.7697681999998167,True,17,-1,0,14
Y2-S2-123M22,7,650,AS,exp,29,↑,up,↑,0.7961466000124346,True,17,1,1,15
Y2-S2-123M22,7,651,AS,exp,49,↓,down,↓,0.8358403000165708,True,16,1,0,15
Y2-S2-123M22,7,652,AS,exp,25,↑,down,↓,1.1227020999940578,False,16,-1,1,16
Y2-S2-123M22,8,653,PS,intra_train,29,→,left,←,1.121772400016198,False,10,-,-,-
Y2-S2-123M22,8,654,PS,intra_train,26,↓,down,↓,1.0190398000122514,True,10,-,-,-
Y2-S2-123M22,8,655,PS,intra_train,41,↑,up,↑,0.7652399000071455,True,10,-,-,-
Y2-S2-123M22,8,656,PS,intra_train,45,→,left,←,0.625804799987236,False,10,-,-,-
Y2-S2-123M22,8,657,PS,intra_train,36,↑,right,→,1.0970349999843165,False,10,-,-,-
Y2-S2-123M22,8,658,PS,exp,31,→,right,→,1.505012599984184,True,7,0,0,0
Y2-S2-123M22,8,659,PS,exp,49,↓,down,↓,0.5921374000026844,True,7,0,0,0
Y2-S2-123M22,8,660,PS,exp,28,↑,left,←,0.6173552999971434,False,7,-1,0,0
Y2-S2-123M22,8,661,PS,exp,34,↓,down,↓,0.6351513999979943,True,8,-1,0,0
Y2-S2-123M22,8,662,PS,exp,48,↑,up,↑,0.8350709000078496,True,8,-1,0,0
Y2-S2-123M22,8,663,PS,exp,29,↓,down,↓,0.7204311999958009,True,8,1,1,1
Y2-S2-123M22,8,664,PS,exp,32,←,left,←,0.5397099999827333,True,7,1,0,1
Y2-S2-123M22,8,665,PS,exp,28,→,left,←,0.5483143999881577,False,7,-1,1,2
Y2-S2-123M22,8,666,PS,exp,42,←,left,←,0.6391508000087924,True,8,-1,0,2
Y2-S2-123M22,8,667,PS,exp,35,↑,left,←,0.6680740999872796,False,8,-1,0,2
Y2-S2-123M22,8,668,PS,exp,40,→,right,→,0.6727410000166856,True,9,-1,0,2
Y2-S2-123M22,8,669,PS,exp,30,↓,right,→,0.8091380999831017,False,9,-1,0,2
Y2-S2-123M22,8,670,PS,exp,35,↑,up,↑,0.4670295999967493,True,10,-1,0,2
Y2-S2-123M22,8,671,PS,exp,25,←,left,←,0.5963670999917667,True,10,-1,0,2
Y2-S2-123M22,8,672,PS,exp,29,↑,up,↑,0.5552954000013415,True,10,1,1,3
Y2-S2-123M22,8,673,PS,exp,44,↓,down,↓,0.8167976000113413,True,9,1,0,3
Y2-S2-123M22,8,674,PS,exp,49,←,left,←,1.0087260000000242,True,9,1,0,3
Y2-S2-123M22,8,675,PS,exp,49,↓,down,↓,0.8617229000083171,True,9,1,0,3
Y2-S2-123M22,8,676,PS,exp,27,←,left,←,0.8243526000005659,True,8,1,0,3
Y2-S2-123M22,8,677,PS,exp,45,↑,right,→,0.758714499999769,False,8,-1,1,4
Y2-S2-123M22,8,678,PS,exp,45,←,right,→,0.9246888000052422,False,9,-1,0,4
Y2-S2-123M22,8,679,PS,exp,47,↓,down,↓,0.9034954000089783,True,10,-1,0,4
Y2-S2-123M22,8,680,PS,exp,33,←,left,←,0.6164428000047337,True,10,-1,0,4
Y2-S2-123M22,8,681,PS,exp,30,↓,down,↓,0.7019738999952096,True,10,1,1,5
Y2-S2-123M22,8,682,PS,exp,38,→,right,→,0.7091897000209428,True,9,1,0,5
Y2-S2-123M22,8,683,PS,exp,35,↓,down,↓,0.7190078999847174,True,9,1,0,5
Y2-S2-123M22,8,684,PS,exp,35,↑,up,↑,0.951784199976828,True,9,1,0,5
Y2-S2-123M22,8,685,PS,exp,41,↓,left,←,1.1570431000145618,False,8,-1,1,6
Y2-S2-123M22,8,686,PS,exp,39,↑,right,→,0.833799000014551,False,9,-1,0,6
Y2-S2-123M22,8,687,PS,exp,43,↓,down,↓,0.7989975000091363,True,10,-1,0,6
Y2-S2-123M22,8,688,PS,exp,28,↑,up,↑,0.9540236000029836,True,10,-1,0,6
Y2-S2-123M22,8,689,PS,exp,50,↓,up,↑,0.7083852000068873,False,10,-1,0,6
Y2-S2-123M22,8,690,PS,exp,32,→,right,→,0.6786592999997083,True,11,-1,0,6
Y2-S2-123M22,8,691,PS,exp,41,↓,down,↓,0.8085018000274431,True,11,-1,0,6
Y2-S2-123M22,8,692,PS,exp,27,↑,down,↓,1.2120896000124048,False,11,-1,0,6
Y2-S2-123M22,8,693,PS,exp,29,↓,down,↓,0.7239300000073854,True,12,-1,0,6
Y2-S2-123M22,8,694,PS,exp,41,←,left,←,0.7377945999905933,True,12,-1,0,6
Y2-S2-123M22,8,695,PS,exp,35,↓,right,→,1.7114030999946408,False,12,-1,0,6
Y2-S2-123M22,8,696,PS,exp,31,↑,up,↑,0.9643340999900829,True,13,-1,0,6
Y2-S2-123M22,8,697,PS,exp,26,↓,down,↓,0.8614839000219945,True,13,-1,0,6
Y2-S2-123M22,8,698,PS,exp,39,←,down,↓,1.308110999991186,False,13,-1,0,6
Y2-S2-123M22,8,699,PS,exp,40,↓,down,↓,0.7179676999803632,True,14,-1,0,6
Y2-S2-123M22,8,700,PS,exp,47,↑,up,↑,0.9654613999882713,True,14,-1,0,6
Y2-S2-123M22,8,701,PS,exp,46,↓,down,↓,0.9844682999828365,True,14,1,1,7
Y2-S2-123M22,8,702,PS,exp,43,↑,up,↑,0.8493204000114929,True,13,1,0,7
Y2-S2-123M22,8,703,PS,exp,25,↓,down,↓,0.7079885000130162,True,13,1,0,7
Y2-S2-123M22,8,704,PS,exp,35,←,left,←,0.7129717999778222,True,13,1,0,7
Y2-S2-123M22,8,705,PS,exp,43,→,right,→,0.5058342000120319,True,12,1,0,7
Y2-S2-123M22,8,706,PS,exp,44,↓,down,↓,0.9018109999888111,True,12,1,0,7
Y2-S2-123M22,8,707,PS,exp,49,→,right,→,0.544737799995346,True,12,1,0,7
Y2-S2-123M22,8,708,PS,exp,43,↓,right,→,1.1698898999893572,False,11,-1,1,8
Y2-S2-123M22,8,709,PS,exp,50,←,left,←,0.8705957000202034,True,12,-1,0,8
Y2-S2-123M22,8,710,PS,exp,26,→,right,→,0.6222834000072908,True,12,-1,0,8
Y2-S2-123M22,8,711,PS,exp,43,←,left,←,0.7323691999772564,True,12,1,1,9
Y2-S2-123M22,8,712,PS,exp,30,↑,no_key,no_letter,-1.0,False,11,-1,1,10
Y2-S2-123M22,8,713,PS,exp,29,→,right,→,0.44562699997914024,True,12,-1,0,10
Y2-S2-123M22,8,714,PS,exp,34,↑,right,→,0.3954821999941487,False,12,-1,0,10
Y2-S2-123M22,8,715,PS,exp,41,→,right,→,0.4714355999894906,True,13,-1,0,10
Y2-S2-123M22,8,716,PS,exp,44,←,left,←,0.4746908999804873,True,13,-1,0,10
Y2-S2-123M22,8,717,PS,exp,33,↓,down,↓,0.9493885000119917,True,13,1,1,11
Y2-S2-123M22,8,718,PS,exp,33,→,right,→,0.5867752999765798,True,12,1,0,11
Y2-S2-123M22,8,719,PS,exp,38,←,left,←,0.8107573000015691,True,12,1,0,11
Y2-S2-123M22,8,720,PS,exp,38,↑,up,↑,0.640457300003618,True,12,1,0,11
Y2-S2-123M22,8,721,PS,exp,48,←,left,←,0.9672735999920405,True,11,1,0,11
Y2-S2-123M22,8,722,PS,exp,44,↑,up,↑,0.555245499999728,True,11,1,0,11
Y2-S2-123M22,8,723,PS,exp,27,→,right,→,0.6260704999731388,True,11,1,0,11
Y2-S2-123M22,8,724,PS,exp,33,↑,up,↑,0.7610146000224631,True,10,1,0,11
Y2-S2-123M22,8,725,PS,exp,26,↓,down,↓,0.9505357000161894,True,10,1,0,11
Y2-S2-123M22,8,726,PS,exp,48,↑,up,↑,0.7629976999887731,True,10,1,0,11
Y2-S2-123M22,8,727,PS,exp,36,↓,up,↑,0.6594064999953844,False,9,-1,1,12
Y2-S2-123M22,8,728,PS,exp,34,↑,left,←,0.7473520000057761,False,10,-1,0,12
Y2-S2-123M22,8,729,PS,exp,33,←,left,←,0.5894201000046451,True,11,-1,0,12
Y2-S2-123M22,8,730,PS,exp,37,↓,down,↓,0.98203129999456,True,11,-1,0,12
Y2-S2-123M22,8,731,PS,exp,47,→,right,→,0.5885857999965083,True,11,1,1,13
Y2-S2-123M22,8,732,PS,exp,27,↑,up,↑,1.6223870000103489,True,10,1,0,13
Y2-S2-123M22,8,733,PS,exp,34,↓,down,↓,0.7358356000040658,True,10,1,0,13
Y2-S2-123M22,8,734,PS,exp,45,→,right,→,0.6466528999735601,True,10,1,0,13
Y2-S2-123M22,8,735,PS,exp,33,↓,down,↓,0.9125940999947488,True,9,1,0,13
Y2-S2-123M22,8,736,PS,exp,49,→,right,→,0.6493203999998514,True,9,1,0,13
Y2-S2-123M22,8,737,PS,exp,47,←,left,←,0.618786299979547,True,9,1,0,13
Y2-S2-123M22,8,738,PS,exp,46,↑,up,↑,0.891489100002218,True,8,1,0,13
Y2-S2-123M22,8,739,PS,exp,49,←,left,←,0.5778304999985266,True,8,1,0,13
Y2-S2-123M22,8,740,PS,exp,36,→,right,→,0.731576500023948,True,8,1,0,13
Y2-S2-123M22,8,741,PS,exp,38,↓,right,→,0.7034963000041898,False,7,-1,1,14
Y2-S2-123M22,8,742,PS,exp,30,←,left,←,0.779478399985237,True,8,-1,0,14
Y2-S2-123M22,8,743,PS,exp,46,→,right,→,0.8431428000039887,True,8,-1,0,14
Y2-S2-123M22,8,744,PS,exp,46,↑,down,↓,1.0050190000038128,False,8,-1,0,14
Y2-S2-123M22,8,745,PS,exp,42,←,left,←,0.5812232999887783,True,9,-1,0,14
Y2-S2-123M22,8,746,PS,exp,34,↑,up,↑,0.5993855999840889,True,9,-1,0,14
Y2-S2-123M22,8,747,PS,exp,44,→,right,→,0.5111802000028547,True,9,1,1,15
Y2-S2-123M22,8,748,PS,exp,40,↑,down,↓,1.3690430000133347,False,8,-1,1,16
