PART_ID,Block_no,Trial_no,Block_type,Trial_type,CSI,Stim_letter,Key_pressed,letter_choose,Rt,Corr,Stimulus Time,Level,Reversal,Revs_count
Y2-S2-143K18,1,1,PS,train,49,→,right,→,1.853909400291741,True,30,-,-,-
Y2-S2-143K18,1,2,PS,train,49,↓,down,↓,0.8846364999189973,True,30,-,-,-
Y2-S2-143K18,1,3,PS,train,37,→,down,↓,1.6346904998645186,False,30,-,-,-
Y2-S2-143K18,1,4,PS,train,35,↑,up,↑,1.1346158999949694,True,30,-,-,-
Y2-S2-143K18,1,5,PS,train,45,←,left,←,0.9488762998953462,True,30,-,-,-
Y2-S2-143K18,1,6,PS,train,39,↓,down,↓,0.9563914998434484,True,30,-,-,-
Y2-S2-143K18,1,7,PS,train,42,←,left,←,0.6986520998179913,True,30,-,-,-
Y2-S2-143K18,1,8,PS,train,48,↓,down,↓,0.698019600007683,True,30,-,-,-
Y2-S2-143K18,1,9,PS,train,27,←,left,←,0.5005289996042848,True,30,-,-,-
Y2-S2-143K18,1,10,PS,train,26,→,right,→,1.1200091000646353,True,30,-,-,-
Y2-S2-143K18,2,11,AS,train,50,↓,down,↓,0.7027056999504566,True,45,-,-,-
Y2-S2-143K18,2,12,AS,train,39,↑,up,↑,0.6677808999083936,True,45,-,-,-
Y2-S2-143K18,2,13,AS,train,42,→,right,→,0.9294739002361894,True,45,-,-,-
Y2-S2-143K18,2,14,AS,train,50,↓,down,↓,1.1354215000756085,True,45,-,-,-
Y2-S2-143K18,2,15,AS,train,26,←,left,←,0.8170634000562131,True,45,-,-,-
Y2-S2-143K18,2,16,AS,train,49,→,right,→,0.650972300209105,True,45,-,-,-
Y2-S2-143K18,2,17,AS,train,40,↓,down,↓,0.6678824000991881,True,45,-,-,-
Y2-S2-143K18,2,18,AS,train,32,←,left,←,0.7339412001892924,True,45,-,-,-
Y2-S2-143K18,2,19,AS,train,34,↓,down,↓,0.784184199757874,True,45,-,-,-
Y2-S2-143K18,2,20,AS,train,29,←,left,←,0.6006733998656273,True,45,-,-,-
Y2-S2-143K18,-,21,PS,adaptive,50,→,right,→,1.0216828002594411,True,10,0,0,0
Y2-S2-143K18,-,22,PS,adaptive,30,↑,up,↑,0.6830353997647762,True,10,0,0,0
Y2-S2-143K18,-,23,PS,adaptive,42,↓,down,↓,0.8358068000525236,True,10,1,0,0
Y2-S2-143K18,-,24,PS,adaptive,50,↑,left,←,1.1432536002248526,False,9,-1,1,1
Y2-S2-143K18,-,25,PS,adaptive,29,←,left,←,0.5636763996444643,True,10,-1,0,1
Y2-S2-143K18,-,26,PS,adaptive,39,↓,left,←,0.6346100997179747,False,10,-1,0,1
Y2-S2-143K18,-,27,PS,adaptive,35,↑,up,↑,0.6306243999861181,True,11,-1,0,1
Y2-S2-143K18,-,28,PS,adaptive,37,←,left,←,0.26734929997473955,True,11,-1,0,1
Y2-S2-143K18,-,29,PS,adaptive,49,↓,down,↓,0.71737049985677,True,11,1,1,2
Y2-S2-143K18,-,30,PS,adaptive,29,←,left,←,0.6294117998331785,True,10,1,0,2
Y2-S2-143K18,-,31,PS,adaptive,37,↓,down,↓,0.688368699979037,True,10,1,0,2
Y2-S2-143K18,-,32,PS,adaptive,50,←,left,←,0.5677498998120427,True,10,1,0,2
Y2-S2-143K18,-,33,PS,adaptive,28,→,left,←,0.6212078002281487,False,9,-1,1,3
Y2-S2-143K18,-,34,PS,adaptive,27,←,left,←,0.902305600233376,True,10,-1,0,3
Y2-S2-143K18,-,35,PS,adaptive,27,↑,left,←,0.5253712004050612,False,10,-1,0,3
Y2-S2-143K18,-,36,PS,adaptive,49,↓,right,→,0.23367920005694032,False,11,-1,0,3
Y2-S2-143K18,-,37,PS,adaptive,39,↑,up,↑,0.05102070001885295,True,12,-1,0,3
Y2-S2-143K18,-,38,PS,adaptive,43,→,left,←,0.708163000177592,False,12,-1,0,3
Y2-S2-143K18,-,39,PS,adaptive,27,↓,right,→,0.1511279996484518,False,13,-1,0,3
Y2-S2-143K18,-,40,PS,adaptive,46,→,left,←,1.2653159997425973,False,14,-1,0,3
Y2-S2-143K18,-,41,PS,adaptive,25,←,left,←,0.6505972999148071,True,15,-1,0,3
Y2-S2-143K18,-,42,PS,adaptive,26,↑,up,↑,0.5433427998796105,True,15,-1,0,3
Y2-S2-143K18,-,43,PS,adaptive,33,←,left,←,0.5310179996304214,True,15,1,1,4
Y2-S2-143K18,-,44,AS,adaptive,29,↑,up,↑,0.6391175999306142,True,20,0,0,0
Y2-S2-143K18,-,45,AS,adaptive,30,↓,down,↓,1.8124818000942469,True,20,0,0,0
Y2-S2-143K18,-,46,AS,adaptive,26,←,left,←,1.0718823000788689,True,20,1,0,0
Y2-S2-143K18,-,47,AS,adaptive,46,↑,up,↑,0.822072499897331,True,19,1,0,0
Y2-S2-143K18,-,48,AS,adaptive,46,←,up,↑,0.7046301001682878,False,19,-1,1,1
Y2-S2-143K18,-,49,AS,adaptive,40,↓,down,↓,0.6044657998718321,True,20,-1,0,1
Y2-S2-143K18,-,50,AS,adaptive,25,←,left,←,0.5086556002497673,True,20,-1,0,1
Y2-S2-143K18,-,51,AS,adaptive,49,↓,down,↓,0.5492893997579813,True,20,1,1,2
Y2-S2-143K18,-,52,AS,adaptive,45,↑,down,↓,0.7065983000211418,False,19,-1,1,3
Y2-S2-143K18,-,53,AS,adaptive,30,←,no_key,no_letter,-1.0,False,20,-1,0,3
Y2-S2-143K18,-,54,AS,adaptive,42,→,left,←,0.2174362000077963,False,21,-1,0,3
Y2-S2-143K18,-,55,AS,adaptive,34,↑,right,→,1.77328409999609,False,22,-1,0,3
Y2-S2-143K18,-,56,AS,adaptive,47,←,left,←,0.1348602999933064,True,23,-1,0,3
Y2-S2-143K18,-,57,AS,adaptive,25,↑,right,→,0.21796479960903525,False,23,-1,0,3
Y2-S2-143K18,-,58,AS,adaptive,26,←,right,→,0.40022660000249743,False,24,-1,0,3
Y2-S2-143K18,-,59,AS,adaptive,46,→,left,←,0.16750029986724257,False,25,-1,0,3
Y2-S2-143K18,-,60,AS,adaptive,30,↑,up,↑,0.23471420025452971,True,26,-1,0,3
Y2-S2-143K18,-,61,AS,adaptive,28,↓,up,↑,0.35095239989459515,False,26,-1,0,3
Y2-S2-143K18,-,62,AS,adaptive,30,→,left,←,1.5274130003526807,False,27,-1,0,3
Y2-S2-143K18,-,63,AS,adaptive,30,←,no_key,no_letter,-1.0,False,28,-1,0,3
Y2-S2-143K18,-,64,AS,adaptive,35,↓,right,→,0.40103220008313656,False,29,-1,0,3
Y2-S2-143K18,-,65,AS,adaptive,48,→,no_key,no_letter,-1.0,False,30,-1,0,3
Y2-S2-143K18,-,66,AS,adaptive,37,↑,left,←,1.5077025000937283,False,31,-1,0,3
Y2-S2-143K18,-,67,AS,adaptive,50,←,left,←,0.10126839997246861,True,32,-1,0,3
Y2-S2-143K18,-,68,AS,adaptive,39,→,no_key,no_letter,-1.0,False,32,-1,0,3
Y2-S2-143K18,-,69,AS,adaptive,42,↓,no_key,no_letter,-1.0,False,33,-1,0,3
Y2-S2-143K18,-,70,AS,adaptive,40,↑,no_key,no_letter,-1.0,False,34,-1,0,3
Y2-S2-143K18,-,71,AS,adaptive,31,→,right,→,0.3846118999645114,True,35,-1,0,3
Y2-S2-143K18,-,72,AS,adaptive,29,↑,right,→,1.5008657998405397,False,35,-1,0,3
Y2-S2-143K18,-,73,AS,adaptive,29,→,right,→,0.23434169963002205,True,36,-1,0,3
Y2-S2-143K18,-,74,AS,adaptive,33,←,right,→,0.26763369981199503,False,36,-1,0,3
Y2-S2-143K18,-,75,AS,adaptive,48,↑,right,→,0.40105989994481206,False,37,-1,0,3
Y2-S2-143K18,-,76,AS,adaptive,45,←,no_key,no_letter,-1.0,False,38,-1,0,3
Y2-S2-143K18,-,77,AS,adaptive,49,→,right,→,1.097147200256586,True,39,-1,0,3
Y2-S2-143K18,-,78,AS,adaptive,49,↑,left,←,0.2009660997428,False,39,-1,0,3
Y2-S2-143K18,-,79,AS,adaptive,42,←,right,→,0.15125230001285672,False,40,-1,0,3
Y2-S2-143K18,-,80,AS,adaptive,41,→,right,→,1.1451699999161065,True,41,-1,0,3
Y2-S2-143K18,-,81,AS,adaptive,50,←,left,←,0.5345354997552931,True,41,-1,0,3
Y2-S2-143K18,-,82,AS,adaptive,49,↑,left,←,0.46791599970310926,False,41,-1,0,3
Y2-S2-143K18,-,83,AS,adaptive,32,→,right,→,0.7672247001901269,True,42,-1,0,3
Y2-S2-143K18,-,84,AS,adaptive,35,↓,down,↓,2.135945599991828,True,42,-1,0,3
Y2-S2-143K18,-,85,AS,adaptive,28,↑,up,↑,0.7507365001365542,True,42,1,1,4
Y2-S2-143K18,1,86,PS,intra_train,43,→,no_key,no_letter,-1.0,False,21,-,-,-
Y2-S2-143K18,1,87,PS,intra_train,43,↑,no_key,no_letter,-1.0,False,21,-,-,-
Y2-S2-143K18,1,88,PS,intra_train,47,↓,left,←,0.5492716999724507,False,21,-,-,-
Y2-S2-143K18,1,89,PS,intra_train,41,↑,right,→,0.35052220011129975,False,21,-,-,-
Y2-S2-143K18,1,90,PS,intra_train,25,↓,left,←,0.18432769970968366,False,21,-,-,-
Y2-S2-143K18,1,91,PS,exp,31,↑,left,←,0.410480999853462,False,14,-1,0,0
Y2-S2-143K18,1,92,PS,exp,28,←,up,↑,0.23330629989504814,False,15,-1,0,0
Y2-S2-143K18,1,93,PS,exp,48,↓,left,←,0.11727909976616502,False,16,-1,0,0
Y2-S2-143K18,1,94,PS,exp,28,→,right,→,0.03512199968099594,True,17,-1,0,0
Y2-S2-143K18,1,95,PS,exp,40,←,left,←,0.521488199941814,True,17,-1,0,0
Y2-S2-143K18,1,96,PS,exp,35,↑,up,↑,0.9525501998141408,True,17,1,1,1
Y2-S2-143K18,1,97,PS,exp,34,→,left,←,0.448895700275898,False,16,-1,1,2
Y2-S2-143K18,1,98,PS,exp,37,↓,right,→,0.3338491003960371,False,17,-1,0,2
Y2-S2-143K18,1,99,PS,exp,30,←,left,←,0.4707134999334812,True,18,-1,0,2
Y2-S2-143K18,1,100,PS,exp,49,→,left,←,0.2507639997638762,False,18,-1,0,2
Y2-S2-143K18,1,101,PS,exp,25,↑,up,↑,0.7301870002411306,True,19,-1,0,2
Y2-S2-143K18,1,102,PS,exp,30,↓,left,←,0.3340262998826802,False,19,-1,0,2
Y2-S2-143K18,1,103,PS,exp,42,↑,left,←,0.15087549993768334,False,20,-1,0,2
Y2-S2-143K18,1,104,PS,exp,46,←,left,←,0.4508271999657154,True,21,-1,0,2
Y2-S2-143K18,1,105,PS,exp,48,↑,right,→,0.6044401996769011,False,21,-1,0,2
Y2-S2-143K18,1,106,PS,exp,44,←,right,→,0.36727460008114576,False,22,-1,0,2
Y2-S2-143K18,1,107,PS,exp,40,↓,left,←,0.28420039964839816,False,23,-1,0,2
Y2-S2-143K18,1,108,PS,exp,42,↑,up,↑,0.5910943001508713,True,24,-1,0,2
Y2-S2-143K18,1,109,PS,exp,40,←,left,←,1.1732854000292718,True,24,-1,0,2
Y2-S2-143K18,1,110,PS,exp,45,→,left,←,0.3674967000260949,False,24,-1,0,2
Y2-S2-143K18,1,111,PS,exp,40,↓,left,←,0.41721059987321496,False,25,-1,0,2
Y2-S2-143K18,1,112,PS,exp,50,→,left,←,0.2176659000106156,False,26,-1,0,2
Y2-S2-143K18,1,113,PS,exp,42,←,left,←,0.8291647001169622,True,27,-1,0,2
Y2-S2-143K18,1,114,PS,exp,46,↓,left,←,0.3680258998647332,False,27,-1,0,2
Y2-S2-143K18,1,115,PS,exp,32,→,right,→,0.5838382998481393,True,28,-1,0,2
Y2-S2-143K18,1,116,PS,exp,43,↑,up,↑,0.7521110000088811,True,28,-1,0,2
Y2-S2-143K18,1,117,PS,exp,31,→,left,←,0.3177487999200821,False,28,-1,0,2
Y2-S2-143K18,1,118,PS,exp,33,↑,left,←,0.0174926002509892,False,29,-1,0,2
Y2-S2-143K18,1,119,PS,exp,40,←,left,←,0.20109539991244674,True,30,-1,0,2
Y2-S2-143K18,1,120,PS,exp,49,↑,right,→,0.1177607998251915,False,30,-1,0,2
Y2-S2-143K18,1,121,PS,exp,50,←,left,←,0.30188130028545856,True,31,-1,0,2
Y2-S2-143K18,1,122,PS,exp,41,→,left,←,0.11736940033733845,False,31,-1,0,2
Y2-S2-143K18,1,123,PS,exp,27,←,left,←,0.23434589989483356,True,32,-1,0,2
Y2-S2-143K18,1,124,PS,exp,39,↑,right,→,0.13441059971228242,False,32,-1,0,2
Y2-S2-143K18,1,125,PS,exp,46,←,right,→,0.15100689977407455,False,33,-1,0,2
Y2-S2-143K18,1,126,PS,exp,39,→,right,→,0.3013023999519646,True,34,-1,0,2
Y2-S2-143K18,1,127,PS,exp,35,↑,left,←,0.38426689989864826,False,34,-1,0,2
Y2-S2-143K18,1,128,PS,exp,25,←,right,→,0.4177057002671063,False,35,-1,0,2
Y2-S2-143K18,1,129,PS,exp,46,→,right,→,0.001084300223737955,True,36,-1,0,2
Y2-S2-143K18,1,130,PS,exp,25,↑,right,→,0.20083450013771653,False,36,-1,0,2
Y2-S2-143K18,1,131,PS,exp,26,→,left,←,0.33453640015795827,False,37,-1,0,2
Y2-S2-143K18,1,132,PS,exp,32,↑,left,←,0.3511448996141553,False,38,-1,0,2
Y2-S2-143K18,1,133,PS,exp,26,→,up,↑,0.034591699950397015,False,39,-1,0,2
Y2-S2-143K18,1,134,PS,exp,46,↓,left,←,0.36746810004115105,False,40,-1,0,2
Y2-S2-143K18,1,135,PS,exp,26,←,no_key,no_letter,-1.0,False,41,-1,0,2
Y2-S2-143K18,1,136,PS,exp,31,↓,down,↓,1.0963816000148654,True,42,-1,0,2
Y2-S2-143K18,1,137,PS,exp,50,→,left,←,0.9259966001845896,False,42,-1,0,2
Y2-S2-143K18,1,138,PS,exp,29,↑,right,→,0.36780539993196726,False,43,-1,0,2
Y2-S2-143K18,1,139,PS,exp,40,↓,right,→,0.20103570027276874,False,44,-1,0,2
Y2-S2-143K18,1,140,PS,exp,31,→,right,→,0.06767629971727729,True,45,-1,0,2
Y2-S2-143K18,1,141,PS,exp,27,↑,down,↓,0.33473079977557063,False,45,-1,0,2
Y2-S2-143K18,1,142,PS,exp,38,←,down,↓,0.45113519998267293,False,46,-1,0,2
Y2-S2-143K18,1,143,PS,exp,31,→,down,↓,0.5344823999330401,False,47,-1,0,2
Y2-S2-143K18,1,144,PS,exp,39,←,down,↓,0.10077869985252619,False,48,-1,0,2
Y2-S2-143K18,1,145,PS,exp,44,↓,down,↓,0.43438850017264485,True,49,-1,0,2
Y2-S2-143K18,1,146,PS,exp,44,→,right,→,1.0391449998132885,True,49,-1,0,2
Y2-S2-143K18,1,147,PS,exp,31,↓,down,↓,0.15088530024513602,True,49,1,1,3
Y2-S2-143K18,1,148,PS,exp,35,↑,down,↓,0.1509356996975839,False,48,-1,1,4
Y2-S2-143K18,1,149,PS,exp,29,←,down,↓,0.017369600012898445,False,49,-1,0,4
Y2-S2-143K18,1,150,PS,exp,47,↑,left,←,0.367650100030005,False,50,-1,0,4
Y2-S2-143K18,1,151,PS,exp,25,↓,left,←,0.5513834999874234,False,51,-1,0,4
Y2-S2-143K18,1,152,PS,exp,45,←,left,←,0.6840634001418948,True,52,-1,0,4
Y2-S2-143K18,1,153,PS,exp,30,↓,down,↓,0.6510762996040285,True,52,-1,0,4
Y2-S2-143K18,1,154,PS,exp,35,→,down,↓,0.31775510031729937,False,52,-1,0,4
Y2-S2-143K18,1,155,PS,exp,34,←,left,←,0.9005721998400986,True,53,-1,0,4
Y2-S2-143K18,1,156,PS,exp,37,↓,down,↓,0.6677103000693023,True,53,-1,0,4
Y2-S2-143K18,1,157,PS,exp,33,↑,up,↑,0.834326499607414,True,53,1,1,5
Y2-S2-143K18,1,158,PS,exp,34,↓,down,↓,0.7008980000391603,True,52,1,0,5
Y2-S2-143K18,1,159,PS,exp,40,←,left,←,0.43462569965049624,True,52,1,0,5
Y2-S2-143K18,1,160,PS,exp,49,↓,down,↓,0.7508426001295447,True,52,1,0,5
Y2-S2-143K18,1,161,PS,exp,31,→,right,→,0.5010919999331236,True,51,1,0,5
Y2-S2-143K18,1,162,PS,exp,43,↓,down,↓,0.5178072997368872,True,51,1,0,5
Y2-S2-143K18,1,163,PS,exp,29,→,right,→,0.7680190000683069,True,51,1,0,5
Y2-S2-143K18,1,164,PS,exp,50,↑,up,↑,0.6512454999610782,True,50,1,0,5
Y2-S2-143K18,1,165,PS,exp,45,↓,down,↓,0.5677999998442829,True,50,1,0,5
Y2-S2-143K18,1,166,PS,exp,46,↑,up,↑,0.6511610997840762,True,50,1,0,5
Y2-S2-143K18,1,167,PS,exp,39,←,left,←,0.5013109999708831,True,49,1,0,5
Y2-S2-143K18,1,168,PS,exp,27,↓,down,↓,0.651154600083828,True,49,1,0,5
Y2-S2-143K18,1,169,PS,exp,39,↑,up,↑,0.6847173999994993,True,49,1,0,5
Y2-S2-143K18,1,170,PS,exp,36,↓,down,↓,0.6347523997537792,True,48,1,0,5
Y2-S2-143K18,1,171,PS,exp,32,→,down,↓,0.5344346999190748,False,48,-1,1,6
Y2-S2-143K18,1,172,PS,exp,49,↓,left,←,0.5176784000359476,False,49,-1,0,6
Y2-S2-143K18,1,173,PS,exp,26,↑,up,↑,0.4675183999352157,True,50,-1,0,6
Y2-S2-143K18,1,174,PS,exp,34,←,left,←,0.5342954001389444,True,50,-1,0,6
Y2-S2-143K18,1,175,PS,exp,27,↑,up,↑,0.7012539999559522,True,50,1,1,7
Y2-S2-143K18,1,176,PS,exp,49,→,right,→,0.5174540001899004,True,49,1,0,7
Y2-S2-143K18,1,177,PS,exp,50,↑,left,←,2.0172150996513665,False,49,-1,1,8
Y2-S2-143K18,1,178,PS,exp,27,↓,no_key,no_letter,-1.0,False,50,-1,0,8
Y2-S2-143K18,1,179,PS,exp,31,↑,up,↑,0.6843862999230623,True,51,-1,0,8
Y2-S2-143K18,1,180,PS,exp,35,↓,down,↓,0.6845506001263857,True,51,-1,0,8
Y2-S2-143K18,1,181,PS,exp,32,→,right,→,0.76752720028162,True,51,1,1,9
Y2-S2-143K18,1,182,PS,exp,26,↓,down,↓,1.2130832001566887,True,50,1,0,9
Y2-S2-143K18,1,183,PS,exp,43,↑,up,↑,0.5846015000715852,True,50,1,0,9
Y2-S2-143K18,1,184,PS,exp,26,←,left,←,0.5347726000472903,True,50,1,0,9
Y2-S2-143K18,1,185,PS,exp,41,↑,up,↑,0.7009502002038062,True,49,1,0,9
Y2-S2-143K18,1,186,PS,exp,47,←,no_key,no_letter,-1.0,False,49,-1,1,10
Y2-S2-143K18,1,187,PS,exp,26,↑,no_key,no_letter,-1.0,False,50,-1,0,10
Y2-S2-143K18,1,188,PS,exp,49,→,left,←,0.43433739989995956,False,51,-1,0,10
Y2-S2-143K18,1,189,PS,exp,50,↑,right,→,0.21776949986815453,False,52,-1,0,10
Y2-S2-143K18,1,190,PS,exp,42,←,left,←,0.2840297003276646,True,53,-1,0,10
Y2-S2-143K18,1,191,PS,exp,37,→,left,←,0.6840880000963807,False,53,-1,0,10
Y2-S2-143K18,1,192,PS,exp,50,↓,left,←,0.3843681002035737,False,54,-1,0,10
Y2-S2-143K18,1,193,PS,exp,41,→,right,→,0.434650800190866,True,55,-1,0,10
Y2-S2-143K18,1,194,PS,exp,37,↑,left,←,0.4511555000208318,False,55,-1,0,10
Y2-S2-143K18,1,195,PS,exp,37,→,right,→,0.5678472998552024,True,56,-1,0,10
Y2-S2-143K18,1,196,PS,exp,44,←,left,←,0.6514631002210081,True,56,-1,0,10
Y2-S2-143K18,1,197,PS,exp,25,↑,up,↑,0.6344694998115301,True,56,1,1,11
Y2-S2-143K18,1,198,PS,exp,35,→,right,→,0.45127429999411106,True,55,1,0,11
Y2-S2-143K18,1,199,PS,exp,44,↑,up,↑,0.9174683000892401,True,55,1,0,11
Y2-S2-143K18,1,200,PS,exp,34,→,right,→,0.6676652999594808,True,55,1,0,11
Y2-S2-143K18,1,201,PS,exp,44,↑,up,↑,0.500805199611932,True,54,1,0,11
Y2-S2-143K18,1,202,PS,exp,46,→,right,→,0.46778340032324195,True,54,1,0,11
Y2-S2-143K18,1,203,PS,exp,26,↓,right,→,0.5008260998874903,False,54,-1,1,12
Y2-S2-143K18,1,204,PS,exp,38,←,left,←,0.45114809973165393,True,55,-1,0,12
Y2-S2-143K18,1,205,PS,exp,32,→,right,→,0.7177565000019968,True,55,-1,0,12
Y2-S2-143K18,1,206,PS,exp,27,←,right,→,0.5003299997188151,False,55,-1,0,12
Y2-S2-143K18,1,207,PS,exp,43,→,right,→,0.43418140010908246,True,56,-1,0,12
Y2-S2-143K18,1,208,PS,exp,38,↓,down,↓,0.867754700127989,True,56,-1,0,12
Y2-S2-143K18,1,209,PS,exp,30,↑,up,↑,0.5010437001474202,True,56,1,1,13
Y2-S2-143K18,1,210,PS,exp,36,→,right,→,0.4508120999671519,True,55,1,0,13
Y2-S2-143K18,1,211,PS,exp,46,←,left,←,0.5510580996051431,True,55,1,0,13
Y2-S2-143K18,1,212,PS,exp,43,→,right,→,0.48439890006557107,True,55,1,0,13
Y2-S2-143K18,1,213,PS,exp,49,←,left,←,0.9174454999156296,True,54,1,0,13
Y2-S2-143K18,1,214,PS,exp,37,↓,down,↓,0.6843972001224756,True,54,1,0,13
Y2-S2-143K18,1,215,PS,exp,35,↑,up,↑,0.4844643999822438,True,54,1,0,13
Y2-S2-143K18,1,216,PS,exp,43,→,right,→,0.6011795997619629,True,53,1,0,13
Y2-S2-143K18,1,217,PS,exp,25,↓,down,↓,0.5510061997920275,True,53,1,0,13
Y2-S2-143K18,1,218,PS,exp,26,→,right,→,0.5842534000985324,True,53,1,0,13
Y2-S2-143K18,1,219,PS,exp,43,↓,down,↓,0.8673827000893652,True,52,1,0,13
Y2-S2-143K18,1,220,PS,exp,39,←,left,←,0.6342282998375595,True,52,1,0,13
Y2-S2-143K18,1,221,PS,exp,25,→,right,→,0.717839399818331,True,52,1,0,13
Y2-S2-143K18,1,222,PS,exp,48,↑,up,↑,0.8674778998829424,True,51,1,0,13
Y2-S2-143K18,1,223,PS,exp,36,→,right,→,0.651247899979353,True,51,1,0,13
Y2-S2-143K18,1,224,PS,exp,48,↑,up,↑,0.5007798997685313,True,51,1,0,13
Y2-S2-143K18,1,225,PS,exp,31,↓,down,↓,0.6843162998557091,True,50,1,0,13
Y2-S2-143K18,1,226,PS,exp,38,←,left,←,0.5842769998125732,True,50,1,0,13
Y2-S2-143K18,1,227,PS,exp,48,↓,down,↓,0.8840004000812769,True,50,1,0,13
Y2-S2-143K18,1,228,PS,exp,44,↑,up,↑,0.6173777002841234,True,49,1,0,13
Y2-S2-143K18,1,229,PS,exp,25,→,right,→,0.6673749997280538,True,49,1,0,13
Y2-S2-143K18,1,230,PS,exp,40,↑,up,↑,0.7175862002186477,True,49,1,0,13
Y2-S2-143K18,1,231,PS,exp,30,↓,up,↑,0.8173475996591151,False,48,-1,1,14
Y2-S2-143K18,1,232,PS,exp,47,←,up,↑,0.600970699917525,False,49,-1,0,14
Y2-S2-143K18,1,233,PS,exp,30,↑,left,←,0.2676556999795139,False,50,-1,0,14
Y2-S2-143K18,1,234,PS,exp,35,→,left,←,0.43462399998679757,False,51,-1,0,14
Y2-S2-143K18,1,235,PS,exp,42,↓,down,↓,0.2010164000093937,True,52,-1,0,14
Y2-S2-143K18,1,236,PS,exp,43,→,down,↓,0.31779180001467466,False,52,-1,0,14
Y2-S2-143K18,1,237,PS,exp,41,↑,down,↓,0.01736500021070242,False,53,-1,0,14
Y2-S2-143K18,1,238,PS,exp,40,←,left,←,0.6342384996823967,True,54,-1,0,14
Y2-S2-143K18,1,239,PS,exp,43,↓,down,↓,0.751167300157249,True,54,-1,0,14
Y2-S2-143K18,1,240,PS,exp,33,→,no_key,no_letter,-1.0,False,54,-1,0,14
Y2-S2-143K18,1,241,PS,exp,46,↑,down,↓,0.18441580003127456,False,55,-1,0,14
Y2-S2-143K18,1,242,PS,exp,31,↓,up,↑,0.2676193998195231,False,56,-1,0,14
Y2-S2-143K18,1,243,PS,exp,39,→,right,→,1.918039200361818,True,57,-1,0,14
Y2-S2-143K18,1,244,PS,exp,31,←,down,↓,1.3169841999188066,False,57,-1,0,14
Y2-S2-143K18,1,245,PS,exp,34,→,no_key,no_letter,-1.0,False,58,-1,0,14
Y2-S2-143K18,1,246,PS,exp,48,↓,right,→,1.2098115999251604,False,59,-1,0,14
Y2-S2-143K18,1,247,PS,exp,46,↑,right,→,0.4345767004415393,False,60,-1,0,14
Y2-S2-143K18,1,248,PS,exp,44,→,left,←,0.1509668999351561,False,61,-1,0,14
Y2-S2-143K18,1,249,PS,exp,30,←,up,↑,0.30110340006649494,False,62,-1,0,14
Y2-S2-143K18,1,250,PS,exp,48,↓,left,←,0.41749410005286336,False,63,-1,0,14
Y2-S2-143K18,1,251,PS,exp,48,←,left,←,0.8179214000701904,True,64,-1,0,14
Y2-S2-143K18,1,252,PS,exp,32,↓,down,↓,0.9342784001491964,True,64,-1,0,14
Y2-S2-143K18,1,253,PS,exp,50,↑,up,↑,0.5178457000292838,True,64,1,1,15
Y2-S2-143K18,1,254,PS,exp,25,→,no_key,no_letter,-1.0,False,63,-1,1,16
Y2-S2-143K18,2,255,AS,intra_train,44,↑,no_key,no_letter,-1.0,False,61,-,-,-
Y2-S2-143K18,2,256,AS,intra_train,47,↓,down,↓,1.0341415996663272,True,61,-,-,-
Y2-S2-143K18,2,257,AS,intra_train,31,←,left,←,0.8844033000059426,True,61,-,-,-
Y2-S2-143K18,2,258,AS,intra_train,26,→,right,→,0.9342543999664485,True,61,-,-,-
Y2-S2-143K18,2,259,AS,intra_train,48,↑,up,↑,2.3984591998159885,True,61,-,-,-
Y2-S2-143K18,2,260,AS,exp,25,↓,down,↓,0.7344674002379179,True,41,0,0,0
Y2-S2-143K18,2,261,AS,exp,36,→,right,→,1.40192830003798,True,41,0,0,0
Y2-S2-143K18,2,262,AS,exp,26,←,left,←,0.7171153002418578,True,41,1,0,0
Y2-S2-143K18,2,263,AS,exp,33,↑,up,↑,0.650303200352937,True,40,1,0,0
Y2-S2-143K18,2,264,AS,exp,32,↓,down,↓,0.6999144000001252,True,40,1,0,0
Y2-S2-143K18,2,265,AS,exp,45,←,left,←,0.7671503997407854,True,40,1,0,0
Y2-S2-143K18,2,266,AS,exp,33,↓,down,↓,0.7004471002146602,True,39,1,0,0
Y2-S2-143K18,2,267,AS,exp,27,↑,up,↑,0.5673225000500679,True,39,1,0,0
Y2-S2-143K18,2,268,AS,exp,36,↓,down,↓,0.7672717999666929,True,39,1,0,0
Y2-S2-143K18,2,269,AS,exp,35,←,left,←,0.7341988999396563,True,38,1,0,0
Y2-S2-143K18,2,270,AS,exp,28,↓,down,↓,0.5678584999404848,True,38,1,0,0
Y2-S2-143K18,2,271,AS,exp,49,↑,up,↑,0.5510429996065795,True,38,1,0,0
Y2-S2-143K18,2,272,AS,exp,49,↓,down,↓,0.6340439999476075,True,37,1,0,0
Y2-S2-143K18,2,273,AS,exp,35,↑,up,↑,0.5345843997783959,True,37,1,0,0
Y2-S2-143K18,2,274,AS,exp,38,↓,down,↓,0.6007129000499845,True,37,1,0,0
Y2-S2-143K18,2,275,AS,exp,43,←,left,←,0.6510358997620642,True,36,1,0,0
Y2-S2-143K18,2,276,AS,exp,33,↑,up,↑,0.5513328998349607,True,36,1,0,0
Y2-S2-143K18,2,277,AS,exp,33,↓,down,↓,0.5509329000487924,True,36,1,0,0
Y2-S2-143K18,2,278,AS,exp,38,←,left,←,0.46754870004951954,True,35,1,0,0
Y2-S2-143K18,2,279,AS,exp,26,→,right,→,0.633823599666357,True,35,1,0,0
Y2-S2-143K18,2,280,AS,exp,48,↑,up,↑,0.6505211000330746,True,35,1,0,0
Y2-S2-143K18,2,281,AS,exp,38,→,left,←,0.5839171996340156,False,34,-1,1,1
Y2-S2-143K18,2,282,AS,exp,48,↑,up,↑,0.551087399944663,True,35,-1,0,1
Y2-S2-143K18,2,283,AS,exp,28,→,right,→,0.9674324002116919,True,35,-1,0,1
Y2-S2-143K18,2,284,AS,exp,44,↑,up,↑,0.6171858999878168,True,35,1,1,2
Y2-S2-143K18,2,285,AS,exp,34,→,right,→,0.5343470997177064,True,34,1,0,2
Y2-S2-143K18,2,286,AS,exp,31,←,left,←,0.6507933000102639,True,34,1,0,2
Y2-S2-143K18,2,287,AS,exp,40,↑,up,↑,0.5176258999854326,True,34,1,0,2
Y2-S2-143K18,2,288,AS,exp,40,→,right,→,0.517784200143069,True,33,1,0,2
Y2-S2-143K18,2,289,AS,exp,26,↑,up,↑,0.5670285997912288,True,33,1,0,2
Y2-S2-143K18,2,290,AS,exp,47,→,right,→,1.395991399884224,True,33,1,0,2
Y2-S2-143K18,2,291,AS,exp,28,↓,down,↓,0.6008593002334237,True,32,1,0,2
Y2-S2-143K18,2,292,AS,exp,41,→,right,→,0.46804869966581464,True,32,1,0,2
Y2-S2-143K18,2,293,AS,exp,30,↓,down,↓,0.4674337999895215,True,32,1,0,2
Y2-S2-143K18,2,294,AS,exp,46,→,left,←,0.6342152999714017,False,31,-1,1,3
Y2-S2-143K18,2,295,AS,exp,28,←,left,←,0.7616631002165377,True,32,-1,0,3
Y2-S2-143K18,2,296,AS,exp,46,↑,up,↑,0.4523239000700414,True,32,-1,0,3
Y2-S2-143K18,2,297,AS,exp,34,←,left,←,0.6671171002089977,True,32,1,1,4
Y2-S2-143K18,2,298,AS,exp,29,↓,down,↓,1.2413796996697783,True,31,1,0,4
Y2-S2-143K18,2,299,AS,exp,36,↑,up,↑,0.7459252001717687,True,31,1,0,4
Y2-S2-143K18,2,300,AS,exp,37,↓,left,←,0.517540100030601,False,31,-1,1,5
Y2-S2-143K18,2,301,AS,exp,29,→,right,→,0.5176387000828981,True,32,-1,0,5
Y2-S2-143K18,2,302,AS,exp,44,↓,down,↓,0.4845376000739634,True,32,-1,0,5
Y2-S2-143K18,2,303,AS,exp,35,→,right,→,0.5172128998674452,True,32,1,1,6
Y2-S2-143K18,2,304,AS,exp,25,↓,up,↑,0.7029377999715507,False,31,-1,1,7
Y2-S2-143K18,2,305,AS,exp,46,↑,up,↑,0.25122349988669157,True,32,-1,0,7
Y2-S2-143K18,2,306,AS,exp,26,←,up,↑,0.31786249997094274,False,32,-1,0,7
Y2-S2-143K18,2,307,AS,exp,43,→,up,↑,0.3343853997066617,False,33,-1,0,7
Y2-S2-143K18,2,308,AS,exp,39,←,right,→,0.2676611999049783,False,34,-1,0,7
Y2-S2-143K18,2,309,AS,exp,28,→,up,↑,0.40134930005297065,False,35,-1,0,7
Y2-S2-143K18,2,310,AS,exp,26,←,left,←,0.30110959988087416,True,36,-1,0,7
Y2-S2-143K18,2,311,AS,exp,49,↑,up,↑,0.28425570018589497,True,36,-1,0,7
Y2-S2-143K18,2,312,AS,exp,27,→,up,↑,0.3334556999616325,False,36,-1,0,7
Y2-S2-143K18,2,313,AS,exp,36,←,up,↑,1.5722217001020908,False,37,-1,0,7
Y2-S2-143K18,2,314,AS,exp,28,→,up,↑,0.8226465997286141,False,38,-1,0,7
Y2-S2-143K18,2,315,AS,exp,32,←,no_key,no_letter,-1.0,False,39,-1,0,7
Y2-S2-143K18,2,316,AS,exp,43,↓,left,←,0.6175960996188223,False,40,-1,0,7
Y2-S2-143K18,2,317,AS,exp,49,→,left,←,0.6836683000437915,False,41,-1,0,7
Y2-S2-143K18,2,318,AS,exp,30,←,no_key,no_letter,-1.0,False,42,-1,0,7
Y2-S2-143K18,2,319,AS,exp,44,↑,no_key,no_letter,-1.0,False,43,-1,0,7
Y2-S2-143K18,2,320,AS,exp,41,↓,no_key,no_letter,-1.0,False,44,-1,0,7
Y2-S2-143K18,2,321,AS,exp,26,←,no_key,no_letter,-1.0,False,45,-1,0,7
Y2-S2-143K18,2,322,AS,exp,48,↓,no_key,no_letter,-1.0,False,46,-1,0,7
Y2-S2-143K18,2,323,AS,exp,50,→,no_key,no_letter,-1.0,False,47,-1,0,7
Y2-S2-143K18,2,324,AS,exp,49,↑,right,→,1.6512037003412843,False,48,-1,0,7
Y2-S2-143K18,2,325,AS,exp,25,←,left,←,1.0990943000651896,True,49,-1,0,7
Y2-S2-143K18,2,326,AS,exp,31,↑,no_key,no_letter,-1.0,False,49,-1,0,7
Y2-S2-143K18,2,327,AS,exp,31,→,left,←,0.6344996001571417,False,50,-1,0,7
Y2-S2-143K18,2,328,AS,exp,41,←,left,←,0.7508895001374185,True,51,-1,0,7
Y2-S2-143K18,2,329,AS,exp,46,↓,down,↓,0.867533499840647,True,51,-1,0,7
Y2-S2-143K18,2,330,AS,exp,33,→,right,→,0.6841505002230406,True,51,1,1,8
Y2-S2-143K18,2,331,AS,exp,40,↑,down,↓,0.8503791000694036,False,50,-1,1,9
Y2-S2-143K18,2,332,AS,exp,35,→,right,→,0.6678929002955556,True,51,-1,0,9
Y2-S2-143K18,2,333,AS,exp,31,←,left,←,0.817418500315398,True,51,-1,0,9
Y2-S2-143K18,2,334,AS,exp,35,↑,up,↑,0.650795899797231,True,51,1,1,10
Y2-S2-143K18,2,335,AS,exp,42,↓,down,↓,0.6509707001969218,True,50,1,0,10
Y2-S2-143K18,2,336,AS,exp,40,←,left,←,0.7178195002488792,True,50,1,0,10
Y2-S2-143K18,2,337,AS,exp,27,↓,down,↓,0.6845844998024404,True,50,1,0,10
Y2-S2-143K18,2,338,AS,exp,46,→,right,→,0.45109840016812086,True,49,1,0,10
Y2-S2-143K18,2,339,AS,exp,30,↓,down,↓,0.8841261998750269,True,49,1,0,10
Y2-S2-143K18,2,340,AS,exp,33,←,left,←,0.850354999769479,True,49,1,0,10
Y2-S2-143K18,2,341,AS,exp,27,↓,down,↓,0.684351799543947,True,48,1,0,10
Y2-S2-143K18,2,342,AS,exp,45,↑,down,↓,0.8676154999993742,False,48,-1,1,11
Y2-S2-143K18,2,343,AS,exp,41,→,right,→,0.717681999783963,True,49,-1,0,11
Y2-S2-143K18,2,344,AS,exp,25,↑,up,↑,0.7179887001402676,True,49,-1,0,11
Y2-S2-143K18,2,345,AS,exp,44,↓,down,↓,0.68433259986341,True,49,1,1,12
Y2-S2-143K18,2,346,AS,exp,28,↑,up,↑,0.6845071003772318,True,48,1,0,12
Y2-S2-143K18,2,347,AS,exp,35,→,right,→,0.7509523001499474,True,48,1,0,12
Y2-S2-143K18,2,348,AS,exp,47,←,left,←,0.9337554001249373,True,48,1,0,12
Y2-S2-143K18,2,349,AS,exp,35,↓,down,↓,0.800747700035572,True,47,1,0,12
Y2-S2-143K18,2,350,AS,exp,45,←,left,←,1.6772129000164568,True,47,1,0,12
Y2-S2-143K18,2,351,AS,exp,48,↓,down,↓,0.7836767002008855,True,47,1,0,12
Y2-S2-143K18,2,352,AS,exp,45,←,left,←,2.0832940000109375,True,46,1,0,12
Y2-S2-143K18,2,353,AS,exp,44,→,left,←,1.3484391001984477,False,46,-1,1,13
Y2-S2-143K18,2,354,AS,exp,44,↑,up,↑,0.8673943998292089,True,47,-1,0,13
Y2-S2-143K18,2,355,AS,exp,41,→,up,↑,0.33424640027806163,False,47,-1,0,13
Y2-S2-143K18,2,356,AS,exp,32,↑,down,↓,0.883867499884218,False,48,-1,0,13
Y2-S2-143K18,2,357,AS,exp,40,←,left,←,0.8006612001918256,True,49,-1,0,13
Y2-S2-143K18,2,358,AS,exp,37,→,right,→,0.800681899767369,True,49,-1,0,13
Y2-S2-143K18,2,359,AS,exp,49,←,left,←,0.8337886999361217,True,49,1,1,14
Y2-S2-143K18,2,360,AS,exp,34,↑,up,↑,1.129300500266254,True,48,1,0,14
Y2-S2-143K18,2,361,AS,exp,25,↓,down,↓,0.8509323000907898,True,48,1,0,14
Y2-S2-143K18,2,362,AS,exp,25,↑,down,↓,0.7176522999070585,False,48,-1,1,15
Y2-S2-143K18,2,363,AS,exp,28,↓,down,↓,0.8009023000486195,True,49,-1,0,15
Y2-S2-143K18,2,364,AS,exp,42,→,right,→,0.9335354999639094,True,49,-1,0,15
Y2-S2-143K18,2,365,AS,exp,43,←,no_key,no_letter,-1.0,False,49,-1,0,15
Y2-S2-143K18,2,366,AS,exp,42,→,no_key,no_letter,-1.0,False,50,-1,0,15
Y2-S2-143K18,2,367,AS,exp,42,↑,right,→,2.147418700158596,False,51,-1,0,15
Y2-S2-143K18,2,368,AS,exp,35,↓,down,↓,0.7176830996759236,True,52,-1,0,15
Y2-S2-143K18,2,369,AS,exp,44,←,left,←,0.9849010999314487,True,52,-1,0,15
Y2-S2-143K18,2,370,AS,exp,35,↓,down,↓,0.8839171999134123,True,52,1,1,16
Y2-S2-143K18,3,371,AS,intra_train,28,←,down,↓,0.8013292998075485,False,61,-,-,-
Y2-S2-143K18,3,372,AS,intra_train,26,↑,up,↑,0.7677694000303745,True,61,-,-,-
Y2-S2-143K18,3,373,AS,intra_train,31,→,right,→,0.600917300209403,True,61,-,-,-
Y2-S2-143K18,3,374,AS,intra_train,30,↓,down,↓,0.7841125996783376,True,61,-,-,-
Y2-S2-143K18,3,375,AS,intra_train,49,←,left,←,2.185385199729353,True,61,-,-,-
Y2-S2-143K18,3,376,AS,exp,32,↓,down,↓,1.61461849976331,True,41,0,0,0
Y2-S2-143K18,3,377,AS,exp,41,←,left,←,0.2509925002232194,True,41,0,0,0
Y2-S2-143K18,3,378,AS,exp,47,↑,up,↑,1.2981505002826452,True,41,1,0,0
Y2-S2-143K18,3,379,AS,exp,31,→,right,→,0.7337606996297836,True,40,1,0,0
Y2-S2-143K18,3,380,AS,exp,29,←,left,←,0.6506820996291935,True,40,1,0,0
Y2-S2-143K18,3,381,AS,exp,29,→,right,→,0.717255299910903,True,40,1,0,0
Y2-S2-143K18,3,382,AS,exp,47,←,left,←,0.63381929975003,True,39,1,0,0
Y2-S2-143K18,3,383,AS,exp,46,↓,down,↓,0.8642555000260472,True,39,1,0,0
Y2-S2-143K18,3,384,AS,exp,33,→,right,→,0.5668893000110984,True,39,1,0,0
Y2-S2-143K18,3,385,AS,exp,36,←,left,←,0.9515313999727368,True,38,1,0,0
Y2-S2-143K18,3,386,AS,exp,39,↑,up,↑,0.7172369998879731,True,38,1,0,0
Y2-S2-143K18,3,387,AS,exp,26,→,down,↓,0.6170732998289168,False,38,-1,1,1
Y2-S2-143K18,3,388,AS,exp,26,↓,right,→,0.3676336999051273,False,39,-1,0,1
Y2-S2-143K18,3,389,AS,exp,48,→,left,←,0.3508820002898574,False,40,-1,0,1
Y2-S2-143K18,3,390,AS,exp,47,←,up,↑,0.3844864000566304,False,41,-1,0,1
Y2-S2-143K18,3,391,AS,exp,48,→,right,→,0.6838225000537932,True,42,-1,0,1
Y2-S2-143K18,3,392,AS,exp,31,↓,down,↓,0.9263815996237099,True,42,-1,0,1
Y2-S2-143K18,3,393,AS,exp,43,→,right,→,0.8732011001557112,True,42,1,1,2
Y2-S2-143K18,3,394,AS,exp,35,←,right,→,0.5343574001453817,False,41,-1,1,3
Y2-S2-143K18,3,395,AS,exp,36,↑,up,↑,0.953383999876678,True,42,-1,0,3
Y2-S2-143K18,3,396,AS,exp,33,↓,down,↓,0.6177570996806026,True,42,-1,0,3
Y2-S2-143K18,3,397,AS,exp,29,→,right,→,0.8176979999989271,True,42,1,1,4
Y2-S2-143K18,3,398,AS,exp,28,↓,down,↓,0.6677834000438452,True,41,1,0,4
Y2-S2-143K18,3,399,AS,exp,45,→,right,→,0.6671870001591742,True,41,1,0,4
Y2-S2-143K18,3,400,AS,exp,47,↓,down,↓,0.7506339997053146,True,41,1,0,4
Y2-S2-143K18,3,401,AS,exp,47,↑,up,↑,0.7005950999446213,True,40,1,0,4
Y2-S2-143K18,3,402,AS,exp,47,→,right,→,0.7337005003355443,True,40,1,0,4
Y2-S2-143K18,3,403,AS,exp,38,↑,up,↑,0.6671829996630549,True,40,1,0,4
Y2-S2-143K18,3,404,AS,exp,35,↓,down,↓,1.461710600182414,True,39,1,0,4
Y2-S2-143K18,3,405,AS,exp,42,→,right,→,0.634529700037092,True,39,1,0,4
Y2-S2-143K18,3,406,AS,exp,46,←,right,→,0.4680027002468705,False,39,-1,1,5
Y2-S2-143K18,3,407,AS,exp,28,→,left,←,0.2508795000612736,False,40,-1,0,5
Y2-S2-143K18,3,408,AS,exp,46,↓,right,→,0.31788739981129766,False,41,-1,0,5
Y2-S2-143K18,3,409,AS,exp,34,←,left,←,1.4842644003219903,True,42,-1,0,5
Y2-S2-143K18,3,410,AS,exp,41,→,right,→,0.6513797999359667,True,42,-1,0,5
Y2-S2-143K18,3,411,AS,exp,36,←,left,←,0.501110200304538,True,42,1,1,6
Y2-S2-143K18,3,412,AS,exp,35,↑,up,↑,0.9820054001174867,True,41,1,0,6
Y2-S2-143K18,3,413,AS,exp,26,←,left,←,0.5675985999405384,True,41,1,0,6
Y2-S2-143K18,3,414,AS,exp,38,↓,down,↓,0.7338839997537434,True,41,1,0,6
Y2-S2-143K18,3,415,AS,exp,46,↑,up,↑,1.210441400296986,True,40,1,0,6
Y2-S2-143K18,3,416,AS,exp,35,→,right,→,0.6176148001104593,True,40,1,0,6
Y2-S2-143K18,3,417,AS,exp,43,↑,up,↑,0.7504620002582669,True,40,1,0,6
Y2-S2-143K18,3,418,AS,exp,49,→,right,→,0.7340415003709495,True,39,1,0,6
Y2-S2-143K18,3,419,AS,exp,41,↑,up,↑,0.734120599925518,True,39,1,0,6
Y2-S2-143K18,3,420,AS,exp,30,→,right,→,0.6672987001948059,True,39,1,0,6
Y2-S2-143K18,3,421,AS,exp,39,↓,up,↑,0.6836990001611412,False,38,-1,1,7
Y2-S2-143K18,3,422,AS,exp,46,→,right,→,0.6507655000314116,True,39,-1,0,7
Y2-S2-143K18,3,423,AS,exp,41,←,left,←,0.6345212999731302,True,39,-1,0,7
Y2-S2-143K18,3,424,AS,exp,43,↑,up,↑,0.6675640000030398,True,39,1,1,8
Y2-S2-143K18,3,425,AS,exp,48,→,right,→,0.58430470013991,True,38,1,0,8
Y2-S2-143K18,3,426,AS,exp,29,↑,up,↑,0.48450000025331974,True,38,1,0,8
Y2-S2-143K18,3,427,AS,exp,37,↓,up,↑,0.6834055003710091,False,38,-1,1,9
Y2-S2-143K18,3,428,AS,exp,41,→,right,→,1.6722555998712778,True,39,-1,0,9
Y2-S2-143K18,3,429,AS,exp,28,↑,right,→,0.2009918000549078,False,39,-1,0,9
Y2-S2-143K18,3,430,AS,exp,25,←,left,←,0.6841024002060294,True,40,-1,0,9
Y2-S2-143K18,3,431,AS,exp,42,↑,up,↑,0.7175734001211822,True,40,-1,0,9
Y2-S2-143K18,3,432,AS,exp,47,→,left,←,1.9363547000102699,False,40,-1,0,9
Y2-S2-143K18,3,433,AS,exp,45,↓,left,←,1.402013000100851,False,41,-1,0,9
Y2-S2-143K18,3,434,AS,exp,37,→,left,←,0.48430649982765317,False,42,-1,0,9
Y2-S2-143K18,3,435,AS,exp,43,←,left,←,0.4509917004033923,True,43,-1,0,9
Y2-S2-143K18,3,436,AS,exp,26,↑,up,↑,0.45121670002117753,True,43,-1,0,9
Y2-S2-143K18,3,437,AS,exp,45,←,right,→,0.5508376001380384,False,43,-1,0,9
Y2-S2-143K18,3,438,AS,exp,42,↑,up,↑,0.7173150000162423,True,44,-1,0,9
Y2-S2-143K18,3,439,AS,exp,40,→,right,→,0.5677233003079891,True,44,-1,0,9
Y2-S2-143K18,3,440,AS,exp,29,←,left,←,0.701035600155592,True,44,1,1,10
Y2-S2-143K18,3,441,AS,exp,27,→,left,←,1.6940959999337792,False,43,-1,1,11
Y2-S2-143K18,3,442,AS,exp,29,←,left,←,0.4012647997587919,True,44,-1,0,11
Y2-S2-143K18,3,443,AS,exp,34,→,left,←,0.26773459976539016,False,44,-1,0,11
Y2-S2-143K18,3,444,AS,exp,43,←,left,←,0.3677097000181675,True,45,-1,0,11
Y2-S2-143K18,3,445,AS,exp,35,↓,left,←,0.16827359981834888,False,45,-1,0,11
Y2-S2-143K18,3,446,AS,exp,50,↑,left,←,0.2179247997701168,False,46,-1,0,11
Y2-S2-143K18,3,447,AS,exp,47,↓,left,←,0.01770540000870824,False,47,-1,0,11
Y2-S2-143K18,3,448,AS,exp,28,←,down,↓,0.8013371000997722,False,48,-1,0,11
Y2-S2-143K18,3,449,AS,exp,43,→,right,→,0.13392460020259023,True,49,-1,0,11
Y2-S2-143K18,3,450,AS,exp,48,↓,left,←,0.0010850997641682625,False,49,-1,0,11
Y2-S2-143K18,3,451,AS,exp,30,↑,right,→,0.1844682996161282,False,50,-1,0,11
Y2-S2-143K18,3,452,AS,exp,37,→,left,←,0.36794660007581115,False,51,-1,0,11
Y2-S2-143K18,3,453,AS,exp,41,←,left,←,0.1676799999549985,True,52,-1,0,11
Y2-S2-143K18,3,454,AS,exp,35,→,no_key,no_letter,-1.0,False,52,-1,0,11
Y2-S2-143K18,3,455,AS,exp,37,↓,no_key,no_letter,-1.0,False,53,-1,0,11
Y2-S2-143K18,3,456,AS,exp,43,←,no_key,no_letter,-1.0,False,54,-1,0,11
Y2-S2-143K18,3,457,AS,exp,33,↓,no_key,no_letter,-1.0,False,55,-1,0,11
Y2-S2-143K18,3,458,AS,exp,45,→,no_key,no_letter,-1.0,False,56,-1,0,11
Y2-S2-143K18,3,459,AS,exp,41,↑,no_key,no_letter,-1.0,False,57,-1,0,11
Y2-S2-143K18,3,460,AS,exp,47,→,no_key,no_letter,-1.0,False,58,-1,0,11
Y2-S2-143K18,3,461,AS,exp,33,←,right,→,1.8974346001632512,False,59,-1,0,11
Y2-S2-143K18,3,462,AS,exp,33,↓,no_key,no_letter,-1.0,False,60,-1,0,11
Y2-S2-143K18,3,463,AS,exp,50,↑,no_key,no_letter,-1.0,False,61,-1,0,11
Y2-S2-143K18,3,464,AS,exp,50,←,no_key,no_letter,-1.0,False,62,-1,0,11
Y2-S2-143K18,3,465,AS,exp,40,↓,no_key,no_letter,-1.0,False,63,-1,0,11
Y2-S2-143K18,3,466,AS,exp,41,←,right,→,1.7782041998580098,False,64,-1,0,11
Y2-S2-143K18,3,467,AS,exp,40,→,right,→,0.41760639986023307,True,65,-1,0,11
Y2-S2-143K18,3,468,AS,exp,25,↓,no_key,no_letter,-1.0,False,65,-1,0,11
Y2-S2-143K18,3,469,AS,exp,37,→,no_key,no_letter,-1.0,False,66,-1,0,11
Y2-S2-143K18,3,470,AS,exp,36,←,no_key,no_letter,-1.0,False,67,-1,0,11
Y2-S2-143K18,3,471,AS,exp,48,→,left,←,1.0009102998301387,False,68,-1,0,11
Y2-S2-143K18,3,472,AS,exp,34,↑,right,→,0.41773700015619397,False,69,-1,0,11
Y2-S2-143K18,3,473,AS,exp,37,←,left,←,0.8177445000037551,True,70,-1,0,11
Y2-S2-143K18,3,474,AS,exp,30,↑,up,↑,0.5845128996297717,True,70,-1,0,11
Y2-S2-143K18,3,475,AS,exp,39,↓,down,↓,0.7844199002720416,True,70,1,1,12
Y2-S2-143K18,3,476,AS,exp,35,→,right,→,0.4674174003303051,True,69,1,0,12
Y2-S2-143K18,3,477,AS,exp,33,↓,down,↓,0.7178609999828041,True,69,1,0,12
Y2-S2-143K18,3,478,AS,exp,45,↑,up,↑,0.6844500000588596,True,69,1,0,12
Y2-S2-143K18,3,479,AS,exp,38,→,right,→,0.7678179000504315,True,68,1,0,12
Y2-S2-143K18,3,480,AS,exp,49,↑,up,↑,0.5010736002586782,True,68,1,0,12
Y2-S2-143K18,3,481,AS,exp,48,←,left,←,0.7681563002988696,True,68,1,0,12
Y2-S2-143K18,3,482,AS,exp,50,↑,up,↑,0.6511328998021781,True,67,1,0,12
Y2-S2-143K18,3,483,AS,exp,50,→,right,→,0.5844618999399245,True,67,1,0,12
Y2-S2-143K18,3,484,AS,exp,29,↑,up,↑,0.7176434001885355,True,67,1,0,12
Y2-S2-143K18,3,485,AS,exp,34,↓,up,↑,0.46791129978373647,False,66,-1,1,13
Y2-S2-143K18,3,486,AS,exp,44,↑,up,↑,0.6849333997815847,True,67,-1,0,13
Y2-S2-143K18,3,487,AS,exp,37,→,right,→,0.7670154999941587,True,67,-1,0,13
Y2-S2-143K18,3,488,AS,exp,36,←,left,←,0.8843308999203146,True,67,1,1,14
Y2-S2-143K18,3,489,AS,exp,37,→,right,→,0.751080000307411,True,66,1,0,14
Y2-S2-143K18,3,490,AS,exp,44,←,left,←,0.6844967002980411,True,66,1,0,14
Y2-S2-143K18,3,491,AS,exp,41,↑,up,↑,0.835043900180608,True,66,1,0,14
Y2-S2-143K18,3,492,AS,exp,47,→,right,→,0.7178766001015902,True,65,1,0,14
Y2-S2-143K18,3,493,AS,exp,45,←,left,←,0.9510659999214113,True,65,1,0,14
Y2-S2-143K18,3,494,AS,exp,41,↓,down,↓,1.1002364996820688,True,65,1,0,14
Y2-S2-143K18,3,495,AS,exp,42,→,right,→,0.6844951999373734,True,64,1,0,14
Y2-S2-143K18,3,496,AS,exp,33,↓,down,↓,0.8011449002660811,True,64,1,0,14
Y2-S2-143K18,3,497,AS,exp,42,←,left,←,0.9343502996489406,True,64,1,0,14
Y2-S2-143K18,3,498,AS,exp,27,↑,up,↑,1.1675156997516751,True,63,1,0,14
Y2-S2-143K18,3,499,AS,exp,35,←,left,←,0.866937099955976,True,63,1,0,14
Y2-S2-143K18,3,500,AS,exp,28,↑,up,↑,0.750882999971509,True,63,1,0,14
Y2-S2-143K18,3,501,AS,exp,49,↓,down,↓,0.9684721999801695,True,62,1,0,14
Y2-S2-143K18,3,502,AS,exp,26,↑,up,↑,0.7510198997333646,True,62,1,0,14
Y2-S2-143K18,3,503,AS,exp,42,→,right,→,0.751131699886173,True,62,1,0,14
Y2-S2-143K18,3,504,AS,exp,50,↓,down,↓,0.8010609000921249,True,61,1,0,14
Y2-S2-143K18,3,505,AS,exp,28,←,left,←,0.6847168998792768,True,61,1,0,14
Y2-S2-143K18,3,506,AS,exp,29,→,right,→,0.7509949998930097,True,61,1,0,14
Y2-S2-143K18,3,507,AS,exp,32,↑,up,↑,0.7508710999973118,True,60,1,0,14
Y2-S2-143K18,3,508,AS,exp,44,→,right,→,0.8010847000405192,True,60,1,0,14
Y2-S2-143K18,3,509,AS,exp,31,↑,up,↑,0.8843351001851261,True,60,1,0,14
Y2-S2-143K18,3,510,AS,exp,26,↓,down,↓,0.6178846000693738,True,59,1,0,14
Y2-S2-143K18,3,511,AS,exp,39,↑,up,↑,0.8012521001510322,True,59,1,0,14
Y2-S2-143K18,3,512,AS,exp,43,↓,down,↓,0.6178651000373065,True,59,1,0,14
Y2-S2-143K18,3,513,AS,exp,47,→,right,→,0.6175383999943733,True,58,1,0,14
Y2-S2-143K18,3,514,AS,exp,29,↓,down,↓,0.6675172001123428,True,58,1,0,14
Y2-S2-143K18,3,515,AS,exp,40,←,left,←,0.784385799895972,True,58,1,0,14
Y2-S2-143K18,3,516,AS,exp,39,↓,down,↓,1.0008884998969734,True,57,1,0,14
Y2-S2-143K18,3,517,AS,exp,48,←,left,←,0.868019700050354,True,57,1,0,14
Y2-S2-143K18,3,518,AS,exp,34,↓,down,↓,0.9342458001337945,True,57,1,0,14
Y2-S2-143K18,3,519,AS,exp,44,↑,up,↑,0.7179038999602199,True,56,1,0,14
Y2-S2-143K18,3,520,AS,exp,28,←,left,←,0.7843820997513831,True,56,1,0,14
Y2-S2-143K18,3,521,AS,exp,44,→,right,→,0.5509298001416028,True,56,1,0,14
Y2-S2-143K18,3,522,AS,exp,28,↓,down,↓,0.7177280997857451,True,55,1,0,14
Y2-S2-143K18,3,523,AS,exp,27,←,left,←,0.8010836998000741,True,55,1,0,14
Y2-S2-143K18,3,524,AS,exp,36,↑,up,↑,0.8008095999248326,True,55,1,0,14
Y2-S2-143K18,3,525,AS,exp,31,←,left,←,0.9506390998139977,True,54,1,0,14
Y2-S2-143K18,3,526,AS,exp,25,↑,up,↑,0.7177935997024179,True,54,1,0,14
Y2-S2-143K18,3,527,AS,exp,26,→,right,→,0.5845562997274101,True,54,1,0,14
Y2-S2-143K18,3,528,AS,exp,37,↓,down,↓,1.1325487000867724,True,53,1,0,14
Y2-S2-143K18,3,529,AS,exp,37,↑,up,↑,0.6012875000014901,True,53,1,0,14
Y2-S2-143K18,3,530,AS,exp,34,←,left,←,0.6350027001462877,True,53,1,0,14
Y2-S2-143K18,3,531,AS,exp,26,↓,down,↓,0.8348181997425854,True,52,1,0,14
Y2-S2-143K18,3,532,AS,exp,39,↑,left,←,0.6172816003672779,False,52,-1,1,15
Y2-S2-143K18,3,533,AS,exp,38,↓,down,↓,0.9839185001328588,True,53,-1,0,15
Y2-S2-143K18,3,534,AS,exp,32,→,right,→,0.6346672000363469,True,53,-1,0,15
Y2-S2-143K18,3,535,AS,exp,30,←,left,←,0.7499695997685194,True,53,1,1,16
Y2-S2-143K18,4,536,PS,intra_train,35,→,right,→,0.5882795001380146,True,21,-,-,-
Y2-S2-143K18,4,537,PS,intra_train,42,↓,down,↓,0.8573950999416411,True,21,-,-,-
Y2-S2-143K18,4,538,PS,intra_train,48,↑,up,↑,0.6504577002488077,True,21,-,-,-
Y2-S2-143K18,4,539,PS,intra_train,28,←,left,←,0.6905331001617014,True,21,-,-,-
Y2-S2-143K18,4,540,PS,intra_train,45,↑,up,↑,0.6093679000623524,True,21,-,-,-
Y2-S2-143K18,4,541,PS,exp,36,↓,down,↓,0.6282170997001231,True,14,0,0,0
Y2-S2-143K18,4,542,PS,exp,30,↑,up,↑,0.36745440028607845,True,14,0,0,0
Y2-S2-143K18,4,543,PS,exp,41,↓,down,↓,1.3019893001765013,True,14,1,0,0
Y2-S2-143K18,4,544,PS,exp,35,←,right,→,0.30067369993776083,False,13,-1,1,1
Y2-S2-143K18,4,545,PS,exp,26,→,left,←,0.36743850028142333,False,14,-1,0,1
Y2-S2-143K18,4,546,PS,exp,46,↑,down,↓,0.20120950043201447,False,15,-1,0,1
Y2-S2-143K18,4,547,PS,exp,39,↓,up,↑,0.15149739990010858,False,16,-1,0,1
Y2-S2-143K18,4,548,PS,exp,46,←,up,↑,0.10090270033106208,False,17,-1,0,1
Y2-S2-143K18,4,549,PS,exp,33,↓,down,↓,1.2992835999466479,True,18,-1,0,1
Y2-S2-143K18,4,550,PS,exp,32,→,left,←,0.1351125999353826,False,18,-1,0,1
Y2-S2-143K18,4,551,PS,exp,25,↑,right,→,0.6658038999885321,False,19,-1,0,1
Y2-S2-143K18,4,552,PS,exp,30,→,left,←,0.3174099996685982,False,20,-1,0,1
Y2-S2-143K18,4,553,PS,exp,49,↓,left,←,0.43375639989972115,False,21,-1,0,1
Y2-S2-143K18,4,554,PS,exp,25,↑,right,→,0.1842503002844751,False,22,-1,0,1
Y2-S2-143K18,4,555,PS,exp,32,↓,up,↑,0.8015111000277102,False,23,-1,0,1
Y2-S2-143K18,4,556,PS,exp,28,←,right,→,0.48385340021923184,False,24,-1,0,1
Y2-S2-143K18,4,557,PS,exp,44,→,up,↑,0.15096469968557358,False,25,-1,0,1
Y2-S2-143K18,4,558,PS,exp,34,←,up,↑,0.7486387998797,False,26,-1,0,1
Y2-S2-143K18,4,559,PS,exp,38,↓,right,→,0.0506905997171998,False,27,-1,0,1
Y2-S2-143K18,4,560,PS,exp,49,←,up,↑,0.11798080010339618,False,28,-1,0,1
Y2-S2-143K18,4,561,PS,exp,35,↑,up,↑,0.9635990001261234,True,29,-1,0,1
Y2-S2-143K18,4,562,PS,exp,43,←,no_key,no_letter,-1.0,False,29,-1,0,1
Y2-S2-143K18,4,563,PS,exp,25,↑,no_key,no_letter,-1.0,False,30,-1,0,1
Y2-S2-143K18,4,564,PS,exp,44,→,no_key,no_letter,-1.0,False,31,-1,0,1
Y2-S2-143K18,4,565,PS,exp,29,↑,no_key,no_letter,-1.0,False,32,-1,0,1
Y2-S2-143K18,4,566,PS,exp,25,→,no_key,no_letter,-1.0,False,33,-1,0,1
Y2-S2-143K18,4,567,PS,exp,25,↑,no_key,no_letter,-1.0,False,34,-1,0,1
Y2-S2-143K18,4,568,PS,exp,34,↓,right,→,1.6522160000167787,False,35,-1,0,1
Y2-S2-143K18,4,569,PS,exp,36,↑,down,↓,0.30185370007529855,False,36,-1,0,1
Y2-S2-143K18,4,570,PS,exp,42,←,right,→,0.6507896999828517,False,37,-1,0,1
Y2-S2-143K18,4,571,PS,exp,30,→,left,←,0.3011147999204695,False,38,-1,0,1
Y2-S2-143K18,4,572,PS,exp,31,↑,up,↑,0.5509424996562302,True,39,-1,0,1
Y2-S2-143K18,4,573,PS,exp,39,←,left,←,0.6011741999536753,True,39,-1,0,1
Y2-S2-143K18,4,574,PS,exp,30,→,right,→,0.41764439968392253,True,39,1,1,2
Y2-S2-143K18,4,575,PS,exp,38,↓,down,↓,0.5844002002850175,True,38,1,0,2
Y2-S2-143K18,4,576,PS,exp,50,←,left,←,0.5344327003695071,True,38,1,0,2
Y2-S2-143K18,4,577,PS,exp,30,↓,down,↓,0.6009334996342659,True,38,1,0,2
Y2-S2-143K18,4,578,PS,exp,41,↑,up,↑,0.8232066999189556,True,37,1,0,2
Y2-S2-143K18,4,579,PS,exp,33,→,no_key,no_letter,-1.0,False,37,-1,1,3
Y2-S2-143K18,4,580,PS,exp,48,↑,right,→,1.7929933001287282,False,38,-1,0,3
Y2-S2-143K18,4,581,PS,exp,41,↓,no_key,no_letter,-1.0,False,39,-1,0,3
Y2-S2-143K18,4,582,PS,exp,38,←,no_key,no_letter,-1.0,False,40,-1,0,3
Y2-S2-143K18,4,583,PS,exp,48,→,right,→,1.7457649996504188,True,41,-1,0,3
Y2-S2-143K18,4,584,PS,exp,39,↓,right,→,1.2672634003683925,False,41,-1,0,3
Y2-S2-143K18,4,585,PS,exp,48,↑,right,→,0.3175183003768325,False,42,-1,0,3
Y2-S2-143K18,4,586,PS,exp,29,←,right,→,0.4679490001872182,False,43,-1,0,3
Y2-S2-143K18,4,587,PS,exp,36,↓,right,→,0.4844954996369779,False,44,-1,0,3
Y2-S2-143K18,4,588,PS,exp,39,↑,no_key,no_letter,-1.0,False,45,-1,0,3
Y2-S2-143K18,4,589,PS,exp,36,→,no_key,no_letter,-1.0,False,46,-1,0,3
Y2-S2-143K18,4,590,PS,exp,45,↓,no_key,no_letter,-1.0,False,47,-1,0,3
Y2-S2-143K18,4,591,PS,exp,38,←,right,→,2.2613139003515244,False,48,-1,0,3
Y2-S2-143K18,4,592,PS,exp,36,→,right,→,0.3842908004298806,True,49,-1,0,3
Y2-S2-143K18,4,593,PS,exp,30,↑,up,↑,0.8506420999765396,True,49,-1,0,3
Y2-S2-143K18,4,594,PS,exp,39,←,left,←,0.6349245002493262,True,49,1,1,4
Y2-S2-143K18,4,595,PS,exp,43,↑,up,↑,0.6510816002264619,True,48,1,0,4
Y2-S2-143K18,4,596,PS,exp,36,↓,down,↓,1.0355078000575304,True,48,1,0,4
Y2-S2-143K18,4,597,PS,exp,29,←,left,←,0.8338761003687978,True,48,1,0,4
Y2-S2-143K18,4,598,PS,exp,38,↑,up,↑,0.5179832000285387,True,47,1,0,4
Y2-S2-143K18,4,599,PS,exp,39,↓,left,←,0.4343519997783005,False,47,-1,1,5
Y2-S2-143K18,4,600,PS,exp,48,↑,right,→,0.43423599982634187,False,48,-1,0,5
Y2-S2-143K18,4,601,PS,exp,38,←,left,←,0.45093699963763356,True,49,-1,0,5
Y2-S2-143K18,4,602,PS,exp,44,↑,up,↑,1.0840015998110175,True,49,-1,0,5
Y2-S2-143K18,4,603,PS,exp,33,↓,down,↓,2.1342241000384092,True,49,1,1,6
Y2-S2-143K18,4,604,PS,exp,38,↑,down,↓,1.3734915000386536,False,48,-1,1,7
Y2-S2-143K18,4,605,PS,exp,38,↓,down,↓,1.2777665997855365,True,49,-1,0,7
Y2-S2-143K18,4,606,PS,exp,37,←,down,↓,0.4512792001478374,False,49,-1,0,7
Y2-S2-143K18,4,607,PS,exp,32,↓,down,↓,0.41752889985218644,True,50,-1,0,7
Y2-S2-143K18,4,608,PS,exp,47,→,down,↓,0.18437160039320588,False,50,-1,0,7
Y2-S2-143K18,4,609,PS,exp,36,↑,no_key,no_letter,-1.0,False,51,-1,0,7
Y2-S2-143K18,4,610,PS,exp,42,←,no_key,no_letter,-1.0,False,52,-1,0,7
Y2-S2-143K18,4,611,PS,exp,36,→,no_key,no_letter,-1.0,False,53,-1,0,7
Y2-S2-143K18,4,612,PS,exp,35,↑,right,→,0.7342885001562536,False,54,-1,0,7
Y2-S2-143K18,4,613,PS,exp,26,←,right,→,0.30106480000540614,False,55,-1,0,7
Y2-S2-143K18,4,614,PS,exp,44,↑,left,←,0.3845334998331964,False,56,-1,0,7
Y2-S2-143K18,4,615,PS,exp,39,↓,down,↓,0.7510775001719594,True,57,-1,0,7
Y2-S2-143K18,4,616,PS,exp,35,→,left,←,0.6342457002028823,False,57,-1,0,7
Y2-S2-143K18,4,617,PS,exp,35,←,left,←,0.6510715000331402,True,58,-1,0,7
Y2-S2-143K18,4,618,PS,exp,49,↓,down,↓,0.7676168000325561,True,58,-1,0,7
Y2-S2-143K18,4,619,PS,exp,35,←,left,←,0.8510549999773502,True,58,1,1,8
Y2-S2-143K18,4,620,PS,exp,25,→,right,→,0.750910600181669,True,57,1,0,8
Y2-S2-143K18,4,621,PS,exp,37,↑,up,↑,0.8843863001093268,True,57,1,0,8
Y2-S2-143K18,4,622,PS,exp,37,→,right,→,0.41765560023486614,True,57,1,0,8
Y2-S2-143K18,4,623,PS,exp,49,↑,up,↑,0.7343218997120857,True,56,1,0,8
Y2-S2-143K18,4,624,PS,exp,33,→,right,→,0.4509278000332415,True,56,1,0,8
Y2-S2-143K18,4,625,PS,exp,41,←,left,←,0.8343461998738348,True,56,1,0,8
Y2-S2-143K18,4,626,PS,exp,30,↓,down,↓,1.1126333000138402,True,55,1,0,8
Y2-S2-143K18,4,627,PS,exp,42,←,left,←,0.7676895000040531,True,55,1,0,8
Y2-S2-143K18,4,628,PS,exp,34,↓,down,↓,0.8343772999942303,True,55,1,0,8
Y2-S2-143K18,4,629,PS,exp,26,↑,up,↑,0.6507777003571391,True,54,1,0,8
Y2-S2-143K18,4,630,PS,exp,30,→,right,→,0.5343969003297389,True,54,1,0,8
Y2-S2-143K18,4,631,PS,exp,41,←,left,←,0.6842598002403975,True,54,1,0,8
Y2-S2-143K18,4,632,PS,exp,27,↓,down,↓,0.9839031002484262,True,53,1,0,8
Y2-S2-143K18,4,633,PS,exp,37,↑,down,↓,0.6680495999753475,False,53,-1,1,9
Y2-S2-143K18,4,634,PS,exp,44,↓,down,↓,1.4733840003609657,True,54,-1,0,9
Y2-S2-143K18,4,635,PS,exp,44,→,right,→,0.750954800285399,True,54,-1,0,9
Y2-S2-143K18,4,636,PS,exp,34,←,right,→,1.719356399960816,False,54,-1,0,9
Y2-S2-143K18,4,637,PS,exp,42,↑,right,→,0.4509419999085367,False,55,-1,0,9
Y2-S2-143K18,4,638,PS,exp,34,←,left,←,0.684485400095582,True,56,-1,0,9
Y2-S2-143K18,4,639,PS,exp,33,→,right,→,0.6009163996204734,True,56,-1,0,9
Y2-S2-143K18,4,640,PS,exp,43,←,left,←,0.5346371000632644,True,56,1,1,10
Y2-S2-143K18,4,641,PS,exp,50,↑,up,↑,0.8508982001803815,True,55,1,0,10
Y2-S2-143K18,4,642,PS,exp,26,↓,down,↓,0.5342143001034856,True,55,1,0,10
Y2-S2-143K18,4,643,PS,exp,27,→,right,→,0.8844356001354754,True,55,1,0,10
Y2-S2-143K18,4,644,PS,exp,39,←,left,←,0.8345401999540627,True,54,1,0,10
Y2-S2-143K18,4,645,PS,exp,48,↑,up,↑,0.5843805000185966,True,54,1,0,10
Y2-S2-143K18,4,646,PS,exp,35,→,right,→,0.6010703002102673,True,54,1,0,10
Y2-S2-143K18,4,647,PS,exp,30,↓,down,↓,0.7011939999647439,True,53,1,0,10
Y2-S2-143K18,4,648,PS,exp,33,↑,up,↑,0.5176768000237644,True,53,1,0,10
Y2-S2-143K18,4,649,PS,exp,31,←,left,←,1.0591854001395404,True,53,1,0,10
Y2-S2-143K18,4,650,PS,exp,26,→,right,→,0.6510417996905744,True,52,1,0,10
Y2-S2-143K18,4,651,PS,exp,25,↑,up,↑,0.5010514999739826,True,52,1,0,10
Y2-S2-143K18,4,652,PS,exp,25,→,right,→,0.5342941000126302,True,52,1,0,10
Y2-S2-143K18,4,653,PS,exp,28,↓,down,↓,0.6345760002732277,True,51,1,0,10
Y2-S2-143K18,4,654,PS,exp,32,→,right,→,0.4678046000190079,True,51,1,0,10
Y2-S2-143K18,4,655,PS,exp,42,←,left,←,0.5500882999040186,True,51,1,0,10
Y2-S2-143K18,4,656,PS,exp,30,→,right,→,0.668323100078851,True,50,1,0,10
Y2-S2-143K18,4,657,PS,exp,41,↑,up,↑,0.6678614998236299,True,50,1,0,10
Y2-S2-143K18,4,658,PS,exp,39,↓,down,↓,0.6842290000058711,True,50,1,0,10
Y2-S2-143K18,4,659,PS,exp,33,←,left,←,0.5177993001416326,True,49,1,0,10
Y2-S2-143K18,4,660,PS,exp,42,↓,down,↓,0.6509185000322759,True,49,1,0,10
Y2-S2-143K18,4,661,PS,exp,42,→,right,→,0.18465179996564984,True,49,1,0,10
Y2-S2-143K18,4,662,PS,exp,49,↓,left,←,0.2012686999514699,False,48,-1,1,11
Y2-S2-143K18,4,663,PS,exp,28,→,right,→,0.2009223997592926,True,49,-1,0,11
Y2-S2-143K18,4,664,PS,exp,46,↓,left,←,0.18427240010350943,False,49,-1,0,11
Y2-S2-143K18,4,665,PS,exp,48,←,left,←,0.21775589976459742,True,50,-1,0,11
Y2-S2-143K18,4,666,PS,exp,28,↑,left,←,0.3342134999111295,False,50,-1,0,11
Y2-S2-143K18,4,667,PS,exp,42,←,left,←,0.1347550000064075,True,51,-1,0,11
Y2-S2-143K18,4,668,PS,exp,38,↑,left,←,0.6843367000110447,False,51,-1,0,11
Y2-S2-143K18,4,669,PS,exp,32,↓,left,←,0.1343470998108387,False,52,-1,0,11
Y2-S2-143K18,4,670,PS,exp,30,↑,left,←,0.217450600117445,False,53,-1,0,11
Y2-S2-143K18,4,671,PS,exp,30,→,left,←,0.05113309994339943,False,54,-1,0,11
Y2-S2-143K18,4,672,PS,exp,46,↑,right,→,1.0340660000219941,False,55,-1,0,11
Y2-S2-143K18,4,673,PS,exp,34,↓,up,↑,0.46777019975706935,False,56,-1,0,11
Y2-S2-143K18,4,674,PS,exp,41,←,left,←,0.09980189986526966,True,57,-1,0,11
Y2-S2-143K18,4,675,PS,exp,42,→,left,←,0.21736150002107024,False,57,-1,0,11
Y2-S2-143K18,4,676,PS,exp,37,←,left,←,0.5343023999594152,True,58,-1,0,11
Y2-S2-143K18,4,677,PS,exp,46,→,no_key,no_letter,-1.0,False,58,-1,0,11
Y2-S2-143K18,4,678,PS,exp,40,←,left,←,0.9510619998909533,True,59,-1,0,11
Y2-S2-143K18,4,679,PS,exp,26,↓,left,←,0.3844887004233897,False,59,-1,0,11
Y2-S2-143K18,4,680,PS,exp,48,↑,no_key,no_letter,-1.0,False,60,-1,0,11
Y2-S2-143K18,4,681,PS,exp,30,←,no_key,no_letter,-1.0,False,61,-1,0,11
Y2-S2-143K18,4,682,PS,exp,29,↑,no_key,no_letter,-1.0,False,62,-1,0,11
Y2-S2-143K18,4,683,PS,exp,37,←,no_key,no_letter,-1.0,False,63,-1,0,11
Y2-S2-143K18,4,684,PS,exp,29,↓,no_key,no_letter,-1.0,False,64,-1,0,11
Y2-S2-143K18,4,685,PS,exp,33,→,no_key,no_letter,-1.0,False,65,-1,0,11
Y2-S2-143K18,4,686,PS,exp,31,↓,no_key,no_letter,-1.0,False,66,-1,0,11
Y2-S2-143K18,4,687,PS,exp,33,↑,no_key,no_letter,-1.0,False,67,-1,0,11
Y2-S2-143K18,4,688,PS,exp,29,←,no_key,no_letter,-1.0,False,68,-1,0,11
Y2-S2-143K18,4,689,PS,exp,46,↓,right,→,0.28435360034927726,False,69,-1,0,11
Y2-S2-143K18,4,690,PS,exp,30,→,no_key,no_letter,-1.0,False,70,-1,0,11
Y2-S2-143K18,4,691,PS,exp,46,↑,right,→,0.6510199001058936,False,71,-1,0,11
Y2-S2-143K18,4,692,PS,exp,37,↓,up,↑,0.38453290006145835,False,72,-1,0,11
Y2-S2-143K18,4,693,PS,exp,30,←,left,←,0.5345419999212027,True,73,-1,0,11
Y2-S2-143K18,4,694,PS,exp,50,↑,up,↑,0.5178359998390079,True,73,-1,0,11
Y2-S2-143K18,4,695,PS,exp,44,→,right,→,0.6845336998812854,True,73,1,1,12
Y2-S2-143K18,4,696,PS,exp,29,←,left,←,0.801231499761343,True,72,1,0,12
Y2-S2-143K18,4,697,PS,exp,37,↑,no_key,no_letter,-1.0,False,72,-1,1,13
Y2-S2-143K18,4,698,PS,exp,30,→,no_key,no_letter,-1.0,False,73,-1,0,13
Y2-S2-143K18,4,699,PS,exp,38,↓,down,↓,0.7015118999406695,True,74,-1,0,13
Y2-S2-143K18,4,700,PS,exp,39,↑,up,↑,0.7177935000509024,True,74,-1,0,13
Y2-S2-143K18,4,701,PS,exp,50,↓,down,↓,0.8015569997951388,True,74,1,1,14
Y2-S2-143K18,4,702,PS,exp,36,↑,up,↑,0.6510947002097964,True,73,1,0,14
Y2-S2-143K18,4,703,PS,exp,42,←,left,←,1.034415999893099,True,73,1,0,14
Y2-S2-143K18,4,704,PS,exp,33,↓,down,↓,0.784597699996084,True,73,1,0,14
Y2-S2-143K18,4,705,PS,exp,31,→,right,→,0.7509496998973191,True,72,1,0,14
Y2-S2-143K18,4,706,PS,exp,38,←,left,←,0.7677064999006689,True,72,1,0,14
Y2-S2-143K18,4,707,PS,exp,45,↓,down,↓,0.6674958001822233,True,72,1,0,14
Y2-S2-143K18,4,708,PS,exp,41,←,left,←,0.9515120997093618,True,71,1,0,14
Y2-S2-143K18,4,709,PS,exp,29,↓,down,↓,0.6843707002699375,True,71,1,0,14
Y2-S2-143K18,4,710,PS,exp,50,↑,up,↑,0.6171071003191173,True,71,1,0,14
Y2-S2-143K18,4,711,PS,exp,41,→,right,→,0.7343163001351058,True,70,1,0,14
Y2-S2-143K18,4,712,PS,exp,40,←,left,←,0.6344356001354754,True,70,1,0,14
Y2-S2-143K18,4,713,PS,exp,40,↑,up,↑,0.767588300164789,True,70,1,0,14
Y2-S2-143K18,4,714,PS,exp,42,↓,down,↓,0.6342829000204802,True,69,1,0,14
Y2-S2-143K18,4,715,PS,exp,42,↑,up,↑,0.6509682000614703,True,69,1,0,14
Y2-S2-143K18,4,716,PS,exp,47,→,right,→,0.8176414002664387,True,69,1,0,14
Y2-S2-143K18,4,717,PS,exp,34,↓,down,↓,0.5512387999333441,True,68,1,0,14
Y2-S2-143K18,4,718,PS,exp,46,→,right,→,0.6345080002211034,True,68,1,0,14
Y2-S2-143K18,4,719,PS,exp,26,↑,up,↑,0.801123000215739,True,68,1,0,14
Y2-S2-143K18,4,720,PS,exp,39,→,right,→,0.7177462996914983,True,67,1,0,14
Y2-S2-143K18,4,721,PS,exp,31,←,left,←,0.7846963996998966,True,67,1,0,14
Y2-S2-143K18,4,722,PS,exp,30,↑,left,←,0.5510493996553123,False,67,-1,1,15
Y2-S2-143K18,4,723,PS,exp,50,↓,down,↓,0.7502214000560343,True,68,-1,0,15
Y2-S2-143K18,4,724,PS,exp,33,↑,up,↑,0.8343867999501526,True,68,-1,0,15
Y2-S2-143K18,4,725,PS,exp,50,↓,down,↓,0.7841986999846995,True,68,1,1,16
Y2-S2-143K18,5,726,PS,intra_train,48,←,left,←,1.0558003997430205,True,21,-,-,-
Y2-S2-143K18,5,727,PS,intra_train,27,↑,up,↑,1.4025802998803556,True,21,-,-,-
Y2-S2-143K18,5,728,PS,intra_train,40,↓,down,↓,0.5471521997824311,True,21,-,-,-
Y2-S2-143K18,5,729,PS,intra_train,50,→,right,→,0.601590400096029,True,21,-,-,-
Y2-S2-143K18,5,730,PS,intra_train,29,↑,up,↑,0.5371169000864029,True,21,-,-,-
Y2-S2-143K18,5,731,PS,exp,36,→,left,←,0.8183602998033166,False,14,-1,0,0
Y2-S2-143K18,5,732,PS,exp,46,←,left,←,0.8023340003564954,True,15,-1,0,0
Y2-S2-143K18,5,733,PS,exp,35,↑,right,→,1.02367589995265,False,15,-1,0,0
Y2-S2-143K18,5,734,PS,exp,40,→,right,→,0.641395800281316,True,16,-1,0,0
Y2-S2-143K18,5,735,PS,exp,48,↓,down,↓,0.6717043998651206,True,16,-1,0,0
Y2-S2-143K18,5,736,PS,exp,40,→,down,↓,0.7753886999562383,False,16,-1,0,0
Y2-S2-143K18,5,737,PS,exp,45,←,left,←,0.9189776000566781,True,17,-1,0,0
Y2-S2-143K18,5,738,PS,exp,45,→,right,→,0.6233728998340666,True,17,-1,0,0
Y2-S2-143K18,5,739,PS,exp,42,←,left,←,0.5424108002334833,True,17,1,1,1
Y2-S2-143K18,5,740,PS,exp,35,↑,down,↓,0.8702262998558581,False,16,-1,1,2
Y2-S2-143K18,5,741,PS,exp,38,←,right,→,1.0426892000250518,False,17,-1,0,2
Y2-S2-143K18,5,742,PS,exp,40,↑,up,↑,1.9670057999901474,True,18,-1,0,2
Y2-S2-143K18,5,743,PS,exp,44,←,left,←,0.5959356999956071,True,18,-1,0,2
Y2-S2-143K18,5,744,PS,exp,25,↓,left,←,0.807787399739027,False,18,-1,0,2
Y2-S2-143K18,5,745,PS,exp,35,←,left,←,0.7828699997626245,True,19,-1,0,2
Y2-S2-143K18,5,746,PS,exp,35,↑,left,←,0.6491489997133613,False,19,-1,0,2
Y2-S2-143K18,5,747,PS,exp,37,→,down,↓,0.450535099953413,False,20,-1,0,2
Y2-S2-143K18,5,748,PS,exp,34,↓,down,↓,0.4170884001068771,True,21,-1,0,2
Y2-S2-143K18,5,749,PS,exp,40,←,down,↓,0.2851684996858239,False,21,-1,0,2
Y2-S2-143K18,5,750,PS,exp,40,→,right,→,1.3819051003083587,True,22,-1,0,2
Y2-S2-143K18,5,751,PS,exp,27,↑,no_key,no_letter,-1.0,False,22,-1,0,2
Y2-S2-143K18,5,752,PS,exp,49,→,no_key,no_letter,-1.0,False,23,-1,0,2
Y2-S2-143K18,5,753,PS,exp,32,↓,right,→,0.5338511997833848,False,24,-1,0,2
Y2-S2-143K18,5,754,PS,exp,39,←,down,↓,0.41758140036836267,False,25,-1,0,2
Y2-S2-143K18,5,755,PS,exp,39,↓,left,←,2.0714879003353417,False,26,-1,0,2
Y2-S2-143K18,5,756,PS,exp,47,→,no_key,no_letter,-1.0,False,27,-1,0,2
Y2-S2-143K18,5,757,PS,exp,30,←,left,←,0.5338069000281394,True,28,-1,0,2
Y2-S2-143K18,5,758,PS,exp,43,→,right,→,0.659680400043726,True,28,-1,0,2
Y2-S2-143K18,5,759,PS,exp,37,↑,up,↑,1.0737295001745224,True,28,1,1,3
Y2-S2-143K18,5,760,PS,exp,43,→,no_key,no_letter,-1.0,False,27,-1,1,4
Y2-S2-143K18,5,761,PS,exp,46,↑,no_key,no_letter,-1.0,False,28,-1,0,4
Y2-S2-143K18,5,762,PS,exp,46,↓,down,↓,1.1376363998278975,True,29,-1,0,4
Y2-S2-143K18,5,763,PS,exp,45,←,down,↓,1.8395904996432364,False,29,-1,0,4
Y2-S2-143K18,5,764,PS,exp,46,↑,up,↑,1.0065285000018775,True,30,-1,0,4
Y2-S2-143K18,5,765,PS,exp,42,→,right,→,0.43406600039452314,True,30,-1,0,4
Y2-S2-143K18,5,766,PS,exp,28,↓,down,↓,0.710803700145334,True,30,1,1,5
Y2-S2-143K18,5,767,PS,exp,33,←,left,←,1.0289035001769662,True,29,1,0,5
Y2-S2-143K18,5,768,PS,exp,43,↑,up,↑,1.8968255002982914,True,29,1,0,5
Y2-S2-143K18,5,769,PS,exp,49,↓,down,↓,0.5844988999888301,True,29,1,0,5
Y2-S2-143K18,5,770,PS,exp,37,↑,up,↑,1.1799804996699095,True,28,1,0,5
Y2-S2-143K18,5,771,PS,exp,38,←,right,→,0.5674888999201357,False,28,-1,1,6
Y2-S2-143K18,5,772,PS,exp,43,→,right,→,1.3851998001337051,True,29,-1,0,6
Y2-S2-143K18,5,773,PS,exp,28,↑,up,↑,0.5507248998619616,True,29,-1,0,6
Y2-S2-143K18,5,774,PS,exp,32,→,right,→,0.550467099994421,True,29,1,1,7
Y2-S2-143K18,5,775,PS,exp,31,←,left,←,0.710948099847883,True,28,1,0,7
Y2-S2-143K18,5,776,PS,exp,48,→,right,→,0.7421375997364521,True,28,1,0,7
Y2-S2-143K18,5,777,PS,exp,32,↑,down,↓,1.305993900168687,False,28,-1,1,8
Y2-S2-143K18,5,778,PS,exp,27,↓,down,↓,1.2077034995891154,True,29,-1,0,8
Y2-S2-143K18,5,779,PS,exp,26,←,left,←,1.7997054001316428,True,29,-1,0,8
Y2-S2-143K18,5,780,PS,exp,29,↓,left,←,0.6946634002961218,False,29,-1,0,8
Y2-S2-143K18,5,781,PS,exp,34,→,down,↓,0.46774869970977306,False,30,-1,0,8
Y2-S2-143K18,5,782,PS,exp,33,↓,down,↓,0.4341875999234617,True,31,-1,0,8
Y2-S2-143K18,5,783,PS,exp,46,↑,down,↓,0.40110359992831945,False,31,-1,0,8
Y2-S2-143K18,5,784,PS,exp,32,↓,down,↓,0.1678995997644961,True,32,-1,0,8
Y2-S2-143K18,5,785,PS,exp,25,←,down,↓,0.20168860023841262,False,32,-1,0,8
Y2-S2-143K18,5,786,PS,exp,28,→,right,→,1.4625038001686335,True,33,-1,0,8
Y2-S2-143K18,5,787,PS,exp,40,←,left,←,0.8339815000072122,True,33,-1,0,8
Y2-S2-143K18,5,788,PS,exp,28,↓,down,↓,0.5674455999396741,True,33,1,1,9
Y2-S2-143K18,5,789,PS,exp,49,←,left,←,1.1040766998194158,True,32,1,0,9
Y2-S2-143K18,5,790,PS,exp,25,↑,up,↑,0.873955599963665,True,32,1,0,9
Y2-S2-143K18,5,791,PS,exp,35,↓,down,↓,0.6676719002425671,True,32,1,0,9
Y2-S2-143K18,5,792,PS,exp,37,←,left,←,0.6175685999915004,True,31,1,0,9
Y2-S2-143K18,5,793,PS,exp,44,↓,down,↓,0.6506453999318182,True,31,1,0,9
Y2-S2-143K18,5,794,PS,exp,26,→,right,→,1.1508311997167766,True,31,1,0,9
Y2-S2-143K18,5,795,PS,exp,28,↑,no_key,no_letter,-1.0,False,30,-1,1,10
Y2-S2-143K18,5,796,PS,exp,26,↓,down,↓,0.5837909998372197,True,31,-1,0,10
Y2-S2-143K18,5,797,PS,exp,25,←,right,→,1.0722289998084307,False,31,-1,0,10
Y2-S2-143K18,5,798,PS,exp,30,→,no_key,no_letter,-1.0,False,32,-1,0,10
Y2-S2-143K18,5,799,PS,exp,34,↓,left,←,0.5843404997140169,False,33,-1,0,10
Y2-S2-143K18,5,800,PS,exp,37,→,no_key,no_letter,-1.0,False,34,-1,0,10
Y2-S2-143K18,5,801,PS,exp,38,↓,right,→,1.7371765999123454,False,35,-1,0,10
Y2-S2-143K18,5,802,PS,exp,28,↑,right,→,0.883829400409013,False,36,-1,0,10
Y2-S2-143K18,5,803,PS,exp,30,→,no_key,no_letter,-1.0,False,37,-1,0,10
Y2-S2-143K18,5,804,PS,exp,30,←,no_key,no_letter,-1.0,False,38,-1,0,10
Y2-S2-143K18,5,805,PS,exp,45,→,right,→,1.4370973999612033,True,39,-1,0,10
Y2-S2-143K18,5,806,PS,exp,41,←,no_key,no_letter,-1.0,False,39,-1,0,10
Y2-S2-143K18,5,807,PS,exp,43,↓,right,→,1.8756023002788424,False,40,-1,0,10
Y2-S2-143K18,5,808,PS,exp,41,↑,up,↑,0.7839409997686744,True,41,-1,0,10
Y2-S2-143K18,5,809,PS,exp,33,←,left,←,0.7172586000524461,True,41,-1,0,10
Y2-S2-143K18,5,810,PS,exp,43,↓,down,↓,0.7171471999026835,True,41,1,1,11
Y2-S2-143K18,5,811,PS,exp,47,→,right,→,0.7004488003440201,True,40,1,0,11
Y2-S2-143K18,5,812,PS,exp,40,←,left,←,0.7172905001789331,True,40,1,0,11
Y2-S2-143K18,5,813,PS,exp,35,↓,down,↓,0.55098079983145,True,40,1,0,11
Y2-S2-143K18,5,814,PS,exp,47,↑,up,↑,0.5677080997265875,True,39,1,0,11
Y2-S2-143K18,5,815,PS,exp,40,→,right,→,0.7507237996906042,True,39,1,0,11
Y2-S2-143K18,5,816,PS,exp,32,←,left,←,0.5178344999440014,True,39,1,0,11
Y2-S2-143K18,5,817,PS,exp,49,↓,down,↓,0.58472799975425,True,38,1,0,11
Y2-S2-143K18,5,818,PS,exp,36,←,right,→,0.5509704002179205,False,38,-1,1,12
Y2-S2-143K18,5,819,PS,exp,42,↑,up,↑,0.5845054001547396,True,39,-1,0,12
Y2-S2-143K18,5,820,PS,exp,32,↓,down,↓,0.6505752997472882,True,39,-1,0,12
Y2-S2-143K18,5,821,PS,exp,42,←,left,←,0.5509971999563277,True,39,1,1,13
Y2-S2-143K18,5,822,PS,exp,26,↑,up,↑,0.6507151001133025,True,38,1,0,13
Y2-S2-143K18,5,823,PS,exp,27,→,right,→,0.5843565999530256,True,38,1,0,13
Y2-S2-143K18,5,824,PS,exp,37,←,left,←,0.5345836998894811,True,38,1,0,13
Y2-S2-143K18,5,825,PS,exp,25,↓,down,↓,0.633857199922204,True,37,1,0,13
Y2-S2-143K18,5,826,PS,exp,48,→,right,→,0.5676096002571285,True,37,1,0,13
Y2-S2-143K18,5,827,PS,exp,25,←,left,←,1.1386315999552608,True,37,1,0,13
Y2-S2-143K18,5,828,PS,exp,38,↑,up,↑,0.6339648999273777,True,36,1,0,13
Y2-S2-143K18,5,829,PS,exp,43,↓,down,↓,0.5511043998412788,True,36,1,0,13
Y2-S2-143K18,5,830,PS,exp,26,→,right,→,0.6338941003195941,True,36,1,0,13
Y2-S2-143K18,5,831,PS,exp,28,←,left,←,0.784572200383991,True,35,1,0,13
Y2-S2-143K18,5,832,PS,exp,50,→,right,→,0.6171543002128601,True,35,1,0,13
Y2-S2-143K18,5,833,PS,exp,27,←,left,←,1.4922560998238623,True,35,1,0,13
Y2-S2-143K18,5,834,PS,exp,39,→,right,→,0.567136200144887,True,34,1,0,13
Y2-S2-143K18,5,835,PS,exp,49,↓,down,↓,0.6505915001034737,True,34,1,0,13
Y2-S2-143K18,5,836,PS,exp,37,←,left,←,0.9747917000204325,True,34,1,0,13
Y2-S2-143K18,5,837,PS,exp,27,↑,up,↑,1.8398596001788974,True,33,1,0,13
Y2-S2-143K18,5,838,PS,exp,48,←,left,←,0.6511567998677492,True,33,1,0,13
Y2-S2-143K18,5,839,PS,exp,41,↑,up,↑,0.8408742998726666,True,33,1,0,13
Y2-S2-143K18,5,840,PS,exp,39,↓,down,↓,1.3339883000589907,True,32,1,0,13
Y2-S2-143K18,5,841,PS,exp,33,→,right,→,0.5504296999424696,True,32,1,0,13
Y2-S2-143K18,5,842,PS,exp,28,↓,down,↓,0.6170290997251868,True,32,1,0,13
Y2-S2-143K18,5,843,PS,exp,45,↑,up,↑,0.5673694997094572,True,31,1,0,13
Y2-S2-143K18,5,844,PS,exp,47,↓,down,↓,0.5508264000527561,True,31,1,0,13
Y2-S2-143K18,5,845,PS,exp,40,→,right,→,0.5508016999810934,True,31,1,0,13
Y2-S2-143K18,5,846,PS,exp,29,←,left,←,0.7845219997689128,True,30,1,0,13
Y2-S2-143K18,5,847,PS,exp,40,→,right,→,0.4510842002928257,True,30,1,0,13
Y2-S2-143K18,5,848,PS,exp,34,↓,down,↓,0.5172448996454477,True,30,1,0,13
Y2-S2-143K18,5,849,PS,exp,25,→,left,←,0.5839161998592317,False,29,-1,1,14
Y2-S2-143K18,5,850,PS,exp,26,↑,right,→,0.16749559994786978,False,30,-1,0,14
Y2-S2-143K18,5,851,PS,exp,32,→,right,→,0.5836582002229989,True,31,-1,0,14
Y2-S2-143K18,5,852,PS,exp,39,↓,down,↓,0.5674183997325599,True,31,-1,0,14
Y2-S2-143K18,5,853,PS,exp,45,↑,up,↑,0.5837761000730097,True,31,1,1,15
Y2-S2-143K18,5,854,PS,exp,38,←,left,←,0.719414799939841,True,30,1,0,15
Y2-S2-143K18,5,855,PS,exp,31,→,right,→,0.500671399757266,True,30,1,0,15
Y2-S2-143K18,5,856,PS,exp,47,↓,down,↓,0.8204585001803935,True,30,1,0,15
Y2-S2-143K18,5,857,PS,exp,37,→,right,→,0.7048649997450411,True,29,1,0,15
Y2-S2-143K18,5,858,PS,exp,35,↓,down,↓,0.6621956997551024,True,29,1,0,15
Y2-S2-143K18,5,859,PS,exp,44,←,left,←,0.8069731001742184,True,29,1,0,15
Y2-S2-143K18,5,860,PS,exp,27,↑,up,↑,0.7485376000404358,True,28,1,0,15
Y2-S2-143K18,5,861,PS,exp,25,←,up,↑,0.4506214000284672,False,28,-1,1,16
Y2-S2-143K18,6,862,AS,intra_train,50,↑,up,↑,1.2243113000877202,True,61,-,-,-
Y2-S2-143K18,6,863,AS,intra_train,27,↓,up,↑,0.5509502999484539,False,61,-,-,-
Y2-S2-143K18,6,864,AS,intra_train,33,↑,down,↓,0.23439859971404076,False,61,-,-,-
Y2-S2-143K18,6,865,AS,intra_train,49,←,left,←,0.6843479997478426,True,61,-,-,-
Y2-S2-143K18,6,866,AS,intra_train,40,→,down,↓,0.001117900013923645,False,61,-,-,-
Y2-S2-143K18,6,867,AS,exp,25,←,no_key,no_letter,-1.0,False,41,-1,0,0
Y2-S2-143K18,6,868,AS,exp,38,↑,right,→,0.06753639969974756,False,42,-1,0,0
Y2-S2-143K18,6,869,AS,exp,44,↓,up,↑,0.3345541004091501,False,43,-1,0,0
Y2-S2-143K18,6,870,AS,exp,34,↑,down,↓,0.20130909979343414,False,44,-1,0,0
Y2-S2-143K18,6,871,AS,exp,34,←,left,←,0.28427920024842024,True,45,-1,0,0
Y2-S2-143K18,6,872,AS,exp,33,↑,right,→,0.3675521002151072,False,45,-1,0,0
Y2-S2-143K18,6,873,AS,exp,37,↓,down,↓,1.5171513999812305,True,46,-1,0,0
Y2-S2-143K18,6,874,AS,exp,47,→,down,↓,1.4614868997596204,False,46,-1,0,0
Y2-S2-143K18,6,875,AS,exp,39,↑,down,↓,0.35128220031037927,False,47,-1,0,0
Y2-S2-143K18,6,876,AS,exp,43,←,left,←,0.06766560021787882,True,48,-1,0,0
Y2-S2-143K18,6,877,AS,exp,30,↓,down,↓,0.3176961997523904,True,48,-1,0,0
Y2-S2-143K18,6,878,AS,exp,47,↑,no_key,no_letter,-1.0,False,48,-1,0,0
Y2-S2-143K18,6,879,AS,exp,42,→,left,←,1.089581800159067,False,49,-1,0,0
Y2-S2-143K18,6,880,AS,exp,36,←,no_key,no_letter,-1.0,False,50,-1,0,0
Y2-S2-143K18,6,881,AS,exp,39,→,no_key,no_letter,-1.0,False,51,-1,0,0
Y2-S2-143K18,6,882,AS,exp,32,←,no_key,no_letter,-1.0,False,52,-1,0,0
Y2-S2-143K18,6,883,AS,exp,44,→,right,→,2.22150389989838,True,53,-1,0,0
Y2-S2-143K18,6,884,AS,exp,29,↓,down,↓,1.4330222001299262,True,53,-1,0,0
Y2-S2-143K18,6,885,AS,exp,50,↑,up,↑,1.2839931999333203,True,53,1,1,1
Y2-S2-143K18,6,886,AS,exp,28,←,left,←,1.6658603004179895,True,52,1,0,1
Y2-S2-143K18,6,887,AS,exp,48,↓,down,↓,1.782272499985993,True,52,1,0,1
Y2-S2-143K18,6,888,AS,exp,28,↑,up,↑,0.6845205002464354,True,52,1,0,1
Y2-S2-143K18,6,889,AS,exp,47,↓,down,↓,0.7339567998424172,True,51,1,0,1
Y2-S2-143K18,6,890,AS,exp,25,↑,left,←,0.4847927000373602,False,51,-1,1,2
Y2-S2-143K18,6,891,AS,exp,46,→,left,←,0.8181949001736939,False,52,-1,0,2
Y2-S2-143K18,6,892,AS,exp,50,↓,down,↓,0.6511706002056599,True,53,-1,0,2
Y2-S2-143K18,6,893,AS,exp,43,←,left,←,0.6511510000564158,True,53,-1,0,2
Y2-S2-143K18,6,894,AS,exp,29,↓,down,↓,0.5844033998437226,True,53,1,1,3
Y2-S2-143K18,6,895,AS,exp,35,↑,up,↑,0.5842877998948097,True,52,1,0,3
Y2-S2-143K18,6,896,AS,exp,37,←,left,←,0.7509490996599197,True,52,1,0,3
Y2-S2-143K18,6,897,AS,exp,49,↓,down,↓,0.9340619998984039,True,52,1,0,3
Y2-S2-143K18,6,898,AS,exp,37,→,right,→,0.8673216002061963,True,51,1,0,3
Y2-S2-143K18,6,899,AS,exp,45,←,left,←,0.8011714997701347,True,51,1,0,3
Y2-S2-143K18,6,900,AS,exp,37,↑,up,↑,0.8840290000662208,True,51,1,0,3
Y2-S2-143K18,6,901,AS,exp,34,←,left,←,0.4676051000133157,True,50,1,0,3
Y2-S2-143K18,6,902,AS,exp,27,↑,up,↑,0.8339897999539971,True,50,1,0,3
Y2-S2-143K18,6,903,AS,exp,27,→,left,←,0.6176149002276361,False,50,-1,1,4
Y2-S2-143K18,6,904,AS,exp,32,↑,no_key,no_letter,-1.0,False,51,-1,0,4
Y2-S2-143K18,6,905,AS,exp,43,←,no_key,no_letter,-1.0,False,52,-1,0,4
Y2-S2-143K18,6,906,AS,exp,29,↑,no_key,no_letter,-1.0,False,53,-1,0,4
Y2-S2-143K18,6,907,AS,exp,29,↓,no_key,no_letter,-1.0,False,54,-1,0,4
Y2-S2-143K18,6,908,AS,exp,25,←,no_key,no_letter,-1.0,False,55,-1,0,4
Y2-S2-143K18,6,909,AS,exp,31,↓,right,→,0.4344970998354256,False,56,-1,0,4
Y2-S2-143K18,6,910,AS,exp,45,←,no_key,no_letter,-1.0,False,57,-1,0,4
Y2-S2-143K18,6,911,AS,exp,50,↓,no_key,no_letter,-1.0,False,58,-1,0,4
Y2-S2-143K18,6,912,AS,exp,32,→,down,↓,0.6677673002704978,False,59,-1,0,4
Y2-S2-143K18,6,913,AS,exp,34,↓,left,←,0.06733280001208186,False,60,-1,0,4
Y2-S2-143K18,6,914,AS,exp,33,→,left,←,1.1171820000745356,False,61,-1,0,4
Y2-S2-143K18,6,915,AS,exp,39,↓,no_key,no_letter,-1.0,False,62,-1,0,4
Y2-S2-143K18,6,916,AS,exp,42,↑,no_key,no_letter,-1.0,False,63,-1,0,4
Y2-S2-143K18,6,917,AS,exp,32,←,right,→,0.2008471000008285,False,64,-1,0,4
Y2-S2-143K18,6,918,AS,exp,30,→,left,←,0.4011606997810304,False,65,-1,0,4
Y2-S2-143K18,6,919,AS,exp,43,↑,up,↑,0.5346869002096355,True,66,-1,0,4
Y2-S2-143K18,6,920,AS,exp,35,↓,up,↑,0.6676128003746271,False,66,-1,0,4
Y2-S2-143K18,6,921,AS,exp,45,→,right,→,0.6187051003798842,True,67,-1,0,4
Y2-S2-143K18,6,922,AS,exp,44,↓,right,→,1.636202699970454,False,67,-1,0,4
Y2-S2-143K18,6,923,AS,exp,28,↑,right,→,0.2842274000868201,False,68,-1,0,4
Y2-S2-143K18,6,924,AS,exp,34,→,right,→,0.21786720026284456,True,69,-1,0,4
Y2-S2-143K18,6,925,AS,exp,42,↑,right,→,0.21772810025140643,False,69,-1,0,4
Y2-S2-143K18,6,926,AS,exp,30,←,no_key,no_letter,-1.0,False,70,-1,0,4
Y2-S2-143K18,6,927,AS,exp,45,→,right,→,0.26761720003560185,True,71,-1,0,4
Y2-S2-143K18,6,928,AS,exp,27,↑,right,→,0.2511423001997173,False,71,-1,0,4
Y2-S2-143K18,6,929,AS,exp,25,←,right,→,0.3504503001458943,False,72,-1,0,4
Y2-S2-143K18,6,930,AS,exp,46,↓,up,↑,1.8580773998983204,False,73,-1,0,4
Y2-S2-143K18,6,931,AS,exp,34,←,up,↑,1.7641016002744436,False,74,-1,0,4
Y2-S2-143K18,6,932,AS,exp,47,↓,up,↑,0.2008483000099659,False,75,-1,0,4
Y2-S2-143K18,6,933,AS,exp,42,←,left,←,0.7343296003527939,True,76,-1,0,4
Y2-S2-143K18,6,934,AS,exp,32,↓,no_key,no_letter,-1.0,False,76,-1,0,4
Y2-S2-143K18,6,935,AS,exp,43,→,right,→,1.1343351998366416,True,77,-1,0,4
Y2-S2-143K18,6,936,AS,exp,42,↓,down,↓,1.3015976999886334,True,77,-1,0,4
Y2-S2-143K18,6,937,AS,exp,36,→,right,→,0.5843062000349164,True,77,1,1,5
Y2-S2-143K18,6,938,AS,exp,50,↓,no_key,no_letter,-1.0,False,76,-1,1,6
Y2-S2-143K18,6,939,AS,exp,34,←,no_key,no_letter,-1.0,False,77,-1,0,6
Y2-S2-143K18,6,940,AS,exp,48,→,right,→,2.0735947000794113,True,78,-1,0,6
Y2-S2-143K18,6,941,AS,exp,38,↑,right,→,0.5508363000117242,False,78,-1,0,6
Y2-S2-143K18,6,942,AS,exp,46,→,right,→,0.5846640998497605,True,79,-1,0,6
Y2-S2-143K18,6,943,AS,exp,32,←,no_key,no_letter,-1.0,False,79,-1,0,6
Y2-S2-143K18,6,944,AS,exp,34,↑,left,←,0.0011073998175561428,False,80,-1,0,6
Y2-S2-143K18,6,945,AS,exp,48,↓,up,↑,0.7502988004125655,False,81,-1,0,6
Y2-S2-143K18,6,946,AS,exp,45,→,right,→,1.1676559001207352,True,82,-1,0,6
Y2-S2-143K18,6,947,AS,exp,33,←,left,←,1.576810299884528,True,82,-1,0,6
Y2-S2-143K18,6,948,AS,exp,32,↓,down,↓,1.4503477001562715,True,82,1,1,7
Y2-S2-143K18,6,949,AS,exp,25,←,left,←,1.1510473000817,True,81,1,0,7
Y2-S2-143K18,6,950,AS,exp,40,↑,up,↑,1.0510621997527778,True,81,1,0,7
Y2-S2-143K18,6,951,AS,exp,32,↓,down,↓,1.5682831997983158,True,81,1,0,7
Y2-S2-143K18,6,952,AS,exp,36,→,down,↓,2.3472867999225855,False,80,-1,1,8
Y2-S2-143K18,6,953,AS,exp,32,↑,down,↓,0.6513495999388397,False,81,-1,0,8
Y2-S2-143K18,6,954,AS,exp,31,↓,down,↓,0.3842476001009345,True,82,-1,0,8
Y2-S2-143K18,6,955,AS,exp,50,←,up,↑,1.201056799851358,False,82,-1,0,8
Y2-S2-143K18,6,956,AS,exp,30,→,no_key,no_letter,-1.0,False,83,-1,0,8
Y2-S2-143K18,6,957,AS,exp,35,←,no_key,no_letter,-1.0,False,84,-1,0,8
Y2-S2-143K18,6,958,AS,exp,27,↓,no_key,no_letter,-1.0,False,85,-1,0,8
Y2-S2-143K18,6,959,AS,exp,48,←,no_key,no_letter,-1.0,False,86,-1,0,8
Y2-S2-143K18,6,960,AS,exp,50,→,left,←,0.5014555999077857,False,87,-1,0,8
Y2-S2-143K18,6,961,AS,exp,50,←,up,↑,0.9509568000212312,False,88,-1,0,8
Y2-S2-143K18,6,962,AS,exp,26,↓,left,←,0.017586700152605772,False,89,-1,0,8
Y2-S2-143K18,6,963,AS,exp,48,↑,up,↑,1.2678482998162508,True,90,-1,0,8
Y2-S2-143K18,6,964,AS,exp,27,←,no_key,no_letter,-1.0,False,90,-1,0,8
Y2-S2-143K18,6,965,AS,exp,48,↑,up,↑,0.001121599692851305,True,91,-1,0,8
Y2-S2-143K18,6,966,AS,exp,41,→,up,↑,0.967877599876374,False,91,-1,0,8
Y2-S2-143K18,6,967,AS,exp,45,↑,left,←,0.733959499746561,False,92,-1,0,8
Y2-S2-143K18,6,968,AS,exp,49,→,left,←,2.8168808999471366,False,93,-1,0,8
Y2-S2-143K18,6,969,AS,exp,42,←,left,←,0.41793640004470944,True,94,-1,0,8
Y2-S2-143K18,6,970,AS,exp,30,→,left,←,0.03439550008624792,False,94,-1,0,8
Y2-S2-143K18,6,971,AS,exp,33,←,right,→,2.179247399792075,False,95,-1,0,8
Y2-S2-143K18,6,972,AS,exp,48,→,no_key,no_letter,-1.0,False,96,-1,0,8
Y2-S2-143K18,6,973,AS,exp,44,←,right,→,0.4844404002651572,False,97,-1,0,8
Y2-S2-143K18,6,974,AS,exp,31,→,right,→,0.7508650999516249,True,98,-1,0,8
Y2-S2-143K18,6,975,AS,exp,35,↓,down,↓,0.8512082998640835,True,98,-1,0,8
Y2-S2-143K18,6,976,AS,exp,50,→,right,→,1.3518012999556959,True,98,1,1,9
Y2-S2-143K18,6,977,AS,exp,32,↑,no_key,no_letter,-1.0,False,97,-1,1,10
Y2-S2-143K18,6,978,AS,exp,26,→,no_key,no_letter,-1.0,False,98,-1,0,10
Y2-S2-143K18,6,979,AS,exp,44,↓,down,↓,0.8845442999154329,True,99,-1,0,10
Y2-S2-143K18,6,980,AS,exp,42,←,left,←,1.41806499985978,True,99,-1,0,10
Y2-S2-143K18,6,981,AS,exp,38,→,right,→,0.6510962001048028,True,99,1,1,11
Y2-S2-143K18,6,982,AS,exp,26,↓,down,↓,0.8681215001270175,True,98,1,0,11
Y2-S2-143K18,6,983,AS,exp,34,←,right,→,0.8009851002134383,False,98,-1,1,12
Y2-S2-143K18,6,984,AS,exp,49,→,right,→,0.5843829000368714,True,99,-1,0,12
Y2-S2-143K18,6,985,AS,exp,38,↓,down,↓,1.9513196996413171,True,99,-1,0,12
Y2-S2-143K18,6,986,AS,exp,30,↑,up,↑,1.0677075004205108,True,99,1,1,13
Y2-S2-143K18,6,987,AS,exp,37,←,left,←,1.2848080997355282,True,98,1,0,13
Y2-S2-143K18,6,988,AS,exp,31,↑,up,↑,1.317655200138688,True,98,1,0,13
Y2-S2-143K18,6,989,AS,exp,40,↓,down,↓,2.0416241995990276,True,98,1,0,13
Y2-S2-143K18,6,990,AS,exp,46,→,no_key,no_letter,-1.0,False,97,-1,1,14
Y2-S2-143K18,6,991,AS,exp,30,←,left,←,1.2676729997619987,True,98,-1,0,14
Y2-S2-143K18,6,992,AS,exp,44,→,left,←,0.501078300178051,False,98,-1,0,14
Y2-S2-143K18,6,993,AS,exp,37,↓,down,↓,1.6341657997108996,True,99,-1,0,14
Y2-S2-143K18,6,994,AS,exp,48,→,right,→,0.7677131001837552,True,99,-1,0,14
Y2-S2-143K18,6,995,AS,exp,30,↑,down,↓,2.3560023000463843,False,99,-1,0,14
Y2-S2-143K18,6,996,AS,exp,36,↓,up,↑,0.1673230999149382,False,100,-1,0,14
Y2-S2-143K18,6,997,AS,exp,37,→,up,↑,0.4178273999132216,False,101,-1,0,14
Y2-S2-143K18,6,998,AS,exp,39,←,up,↑,0.2677866001613438,False,102,-1,0,14
Y2-S2-143K18,6,999,AS,exp,49,↓,down,↓,0.8675710996612906,True,103,-1,0,14
Y2-S2-143K18,6,1000,AS,exp,26,→,no_key,no_letter,-1.0,False,103,-1,0,14
Y2-S2-143K18,6,1001,AS,exp,47,↓,no_key,no_letter,-1.0,False,104,-1,0,14
Y2-S2-143K18,6,1002,AS,exp,28,←,no_key,no_letter,-1.0,False,105,-1,0,14
Y2-S2-143K18,6,1003,AS,exp,29,→,no_key,no_letter,-1.0,False,106,-1,0,14
Y2-S2-143K18,6,1004,AS,exp,39,↑,no_key,no_letter,-1.0,False,107,-1,0,14
Y2-S2-143K18,6,1005,AS,exp,37,←,left,←,1.0510716000571847,True,108,-1,0,14
Y2-S2-143K18,6,1006,AS,exp,38,→,right,→,0.6844200002960861,True,108,-1,0,14
Y2-S2-143K18,6,1007,AS,exp,35,↑,up,↑,1.2342326999641955,True,108,1,1,15
Y2-S2-143K18,6,1008,AS,exp,41,↓,down,↓,0.584257900249213,True,107,1,0,15
Y2-S2-143K18,6,1009,AS,exp,36,↑,up,↑,0.8839489002712071,True,107,1,0,15
Y2-S2-143K18,6,1010,AS,exp,46,←,left,←,0.9677153998054564,True,107,1,0,15
Y2-S2-143K18,6,1011,AS,exp,42,↑,up,↑,0.7011250997893512,True,106,1,0,15
Y2-S2-143K18,6,1012,AS,exp,39,↓,down,↓,1.0178779996931553,True,106,1,0,15
Y2-S2-143K18,6,1013,AS,exp,25,↑,up,↑,0.8342567998915911,True,106,1,0,15
Y2-S2-143K18,6,1014,AS,exp,36,←,right,→,3.1460204999893904,False,105,-1,1,16
Y2-S2-143K18,7,1015,AS,intra_train,42,→,right,→,0.5679964004084468,True,61,-,-,-
Y2-S2-143K18,7,1016,AS,intra_train,50,←,left,←,0.9010582999326289,True,61,-,-,-
Y2-S2-143K18,7,1017,AS,intra_train,43,↓,down,↓,0.6678704000078142,True,61,-,-,-
Y2-S2-143K18,7,1018,AS,intra_train,40,↑,up,↑,0.9340214999392629,True,61,-,-,-
Y2-S2-143K18,7,1019,AS,intra_train,47,→,right,→,0.7344064996577799,True,61,-,-,-
Y2-S2-143K18,7,1020,AS,exp,26,↓,down,↓,1.0183339999057353,True,41,0,0,0
Y2-S2-143K18,7,1021,AS,exp,27,↑,up,↑,0.7672005002386868,True,41,0,0,0
Y2-S2-143K18,7,1022,AS,exp,29,←,left,←,0.6178855998441577,True,41,1,0,0
Y2-S2-143K18,7,1023,AS,exp,40,↑,up,↑,1.048584499862045,True,40,1,0,0
Y2-S2-143K18,7,1024,AS,exp,34,→,right,→,0.6008970998227596,True,40,1,0,0
Y2-S2-143K18,7,1025,AS,exp,35,↓,no_key,no_letter,-1.0,False,40,-1,1,1
Y2-S2-143K18,7,1026,AS,exp,37,↑,up,↑,1.6426013000309467,True,41,-1,0,1
Y2-S2-143K18,7,1027,AS,exp,40,↓,no_key,no_letter,-1.0,False,41,-1,0,1
Y2-S2-143K18,7,1028,AS,exp,41,←,left,←,0.9816534998826683,True,42,-1,0,1
Y2-S2-143K18,7,1029,AS,exp,39,↓,left,←,0.7008656999096274,False,42,-1,0,1
Y2-S2-143K18,7,1030,AS,exp,35,←,left,←,0.38438820000737906,True,43,-1,0,1
Y2-S2-143K18,7,1031,AS,exp,30,→,no_key,no_letter,-1.0,False,43,-1,0,1
Y2-S2-143K18,7,1032,AS,exp,37,↑,no_key,no_letter,-1.0,False,44,-1,0,1
Y2-S2-143K18,7,1033,AS,exp,35,←,no_key,no_letter,-1.0,False,45,-1,0,1
Y2-S2-143K18,7,1034,AS,exp,38,↑,left,←,0.43415219988673925,False,46,-1,0,1
Y2-S2-143K18,7,1035,AS,exp,30,↓,left,←,0.6175144999288023,False,47,-1,0,1
Y2-S2-143K18,7,1036,AS,exp,46,→,left,←,0.2844906998798251,False,48,-1,0,1
Y2-S2-143K18,7,1037,AS,exp,40,↑,left,←,0.26758559979498386,False,49,-1,0,1
Y2-S2-143K18,7,1038,AS,exp,30,→,left,←,0.018289899919182062,False,50,-1,0,1
Y2-S2-143K18,7,1039,AS,exp,42,↑,left,←,0.001134099904447794,False,51,-1,0,1
Y2-S2-143K18,7,1040,AS,exp,36,←,up,↑,1.4699166999198496,False,52,-1,0,1
Y2-S2-143K18,7,1041,AS,exp,28,→,up,↑,0.16787699982523918,False,53,-1,0,1
Y2-S2-143K18,7,1042,AS,exp,41,←,right,→,0.9341764003038406,False,54,-1,0,1
Y2-S2-143K18,7,1043,AS,exp,45,→,left,←,0.05090219993144274,False,55,-1,0,1
Y2-S2-143K18,7,1044,AS,exp,40,←,left,←,0.03412539977580309,True,56,-1,0,1
Y2-S2-143K18,7,1045,AS,exp,45,↓,left,←,0.15132780000567436,False,56,-1,0,1
Y2-S2-143K18,7,1046,AS,exp,45,↑,left,←,0.2675402001477778,False,57,-1,0,1
Y2-S2-143K18,7,1047,AS,exp,36,←,left,←,0.13431060034781694,True,58,-1,0,1
Y2-S2-143K18,7,1048,AS,exp,48,→,right,→,0.2844845997169614,True,58,-1,0,1
Y2-S2-143K18,7,1049,AS,exp,36,←,right,→,0.1841195998713374,False,58,-1,0,1
Y2-S2-143K18,7,1050,AS,exp,29,↓,right,→,0.3008679999038577,False,59,-1,0,1
Y2-S2-143K18,7,1051,AS,exp,35,↑,right,→,2.5972478999756277,False,60,-1,0,1
Y2-S2-143K18,7,1052,AS,exp,27,↓,left,←,0.3010752000845969,False,61,-1,0,1
Y2-S2-143K18,7,1053,AS,exp,48,↑,left,←,0.35079400008544326,False,62,-1,0,1
Y2-S2-143K18,7,1054,AS,exp,36,←,left,←,0.35073279961943626,True,63,-1,0,1
Y2-S2-143K18,7,1055,AS,exp,34,→,left,←,0.5504240998998284,False,63,-1,0,1
Y2-S2-143K18,7,1056,AS,exp,29,←,left,←,0.8010134999640286,True,64,-1,0,1
Y2-S2-143K18,7,1057,AS,exp,46,↑,left,←,2.126275900285691,False,64,-1,0,1
Y2-S2-143K18,7,1058,AS,exp,36,→,no_key,no_letter,-1.0,False,65,-1,0,1
Y2-S2-143K18,7,1059,AS,exp,44,↑,left,←,0.6842780001461506,False,66,-1,0,1
Y2-S2-143K18,7,1060,AS,exp,42,←,left,←,1.5869840001687407,True,67,-1,0,1
Y2-S2-143K18,7,1061,AS,exp,31,→,right,→,0.01719460031017661,True,67,-1,0,1
Y2-S2-143K18,7,1062,AS,exp,26,↑,left,←,1.1503341998904943,False,67,-1,0,1
Y2-S2-143K18,7,1063,AS,exp,42,←,left,←,0.8175726002082229,True,68,-1,0,1
Y2-S2-143K18,7,1064,AS,exp,44,↑,right,→,0.8676174003630877,False,68,-1,0,1
Y2-S2-143K18,7,1065,AS,exp,31,←,down,↓,0.13444819999858737,False,69,-1,0,1
Y2-S2-143K18,7,1066,AS,exp,47,→,down,↓,0.0010776999406516552,False,70,-1,0,1
Y2-S2-143K18,7,1067,AS,exp,30,↓,right,→,1.7197492001578212,False,71,-1,0,1
Y2-S2-143K18,7,1068,AS,exp,44,↑,right,→,0.21828770032152534,False,72,-1,0,1
Y2-S2-143K18,7,1069,AS,exp,41,←,right,→,0.11764249997213483,False,73,-1,0,1
Y2-S2-143K18,7,1070,AS,exp,40,↓,left,←,1.184067599941045,False,74,-1,0,1
Y2-S2-143K18,7,1071,AS,exp,29,←,left,←,1.628501099999994,True,75,-1,0,1
Y2-S2-143K18,7,1072,AS,exp,27,↑,no_key,no_letter,-1.0,False,75,-1,0,1
Y2-S2-143K18,7,1073,AS,exp,48,←,left,←,1.4872914999723434,True,76,-1,0,1
Y2-S2-143K18,7,1074,AS,exp,26,↑,left,←,0.6676595997996628,False,76,-1,0,1
Y2-S2-143K18,7,1075,AS,exp,48,↓,right,→,0.7843603999353945,False,77,-1,0,1
Y2-S2-143K18,7,1076,AS,exp,43,↑,no_key,no_letter,-1.0,False,78,-1,0,1
Y2-S2-143K18,7,1077,AS,exp,25,↓,up,↑,1.300111100077629,False,79,-1,0,1
Y2-S2-143K18,7,1078,AS,exp,46,→,right,→,0.7508304002694786,True,80,-1,0,1
Y2-S2-143K18,7,1079,AS,exp,45,↓,left,←,0.6505341995507479,False,80,-1,0,1
Y2-S2-143K18,7,1080,AS,exp,46,→,right,→,2.400140699930489,True,81,-1,0,1
Y2-S2-143K18,7,1081,AS,exp,47,↑,down,↓,0.5844102003611624,False,81,-1,0,1
Y2-S2-143K18,7,1082,AS,exp,41,←,left,←,1.1010011001490057,True,82,-1,0,1
Y2-S2-143K18,7,1083,AS,exp,50,→,right,→,0.7174658002331853,True,82,-1,0,1
Y2-S2-143K18,7,1084,AS,exp,50,↓,down,↓,1.0845690998248756,True,82,1,1,2
Y2-S2-143K18,7,1085,AS,exp,29,←,right,→,0.4012059001252055,False,81,-1,1,3
Y2-S2-143K18,7,1086,AS,exp,35,↓,down,↓,0.9679985996335745,True,82,-1,0,3
Y2-S2-143K18,7,1087,AS,exp,44,→,right,→,1.1181955998763442,True,82,-1,0,3
Y2-S2-143K18,7,1088,AS,exp,38,↓,down,↓,0.8177125998772681,True,82,1,1,4
Y2-S2-143K18,7,1089,AS,exp,31,↑,down,↓,1.5473523000255227,False,81,-1,1,5
Y2-S2-143K18,7,1090,AS,exp,30,←,down,↓,0.20096589997410774,False,82,-1,0,5
Y2-S2-143K18,7,1091,AS,exp,45,↓,down,↓,0.01767819980159402,True,83,-1,0,5
Y2-S2-143K18,7,1092,AS,exp,39,↑,no_key,no_letter,-1.0,False,83,-1,0,5
Y2-S2-143K18,7,1093,AS,exp,36,↓,right,→,2.7300936998799443,False,84,-1,0,5
Y2-S2-143K18,7,1094,AS,exp,26,→,right,→,2.5617897999472916,True,85,-1,0,5
Y2-S2-143K18,7,1095,AS,exp,40,←,right,→,0.4341144999489188,False,85,-1,0,5
Y2-S2-143K18,7,1096,AS,exp,31,↑,right,→,1.91356740007177,False,86,-1,0,5
Y2-S2-143K18,7,1097,AS,exp,37,←,right,→,0.5677469000220299,False,87,-1,0,5
Y2-S2-143K18,7,1098,AS,exp,28,↑,up,↑,1.3345337002538145,True,88,-1,0,5
Y2-S2-143K18,7,1099,AS,exp,38,←,left,←,1.1011521997861564,True,88,-1,0,5
Y2-S2-143K18,7,1100,AS,exp,39,↓,down,↓,1.4344981000758708,True,88,1,1,6
Y2-S2-143K18,7,1101,AS,exp,36,←,right,→,0.6511355000548065,False,87,-1,1,7
Y2-S2-143K18,7,1102,AS,exp,49,→,no_key,no_letter,-1.0,False,88,-1,0,7
Y2-S2-143K18,7,1103,AS,exp,44,←,no_key,no_letter,-1.0,False,89,-1,0,7
Y2-S2-143K18,7,1104,AS,exp,48,→,right,→,0.36756600020453334,True,90,-1,0,7
Y2-S2-143K18,7,1105,AS,exp,36,↓,right,→,2.269804199691862,False,90,-1,0,7
Y2-S2-143K18,7,1106,AS,exp,34,→,right,→,3.102744999807328,True,91,-1,0,7
Y2-S2-143K18,7,1107,AS,exp,31,↓,right,→,0.3844285001978278,False,91,-1,0,7
Y2-S2-143K18,7,1108,AS,exp,44,←,right,→,0.38459410006180406,False,92,-1,0,7
Y2-S2-143K18,7,1109,AS,exp,28,→,left,←,0.15108260000124574,False,93,-1,0,7
Y2-S2-143K18,7,1110,AS,exp,38,↑,left,←,0.0011387001723051071,False,94,-1,0,7
Y2-S2-143K18,7,1111,AS,exp,29,→,right,→,0.5510161002166569,True,95,-1,0,7
Y2-S2-143K18,7,1112,AS,exp,26,↑,left,←,0.6509263999760151,False,95,-1,0,7
Y2-S2-143K18,7,1113,AS,exp,41,→,no_key,no_letter,-1.0,False,96,-1,0,7
Y2-S2-143K18,7,1114,AS,exp,36,↑,right,→,2.939005400054157,False,97,-1,0,7
Y2-S2-143K18,7,1115,AS,exp,33,←,right,→,0.6345608001574874,False,98,-1,0,7
Y2-S2-143K18,7,1116,AS,exp,49,→,right,→,0.9517888999544084,True,99,-1,0,7
Y2-S2-143K18,7,1117,AS,exp,31,↓,left,←,3.0202446999028325,False,99,-1,0,7
Y2-S2-143K18,7,1118,AS,exp,27,←,right,→,2.285191100090742,False,100,-1,0,7
Y2-S2-143K18,7,1119,AS,exp,45,↓,right,→,1.250996799673885,False,101,-1,0,7
Y2-S2-143K18,7,1120,AS,exp,26,↑,no_key,no_letter,-1.0,False,102,-1,0,7
Y2-S2-143K18,7,1121,AS,exp,48,↓,down,↓,0.10135760018602014,True,103,-1,0,7
Y2-S2-143K18,7,1122,AS,exp,46,→,down,↓,0.05139070004224777,False,103,-1,0,7
Y2-S2-143K18,7,1123,AS,exp,43,↓,down,↓,3.1642901999875903,True,104,-1,0,7
Y2-S2-143K18,7,1124,AS,exp,31,←,down,↓,0.567647899966687,False,104,-1,0,7
Y2-S2-143K18,7,1125,AS,exp,49,↓,no_key,no_letter,-1.0,False,105,-1,0,7
Y2-S2-143K18,7,1126,AS,exp,34,→,left,←,1.5010779001750052,False,106,-1,0,7
Y2-S2-143K18,7,1127,AS,exp,27,↓,right,→,0.4012216003611684,False,107,-1,0,7
Y2-S2-143K18,7,1128,AS,exp,32,←,right,→,0.13451609993353486,False,108,-1,0,7
Y2-S2-143K18,7,1129,AS,exp,44,→,right,→,0.5344390999525785,True,109,-1,0,7
Y2-S2-143K18,7,1130,AS,exp,45,↓,down,↓,0.8842096999287605,True,109,-1,0,7
Y2-S2-143K18,7,1131,AS,exp,36,←,left,←,0.6512327999807894,True,109,1,1,8
Y2-S2-143K18,7,1132,AS,exp,39,↑,up,↑,1.1176202003844082,True,108,1,0,8
Y2-S2-143K18,7,1133,AS,exp,38,→,right,→,0.8680054997093976,True,108,1,0,8
Y2-S2-143K18,7,1134,AS,exp,47,↑,up,↑,1.018002400174737,True,108,1,0,8
Y2-S2-143K18,7,1135,AS,exp,34,←,no_key,no_letter,-1.0,False,107,-1,1,9
Y2-S2-143K18,7,1136,AS,exp,39,↓,no_key,no_letter,-1.0,False,108,-1,0,9
Y2-S2-143K18,7,1137,AS,exp,35,←,right,→,2.376956599764526,False,109,-1,0,9
Y2-S2-143K18,7,1138,AS,exp,28,→,right,→,0.18467899970710278,True,110,-1,0,9
Y2-S2-143K18,7,1139,AS,exp,30,↓,right,→,0.05034559965133667,False,110,-1,0,9
Y2-S2-143K18,7,1140,AS,exp,40,↑,left,←,0.0507490998134017,False,111,-1,0,9
Y2-S2-143K18,7,1141,AS,exp,32,←,left,←,0.001185199711471796,True,112,-1,0,9
Y2-S2-143K18,7,1142,AS,exp,35,→,left,←,0.5680586001835763,False,112,-1,0,9
Y2-S2-143K18,7,1143,AS,exp,27,↑,up,↑,1.8343236004002392,True,113,-1,0,9
Y2-S2-143K18,7,1144,AS,exp,38,↓,down,↓,0.6177432001568377,True,113,-1,0,9
Y2-S2-143K18,7,1145,AS,exp,33,→,right,→,1.2014120002277195,True,113,1,1,10
Y2-S2-143K18,7,1146,AS,exp,45,↓,down,↓,0.967669999692589,True,112,1,0,10
Y2-S2-143K18,7,1147,AS,exp,40,↑,up,↑,0.8512789001688361,True,112,1,0,10
Y2-S2-143K18,7,1148,AS,exp,46,↓,right,→,3.3977526002563536,False,112,-1,1,11
Y2-S2-143K18,7,1149,AS,exp,27,→,no_key,no_letter,-1.0,False,113,-1,0,11
Y2-S2-143K18,7,1150,AS,exp,30,←,no_key,no_letter,-1.0,False,114,-1,0,11
Y2-S2-143K18,7,1151,AS,exp,38,↑,no_key,no_letter,-1.0,False,115,-1,0,11
Y2-S2-143K18,7,1152,AS,exp,42,←,no_key,no_letter,-1.0,False,116,-1,0,11
Y2-S2-143K18,7,1153,AS,exp,25,↓,right,→,2.3517029001377523,False,117,-1,0,11
Y2-S2-143K18,7,1154,AS,exp,34,→,right,→,2.4017150001600385,True,118,-1,0,11
Y2-S2-143K18,7,1155,AS,exp,42,←,left,←,0.6342303999699652,True,118,-1,0,11
Y2-S2-143K18,7,1156,AS,exp,49,↑,up,↑,0.7677313000895083,True,118,1,1,12
Y2-S2-143K18,7,1157,AS,exp,35,↓,down,↓,0.700959499925375,True,117,1,0,12
Y2-S2-143K18,7,1158,AS,exp,45,↑,up,↑,1.1011902000755072,True,117,1,0,12
Y2-S2-143K18,7,1159,AS,exp,50,↓,no_key,no_letter,-1.0,False,117,-1,1,13
Y2-S2-143K18,7,1160,AS,exp,43,↑,no_key,no_letter,-1.0,False,118,-1,0,13
Y2-S2-143K18,7,1161,AS,exp,36,→,right,→,0.8848028001375496,True,119,-1,0,13
Y2-S2-143K18,7,1162,AS,exp,33,↓,right,→,0.7181726996786892,False,119,-1,0,13
Y2-S2-143K18,7,1163,AS,exp,33,↑,up,↑,0.6508729001507163,True,120,-1,0,13
Y2-S2-143K18,7,1164,AS,exp,40,←,no_key,no_letter,-1.0,False,120,-1,0,13
Y2-S2-143K18,7,1165,AS,exp,45,→,right,→,2.8734029000625014,True,121,-1,0,13
Y2-S2-143K18,7,1166,AS,exp,30,↑,right,→,0.36807919992133975,False,121,-1,0,13
Y2-S2-143K18,7,1167,AS,exp,32,←,right,→,0.4346094001084566,False,122,-1,0,13
Y2-S2-143K18,7,1168,AS,exp,41,↑,right,→,0.4342958000488579,False,123,-1,0,13
Y2-S2-143K18,7,1169,AS,exp,48,←,left,←,0.11797160003334284,True,124,-1,0,13
Y2-S2-143K18,7,1170,AS,exp,29,→,left,←,0.1177556999027729,False,124,-1,0,13
Y2-S2-143K18,7,1171,AS,exp,35,↑,no_key,no_letter,-1.0,False,125,-1,0,13
Y2-S2-143K18,7,1172,AS,exp,36,←,left,←,0.35095829982310534,True,126,-1,0,13
Y2-S2-143K18,7,1173,AS,exp,28,→,up,↑,0.16832080017775297,False,126,-1,0,13
Y2-S2-143K18,7,1174,AS,exp,42,←,up,↑,0.017740600276738405,False,127,-1,0,13
Y2-S2-143K18,7,1175,AS,exp,28,→,up,↑,0.08339649997651577,False,128,-1,0,13
Y2-S2-143K18,7,1176,AS,exp,40,↑,down,↓,0.10117190005257726,False,129,-1,0,13
Y2-S2-143K18,7,1177,AS,exp,39,←,up,↑,0.01707539986819029,False,130,-1,0,13
Y2-S2-143K18,7,1178,AS,exp,34,↓,down,↓,0.0178978000767529,True,131,-1,0,13
Y2-S2-143K18,7,1179,AS,exp,26,←,up,↑,0.4843461997807026,False,131,-1,0,13
Y2-S2-143K18,7,1180,AS,exp,28,↓,up,↑,0.01771920034661889,False,132,-1,0,13
Y2-S2-143K18,7,1181,AS,exp,46,↑,left,←,0.28427379997447133,False,133,-1,0,13
Y2-S2-143K18,7,1182,AS,exp,34,↓,right,→,1.4345529000274837,False,134,-1,0,13
Y2-S2-143K18,7,1183,AS,exp,45,←,right,→,0.6011832999065518,False,135,-1,0,13
Y2-S2-143K18,7,1184,AS,exp,28,↓,right,→,0.9675177000463009,False,136,-1,0,13
Y2-S2-143K18,7,1185,AS,exp,41,↑,left,←,0.0011354000307619572,False,137,-1,0,13
Y2-S2-143K18,7,1186,AS,exp,45,↓,up,↑,0.26771349972113967,False,138,-1,0,13
Y2-S2-143K18,7,1187,AS,exp,34,→,left,←,0.16777770034968853,False,139,-1,0,13
Y2-S2-143K18,7,1188,AS,exp,46,↓,up,↑,2.2841235999949276,False,140,-1,0,13
Y2-S2-143K18,7,1189,AS,exp,31,→,left,←,1.0344358002766967,False,141,-1,0,13
Y2-S2-143K18,7,1190,AS,exp,34,↓,left,←,0.23452170006930828,False,142,-1,0,13
Y2-S2-143K18,7,1191,AS,exp,50,→,no_key,no_letter,-1.0,False,143,-1,0,13
Y2-S2-143K18,7,1192,AS,exp,48,↑,up,↑,3.592620200011879,True,144,-1,0,13
Y2-S2-143K18,7,1193,AS,exp,27,↓,down,↓,0.9508521999232471,True,144,-1,0,13
Y2-S2-143K18,7,1194,AS,exp,31,←,left,←,1.1503699999302626,True,144,1,1,14
Y2-S2-143K18,7,1195,AS,exp,28,↑,left,←,2.6237298999913037,False,143,-1,1,15
Y2-S2-143K18,7,1196,AS,exp,40,←,left,←,0.23420700011774898,True,144,-1,0,15
Y2-S2-143K18,7,1197,AS,exp,47,↑,left,←,0.06768680037930608,False,144,-1,0,15
Y2-S2-143K18,7,1198,AS,exp,44,→,up,↑,0.08476260025054216,False,145,-1,0,15
Y2-S2-143K18,7,1199,AS,exp,50,↑,down,↓,0.05115110008046031,False,146,-1,0,15
Y2-S2-143K18,7,1200,AS,exp,27,←,up,↑,0.06777309998869896,False,147,-1,0,15
Y2-S2-143K18,7,1201,AS,exp,37,→,right,→,1.3005426996387541,True,148,-1,0,15
Y2-S2-143K18,7,1202,AS,exp,27,←,no_key,no_letter,-1.0,False,148,-1,0,15
Y2-S2-143K18,7,1203,AS,exp,45,→,right,→,1.2020655004307628,True,149,-1,0,15
Y2-S2-143K18,7,1204,AS,exp,37,↑,no_key,no_letter,-1.0,False,149,-1,0,15
Y2-S2-143K18,7,1205,AS,exp,34,↓,no_key,no_letter,-1.0,False,150,-1,0,15
Y2-S2-143K18,7,1206,AS,exp,47,↑,no_key,no_letter,-1.0,False,151,-1,0,15
Y2-S2-143K18,7,1207,AS,exp,49,→,no_key,no_letter,-1.0,False,152,-1,0,15
Y2-S2-143K18,7,1208,AS,exp,30,↓,no_key,no_letter,-1.0,False,153,-1,0,15
Y2-S2-143K18,7,1209,AS,exp,27,↑,no_key,no_letter,-1.0,False,154,-1,0,15
Y2-S2-143K18,7,1210,AS,exp,43,↓,right,→,4.06532150041312,False,155,-1,0,15
Y2-S2-143K18,7,1211,AS,exp,45,↑,right,→,2.383699099998921,False,156,-1,0,15
Y2-S2-143K18,7,1212,AS,exp,25,→,right,→,3.9260297999717295,True,157,-1,0,15
Y2-S2-143K18,7,1213,AS,exp,41,↑,right,→,3.5875834999606013,False,157,-1,0,15
Y2-S2-143K18,7,1214,AS,exp,43,↓,up,↑,0.9678787998855114,False,158,-1,0,15
Y2-S2-143K18,7,1215,AS,exp,48,←,right,→,1.7342587998136878,False,159,-1,0,15
Y2-S2-143K18,7,1216,AS,exp,45,↓,right,→,0.3676980999298394,False,160,-1,0,15
Y2-S2-143K18,7,1217,AS,exp,41,↑,up,↑,2.9555724998936057,True,161,-1,0,15
Y2-S2-143K18,7,1218,AS,exp,39,↓,down,↓,3.284727899823338,True,161,-1,0,15
Y2-S2-143K18,7,1219,AS,exp,31,↑,up,↑,0.8515900000929832,True,161,1,1,16
Y2-S2-143K18,8,1220,PS,intra_train,37,↓,down,↓,1.2359235002659261,True,21,-,-,-
Y2-S2-143K18,8,1221,PS,intra_train,36,→,right,→,1.0698835998773575,True,21,-,-,-
Y2-S2-143K18,8,1222,PS,intra_train,45,↑,right,→,0.705054999794811,False,21,-,-,-
Y2-S2-143K18,8,1223,PS,intra_train,40,↓,down,↓,0.9323514997959137,True,21,-,-,-
Y2-S2-143K18,8,1224,PS,intra_train,41,↑,no_key,no_letter,-1.0,False,21,-,-,-
Y2-S2-143K18,8,1225,PS,exp,36,←,no_key,no_letter,-1.0,False,14,-1,0,0
Y2-S2-143K18,8,1226,PS,exp,39,↑,down,↓,0.7930774996057153,False,15,-1,0,0
Y2-S2-143K18,8,1227,PS,exp,46,→,down,↓,1.0222737998701632,False,16,-1,0,0
Y2-S2-143K18,8,1228,PS,exp,48,↑,up,↑,0.47199950041249394,True,17,-1,0,0
Y2-S2-143K18,8,1229,PS,exp,32,←,no_key,no_letter,-1.0,False,17,-1,0,0
Y2-S2-143K18,8,1230,PS,exp,27,→,right,→,0.9930463000200689,True,18,-1,0,0
Y2-S2-143K18,8,1231,PS,exp,29,↑,left,←,0.38393420027568936,False,18,-1,0,0
Y2-S2-143K18,8,1232,PS,exp,38,←,no_key,no_letter,-1.0,False,19,-1,0,0
Y2-S2-143K18,8,1233,PS,exp,25,↓,up,↑,0.7235928000882268,False,20,-1,0,0
Y2-S2-143K18,8,1234,PS,exp,38,→,down,↓,1.679434800054878,False,21,-1,0,0
Y2-S2-143K18,8,1235,PS,exp,31,↑,up,↑,1.0712846000678837,True,22,-1,0,0
Y2-S2-143K18,8,1236,PS,exp,39,→,right,→,0.6955492002889514,True,22,-1,0,0
Y2-S2-143K18,8,1237,PS,exp,32,←,no_key,no_letter,-1.0,False,22,-1,0,0
Y2-S2-143K18,8,1238,PS,exp,38,→,right,→,0.6395582002587616,True,23,-1,0,0
Y2-S2-143K18,8,1239,PS,exp,30,↑,up,↑,0.9902172996662557,True,23,-1,0,0
Y2-S2-143K18,8,1240,PS,exp,37,↓,right,→,1.2863420001231134,False,23,-1,0,0
Y2-S2-143K18,8,1241,PS,exp,25,←,right,→,0.18421290023252368,False,24,-1,0,0
Y2-S2-143K18,8,1242,PS,exp,38,↑,right,→,0.234101299662143,False,25,-1,0,0
Y2-S2-143K18,8,1243,PS,exp,49,→,no_key,no_letter,-1.0,False,26,-1,0,0
Y2-S2-143K18,8,1244,PS,exp,29,↓,right,→,0.9385393997654319,False,27,-1,0,0
Y2-S2-143K18,8,1245,PS,exp,49,↑,right,→,0.1013643997721374,False,28,-1,0,0
Y2-S2-143K18,8,1246,PS,exp,47,→,no_key,no_letter,-1.0,False,29,-1,0,0
Y2-S2-143K18,8,1247,PS,exp,39,↑,up,↑,0.3342515998519957,True,30,-1,0,0
Y2-S2-143K18,8,1248,PS,exp,40,→,down,↓,1.627823299728334,False,30,-1,0,0
Y2-S2-143K18,8,1249,PS,exp,45,↓,down,↓,0.4343767003156245,True,31,-1,0,0
Y2-S2-143K18,8,1250,PS,exp,32,↑,up,↑,0.689317099750042,True,31,-1,0,0
Y2-S2-143K18,8,1251,PS,exp,29,→,up,↑,1.0126168001443148,False,31,-1,0,0
Y2-S2-143K18,8,1252,PS,exp,30,←,no_key,no_letter,-1.0,False,32,-1,0,0
Y2-S2-143K18,8,1253,PS,exp,29,↓,no_key,no_letter,-1.0,False,33,-1,0,0
Y2-S2-143K18,8,1254,PS,exp,37,←,no_key,no_letter,-1.0,False,34,-1,0,0
Y2-S2-143K18,8,1255,PS,exp,46,↓,up,↑,2.0478759999386966,False,35,-1,0,0
Y2-S2-143K18,8,1256,PS,exp,37,↑,right,→,0.5174943003803492,False,36,-1,0,0
Y2-S2-143K18,8,1257,PS,exp,44,↓,no_key,no_letter,-1.0,False,37,-1,0,0
Y2-S2-143K18,8,1258,PS,exp,26,↑,no_key,no_letter,-1.0,False,38,-1,0,0
Y2-S2-143K18,8,1259,PS,exp,42,→,right,→,0.08432869985699654,True,39,-1,0,0
Y2-S2-143K18,8,1260,PS,exp,31,↑,no_key,no_letter,-1.0,False,39,-1,0,0
Y2-S2-143K18,8,1261,PS,exp,33,↓,right,→,1.8679138999432325,False,40,-1,0,0
Y2-S2-143K18,8,1262,PS,exp,30,←,right,→,1.9192428002133965,False,41,-1,0,0
Y2-S2-143K18,8,1263,PS,exp,35,↑,no_key,no_letter,-1.0,False,42,-1,0,0
Y2-S2-143K18,8,1264,PS,exp,38,↓,up,↑,1.9746980997733772,False,43,-1,0,0
Y2-S2-143K18,8,1265,PS,exp,33,↑,up,↑,0.15086610009893775,True,44,-1,0,0
Y2-S2-143K18,8,1266,PS,exp,37,←,up,↑,1.6337330001406372,False,44,-1,0,0
Y2-S2-143K18,8,1267,PS,exp,45,↓,no_key,no_letter,-1.0,False,45,-1,0,0
Y2-S2-143K18,8,1268,PS,exp,30,→,left,←,0.21801379974931479,False,46,-1,0,0
Y2-S2-143K18,8,1269,PS,exp,34,↓,no_key,no_letter,-1.0,False,47,-1,0,0
Y2-S2-143K18,8,1270,PS,exp,38,→,no_key,no_letter,-1.0,False,48,-1,0,0
Y2-S2-143K18,8,1271,PS,exp,42,↑,right,→,2.0398254999890924,False,49,-1,0,0
Y2-S2-143K18,8,1272,PS,exp,40,↓,no_key,no_letter,-1.0,False,50,-1,0,0
Y2-S2-143K18,8,1273,PS,exp,35,→,right,→,2.5110877002589405,True,51,-1,0,0
Y2-S2-143K18,8,1274,PS,exp,46,↓,no_key,no_letter,-1.0,False,51,-1,0,0
Y2-S2-143K18,8,1275,PS,exp,45,↑,no_key,no_letter,-1.0,False,52,-1,0,0
Y2-S2-143K18,8,1276,PS,exp,32,←,no_key,no_letter,-1.0,False,53,-1,0,0
Y2-S2-143K18,8,1277,PS,exp,32,↓,left,←,0.3844777997583151,False,54,-1,0,0
Y2-S2-143K18,8,1278,PS,exp,36,↑,down,↓,1.2718342998996377,False,55,-1,0,0
Y2-S2-143K18,8,1279,PS,exp,40,↓,no_key,no_letter,-1.0,False,56,-1,0,0
Y2-S2-143K18,8,1280,PS,exp,29,→,no_key,no_letter,-1.0,False,57,-1,0,0
Y2-S2-143K18,8,1281,PS,exp,29,↓,up,↑,0.8018594002351165,False,58,-1,0,0
Y2-S2-143K18,8,1282,PS,exp,29,→,up,↑,2.471324199810624,False,59,-1,0,0
Y2-S2-143K18,8,1283,PS,exp,38,↓,up,↑,2.336148800328374,False,60,-1,0,0
Y2-S2-143K18,8,1284,PS,exp,28,←,right,→,0.5676365001127124,False,61,-1,0,0
Y2-S2-143K18,8,1285,PS,exp,40,↑,no_key,no_letter,-1.0,False,62,-1,0,0
Y2-S2-143K18,8,1286,PS,exp,46,←,no_key,no_letter,-1.0,False,63,-1,0,0
Y2-S2-143K18,8,1287,PS,exp,28,→,no_key,no_letter,-1.0,False,64,-1,0,0
Y2-S2-143K18,8,1288,PS,exp,49,↓,right,→,0.734508499968797,False,65,-1,0,0
Y2-S2-143K18,8,1289,PS,exp,25,↑,no_key,no_letter,-1.0,False,66,-1,0,0
Y2-S2-143K18,8,1290,PS,exp,42,→,left,←,1.1339294998906553,False,67,-1,0,0
Y2-S2-143K18,8,1291,PS,exp,41,↑,down,↓,1.5066774999722838,False,68,-1,0,0
Y2-S2-143K18,8,1292,PS,exp,31,←,no_key,no_letter,-1.0,False,69,-1,0,0
Y2-S2-143K18,8,1293,PS,exp,37,→,down,↓,1.6244756998494267,False,70,-1,0,0
Y2-S2-143K18,8,1294,PS,exp,26,↓,down,↓,0.3017184999771416,True,71,-1,0,0
Y2-S2-143K18,8,1295,PS,exp,48,→,no_key,no_letter,-1.0,False,71,-1,0,0
Y2-S2-143K18,8,1296,PS,exp,35,↓,no_key,no_letter,-1.0,False,72,-1,0,0
Y2-S2-143K18,8,1297,PS,exp,50,→,no_key,no_letter,-1.0,False,73,-1,0,0
Y2-S2-143K18,8,1298,PS,exp,46,↓,no_key,no_letter,-1.0,False,74,-1,0,0
Y2-S2-143K18,8,1299,PS,exp,28,↑,up,↑,0.8849120000377297,True,75,-1,0,0
Y2-S2-143K18,8,1300,PS,exp,43,→,no_key,no_letter,-1.0,False,75,-1,0,0
Y2-S2-143K18,8,1301,PS,exp,37,←,no_key,no_letter,-1.0,False,76,-1,0,0
Y2-S2-143K18,8,1302,PS,exp,47,→,no_key,no_letter,-1.0,False,77,-1,0,0
Y2-S2-143K18,8,1303,PS,exp,42,↓,no_key,no_letter,-1.0,False,78,-1,0,0
Y2-S2-143K18,8,1304,PS,exp,34,↑,right,→,1.9530674000270665,False,79,-1,0,0
Y2-S2-143K18,8,1305,PS,exp,47,←,no_key,no_letter,-1.0,False,80,-1,0,0
Y2-S2-143K18,8,1306,PS,exp,28,↓,right,→,0.8677089000120759,False,81,-1,0,0
Y2-S2-143K18,8,1307,PS,exp,44,←,right,→,0.7335981000214815,False,82,-1,0,0
Y2-S2-143K18,8,1308,PS,exp,42,↓,down,↓,0.83417550008744,True,83,-1,0,0
Y2-S2-143K18,8,1309,PS,exp,41,←,left,←,0.6513249003328383,True,83,-1,0,0
Y2-S2-143K18,8,1310,PS,exp,33,→,right,→,0.7176922000944614,True,83,1,1,1
Y2-S2-143K18,8,1311,PS,exp,29,↓,down,↓,0.800963900052011,True,82,1,0,1
Y2-S2-143K18,8,1312,PS,exp,37,←,left,←,0.8344365004450083,True,82,1,0,1
Y2-S2-143K18,8,1313,PS,exp,40,→,right,→,0.5835517002269626,True,82,1,0,1
Y2-S2-143K18,8,1314,PS,exp,43,←,right,→,2.9518214003182948,False,81,-1,1,2
Y2-S2-143K18,8,1315,PS,exp,50,→,no_key,no_letter,-1.0,False,82,-1,0,2
Y2-S2-143K18,8,1316,PS,exp,36,←,no_key,no_letter,-1.0,False,83,-1,0,2
Y2-S2-143K18,8,1317,PS,exp,43,↑,up,↑,1.3508699000813067,True,84,-1,0,2
Y2-S2-143K18,8,1318,PS,exp,39,→,up,↑,2.4904196998104453,False,84,-1,0,2
Y2-S2-143K18,8,1319,PS,exp,26,←,no_key,no_letter,-1.0,False,85,-1,0,2
Y2-S2-143K18,8,1320,PS,exp,37,↓,right,→,1.3676207000389695,False,86,-1,0,2
Y2-S2-143K18,8,1321,PS,exp,45,←,up,↑,0.3178345002233982,False,87,-1,0,2
Y2-S2-143K18,8,1322,PS,exp,38,→,left,←,0.4343789000995457,False,88,-1,0,2
Y2-S2-143K18,8,1323,PS,exp,41,↑,down,↓,2.5115636000409722,False,89,-1,0,2
Y2-S2-143K18,8,1324,PS,exp,26,←,down,↓,0.8676304002292454,False,90,-1,0,2
Y2-S2-143K18,8,1325,PS,exp,36,↓,down,↓,0.5511650000698864,True,91,-1,0,2
Y2-S2-143K18,8,1326,PS,exp,45,→,no_key,no_letter,-1.0,False,91,-1,0,2
Y2-S2-143K18,8,1327,PS,exp,31,↓,up,↑,2.271342100109905,False,92,-1,0,2
Y2-S2-143K18,8,1328,PS,exp,30,→,no_key,no_letter,-1.0,False,93,-1,0,2
Y2-S2-143K18,8,1329,PS,exp,43,↓,up,↑,2.4877202003262937,False,94,-1,0,2
Y2-S2-143K18,8,1330,PS,exp,50,↑,up,↑,1.3510893997736275,True,95,-1,0,2
Y2-S2-143K18,8,1331,PS,exp,32,←,no_key,no_letter,-1.0,False,95,-1,0,2
Y2-S2-143K18,8,1332,PS,exp,39,→,left,←,1.4675203999504447,False,96,-1,0,2
Y2-S2-143K18,8,1333,PS,exp,48,↑,up,↑,0.8177832998335361,True,97,-1,0,2
Y2-S2-143K18,8,1334,PS,exp,46,↓,left,←,0.8511367999017239,False,97,-1,0,2
Y2-S2-143K18,8,1335,PS,exp,32,←,left,←,0.15153810009360313,True,98,-1,0,2
Y2-S2-143K18,8,1336,PS,exp,40,→,no_key,no_letter,-1.0,False,98,-1,0,2
Y2-S2-143K18,8,1337,PS,exp,30,←,up,↑,1.0177319999784231,False,99,-1,0,2
Y2-S2-143K18,8,1338,PS,exp,35,→,no_key,no_letter,-1.0,False,100,-1,0,2
Y2-S2-143K18,8,1339,PS,exp,31,←,no_key,no_letter,-1.0,False,101,-1,0,2
Y2-S2-143K18,8,1340,PS,exp,26,↓,no_key,no_letter,-1.0,False,102,-1,0,2
Y2-S2-143K18,8,1341,PS,exp,43,↑,left,←,0.7512193000875413,False,103,-1,0,2
Y2-S2-143K18,8,1342,PS,exp,43,↓,up,↑,2.477396300062537,False,104,-1,0,2
Y2-S2-143K18,8,1343,PS,exp,45,↑,no_key,no_letter,-1.0,False,105,-1,0,2
Y2-S2-143K18,8,1344,PS,exp,34,↓,up,↑,0.6677441000938416,False,106,-1,0,2
Y2-S2-143K18,8,1345,PS,exp,50,←,up,↑,0.06771489977836609,False,107,-1,0,2
Y2-S2-143K18,8,1346,PS,exp,40,↓,up,↑,1.5675590001046658,False,108,-1,0,2
Y2-S2-143K18,8,1347,PS,exp,48,→,left,←,0.6342363003641367,False,109,-1,0,2
Y2-S2-143K18,8,1348,PS,exp,36,↓,down,↓,0.7343737003393471,True,110,-1,0,2
Y2-S2-143K18,8,1349,PS,exp,35,→,right,→,0.8176485002040863,True,110,-1,0,2
Y2-S2-143K18,8,1350,PS,exp,30,↓,down,↓,1.100916599854827,True,110,1,1,3
Y2-S2-143K18,8,1351,PS,exp,46,→,right,→,0.5178971998393536,True,109,1,0,3
Y2-S2-143K18,8,1352,PS,exp,39,←,left,←,0.9684437001124024,True,109,1,0,3
Y2-S2-143K18,8,1353,PS,exp,30,↓,up,↑,0.8513342002406716,False,109,-1,1,4
Y2-S2-143K18,8,1354,PS,exp,42,←,left,←,0.7677973001264036,True,110,-1,0,4
Y2-S2-143K18,8,1355,PS,exp,36,↓,down,↓,1.301101100165397,True,110,-1,0,4
Y2-S2-143K18,8,1356,PS,exp,41,→,no_key,no_letter,-1.0,False,110,-1,0,4
Y2-S2-143K18,8,1357,PS,exp,40,↓,down,↓,1.8842147001996636,True,111,-1,0,4
