PART_ID,Block_no,Trial_no,Block_type,Trial_type,CSI,Stim_letter,Key_pressed,letter_choose,Rt,Corr,Stimulus Time,Level,Reversal,Revs_count
Y2-S2-270K21,1,1,PS,train,45,↓,down,↓,1.4843009000178427,True,30,-,-,-
Y2-S2-270K21,1,2,PS,train,32,↑,up,↑,0.8978866999968886,True,30,-,-,-
Y2-S2-270K21,1,3,PS,train,45,↓,down,↓,0.7816691000480205,True,30,-,-,-
Y2-S2-270K21,1,4,PS,train,35,←,left,←,1.230301900068298,True,30,-,-,-
Y2-S2-270K21,1,5,PS,train,45,↓,down,↓,0.9849782000528648,True,30,-,-,-
Y2-S2-270K21,1,6,PS,train,46,↑,up,↑,1.2101907000178471,True,30,-,-,-
Y2-S2-270K21,1,7,PS,train,39,↓,down,↓,0.8302658000029624,True,30,-,-,-
Y2-S2-270K21,1,8,PS,train,44,←,left,←,1.2838510000146925,True,30,-,-,-
Y2-S2-270K21,1,9,PS,train,47,→,right,→,0.7743129000300542,True,30,-,-,-
Y2-S2-270K21,1,10,PS,train,30,↓,down,↓,0.7578169999178499,True,30,-,-,-
Y2-S2-270K21,2,11,AS,train,49,→,right,→,1.373531199991703,True,45,-,-,-
Y2-S2-270K21,2,12,AS,train,29,←,left,←,1.137635299935937,True,45,-,-,-
Y2-S2-270K21,2,13,AS,train,31,↓,down,↓,0.9884670000756159,True,45,-,-,-
Y2-S2-270K21,2,14,AS,train,34,↑,up,↑,0.9999256000155583,True,45,-,-,-
Y2-S2-270K21,2,15,AS,train,47,↓,down,↓,0.8171918999869376,True,45,-,-,-
Y2-S2-270K21,2,16,AS,train,49,←,left,←,1.0623527000425383,True,45,-,-,-
Y2-S2-270K21,2,17,AS,train,30,↓,down,↓,0.7507299999706447,True,45,-,-,-
Y2-S2-270K21,2,18,AS,train,42,←,left,←,1.3054941999725997,True,45,-,-,-
Y2-S2-270K21,2,19,AS,train,25,↓,down,↓,0.7670879999641329,True,45,-,-,-
Y2-S2-270K21,2,20,AS,train,29,←,left,←,1.1604760000482202,True,45,-,-,-
Y2-S2-270K21,-,21,PS,adaptive,40,↓,down,↓,1.0584178999997675,True,10,0,0,0
Y2-S2-270K21,-,22,PS,adaptive,48,←,left,←,1.6850375999929383,True,10,0,0,0
Y2-S2-270K21,-,23,PS,adaptive,45,→,right,→,0.744662499986589,True,10,1,0,0
Y2-S2-270K21,-,24,PS,adaptive,29,←,right,→,1.5354421000229195,False,9,-1,1,1
Y2-S2-270K21,-,25,PS,adaptive,39,↑,up,↑,0.818060899968259,True,10,-1,0,1
Y2-S2-270K21,-,26,PS,adaptive,43,↓,no_key,no_letter,-1.0,False,10,-1,0,1
Y2-S2-270K21,-,27,PS,adaptive,47,→,right,→,0.7432671999558806,True,11,-1,0,1
Y2-S2-270K21,-,28,PS,adaptive,42,↓,down,↓,0.6450912000145763,True,11,-1,0,1
Y2-S2-270K21,-,29,PS,adaptive,49,↑,up,↑,0.8976338000502437,True,11,1,1,2
Y2-S2-270K21,-,30,PS,adaptive,35,←,left,←,1.2336320000467822,True,10,1,0,2
Y2-S2-270K21,-,31,PS,adaptive,40,↓,down,↓,0.8445107999723405,True,10,1,0,2
Y2-S2-270K21,-,32,PS,adaptive,31,→,down,↓,1.689714299980551,False,10,-1,1,3
Y2-S2-270K21,-,33,PS,adaptive,31,←,left,←,0.8902678999584168,True,11,-1,0,3
Y2-S2-270K21,-,34,PS,adaptive,26,↑,up,↑,1.3644778999732807,True,11,-1,0,3
Y2-S2-270K21,-,35,PS,adaptive,39,↓,down,↓,0.894185799988918,True,11,1,1,4
Y2-S2-270K21,-,36,AS,adaptive,43,↑,up,↑,1.3321518999291584,True,20,0,0,0
Y2-S2-270K21,-,37,AS,adaptive,30,→,no_key,no_letter,-1.0,False,20,-1,0,0
Y2-S2-270K21,-,38,AS,adaptive,41,↓,down,↓,0.8416967999655753,True,21,-1,0,0
Y2-S2-270K21,-,39,AS,adaptive,25,↑,up,↑,1.007044899975881,True,21,-1,0,0
Y2-S2-270K21,-,40,AS,adaptive,49,↓,down,↓,0.7343297000043094,True,21,1,1,1
Y2-S2-270K21,-,41,AS,adaptive,37,←,left,←,0.8618107000365853,True,20,1,0,1
Y2-S2-270K21,-,42,AS,adaptive,27,↓,down,↓,0.7433252000482753,True,20,1,0,1
Y2-S2-270K21,-,43,AS,adaptive,44,→,right,→,1.2966019000159577,True,20,1,0,1
Y2-S2-270K21,-,44,AS,adaptive,49,↑,down,↓,1.5639189999783412,False,19,-1,1,2
Y2-S2-270K21,-,45,AS,adaptive,35,←,left,←,0.8714173999615014,True,20,-1,0,2
Y2-S2-270K21,-,46,AS,adaptive,26,↑,up,↑,1.0679703999776393,True,20,-1,0,2
Y2-S2-270K21,-,47,AS,adaptive,38,→,right,→,1.3826010000193492,True,20,1,1,3
Y2-S2-270K21,-,48,AS,adaptive,37,←,left,←,1.2466814999934286,True,19,1,0,3
Y2-S2-270K21,-,49,AS,adaptive,40,↑,up,↑,1.3373091000830755,True,19,1,0,3
Y2-S2-270K21,-,50,AS,adaptive,46,→,left,←,1.7846427999902517,False,19,-1,1,4
Y2-S2-270K21,1,51,AS,intra_train,40,←,left,←,1.2736387000186369,True,30,-,-,-
Y2-S2-270K21,1,52,AS,intra_train,49,→,right,→,1.0438882999587804,True,30,-,-,-
Y2-S2-270K21,1,53,AS,intra_train,25,↓,down,↓,0.8693615000229329,True,30,-,-,-
Y2-S2-270K21,1,54,AS,intra_train,43,↑,up,↑,1.2315716999582946,True,30,-,-,-
Y2-S2-270K21,1,55,AS,intra_train,32,←,left,←,0.8231650999514386,True,30,-,-,-
Y2-S2-270K21,1,56,AS,exp,50,↓,down,↓,0.9682771000079811,True,20,0,0,0
Y2-S2-270K21,1,57,AS,exp,32,→,right,→,1.166471300064586,True,20,0,0,0
Y2-S2-270K21,1,58,AS,exp,32,↓,down,↓,1.029647000017576,True,20,1,0,0
Y2-S2-270K21,1,59,AS,exp,37,→,right,→,0.8174584000371397,True,19,1,0,0
Y2-S2-270K21,1,60,AS,exp,46,←,left,←,0.9076857999898493,True,19,1,0,0
Y2-S2-270K21,1,61,AS,exp,25,→,right,→,0.7959282000083476,True,19,1,0,0
Y2-S2-270K21,1,62,AS,exp,43,↑,down,↓,1.506007599993609,False,18,-1,1,1
Y2-S2-270K21,1,63,AS,exp,48,←,left,←,1.0138503999914974,True,19,-1,0,1
Y2-S2-270K21,1,64,AS,exp,27,↓,no_key,no_letter,-1.0,False,19,-1,0,1
Y2-S2-270K21,1,65,AS,exp,32,→,right,→,0.797361999982968,True,20,-1,0,1
Y2-S2-270K21,1,66,AS,exp,28,↑,no_key,no_letter,-1.0,False,20,-1,0,1
Y2-S2-270K21,1,67,AS,exp,32,←,left,←,1.8813542999560013,True,21,-1,0,1
Y2-S2-270K21,1,68,AS,exp,31,↑,up,↑,0.842144800000824,True,21,-1,0,1
Y2-S2-270K21,1,69,AS,exp,44,←,left,←,1.3042252000886947,True,21,1,1,2
Y2-S2-270K21,1,70,AS,exp,28,↑,no_key,no_letter,-1.0,False,20,-1,1,3
Y2-S2-270K21,1,71,AS,exp,44,←,left,←,1.0941685000434518,True,21,-1,0,3
Y2-S2-270K21,1,72,AS,exp,36,↓,left,←,1.608838799991645,False,21,-1,0,3
Y2-S2-270K21,1,73,AS,exp,39,↑,up,↑,0.9558921999996528,True,22,-1,0,3
Y2-S2-270K21,1,74,AS,exp,32,←,left,←,1.1722525000805035,True,22,-1,0,3
Y2-S2-270K21,1,75,AS,exp,50,↓,down,↓,0.8555316999554634,True,22,1,1,4
Y2-S2-270K21,1,76,AS,exp,48,←,left,←,0.9256028999807313,True,21,1,0,4
Y2-S2-270K21,1,77,AS,exp,35,↑,up,↑,1.2387878000736237,True,21,1,0,4
Y2-S2-270K21,1,78,AS,exp,40,→,right,→,0.7370335999876261,True,21,1,0,4
Y2-S2-270K21,1,79,AS,exp,27,←,left,←,0.7524973000399768,True,20,1,0,4
Y2-S2-270K21,1,80,AS,exp,35,↓,down,↓,1.0657844999805093,True,20,1,0,4
Y2-S2-270K21,1,81,AS,exp,39,←,left,←,0.891750399954617,True,20,1,0,4
Y2-S2-270K21,1,82,AS,exp,46,↑,no_key,no_letter,-1.0,False,19,-1,1,5
Y2-S2-270K21,1,83,AS,exp,36,←,left,←,0.699590599979274,True,20,-1,0,5
Y2-S2-270K21,1,84,AS,exp,43,↓,down,↓,1.0136026000836864,True,20,-1,0,5
Y2-S2-270K21,1,85,AS,exp,31,←,left,←,1.0957515999907628,True,20,1,1,6
Y2-S2-270K21,1,86,AS,exp,31,→,right,→,0.6261333000147715,True,19,1,0,6
Y2-S2-270K21,1,87,AS,exp,25,↓,right,→,1.112724700011313,False,19,-1,1,7
Y2-S2-270K21,1,88,AS,exp,44,→,right,→,1.228124300017953,True,20,-1,0,7
Y2-S2-270K21,1,89,AS,exp,41,↑,up,↑,1.1766876999754459,True,20,-1,0,7
Y2-S2-270K21,1,90,AS,exp,27,↓,down,↓,0.6274512999225408,True,20,1,1,8
Y2-S2-270K21,1,91,AS,exp,50,←,right,→,0.955194600042887,False,19,-1,1,9
Y2-S2-270K21,1,92,AS,exp,30,↑,left,←,1.0755386999808252,False,20,-1,0,9
Y2-S2-270K21,1,93,AS,exp,37,→,right,→,0.9154639000771567,True,21,-1,0,9
Y2-S2-270K21,1,94,AS,exp,44,←,right,→,1.099652100005187,False,21,-1,0,9
Y2-S2-270K21,1,95,AS,exp,27,↓,down,↓,0.9833791999844834,True,22,-1,0,9
Y2-S2-270K21,1,96,AS,exp,30,↑,up,↑,1.0682828999124467,True,22,-1,0,9
Y2-S2-270K21,1,97,AS,exp,27,←,left,←,0.9779094000114128,True,22,1,1,10
Y2-S2-270K21,1,98,AS,exp,28,↑,up,↑,1.0084066999843344,True,21,1,0,10
Y2-S2-270K21,1,99,AS,exp,30,←,down,↓,1.5265860999934375,False,21,-1,1,11
Y2-S2-270K21,1,100,AS,exp,37,↓,down,↓,0.651628699968569,True,22,-1,0,11
Y2-S2-270K21,1,101,AS,exp,33,←,left,←,1.4614157000323758,True,22,-1,0,11
Y2-S2-270K21,1,102,AS,exp,35,↑,up,↑,0.8751431000418961,True,22,1,1,12
Y2-S2-270K21,1,103,AS,exp,25,↓,up,↑,1.4274163999361917,False,21,-1,1,13
Y2-S2-270K21,1,104,AS,exp,41,←,left,←,1.04621510009747,True,22,-1,0,13
Y2-S2-270K21,1,105,AS,exp,46,↓,left,←,1.4681250000139698,False,22,-1,0,13
Y2-S2-270K21,1,106,AS,exp,32,↑,up,↑,1.0866094999946654,True,23,-1,0,13
Y2-S2-270K21,1,107,AS,exp,48,←,left,←,0.9574394000228494,True,23,-1,0,13
Y2-S2-270K21,1,108,AS,exp,27,↑,up,↑,0.9425918000051752,True,23,1,1,14
Y2-S2-270K21,1,109,AS,exp,41,→,right,→,1.3037933999439701,True,22,1,0,14
Y2-S2-270K21,1,110,AS,exp,43,←,right,→,1.0608417000621557,False,22,-1,1,15
Y2-S2-270K21,1,111,AS,exp,46,↑,up,↑,0.97757270000875,True,23,-1,0,15
Y2-S2-270K21,1,112,AS,exp,40,←,no_key,no_letter,-1.0,False,23,-1,0,15
Y2-S2-270K21,1,113,AS,exp,30,→,right,→,0.7283545000245795,True,24,-1,0,15
Y2-S2-270K21,1,114,AS,exp,39,↓,down,↓,1.1167650000425056,True,24,-1,0,15
Y2-S2-270K21,1,115,AS,exp,38,↑,up,↑,1.1076278999680653,True,24,1,1,16
Y2-S2-270K21,2,116,PS,intra_train,42,↓,down,↓,0.9403340999269858,True,15,-,-,-
Y2-S2-270K21,2,117,PS,intra_train,45,↑,up,↑,0.7113096000393853,True,15,-,-,-
Y2-S2-270K21,2,118,PS,intra_train,26,↓,down,↓,0.8808341999538243,True,15,-,-,-
Y2-S2-270K21,2,119,PS,intra_train,45,←,left,←,0.7429035999812186,True,15,-,-,-
Y2-S2-270K21,2,120,PS,intra_train,42,↑,up,↑,0.7232949999161065,True,15,-,-,-
Y2-S2-270K21,2,121,PS,exp,49,←,left,←,0.8007034999318421,True,10,0,0,0
Y2-S2-270K21,2,122,PS,exp,35,→,left,←,0.8159231999889016,False,10,-1,0,0
Y2-S2-270K21,2,123,PS,exp,28,←,left,←,0.6688090999377891,True,11,-1,0,0
Y2-S2-270K21,2,124,PS,exp,25,↑,up,↑,0.763441100018099,True,11,-1,0,0
Y2-S2-270K21,2,125,PS,exp,25,→,right,→,1.0669682000298053,True,11,1,1,1
Y2-S2-270K21,2,126,PS,exp,37,↑,up,↑,1.4868352999910712,True,10,1,0,1
Y2-S2-270K21,2,127,PS,exp,46,↓,up,↑,1.0686360000399873,False,10,-1,1,2
Y2-S2-270K21,2,128,PS,exp,27,←,right,→,1.0377970000263304,False,11,-1,0,2
Y2-S2-270K21,2,129,PS,exp,36,↓,down,↓,0.9781468000728637,True,12,-1,0,2
Y2-S2-270K21,2,130,PS,exp,45,←,left,←,0.7982580999378115,True,12,-1,0,2
Y2-S2-270K21,2,131,PS,exp,42,↑,up,↑,0.8480507000349462,True,12,1,1,3
Y2-S2-270K21,2,132,PS,exp,46,←,left,←,1.0167269998928532,True,11,1,0,3
Y2-S2-270K21,2,133,PS,exp,44,→,left,←,0.7556706999894232,False,11,-1,1,4
Y2-S2-270K21,2,134,PS,exp,25,↑,no_key,no_letter,-1.0,False,12,-1,0,4
Y2-S2-270K21,2,135,PS,exp,25,→,right,→,0.5624503999715671,True,13,-1,0,4
Y2-S2-270K21,2,136,PS,exp,49,↓,up,↑,1.0862090000882745,False,13,-1,0,4
Y2-S2-270K21,2,137,PS,exp,44,→,right,→,0.688483800040558,True,14,-1,0,4
Y2-S2-270K21,2,138,PS,exp,31,←,left,←,1.1238944999640808,True,14,-1,0,4
Y2-S2-270K21,2,139,PS,exp,39,↓,down,↓,0.8672944999998435,True,14,1,1,5
Y2-S2-270K21,2,140,PS,exp,37,↑,up,↑,0.7347967999521643,True,13,1,0,5
Y2-S2-270K21,2,141,PS,exp,28,→,right,→,0.6478664999594912,True,13,1,0,5
Y2-S2-270K21,2,142,PS,exp,34,↑,down,↓,1.2302734999684617,False,13,-1,1,6
Y2-S2-270K21,2,143,PS,exp,42,↓,down,↓,0.573769300011918,True,14,-1,0,6
Y2-S2-270K21,2,144,PS,exp,50,↑,left,←,1.521314200013876,False,14,-1,0,6
Y2-S2-270K21,2,145,PS,exp,33,↓,down,↓,0.44377969997003675,True,15,-1,0,6
Y2-S2-270K21,2,146,PS,exp,42,←,down,↓,0.6292665000073612,False,15,-1,0,6
Y2-S2-270K21,2,147,PS,exp,26,↑,up,↑,0.9013979000737891,True,16,-1,0,6
Y2-S2-270K21,2,148,PS,exp,40,→,right,→,0.9171323999762535,True,16,-1,0,6
Y2-S2-270K21,2,149,PS,exp,34,←,left,←,0.8108526000287384,True,16,1,1,7
Y2-S2-270K21,2,150,PS,exp,39,→,right,→,0.6485267999814823,True,15,1,0,7
Y2-S2-270K21,2,151,PS,exp,45,↓,down,↓,0.8402759999735281,True,15,1,0,7
Y2-S2-270K21,2,152,PS,exp,41,←,right,→,0.8087518999818712,False,15,-1,1,8
Y2-S2-270K21,2,153,PS,exp,41,↓,down,↓,0.6750848999945447,True,16,-1,0,8
Y2-S2-270K21,2,154,PS,exp,34,↑,up,↑,0.835091800079681,True,16,-1,0,8
Y2-S2-270K21,2,155,PS,exp,38,↓,down,↓,0.576204500044696,True,16,1,1,9
Y2-S2-270K21,2,156,PS,exp,46,↑,up,↑,0.8434354000492021,True,15,1,0,9
Y2-S2-270K21,2,157,PS,exp,28,↓,down,↓,0.6896048000780866,True,15,1,0,9
Y2-S2-270K21,2,158,PS,exp,46,→,right,→,0.9026746999006718,True,15,1,0,9
Y2-S2-270K21,2,159,PS,exp,25,↑,up,↑,0.6541341999545693,True,14,1,0,9
Y2-S2-270K21,2,160,PS,exp,48,→,up,↑,1.1646748000057414,False,14,-1,1,10
Y2-S2-270K21,2,161,PS,exp,39,↓,down,↓,0.7424737999681383,True,15,-1,0,10
Y2-S2-270K21,2,162,PS,exp,31,↑,up,↑,0.8082477999851108,True,15,-1,0,10
Y2-S2-270K21,2,163,PS,exp,48,↓,down,↓,0.7234845000784844,True,15,1,1,11
Y2-S2-270K21,2,164,PS,exp,40,↑,up,↑,0.6705762000055984,True,14,1,0,11
Y2-S2-270K21,2,165,PS,exp,32,←,no_key,no_letter,-1.0,False,14,-1,1,12
Y2-S2-270K21,2,166,PS,exp,36,→,right,→,0.5118858000496402,True,15,-1,0,12
Y2-S2-270K21,2,167,PS,exp,42,↑,up,↑,0.9287113000173122,True,15,-1,0,12
Y2-S2-270K21,2,168,PS,exp,48,↓,down,↓,0.6198035000124946,True,15,1,1,13
Y2-S2-270K21,2,169,PS,exp,28,↑,up,↑,0.8727874000323936,True,14,1,0,13
Y2-S2-270K21,2,170,PS,exp,45,←,left,←,0.9404473999748006,True,14,1,0,13
Y2-S2-270K21,2,171,PS,exp,34,→,right,→,0.9043457000516355,True,14,1,0,13
Y2-S2-270K21,2,172,PS,exp,42,←,left,←,0.9567199000157416,True,13,1,0,13
Y2-S2-270K21,2,173,PS,exp,37,↑,up,↑,1.1898149999324232,True,13,1,0,13
Y2-S2-270K21,2,174,PS,exp,42,→,down,↓,1.0050849000690505,False,13,-1,1,14
Y2-S2-270K21,2,175,PS,exp,36,←,left,←,0.8121245999354869,True,14,-1,0,14
Y2-S2-270K21,2,176,PS,exp,30,↓,down,↓,0.7389107999624684,True,14,-1,0,14
Y2-S2-270K21,2,177,PS,exp,36,↑,right,→,1.2198181999847293,False,14,-1,0,14
Y2-S2-270K21,2,178,PS,exp,35,↓,down,↓,0.7209772999631241,True,15,-1,0,14
Y2-S2-270K21,2,179,PS,exp,34,→,right,→,0.6909169999416918,True,15,-1,0,14
Y2-S2-270K21,2,180,PS,exp,36,↑,up,↑,1.1048485999926925,True,15,1,1,15
Y2-S2-270K21,2,181,PS,exp,27,→,right,→,0.745746299973689,True,14,1,0,15
Y2-S2-270K21,2,182,PS,exp,39,↑,up,↑,0.6797908999724314,True,14,1,0,15
Y2-S2-270K21,2,183,PS,exp,46,←,left,←,1.402001699898392,True,14,1,0,15
Y2-S2-270K21,2,184,PS,exp,41,↑,up,↑,0.8491827000398189,True,13,1,0,15
Y2-S2-270K21,2,185,PS,exp,26,←,left,←,0.7924684999743477,True,13,1,0,15
Y2-S2-270K21,2,186,PS,exp,48,↓,down,↓,0.665218000067398,True,13,1,0,15
Y2-S2-270K21,2,187,PS,exp,36,→,right,→,0.5087657000403851,True,12,1,0,15
Y2-S2-270K21,2,188,PS,exp,50,↓,down,↓,0.6615708000026643,True,12,1,0,15
Y2-S2-270K21,2,189,PS,exp,26,←,left,←,0.7318097999086604,True,12,1,0,15
Y2-S2-270K21,2,190,PS,exp,48,↑,up,↑,0.9526999000227079,True,11,1,0,15
Y2-S2-270K21,2,191,PS,exp,40,←,right,→,0.7628801000537351,False,11,-1,1,16
Y2-S2-270K21,3,192,PS,intra_train,29,→,right,→,1.0664477000245824,True,15,-,-,-
Y2-S2-270K21,3,193,PS,intra_train,29,←,left,←,1.149135100073181,True,15,-,-,-
Y2-S2-270K21,3,194,PS,intra_train,42,→,right,→,0.8491980999242514,True,15,-,-,-
Y2-S2-270K21,3,195,PS,intra_train,41,↑,up,↑,1.0025341999717057,True,15,-,-,-
Y2-S2-270K21,3,196,PS,intra_train,47,→,right,→,0.6535217999480665,True,15,-,-,-
Y2-S2-270K21,3,197,PS,exp,35,↓,down,↓,0.653427500044927,True,10,0,0,0
Y2-S2-270K21,3,198,PS,exp,41,↑,up,↑,0.9598447000607848,True,10,0,0,0
Y2-S2-270K21,3,199,PS,exp,32,↓,right,→,0.9195533000165597,False,10,-1,0,0
Y2-S2-270K21,3,200,PS,exp,48,↑,up,↑,1.7660859000170603,True,11,-1,0,0
Y2-S2-270K21,3,201,PS,exp,31,←,left,←,0.9526195999933407,True,11,-1,0,0
Y2-S2-270K21,3,202,PS,exp,42,→,right,→,0.5648015999468043,True,11,1,1,1
Y2-S2-270K21,3,203,PS,exp,33,↓,down,↓,0.6210610000416636,True,10,1,0,1
Y2-S2-270K21,3,204,PS,exp,40,↑,up,↑,1.062954599969089,True,10,1,0,1
Y2-S2-270K21,3,205,PS,exp,34,←,left,←,0.901023400016129,True,10,1,0,1
Y2-S2-270K21,3,206,PS,exp,27,↑,up,↑,0.842854299931787,True,9,1,0,1
Y2-S2-270K21,3,207,PS,exp,29,→,right,→,0.5634164999937639,True,9,1,0,1
Y2-S2-270K21,3,208,PS,exp,35,←,left,←,0.9045056999893859,True,9,1,0,1
Y2-S2-270K21,3,209,PS,exp,47,↑,up,↑,0.7941268000286072,True,8,1,0,1
Y2-S2-270K21,3,210,PS,exp,45,→,right,→,0.7528149000136182,True,8,1,0,1
Y2-S2-270K21,3,211,PS,exp,47,↑,up,↑,0.9238803000189364,True,8,1,0,1
Y2-S2-270K21,3,212,PS,exp,26,↓,down,↓,1.1817954001016915,True,7,1,0,1
Y2-S2-270K21,3,213,PS,exp,36,→,right,→,0.597162599908188,True,7,1,0,1
Y2-S2-270K21,3,214,PS,exp,32,↓,down,↓,1.0977465000469238,True,7,1,0,1
Y2-S2-270K21,3,215,PS,exp,50,↑,up,↑,0.7117583999643102,True,6,1,0,1
Y2-S2-270K21,3,216,PS,exp,42,↓,down,↓,0.6205711999209598,True,6,1,0,1
Y2-S2-270K21,3,217,PS,exp,43,→,right,→,0.6955408999929205,True,6,1,0,1
Y2-S2-270K21,3,218,PS,exp,46,↓,right,→,0.9136827999027446,False,5,-1,1,2
Y2-S2-270K21,3,219,PS,exp,43,→,no_key,no_letter,-1.0,False,6,-1,0,2
Y2-S2-270K21,3,220,PS,exp,43,←,left,←,1.0949944000458345,True,7,-1,0,2
Y2-S2-270K21,3,221,PS,exp,45,→,right,→,0.5572591000236571,True,7,-1,0,2
Y2-S2-270K21,3,222,PS,exp,40,←,no_key,no_letter,-1.0,False,7,-1,0,2
Y2-S2-270K21,3,223,PS,exp,35,↑,right,→,0.611496299970895,False,8,-1,0,2
Y2-S2-270K21,3,224,PS,exp,44,←,left,←,0.8588662999682128,True,9,-1,0,2
Y2-S2-270K21,3,225,PS,exp,26,→,right,→,0.6230251000961289,True,9,-1,0,2
Y2-S2-270K21,3,226,PS,exp,30,↓,right,→,1.2750271999975666,False,9,-1,0,2
Y2-S2-270K21,3,227,PS,exp,49,↑,up,↑,0.8708695999812335,True,10,-1,0,2
Y2-S2-270K21,3,228,PS,exp,29,→,left,←,1.4383620000444353,False,10,-1,0,2
Y2-S2-270K21,3,229,PS,exp,39,↓,down,↓,0.5160470000701025,True,11,-1,0,2
Y2-S2-270K21,3,230,PS,exp,25,←,left,←,1.0414803000167012,True,11,-1,0,2
Y2-S2-270K21,3,231,PS,exp,32,→,right,→,1.2451177999610081,True,11,1,1,3
Y2-S2-270K21,3,232,PS,exp,27,↓,down,↓,0.6502737000118941,True,10,1,0,3
Y2-S2-270K21,3,233,PS,exp,28,→,right,→,0.5149471000768244,True,10,1,0,3
Y2-S2-270K21,3,234,PS,exp,38,↓,no_key,no_letter,-1.0,False,10,-1,1,4
Y2-S2-270K21,3,235,PS,exp,43,↑,up,↑,1.6259575999574736,True,11,-1,0,4
Y2-S2-270K21,3,236,PS,exp,43,←,left,←,0.6431479000020772,True,11,-1,0,4
Y2-S2-270K21,3,237,PS,exp,39,→,right,→,0.5942522999830544,True,11,1,1,5
Y2-S2-270K21,3,238,PS,exp,25,←,left,←,0.5789208000060171,True,10,1,0,5
Y2-S2-270K21,3,239,PS,exp,35,→,right,→,1.1254233999643475,True,10,1,0,5
Y2-S2-270K21,3,240,PS,exp,31,↓,down,↓,0.8332850999431685,True,10,1,0,5
Y2-S2-270K21,3,241,PS,exp,33,←,left,←,0.637837199959904,True,9,1,0,5
Y2-S2-270K21,3,242,PS,exp,35,↓,down,↓,0.7875361999031156,True,9,1,0,5
Y2-S2-270K21,3,243,PS,exp,33,→,right,→,0.5444292000029236,True,9,1,0,5
Y2-S2-270K21,3,244,PS,exp,36,↓,down,↓,0.9008736999239773,True,8,1,0,5
Y2-S2-270K21,3,245,PS,exp,28,↑,no_key,no_letter,-1.0,False,8,-1,1,6
Y2-S2-270K21,3,246,PS,exp,46,→,right,→,0.8975673000095412,True,9,-1,0,6
Y2-S2-270K21,3,247,PS,exp,33,↑,up,↑,0.9358985000289977,True,9,-1,0,6
Y2-S2-270K21,3,248,PS,exp,41,→,right,→,0.8692022999748588,True,9,1,1,7
Y2-S2-270K21,3,249,PS,exp,26,←,down,↓,1.0210658999858424,False,8,-1,1,8
Y2-S2-270K21,3,250,PS,exp,45,↓,down,↓,0.7240677999798208,True,9,-1,0,8
Y2-S2-270K21,3,251,PS,exp,34,↑,up,↑,0.9176230999873951,True,9,-1,0,8
Y2-S2-270K21,3,252,PS,exp,32,→,right,→,0.6870760000310838,True,9,1,1,9
Y2-S2-270K21,3,253,PS,exp,48,←,left,←,1.1133645999943838,True,8,1,0,9
Y2-S2-270K21,3,254,PS,exp,30,↑,left,←,0.882421699934639,False,8,-1,1,10
Y2-S2-270K21,3,255,PS,exp,29,→,right,→,0.6063512000255287,True,9,-1,0,10
Y2-S2-270K21,3,256,PS,exp,29,↓,down,↓,0.7791165000526235,True,9,-1,0,10
Y2-S2-270K21,3,257,PS,exp,33,↑,up,↑,0.7767080999910831,True,9,1,1,11
Y2-S2-270K21,3,258,PS,exp,28,→,down,↓,1.4074079999700189,False,8,-1,1,12
Y2-S2-270K21,3,259,PS,exp,43,←,no_key,no_letter,-1.0,False,9,-1,0,12
Y2-S2-270K21,3,260,PS,exp,28,→,right,→,0.5274842999642715,True,10,-1,0,12
Y2-S2-270K21,3,261,PS,exp,48,←,left,←,0.9095939999679103,True,10,-1,0,12
Y2-S2-270K21,3,262,PS,exp,39,↓,right,→,1.3623588000191376,False,10,-1,0,12
Y2-S2-270K21,3,263,PS,exp,32,↑,no_key,no_letter,-1.0,False,11,-1,0,12
Y2-S2-270K21,3,264,PS,exp,48,←,left,←,0.9062599999597296,True,12,-1,0,12
Y2-S2-270K21,3,265,PS,exp,50,↓,down,↓,0.8349148998968303,True,12,-1,0,12
Y2-S2-270K21,3,266,PS,exp,48,←,right,→,1.1984926000004634,False,12,-1,0,12
Y2-S2-270K21,3,267,PS,exp,38,↓,down,↓,0.4679442000342533,True,13,-1,0,12
Y2-S2-270K21,3,268,PS,exp,48,→,right,→,0.6430015000514686,True,13,-1,0,12
Y2-S2-270K21,3,269,PS,exp,33,←,left,←,1.583519299980253,True,13,1,1,13
Y2-S2-270K21,3,270,PS,exp,37,↓,down,↓,0.6477500000037253,True,12,1,0,13
Y2-S2-270K21,3,271,PS,exp,44,←,up,↑,1.549749800004065,False,12,-1,1,14
Y2-S2-270K21,3,272,PS,exp,28,→,left,←,1.3150836999993771,False,13,-1,0,14
Y2-S2-270K21,3,273,PS,exp,39,↑,right,→,1.3529793999623507,False,14,-1,0,14
Y2-S2-270K21,3,274,PS,exp,35,→,right,→,0.7126954999985173,True,15,-1,0,14
Y2-S2-270K21,3,275,PS,exp,34,↓,down,↓,0.7593005000380799,True,15,-1,0,14
Y2-S2-270K21,3,276,PS,exp,33,↑,up,↑,0.7444920000853017,True,15,1,1,15
Y2-S2-270K21,3,277,PS,exp,35,←,no_key,no_letter,-1.0,False,14,-1,1,16
Y2-S2-270K21,4,278,AS,intra_train,49,→,right,→,0.9813622999936342,True,30,-,-,-
Y2-S2-270K21,4,279,AS,intra_train,37,↓,down,↓,0.8478754999814555,True,30,-,-,-
Y2-S2-270K21,4,280,AS,intra_train,40,↑,up,↑,0.9071053999941796,True,30,-,-,-
Y2-S2-270K21,4,281,AS,intra_train,46,↓,down,↓,0.9253308000043035,True,30,-,-,-
Y2-S2-270K21,4,282,AS,intra_train,46,→,right,→,0.7628024000441656,True,30,-,-,-
Y2-S2-270K21,4,283,AS,exp,29,←,left,←,1.3289123999420553,True,20,0,0,0
Y2-S2-270K21,4,284,AS,exp,25,↓,down,↓,0.6844833000795916,True,20,0,0,0
Y2-S2-270K21,4,285,AS,exp,40,←,left,←,0.874055500025861,True,20,1,0,0
Y2-S2-270K21,4,286,AS,exp,40,↓,left,←,1.4678644000086933,False,19,-1,1,1
Y2-S2-270K21,4,287,AS,exp,33,←,left,←,0.8917413998860866,True,20,-1,0,1
Y2-S2-270K21,4,288,AS,exp,47,↓,down,↓,0.7741017000516877,True,20,-1,0,1
Y2-S2-270K21,4,289,AS,exp,30,→,right,→,0.8125088999513537,True,20,1,1,2
Y2-S2-270K21,4,290,AS,exp,29,←,no_key,no_letter,-1.0,False,19,-1,1,3
Y2-S2-270K21,4,291,AS,exp,31,↓,down,↓,0.7539815000491217,True,20,-1,0,3
Y2-S2-270K21,4,292,AS,exp,46,←,left,←,1.0553911000024527,True,20,-1,0,3
Y2-S2-270K21,4,293,AS,exp,45,→,right,→,0.7815566000062972,True,20,1,1,4
Y2-S2-270K21,4,294,AS,exp,48,↑,up,↑,0.8847946999594569,True,19,1,0,4
Y2-S2-270K21,4,295,AS,exp,29,↓,down,↓,1.4343609000789002,True,19,1,0,4
Y2-S2-270K21,4,296,AS,exp,30,→,right,→,0.48952449997887015,True,19,1,0,4
Y2-S2-270K21,4,297,AS,exp,34,↑,down,↓,1.6637529999716207,False,18,-1,1,5
Y2-S2-270K21,4,298,AS,exp,48,→,right,→,0.7197618000209332,True,19,-1,0,5
Y2-S2-270K21,4,299,AS,exp,28,←,left,←,1.6438020000932738,True,19,-1,0,5
Y2-S2-270K21,4,300,AS,exp,48,↓,left,←,1.4452882999321446,False,19,-1,0,5
Y2-S2-270K21,4,301,AS,exp,32,←,right,→,0.5217054999666288,False,20,-1,0,5
Y2-S2-270K21,4,302,AS,exp,47,↑,no_key,no_letter,-1.0,False,21,-1,0,5
Y2-S2-270K21,4,303,AS,exp,48,←,left,←,0.8130730000557378,True,22,-1,0,5
Y2-S2-270K21,4,304,AS,exp,40,↓,down,↓,0.7210438000038266,True,22,-1,0,5
Y2-S2-270K21,4,305,AS,exp,38,→,right,→,0.5546456000301987,True,22,1,1,6
Y2-S2-270K21,4,306,AS,exp,33,↓,down,↓,0.8418993999948725,True,21,1,0,6
Y2-S2-270K21,4,307,AS,exp,26,↑,up,↑,0.8665977000491694,True,21,1,0,6
Y2-S2-270K21,4,308,AS,exp,37,→,right,→,0.8276764000765979,True,21,1,0,6
Y2-S2-270K21,4,309,AS,exp,28,←,left,←,0.707484999904409,True,20,1,0,6
Y2-S2-270K21,4,310,AS,exp,33,↑,down,↓,1.3487184999976307,False,20,-1,1,7
Y2-S2-270K21,4,311,AS,exp,50,→,right,→,0.6101149000460282,True,21,-1,0,7
Y2-S2-270K21,4,312,AS,exp,37,↓,down,↓,1.4763791000004858,True,21,-1,0,7
Y2-S2-270K21,4,313,AS,exp,33,←,left,←,0.8924912000074983,True,21,1,1,8
Y2-S2-270K21,4,314,AS,exp,38,→,right,→,0.6764374999329448,True,20,1,0,8
Y2-S2-270K21,4,315,AS,exp,33,↓,down,↓,1.0544746000086889,True,20,1,0,8
Y2-S2-270K21,4,316,AS,exp,25,←,left,←,0.6930936999851838,True,20,1,0,8
Y2-S2-270K21,4,317,AS,exp,34,→,left,←,1.3498536000261083,False,19,-1,1,9
Y2-S2-270K21,4,318,AS,exp,25,↓,left,←,1.0842128000222147,False,20,-1,0,9
Y2-S2-270K21,4,319,AS,exp,44,→,right,→,0.5924687000224367,True,21,-1,0,9
Y2-S2-270K21,4,320,AS,exp,31,←,left,←,0.6222016999963671,True,21,-1,0,9
Y2-S2-270K21,4,321,AS,exp,25,↓,down,↓,1.7110840999521315,True,21,1,1,10
Y2-S2-270K21,4,322,AS,exp,46,↑,up,↑,1.1711485999403521,True,20,1,0,10
Y2-S2-270K21,4,323,AS,exp,34,←,no_key,no_letter,-1.0,False,20,-1,1,11
Y2-S2-270K21,4,324,AS,exp,31,↑,up,↑,1.4843183000339195,True,21,-1,0,11
Y2-S2-270K21,4,325,AS,exp,38,↓,down,↓,1.0270454999990761,True,21,-1,0,11
Y2-S2-270K21,4,326,AS,exp,41,↑,up,↑,0.8612612000433728,True,21,1,1,12
Y2-S2-270K21,4,327,AS,exp,35,↓,down,↓,0.5973542000865564,True,20,1,0,12
Y2-S2-270K21,4,328,AS,exp,28,↑,up,↑,0.9573192000389099,True,20,1,0,12
Y2-S2-270K21,4,329,AS,exp,41,→,right,→,0.9987340000225231,True,20,1,0,12
Y2-S2-270K21,4,330,AS,exp,43,←,left,←,1.7834899999434128,True,19,1,0,12
Y2-S2-270K21,4,331,AS,exp,39,→,left,←,0.8933342000236735,False,19,-1,1,13
Y2-S2-270K21,4,332,AS,exp,42,↓,right,→,1.162713099969551,False,20,-1,0,13
Y2-S2-270K21,4,333,AS,exp,27,→,right,→,0.6783045999472961,True,21,-1,0,13
Y2-S2-270K21,4,334,AS,exp,33,↓,down,↓,0.8407169000711292,True,21,-1,0,13
Y2-S2-270K21,4,335,AS,exp,33,↑,down,↓,0.9265064999926835,False,21,-1,0,13
Y2-S2-270K21,4,336,AS,exp,47,→,right,→,0.7871690000174567,True,22,-1,0,13
Y2-S2-270K21,4,337,AS,exp,36,↑,up,↑,1.6169142000144348,True,22,-1,0,13
Y2-S2-270K21,4,338,AS,exp,25,↓,down,↓,1.0239125000080094,True,22,1,1,14
Y2-S2-270K21,4,339,AS,exp,38,←,no_key,no_letter,-1.0,False,21,-1,1,15
Y2-S2-270K21,4,340,AS,exp,49,→,right,→,0.853499999968335,True,22,-1,0,15
Y2-S2-270K21,4,341,AS,exp,27,↑,no_key,no_letter,-1.0,False,22,-1,0,15
Y2-S2-270K21,4,342,AS,exp,38,↓,down,↓,0.6708744999486953,True,23,-1,0,15
Y2-S2-270K21,4,343,AS,exp,41,→,right,→,0.8869889000197873,True,23,-1,0,15
Y2-S2-270K21,4,344,AS,exp,36,←,left,←,0.6714987999293953,True,23,1,1,16
Y2-S2-270K21,5,345,AS,intra_train,43,↓,down,↓,1.288671600050293,True,30,-,-,-
Y2-S2-270K21,5,346,AS,intra_train,26,←,left,←,1.0786856999620795,True,30,-,-,-
Y2-S2-270K21,5,347,AS,intra_train,25,→,right,→,1.2295711999759078,True,30,-,-,-
Y2-S2-270K21,5,348,AS,intra_train,46,↑,up,↑,1.0998234000289813,True,30,-,-,-
Y2-S2-270K21,5,349,AS,intra_train,25,→,right,→,0.8491647000191733,True,30,-,-,-
Y2-S2-270K21,5,350,AS,exp,34,←,no_key,no_letter,-1.0,False,20,-1,0,0
Y2-S2-270K21,5,351,AS,exp,36,↓,down,↓,0.742822099942714,True,21,-1,0,0
Y2-S2-270K21,5,352,AS,exp,37,↑,up,↑,1.1015355000272393,True,21,-1,0,0
Y2-S2-270K21,5,353,AS,exp,38,↓,down,↓,0.8124801999656484,True,21,1,1,1
Y2-S2-270K21,5,354,AS,exp,47,←,left,←,0.8720398999284953,True,20,1,0,1
Y2-S2-270K21,5,355,AS,exp,46,→,right,→,0.9417003999697044,True,20,1,0,1
Y2-S2-270K21,5,356,AS,exp,47,↑,up,↑,1.6459991000592709,True,20,1,0,1
Y2-S2-270K21,5,357,AS,exp,45,←,left,←,1.2000718999188393,True,19,1,0,1
Y2-S2-270K21,5,358,AS,exp,35,↓,down,↓,0.8183542999904603,True,19,1,0,1
Y2-S2-270K21,5,359,AS,exp,25,↑,up,↑,0.9570053999777883,True,19,1,0,1
Y2-S2-270K21,5,360,AS,exp,40,→,right,→,0.7622350000310689,True,18,1,0,1
Y2-S2-270K21,5,361,AS,exp,34,↓,left,←,1.3398514000000432,False,18,-1,1,2
Y2-S2-270K21,5,362,AS,exp,25,→,right,→,0.6110461000353098,True,19,-1,0,2
Y2-S2-270K21,5,363,AS,exp,26,↑,up,↑,1.2433090000413358,True,19,-1,0,2
Y2-S2-270K21,5,364,AS,exp,38,←,left,←,1.2484262000070885,True,19,1,1,3
Y2-S2-270K21,5,365,AS,exp,48,↑,up,↑,1.0053764999611303,True,18,1,0,3
Y2-S2-270K21,5,366,AS,exp,35,↓,down,↓,0.706139300018549,True,18,1,0,3
Y2-S2-270K21,5,367,AS,exp,43,→,right,→,0.7122039999812841,True,18,1,0,3
Y2-S2-270K21,5,368,AS,exp,27,↓,right,→,1.0107235999312252,False,17,-1,1,4
Y2-S2-270K21,5,369,AS,exp,27,←,left,←,0.7845403000246733,True,18,-1,0,4
Y2-S2-270K21,5,370,AS,exp,35,↑,up,↑,0.8608804000541568,True,18,-1,0,4
Y2-S2-270K21,5,371,AS,exp,40,←,left,←,1.357430399977602,True,18,1,1,5
Y2-S2-270K21,5,372,AS,exp,26,↑,up,↑,1.0259954999201,True,17,1,0,5
Y2-S2-270K21,5,373,AS,exp,47,→,right,→,0.8269246000563726,True,17,1,0,5
Y2-S2-270K21,5,374,AS,exp,27,↓,down,↓,0.5031733000651002,True,17,1,0,5
Y2-S2-270K21,5,375,AS,exp,33,→,right,→,0.6858037000056356,True,16,1,0,5
Y2-S2-270K21,5,376,AS,exp,50,←,left,←,0.965354899992235,True,16,1,0,5
Y2-S2-270K21,5,377,AS,exp,42,→,left,←,0.8732950000558048,False,16,-1,1,6
Y2-S2-270K21,5,378,AS,exp,38,↓,down,↓,1.458563799969852,True,17,-1,0,6
Y2-S2-270K21,5,379,AS,exp,37,←,left,←,0.7966012000106275,True,17,-1,0,6
Y2-S2-270K21,5,380,AS,exp,50,↓,right,→,0.8490351000800729,False,17,-1,0,6
Y2-S2-270K21,5,381,AS,exp,40,←,left,←,0.8383238000096753,True,18,-1,0,6
Y2-S2-270K21,5,382,AS,exp,37,↓,right,→,0.9368206999497488,False,18,-1,0,6
Y2-S2-270K21,5,383,AS,exp,31,←,down,↓,1.6760475999908522,False,19,-1,0,6
Y2-S2-270K21,5,384,AS,exp,45,↑,up,↑,0.8643578999908641,True,20,-1,0,6
Y2-S2-270K21,5,385,AS,exp,30,↓,down,↓,1.0275633999845013,True,20,-1,0,6
Y2-S2-270K21,5,386,AS,exp,37,↑,up,↑,0.7591937000397593,True,20,1,1,7
Y2-S2-270K21,5,387,AS,exp,32,→,right,→,1.3114266000920907,True,19,1,0,7
Y2-S2-270K21,5,388,AS,exp,29,↑,up,↑,1.0808203000342473,True,19,1,0,7
Y2-S2-270K21,5,389,AS,exp,35,←,left,←,0.6372857999522239,True,19,1,0,7
Y2-S2-270K21,5,390,AS,exp,26,↓,right,→,1.1837912000482902,False,18,-1,1,8
Y2-S2-270K21,5,391,AS,exp,25,→,right,→,1.4164330998901278,True,19,-1,0,8
Y2-S2-270K21,5,392,AS,exp,37,←,left,←,0.9831408000318334,True,19,-1,0,8
Y2-S2-270K21,5,393,AS,exp,44,→,right,→,0.7722990999463946,True,19,1,1,9
Y2-S2-270K21,5,394,AS,exp,41,←,right,→,1.0748431999236345,False,18,-1,1,10
Y2-S2-270K21,5,395,AS,exp,25,↓,no_key,no_letter,-1.0,False,19,-1,0,10
Y2-S2-270K21,5,396,AS,exp,48,↑,no_key,no_letter,-1.0,False,20,-1,0,10
Y2-S2-270K21,5,397,AS,exp,27,→,right,→,0.6532284000422806,True,21,-1,0,10
Y2-S2-270K21,5,398,AS,exp,39,↑,right,→,0.9214349000249058,False,21,-1,0,10
Y2-S2-270K21,5,399,AS,exp,46,↓,down,↓,0.8760650999611244,True,22,-1,0,10
Y2-S2-270K21,5,400,AS,exp,27,↑,up,↑,1.2984784999862313,True,22,-1,0,10
Y2-S2-270K21,5,401,AS,exp,39,↓,down,↓,1.564543200074695,True,22,1,1,11
Y2-S2-270K21,5,402,AS,exp,50,→,right,→,0.6519466999452561,True,21,1,0,11
Y2-S2-270K21,5,403,AS,exp,37,↑,up,↑,0.8696873000590131,True,21,1,0,11
Y2-S2-270K21,5,404,AS,exp,34,↓,down,↓,0.4838774000527337,True,21,1,0,11
Y2-S2-270K21,5,405,AS,exp,32,↑,left,←,1.098897899966687,False,20,-1,1,12
Y2-S2-270K21,5,406,AS,exp,33,←,left,←,1.1338019999675453,True,21,-1,0,12
Y2-S2-270K21,5,407,AS,exp,37,↓,down,↓,1.061350699979812,True,21,-1,0,12
Y2-S2-270K21,5,408,AS,exp,29,←,left,←,0.8399019000353292,True,21,1,1,13
Y2-S2-270K21,5,409,AS,exp,47,→,left,←,1.7610073999967426,False,20,-1,1,14
Y2-S2-270K21,5,410,AS,exp,38,↑,up,↑,1.007472199969925,True,21,-1,0,14
Y2-S2-270K21,5,411,AS,exp,28,←,left,←,0.5871797000290826,True,21,-1,0,14
Y2-S2-270K21,5,412,AS,exp,31,↓,down,↓,0.7647408999036998,True,21,1,1,15
Y2-S2-270K21,5,413,AS,exp,33,→,right,→,0.7522127000847831,True,20,1,0,15
Y2-S2-270K21,5,414,AS,exp,39,←,left,←,0.7651167999720201,True,20,1,0,15
Y2-S2-270K21,5,415,AS,exp,40,↓,down,↓,0.7759314000140876,True,20,1,0,15
Y2-S2-270K21,5,416,AS,exp,35,→,right,→,0.8684745000209659,True,19,1,0,15
Y2-S2-270K21,5,417,AS,exp,41,←,right,→,0.6775958999060094,False,19,-1,1,16
Y2-S2-270K21,6,418,PS,intra_train,34,→,right,→,1.2147037000395358,True,15,-,-,-
Y2-S2-270K21,6,419,PS,intra_train,43,←,left,←,1.0291980999754742,True,15,-,-,-
Y2-S2-270K21,6,420,PS,intra_train,49,→,right,→,0.7047048999229446,True,15,-,-,-
Y2-S2-270K21,6,421,PS,intra_train,29,↓,down,↓,0.6517875998979434,True,15,-,-,-
Y2-S2-270K21,6,422,PS,intra_train,39,←,left,←,0.6171504000667483,True,15,-,-,-
Y2-S2-270K21,6,423,PS,exp,31,→,right,→,1.0072934998897836,True,10,0,0,0
Y2-S2-270K21,6,424,PS,exp,35,↑,left,←,0.9707230000058189,False,10,-1,0,0
Y2-S2-270K21,6,425,PS,exp,42,↓,down,↓,0.7301285000285134,True,11,-1,0,0
Y2-S2-270K21,6,426,PS,exp,44,↑,up,↑,0.7833617000142112,True,11,-1,0,0
Y2-S2-270K21,6,427,PS,exp,34,↓,down,↓,0.5103828000137582,True,11,1,1,1
Y2-S2-270K21,6,428,PS,exp,50,←,right,→,0.6695967999985442,False,10,-1,1,2
Y2-S2-270K21,6,429,PS,exp,50,→,left,←,0.9416324999183416,False,11,-1,0,2
Y2-S2-270K21,6,430,PS,exp,49,↓,down,↓,0.716816799947992,True,12,-1,0,2
Y2-S2-270K21,6,431,PS,exp,33,↑,up,↑,0.8309985999949276,True,12,-1,0,2
Y2-S2-270K21,6,432,PS,exp,50,↓,down,↓,0.7267426999751478,True,12,1,1,3
Y2-S2-270K21,6,433,PS,exp,32,→,right,→,0.6342462999746203,True,11,1,0,3
Y2-S2-270K21,6,434,PS,exp,38,←,left,←,0.8193016001023352,True,11,1,0,3
Y2-S2-270K21,6,435,PS,exp,32,↓,down,↓,0.7005336999427527,True,11,1,0,3
Y2-S2-270K21,6,436,PS,exp,46,↑,left,←,1.0548237999901175,False,10,-1,1,4
Y2-S2-270K21,6,437,PS,exp,48,←,left,←,1.3064283999847248,True,11,-1,0,4
Y2-S2-270K21,6,438,PS,exp,26,↑,right,→,1.1820010000374168,False,11,-1,0,4
Y2-S2-270K21,6,439,PS,exp,46,→,right,→,0.7626140000065789,True,12,-1,0,4
Y2-S2-270K21,6,440,PS,exp,34,←,left,←,0.654647299903445,True,12,-1,0,4
Y2-S2-270K21,6,441,PS,exp,49,↓,right,→,0.9204100000206381,False,12,-1,0,4
Y2-S2-270K21,6,442,PS,exp,25,→,right,→,0.8822868999559432,True,13,-1,0,4
Y2-S2-270K21,6,443,PS,exp,26,↑,up,↑,1.042133100097999,True,13,-1,0,4
Y2-S2-270K21,6,444,PS,exp,41,←,left,←,0.7619898999109864,True,13,1,1,5
Y2-S2-270K21,6,445,PS,exp,45,↓,down,↓,0.551214599981904,True,12,1,0,5
Y2-S2-270K21,6,446,PS,exp,35,→,right,→,0.7552825000602752,True,12,1,0,5
Y2-S2-270K21,6,447,PS,exp,43,↓,down,↓,0.5704805999994278,True,12,1,0,5
Y2-S2-270K21,6,448,PS,exp,39,←,left,←,0.7109289999352768,True,11,1,0,5
Y2-S2-270K21,6,449,PS,exp,49,→,right,→,0.6130089000798762,True,11,1,0,5
Y2-S2-270K21,6,450,PS,exp,28,←,left,←,0.5120619999943301,True,11,1,0,5
Y2-S2-270K21,6,451,PS,exp,31,→,right,→,0.6043610000051558,True,10,1,0,5
Y2-S2-270K21,6,452,PS,exp,49,←,right,→,0.7515954999253154,False,10,-1,1,6
Y2-S2-270K21,6,453,PS,exp,26,→,right,→,0.9094858999596909,True,11,-1,0,6
Y2-S2-270K21,6,454,PS,exp,36,↑,up,↑,0.7537800000282004,True,11,-1,0,6
Y2-S2-270K21,6,455,PS,exp,49,→,right,→,0.5495538000250235,True,11,1,1,7
Y2-S2-270K21,6,456,PS,exp,45,←,left,←,0.6883193999528885,True,10,1,0,7
Y2-S2-270K21,6,457,PS,exp,27,↓,down,↓,0.6526089999824762,True,10,1,0,7
Y2-S2-270K21,6,458,PS,exp,33,←,left,←,0.5604225000133738,True,10,1,0,7
Y2-S2-270K21,6,459,PS,exp,42,↓,down,↓,0.7460328000597656,True,9,1,0,7
Y2-S2-270K21,6,460,PS,exp,30,↑,no_key,no_letter,-1.0,False,9,-1,1,8
Y2-S2-270K21,6,461,PS,exp,40,↓,down,↓,1.2268031999701634,True,10,-1,0,8
Y2-S2-270K21,6,462,PS,exp,38,→,right,→,0.8300618999637663,True,10,-1,0,8
Y2-S2-270K21,6,463,PS,exp,42,↑,up,↑,1.4136268999427557,True,10,1,1,9
Y2-S2-270K21,6,464,PS,exp,48,→,right,→,0.8049111999571323,True,9,1,0,9
Y2-S2-270K21,6,465,PS,exp,50,↓,left,←,1.045656600035727,False,9,-1,1,10
Y2-S2-270K21,6,466,PS,exp,33,→,right,→,1.1280993999680504,True,10,-1,0,10
Y2-S2-270K21,6,467,PS,exp,27,←,left,←,1.065561099909246,True,10,-1,0,10
Y2-S2-270K21,6,468,PS,exp,42,→,right,→,0.9325753999873996,True,10,1,1,11
Y2-S2-270K21,6,469,PS,exp,25,↓,up,↑,1.058338399976492,False,9,-1,1,12
Y2-S2-270K21,6,470,PS,exp,36,↑,up,↑,0.9300326999509707,True,10,-1,0,12
Y2-S2-270K21,6,471,PS,exp,47,↓,left,←,1.0507102999836206,False,10,-1,0,12
Y2-S2-270K21,6,472,PS,exp,36,↑,down,↓,1.6765387000050396,False,11,-1,0,12
Y2-S2-270K21,6,473,PS,exp,35,→,right,→,0.8730395999737084,True,12,-1,0,12
Y2-S2-270K21,6,474,PS,exp,31,←,left,←,1.2719805999659002,True,12,-1,0,12
Y2-S2-270K21,6,475,PS,exp,47,→,right,→,0.7757935000117868,True,12,1,1,13
Y2-S2-270K21,6,476,PS,exp,38,↑,up,↑,1.70182009995915,True,11,1,0,13
Y2-S2-270K21,6,477,PS,exp,39,↓,down,↓,0.5993165000109002,True,11,1,0,13
Y2-S2-270K21,6,478,PS,exp,45,↑,up,↑,1.016501900041476,True,11,1,0,13
Y2-S2-270K21,6,479,PS,exp,38,←,right,→,0.6604380001081154,False,10,-1,1,14
Y2-S2-270K21,6,480,PS,exp,44,↓,left,←,1.2976145000429824,False,11,-1,0,14
Y2-S2-270K21,6,481,PS,exp,41,↑,left,←,0.9554141000844538,False,12,-1,0,14
Y2-S2-270K21,6,482,PS,exp,50,↓,down,↓,1.6733649999368936,True,13,-1,0,14
Y2-S2-270K21,6,483,PS,exp,31,↑,up,↑,0.916931200074032,True,13,-1,0,14
Y2-S2-270K21,6,484,PS,exp,44,↓,no_key,no_letter,-1.0,False,13,-1,0,14
Y2-S2-270K21,6,485,PS,exp,41,←,left,←,0.7275251999963075,True,14,-1,0,14
Y2-S2-270K21,6,486,PS,exp,32,↑,up,↑,1.6056368999416009,True,14,-1,0,14
Y2-S2-270K21,6,487,PS,exp,35,←,left,←,0.7194816000992432,True,14,1,1,15
Y2-S2-270K21,6,488,PS,exp,37,↑,right,→,0.7878160000545904,False,13,-1,1,16
Y2-S2-270K21,7,489,PS,intra_train,43,→,right,→,0.899434500024654,True,15,-,-,-
Y2-S2-270K21,7,490,PS,intra_train,26,↓,down,↓,0.6526582000078633,True,15,-,-,-
Y2-S2-270K21,7,491,PS,intra_train,32,→,right,→,0.5593413000460714,True,15,-,-,-
Y2-S2-270K21,7,492,PS,intra_train,42,↓,down,↓,0.7744988999329507,True,15,-,-,-
Y2-S2-270K21,7,493,PS,intra_train,50,→,right,→,0.7251364999683574,True,15,-,-,-
Y2-S2-270K21,7,494,PS,exp,35,←,left,←,0.6369311000453308,True,10,0,0,0
Y2-S2-270K21,7,495,PS,exp,27,↓,down,↓,0.7555552000412717,True,10,0,0,0
Y2-S2-270K21,7,496,PS,exp,32,↑,up,↑,0.8136746000964195,True,10,1,0,0
Y2-S2-270K21,7,497,PS,exp,31,→,right,→,0.6710672000190243,True,9,1,0,0
Y2-S2-270K21,7,498,PS,exp,26,↑,up,↑,1.22046430001501,True,9,1,0,0
Y2-S2-270K21,7,499,PS,exp,47,←,left,←,0.7937867000000551,True,9,1,0,0
Y2-S2-270K21,7,500,PS,exp,38,↓,down,↓,0.7397686999756843,True,8,1,0,0
Y2-S2-270K21,7,501,PS,exp,29,→,right,→,0.6365013000322506,True,8,1,0,0
Y2-S2-270K21,7,502,PS,exp,25,↑,up,↑,1.7163261000532657,True,8,1,0,0
Y2-S2-270K21,7,503,PS,exp,33,←,left,←,0.9972843999275938,True,7,1,0,0
Y2-S2-270K21,7,504,PS,exp,40,→,right,→,1.1628782000625506,True,7,1,0,0
Y2-S2-270K21,7,505,PS,exp,35,←,left,←,1.0189694999717176,True,7,1,0,0
Y2-S2-270K21,7,506,PS,exp,33,→,right,→,0.925398699939251,True,6,1,0,0
Y2-S2-270K21,7,507,PS,exp,35,↓,down,↓,1.7097146000014618,True,6,1,0,0
Y2-S2-270K21,7,508,PS,exp,25,→,left,←,1.7596047000261024,False,6,-1,1,1
Y2-S2-270K21,7,509,PS,exp,47,↓,no_key,no_letter,-1.0,False,7,-1,0,1
Y2-S2-270K21,7,510,PS,exp,50,→,right,→,1.443947400082834,True,8,-1,0,1
Y2-S2-270K21,7,511,PS,exp,45,↑,up,↑,1.242387600010261,True,8,-1,0,1
Y2-S2-270K21,7,512,PS,exp,28,←,down,↓,1.59185810002964,False,8,-1,0,1
Y2-S2-270K21,7,513,PS,exp,41,↓,down,↓,1.293750200071372,True,9,-1,0,1
Y2-S2-270K21,7,514,PS,exp,36,←,right,→,1.1845404000487179,False,9,-1,0,1
Y2-S2-270K21,7,515,PS,exp,27,↑,right,→,0.8757472999859601,False,10,-1,0,1
Y2-S2-270K21,7,516,PS,exp,32,→,right,→,0.5720477999420837,True,11,-1,0,1
Y2-S2-270K21,7,517,PS,exp,47,↑,up,↑,1.0634092999389395,True,11,-1,0,1
Y2-S2-270K21,7,518,PS,exp,39,←,left,←,0.9751931999344379,True,11,1,1,2
Y2-S2-270K21,7,519,PS,exp,47,↑,right,→,1.127009900053963,False,10,-1,1,3
Y2-S2-270K21,7,520,PS,exp,28,←,left,←,1.3077265999745578,True,11,-1,0,3
Y2-S2-270K21,7,521,PS,exp,42,↓,right,→,1.029559800052084,False,11,-1,0,3
Y2-S2-270K21,7,522,PS,exp,40,←,left,←,1.0337933000409976,True,12,-1,0,3
Y2-S2-270K21,7,523,PS,exp,49,↓,down,↓,0.9012159000849351,True,12,-1,0,3
Y2-S2-270K21,7,524,PS,exp,33,←,left,←,1.1284787999466062,True,12,1,1,4
Y2-S2-270K21,7,525,PS,exp,44,↑,up,↑,0.8801936999661848,True,11,1,0,4
Y2-S2-270K21,7,526,PS,exp,40,↓,down,↓,0.926862399908714,True,11,1,0,4
Y2-S2-270K21,7,527,PS,exp,49,←,left,←,0.8850516000529751,True,11,1,0,4
Y2-S2-270K21,7,528,PS,exp,46,↓,down,↓,0.9160050000064075,True,10,1,0,4
Y2-S2-270K21,7,529,PS,exp,48,←,left,←,0.7256405999651179,True,10,1,0,4
Y2-S2-270K21,7,530,PS,exp,46,↑,up,↑,0.9770850000204518,True,10,1,0,4
Y2-S2-270K21,7,531,PS,exp,42,→,left,←,0.8115279999328777,False,9,-1,1,5
Y2-S2-270K21,7,532,PS,exp,50,↑,up,↑,1.4558071999344975,True,10,-1,0,5
Y2-S2-270K21,7,533,PS,exp,49,↓,down,↓,0.7022426999174058,True,10,-1,0,5
Y2-S2-270K21,7,534,PS,exp,28,←,left,←,0.7297592000104487,True,10,1,1,6
Y2-S2-270K21,7,535,PS,exp,38,↓,left,←,1.1698370999656618,False,9,-1,1,7
Y2-S2-270K21,7,536,PS,exp,36,→,left,←,0.8572696999181062,False,10,-1,0,7
Y2-S2-270K21,7,537,PS,exp,36,↓,down,↓,0.5708108999533579,True,11,-1,0,7
Y2-S2-270K21,7,538,PS,exp,46,→,right,→,0.6732667000032961,True,11,-1,0,7
Y2-S2-270K21,7,539,PS,exp,49,↑,left,←,0.8598651000065729,False,11,-1,0,7
Y2-S2-270K21,7,540,PS,exp,41,→,right,→,0.6506321000633761,True,12,-1,0,7
Y2-S2-270K21,7,541,PS,exp,45,←,up,↑,1.5632523000240326,False,12,-1,0,7
Y2-S2-270K21,7,542,PS,exp,32,→,right,→,0.9118598999921232,True,13,-1,0,7
Y2-S2-270K21,7,543,PS,exp,31,←,left,←,0.8304376000305638,True,13,-1,0,7
Y2-S2-270K21,7,544,PS,exp,29,↑,up,↑,1.1503599000861868,True,13,1,1,8
Y2-S2-270K21,7,545,PS,exp,29,←,down,↓,0.9731502999784425,False,12,-1,1,9
Y2-S2-270K21,7,546,PS,exp,31,↓,down,↓,0.4845758000155911,True,13,-1,0,9
Y2-S2-270K21,7,547,PS,exp,47,→,right,→,0.5962026999332011,True,13,-1,0,9
Y2-S2-270K21,7,548,PS,exp,44,↓,no_key,no_letter,-1.0,False,13,-1,0,9
Y2-S2-270K21,7,549,PS,exp,35,←,left,←,0.6914995999541134,True,14,-1,0,9
Y2-S2-270K21,7,550,PS,exp,50,→,right,→,0.6705068999435753,True,14,-1,0,9
Y2-S2-270K21,7,551,PS,exp,42,↓,down,↓,0.7100955999922007,True,14,1,1,10
Y2-S2-270K21,7,552,PS,exp,40,↑,up,↑,1.6660740999504924,True,13,1,0,10
Y2-S2-270K21,7,553,PS,exp,25,←,left,←,1.2004242000402883,True,13,1,0,10
Y2-S2-270K21,7,554,PS,exp,40,↓,down,↓,0.7280168000143021,True,13,1,0,10
Y2-S2-270K21,7,555,PS,exp,26,↑,up,↑,1.2226176999974996,True,12,1,0,10
Y2-S2-270K21,7,556,PS,exp,29,→,right,→,0.7250883999513462,True,12,1,0,10
Y2-S2-270K21,7,557,PS,exp,26,←,left,←,0.6639221000950783,True,12,1,0,10
Y2-S2-270K21,7,558,PS,exp,49,↓,down,↓,1.4021770999534056,True,11,1,0,10
Y2-S2-270K21,7,559,PS,exp,50,↑,up,↑,0.7327332999557257,True,11,1,0,10
Y2-S2-270K21,7,560,PS,exp,37,↓,down,↓,0.5895247000735253,True,11,1,0,10
Y2-S2-270K21,7,561,PS,exp,49,→,right,→,0.6328872999874875,True,10,1,0,10
Y2-S2-270K21,7,562,PS,exp,31,↑,left,←,0.7926215999759734,False,10,-1,1,11
Y2-S2-270K21,7,563,PS,exp,30,↓,no_key,no_letter,-1.0,False,11,-1,0,11
Y2-S2-270K21,7,564,PS,exp,25,→,right,→,0.5514953000238165,True,12,-1,0,11
Y2-S2-270K21,7,565,PS,exp,31,←,left,←,0.7656359999673441,True,12,-1,0,11
Y2-S2-270K21,7,566,PS,exp,42,→,right,→,0.5576001999434084,True,12,1,1,12
Y2-S2-270K21,7,567,PS,exp,28,↓,left,←,0.8716614000732079,False,11,-1,1,13
Y2-S2-270K21,7,568,PS,exp,44,←,right,→,1.0252118000062183,False,12,-1,0,13
Y2-S2-270K21,7,569,PS,exp,45,→,right,→,0.5305442999815568,True,13,-1,0,13
Y2-S2-270K21,7,570,PS,exp,34,←,left,←,0.9337726000230759,True,13,-1,0,13
Y2-S2-270K21,7,571,PS,exp,50,→,right,→,0.6126468000002205,True,13,1,1,14
Y2-S2-270K21,7,572,PS,exp,42,↓,down,↓,0.6766908999998122,True,12,1,0,14
Y2-S2-270K21,7,573,PS,exp,48,↑,up,↑,1.520985999959521,True,12,1,0,14
Y2-S2-270K21,7,574,PS,exp,33,→,left,←,0.7404435999924317,False,12,-1,1,15
Y2-S2-270K21,7,575,PS,exp,47,↓,down,↓,0.7274154999759048,True,13,-1,0,15
Y2-S2-270K21,7,576,PS,exp,47,→,left,←,0.809989899978973,False,13,-1,0,15
Y2-S2-270K21,7,577,PS,exp,34,↓,down,↓,0.6893954999977723,True,14,-1,0,15
Y2-S2-270K21,7,578,PS,exp,36,→,right,→,0.6631521999370307,True,14,-1,0,15
Y2-S2-270K21,7,579,PS,exp,30,↓,left,←,1.4155875999713317,False,14,-1,0,15
Y2-S2-270K21,7,580,PS,exp,47,←,left,←,1.1781123999971896,True,15,-1,0,15
Y2-S2-270K21,7,581,PS,exp,36,→,right,→,1.2502539999550208,True,15,-1,0,15
Y2-S2-270K21,7,582,PS,exp,42,↓,down,↓,0.8444594000466168,True,15,1,1,16
Y2-S2-270K21,8,583,AS,intra_train,48,←,left,←,1.3718784999800846,True,30,-,-,-
Y2-S2-270K21,8,584,AS,intra_train,36,→,right,→,0.9496626999462023,True,30,-,-,-
Y2-S2-270K21,8,585,AS,intra_train,46,↑,up,↑,1.5348079999675974,True,30,-,-,-
Y2-S2-270K21,8,586,AS,intra_train,45,→,right,→,0.7363522000377998,True,30,-,-,-
Y2-S2-270K21,8,587,AS,intra_train,26,↓,down,↓,0.9228855000110343,True,30,-,-,-
Y2-S2-270K21,8,588,AS,exp,30,↑,down,↓,1.1220240000402555,False,20,-1,0,0
Y2-S2-270K21,8,589,AS,exp,30,→,right,→,0.8204845000291243,True,21,-1,0,0
Y2-S2-270K21,8,590,AS,exp,49,←,left,←,1.0081584999570623,True,21,-1,0,0
Y2-S2-270K21,8,591,AS,exp,25,→,right,→,0.7668291999725625,True,21,1,1,1
Y2-S2-270K21,8,592,AS,exp,45,←,left,←,0.924713300075382,True,20,1,0,1
Y2-S2-270K21,8,593,AS,exp,41,↑,up,↑,1.0160088000120595,True,20,1,0,1
Y2-S2-270K21,8,594,AS,exp,42,←,left,←,0.8416688999859616,True,20,1,0,1
Y2-S2-270K21,8,595,AS,exp,46,↑,up,↑,1.1850255000172183,True,19,1,0,1
Y2-S2-270K21,8,596,AS,exp,28,←,left,←,0.7289195000194013,True,19,1,0,1
Y2-S2-270K21,8,597,AS,exp,30,↑,up,↑,0.8334670999320224,True,19,1,0,1
Y2-S2-270K21,8,598,AS,exp,30,↓,down,↓,0.7642652000067756,True,18,1,0,1
Y2-S2-270K21,8,599,AS,exp,49,↑,down,↓,1.814060700009577,False,18,-1,1,2
Y2-S2-270K21,8,600,AS,exp,37,↓,up,↑,1.3467886000871658,False,19,-1,0,2
Y2-S2-270K21,8,601,AS,exp,25,↑,up,↑,0.9868496999843046,True,20,-1,0,2
Y2-S2-270K21,8,602,AS,exp,44,←,left,←,0.6804794000927359,True,20,-1,0,2
Y2-S2-270K21,8,603,AS,exp,47,↑,up,↑,1.0959608999546617,True,20,1,1,3
Y2-S2-270K21,8,604,AS,exp,50,↓,down,↓,1.418124599964358,True,19,1,0,3
Y2-S2-270K21,8,605,AS,exp,39,↑,up,↑,1.3269738999661058,True,19,1,0,3
Y2-S2-270K21,8,606,AS,exp,48,→,right,→,0.8568529000040144,True,19,1,0,3
Y2-S2-270K21,8,607,AS,exp,38,↑,left,←,1.1211894999723881,False,18,-1,1,4
Y2-S2-270K21,8,608,AS,exp,36,↓,right,→,0.7975852000527084,False,19,-1,0,4
Y2-S2-270K21,8,609,AS,exp,33,←,left,←,0.5683434000238776,True,20,-1,0,4
Y2-S2-270K21,8,610,AS,exp,33,→,right,→,1.4695964999264106,True,20,-1,0,4
Y2-S2-270K21,8,611,AS,exp,43,↓,down,↓,0.6748643000610173,True,20,1,1,5
Y2-S2-270K21,8,612,AS,exp,40,←,left,←,0.853408099967055,True,19,1,0,5
Y2-S2-270K21,8,613,AS,exp,40,→,right,→,0.6389212999492884,True,19,1,0,5
Y2-S2-270K21,8,614,AS,exp,42,↓,down,↓,0.9695656000403687,True,19,1,0,5
Y2-S2-270K21,8,615,AS,exp,42,→,right,→,0.996309099951759,True,18,1,0,5
Y2-S2-270K21,8,616,AS,exp,35,←,left,←,0.5876649999991059,True,18,1,0,5
Y2-S2-270K21,8,617,AS,exp,36,↑,right,→,1.4324262000154704,False,18,-1,1,6
Y2-S2-270K21,8,618,AS,exp,25,→,right,→,0.5144078000448644,True,19,-1,0,6
Y2-S2-270K21,8,619,AS,exp,29,↑,left,←,0.8901455000741407,False,19,-1,0,6
Y2-S2-270K21,8,620,AS,exp,38,→,left,←,1.2472905999748036,False,20,-1,0,6
Y2-S2-270K21,8,621,AS,exp,45,↑,up,↑,1.0178647000575438,True,21,-1,0,6
Y2-S2-270K21,8,622,AS,exp,40,←,left,←,0.9842412000289187,True,21,-1,0,6
Y2-S2-270K21,8,623,AS,exp,47,→,right,→,1.2519406999927014,True,21,1,1,7
Y2-S2-270K21,8,624,AS,exp,33,↓,down,↓,0.9847655999474227,True,20,1,0,7
Y2-S2-270K21,8,625,AS,exp,32,←,left,←,0.8248516999883577,True,20,1,0,7
Y2-S2-270K21,8,626,AS,exp,49,↓,down,↓,0.656374100013636,True,20,1,0,7
Y2-S2-270K21,8,627,AS,exp,26,→,right,→,0.5528216999955475,True,19,1,0,7
Y2-S2-270K21,8,628,AS,exp,41,←,left,←,0.5360505999997258,True,19,1,0,7
Y2-S2-270K21,8,629,AS,exp,25,→,right,→,0.5438499000156298,True,19,1,0,7
Y2-S2-270K21,8,630,AS,exp,45,↑,up,↑,0.8260524000506848,True,18,1,0,7
Y2-S2-270K21,8,631,AS,exp,35,←,right,→,0.7621343999635428,False,18,-1,1,8
Y2-S2-270K21,8,632,AS,exp,37,→,right,→,0.7343824000563473,True,19,-1,0,8
Y2-S2-270K21,8,633,AS,exp,41,↓,down,↓,0.8253293000161648,True,19,-1,0,8
Y2-S2-270K21,8,634,AS,exp,41,↑,down,↓,0.8868919999804348,False,19,-1,0,8
Y2-S2-270K21,8,635,AS,exp,44,→,down,↓,1.4292844999581575,False,20,-1,0,8
Y2-S2-270K21,8,636,AS,exp,25,↓,down,↓,1.126441599917598,True,21,-1,0,8
Y2-S2-270K21,8,637,AS,exp,33,↑,up,↑,0.789645400014706,True,21,-1,0,8
Y2-S2-270K21,8,638,AS,exp,34,→,right,→,0.6842346000485122,True,21,1,1,9
Y2-S2-270K21,8,639,AS,exp,32,↓,right,→,0.9597042999230325,False,20,-1,1,10
Y2-S2-270K21,8,640,AS,exp,46,→,right,→,0.5589200000977144,True,21,-1,0,10
Y2-S2-270K21,8,641,AS,exp,39,←,no_key,no_letter,-1.0,False,21,-1,0,10
Y2-S2-270K21,8,642,AS,exp,43,→,no_key,no_letter,-1.0,False,22,-1,0,10
Y2-S2-270K21,8,643,AS,exp,43,↓,down,↓,0.9364140999969095,True,23,-1,0,10
Y2-S2-270K21,8,644,AS,exp,41,↑,up,↑,1.5068020999897271,True,23,-1,0,10
Y2-S2-270K21,8,645,AS,exp,35,←,left,←,1.0994394000153989,True,23,1,1,11
Y2-S2-270K21,8,646,AS,exp,49,↑,up,↑,1.239046600065194,True,22,1,0,11
Y2-S2-270K21,8,647,AS,exp,38,↓,down,↓,0.6975076000671834,True,22,1,0,11
Y2-S2-270K21,8,648,AS,exp,25,←,left,←,0.718679100042209,True,22,1,0,11
Y2-S2-270K21,8,649,AS,exp,43,↑,up,↑,1.2489523000549525,True,21,1,0,11
Y2-S2-270K21,8,650,AS,exp,34,←,up,↑,1.5328554000006989,False,21,-1,1,12
Y2-S2-270K21,8,651,AS,exp,31,↓,down,↓,1.1974572000326589,True,22,-1,0,12
Y2-S2-270K21,8,652,AS,exp,33,↑,up,↑,0.8327312000328675,True,22,-1,0,12
Y2-S2-270K21,8,653,AS,exp,33,↓,down,↓,0.6056911998894066,True,22,1,1,13
Y2-S2-270K21,8,654,AS,exp,42,←,left,←,1.1731423999881372,True,21,1,0,13
Y2-S2-270K21,8,655,AS,exp,42,↑,up,↑,1.7250587000744417,True,21,1,0,13
Y2-S2-270K21,8,656,AS,exp,38,←,left,←,1.011254399898462,True,21,1,0,13
Y2-S2-270K21,8,657,AS,exp,30,↑,up,↑,0.96017880004365,True,20,1,0,13
Y2-S2-270K21,8,658,AS,exp,35,→,right,→,1.177764100022614,True,20,1,0,13
Y2-S2-270K21,8,659,AS,exp,27,↓,down,↓,1.0109407999552786,True,20,1,0,13
Y2-S2-270K21,8,660,AS,exp,43,→,right,→,0.6002010999945924,True,19,1,0,13
Y2-S2-270K21,8,661,AS,exp,33,↓,right,→,0.9137247999897227,False,19,-1,1,14
Y2-S2-270K21,8,662,AS,exp,47,↑,up,↑,0.8935003000078723,True,20,-1,0,14
Y2-S2-270K21,8,663,AS,exp,31,→,left,←,1.4266992999473587,False,20,-1,0,14
Y2-S2-270K21,8,664,AS,exp,31,↑,up,↑,0.7357536000199616,True,21,-1,0,14
Y2-S2-270K21,8,665,AS,exp,48,→,right,→,0.6818632000358775,True,21,-1,0,14
Y2-S2-270K21,8,666,AS,exp,39,←,left,←,0.8114730999805033,True,21,1,1,15
Y2-S2-270K21,8,667,AS,exp,32,↑,up,↑,0.9147528000175953,True,20,1,0,15
Y2-S2-270K21,8,668,AS,exp,40,→,right,→,0.9905417999252677,True,20,1,0,15
Y2-S2-270K21,8,669,AS,exp,48,↑,up,↑,0.9115656000794843,True,20,1,0,15
Y2-S2-270K21,8,670,AS,exp,48,←,left,←,0.6998302000574768,True,19,1,0,15
Y2-S2-270K21,8,671,AS,exp,34,→,right,→,0.7923823000164703,True,19,1,0,15
Y2-S2-270K21,8,672,AS,exp,28,←,right,→,0.6886038999073207,False,19,-1,1,16
