PART_ID,Block_no,Trial_no,Block_type,Trial_type,CSI,Stim_letter,Key_pressed,letter_choose,Rt,Corr,Stimulus Time,Level,Reversal,Revs_count
Y2-S2-049K21,1,1,PS,train,25,→,right,→,1.4674416000489146,True,30,-,-,-
Y2-S2-049K21,1,2,PS,train,48,↓,down,↓,0.789159000152722,True,30,-,-,-
Y2-S2-049K21,1,3,PS,train,45,↑,up,↑,0.6870103001128882,True,30,-,-,-
Y2-S2-049K21,1,4,PS,train,31,→,right,→,0.6167739999946207,True,30,-,-,-
Y2-S2-049K21,1,5,PS,train,38,↓,down,↓,0.751074800034985,True,30,-,-,-
Y2-S2-049K21,1,6,PS,train,34,←,left,←,0.6764316998887807,True,30,-,-,-
Y2-S2-049K21,1,7,PS,train,33,↓,down,↓,0.7264180998317897,True,30,-,-,-
Y2-S2-049K21,1,8,PS,train,44,→,right,→,0.7276101000607014,True,30,-,-,-
Y2-S2-049K21,1,9,PS,train,29,↑,up,↑,0.6174304999876767,True,30,-,-,-
Y2-S2-049K21,1,10,PS,train,43,↓,down,↓,0.9020930998958647,True,30,-,-,-
Y2-S2-049K21,2,11,AS,train,31,→,right,→,1.4288229001685977,True,45,-,-,-
Y2-S2-049K21,2,12,AS,train,25,←,left,←,1.0701731001026928,True,45,-,-,-
Y2-S2-049K21,2,13,AS,train,26,↑,up,↑,0.9769152998924255,True,45,-,-,-
Y2-S2-049K21,2,14,AS,train,34,↓,down,↓,0.7676762999035418,True,45,-,-,-
Y2-S2-049K21,2,15,AS,train,43,→,right,→,1.2220689998939633,True,45,-,-,-
Y2-S2-049K21,2,16,AS,train,31,←,left,←,1.002034500008449,True,45,-,-,-
Y2-S2-049K21,2,17,AS,train,33,↓,no_key,no_letter,-1.0,False,45,-,-,-
Y2-S2-049K21,2,18,AS,train,33,↑,up,↑,0.8009014001581818,True,45,-,-,-
Y2-S2-049K21,2,19,AS,train,32,←,no_key,no_letter,-1.0,False,45,-,-,-
Y2-S2-049K21,2,20,AS,train,30,↑,no_key,no_letter,-1.0,False,45,-,-,-
Y2-S2-049K21,-,21,PS,adaptive,28,↓,down,↓,0.762875699903816,True,10,0,0,0
Y2-S2-049K21,-,22,PS,adaptive,34,←,left,←,0.6991307002026588,True,10,0,0,0
Y2-S2-049K21,-,23,PS,adaptive,37,→,right,→,0.8596630999818444,True,10,1,0,0
Y2-S2-049K21,-,24,PS,adaptive,30,↓,down,↓,0.8869987998623401,True,9,1,0,0
Y2-S2-049K21,-,25,PS,adaptive,36,↑,down,↓,1.1190835000015795,False,9,-1,1,1
Y2-S2-049K21,-,26,PS,adaptive,30,↓,down,↓,0.7371481000445783,True,10,-1,0,1
Y2-S2-049K21,-,27,PS,adaptive,44,←,left,←,0.7399678998626769,True,10,-1,0,1
Y2-S2-049K21,-,28,PS,adaptive,34,↑,up,↑,0.6337120998650789,True,10,1,1,2
Y2-S2-049K21,-,29,PS,adaptive,48,←,left,←,0.6779161000158638,True,9,1,0,2
Y2-S2-049K21,-,30,PS,adaptive,26,↓,down,↓,0.7335558000486344,True,9,1,0,2
Y2-S2-049K21,-,31,PS,adaptive,42,↑,up,↑,0.503430400043726,True,9,1,0,2
Y2-S2-049K21,-,32,PS,adaptive,33,↓,left,←,0.7690264000557363,False,8,-1,1,3
Y2-S2-049K21,-,33,PS,adaptive,32,←,left,←,0.7753495001234114,True,9,-1,0,3
Y2-S2-049K21,-,34,PS,adaptive,41,↓,down,↓,0.7022059001028538,True,9,-1,0,3
Y2-S2-049K21,-,35,PS,adaptive,38,↑,down,↓,1.2541211999487132,False,9,-1,0,3
Y2-S2-049K21,-,36,PS,adaptive,34,←,left,←,0.6779497999232262,True,10,-1,0,3
Y2-S2-049K21,-,37,PS,adaptive,37,→,right,→,0.6324678000528365,True,10,-1,0,3
Y2-S2-049K21,-,38,PS,adaptive,46,←,left,←,1.144954000134021,True,10,1,1,4
Y2-S2-049K21,-,39,AS,adaptive,50,→,right,→,0.7591778000351042,True,20,0,0,0
Y2-S2-049K21,-,40,AS,adaptive,46,↑,up,↑,0.7242350000888109,True,20,0,0,0
Y2-S2-049K21,-,41,AS,adaptive,33,→,right,→,0.9240059999283403,True,20,1,0,0
Y2-S2-049K21,-,42,AS,adaptive,45,←,left,←,1.0417825998738408,True,19,1,0,0
Y2-S2-049K21,-,43,AS,adaptive,28,↑,up,↑,0.8246507998555899,True,19,1,0,0
Y2-S2-049K21,-,44,AS,adaptive,41,↓,right,→,1.1451755999587476,False,19,-1,1,1
Y2-S2-049K21,-,45,AS,adaptive,35,→,left,←,1.2919526000041515,False,20,-1,0,1
Y2-S2-049K21,-,46,AS,adaptive,47,↓,down,↓,1.177541899960488,True,21,-1,0,1
Y2-S2-049K21,-,47,AS,adaptive,46,←,left,←,0.8407574999146163,True,21,-1,0,1
Y2-S2-049K21,-,48,AS,adaptive,36,↓,down,↓,0.9607500000856817,True,21,1,1,2
Y2-S2-049K21,-,49,AS,adaptive,50,←,left,←,0.6445329999551177,True,20,1,0,2
Y2-S2-049K21,-,50,AS,adaptive,49,↓,down,↓,1.0510858001653105,True,20,1,0,2
Y2-S2-049K21,-,51,AS,adaptive,25,↑,up,↑,0.8823394000064582,True,20,1,0,2
Y2-S2-049K21,-,52,AS,adaptive,27,←,left,←,0.7537327001336962,True,19,1,0,2
Y2-S2-049K21,-,53,AS,adaptive,49,↓,down,↓,0.9010896999388933,True,19,1,0,2
Y2-S2-049K21,-,54,AS,adaptive,50,←,left,←,0.592364199925214,True,19,1,0,2
Y2-S2-049K21,-,55,AS,adaptive,33,↓,down,↓,0.6925625000149012,True,18,1,0,2
Y2-S2-049K21,-,56,AS,adaptive,42,←,right,→,0.7882556000258774,False,18,-1,1,3
Y2-S2-049K21,-,57,AS,adaptive,29,↓,down,↓,1.039426000090316,True,19,-1,0,3
Y2-S2-049K21,-,58,AS,adaptive,47,→,right,→,0.6830071001313627,True,19,-1,0,3
Y2-S2-049K21,-,59,AS,adaptive,36,↓,down,↓,0.8210453998763114,True,19,1,1,4
Y2-S2-049K21,1,60,PS,intra_train,46,↑,up,↑,1.012081400025636,True,13,-,-,-
Y2-S2-049K21,1,61,PS,intra_train,42,↓,up,↑,1.1825900999829173,False,13,-,-,-
Y2-S2-049K21,1,62,PS,intra_train,50,←,left,←,0.7432063000742346,True,13,-,-,-
Y2-S2-049K21,1,63,PS,intra_train,31,↓,down,↓,0.9339203999843448,True,13,-,-,-
Y2-S2-049K21,1,64,PS,intra_train,35,→,right,→,0.7361586999613792,True,13,-,-,-
Y2-S2-049K21,1,65,PS,exp,48,↑,up,↑,0.7338111000135541,True,9,0,0,0
Y2-S2-049K21,1,66,PS,exp,46,→,right,→,0.8301939000375569,True,9,0,0,0
Y2-S2-049K21,1,67,PS,exp,40,←,left,←,0.8637519001495093,True,9,1,0,0
Y2-S2-049K21,1,68,PS,exp,39,↓,down,↓,1.0716587998904288,True,8,1,0,0
Y2-S2-049K21,1,69,PS,exp,37,←,left,←,0.861991599900648,True,8,1,0,0
Y2-S2-049K21,1,70,PS,exp,50,↓,down,↓,0.934252800187096,True,8,1,0,0
Y2-S2-049K21,1,71,PS,exp,38,→,right,→,0.5784299001097679,True,7,1,0,0
Y2-S2-049K21,1,72,PS,exp,41,←,left,←,0.85501529998146,True,7,1,0,0
Y2-S2-049K21,1,73,PS,exp,30,↑,up,↑,0.8316204000730067,True,7,1,0,0
Y2-S2-049K21,1,74,PS,exp,29,←,left,←,0.6799100998323411,True,6,1,0,0
Y2-S2-049K21,1,75,PS,exp,41,→,left,←,0.5991894002072513,False,6,-1,1,1
Y2-S2-049K21,1,76,PS,exp,41,↓,down,↓,0.8314429998863488,True,7,-1,0,1
Y2-S2-049K21,1,77,PS,exp,48,←,left,←,0.5678677998948842,True,7,-1,0,1
Y2-S2-049K21,1,78,PS,exp,48,↑,up,↑,0.8264192999340594,True,7,1,1,2
Y2-S2-049K21,1,79,PS,exp,29,↓,up,↑,0.884471399942413,False,6,-1,1,3
Y2-S2-049K21,1,80,PS,exp,32,↑,left,←,0.8023391000460833,False,7,-1,0,3
Y2-S2-049K21,1,81,PS,exp,33,↓,left,←,0.7186947001609951,False,8,-1,0,3
Y2-S2-049K21,1,82,PS,exp,36,↑,left,←,0.5796015998348594,False,9,-1,0,3
Y2-S2-049K21,1,83,PS,exp,38,←,left,←,0.5618720001075417,True,10,-1,0,3
Y2-S2-049K21,1,84,PS,exp,38,↑,left,←,0.7399401001166552,False,10,-1,0,3
Y2-S2-049K21,1,85,PS,exp,45,→,left,←,0.5548779999371618,False,11,-1,0,3
Y2-S2-049K21,1,86,PS,exp,28,↓,down,↓,0.8125722000841051,True,12,-1,0,3
Y2-S2-049K21,1,87,PS,exp,50,→,right,→,0.5731540999840945,True,12,-1,0,3
Y2-S2-049K21,1,88,PS,exp,48,↑,up,↑,0.5487072998657823,True,12,1,1,4
Y2-S2-049K21,1,89,PS,exp,28,→,right,→,0.6371552001219243,True,11,1,0,4
Y2-S2-049K21,1,90,PS,exp,44,←,left,←,0.555118199903518,True,11,1,0,4
Y2-S2-049K21,1,91,PS,exp,30,↓,down,↓,0.8472110000438988,True,11,1,0,4
Y2-S2-049K21,1,92,PS,exp,35,→,right,→,1.0668565998785198,True,10,1,0,4
Y2-S2-049K21,1,93,PS,exp,25,←,left,←,0.6848300001583993,True,10,1,0,4
Y2-S2-049K21,1,94,PS,exp,25,↑,down,↓,0.9167711001355201,False,10,-1,1,5
Y2-S2-049K21,1,95,PS,exp,33,←,left,←,0.48458810010924935,True,11,-1,0,5
Y2-S2-049K21,1,96,PS,exp,41,↑,up,↑,0.5140398999210447,True,11,-1,0,5
Y2-S2-049K21,1,97,PS,exp,50,→,right,→,1.03538789995946,True,11,1,1,6
Y2-S2-049K21,1,98,PS,exp,25,↑,up,↑,0.48508880008012056,True,10,1,0,6
Y2-S2-049K21,1,99,PS,exp,45,→,right,→,0.9155845998320729,True,10,1,0,6
Y2-S2-049K21,1,100,PS,exp,36,↓,up,↑,0.7640341999940574,False,10,-1,1,7
Y2-S2-049K21,1,101,PS,exp,50,←,up,↑,0.9974796001333743,False,11,-1,0,7
Y2-S2-049K21,1,102,PS,exp,50,↑,up,↑,0.4934514998458326,True,12,-1,0,7
Y2-S2-049K21,1,103,PS,exp,35,↓,down,↓,0.885719700017944,True,12,-1,0,7
Y2-S2-049K21,1,104,PS,exp,44,→,left,←,1.0445543001405895,False,12,-1,0,7
Y2-S2-049K21,1,105,PS,exp,34,←,left,←,0.7876959999557585,True,13,-1,0,7
Y2-S2-049K21,1,106,PS,exp,32,↑,left,←,1.0052533999551088,False,13,-1,0,7
Y2-S2-049K21,1,107,PS,exp,40,↓,down,↓,1.4228529001120478,True,14,-1,0,7
Y2-S2-049K21,1,108,PS,exp,25,←,left,←,0.5714020999148488,True,14,-1,0,7
Y2-S2-049K21,1,109,PS,exp,25,↑,left,←,0.756359799997881,False,14,-1,0,7
Y2-S2-049K21,1,110,PS,exp,33,↓,left,←,0.7587986001744866,False,15,-1,0,7
Y2-S2-049K21,1,111,PS,exp,33,←,left,←,0.5088533000089228,True,16,-1,0,7
Y2-S2-049K21,1,112,PS,exp,26,↓,down,↓,0.879685000050813,True,16,-1,0,7
Y2-S2-049K21,1,113,PS,exp,27,↑,down,↓,0.9814286001492292,False,16,-1,0,7
Y2-S2-049K21,1,114,PS,exp,47,←,left,←,0.5850082000251859,True,17,-1,0,7
Y2-S2-049K21,1,115,PS,exp,40,↑,up,↑,0.8032877999357879,True,17,-1,0,7
Y2-S2-049K21,1,116,PS,exp,44,→,right,→,0.7769134000409395,True,17,1,1,8
Y2-S2-049K21,1,117,PS,exp,29,←,left,←,0.7174569999333471,True,16,1,0,8
Y2-S2-049K21,1,118,PS,exp,41,↓,down,↓,0.6851633000187576,True,16,1,0,8
Y2-S2-049K21,1,119,PS,exp,43,→,right,→,0.544555300148204,True,16,1,0,8
Y2-S2-049K21,1,120,PS,exp,32,↑,up,↑,0.4892442000564188,True,15,1,0,8
Y2-S2-049K21,1,121,PS,exp,29,←,left,←,0.6561217999551445,True,15,1,0,8
Y2-S2-049K21,1,122,PS,exp,33,↓,up,↑,1.0803467000368983,False,15,-1,1,9
Y2-S2-049K21,1,123,PS,exp,42,↑,up,↑,0.5962330000475049,True,16,-1,0,9
Y2-S2-049K21,1,124,PS,exp,46,→,right,→,0.6663511998485774,True,16,-1,0,9
Y2-S2-049K21,1,125,PS,exp,46,↓,down,↓,0.8864801998715848,True,16,1,1,10
Y2-S2-049K21,1,126,PS,exp,30,←,left,←,0.49321069987490773,True,15,1,0,10
Y2-S2-049K21,1,127,PS,exp,32,↑,up,↑,0.5142233001533896,True,15,1,0,10
Y2-S2-049K21,1,128,PS,exp,46,→,right,→,0.785658200038597,True,15,1,0,10
Y2-S2-049K21,1,129,PS,exp,43,↑,up,↑,0.5514475998934358,True,14,1,0,10
Y2-S2-049K21,1,130,PS,exp,42,→,right,→,0.6692132002208382,True,14,1,0,10
Y2-S2-049K21,1,131,PS,exp,44,↑,down,↓,0.9985215000342578,False,14,-1,1,11
Y2-S2-049K21,1,132,PS,exp,50,↓,down,↓,0.801949999993667,True,15,-1,0,11
Y2-S2-049K21,1,133,PS,exp,34,←,left,←,0.5063996999524534,True,15,-1,0,11
Y2-S2-049K21,1,134,PS,exp,38,↓,down,↓,1.1256832000799477,True,15,1,1,12
Y2-S2-049K21,1,135,PS,exp,41,←,left,←,0.4386889999732375,True,14,1,0,12
Y2-S2-049K21,1,136,PS,exp,47,→,right,→,0.6014222998637706,True,14,1,0,12
Y2-S2-049K21,1,137,PS,exp,27,←,left,←,0.548095399979502,True,14,1,0,12
Y2-S2-049K21,1,138,PS,exp,46,↑,left,←,0.8592882000375539,False,13,-1,1,13
Y2-S2-049K21,1,139,PS,exp,44,→,left,←,1.1053525998722762,False,14,-1,0,13
Y2-S2-049K21,1,140,PS,exp,37,↓,down,↓,0.7205361998640001,True,15,-1,0,13
Y2-S2-049K21,1,141,PS,exp,50,←,left,←,0.4480061000213027,True,15,-1,0,13
Y2-S2-049K21,1,142,PS,exp,43,↓,down,↓,0.6190326001960784,True,15,1,1,14
Y2-S2-049K21,1,143,PS,exp,35,↑,up,↑,0.5783154999371618,True,14,1,0,14
Y2-S2-049K21,1,144,PS,exp,48,←,left,←,0.772869799984619,True,14,1,0,14
Y2-S2-049K21,1,145,PS,exp,41,↑,up,↑,0.4915122000966221,True,14,1,0,14
Y2-S2-049K21,1,146,PS,exp,33,→,right,→,0.6234835998620838,True,13,1,0,14
Y2-S2-049K21,1,147,PS,exp,35,↑,up,↑,0.5717636998742819,True,13,1,0,14
Y2-S2-049K21,1,148,PS,exp,25,←,left,←,0.557055399985984,True,13,1,0,14
Y2-S2-049K21,1,149,PS,exp,26,↑,up,↑,0.6695179999805987,True,12,1,0,14
Y2-S2-049K21,1,150,PS,exp,42,→,right,→,1.1860126999672502,True,12,1,0,14
Y2-S2-049K21,1,151,PS,exp,33,↑,up,↑,0.9490362999495119,True,12,1,0,14
Y2-S2-049K21,1,152,PS,exp,42,↓,left,←,0.7505810000002384,False,11,-1,1,15
Y2-S2-049K21,1,153,PS,exp,48,→,right,→,0.558079699985683,True,12,-1,0,15
Y2-S2-049K21,1,154,PS,exp,38,↓,down,↓,1.004780099960044,True,12,-1,0,15
Y2-S2-049K21,1,155,PS,exp,38,←,left,←,0.6946008000522852,True,12,1,1,16
Y2-S2-049K21,2,156,AS,intra_train,42,→,right,→,1.0391181998420507,True,27,-,-,-
Y2-S2-049K21,2,157,AS,intra_train,25,↑,up,↑,0.9398588000331074,True,27,-,-,-
Y2-S2-049K21,2,158,AS,intra_train,50,←,left,←,0.9343693000264466,True,27,-,-,-
Y2-S2-049K21,2,159,AS,intra_train,26,↑,up,↑,1.1438396000303328,True,27,-,-,-
Y2-S2-049K21,2,160,AS,intra_train,40,←,left,←,0.8711560999508947,True,27,-,-,-
Y2-S2-049K21,2,161,AS,exp,28,→,right,→,0.6114461000543088,True,18,0,0,0
Y2-S2-049K21,2,162,AS,exp,26,←,left,←,0.6367027000524104,True,18,0,0,0
Y2-S2-049K21,2,163,AS,exp,41,↓,up,↑,1.0707060999702662,False,18,-1,0,0
Y2-S2-049K21,2,164,AS,exp,39,↑,down,↓,1.3601883999072015,False,19,-1,0,0
Y2-S2-049K21,2,165,AS,exp,48,←,left,←,0.5233651001472026,True,20,-1,0,0
Y2-S2-049K21,2,166,AS,exp,38,↓,down,↓,1.0116760998498648,True,20,-1,0,0
Y2-S2-049K21,2,167,AS,exp,27,↑,no_key,no_letter,-1.0,False,20,-1,0,0
Y2-S2-049K21,2,168,AS,exp,38,↓,down,↓,1.0322245000861585,True,21,-1,0,0
Y2-S2-049K21,2,169,AS,exp,34,←,left,←,0.4838936999440193,True,21,-1,0,0
Y2-S2-049K21,2,170,AS,exp,42,↑,down,↓,0.9808910998981446,False,21,-1,0,0
Y2-S2-049K21,2,171,AS,exp,44,→,right,→,0.9301954999100417,True,22,-1,0,0
Y2-S2-049K21,2,172,AS,exp,49,↓,down,↓,1.068825599970296,True,22,-1,0,0
Y2-S2-049K21,2,173,AS,exp,42,→,right,→,0.5859472998417914,True,22,1,1,1
Y2-S2-049K21,2,174,AS,exp,48,↑,left,←,0.6605211000423878,False,21,-1,1,2
Y2-S2-049K21,2,175,AS,exp,35,←,no_key,no_letter,-1.0,False,22,-1,0,2
Y2-S2-049K21,2,176,AS,exp,30,↑,left,←,1.1434275000356138,False,23,-1,0,2
Y2-S2-049K21,2,177,AS,exp,30,↓,right,→,1.2843235998880118,False,24,-1,0,2
Y2-S2-049K21,2,178,AS,exp,42,↑,up,↑,0.9907877000514418,True,25,-1,0,2
Y2-S2-049K21,2,179,AS,exp,50,↓,down,↓,0.8773415999021381,True,25,-1,0,2
Y2-S2-049K21,2,180,AS,exp,31,↑,up,↑,0.760327700059861,True,25,1,1,3
Y2-S2-049K21,2,181,AS,exp,43,↓,down,↓,1.0103575000539422,True,24,1,0,3
Y2-S2-049K21,2,182,AS,exp,38,↑,up,↑,0.5710100000724196,True,24,1,0,3
Y2-S2-049K21,2,183,AS,exp,50,↓,down,↓,0.9786410999950022,True,24,1,0,3
Y2-S2-049K21,2,184,AS,exp,49,←,left,←,0.8841691999696195,True,23,1,0,3
Y2-S2-049K21,2,185,AS,exp,25,→,right,→,0.7954190000891685,True,23,1,0,3
Y2-S2-049K21,2,186,AS,exp,26,←,left,←,0.5667562000453472,True,23,1,0,3
Y2-S2-049K21,2,187,AS,exp,37,↓,left,←,1.0668138999026269,False,22,-1,1,4
Y2-S2-049K21,2,188,AS,exp,38,←,left,←,0.5562724999617785,True,23,-1,0,4
Y2-S2-049K21,2,189,AS,exp,35,↓,down,↓,0.9563808001112193,True,23,-1,0,4
Y2-S2-049K21,2,190,AS,exp,46,←,left,←,0.5881990999914706,True,23,1,1,5
Y2-S2-049K21,2,191,AS,exp,31,↓,down,↓,1.1018383998889476,True,22,1,0,5
Y2-S2-049K21,2,192,AS,exp,28,→,right,→,0.6730325000826269,True,22,1,0,5
Y2-S2-049K21,2,193,AS,exp,39,←,left,←,0.6437689999584109,True,22,1,0,5
Y2-S2-049K21,2,194,AS,exp,47,→,right,→,0.6209988000337034,True,21,1,0,5
Y2-S2-049K21,2,195,AS,exp,31,↓,down,↓,0.7361384998075664,True,21,1,0,5
Y2-S2-049K21,2,196,AS,exp,25,→,right,→,0.6495162001810968,True,21,1,0,5
Y2-S2-049K21,2,197,AS,exp,33,←,left,←,0.9133230000734329,True,20,1,0,5
Y2-S2-049K21,2,198,AS,exp,25,→,right,→,0.6992446999065578,True,20,1,0,5
Y2-S2-049K21,2,199,AS,exp,50,↑,up,↑,0.5797546999529004,True,20,1,0,5
Y2-S2-049K21,2,200,AS,exp,34,←,no_key,no_letter,-1.0,False,19,-1,1,6
Y2-S2-049K21,2,201,AS,exp,28,↓,down,↓,1.6106554998550564,True,20,-1,0,6
Y2-S2-049K21,2,202,AS,exp,36,←,left,←,0.5383913000114262,True,20,-1,0,6
Y2-S2-049K21,2,203,AS,exp,26,→,right,→,0.7409161999821663,True,20,1,1,7
Y2-S2-049K21,2,204,AS,exp,34,↓,down,↓,0.6777838999405503,True,19,1,0,7
Y2-S2-049K21,2,205,AS,exp,45,←,left,←,0.433665000135079,True,19,1,0,7
Y2-S2-049K21,2,206,AS,exp,40,↑,up,↑,0.5106110000051558,True,19,1,0,7
Y2-S2-049K21,2,207,AS,exp,31,↓,down,↓,0.7183503999840468,True,18,1,0,7
Y2-S2-049K21,2,208,AS,exp,33,←,left,←,0.7767960999626666,True,18,1,0,7
Y2-S2-049K21,2,209,AS,exp,25,↑,up,↑,0.7268471999559551,True,18,1,0,7
Y2-S2-049K21,2,210,AS,exp,32,→,left,←,0.6813292000442743,False,17,-1,1,8
Y2-S2-049K21,2,211,AS,exp,43,↑,right,→,1.1780354001093656,False,18,-1,0,8
Y2-S2-049K21,2,212,AS,exp,42,↓,up,↑,1.027081900043413,False,19,-1,0,8
Y2-S2-049K21,2,213,AS,exp,39,↑,up,↑,0.5006751001346856,True,20,-1,0,8
Y2-S2-049K21,2,214,AS,exp,26,→,right,→,0.8250426999293268,True,20,-1,0,8
Y2-S2-049K21,2,215,AS,exp,46,←,right,→,0.9480762998573482,False,20,-1,0,8
Y2-S2-049K21,2,216,AS,exp,30,↓,down,↓,0.9342046999372542,True,21,-1,0,8
Y2-S2-049K21,2,217,AS,exp,26,←,left,←,0.7938268999569118,True,21,-1,0,8
Y2-S2-049K21,2,218,AS,exp,26,→,right,→,1.0395362998824567,True,21,1,1,9
Y2-S2-049K21,2,219,AS,exp,43,←,left,←,0.5419647998642176,True,20,1,0,9
Y2-S2-049K21,2,220,AS,exp,48,↑,right,→,1.2151009000372142,False,20,-1,1,10
Y2-S2-049K21,2,221,AS,exp,39,←,no_key,no_letter,-1.0,False,21,-1,0,10
Y2-S2-049K21,2,222,AS,exp,30,↑,left,←,0.8865491000469774,False,22,-1,0,10
Y2-S2-049K21,2,223,AS,exp,43,→,right,→,0.6219564001075923,True,23,-1,0,10
Y2-S2-049K21,2,224,AS,exp,47,↓,down,↓,0.8046234999783337,True,23,-1,0,10
Y2-S2-049K21,2,225,AS,exp,27,←,left,←,0.5957456000614911,True,23,1,1,11
Y2-S2-049K21,2,226,AS,exp,34,↓,down,↓,0.8912772999610752,True,22,1,0,11
Y2-S2-049K21,2,227,AS,exp,38,←,left,←,0.6008085999637842,True,22,1,0,11
Y2-S2-049K21,2,228,AS,exp,47,↑,down,↓,1.2452718999702483,False,22,-1,1,12
Y2-S2-049K21,2,229,AS,exp,25,←,left,←,0.8132881999481469,True,23,-1,0,12
Y2-S2-049K21,2,230,AS,exp,27,↑,left,←,1.0108654000796378,False,23,-1,0,12
Y2-S2-049K21,2,231,AS,exp,35,←,left,←,0.9014276000671089,True,24,-1,0,12
Y2-S2-049K21,2,232,AS,exp,37,→,left,←,1.034240399952978,False,24,-1,0,12
Y2-S2-049K21,2,233,AS,exp,36,↑,up,↑,0.6542215999215841,True,25,-1,0,12
Y2-S2-049K21,2,234,AS,exp,37,→,right,→,0.8453662998508662,True,25,-1,0,12
Y2-S2-049K21,2,235,AS,exp,48,←,left,←,0.5163451998960227,True,25,1,1,13
Y2-S2-049K21,2,236,AS,exp,39,↓,down,↓,0.9404254998080432,True,24,1,0,13
Y2-S2-049K21,2,237,AS,exp,49,→,right,→,0.6600901000201702,True,24,1,0,13
Y2-S2-049K21,2,238,AS,exp,35,←,left,←,0.46753819985315204,True,24,1,0,13
Y2-S2-049K21,2,239,AS,exp,33,↓,down,↓,0.8221271000802517,True,23,1,0,13
Y2-S2-049K21,2,240,AS,exp,47,←,left,←,0.516952299978584,True,23,1,0,13
Y2-S2-049K21,2,241,AS,exp,34,→,right,→,0.8562505000736564,True,23,1,0,13
Y2-S2-049K21,2,242,AS,exp,34,↑,down,↓,1.0956672998145223,False,22,-1,1,14
Y2-S2-049K21,2,243,AS,exp,35,←,left,←,0.7503455998376012,True,23,-1,0,14
Y2-S2-049K21,2,244,AS,exp,45,↑,up,↑,0.8298847998958081,True,23,-1,0,14
Y2-S2-049K21,2,245,AS,exp,26,↓,down,↓,0.8211902999319136,True,23,1,1,15
Y2-S2-049K21,2,246,AS,exp,27,←,left,←,0.7205745000392199,True,22,1,0,15
Y2-S2-049K21,2,247,AS,exp,40,→,right,→,0.7828788000624627,True,22,1,0,15
Y2-S2-049K21,2,248,AS,exp,37,↓,right,→,1.1454360000789165,False,22,-1,1,16
Y2-S2-049K21,3,249,AS,intra_train,40,↑,up,↑,0.7900412001181394,True,27,-,-,-
Y2-S2-049K21,3,250,AS,intra_train,28,↓,down,↓,0.8471657000482082,True,27,-,-,-
Y2-S2-049K21,3,251,AS,intra_train,28,←,left,←,0.7354524999391288,True,27,-,-,-
Y2-S2-049K21,3,252,AS,intra_train,32,↓,down,↓,0.9118641000241041,True,27,-,-,-
Y2-S2-049K21,3,253,AS,intra_train,44,←,no_key,no_letter,-1.0,False,27,-,-,-
Y2-S2-049K21,3,254,AS,exp,33,↑,up,↑,0.9596326998434961,True,18,0,0,0
Y2-S2-049K21,3,255,AS,exp,36,↓,down,↓,1.1425830000080168,True,18,0,0,0
Y2-S2-049K21,3,256,AS,exp,41,←,left,←,0.7668754002079368,True,18,1,0,0
Y2-S2-049K21,3,257,AS,exp,45,→,right,→,0.514192899921909,True,17,1,0,0
Y2-S2-049K21,3,258,AS,exp,30,←,right,→,1.2161374997813255,False,17,-1,1,1
Y2-S2-049K21,3,259,AS,exp,33,↓,down,↓,0.7489502998068929,True,18,-1,0,1
Y2-S2-049K21,3,260,AS,exp,32,↑,down,↓,1.0360251998063177,False,18,-1,0,1
Y2-S2-049K21,3,261,AS,exp,30,→,right,→,0.7512020999565721,True,19,-1,0,1
Y2-S2-049K21,3,262,AS,exp,29,←,left,←,0.739542500115931,True,19,-1,0,1
Y2-S2-049K21,3,263,AS,exp,43,↓,down,↓,0.7167005999945104,True,19,1,1,2
Y2-S2-049K21,3,264,AS,exp,50,↑,up,↑,0.5583045000676066,True,18,1,0,2
Y2-S2-049K21,3,265,AS,exp,32,→,down,↓,1.1669940000865608,False,18,-1,1,3
Y2-S2-049K21,3,266,AS,exp,42,↓,down,↓,0.9074848999734968,True,19,-1,0,3
Y2-S2-049K21,3,267,AS,exp,30,←,left,←,0.850682299816981,True,19,-1,0,3
Y2-S2-049K21,3,268,AS,exp,40,↑,up,↑,0.5864820999559015,True,19,1,1,4
Y2-S2-049K21,3,269,AS,exp,50,↓,down,↓,0.700403300113976,True,18,1,0,4
Y2-S2-049K21,3,270,AS,exp,35,↑,down,↓,0.7381641999818385,False,18,-1,1,5
Y2-S2-049K21,3,271,AS,exp,47,↓,down,↓,0.6164249000139534,True,19,-1,0,5
Y2-S2-049K21,3,272,AS,exp,41,↑,down,↓,1.1772443000227213,False,19,-1,0,5
Y2-S2-049K21,3,273,AS,exp,33,←,left,←,0.8187453998252749,True,20,-1,0,5
Y2-S2-049K21,3,274,AS,exp,37,→,right,→,0.7047055999282748,True,20,-1,0,5
Y2-S2-049K21,3,275,AS,exp,43,←,left,←,0.5838761997874826,True,20,1,1,6
Y2-S2-049K21,3,276,AS,exp,47,→,left,←,0.7297112999949604,False,19,-1,1,7
Y2-S2-049K21,3,277,AS,exp,32,←,left,←,0.5076051999349147,True,20,-1,0,7
Y2-S2-049K21,3,278,AS,exp,40,↑,up,↑,0.6429257001727819,True,20,-1,0,7
Y2-S2-049K21,3,279,AS,exp,32,→,left,←,1.1377985998988152,False,20,-1,0,7
Y2-S2-049K21,3,280,AS,exp,43,↑,left,←,1.0103511998895556,False,21,-1,0,7
Y2-S2-049K21,3,281,AS,exp,44,←,left,←,0.4672345998696983,True,22,-1,0,7
Y2-S2-049K21,3,282,AS,exp,35,↓,down,↓,0.9142893000971526,True,22,-1,0,7
Y2-S2-049K21,3,283,AS,exp,44,→,right,→,0.5941692998167127,True,22,1,1,8
Y2-S2-049K21,3,284,AS,exp,49,↑,up,↑,0.5992945998441428,True,21,1,0,8
Y2-S2-049K21,3,285,AS,exp,42,←,left,←,0.7880208001006395,True,21,1,0,8
Y2-S2-049K21,3,286,AS,exp,36,→,left,←,0.595833599800244,False,21,-1,1,9
Y2-S2-049K21,3,287,AS,exp,38,↓,down,↓,0.6644383000675589,True,22,-1,0,9
Y2-S2-049K21,3,288,AS,exp,25,←,left,←,0.7838278999552131,True,22,-1,0,9
Y2-S2-049K21,3,289,AS,exp,47,↑,up,↑,0.6131689001340419,True,22,1,1,10
Y2-S2-049K21,3,290,AS,exp,38,←,left,←,1.0354559998959303,True,21,1,0,10
Y2-S2-049K21,3,291,AS,exp,40,↑,up,↑,0.7010453999973834,True,21,1,0,10
Y2-S2-049K21,3,292,AS,exp,44,↓,up,↑,0.9219892998225987,False,21,-1,1,11
Y2-S2-049K21,3,293,AS,exp,45,←,left,←,0.5990655000787228,True,22,-1,0,11
Y2-S2-049K21,3,294,AS,exp,32,↓,down,↓,0.667628200026229,True,22,-1,0,11
Y2-S2-049K21,3,295,AS,exp,28,→,right,→,0.9697503000497818,True,22,1,1,12
Y2-S2-049K21,3,296,AS,exp,27,←,left,←,0.9689083998091519,True,21,1,0,12
Y2-S2-049K21,3,297,AS,exp,49,↓,left,←,1.056794699979946,False,21,-1,1,13
Y2-S2-049K21,3,298,AS,exp,34,↑,up,↑,0.5559555999934673,True,22,-1,0,13
Y2-S2-049K21,3,299,AS,exp,28,←,left,←,0.6160240001045167,True,22,-1,0,13
Y2-S2-049K21,3,300,AS,exp,27,→,right,→,0.7121956998016685,True,22,1,1,14
Y2-S2-049K21,3,301,AS,exp,38,↑,no_key,no_letter,-1.0,False,21,-1,1,15
Y2-S2-049K21,3,302,AS,exp,39,→,right,→,1.467467200011015,True,22,-1,0,15
Y2-S2-049K21,3,303,AS,exp,27,←,left,←,0.5630774998571724,True,22,-1,0,15
Y2-S2-049K21,3,304,AS,exp,26,↑,down,↓,1.3934986002277583,False,22,-1,0,15
Y2-S2-049K21,3,305,AS,exp,35,←,left,←,0.4671597999986261,True,23,-1,0,15
Y2-S2-049K21,3,306,AS,exp,30,→,right,→,0.9652932998724282,True,23,-1,0,15
Y2-S2-049K21,3,307,AS,exp,50,↑,up,↑,0.5757594001479447,True,23,1,1,16
Y2-S2-049K21,4,308,PS,intra_train,28,←,left,←,1.757515300065279,True,13,-,-,-
Y2-S2-049K21,4,309,PS,intra_train,33,↓,down,↓,0.784367399988696,True,13,-,-,-
Y2-S2-049K21,4,310,PS,intra_train,47,←,left,←,1.4819569000974298,True,13,-,-,-
Y2-S2-049K21,4,311,PS,intra_train,25,↓,down,↓,0.8093733999412507,True,13,-,-,-
Y2-S2-049K21,4,312,PS,intra_train,36,→,right,→,0.7035517999902368,True,13,-,-,-
Y2-S2-049K21,4,313,PS,exp,29,↑,up,↑,1.0353703999426216,True,9,0,0,0
Y2-S2-049K21,4,314,PS,exp,45,←,left,←,0.48211499978788197,True,9,0,0,0
Y2-S2-049K21,4,315,PS,exp,42,↑,left,←,1.6329043000005186,False,9,-1,0,0
Y2-S2-049K21,4,316,PS,exp,39,↓,left,←,0.8999584000557661,False,10,-1,0,0
Y2-S2-049K21,4,317,PS,exp,43,←,left,←,0.9515072000212967,True,11,-1,0,0
Y2-S2-049K21,4,318,PS,exp,45,↑,up,↑,0.7308778997976333,True,11,-1,0,0
Y2-S2-049K21,4,319,PS,exp,41,→,right,→,1.1830465998500586,True,11,1,1,1
Y2-S2-049K21,4,320,PS,exp,33,↓,down,↓,0.7364570999052376,True,10,1,0,1
Y2-S2-049K21,4,321,PS,exp,31,←,left,←,0.7578233999665827,True,10,1,0,1
Y2-S2-049K21,4,322,PS,exp,46,→,left,←,0.755729699973017,False,10,-1,1,2
Y2-S2-049K21,4,323,PS,exp,40,↑,left,←,0.6773546999320388,False,11,-1,0,2
Y2-S2-049K21,4,324,PS,exp,33,←,left,←,0.4577772000338882,True,12,-1,0,2
Y2-S2-049K21,4,325,PS,exp,49,↑,right,→,0.9635177999734879,False,12,-1,0,2
Y2-S2-049K21,4,326,PS,exp,29,←,left,←,0.9779960000887513,True,13,-1,0,2
Y2-S2-049K21,4,327,PS,exp,32,→,right,→,0.6791923998389393,True,13,-1,0,2
Y2-S2-049K21,4,328,PS,exp,27,↓,right,→,0.7970592998899519,False,13,-1,0,2
Y2-S2-049K21,4,329,PS,exp,41,↑,up,↑,0.5906472001224756,True,14,-1,0,2
Y2-S2-049K21,4,330,PS,exp,27,→,left,←,0.80235580005683,False,14,-1,0,2
Y2-S2-049K21,4,331,PS,exp,43,↑,up,↑,0.4935184000059962,True,15,-1,0,2
Y2-S2-049K21,4,332,PS,exp,47,→,right,→,0.538420099997893,True,15,-1,0,2
Y2-S2-049K21,4,333,PS,exp,38,↓,down,↓,1.1681510000489652,True,15,1,1,3
Y2-S2-049K21,4,334,PS,exp,27,↑,up,↑,1.1050187998916954,True,14,1,0,3
Y2-S2-049K21,4,335,PS,exp,45,→,left,←,1.132554000010714,False,14,-1,1,4
Y2-S2-049K21,4,336,PS,exp,47,↓,down,↓,0.8767258001025766,True,15,-1,0,4
Y2-S2-049K21,4,337,PS,exp,36,←,left,←,0.9195812998805195,True,15,-1,0,4
Y2-S2-049K21,4,338,PS,exp,42,→,right,→,0.9043740001507103,True,15,1,1,5
Y2-S2-049K21,4,339,PS,exp,27,↑,left,←,0.8034765000920743,False,14,-1,1,6
Y2-S2-049K21,4,340,PS,exp,45,←,left,←,0.5323910000734031,True,15,-1,0,6
Y2-S2-049K21,4,341,PS,exp,34,↑,up,↑,0.7333174999803305,True,15,-1,0,6
Y2-S2-049K21,4,342,PS,exp,29,↓,left,←,0.681132199941203,False,15,-1,0,6
Y2-S2-049K21,4,343,PS,exp,31,↑,left,←,0.6541259000077844,False,16,-1,0,6
Y2-S2-049K21,4,344,PS,exp,40,←,left,←,0.548119300045073,True,17,-1,0,6
Y2-S2-049K21,4,345,PS,exp,39,→,left,←,0.8424949999898672,False,17,-1,0,6
Y2-S2-049K21,4,346,PS,exp,43,↓,down,↓,0.7021812000311911,True,18,-1,0,6
Y2-S2-049K21,4,347,PS,exp,33,←,left,←,0.5003136000595987,True,18,-1,0,6
Y2-S2-049K21,4,348,PS,exp,26,↓,down,↓,0.7681466999929398,True,18,1,1,7
Y2-S2-049K21,4,349,PS,exp,28,←,no_key,no_letter,-1.0,False,17,-1,1,8
Y2-S2-049K21,4,350,PS,exp,37,↑,up,↑,0.5037118999753147,True,18,-1,0,8
Y2-S2-049K21,4,351,PS,exp,42,←,left,←,0.479572799988091,True,18,-1,0,8
Y2-S2-049K21,4,352,PS,exp,46,↑,up,↑,0.7119893000926822,True,18,1,1,9
Y2-S2-049K21,4,353,PS,exp,28,←,left,←,0.5059662000276148,True,17,1,0,9
Y2-S2-049K21,4,354,PS,exp,49,→,right,→,0.6234113001264632,True,17,1,0,9
Y2-S2-049K21,4,355,PS,exp,26,↑,up,↑,0.6052283998578787,True,17,1,0,9
Y2-S2-049K21,4,356,PS,exp,30,↓,down,↓,0.7225593000184745,True,16,1,0,9
Y2-S2-049K21,4,357,PS,exp,42,↑,up,↑,0.45357290003448725,True,16,1,0,9
Y2-S2-049K21,4,358,PS,exp,32,→,right,→,0.5745359999127686,True,16,1,0,9
Y2-S2-049K21,4,359,PS,exp,28,←,left,←,0.4927682001143694,True,15,1,0,9
Y2-S2-049K21,4,360,PS,exp,47,↑,up,↑,0.4657234998885542,True,15,1,0,9
Y2-S2-049K21,4,361,PS,exp,32,←,left,←,0.7860244999174029,True,15,1,0,9
Y2-S2-049K21,4,362,PS,exp,27,↓,up,↑,0.6196635998785496,False,14,-1,1,10
Y2-S2-049K21,4,363,PS,exp,34,→,right,→,0.5496394999790937,True,15,-1,0,10
Y2-S2-049K21,4,364,PS,exp,41,↓,down,↓,0.6678912998177111,True,15,-1,0,10
Y2-S2-049K21,4,365,PS,exp,38,↑,up,↑,0.7160684999544173,True,15,1,1,11
Y2-S2-049K21,4,366,PS,exp,47,←,up,↑,0.5815912000834942,False,14,-1,1,12
Y2-S2-049K21,4,367,PS,exp,39,↓,up,↑,0.4459363000933081,False,15,-1,0,12
Y2-S2-049K21,4,368,PS,exp,33,→,right,→,0.7183338000904769,True,16,-1,0,12
Y2-S2-049K21,4,369,PS,exp,46,←,left,←,0.5755394001025707,True,16,-1,0,12
Y2-S2-049K21,4,370,PS,exp,43,↑,up,↑,0.4710553998593241,True,16,1,1,13
Y2-S2-049K21,4,371,PS,exp,32,←,left,←,0.4772874000482261,True,15,1,0,13
Y2-S2-049K21,4,372,PS,exp,50,↓,down,↓,0.6995473001152277,True,15,1,0,13
Y2-S2-049K21,4,373,PS,exp,35,←,left,←,1.6247894000262022,True,15,1,0,13
Y2-S2-049K21,4,374,PS,exp,46,↑,up,↑,0.49827140010893345,True,14,1,0,13
Y2-S2-049K21,4,375,PS,exp,36,↓,down,↓,0.8011562000028789,True,14,1,0,13
Y2-S2-049K21,4,376,PS,exp,34,→,right,→,0.5395700000226498,True,14,1,0,13
Y2-S2-049K21,4,377,PS,exp,46,↓,down,↓,0.6683626999147236,True,13,1,0,13
Y2-S2-049K21,4,378,PS,exp,38,↑,up,↑,0.5468606001231819,True,13,1,0,13
Y2-S2-049K21,4,379,PS,exp,32,←,left,←,0.7321822000667453,True,13,1,0,13
Y2-S2-049K21,4,380,PS,exp,34,→,right,→,0.5645476998761296,True,12,1,0,13
Y2-S2-049K21,4,381,PS,exp,25,↑,up,↑,0.5286457999609411,True,12,1,0,13
Y2-S2-049K21,4,382,PS,exp,33,↓,down,↓,0.6076118000783026,True,12,1,0,13
Y2-S2-049K21,4,383,PS,exp,50,←,left,←,0.4423737002070993,True,11,1,0,13
Y2-S2-049K21,4,384,PS,exp,27,↑,up,↑,0.46377650019712746,True,11,1,0,13
Y2-S2-049K21,4,385,PS,exp,42,→,right,→,0.5497856000438333,True,11,1,0,13
Y2-S2-049K21,4,386,PS,exp,25,↑,right,→,1.0640821000561118,False,10,-1,1,14
Y2-S2-049K21,4,387,PS,exp,36,←,left,←,0.4418984001968056,True,11,-1,0,14
Y2-S2-049K21,4,388,PS,exp,29,↑,up,↑,0.7564393000211567,True,11,-1,0,14
Y2-S2-049K21,4,389,PS,exp,27,→,right,→,0.6508251000195742,True,11,1,1,15
Y2-S2-049K21,4,390,PS,exp,30,↓,down,↓,0.8433385000098497,True,10,1,0,15
Y2-S2-049K21,4,391,PS,exp,35,↑,up,↑,0.758461499819532,True,10,1,0,15
Y2-S2-049K21,4,392,PS,exp,43,→,right,→,0.4685909999534488,True,10,1,0,15
Y2-S2-049K21,4,393,PS,exp,29,↓,right,→,0.7735309000127017,False,9,-1,1,16
Y2-S2-049K21,5,394,PS,intra_train,44,←,left,←,0.5287355999462306,True,13,-,-,-
Y2-S2-049K21,5,395,PS,intra_train,32,↑,up,↑,0.4312072000466287,True,13,-,-,-
Y2-S2-049K21,5,396,PS,intra_train,38,↓,left,←,0.8352921998593956,False,13,-,-,-
Y2-S2-049K21,5,397,PS,intra_train,26,←,left,←,0.547491799807176,True,13,-,-,-
Y2-S2-049K21,5,398,PS,intra_train,42,→,right,→,0.6649384000338614,True,13,-,-,-
Y2-S2-049K21,5,399,PS,exp,27,↑,up,↑,0.6338221000041813,True,9,0,0,0
Y2-S2-049K21,5,400,PS,exp,49,→,right,→,0.6180618999060243,True,9,0,0,0
Y2-S2-049K21,5,401,PS,exp,32,↓,down,↓,0.8504684998188168,True,9,1,0,0
Y2-S2-049K21,5,402,PS,exp,37,↑,left,←,0.8202591000590473,False,8,-1,1,1
Y2-S2-049K21,5,403,PS,exp,33,→,right,→,0.6630901999305934,True,9,-1,0,1
Y2-S2-049K21,5,404,PS,exp,34,←,left,←,0.5376362998504192,True,9,-1,0,1
Y2-S2-049K21,5,405,PS,exp,48,↑,left,←,0.6901408000849187,False,9,-1,0,1
Y2-S2-049K21,5,406,PS,exp,41,→,right,→,0.5574904000386596,True,10,-1,0,1
Y2-S2-049K21,5,407,PS,exp,40,↑,up,↑,0.5235970001667738,True,10,-1,0,1
Y2-S2-049K21,5,408,PS,exp,36,↓,down,↓,0.7195226999465376,True,10,1,1,2
Y2-S2-049K21,5,409,PS,exp,44,→,left,←,0.93392249988392,False,9,-1,1,3
Y2-S2-049K21,5,410,PS,exp,29,↑,up,↑,0.9311512999702245,True,10,-1,0,3
Y2-S2-049K21,5,411,PS,exp,37,←,left,←,0.6478298001457006,True,10,-1,0,3
Y2-S2-049K21,5,412,PS,exp,35,→,right,→,0.7446786998771131,True,10,1,1,4
Y2-S2-049K21,5,413,PS,exp,38,↓,right,→,0.7422539000399411,False,9,-1,1,5
Y2-S2-049K21,5,414,PS,exp,42,→,no_key,no_letter,-1.0,False,10,-1,0,5
Y2-S2-049K21,5,415,PS,exp,26,↓,down,↓,0.7819481999613345,True,11,-1,0,5
Y2-S2-049K21,5,416,PS,exp,37,→,left,←,0.932019499829039,False,11,-1,0,5
Y2-S2-049K21,5,417,PS,exp,48,←,left,←,0.46996650006622076,True,12,-1,0,5
Y2-S2-049K21,5,418,PS,exp,33,→,left,←,0.837690600194037,False,12,-1,0,5
Y2-S2-049K21,5,419,PS,exp,47,↑,up,↑,0.8211562000215054,True,13,-1,0,5
Y2-S2-049K21,5,420,PS,exp,36,→,left,←,0.6961839001160115,False,13,-1,0,5
Y2-S2-049K21,5,421,PS,exp,48,↑,up,↑,0.48104609991423786,True,14,-1,0,5
Y2-S2-049K21,5,422,PS,exp,43,←,left,←,0.6064244001172483,True,14,-1,0,5
Y2-S2-049K21,5,423,PS,exp,26,↓,left,←,0.7226770999841392,False,14,-1,0,5
Y2-S2-049K21,5,424,PS,exp,40,↑,up,↑,0.5710245999507606,True,15,-1,0,5
Y2-S2-049K21,5,425,PS,exp,32,→,left,←,0.7806926001794636,False,15,-1,0,5
Y2-S2-049K21,5,426,PS,exp,45,↓,down,↓,0.7823733000550419,True,16,-1,0,5
Y2-S2-049K21,5,427,PS,exp,31,←,left,←,0.6422254999633878,True,16,-1,0,5
Y2-S2-049K21,5,428,PS,exp,49,↑,up,↑,0.5618320999201387,True,16,1,1,6
Y2-S2-049K21,5,429,PS,exp,49,←,left,←,0.533076100051403,True,15,1,0,6
Y2-S2-049K21,5,430,PS,exp,25,→,right,→,0.7227676999755204,True,15,1,0,6
Y2-S2-049K21,5,431,PS,exp,49,↑,up,↑,0.7068845999892801,True,15,1,0,6
Y2-S2-049K21,5,432,PS,exp,43,←,left,←,0.4458514000289142,True,14,1,0,6
Y2-S2-049K21,5,433,PS,exp,44,→,left,←,0.546823900192976,False,14,-1,1,7
Y2-S2-049K21,5,434,PS,exp,40,↑,up,↑,0.4751663999632001,True,15,-1,0,7
Y2-S2-049K21,5,435,PS,exp,37,←,left,←,0.510394399985671,True,15,-1,0,7
Y2-S2-049K21,5,436,PS,exp,48,↑,up,↑,0.4454423999413848,True,15,1,1,8
Y2-S2-049K21,5,437,PS,exp,48,↓,down,↓,0.7165566000621766,True,14,1,0,8
Y2-S2-049K21,5,438,PS,exp,33,↑,up,↑,0.7032447000965476,True,14,1,0,8
Y2-S2-049K21,5,439,PS,exp,29,←,left,←,0.4576967000029981,True,14,1,0,8
Y2-S2-049K21,5,440,PS,exp,50,→,left,←,0.6443372999783605,False,13,-1,1,9
Y2-S2-049K21,5,441,PS,exp,44,↓,down,↓,0.6513036999385804,True,14,-1,0,9
Y2-S2-049K21,5,442,PS,exp,44,↑,up,↑,0.5935255000367761,True,14,-1,0,9
Y2-S2-049K21,5,443,PS,exp,26,↓,up,↑,0.5046592999715358,False,14,-1,0,9
Y2-S2-049K21,5,444,PS,exp,33,↑,up,↑,0.702775500016287,True,15,-1,0,9
Y2-S2-049K21,5,445,PS,exp,35,↓,down,↓,0.7323729998897761,True,15,-1,0,9
Y2-S2-049K21,5,446,PS,exp,47,←,no_key,no_letter,-1.0,False,15,-1,0,9
Y2-S2-049K21,5,447,PS,exp,32,↑,up,↑,0.4716377998702228,True,16,-1,0,9
Y2-S2-049K21,5,448,PS,exp,33,←,left,←,0.6295644000638276,True,16,-1,0,9
Y2-S2-049K21,5,449,PS,exp,41,→,right,→,0.5391583999153227,True,16,1,1,10
Y2-S2-049K21,5,450,PS,exp,42,↓,right,→,0.9383308000396937,False,15,-1,1,11
Y2-S2-049K21,5,451,PS,exp,42,←,left,←,0.44525340013206005,True,16,-1,0,11
Y2-S2-049K21,5,452,PS,exp,43,↓,right,→,0.505080500151962,False,16,-1,0,11
Y2-S2-049K21,5,453,PS,exp,44,←,left,←,0.47724679997190833,True,17,-1,0,11
Y2-S2-049K21,5,454,PS,exp,42,↓,down,↓,0.8574212999083102,True,17,-1,0,11
Y2-S2-049K21,5,455,PS,exp,37,↑,up,↑,0.7691579998936504,True,17,1,1,12
Y2-S2-049K21,5,456,PS,exp,48,↓,down,↓,0.6246406000573188,True,16,1,0,12
Y2-S2-049K21,5,457,PS,exp,39,→,right,→,0.6252439001109451,True,16,1,0,12
Y2-S2-049K21,5,458,PS,exp,48,←,left,←,0.4644759001675993,True,16,1,0,12
Y2-S2-049K21,5,459,PS,exp,37,↓,down,↓,0.7558995999861509,True,15,1,0,12
Y2-S2-049K21,5,460,PS,exp,35,↑,down,↓,0.9486724999733269,False,15,-1,1,13
Y2-S2-049K21,5,461,PS,exp,40,↓,down,↓,0.7444739998318255,True,16,-1,0,13
Y2-S2-049K21,5,462,PS,exp,45,→,right,→,0.821563099976629,True,16,-1,0,13
Y2-S2-049K21,5,463,PS,exp,37,↓,down,↓,0.6371774000581354,True,16,1,1,14
Y2-S2-049K21,5,464,PS,exp,49,↑,up,↑,0.6390019999817014,True,15,1,0,14
Y2-S2-049K21,5,465,PS,exp,29,↓,down,↓,1.0094147000927478,True,15,1,0,14
Y2-S2-049K21,5,466,PS,exp,35,→,right,→,0.6321996999904513,True,15,1,0,14
Y2-S2-049K21,5,467,PS,exp,40,↓,left,←,0.7312346999533474,False,14,-1,1,15
Y2-S2-049K21,5,468,PS,exp,40,→,right,→,0.5744539999868721,True,15,-1,0,15
Y2-S2-049K21,5,469,PS,exp,41,↑,up,↑,0.6525489999912679,True,15,-1,0,15
Y2-S2-049K21,5,470,PS,exp,26,→,right,→,0.550230799941346,True,15,1,1,16
Y2-S2-049K21,6,471,AS,intra_train,26,↑,right,→,1.0331335999071598,False,27,-,-,-
Y2-S2-049K21,6,472,AS,intra_train,30,←,right,→,1.264416600111872,False,27,-,-,-
Y2-S2-049K21,6,473,AS,intra_train,26,→,right,→,0.8275363999418914,True,27,-,-,-
Y2-S2-049K21,6,474,AS,intra_train,28,↑,up,↑,0.6564676000270993,True,27,-,-,-
Y2-S2-049K21,6,475,AS,intra_train,48,↓,no_key,no_letter,-1.0,False,27,-,-,-
Y2-S2-049K21,6,476,AS,exp,45,←,right,→,0.8578236000612378,False,18,-1,0,0
Y2-S2-049K21,6,477,AS,exp,35,→,right,→,0.8774520000442863,True,19,-1,0,0
Y2-S2-049K21,6,478,AS,exp,41,↓,left,←,1.1705116000957787,False,19,-1,0,0
Y2-S2-049K21,6,479,AS,exp,44,←,left,←,0.9654796000104398,True,20,-1,0,0
Y2-S2-049K21,6,480,AS,exp,33,↓,right,→,1.3036196001339704,False,20,-1,0,0
Y2-S2-049K21,6,481,AS,exp,50,←,left,←,1.3741885998751968,True,21,-1,0,0
Y2-S2-049K21,6,482,AS,exp,28,↓,left,←,1.157773100072518,False,21,-1,0,0
Y2-S2-049K21,6,483,AS,exp,27,←,left,←,0.5980344000272453,True,22,-1,0,0
Y2-S2-049K21,6,484,AS,exp,27,↑,left,←,1.0676243000198156,False,22,-1,0,0
Y2-S2-049K21,6,485,AS,exp,28,←,left,←,0.8228082999121398,True,23,-1,0,0
Y2-S2-049K21,6,486,AS,exp,46,↑,down,↓,1.1290074000135064,False,23,-1,0,0
Y2-S2-049K21,6,487,AS,exp,27,←,no_key,no_letter,-1.0,False,24,-1,0,0
Y2-S2-049K21,6,488,AS,exp,29,↓,down,↓,1.4123134999535978,True,25,-1,0,0
Y2-S2-049K21,6,489,AS,exp,38,↑,up,↑,0.7233603000640869,True,25,-1,0,0
Y2-S2-049K21,6,490,AS,exp,33,→,right,→,0.658926900010556,True,25,1,1,1
Y2-S2-049K21,6,491,AS,exp,42,↓,down,↓,0.6318212000187486,True,24,1,0,1
Y2-S2-049K21,6,492,AS,exp,28,↑,up,↑,0.5929455000441521,True,24,1,0,1
Y2-S2-049K21,6,493,AS,exp,40,↓,down,↓,0.8814273998141289,True,24,1,0,1
Y2-S2-049K21,6,494,AS,exp,34,→,right,→,0.6428321001585573,True,23,1,0,1
Y2-S2-049K21,6,495,AS,exp,39,↓,down,↓,0.9171869999263436,True,23,1,0,1
Y2-S2-049K21,6,496,AS,exp,45,←,right,→,1.0773323001340032,False,23,-1,1,2
Y2-S2-049K21,6,497,AS,exp,38,→,right,→,0.8043865999206901,True,24,-1,0,2
Y2-S2-049K21,6,498,AS,exp,30,↑,down,↓,1.2267654000315815,False,24,-1,0,2
Y2-S2-049K21,6,499,AS,exp,28,←,left,←,0.9923402999993414,True,25,-1,0,2
Y2-S2-049K21,6,500,AS,exp,32,→,right,→,0.8161698998883367,True,25,-1,0,2
Y2-S2-049K21,6,501,AS,exp,46,↓,down,↓,0.759262700099498,True,25,1,1,3
Y2-S2-049K21,6,502,AS,exp,39,→,right,→,0.7526988000608981,True,24,1,0,3
Y2-S2-049K21,6,503,AS,exp,46,↑,up,↑,0.6063121999613941,True,24,1,0,3
Y2-S2-049K21,6,504,AS,exp,26,←,left,←,1.9029743000864983,True,24,1,0,3
Y2-S2-049K21,6,505,AS,exp,46,→,right,→,0.6691924999468029,True,23,1,0,3
Y2-S2-049K21,6,506,AS,exp,34,←,left,←,0.7554905000142753,True,23,1,0,3
Y2-S2-049K21,6,507,AS,exp,35,→,right,→,0.7067274001892656,True,23,1,0,3
Y2-S2-049K21,6,508,AS,exp,43,←,left,←,1.7866125998552889,True,22,1,0,3
Y2-S2-049K21,6,509,AS,exp,31,↑,up,↑,0.46714670001529157,True,22,1,0,3
Y2-S2-049K21,6,510,AS,exp,26,↓,up,↑,1.0502235000021756,False,22,-1,1,4
Y2-S2-049K21,6,511,AS,exp,47,←,left,←,0.5006787998136133,True,23,-1,0,4
Y2-S2-049K21,6,512,AS,exp,25,↑,up,↑,0.5865402000490576,True,23,-1,0,4
Y2-S2-049K21,6,513,AS,exp,28,←,left,←,0.6098251999355853,True,23,1,1,5
Y2-S2-049K21,6,514,AS,exp,25,↑,left,←,1.0432899999432266,False,22,-1,1,6
Y2-S2-049K21,6,515,AS,exp,41,↓,down,↓,0.651023400016129,True,23,-1,0,6
Y2-S2-049K21,6,516,AS,exp,37,↑,down,↓,1.1119840999599546,False,23,-1,0,6
Y2-S2-049K21,6,517,AS,exp,29,→,left,←,1.0479534000623971,False,24,-1,0,6
Y2-S2-049K21,6,518,AS,exp,40,←,left,←,0.6857223999686539,True,25,-1,0,6
Y2-S2-049K21,6,519,AS,exp,48,↓,down,↓,0.8683771998621523,True,25,-1,0,6
Y2-S2-049K21,6,520,AS,exp,31,↑,down,↓,0.9937535000499338,False,25,-1,0,6
Y2-S2-049K21,6,521,AS,exp,26,↓,down,↓,0.9106191999744624,True,26,-1,0,6
Y2-S2-049K21,6,522,AS,exp,35,←,left,←,0.608466099947691,True,26,-1,0,6
Y2-S2-049K21,6,523,AS,exp,33,→,right,→,0.6307263998314738,True,26,1,1,7
Y2-S2-049K21,6,524,AS,exp,32,←,left,←,0.8115796998608857,True,25,1,0,7
Y2-S2-049K21,6,525,AS,exp,39,↓,down,↓,1.2001724999863654,True,25,1,0,7
Y2-S2-049K21,6,526,AS,exp,30,←,left,←,0.8521173000335693,True,25,1,0,7
Y2-S2-049K21,6,527,AS,exp,45,→,right,→,1.68544159992598,True,24,1,0,7
Y2-S2-049K21,6,528,AS,exp,33,←,left,←,0.737054499797523,True,24,1,0,7
Y2-S2-049K21,6,529,AS,exp,31,↑,up,↑,0.8296628999523818,True,24,1,0,7
Y2-S2-049K21,6,530,AS,exp,38,→,right,→,0.8585352001246065,True,23,1,0,7
Y2-S2-049K21,6,531,AS,exp,50,↓,down,↓,0.8380737998522818,True,23,1,0,7
Y2-S2-049K21,6,532,AS,exp,35,→,left,←,0.9717153999954462,False,23,-1,1,8
Y2-S2-049K21,6,533,AS,exp,50,←,left,←,0.5337743998970836,True,24,-1,0,8
Y2-S2-049K21,6,534,AS,exp,25,→,right,→,0.9562221001833677,True,24,-1,0,8
Y2-S2-049K21,6,535,AS,exp,29,←,left,←,0.8812325999606401,True,24,1,1,9
Y2-S2-049K21,6,536,AS,exp,31,↑,up,↑,0.9693968000356108,True,23,1,0,9
Y2-S2-049K21,6,537,AS,exp,47,→,right,→,0.9085391000844538,True,23,1,0,9
Y2-S2-049K21,6,538,AS,exp,27,←,left,←,0.6225904000457376,True,23,1,0,9
Y2-S2-049K21,6,539,AS,exp,39,↑,no_key,no_letter,-1.0,False,22,-1,1,10
Y2-S2-049K21,6,540,AS,exp,43,←,left,←,0.6663663000799716,True,23,-1,0,10
Y2-S2-049K21,6,541,AS,exp,46,↓,down,↓,0.6268974000122398,True,23,-1,0,10
Y2-S2-049K21,6,542,AS,exp,32,←,left,←,1.641794300172478,True,23,1,1,11
Y2-S2-049K21,6,543,AS,exp,43,↑,up,↑,0.48405369999818504,True,22,1,0,11
Y2-S2-049K21,6,544,AS,exp,38,←,left,←,0.5415014000609517,True,22,1,0,11
Y2-S2-049K21,6,545,AS,exp,33,→,right,→,0.9731868000235409,True,22,1,0,11
Y2-S2-049K21,6,546,AS,exp,43,←,left,←,0.4843345999252051,True,21,1,0,11
Y2-S2-049K21,6,547,AS,exp,38,↑,up,↑,0.7223296999000013,True,21,1,0,11
Y2-S2-049K21,6,548,AS,exp,36,→,right,→,0.4841483000200242,True,21,1,0,11
Y2-S2-049K21,6,549,AS,exp,36,↓,right,→,0.7991320001892745,False,20,-1,1,12
Y2-S2-049K21,6,550,AS,exp,48,↑,up,↑,0.6126834000460804,True,21,-1,0,12
Y2-S2-049K21,6,551,AS,exp,36,↓,down,↓,0.6456374998670071,True,21,-1,0,12
Y2-S2-049K21,6,552,AS,exp,49,→,right,→,0.5724768999498338,True,21,1,1,13
Y2-S2-049K21,6,553,AS,exp,30,←,right,→,1.1027228999882936,False,20,-1,1,14
Y2-S2-049K21,6,554,AS,exp,44,↓,down,↓,0.8679822999984026,True,21,-1,0,14
Y2-S2-049K21,6,555,AS,exp,25,→,left,←,1.115437899949029,False,21,-1,0,14
Y2-S2-049K21,6,556,AS,exp,36,↓,down,↓,0.8541603998746723,True,22,-1,0,14
Y2-S2-049K21,6,557,AS,exp,49,→,right,→,0.606815499952063,True,22,-1,0,14
Y2-S2-049K21,6,558,AS,exp,30,↑,up,↑,0.7634300000499934,True,22,1,1,15
Y2-S2-049K21,6,559,AS,exp,49,↓,up,↑,0.6440506000071764,False,21,-1,1,16
Y2-S2-049K21,7,560,AS,intra_train,30,←,left,←,0.7940475000068545,True,27,-,-,-
Y2-S2-049K21,7,561,AS,intra_train,33,→,right,→,0.808245399966836,True,27,-,-,-
Y2-S2-049K21,7,562,AS,intra_train,29,←,left,←,0.533868599915877,True,27,-,-,-
Y2-S2-049K21,7,563,AS,intra_train,48,→,right,→,0.8574363000225276,True,27,-,-,-
Y2-S2-049K21,7,564,AS,intra_train,26,↓,down,↓,1.0141829999629408,True,27,-,-,-
Y2-S2-049K21,7,565,AS,exp,42,→,right,→,0.6427476999815553,True,18,0,0,0
Y2-S2-049K21,7,566,AS,exp,45,↓,left,←,1.1202020000200719,False,18,-1,0,0
Y2-S2-049K21,7,567,AS,exp,48,→,right,→,0.7657281002029777,True,19,-1,0,0
Y2-S2-049K21,7,568,AS,exp,41,↑,right,→,1.2232951000332832,False,19,-1,0,0
Y2-S2-049K21,7,569,AS,exp,48,←,left,←,0.5513952001929283,True,20,-1,0,0
Y2-S2-049K21,7,570,AS,exp,31,↑,up,↑,0.6291889001149684,True,20,-1,0,0
Y2-S2-049K21,7,571,AS,exp,31,↓,up,↑,0.8422583001665771,False,20,-1,0,0
Y2-S2-049K21,7,572,AS,exp,34,↑,up,↑,0.48348860000260174,True,21,-1,0,0
Y2-S2-049K21,7,573,AS,exp,36,↓,no_key,no_letter,-1.0,False,21,-1,0,0
Y2-S2-049K21,7,574,AS,exp,50,→,right,→,0.7358407001011074,True,22,-1,0,0
Y2-S2-049K21,7,575,AS,exp,30,↓,down,↓,0.9523159998934716,True,22,-1,0,0
Y2-S2-049K21,7,576,AS,exp,25,←,left,←,0.66217130003497,True,22,1,1,1
Y2-S2-049K21,7,577,AS,exp,39,→,right,→,0.75505860010162,True,21,1,0,1
Y2-S2-049K21,7,578,AS,exp,31,←,left,←,0.8987391002010554,True,21,1,0,1
Y2-S2-049K21,7,579,AS,exp,40,↓,left,←,0.6143867999780923,False,21,-1,1,2
Y2-S2-049K21,7,580,AS,exp,35,←,left,←,0.9129350997973233,True,22,-1,0,2
Y2-S2-049K21,7,581,AS,exp,47,→,right,→,0.9711392999161035,True,22,-1,0,2
Y2-S2-049K21,7,582,AS,exp,36,↑,down,↓,1.5342272999696434,False,22,-1,0,2
Y2-S2-049K21,7,583,AS,exp,36,→,no_key,no_letter,-1.0,False,23,-1,0,2
Y2-S2-049K21,7,584,AS,exp,36,←,left,←,1.9251823001541197,True,24,-1,0,2
Y2-S2-049K21,7,585,AS,exp,26,↓,down,↓,0.7131103998981416,True,24,-1,0,2
Y2-S2-049K21,7,586,AS,exp,31,→,right,→,0.638162000104785,True,24,1,1,3
Y2-S2-049K21,7,587,AS,exp,45,←,left,←,0.484066299861297,True,23,1,0,3
Y2-S2-049K21,7,588,AS,exp,48,↓,down,↓,1.0104119998868555,True,23,1,0,3
Y2-S2-049K21,7,589,AS,exp,47,→,right,→,0.6693424000404775,True,23,1,0,3
Y2-S2-049K21,7,590,AS,exp,28,←,no_key,no_letter,-1.0,False,22,-1,1,4
Y2-S2-049K21,7,591,AS,exp,36,↑,up,↑,0.8126105000264943,True,23,-1,0,4
Y2-S2-049K21,7,592,AS,exp,25,←,left,←,0.7350643000099808,True,23,-1,0,4
Y2-S2-049K21,7,593,AS,exp,45,↑,up,↑,0.5007880001794547,True,23,1,1,5
Y2-S2-049K21,7,594,AS,exp,42,←,left,←,0.6907053999602795,True,22,1,0,5
Y2-S2-049K21,7,595,AS,exp,29,↓,down,↓,0.9025512000080198,True,22,1,0,5
Y2-S2-049K21,7,596,AS,exp,31,←,left,←,0.713772099930793,True,22,1,0,5
Y2-S2-049K21,7,597,AS,exp,46,→,right,→,0.48380169994197786,True,21,1,0,5
Y2-S2-049K21,7,598,AS,exp,50,←,left,←,0.5779763001482934,True,21,1,0,5
Y2-S2-049K21,7,599,AS,exp,41,↓,down,↓,0.8728183000348508,True,21,1,0,5
Y2-S2-049K21,7,600,AS,exp,26,→,left,←,0.6310231999959797,False,20,-1,1,6
Y2-S2-049K21,7,601,AS,exp,32,↑,up,↑,0.525718699907884,True,21,-1,0,6
Y2-S2-049K21,7,602,AS,exp,50,↓,down,↓,1.0585231999866664,True,21,-1,0,6
Y2-S2-049K21,7,603,AS,exp,50,↑,up,↑,1.6530596998054534,True,21,1,1,7
Y2-S2-049K21,7,604,AS,exp,30,←,left,←,0.7823993000201881,True,20,1,0,7
Y2-S2-049K21,7,605,AS,exp,31,→,right,→,0.5957484000828117,True,20,1,0,7
Y2-S2-049K21,7,606,AS,exp,26,←,right,→,0.8323091000784189,False,20,-1,1,8
Y2-S2-049K21,7,607,AS,exp,40,↑,up,↑,1.1369543999899179,True,21,-1,0,8
Y2-S2-049K21,7,608,AS,exp,49,→,right,→,0.8963271998800337,True,21,-1,0,8
Y2-S2-049K21,7,609,AS,exp,27,↑,up,↑,0.8050788000691682,True,21,1,1,9
Y2-S2-049K21,7,610,AS,exp,27,↓,down,↓,0.6729725999757648,True,20,1,0,9
Y2-S2-049K21,7,611,AS,exp,28,↑,up,↑,0.46725420001894236,True,20,1,0,9
Y2-S2-049K21,7,612,AS,exp,27,←,left,←,0.7559096000622958,True,20,1,0,9
Y2-S2-049K21,7,613,AS,exp,34,↓,up,↑,0.8835120999719948,False,19,-1,1,10
Y2-S2-049K21,7,614,AS,exp,49,↑,up,↑,0.590453099925071,True,20,-1,0,10
Y2-S2-049K21,7,615,AS,exp,26,←,up,↑,0.5102260999847203,False,20,-1,0,10
Y2-S2-049K21,7,616,AS,exp,35,→,right,→,0.9674980000127107,True,21,-1,0,10
Y2-S2-049K21,7,617,AS,exp,27,←,left,←,0.6161807000171393,True,21,-1,0,10
Y2-S2-049K21,7,618,AS,exp,39,↑,left,←,0.7307319000829011,False,21,-1,0,10
Y2-S2-049K21,7,619,AS,exp,41,→,right,→,0.8472926001995802,True,22,-1,0,10
Y2-S2-049K21,7,620,AS,exp,38,←,left,←,0.9067799998447299,True,22,-1,0,10
Y2-S2-049K21,7,621,AS,exp,25,→,left,←,0.5357833001762629,False,22,-1,0,10
Y2-S2-049K21,7,622,AS,exp,49,←,left,←,0.7683578999713063,True,23,-1,0,10
Y2-S2-049K21,7,623,AS,exp,48,→,right,→,0.6073451999109238,True,23,-1,0,10
Y2-S2-049K21,7,624,AS,exp,37,←,left,←,0.5805410998873413,True,23,1,1,11
Y2-S2-049K21,7,625,AS,exp,32,↑,up,↑,0.7931741001084447,True,22,1,0,11
Y2-S2-049K21,7,626,AS,exp,48,↓,down,↓,0.9627898000180721,True,22,1,0,11
Y2-S2-049K21,7,627,AS,exp,29,↑,up,↑,0.6562842999119312,True,22,1,0,11
Y2-S2-049K21,7,628,AS,exp,25,↓,down,↓,0.7100535000208765,True,21,1,0,11
Y2-S2-049K21,7,629,AS,exp,43,→,right,→,1.2173524999525398,True,21,1,0,11
Y2-S2-049K21,7,630,AS,exp,30,↑,up,↑,0.9350245001260191,True,21,1,0,11
Y2-S2-049K21,7,631,AS,exp,35,↓,down,↓,0.6553088999353349,True,20,1,0,11
Y2-S2-049K21,7,632,AS,exp,43,→,right,→,0.7533550998196006,True,20,1,0,11
Y2-S2-049K21,7,633,AS,exp,49,←,right,→,1.0252528998535126,False,20,-1,1,12
Y2-S2-049K21,7,634,AS,exp,42,↑,up,↑,0.8788726001512259,True,21,-1,0,12
Y2-S2-049K21,7,635,AS,exp,34,←,left,←,0.6076593999750912,True,21,-1,0,12
Y2-S2-049K21,7,636,AS,exp,34,→,right,→,0.6094213000033051,True,21,1,1,13
Y2-S2-049K21,7,637,AS,exp,33,←,right,→,0.8843690999783576,False,20,-1,1,14
Y2-S2-049K21,7,638,AS,exp,34,↑,up,↑,1.9792162000667304,True,21,-1,0,14
Y2-S2-049K21,7,639,AS,exp,31,↓,up,↑,1.091158599825576,False,21,-1,0,14
Y2-S2-049K21,7,640,AS,exp,50,→,up,↑,0.9264938000123948,False,22,-1,0,14
Y2-S2-049K21,7,641,AS,exp,34,←,left,←,0.8479479001834989,True,23,-1,0,14
Y2-S2-049K21,7,642,AS,exp,47,→,right,→,0.6002341997809708,True,23,-1,0,14
Y2-S2-049K21,7,643,AS,exp,50,↓,down,↓,0.9540611999109387,True,23,1,1,15
Y2-S2-049K21,7,644,AS,exp,45,↑,up,↑,0.8571458000224084,True,22,1,0,15
Y2-S2-049K21,7,645,AS,exp,45,←,left,←,1.5273863000329584,True,22,1,0,15
Y2-S2-049K21,7,646,AS,exp,29,→,right,→,0.7490220998879522,True,22,1,0,15
Y2-S2-049K21,7,647,AS,exp,35,↓,down,↓,0.9564012000337243,True,21,1,0,15
Y2-S2-049K21,7,648,AS,exp,45,←,left,←,0.7669501001946628,True,21,1,0,15
Y2-S2-049K21,7,649,AS,exp,44,↓,down,↓,0.7725633999798447,True,21,1,0,15
Y2-S2-049K21,7,650,AS,exp,26,→,right,→,0.7191761001013219,True,20,1,0,15
Y2-S2-049K21,7,651,AS,exp,49,↓,right,→,1.0431967000477016,False,20,-1,1,16
Y2-S2-049K21,8,652,PS,intra_train,41,→,right,→,1.6888342001475394,True,13,-,-,-
Y2-S2-049K21,8,653,PS,intra_train,29,←,left,←,0.5360073999036103,True,13,-,-,-
Y2-S2-049K21,8,654,PS,intra_train,34,↓,down,↓,0.6991779000964016,True,13,-,-,-
Y2-S2-049K21,8,655,PS,intra_train,47,↑,left,←,1.1605929001234472,False,13,-,-,-
Y2-S2-049K21,8,656,PS,intra_train,40,←,left,←,0.488322600023821,True,13,-,-,-
Y2-S2-049K21,8,657,PS,exp,47,↓,down,↓,0.6687912999186665,True,9,0,0,0
Y2-S2-049K21,8,658,PS,exp,42,→,left,←,0.767316099954769,False,9,-1,0,0
Y2-S2-049K21,8,659,PS,exp,50,↓,down,↓,0.7249529999680817,True,10,-1,0,0
Y2-S2-049K21,8,660,PS,exp,47,→,left,←,0.6714860999491066,False,10,-1,0,0
Y2-S2-049K21,8,661,PS,exp,48,↓,left,←,1.0018454000819474,False,11,-1,0,0
Y2-S2-049K21,8,662,PS,exp,38,→,right,→,0.6417719998862594,True,12,-1,0,0
Y2-S2-049K21,8,663,PS,exp,31,←,no_key,no_letter,-1.0,False,12,-1,0,0
Y2-S2-049K21,8,664,PS,exp,42,↓,down,↓,0.6070295998360962,True,13,-1,0,0
Y2-S2-049K21,8,665,PS,exp,40,→,left,←,0.7042566000018269,False,13,-1,0,0
Y2-S2-049K21,8,666,PS,exp,46,←,no_key,no_letter,-1.0,False,14,-1,0,0
Y2-S2-049K21,8,667,PS,exp,29,↓,down,↓,0.8790666998829693,True,15,-1,0,0
Y2-S2-049K21,8,668,PS,exp,26,←,left,←,0.5043378998525441,True,15,-1,0,0
Y2-S2-049K21,8,669,PS,exp,38,↑,up,↑,0.6401692999061197,True,15,1,1,1
Y2-S2-049K21,8,670,PS,exp,27,↓,down,↓,0.6804603000637144,True,14,1,0,1
Y2-S2-049K21,8,671,PS,exp,48,↑,down,↓,0.709032200044021,False,14,-1,1,2
Y2-S2-049K21,8,672,PS,exp,34,←,left,←,0.4730161998886615,True,15,-1,0,2
Y2-S2-049K21,8,673,PS,exp,49,→,right,→,0.7348764999769628,True,15,-1,0,2
Y2-S2-049K21,8,674,PS,exp,35,↑,right,→,0.6237051000352949,False,15,-1,0,2
Y2-S2-049K21,8,675,PS,exp,28,→,left,←,0.45105940010398626,False,16,-1,0,2
Y2-S2-049K21,8,676,PS,exp,49,↑,up,↑,0.6560816999990493,True,17,-1,0,2
Y2-S2-049K21,8,677,PS,exp,29,→,right,→,0.8704081999603659,True,17,-1,0,2
Y2-S2-049K21,8,678,PS,exp,38,↑,up,↑,0.4621577998623252,True,17,1,1,3
Y2-S2-049K21,8,679,PS,exp,35,↓,down,↓,0.626515100011602,True,16,1,0,3
Y2-S2-049K21,8,680,PS,exp,38,→,right,→,0.6219688998535275,True,16,1,0,3
Y2-S2-049K21,8,681,PS,exp,32,↓,down,↓,0.6718722002115101,True,16,1,0,3
Y2-S2-049K21,8,682,PS,exp,37,↑,up,↑,0.9821719001047313,True,15,1,0,3
Y2-S2-049K21,8,683,PS,exp,39,↓,down,↓,0.568098499905318,True,15,1,0,3
Y2-S2-049K21,8,684,PS,exp,49,→,left,←,0.38392610009759665,False,15,-1,1,4
Y2-S2-049K21,8,685,PS,exp,34,←,down,↓,1.033049900084734,False,16,-1,0,4
Y2-S2-049K21,8,686,PS,exp,33,↑,up,↑,0.5018402999266982,True,17,-1,0,4
Y2-S2-049K21,8,687,PS,exp,47,→,right,→,0.6422530999407172,True,17,-1,0,4
Y2-S2-049K21,8,688,PS,exp,48,↓,down,↓,0.5941604000981897,True,17,1,1,5
Y2-S2-049K21,8,689,PS,exp,33,←,left,←,0.6693704999051988,True,16,1,0,5
Y2-S2-049K21,8,690,PS,exp,48,→,right,→,0.610378400189802,True,16,1,0,5
Y2-S2-049K21,8,691,PS,exp,26,←,right,→,1.1116369999945164,False,16,-1,1,6
Y2-S2-049K21,8,692,PS,exp,28,↓,down,↓,0.6054966999217868,True,17,-1,0,6
Y2-S2-049K21,8,693,PS,exp,25,↑,up,↑,0.5561689999885857,True,17,-1,0,6
Y2-S2-049K21,8,694,PS,exp,37,↓,down,↓,0.4867067998275161,True,17,1,1,7
Y2-S2-049K21,8,695,PS,exp,49,→,right,→,0.6195423000026494,True,16,1,0,7
Y2-S2-049K21,8,696,PS,exp,38,↓,down,↓,0.5263133000116795,True,16,1,0,7
Y2-S2-049K21,8,697,PS,exp,45,→,right,→,0.6536962001118809,True,16,1,0,7
Y2-S2-049K21,8,698,PS,exp,49,↓,down,↓,0.7500415998511016,True,15,1,0,7
Y2-S2-049K21,8,699,PS,exp,32,↑,up,↑,0.5951652000658214,True,15,1,0,7
Y2-S2-049K21,8,700,PS,exp,29,←,left,←,0.5694604001473635,True,15,1,0,7
Y2-S2-049K21,8,701,PS,exp,26,→,right,→,0.5573532001581043,True,14,1,0,7
Y2-S2-049K21,8,702,PS,exp,39,↑,up,↑,0.4634880998637527,True,14,1,0,7
Y2-S2-049K21,8,703,PS,exp,48,↓,down,↓,0.7642320001032203,True,14,1,0,7
Y2-S2-049K21,8,704,PS,exp,29,→,right,→,0.6070112001616508,True,13,1,0,7
Y2-S2-049K21,8,705,PS,exp,26,←,left,←,0.59818259999156,True,13,1,0,7
Y2-S2-049K21,8,706,PS,exp,46,↑,up,↑,0.5561917999293655,True,13,1,0,7
Y2-S2-049K21,8,707,PS,exp,26,↓,down,↓,0.6386999001260847,True,12,1,0,7
Y2-S2-049K21,8,708,PS,exp,30,↑,up,↑,0.4409801000729203,True,12,1,0,7
Y2-S2-049K21,8,709,PS,exp,29,↓,down,↓,0.6555536999367177,True,12,1,0,7
Y2-S2-049K21,8,710,PS,exp,49,→,right,→,0.6904514001216739,True,11,1,0,7
Y2-S2-049K21,8,711,PS,exp,25,←,right,→,0.7310665000695735,False,11,-1,1,8
Y2-S2-049K21,8,712,PS,exp,32,↓,down,↓,0.6647495999932289,True,12,-1,0,8
Y2-S2-049K21,8,713,PS,exp,44,←,left,←,0.4206993000116199,True,12,-1,0,8
Y2-S2-049K21,8,714,PS,exp,25,↑,up,↑,0.5009651998989284,True,12,1,1,9
Y2-S2-049K21,8,715,PS,exp,40,↓,down,↓,0.6754149000626057,True,11,1,0,9
Y2-S2-049K21,8,716,PS,exp,47,↑,up,↑,0.5703865000978112,True,11,1,0,9
Y2-S2-049K21,8,717,PS,exp,42,↓,down,↓,0.8035351999569684,True,11,1,0,9
Y2-S2-049K21,8,718,PS,exp,42,↑,up,↑,0.7066284997854382,True,10,1,0,9
Y2-S2-049K21,8,719,PS,exp,49,←,left,←,0.8669485000427812,True,10,1,0,9
Y2-S2-049K21,8,720,PS,exp,41,↓,down,↓,0.5960843001957983,True,10,1,0,9
Y2-S2-049K21,8,721,PS,exp,48,→,right,→,0.6102525999303907,True,9,1,0,9
Y2-S2-049K21,8,722,PS,exp,39,↑,up,↑,0.562324000056833,True,9,1,0,9
Y2-S2-049K21,8,723,PS,exp,47,↓,right,→,1.2491820000577718,False,9,-1,1,10
Y2-S2-049K21,8,724,PS,exp,40,→,right,→,0.6961717000231147,True,10,-1,0,10
Y2-S2-049K21,8,725,PS,exp,46,↑,up,↑,0.6188749999273568,True,10,-1,0,10
Y2-S2-049K21,8,726,PS,exp,25,→,right,→,0.966463299933821,True,10,1,1,11
Y2-S2-049K21,8,727,PS,exp,48,↑,left,←,0.5593053000047803,False,9,-1,1,12
Y2-S2-049K21,8,728,PS,exp,44,→,right,→,0.5176575998775661,True,10,-1,0,12
Y2-S2-049K21,8,729,PS,exp,45,←,left,←,0.5777313997969031,True,10,-1,0,12
Y2-S2-049K21,8,730,PS,exp,42,↓,down,↓,0.6023776999209076,True,10,1,1,13
Y2-S2-049K21,8,731,PS,exp,38,→,right,→,0.5207551000639796,True,9,1,0,13
Y2-S2-049K21,8,732,PS,exp,37,↓,left,←,0.7434658000711352,False,9,-1,1,14
Y2-S2-049K21,8,733,PS,exp,40,→,left,←,0.6743724001571536,False,10,-1,0,14
Y2-S2-049K21,8,734,PS,exp,31,←,right,→,0.5740424001123756,False,11,-1,0,14
Y2-S2-049K21,8,735,PS,exp,49,↑,up,↑,0.45701460004784167,True,12,-1,0,14
Y2-S2-049K21,8,736,PS,exp,45,↓,up,↑,0.6942890000063926,False,12,-1,0,14
Y2-S2-049K21,8,737,PS,exp,47,→,right,→,0.5633366000838578,True,13,-1,0,14
Y2-S2-049K21,8,738,PS,exp,34,↓,down,↓,0.6034484999254346,True,13,-1,0,14
Y2-S2-049K21,8,739,PS,exp,44,↑,up,↑,0.4416565999854356,True,13,1,1,15
Y2-S2-049K21,8,740,PS,exp,31,↓,down,↓,0.5173689001239836,True,12,1,0,15
Y2-S2-049K21,8,741,PS,exp,47,→,right,→,0.571785599924624,True,12,1,0,15
Y2-S2-049K21,8,742,PS,exp,33,↑,up,↑,0.47449309984222054,True,12,1,0,15
Y2-S2-049K21,8,743,PS,exp,41,←,left,←,0.49441899987868965,True,11,1,0,15
Y2-S2-049K21,8,744,PS,exp,39,↓,down,↓,0.655910599976778,True,11,1,0,15
Y2-S2-049K21,8,745,PS,exp,41,←,left,←,0.7634395998902619,True,11,1,0,15
Y2-S2-049K21,8,746,PS,exp,34,↓,down,↓,0.6797422000672668,True,10,1,0,15
Y2-S2-049K21,8,747,PS,exp,46,←,left,←,0.5457389000803232,True,10,1,0,15
Y2-S2-049K21,8,748,PS,exp,39,↑,up,↑,0.5620555998757482,True,10,1,0,15
Y2-S2-049K21,8,749,PS,exp,32,←,left,←,0.4344268999993801,True,9,1,0,15
Y2-S2-049K21,8,750,PS,exp,46,→,right,→,0.9832456998992711,True,9,1,0,15
Y2-S2-049K21,8,751,PS,exp,44,←,left,←,0.49496169993653893,True,9,1,0,15
Y2-S2-049K21,8,752,PS,exp,50,↑,up,↑,0.4863213000353426,True,8,1,0,15
Y2-S2-049K21,8,753,PS,exp,50,←,left,←,0.44006589986383915,True,8,1,0,15
Y2-S2-049K21,8,754,PS,exp,25,↓,down,↓,0.7645962999667972,True,8,1,0,15
Y2-S2-049K21,8,755,PS,exp,48,→,left,←,1.2208695001900196,False,7,-1,1,16
