PART_ID,Block_no,Trial_no,Block_type,Trial_type,CSI,Stim_letter,Key_pressed,letter_choose,Rt,Corr,Stimulus Time,Level,Reversal,Revs_count
Y2-S2-112M21,1,1,PS,train,45,↓,down,↓,0.8032717000023695,True,30,-,-,-
Y2-S2-112M21,1,2,PS,train,25,→,right,→,0.5508473999943817,True,30,-,-,-
Y2-S2-112M21,1,3,PS,train,34,↑,up,↑,0.5173673999961466,True,30,-,-,-
Y2-S2-112M21,1,4,PS,train,32,↓,down,↓,0.500500899986946,True,30,-,-,-
Y2-S2-112M21,1,5,PS,train,40,↑,up,↑,0.4839270999946166,True,30,-,-,-
Y2-S2-112M21,1,6,PS,train,36,←,left,←,0.5676010000024689,True,30,-,-,-
Y2-S2-112M21,1,7,PS,train,36,→,right,→,0.5340375000087079,True,30,-,-,-
Y2-S2-112M21,1,8,PS,train,47,↑,up,↑,0.4838237000076333,True,30,-,-,-
Y2-S2-112M21,1,9,PS,train,43,↓,down,↓,0.5503794999967795,True,30,-,-,-
Y2-S2-112M21,1,10,PS,train,43,←,left,←,0.46765820001019165,True,30,-,-,-
Y2-S2-112M21,2,11,AS,train,40,↑,up,↑,0.6676950999972178,True,45,-,-,-
Y2-S2-112M21,2,12,AS,train,36,←,left,←,0.9258847000019159,True,45,-,-,-
Y2-S2-112M21,2,13,AS,train,45,↓,down,↓,1.0155244000052335,True,45,-,-,-
Y2-S2-112M21,2,14,AS,train,30,←,left,←,0.6347569000063231,True,45,-,-,-
Y2-S2-112M21,2,15,AS,train,31,↓,down,↓,0.6001886000012746,True,45,-,-,-
Y2-S2-112M21,2,16,AS,train,26,↑,up,↑,0.6346474000019953,True,45,-,-,-
Y2-S2-112M21,2,17,AS,train,38,↓,down,↓,0.6016884999989998,True,45,-,-,-
Y2-S2-112M21,2,18,AS,train,36,→,right,→,0.7840793999930611,True,45,-,-,-
Y2-S2-112M21,2,19,AS,train,41,↑,up,↑,0.7671128000074532,True,45,-,-,-
Y2-S2-112M21,2,20,AS,train,47,→,right,→,0.6676147000107449,True,45,-,-,-
Y2-S2-112M21,-,21,PS,adaptive,32,↑,up,↑,0.4729473000043072,True,10,0,0,0
Y2-S2-112M21,-,22,PS,adaptive,48,↓,down,↓,0.7737248000048567,True,10,0,0,0
Y2-S2-112M21,-,23,PS,adaptive,39,←,down,↓,1.3627847000025213,False,10,-1,0,0
Y2-S2-112M21,-,24,PS,adaptive,44,→,right,→,0.5999288000020897,True,11,-1,0,0
Y2-S2-112M21,-,25,PS,adaptive,35,↓,down,↓,0.5452357000031043,True,11,-1,0,0
Y2-S2-112M21,-,26,PS,adaptive,33,→,right,→,0.563763400001335,True,11,1,1,1
Y2-S2-112M21,-,27,PS,adaptive,39,←,left,←,0.756941799991182,True,10,1,0,1
Y2-S2-112M21,-,28,PS,adaptive,34,↑,up,↑,0.6758994999981951,True,10,1,0,1
Y2-S2-112M21,-,29,PS,adaptive,27,←,left,←,0.6488852000038605,True,10,1,0,1
Y2-S2-112M21,-,30,PS,adaptive,31,↑,up,↑,0.9855494000075851,True,9,1,0,1
Y2-S2-112M21,-,31,PS,adaptive,28,←,left,←,0.4899248000001535,True,9,1,0,1
Y2-S2-112M21,-,32,PS,adaptive,35,→,right,→,0.5395497999998042,True,9,1,0,1
Y2-S2-112M21,-,33,PS,adaptive,28,↑,up,↑,0.5723778000101447,True,8,1,0,1
Y2-S2-112M21,-,34,PS,adaptive,34,↓,up,↑,0.5506616999919061,False,8,-1,1,2
Y2-S2-112M21,-,35,PS,adaptive,28,→,right,→,0.5660659999994095,True,9,-1,0,2
Y2-S2-112M21,-,36,PS,adaptive,33,↓,left,←,0.5883226000005379,False,9,-1,0,2
Y2-S2-112M21,-,37,PS,adaptive,46,↑,up,↑,0.4794079999992391,True,10,-1,0,2
Y2-S2-112M21,-,38,PS,adaptive,28,←,left,←,0.5016577999922447,True,10,-1,0,2
Y2-S2-112M21,-,39,PS,adaptive,44,↑,up,↑,0.5139573999913409,True,10,1,1,3
Y2-S2-112M21,-,40,PS,adaptive,27,→,right,→,0.5444046999909915,True,9,1,0,3
Y2-S2-112M21,-,41,PS,adaptive,45,↑,up,↑,0.7046917999978177,True,9,1,0,3
Y2-S2-112M21,-,42,PS,adaptive,36,↓,right,→,1.1641322999930708,False,9,-1,1,4
Y2-S2-112M21,-,43,AS,adaptive,39,→,right,→,0.6280450000049314,True,20,0,0,0
Y2-S2-112M21,-,44,AS,adaptive,32,↓,down,↓,0.6440000000002328,True,20,0,0,0
Y2-S2-112M21,-,45,AS,adaptive,41,↑,up,↑,0.9602640999946743,True,20,1,0,0
Y2-S2-112M21,-,46,AS,adaptive,46,←,left,←,0.6503809999994701,True,19,1,0,0
Y2-S2-112M21,-,47,AS,adaptive,36,↑,up,↑,0.5000701999961166,True,19,1,0,0
Y2-S2-112M21,-,48,AS,adaptive,40,→,right,→,0.5035690000077011,True,19,1,0,0
Y2-S2-112M21,-,49,AS,adaptive,38,←,left,←,0.593467700004112,True,18,1,0,0
Y2-S2-112M21,-,50,AS,adaptive,31,↓,down,↓,0.6688465000042925,True,18,1,0,0
Y2-S2-112M21,-,51,AS,adaptive,36,↑,up,↑,0.49731779999274295,True,18,1,0,0
Y2-S2-112M21,-,52,AS,adaptive,39,←,left,←,0.996928199994727,True,17,1,0,0
Y2-S2-112M21,-,53,AS,adaptive,35,→,right,→,0.6458767000003718,True,17,1,0,0
Y2-S2-112M21,-,54,AS,adaptive,41,↓,up,↑,1.1788361000071745,False,17,-1,1,1
Y2-S2-112M21,-,55,AS,adaptive,36,←,left,←,0.9635994999989634,True,18,-1,0,1
Y2-S2-112M21,-,56,AS,adaptive,43,↓,up,↑,1.096161800000118,False,18,-1,0,1
Y2-S2-112M21,-,57,AS,adaptive,27,↑,up,↑,0.5922369000036269,True,19,-1,0,1
Y2-S2-112M21,-,58,AS,adaptive,28,→,left,←,0.6547588999965228,False,19,-1,0,1
Y2-S2-112M21,-,59,AS,adaptive,48,↓,down,↓,0.632760699998471,True,20,-1,0,1
Y2-S2-112M21,-,60,AS,adaptive,39,←,left,←,0.5441982999909669,True,20,-1,0,1
Y2-S2-112M21,-,61,AS,adaptive,48,↑,up,↑,0.5443971000058809,True,20,1,1,2
Y2-S2-112M21,-,62,AS,adaptive,30,→,left,←,0.7939077000046382,False,19,-1,1,3
Y2-S2-112M21,-,63,AS,adaptive,27,↑,up,↑,0.5774721000052523,True,20,-1,0,3
Y2-S2-112M21,-,64,AS,adaptive,44,→,right,→,0.606466500001261,True,20,-1,0,3
Y2-S2-112M21,-,65,AS,adaptive,38,←,left,←,0.5440948000032222,True,20,1,1,4
Y2-S2-112M21,1,66,AS,intra_train,37,↓,down,↓,0.6392279000137933,True,28,-,-,-
Y2-S2-112M21,1,67,AS,intra_train,42,→,right,→,0.7034784999996191,True,28,-,-,-
Y2-S2-112M21,1,68,AS,intra_train,41,←,left,←,1.099289999998291,True,28,-,-,-
Y2-S2-112M21,1,69,AS,intra_train,44,→,right,→,0.5504507000005106,True,28,-,-,-
Y2-S2-112M21,1,70,AS,intra_train,31,↓,down,↓,0.6005985999945551,True,28,-,-,-
Y2-S2-112M21,1,71,AS,exp,30,→,right,→,1.7443691000080435,True,19,0,0,0
Y2-S2-112M21,1,72,AS,exp,36,↑,left,←,1.5617952000029618,False,19,-1,0,0
Y2-S2-112M21,1,73,AS,exp,40,←,left,←,0.6049543999979505,True,20,-1,0,0
Y2-S2-112M21,1,74,AS,exp,25,↑,up,↑,0.6076578999927733,True,20,-1,0,0
Y2-S2-112M21,1,75,AS,exp,44,→,left,←,0.8919154000031995,False,20,-1,0,0
Y2-S2-112M21,1,76,AS,exp,36,↑,up,↑,0.6113048999977764,True,21,-1,0,0
Y2-S2-112M21,1,77,AS,exp,37,→,right,→,0.6650636999984272,True,21,-1,0,0
Y2-S2-112M21,1,78,AS,exp,47,←,left,←,0.8970079999999143,True,21,1,1,1
Y2-S2-112M21,1,79,AS,exp,47,↑,up,↑,0.7216535000043223,True,20,1,0,1
Y2-S2-112M21,1,80,AS,exp,25,→,left,←,0.5076983000035398,False,20,-1,1,2
Y2-S2-112M21,1,81,AS,exp,46,←,left,←,0.8784363999875495,True,21,-1,0,2
Y2-S2-112M21,1,82,AS,exp,40,↑,left,←,1.5159649999986868,False,21,-1,0,2
Y2-S2-112M21,1,83,AS,exp,31,→,right,→,0.7945529999997234,True,22,-1,0,2
Y2-S2-112M21,1,84,AS,exp,33,←,left,←,0.7859479000035208,True,22,-1,0,2
Y2-S2-112M21,1,85,AS,exp,27,↑,up,↑,0.7466146999940975,True,22,1,1,3
Y2-S2-112M21,1,86,AS,exp,41,↓,down,↓,0.8351166999927955,True,21,1,0,3
Y2-S2-112M21,1,87,AS,exp,40,↑,left,←,1.8373563999921316,False,21,-1,1,4
Y2-S2-112M21,1,88,AS,exp,35,↓,down,↓,0.8464144000026863,True,22,-1,0,4
Y2-S2-112M21,1,89,AS,exp,27,←,left,←,0.7749229000037303,True,22,-1,0,4
Y2-S2-112M21,1,90,AS,exp,36,→,right,→,1.1395819000026677,True,22,1,1,5
Y2-S2-112M21,1,91,AS,exp,39,↑,up,↑,0.7177185000036843,True,21,1,0,5
Y2-S2-112M21,1,92,AS,exp,30,←,left,←,0.7170843000058085,True,21,1,0,5
Y2-S2-112M21,1,93,AS,exp,44,→,right,→,0.6214162999967812,True,21,1,0,5
Y2-S2-112M21,1,94,AS,exp,41,←,left,←,0.5759787999995751,True,20,1,0,5
Y2-S2-112M21,1,95,AS,exp,39,↑,right,→,1.9652785999933258,False,20,-1,1,6
Y2-S2-112M21,1,96,AS,exp,39,←,left,←,0.6145869000029052,True,21,-1,0,6
Y2-S2-112M21,1,97,AS,exp,39,↓,down,↓,0.798686699999962,True,21,-1,0,6
Y2-S2-112M21,1,98,AS,exp,40,→,right,→,0.9268501000042306,True,21,1,1,7
Y2-S2-112M21,1,99,AS,exp,48,↑,up,↑,0.9038977000018349,True,20,1,0,7
Y2-S2-112M21,1,100,AS,exp,50,→,left,←,0.9305125999962911,False,20,-1,1,8
Y2-S2-112M21,1,101,AS,exp,36,←,left,←,1.0942523000121582,True,21,-1,0,8
Y2-S2-112M21,1,102,AS,exp,48,↑,up,↑,0.5818377999967197,True,21,-1,0,8
Y2-S2-112M21,1,103,AS,exp,42,←,left,←,0.5842711000004783,True,21,1,1,9
Y2-S2-112M21,1,104,AS,exp,41,↑,up,↑,0.800074400001904,True,20,1,0,9
Y2-S2-112M21,1,105,AS,exp,40,←,left,←,0.5468269000120927,True,20,1,0,9
Y2-S2-112M21,1,106,AS,exp,31,↓,down,↓,0.6348886000050697,True,20,1,0,9
Y2-S2-112M21,1,107,AS,exp,33,↑,up,↑,0.5407014999946114,True,19,1,0,9
Y2-S2-112M21,1,108,AS,exp,40,→,right,→,0.5996020000020508,True,19,1,0,9
Y2-S2-112M21,1,109,AS,exp,34,↓,down,↓,0.7631158000003779,True,19,1,0,9
Y2-S2-112M21,1,110,AS,exp,25,←,left,←,0.6155168999976013,True,18,1,0,9
Y2-S2-112M21,1,111,AS,exp,45,→,right,→,0.791607599996496,True,18,1,0,9
Y2-S2-112M21,1,112,AS,exp,34,↓,down,↓,0.6100161000067601,True,18,1,0,9
Y2-S2-112M21,1,113,AS,exp,25,←,left,←,0.694527299987385,True,17,1,0,9
Y2-S2-112M21,1,114,AS,exp,44,↑,left,←,1.2544047999981558,False,17,-1,1,10
Y2-S2-112M21,1,115,AS,exp,33,←,no_key,no_letter,-1.0,False,18,-1,0,10
Y2-S2-112M21,1,116,AS,exp,26,↓,down,↓,0.6125405000057071,True,19,-1,0,10
Y2-S2-112M21,1,117,AS,exp,42,←,left,←,0.7457774999929825,True,19,-1,0,10
Y2-S2-112M21,1,118,AS,exp,34,→,right,→,0.7348934000037843,True,19,1,1,11
Y2-S2-112M21,1,119,AS,exp,48,←,left,←,0.661025299996254,True,18,1,0,11
Y2-S2-112M21,1,120,AS,exp,47,↑,up,↑,0.6661996000038926,True,18,1,0,11
Y2-S2-112M21,1,121,AS,exp,28,↓,no_key,no_letter,-1.0,False,18,-1,1,12
Y2-S2-112M21,1,122,AS,exp,50,→,right,→,0.6925974999903701,True,19,-1,0,12
Y2-S2-112M21,1,123,AS,exp,33,↑,up,↑,0.6087925000028918,True,19,-1,0,12
Y2-S2-112M21,1,124,AS,exp,38,←,left,←,0.6318254000070738,True,19,1,1,13
Y2-S2-112M21,1,125,AS,exp,26,↓,down,↓,1.4732218999997713,True,18,1,0,13
Y2-S2-112M21,1,126,AS,exp,31,←,left,←,0.5663148000021465,True,18,1,0,13
Y2-S2-112M21,1,127,AS,exp,27,↑,up,↑,0.6343335999990813,True,18,1,0,13
Y2-S2-112M21,1,128,AS,exp,43,→,right,→,0.6790055000019493,True,17,1,0,13
Y2-S2-112M21,1,129,AS,exp,28,←,left,←,0.5836965999915265,True,17,1,0,13
Y2-S2-112M21,1,130,AS,exp,31,↓,down,↓,0.6778487999981735,True,17,1,0,13
Y2-S2-112M21,1,131,AS,exp,43,→,right,→,0.556064399992465,True,16,1,0,13
Y2-S2-112M21,1,132,AS,exp,47,←,left,←,0.9155335999967065,True,16,1,0,13
Y2-S2-112M21,1,133,AS,exp,41,↓,down,↓,0.8184954000025755,True,16,1,0,13
Y2-S2-112M21,1,134,AS,exp,35,→,right,→,0.826159699994605,True,15,1,0,13
Y2-S2-112M21,1,135,AS,exp,34,↑,down,↓,1.3109460999985458,False,15,-1,1,14
Y2-S2-112M21,1,136,AS,exp,28,→,right,→,0.688140199999907,True,16,-1,0,14
Y2-S2-112M21,1,137,AS,exp,45,↓,down,↓,0.6068038999947021,True,16,-1,0,14
Y2-S2-112M21,1,138,AS,exp,44,←,left,←,0.5551616000011563,True,16,1,1,15
Y2-S2-112M21,1,139,AS,exp,37,→,left,←,0.8072526000032667,False,15,-1,1,16
Y2-S2-112M21,2,140,PS,intra_train,41,↑,up,↑,1.7532955999922706,True,15,-,-,-
Y2-S2-112M21,2,141,PS,intra_train,46,←,left,←,0.5302340000052936,True,15,-,-,-
Y2-S2-112M21,2,142,PS,intra_train,34,↑,up,↑,0.527109400005429,True,15,-,-,-
Y2-S2-112M21,2,143,PS,intra_train,29,←,left,←,0.44454129999212455,True,15,-,-,-
Y2-S2-112M21,2,144,PS,intra_train,29,↑,up,↑,0.7156593999970937,True,15,-,-,-
Y2-S2-112M21,2,145,PS,exp,44,→,right,→,0.6719707000011113,True,10,0,0,0
Y2-S2-112M21,2,146,PS,exp,31,←,left,←,0.5340089999954216,True,10,0,0,0
Y2-S2-112M21,2,147,PS,exp,41,→,right,→,0.6428274999925634,True,10,1,0,0
Y2-S2-112M21,2,148,PS,exp,38,←,left,←,0.5283127000002423,True,9,1,0,0
Y2-S2-112M21,2,149,PS,exp,39,↓,down,↓,0.602712399995653,True,9,1,0,0
Y2-S2-112M21,2,150,PS,exp,39,←,left,←,0.5930993999936618,True,9,1,0,0
Y2-S2-112M21,2,151,PS,exp,41,↓,left,←,0.9994780999986688,False,8,-1,1,1
Y2-S2-112M21,2,152,PS,exp,44,←,left,←,0.6342729000025429,True,9,-1,0,1
Y2-S2-112M21,2,153,PS,exp,40,→,right,→,0.7801825000060489,True,9,-1,0,1
Y2-S2-112M21,2,154,PS,exp,48,↑,up,↑,1.5518266999861225,True,9,1,1,2
Y2-S2-112M21,2,155,PS,exp,34,←,left,←,0.5759832000039751,True,8,1,0,2
Y2-S2-112M21,2,156,PS,exp,26,↑,up,↑,0.6272666000004392,True,8,1,0,2
Y2-S2-112M21,2,157,PS,exp,35,↓,left,←,0.654448000001139,False,8,-1,1,3
Y2-S2-112M21,2,158,PS,exp,48,→,right,→,0.5825178999948548,True,9,-1,0,3
Y2-S2-112M21,2,159,PS,exp,38,↑,left,←,0.7187192999990657,False,9,-1,0,3
Y2-S2-112M21,2,160,PS,exp,43,←,left,←,0.5005436000064947,True,10,-1,0,3
Y2-S2-112M21,2,161,PS,exp,45,↓,down,↓,1.100659400006407,True,10,-1,0,3
Y2-S2-112M21,2,162,PS,exp,40,→,right,→,0.5411159000068437,True,10,1,1,4
Y2-S2-112M21,2,163,PS,exp,48,↑,left,←,0.8256183999910718,False,9,-1,1,5
Y2-S2-112M21,2,164,PS,exp,47,↓,down,↓,0.5992344999976922,True,10,-1,0,5
Y2-S2-112M21,2,165,PS,exp,45,↑,no_key,no_letter,-1.0,False,10,-1,0,5
Y2-S2-112M21,2,166,PS,exp,41,→,right,→,0.5097616999992169,True,11,-1,0,5
Y2-S2-112M21,2,167,PS,exp,31,↓,down,↓,0.6291914000030374,True,11,-1,0,5
Y2-S2-112M21,2,168,PS,exp,28,→,right,→,0.6067590000020573,True,11,1,1,6
Y2-S2-112M21,2,169,PS,exp,39,↑,up,↑,0.7830495000089286,True,10,1,0,6
Y2-S2-112M21,2,170,PS,exp,36,↓,down,↓,0.6506726999941748,True,10,1,0,6
Y2-S2-112M21,2,171,PS,exp,42,→,right,→,0.6548322000016924,True,10,1,0,6
Y2-S2-112M21,2,172,PS,exp,37,↓,down,↓,0.6166672999970615,True,9,1,0,6
Y2-S2-112M21,2,173,PS,exp,39,→,right,→,0.6002429999934975,True,9,1,0,6
Y2-S2-112M21,2,174,PS,exp,39,←,left,←,0.574714500005939,True,9,1,0,6
Y2-S2-112M21,2,175,PS,exp,48,↓,right,→,0.93664980000176,False,8,-1,1,7
Y2-S2-112M21,2,176,PS,exp,34,→,right,→,0.5867699999944307,True,9,-1,0,7
Y2-S2-112M21,2,177,PS,exp,38,↑,up,↑,1.594691199992667,True,9,-1,0,7
Y2-S2-112M21,2,178,PS,exp,33,↓,down,↓,0.6355925000098068,True,9,1,1,8
Y2-S2-112M21,2,179,PS,exp,28,←,left,←,0.6254863999929512,True,8,1,0,8
Y2-S2-112M21,2,180,PS,exp,47,↓,down,↓,0.6336167999979807,True,8,1,0,8
Y2-S2-112M21,2,181,PS,exp,31,←,left,←,0.6219187999959104,True,8,1,0,8
Y2-S2-112M21,2,182,PS,exp,39,↓,down,↓,0.5681660999980522,True,7,1,0,8
Y2-S2-112M21,2,183,PS,exp,42,→,left,←,1.2915683000028366,False,7,-1,1,9
Y2-S2-112M21,2,184,PS,exp,47,↓,down,↓,0.5779153000039514,True,8,-1,0,9
Y2-S2-112M21,2,185,PS,exp,25,←,left,←,0.726730199996382,True,8,-1,0,9
Y2-S2-112M21,2,186,PS,exp,30,→,left,←,0.6755446000024676,False,8,-1,0,9
Y2-S2-112M21,2,187,PS,exp,31,↑,up,↑,0.6379019000014523,True,9,-1,0,9
Y2-S2-112M21,2,188,PS,exp,35,→,left,←,0.5650795999972615,False,9,-1,0,9
Y2-S2-112M21,2,189,PS,exp,47,←,left,←,0.61308700000518,True,10,-1,0,9
Y2-S2-112M21,2,190,PS,exp,28,→,right,→,0.6705990000045858,True,10,-1,0,9
Y2-S2-112M21,2,191,PS,exp,44,←,left,←,0.45845799999369774,True,10,1,1,10
Y2-S2-112M21,2,192,PS,exp,48,→,right,→,0.512379099993268,True,9,1,0,10
Y2-S2-112M21,2,193,PS,exp,33,↑,up,↑,0.6269921000057366,True,9,1,0,10
Y2-S2-112M21,2,194,PS,exp,39,←,left,←,0.5695935999974608,True,9,1,0,10
Y2-S2-112M21,2,195,PS,exp,27,↓,right,→,0.6578267000004416,False,8,-1,1,11
Y2-S2-112M21,2,196,PS,exp,33,→,right,→,0.5062980999937281,True,9,-1,0,11
Y2-S2-112M21,2,197,PS,exp,35,↓,down,↓,0.5645955999934813,True,9,-1,0,11
Y2-S2-112M21,2,198,PS,exp,39,↑,up,↑,0.6062845999986166,True,9,1,1,12
Y2-S2-112M21,2,199,PS,exp,28,→,right,→,0.6954139000008581,True,8,1,0,12
Y2-S2-112M21,2,200,PS,exp,36,←,left,←,0.5312475999962771,True,8,1,0,12
Y2-S2-112M21,2,201,PS,exp,34,↓,down,↓,0.6770834000053583,True,8,1,0,12
Y2-S2-112M21,2,202,PS,exp,32,↑,up,↑,0.6491393999895081,True,7,1,0,12
Y2-S2-112M21,2,203,PS,exp,33,→,right,→,0.5358494999964023,True,7,1,0,12
Y2-S2-112M21,2,204,PS,exp,31,←,left,←,0.4409447999933036,True,7,1,0,12
Y2-S2-112M21,2,205,PS,exp,49,↓,down,↓,0.5635092000011355,True,6,1,0,12
Y2-S2-112M21,2,206,PS,exp,49,←,down,↓,0.6746280999941519,False,6,-1,1,13
Y2-S2-112M21,2,207,PS,exp,33,↓,down,↓,0.5847383000073023,True,7,-1,0,13
Y2-S2-112M21,2,208,PS,exp,48,→,right,→,0.6396801999944728,True,7,-1,0,13
Y2-S2-112M21,2,209,PS,exp,44,←,no_key,no_letter,-1.0,False,7,-1,0,13
Y2-S2-112M21,2,210,PS,exp,40,↓,down,↓,0.5620248000050196,True,8,-1,0,13
Y2-S2-112M21,2,211,PS,exp,28,←,left,←,0.48421279998729005,True,8,-1,0,13
Y2-S2-112M21,2,212,PS,exp,44,↓,no_key,no_letter,-1.0,False,8,-1,0,13
Y2-S2-112M21,2,213,PS,exp,39,←,left,←,0.5354919000092195,True,9,-1,0,13
Y2-S2-112M21,2,214,PS,exp,35,↑,up,↑,0.46936810000624973,True,9,-1,0,13
Y2-S2-112M21,2,215,PS,exp,41,←,left,←,0.503330299994559,True,9,1,1,14
Y2-S2-112M21,2,216,PS,exp,37,↑,up,↑,0.5479464000090957,True,8,1,0,14
Y2-S2-112M21,2,217,PS,exp,39,↓,down,↓,0.5048511999921175,True,8,1,0,14
Y2-S2-112M21,2,218,PS,exp,45,→,down,↓,0.8596443999995245,False,8,-1,1,15
Y2-S2-112M21,2,219,PS,exp,49,←,left,←,0.5660341999900993,True,9,-1,0,15
Y2-S2-112M21,2,220,PS,exp,41,↑,up,↑,0.5529803999961587,True,9,-1,0,15
Y2-S2-112M21,2,221,PS,exp,32,→,right,→,0.5937332000030437,True,9,1,1,16
Y2-S2-112M21,3,222,PS,intra_train,47,↑,down,↓,0.6012425999942934,False,15,-,-,-
Y2-S2-112M21,3,223,PS,intra_train,42,←,left,←,0.48627129998931196,True,15,-,-,-
Y2-S2-112M21,3,224,PS,intra_train,43,↑,up,↑,0.5413861999986693,True,15,-,-,-
Y2-S2-112M21,3,225,PS,intra_train,28,←,left,←,1.1247265999991214,True,15,-,-,-
Y2-S2-112M21,3,226,PS,intra_train,34,↑,up,↑,0.5209973999881186,True,15,-,-,-
Y2-S2-112M21,3,227,PS,exp,48,←,left,←,0.5680415999959223,True,10,0,0,0
Y2-S2-112M21,3,228,PS,exp,39,↓,down,↓,0.5500018999882741,True,10,0,0,0
Y2-S2-112M21,3,229,PS,exp,47,←,left,←,0.45008229999803007,True,10,1,0,0
Y2-S2-112M21,3,230,PS,exp,27,↑,up,↑,1.0467502999963472,True,9,1,0,0
Y2-S2-112M21,3,231,PS,exp,26,←,left,←,0.4684296999912476,True,9,1,0,0
Y2-S2-112M21,3,232,PS,exp,40,↓,down,↓,0.5202624000085052,True,9,1,0,0
Y2-S2-112M21,3,233,PS,exp,34,↑,down,↓,0.6968486000114353,False,8,-1,1,1
Y2-S2-112M21,3,234,PS,exp,44,→,right,→,0.5261017000011634,True,9,-1,0,1
Y2-S2-112M21,3,235,PS,exp,48,↑,up,↑,0.49596650000603404,True,9,-1,0,1
Y2-S2-112M21,3,236,PS,exp,50,←,left,←,0.5404858000110835,True,9,1,1,2
Y2-S2-112M21,3,237,PS,exp,43,→,down,↓,0.8367298000084702,False,8,-1,1,3
Y2-S2-112M21,3,238,PS,exp,33,←,left,←,0.5073895000095945,True,9,-1,0,3
Y2-S2-112M21,3,239,PS,exp,44,↑,right,→,0.8002806000004057,False,9,-1,0,3
Y2-S2-112M21,3,240,PS,exp,30,←,left,←,0.6500053000054322,True,10,-1,0,3
Y2-S2-112M21,3,241,PS,exp,40,↓,down,↓,0.5597358000086388,True,10,-1,0,3
Y2-S2-112M21,3,242,PS,exp,31,↑,up,↑,0.6226384000037797,True,10,1,1,4
Y2-S2-112M21,3,243,PS,exp,45,←,left,←,0.5116505999903893,True,9,1,0,4
Y2-S2-112M21,3,244,PS,exp,26,→,right,→,0.6714438999915728,True,9,1,0,4
Y2-S2-112M21,3,245,PS,exp,33,←,left,←,0.5971223000087775,True,9,1,0,4
Y2-S2-112M21,3,246,PS,exp,43,↑,up,↑,0.6169877000065753,True,8,1,0,4
Y2-S2-112M21,3,247,PS,exp,45,→,right,→,0.4592188999959035,True,8,1,0,4
Y2-S2-112M21,3,248,PS,exp,36,↓,down,↓,0.47849809999752324,True,8,1,0,4
Y2-S2-112M21,3,249,PS,exp,31,→,right,→,0.5411085999949137,True,7,1,0,4
Y2-S2-112M21,3,250,PS,exp,41,↑,up,↑,0.5150387000030605,True,7,1,0,4
Y2-S2-112M21,3,251,PS,exp,39,↓,down,↓,0.5210072000045329,True,7,1,0,4
Y2-S2-112M21,3,252,PS,exp,44,←,left,←,0.5768685999937588,True,6,1,0,4
Y2-S2-112M21,3,253,PS,exp,42,↓,down,↓,0.6017038999998476,True,6,1,0,4
Y2-S2-112M21,3,254,PS,exp,30,↑,down,↓,1.1477330000052461,False,6,-1,1,5
Y2-S2-112M21,3,255,PS,exp,38,←,down,↓,0.834652699995786,False,7,-1,0,5
Y2-S2-112M21,3,256,PS,exp,38,↓,down,↓,0.5912252999987686,True,8,-1,0,5
Y2-S2-112M21,3,257,PS,exp,46,←,left,←,0.5595508999977028,True,8,-1,0,5
Y2-S2-112M21,3,258,PS,exp,34,→,right,→,0.5626896999892779,True,8,1,1,6
Y2-S2-112M21,3,259,PS,exp,49,↑,left,←,1.0801796000014292,False,7,-1,1,7
Y2-S2-112M21,3,260,PS,exp,34,→,right,→,0.6579486999980872,True,8,-1,0,7
Y2-S2-112M21,3,261,PS,exp,34,←,left,←,0.5606864000001224,True,8,-1,0,7
Y2-S2-112M21,3,262,PS,exp,50,→,down,↓,0.7415717999974731,False,8,-1,0,7
Y2-S2-112M21,3,263,PS,exp,34,↑,up,↑,1.0856028999987757,True,9,-1,0,7
Y2-S2-112M21,3,264,PS,exp,44,→,right,→,0.5201162000012118,True,9,-1,0,7
Y2-S2-112M21,3,265,PS,exp,31,↓,down,↓,0.5845688999979757,True,9,1,1,8
Y2-S2-112M21,3,266,PS,exp,29,↑,up,↑,0.588235099989106,True,8,1,0,8
Y2-S2-112M21,3,267,PS,exp,35,←,left,←,0.46606370000517927,True,8,1,0,8
Y2-S2-112M21,3,268,PS,exp,39,↓,down,↓,0.5276925999933155,True,8,1,0,8
Y2-S2-112M21,3,269,PS,exp,36,↑,up,↑,0.7003036999958567,True,7,1,0,8
Y2-S2-112M21,3,270,PS,exp,33,←,left,←,0.5220880999986548,True,7,1,0,8
Y2-S2-112M21,3,271,PS,exp,29,→,right,→,0.6989076000027126,True,7,1,0,8
Y2-S2-112M21,3,272,PS,exp,28,←,left,←,1.1024647999875015,True,6,1,0,8
Y2-S2-112M21,3,273,PS,exp,38,↓,down,↓,0.6392934999894351,True,6,1,0,8
Y2-S2-112M21,3,274,PS,exp,42,←,left,←,0.7902088000118965,True,6,1,0,8
Y2-S2-112M21,3,275,PS,exp,49,→,right,→,0.6841471999941859,True,5,1,0,8
Y2-S2-112M21,3,276,PS,exp,35,↓,down,↓,0.69068659999175,True,5,1,0,8
Y2-S2-112M21,3,277,PS,exp,30,→,right,→,0.6846908000006806,True,5,1,0,8
Y2-S2-112M21,3,278,PS,exp,42,←,left,←,0.88782910000009,True,4,1,0,8
Y2-S2-112M21,3,279,PS,exp,49,↑,no_key,no_letter,-1.0,False,4,-1,1,9
Y2-S2-112M21,3,280,PS,exp,29,←,up,↑,1.4960255999903893,False,5,-1,0,9
Y2-S2-112M21,3,281,PS,exp,38,→,right,→,0.567638699998497,True,6,-1,0,9
Y2-S2-112M21,3,282,PS,exp,35,↑,no_key,no_letter,-1.0,False,6,-1,0,9
Y2-S2-112M21,3,283,PS,exp,45,←,no_key,no_letter,-1.0,False,7,-1,0,9
Y2-S2-112M21,3,284,PS,exp,39,↑,left,←,0.8533660999964923,False,8,-1,0,9
Y2-S2-112M21,3,285,PS,exp,39,↓,left,←,0.8630224000080489,False,9,-1,0,9
Y2-S2-112M21,3,286,PS,exp,41,←,left,←,0.5343579000036698,True,10,-1,0,9
Y2-S2-112M21,3,287,PS,exp,34,→,right,→,0.5020024000114063,True,10,-1,0,9
Y2-S2-112M21,3,288,PS,exp,26,←,left,←,0.496772400001646,True,10,1,1,10
Y2-S2-112M21,3,289,PS,exp,27,→,right,→,0.4425658999971347,True,9,1,0,10
Y2-S2-112M21,3,290,PS,exp,50,←,left,←,0.43697520000569057,True,9,1,0,10
Y2-S2-112M21,3,291,PS,exp,28,→,right,→,0.589446300000418,True,9,1,0,10
Y2-S2-112M21,3,292,PS,exp,36,↑,right,→,0.5800064999930328,False,8,-1,1,11
Y2-S2-112M21,3,293,PS,exp,43,→,right,→,0.5401870999921812,True,9,-1,0,11
Y2-S2-112M21,3,294,PS,exp,39,↓,down,↓,0.5449200000002747,True,9,-1,0,11
Y2-S2-112M21,3,295,PS,exp,27,↑,up,↑,0.655115300003672,True,9,1,1,12
Y2-S2-112M21,3,296,PS,exp,49,←,left,←,0.6375557999999728,True,8,1,0,12
Y2-S2-112M21,3,297,PS,exp,48,↓,up,↑,1.6899620000040159,False,8,-1,1,13
Y2-S2-112M21,3,298,PS,exp,32,→,right,→,0.6421919999993406,True,9,-1,0,13
Y2-S2-112M21,3,299,PS,exp,30,↑,up,↑,0.6062431000027573,True,9,-1,0,13
Y2-S2-112M21,3,300,PS,exp,38,←,left,←,0.5556145000009565,True,9,1,1,14
Y2-S2-112M21,3,301,PS,exp,44,→,left,←,0.8924793000041973,False,8,-1,1,15
Y2-S2-112M21,3,302,PS,exp,40,←,left,←,0.7269267000083346,True,9,-1,0,15
Y2-S2-112M21,3,303,PS,exp,43,↓,left,←,0.5501941000111401,False,9,-1,0,15
Y2-S2-112M21,3,304,PS,exp,44,→,left,←,0.5329676000110339,False,10,-1,0,15
Y2-S2-112M21,3,305,PS,exp,28,←,left,←,0.5235721999924863,True,11,-1,0,15
Y2-S2-112M21,3,306,PS,exp,36,↓,left,←,0.6683549999870593,False,11,-1,0,15
Y2-S2-112M21,3,307,PS,exp,30,←,left,←,0.4724929000076372,True,12,-1,0,15
Y2-S2-112M21,3,308,PS,exp,30,→,left,←,0.8694295000022976,False,12,-1,0,15
Y2-S2-112M21,3,309,PS,exp,25,←,left,←,0.44453059999796096,True,13,-1,0,15
Y2-S2-112M21,3,310,PS,exp,34,→,right,→,0.6675340000074357,True,13,-1,0,15
Y2-S2-112M21,3,311,PS,exp,29,↓,down,↓,0.6230339000030654,True,13,1,1,16
Y2-S2-112M21,4,312,AS,intra_train,50,→,left,←,1.1147189999901457,False,28,-,-,-
Y2-S2-112M21,4,313,AS,intra_train,28,←,left,←,0.5672498999920208,True,28,-,-,-
Y2-S2-112M21,4,314,AS,intra_train,42,→,right,→,0.6525504000019282,True,28,-,-,-
Y2-S2-112M21,4,315,AS,intra_train,42,↓,down,↓,0.8278157000022475,True,28,-,-,-
Y2-S2-112M21,4,316,AS,intra_train,28,↑,up,↑,0.6662308999948436,True,28,-,-,-
Y2-S2-112M21,4,317,AS,exp,31,↓,no_key,no_letter,-1.0,False,19,-1,0,0
Y2-S2-112M21,4,318,AS,exp,35,↑,up,↑,1.0719042999990052,True,20,-1,0,0
Y2-S2-112M21,4,319,AS,exp,44,←,up,↑,0.8584086000046227,False,20,-1,0,0
Y2-S2-112M21,4,320,AS,exp,32,↑,down,↓,0.992918500007363,False,21,-1,0,0
Y2-S2-112M21,4,321,AS,exp,25,↓,down,↓,0.792861099995207,True,22,-1,0,0
Y2-S2-112M21,4,322,AS,exp,32,↑,up,↑,0.6192041000031168,True,22,-1,0,0
Y2-S2-112M21,4,323,AS,exp,43,←,left,←,0.6017812999925809,True,22,1,1,1
Y2-S2-112M21,4,324,AS,exp,44,→,right,→,0.5853650999924866,True,21,1,0,1
Y2-S2-112M21,4,325,AS,exp,41,↑,up,↑,0.5602841999934753,True,21,1,0,1
Y2-S2-112M21,4,326,AS,exp,34,←,left,←,0.6130137000000104,True,21,1,0,1
Y2-S2-112M21,4,327,AS,exp,46,↑,up,↑,0.5654784000071231,True,20,1,0,1
Y2-S2-112M21,4,328,AS,exp,31,←,left,←,0.5475353000074392,True,20,1,0,1
Y2-S2-112M21,4,329,AS,exp,49,↑,up,↑,0.7238937999936752,True,20,1,0,1
Y2-S2-112M21,4,330,AS,exp,40,←,left,←,0.5463766000029864,True,19,1,0,1
Y2-S2-112M21,4,331,AS,exp,38,↑,up,↑,0.5777435000054538,True,19,1,0,1
Y2-S2-112M21,4,332,AS,exp,26,→,left,←,0.5338378000014927,False,19,-1,1,2
Y2-S2-112M21,4,333,AS,exp,25,↓,down,↓,0.6719836999982363,True,20,-1,0,2
Y2-S2-112M21,4,334,AS,exp,44,←,left,←,0.9971670999948401,True,20,-1,0,2
Y2-S2-112M21,4,335,AS,exp,49,↑,up,↑,0.5656135000026552,True,20,1,1,3
Y2-S2-112M21,4,336,AS,exp,45,→,right,→,0.6264520000113407,True,19,1,0,3
Y2-S2-112M21,4,337,AS,exp,48,↑,down,↓,1.2203080000035698,False,19,-1,1,4
Y2-S2-112M21,4,338,AS,exp,25,←,left,←,0.5896954000054393,True,20,-1,0,4
Y2-S2-112M21,4,339,AS,exp,36,↓,down,↓,0.8820692000008421,True,20,-1,0,4
Y2-S2-112M21,4,340,AS,exp,45,←,left,←,0.736677699998836,True,20,1,1,5
Y2-S2-112M21,4,341,AS,exp,41,→,right,→,0.7411508999939542,True,19,1,0,5
Y2-S2-112M21,4,342,AS,exp,43,←,left,←,0.5312048999912804,True,19,1,0,5
Y2-S2-112M21,4,343,AS,exp,41,→,left,←,0.5442261999996845,False,19,-1,1,6
Y2-S2-112M21,4,344,AS,exp,33,←,left,←,0.5382706000091275,True,20,-1,0,6
Y2-S2-112M21,4,345,AS,exp,46,↓,down,↓,0.5165718000062043,True,20,-1,0,6
Y2-S2-112M21,4,346,AS,exp,36,↑,up,↑,0.5820070000045234,True,20,1,1,7
Y2-S2-112M21,4,347,AS,exp,26,←,right,→,0.8153861000027973,False,19,-1,1,8
Y2-S2-112M21,4,348,AS,exp,38,↑,up,↑,0.830906800008961,True,20,-1,0,8
Y2-S2-112M21,4,349,AS,exp,44,→,right,→,0.621233999991091,True,20,-1,0,8
Y2-S2-112M21,4,350,AS,exp,47,↓,down,↓,0.8350274000113131,True,20,1,1,9
Y2-S2-112M21,4,351,AS,exp,38,→,right,→,0.6670772999932524,True,19,1,0,9
Y2-S2-112M21,4,352,AS,exp,26,↑,up,↑,0.7354793999984395,True,19,1,0,9
Y2-S2-112M21,4,353,AS,exp,49,→,right,→,0.7504447999963304,True,19,1,0,9
Y2-S2-112M21,4,354,AS,exp,25,←,left,←,0.6511134000029415,True,18,1,0,9
Y2-S2-112M21,4,355,AS,exp,44,↑,up,↑,0.5705197000061162,True,18,1,0,9
Y2-S2-112M21,4,356,AS,exp,41,←,left,←,0.8750809000048321,True,18,1,0,9
Y2-S2-112M21,4,357,AS,exp,45,↑,up,↑,0.578856199994334,True,17,1,0,9
Y2-S2-112M21,4,358,AS,exp,41,↓,down,↓,0.8584420999977738,True,17,1,0,9
Y2-S2-112M21,4,359,AS,exp,31,↑,up,↑,0.6659422000084305,True,17,1,0,9
Y2-S2-112M21,4,360,AS,exp,48,←,left,←,0.7364499999966938,True,16,1,0,9
Y2-S2-112M21,4,361,AS,exp,43,↓,down,↓,0.8190447999950266,True,16,1,0,9
Y2-S2-112M21,4,362,AS,exp,42,←,left,←,0.6962511000019731,True,16,1,0,9
Y2-S2-112M21,4,363,AS,exp,37,↓,down,↓,0.5848213999997824,True,15,1,0,9
Y2-S2-112M21,4,364,AS,exp,26,→,right,→,0.8191614000097616,True,15,1,0,9
Y2-S2-112M21,4,365,AS,exp,46,↑,up,↑,0.4924295000091661,True,15,1,0,9
Y2-S2-112M21,4,366,AS,exp,40,→,right,→,0.696886200006702,True,14,1,0,9
Y2-S2-112M21,4,367,AS,exp,25,↑,down,↓,0.6828320000058739,False,14,-1,1,10
Y2-S2-112M21,4,368,AS,exp,26,↓,down,↓,0.5167839000059757,True,15,-1,0,10
Y2-S2-112M21,4,369,AS,exp,43,→,left,←,0.6656809999985853,False,15,-1,0,10
Y2-S2-112M21,4,370,AS,exp,42,↑,up,↑,0.8491229000064777,True,16,-1,0,10
Y2-S2-112M21,4,371,AS,exp,46,←,left,←,0.607050500009791,True,16,-1,0,10
Y2-S2-112M21,4,372,AS,exp,28,→,left,←,0.6956644999881973,False,16,-1,0,10
Y2-S2-112M21,4,373,AS,exp,50,↓,down,↓,0.7359761999978218,True,17,-1,0,10
Y2-S2-112M21,4,374,AS,exp,28,→,right,→,0.7880453999969177,True,17,-1,0,10
Y2-S2-112M21,4,375,AS,exp,30,↓,down,↓,0.6504227999976138,True,17,1,1,11
Y2-S2-112M21,4,376,AS,exp,47,→,right,→,0.8295293999981368,True,16,1,0,11
Y2-S2-112M21,4,377,AS,exp,34,↑,left,←,1.52161189999606,False,16,-1,1,12
Y2-S2-112M21,4,378,AS,exp,32,→,right,→,0.6148558999993838,True,17,-1,0,12
Y2-S2-112M21,4,379,AS,exp,27,↓,down,↓,0.7128384999959962,True,17,-1,0,12
Y2-S2-112M21,4,380,AS,exp,45,↑,down,↓,0.9399621000047773,False,17,-1,0,12
Y2-S2-112M21,4,381,AS,exp,43,→,right,→,0.5418185999878915,True,18,-1,0,12
Y2-S2-112M21,4,382,AS,exp,49,←,left,←,0.6451797999907285,True,18,-1,0,12
Y2-S2-112M21,4,383,AS,exp,45,↑,up,↑,1.3295142999995733,True,18,1,1,13
Y2-S2-112M21,4,384,AS,exp,43,←,up,↑,0.9742127999925287,False,17,-1,1,14
Y2-S2-112M21,4,385,AS,exp,38,↑,up,↑,0.51227839999774,True,18,-1,0,14
Y2-S2-112M21,4,386,AS,exp,44,←,left,←,0.5393657000095118,True,18,-1,0,14
Y2-S2-112M21,4,387,AS,exp,25,↓,down,↓,0.6576400000049034,True,18,1,1,15
Y2-S2-112M21,4,388,AS,exp,43,→,right,→,0.5150537000008626,True,17,1,0,15
Y2-S2-112M21,4,389,AS,exp,34,←,left,←,0.4887153000017861,True,17,1,0,15
Y2-S2-112M21,4,390,AS,exp,44,↑,down,↓,0.8508329000032973,False,17,-1,1,16
Y2-S2-112M21,5,391,AS,intra_train,42,→,right,→,1.5148247000033734,True,28,-,-,-
Y2-S2-112M21,5,392,AS,intra_train,43,↑,up,↑,0.8807518999965396,True,28,-,-,-
Y2-S2-112M21,5,393,AS,intra_train,38,↓,down,↓,0.8325369999947725,True,28,-,-,-
Y2-S2-112M21,5,394,AS,intra_train,38,←,left,←,0.7288547999924049,True,28,-,-,-
Y2-S2-112M21,5,395,AS,intra_train,45,↑,up,↑,0.6367235999932745,True,28,-,-,-
Y2-S2-112M21,5,396,AS,exp,38,→,right,→,0.6447417000017595,True,19,0,0,0
Y2-S2-112M21,5,397,AS,exp,27,←,left,←,0.6562015999952564,True,19,0,0,0
Y2-S2-112M21,5,398,AS,exp,47,↓,down,↓,0.5777340000058757,True,19,1,0,0
Y2-S2-112M21,5,399,AS,exp,47,→,up,↑,1.5360645000037039,False,18,-1,1,1
Y2-S2-112M21,5,400,AS,exp,41,←,left,←,0.5498566000023857,True,19,-1,0,1
Y2-S2-112M21,5,401,AS,exp,27,↑,up,↑,0.6970385999884456,True,19,-1,0,1
Y2-S2-112M21,5,402,AS,exp,46,←,left,←,0.5446207000059076,True,19,1,1,2
Y2-S2-112M21,5,403,AS,exp,33,↑,up,↑,0.9104023999971105,True,18,1,0,2
Y2-S2-112M21,5,404,AS,exp,39,→,right,→,0.928555000005872,True,18,1,0,2
Y2-S2-112M21,5,405,AS,exp,44,←,left,←,0.5349713999894448,True,18,1,0,2
Y2-S2-112M21,5,406,AS,exp,49,→,right,→,0.5560934000095585,True,17,1,0,2
Y2-S2-112M21,5,407,AS,exp,28,←,left,←,0.5951519999944139,True,17,1,0,2
Y2-S2-112M21,5,408,AS,exp,38,↓,down,↓,0.5952835000061896,True,17,1,0,2
Y2-S2-112M21,5,409,AS,exp,29,←,left,←,0.605378499996732,True,16,1,0,2
Y2-S2-112M21,5,410,AS,exp,32,↓,down,↓,0.6306094999890774,True,16,1,0,2
Y2-S2-112M21,5,411,AS,exp,26,→,right,→,0.6187517999933334,True,16,1,0,2
Y2-S2-112M21,5,412,AS,exp,45,←,left,←,0.6170650999993086,True,15,1,0,2
Y2-S2-112M21,5,413,AS,exp,35,↓,down,↓,0.7379306999937398,True,15,1,0,2
Y2-S2-112M21,5,414,AS,exp,38,←,down,↓,1.2972835999971721,False,15,-1,1,3
Y2-S2-112M21,5,415,AS,exp,38,→,right,→,0.634738799999468,True,16,-1,0,3
Y2-S2-112M21,5,416,AS,exp,31,←,left,←,0.5068233999918448,True,16,-1,0,3
Y2-S2-112M21,5,417,AS,exp,47,↑,up,↑,0.6354793999926187,True,16,1,1,4
Y2-S2-112M21,5,418,AS,exp,48,↓,up,↑,1.0241308999975445,False,15,-1,1,5
Y2-S2-112M21,5,419,AS,exp,50,→,right,→,0.5163629000016954,True,16,-1,0,5
Y2-S2-112M21,5,420,AS,exp,37,←,left,←,0.5781864000018686,True,16,-1,0,5
Y2-S2-112M21,5,421,AS,exp,29,→,right,→,0.8126940999936778,True,16,1,1,6
Y2-S2-112M21,5,422,AS,exp,38,↓,down,↓,0.5983172999985982,True,15,1,0,6
Y2-S2-112M21,5,423,AS,exp,45,←,left,←,0.6333897000004072,True,15,1,0,6
Y2-S2-112M21,5,424,AS,exp,41,↓,down,↓,0.8337389000080293,True,15,1,0,6
Y2-S2-112M21,5,425,AS,exp,38,↑,up,↑,0.6965513000031933,True,14,1,0,6
Y2-S2-112M21,5,426,AS,exp,36,→,right,→,0.6547264999971958,True,14,1,0,6
Y2-S2-112M21,5,427,AS,exp,43,↓,up,↑,0.7814255999983288,False,14,-1,1,7
Y2-S2-112M21,5,428,AS,exp,34,←,left,←,0.8091989000095055,True,15,-1,0,7
Y2-S2-112M21,5,429,AS,exp,50,→,right,→,0.5501331999985268,True,15,-1,0,7
Y2-S2-112M21,5,430,AS,exp,25,↓,down,↓,0.6852724999916973,True,15,1,1,8
Y2-S2-112M21,5,431,AS,exp,39,←,left,←,0.7642659999983152,True,14,1,0,8
Y2-S2-112M21,5,432,AS,exp,37,↑,up,↑,0.8333989000093425,True,14,1,0,8
Y2-S2-112M21,5,433,AS,exp,29,↓,down,↓,0.6713896000001114,True,14,1,0,8
Y2-S2-112M21,5,434,AS,exp,30,↑,up,↑,0.5569251999986591,True,13,1,0,8
Y2-S2-112M21,5,435,AS,exp,39,→,right,→,0.6296122000057949,True,13,1,0,8
Y2-S2-112M21,5,436,AS,exp,30,↑,up,↑,0.7297127999918303,True,13,1,0,8
Y2-S2-112M21,5,437,AS,exp,46,↓,up,↑,0.9547359999996843,False,12,-1,1,9
Y2-S2-112M21,5,438,AS,exp,43,→,left,←,0.9839987000013934,False,13,-1,0,9
Y2-S2-112M21,5,439,AS,exp,45,↑,up,↑,0.5838693999976385,True,14,-1,0,9
Y2-S2-112M21,5,440,AS,exp,49,→,right,→,0.510897299987846,True,14,-1,0,9
Y2-S2-112M21,5,441,AS,exp,28,←,right,→,0.7495364000060363,False,14,-1,0,9
Y2-S2-112M21,5,442,AS,exp,47,→,right,→,0.5245047000062186,True,15,-1,0,9
Y2-S2-112M21,5,443,AS,exp,47,↑,up,↑,0.9797259999904782,True,15,-1,0,9
Y2-S2-112M21,5,444,AS,exp,31,→,right,→,0.5349046999908751,True,15,1,1,10
Y2-S2-112M21,5,445,AS,exp,39,↑,up,↑,0.6405691000109073,True,14,1,0,10
Y2-S2-112M21,5,446,AS,exp,48,↓,down,↓,0.604755499996827,True,14,1,0,10
Y2-S2-112M21,5,447,AS,exp,48,←,left,←,0.5162415000086185,True,14,1,0,10
Y2-S2-112M21,5,448,AS,exp,25,↓,down,↓,0.6317306999990251,True,13,1,0,10
Y2-S2-112M21,5,449,AS,exp,37,→,right,→,0.5356405999918934,True,13,1,0,10
Y2-S2-112M21,5,450,AS,exp,35,↓,down,↓,0.6257057000038913,True,13,1,0,10
Y2-S2-112M21,5,451,AS,exp,38,↑,up,↑,1.3451424999948358,True,12,1,0,10
Y2-S2-112M21,5,452,AS,exp,37,←,left,←,0.6292804999975488,True,12,1,0,10
Y2-S2-112M21,5,453,AS,exp,31,↑,up,↑,0.6151174999977229,True,12,1,0,10
Y2-S2-112M21,5,454,AS,exp,31,←,no_key,no_letter,-1.0,False,11,-1,1,11
Y2-S2-112M21,5,455,AS,exp,33,↓,down,↓,0.491675800003577,True,12,-1,0,11
Y2-S2-112M21,5,456,AS,exp,38,←,left,←,0.5595800000010058,True,12,-1,0,11
Y2-S2-112M21,5,457,AS,exp,30,↑,up,↑,0.5765820999949938,True,12,1,1,12
Y2-S2-112M21,5,458,AS,exp,50,←,left,←,0.7971211999974912,True,11,1,0,12
Y2-S2-112M21,5,459,AS,exp,44,→,right,→,0.8077472000004491,True,11,1,0,12
Y2-S2-112M21,5,460,AS,exp,50,↓,down,↓,0.692130299998098,True,11,1,0,12
Y2-S2-112M21,5,461,AS,exp,45,→,right,→,0.58031309999933,True,10,1,0,12
Y2-S2-112M21,5,462,AS,exp,27,↓,left,←,0.773250599988387,False,10,-1,1,13
Y2-S2-112M21,5,463,AS,exp,50,→,left,←,0.7895110000099521,False,11,-1,0,13
Y2-S2-112M21,5,464,AS,exp,37,↓,left,←,0.6660964000038803,False,12,-1,0,13
Y2-S2-112M21,5,465,AS,exp,36,→,right,→,0.6565544999903068,True,13,-1,0,13
Y2-S2-112M21,5,466,AS,exp,48,←,up,↑,0.9540886000031605,False,13,-1,0,13
Y2-S2-112M21,5,467,AS,exp,44,→,left,←,0.616188100000727,False,14,-1,0,13
Y2-S2-112M21,5,468,AS,exp,40,↑,up,↑,0.5333584999898449,True,15,-1,0,13
Y2-S2-112M21,5,469,AS,exp,45,↓,down,↓,0.7072309000068344,True,15,-1,0,13
Y2-S2-112M21,5,470,AS,exp,34,→,right,→,0.5175599999929545,True,15,1,1,14
Y2-S2-112M21,5,471,AS,exp,36,↑,up,↑,1.0322664999985136,True,14,1,0,14
Y2-S2-112M21,5,472,AS,exp,35,↓,right,→,0.8774200999905588,False,14,-1,1,15
Y2-S2-112M21,5,473,AS,exp,37,↑,up,↑,0.5808704000082798,True,15,-1,0,15
Y2-S2-112M21,5,474,AS,exp,48,←,left,←,0.7632270000030985,True,15,-1,0,15
Y2-S2-112M21,5,475,AS,exp,47,→,right,→,0.8142827999981819,True,15,1,1,16
Y2-S2-112M21,6,476,PS,intra_train,38,←,left,←,0.5103557000111323,True,15,-,-,-
Y2-S2-112M21,6,477,PS,intra_train,32,→,right,→,0.46409399999538437,True,15,-,-,-
Y2-S2-112M21,6,478,PS,intra_train,37,↓,down,↓,0.7274032999994233,True,15,-,-,-
Y2-S2-112M21,6,479,PS,intra_train,40,→,right,→,0.5879024999885587,True,15,-,-,-
Y2-S2-112M21,6,480,PS,intra_train,47,↓,down,↓,0.5934279999928549,True,15,-,-,-
Y2-S2-112M21,6,481,PS,exp,30,←,left,←,0.4326179000054253,True,10,0,0,0
Y2-S2-112M21,6,482,PS,exp,50,→,right,→,0.3471043999888934,True,10,0,0,0
Y2-S2-112M21,6,483,PS,exp,49,←,left,←,0.6147865999955684,True,10,1,0,0
Y2-S2-112M21,6,484,PS,exp,35,↓,down,↓,0.5622634999890579,True,9,1,0,0
Y2-S2-112M21,6,485,PS,exp,33,↑,up,↑,0.5637207999970997,True,9,1,0,0
Y2-S2-112M21,6,486,PS,exp,32,←,left,←,0.624467999994522,True,9,1,0,0
Y2-S2-112M21,6,487,PS,exp,49,↑,right,→,0.5977457000117283,False,8,-1,1,1
Y2-S2-112M21,6,488,PS,exp,37,←,left,←,0.427986000009696,True,9,-1,0,1
Y2-S2-112M21,6,489,PS,exp,32,↓,up,↑,0.8688570000085747,False,9,-1,0,1
Y2-S2-112M21,6,490,PS,exp,38,←,left,←,0.5617016000032891,True,10,-1,0,1
Y2-S2-112M21,6,491,PS,exp,27,↑,up,↑,0.4889590999955544,True,10,-1,0,1
Y2-S2-112M21,6,492,PS,exp,40,←,left,←,0.46553149999817833,True,10,1,1,2
Y2-S2-112M21,6,493,PS,exp,44,→,right,→,0.5607346000033431,True,9,1,0,2
Y2-S2-112M21,6,494,PS,exp,45,←,left,←,0.48629800000344403,True,9,1,0,2
Y2-S2-112M21,6,495,PS,exp,28,↓,down,↓,0.7328654000011738,True,9,1,0,2
Y2-S2-112M21,6,496,PS,exp,43,→,right,→,0.5460634000046412,True,8,1,0,2
Y2-S2-112M21,6,497,PS,exp,39,←,left,←,0.7412316999980249,True,8,1,0,2
Y2-S2-112M21,6,498,PS,exp,31,↑,right,→,0.5751982999936445,False,8,-1,1,3
Y2-S2-112M21,6,499,PS,exp,26,←,left,←,0.46276989999751095,True,9,-1,0,3
Y2-S2-112M21,6,500,PS,exp,33,↓,right,→,0.593176800000947,False,9,-1,0,3
Y2-S2-112M21,6,501,PS,exp,27,→,right,→,0.5588700999942375,True,10,-1,0,3
Y2-S2-112M21,6,502,PS,exp,30,↑,up,↑,0.5504386999964481,True,10,-1,0,3
Y2-S2-112M21,6,503,PS,exp,31,←,left,←,0.5561110999988159,True,10,1,1,4
Y2-S2-112M21,6,504,PS,exp,45,↓,down,↓,0.5206310999928974,True,9,1,0,4
Y2-S2-112M21,6,505,PS,exp,34,↑,up,↑,0.7284901999955764,True,9,1,0,4
Y2-S2-112M21,6,506,PS,exp,34,↓,down,↓,0.5289938999922015,True,9,1,0,4
Y2-S2-112M21,6,507,PS,exp,41,↑,right,→,0.5510197000112385,False,8,-1,1,5
Y2-S2-112M21,6,508,PS,exp,36,←,left,←,0.4300471999886213,True,9,-1,0,5
Y2-S2-112M21,6,509,PS,exp,48,↑,up,↑,0.6015362999896752,True,9,-1,0,5
Y2-S2-112M21,6,510,PS,exp,33,←,left,←,0.4297089000028791,True,9,1,1,6
Y2-S2-112M21,6,511,PS,exp,25,↑,up,↑,0.48822079999081325,True,8,1,0,6
Y2-S2-112M21,6,512,PS,exp,45,←,right,→,0.577469600000768,False,8,-1,1,7
Y2-S2-112M21,6,513,PS,exp,50,→,right,→,0.5581388999999035,True,9,-1,0,7
Y2-S2-112M21,6,514,PS,exp,39,↑,left,←,0.8697374000039417,False,9,-1,0,7
Y2-S2-112M21,6,515,PS,exp,42,←,left,←,0.6209110000054352,True,10,-1,0,7
Y2-S2-112M21,6,516,PS,exp,46,↓,right,→,0.8098084999946877,False,10,-1,0,7
Y2-S2-112M21,6,517,PS,exp,44,→,right,→,0.5389285999990534,True,11,-1,0,7
Y2-S2-112M21,6,518,PS,exp,50,↑,up,↑,0.5811596999992616,True,11,-1,0,7
Y2-S2-112M21,6,519,PS,exp,36,↓,left,←,0.9460687000100734,False,11,-1,0,7
Y2-S2-112M21,6,520,PS,exp,31,↑,up,↑,0.48943190000136383,True,12,-1,0,7
Y2-S2-112M21,6,521,PS,exp,31,→,right,→,0.5688612000085413,True,12,-1,0,7
Y2-S2-112M21,6,522,PS,exp,27,↓,down,↓,0.5503994000027888,True,12,1,1,8
Y2-S2-112M21,6,523,PS,exp,44,↑,up,↑,0.5828848999954062,True,11,1,0,8
Y2-S2-112M21,6,524,PS,exp,27,←,left,←,0.9822775000066031,True,11,1,0,8
Y2-S2-112M21,6,525,PS,exp,29,→,right,→,0.42347209999570623,True,11,1,0,8
Y2-S2-112M21,6,526,PS,exp,44,↑,up,↑,0.6631467999977758,True,10,1,0,8
Y2-S2-112M21,6,527,PS,exp,27,↓,left,←,1.286769699989236,False,10,-1,1,9
Y2-S2-112M21,6,528,PS,exp,33,↑,up,↑,0.588927099990542,True,11,-1,0,9
Y2-S2-112M21,6,529,PS,exp,32,↓,right,→,0.5297901000012644,False,11,-1,0,9
Y2-S2-112M21,6,530,PS,exp,43,←,left,←,0.45279099998879246,True,12,-1,0,9
Y2-S2-112M21,6,531,PS,exp,31,↑,right,→,0.7026087999984156,False,12,-1,0,9
Y2-S2-112M21,6,532,PS,exp,43,→,right,→,0.4532198000088101,True,13,-1,0,9
Y2-S2-112M21,6,533,PS,exp,29,←,left,←,0.5175241999968421,True,13,-1,0,9
Y2-S2-112M21,6,534,PS,exp,29,↑,up,↑,0.5339935999945737,True,13,1,1,10
Y2-S2-112M21,6,535,PS,exp,29,←,left,←,0.4800364999973681,True,12,1,0,10
Y2-S2-112M21,6,536,PS,exp,47,→,right,→,0.4567139999999199,True,12,1,0,10
Y2-S2-112M21,6,537,PS,exp,41,↓,down,↓,0.5631367000023602,True,12,1,0,10
Y2-S2-112M21,6,538,PS,exp,45,↑,right,→,1.025457700001425,False,11,-1,1,11
Y2-S2-112M21,6,539,PS,exp,44,←,left,←,0.46180430000822525,True,12,-1,0,11
Y2-S2-112M21,6,540,PS,exp,34,↓,down,↓,0.49708790000295267,True,12,-1,0,11
Y2-S2-112M21,6,541,PS,exp,43,←,left,←,0.5677714999910677,True,12,1,1,12
Y2-S2-112M21,6,542,PS,exp,39,↓,right,→,0.7536490000056801,False,11,-1,1,13
Y2-S2-112M21,6,543,PS,exp,39,←,left,←,0.6254971999878762,True,12,-1,0,13
Y2-S2-112M21,6,544,PS,exp,45,↑,down,↓,1.3450651000021026,False,12,-1,0,13
Y2-S2-112M21,6,545,PS,exp,25,→,right,→,0.5046506999933627,True,13,-1,0,13
Y2-S2-112M21,6,546,PS,exp,46,←,up,↑,0.668022199999541,False,13,-1,0,13
Y2-S2-112M21,6,547,PS,exp,33,↓,down,↓,0.520259899989469,True,14,-1,0,13
Y2-S2-112M21,6,548,PS,exp,32,→,right,→,0.5273869999946328,True,14,-1,0,13
Y2-S2-112M21,6,549,PS,exp,40,↑,up,↑,0.47836029999598395,True,14,1,1,14
Y2-S2-112M21,6,550,PS,exp,45,←,left,←,0.4331042999983765,True,13,1,0,14
Y2-S2-112M21,6,551,PS,exp,47,↑,up,↑,0.5231738000002224,True,13,1,0,14
Y2-S2-112M21,6,552,PS,exp,28,↓,down,↓,0.5741546999925049,True,13,1,0,14
Y2-S2-112M21,6,553,PS,exp,33,↑,up,↑,0.6535396999970544,True,12,1,0,14
Y2-S2-112M21,6,554,PS,exp,25,→,right,→,0.401030199995148,True,12,1,0,14
Y2-S2-112M21,6,555,PS,exp,50,↓,down,↓,0.5793998000008287,True,12,1,0,14
Y2-S2-112M21,6,556,PS,exp,37,←,left,←,0.5101367999886861,True,11,1,0,14
Y2-S2-112M21,6,557,PS,exp,43,↓,down,↓,0.43986579999909736,True,11,1,0,14
Y2-S2-112M21,6,558,PS,exp,47,→,left,←,0.7869142000126885,False,11,-1,1,15
Y2-S2-112M21,6,559,PS,exp,30,↑,up,↑,0.5602215999970213,True,12,-1,0,15
Y2-S2-112M21,6,560,PS,exp,26,↓,down,↓,0.4130745000002207,True,12,-1,0,15
Y2-S2-112M21,6,561,PS,exp,31,→,right,→,0.4761928999942029,True,12,1,1,16
Y2-S2-112M21,7,562,PS,intra_train,45,↑,up,↑,0.5028758000116795,True,15,-,-,-
Y2-S2-112M21,7,563,PS,intra_train,31,↓,down,↓,0.547074199988856,True,15,-,-,-
Y2-S2-112M21,7,564,PS,intra_train,29,←,left,←,0.4784866999980295,True,15,-,-,-
Y2-S2-112M21,7,565,PS,intra_train,49,↓,down,↓,0.4880791999894427,True,15,-,-,-
Y2-S2-112M21,7,566,PS,intra_train,41,←,left,←,0.5002836000057869,True,15,-,-,-
Y2-S2-112M21,7,567,PS,exp,28,↓,down,↓,0.6939548999944236,True,10,0,0,0
Y2-S2-112M21,7,568,PS,exp,27,→,right,→,0.5790196000016294,True,10,0,0,0
Y2-S2-112M21,7,569,PS,exp,35,↓,down,↓,0.49153739999746904,True,10,1,0,0
Y2-S2-112M21,7,570,PS,exp,30,←,left,←,0.43155929999193177,True,9,1,0,0
Y2-S2-112M21,7,571,PS,exp,50,↑,up,↑,0.5550278000009712,True,9,1,0,0
Y2-S2-112M21,7,572,PS,exp,26,↓,down,↓,0.7161581999971531,True,9,1,0,0
Y2-S2-112M21,7,573,PS,exp,32,→,right,→,0.5608178999973461,True,8,1,0,0
Y2-S2-112M21,7,574,PS,exp,48,←,left,←,0.4194710000010673,True,8,1,0,0
Y2-S2-112M21,7,575,PS,exp,45,↓,down,↓,0.5129553000006126,True,8,1,0,0
Y2-S2-112M21,7,576,PS,exp,33,↑,up,↑,0.49587650000466965,True,7,1,0,0
Y2-S2-112M21,7,577,PS,exp,44,←,left,←,0.5815831000072649,True,7,1,0,0
Y2-S2-112M21,7,578,PS,exp,31,↑,up,↑,0.6441149999882327,True,7,1,0,0
Y2-S2-112M21,7,579,PS,exp,46,↓,up,↑,0.922551099996781,False,6,-1,1,1
Y2-S2-112M21,7,580,PS,exp,45,←,right,→,0.8626272999972571,False,7,-1,0,1
Y2-S2-112M21,7,581,PS,exp,36,↑,right,→,0.7580312999925809,False,8,-1,0,1
Y2-S2-112M21,7,582,PS,exp,45,←,left,←,0.5102426000084961,True,9,-1,0,1
Y2-S2-112M21,7,583,PS,exp,39,↓,right,→,0.6913853000005474,False,9,-1,0,1
Y2-S2-112M21,7,584,PS,exp,42,→,right,→,0.55301750000217,True,10,-1,0,1
Y2-S2-112M21,7,585,PS,exp,26,↓,down,↓,0.5812702999974135,True,10,-1,0,1
Y2-S2-112M21,7,586,PS,exp,40,↑,right,→,0.9472035999933723,False,10,-1,0,1
Y2-S2-112M21,7,587,PS,exp,30,↓,down,↓,0.5170744999923045,True,11,-1,0,1
Y2-S2-112M21,7,588,PS,exp,43,→,right,→,0.6012109000002965,True,11,-1,0,1
Y2-S2-112M21,7,589,PS,exp,39,↓,down,↓,0.9485397999960696,True,11,1,1,2
Y2-S2-112M21,7,590,PS,exp,40,←,left,←,0.4715727999864612,True,10,1,0,2
Y2-S2-112M21,7,591,PS,exp,49,↑,up,↑,1.003471999996691,True,10,1,0,2
Y2-S2-112M21,7,592,PS,exp,43,←,left,←,0.5822109000000637,True,10,1,0,2
Y2-S2-112M21,7,593,PS,exp,28,↑,left,←,1.464027599999099,False,9,-1,1,3
Y2-S2-112M21,7,594,PS,exp,30,←,left,←,0.46328929999435786,True,10,-1,0,3
Y2-S2-112M21,7,595,PS,exp,27,↓,down,↓,0.5945035000040662,True,10,-1,0,3
Y2-S2-112M21,7,596,PS,exp,40,→,right,→,0.46158940000168514,True,10,1,1,4
Y2-S2-112M21,7,597,PS,exp,35,↑,left,←,1.175677999999607,False,9,-1,1,5
Y2-S2-112M21,7,598,PS,exp,28,↓,down,↓,0.5071001000032993,True,10,-1,0,5
Y2-S2-112M21,7,599,PS,exp,43,→,right,→,0.5314575000084005,True,10,-1,0,5
Y2-S2-112M21,7,600,PS,exp,46,↓,down,↓,0.5535123000008753,True,10,1,1,6
Y2-S2-112M21,7,601,PS,exp,43,→,right,→,0.5774768999981461,True,9,1,0,6
Y2-S2-112M21,7,602,PS,exp,35,↑,up,↑,0.7205376999918371,True,9,1,0,6
Y2-S2-112M21,7,603,PS,exp,26,←,left,←,0.4967579000076512,True,9,1,0,6
Y2-S2-112M21,7,604,PS,exp,41,→,right,→,0.49308539999765344,True,8,1,0,6
Y2-S2-112M21,7,605,PS,exp,30,↓,down,↓,0.6472916999919107,True,8,1,0,6
Y2-S2-112M21,7,606,PS,exp,26,↑,up,↑,0.5235480999981519,True,8,1,0,6
Y2-S2-112M21,7,607,PS,exp,32,→,up,↑,0.6462341000005836,False,7,-1,1,7
Y2-S2-112M21,7,608,PS,exp,36,↓,down,↓,0.5665568000113126,True,8,-1,0,7
Y2-S2-112M21,7,609,PS,exp,39,←,left,←,0.5785703000001376,True,8,-1,0,7
Y2-S2-112M21,7,610,PS,exp,41,↑,up,↑,0.567345600007684,True,8,1,1,8
Y2-S2-112M21,7,611,PS,exp,34,←,left,←,1.1175996999954805,True,7,1,0,8
Y2-S2-112M21,7,612,PS,exp,49,→,right,→,0.6315418000012869,True,7,1,0,8
Y2-S2-112M21,7,613,PS,exp,40,↑,up,↑,0.4508438000048045,True,7,1,0,8
Y2-S2-112M21,7,614,PS,exp,28,→,up,↑,1.002715700000408,False,6,-1,1,9
Y2-S2-112M21,7,615,PS,exp,41,↑,up,↑,0.5573389999917708,True,7,-1,0,9
Y2-S2-112M21,7,616,PS,exp,29,↓,up,↑,0.5386414999957196,False,7,-1,0,9
Y2-S2-112M21,7,617,PS,exp,31,←,left,←,0.4838259999960428,True,8,-1,0,9
Y2-S2-112M21,7,618,PS,exp,27,→,up,↑,0.6658669000025839,False,8,-1,0,9
Y2-S2-112M21,7,619,PS,exp,30,↓,down,↓,0.6307809999998426,True,9,-1,0,9
Y2-S2-112M21,7,620,PS,exp,34,↑,up,↑,0.7731815000006463,True,9,-1,0,9
Y2-S2-112M21,7,621,PS,exp,48,←,left,←,0.46851999999489635,True,9,1,1,10
Y2-S2-112M21,7,622,PS,exp,26,↓,down,↓,0.7710822999943048,True,8,1,0,10
Y2-S2-112M21,7,623,PS,exp,26,←,left,←,0.6147501000086777,True,8,1,0,10
Y2-S2-112M21,7,624,PS,exp,30,→,right,→,0.5836980000021867,True,8,1,0,10
Y2-S2-112M21,7,625,PS,exp,49,↓,up,↑,1.144363200000953,False,7,-1,1,11
Y2-S2-112M21,7,626,PS,exp,26,→,right,→,0.6313673999975435,True,8,-1,0,11
Y2-S2-112M21,7,627,PS,exp,49,↓,down,↓,0.6256955999997444,True,8,-1,0,11
Y2-S2-112M21,7,628,PS,exp,50,←,left,←,0.5297776999941561,True,8,1,1,12
Y2-S2-112M21,7,629,PS,exp,29,↓,down,↓,0.586596000008285,True,7,1,0,12
Y2-S2-112M21,7,630,PS,exp,41,→,right,→,0.4655327000073157,True,7,1,0,12
Y2-S2-112M21,7,631,PS,exp,43,←,left,←,0.5250358999910532,True,7,1,0,12
Y2-S2-112M21,7,632,PS,exp,45,↑,down,↓,1.1134889000095427,False,6,-1,1,13
Y2-S2-112M21,7,633,PS,exp,25,↓,down,↓,0.5702007000072626,True,7,-1,0,13
Y2-S2-112M21,7,634,PS,exp,42,→,right,→,0.5256766000093194,True,7,-1,0,13
Y2-S2-112M21,7,635,PS,exp,44,↓,right,→,0.7892327000008663,False,7,-1,0,13
Y2-S2-112M21,7,636,PS,exp,33,↑,up,↑,0.5295264000014868,True,8,-1,0,13
Y2-S2-112M21,7,637,PS,exp,35,←,left,←,0.46159810000972357,True,8,-1,0,13
Y2-S2-112M21,7,638,PS,exp,35,→,right,→,0.49411359999794513,True,8,1,1,14
Y2-S2-112M21,7,639,PS,exp,38,↑,up,↑,0.572749400002067,True,7,1,0,14
Y2-S2-112M21,7,640,PS,exp,46,→,right,→,0.909588900001836,True,7,1,0,14
Y2-S2-112M21,7,641,PS,exp,37,↓,up,↑,0.6772353000123985,False,7,-1,1,15
Y2-S2-112M21,7,642,PS,exp,41,↑,left,←,0.6333604999963427,False,8,-1,0,15
Y2-S2-112M21,7,643,PS,exp,41,↓,down,↓,0.5387150000024121,True,9,-1,0,15
Y2-S2-112M21,7,644,PS,exp,31,↑,up,↑,0.560146599993459,True,9,-1,0,15
Y2-S2-112M21,7,645,PS,exp,30,←,left,←,0.6108071000053314,True,9,1,1,16
Y2-S2-112M21,8,646,AS,intra_train,25,→,right,→,1.4295844000007492,True,28,-,-,-
Y2-S2-112M21,8,647,AS,intra_train,48,↑,up,↑,0.6926699999894481,True,28,-,-,-
Y2-S2-112M21,8,648,AS,intra_train,44,→,right,→,0.6610592000070028,True,28,-,-,-
Y2-S2-112M21,8,649,AS,intra_train,45,←,left,←,0.6852446999982931,True,28,-,-,-
Y2-S2-112M21,8,650,AS,intra_train,35,↑,up,↑,1.1912344000011217,True,28,-,-,-
Y2-S2-112M21,8,651,AS,exp,39,↓,down,↓,0.7374350000027334,True,19,0,0,0
Y2-S2-112M21,8,652,AS,exp,43,↑,left,←,1.2991664000001037,False,19,-1,0,0
Y2-S2-112M21,8,653,AS,exp,43,→,right,→,0.6856285999965621,True,20,-1,0,0
Y2-S2-112M21,8,654,AS,exp,48,↑,up,↑,0.7330486000137171,True,20,-1,0,0
Y2-S2-112M21,8,655,AS,exp,47,→,right,→,0.6276884000108112,True,20,1,1,1
Y2-S2-112M21,8,656,AS,exp,37,←,left,←,0.583343700011028,True,19,1,0,1
Y2-S2-112M21,8,657,AS,exp,44,→,right,→,0.5594286999985343,True,19,1,0,1
Y2-S2-112M21,8,658,AS,exp,33,←,left,←,0.5697243999893544,True,19,1,0,1
Y2-S2-112M21,8,659,AS,exp,49,→,right,→,0.6179655000014463,True,18,1,0,1
Y2-S2-112M21,8,660,AS,exp,46,↑,down,↓,1.1020273000031011,False,18,-1,1,2
Y2-S2-112M21,8,661,AS,exp,45,→,right,→,0.8188365999958478,True,19,-1,0,2
Y2-S2-112M21,8,662,AS,exp,45,←,left,←,0.8067142000072636,True,19,-1,0,2
Y2-S2-112M21,8,663,AS,exp,28,↑,up,↑,0.7750308999966364,True,19,1,1,3
Y2-S2-112M21,8,664,AS,exp,28,←,left,←,0.5309814000065671,True,18,1,0,3
Y2-S2-112M21,8,665,AS,exp,41,↓,down,↓,0.7741021999972872,True,18,1,0,3
Y2-S2-112M21,8,666,AS,exp,30,←,left,←,0.7327029000007315,True,18,1,0,3
Y2-S2-112M21,8,667,AS,exp,45,↑,no_key,no_letter,-1.0,False,17,-1,1,4
Y2-S2-112M21,8,668,AS,exp,39,↓,down,↓,0.709453699993901,True,18,-1,0,4
Y2-S2-112M21,8,669,AS,exp,25,↑,up,↑,0.5264736999961315,True,18,-1,0,4
Y2-S2-112M21,8,670,AS,exp,45,↓,down,↓,1.5194481000071391,True,18,1,1,5
Y2-S2-112M21,8,671,AS,exp,39,←,left,←,0.770212299990817,True,17,1,0,5
Y2-S2-112M21,8,672,AS,exp,34,→,right,→,0.4979574000026332,True,17,1,0,5
Y2-S2-112M21,8,673,AS,exp,44,↓,down,↓,0.5823591000080341,True,17,1,0,5
Y2-S2-112M21,8,674,AS,exp,26,←,left,←,0.5260584999923594,True,16,1,0,5
Y2-S2-112M21,8,675,AS,exp,46,↑,up,↑,0.5828417000011541,True,16,1,0,5
Y2-S2-112M21,8,676,AS,exp,38,→,right,→,0.5634855000098469,True,16,1,0,5
Y2-S2-112M21,8,677,AS,exp,32,↑,up,↑,0.5720221000083257,True,15,1,0,5
Y2-S2-112M21,8,678,AS,exp,31,↓,down,↓,0.5354378000047291,True,15,1,0,5
Y2-S2-112M21,8,679,AS,exp,36,↑,up,↑,0.5035366000083741,True,15,1,0,5
Y2-S2-112M21,8,680,AS,exp,49,→,right,→,0.6082285000011325,True,14,1,0,5
Y2-S2-112M21,8,681,AS,exp,40,←,left,←,0.5467020000069169,True,14,1,0,5
Y2-S2-112M21,8,682,AS,exp,39,↑,up,↑,0.5190417999983765,True,14,1,0,5
Y2-S2-112M21,8,683,AS,exp,49,↓,down,↓,0.7944470999937039,True,13,1,0,5
Y2-S2-112M21,8,684,AS,exp,34,→,right,→,0.49457739999343175,True,13,1,0,5
Y2-S2-112M21,8,685,AS,exp,49,↑,up,↑,0.4947451999905752,True,13,1,0,5
Y2-S2-112M21,8,686,AS,exp,49,↓,down,↓,0.4984614999993937,True,12,1,0,5
Y2-S2-112M21,8,687,AS,exp,41,↑,left,←,1.5030631000117864,False,12,-1,1,6
Y2-S2-112M21,8,688,AS,exp,41,↓,down,↓,0.5496512000099756,True,13,-1,0,6
Y2-S2-112M21,8,689,AS,exp,35,→,left,←,0.8754348999937065,False,13,-1,0,6
Y2-S2-112M21,8,690,AS,exp,25,←,left,←,0.4679805000050692,True,14,-1,0,6
Y2-S2-112M21,8,691,AS,exp,34,→,right,→,0.5207694999990053,True,14,-1,0,6
Y2-S2-112M21,8,692,AS,exp,27,←,left,←,0.5969087999983458,True,14,1,1,7
Y2-S2-112M21,8,693,AS,exp,29,↑,up,↑,0.5932108999986667,True,13,1,0,7
Y2-S2-112M21,8,694,AS,exp,28,←,left,←,0.5884743000060553,True,13,1,0,7
Y2-S2-112M21,8,695,AS,exp,50,→,left,←,0.9017883999913465,False,13,-1,1,8
Y2-S2-112M21,8,696,AS,exp,25,←,left,←,0.64706920000026,True,14,-1,0,8
Y2-S2-112M21,8,697,AS,exp,36,→,right,→,0.4826526999968337,True,14,-1,0,8
Y2-S2-112M21,8,698,AS,exp,45,↑,up,↑,0.5428614999982528,True,14,1,1,9
Y2-S2-112M21,8,699,AS,exp,49,←,left,←,0.6096217000012984,True,13,1,0,9
Y2-S2-112M21,8,700,AS,exp,37,↑,up,↑,1.0177449000038905,True,13,1,0,9
Y2-S2-112M21,8,701,AS,exp,32,←,right,→,0.9953053000062937,False,13,-1,1,10
Y2-S2-112M21,8,702,AS,exp,27,↑,up,↑,0.5006936999998288,True,14,-1,0,10
Y2-S2-112M21,8,703,AS,exp,45,→,right,→,1.0201626000052784,True,14,-1,0,10
Y2-S2-112M21,8,704,AS,exp,46,↑,left,←,0.6854170000005979,False,14,-1,0,10
Y2-S2-112M21,8,705,AS,exp,49,↓,left,←,0.6303808999946341,False,15,-1,0,10
Y2-S2-112M21,8,706,AS,exp,33,←,left,←,0.5717074999993201,True,16,-1,0,10
Y2-S2-112M21,8,707,AS,exp,34,↑,up,↑,0.8701162000070326,True,16,-1,0,10
Y2-S2-112M21,8,708,AS,exp,34,→,left,←,0.48548160000063945,False,16,-1,0,10
Y2-S2-112M21,8,709,AS,exp,27,↓,down,↓,0.5910350999911316,True,17,-1,0,10
Y2-S2-112M21,8,710,AS,exp,27,→,right,→,0.41740560000471305,True,17,-1,0,10
Y2-S2-112M21,8,711,AS,exp,36,↑,up,↑,0.8117939999938244,True,17,1,1,11
Y2-S2-112M21,8,712,AS,exp,37,←,left,←,0.6107819000026211,True,16,1,0,11
Y2-S2-112M21,8,713,AS,exp,34,↑,down,↓,0.7522484000073746,False,16,-1,1,12
Y2-S2-112M21,8,714,AS,exp,34,→,no_key,no_letter,-1.0,False,17,-1,0,12
Y2-S2-112M21,8,715,AS,exp,40,↑,up,↑,0.6637814999994589,True,18,-1,0,12
Y2-S2-112M21,8,716,AS,exp,44,←,left,←,0.6504259000066668,True,18,-1,0,12
Y2-S2-112M21,8,717,AS,exp,25,↓,down,↓,0.7343165000056615,True,18,1,1,13
Y2-S2-112M21,8,718,AS,exp,47,→,right,→,0.47185889999673236,True,17,1,0,13
Y2-S2-112M21,8,719,AS,exp,27,←,left,←,0.6565408999886131,True,17,1,0,13
Y2-S2-112M21,8,720,AS,exp,45,↑,down,↓,0.728237999996054,False,17,-1,1,14
Y2-S2-112M21,8,721,AS,exp,45,←,left,←,1.2218173000001116,True,18,-1,0,14
Y2-S2-112M21,8,722,AS,exp,36,↓,up,↑,0.8628711999917869,False,18,-1,0,14
Y2-S2-112M21,8,723,AS,exp,26,↑,up,↑,0.4509166999923764,True,19,-1,0,14
Y2-S2-112M21,8,724,AS,exp,37,→,right,→,0.5427495000039926,True,19,-1,0,14
Y2-S2-112M21,8,725,AS,exp,48,↑,up,↑,0.602813999998034,True,19,1,1,15
Y2-S2-112M21,8,726,AS,exp,29,↓,down,↓,0.6901983999996446,True,18,1,0,15
Y2-S2-112M21,8,727,AS,exp,33,→,right,→,0.5772960000031162,True,18,1,0,15
Y2-S2-112M21,8,728,AS,exp,39,↓,down,↓,0.56355779999285,True,18,1,0,15
Y2-S2-112M21,8,729,AS,exp,29,←,left,←,0.47986170000513084,True,17,1,0,15
Y2-S2-112M21,8,730,AS,exp,34,↑,up,↑,0.6045278999954462,True,17,1,0,15
Y2-S2-112M21,8,731,AS,exp,47,↓,down,↓,0.7399026000057347,True,17,1,0,15
Y2-S2-112M21,8,732,AS,exp,31,→,right,→,0.4667568000004394,True,16,1,0,15
Y2-S2-112M21,8,733,AS,exp,29,↑,up,↑,0.5406732999981614,True,16,1,0,15
Y2-S2-112M21,8,734,AS,exp,41,←,left,←,0.5842866000020877,True,16,1,0,15
Y2-S2-112M21,8,735,AS,exp,32,→,right,→,0.48641610000049695,True,15,1,0,15
Y2-S2-112M21,8,736,AS,exp,46,←,left,←,0.5133397000026889,True,15,1,0,15
Y2-S2-112M21,8,737,AS,exp,45,↓,up,↑,1.0202259999932721,False,15,-1,1,16
