PART_ID,Block_no,Trial_no,Block_type,Trial_type,CSI,Stim_letter,Key_pressed,letter_choose,Rt,Corr,Stimulus Time,Level,Reversal,Revs_count
Y2-S2-044K25,1,1,PS,train,27,←,left,←,0.5508298999629915,True,30,-,-,-
Y2-S2-044K25,1,2,PS,train,36,→,right,→,0.6797695998102427,True,30,-,-,-
Y2-S2-044K25,1,3,PS,train,36,←,right,→,0.5174873000942171,False,30,-,-,-
Y2-S2-044K25,1,4,PS,train,25,↑,up,↑,0.7232383000664413,True,30,-,-,-
Y2-S2-044K25,1,5,PS,train,27,→,right,→,0.8318131999112666,True,30,-,-,-
Y2-S2-044K25,1,6,PS,train,42,↑,up,↑,0.551131600048393,True,30,-,-,-
Y2-S2-044K25,1,7,PS,train,47,←,left,←,0.584517499897629,True,30,-,-,-
Y2-S2-044K25,1,8,PS,train,29,↑,up,↑,0.6342310002073646,True,30,-,-,-
Y2-S2-044K25,1,9,PS,train,34,←,left,←,1.627394000068307,True,30,-,-,-
Y2-S2-044K25,1,10,PS,train,29,→,right,→,0.9624962001107633,True,30,-,-,-
Y2-S2-044K25,2,11,AS,train,38,↑,up,↑,0.5833805999718606,True,45,-,-,-
Y2-S2-044K25,2,12,AS,train,30,→,right,→,0.5842411001212895,True,45,-,-,-
Y2-S2-044K25,2,13,AS,train,27,←,left,←,0.5843536998145282,True,45,-,-,-
Y2-S2-044K25,2,14,AS,train,49,↓,down,↓,0.8007090003229678,True,45,-,-,-
Y2-S2-044K25,2,15,AS,train,48,←,left,←,0.6010934002697468,True,45,-,-,-
Y2-S2-044K25,2,16,AS,train,37,→,right,→,0.5178547003306448,True,45,-,-,-
Y2-S2-044K25,2,17,AS,train,47,↑,up,↑,0.9300338998436928,True,45,-,-,-
Y2-S2-044K25,2,18,AS,train,30,↓,down,↓,0.9174686996266246,True,45,-,-,-
Y2-S2-044K25,2,19,AS,train,28,←,left,←,0.5676782000809908,True,45,-,-,-
Y2-S2-044K25,2,20,AS,train,50,↑,up,↑,0.5677561997435987,True,45,-,-,-
Y2-S2-044K25,-,21,PS,adaptive,39,→,right,→,0.5201389002613723,True,10,0,0,0
Y2-S2-044K25,-,22,PS,adaptive,42,↑,up,↑,0.49495610035955906,True,10,0,0,0
Y2-S2-044K25,-,23,PS,adaptive,29,↓,down,↓,0.5171317001804709,True,10,1,0,0
Y2-S2-044K25,-,24,PS,adaptive,44,↑,up,↑,0.4186665001325309,True,9,1,0,0
Y2-S2-044K25,-,25,PS,adaptive,45,↓,left,←,0.7859514998272061,False,9,-1,1,1
Y2-S2-044K25,-,26,PS,adaptive,41,→,right,→,0.609783099964261,True,10,-1,0,1
Y2-S2-044K25,-,27,PS,adaptive,47,↑,up,↑,0.4048386001959443,True,10,-1,0,1
Y2-S2-044K25,-,28,PS,adaptive,46,←,left,←,0.48724980000406504,True,10,1,1,2
Y2-S2-044K25,-,29,PS,adaptive,32,↑,up,↑,0.6149552999995649,True,9,1,0,2
Y2-S2-044K25,-,30,PS,adaptive,48,↓,down,↓,0.5149453999474645,True,9,1,0,2
Y2-S2-044K25,-,31,PS,adaptive,29,←,left,←,0.5362894996069372,True,9,1,0,2
Y2-S2-044K25,-,32,PS,adaptive,45,→,right,→,0.47211650013923645,True,8,1,0,2
Y2-S2-044K25,-,33,PS,adaptive,39,←,right,→,0.8119337996467948,False,8,-1,1,3
Y2-S2-044K25,-,34,PS,adaptive,38,→,left,←,0.49969330010935664,False,9,-1,0,3
Y2-S2-044K25,-,35,PS,adaptive,49,↓,down,↓,0.5948700997978449,True,10,-1,0,3
Y2-S2-044K25,-,36,PS,adaptive,34,←,left,←,0.41417220002040267,True,10,-1,0,3
Y2-S2-044K25,-,37,PS,adaptive,49,↓,down,↓,0.5174647001549602,True,10,1,1,4
Y2-S2-044K25,-,38,AS,adaptive,28,→,left,←,0.6601029001176357,False,20,-1,0,0
Y2-S2-044K25,-,39,AS,adaptive,27,↑,up,↑,0.5568744000047445,True,21,-1,0,0
Y2-S2-044K25,-,40,AS,adaptive,33,→,right,→,0.4674072000198066,True,21,-1,0,0
Y2-S2-044K25,-,41,AS,adaptive,26,↑,up,↑,0.5244295997545123,True,21,1,1,1
Y2-S2-044K25,-,42,AS,adaptive,30,↓,down,↓,0.5690401000902057,True,20,1,0,1
Y2-S2-044K25,-,43,AS,adaptive,40,↑,up,↑,0.5939385001547635,True,20,1,0,1
Y2-S2-044K25,-,44,AS,adaptive,50,↓,no_key,no_letter,-1.0,False,20,-1,1,2
Y2-S2-044K25,-,45,AS,adaptive,29,←,left,←,0.5289856996387243,True,21,-1,0,2
Y2-S2-044K25,-,46,AS,adaptive,30,↓,down,↓,0.4339489000849426,True,21,-1,0,2
Y2-S2-044K25,-,47,AS,adaptive,37,←,left,←,0.46722699981182814,True,21,1,1,3
Y2-S2-044K25,-,48,AS,adaptive,32,↑,up,↑,0.45060120010748506,True,20,1,0,3
Y2-S2-044K25,-,49,AS,adaptive,35,↓,down,↓,0.8461486999876797,True,20,1,0,3
Y2-S2-044K25,-,50,AS,adaptive,34,↑,up,↑,0.5968806999735534,True,20,1,0,3
Y2-S2-044K25,-,51,AS,adaptive,44,→,right,→,0.5832072999328375,True,19,1,0,3
Y2-S2-044K25,-,52,AS,adaptive,31,↓,up,↑,0.7013237997889519,False,19,-1,1,4
Y2-S2-044K25,1,53,PS,intra_train,40,↑,up,↑,0.5641938000917435,True,13,-,-,-
Y2-S2-044K25,1,54,PS,intra_train,36,↓,down,↓,0.44485910004004836,True,13,-,-,-
Y2-S2-044K25,1,55,PS,intra_train,36,↑,up,↑,0.4670473001897335,True,13,-,-,-
Y2-S2-044K25,1,56,PS,intra_train,48,←,left,←,0.6597795998677611,True,13,-,-,-
Y2-S2-044K25,1,57,PS,intra_train,33,→,right,→,0.4822179996408522,True,13,-,-,-
Y2-S2-044K25,1,58,PS,exp,48,↓,left,←,0.6454974003136158,False,9,-1,0,0
Y2-S2-044K25,1,59,PS,exp,44,→,left,←,0.6364972000010312,False,10,-1,0,0
Y2-S2-044K25,1,60,PS,exp,43,↑,left,←,0.6619555996730924,False,11,-1,0,0
Y2-S2-044K25,1,61,PS,exp,50,←,right,→,0.5188344996422529,False,12,-1,0,0
Y2-S2-044K25,1,62,PS,exp,46,↑,left,←,0.5839114002883434,False,13,-1,0,0
Y2-S2-044K25,1,63,PS,exp,41,←,left,←,0.44996040035039186,True,14,-1,0,0
Y2-S2-044K25,1,64,PS,exp,33,→,left,←,0.5763650997541845,False,14,-1,0,0
Y2-S2-044K25,1,65,PS,exp,48,←,left,←,1.5531327999196947,True,15,-1,0,0
Y2-S2-044K25,1,66,PS,exp,35,→,right,→,0.5321640004403889,True,15,-1,0,0
Y2-S2-044K25,1,67,PS,exp,49,↓,down,↓,0.5101599995978177,True,15,1,1,1
Y2-S2-044K25,1,68,PS,exp,48,↑,up,↑,0.42852400010451674,True,14,1,0,1
Y2-S2-044K25,1,69,PS,exp,35,↓,down,↓,0.4819946000352502,True,14,1,0,1
Y2-S2-044K25,1,70,PS,exp,31,→,right,→,0.4429487003944814,True,14,1,0,1
Y2-S2-044K25,1,71,PS,exp,36,↓,left,←,0.5732435998506844,False,13,-1,1,2
Y2-S2-044K25,1,72,PS,exp,36,→,left,←,0.6023300001397729,False,14,-1,0,2
Y2-S2-044K25,1,73,PS,exp,31,←,left,←,0.6537204999476671,True,15,-1,0,2
Y2-S2-044K25,1,74,PS,exp,38,→,right,→,0.549883599858731,True,15,-1,0,2
Y2-S2-044K25,1,75,PS,exp,33,↓,down,↓,0.5166489002294838,True,15,1,1,3
Y2-S2-044K25,1,76,PS,exp,48,→,left,←,0.5760448998771608,False,14,-1,1,4
Y2-S2-044K25,1,77,PS,exp,35,↓,down,↓,0.46855759993195534,True,15,-1,0,4
Y2-S2-044K25,1,78,PS,exp,40,→,right,→,0.6925510996952653,True,15,-1,0,4
Y2-S2-044K25,1,79,PS,exp,40,↓,down,↓,0.5009967996738851,True,15,1,1,5
Y2-S2-044K25,1,80,PS,exp,28,↑,down,↓,0.6579542998224497,False,14,-1,1,6
Y2-S2-044K25,1,81,PS,exp,32,←,right,→,0.5047060996294022,False,15,-1,0,6
Y2-S2-044K25,1,82,PS,exp,45,→,left,←,0.6520127998664975,False,16,-1,0,6
Y2-S2-044K25,1,83,PS,exp,38,←,left,←,0.46287230029702187,True,17,-1,0,6
Y2-S2-044K25,1,84,PS,exp,49,↓,down,↓,0.46364219998940825,True,17,-1,0,6
Y2-S2-044K25,1,85,PS,exp,27,→,right,→,0.6394601999782026,True,17,1,1,7
Y2-S2-044K25,1,86,PS,exp,33,↑,up,↑,0.5647315001115203,True,16,1,0,7
Y2-S2-044K25,1,87,PS,exp,36,←,left,←,0.7359864003956318,True,16,1,0,7
Y2-S2-044K25,1,88,PS,exp,45,↑,up,↑,0.4966215002350509,True,16,1,0,7
Y2-S2-044K25,1,89,PS,exp,26,↓,right,→,0.6008309996686876,False,15,-1,1,8
Y2-S2-044K25,1,90,PS,exp,25,←,left,←,0.470025600399822,True,16,-1,0,8
Y2-S2-044K25,1,91,PS,exp,37,↓,left,←,0.6481725997291505,False,16,-1,0,8
Y2-S2-044K25,1,92,PS,exp,49,←,left,←,0.4678120999597013,True,17,-1,0,8
Y2-S2-044K25,1,93,PS,exp,28,↓,down,↓,0.4697452001273632,True,17,-1,0,8
Y2-S2-044K25,1,94,PS,exp,37,←,left,←,0.4656738000921905,True,17,1,1,9
Y2-S2-044K25,1,95,PS,exp,34,↓,down,↓,0.4586363001726568,True,16,1,0,9
Y2-S2-044K25,1,96,PS,exp,31,↑,up,↑,0.5661316998302937,True,16,1,0,9
Y2-S2-044K25,1,97,PS,exp,36,→,right,→,0.6749555002897978,True,16,1,0,9
Y2-S2-044K25,1,98,PS,exp,32,←,left,←,0.4535718001425266,True,15,1,0,9
Y2-S2-044K25,1,99,PS,exp,27,↑,up,↑,0.6440485999919474,True,15,1,0,9
Y2-S2-044K25,1,100,PS,exp,37,→,right,→,0.48205990018323064,True,15,1,0,9
Y2-S2-044K25,1,101,PS,exp,27,↓,down,↓,0.53669109987095,True,14,1,0,9
Y2-S2-044K25,1,102,PS,exp,31,↑,up,↑,0.4305337001569569,True,14,1,0,9
Y2-S2-044K25,1,103,PS,exp,41,→,right,→,0.43081049993634224,True,14,1,0,9
Y2-S2-044K25,1,104,PS,exp,43,←,left,←,1.2484595999121666,True,13,1,0,9
Y2-S2-044K25,1,105,PS,exp,41,→,right,→,0.4287215997464955,True,13,1,0,9
Y2-S2-044K25,1,106,PS,exp,26,↑,up,↑,0.45011840015649796,True,13,1,0,9
Y2-S2-044K25,1,107,PS,exp,33,←,left,←,0.41484929993748665,True,12,1,0,9
Y2-S2-044K25,1,108,PS,exp,46,→,right,→,0.3964770999737084,True,12,1,0,9
Y2-S2-044K25,1,109,PS,exp,42,←,left,←,0.47879920015111566,True,12,1,0,9
Y2-S2-044K25,1,110,PS,exp,33,↑,up,↑,0.5588567997328937,True,11,1,0,9
Y2-S2-044K25,1,111,PS,exp,32,↓,down,↓,0.43151869997382164,True,11,1,0,9
Y2-S2-044K25,1,112,PS,exp,37,→,right,→,0.42257639998570085,True,11,1,0,9
Y2-S2-044K25,1,113,PS,exp,40,←,left,←,0.6100755003280938,True,10,1,0,9
Y2-S2-044K25,1,114,PS,exp,47,→,right,→,0.41147000016644597,True,10,1,0,9
Y2-S2-044K25,1,115,PS,exp,38,↓,down,↓,0.4677045000717044,True,10,1,0,9
Y2-S2-044K25,1,116,PS,exp,50,↑,left,←,0.5405982001684606,False,9,-1,1,10
Y2-S2-044K25,1,117,PS,exp,33,→,right,→,0.5343756997026503,True,10,-1,0,10
Y2-S2-044K25,1,118,PS,exp,46,↑,up,↑,0.43793149990960956,True,10,-1,0,10
Y2-S2-044K25,1,119,PS,exp,43,←,left,←,0.4452606998383999,True,10,1,1,11
Y2-S2-044K25,1,120,PS,exp,44,→,left,←,0.5442121997475624,False,9,-1,1,12
Y2-S2-044K25,1,121,PS,exp,34,↓,down,↓,0.5743022998794913,True,10,-1,0,12
Y2-S2-044K25,1,122,PS,exp,41,←,left,←,0.42465069983154535,True,10,-1,0,12
Y2-S2-044K25,1,123,PS,exp,43,↑,up,↑,0.39258799981325865,True,10,1,1,13
Y2-S2-044K25,1,124,PS,exp,41,↓,down,↓,0.5970058003440499,True,9,1,0,13
Y2-S2-044K25,1,125,PS,exp,27,←,right,→,0.6103617995977402,False,9,-1,1,14
Y2-S2-044K25,1,126,PS,exp,39,→,right,→,0.4414662001654506,True,10,-1,0,14
Y2-S2-044K25,1,127,PS,exp,50,↑,up,↑,0.4256528001278639,True,10,-1,0,14
Y2-S2-044K25,1,128,PS,exp,36,→,right,→,0.4595225998200476,True,10,1,1,15
Y2-S2-044K25,1,129,PS,exp,42,←,left,←,0.6120730000548065,True,9,1,0,15
Y2-S2-044K25,1,130,PS,exp,49,↑,up,↑,0.44072610000148416,True,9,1,0,15
Y2-S2-044K25,1,131,PS,exp,49,→,right,→,0.4303621998988092,True,9,1,0,15
Y2-S2-044K25,1,132,PS,exp,36,↑,up,↑,0.47963920002803206,True,8,1,0,15
Y2-S2-044K25,1,133,PS,exp,45,←,right,→,0.4735448001883924,False,8,-1,1,16
Y2-S2-044K25,2,134,AS,intra_train,46,↓,no_key,no_letter,-1.0,False,30,-,-,-
Y2-S2-044K25,2,135,AS,intra_train,27,↑,up,↑,0.7057304996997118,True,30,-,-,-
Y2-S2-044K25,2,136,AS,intra_train,25,→,left,←,0.5673361998051405,False,30,-,-,-
Y2-S2-044K25,2,137,AS,intra_train,45,↓,down,↓,0.48384090000763535,True,30,-,-,-
Y2-S2-044K25,2,138,AS,intra_train,25,↑,up,↑,0.4679481000639498,True,30,-,-,-
Y2-S2-044K25,2,139,AS,exp,43,←,left,←,0.5975938998162746,True,20,0,0,0
Y2-S2-044K25,2,140,AS,exp,40,↑,up,↑,0.634271299932152,True,20,0,0,0
Y2-S2-044K25,2,141,AS,exp,45,→,right,→,0.4337861002422869,True,20,1,0,0
Y2-S2-044K25,2,142,AS,exp,43,←,left,←,0.6239436999894679,True,19,1,0,0
Y2-S2-044K25,2,143,AS,exp,40,→,right,→,0.5317308004014194,True,19,1,0,0
Y2-S2-044K25,2,144,AS,exp,45,↑,up,↑,0.4508903999812901,True,19,1,0,0
Y2-S2-044K25,2,145,AS,exp,32,→,right,→,0.6106231999583542,True,18,1,0,0
Y2-S2-044K25,2,146,AS,exp,35,←,left,←,0.5963619002141058,True,18,1,0,0
Y2-S2-044K25,2,147,AS,exp,46,↑,up,↑,0.5463741002604365,True,18,1,0,0
Y2-S2-044K25,2,148,AS,exp,29,→,right,→,1.062221699859947,True,17,1,0,0
Y2-S2-044K25,2,149,AS,exp,26,↓,down,↓,0.538430199958384,True,17,1,0,0
Y2-S2-044K25,2,150,AS,exp,41,→,right,→,0.6386826001107693,True,17,1,0,0
Y2-S2-044K25,2,151,AS,exp,40,↓,down,↓,0.5310765998438001,True,16,1,0,0
Y2-S2-044K25,2,152,AS,exp,36,→,right,→,0.46680579986423254,True,16,1,0,0
Y2-S2-044K25,2,153,AS,exp,41,←,left,←,0.5405411999672651,True,16,1,0,0
Y2-S2-044K25,2,154,AS,exp,32,↓,down,↓,0.6159350001253188,True,15,1,0,0
Y2-S2-044K25,2,155,AS,exp,44,↑,up,↑,0.7142648999579251,True,15,1,0,0
Y2-S2-044K25,2,156,AS,exp,43,←,left,←,0.5837809001095593,True,15,1,0,0
Y2-S2-044K25,2,157,AS,exp,39,↑,up,↑,0.5265256999991834,True,14,1,0,0
Y2-S2-044K25,2,158,AS,exp,27,←,left,←,0.4798562000505626,True,14,1,0,0
Y2-S2-044K25,2,159,AS,exp,26,↑,right,→,0.8810051996260881,False,14,-1,1,1
Y2-S2-044K25,2,160,AS,exp,42,↓,down,↓,0.6988709000870585,True,15,-1,0,1
Y2-S2-044K25,2,161,AS,exp,47,←,left,←,0.4433263000100851,True,15,-1,0,1
Y2-S2-044K25,2,162,AS,exp,42,↓,left,←,0.7418422000482678,False,15,-1,0,1
Y2-S2-044K25,2,163,AS,exp,26,→,right,→,0.46829569991678,True,16,-1,0,1
Y2-S2-044K25,2,164,AS,exp,39,↓,down,↓,0.6856801002286375,True,16,-1,0,1
Y2-S2-044K25,2,165,AS,exp,49,↑,up,↑,0.4556477000005543,True,16,1,1,2
Y2-S2-044K25,2,166,AS,exp,33,←,left,←,0.44455269956961274,True,15,1,0,2
Y2-S2-044K25,2,167,AS,exp,43,↓,down,↓,0.6938956002704799,True,15,1,0,2
Y2-S2-044K25,2,168,AS,exp,41,→,right,→,0.4889919999986887,True,15,1,0,2
Y2-S2-044K25,2,169,AS,exp,42,←,left,←,0.6508768000639975,True,14,1,0,2
Y2-S2-044K25,2,170,AS,exp,33,↓,down,↓,0.6382964998483658,True,14,1,0,2
Y2-S2-044K25,2,171,AS,exp,38,←,left,←,0.41390560008585453,True,14,1,0,2
Y2-S2-044K25,2,172,AS,exp,47,→,right,→,0.8240816001780331,True,13,1,0,2
Y2-S2-044K25,2,173,AS,exp,37,↓,down,↓,0.5719699002802372,True,13,1,0,2
Y2-S2-044K25,2,174,AS,exp,37,↑,up,↑,0.4829086000099778,True,13,1,0,2
Y2-S2-044K25,2,175,AS,exp,47,→,left,←,0.7876091999933124,False,12,-1,1,3
Y2-S2-044K25,2,176,AS,exp,33,↑,up,↑,0.4267369001172483,True,13,-1,0,3
Y2-S2-044K25,2,177,AS,exp,38,↓,down,↓,0.7860872000455856,True,13,-1,0,3
Y2-S2-044K25,2,178,AS,exp,42,→,right,→,0.39013809990137815,True,13,1,1,4
Y2-S2-044K25,2,179,AS,exp,35,←,left,←,0.5352202001959085,True,12,1,0,4
Y2-S2-044K25,2,180,AS,exp,44,↓,left,←,0.6605433002114296,False,12,-1,1,5
Y2-S2-044K25,2,181,AS,exp,36,→,left,←,0.5415474995970726,False,13,-1,0,5
Y2-S2-044K25,2,182,AS,exp,28,↓,down,↓,0.6959929000586271,True,14,-1,0,5
Y2-S2-044K25,2,183,AS,exp,32,↑,up,↑,0.4170396002009511,True,14,-1,0,5
Y2-S2-044K25,2,184,AS,exp,25,↓,up,↑,0.7099085999652743,False,14,-1,0,5
Y2-S2-044K25,2,185,AS,exp,42,←,left,←,0.4280038997530937,True,15,-1,0,5
Y2-S2-044K25,2,186,AS,exp,39,↑,up,↑,0.6406012000516057,True,15,-1,0,5
Y2-S2-044K25,2,187,AS,exp,43,→,right,→,0.46673400001600385,True,15,1,1,6
Y2-S2-044K25,2,188,AS,exp,25,↑,up,↑,0.4264495000243187,True,14,1,0,6
Y2-S2-044K25,2,189,AS,exp,31,←,left,←,0.5167363001964986,True,14,1,0,6
Y2-S2-044K25,2,190,AS,exp,28,↓,down,↓,0.6380507997237146,True,14,1,0,6
Y2-S2-044K25,2,191,AS,exp,36,←,left,←,0.548263399861753,True,13,1,0,6
Y2-S2-044K25,2,192,AS,exp,34,↑,up,↑,0.5258273999206722,True,13,1,0,6
Y2-S2-044K25,2,193,AS,exp,49,↓,down,↓,0.4985043997876346,True,13,1,0,6
Y2-S2-044K25,2,194,AS,exp,44,←,left,←,0.6161988000385463,True,12,1,0,6
Y2-S2-044K25,2,195,AS,exp,48,→,left,←,0.6859554001130164,False,12,-1,1,7
Y2-S2-044K25,2,196,AS,exp,25,←,left,←,1.3741220999509096,True,13,-1,0,7
Y2-S2-044K25,2,197,AS,exp,33,↓,down,↓,0.4767102999612689,True,13,-1,0,7
Y2-S2-044K25,2,198,AS,exp,33,←,left,←,0.41653509996831417,True,13,1,1,8
Y2-S2-044K25,2,199,AS,exp,48,↑,right,→,0.5978403999470174,False,12,-1,1,9
Y2-S2-044K25,2,200,AS,exp,50,→,right,→,0.4962245998904109,True,13,-1,0,9
Y2-S2-044K25,2,201,AS,exp,47,←,left,←,0.5953923999331892,True,13,-1,0,9
Y2-S2-044K25,2,202,AS,exp,36,↑,left,←,0.6474454998970032,False,13,-1,0,9
Y2-S2-044K25,2,203,AS,exp,47,↓,down,↓,0.6082931002601981,True,14,-1,0,9
Y2-S2-044K25,2,204,AS,exp,31,←,left,←,0.5431671999394894,True,14,-1,0,9
Y2-S2-044K25,2,205,AS,exp,42,→,right,→,0.44016260001808405,True,14,1,1,10
Y2-S2-044K25,2,206,AS,exp,39,↓,down,↓,0.6949777002446353,True,13,1,0,10
Y2-S2-044K25,2,207,AS,exp,25,→,right,→,0.4779808996245265,True,13,1,0,10
Y2-S2-044K25,2,208,AS,exp,26,↑,right,→,1.3361378000117838,False,13,-1,1,11
Y2-S2-044K25,2,209,AS,exp,41,→,right,→,0.6549796001054347,True,14,-1,0,11
Y2-S2-044K25,2,210,AS,exp,26,←,left,←,0.563205000013113,True,14,-1,0,11
Y2-S2-044K25,2,211,AS,exp,39,↑,right,→,0.8422729000449181,False,14,-1,0,11
Y2-S2-044K25,2,212,AS,exp,28,→,left,←,0.5147015997208655,False,15,-1,0,11
Y2-S2-044K25,2,213,AS,exp,50,↑,up,↑,0.4477506000548601,True,16,-1,0,11
Y2-S2-044K25,2,214,AS,exp,30,→,right,→,0.6122481003403664,True,16,-1,0,11
Y2-S2-044K25,2,215,AS,exp,27,↑,up,↑,0.5453488999046385,True,16,1,1,12
Y2-S2-044K25,2,216,AS,exp,48,→,right,→,0.4377136998809874,True,15,1,0,12
Y2-S2-044K25,2,217,AS,exp,26,↑,up,↑,0.5772596998140216,True,15,1,0,12
Y2-S2-044K25,2,218,AS,exp,44,→,right,→,0.45175010012462735,True,15,1,0,12
Y2-S2-044K25,2,219,AS,exp,32,←,right,→,0.6686605997383595,False,14,-1,1,13
Y2-S2-044K25,2,220,AS,exp,45,→,right,→,0.4363807998597622,True,15,-1,0,13
Y2-S2-044K25,2,221,AS,exp,49,↑,up,↑,0.5934207998216152,True,15,-1,0,13
Y2-S2-044K25,2,222,AS,exp,46,→,right,→,0.561159800272435,True,15,1,1,14
Y2-S2-044K25,2,223,AS,exp,27,↑,up,↑,0.521686399821192,True,14,1,0,14
Y2-S2-044K25,2,224,AS,exp,39,↓,down,↓,0.632500400301069,True,14,1,0,14
Y2-S2-044K25,2,225,AS,exp,42,→,left,←,0.9377178000286222,False,14,-1,1,15
Y2-S2-044K25,2,226,AS,exp,35,←,left,←,0.5857517998665571,True,15,-1,0,15
Y2-S2-044K25,2,227,AS,exp,43,↑,up,↑,0.7120193997398019,True,15,-1,0,15
Y2-S2-044K25,2,228,AS,exp,25,←,left,←,0.4479265999980271,True,15,1,1,16
Y2-S2-044K25,3,229,AS,intra_train,42,↑,up,↑,1.2566017000935972,True,30,-,-,-
Y2-S2-044K25,3,230,AS,intra_train,36,←,left,←,0.5838617999106646,True,30,-,-,-
Y2-S2-044K25,3,231,AS,intra_train,34,↑,up,↑,0.4513892997056246,True,30,-,-,-
Y2-S2-044K25,3,232,AS,intra_train,39,↓,down,↓,1.3076368002220988,True,30,-,-,-
Y2-S2-044K25,3,233,AS,intra_train,48,←,left,←,0.7753492998890579,True,30,-,-,-
Y2-S2-044K25,3,234,AS,exp,43,↓,down,↓,0.7636053999885917,True,20,0,0,0
Y2-S2-044K25,3,235,AS,exp,36,↑,up,↑,0.8772509000264108,True,20,0,0,0
Y2-S2-044K25,3,236,AS,exp,26,←,left,←,0.5800105999223888,True,20,1,0,0
Y2-S2-044K25,3,237,AS,exp,29,↓,down,↓,0.7584126000292599,True,19,1,0,0
Y2-S2-044K25,3,238,AS,exp,49,←,left,←,0.5070425001904368,True,19,1,0,0
Y2-S2-044K25,3,239,AS,exp,47,→,right,→,0.615195999853313,True,19,1,0,0
Y2-S2-044K25,3,240,AS,exp,38,←,left,←,0.5948767000809312,True,18,1,0,0
Y2-S2-044K25,3,241,AS,exp,45,↓,down,↓,0.7418625997379422,True,18,1,0,0
Y2-S2-044K25,3,242,AS,exp,46,←,left,←,0.5399663997814059,True,18,1,0,0
Y2-S2-044K25,3,243,AS,exp,27,↑,up,↑,0.4846085999161005,True,17,1,0,0
Y2-S2-044K25,3,244,AS,exp,46,→,right,→,1.2305120998062193,True,17,1,0,0
Y2-S2-044K25,3,245,AS,exp,36,↓,down,↓,0.4547987999394536,True,17,1,0,0
Y2-S2-044K25,3,246,AS,exp,39,←,left,←,0.9639727999456227,True,16,1,0,0
Y2-S2-044K25,3,247,AS,exp,25,→,right,→,0.6884601996280253,True,16,1,0,0
Y2-S2-044K25,3,248,AS,exp,36,↑,up,↑,0.4632652997970581,True,16,1,0,0
Y2-S2-044K25,3,249,AS,exp,30,→,left,←,0.6644421997480094,False,15,-1,1,1
Y2-S2-044K25,3,250,AS,exp,44,←,left,←,0.5441577001474798,True,16,-1,0,1
Y2-S2-044K25,3,251,AS,exp,35,↑,up,↑,0.4008248997852206,True,16,-1,0,1
Y2-S2-044K25,3,252,AS,exp,49,←,left,←,0.4962418000213802,True,16,1,1,2
Y2-S2-044K25,3,253,AS,exp,41,↑,up,↑,0.5842875000089407,True,15,1,0,2
Y2-S2-044K25,3,254,AS,exp,35,↓,down,↓,0.45543109998106956,True,15,1,0,2
Y2-S2-044K25,3,255,AS,exp,28,→,right,→,0.46570219984278083,True,15,1,0,2
Y2-S2-044K25,3,256,AS,exp,50,↑,up,↑,1.0203875000588596,True,14,1,0,2
Y2-S2-044K25,3,257,AS,exp,31,←,left,←,0.5480404002591968,True,14,1,0,2
Y2-S2-044K25,3,258,AS,exp,44,↓,down,↓,0.47653490025550127,True,14,1,0,2
Y2-S2-044K25,3,259,AS,exp,43,←,left,←,0.5959435999393463,True,13,1,0,2
Y2-S2-044K25,3,260,AS,exp,29,↑,up,↑,0.7169213001616299,True,13,1,0,2
Y2-S2-044K25,3,261,AS,exp,44,←,left,←,0.5786921000108123,True,13,1,0,2
Y2-S2-044K25,3,262,AS,exp,44,↓,down,↓,0.6134387999773026,True,12,1,0,2
Y2-S2-044K25,3,263,AS,exp,33,↑,left,←,0.5359044997021556,False,12,-1,1,3
Y2-S2-044K25,3,264,AS,exp,38,→,left,←,0.6076380996964872,False,13,-1,0,3
Y2-S2-044K25,3,265,AS,exp,36,↓,down,↓,0.6406809999607503,True,14,-1,0,3
Y2-S2-044K25,3,266,AS,exp,35,→,right,→,0.7472590003162622,True,14,-1,0,3
Y2-S2-044K25,3,267,AS,exp,37,↑,left,←,0.5665711998008192,False,14,-1,0,3
Y2-S2-044K25,3,268,AS,exp,42,←,left,←,0.5416170000098646,True,15,-1,0,3
Y2-S2-044K25,3,269,AS,exp,44,→,right,→,0.5667344997636974,True,15,-1,0,3
Y2-S2-044K25,3,270,AS,exp,25,←,left,←,0.5867610997520387,True,15,1,1,4
Y2-S2-044K25,3,271,AS,exp,45,→,right,→,0.6840675002895296,True,14,1,0,4
Y2-S2-044K25,3,272,AS,exp,39,↑,up,↑,0.5860859001986682,True,14,1,0,4
Y2-S2-044K25,3,273,AS,exp,26,←,left,←,0.8056612000800669,True,14,1,0,4
Y2-S2-044K25,3,274,AS,exp,45,↑,left,←,1.3724777000024915,False,13,-1,1,5
Y2-S2-044K25,3,275,AS,exp,49,←,left,←,0.4783107000403106,True,14,-1,0,5
Y2-S2-044K25,3,276,AS,exp,45,↑,up,↑,0.5436200997792184,True,14,-1,0,5
Y2-S2-044K25,3,277,AS,exp,35,←,left,←,0.6785744000226259,True,14,1,1,6
Y2-S2-044K25,3,278,AS,exp,28,↑,up,↑,0.5752457999624312,True,13,1,0,6
Y2-S2-044K25,3,279,AS,exp,44,←,left,←,0.5431365999393165,True,13,1,0,6
Y2-S2-044K25,3,280,AS,exp,33,↑,up,↑,0.4397736000828445,True,13,1,0,6
Y2-S2-044K25,3,281,AS,exp,34,→,right,→,0.6341868001036346,True,12,1,0,6
Y2-S2-044K25,3,282,AS,exp,49,↓,up,↑,0.6024186997674406,False,12,-1,1,7
Y2-S2-044K25,3,283,AS,exp,33,→,right,→,0.41608119988813996,True,13,-1,0,7
Y2-S2-044K25,3,284,AS,exp,38,↑,up,↑,0.4073887001723051,True,13,-1,0,7
Y2-S2-044K25,3,285,AS,exp,28,←,left,←,0.41905800020322204,True,13,1,1,8
Y2-S2-044K25,3,286,AS,exp,41,→,right,→,0.619249100331217,True,12,1,0,8
Y2-S2-044K25,3,287,AS,exp,49,↑,left,←,0.5685638003051281,False,12,-1,1,9
Y2-S2-044K25,3,288,AS,exp,31,↓,down,↓,1.3022485999390483,True,13,-1,0,9
Y2-S2-044K25,3,289,AS,exp,33,←,left,←,0.7319571003317833,True,13,-1,0,9
Y2-S2-044K25,3,290,AS,exp,50,↑,up,↑,0.5119268000125885,True,13,1,1,10
Y2-S2-044K25,3,291,AS,exp,30,→,right,→,0.6707573998719454,True,12,1,0,10
Y2-S2-044K25,3,292,AS,exp,32,↓,left,←,0.5649060998111963,False,12,-1,1,11
Y2-S2-044K25,3,293,AS,exp,33,↑,up,↑,0.3931081001646817,True,13,-1,0,11
Y2-S2-044K25,3,294,AS,exp,40,→,left,←,0.5067362999543548,False,13,-1,0,11
Y2-S2-044K25,3,295,AS,exp,36,↓,down,↓,0.5551132997497916,True,14,-1,0,11
Y2-S2-044K25,3,296,AS,exp,41,←,left,←,1.3667056001722813,True,14,-1,0,11
Y2-S2-044K25,3,297,AS,exp,46,↓,left,←,0.7563963998109102,False,14,-1,0,11
Y2-S2-044K25,3,298,AS,exp,36,←,left,←,0.5550886001437902,True,15,-1,0,11
Y2-S2-044K25,3,299,AS,exp,28,↓,down,↓,0.6786750997416675,True,15,-1,0,11
Y2-S2-044K25,3,300,AS,exp,31,↑,up,↑,0.6235735998488963,True,15,1,1,12
Y2-S2-044K25,3,301,AS,exp,33,↓,down,↓,0.5904259998351336,True,14,1,0,12
Y2-S2-044K25,3,302,AS,exp,39,←,left,←,0.5878302999772131,True,14,1,0,12
Y2-S2-044K25,3,303,AS,exp,35,↓,down,↓,0.6420379998162389,True,14,1,0,12
Y2-S2-044K25,3,304,AS,exp,40,↑,up,↑,0.5517465001903474,True,13,1,0,12
Y2-S2-044K25,3,305,AS,exp,43,←,left,←,0.5701107997447252,True,13,1,0,12
Y2-S2-044K25,3,306,AS,exp,34,→,right,→,0.5599316000007093,True,13,1,0,12
Y2-S2-044K25,3,307,AS,exp,34,↑,up,↑,0.6482239998877048,True,12,1,0,12
Y2-S2-044K25,3,308,AS,exp,45,↓,up,↑,0.7390231001190841,False,12,-1,1,13
Y2-S2-044K25,3,309,AS,exp,47,←,left,←,0.5562638002447784,True,13,-1,0,13
Y2-S2-044K25,3,310,AS,exp,39,↑,up,↑,0.5772357997484505,True,13,-1,0,13
Y2-S2-044K25,3,311,AS,exp,29,←,left,←,0.6266439999453723,True,13,1,1,14
Y2-S2-044K25,3,312,AS,exp,30,→,left,←,0.5992049998603761,False,12,-1,1,15
Y2-S2-044K25,3,313,AS,exp,39,↑,left,←,0.574171899817884,False,13,-1,0,15
Y2-S2-044K25,3,314,AS,exp,27,↓,down,↓,0.9256957001052797,True,14,-1,0,15
Y2-S2-044K25,3,315,AS,exp,37,←,left,←,0.5895361001603305,True,14,-1,0,15
Y2-S2-044K25,3,316,AS,exp,42,↓,left,←,0.792696800082922,False,14,-1,0,15
Y2-S2-044K25,3,317,AS,exp,29,←,left,←,0.5164975998923182,True,15,-1,0,15
Y2-S2-044K25,3,318,AS,exp,40,→,right,→,0.46598799992352724,True,15,-1,0,15
Y2-S2-044K25,3,319,AS,exp,49,↑,left,←,0.7137037003412843,False,15,-1,0,15
Y2-S2-044K25,3,320,AS,exp,37,↓,down,↓,0.7413602001033723,True,16,-1,0,15
Y2-S2-044K25,3,321,AS,exp,40,↑,up,↑,0.5096439998596907,True,16,-1,0,15
Y2-S2-044K25,3,322,AS,exp,34,↓,down,↓,0.47735360031947494,True,16,1,1,16
Y2-S2-044K25,4,323,PS,intra_train,48,←,left,←,0.6486995001323521,True,13,-,-,-
Y2-S2-044K25,4,324,PS,intra_train,25,↑,up,↑,0.5559550998732448,True,13,-,-,-
Y2-S2-044K25,4,325,PS,intra_train,33,↓,up,↑,0.45351170003414154,False,13,-,-,-
Y2-S2-044K25,4,326,PS,intra_train,46,→,right,→,0.48927889997139573,True,13,-,-,-
Y2-S2-044K25,4,327,PS,intra_train,45,←,left,←,0.5215707998722792,True,13,-,-,-
Y2-S2-044K25,4,328,PS,exp,26,↑,up,↑,0.5288351997733116,True,9,0,0,0
Y2-S2-044K25,4,329,PS,exp,39,→,left,←,0.6241305996663868,False,9,-1,0,0
Y2-S2-044K25,4,330,PS,exp,40,↑,up,↑,0.5384730999357998,True,10,-1,0,0
Y2-S2-044K25,4,331,PS,exp,35,→,left,←,0.5602363999933004,False,10,-1,0,0
Y2-S2-044K25,4,332,PS,exp,50,←,left,←,0.4088141997344792,True,11,-1,0,0
Y2-S2-044K25,4,333,PS,exp,31,↑,down,↓,0.7648380999453366,False,11,-1,0,0
Y2-S2-044K25,4,334,PS,exp,48,↓,left,←,0.4463650002144277,False,12,-1,0,0
Y2-S2-044K25,4,335,PS,exp,50,→,right,→,0.44898329954594374,True,13,-1,0,0
Y2-S2-044K25,4,336,PS,exp,48,←,left,←,0.562011499889195,True,13,-1,0,0
Y2-S2-044K25,4,337,PS,exp,41,↑,up,↑,0.452254899777472,True,13,1,1,1
Y2-S2-044K25,4,338,PS,exp,33,→,right,→,0.47757320012897253,True,12,1,0,1
Y2-S2-044K25,4,339,PS,exp,38,↓,down,↓,0.562094499822706,True,12,1,0,1
Y2-S2-044K25,4,340,PS,exp,48,→,right,→,0.43723649997264147,True,12,1,0,1
Y2-S2-044K25,4,341,PS,exp,34,↑,up,↑,0.5096823000349104,True,11,1,0,1
Y2-S2-044K25,4,342,PS,exp,44,↓,right,→,0.5329168001189828,False,11,-1,1,2
Y2-S2-044K25,4,343,PS,exp,34,→,right,→,0.42799120023846626,True,12,-1,0,2
Y2-S2-044K25,4,344,PS,exp,28,↑,up,↑,0.4416494998149574,True,12,-1,0,2
Y2-S2-044K25,4,345,PS,exp,46,→,left,←,0.5537882000207901,False,12,-1,0,2
Y2-S2-044K25,4,346,PS,exp,46,←,left,←,0.6103427996858954,True,13,-1,0,2
Y2-S2-044K25,4,347,PS,exp,41,→,left,←,0.45723369996994734,False,13,-1,0,2
Y2-S2-044K25,4,348,PS,exp,36,←,right,→,0.5434361002407968,False,14,-1,0,2
Y2-S2-044K25,4,349,PS,exp,32,↑,up,↑,0.429851199965924,True,15,-1,0,2
Y2-S2-044K25,4,350,PS,exp,32,←,left,←,0.43392959982156754,True,15,-1,0,2
Y2-S2-044K25,4,351,PS,exp,25,→,right,→,0.5658165998756886,True,15,1,1,3
Y2-S2-044K25,4,352,PS,exp,44,↑,up,↑,0.4068387998268008,True,14,1,0,3
Y2-S2-044K25,4,353,PS,exp,35,↓,down,↓,0.5813099001534283,True,14,1,0,3
Y2-S2-044K25,4,354,PS,exp,45,←,down,↓,0.5545628000982106,False,14,-1,1,4
Y2-S2-044K25,4,355,PS,exp,27,→,right,→,1.3054124000482261,True,15,-1,0,4
Y2-S2-044K25,4,356,PS,exp,32,↑,left,←,0.5514696999453008,False,15,-1,0,4
Y2-S2-044K25,4,357,PS,exp,39,↓,down,↓,0.4684942001476884,True,16,-1,0,4
Y2-S2-044K25,4,358,PS,exp,44,←,left,←,0.534264899790287,True,16,-1,0,4
Y2-S2-044K25,4,359,PS,exp,36,→,right,→,0.6507822000421584,True,16,1,1,5
Y2-S2-044K25,4,360,PS,exp,34,↑,no_key,no_letter,-1.0,False,15,-1,1,6
Y2-S2-044K25,4,361,PS,exp,48,←,left,←,0.49857799988240004,True,16,-1,0,6
Y2-S2-044K25,4,362,PS,exp,39,↑,up,↑,0.508564599789679,True,16,-1,0,6
Y2-S2-044K25,4,363,PS,exp,45,←,no_key,no_letter,-1.0,False,16,-1,0,6
Y2-S2-044K25,4,364,PS,exp,35,→,left,←,0.3840675000101328,False,17,-1,0,6
Y2-S2-044K25,4,365,PS,exp,36,↑,left,←,0.5407992000691593,False,18,-1,0,6
Y2-S2-044K25,4,366,PS,exp,44,↓,down,↓,0.5355030996724963,True,19,-1,0,6
Y2-S2-044K25,4,367,PS,exp,43,↑,up,↑,0.4338533002883196,True,19,-1,0,6
Y2-S2-044K25,4,368,PS,exp,49,→,right,→,1.497155699878931,True,19,1,1,7
Y2-S2-044K25,4,369,PS,exp,34,←,left,←,0.7045626998879015,True,18,1,0,7
Y2-S2-044K25,4,370,PS,exp,47,↑,up,↑,0.5036581000313163,True,18,1,0,7
Y2-S2-044K25,4,371,PS,exp,44,→,right,→,0.594907300081104,True,18,1,0,7
Y2-S2-044K25,4,372,PS,exp,29,←,left,←,0.728244399651885,True,17,1,0,7
Y2-S2-044K25,4,373,PS,exp,40,↓,down,↓,0.7742196000181139,True,17,1,0,7
Y2-S2-044K25,4,374,PS,exp,29,→,right,→,0.41767500014975667,True,17,1,0,7
Y2-S2-044K25,4,375,PS,exp,38,↓,down,↓,0.7702103997580707,True,16,1,0,7
Y2-S2-044K25,4,376,PS,exp,41,←,left,←,0.6516184001229703,True,16,1,0,7
Y2-S2-044K25,4,377,PS,exp,31,↑,left,←,0.7322715003974736,False,16,-1,1,8
Y2-S2-044K25,4,378,PS,exp,44,←,right,→,0.5831833998672664,False,17,-1,0,8
Y2-S2-044K25,4,379,PS,exp,28,↓,left,←,0.9559872997924685,False,18,-1,0,8
Y2-S2-044K25,4,380,PS,exp,36,←,left,←,0.45052800001576543,True,19,-1,0,8
Y2-S2-044K25,4,381,PS,exp,39,↓,down,↓,0.6455295002087951,True,19,-1,0,8
Y2-S2-044K25,4,382,PS,exp,31,↑,up,↑,0.6828056997619569,True,19,1,1,9
Y2-S2-044K25,4,383,PS,exp,49,↓,no_key,no_letter,-1.0,False,18,-1,1,10
Y2-S2-044K25,4,384,PS,exp,48,→,right,→,0.4512351001612842,True,19,-1,0,10
Y2-S2-044K25,4,385,PS,exp,28,↓,down,↓,0.6306353001855314,True,19,-1,0,10
Y2-S2-044K25,4,386,PS,exp,48,←,left,←,1.162193300202489,True,19,1,1,11
Y2-S2-044K25,4,387,PS,exp,31,↑,up,↑,0.6349089997820556,True,18,1,0,11
Y2-S2-044K25,4,388,PS,exp,25,↓,down,↓,0.6625347998924553,True,18,1,0,11
Y2-S2-044K25,4,389,PS,exp,45,↑,up,↑,0.6967171998694539,True,18,1,0,11
Y2-S2-044K25,4,390,PS,exp,37,←,left,←,0.41681040031835437,True,17,1,0,11
Y2-S2-044K25,4,391,PS,exp,30,↓,left,←,0.6954430998302996,False,17,-1,1,12
Y2-S2-044K25,4,392,PS,exp,38,←,left,←,0.5510923997499049,True,18,-1,0,12
Y2-S2-044K25,4,393,PS,exp,50,↓,down,↓,0.7202542000450194,True,18,-1,0,12
Y2-S2-044K25,4,394,PS,exp,28,←,left,←,0.6639073002152145,True,18,1,1,13
Y2-S2-044K25,4,395,PS,exp,42,↑,left,←,0.7726969001814723,False,17,-1,1,14
Y2-S2-044K25,4,396,PS,exp,42,←,left,←,0.6235718000680208,True,18,-1,0,14
Y2-S2-044K25,4,397,PS,exp,37,↓,down,↓,0.7246047002263367,True,18,-1,0,14
Y2-S2-044K25,4,398,PS,exp,33,→,right,→,0.6115657999180257,True,18,1,1,15
Y2-S2-044K25,4,399,PS,exp,28,↑,up,↑,0.4512994000688195,True,17,1,0,15
Y2-S2-044K25,4,400,PS,exp,41,←,left,←,0.48815529979765415,True,17,1,0,15
Y2-S2-044K25,4,401,PS,exp,33,↓,left,←,0.5946935000829399,False,17,-1,1,16
Y2-S2-044K25,5,402,PS,intra_train,48,←,left,←,0.559948599897325,True,13,-,-,-
Y2-S2-044K25,5,403,PS,intra_train,25,↑,up,↑,0.6062786001712084,True,13,-,-,-
Y2-S2-044K25,5,404,PS,intra_train,43,→,right,→,0.5142135000787675,True,13,-,-,-
Y2-S2-044K25,5,405,PS,intra_train,33,←,left,←,0.39575490029528737,True,13,-,-,-
Y2-S2-044K25,5,406,PS,intra_train,37,↓,down,↓,0.5986577998846769,True,13,-,-,-
Y2-S2-044K25,5,407,PS,exp,44,↑,up,↑,0.5939373001456261,True,9,0,0,0
Y2-S2-044K25,5,408,PS,exp,49,→,up,↑,0.7331380997784436,False,9,-1,0,0
Y2-S2-044K25,5,409,PS,exp,25,←,left,←,0.6053484999574721,True,10,-1,0,0
Y2-S2-044K25,5,410,PS,exp,48,→,right,→,0.4569117999635637,True,10,-1,0,0
Y2-S2-044K25,5,411,PS,exp,49,↑,up,↑,0.8185104997828603,True,10,1,1,1
Y2-S2-044K25,5,412,PS,exp,28,→,right,→,0.4883778002113104,True,9,1,0,1
Y2-S2-044K25,5,413,PS,exp,28,↓,down,↓,0.6597191002219915,True,9,1,0,1
Y2-S2-044K25,5,414,PS,exp,26,↑,right,→,0.6168327000923455,False,9,-1,1,2
Y2-S2-044K25,5,415,PS,exp,26,→,right,→,0.5456946999765933,True,10,-1,0,2
Y2-S2-044K25,5,416,PS,exp,43,↓,down,↓,0.6802848996594548,True,10,-1,0,2
Y2-S2-044K25,5,417,PS,exp,27,←,left,←,0.6429293002001941,True,10,1,1,3
Y2-S2-044K25,5,418,PS,exp,30,→,right,→,0.43671979987993836,True,9,1,0,3
Y2-S2-044K25,5,419,PS,exp,49,←,left,←,0.5034445002675056,True,9,1,0,3
Y2-S2-044K25,5,420,PS,exp,32,→,right,→,0.4557500001974404,True,9,1,0,3
Y2-S2-044K25,5,421,PS,exp,26,←,right,→,0.6002958999015391,False,8,-1,1,4
Y2-S2-044K25,5,422,PS,exp,31,→,right,→,0.5935293999500573,True,9,-1,0,4
Y2-S2-044K25,5,423,PS,exp,35,←,right,→,0.61828269995749,False,9,-1,0,4
Y2-S2-044K25,5,424,PS,exp,35,→,left,←,0.7219906998798251,False,10,-1,0,4
Y2-S2-044K25,5,425,PS,exp,38,←,left,←,1.2724701999686658,True,11,-1,0,4
Y2-S2-044K25,5,426,PS,exp,37,→,right,→,0.526038299780339,True,11,-1,0,4
Y2-S2-044K25,5,427,PS,exp,33,↑,left,←,0.4768297001719475,False,11,-1,0,4
Y2-S2-044K25,5,428,PS,exp,33,↓,down,↓,0.6448613000102341,True,12,-1,0,4
Y2-S2-044K25,5,429,PS,exp,25,→,right,→,0.5195112996734679,True,12,-1,0,4
Y2-S2-044K25,5,430,PS,exp,35,↓,down,↓,0.45882439985871315,True,12,1,1,5
Y2-S2-044K25,5,431,PS,exp,35,↑,up,↑,0.41432159999385476,True,11,1,0,5
Y2-S2-044K25,5,432,PS,exp,43,←,left,←,0.41810210002586246,True,11,1,0,5
Y2-S2-044K25,5,433,PS,exp,26,↑,up,↑,0.515393900219351,True,11,1,0,5
Y2-S2-044K25,5,434,PS,exp,49,↓,up,↑,0.16715499991551042,False,10,-1,1,6
Y2-S2-044K25,5,435,PS,exp,33,←,left,←,0.47316400008276105,True,11,-1,0,6
Y2-S2-044K25,5,436,PS,exp,49,↓,down,↓,0.5396757000125945,True,11,-1,0,6
Y2-S2-044K25,5,437,PS,exp,27,→,right,→,0.4365558000281453,True,11,1,1,7
Y2-S2-044K25,5,438,PS,exp,48,↑,up,↑,0.4874710999429226,True,10,1,0,7
Y2-S2-044K25,5,439,PS,exp,32,←,left,←,0.45147440023720264,True,10,1,0,7
Y2-S2-044K25,5,440,PS,exp,30,↑,right,→,0.6715365001000464,False,10,-1,1,8
Y2-S2-044K25,5,441,PS,exp,37,→,left,←,0.5831458000466228,False,11,-1,0,8
Y2-S2-044K25,5,442,PS,exp,25,↓,down,↓,0.6603705999441445,True,12,-1,0,8
Y2-S2-044K25,5,443,PS,exp,29,←,left,←,0.5211845999583602,True,12,-1,0,8
Y2-S2-044K25,5,444,PS,exp,37,↑,left,←,0.534478799905628,False,12,-1,0,8
Y2-S2-044K25,5,445,PS,exp,35,←,left,←,0.40749889984726906,True,13,-1,0,8
Y2-S2-044K25,5,446,PS,exp,46,↑,up,↑,0.5439181998372078,True,13,-1,0,8
Y2-S2-044K25,5,447,PS,exp,50,↓,down,↓,0.5622439002618194,True,13,1,1,9
Y2-S2-044K25,5,448,PS,exp,41,↑,up,↑,0.4538225997239351,True,12,1,0,9
Y2-S2-044K25,5,449,PS,exp,45,←,right,→,0.5721613001078367,False,12,-1,1,10
Y2-S2-044K25,5,450,PS,exp,39,↑,left,←,0.4991031000390649,False,13,-1,0,10
Y2-S2-044K25,5,451,PS,exp,41,↓,down,↓,0.5490178000181913,True,14,-1,0,10
Y2-S2-044K25,5,452,PS,exp,43,→,right,→,0.4229131997562945,True,14,-1,0,10
Y2-S2-044K25,5,453,PS,exp,39,↑,right,→,0.6697010998614132,False,14,-1,0,10
Y2-S2-044K25,5,454,PS,exp,32,←,left,←,0.5644717998802662,True,15,-1,0,10
Y2-S2-044K25,5,455,PS,exp,29,↓,right,→,0.4909684001468122,False,15,-1,0,10
Y2-S2-044K25,5,456,PS,exp,47,↑,up,↑,1.548951799981296,True,16,-1,0,10
Y2-S2-044K25,5,457,PS,exp,44,→,right,→,0.5861714999191463,True,16,-1,0,10
Y2-S2-044K25,5,458,PS,exp,25,←,left,←,1.3644266999326646,True,16,1,1,11
Y2-S2-044K25,5,459,PS,exp,50,↓,down,↓,0.7263121004216373,True,15,1,0,11
Y2-S2-044K25,5,460,PS,exp,44,←,left,←,0.42810280015692115,True,15,1,0,11
Y2-S2-044K25,5,461,PS,exp,44,↑,right,→,0.6377276000566781,False,15,-1,1,12
Y2-S2-044K25,5,462,PS,exp,27,→,left,←,0.6760120997205377,False,16,-1,0,12
Y2-S2-044K25,5,463,PS,exp,45,↓,down,↓,0.6756739001721144,True,17,-1,0,12
Y2-S2-044K25,5,464,PS,exp,29,←,left,←,0.6151347998529673,True,17,-1,0,12
Y2-S2-044K25,5,465,PS,exp,26,↑,right,→,0.9786185999400914,False,17,-1,0,12
Y2-S2-044K25,5,466,PS,exp,44,→,right,→,0.4821072998456657,True,18,-1,0,12
Y2-S2-044K25,5,467,PS,exp,42,↑,up,↑,0.5048853000625968,True,18,-1,0,12
Y2-S2-044K25,5,468,PS,exp,31,←,right,→,0.8302029999904335,False,18,-1,0,12
Y2-S2-044K25,5,469,PS,exp,25,↓,up,↑,0.7276663999073207,False,19,-1,0,12
Y2-S2-044K25,5,470,PS,exp,39,↑,up,↑,0.46729949954897165,True,20,-1,0,12
Y2-S2-044K25,5,471,PS,exp,39,←,left,←,0.6964225000701845,True,20,-1,0,12
Y2-S2-044K25,5,472,PS,exp,39,↑,up,↑,0.5586053999140859,True,20,1,1,13
Y2-S2-044K25,5,473,PS,exp,39,↓,down,↓,0.6464765002019703,True,19,1,0,13
Y2-S2-044K25,5,474,PS,exp,33,↑,up,↑,0.7281869002617896,True,19,1,0,13
Y2-S2-044K25,5,475,PS,exp,26,→,up,↑,1.1437123999930918,False,19,-1,1,14
Y2-S2-044K25,5,476,PS,exp,49,↑,up,↑,0.6138952998444438,True,20,-1,0,14
Y2-S2-044K25,5,477,PS,exp,31,←,left,←,0.6706771999597549,True,20,-1,0,14
Y2-S2-044K25,5,478,PS,exp,40,↑,up,↑,0.6245221998542547,True,20,1,1,15
Y2-S2-044K25,5,479,PS,exp,43,←,left,←,0.5206665997393429,True,19,1,0,15
Y2-S2-044K25,5,480,PS,exp,44,↑,left,←,0.4506123000755906,False,19,-1,1,16
Y2-S2-044K25,6,481,AS,intra_train,48,←,left,←,0.8937407000921667,True,30,-,-,-
Y2-S2-044K25,6,482,AS,intra_train,49,↓,down,↓,0.8048205999657512,True,30,-,-,-
Y2-S2-044K25,6,483,AS,intra_train,40,←,left,←,0.7061337996274233,True,30,-,-,-
Y2-S2-044K25,6,484,AS,intra_train,41,↓,down,↓,0.8204529997892678,True,30,-,-,-
Y2-S2-044K25,6,485,AS,intra_train,32,↑,up,↑,0.8244362003169954,True,30,-,-,-
Y2-S2-044K25,6,486,AS,exp,44,↓,down,↓,0.9627617001533508,True,20,0,0,0
Y2-S2-044K25,6,487,AS,exp,26,→,left,←,0.7369054998271167,False,20,-1,0,0
Y2-S2-044K25,6,488,AS,exp,27,↑,up,↑,0.6759919002652168,True,21,-1,0,0
Y2-S2-044K25,6,489,AS,exp,42,→,right,→,0.6016782000660896,True,21,-1,0,0
Y2-S2-044K25,6,490,AS,exp,33,↓,down,↓,0.7486682999879122,True,21,1,1,1
Y2-S2-044K25,6,491,AS,exp,43,→,left,←,0.7035945998504758,False,20,-1,1,2
Y2-S2-044K25,6,492,AS,exp,48,←,left,←,1.0807926002889872,True,21,-1,0,2
Y2-S2-044K25,6,493,AS,exp,36,↓,down,↓,0.5612146002240479,True,21,-1,0,2
Y2-S2-044K25,6,494,AS,exp,46,→,right,→,0.4503830000758171,True,21,1,1,3
Y2-S2-044K25,6,495,AS,exp,33,←,left,←,0.635432300157845,True,20,1,0,3
Y2-S2-044K25,6,496,AS,exp,44,→,right,→,0.617473800200969,True,20,1,0,3
Y2-S2-044K25,6,497,AS,exp,42,←,right,→,0.7617075000889599,False,20,-1,1,4
Y2-S2-044K25,6,498,AS,exp,46,↓,down,↓,0.5915170996449888,True,21,-1,0,4
Y2-S2-044K25,6,499,AS,exp,33,→,left,←,0.5818026997148991,False,21,-1,0,4
Y2-S2-044K25,6,500,AS,exp,42,←,left,←,0.594467299990356,True,22,-1,0,4
Y2-S2-044K25,6,501,AS,exp,26,→,left,←,0.6201879000291228,False,22,-1,0,4
Y2-S2-044K25,6,502,AS,exp,46,↑,up,↑,0.5004325001500547,True,23,-1,0,4
Y2-S2-044K25,6,503,AS,exp,39,→,right,→,0.4837546003982425,True,23,-1,0,4
Y2-S2-044K25,6,504,AS,exp,43,↓,down,↓,0.5910594998858869,True,23,1,1,5
Y2-S2-044K25,6,505,AS,exp,44,←,left,←,0.4505616002716124,True,22,1,0,5
Y2-S2-044K25,6,506,AS,exp,34,↓,down,↓,0.5749019999057055,True,22,1,0,5
Y2-S2-044K25,6,507,AS,exp,49,↑,up,↑,0.4176147999241948,True,22,1,0,5
Y2-S2-044K25,6,508,AS,exp,32,→,right,→,0.4506127000786364,True,21,1,0,5
Y2-S2-044K25,6,509,AS,exp,39,↑,up,↑,0.6442748000845313,True,21,1,0,5
Y2-S2-044K25,6,510,AS,exp,36,→,right,→,0.6850572000257671,True,21,1,0,5
Y2-S2-044K25,6,511,AS,exp,29,↓,down,↓,0.43404419999569654,True,20,1,0,5
Y2-S2-044K25,6,512,AS,exp,28,←,left,←,1.252936900127679,True,20,1,0,5
Y2-S2-044K25,6,513,AS,exp,25,→,right,→,0.46740090008825064,True,20,1,0,5
Y2-S2-044K25,6,514,AS,exp,40,←,left,←,0.5192546001635492,True,19,1,0,5
Y2-S2-044K25,6,515,AS,exp,45,→,right,→,0.43420450016856194,True,19,1,0,5
Y2-S2-044K25,6,516,AS,exp,41,←,left,←,0.5560511997900903,True,19,1,0,5
Y2-S2-044K25,6,517,AS,exp,32,↑,up,↑,0.4340941999107599,True,18,1,0,5
Y2-S2-044K25,6,518,AS,exp,46,←,left,←,0.40041220001876354,True,18,1,0,5
Y2-S2-044K25,6,519,AS,exp,34,↑,up,↑,0.6517207999713719,True,18,1,0,5
Y2-S2-044K25,6,520,AS,exp,41,↓,down,↓,1.1486881002783775,True,17,1,0,5
Y2-S2-044K25,6,521,AS,exp,34,↑,up,↑,0.9825875996612012,True,17,1,0,5
Y2-S2-044K25,6,522,AS,exp,33,→,right,→,0.47954489989206195,True,17,1,0,5
Y2-S2-044K25,6,523,AS,exp,26,↓,up,↑,0.762748499866575,False,16,-1,1,6
Y2-S2-044K25,6,524,AS,exp,45,→,right,→,0.5960989999584854,True,17,-1,0,6
Y2-S2-044K25,6,525,AS,exp,35,↑,up,↑,0.46195199992507696,True,17,-1,0,6
Y2-S2-044K25,6,526,AS,exp,32,↓,down,↓,0.4798700003884733,True,17,1,1,7
Y2-S2-044K25,6,527,AS,exp,30,→,right,→,0.5558474999852479,True,16,1,0,7
Y2-S2-044K25,6,528,AS,exp,34,↓,down,↓,0.4357287003658712,True,16,1,0,7
Y2-S2-044K25,6,529,AS,exp,34,←,left,←,0.5003420002758503,True,16,1,0,7
Y2-S2-044K25,6,530,AS,exp,29,↑,up,↑,0.6413135002367198,True,15,1,0,7
Y2-S2-044K25,6,531,AS,exp,38,→,right,→,1.0885589998215437,True,15,1,0,7
Y2-S2-044K25,6,532,AS,exp,44,←,left,←,0.6476210998371243,True,15,1,0,7
Y2-S2-044K25,6,533,AS,exp,36,↑,up,↑,0.5402639997191727,True,14,1,0,7
Y2-S2-044K25,6,534,AS,exp,50,↓,down,↓,0.4688498000614345,True,14,1,0,7
Y2-S2-044K25,6,535,AS,exp,50,→,right,→,0.4350751996971667,True,14,1,0,7
Y2-S2-044K25,6,536,AS,exp,45,←,left,←,0.41595300007611513,True,13,1,0,7
Y2-S2-044K25,6,537,AS,exp,30,→,right,→,0.6434957003220916,True,13,1,0,7
Y2-S2-044K25,6,538,AS,exp,37,↓,left,←,0.6002281000837684,False,13,-1,1,8
Y2-S2-044K25,6,539,AS,exp,35,→,right,→,0.4779304997064173,True,14,-1,0,8
Y2-S2-044K25,6,540,AS,exp,41,←,left,←,0.5020679999142885,True,14,-1,0,8
Y2-S2-044K25,6,541,AS,exp,34,↑,up,↑,0.47981479996815324,True,14,1,1,9
Y2-S2-044K25,6,542,AS,exp,25,→,up,↑,0.6652611000463367,False,13,-1,1,10
Y2-S2-044K25,6,543,AS,exp,27,↓,down,↓,0.7601279998198152,True,14,-1,0,10
Y2-S2-044K25,6,544,AS,exp,32,→,right,→,0.43994699977338314,True,14,-1,0,10
Y2-S2-044K25,6,545,AS,exp,27,↓,down,↓,0.7169999997131526,True,14,1,1,11
Y2-S2-044K25,6,546,AS,exp,44,→,right,→,0.6453448999673128,True,13,1,0,11
Y2-S2-044K25,6,547,AS,exp,44,↓,down,↓,0.6102483002468944,True,13,1,0,11
Y2-S2-044K25,6,548,AS,exp,47,←,left,←,0.40249700006097555,True,13,1,0,11
Y2-S2-044K25,6,549,AS,exp,49,↓,down,↓,0.45099350018426776,True,12,1,0,11
Y2-S2-044K25,6,550,AS,exp,35,→,right,→,0.5006405999884009,True,12,1,0,11
Y2-S2-044K25,6,551,AS,exp,41,←,left,←,0.4277848997153342,True,12,1,0,11
Y2-S2-044K25,6,552,AS,exp,33,↓,left,←,0.7103332998231053,False,11,-1,1,12
Y2-S2-044K25,6,553,AS,exp,38,↑,down,↓,0.6500924997963011,False,12,-1,0,12
Y2-S2-044K25,6,554,AS,exp,40,↓,down,↓,0.7298522000201046,True,13,-1,0,12
Y2-S2-044K25,6,555,AS,exp,38,↑,up,↑,0.5547297997400165,True,13,-1,0,12
Y2-S2-044K25,6,556,AS,exp,41,↓,down,↓,0.4686997998505831,True,13,1,1,13
Y2-S2-044K25,6,557,AS,exp,43,→,right,→,0.5614402000792325,True,12,1,0,13
Y2-S2-044K25,6,558,AS,exp,30,↑,down,↓,0.7226980002596974,False,12,-1,1,14
Y2-S2-044K25,6,559,AS,exp,30,←,left,←,0.429494499694556,True,13,-1,0,14
Y2-S2-044K25,6,560,AS,exp,35,→,right,→,0.48007449973374605,True,13,-1,0,14
Y2-S2-044K25,6,561,AS,exp,39,↓,down,↓,0.4486055998131633,True,13,1,1,15
Y2-S2-044K25,6,562,AS,exp,31,↑,right,→,1.1053706998936832,False,12,-1,1,16
Y2-S2-044K25,7,563,AS,intra_train,28,↓,down,↓,1.1794203002937138,True,30,-,-,-
Y2-S2-044K25,7,564,AS,intra_train,46,→,right,→,0.6172756999731064,True,30,-,-,-
Y2-S2-044K25,7,565,AS,intra_train,45,←,left,←,0.6005056998692453,True,30,-,-,-
Y2-S2-044K25,7,566,AS,intra_train,37,↑,up,↑,0.6171674001961946,True,30,-,-,-
Y2-S2-044K25,7,567,AS,intra_train,49,←,left,←,0.5007790997624397,True,30,-,-,-
Y2-S2-044K25,7,568,AS,exp,26,→,right,→,0.5739031997509301,True,20,0,0,0
Y2-S2-044K25,7,569,AS,exp,28,↑,up,↑,1.494938200339675,True,20,0,0,0
Y2-S2-044K25,7,570,AS,exp,26,←,left,←,0.5172460000030696,True,20,1,0,0
Y2-S2-044K25,7,571,AS,exp,32,↓,down,↓,0.6573777999728918,True,19,1,0,0
Y2-S2-044K25,7,572,AS,exp,29,←,no_key,no_letter,-1.0,False,19,-1,1,1
Y2-S2-044K25,7,573,AS,exp,30,↑,up,↑,0.6218157997354865,True,20,-1,0,1
Y2-S2-044K25,7,574,AS,exp,25,←,left,←,0.6106719002127647,True,20,-1,0,1
Y2-S2-044K25,7,575,AS,exp,32,→,right,→,0.6196917002089322,True,20,1,1,2
Y2-S2-044K25,7,576,AS,exp,39,←,left,←,0.5291213002055883,True,19,1,0,2
Y2-S2-044K25,7,577,AS,exp,31,↑,up,↑,0.45075489999726415,True,19,1,0,2
Y2-S2-044K25,7,578,AS,exp,31,↓,down,↓,1.201927499845624,True,19,1,0,2
Y2-S2-044K25,7,579,AS,exp,28,←,left,←,0.40081769973039627,True,18,1,0,2
Y2-S2-044K25,7,580,AS,exp,42,↑,up,↑,0.5989541998133063,True,18,1,0,2
Y2-S2-044K25,7,581,AS,exp,37,↓,down,↓,0.4679176998324692,True,18,1,0,2
Y2-S2-044K25,7,582,AS,exp,25,←,left,←,0.6086289002560079,True,17,1,0,2
Y2-S2-044K25,7,583,AS,exp,35,↓,down,↓,0.5138058001175523,True,17,1,0,2
Y2-S2-044K25,7,584,AS,exp,45,→,right,→,0.91411770042032,True,17,1,0,2
Y2-S2-044K25,7,585,AS,exp,30,↓,down,↓,0.6370226996950805,True,16,1,0,2
Y2-S2-044K25,7,586,AS,exp,30,←,left,←,1.0566179999150336,True,16,1,0,2
Y2-S2-044K25,7,587,AS,exp,29,→,right,→,0.9916409999132156,True,16,1,0,2
Y2-S2-044K25,7,588,AS,exp,34,↑,down,↓,0.6479405001737177,False,15,-1,1,3
Y2-S2-044K25,7,589,AS,exp,41,→,right,→,0.6081276000477374,True,16,-1,0,3
Y2-S2-044K25,7,590,AS,exp,27,←,no_key,no_letter,-1.0,False,16,-1,0,3
Y2-S2-044K25,7,591,AS,exp,39,↑,up,↑,0.6180663998238742,True,17,-1,0,3
Y2-S2-044K25,7,592,AS,exp,25,↓,down,↓,0.5908852000720799,True,17,-1,0,3
Y2-S2-044K25,7,593,AS,exp,38,→,right,→,0.5455383001826704,True,17,1,1,4
Y2-S2-044K25,7,594,AS,exp,34,←,left,←,0.5006715999916196,True,16,1,0,4
Y2-S2-044K25,7,595,AS,exp,37,→,left,←,0.7309611001983285,False,16,-1,1,5
Y2-S2-044K25,7,596,AS,exp,50,←,left,←,0.6189691000618041,True,17,-1,0,5
Y2-S2-044K25,7,597,AS,exp,47,→,right,→,0.545737000182271,True,17,-1,0,5
Y2-S2-044K25,7,598,AS,exp,39,↑,up,↑,0.6252677999436855,True,17,1,1,6
Y2-S2-044K25,7,599,AS,exp,25,↓,down,↓,0.5930504999123514,True,16,1,0,6
Y2-S2-044K25,7,600,AS,exp,46,→,right,→,0.5212117000482976,True,16,1,0,6
Y2-S2-044K25,7,601,AS,exp,40,↓,down,↓,0.6541568003594875,True,16,1,0,6
Y2-S2-044K25,7,602,AS,exp,27,→,right,→,0.4278301000595093,True,15,1,0,6
Y2-S2-044K25,7,603,AS,exp,40,↓,down,↓,0.656053299549967,True,15,1,0,6
Y2-S2-044K25,7,604,AS,exp,38,↑,up,↑,1.280104599893093,True,15,1,0,6
Y2-S2-044K25,7,605,AS,exp,44,←,left,←,0.7804374000988901,True,14,1,0,6
Y2-S2-044K25,7,606,AS,exp,31,↓,down,↓,0.6216034004464746,True,14,1,0,6
Y2-S2-044K25,7,607,AS,exp,31,→,right,→,0.6537171001546085,True,14,1,0,6
Y2-S2-044K25,7,608,AS,exp,41,↓,down,↓,0.455420000012964,True,13,1,0,6
Y2-S2-044K25,7,609,AS,exp,49,↑,up,↑,0.6120091998018324,True,13,1,0,6
Y2-S2-044K25,7,610,AS,exp,41,→,right,→,0.49390670005232096,True,13,1,0,6
Y2-S2-044K25,7,611,AS,exp,25,↑,up,↑,0.6601931001059711,True,12,1,0,6
Y2-S2-044K25,7,612,AS,exp,35,↓,down,↓,0.5873267999850214,True,12,1,0,6
Y2-S2-044K25,7,613,AS,exp,44,←,left,←,0.4349011001177132,True,12,1,0,6
Y2-S2-044K25,7,614,AS,exp,46,↑,up,↑,0.5814493000507355,True,11,1,0,6
Y2-S2-044K25,7,615,AS,exp,44,↓,down,↓,0.6359092998318374,True,11,1,0,6
Y2-S2-044K25,7,616,AS,exp,31,↑,left,←,1.4084453997202218,False,11,-1,1,7
Y2-S2-044K25,7,617,AS,exp,34,→,right,→,0.607031499966979,True,12,-1,0,7
Y2-S2-044K25,7,618,AS,exp,42,↓,down,↓,0.6061674002557993,True,12,-1,0,7
Y2-S2-044K25,7,619,AS,exp,35,→,left,←,0.6338486997410655,False,12,-1,0,7
Y2-S2-044K25,7,620,AS,exp,38,←,left,←,0.5763262999244034,True,13,-1,0,7
Y2-S2-044K25,7,621,AS,exp,46,↑,up,↑,0.6237988998182118,True,13,-1,0,7
Y2-S2-044K25,7,622,AS,exp,46,→,right,→,0.6186346001923084,True,13,1,1,8
Y2-S2-044K25,7,623,AS,exp,43,↓,down,↓,0.5035004997625947,True,12,1,0,8
Y2-S2-044K25,7,624,AS,exp,37,←,left,←,0.4120018999092281,True,12,1,0,8
Y2-S2-044K25,7,625,AS,exp,38,↑,up,↑,0.6025542002171278,True,12,1,0,8
Y2-S2-044K25,7,626,AS,exp,25,→,right,→,0.6289034001529217,True,11,1,0,8
Y2-S2-044K25,7,627,AS,exp,30,↓,left,←,0.5950424000620842,False,11,-1,1,9
Y2-S2-044K25,7,628,AS,exp,33,→,right,→,0.39971560006961226,True,12,-1,0,9
Y2-S2-044K25,7,629,AS,exp,47,↓,left,←,0.6233319998718798,False,12,-1,0,9
Y2-S2-044K25,7,630,AS,exp,29,↑,up,↑,1.0026171999052167,True,13,-1,0,9
Y2-S2-044K25,7,631,AS,exp,47,↓,up,↑,0.6485546003095806,False,13,-1,0,9
Y2-S2-044K25,7,632,AS,exp,29,↑,left,←,0.5500743999145925,False,14,-1,0,9
Y2-S2-044K25,7,633,AS,exp,34,→,right,→,0.4351814999245107,True,15,-1,0,9
Y2-S2-044K25,7,634,AS,exp,48,↑,up,↑,0.9594141002744436,True,15,-1,0,9
Y2-S2-044K25,7,635,AS,exp,42,↓,down,↓,0.5522684003226459,True,15,1,1,10
Y2-S2-044K25,7,636,AS,exp,48,↑,up,↑,0.6330063999630511,True,14,1,0,10
Y2-S2-044K25,7,637,AS,exp,47,←,left,←,0.5552155002951622,True,14,1,0,10
Y2-S2-044K25,7,638,AS,exp,31,↓,down,↓,0.8591606998816133,True,14,1,0,10
Y2-S2-044K25,7,639,AS,exp,30,↑,up,↑,0.4161149999126792,True,13,1,0,10
Y2-S2-044K25,7,640,AS,exp,47,↓,up,↑,0.690802900120616,False,13,-1,1,11
Y2-S2-044K25,7,641,AS,exp,34,←,left,←,0.46752450009807944,True,14,-1,0,11
Y2-S2-044K25,7,642,AS,exp,39,↓,down,↓,0.5833229999989271,True,14,-1,0,11
Y2-S2-044K25,7,643,AS,exp,40,←,left,←,0.41827369993552566,True,14,1,1,12
Y2-S2-044K25,7,644,AS,exp,40,↑,up,↑,0.7893040999770164,True,13,1,0,12
Y2-S2-044K25,7,645,AS,exp,34,→,left,←,0.4613051996566355,False,13,-1,1,13
Y2-S2-044K25,7,646,AS,exp,28,↓,down,↓,0.6244579004123807,True,14,-1,0,13
Y2-S2-044K25,7,647,AS,exp,27,←,left,←,0.5009860000573099,True,14,-1,0,13
Y2-S2-044K25,7,648,AS,exp,42,→,right,→,0.6193468999117613,True,14,1,1,14
Y2-S2-044K25,7,649,AS,exp,37,↓,left,←,0.6084707998670638,False,13,-1,1,15
Y2-S2-044K25,7,650,AS,exp,45,→,right,→,0.6923978002741933,True,14,-1,0,15
Y2-S2-044K25,7,651,AS,exp,29,↑,left,←,0.7201793002896011,False,14,-1,0,15
Y2-S2-044K25,7,652,AS,exp,37,←,left,←,0.454031600151211,True,15,-1,0,15
Y2-S2-044K25,7,653,AS,exp,32,→,right,→,0.5110969003289938,True,15,-1,0,15
Y2-S2-044K25,7,654,AS,exp,37,↓,down,↓,0.4496154999360442,True,15,1,1,16
Y2-S2-044K25,8,655,PS,intra_train,35,→,right,→,1.8444715002551675,True,13,-,-,-
Y2-S2-044K25,8,656,PS,intra_train,39,↓,down,↓,0.5634328001178801,True,13,-,-,-
Y2-S2-044K25,8,657,PS,intra_train,48,↑,left,←,0.767305999994278,False,13,-,-,-
Y2-S2-044K25,8,658,PS,intra_train,43,→,left,←,0.5669159004464746,False,13,-,-,-
Y2-S2-044K25,8,659,PS,intra_train,43,↑,right,→,0.5034815999679267,False,13,-,-,-
Y2-S2-044K25,8,660,PS,exp,46,←,left,←,0.4464722000993788,True,9,0,0,0
Y2-S2-044K25,8,661,PS,exp,34,↑,up,↑,0.46546570025384426,True,9,0,0,0
Y2-S2-044K25,8,662,PS,exp,25,↓,right,→,0.5141071998514235,False,9,-1,0,0
Y2-S2-044K25,8,663,PS,exp,36,→,right,→,0.44645969988778234,True,10,-1,0,0
Y2-S2-044K25,8,664,PS,exp,37,↓,left,←,0.5473189000040293,False,10,-1,0,0
Y2-S2-044K25,8,665,PS,exp,43,→,right,→,0.5163680999539793,True,11,-1,0,0
Y2-S2-044K25,8,666,PS,exp,40,↑,up,↑,0.558657799847424,True,11,-1,0,0
Y2-S2-044K25,8,667,PS,exp,43,←,right,→,0.5388270001858473,False,11,-1,0,0
Y2-S2-044K25,8,668,PS,exp,34,↓,left,←,0.6434063003398478,False,12,-1,0,0
Y2-S2-044K25,8,669,PS,exp,40,↑,up,↑,0.4111973000690341,True,13,-1,0,0
Y2-S2-044K25,8,670,PS,exp,45,→,right,→,0.537421400193125,True,13,-1,0,0
Y2-S2-044K25,8,671,PS,exp,26,↑,up,↑,0.6045822999440134,True,13,1,1,1
Y2-S2-044K25,8,672,PS,exp,34,←,up,↑,0.8710874002426863,False,12,-1,1,2
Y2-S2-044K25,8,673,PS,exp,39,↑,up,↑,0.4868439002893865,True,13,-1,0,2
Y2-S2-044K25,8,674,PS,exp,47,→,right,→,0.4623460001312196,True,13,-1,0,2
Y2-S2-044K25,8,675,PS,exp,40,←,left,←,0.4689332996495068,True,13,1,1,3
Y2-S2-044K25,8,676,PS,exp,26,↓,up,↑,0.6024996000342071,False,12,-1,1,4
Y2-S2-044K25,8,677,PS,exp,49,→,right,→,0.44470039987936616,True,13,-1,0,4
Y2-S2-044K25,8,678,PS,exp,26,↑,right,→,0.5183132002130151,False,13,-1,0,4
Y2-S2-044K25,8,679,PS,exp,36,←,right,→,0.7239498998969793,False,14,-1,0,4
Y2-S2-044K25,8,680,PS,exp,27,→,left,←,0.6880763997323811,False,15,-1,0,4
Y2-S2-044K25,8,681,PS,exp,27,↑,up,↑,0.6128468997776508,True,16,-1,0,4
Y2-S2-044K25,8,682,PS,exp,48,←,left,←,0.46741250017657876,True,16,-1,0,4
Y2-S2-044K25,8,683,PS,exp,26,↑,left,←,0.6826379001140594,False,16,-1,0,4
Y2-S2-044K25,8,684,PS,exp,39,←,left,←,0.6146066002547741,True,17,-1,0,4
Y2-S2-044K25,8,685,PS,exp,47,↓,down,↓,0.8119051000103354,True,17,-1,0,4
Y2-S2-044K25,8,686,PS,exp,34,←,left,←,0.5638875998556614,True,17,1,1,5
Y2-S2-044K25,8,687,PS,exp,35,↑,up,↑,0.4493737001903355,True,16,1,0,5
Y2-S2-044K25,8,688,PS,exp,49,↓,down,↓,1.2563911997713149,True,16,1,0,5
Y2-S2-044K25,8,689,PS,exp,30,↑,up,↑,0.4668660997413099,True,16,1,0,5
Y2-S2-044K25,8,690,PS,exp,37,→,right,→,0.4544381997548044,True,15,1,0,5
Y2-S2-044K25,8,691,PS,exp,31,↓,right,→,0.755731999874115,False,15,-1,1,6
Y2-S2-044K25,8,692,PS,exp,39,←,left,←,0.4382214001379907,True,16,-1,0,6
Y2-S2-044K25,8,693,PS,exp,47,→,left,←,0.6747314003296196,False,16,-1,0,6
Y2-S2-044K25,8,694,PS,exp,29,←,left,←,0.3670407999306917,True,17,-1,0,6
Y2-S2-044K25,8,695,PS,exp,44,↓,right,→,0.4933585999533534,False,17,-1,0,6
Y2-S2-044K25,8,696,PS,exp,49,→,right,→,0.6749839000403881,True,18,-1,0,6
Y2-S2-044K25,8,697,PS,exp,33,←,right,→,0.5541946003213525,False,18,-1,0,6
Y2-S2-044K25,8,698,PS,exp,43,↑,up,↑,0.4340802999213338,True,19,-1,0,6
Y2-S2-044K25,8,699,PS,exp,37,↓,down,↓,0.6705531999468803,True,19,-1,0,6
Y2-S2-044K25,8,700,PS,exp,35,↑,up,↑,0.45045730005949736,True,19,1,1,7
Y2-S2-044K25,8,701,PS,exp,47,↓,right,→,0.8925475999712944,False,18,-1,1,8
Y2-S2-044K25,8,702,PS,exp,32,←,left,←,0.50152189983055,True,19,-1,0,8
Y2-S2-044K25,8,703,PS,exp,33,↓,down,↓,1.1340075000189245,True,19,-1,0,8
Y2-S2-044K25,8,704,PS,exp,27,→,right,→,0.45072140032425523,True,19,1,1,9
Y2-S2-044K25,8,705,PS,exp,45,↑,up,↑,0.47670200001448393,True,18,1,0,9
Y2-S2-044K25,8,706,PS,exp,42,↓,down,↓,0.7161325998604298,True,18,1,0,9
Y2-S2-044K25,8,707,PS,exp,34,←,left,←,0.5155596998520195,True,18,1,0,9
Y2-S2-044K25,8,708,PS,exp,32,↑,up,↑,0.40085679991170764,True,17,1,0,9
Y2-S2-044K25,8,709,PS,exp,46,→,right,→,1.3600867995992303,True,17,1,0,9
Y2-S2-044K25,8,710,PS,exp,32,↓,right,→,0.8144692997448146,False,17,-1,1,10
Y2-S2-044K25,8,711,PS,exp,34,↑,up,↑,0.4172292002476752,True,18,-1,0,10
Y2-S2-044K25,8,712,PS,exp,40,↓,down,↓,0.6633981000632048,True,18,-1,0,10
Y2-S2-044K25,8,713,PS,exp,29,←,left,←,0.587567999958992,True,18,1,1,11
Y2-S2-044K25,8,714,PS,exp,38,→,right,→,0.6575197000056505,True,17,1,0,11
Y2-S2-044K25,8,715,PS,exp,38,↑,up,↑,0.5755775002762675,True,17,1,0,11
Y2-S2-044K25,8,716,PS,exp,41,↓,down,↓,0.5471328003332019,True,17,1,0,11
Y2-S2-044K25,8,717,PS,exp,35,→,right,→,0.4352638004347682,True,16,1,0,11
Y2-S2-044K25,8,718,PS,exp,30,↑,left,←,0.6141673000529408,False,16,-1,1,12
Y2-S2-044K25,8,719,PS,exp,25,←,right,→,0.5998125998303294,False,17,-1,0,12
Y2-S2-044K25,8,720,PS,exp,43,↓,down,↓,0.4807560001499951,True,18,-1,0,12
Y2-S2-044K25,8,721,PS,exp,46,→,right,→,0.5715318997390568,True,18,-1,0,12
Y2-S2-044K25,8,722,PS,exp,45,←,left,←,0.5004125996492803,True,18,1,1,13
Y2-S2-044K25,8,723,PS,exp,29,↑,left,←,0.6917933002114296,False,17,-1,1,14
Y2-S2-044K25,8,724,PS,exp,50,↓,down,↓,0.49339530011639,True,18,-1,0,14
Y2-S2-044K25,8,725,PS,exp,42,↑,up,↑,0.4171234001405537,True,18,-1,0,14
Y2-S2-044K25,8,726,PS,exp,32,→,right,→,0.6444689002819359,True,18,1,1,15
Y2-S2-044K25,8,727,PS,exp,41,←,left,←,0.4740162002854049,True,17,1,0,15
Y2-S2-044K25,8,728,PS,exp,50,↑,up,↑,0.6266843001358211,True,17,1,0,15
Y2-S2-044K25,8,729,PS,exp,38,↓,down,↓,0.4004111001268029,True,17,1,0,15
Y2-S2-044K25,8,730,PS,exp,29,→,left,←,0.5353384995833039,False,16,-1,1,16
