PART_ID,Block_no,Trial_no,Block_type,Trial_type,CSI,Stim_letter,Key_pressed,letter_choose,Rt,Corr,Stimulus Time,Level,Reversal,Revs_count
Y2-S2-145K20,1,1,PS,train,35,↑,up,↑,1.2495560999959707,True,30,-,-,-
Y2-S2-145K20,1,2,PS,train,32,←,left,←,0.8243013001047075,True,30,-,-,-
Y2-S2-145K20,1,3,PS,train,34,→,right,→,0.5169800999574363,True,30,-,-,-
Y2-S2-145K20,1,4,PS,train,36,↓,down,↓,0.7708792998455465,True,30,-,-,-
Y2-S2-145K20,1,5,PS,train,28,←,right,→,0.6881000995635986,False,30,-,-,-
Y2-S2-145K20,1,6,PS,train,49,↓,down,↓,0.6941474000923336,True,30,-,-,-
Y2-S2-145K20,1,7,PS,train,48,←,left,←,0.8192157000303268,True,30,-,-,-
Y2-S2-145K20,1,8,PS,train,50,↓,down,↓,0.4510643999092281,True,30,-,-,-
Y2-S2-145K20,1,9,PS,train,33,←,down,↓,1.1006377995945513,False,30,-,-,-
Y2-S2-145K20,1,10,PS,train,34,→,right,→,0.5173275000415742,True,30,-,-,-
Y2-S2-145K20,2,11,AS,train,48,↑,up,↑,0.7012539999559522,True,45,-,-,-
Y2-S2-145K20,2,12,AS,train,48,→,right,→,0.8173454999923706,True,45,-,-,-
Y2-S2-145K20,2,13,AS,train,44,↑,up,↑,0.8670362001284957,True,45,-,-,-
Y2-S2-145K20,2,14,AS,train,31,←,left,←,1.0693175997585058,True,45,-,-,-
Y2-S2-145K20,2,15,AS,train,47,→,right,→,0.7675205999985337,True,45,-,-,-
Y2-S2-145K20,2,16,AS,train,26,←,left,←,0.7837910000234842,True,45,-,-,-
Y2-S2-145K20,2,17,AS,train,49,↑,up,↑,0.650993200019002,True,45,-,-,-
Y2-S2-145K20,2,18,AS,train,49,↓,down,↓,2.402924900408834,True,45,-,-,-
Y2-S2-145K20,2,19,AS,train,39,→,right,→,0.8339569997042418,True,45,-,-,-
Y2-S2-145K20,2,20,AS,train,40,←,left,←,1.0823631999082863,True,45,-,-,-
Y2-S2-145K20,-,21,PS,adaptive,30,↑,up,↑,0.7414388000033796,True,10,0,0,0
Y2-S2-145K20,-,22,PS,adaptive,27,→,down,↓,0.9070370001718402,False,10,-1,0,0
Y2-S2-145K20,-,23,PS,adaptive,45,↑,up,↑,0.8111401000060141,True,11,-1,0,0
Y2-S2-145K20,-,24,PS,adaptive,34,→,left,←,0.8244578996673226,False,11,-1,0,0
Y2-S2-145K20,-,25,PS,adaptive,46,←,up,↑,1.1836557001806796,False,12,-1,0,0
Y2-S2-145K20,-,26,PS,adaptive,46,↓,down,↓,1.188720100093633,True,13,-1,0,0
Y2-S2-145K20,-,27,PS,adaptive,28,→,right,→,0.7202607998624444,True,13,-1,0,0
Y2-S2-145K20,-,28,PS,adaptive,37,↑,up,↑,0.6670425999909639,True,13,1,1,1
Y2-S2-145K20,-,29,PS,adaptive,49,→,right,→,0.5629282998852432,True,12,1,0,1
Y2-S2-145K20,-,30,PS,adaptive,28,↑,up,↑,0.646286700386554,True,12,1,0,1
Y2-S2-145K20,-,31,PS,adaptive,32,←,left,←,0.6548588997684419,True,12,1,0,1
Y2-S2-145K20,-,32,PS,adaptive,43,↓,down,↓,0.8210225999355316,True,11,1,0,1
Y2-S2-145K20,-,33,PS,adaptive,29,↑,up,↑,0.7237098999321461,True,11,1,0,1
Y2-S2-145K20,-,34,PS,adaptive,27,←,left,←,0.7073057000525296,True,11,1,0,1
Y2-S2-145K20,-,35,PS,adaptive,38,→,left,←,0.7319603003561497,False,10,-1,1,2
Y2-S2-145K20,-,36,PS,adaptive,44,←,up,↑,0.7603690000250936,False,11,-1,0,2
Y2-S2-145K20,-,37,PS,adaptive,26,↓,down,↓,0.7043540999293327,True,12,-1,0,2
Y2-S2-145K20,-,38,PS,adaptive,27,↑,up,↑,0.6346101998351514,True,12,-1,0,2
Y2-S2-145K20,-,39,PS,adaptive,45,←,left,←,0.6633322997950017,True,12,1,1,3
Y2-S2-145K20,-,40,PS,adaptive,29,→,down,↓,0.8211676999926567,False,11,-1,1,4
Y2-S2-145K20,-,41,AS,adaptive,29,↓,down,↓,0.9028206001967192,True,20,0,0,0
Y2-S2-145K20,-,42,AS,adaptive,49,↑,up,↑,0.6649325001053512,True,20,0,0,0
Y2-S2-145K20,-,43,AS,adaptive,48,←,left,←,0.7872033999301493,True,20,1,0,0
Y2-S2-145K20,-,44,AS,adaptive,45,→,right,→,0.7490354999899864,True,19,1,0,0
Y2-S2-145K20,-,45,AS,adaptive,30,↑,down,↓,0.9746126998215914,False,19,-1,1,1
Y2-S2-145K20,-,46,AS,adaptive,45,↓,down,↓,0.9293446000665426,True,20,-1,0,1
Y2-S2-145K20,-,47,AS,adaptive,45,↑,up,↑,0.9407711001113057,True,20,-1,0,1
Y2-S2-145K20,-,48,AS,adaptive,47,→,right,→,0.6595870000310242,True,20,1,1,2
Y2-S2-145K20,-,49,AS,adaptive,48,↓,down,↓,0.8007193002849817,True,19,1,0,2
Y2-S2-145K20,-,50,AS,adaptive,47,↑,down,↓,0.7740733004175127,False,19,-1,1,3
Y2-S2-145K20,-,51,AS,adaptive,42,↓,down,↓,1.0169297996908426,True,20,-1,0,3
Y2-S2-145K20,-,52,AS,adaptive,46,→,right,→,0.6767385001294315,True,20,-1,0,3
Y2-S2-145K20,-,53,AS,adaptive,26,←,left,←,0.9040346001274884,True,20,1,1,4
Y2-S2-145K20,1,54,PS,intra_train,34,↑,down,↓,0.8296362003311515,False,18,-,-,-
Y2-S2-145K20,1,55,PS,intra_train,48,→,right,→,0.6971920002251863,True,18,-,-,-
Y2-S2-145K20,1,56,PS,intra_train,48,↑,up,↑,0.7728657997213304,True,18,-,-,-
Y2-S2-145K20,1,57,PS,intra_train,29,↓,down,↓,0.7785399998538196,True,18,-,-,-
Y2-S2-145K20,1,58,PS,intra_train,29,↑,up,↑,0.7482741996645927,True,18,-,-,-
Y2-S2-145K20,1,59,PS,exp,39,↓,down,↓,0.7960065002553165,True,12,0,0,0
Y2-S2-145K20,1,60,PS,exp,41,→,right,→,0.6516232001595199,True,12,0,0,0
Y2-S2-145K20,1,61,PS,exp,48,←,left,←,0.7423757002688944,True,12,1,0,0
Y2-S2-145K20,1,62,PS,exp,50,→,right,→,0.7211859002709389,True,11,1,0,0
Y2-S2-145K20,1,63,PS,exp,47,←,right,→,0.7431824002414942,False,11,-1,1,1
Y2-S2-145K20,1,64,PS,exp,27,→,right,→,0.44010010035708547,True,12,-1,0,1
Y2-S2-145K20,1,65,PS,exp,29,←,left,←,0.7742193001322448,True,12,-1,0,1
Y2-S2-145K20,1,66,PS,exp,43,↓,left,←,0.8389245998114347,False,12,-1,0,1
Y2-S2-145K20,1,67,PS,exp,43,←,right,→,0.5322889997623861,False,13,-1,0,1
Y2-S2-145K20,1,68,PS,exp,36,↑,up,↑,0.8007350000552833,True,14,-1,0,1
Y2-S2-145K20,1,69,PS,exp,34,→,left,←,0.8249753001146019,False,14,-1,0,1
Y2-S2-145K20,1,70,PS,exp,42,←,left,←,0.509780999738723,True,15,-1,0,1
Y2-S2-145K20,1,71,PS,exp,46,↑,left,←,0.7909038001671433,False,15,-1,0,1
Y2-S2-145K20,1,72,PS,exp,32,←,left,←,0.9399987002834678,True,16,-1,0,1
Y2-S2-145K20,1,73,PS,exp,35,↓,down,↓,0.6547487997449934,True,16,-1,0,1
Y2-S2-145K20,1,74,PS,exp,41,↑,up,↑,0.7056778999976814,True,16,1,1,2
Y2-S2-145K20,1,75,PS,exp,26,←,left,←,0.6469319998286664,True,15,1,0,2
Y2-S2-145K20,1,76,PS,exp,30,↓,left,←,1.0079483999870718,False,15,-1,1,3
Y2-S2-145K20,1,77,PS,exp,48,←,left,←,0.7872484000399709,True,16,-1,0,3
Y2-S2-145K20,1,78,PS,exp,27,↓,down,↓,0.723717300221324,True,16,-1,0,3
Y2-S2-145K20,1,79,PS,exp,34,←,left,←,0.60983100021258,True,16,1,1,4
Y2-S2-145K20,1,80,PS,exp,34,↓,up,↑,0.8577857003547251,False,15,-1,1,5
Y2-S2-145K20,1,81,PS,exp,35,→,right,→,0.4928262000903487,True,16,-1,0,5
Y2-S2-145K20,1,82,PS,exp,44,↑,up,↑,0.8096068999730051,True,16,-1,0,5
Y2-S2-145K20,1,83,PS,exp,35,→,right,→,0.6976513997651637,True,16,1,1,6
Y2-S2-145K20,1,84,PS,exp,48,←,left,←,0.7581635997630656,True,15,1,0,6
Y2-S2-145K20,1,85,PS,exp,31,↓,right,→,0.7840289999730885,False,15,-1,1,7
Y2-S2-145K20,1,86,PS,exp,29,↑,up,↑,0.7165220999158919,True,16,-1,0,7
Y2-S2-145K20,1,87,PS,exp,35,→,left,←,0.5162702999077737,False,16,-1,0,7
Y2-S2-145K20,1,88,PS,exp,41,←,left,←,0.5956069999374449,True,17,-1,0,7
Y2-S2-145K20,1,89,PS,exp,35,↑,down,↓,1.2139065000228584,False,17,-1,0,7
Y2-S2-145K20,1,90,PS,exp,26,↓,left,←,0.7603825996629894,False,18,-1,0,7
Y2-S2-145K20,1,91,PS,exp,40,↑,up,↑,0.663627500180155,True,19,-1,0,7
Y2-S2-145K20,1,92,PS,exp,25,←,left,←,0.7677052998915315,True,19,-1,0,7
Y2-S2-145K20,1,93,PS,exp,35,↑,down,↓,0.5802780003286898,False,19,-1,0,7
Y2-S2-145K20,1,94,PS,exp,37,←,down,↓,1.1425632000900805,False,20,-1,0,7
Y2-S2-145K20,1,95,PS,exp,29,↓,down,↓,0.7837368999607861,True,21,-1,0,7
Y2-S2-145K20,1,96,PS,exp,46,→,right,→,0.7962461998686194,True,21,-1,0,7
Y2-S2-145K20,1,97,PS,exp,31,←,left,←,1.0233235997147858,True,21,1,1,8
Y2-S2-145K20,1,98,PS,exp,25,→,right,→,0.7799073001369834,True,20,1,0,8
Y2-S2-145K20,1,99,PS,exp,43,↓,down,↓,0.7173345000483096,True,20,1,0,8
Y2-S2-145K20,1,100,PS,exp,36,↑,up,↑,0.8288878002204001,True,20,1,0,8
Y2-S2-145K20,1,101,PS,exp,43,←,left,←,0.7042653998360038,True,19,1,0,8
Y2-S2-145K20,1,102,PS,exp,40,↑,up,↑,0.8856799001805484,True,19,1,0,8
Y2-S2-145K20,1,103,PS,exp,46,←,left,←,0.8054965999908745,True,19,1,0,8
Y2-S2-145K20,1,104,PS,exp,30,→,right,→,0.6351307001896203,True,18,1,0,8
Y2-S2-145K20,1,105,PS,exp,38,←,left,←,0.6453276998363435,True,18,1,0,8
Y2-S2-145K20,1,106,PS,exp,34,↑,up,↑,0.5718849999830127,True,18,1,0,8
Y2-S2-145K20,1,107,PS,exp,42,↓,up,↑,0.861886799801141,False,17,-1,1,9
Y2-S2-145K20,1,108,PS,exp,34,←,left,←,0.5960196000523865,True,18,-1,0,9
Y2-S2-145K20,1,109,PS,exp,29,↑,no_key,no_letter,-1.0,False,18,-1,0,9
Y2-S2-145K20,1,110,PS,exp,38,←,right,→,0.6853612000122666,False,19,-1,0,9
Y2-S2-145K20,1,111,PS,exp,34,→,right,→,0.6663764999248087,True,20,-1,0,9
Y2-S2-145K20,1,112,PS,exp,35,↓,left,←,0.9195709000341594,False,20,-1,0,9
Y2-S2-145K20,1,113,PS,exp,32,↑,up,↑,0.5641625002026558,True,21,-1,0,9
Y2-S2-145K20,1,114,PS,exp,39,↓,down,↓,1.2112456997856498,True,21,-1,0,9
Y2-S2-145K20,1,115,PS,exp,27,←,left,←,0.7430997001938522,True,21,1,1,10
Y2-S2-145K20,1,116,PS,exp,40,↓,down,↓,0.7520856996998191,True,20,1,0,10
Y2-S2-145K20,1,117,PS,exp,36,↑,down,↓,0.9249319001100957,False,20,-1,1,11
Y2-S2-145K20,1,118,PS,exp,25,→,right,→,0.672989500220865,True,21,-1,0,11
Y2-S2-145K20,1,119,PS,exp,37,↓,down,↓,0.7084908997640014,True,21,-1,0,11
Y2-S2-145K20,1,120,PS,exp,38,←,left,←,0.9132545003667474,True,21,1,1,12
Y2-S2-145K20,1,121,PS,exp,38,↓,up,↑,1.2255901000462472,False,20,-1,1,13
Y2-S2-145K20,1,122,PS,exp,45,↑,up,↑,0.7901272997260094,True,21,-1,0,13
Y2-S2-145K20,1,123,PS,exp,45,↓,up,↑,0.7773289000615478,False,21,-1,0,13
Y2-S2-145K20,1,124,PS,exp,34,↑,up,↑,1.3682447001338005,True,22,-1,0,13
Y2-S2-145K20,1,125,PS,exp,35,↓,no_key,no_letter,-1.0,False,22,-1,0,13
Y2-S2-145K20,1,126,PS,exp,43,↑,up,↑,0.8047524001449347,True,23,-1,0,13
Y2-S2-145K20,1,127,PS,exp,50,↓,down,↓,0.7237519999034703,True,23,-1,0,13
Y2-S2-145K20,1,128,PS,exp,47,←,left,←,0.5882802996784449,True,23,1,1,14
Y2-S2-145K20,1,129,PS,exp,48,↑,up,↑,0.8779945001006126,True,22,1,0,14
Y2-S2-145K20,1,130,PS,exp,31,←,up,↑,1.45311569981277,False,22,-1,1,15
Y2-S2-145K20,1,131,PS,exp,46,↑,right,→,0.367178900167346,False,23,-1,0,15
Y2-S2-145K20,1,132,PS,exp,29,→,right,→,0.7158854003064334,True,24,-1,0,15
Y2-S2-145K20,1,133,PS,exp,31,↓,down,↓,0.730443200096488,True,24,-1,0,15
Y2-S2-145K20,1,134,PS,exp,47,→,right,→,0.8785494999028742,True,24,1,1,16
Y2-S2-145K20,2,135,AS,intra_train,32,←,left,←,1.3627854003570974,True,28,-,-,-
Y2-S2-145K20,2,136,AS,intra_train,26,→,right,→,0.6879237000830472,True,28,-,-,-
Y2-S2-145K20,2,137,AS,intra_train,28,↓,down,↓,0.9283850998617709,True,28,-,-,-
Y2-S2-145K20,2,138,AS,intra_train,26,→,down,↓,0.5174512001685798,False,28,-,-,-
Y2-S2-145K20,2,139,AS,intra_train,25,←,left,←,0.8977828999049962,True,28,-,-,-
Y2-S2-145K20,2,140,AS,exp,35,↑,left,←,0.7119634998962283,False,19,-1,0,0
Y2-S2-145K20,2,141,AS,exp,36,→,right,→,0.5294464002363384,True,20,-1,0,0
Y2-S2-145K20,2,142,AS,exp,40,↑,up,↑,0.91845089988783,True,20,-1,0,0
Y2-S2-145K20,2,143,AS,exp,30,←,no_key,no_letter,-1.0,False,20,-1,0,0
Y2-S2-145K20,2,144,AS,exp,32,→,right,→,0.8120984002016485,True,21,-1,0,0
Y2-S2-145K20,2,145,AS,exp,32,←,left,←,0.6492797001264989,True,21,-1,0,0
Y2-S2-145K20,2,146,AS,exp,33,→,up,↑,1.1790029997937381,False,21,-1,0,0
Y2-S2-145K20,2,147,AS,exp,45,↓,down,↓,0.7139329998753965,True,22,-1,0,0
Y2-S2-145K20,2,148,AS,exp,43,→,right,→,1.0202770000323653,True,22,-1,0,0
Y2-S2-145K20,2,149,AS,exp,28,←,left,←,0.7920293998904526,True,22,1,1,1
Y2-S2-145K20,2,150,AS,exp,41,↑,up,↑,0.9184373999014497,True,21,1,0,1
Y2-S2-145K20,2,151,AS,exp,30,←,left,←,0.8661826001480222,True,21,1,0,1
Y2-S2-145K20,2,152,AS,exp,33,↓,down,↓,0.6851658001542091,True,21,1,0,1
Y2-S2-145K20,2,153,AS,exp,49,→,right,→,0.5225304998457432,True,20,1,0,1
Y2-S2-145K20,2,154,AS,exp,50,←,left,←,0.8123868000693619,True,20,1,0,1
Y2-S2-145K20,2,155,AS,exp,38,↓,down,↓,0.8599322997033596,True,20,1,0,1
Y2-S2-145K20,2,156,AS,exp,33,→,right,→,0.7104555000551045,True,19,1,0,1
Y2-S2-145K20,2,157,AS,exp,45,↑,down,↓,0.926727999933064,False,19,-1,1,2
Y2-S2-145K20,2,158,AS,exp,37,→,right,→,0.9548278995789587,True,20,-1,0,2
Y2-S2-145K20,2,159,AS,exp,49,↑,up,↑,0.8553185001946986,True,20,-1,0,2
Y2-S2-145K20,2,160,AS,exp,27,←,left,←,1.1172514003701508,True,20,1,1,3
Y2-S2-145K20,2,161,AS,exp,38,↑,up,↑,1.5331584997475147,True,19,1,0,3
Y2-S2-145K20,2,162,AS,exp,45,←,right,→,1.0703340000472963,False,19,-1,1,4
Y2-S2-145K20,2,163,AS,exp,35,↑,no_key,no_letter,-1.0,False,20,-1,0,4
Y2-S2-145K20,2,164,AS,exp,40,→,up,↑,0.8448459999635816,False,21,-1,0,4
Y2-S2-145K20,2,165,AS,exp,25,↑,up,↑,0.8564741001464427,True,22,-1,0,4
Y2-S2-145K20,2,166,AS,exp,47,↓,down,↓,0.7523765997029841,True,22,-1,0,4
Y2-S2-145K20,2,167,AS,exp,29,→,right,→,0.8985835998319089,True,22,1,1,5
Y2-S2-145K20,2,168,AS,exp,46,↓,down,↓,0.48380499985069036,True,21,1,0,5
Y2-S2-145K20,2,169,AS,exp,49,↑,up,↑,0.7544244001619518,True,21,1,0,5
Y2-S2-145K20,2,170,AS,exp,32,→,right,→,0.5274745998904109,True,21,1,0,5
Y2-S2-145K20,2,171,AS,exp,42,↑,up,↑,0.6799510000273585,True,20,1,0,5
Y2-S2-145K20,2,172,AS,exp,47,→,right,→,0.5868787001818419,True,20,1,0,5
Y2-S2-145K20,2,173,AS,exp,28,↑,up,↑,0.6054434003308415,True,20,1,0,5
Y2-S2-145K20,2,174,AS,exp,48,↓,down,↓,0.6257726000621915,True,19,1,0,5
Y2-S2-145K20,2,175,AS,exp,37,←,right,→,0.9496174999512732,False,19,-1,1,6
Y2-S2-145K20,2,176,AS,exp,28,↓,no_key,no_letter,-1.0,False,20,-1,0,6
Y2-S2-145K20,2,177,AS,exp,41,←,down,↓,0.8932730001397431,False,21,-1,0,6
Y2-S2-145K20,2,178,AS,exp,42,↓,down,↓,0.603439699858427,True,22,-1,0,6
Y2-S2-145K20,2,179,AS,exp,41,→,right,→,0.7939074002206326,True,22,-1,0,6
Y2-S2-145K20,2,180,AS,exp,36,↓,down,↓,0.6197418998926878,True,22,1,1,7
Y2-S2-145K20,2,181,AS,exp,42,←,left,←,0.5737894997000694,True,21,1,0,7
Y2-S2-145K20,2,182,AS,exp,44,→,right,→,0.8212691000662744,True,21,1,0,7
Y2-S2-145K20,2,183,AS,exp,40,←,left,←,0.7111170999705791,True,21,1,0,7
Y2-S2-145K20,2,184,AS,exp,28,↑,up,↑,0.5035850000567734,True,20,1,0,7
Y2-S2-145K20,2,185,AS,exp,35,←,left,←,0.5221054996363819,True,20,1,0,7
Y2-S2-145K20,2,186,AS,exp,43,↓,right,→,0.6499032001011074,False,20,-1,1,8
Y2-S2-145K20,2,187,AS,exp,25,←,left,←,0.8817747998982668,True,21,-1,0,8
Y2-S2-145K20,2,188,AS,exp,34,↑,up,↑,1.0160012003034353,True,21,-1,0,8
Y2-S2-145K20,2,189,AS,exp,31,→,right,→,0.6951804999262094,True,21,1,1,9
Y2-S2-145K20,2,190,AS,exp,44,←,left,←,0.8943308000452816,True,20,1,0,9
Y2-S2-145K20,2,191,AS,exp,25,↓,down,↓,1.2434752997942269,True,20,1,0,9
Y2-S2-145K20,2,192,AS,exp,28,→,right,→,0.7021981999278069,True,20,1,0,9
Y2-S2-145K20,2,193,AS,exp,35,↑,up,↑,0.7944308002479374,True,19,1,0,9
Y2-S2-145K20,2,194,AS,exp,29,←,left,←,0.8174756001681089,True,19,1,0,9
Y2-S2-145K20,2,195,AS,exp,48,→,right,→,0.7028863001614809,True,19,1,0,9
Y2-S2-145K20,2,196,AS,exp,38,↓,down,↓,0.9005435998551548,True,18,1,0,9
Y2-S2-145K20,2,197,AS,exp,34,←,left,←,1.173216300085187,True,18,1,0,9
Y2-S2-145K20,2,198,AS,exp,40,→,right,→,0.561931099742651,True,18,1,0,9
Y2-S2-145K20,2,199,AS,exp,34,↑,up,↑,0.5953351999633014,True,17,1,0,9
Y2-S2-145K20,2,200,AS,exp,27,↓,down,↓,0.802612999919802,True,17,1,0,9
Y2-S2-145K20,2,201,AS,exp,38,←,left,←,0.7820071997120976,True,17,1,0,9
Y2-S2-145K20,2,202,AS,exp,50,↑,right,→,0.9722571996971965,False,16,-1,1,10
Y2-S2-145K20,2,203,AS,exp,45,→,down,↓,1.1505105001851916,False,17,-1,0,10
Y2-S2-145K20,2,204,AS,exp,36,←,right,→,0.9440817995928228,False,18,-1,0,10
Y2-S2-145K20,2,205,AS,exp,35,→,right,→,0.690090199932456,True,19,-1,0,10
Y2-S2-145K20,2,206,AS,exp,30,↑,right,→,1.2456396999768913,False,19,-1,0,10
Y2-S2-145K20,2,207,AS,exp,43,↓,down,↓,0.8885130998678505,True,20,-1,0,10
Y2-S2-145K20,2,208,AS,exp,33,↑,up,↑,0.7374184997752309,True,20,-1,0,10
Y2-S2-145K20,2,209,AS,exp,49,→,no_key,no_letter,-1.0,False,20,-1,0,10
Y2-S2-145K20,2,210,AS,exp,46,↓,down,↓,0.6560664996504784,True,21,-1,0,10
Y2-S2-145K20,2,211,AS,exp,32,→,no_key,no_letter,-1.0,False,21,-1,0,10
Y2-S2-145K20,2,212,AS,exp,28,↓,down,↓,0.6526321000419557,True,22,-1,0,10
Y2-S2-145K20,2,213,AS,exp,26,↑,down,↓,0.8418915998190641,False,22,-1,0,10
Y2-S2-145K20,2,214,AS,exp,38,→,right,→,0.560011800378561,True,23,-1,0,10
Y2-S2-145K20,2,215,AS,exp,38,↓,down,↓,0.7591452999040484,True,23,-1,0,10
Y2-S2-145K20,2,216,AS,exp,29,←,left,←,1.0436555999331176,True,23,1,1,11
Y2-S2-145K20,2,217,AS,exp,31,→,right,→,0.5537179000675678,True,22,1,0,11
Y2-S2-145K20,2,218,AS,exp,49,←,left,←,0.759258400183171,True,22,1,0,11
Y2-S2-145K20,2,219,AS,exp,43,↑,up,↑,0.596337600145489,True,22,1,0,11
Y2-S2-145K20,2,220,AS,exp,45,→,right,→,0.5771365002728999,True,21,1,0,11
Y2-S2-145K20,2,221,AS,exp,40,←,left,←,1.7942168000154197,True,21,1,0,11
Y2-S2-145K20,2,222,AS,exp,31,→,right,→,0.7284232000820339,True,21,1,0,11
Y2-S2-145K20,2,223,AS,exp,40,↑,up,↑,1.051556000020355,True,20,1,0,11
Y2-S2-145K20,2,224,AS,exp,47,→,right,→,0.4502746998332441,True,20,1,0,11
Y2-S2-145K20,2,225,AS,exp,32,←,left,←,0.8150132996961474,True,20,1,0,11
Y2-S2-145K20,2,226,AS,exp,40,↓,down,↓,0.8689500000327826,True,19,1,0,11
Y2-S2-145K20,2,227,AS,exp,45,↑,up,↑,1.1226478000171483,True,19,1,0,11
Y2-S2-145K20,2,228,AS,exp,49,←,left,←,0.6362054999917746,True,19,1,0,11
Y2-S2-145K20,2,229,AS,exp,29,↓,right,→,1.2153725000098348,False,18,-1,1,12
Y2-S2-145K20,2,230,AS,exp,44,←,no_key,no_letter,-1.0,False,19,-1,0,12
Y2-S2-145K20,2,231,AS,exp,27,→,right,→,0.5208128998056054,True,20,-1,0,12
Y2-S2-145K20,2,232,AS,exp,32,↑,up,↑,0.8392504998482764,True,20,-1,0,12
Y2-S2-145K20,2,233,AS,exp,50,←,left,←,0.8256983999162912,True,20,1,1,13
Y2-S2-145K20,2,234,AS,exp,46,↑,up,↑,0.4504851996898651,True,19,1,0,13
Y2-S2-145K20,2,235,AS,exp,30,→,right,→,0.5866076000966132,True,19,1,0,13
Y2-S2-145K20,2,236,AS,exp,48,↑,up,↑,0.5396607997827232,True,19,1,0,13
Y2-S2-145K20,2,237,AS,exp,37,→,right,→,0.5323656001128256,True,18,1,0,13
Y2-S2-145K20,2,238,AS,exp,48,↓,right,→,0.6875049001537263,False,18,-1,1,14
Y2-S2-145K20,2,239,AS,exp,32,→,up,↑,0.7694300003349781,False,19,-1,0,14
Y2-S2-145K20,2,240,AS,exp,38,←,left,←,0.817133900243789,True,20,-1,0,14
Y2-S2-145K20,2,241,AS,exp,38,↓,down,↓,0.7199960998259485,True,20,-1,0,14
Y2-S2-145K20,2,242,AS,exp,30,←,left,←,0.5281532001681626,True,20,1,1,15
Y2-S2-145K20,2,243,AS,exp,33,→,right,→,0.6530704996548593,True,19,1,0,15
Y2-S2-145K20,2,244,AS,exp,38,↑,up,↑,0.7476886999793351,True,19,1,0,15
Y2-S2-145K20,2,245,AS,exp,25,←,left,←,0.5638803001493216,True,19,1,0,15
Y2-S2-145K20,2,246,AS,exp,45,↑,no_key,no_letter,-1.0,False,18,-1,1,16
Y2-S2-145K20,3,247,AS,intra_train,45,↓,down,↓,1.0622666999697685,True,28,-,-,-
Y2-S2-145K20,3,248,AS,intra_train,50,←,left,←,0.6945644998922944,True,28,-,-,-
Y2-S2-145K20,3,249,AS,intra_train,46,→,right,→,0.5505574997514486,True,28,-,-,-
Y2-S2-145K20,3,250,AS,intra_train,25,↓,down,↓,0.6753658000379801,True,28,-,-,-
Y2-S2-145K20,3,251,AS,intra_train,44,←,left,←,0.5671060997992754,True,28,-,-,-
Y2-S2-145K20,3,252,AS,exp,39,→,right,→,0.38417809968814254,True,19,0,0,0
Y2-S2-145K20,3,253,AS,exp,41,↑,down,↓,0.9118637000210583,False,19,-1,0,0
Y2-S2-145K20,3,254,AS,exp,50,→,right,→,0.7739208000712097,True,20,-1,0,0
Y2-S2-145K20,3,255,AS,exp,31,←,left,←,0.7323552998714149,True,20,-1,0,0
Y2-S2-145K20,3,256,AS,exp,40,↓,down,↓,0.367170600220561,True,20,1,1,1
Y2-S2-145K20,3,257,AS,exp,40,↑,down,↓,0.7796511999331415,False,19,-1,1,2
Y2-S2-145K20,3,258,AS,exp,34,←,left,←,0.4510320997796953,True,20,-1,0,2
Y2-S2-145K20,3,259,AS,exp,41,→,right,→,0.45063279988244176,True,20,-1,0,2
Y2-S2-145K20,3,260,AS,exp,28,↑,up,↑,0.6602451000362635,True,20,1,1,3
Y2-S2-145K20,3,261,AS,exp,36,→,up,↑,1.0700738998129964,False,19,-1,1,4
Y2-S2-145K20,3,262,AS,exp,46,↑,down,↓,0.7952916999347508,False,20,-1,0,4
Y2-S2-145K20,3,263,AS,exp,47,↓,down,↓,0.7195378001779318,True,21,-1,0,4
Y2-S2-145K20,3,264,AS,exp,38,↑,up,↑,0.714035099837929,True,21,-1,0,4
Y2-S2-145K20,3,265,AS,exp,32,↓,down,↓,0.7066903999075294,True,21,1,1,5
Y2-S2-145K20,3,266,AS,exp,47,↑,up,↑,1.0332139004021883,True,20,1,0,5
Y2-S2-145K20,3,267,AS,exp,44,↓,down,↓,1.1076148999854922,True,20,1,0,5
Y2-S2-145K20,3,268,AS,exp,32,←,no_key,no_letter,-1.0,False,20,-1,1,6
Y2-S2-145K20,3,269,AS,exp,47,→,right,→,0.6626739003695548,True,21,-1,0,6
Y2-S2-145K20,3,270,AS,exp,39,↓,down,↓,0.7287846999242902,True,21,-1,0,6
Y2-S2-145K20,3,271,AS,exp,38,←,left,←,0.627791800070554,True,21,1,1,7
Y2-S2-145K20,3,272,AS,exp,33,↑,up,↑,1.3584455996751785,True,20,1,0,7
Y2-S2-145K20,3,273,AS,exp,42,↓,down,↓,0.7491514999419451,True,20,1,0,7
Y2-S2-145K20,3,274,AS,exp,30,←,down,↓,1.5674954000860453,False,20,-1,1,8
Y2-S2-145K20,3,275,AS,exp,36,↓,right,→,0.6750840996392071,False,21,-1,0,8
Y2-S2-145K20,3,276,AS,exp,32,→,right,→,0.6467881998978555,True,22,-1,0,8
Y2-S2-145K20,3,277,AS,exp,45,↓,down,↓,0.5720253996551037,True,22,-1,0,8
Y2-S2-145K20,3,278,AS,exp,27,↑,up,↑,1.371550700161606,True,22,1,1,9
Y2-S2-145K20,3,279,AS,exp,46,→,right,→,0.8091257000342011,True,21,1,0,9
Y2-S2-145K20,3,280,AS,exp,30,↑,up,↑,0.7583277001976967,True,21,1,0,9
Y2-S2-145K20,3,281,AS,exp,30,→,right,→,0.6564895999617875,True,21,1,0,9
Y2-S2-145K20,3,282,AS,exp,46,↓,no_key,no_letter,-1.0,False,20,-1,1,10
Y2-S2-145K20,3,283,AS,exp,35,↑,up,↑,0.6598184001632035,True,21,-1,0,10
Y2-S2-145K20,3,284,AS,exp,27,→,right,→,0.4671624000184238,True,21,-1,0,10
Y2-S2-145K20,3,285,AS,exp,34,←,right,→,0.7868520999327302,False,21,-1,0,10
Y2-S2-145K20,3,286,AS,exp,26,↑,no_key,no_letter,-1.0,False,22,-1,0,10
Y2-S2-145K20,3,287,AS,exp,46,→,right,→,1.1880983002483845,True,23,-1,0,10
Y2-S2-145K20,3,288,AS,exp,35,↓,down,↓,1.5337839997373521,True,23,-1,0,10
Y2-S2-145K20,3,289,AS,exp,48,↑,up,↑,0.887024600058794,True,23,1,1,11
Y2-S2-145K20,3,290,AS,exp,39,→,right,→,0.6773612000979483,True,22,1,0,11
Y2-S2-145K20,3,291,AS,exp,26,↓,down,↓,1.1698714001104236,True,22,1,0,11
Y2-S2-145K20,3,292,AS,exp,39,→,right,→,0.575210599694401,True,22,1,0,11
Y2-S2-145K20,3,293,AS,exp,45,←,left,←,0.6743986997753382,True,21,1,0,11
Y2-S2-145K20,3,294,AS,exp,27,↑,up,↑,0.7586624999530613,True,21,1,0,11
Y2-S2-145K20,3,295,AS,exp,32,↓,down,↓,0.7643018998205662,True,21,1,0,11
Y2-S2-145K20,3,296,AS,exp,45,←,right,→,0.6054992000572383,False,20,-1,1,12
Y2-S2-145K20,3,297,AS,exp,26,→,right,→,0.8743672003038228,True,21,-1,0,12
Y2-S2-145K20,3,298,AS,exp,49,←,left,←,0.6233028001151979,True,21,-1,0,12
Y2-S2-145K20,3,299,AS,exp,46,↓,down,↓,0.9292582999914885,True,21,1,1,13
Y2-S2-145K20,3,300,AS,exp,48,→,right,→,0.77981650037691,True,20,1,0,13
Y2-S2-145K20,3,301,AS,exp,29,↓,no_key,no_letter,-1.0,False,20,-1,1,14
Y2-S2-145K20,3,302,AS,exp,32,→,right,→,0.5541611998341978,True,21,-1,0,14
Y2-S2-145K20,3,303,AS,exp,45,←,left,←,1.403361499775201,True,21,-1,0,14
Y2-S2-145K20,3,304,AS,exp,38,→,left,←,1.0194691000506282,False,21,-1,0,14
Y2-S2-145K20,3,305,AS,exp,45,↓,down,↓,0.912565500009805,True,22,-1,0,14
Y2-S2-145K20,3,306,AS,exp,48,↑,up,↑,0.758858600165695,True,22,-1,0,14
Y2-S2-145K20,3,307,AS,exp,38,→,right,→,0.45085779996588826,True,22,1,1,15
Y2-S2-145K20,3,308,AS,exp,40,↓,down,↓,0.554893400054425,True,21,1,0,15
Y2-S2-145K20,3,309,AS,exp,29,→,right,→,0.9997765999287367,True,21,1,0,15
Y2-S2-145K20,3,310,AS,exp,48,↑,down,↓,0.7278731996193528,False,21,-1,1,16
Y2-S2-145K20,4,311,PS,intra_train,48,↓,down,↓,0.5792614999227226,True,18,-,-,-
Y2-S2-145K20,4,312,PS,intra_train,50,→,right,→,0.9194098999723792,True,18,-,-,-
Y2-S2-145K20,4,313,PS,intra_train,31,←,up,↑,0.8022186998277903,False,18,-,-,-
Y2-S2-145K20,4,314,PS,intra_train,44,↑,up,↑,0.6831340999342501,True,18,-,-,-
Y2-S2-145K20,4,315,PS,intra_train,42,→,down,↓,0.7811302999034524,False,18,-,-,-
Y2-S2-145K20,4,316,PS,exp,38,↓,down,↓,0.6147282999008894,True,12,0,0,0
Y2-S2-145K20,4,317,PS,exp,42,↑,down,↓,0.8249368998222053,False,12,-1,0,0
Y2-S2-145K20,4,318,PS,exp,36,↓,right,→,1.645532499998808,False,13,-1,0,0
Y2-S2-145K20,4,319,PS,exp,26,←,left,←,1.188894999679178,True,14,-1,0,0
Y2-S2-145K20,4,320,PS,exp,46,→,right,→,1.0100445998832583,True,14,-1,0,0
Y2-S2-145K20,4,321,PS,exp,42,↓,down,↓,0.6797258001752198,True,14,1,1,1
Y2-S2-145K20,4,322,PS,exp,44,→,right,→,0.9781754999421537,True,13,1,0,1
Y2-S2-145K20,4,323,PS,exp,37,↓,down,↓,0.5023028999567032,True,13,1,0,1
Y2-S2-145K20,4,324,PS,exp,34,→,down,↓,0.6911936001852155,False,13,-1,1,2
Y2-S2-145K20,4,325,PS,exp,27,↓,up,↑,0.4230324001982808,False,14,-1,0,2
Y2-S2-145K20,4,326,PS,exp,26,←,no_key,no_letter,-1.0,False,15,-1,0,2
Y2-S2-145K20,4,327,PS,exp,41,→,down,↓,0.772284799721092,False,16,-1,0,2
Y2-S2-145K20,4,328,PS,exp,39,↓,down,↓,0.7937276000156999,True,17,-1,0,2
Y2-S2-145K20,4,329,PS,exp,34,←,up,↑,0.6837653997354209,False,17,-1,0,2
Y2-S2-145K20,4,330,PS,exp,35,→,right,→,0.983237000182271,True,18,-1,0,2
Y2-S2-145K20,4,331,PS,exp,44,←,left,←,0.9848861000500619,True,18,-1,0,2
Y2-S2-145K20,4,332,PS,exp,42,↑,up,↑,0.4339674999937415,True,18,1,1,3
Y2-S2-145K20,4,333,PS,exp,34,→,right,→,0.7696953997947276,True,17,1,0,3
Y2-S2-145K20,4,334,PS,exp,25,←,left,←,0.9394400999881327,True,17,1,0,3
Y2-S2-145K20,4,335,PS,exp,27,→,down,↓,0.6180648999288678,False,17,-1,1,4
Y2-S2-145K20,4,336,PS,exp,25,↑,right,→,0.49285800009965897,False,18,-1,0,4
Y2-S2-145K20,4,337,PS,exp,31,↓,up,↑,0.5168639998883009,False,19,-1,0,4
Y2-S2-145K20,4,338,PS,exp,28,↑,right,→,0.43408739985898137,False,20,-1,0,4
Y2-S2-145K20,4,339,PS,exp,49,→,right,→,0.7974554002285004,True,21,-1,0,4
Y2-S2-145K20,4,340,PS,exp,50,↑,right,→,0.45011610025539994,False,21,-1,0,4
Y2-S2-145K20,4,341,PS,exp,29,↓,down,↓,0.7645183000713587,True,22,-1,0,4
Y2-S2-145K20,4,342,PS,exp,28,←,left,←,0.7483171001076698,True,22,-1,0,4
Y2-S2-145K20,4,343,PS,exp,39,↓,down,↓,0.6934228003956378,True,22,1,1,5
Y2-S2-145K20,4,344,PS,exp,49,←,left,←,0.6583047998137772,True,21,1,0,5
Y2-S2-145K20,4,345,PS,exp,33,→,right,→,0.5974063002504408,True,21,1,0,5
Y2-S2-145K20,4,346,PS,exp,37,↑,no_key,no_letter,-1.0,False,21,-1,1,6
Y2-S2-145K20,4,347,PS,exp,43,←,left,←,0.6404213001951575,True,22,-1,0,6
Y2-S2-145K20,4,348,PS,exp,39,↑,up,↑,0.6771233999170363,True,22,-1,0,6
Y2-S2-145K20,4,349,PS,exp,45,←,up,↑,0.7221554997377098,False,22,-1,0,6
Y2-S2-145K20,4,350,PS,exp,29,→,right,→,0.6717107999138534,True,23,-1,0,6
Y2-S2-145K20,4,351,PS,exp,47,↑,up,↑,0.40064070001244545,True,23,-1,0,6
Y2-S2-145K20,4,352,PS,exp,26,→,right,→,0.41773009998723865,True,23,1,1,7
Y2-S2-145K20,4,353,PS,exp,35,↑,up,↑,0.6283518997952342,True,22,1,0,7
Y2-S2-145K20,4,354,PS,exp,41,↓,up,↑,0.5944059998728335,False,22,-1,1,8
Y2-S2-145K20,4,355,PS,exp,26,↑,up,↑,0.5950329001061618,True,23,-1,0,8
Y2-S2-145K20,4,356,PS,exp,28,↓,down,↓,0.7828007000498474,True,23,-1,0,8
Y2-S2-145K20,4,357,PS,exp,35,←,left,←,0.5948060001246631,True,23,1,1,9
Y2-S2-145K20,4,358,PS,exp,33,→,right,→,1.0836804998107255,True,22,1,0,9
Y2-S2-145K20,4,359,PS,exp,48,←,left,←,0.9745511999353766,True,22,1,0,9
Y2-S2-145K20,4,360,PS,exp,47,↓,down,↓,0.5881996001116931,True,22,1,0,9
Y2-S2-145K20,4,361,PS,exp,31,←,left,←,0.604268700350076,True,21,1,0,9
Y2-S2-145K20,4,362,PS,exp,42,→,right,→,0.5479226000607014,True,21,1,0,9
Y2-S2-145K20,4,363,PS,exp,45,↓,down,↓,0.41725699976086617,True,21,1,0,9
Y2-S2-145K20,4,364,PS,exp,40,↑,down,↓,1.708693000022322,False,20,-1,1,10
Y2-S2-145K20,4,365,PS,exp,36,←,left,←,0.6681205998174846,True,21,-1,0,10
Y2-S2-145K20,4,366,PS,exp,42,→,right,→,1.0280559998936951,True,21,-1,0,10
Y2-S2-145K20,4,367,PS,exp,26,←,left,←,0.958256599958986,True,21,1,1,11
Y2-S2-145K20,4,368,PS,exp,48,↑,down,↓,1.091157800052315,False,20,-1,1,12
Y2-S2-145K20,4,369,PS,exp,48,←,left,←,0.7688232995569706,True,21,-1,0,12
Y2-S2-145K20,4,370,PS,exp,39,↑,up,↑,0.6255620997399092,True,21,-1,0,12
Y2-S2-145K20,4,371,PS,exp,45,→,right,→,0.5787684000097215,True,21,1,1,13
Y2-S2-145K20,4,372,PS,exp,39,←,down,↓,1.0564930997788906,False,20,-1,1,14
Y2-S2-145K20,4,373,PS,exp,48,↓,right,→,0.752624399960041,False,21,-1,0,14
Y2-S2-145K20,4,374,PS,exp,43,→,left,←,0.6478226999752223,False,22,-1,0,14
Y2-S2-145K20,4,375,PS,exp,27,↑,up,↑,0.6862669000402093,True,23,-1,0,14
Y2-S2-145K20,4,376,PS,exp,46,→,down,↓,0.8730902001261711,False,23,-1,0,14
Y2-S2-145K20,4,377,PS,exp,41,↑,up,↑,1.666384999640286,True,24,-1,0,14
Y2-S2-145K20,4,378,PS,exp,48,↓,down,↓,0.8756262003444135,True,24,-1,0,14
Y2-S2-145K20,4,379,PS,exp,29,→,right,→,1.2197354999370873,True,24,1,1,15
Y2-S2-145K20,4,380,PS,exp,32,↓,down,↓,0.48448319965973496,True,23,1,0,15
Y2-S2-145K20,4,381,PS,exp,30,→,right,→,0.6061366000212729,True,23,1,0,15
Y2-S2-145K20,4,382,PS,exp,46,←,left,←,0.6012609000317752,True,23,1,0,15
Y2-S2-145K20,4,383,PS,exp,48,↓,up,↑,1.1799392998218536,False,22,-1,1,16
Y2-S2-145K20,5,384,PS,intra_train,40,←,down,↓,0.852422199677676,False,18,-,-,-
Y2-S2-145K20,5,385,PS,intra_train,50,↓,down,↓,0.6396939000114799,True,18,-,-,-
Y2-S2-145K20,5,386,PS,intra_train,36,←,left,←,0.5531208999454975,True,18,-,-,-
Y2-S2-145K20,5,387,PS,intra_train,49,↓,down,↓,0.9882487002760172,True,18,-,-,-
Y2-S2-145K20,5,388,PS,intra_train,40,→,down,↓,0.4006495997309685,False,18,-,-,-
Y2-S2-145K20,5,389,PS,exp,50,↑,left,←,0.8933206000365317,False,12,-1,0,0
Y2-S2-145K20,5,390,PS,exp,40,←,left,←,0.6388825997710228,True,13,-1,0,0
Y2-S2-145K20,5,391,PS,exp,27,↓,down,↓,0.808302900288254,True,13,-1,0,0
Y2-S2-145K20,5,392,PS,exp,39,↑,up,↑,0.5070008002221584,True,13,1,1,1
Y2-S2-145K20,5,393,PS,exp,41,←,right,→,0.5847069001756608,False,12,-1,1,2
Y2-S2-145K20,5,394,PS,exp,40,↓,left,←,0.6409466001205146,False,13,-1,0,2
Y2-S2-145K20,5,395,PS,exp,48,→,right,→,0.6642654999159276,True,14,-1,0,2
Y2-S2-145K20,5,396,PS,exp,40,←,left,←,0.8609171002171934,True,14,-1,0,2
Y2-S2-145K20,5,397,PS,exp,41,→,right,→,0.48254159977659583,True,14,1,1,3
Y2-S2-145K20,5,398,PS,exp,43,↓,down,↓,0.5977740003727376,True,13,1,0,3
Y2-S2-145K20,5,399,PS,exp,48,↑,right,→,0.640369700267911,False,13,-1,1,4
Y2-S2-145K20,5,400,PS,exp,27,←,left,←,0.6952847996726632,True,14,-1,0,4
Y2-S2-145K20,5,401,PS,exp,32,↓,down,↓,0.5348688000813127,True,14,-1,0,4
Y2-S2-145K20,5,402,PS,exp,44,←,left,←,0.6257604998536408,True,14,1,1,5
Y2-S2-145K20,5,403,PS,exp,39,↑,up,↑,0.45254609966650605,True,13,1,0,5
Y2-S2-145K20,5,404,PS,exp,43,←,left,←,0.7371076997369528,True,13,1,0,5
Y2-S2-145K20,5,405,PS,exp,38,→,right,→,0.6902024000883102,True,13,1,0,5
Y2-S2-145K20,5,406,PS,exp,26,↓,down,↓,0.714217800181359,True,12,1,0,5
Y2-S2-145K20,5,407,PS,exp,30,←,left,←,0.6096312999725342,True,12,1,0,5
Y2-S2-145K20,5,408,PS,exp,25,→,right,→,0.9776700995862484,True,12,1,0,5
Y2-S2-145K20,5,409,PS,exp,42,↓,right,→,0.4731145999394357,False,11,-1,1,6
Y2-S2-145K20,5,410,PS,exp,46,←,left,←,0.7618098999373615,True,12,-1,0,6
Y2-S2-145K20,5,411,PS,exp,43,↓,down,↓,0.702182799577713,True,12,-1,0,6
Y2-S2-145K20,5,412,PS,exp,38,←,right,→,1.0541443000547588,False,12,-1,0,6
Y2-S2-145K20,5,413,PS,exp,33,→,up,↑,0.69518670020625,False,13,-1,0,6
Y2-S2-145K20,5,414,PS,exp,25,↓,down,↓,0.8440242996439338,True,14,-1,0,6
Y2-S2-145K20,5,415,PS,exp,27,→,right,→,0.5929546998813748,True,14,-1,0,6
Y2-S2-145K20,5,416,PS,exp,35,←,left,←,0.6891266000457108,True,14,1,1,7
Y2-S2-145K20,5,417,PS,exp,32,→,right,→,0.4709203001111746,True,13,1,0,7
Y2-S2-145K20,5,418,PS,exp,49,↑,up,↑,0.6157265999354422,True,13,1,0,7
Y2-S2-145K20,5,419,PS,exp,37,→,right,→,0.5622229999862611,True,13,1,0,7
Y2-S2-145K20,5,420,PS,exp,37,↓,down,↓,0.7821895997039974,True,12,1,0,7
Y2-S2-145K20,5,421,PS,exp,32,↑,up,↑,0.9435590002685785,True,12,1,0,7
Y2-S2-145K20,5,422,PS,exp,30,→,down,↓,1.1053404998965561,False,12,-1,1,8
Y2-S2-145K20,5,423,PS,exp,46,←,left,←,1.1341197001747787,True,13,-1,0,8
Y2-S2-145K20,5,424,PS,exp,36,↑,right,→,0.50910359993577,False,13,-1,0,8
Y2-S2-145K20,5,425,PS,exp,27,←,up,↑,0.4187591001391411,False,14,-1,0,8
Y2-S2-145K20,5,426,PS,exp,45,↓,down,↓,0.7045179000124335,True,15,-1,0,8
Y2-S2-145K20,5,427,PS,exp,29,←,left,←,0.592845999635756,True,15,-1,0,8
Y2-S2-145K20,5,428,PS,exp,43,↓,down,↓,0.5650963997468352,True,15,1,1,9
Y2-S2-145K20,5,429,PS,exp,44,→,down,↓,0.926244200207293,False,14,-1,1,10
Y2-S2-145K20,5,430,PS,exp,36,←,right,→,0.8943180995993316,False,15,-1,0,10
Y2-S2-145K20,5,431,PS,exp,29,→,left,←,0.8920237002894282,False,16,-1,0,10
Y2-S2-145K20,5,432,PS,exp,30,←,left,←,0.6735108997672796,True,17,-1,0,10
Y2-S2-145K20,5,433,PS,exp,37,→,right,→,0.6760561997070909,True,17,-1,0,10
Y2-S2-145K20,5,434,PS,exp,28,↓,down,↓,0.5712326997891068,True,17,1,1,11
Y2-S2-145K20,5,435,PS,exp,44,↑,up,↑,0.7172144004143775,True,16,1,0,11
Y2-S2-145K20,5,436,PS,exp,48,→,right,→,0.5447613997384906,True,16,1,0,11
Y2-S2-145K20,5,437,PS,exp,31,↑,up,↑,0.6127960998564959,True,16,1,0,11
Y2-S2-145K20,5,438,PS,exp,38,←,down,↓,1.2158022997900844,False,15,-1,1,12
Y2-S2-145K20,5,439,PS,exp,31,↑,up,↑,0.4859874998219311,True,16,-1,0,12
Y2-S2-145K20,5,440,PS,exp,31,↓,down,↓,0.7048806003294885,True,16,-1,0,12
Y2-S2-145K20,5,441,PS,exp,28,→,right,→,0.7554640001617372,True,16,1,1,13
Y2-S2-145K20,5,442,PS,exp,26,↓,right,→,0.6747039002366364,False,15,-1,1,14
Y2-S2-145K20,5,443,PS,exp,26,↑,up,↑,0.5778822000138462,True,16,-1,0,14
Y2-S2-145K20,5,444,PS,exp,36,↓,down,↓,0.9078836003318429,True,16,-1,0,14
Y2-S2-145K20,5,445,PS,exp,50,←,down,↓,0.9788870001211762,False,16,-1,0,14
Y2-S2-145K20,5,446,PS,exp,40,→,right,→,0.4888924998231232,True,17,-1,0,14
Y2-S2-145K20,5,447,PS,exp,41,↓,down,↓,0.7415952002629638,True,17,-1,0,14
Y2-S2-145K20,5,448,PS,exp,41,←,left,←,0.7655413001775742,True,17,1,1,15
Y2-S2-145K20,5,449,PS,exp,28,→,right,→,0.5030019003897905,True,16,1,0,15
Y2-S2-145K20,5,450,PS,exp,43,←,down,↓,0.333914200309664,False,16,-1,1,16
Y2-S2-145K20,6,451,AS,intra_train,38,↓,down,↓,0.9333946998231113,True,28,-,-,-
Y2-S2-145K20,6,452,AS,intra_train,45,↑,down,↓,0.9532915004529059,False,28,-,-,-
Y2-S2-145K20,6,453,AS,intra_train,42,↓,down,↓,0.710347699932754,True,28,-,-,-
Y2-S2-145K20,6,454,AS,intra_train,30,←,left,←,0.7690870999358594,True,28,-,-,-
Y2-S2-145K20,6,455,AS,intra_train,50,→,right,→,1.0214812997728586,True,28,-,-,-
Y2-S2-145K20,6,456,AS,exp,46,↑,down,↓,0.7925338000059128,False,19,-1,0,0
Y2-S2-145K20,6,457,AS,exp,44,↓,up,↑,1.994236399885267,False,20,-1,0,0
Y2-S2-145K20,6,458,AS,exp,50,→,right,→,0.7320919996127486,True,21,-1,0,0
Y2-S2-145K20,6,459,AS,exp,46,↑,up,↑,0.4842256000265479,True,21,-1,0,0
Y2-S2-145K20,6,460,AS,exp,39,→,right,→,0.8614769000560045,True,21,1,1,1
Y2-S2-145K20,6,461,AS,exp,46,↓,down,↓,0.5685469997115433,True,20,1,0,1
Y2-S2-145K20,6,462,AS,exp,35,←,right,→,1.615437500178814,False,20,-1,1,2
Y2-S2-145K20,6,463,AS,exp,39,↑,up,↑,1.0352360997349024,True,21,-1,0,2
Y2-S2-145K20,6,464,AS,exp,34,↓,down,↓,0.685217599850148,True,21,-1,0,2
Y2-S2-145K20,6,465,AS,exp,50,→,right,→,0.771785800345242,True,21,1,1,3
Y2-S2-145K20,6,466,AS,exp,31,↑,up,↑,0.6887277998030186,True,20,1,0,3
Y2-S2-145K20,6,467,AS,exp,41,→,right,→,0.5717350002378225,True,20,1,0,3
Y2-S2-145K20,6,468,AS,exp,45,←,right,→,0.5928046000190079,False,20,-1,1,4
Y2-S2-145K20,6,469,AS,exp,49,↑,up,↑,0.8843879997730255,True,21,-1,0,4
Y2-S2-145K20,6,470,AS,exp,33,↓,down,↓,0.7432548999786377,True,21,-1,0,4
Y2-S2-145K20,6,471,AS,exp,27,↑,down,↓,0.7013436001725495,False,21,-1,0,4
Y2-S2-145K20,6,472,AS,exp,25,←,right,→,0.5596491997130215,False,22,-1,0,4
Y2-S2-145K20,6,473,AS,exp,44,↓,no_key,no_letter,-1.0,False,23,-1,0,4
Y2-S2-145K20,6,474,AS,exp,26,←,left,←,0.8085053996182978,True,24,-1,0,4
Y2-S2-145K20,6,475,AS,exp,47,↑,right,→,0.48414900014176965,False,24,-1,0,4
Y2-S2-145K20,6,476,AS,exp,50,←,left,←,0.9364366000518203,True,25,-1,0,4
Y2-S2-145K20,6,477,AS,exp,33,→,up,↑,1.2786596999503672,False,25,-1,0,4
Y2-S2-145K20,6,478,AS,exp,37,↑,right,→,0.653515400364995,False,26,-1,0,4
Y2-S2-145K20,6,479,AS,exp,31,↓,left,←,1.986837400123477,False,27,-1,0,4
Y2-S2-145K20,6,480,AS,exp,46,↑,up,↑,0.8667532997205853,True,28,-1,0,4
Y2-S2-145K20,6,481,AS,exp,42,↓,down,↓,1.1134922001510859,True,28,-1,0,4
Y2-S2-145K20,6,482,AS,exp,33,→,right,→,0.8559686001390219,True,28,1,1,5
Y2-S2-145K20,6,483,AS,exp,25,↓,down,↓,0.5337225999683142,True,27,1,0,5
Y2-S2-145K20,6,484,AS,exp,27,↑,up,↑,0.7208823999390006,True,27,1,0,5
Y2-S2-145K20,6,485,AS,exp,31,←,left,←,1.0309772002510726,True,27,1,0,5
Y2-S2-145K20,6,486,AS,exp,43,↓,down,↓,1.0192745998501778,True,26,1,0,5
Y2-S2-145K20,6,487,AS,exp,33,←,left,←,0.9941901001147926,True,26,1,0,5
Y2-S2-145K20,6,488,AS,exp,43,↓,down,↓,1.0112048997543752,True,26,1,0,5
Y2-S2-145K20,6,489,AS,exp,40,←,left,←,0.9194579999893904,True,25,1,0,5
Y2-S2-145K20,6,490,AS,exp,29,↑,up,↑,1.1362394001334906,True,25,1,0,5
Y2-S2-145K20,6,491,AS,exp,46,←,left,←,0.8559472002089024,True,25,1,0,5
Y2-S2-145K20,6,492,AS,exp,26,↓,down,↓,0.6350856996141374,True,24,1,0,5
Y2-S2-145K20,6,493,AS,exp,26,↑,up,↑,0.9118913998827338,True,24,1,0,5
Y2-S2-145K20,6,494,AS,exp,25,←,up,↑,1.4506655996665359,False,24,-1,1,6
Y2-S2-145K20,6,495,AS,exp,26,↓,up,↑,1.526708499994129,False,25,-1,0,6
Y2-S2-145K20,6,496,AS,exp,39,←,up,↑,1.1328770997934043,False,26,-1,0,6
Y2-S2-145K20,6,497,AS,exp,28,→,right,→,1.0027275998145342,True,27,-1,0,6
Y2-S2-145K20,6,498,AS,exp,47,↑,up,↑,0.8932222998701036,True,27,-1,0,6
Y2-S2-145K20,6,499,AS,exp,41,←,left,←,0.926003500353545,True,27,1,1,7
Y2-S2-145K20,6,500,AS,exp,27,↓,down,↓,0.7511181998997927,True,26,1,0,7
Y2-S2-145K20,6,501,AS,exp,34,→,right,→,0.8391495998948812,True,26,1,0,7
Y2-S2-145K20,6,502,AS,exp,44,↓,down,↓,0.6444920999929309,True,26,1,0,7
Y2-S2-145K20,6,503,AS,exp,32,←,down,↓,0.516802900005132,False,25,-1,1,8
Y2-S2-145K20,6,504,AS,exp,47,↓,down,↓,0.6339258998632431,True,26,-1,0,8
Y2-S2-145K20,6,505,AS,exp,34,↑,no_key,no_letter,-1.0,False,26,-1,0,8
Y2-S2-145K20,6,506,AS,exp,49,↓,down,↓,0.8292925003916025,True,27,-1,0,8
Y2-S2-145K20,6,507,AS,exp,46,←,left,←,0.8984489003196359,True,27,-1,0,8
Y2-S2-145K20,6,508,AS,exp,39,→,right,→,0.705523899756372,True,27,1,1,9
Y2-S2-145K20,6,509,AS,exp,50,↓,down,↓,0.8271878003142774,True,26,1,0,9
Y2-S2-145K20,6,510,AS,exp,44,←,left,←,0.7301827999763191,True,26,1,0,9
Y2-S2-145K20,6,511,AS,exp,36,↓,left,←,1.0161609998904169,False,26,-1,1,10
Y2-S2-145K20,6,512,AS,exp,31,↑,left,←,0.9146842998452485,False,27,-1,0,10
Y2-S2-145K20,6,513,AS,exp,49,←,left,←,0.8170332000590861,True,28,-1,0,10
Y2-S2-145K20,6,514,AS,exp,45,→,right,→,0.9605836998671293,True,28,-1,0,10
Y2-S2-145K20,6,515,AS,exp,47,←,left,←,0.639639800414443,True,28,1,1,11
Y2-S2-145K20,6,516,AS,exp,49,→,right,→,0.7363905999809504,True,27,1,0,11
Y2-S2-145K20,6,517,AS,exp,47,↓,down,↓,0.8964596996083856,True,27,1,0,11
Y2-S2-145K20,6,518,AS,exp,46,→,right,→,0.7038388000801206,True,27,1,0,11
Y2-S2-145K20,6,519,AS,exp,25,↑,up,↑,0.8467259001918137,True,26,1,0,11
Y2-S2-145K20,6,520,AS,exp,47,↓,down,↓,0.7594949998892844,True,26,1,0,11
Y2-S2-145K20,6,521,AS,exp,28,←,left,←,0.6288394997827709,True,26,1,0,11
Y2-S2-145K20,6,522,AS,exp,37,→,right,→,0.860500399954617,True,25,1,0,11
Y2-S2-145K20,6,523,AS,exp,34,↓,down,↓,0.8550641001202166,True,25,1,0,11
Y2-S2-145K20,6,524,AS,exp,43,↑,up,↑,0.5007437001913786,True,25,1,0,11
Y2-S2-145K20,6,525,AS,exp,25,→,right,→,1.1242284001782537,True,24,1,0,11
Y2-S2-145K20,6,526,AS,exp,25,↓,down,↓,0.7160519999451935,True,24,1,0,11
Y2-S2-145K20,6,527,AS,exp,36,←,left,←,0.6236929995939136,True,24,1,0,11
Y2-S2-145K20,6,528,AS,exp,32,↑,up,↑,0.7759972000494599,True,23,1,0,11
Y2-S2-145K20,6,529,AS,exp,39,→,right,→,0.6786134000867605,True,23,1,0,11
Y2-S2-145K20,6,530,AS,exp,41,↑,left,←,0.8290575002320111,False,23,-1,1,12
Y2-S2-145K20,6,531,AS,exp,45,←,left,←,0.8325038999319077,True,24,-1,0,12
Y2-S2-145K20,6,532,AS,exp,38,↓,down,↓,0.6614236999303102,True,24,-1,0,12
Y2-S2-145K20,6,533,AS,exp,42,↑,up,↑,0.8374291998334229,True,24,1,1,13
Y2-S2-145K20,6,534,AS,exp,38,←,left,←,0.6749173998832703,True,23,1,0,13
Y2-S2-145K20,6,535,AS,exp,43,↓,down,↓,0.8622965002432466,True,23,1,0,13
Y2-S2-145K20,6,536,AS,exp,50,←,left,←,0.6688585001975298,True,23,1,0,13
Y2-S2-145K20,6,537,AS,exp,47,→,right,→,0.7137955999933183,True,22,1,0,13
Y2-S2-145K20,6,538,AS,exp,41,↑,up,↑,0.7366935997270048,True,22,1,0,13
Y2-S2-145K20,6,539,AS,exp,48,→,down,↓,0.5845090998336673,False,22,-1,1,14
Y2-S2-145K20,6,540,AS,exp,35,↓,down,↓,0.18423329992219806,True,23,-1,0,14
Y2-S2-145K20,6,541,AS,exp,38,←,left,←,0.6487628999166191,True,23,-1,0,14
Y2-S2-145K20,6,542,AS,exp,46,→,no_key,no_letter,-1.0,False,23,-1,0,14
Y2-S2-145K20,6,543,AS,exp,43,←,no_key,no_letter,-1.0,False,24,-1,0,14
Y2-S2-145K20,6,544,AS,exp,48,↑,up,↑,0.7295433999970555,True,25,-1,0,14
Y2-S2-145K20,6,545,AS,exp,46,↓,down,↓,0.9922432997263968,True,25,-1,0,14
Y2-S2-145K20,6,546,AS,exp,27,←,no_key,no_letter,-1.0,False,25,-1,0,14
Y2-S2-145K20,6,547,AS,exp,36,↓,down,↓,1.0314817000180483,True,26,-1,0,14
Y2-S2-145K20,6,548,AS,exp,25,←,left,←,0.5670773996971548,True,26,-1,0,14
Y2-S2-145K20,6,549,AS,exp,42,↑,right,→,1.2838953998871148,False,26,-1,0,14
Y2-S2-145K20,6,550,AS,exp,27,→,right,→,0.6209160001017153,True,27,-1,0,14
Y2-S2-145K20,6,551,AS,exp,34,←,left,←,0.7131257001310587,True,27,-1,0,14
Y2-S2-145K20,6,552,AS,exp,48,→,right,→,2.005129700060934,True,27,1,1,15
Y2-S2-145K20,6,553,AS,exp,49,↓,left,←,0.5505305998958647,False,26,-1,1,16
Y2-S2-145K20,7,554,AS,intra_train,27,↑,up,↑,0.7632291000336409,True,28,-,-,-
Y2-S2-145K20,7,555,AS,intra_train,49,→,right,→,0.9019981999881566,True,28,-,-,-
Y2-S2-145K20,7,556,AS,intra_train,36,↑,up,↑,0.6687989002093673,True,28,-,-,-
Y2-S2-145K20,7,557,AS,intra_train,34,→,no_key,no_letter,-1.0,False,28,-,-,-
Y2-S2-145K20,7,558,AS,intra_train,29,↓,down,↓,0.809952300041914,True,28,-,-,-
Y2-S2-145K20,7,559,AS,exp,31,←,left,←,0.5369261000305414,True,19,0,0,0
Y2-S2-145K20,7,560,AS,exp,28,↑,down,↓,0.5915179997682571,False,19,-1,0,0
Y2-S2-145K20,7,561,AS,exp,27,←,left,←,0.6047452003695071,True,20,-1,0,0
Y2-S2-145K20,7,562,AS,exp,26,→,right,→,0.6833003000356257,True,20,-1,0,0
Y2-S2-145K20,7,563,AS,exp,41,↓,right,→,0.6210445002652705,False,20,-1,0,0
Y2-S2-145K20,7,564,AS,exp,44,↑,down,↓,0.8910904000513256,False,21,-1,0,0
Y2-S2-145K20,7,565,AS,exp,37,→,left,←,0.3838162003085017,False,22,-1,0,0
Y2-S2-145K20,7,566,AS,exp,50,↑,up,↑,0.7946353000588715,True,23,-1,0,0
Y2-S2-145K20,7,567,AS,exp,37,←,left,←,0.4340638997964561,True,23,-1,0,0
Y2-S2-145K20,7,568,AS,exp,37,→,no_key,no_letter,-1.0,False,23,-1,0,0
Y2-S2-145K20,7,569,AS,exp,44,↑,up,↑,0.9370623002760112,True,24,-1,0,0
Y2-S2-145K20,7,570,AS,exp,44,↓,left,←,1.4477401999756694,False,24,-1,0,0
Y2-S2-145K20,7,571,AS,exp,50,→,left,←,1.5230718003585935,False,25,-1,0,0
Y2-S2-145K20,7,572,AS,exp,37,↑,up,↑,1.0247320998460054,True,26,-1,0,0
Y2-S2-145K20,7,573,AS,exp,33,→,right,→,1.1813683002255857,True,26,-1,0,0
Y2-S2-145K20,7,574,AS,exp,42,↓,down,↓,1.2568803997710347,True,26,1,1,1
Y2-S2-145K20,7,575,AS,exp,45,↑,up,↑,0.7382614002563059,True,25,1,0,1
Y2-S2-145K20,7,576,AS,exp,44,↓,down,↓,1.122761100064963,True,25,1,0,1
Y2-S2-145K20,7,577,AS,exp,30,←,left,←,0.6294106999412179,True,25,1,0,1
Y2-S2-145K20,7,578,AS,exp,37,↓,down,↓,0.9598138001747429,True,24,1,0,1
Y2-S2-145K20,7,579,AS,exp,46,↑,up,↑,1.0155516997911036,True,24,1,0,1
Y2-S2-145K20,7,580,AS,exp,40,↓,down,↓,0.8120912997983396,True,24,1,0,1
Y2-S2-145K20,7,581,AS,exp,34,→,right,→,0.9995384998619556,True,23,1,0,1
Y2-S2-145K20,7,582,AS,exp,32,↑,up,↑,0.7238639001734555,True,23,1,0,1
Y2-S2-145K20,7,583,AS,exp,48,→,right,→,0.948365000076592,True,23,1,0,1
Y2-S2-145K20,7,584,AS,exp,47,↑,up,↑,0.7491092002019286,True,22,1,0,1
Y2-S2-145K20,7,585,AS,exp,48,→,right,→,0.7823418998159468,True,22,1,0,1
Y2-S2-145K20,7,586,AS,exp,38,↑,up,↑,0.9303290001116693,True,22,1,0,1
Y2-S2-145K20,7,587,AS,exp,33,↓,right,→,0.7861264999955893,False,21,-1,1,2
Y2-S2-145K20,7,588,AS,exp,48,←,left,←,0.3673751000314951,True,22,-1,0,2
Y2-S2-145K20,7,589,AS,exp,30,→,right,→,0.5605782000347972,True,22,-1,0,2
Y2-S2-145K20,7,590,AS,exp,48,←,left,←,0.28465900011360645,True,22,1,1,3
Y2-S2-145K20,7,591,AS,exp,25,↑,up,↑,0.5228957002982497,True,21,1,0,3
Y2-S2-145K20,7,592,AS,exp,50,↓,right,→,0.5897217998281121,False,21,-1,1,4
Y2-S2-145K20,7,593,AS,exp,48,↑,up,↑,0.6241477001458406,True,22,-1,0,4
Y2-S2-145K20,7,594,AS,exp,31,→,down,↓,0.8399571999907494,False,22,-1,0,4
Y2-S2-145K20,7,595,AS,exp,40,↑,left,←,0.384188000112772,False,23,-1,0,4
Y2-S2-145K20,7,596,AS,exp,42,←,up,↑,0.433848200365901,False,24,-1,0,4
Y2-S2-145K20,7,597,AS,exp,46,↑,up,↑,0.7257922999560833,True,25,-1,0,4
Y2-S2-145K20,7,598,AS,exp,35,→,right,→,0.7313001002185047,True,25,-1,0,4
Y2-S2-145K20,7,599,AS,exp,49,↓,down,↓,0.7922503999434412,True,25,1,1,5
Y2-S2-145K20,7,600,AS,exp,44,↑,up,↑,0.6527752000838518,True,24,1,0,5
Y2-S2-145K20,7,601,AS,exp,39,←,left,←,1.8594847000204027,True,24,1,0,5
Y2-S2-145K20,7,602,AS,exp,42,↓,down,↓,0.8875842997804284,True,24,1,0,5
Y2-S2-145K20,7,603,AS,exp,26,→,right,→,0.7347303000278771,True,23,1,0,5
Y2-S2-145K20,7,604,AS,exp,26,↓,right,→,0.612776099704206,False,23,-1,1,6
Y2-S2-145K20,7,605,AS,exp,41,→,right,→,0.6053251000121236,True,24,-1,0,6
Y2-S2-145K20,7,606,AS,exp,46,↑,up,↑,0.7671527001075447,True,24,-1,0,6
Y2-S2-145K20,7,607,AS,exp,25,→,right,→,0.6512440997175872,True,24,1,1,7
Y2-S2-145K20,7,608,AS,exp,45,←,left,←,0.4672818002291024,True,23,1,0,7
Y2-S2-145K20,7,609,AS,exp,49,↓,down,↓,0.9032877003774047,True,23,1,0,7
Y2-S2-145K20,7,610,AS,exp,48,→,right,→,0.5553419999778271,True,23,1,0,7
Y2-S2-145K20,7,611,AS,exp,29,↑,up,↑,0.8665773998945951,True,22,1,0,7
Y2-S2-145K20,7,612,AS,exp,45,←,left,←,0.7762278001755476,True,22,1,0,7
Y2-S2-145K20,7,613,AS,exp,48,→,right,→,0.7858691997826099,True,22,1,0,7
Y2-S2-145K20,7,614,AS,exp,36,↑,up,↑,0.7932262001559138,True,21,1,0,7
Y2-S2-145K20,7,615,AS,exp,34,↓,down,↓,0.9044480002485216,True,21,1,0,7
Y2-S2-145K20,7,616,AS,exp,49,←,left,←,0.8531965999864042,True,21,1,0,7
Y2-S2-145K20,7,617,AS,exp,47,↓,up,↑,0.8132858998142183,False,20,-1,1,8
Y2-S2-145K20,7,618,AS,exp,36,↑,no_key,no_letter,-1.0,False,21,-1,0,8
Y2-S2-145K20,7,619,AS,exp,47,←,right,→,0.7569757997989655,False,22,-1,0,8
Y2-S2-145K20,7,620,AS,exp,40,↓,down,↓,0.6720971995964646,True,23,-1,0,8
Y2-S2-145K20,7,621,AS,exp,27,→,right,→,0.8367860000580549,True,23,-1,0,8
Y2-S2-145K20,7,622,AS,exp,41,←,left,←,0.8088173000141978,True,23,1,1,9
Y2-S2-145K20,7,623,AS,exp,31,↓,down,↓,0.803345600143075,True,22,1,0,9
Y2-S2-145K20,7,624,AS,exp,34,←,up,↑,0.9042266998440027,False,22,-1,1,10
Y2-S2-145K20,7,625,AS,exp,38,→,right,→,0.6342470999807119,True,23,-1,0,10
Y2-S2-145K20,7,626,AS,exp,32,←,left,←,1.319639999885112,True,23,-1,0,10
Y2-S2-145K20,7,627,AS,exp,26,→,right,→,0.6345628998242319,True,23,1,1,11
Y2-S2-145K20,7,628,AS,exp,37,↑,up,↑,0.6413678000681102,True,22,1,0,11
Y2-S2-145K20,7,629,AS,exp,48,←,left,←,0.7638225997798145,True,22,1,0,11
Y2-S2-145K20,7,630,AS,exp,27,↑,left,←,0.4008304998278618,False,22,-1,1,12
Y2-S2-145K20,7,631,AS,exp,40,←,left,←,1.3266739002428949,True,23,-1,0,12
Y2-S2-145K20,7,632,AS,exp,44,→,right,→,1.1870638998225331,True,23,-1,0,12
Y2-S2-145K20,7,633,AS,exp,37,←,left,←,0.9032855001278222,True,23,1,1,13
Y2-S2-145K20,7,634,AS,exp,38,↓,down,↓,1.297335300128907,True,22,1,0,13
Y2-S2-145K20,7,635,AS,exp,38,↑,up,↑,0.5793794998899102,True,22,1,0,13
Y2-S2-145K20,7,636,AS,exp,49,→,right,→,0.8859290000982583,True,22,1,0,13
Y2-S2-145K20,7,637,AS,exp,34,←,left,←,0.8328750999644399,True,21,1,0,13
Y2-S2-145K20,7,638,AS,exp,43,↓,down,↓,0.6292575998231769,True,21,1,0,13
Y2-S2-145K20,7,639,AS,exp,27,←,left,←,0.6450450997799635,True,21,1,0,13
Y2-S2-145K20,7,640,AS,exp,40,↑,up,↑,1.975887999869883,True,20,1,0,13
Y2-S2-145K20,7,641,AS,exp,45,→,right,→,1.2991872001439333,True,20,1,0,13
Y2-S2-145K20,7,642,AS,exp,39,↑,up,↑,0.5695794001221657,True,20,1,0,13
Y2-S2-145K20,7,643,AS,exp,37,←,left,←,0.8500645002350211,True,19,1,0,13
Y2-S2-145K20,7,644,AS,exp,27,→,right,→,0.8197081997059286,True,19,1,0,13
Y2-S2-145K20,7,645,AS,exp,42,←,right,→,0.8808524999767542,False,19,-1,1,14
Y2-S2-145K20,7,646,AS,exp,40,→,right,→,0.5166208003647625,True,20,-1,0,14
Y2-S2-145K20,7,647,AS,exp,39,↓,down,↓,0.6582368998788297,True,20,-1,0,14
Y2-S2-145K20,7,648,AS,exp,34,↑,up,↑,0.778048800304532,True,20,1,1,15
Y2-S2-145K20,7,649,AS,exp,35,↓,down,↓,0.8834742996841669,True,19,1,0,15
Y2-S2-145K20,7,650,AS,exp,50,→,right,→,1.1330002998001873,True,19,1,0,15
Y2-S2-145K20,7,651,AS,exp,50,←,left,←,0.43381419964134693,True,19,1,0,15
Y2-S2-145K20,7,652,AS,exp,45,↑,right,→,1.024136200081557,False,18,-1,1,16
Y2-S2-145K20,8,653,PS,intra_train,40,→,right,→,0.8927090000361204,True,18,-,-,-
Y2-S2-145K20,8,654,PS,intra_train,49,↑,left,←,0.6364132999442518,False,18,-,-,-
Y2-S2-145K20,8,655,PS,intra_train,43,→,right,→,1.0631686998531222,True,18,-,-,-
Y2-S2-145K20,8,656,PS,intra_train,34,←,left,←,0.5856738998554647,True,18,-,-,-
Y2-S2-145K20,8,657,PS,intra_train,45,↓,down,↓,0.7951918002218008,True,18,-,-,-
Y2-S2-145K20,8,658,PS,exp,37,↑,up,↑,0.7056677001528442,True,12,0,0,0
Y2-S2-145K20,8,659,PS,exp,40,↓,up,↑,1.4986664997413754,False,12,-1,0,0
Y2-S2-145K20,8,660,PS,exp,49,→,left,←,0.8086749999783933,False,13,-1,0,0
Y2-S2-145K20,8,661,PS,exp,41,←,left,←,1.00191369978711,True,14,-1,0,0
Y2-S2-145K20,8,662,PS,exp,38,→,right,→,0.5061298999935389,True,14,-1,0,0
Y2-S2-145K20,8,663,PS,exp,48,↑,left,←,0.4803456999361515,False,14,-1,0,0
Y2-S2-145K20,8,664,PS,exp,27,↓,left,←,0.7722642002627254,False,15,-1,0,0
Y2-S2-145K20,8,665,PS,exp,46,→,right,→,0.5548160001635551,True,16,-1,0,0
Y2-S2-145K20,8,666,PS,exp,42,↑,up,↑,0.504409299697727,True,16,-1,0,0
Y2-S2-145K20,8,667,PS,exp,45,←,left,←,0.6648888001218438,True,16,1,1,1
Y2-S2-145K20,8,668,PS,exp,29,↓,left,←,0.5956244999542832,False,15,-1,1,2
Y2-S2-145K20,8,669,PS,exp,29,←,left,←,0.36778629990294576,True,16,-1,0,2
Y2-S2-145K20,8,670,PS,exp,43,↓,down,↓,0.6756281000562012,True,16,-1,0,2
Y2-S2-145K20,8,671,PS,exp,28,←,left,←,0.5517528997734189,True,16,1,1,3
Y2-S2-145K20,8,672,PS,exp,43,→,right,→,0.7638388001359999,True,15,1,0,3
Y2-S2-145K20,8,673,PS,exp,44,↑,up,↑,0.7129172999411821,True,15,1,0,3
Y2-S2-145K20,8,674,PS,exp,25,←,left,←,0.455126800108701,True,15,1,0,3
Y2-S2-145K20,8,675,PS,exp,37,→,right,→,0.6012821001932025,True,14,1,0,3
Y2-S2-145K20,8,676,PS,exp,27,↑,right,→,1.5434681000187993,False,14,-1,1,4
Y2-S2-145K20,8,677,PS,exp,34,↓,right,→,1.0184642998501658,False,15,-1,0,4
Y2-S2-145K20,8,678,PS,exp,42,→,down,↓,0.3671981003135443,False,16,-1,0,4
Y2-S2-145K20,8,679,PS,exp,32,↑,up,↑,0.5766118001192808,True,17,-1,0,4
Y2-S2-145K20,8,680,PS,exp,33,←,no_key,no_letter,-1.0,False,17,-1,0,4
Y2-S2-145K20,8,681,PS,exp,28,→,right,→,0.5331880999729037,True,18,-1,0,4
Y2-S2-145K20,8,682,PS,exp,47,↓,up,↑,0.4737233002670109,False,18,-1,0,4
Y2-S2-145K20,8,683,PS,exp,26,↑,up,↑,0.7922948999330401,True,19,-1,0,4
Y2-S2-145K20,8,684,PS,exp,28,←,right,→,0.6570784999057651,False,19,-1,0,4
Y2-S2-145K20,8,685,PS,exp,49,↑,right,→,0.7779815001413226,False,20,-1,0,4
Y2-S2-145K20,8,686,PS,exp,49,→,right,→,0.8387703998014331,True,21,-1,0,4
Y2-S2-145K20,8,687,PS,exp,44,↓,down,↓,0.5788026000373065,True,21,-1,0,4
Y2-S2-145K20,8,688,PS,exp,36,→,right,→,0.789153499994427,True,21,1,1,5
Y2-S2-145K20,8,689,PS,exp,48,↑,right,→,0.8419754998758435,False,20,-1,1,6
Y2-S2-145K20,8,690,PS,exp,41,←,left,←,0.6011391999199986,True,21,-1,0,6
Y2-S2-145K20,8,691,PS,exp,34,→,left,←,1.3939673001877964,False,21,-1,0,6
Y2-S2-145K20,8,692,PS,exp,40,↑,right,→,1.512813599780202,False,22,-1,0,6
Y2-S2-145K20,8,693,PS,exp,39,←,left,←,0.6673073000274599,True,23,-1,0,6
Y2-S2-145K20,8,694,PS,exp,26,↓,down,↓,1.4834273997694254,True,23,-1,0,6
Y2-S2-145K20,8,695,PS,exp,49,←,left,←,0.7117604999803007,True,23,1,1,7
Y2-S2-145K20,8,696,PS,exp,34,↑,left,←,1.116825200151652,False,22,-1,1,8
Y2-S2-145K20,8,697,PS,exp,37,→,right,→,1.8686657999642193,True,23,-1,0,8
Y2-S2-145K20,8,698,PS,exp,48,↑,no_key,no_letter,-1.0,False,23,-1,0,8
Y2-S2-145K20,8,699,PS,exp,39,→,right,→,0.4507594001479447,True,24,-1,0,8
Y2-S2-145K20,8,700,PS,exp,30,↓,left,←,1.1263153003528714,False,24,-1,0,8
Y2-S2-145K20,8,701,PS,exp,32,→,right,→,0.5006762002594769,True,25,-1,0,8
Y2-S2-145K20,8,702,PS,exp,28,←,left,←,0.5009860000573099,True,25,-1,0,8
Y2-S2-145K20,8,703,PS,exp,33,→,right,→,0.48434869991615415,True,25,1,1,9
Y2-S2-145K20,8,704,PS,exp,48,↓,down,↓,0.6958784000016749,True,24,1,0,9
Y2-S2-145K20,8,705,PS,exp,37,↑,left,←,1.1880504000000656,False,24,-1,1,10
Y2-S2-145K20,8,706,PS,exp,35,→,right,→,0.5507367998361588,True,25,-1,0,10
Y2-S2-145K20,8,707,PS,exp,50,↑,left,←,1.1585523998364806,False,25,-1,0,10
Y2-S2-145K20,8,708,PS,exp,33,↓,no_key,no_letter,-1.0,False,26,-1,0,10
Y2-S2-145K20,8,709,PS,exp,26,←,left,←,0.5670659998431802,True,27,-1,0,10
Y2-S2-145K20,8,710,PS,exp,26,↑,up,↑,0.567807300016284,True,27,-1,0,10
Y2-S2-145K20,8,711,PS,exp,25,↓,down,↓,0.712115699891001,True,27,1,1,11
Y2-S2-145K20,8,712,PS,exp,27,→,up,↑,1.8545510000549257,False,26,-1,1,12
Y2-S2-145K20,8,713,PS,exp,39,←,no_key,no_letter,-1.0,False,27,-1,0,12
Y2-S2-145K20,8,714,PS,exp,43,↓,right,→,1.2915051998570561,False,28,-1,0,12
Y2-S2-145K20,8,715,PS,exp,46,←,left,←,0.8602955997921526,True,29,-1,0,12
Y2-S2-145K20,8,716,PS,exp,37,↓,right,→,0.6628883997909725,False,29,-1,0,12
Y2-S2-145K20,8,717,PS,exp,45,←,left,←,0.5338918999768794,True,30,-1,0,12
Y2-S2-145K20,8,718,PS,exp,38,↑,down,↓,1.0018603997305036,False,30,-1,0,12
Y2-S2-145K20,8,719,PS,exp,36,←,left,←,0.48438180005177855,True,31,-1,0,12
Y2-S2-145K20,8,720,PS,exp,28,↓,down,↓,0.9104025000706315,True,31,-1,0,12
Y2-S2-145K20,8,721,PS,exp,49,→,left,←,0.5674662999808788,False,31,-1,0,12
Y2-S2-145K20,8,722,PS,exp,34,←,right,→,0.5011632000096142,False,32,-1,0,12
Y2-S2-145K20,8,723,PS,exp,49,↓,down,↓,0.6673906999640167,True,33,-1,0,12
Y2-S2-145K20,8,724,PS,exp,43,↑,up,↑,0.6173767000436783,True,33,-1,0,12
Y2-S2-145K20,8,725,PS,exp,47,←,left,←,0.48441739985719323,True,33,1,1,13
Y2-S2-145K20,8,726,PS,exp,36,↓,left,←,0.3844289998523891,False,32,-1,1,14
Y2-S2-145K20,8,727,PS,exp,50,→,right,→,0.9454883001744747,True,33,-1,0,14
Y2-S2-145K20,8,728,PS,exp,28,←,up,↑,0.7705637998878956,False,33,-1,0,14
Y2-S2-145K20,8,729,PS,exp,30,↑,right,→,0.6843145997263491,False,34,-1,0,14
Y2-S2-145K20,8,730,PS,exp,45,→,right,→,0.6161692999303341,True,35,-1,0,14
Y2-S2-145K20,8,731,PS,exp,29,↑,up,↑,2.0885697002522647,True,35,-1,0,14
Y2-S2-145K20,8,732,PS,exp,30,←,left,←,0.6339531000703573,True,35,1,1,15
Y2-S2-145K20,8,733,PS,exp,48,↑,up,↑,0.6171547998674214,True,34,1,0,15
Y2-S2-145K20,8,734,PS,exp,48,→,left,←,0.6506066997535527,False,34,-1,1,16
