PART_ID,Block_no,Trial_no,Block_type,Trial_type,CSI,Stim_letter,Key_pressed,letter_choose,Rt,Corr,Stimulus Time,Level,Reversal,Revs_count
Y2-S2-203K22,1,1,PS,train,25,↓,down,↓,0.6339412992820144,True,30,-,-,-
Y2-S2-203K22,1,2,PS,train,43,↑,up,↑,0.6172706997022033,True,30,-,-,-
Y2-S2-203K22,1,3,PS,train,28,↓,left,←,1.4806273998692632,False,30,-,-,-
Y2-S2-203K22,1,4,PS,train,34,←,left,←,2.01970690023154,True,30,-,-,-
Y2-S2-203K22,1,5,PS,train,35,↓,down,↓,0.7474084999412298,True,30,-,-,-
Y2-S2-203K22,1,6,PS,train,28,←,left,←,0.5670320997014642,True,30,-,-,-
Y2-S2-203K22,1,7,PS,train,36,↓,down,↓,0.812343499623239,True,30,-,-,-
Y2-S2-203K22,1,8,PS,train,47,↑,up,↑,0.4503022003918886,True,30,-,-,-
Y2-S2-203K22,1,9,PS,train,29,←,left,←,0.5339358998462558,True,30,-,-,-
Y2-S2-203K22,1,10,PS,train,37,↓,down,↓,0.6878885002806783,True,30,-,-,-
Y2-S2-203K22,2,11,AS,train,39,↑,up,↑,0.8838165998458862,True,45,-,-,-
Y2-S2-203K22,2,12,AS,train,30,↓,down,↓,0.7511010002344847,True,45,-,-,-
Y2-S2-203K22,2,13,AS,train,43,↑,up,↑,0.7838403005152941,True,45,-,-,-
Y2-S2-203K22,2,14,AS,train,38,→,right,→,0.48463969957083464,True,45,-,-,-
Y2-S2-203K22,2,15,AS,train,43,↑,up,↑,0.8171190991997719,True,45,-,-,-
Y2-S2-203K22,2,16,AS,train,34,←,left,←,0.7015426000580192,True,45,-,-,-
Y2-S2-203K22,2,17,AS,train,46,↑,up,↑,0.6343326000496745,True,45,-,-,-
Y2-S2-203K22,2,18,AS,train,46,→,up,↑,0.7008724994957447,False,45,-,-,-
Y2-S2-203K22,2,19,AS,train,46,←,left,←,0.6010624999180436,True,45,-,-,-
Y2-S2-203K22,2,20,AS,train,37,↑,up,↑,0.5344667993485928,True,45,-,-,-
Y2-S2-203K22,-,21,PS,adaptive,45,←,up,↑,1.0793345998972654,False,10,-1,0,0
Y2-S2-203K22,-,22,PS,adaptive,49,↑,up,↑,0.6395893003791571,True,11,-1,0,0
Y2-S2-203K22,-,23,PS,adaptive,29,←,left,←,0.48748140037059784,True,11,-1,0,0
Y2-S2-203K22,-,24,PS,adaptive,43,↑,up,↑,0.5624710004776716,True,11,1,1,1
Y2-S2-203K22,-,25,PS,adaptive,48,↓,down,↓,0.6122308000922203,True,10,1,0,1
Y2-S2-203K22,-,26,PS,adaptive,43,↑,up,↑,0.4308356996625662,True,10,1,0,1
Y2-S2-203K22,-,27,PS,adaptive,38,←,left,←,0.9115665005519986,True,10,1,0,1
Y2-S2-203K22,-,28,PS,adaptive,45,→,down,↓,1.2584982998669147,False,9,-1,1,2
Y2-S2-203K22,-,29,PS,adaptive,30,←,left,←,0.48737560026347637,True,10,-1,0,2
Y2-S2-203K22,-,30,PS,adaptive,49,→,left,←,1.0909307999536395,False,10,-1,0,2
Y2-S2-203K22,-,31,PS,adaptive,37,↑,up,↑,0.46667110081762075,True,11,-1,0,2
Y2-S2-203K22,-,32,PS,adaptive,25,↓,down,↓,0.6565674999728799,True,11,-1,0,2
Y2-S2-203K22,-,33,PS,adaptive,27,↑,up,↑,0.446620499715209,True,11,1,1,3
Y2-S2-203K22,-,34,PS,adaptive,38,←,left,←,0.4476298000663519,True,10,1,0,3
Y2-S2-203K22,-,35,PS,adaptive,42,→,right,→,0.442213699221611,True,10,1,0,3
Y2-S2-203K22,-,36,PS,adaptive,47,↑,up,↑,0.481568300165236,True,10,1,0,3
Y2-S2-203K22,-,37,PS,adaptive,38,←,left,←,0.3794032000005245,True,9,1,0,3
Y2-S2-203K22,-,38,PS,adaptive,32,→,right,→,0.48390480037778616,True,9,1,0,3
Y2-S2-203K22,-,39,PS,adaptive,46,↑,up,↑,0.57214630022645,True,9,1,0,3
Y2-S2-203K22,-,40,PS,adaptive,32,↓,down,↓,0.8605895005166531,True,8,1,0,3
Y2-S2-203K22,-,41,PS,adaptive,33,→,right,→,0.7905626995489001,True,8,1,0,3
Y2-S2-203K22,-,42,PS,adaptive,44,↑,up,↑,0.4662927007302642,True,8,1,0,3
Y2-S2-203K22,-,43,PS,adaptive,44,↓,left,←,0.7803819999098778,False,7,-1,1,4
Y2-S2-203K22,-,44,AS,adaptive,43,→,left,←,1.0159463994204998,False,20,-1,0,0
Y2-S2-203K22,-,45,AS,adaptive,30,↓,left,←,1.020070600323379,False,21,-1,0,0
Y2-S2-203K22,-,46,AS,adaptive,50,→,right,→,0.9563066000118852,True,22,-1,0,0
Y2-S2-203K22,-,47,AS,adaptive,33,←,right,→,0.7641863999888301,False,22,-1,0,0
Y2-S2-203K22,-,48,AS,adaptive,38,↓,down,↓,0.8551995996385813,True,23,-1,0,0
Y2-S2-203K22,-,49,AS,adaptive,37,↑,up,↑,0.9185541002079844,True,23,-1,0,0
Y2-S2-203K22,-,50,AS,adaptive,39,↓,down,↓,0.6646111998707056,True,23,1,1,1
Y2-S2-203K22,-,51,AS,adaptive,36,→,right,→,0.639313000254333,True,22,1,0,1
Y2-S2-203K22,-,52,AS,adaptive,45,↓,down,↓,0.6123778000473976,True,22,1,0,1
Y2-S2-203K22,-,53,AS,adaptive,35,←,no_key,no_letter,-1.0,False,22,-1,1,2
Y2-S2-203K22,-,54,AS,adaptive,47,→,right,→,0.8297822996973991,True,23,-1,0,2
Y2-S2-203K22,-,55,AS,adaptive,28,↓,right,→,0.9381917994469404,False,23,-1,0,2
Y2-S2-203K22,-,56,AS,adaptive,34,←,left,←,0.4506018999963999,True,24,-1,0,2
Y2-S2-203K22,-,57,AS,adaptive,38,↑,up,↑,0.5339735001325607,True,24,-1,0,2
Y2-S2-203K22,-,58,AS,adaptive,48,←,right,→,0.604904199950397,False,24,-1,0,2
Y2-S2-203K22,-,59,AS,adaptive,36,→,right,→,0.6207919996231794,True,25,-1,0,2
Y2-S2-203K22,-,60,AS,adaptive,39,↓,down,↓,0.8942730994895101,True,25,-1,0,2
Y2-S2-203K22,-,61,AS,adaptive,45,←,left,←,0.5006783995777369,True,25,1,1,3
Y2-S2-203K22,-,62,AS,adaptive,49,↑,up,↑,0.7533024996519089,True,24,1,0,3
Y2-S2-203K22,-,63,AS,adaptive,31,↓,down,↓,0.9514597002416849,True,24,1,0,3
Y2-S2-203K22,-,64,AS,adaptive,34,↑,up,↑,0.7587673999369144,True,24,1,0,3
Y2-S2-203K22,-,65,AS,adaptive,25,↓,down,↓,0.768448700197041,True,23,1,0,3
Y2-S2-203K22,-,66,AS,adaptive,50,←,left,←,0.5174157004803419,True,23,1,0,3
Y2-S2-203K22,-,67,AS,adaptive,43,↓,down,↓,0.8565643997862935,True,23,1,0,3
Y2-S2-203K22,-,68,AS,adaptive,46,←,left,←,1.7900851992890239,True,22,1,0,3
Y2-S2-203K22,-,69,AS,adaptive,38,↑,up,↑,0.7904171999543905,True,22,1,0,3
Y2-S2-203K22,-,70,AS,adaptive,46,←,right,→,0.5007878998294473,False,22,-1,1,4
Y2-S2-203K22,1,71,AS,intra_train,30,→,right,→,0.6164898993447423,True,34,-,-,-
Y2-S2-203K22,1,72,AS,intra_train,36,↓,down,↓,0.7956627001985908,True,34,-,-,-
Y2-S2-203K22,1,73,AS,intra_train,43,↑,up,↑,0.4843294005841017,True,34,-,-,-
Y2-S2-203K22,1,74,AS,intra_train,37,→,right,→,0.6170795997604728,True,34,-,-,-
Y2-S2-203K22,1,75,AS,intra_train,26,↓,down,↓,0.7004997003823519,True,34,-,-,-
Y2-S2-203K22,1,76,AS,exp,41,↑,up,↑,0.43434450030326843,True,23,0,0,0
Y2-S2-203K22,1,77,AS,exp,25,→,right,→,0.5835038004443049,True,23,0,0,0
Y2-S2-203K22,1,78,AS,exp,50,←,left,←,0.41724880039691925,True,23,1,0,0
Y2-S2-203K22,1,79,AS,exp,41,↑,up,↑,0.46710489969700575,True,22,1,0,0
Y2-S2-203K22,1,80,AS,exp,43,↓,down,↓,0.8113725995644927,True,22,1,0,0
Y2-S2-203K22,1,81,AS,exp,46,↑,up,↑,1.0211293995380402,True,22,1,0,0
Y2-S2-203K22,1,82,AS,exp,46,↓,down,↓,0.6653250996023417,True,21,1,0,0
Y2-S2-203K22,1,83,AS,exp,31,←,left,←,0.7309397999197245,True,21,1,0,0
Y2-S2-203K22,1,84,AS,exp,38,→,right,→,0.6683654999360442,True,21,1,0,0
Y2-S2-203K22,1,85,AS,exp,47,←,left,←,0.6865469003096223,True,20,1,0,0
Y2-S2-203K22,1,86,AS,exp,40,→,right,→,0.6063501005992293,True,20,1,0,0
Y2-S2-203K22,1,87,AS,exp,38,↓,down,↓,0.6093782000243664,True,20,1,0,0
Y2-S2-203K22,1,88,AS,exp,38,→,right,→,0.6774014001712203,True,19,1,0,0
Y2-S2-203K22,1,89,AS,exp,36,↓,down,↓,0.5328352004289627,True,19,1,0,0
Y2-S2-203K22,1,90,AS,exp,34,→,right,→,0.5287039000540972,True,19,1,0,0
Y2-S2-203K22,1,91,AS,exp,29,↓,down,↓,0.7551648002117872,True,18,1,0,0
Y2-S2-203K22,1,92,AS,exp,28,←,no_key,no_letter,-1.0,False,18,-1,1,1
Y2-S2-203K22,1,93,AS,exp,39,→,left,←,1.095031499862671,False,19,-1,0,1
Y2-S2-203K22,1,94,AS,exp,25,↓,down,↓,0.582418099977076,True,20,-1,0,1
Y2-S2-203K22,1,95,AS,exp,26,←,left,←,0.5452732006087899,True,20,-1,0,1
Y2-S2-203K22,1,96,AS,exp,45,→,left,←,1.4957654001191258,False,20,-1,0,1
Y2-S2-203K22,1,97,AS,exp,28,↓,down,↓,0.7809750996530056,True,21,-1,0,1
Y2-S2-203K22,1,98,AS,exp,38,↑,up,↑,0.5196633003652096,True,21,-1,0,1
Y2-S2-203K22,1,99,AS,exp,45,←,left,←,0.5815038001164794,True,21,1,1,2
Y2-S2-203K22,1,100,AS,exp,40,↑,up,↑,0.6079427003860474,True,20,1,0,2
Y2-S2-203K22,1,101,AS,exp,36,↓,down,↓,0.6940627004951239,True,20,1,0,2
Y2-S2-203K22,1,102,AS,exp,48,↑,up,↑,0.6534553999081254,True,20,1,0,2
Y2-S2-203K22,1,103,AS,exp,42,↓,down,↓,0.5663368003442883,True,19,1,0,2
Y2-S2-203K22,1,104,AS,exp,31,→,right,→,0.5387706998735666,True,19,1,0,2
Y2-S2-203K22,1,105,AS,exp,50,↓,down,↓,0.7344869999215007,True,19,1,0,2
Y2-S2-203K22,1,106,AS,exp,42,→,right,→,0.49234670028090477,True,18,1,0,2
Y2-S2-203K22,1,107,AS,exp,29,↑,up,↑,0.5693453997373581,True,18,1,0,2
Y2-S2-203K22,1,108,AS,exp,27,←,left,←,0.5290235001593828,True,18,1,0,2
Y2-S2-203K22,1,109,AS,exp,35,→,right,→,0.49819609988480806,True,17,1,0,2
Y2-S2-203K22,1,110,AS,exp,45,←,right,→,0.9846282005310059,False,17,-1,1,3
Y2-S2-203K22,1,111,AS,exp,36,↓,down,↓,0.8076844001188874,True,18,-1,0,3
Y2-S2-203K22,1,112,AS,exp,44,←,left,←,1.2173463003709912,True,18,-1,0,3
Y2-S2-203K22,1,113,AS,exp,32,→,right,→,0.6719608996063471,True,18,1,1,4
Y2-S2-203K22,1,114,AS,exp,37,←,left,←,0.8728788997977972,True,17,1,0,4
Y2-S2-203K22,1,115,AS,exp,33,↑,down,↓,1.1214733002707362,False,17,-1,1,5
Y2-S2-203K22,1,116,AS,exp,35,↓,down,↓,0.9093253994360566,True,18,-1,0,5
Y2-S2-203K22,1,117,AS,exp,37,↑,up,↑,0.5595278004184365,True,18,-1,0,5
Y2-S2-203K22,1,118,AS,exp,34,←,left,←,0.6217959998175502,True,18,1,1,6
Y2-S2-203K22,1,119,AS,exp,29,↑,up,↑,0.5081146992743015,True,17,1,0,6
Y2-S2-203K22,1,120,AS,exp,29,←,left,←,1.00342239998281,True,17,1,0,6
Y2-S2-203K22,1,121,AS,exp,48,→,right,→,0.5068672001361847,True,17,1,0,6
Y2-S2-203K22,1,122,AS,exp,40,↑,left,←,0.9778974000364542,False,16,-1,1,7
Y2-S2-203K22,1,123,AS,exp,45,→,right,→,0.4174330001696944,True,17,-1,0,7
Y2-S2-203K22,1,124,AS,exp,29,←,left,←,0.5671517001464963,True,17,-1,0,7
Y2-S2-203K22,1,125,AS,exp,50,↓,left,←,0.4536315994337201,False,17,-1,0,7
Y2-S2-203K22,1,126,AS,exp,32,↑,up,↑,0.6160260001197457,True,18,-1,0,7
Y2-S2-203K22,1,127,AS,exp,31,←,right,→,0.5610480001196265,False,18,-1,0,7
Y2-S2-203K22,1,128,AS,exp,32,↓,left,←,0.5949546992778778,False,19,-1,0,7
Y2-S2-203K22,1,129,AS,exp,49,→,right,→,0.43417550064623356,True,20,-1,0,7
Y2-S2-203K22,1,130,AS,exp,49,↑,up,↑,0.5016117999330163,True,20,-1,0,7
Y2-S2-203K22,1,131,AS,exp,41,→,right,→,0.6285233991220593,True,20,1,1,8
Y2-S2-203K22,1,132,AS,exp,50,←,left,←,0.6970544997602701,True,19,1,0,8
Y2-S2-203K22,1,133,AS,exp,43,↑,up,↑,0.623824299313128,True,19,1,0,8
Y2-S2-203K22,1,134,AS,exp,30,↓,down,↓,0.7099317004904151,True,19,1,0,8
Y2-S2-203K22,1,135,AS,exp,41,←,left,←,0.6890057995915413,True,18,1,0,8
Y2-S2-203K22,1,136,AS,exp,32,↓,down,↓,1.0971411000937223,True,18,1,0,8
Y2-S2-203K22,1,137,AS,exp,42,→,right,→,1.383725400082767,True,18,1,0,8
Y2-S2-203K22,1,138,AS,exp,26,←,right,→,1.0776188997551799,False,17,-1,1,9
Y2-S2-203K22,1,139,AS,exp,45,↑,up,↑,0.38396559935063124,True,18,-1,0,9
Y2-S2-203K22,1,140,AS,exp,50,↓,up,↑,0.9241727003827691,False,18,-1,0,9
Y2-S2-203K22,1,141,AS,exp,40,↑,up,↑,0.6785109005868435,True,19,-1,0,9
Y2-S2-203K22,1,142,AS,exp,35,↓,down,↓,0.7363230995833874,True,19,-1,0,9
Y2-S2-203K22,1,143,AS,exp,39,→,right,→,0.6242482997477055,True,19,1,1,10
Y2-S2-203K22,1,144,AS,exp,42,←,right,→,1.0702887997031212,False,18,-1,1,11
Y2-S2-203K22,1,145,AS,exp,45,↓,down,↓,0.651625799946487,True,19,-1,0,11
Y2-S2-203K22,1,146,AS,exp,26,→,right,→,0.5291165998205543,True,19,-1,0,11
Y2-S2-203K22,1,147,AS,exp,41,↑,up,↑,0.7389532001689076,True,19,1,1,12
Y2-S2-203K22,1,148,AS,exp,40,→,right,→,0.4174589002504945,True,18,1,0,12
Y2-S2-203K22,1,149,AS,exp,41,↑,down,↓,1.2056227000430226,False,18,-1,1,13
Y2-S2-203K22,1,150,AS,exp,32,↓,up,↑,0.8452330008149147,False,19,-1,0,13
Y2-S2-203K22,1,151,AS,exp,39,←,left,←,0.6494185999035835,True,20,-1,0,13
Y2-S2-203K22,1,152,AS,exp,33,↑,up,↑,0.46734119951725006,True,20,-1,0,13
Y2-S2-203K22,1,153,AS,exp,29,←,left,←,0.5644384995102882,True,20,1,1,14
Y2-S2-203K22,1,154,AS,exp,50,↓,left,←,0.8241586005315185,False,19,-1,1,15
Y2-S2-203K22,1,155,AS,exp,32,→,right,→,0.7701493995264173,True,20,-1,0,15
Y2-S2-203K22,1,156,AS,exp,38,←,left,←,0.5438617002218962,True,20,-1,0,15
Y2-S2-203K22,1,157,AS,exp,47,→,left,←,0.8339945003390312,False,20,-1,0,15
Y2-S2-203K22,1,158,AS,exp,30,↑,up,↑,0.7008572006598115,True,21,-1,0,15
Y2-S2-203K22,1,159,AS,exp,29,↓,down,↓,0.9043467007577419,True,21,-1,0,15
Y2-S2-203K22,1,160,AS,exp,28,→,right,→,0.41754049994051456,True,21,1,1,16
Y2-S2-203K22,2,161,PS,intra_train,49,↑,up,↑,0.9276107996702194,True,12,-,-,-
Y2-S2-203K22,2,162,PS,intra_train,44,↓,up,↑,0.8021283000707626,False,12,-,-,-
Y2-S2-203K22,2,163,PS,intra_train,46,→,right,→,0.5412459997460246,True,12,-,-,-
Y2-S2-203K22,2,164,PS,intra_train,48,↑,up,↑,0.5808703005313873,True,12,-,-,-
Y2-S2-203K22,2,165,PS,intra_train,25,↓,down,↓,0.6724073998630047,True,12,-,-,-
Y2-S2-203K22,2,166,PS,exp,32,↑,up,↑,0.8170391991734505,True,8,0,0,0
Y2-S2-203K22,2,167,PS,exp,33,←,left,←,0.7871875008568168,True,8,0,0,0
Y2-S2-203K22,2,168,PS,exp,30,↑,up,↑,0.44250139966607094,True,8,1,0,0
Y2-S2-203K22,2,169,PS,exp,41,→,up,↑,0.6406213995069265,False,7,-1,1,1
Y2-S2-203K22,2,170,PS,exp,26,↑,up,↑,0.4081924008205533,True,8,-1,0,1
Y2-S2-203K22,2,171,PS,exp,36,←,up,↑,0.6030434994027019,False,8,-1,0,1
Y2-S2-203K22,2,172,PS,exp,48,↑,up,↑,0.6997398994863033,True,9,-1,0,1
Y2-S2-203K22,2,173,PS,exp,41,↓,down,↓,0.5838801003992558,True,9,-1,0,1
Y2-S2-203K22,2,174,PS,exp,27,→,right,→,0.5031353002414107,True,9,1,1,2
Y2-S2-203K22,2,175,PS,exp,25,←,left,←,0.5330013995990157,True,8,1,0,2
Y2-S2-203K22,2,176,PS,exp,25,→,right,→,0.47358240000903606,True,8,1,0,2
Y2-S2-203K22,2,177,PS,exp,30,←,right,→,0.7803133996203542,False,8,-1,1,3
Y2-S2-203K22,2,178,PS,exp,35,↓,down,↓,0.5818967996165156,True,9,-1,0,3
Y2-S2-203K22,2,179,PS,exp,47,←,left,←,0.8450932996347547,True,9,-1,0,3
Y2-S2-203K22,2,180,PS,exp,45,→,right,→,0.4944879002869129,True,9,1,1,4
Y2-S2-203K22,2,181,PS,exp,27,↓,down,↓,0.6590160001069307,True,8,1,0,4
Y2-S2-203K22,2,182,PS,exp,50,←,left,←,0.45600599981844425,True,8,1,0,4
Y2-S2-203K22,2,183,PS,exp,45,→,right,→,0.4576861001551151,True,8,1,0,4
Y2-S2-203K22,2,184,PS,exp,28,↓,down,↓,0.671539899893105,True,7,1,0,4
Y2-S2-203K22,2,185,PS,exp,40,→,left,←,0.8443748997524381,False,7,-1,1,5
Y2-S2-203K22,2,186,PS,exp,34,←,right,→,0.9337168000638485,False,8,-1,0,5
Y2-S2-203K22,2,187,PS,exp,41,↑,up,↑,0.5353001998737454,True,9,-1,0,5
Y2-S2-203K22,2,188,PS,exp,27,↓,down,↓,0.9133898001164198,True,9,-1,0,5
Y2-S2-203K22,2,189,PS,exp,44,←,left,←,0.458372600376606,True,9,1,1,6
Y2-S2-203K22,2,190,PS,exp,47,↓,down,↓,0.6359545001760125,True,8,1,0,6
Y2-S2-203K22,2,191,PS,exp,34,→,down,↓,0.7336900001391768,False,8,-1,1,7
Y2-S2-203K22,2,192,PS,exp,37,↑,up,↑,0.5819226000458002,True,9,-1,0,7
Y2-S2-203K22,2,193,PS,exp,35,↓,down,↓,0.626205999404192,True,9,-1,0,7
Y2-S2-203K22,2,194,PS,exp,39,↑,up,↑,0.5079857995733619,True,9,1,1,8
Y2-S2-203K22,2,195,PS,exp,48,→,right,→,0.4565872997045517,True,8,1,0,8
Y2-S2-203K22,2,196,PS,exp,37,←,left,←,0.4896295005455613,True,8,1,0,8
Y2-S2-203K22,2,197,PS,exp,50,↑,left,←,0.6334576001390815,False,8,-1,1,9
Y2-S2-203K22,2,198,PS,exp,31,↓,left,←,0.8690241994336247,False,9,-1,0,9
Y2-S2-203K22,2,199,PS,exp,29,→,up,↑,0.6157643003389239,False,10,-1,0,9
Y2-S2-203K22,2,200,PS,exp,49,↑,up,↑,0.45679759979248047,True,11,-1,0,9
Y2-S2-203K22,2,201,PS,exp,29,→,right,→,0.4262614995241165,True,11,-1,0,9
Y2-S2-203K22,2,202,PS,exp,35,↓,down,↓,0.5973161002621055,True,11,1,1,10
Y2-S2-203K22,2,203,PS,exp,34,→,right,→,0.4133738996461034,True,10,1,0,10
Y2-S2-203K22,2,204,PS,exp,44,↓,down,↓,0.6646192008629441,True,10,1,0,10
Y2-S2-203K22,2,205,PS,exp,49,↑,up,↑,0.451341200619936,True,10,1,0,10
Y2-S2-203K22,2,206,PS,exp,35,←,left,←,0.5910660000517964,True,9,1,0,10
Y2-S2-203K22,2,207,PS,exp,26,→,right,→,0.5333409998565912,True,9,1,0,10
Y2-S2-203K22,2,208,PS,exp,25,↓,right,→,0.8235157001763582,False,9,-1,1,11
Y2-S2-203K22,2,209,PS,exp,26,←,left,←,0.6137362997978926,True,10,-1,0,11
Y2-S2-203K22,2,210,PS,exp,32,↑,left,←,0.5380762005224824,False,10,-1,0,11
Y2-S2-203K22,2,211,PS,exp,48,→,left,←,0.4448717003688216,False,11,-1,0,11
Y2-S2-203K22,2,212,PS,exp,32,←,left,←,0.5646633999422193,True,12,-1,0,11
Y2-S2-203K22,2,213,PS,exp,33,↓,down,↓,0.6286075999960303,True,12,-1,0,11
Y2-S2-203K22,2,214,PS,exp,42,↑,up,↑,0.6223595002666116,True,12,1,1,12
Y2-S2-203K22,2,215,PS,exp,32,↓,up,↑,0.5695380000397563,False,11,-1,1,13
Y2-S2-203K22,2,216,PS,exp,27,↑,up,↑,0.6055254004895687,True,12,-1,0,13
Y2-S2-203K22,2,217,PS,exp,45,→,right,→,0.46650639921426773,True,12,-1,0,13
Y2-S2-203K22,2,218,PS,exp,38,←,up,↑,0.8175392001867294,False,12,-1,0,13
Y2-S2-203K22,2,219,PS,exp,42,↓,down,↓,0.639461500570178,True,13,-1,0,13
Y2-S2-203K22,2,220,PS,exp,26,←,left,←,0.44251920003443956,True,13,-1,0,13
Y2-S2-203K22,2,221,PS,exp,41,↑,up,↑,0.4629093995317817,True,13,1,1,14
Y2-S2-203K22,2,222,PS,exp,44,↓,down,↓,0.6444177003577352,True,12,1,0,14
Y2-S2-203K22,2,223,PS,exp,30,↑,up,↑,0.4820273006334901,True,12,1,0,14
Y2-S2-203K22,2,224,PS,exp,40,↓,right,→,0.9245187006890774,False,12,-1,1,15
Y2-S2-203K22,2,225,PS,exp,32,→,right,→,0.6257927995175123,True,13,-1,0,15
Y2-S2-203K22,2,226,PS,exp,37,↑,up,↑,0.5386138996109366,True,13,-1,0,15
Y2-S2-203K22,2,227,PS,exp,35,↓,right,→,1.0192705001682043,False,13,-1,0,15
Y2-S2-203K22,2,228,PS,exp,30,→,right,→,0.6144580999389291,True,14,-1,0,15
Y2-S2-203K22,2,229,PS,exp,27,↓,down,↓,0.78005660045892,True,14,-1,0,15
Y2-S2-203K22,2,230,PS,exp,32,→,right,→,0.667437900789082,True,14,1,1,16
Y2-S2-203K22,3,231,PS,intra_train,49,←,left,←,0.46701620053499937,True,12,-,-,-
Y2-S2-203K22,3,232,PS,intra_train,37,→,right,→,0.4296057000756264,True,12,-,-,-
Y2-S2-203K22,3,233,PS,intra_train,47,←,left,←,0.4559375997632742,True,12,-,-,-
Y2-S2-203K22,3,234,PS,intra_train,37,↑,up,↑,0.5665239002555609,True,12,-,-,-
Y2-S2-203K22,3,235,PS,intra_train,31,↓,down,↓,0.7545456998050213,True,12,-,-,-
Y2-S2-203K22,3,236,PS,exp,48,→,right,→,0.5689867995679379,True,8,0,0,0
Y2-S2-203K22,3,237,PS,exp,35,←,left,←,0.429802100174129,True,8,0,0,0
Y2-S2-203K22,3,238,PS,exp,36,↑,left,←,0.6953524006530643,False,8,-1,0,0
Y2-S2-203K22,3,239,PS,exp,26,→,right,→,0.4134950004518032,True,9,-1,0,0
Y2-S2-203K22,3,240,PS,exp,38,←,left,←,0.36304560024291277,True,9,-1,0,0
Y2-S2-203K22,3,241,PS,exp,41,↑,left,←,0.4509185003116727,False,9,-1,0,0
Y2-S2-203K22,3,242,PS,exp,36,↓,left,←,0.4900211999192834,False,10,-1,0,0
Y2-S2-203K22,3,243,PS,exp,39,↑,up,↑,0.47329230047762394,True,11,-1,0,0
Y2-S2-203K22,3,244,PS,exp,40,↓,down,↓,0.6130150994285941,True,11,-1,0,0
Y2-S2-203K22,3,245,PS,exp,30,→,right,→,0.7864181995391846,True,11,1,1,1
Y2-S2-203K22,3,246,PS,exp,32,←,left,←,0.4537193002179265,True,10,1,0,1
Y2-S2-203K22,3,247,PS,exp,37,↓,down,↓,0.5907333996146917,True,10,1,0,1
Y2-S2-203K22,3,248,PS,exp,44,←,right,→,0.6419057007879019,False,10,-1,1,2
Y2-S2-203K22,3,249,PS,exp,43,↓,down,↓,0.6242728997021914,True,11,-1,0,2
Y2-S2-203K22,3,250,PS,exp,44,↑,down,↓,0.8531951000913978,False,11,-1,0,2
Y2-S2-203K22,3,251,PS,exp,33,←,left,←,0.4984376998618245,True,12,-1,0,2
Y2-S2-203K22,3,252,PS,exp,50,↑,left,←,0.5588993998244405,False,12,-1,0,2
Y2-S2-203K22,3,253,PS,exp,43,→,right,→,0.4869777001440525,True,13,-1,0,2
Y2-S2-203K22,3,254,PS,exp,38,↓,down,↓,0.9020865997299552,True,13,-1,0,2
Y2-S2-203K22,3,255,PS,exp,33,→,right,→,0.6612709006294608,True,13,1,1,3
Y2-S2-203K22,3,256,PS,exp,25,↑,left,←,0.5932588996365666,False,12,-1,1,4
Y2-S2-203K22,3,257,PS,exp,30,↓,down,↓,0.4967716997489333,True,13,-1,0,4
Y2-S2-203K22,3,258,PS,exp,30,→,left,←,0.6653853999450803,False,13,-1,0,4
Y2-S2-203K22,3,259,PS,exp,50,↑,up,↑,0.5079168993979692,True,14,-1,0,4
Y2-S2-203K22,3,260,PS,exp,41,←,left,←,0.5914490995928645,True,14,-1,0,4
Y2-S2-203K22,3,261,PS,exp,30,→,right,→,0.7562845004722476,True,14,1,1,5
Y2-S2-203K22,3,262,PS,exp,25,←,left,←,0.4735580999404192,True,13,1,0,5
Y2-S2-203K22,3,263,PS,exp,46,↑,up,↑,0.6388484993949533,True,13,1,0,5
Y2-S2-203K22,3,264,PS,exp,46,↓,down,↓,0.6076095001772046,True,13,1,0,5
Y2-S2-203K22,3,265,PS,exp,49,→,right,→,0.4385428996756673,True,12,1,0,5
Y2-S2-203K22,3,266,PS,exp,50,↑,up,↑,0.4790786001831293,True,12,1,0,5
Y2-S2-203K22,3,267,PS,exp,40,←,left,←,0.9368984997272491,True,12,1,0,5
Y2-S2-203K22,3,268,PS,exp,42,→,right,→,0.5446910001337528,True,11,1,0,5
Y2-S2-203K22,3,269,PS,exp,47,↓,down,↓,0.7825332004576921,True,11,1,0,5
Y2-S2-203K22,3,270,PS,exp,27,→,left,←,0.42115209996700287,False,11,-1,1,6
Y2-S2-203K22,3,271,PS,exp,39,↑,up,↑,1.0473618004471064,True,12,-1,0,6
Y2-S2-203K22,3,272,PS,exp,35,←,up,↑,0.7660927996039391,False,12,-1,0,6
Y2-S2-203K22,3,273,PS,exp,29,→,left,←,0.8529153000563383,False,13,-1,0,6
Y2-S2-203K22,3,274,PS,exp,30,←,left,←,0.4392727995291352,True,14,-1,0,6
Y2-S2-203K22,3,275,PS,exp,41,↓,down,↓,0.6925017004832625,True,14,-1,0,6
Y2-S2-203K22,3,276,PS,exp,39,←,left,←,0.42204639967530966,True,14,1,1,7
Y2-S2-203K22,3,277,PS,exp,46,↓,down,↓,0.6958407992497087,True,13,1,0,7
Y2-S2-203K22,3,278,PS,exp,32,←,left,←,0.5502137001603842,True,13,1,0,7
Y2-S2-203K22,3,279,PS,exp,41,→,right,→,0.5836004996672273,True,13,1,0,7
Y2-S2-203K22,3,280,PS,exp,45,←,left,←,0.5393558004871011,True,12,1,0,7
Y2-S2-203K22,3,281,PS,exp,29,↓,down,↓,0.686680699698627,True,12,1,0,7
Y2-S2-203K22,3,282,PS,exp,36,←,left,←,0.8029650002717972,True,12,1,0,7
Y2-S2-203K22,3,283,PS,exp,34,→,right,→,0.6963213002309203,True,11,1,0,7
Y2-S2-203K22,3,284,PS,exp,41,↓,down,↓,0.6540747005492449,True,11,1,0,7
Y2-S2-203K22,3,285,PS,exp,47,↑,up,↑,0.5813450999557972,True,11,1,0,7
Y2-S2-203K22,3,286,PS,exp,27,←,left,←,0.8034196998924017,True,10,1,0,7
Y2-S2-203K22,3,287,PS,exp,50,↑,down,↓,1.2121526002883911,False,10,-1,1,8
Y2-S2-203K22,3,288,PS,exp,48,↓,left,←,1.3339829994365573,False,11,-1,0,8
Y2-S2-203K22,3,289,PS,exp,42,←,left,←,0.54916310030967,True,12,-1,0,8
Y2-S2-203K22,3,290,PS,exp,44,↑,up,↑,0.4530298002064228,True,12,-1,0,8
Y2-S2-203K22,3,291,PS,exp,45,←,left,←,0.45268520060926676,True,12,1,1,9
Y2-S2-203K22,3,292,PS,exp,49,↓,down,↓,0.6516722002997994,True,11,1,0,9
Y2-S2-203K22,3,293,PS,exp,26,→,right,→,0.48029599990695715,True,11,1,0,9
Y2-S2-203K22,3,294,PS,exp,29,←,left,←,0.42154869996011257,True,11,1,0,9
Y2-S2-203K22,3,295,PS,exp,35,↓,left,←,0.68109290022403,False,10,-1,1,10
Y2-S2-203K22,3,296,PS,exp,28,→,right,→,0.49630169942975044,True,11,-1,0,10
Y2-S2-203K22,3,297,PS,exp,49,↓,down,↓,0.6899531995877624,True,11,-1,0,10
Y2-S2-203K22,3,298,PS,exp,42,→,right,→,0.5192681001499295,True,11,1,1,11
Y2-S2-203K22,3,299,PS,exp,46,↓,right,→,0.9468352003023028,False,10,-1,1,12
Y2-S2-203K22,3,300,PS,exp,47,←,right,→,0.5756441000849009,False,11,-1,0,12
Y2-S2-203K22,3,301,PS,exp,41,→,left,←,0.802972299978137,False,12,-1,0,12
Y2-S2-203K22,3,302,PS,exp,43,↑,up,↑,0.4371397001668811,True,13,-1,0,12
Y2-S2-203K22,3,303,PS,exp,28,←,left,←,0.925602400675416,True,13,-1,0,12
Y2-S2-203K22,3,304,PS,exp,45,↓,down,↓,1.303141299635172,True,13,1,1,13
Y2-S2-203K22,3,305,PS,exp,37,←,left,←,1.0877104001119733,True,12,1,0,13
Y2-S2-203K22,3,306,PS,exp,29,→,right,→,0.5728978998959064,True,12,1,0,13
Y2-S2-203K22,3,307,PS,exp,38,←,left,←,0.3920187996700406,True,12,1,0,13
Y2-S2-203K22,3,308,PS,exp,50,↑,up,↑,0.5909652998670936,True,11,1,0,13
Y2-S2-203K22,3,309,PS,exp,27,→,right,→,0.5887996004894376,True,11,1,0,13
Y2-S2-203K22,3,310,PS,exp,45,↑,up,↑,0.5487831998616457,True,11,1,0,13
Y2-S2-203K22,3,311,PS,exp,33,←,left,←,0.48043750040233135,True,10,1,0,13
Y2-S2-203K22,3,312,PS,exp,49,→,right,→,0.7687644995748997,True,10,1,0,13
Y2-S2-203K22,3,313,PS,exp,29,↓,left,←,1.4481743006035686,False,10,-1,1,14
Y2-S2-203K22,3,314,PS,exp,26,←,left,←,0.5834073005244136,True,11,-1,0,14
Y2-S2-203K22,3,315,PS,exp,30,↑,up,↑,0.5654580006375909,True,11,-1,0,14
Y2-S2-203K22,3,316,PS,exp,33,↓,down,↓,0.6553563997149467,True,11,1,1,15
Y2-S2-203K22,3,317,PS,exp,42,↑,up,↑,0.5301975999027491,True,10,1,0,15
Y2-S2-203K22,3,318,PS,exp,39,→,right,→,0.4577933996915817,True,10,1,0,15
Y2-S2-203K22,3,319,PS,exp,32,↓,down,↓,0.7256563995033503,True,10,1,0,15
Y2-S2-203K22,3,320,PS,exp,34,↑,up,↑,0.584328600205481,True,9,1,0,15
Y2-S2-203K22,3,321,PS,exp,29,←,up,↑,0.8372279992327094,False,9,-1,1,16
Y2-S2-203K22,4,322,AS,intra_train,49,→,right,→,0.6672615008428693,True,34,-,-,-
Y2-S2-203K22,4,323,AS,intra_train,27,←,left,←,0.7934430995956063,True,34,-,-,-
Y2-S2-203K22,4,324,AS,intra_train,47,↑,up,↑,0.5009065000340343,True,34,-,-,-
Y2-S2-203K22,4,325,AS,intra_train,50,↓,down,↓,0.9007314005866647,True,34,-,-,-
Y2-S2-203K22,4,326,AS,intra_train,36,↑,up,↑,1.1058057006448507,True,34,-,-,-
Y2-S2-203K22,4,327,AS,exp,38,↓,down,↓,0.587733100168407,True,23,0,0,0
Y2-S2-203K22,4,328,AS,exp,49,↑,up,↑,1.2590934997424483,True,23,0,0,0
Y2-S2-203K22,4,329,AS,exp,28,→,right,→,0.4338170001283288,True,23,1,0,0
Y2-S2-203K22,4,330,AS,exp,41,↑,left,←,0.9069982999935746,False,22,-1,1,1
Y2-S2-203K22,4,331,AS,exp,45,←,left,←,0.48370600026100874,True,23,-1,0,1
Y2-S2-203K22,4,332,AS,exp,50,→,right,→,0.6210936000570655,True,23,-1,0,1
Y2-S2-203K22,4,333,AS,exp,42,↓,down,↓,0.9309772001579404,True,23,1,1,2
Y2-S2-203K22,4,334,AS,exp,29,→,right,→,0.636837899684906,True,22,1,0,2
Y2-S2-203K22,4,335,AS,exp,37,↑,left,←,1.5644797999411821,False,22,-1,1,3
Y2-S2-203K22,4,336,AS,exp,27,↓,down,↓,0.6221177000552416,True,23,-1,0,3
Y2-S2-203K22,4,337,AS,exp,28,↑,up,↑,0.8011103002354503,True,23,-1,0,3
Y2-S2-203K22,4,338,AS,exp,39,→,right,→,1.4186982000246644,True,23,1,1,4
Y2-S2-203K22,4,339,AS,exp,38,↓,down,↓,0.6057005999609828,True,22,1,0,4
Y2-S2-203K22,4,340,AS,exp,26,←,left,←,0.6000210996717215,True,22,1,0,4
Y2-S2-203K22,4,341,AS,exp,39,↑,right,→,0.5945921000093222,False,22,-1,1,5
Y2-S2-203K22,4,342,AS,exp,39,→,right,→,0.5178270004689693,True,23,-1,0,5
Y2-S2-203K22,4,343,AS,exp,33,←,left,←,0.7370718000456691,True,23,-1,0,5
Y2-S2-203K22,4,344,AS,exp,30,↑,up,↑,0.5173156997188926,True,23,1,1,6
Y2-S2-203K22,4,345,AS,exp,40,→,right,→,0.8971688998863101,True,22,1,0,6
Y2-S2-203K22,4,346,AS,exp,44,←,right,→,1.0391841996461153,False,22,-1,1,7
Y2-S2-203K22,4,347,AS,exp,44,↑,up,↑,0.7393531007692218,True,23,-1,0,7
Y2-S2-203K22,4,348,AS,exp,35,↓,down,↓,0.8725348003208637,True,23,-1,0,7
Y2-S2-203K22,4,349,AS,exp,37,←,left,←,0.41737999953329563,True,23,1,1,8
Y2-S2-203K22,4,350,AS,exp,26,→,left,←,0.8283953992649913,False,22,-1,1,9
Y2-S2-203K22,4,351,AS,exp,48,←,left,←,0.4838228998705745,True,23,-1,0,9
Y2-S2-203K22,4,352,AS,exp,26,↑,up,↑,0.8221727004274726,True,23,-1,0,9
Y2-S2-203K22,4,353,AS,exp,47,↓,up,↑,0.8079143995419145,False,23,-1,0,9
Y2-S2-203K22,4,354,AS,exp,41,→,up,↑,1.1582738002762198,False,24,-1,0,9
Y2-S2-203K22,4,355,AS,exp,31,↓,down,↓,0.6768356999382377,True,25,-1,0,9
Y2-S2-203K22,4,356,AS,exp,26,←,left,←,0.6629442004486918,True,25,-1,0,9
Y2-S2-203K22,4,357,AS,exp,28,→,right,→,0.9758425997570157,True,25,1,1,10
Y2-S2-203K22,4,358,AS,exp,30,↑,up,↑,0.6453876001760364,True,24,1,0,10
Y2-S2-203K22,4,359,AS,exp,26,↓,down,↓,0.9066722001880407,True,24,1,0,10
Y2-S2-203K22,4,360,AS,exp,33,→,right,→,0.6510167000815272,True,24,1,0,10
Y2-S2-203K22,4,361,AS,exp,44,↑,up,↑,0.4841769998893142,True,23,1,0,10
Y2-S2-203K22,4,362,AS,exp,39,←,left,←,0.5639782007783651,True,23,1,0,10
Y2-S2-203K22,4,363,AS,exp,45,↓,left,←,0.4011229006573558,False,23,-1,1,11
Y2-S2-203K22,4,364,AS,exp,30,←,left,←,0.8096976997330785,True,24,-1,0,11
Y2-S2-203K22,4,365,AS,exp,40,↑,up,↑,1.7075255000963807,True,24,-1,0,11
Y2-S2-203K22,4,366,AS,exp,39,↓,down,↓,0.5962900007143617,True,24,1,1,12
Y2-S2-203K22,4,367,AS,exp,30,→,right,→,0.7182672005146742,True,23,1,0,12
Y2-S2-203K22,4,368,AS,exp,50,←,right,→,0.48394380044192076,False,23,-1,1,13
Y2-S2-203K22,4,369,AS,exp,42,→,right,→,0.627883399836719,True,24,-1,0,13
Y2-S2-203K22,4,370,AS,exp,43,↑,up,↑,0.8620515000075102,True,24,-1,0,13
Y2-S2-203K22,4,371,AS,exp,42,←,left,←,0.5175216998904943,True,24,1,1,14
Y2-S2-203K22,4,372,AS,exp,28,→,up,↑,1.234324600547552,False,23,-1,1,15
Y2-S2-203K22,4,373,AS,exp,42,↑,left,←,1.009544499218464,False,24,-1,0,15
Y2-S2-203K22,4,374,AS,exp,46,↓,down,↓,0.9139105994254351,True,25,-1,0,15
Y2-S2-203K22,4,375,AS,exp,50,→,right,→,0.5504213999956846,True,25,-1,0,15
Y2-S2-203K22,4,376,AS,exp,27,↑,up,↑,0.6565638994798064,True,25,1,1,16
Y2-S2-203K22,5,377,AS,intra_train,49,↓,down,↓,0.6505797998979688,True,34,-,-,-
Y2-S2-203K22,5,378,AS,intra_train,36,↑,up,↑,0.9088741997256875,True,34,-,-,-
Y2-S2-203K22,5,379,AS,intra_train,30,↓,down,↓,0.9656397001817822,True,34,-,-,-
Y2-S2-203K22,5,380,AS,intra_train,25,↑,up,↑,0.5838599996641278,True,34,-,-,-
Y2-S2-203K22,5,381,AS,intra_train,35,←,left,←,0.5012701004743576,True,34,-,-,-
Y2-S2-203K22,5,382,AS,exp,40,↑,up,↑,0.5008268002420664,True,23,0,0,0
Y2-S2-203K22,5,383,AS,exp,29,↓,left,←,0.7414398994296789,False,23,-1,0,0
Y2-S2-203K22,5,384,AS,exp,47,←,left,←,0.534452399238944,True,24,-1,0,0
Y2-S2-203K22,5,385,AS,exp,42,→,right,→,0.6995481997728348,True,24,-1,0,0
Y2-S2-203K22,5,386,AS,exp,35,←,left,←,0.6067927004769444,True,24,1,1,1
Y2-S2-203K22,5,387,AS,exp,41,↑,up,↑,0.651851600036025,True,23,1,0,1
Y2-S2-203K22,5,388,AS,exp,34,↓,down,↓,0.5888804001733661,True,23,1,0,1
Y2-S2-203K22,5,389,AS,exp,34,←,left,←,0.8947104997932911,True,23,1,0,1
Y2-S2-203K22,5,390,AS,exp,41,→,right,→,0.4676911998540163,True,22,1,0,1
Y2-S2-203K22,5,391,AS,exp,50,↓,right,→,0.8527489993721247,False,22,-1,1,2
Y2-S2-203K22,5,392,AS,exp,33,←,left,←,0.7224393002688885,True,23,-1,0,2
Y2-S2-203K22,5,393,AS,exp,48,→,right,→,0.48384250048547983,True,23,-1,0,2
Y2-S2-203K22,5,394,AS,exp,42,←,left,←,1.6406612992286682,True,23,1,1,3
Y2-S2-203K22,5,395,AS,exp,40,↓,up,↑,1.1946264002472162,False,22,-1,1,4
Y2-S2-203K22,5,396,AS,exp,29,→,right,→,0.8374351998791099,True,23,-1,0,4
Y2-S2-203K22,5,397,AS,exp,29,←,left,←,0.4508467996492982,True,23,-1,0,4
Y2-S2-203K22,5,398,AS,exp,31,↑,right,→,1.1789410002529621,False,23,-1,0,4
Y2-S2-203K22,5,399,AS,exp,34,↓,down,↓,0.8762188004329801,True,24,-1,0,4
Y2-S2-203K22,5,400,AS,exp,44,↑,up,↑,0.4838668005540967,True,24,-1,0,4
Y2-S2-203K22,5,401,AS,exp,31,→,up,↑,1.0856176000088453,False,24,-1,0,4
Y2-S2-203K22,5,402,AS,exp,25,←,left,←,0.6394779002293944,True,25,-1,0,4
Y2-S2-203K22,5,403,AS,exp,42,↑,up,↑,0.7132544005289674,True,25,-1,0,4
Y2-S2-203K22,5,404,AS,exp,28,→,up,↑,1.1829972993582487,False,25,-1,0,4
Y2-S2-203K22,5,405,AS,exp,46,↓,down,↓,0.8359844004735351,True,26,-1,0,4
Y2-S2-203K22,5,406,AS,exp,42,←,left,←,0.7330115996301174,True,26,-1,0,4
Y2-S2-203K22,5,407,AS,exp,33,↑,down,↓,1.1088465005159378,False,26,-1,0,4
Y2-S2-203K22,5,408,AS,exp,42,→,right,→,0.7416543997824192,True,27,-1,0,4
Y2-S2-203K22,5,409,AS,exp,36,←,left,←,0.5507976999506354,True,27,-1,0,4
Y2-S2-203K22,5,410,AS,exp,30,→,right,→,0.691691099666059,True,27,1,1,5
Y2-S2-203K22,5,411,AS,exp,27,↓,down,↓,0.8993702000007033,True,26,1,0,5
Y2-S2-203K22,5,412,AS,exp,35,→,right,→,0.6543750008568168,True,26,1,0,5
Y2-S2-203K22,5,413,AS,exp,32,←,right,→,0.885632099583745,False,26,-1,1,6
Y2-S2-203K22,5,414,AS,exp,28,↑,up,↑,0.7005694005638361,True,27,-1,0,6
Y2-S2-203K22,5,415,AS,exp,30,↓,down,↓,0.8799579003825784,True,27,-1,0,6
Y2-S2-203K22,5,416,AS,exp,37,→,right,→,0.4339519999921322,True,27,1,1,7
Y2-S2-203K22,5,417,AS,exp,40,↑,up,↑,0.6928611006587744,True,26,1,0,7
Y2-S2-203K22,5,418,AS,exp,40,↓,down,↓,0.708474799990654,True,26,1,0,7
Y2-S2-203K22,5,419,AS,exp,37,↑,no_key,no_letter,-1.0,False,26,-1,1,8
Y2-S2-203K22,5,420,AS,exp,48,←,right,→,1.0495575005188584,False,27,-1,0,8
Y2-S2-203K22,5,421,AS,exp,34,→,left,←,0.6002933997660875,False,28,-1,0,8
Y2-S2-203K22,5,422,AS,exp,31,←,left,←,0.9431308005005121,True,29,-1,0,8
Y2-S2-203K22,5,423,AS,exp,38,↓,down,↓,0.8266799002885818,True,29,-1,0,8
Y2-S2-203K22,5,424,AS,exp,35,→,right,→,0.680766399949789,True,29,1,1,9
Y2-S2-203K22,5,425,AS,exp,27,↑,left,←,0.40095230005681515,False,28,-1,1,10
Y2-S2-203K22,5,426,AS,exp,48,↓,down,↓,0.8758015995845199,True,29,-1,0,10
Y2-S2-203K22,5,427,AS,exp,50,↑,up,↑,0.9278059992939234,True,29,-1,0,10
Y2-S2-203K22,5,428,AS,exp,50,↓,down,↓,0.7039528004825115,True,29,1,1,11
Y2-S2-203K22,5,429,AS,exp,48,←,right,→,0.6502833003178239,False,28,-1,1,12
Y2-S2-203K22,5,430,AS,exp,28,→,right,→,0.7290118997916579,True,29,-1,0,12
Y2-S2-203K22,5,431,AS,exp,26,←,left,←,0.45069089997559786,True,29,-1,0,12
Y2-S2-203K22,5,432,AS,exp,43,↑,up,↑,0.5171478996053338,True,29,1,1,13
Y2-S2-203K22,5,433,AS,exp,38,↓,down,↓,0.8787756999954581,True,28,1,0,13
Y2-S2-203K22,5,434,AS,exp,36,←,left,←,0.7166170999407768,True,28,1,0,13
Y2-S2-203K22,5,435,AS,exp,31,↑,up,↑,0.4669428998604417,True,28,1,0,13
Y2-S2-203K22,5,436,AS,exp,35,↓,down,↓,0.8995575997978449,True,27,1,0,13
Y2-S2-203K22,5,437,AS,exp,33,↑,up,↑,0.7607223000377417,True,27,1,0,13
Y2-S2-203K22,5,438,AS,exp,28,←,left,←,0.6444413997232914,True,27,1,0,13
Y2-S2-203K22,5,439,AS,exp,35,→,left,←,0.8288952000439167,False,26,-1,1,14
Y2-S2-203K22,5,440,AS,exp,43,↑,no_key,no_letter,-1.0,False,27,-1,0,14
Y2-S2-203K22,5,441,AS,exp,27,→,left,←,0.813357699662447,False,28,-1,0,14
Y2-S2-203K22,5,442,AS,exp,42,↓,down,↓,0.8873600997030735,True,29,-1,0,14
Y2-S2-203K22,5,443,AS,exp,30,←,left,←,0.5006205998361111,True,29,-1,0,14
Y2-S2-203K22,5,444,AS,exp,25,↑,up,↑,0.6172032998874784,True,29,1,1,15
Y2-S2-203K22,5,445,AS,exp,35,→,right,→,0.584226300008595,True,28,1,0,15
Y2-S2-203K22,5,446,AS,exp,29,↑,up,↑,0.8300144001841545,True,28,1,0,15
Y2-S2-203K22,5,447,AS,exp,42,→,right,→,0.5671680998057127,True,28,1,0,15
Y2-S2-203K22,5,448,AS,exp,41,↓,down,↓,1.0019280007109046,True,27,1,0,15
Y2-S2-203K22,5,449,AS,exp,29,→,right,→,0.5008614994585514,True,27,1,0,15
Y2-S2-203K22,5,450,AS,exp,25,↑,up,↑,0.6846770998090506,True,27,1,0,15
Y2-S2-203K22,5,451,AS,exp,27,↓,down,↓,0.67538239993155,True,26,1,0,15
Y2-S2-203K22,5,452,AS,exp,32,↑,up,↑,0.4338350994512439,True,26,1,0,15
Y2-S2-203K22,5,453,AS,exp,41,→,right,→,0.5174062997102737,True,26,1,0,15
Y2-S2-203K22,5,454,AS,exp,40,←,no_key,no_letter,-1.0,False,25,-1,1,16
Y2-S2-203K22,6,455,PS,intra_train,29,↑,up,↑,0.5694778999313712,True,12,-,-,-
Y2-S2-203K22,6,456,PS,intra_train,38,→,right,→,0.42408370040357113,True,12,-,-,-
Y2-S2-203K22,6,457,PS,intra_train,36,↑,up,↑,0.5267861001193523,True,12,-,-,-
Y2-S2-203K22,6,458,PS,intra_train,47,←,right,→,0.3338163001462817,False,12,-,-,-
Y2-S2-203K22,6,459,PS,intra_train,31,↓,down,↓,0.6349173001945019,True,12,-,-,-
Y2-S2-203K22,6,460,PS,exp,39,←,right,→,0.7887671999633312,False,8,-1,0,0
Y2-S2-203K22,6,461,PS,exp,45,↑,up,↑,0.45351830031722784,True,9,-1,0,0
Y2-S2-203K22,6,462,PS,exp,33,←,left,←,0.48739369958639145,True,9,-1,0,0
Y2-S2-203K22,6,463,PS,exp,43,↑,up,↑,0.4231845000758767,True,9,1,1,1
Y2-S2-203K22,6,464,PS,exp,25,←,left,←,0.638485100120306,True,8,1,0,1
Y2-S2-203K22,6,465,PS,exp,31,↓,down,↓,0.7114119995385408,True,8,1,0,1
Y2-S2-203K22,6,466,PS,exp,37,→,right,→,0.6420632004737854,True,8,1,0,1
Y2-S2-203K22,6,467,PS,exp,39,↑,up,↑,0.629738699644804,True,7,1,0,1
Y2-S2-203K22,6,468,PS,exp,36,←,left,←,0.4122021999210119,True,7,1,0,1
Y2-S2-203K22,6,469,PS,exp,47,↑,left,←,0.5276463003829122,False,7,-1,1,2
Y2-S2-203K22,6,470,PS,exp,30,→,right,→,0.5316707994788885,True,8,-1,0,2
Y2-S2-203K22,6,471,PS,exp,42,↓,down,↓,0.6315996004268527,True,8,-1,0,2
Y2-S2-203K22,6,472,PS,exp,26,→,left,←,0.5532205002382398,False,8,-1,0,2
Y2-S2-203K22,6,473,PS,exp,27,←,down,↓,0.7402220005169511,False,9,-1,0,2
Y2-S2-203K22,6,474,PS,exp,32,↑,up,↑,0.9280202994123101,True,10,-1,0,2
Y2-S2-203K22,6,475,PS,exp,42,←,up,↑,1.0026931995525956,False,10,-1,0,2
Y2-S2-203K22,6,476,PS,exp,44,↑,up,↑,0.5157759999856353,True,11,-1,0,2
Y2-S2-203K22,6,477,PS,exp,31,→,right,→,0.5642797006294131,True,11,-1,0,2
Y2-S2-203K22,6,478,PS,exp,48,↑,left,←,0.6375390002503991,False,11,-1,0,2
Y2-S2-203K22,6,479,PS,exp,31,↓,down,↓,0.6494490997865796,True,12,-1,0,2
Y2-S2-203K22,6,480,PS,exp,48,→,right,→,0.4207913000136614,True,12,-1,0,2
Y2-S2-203K22,6,481,PS,exp,44,↓,down,↓,0.8081718999892473,True,12,1,1,3
Y2-S2-203K22,6,482,PS,exp,30,←,left,←,0.5596861001104116,True,11,1,0,3
Y2-S2-203K22,6,483,PS,exp,31,→,right,→,0.48587850015610456,True,11,1,0,3
Y2-S2-203K22,6,484,PS,exp,38,↓,down,↓,0.6190122999250889,True,11,1,0,3
Y2-S2-203K22,6,485,PS,exp,37,←,left,←,0.38196090050041676,True,10,1,0,3
Y2-S2-203K22,6,486,PS,exp,50,↓,right,→,0.6102225994691253,False,10,-1,1,4
Y2-S2-203K22,6,487,PS,exp,28,←,right,→,0.6776738995686173,False,11,-1,0,4
Y2-S2-203K22,6,488,PS,exp,38,↓,down,↓,0.7011951003223658,True,12,-1,0,4
Y2-S2-203K22,6,489,PS,exp,43,↑,up,↑,0.4816586999222636,True,12,-1,0,4
Y2-S2-203K22,6,490,PS,exp,25,←,right,→,0.9281998993828893,False,12,-1,0,4
Y2-S2-203K22,6,491,PS,exp,38,↑,up,↑,1.0475789997726679,True,13,-1,0,4
Y2-S2-203K22,6,492,PS,exp,33,←,left,←,0.5036039995029569,True,13,-1,0,4
Y2-S2-203K22,6,493,PS,exp,48,↑,up,↑,0.5491564003750682,True,13,1,1,5
Y2-S2-203K22,6,494,PS,exp,36,↓,down,↓,0.5703004999086261,True,12,1,0,5
Y2-S2-203K22,6,495,PS,exp,25,↑,up,↑,0.5577927995473146,True,12,1,0,5
Y2-S2-203K22,6,496,PS,exp,48,→,right,→,0.4503031000494957,True,12,1,0,5
Y2-S2-203K22,6,497,PS,exp,33,↓,left,←,0.6500137001276016,False,11,-1,1,6
Y2-S2-203K22,6,498,PS,exp,50,↑,up,↑,0.45500489976257086,True,12,-1,0,6
Y2-S2-203K22,6,499,PS,exp,46,↓,down,↓,0.697091699577868,True,12,-1,0,6
Y2-S2-203K22,6,500,PS,exp,49,←,left,←,0.44915710017085075,True,12,1,1,7
Y2-S2-203K22,6,501,PS,exp,35,→,left,←,0.571909399703145,False,11,-1,1,8
Y2-S2-203K22,6,502,PS,exp,32,↓,down,↓,0.6074302000924945,True,12,-1,0,8
Y2-S2-203K22,6,503,PS,exp,47,←,left,←,0.4566722996532917,True,12,-1,0,8
Y2-S2-203K22,6,504,PS,exp,40,↓,down,↓,0.563756600022316,True,12,1,1,9
Y2-S2-203K22,6,505,PS,exp,44,→,down,↓,0.7250739000737667,False,11,-1,1,10
Y2-S2-203K22,6,506,PS,exp,45,↓,down,↓,0.4314775997772813,True,12,-1,0,10
Y2-S2-203K22,6,507,PS,exp,46,↑,up,↑,0.6123607000336051,True,12,-1,0,10
Y2-S2-203K22,6,508,PS,exp,25,→,right,→,0.4477716004475951,True,12,1,1,11
Y2-S2-203K22,6,509,PS,exp,38,↑,up,↑,0.49959299992769957,True,11,1,0,11
Y2-S2-203K22,6,510,PS,exp,36,←,right,→,0.8150271000340581,False,11,-1,1,12
Y2-S2-203K22,6,511,PS,exp,43,↓,up,↑,0.6345327002927661,False,12,-1,0,12
Y2-S2-203K22,6,512,PS,exp,41,←,left,←,0.5164495995268226,True,13,-1,0,12
Y2-S2-203K22,6,513,PS,exp,41,→,right,→,0.5480696996673942,True,13,-1,0,12
Y2-S2-203K22,6,514,PS,exp,33,←,left,←,0.4456973001360893,True,13,1,1,13
Y2-S2-203K22,6,515,PS,exp,50,↑,up,↑,0.42977739963680506,True,12,1,0,13
Y2-S2-203K22,6,516,PS,exp,29,→,right,→,0.4693007003515959,True,12,1,0,13
Y2-S2-203K22,6,517,PS,exp,41,↓,down,↓,0.7411705991253257,True,12,1,0,13
Y2-S2-203K22,6,518,PS,exp,41,↑,up,↑,0.5137513000518084,True,11,1,0,13
Y2-S2-203K22,6,519,PS,exp,25,↓,down,↓,0.5910458993166685,True,11,1,0,13
Y2-S2-203K22,6,520,PS,exp,48,↑,up,↑,0.48324690014123917,True,11,1,0,13
Y2-S2-203K22,6,521,PS,exp,47,←,up,↑,0.7139704003930092,False,10,-1,1,14
Y2-S2-203K22,6,522,PS,exp,46,↓,down,↓,0.6809726003557444,True,11,-1,0,14
Y2-S2-203K22,6,523,PS,exp,38,↑,up,↑,0.5395631995052099,True,11,-1,0,14
Y2-S2-203K22,6,524,PS,exp,27,↓,down,↓,0.7202172996476293,True,11,1,1,15
Y2-S2-203K22,6,525,PS,exp,37,→,right,→,0.4688427001237869,True,10,1,0,15
Y2-S2-203K22,6,526,PS,exp,43,←,up,↑,0.9780767001211643,False,10,-1,1,16
Y2-S2-203K22,7,527,PS,intra_train,44,↓,down,↓,0.5890466002747416,True,12,-,-,-
Y2-S2-203K22,7,528,PS,intra_train,50,←,left,←,1.1526295002549887,True,12,-,-,-
Y2-S2-203K22,7,529,PS,intra_train,47,↑,up,↑,0.47469309996813536,True,12,-,-,-
Y2-S2-203K22,7,530,PS,intra_train,25,→,right,→,0.5134501997381449,True,12,-,-,-
Y2-S2-203K22,7,531,PS,intra_train,31,↑,up,↑,0.4949735999107361,True,12,-,-,-
Y2-S2-203K22,7,532,PS,exp,37,→,right,→,0.5797100998461246,True,8,0,0,0
Y2-S2-203K22,7,533,PS,exp,43,↓,right,→,0.8621034994721413,False,8,-1,0,0
Y2-S2-203K22,7,534,PS,exp,30,↑,up,↑,0.5581676000729203,True,9,-1,0,0
Y2-S2-203K22,7,535,PS,exp,49,↓,right,→,0.7150135999545455,False,9,-1,0,0
Y2-S2-203K22,7,536,PS,exp,47,→,right,→,0.4830130999907851,True,10,-1,0,0
Y2-S2-203K22,7,537,PS,exp,30,←,left,←,0.5082630002871156,True,10,-1,0,0
Y2-S2-203K22,7,538,PS,exp,33,→,right,→,0.38353769946843386,True,10,1,1,1
Y2-S2-203K22,7,539,PS,exp,27,←,right,→,0.54648909997195,False,9,-1,1,2
Y2-S2-203K22,7,540,PS,exp,38,→,right,→,0.4490037001669407,True,10,-1,0,2
Y2-S2-203K22,7,541,PS,exp,31,↓,left,←,0.5439935000613332,False,10,-1,0,2
Y2-S2-203K22,7,542,PS,exp,37,←,right,→,0.9317203005775809,False,11,-1,0,2
Y2-S2-203K22,7,543,PS,exp,36,→,left,←,0.6113386992365122,False,12,-1,0,2
Y2-S2-203K22,7,544,PS,exp,26,↓,down,↓,0.7916894992813468,True,13,-1,0,2
Y2-S2-203K22,7,545,PS,exp,27,↑,right,→,0.5276446994394064,False,13,-1,0,2
Y2-S2-203K22,7,546,PS,exp,32,→,right,→,0.6263870997354388,True,14,-1,0,2
Y2-S2-203K22,7,547,PS,exp,36,↑,right,→,0.5570035995915532,False,14,-1,0,2
Y2-S2-203K22,7,548,PS,exp,42,←,left,←,0.4274232005700469,True,15,-1,0,2
Y2-S2-203K22,7,549,PS,exp,33,↑,up,↑,0.43882070016115904,True,15,-1,0,2
Y2-S2-203K22,7,550,PS,exp,43,↓,down,↓,0.6403905004262924,True,15,1,1,3
Y2-S2-203K22,7,551,PS,exp,27,↑,up,↑,0.508351200260222,True,14,1,0,3
Y2-S2-203K22,7,552,PS,exp,25,→,left,←,0.67972999997437,False,14,-1,1,4
Y2-S2-203K22,7,553,PS,exp,32,↑,left,←,0.528082299977541,False,15,-1,0,4
Y2-S2-203K22,7,554,PS,exp,31,↓,left,←,0.4590129004791379,False,16,-1,0,4
Y2-S2-203K22,7,555,PS,exp,44,↑,up,↑,0.5071368999779224,True,17,-1,0,4
Y2-S2-203K22,7,556,PS,exp,28,↓,down,↓,0.5712152002379298,True,17,-1,0,4
Y2-S2-203K22,7,557,PS,exp,43,→,right,→,0.4982642997056246,True,17,1,1,5
Y2-S2-203K22,7,558,PS,exp,48,←,left,←,0.48999609984457493,True,16,1,0,5
Y2-S2-203K22,7,559,PS,exp,45,↓,down,↓,0.6311470996588469,True,16,1,0,5
Y2-S2-203K22,7,560,PS,exp,39,→,no_key,no_letter,-1.0,False,16,-1,1,6
Y2-S2-203K22,7,561,PS,exp,34,↓,right,→,0.7244648998603225,False,17,-1,0,6
Y2-S2-203K22,7,562,PS,exp,41,→,right,→,0.5595988994464278,True,18,-1,0,6
Y2-S2-203K22,7,563,PS,exp,45,←,right,→,0.3838256997987628,False,18,-1,0,6
Y2-S2-203K22,7,564,PS,exp,25,→,right,→,1.093685899861157,True,19,-1,0,6
Y2-S2-203K22,7,565,PS,exp,44,←,left,←,0.43382740020751953,True,19,-1,0,6
Y2-S2-203K22,7,566,PS,exp,34,↓,down,↓,0.7466345001012087,True,19,1,1,7
Y2-S2-203K22,7,567,PS,exp,33,←,left,←,0.548560299910605,True,18,1,0,7
Y2-S2-203K22,7,568,PS,exp,35,↑,left,←,0.8050688002258539,False,18,-1,1,8
Y2-S2-203K22,7,569,PS,exp,26,↓,down,↓,0.5285766003653407,True,19,-1,0,8
Y2-S2-203K22,7,570,PS,exp,42,←,left,←,0.4007571004331112,True,19,-1,0,8
Y2-S2-203K22,7,571,PS,exp,50,→,right,→,0.5932748997583985,True,19,1,1,9
Y2-S2-203K22,7,572,PS,exp,43,↓,down,↓,0.6842518001794815,True,18,1,0,9
Y2-S2-203K22,7,573,PS,exp,37,↑,down,↓,0.8771003996953368,False,18,-1,1,10
Y2-S2-203K22,7,574,PS,exp,30,←,left,←,0.5423210998997092,True,19,-1,0,10
Y2-S2-203K22,7,575,PS,exp,38,→,right,→,0.6594136999920011,True,19,-1,0,10
Y2-S2-203K22,7,576,PS,exp,49,↑,up,↑,0.6404683999717236,True,19,1,1,11
Y2-S2-203K22,7,577,PS,exp,25,→,right,→,0.4824390998110175,True,18,1,0,11
Y2-S2-203K22,7,578,PS,exp,35,↑,up,↑,0.764533500187099,True,18,1,0,11
Y2-S2-203K22,7,579,PS,exp,39,↓,down,↓,0.7081888997927308,True,18,1,0,11
Y2-S2-203K22,7,580,PS,exp,37,↑,up,↑,0.48857029993087053,True,17,1,0,11
Y2-S2-203K22,7,581,PS,exp,45,←,left,←,0.4974627997726202,True,17,1,0,11
Y2-S2-203K22,7,582,PS,exp,28,→,up,↑,1.0619681999087334,False,17,-1,1,12
Y2-S2-203K22,7,583,PS,exp,26,←,left,←,0.5027283998206258,True,18,-1,0,12
Y2-S2-203K22,7,584,PS,exp,37,↓,down,↓,0.635117900557816,True,18,-1,0,12
Y2-S2-203K22,7,585,PS,exp,29,↑,up,↑,0.43424220010638237,True,18,1,1,13
Y2-S2-203K22,7,586,PS,exp,47,↓,down,↓,0.8503833999857306,True,17,1,0,13
Y2-S2-203K22,7,587,PS,exp,50,↑,up,↑,1.2327173007652164,True,17,1,0,13
Y2-S2-203K22,7,588,PS,exp,50,←,left,←,0.5843013003468513,True,17,1,0,13
Y2-S2-203K22,7,589,PS,exp,34,↑,up,↑,0.5839096996933222,True,16,1,0,13
Y2-S2-203K22,7,590,PS,exp,39,↓,up,↑,0.4004767006263137,False,16,-1,1,14
Y2-S2-203K22,7,591,PS,exp,40,↑,up,↑,0.5574284000322223,True,17,-1,0,14
Y2-S2-203K22,7,592,PS,exp,27,↓,down,↓,0.5705531993880868,True,17,-1,0,14
Y2-S2-203K22,7,593,PS,exp,34,↑,up,↑,0.6083698999136686,True,17,1,1,15
Y2-S2-203K22,7,594,PS,exp,31,↓,down,↓,0.548696800135076,True,16,1,0,15
Y2-S2-203K22,7,595,PS,exp,45,↑,up,↑,0.5152099002152681,True,16,1,0,15
Y2-S2-203K22,7,596,PS,exp,36,→,right,→,0.6065692994743586,True,16,1,0,15
Y2-S2-203K22,7,597,PS,exp,45,↓,down,↓,0.5578720001503825,True,15,1,0,15
Y2-S2-203K22,7,598,PS,exp,50,→,right,→,0.3672440005466342,True,15,1,0,15
Y2-S2-203K22,7,599,PS,exp,41,↓,down,↓,0.625985799357295,True,15,1,0,15
Y2-S2-203K22,7,600,PS,exp,45,←,left,←,0.5538752004504204,True,14,1,0,15
Y2-S2-203K22,7,601,PS,exp,27,↓,down,↓,0.5836169002577662,True,14,1,0,15
Y2-S2-203K22,7,602,PS,exp,45,→,right,→,0.9343082001432776,True,14,1,0,15
Y2-S2-203K22,7,603,PS,exp,27,↓,down,↓,0.6754866000264883,True,13,1,0,15
Y2-S2-203K22,7,604,PS,exp,46,←,left,←,0.5083584999665618,True,13,1,0,15
Y2-S2-203K22,7,605,PS,exp,46,→,right,→,0.45376310031861067,True,13,1,0,15
Y2-S2-203K22,7,606,PS,exp,44,↓,down,↓,0.5921139996498823,True,12,1,0,15
Y2-S2-203K22,7,607,PS,exp,38,←,left,←,0.47883510030806065,True,12,1,0,15
Y2-S2-203K22,7,608,PS,exp,33,→,left,←,0.731160799972713,False,12,-1,1,16
Y2-S2-203K22,8,609,AS,intra_train,38,↑,up,↑,0.5012623993679881,True,34,-,-,-
Y2-S2-203K22,8,610,AS,intra_train,32,←,left,←,0.417888599447906,True,34,-,-,-
Y2-S2-203K22,8,611,AS,intra_train,32,↓,down,↓,0.8477817000821233,True,34,-,-,-
Y2-S2-203K22,8,612,AS,intra_train,47,←,left,←,0.5010382998734713,True,34,-,-,-
Y2-S2-203K22,8,613,AS,intra_train,40,↑,up,↑,0.4342241995036602,True,34,-,-,-
Y2-S2-203K22,8,614,AS,exp,29,→,right,→,0.4177481001242995,True,23,0,0,0
Y2-S2-203K22,8,615,AS,exp,47,↓,down,↓,0.5687424000352621,True,23,0,0,0
Y2-S2-203K22,8,616,AS,exp,43,←,left,←,0.7945469999685884,True,23,1,0,0
Y2-S2-203K22,8,617,AS,exp,49,↓,down,↓,0.7384610995650291,True,22,1,0,0
Y2-S2-203K22,8,618,AS,exp,50,←,left,←,0.547516300342977,True,22,1,0,0
Y2-S2-203K22,8,619,AS,exp,39,↓,down,↓,0.7507548006251454,True,22,1,0,0
Y2-S2-203K22,8,620,AS,exp,49,←,left,←,0.6132212001830339,True,21,1,0,0
Y2-S2-203K22,8,621,AS,exp,30,→,right,→,0.3838409995660186,True,21,1,0,0
Y2-S2-203K22,8,622,AS,exp,28,↑,up,↑,0.4171278001740575,True,21,1,0,0
Y2-S2-203K22,8,623,AS,exp,32,←,left,←,0.4671097006648779,True,20,1,0,0
Y2-S2-203K22,8,624,AS,exp,26,↓,left,←,0.8750523002818227,False,20,-1,1,1
Y2-S2-203K22,8,625,AS,exp,31,↑,up,↑,0.43428999930620193,True,21,-1,0,1
Y2-S2-203K22,8,626,AS,exp,33,↓,down,↓,0.7605624999850988,True,21,-1,0,1
Y2-S2-203K22,8,627,AS,exp,43,↑,up,↑,0.7302810000255704,True,21,1,1,2
Y2-S2-203K22,8,628,AS,exp,38,→,left,←,0.5549495993182063,False,20,-1,1,3
Y2-S2-203K22,8,629,AS,exp,32,↓,down,↓,0.8304702993482351,True,21,-1,0,3
Y2-S2-203K22,8,630,AS,exp,28,←,left,←,0.6003385996446013,True,21,-1,0,3
Y2-S2-203K22,8,631,AS,exp,47,↑,up,↑,0.7754052001982927,True,21,1,1,4
Y2-S2-203K22,8,632,AS,exp,46,→,right,→,0.5370803000405431,True,20,1,0,4
Y2-S2-203K22,8,633,AS,exp,44,←,left,←,0.775097300298512,True,20,1,0,4
Y2-S2-203K22,8,634,AS,exp,46,↓,right,→,1.0765180997550488,False,20,-1,1,5
Y2-S2-203K22,8,635,AS,exp,36,→,right,→,0.5396210001781583,True,21,-1,0,5
Y2-S2-203K22,8,636,AS,exp,35,←,left,←,0.6237989999353886,True,21,-1,0,5
Y2-S2-203K22,8,637,AS,exp,34,↓,up,↑,0.4507000995799899,False,21,-1,0,5
Y2-S2-203K22,8,638,AS,exp,30,←,left,←,0.5392301995307207,True,22,-1,0,5
Y2-S2-203K22,8,639,AS,exp,48,↑,up,↑,0.9377641994506121,True,22,-1,0,5
Y2-S2-203K22,8,640,AS,exp,33,←,left,←,0.7082746000960469,True,22,1,1,6
Y2-S2-203K22,8,641,AS,exp,29,↑,up,↑,0.5191977005451918,True,21,1,0,6
Y2-S2-203K22,8,642,AS,exp,31,←,left,←,0.46725570037961006,True,21,1,0,6
Y2-S2-203K22,8,643,AS,exp,41,↑,up,↑,1.2384828999638557,True,21,1,0,6
Y2-S2-203K22,8,644,AS,exp,44,↓,right,→,0.8883228003978729,False,20,-1,1,7
Y2-S2-203K22,8,645,AS,exp,45,↑,up,↑,0.5935857994481921,True,21,-1,0,7
Y2-S2-203K22,8,646,AS,exp,44,←,left,←,0.5871812999248505,True,21,-1,0,7
Y2-S2-203K22,8,647,AS,exp,47,↑,up,↑,0.6752565000206232,True,21,1,1,8
Y2-S2-203K22,8,648,AS,exp,26,←,left,←,0.5059057995676994,True,20,1,0,8
Y2-S2-203K22,8,649,AS,exp,45,↓,down,↓,0.6000501997768879,True,20,1,0,8
Y2-S2-203K22,8,650,AS,exp,30,→,right,→,0.450521900318563,True,20,1,0,8
Y2-S2-203K22,8,651,AS,exp,44,↓,down,↓,0.5125274993479252,True,19,1,0,8
Y2-S2-203K22,8,652,AS,exp,41,→,right,→,0.6815132005140185,True,19,1,0,8
Y2-S2-203K22,8,653,AS,exp,36,↓,down,↓,0.555553799495101,True,19,1,0,8
Y2-S2-203K22,8,654,AS,exp,33,↑,up,↑,0.4847368001937866,True,18,1,0,8
Y2-S2-203K22,8,655,AS,exp,34,↓,down,↓,0.6965999007225037,True,18,1,0,8
Y2-S2-203K22,8,656,AS,exp,40,→,right,→,0.6574478000402451,True,18,1,0,8
Y2-S2-203K22,8,657,AS,exp,47,↓,down,↓,0.7184202000498772,True,17,1,0,8
Y2-S2-203K22,8,658,AS,exp,40,→,right,→,0.41719970013946295,True,17,1,0,8
Y2-S2-203K22,8,659,AS,exp,50,↓,down,↓,0.600289000198245,True,17,1,0,8
Y2-S2-203K22,8,660,AS,exp,40,←,left,←,0.47086890041828156,True,16,1,0,8
Y2-S2-203K22,8,661,AS,exp,25,→,left,←,1.010330299846828,False,16,-1,1,9
Y2-S2-203K22,8,662,AS,exp,29,↓,left,←,1.084554299712181,False,17,-1,0,9
Y2-S2-203K22,8,663,AS,exp,37,↑,down,↓,1.4101137006655335,False,18,-1,0,9
Y2-S2-203K22,8,664,AS,exp,29,↓,down,↓,0.6484609004110098,True,19,-1,0,9
Y2-S2-203K22,8,665,AS,exp,30,←,left,←,0.4506614999845624,True,19,-1,0,9
Y2-S2-203K22,8,666,AS,exp,47,↑,down,↓,1.5938672004267573,False,19,-1,0,9
Y2-S2-203K22,8,667,AS,exp,40,→,right,→,0.6780214998871088,True,20,-1,0,9
Y2-S2-203K22,8,668,AS,exp,33,←,left,←,0.5430640997365117,True,20,-1,0,9
Y2-S2-203K22,8,669,AS,exp,30,↑,up,↑,0.5694952001795173,True,20,1,1,10
Y2-S2-203K22,8,670,AS,exp,28,←,left,←,0.7932267999276519,True,19,1,0,10
Y2-S2-203K22,8,671,AS,exp,26,↑,up,↑,0.7994854003190994,True,19,1,0,10
Y2-S2-203K22,8,672,AS,exp,36,↓,left,←,0.7751865005120635,False,19,-1,1,11
Y2-S2-203K22,8,673,AS,exp,26,→,left,←,0.7459201002493501,False,20,-1,0,11
Y2-S2-203K22,8,674,AS,exp,30,←,left,←,0.5238308003172278,True,21,-1,0,11
Y2-S2-203K22,8,675,AS,exp,29,↑,up,↑,0.7034034999087453,True,21,-1,0,11
Y2-S2-203K22,8,676,AS,exp,42,←,left,←,0.4340193998068571,True,21,1,1,12
Y2-S2-203K22,8,677,AS,exp,50,↑,up,↑,0.4338953997939825,True,20,1,0,12
Y2-S2-203K22,8,678,AS,exp,37,→,right,→,0.8892898997291923,True,20,1,0,12
Y2-S2-203K22,8,679,AS,exp,40,←,left,←,0.6811467995867133,True,20,1,0,12
Y2-S2-203K22,8,680,AS,exp,50,↑,up,↑,0.4941861005499959,True,19,1,0,12
Y2-S2-203K22,8,681,AS,exp,31,↓,down,↓,0.6275338996201754,True,19,1,0,12
Y2-S2-203K22,8,682,AS,exp,39,↑,up,↑,1.4260684000328183,True,19,1,0,12
Y2-S2-203K22,8,683,AS,exp,32,→,right,→,0.48926660045981407,True,18,1,0,12
Y2-S2-203K22,8,684,AS,exp,40,↓,left,←,1.1687101004645228,False,18,-1,1,13
Y2-S2-203K22,8,685,AS,exp,28,←,left,←,0.5577002000063658,True,19,-1,0,13
Y2-S2-203K22,8,686,AS,exp,31,↑,up,↑,0.6169434003531933,True,19,-1,0,13
Y2-S2-203K22,8,687,AS,exp,33,↓,left,←,0.829330999404192,False,19,-1,0,13
Y2-S2-203K22,8,688,AS,exp,44,↑,up,↑,0.41709860041737556,True,20,-1,0,13
Y2-S2-203K22,8,689,AS,exp,35,→,right,→,0.46709110029041767,True,20,-1,0,13
Y2-S2-203K22,8,690,AS,exp,40,↑,up,↑,0.4017824996262789,True,20,1,1,14
Y2-S2-203K22,8,691,AS,exp,30,↓,down,↓,0.6258124997839332,True,19,1,0,14
Y2-S2-203K22,8,692,AS,exp,30,↑,up,↑,0.9823998007923365,True,19,1,0,14
Y2-S2-203K22,8,693,AS,exp,25,→,right,→,1.1890162006020546,True,19,1,0,14
Y2-S2-203K22,8,694,AS,exp,32,←,left,←,0.529352200217545,True,18,1,0,14
Y2-S2-203K22,8,695,AS,exp,32,→,right,→,0.41702819988131523,True,18,1,0,14
Y2-S2-203K22,8,696,AS,exp,29,←,left,←,0.6421814998611808,True,18,1,0,14
Y2-S2-203K22,8,697,AS,exp,43,→,left,←,0.9054910000413656,False,17,-1,1,15
Y2-S2-203K22,8,698,AS,exp,39,←,left,←,0.8134147003293037,True,18,-1,0,15
Y2-S2-203K22,8,699,AS,exp,28,↓,left,←,0.7555645992979407,False,18,-1,0,15
Y2-S2-203K22,8,700,AS,exp,28,↑,left,←,0.8639476001262665,False,19,-1,0,15
Y2-S2-203K22,8,701,AS,exp,39,↓,down,↓,0.6145654004067183,True,20,-1,0,15
Y2-S2-203K22,8,702,AS,exp,38,↑,up,↑,1.3150119995698333,True,20,-1,0,15
Y2-S2-203K22,8,703,AS,exp,34,←,left,←,0.5105747999623418,True,20,1,1,16
