PART_ID,Block_no,Trial_no,Block_type,Trial_type,CSI,Stim_letter,Key_pressed,letter_choose,Rt,Corr,Stimulus Time,Level,Reversal,Revs_count
Y2-S2-166K18,1,1,PS,train,32,↑,up,↑,0.993611400015652,True,30,-,-,-
Y2-S2-166K18,1,2,PS,train,30,←,left,←,0.841050799994264,True,30,-,-,-
Y2-S2-166K18,1,3,PS,train,41,↑,right,→,1.57458699995186,False,30,-,-,-
Y2-S2-166K18,1,4,PS,train,35,→,right,→,0.810926200007089,True,30,-,-,-
Y2-S2-166K18,1,5,PS,train,25,↓,down,↓,0.981817300023977,True,30,-,-,-
Y2-S2-166K18,1,6,PS,train,41,↑,up,↑,0.784206199983601,True,30,-,-,-
Y2-S2-166K18,1,7,PS,train,49,↓,down,↓,0.957089899980929,True,30,-,-,-
Y2-S2-166K18,1,8,PS,train,46,→,right,→,0.776895000017248,True,30,-,-,-
Y2-S2-166K18,1,9,PS,train,49,↑,up,↑,0.976481399964541,True,30,-,-,-
Y2-S2-166K18,1,10,PS,train,28,→,right,→,0.715856999973767,True,30,-,-,-
Y2-S2-166K18,2,11,AS,train,35,↓,down,↓,0.800553099950776,True,45,-,-,-
Y2-S2-166K18,2,12,AS,train,34,←,no_key,no_letter,-1,False,45,-,-,-
Y2-S2-166K18,2,13,AS,train,27,↑,up,↑,0.817271999956574,True,45,-,-,-
Y2-S2-166K18,2,14,AS,train,36,↓,down,↓,2.02011389995459,True,45,-,-,-
Y2-S2-166K18,2,15,AS,train,26,↑,up,↑,1.0016036000452,True,45,-,-,-
Y2-S2-166K18,2,16,AS,train,45,↓,down,↓,0.750739899987821,True,45,-,-,-
Y2-S2-166K18,2,17,AS,train,44,→,right,→,0.800588099984452,True,45,-,-,-
Y2-S2-166K18,2,18,AS,train,49,↑,up,↑,1.10217520000879,True,45,-,-,-
Y2-S2-166K18,2,19,AS,train,46,↓,down,↓,0.817278099944815,True,45,-,-,-
Y2-S2-166K18,2,20,AS,train,50,←,left,←,0.960462299990468,True,45,-,-,-
Y2-S2-166K18,-,21,PS,adaptive,45,→,right,→,1.81404700002167,True,10,0,0,0
Y2-S2-166K18,-,22,PS,adaptive,28,←,left,←,0.783850000007078,True,10,0,0,0
Y2-S2-166K18,-,23,PS,adaptive,26,↓,down,↓,0.670729900011793,True,10,1,0,0
Y2-S2-166K18,-,24,PS,adaptive,26,↑,down,↓,1.09095549996709,False,9,-1,1,1
Y2-S2-166K18,-,25,PS,adaptive,44,→,right,→,0.61877070000628,True,10,-1,0,1
Y2-S2-166K18,-,26,PS,adaptive,43,↓,down,↓,0.723324699967634,True,10,-1,0,1
Y2-S2-166K18,-,27,PS,adaptive,25,→,right,→,0.898118999961298,True,10,1,1,2
Y2-S2-166K18,-,28,PS,adaptive,42,←,left,←,0.572331299947109,True,9,1,0,2
Y2-S2-166K18,-,29,PS,adaptive,38,↑,left,←,0.86875309998868,False,9,-1,1,3
Y2-S2-166K18,-,30,PS,adaptive,41,↓,down,↓,0.706691500032321,True,10,-1,0,3
Y2-S2-166K18,-,31,PS,adaptive,41,←,left,←,1.00174429995241,True,10,-1,0,3
Y2-S2-166K18,-,32,PS,adaptive,46,↑,up,↑,0.810583200014662,True,10,1,1,4
Y2-S2-166K18,-,33,AS,adaptive,39,←,left,←,0.776746299990919,True,20,0,0,0
Y2-S2-166K18,-,34,AS,adaptive,28,↑,up,↑,0.736226700013503,True,20,0,0,0
Y2-S2-166K18,-,35,AS,adaptive,31,↓,left,←,0.383968600013759,False,20,-1,0,0
Y2-S2-166K18,-,36,AS,adaptive,34,↑,down,↓,0.564939000003506,False,21,-1,0,0
Y2-S2-166K18,-,37,AS,adaptive,41,↓,down,↓,0.682916099962313,True,22,-1,0,0
Y2-S2-166K18,-,38,AS,adaptive,28,→,right,→,0.80683160002809,True,22,-1,0,0
Y2-S2-166K18,-,39,AS,adaptive,30,←,left,←,0.795336300041527,True,22,1,1,1
Y2-S2-166K18,-,40,AS,adaptive,26,↓,down,↓,0.628434100013692,True,21,1,0,1
Y2-S2-166K18,-,41,AS,adaptive,39,←,left,←,0.832090199983213,True,21,1,0,1
Y2-S2-166K18,-,42,AS,adaptive,44,↓,down,↓,0.77405850001378,True,21,1,0,1
Y2-S2-166K18,-,43,AS,adaptive,42,→,right,→,0.683750900032464,True,20,1,0,1
Y2-S2-166K18,-,44,AS,adaptive,37,↑,up,↑,0.770409299992025,True,20,1,0,1
Y2-S2-166K18,-,45,AS,adaptive,38,←,left,←,0.65744070004439,True,20,1,0,1
Y2-S2-166K18,-,46,AS,adaptive,41,→,left,←,0.713606400007848,False,19,-1,1,2
Y2-S2-166K18,-,47,AS,adaptive,41,↑,up,↑,0.732354200037662,True,20,-1,0,2
Y2-S2-166K18,-,48,AS,adaptive,31,↓,down,↓,0.613500100036617,True,20,-1,0,2
Y2-S2-166K18,-,49,AS,adaptive,41,←,left,←,0.69269960001111,True,20,1,1,3
Y2-S2-166K18,-,50,AS,adaptive,50,→,right,→,0.60104360000696,True,19,1,0,3
Y2-S2-166K18,-,51,AS,adaptive,25,←,right,→,0.601579000009224,False,19,-1,1,4
Y2-S2-166K18,1,52,PS,intra_train,38,→,right,→,1.16818429995328,True,13,-,-,-
Y2-S2-166K18,1,53,PS,intra_train,46,←,left,←,0.685196099977475,True,13,-,-,-
Y2-S2-166K18,1,54,PS,intra_train,26,↑,up,↑,0.579934299981687,True,13,-,-,-
Y2-S2-166K18,1,55,PS,intra_train,33,→,right,→,0.531512100016698,True,13,-,-,-
Y2-S2-166K18,1,56,PS,intra_train,32,↓,down,↓,0.653929899970535,True,13,-,-,-
Y2-S2-166K18,1,57,PS,exp,49,→,left,←,0.784235400031321,False,9,-1,0,0
Y2-S2-166K18,1,58,PS,exp,42,↑,left,←,0.700650800019503,False,10,-1,0,0
Y2-S2-166K18,1,59,PS,exp,50,→,right,→,0.556572299974505,True,11,-1,0,0
Y2-S2-166K18,1,60,PS,exp,27,←,left,←,0.609799500030931,True,11,-1,0,0
Y2-S2-166K18,1,61,PS,exp,35,↓,left,←,0.826972400012892,False,11,-1,0,0
Y2-S2-166K18,1,62,PS,exp,25,↑,up,↑,0.731116700044368,True,12,-1,0,0
Y2-S2-166K18,1,63,PS,exp,44,→,down,↓,1.13097529998049,False,12,-1,0,0
Y2-S2-166K18,1,64,PS,exp,31,←,left,←,0.660134700010531,True,13,-1,0,0
Y2-S2-166K18,1,65,PS,exp,50,→,right,→,0.656975000048988,True,13,-1,0,0
Y2-S2-166K18,1,66,PS,exp,25,←,right,→,0.886039600009099,False,13,-1,0,0
Y2-S2-166K18,1,67,PS,exp,48,→,right,→,0.862813299987465,True,14,-1,0,0
Y2-S2-166K18,1,68,PS,exp,39,↑,left,←,0.745974100020248,False,14,-1,0,0
Y2-S2-166K18,1,69,PS,exp,47,↓,down,↓,0.500598600017838,True,15,-1,0,0
Y2-S2-166K18,1,70,PS,exp,36,←,left,←,0.692340500012506,True,15,-1,0,0
Y2-S2-166K18,1,71,PS,exp,33,↑,up,↑,0.584779700031504,True,15,1,1,1
Y2-S2-166K18,1,72,PS,exp,39,←,left,←,0.637759100005496,True,14,1,0,1
Y2-S2-166K18,1,73,PS,exp,50,↑,no_key,no_letter,-1,False,14,-1,1,2
Y2-S2-166K18,1,74,PS,exp,47,→,right,→,0.594478200015146,True,15,-1,0,2
Y2-S2-166K18,1,75,PS,exp,39,↑,up,↑,0.75626850000117,True,15,-1,0,2
Y2-S2-166K18,1,76,PS,exp,43,←,left,←,0.706305300001986,True,15,1,1,3
Y2-S2-166K18,1,77,PS,exp,35,↓,down,↓,0.712769500038121,True,14,1,0,3
Y2-S2-166K18,1,78,PS,exp,46,←,left,←,0.609718199993949,True,14,1,0,3
Y2-S2-166K18,1,79,PS,exp,41,↑,up,↑,0.582418699981645,True,14,1,0,3
Y2-S2-166K18,1,80,PS,exp,41,→,right,→,0.680361800012179,True,13,1,0,3
Y2-S2-166K18,1,81,PS,exp,45,↓,up,↑,0.838422600005288,False,13,-1,1,4
Y2-S2-166K18,1,82,PS,exp,25,↑,up,↑,0.606930700014345,True,14,-1,0,4
Y2-S2-166K18,1,83,PS,exp,37,→,right,→,0.619884999992792,True,14,-1,0,4
Y2-S2-166K18,1,84,PS,exp,48,↓,down,↓,0.621109500003513,True,14,1,1,5
Y2-S2-166K18,1,85,PS,exp,25,←,left,←,0.700881500029936,True,13,1,0,5
Y2-S2-166K18,1,86,PS,exp,49,→,right,→,0.814129700011108,True,13,1,0,5
Y2-S2-166K18,1,87,PS,exp,42,←,left,←,0.745487399981357,True,13,1,0,5
Y2-S2-166K18,1,88,PS,exp,29,→,right,→,0.71017189999111,True,12,1,0,5
Y2-S2-166K18,1,89,PS,exp,34,↑,up,↑,0.717795300006401,True,12,1,0,5
Y2-S2-166K18,1,90,PS,exp,38,→,right,→,0.480205499974545,True,12,1,0,5
Y2-S2-166K18,1,91,PS,exp,50,↓,down,↓,0.703441900026519,True,11,1,0,5
Y2-S2-166K18,1,92,PS,exp,40,↑,up,↑,0.612530399987008,True,11,1,0,5
Y2-S2-166K18,1,93,PS,exp,32,→,left,←,0.588815800030716,False,11,-1,1,6
Y2-S2-166K18,1,94,PS,exp,43,←,right,→,0.78036690002773,False,12,-1,0,6
Y2-S2-166K18,1,95,PS,exp,31,↓,down,↓,0.595756300026551,True,13,-1,0,6
Y2-S2-166K18,1,96,PS,exp,41,↑,up,↑,0.667420300014783,True,13,-1,0,6
Y2-S2-166K18,1,97,PS,exp,33,→,left,←,0.759163699985948,False,13,-1,0,6
Y2-S2-166K18,1,98,PS,exp,25,←,left,←,0.840046400029678,True,14,-1,0,6
Y2-S2-166K18,1,99,PS,exp,26,→,right,→,0.436347000009846,True,14,-1,0,6
Y2-S2-166K18,1,100,PS,exp,47,↓,down,↓,0.630213299999014,True,14,1,1,7
Y2-S2-166K18,1,101,PS,exp,30,→,right,→,0.718105800042395,True,13,1,0,7
Y2-S2-166K18,1,102,PS,exp,33,↑,up,↑,0.621401400014292,True,13,1,0,7
Y2-S2-166K18,1,103,PS,exp,44,←,left,←,0.70642250002129,True,13,1,0,7
Y2-S2-166K18,1,104,PS,exp,44,↑,up,↑,0.593315100006294,True,12,1,0,7
Y2-S2-166K18,1,105,PS,exp,43,↓,down,↓,0.506943900021724,True,12,1,0,7
Y2-S2-166K18,1,106,PS,exp,42,↑,up,↑,0.576581800007261,True,12,1,0,7
Y2-S2-166K18,1,107,PS,exp,27,←,left,←,0.784674599999562,True,11,1,0,7
Y2-S2-166K18,1,108,PS,exp,33,→,right,→,0.60134759999346,True,11,1,0,7
Y2-S2-166K18,1,109,PS,exp,37,↑,up,↑,1.78405440005008,True,11,1,0,7
Y2-S2-166K18,1,110,PS,exp,33,←,left,←,0.784963799989782,True,10,1,0,7
Y2-S2-166K18,1,111,PS,exp,27,↓,right,→,0.906930299999658,False,10,-1,1,8
Y2-S2-166K18,1,112,PS,exp,33,→,left,←,1.36829860002035,False,11,-1,0,8
Y2-S2-166K18,1,113,PS,exp,41,↓,down,↓,1.7380295000039,True,12,-1,0,8
Y2-S2-166K18,1,114,PS,exp,27,→,right,→,0.598251599993091,True,12,-1,0,8
Y2-S2-166K18,1,115,PS,exp,32,←,left,←,0.753230299975257,True,12,1,1,9
Y2-S2-166K18,1,116,PS,exp,48,↓,down,↓,0.59021739999298,True,11,1,0,9
Y2-S2-166K18,1,117,PS,exp,45,→,no_key,no_letter,-1,False,11,-1,1,10
Y2-S2-166K18,1,118,PS,exp,37,↑,up,↑,0.694179000041913,True,12,-1,0,10
Y2-S2-166K18,1,119,PS,exp,31,←,right,→,1.01171399996383,False,12,-1,0,10
Y2-S2-166K18,1,120,PS,exp,46,→,right,→,0.618850600032602,True,13,-1,0,10
Y2-S2-166K18,1,121,PS,exp,36,↑,up,↑,0.757464499969501,True,13,-1,0,10
Y2-S2-166K18,1,122,PS,exp,34,↓,down,↓,0.549878300051205,True,13,1,1,11
Y2-S2-166K18,1,123,PS,exp,27,→,right,→,0.674194899969734,True,12,1,0,11
Y2-S2-166K18,1,124,PS,exp,36,↑,down,↓,0.930589499999769,False,12,-1,1,12
Y2-S2-166K18,1,125,PS,exp,34,↓,down,↓,0.550093099998776,True,13,-1,0,12
Y2-S2-166K18,1,126,PS,exp,27,→,right,→,0.704014800023288,True,13,-1,0,12
Y2-S2-166K18,1,127,PS,exp,29,←,left,←,0.764507799991407,True,13,1,1,13
Y2-S2-166K18,1,128,PS,exp,41,→,right,→,1.37595580000198,True,12,1,0,13
Y2-S2-166K18,1,129,PS,exp,39,↓,down,↓,0.493095399986487,True,12,1,0,13
Y2-S2-166K18,1,130,PS,exp,41,←,left,←,0.760363399982452,True,12,1,0,13
Y2-S2-166K18,1,131,PS,exp,31,↑,up,↑,0.695381500001531,True,11,1,0,13
Y2-S2-166K18,1,132,PS,exp,39,←,down,↓,1.10396169999149,False,11,-1,1,14
Y2-S2-166K18,1,133,PS,exp,26,↓,down,↓,0.499471500050277,True,12,-1,0,14
Y2-S2-166K18,1,134,PS,exp,32,→,right,→,0.610329399991315,True,12,-1,0,14
Y2-S2-166K18,1,135,PS,exp,44,↓,down,↓,0.520990000048187,True,12,1,1,15
Y2-S2-166K18,1,136,PS,exp,32,→,right,→,0.582993999996688,True,11,1,0,15
Y2-S2-166K18,1,137,PS,exp,27,←,left,←,0.610907299967948,True,11,1,0,15
Y2-S2-166K18,1,138,PS,exp,36,↑,up,↑,0.80040020000888,True,11,1,0,15
Y2-S2-166K18,1,139,PS,exp,47,↓,right,→,0.44301240000641,False,10,-1,1,16
Y2-S2-166K18,2,140,AS,intra_train,37,↑,up,↑,0.716860899992753,True,30,-,-,-
Y2-S2-166K18,2,141,AS,intra_train,31,↓,down,↓,0.952717899985146,True,30,-,-,-
Y2-S2-166K18,2,142,AS,intra_train,25,→,right,→,0.902922399982344,True,30,-,-,-
Y2-S2-166K18,2,143,AS,intra_train,34,↑,up,↑,0.906716099998448,True,30,-,-,-
Y2-S2-166K18,2,144,AS,intra_train,38,↓,down,↓,0.788770099985413,True,30,-,-,-
Y2-S2-166K18,2,145,AS,exp,40,←,no_key,no_letter,-1,False,20,-1,0,0
Y2-S2-166K18,2,146,AS,exp,50,↓,down,↓,0.545241600018926,True,21,-1,0,0
Y2-S2-166K18,2,147,AS,exp,45,←,right,→,0.950791499984916,False,21,-1,0,0
Y2-S2-166K18,2,148,AS,exp,37,↑,up,↑,1.03355220000958,True,22,-1,0,0
Y2-S2-166K18,2,149,AS,exp,27,←,left,←,1.09458819997963,True,22,-1,0,0
Y2-S2-166K18,2,150,AS,exp,47,→,left,←,1.06093069998315,False,22,-1,0,0
Y2-S2-166K18,2,151,AS,exp,40,↓,down,↓,0.905432900006417,True,23,-1,0,0
Y2-S2-166K18,2,152,AS,exp,44,→,right,→,0.985513099993113,True,23,-1,0,0
Y2-S2-166K18,2,153,AS,exp,46,↑,up,↑,1.04964139999356,True,23,1,1,1
Y2-S2-166K18,2,154,AS,exp,31,←,left,←,0.802587600017432,True,22,1,0,1
Y2-S2-166K18,2,155,AS,exp,48,→,right,→,0.700049299979582,True,22,1,0,1
Y2-S2-166K18,2,156,AS,exp,40,↑,up,↑,0.883607299998403,True,22,1,0,1
Y2-S2-166K18,2,157,AS,exp,29,↓,up,↑,0.952820600010455,False,21,-1,1,2
Y2-S2-166K18,2,158,AS,exp,26,←,left,←,0.756078400008846,True,22,-1,0,2
Y2-S2-166K18,2,159,AS,exp,25,↓,down,↓,0.871649900043849,True,22,-1,0,2
Y2-S2-166K18,2,160,AS,exp,36,↑,up,↑,0.693155000044499,True,22,1,1,3
Y2-S2-166K18,2,161,AS,exp,47,→,right,→,0.922207400028128,True,21,1,0,3
Y2-S2-166K18,2,162,AS,exp,31,←,left,←,0.712880300008692,True,21,1,0,3
Y2-S2-166K18,2,163,AS,exp,46,↓,down,↓,1.16341460001422,True,21,1,0,3
Y2-S2-166K18,2,164,AS,exp,42,←,left,←,0.869029100053012,True,20,1,0,3
Y2-S2-166K18,2,165,AS,exp,27,↓,down,↓,0.729225600021891,True,20,1,0,3
Y2-S2-166K18,2,166,AS,exp,30,←,left,←,0.728648499993142,True,20,1,0,3
Y2-S2-166K18,2,167,AS,exp,40,↑,up,↑,1.25805770000443,True,19,1,0,3
Y2-S2-166K18,2,168,AS,exp,47,↓,no_key,no_letter,-1,False,19,-1,1,4
Y2-S2-166K18,2,169,AS,exp,27,→,right,→,0.968940899998415,True,20,-1,0,4
Y2-S2-166K18,2,170,AS,exp,32,←,left,←,0.783227899984922,True,20,-1,0,4
Y2-S2-166K18,2,171,AS,exp,38,↑,up,↑,1.11602650000714,True,20,1,1,5
Y2-S2-166K18,2,172,AS,exp,40,←,left,←,0.835486700001638,True,19,1,0,5
Y2-S2-166K18,2,173,AS,exp,36,↑,down,↓,1.36180919996696,False,19,-1,1,6
Y2-S2-166K18,2,174,AS,exp,30,←,left,←,0.937196400016546,True,20,-1,0,6
Y2-S2-166K18,2,175,AS,exp,44,↑,up,↑,0.776860800047871,True,20,-1,0,6
Y2-S2-166K18,2,176,AS,exp,43,←,left,←,0.821638699970208,True,20,1,1,7
Y2-S2-166K18,2,177,AS,exp,49,↑,up,↑,1.67867780005327,True,19,1,0,7
Y2-S2-166K18,2,178,AS,exp,27,↓,down,↓,1.10824570001569,True,19,1,0,7
Y2-S2-166K18,2,179,AS,exp,46,→,right,→,0.875385599967558,True,19,1,0,7
Y2-S2-166K18,2,180,AS,exp,39,↓,down,↓,1.00137529999483,True,18,1,0,7
Y2-S2-166K18,2,181,AS,exp,33,↑,up,↑,0.887256600020919,True,18,1,0,7
Y2-S2-166K18,2,182,AS,exp,25,↓,down,↓,1.16759640001692,True,18,1,0,7
Y2-S2-166K18,2,183,AS,exp,36,↑,up,↑,0.852211599994917,True,17,1,0,7
Y2-S2-166K18,2,184,AS,exp,29,←,left,←,0.894028400012758,True,17,1,0,7
Y2-S2-166K18,2,185,AS,exp,28,↑,up,↑,1.09886700002244,True,17,1,0,7
Y2-S2-166K18,2,186,AS,exp,34,↓,down,↓,0.882747599971481,True,16,1,0,7
Y2-S2-166K18,2,187,AS,exp,32,↑,down,↓,1.24277549999533,False,16,-1,1,8
Y2-S2-166K18,2,188,AS,exp,33,←,right,→,1.57524469995406,False,17,-1,0,8
Y2-S2-166K18,2,189,AS,exp,41,→,right,→,0.774253999989014,True,18,-1,0,8
Y2-S2-166K18,2,190,AS,exp,44,↑,up,↑,0.902650600008201,True,18,-1,0,8
Y2-S2-166K18,2,191,AS,exp,25,→,left,←,1.51262930000667,False,18,-1,0,8
Y2-S2-166K18,2,192,AS,exp,28,↓,down,↓,0.855423000000883,True,19,-1,0,8
Y2-S2-166K18,2,193,AS,exp,40,←,right,→,0.867874199990183,False,19,-1,0,8
Y2-S2-166K18,2,194,AS,exp,29,→,left,←,0.505483700020704,False,20,-1,0,8
Y2-S2-166K18,2,195,AS,exp,26,↓,down,↓,0.883357400016394,True,21,-1,0,8
Y2-S2-166K18,2,196,AS,exp,29,↑,up,↑,0.755601699987892,True,21,-1,0,8
Y2-S2-166K18,2,197,AS,exp,34,↓,down,↓,0.652611500001513,True,21,1,1,9
Y2-S2-166K18,2,198,AS,exp,47,→,right,→,0.737332899996545,True,20,1,0,9
Y2-S2-166K18,2,199,AS,exp,25,←,right,→,1.3994728999678,False,20,-1,1,10
Y2-S2-166K18,2,200,AS,exp,31,↑,up,↑,0.877348600013647,True,21,-1,0,10
Y2-S2-166K18,2,201,AS,exp,31,←,right,→,1.09526189998724,False,21,-1,0,10
Y2-S2-166K18,2,202,AS,exp,43,→,right,→,0.789303499972448,True,22,-1,0,10
Y2-S2-166K18,2,203,AS,exp,33,←,left,←,0.826831300044432,True,22,-1,0,10
Y2-S2-166K18,2,204,AS,exp,34,↓,down,↓,0.702186400012579,True,22,1,1,11
Y2-S2-166K18,2,205,AS,exp,46,←,right,→,0.964849999989383,False,21,-1,1,12
Y2-S2-166K18,2,206,AS,exp,35,↑,up,↑,1.02087629999733,True,22,-1,0,12
Y2-S2-166K18,2,207,AS,exp,48,→,right,→,0.710584599990398,True,22,-1,0,12
Y2-S2-166K18,2,208,AS,exp,42,↓,down,↓,0.849840199982282,True,22,1,1,13
Y2-S2-166K18,2,209,AS,exp,27,↑,up,↑,0.920206299982965,True,21,1,0,13
Y2-S2-166K18,2,210,AS,exp,44,→,right,→,0.797308599983808,True,21,1,0,13
Y2-S2-166K18,2,211,AS,exp,31,↓,down,↓,0.582695299992338,True,21,1,0,13
Y2-S2-166K18,2,212,AS,exp,34,→,right,→,1.14094650000334,True,20,1,0,13
Y2-S2-166K18,2,213,AS,exp,28,↑,up,↑,0.979894999996759,True,20,1,0,13
Y2-S2-166K18,2,214,AS,exp,38,↓,down,↓,0.777391899959184,True,20,1,0,13
Y2-S2-166K18,2,215,AS,exp,42,←,right,→,0.61215290002292,False,19,-1,1,14
Y2-S2-166K18,2,216,AS,exp,29,↑,down,↓,1.09199459996307,False,20,-1,0,14
Y2-S2-166K18,2,217,AS,exp,30,→,right,→,0.759779599960893,True,21,-1,0,14
Y2-S2-166K18,2,218,AS,exp,26,↓,down,↓,1.04147950001061,True,21,-1,0,14
Y2-S2-166K18,2,219,AS,exp,40,→,right,→,0.751534300041385,True,21,1,1,15
Y2-S2-166K18,2,220,AS,exp,41,↑,up,↑,1.25614049995784,True,20,1,0,15
Y2-S2-166K18,2,221,AS,exp,32,→,right,→,0.712639399978798,True,20,1,0,15
Y2-S2-166K18,2,222,AS,exp,33,↓,down,↓,0.771662200044375,True,20,1,0,15
Y2-S2-166K18,2,223,AS,exp,40,→,right,→,0.871520199987572,True,19,1,0,15
Y2-S2-166K18,2,224,AS,exp,29,↓,down,↓,0.907642100006342,True,19,1,0,15
Y2-S2-166K18,2,225,AS,exp,38,←,right,→,1.16687090002233,False,19,-1,1,16
Y2-S2-166K18,3,226,AS,intra_train,27,↓,down,↓,1.90612759999931,True,30,-,-,-
Y2-S2-166K18,3,227,AS,intra_train,35,←,left,←,0.812371800013352,True,30,-,-,-
Y2-S2-166K18,3,228,AS,intra_train,34,↓,down,↓,0.772534999996424,True,30,-,-,-
Y2-S2-166K18,3,229,AS,intra_train,30,←,left,←,0.617432999948505,True,30,-,-,-
Y2-S2-166K18,3,230,AS,intra_train,45,↓,down,↓,0.715358999965247,True,30,-,-,-
Y2-S2-166K18,3,231,AS,exp,34,←,left,←,0.538494899985381,True,20,0,0,0
Y2-S2-166K18,3,232,AS,exp,49,↑,up,↑,0.659350699977949,True,20,0,0,0
Y2-S2-166K18,3,233,AS,exp,29,←,left,←,0.753611400024965,True,20,1,0,0
Y2-S2-166K18,3,234,AS,exp,36,→,right,→,0.652600399975199,True,19,1,0,0
Y2-S2-166K18,3,235,AS,exp,42,↓,down,↓,0.784707300015725,True,19,1,0,0
Y2-S2-166K18,3,236,AS,exp,38,→,right,→,0.721616900002118,True,19,1,0,0
Y2-S2-166K18,3,237,AS,exp,25,←,left,←,0.657591499970295,True,18,1,0,0
Y2-S2-166K18,3,238,AS,exp,49,↓,down,↓,0.877882400003728,True,18,1,0,0
Y2-S2-166K18,3,239,AS,exp,30,←,left,←,0.885891399986576,True,18,1,0,0
Y2-S2-166K18,3,240,AS,exp,44,↑,up,↑,0.721233799995389,True,17,1,0,0
Y2-S2-166K18,3,241,AS,exp,27,↓,down,↓,1.14592889999039,True,17,1,0,0
Y2-S2-166K18,3,242,AS,exp,33,→,right,→,0.72345430002315,True,17,1,0,0
Y2-S2-166K18,3,243,AS,exp,43,←,left,←,0.764665699971374,True,16,1,0,0
Y2-S2-166K18,3,244,AS,exp,34,↓,down,↓,0.743514299974777,True,16,1,0,0
Y2-S2-166K18,3,245,AS,exp,39,←,left,←,0.766717999998946,True,16,1,0,0
Y2-S2-166K18,3,246,AS,exp,48,↓,down,↓,1.01847740000812,True,15,1,0,0
Y2-S2-166K18,3,247,AS,exp,30,←,left,←,1.21221480000531,True,15,1,0,0
Y2-S2-166K18,3,248,AS,exp,29,↑,down,↓,1.06867750000674,False,15,-1,1,1
Y2-S2-166K18,3,249,AS,exp,39,↓,down,↓,0.543487999995705,True,16,-1,0,1
Y2-S2-166K18,3,250,AS,exp,49,↑,down,↓,1.11218290001852,False,16,-1,0,1
Y2-S2-166K18,3,251,AS,exp,39,↓,down,↓,0.682092100032605,True,17,-1,0,1
Y2-S2-166K18,3,252,AS,exp,25,↑,up,↑,1.01350709999679,True,17,-1,0,1
Y2-S2-166K18,3,253,AS,exp,47,→,down,↓,1.45570960000623,False,17,-1,0,1
Y2-S2-166K18,3,254,AS,exp,32,←,left,←,0.758677700010594,True,18,-1,0,1
Y2-S2-166K18,3,255,AS,exp,36,↑,up,↑,0.712416100024711,True,18,-1,0,1
Y2-S2-166K18,3,256,AS,exp,49,↓,up,↑,1.86248100001831,False,18,-1,0,1
Y2-S2-166K18,3,257,AS,exp,29,←,left,←,0.849785499973223,True,19,-1,0,1
Y2-S2-166K18,3,258,AS,exp,47,→,right,→,0.737576499988791,True,19,-1,0,1
Y2-S2-166K18,3,259,AS,exp,48,↓,down,↓,0.763919799996074,True,19,1,1,2
Y2-S2-166K18,3,260,AS,exp,37,→,right,→,0.821892600040883,True,18,1,0,2
Y2-S2-166K18,3,261,AS,exp,28,←,right,→,0.945227900054306,False,18,-1,1,3
Y2-S2-166K18,3,262,AS,exp,35,↑,up,↑,0.747718499973416,True,19,-1,0,3
Y2-S2-166K18,3,263,AS,exp,29,←,left,←,0.743666300026234,True,19,-1,0,3
Y2-S2-166K18,3,264,AS,exp,31,↓,down,↓,0.809718900010921,True,19,1,1,4
Y2-S2-166K18,3,265,AS,exp,39,←,right,→,0.606449600018095,False,18,-1,1,5
Y2-S2-166K18,3,266,AS,exp,29,→,left,←,0.660419299965724,False,19,-1,0,5
Y2-S2-166K18,3,267,AS,exp,41,↓,down,↓,1.28867049998371,True,20,-1,0,5
Y2-S2-166K18,3,268,AS,exp,42,↑,up,↑,0.855538900010288,True,20,-1,0,5
Y2-S2-166K18,3,269,AS,exp,40,←,right,→,1.99107659998117,False,20,-1,0,5
Y2-S2-166K18,3,270,AS,exp,49,→,right,→,0.71768639999209,True,21,-1,0,5
Y2-S2-166K18,3,271,AS,exp,39,↑,down,↓,0.623919000034221,False,21,-1,0,5
Y2-S2-166K18,3,272,AS,exp,49,→,right,→,0.613703100010753,True,22,-1,0,5
Y2-S2-166K18,3,273,AS,exp,26,↓,down,↓,0.592782699968666,True,22,-1,0,5
Y2-S2-166K18,3,274,AS,exp,44,→,right,→,0.840584899997339,True,22,1,1,6
Y2-S2-166K18,3,275,AS,exp,41,↑,up,↑,0.913967399974354,True,21,1,0,6
Y2-S2-166K18,3,276,AS,exp,34,→,right,→,0.864437700016424,True,21,1,0,6
Y2-S2-166K18,3,277,AS,exp,26,←,right,→,1.10603369999444,False,21,-1,1,7
Y2-S2-166K18,3,278,AS,exp,38,↓,down,↓,0.569846700003836,True,22,-1,0,7
Y2-S2-166K18,3,279,AS,exp,43,→,right,→,0.769287100003567,True,22,-1,0,7
Y2-S2-166K18,3,280,AS,exp,48,↓,down,↓,0.827794299984817,True,22,1,1,8
Y2-S2-166K18,3,281,AS,exp,35,↑,up,↑,0.794561100017745,True,21,1,0,8
Y2-S2-166K18,3,282,AS,exp,34,↓,down,↓,0.631045199988876,True,21,1,0,8
Y2-S2-166K18,3,283,AS,exp,45,←,left,←,0.732375999970827,True,21,1,0,8
Y2-S2-166K18,3,284,AS,exp,25,→,left,←,1.57854680001037,False,20,-1,1,9
Y2-S2-166K18,3,285,AS,exp,29,↓,down,↓,0.567156100005377,True,21,-1,0,9
Y2-S2-166K18,3,286,AS,exp,47,←,left,←,0.74244489998091,True,21,-1,0,9
Y2-S2-166K18,3,287,AS,exp,36,→,right,→,0.769178199989256,True,21,1,1,10
Y2-S2-166K18,3,288,AS,exp,30,↑,up,↑,0.72849289997248,True,20,1,0,10
Y2-S2-166K18,3,289,AS,exp,38,↓,down,↓,0.802800800011028,True,20,1,0,10
Y2-S2-166K18,3,290,AS,exp,28,↑,up,↑,0.755905600031838,True,20,1,0,10
Y2-S2-166K18,3,291,AS,exp,30,↓,down,↓,0.978825900005177,True,19,1,0,10
Y2-S2-166K18,3,292,AS,exp,27,←,left,←,0.569378099986352,True,19,1,0,10
Y2-S2-166K18,3,293,AS,exp,28,→,right,→,0.833736400003545,True,19,1,0,10
Y2-S2-166K18,3,294,AS,exp,31,↓,left,←,0.76218149997294,False,18,-1,1,11
Y2-S2-166K18,3,295,AS,exp,28,↑,up,↑,0.732191799965221,True,19,-1,0,11
Y2-S2-166K18,3,296,AS,exp,35,↓,down,↓,0.862016599974595,True,19,-1,0,11
Y2-S2-166K18,3,297,AS,exp,32,→,right,→,0.677939900022466,True,19,1,1,12
Y2-S2-166K18,3,298,AS,exp,47,↑,left,←,0.930553900019731,False,18,-1,1,13
Y2-S2-166K18,3,299,AS,exp,30,→,no_key,no_letter,-1,False,19,-1,0,13
Y2-S2-166K18,3,300,AS,exp,31,↓,down,↓,0.699349400005303,True,20,-1,0,13
Y2-S2-166K18,3,301,AS,exp,26,→,right,→,0.686914700025227,True,20,-1,0,13
Y2-S2-166K18,3,302,AS,exp,41,←,right,→,0.572741899988614,False,20,-1,0,13
Y2-S2-166K18,3,303,AS,exp,41,→,no_key,no_letter,-1,False,21,-1,0,13
Y2-S2-166K18,3,304,AS,exp,31,←,left,←,0.706333699985407,True,22,-1,0,13
Y2-S2-166K18,3,305,AS,exp,46,→,right,→,0.754330400028266,True,22,-1,0,13
Y2-S2-166K18,3,306,AS,exp,27,↑,right,→,0.562215099984314,False,22,-1,0,13
Y2-S2-166K18,3,307,AS,exp,38,↓,down,↓,0.782741700008046,True,23,-1,0,13
Y2-S2-166K18,3,308,AS,exp,49,←,left,←,0.608907100046054,True,23,-1,0,13
Y2-S2-166K18,3,309,AS,exp,26,→,right,→,0.580307599972002,True,23,1,1,14
Y2-S2-166K18,3,310,AS,exp,47,↓,down,↓,0.777567199955229,True,22,1,0,14
Y2-S2-166K18,3,311,AS,exp,25,←,left,←,0.713813400012441,True,22,1,0,14
Y2-S2-166K18,3,312,AS,exp,32,→,right,→,0.70382580003934,True,22,1,0,14
Y2-S2-166K18,3,313,AS,exp,30,←,left,←,0.768837800016627,True,21,1,0,14
Y2-S2-166K18,3,314,AS,exp,49,→,right,→,0.758650800038595,True,21,1,0,14
Y2-S2-166K18,3,315,AS,exp,31,↑,up,↑,0.70319999998901,True,21,1,0,14
Y2-S2-166K18,3,316,AS,exp,30,→,right,→,0.919379399972968,True,20,1,0,14
Y2-S2-166K18,3,317,AS,exp,48,←,left,←,0.794500800024252,True,20,1,0,14
Y2-S2-166K18,3,318,AS,exp,35,→,right,→,0.819639399996959,True,20,1,0,14
Y2-S2-166K18,3,319,AS,exp,41,←,right,→,0.82743450003909,False,19,-1,1,15
Y2-S2-166K18,3,320,AS,exp,27,→,right,→,0.607901000010315,True,20,-1,0,15
Y2-S2-166K18,3,321,AS,exp,34,↑,up,↑,0.840416299994104,True,20,-1,0,15
Y2-S2-166K18,3,322,AS,exp,37,↓,down,↓,0.939024700026494,True,20,1,1,16
Y2-S2-166K18,4,323,PS,intra_train,49,→,right,→,0.735446100006811,True,13,-,-,-
Y2-S2-166K18,4,324,PS,intra_train,32,↓,down,↓,0.595162699988578,True,13,-,-,-
Y2-S2-166K18,4,325,PS,intra_train,27,←,left,←,0.500374399998691,True,13,-,-,-
Y2-S2-166K18,4,326,PS,intra_train,45,↓,left,←,1.46801489999052,False,13,-,-,-
Y2-S2-166K18,4,327,PS,intra_train,50,↑,up,↑,0.588850100000855,True,13,-,-,-
Y2-S2-166K18,4,328,PS,exp,39,↓,up,↑,1.27744870004244,False,9,-1,0,0
Y2-S2-166K18,4,329,PS,exp,38,←,left,←,0.649096700013615,True,10,-1,0,0
Y2-S2-166K18,4,330,PS,exp,35,→,right,→,0.578920400002971,True,10,-1,0,0
Y2-S2-166K18,4,331,PS,exp,28,↓,up,↑,0.766047100012656,False,10,-1,0,0
Y2-S2-166K18,4,332,PS,exp,42,←,left,←,0.490618699986953,True,11,-1,0,0
Y2-S2-166K18,4,333,PS,exp,33,↑,up,↑,0.616095900011715,True,11,-1,0,0
Y2-S2-166K18,4,334,PS,exp,50,←,left,←,1.15126919996692,True,11,1,1,1
Y2-S2-166K18,4,335,PS,exp,32,↓,up,↑,0.630980599962641,False,10,-1,1,2
Y2-S2-166K18,4,336,PS,exp,26,←,left,←,0.637869499973021,True,11,-1,0,2
Y2-S2-166K18,4,337,PS,exp,28,↓,left,←,1.13711700000567,False,11,-1,0,2
Y2-S2-166K18,4,338,PS,exp,39,↑,up,↑,0.649160100030713,True,12,-1,0,2
Y2-S2-166K18,4,339,PS,exp,47,→,right,→,0.67459329997655,True,12,-1,0,2
Y2-S2-166K18,4,340,PS,exp,27,↑,up,↑,0.66008800000418,True,12,1,1,3
Y2-S2-166K18,4,341,PS,exp,27,←,left,←,0.69180560001405,True,11,1,0,3
Y2-S2-166K18,4,342,PS,exp,38,↑,left,←,0.735542100039311,False,11,-1,1,4
Y2-S2-166K18,4,343,PS,exp,45,↓,down,↓,0.778813300014008,True,12,-1,0,4
Y2-S2-166K18,4,344,PS,exp,40,←,left,←,0.645862100005616,True,12,-1,0,4
Y2-S2-166K18,4,345,PS,exp,42,↑,up,↑,0.54818320000777,True,12,1,1,5
Y2-S2-166K18,4,346,PS,exp,32,↓,down,↓,0.574343200016301,True,11,1,0,5
Y2-S2-166K18,4,347,PS,exp,30,→,right,→,0.643209200003184,True,11,1,0,5
Y2-S2-166K18,4,348,PS,exp,46,↓,down,↓,0.572169899998698,True,11,1,0,5
Y2-S2-166K18,4,349,PS,exp,43,←,left,←,0.671099499973934,True,10,1,0,5
Y2-S2-166K18,4,350,PS,exp,33,↓,down,↓,0.556322299991734,True,10,1,0,5
Y2-S2-166K18,4,351,PS,exp,41,→,right,→,0.6208031999995,True,10,1,0,5
Y2-S2-166K18,4,352,PS,exp,30,↓,right,→,0.856918700039387,False,9,-1,1,6
Y2-S2-166K18,4,353,PS,exp,43,→,right,→,1.58515369996894,True,10,-1,0,6
Y2-S2-166K18,4,354,PS,exp,38,↑,up,↑,0.732764000014868,True,10,-1,0,6
Y2-S2-166K18,4,355,PS,exp,40,↓,down,↓,0.686484600009862,True,10,1,1,7
Y2-S2-166K18,4,356,PS,exp,40,↑,left,←,1.45666989998426,False,9,-1,1,8
Y2-S2-166K18,4,357,PS,exp,33,←,left,←,1.04539449996082,True,10,-1,0,8
Y2-S2-166K18,4,358,PS,exp,28,↑,up,↑,1.31775970000308,True,10,-1,0,8
Y2-S2-166K18,4,359,PS,exp,44,←,left,←,0.910088500007987,True,10,1,1,9
Y2-S2-166K18,4,360,PS,exp,28,→,right,→,0.655205799965188,True,9,1,0,9
Y2-S2-166K18,4,361,PS,exp,35,↑,left,←,1.33762190002017,False,9,-1,1,10
Y2-S2-166K18,4,362,PS,exp,42,←,left,←,1.03624119999586,True,10,-1,0,10
Y2-S2-166K18,4,363,PS,exp,47,→,left,←,0.973983699979726,False,10,-1,0,10
Y2-S2-166K18,4,364,PS,exp,50,←,left,←,0.854693600034807,True,11,-1,0,10
Y2-S2-166K18,4,365,PS,exp,39,→,left,←,1.42224019998685,False,11,-1,0,10
Y2-S2-166K18,4,366,PS,exp,33,↓,no_key,no_letter,-1,False,12,-1,0,10
Y2-S2-166K18,4,367,PS,exp,49,←,left,←,0.667342100001406,True,13,-1,0,10
Y2-S2-166K18,4,368,PS,exp,36,↓,down,↓,0.712655199982692,True,13,-1,0,10
Y2-S2-166K18,4,369,PS,exp,43,↑,left,←,0.714106599974912,False,13,-1,0,10
Y2-S2-166K18,4,370,PS,exp,37,←,left,←,0.714419899974018,True,14,-1,0,10
Y2-S2-166K18,4,371,PS,exp,42,↑,up,↑,0.635155400028452,True,14,-1,0,10
Y2-S2-166K18,4,372,PS,exp,47,←,left,←,0.572047199995723,True,14,1,1,11
Y2-S2-166K18,4,373,PS,exp,38,↓,down,↓,0.591573999961838,True,13,1,0,11
Y2-S2-166K18,4,374,PS,exp,26,←,left,←,0.707313399994746,True,13,1,0,11
Y2-S2-166K18,4,375,PS,exp,39,↑,up,↑,0.554694299993571,True,13,1,0,11
Y2-S2-166K18,4,376,PS,exp,41,→,down,↓,0.805702299985569,False,12,-1,1,12
Y2-S2-166K18,4,377,PS,exp,45,↓,down,↓,0.5708592000301,True,13,-1,0,12
Y2-S2-166K18,4,378,PS,exp,25,←,left,←,0.616025600000285,True,13,-1,0,12
Y2-S2-166K18,4,379,PS,exp,34,↑,up,↑,0.999952399986796,True,13,1,1,13
Y2-S2-166K18,4,380,PS,exp,34,→,right,→,0.719234699965455,True,12,1,0,13
Y2-S2-166K18,4,381,PS,exp,32,↓,down,↓,1.01993579999544,True,12,1,0,13
Y2-S2-166K18,4,382,PS,exp,31,→,right,→,0.794419099984225,True,12,1,0,13
Y2-S2-166K18,4,383,PS,exp,25,↓,down,↓,0.598670400038827,True,11,1,0,13
Y2-S2-166K18,4,384,PS,exp,38,→,right,→,0.604051700036507,True,11,1,0,13
Y2-S2-166K18,4,385,PS,exp,40,↑,up,↑,0.547421599971131,True,11,1,0,13
Y2-S2-166K18,4,386,PS,exp,26,↓,down,↓,0.585690800042357,True,10,1,0,13
Y2-S2-166K18,4,387,PS,exp,34,→,right,→,0.558250700007193,True,10,1,0,13
Y2-S2-166K18,4,388,PS,exp,28,←,right,→,0.776551400020253,False,10,-1,1,14
Y2-S2-166K18,4,389,PS,exp,31,↑,up,↑,0.810776500031352,True,11,-1,0,14
Y2-S2-166K18,4,390,PS,exp,43,←,no_key,no_letter,-1,False,11,-1,0,14
Y2-S2-166K18,4,391,PS,exp,44,↓,down,↓,0.729726599995047,True,12,-1,0,14
Y2-S2-166K18,4,392,PS,exp,33,→,left,←,1.22013900004094,False,12,-1,0,14
Y2-S2-166K18,4,393,PS,exp,30,←,left,←,0.757913000008557,True,13,-1,0,14
Y2-S2-166K18,4,394,PS,exp,36,→,left,←,0.761921400029678,False,13,-1,0,14
Y2-S2-166K18,4,395,PS,exp,30,↑,down,↓,0.64951660000952,False,14,-1,0,14
Y2-S2-166K18,4,396,PS,exp,37,↓,down,↓,0.908874800021295,True,15,-1,0,14
Y2-S2-166K18,4,397,PS,exp,33,←,left,←,0.510978500009514,True,15,-1,0,14
Y2-S2-166K18,4,398,PS,exp,25,↑,up,↑,0.593541999987792,True,15,1,1,15
Y2-S2-166K18,4,399,PS,exp,50,←,left,←,0.565486199979205,True,14,1,0,15
Y2-S2-166K18,4,400,PS,exp,28,↓,down,↓,0.853473700000905,True,14,1,0,15
Y2-S2-166K18,4,401,PS,exp,41,↑,up,↑,0.627608199953102,True,14,1,0,15
Y2-S2-166K18,4,402,PS,exp,37,→,right,→,0.60310110001592,True,13,1,0,15
Y2-S2-166K18,4,403,PS,exp,29,↓,right,→,0.954602999961935,False,13,-1,1,16
Y2-S2-166K18,5,404,PS,intra_train,30,←,left,←,0.863149899989367,True,13,-,-,-
Y2-S2-166K18,5,405,PS,intra_train,25,→,right,→,0.622474799980409,True,13,-,-,-
Y2-S2-166K18,5,406,PS,intra_train,41,↓,down,↓,0.638015599979553,True,13,-,-,-
Y2-S2-166K18,5,407,PS,intra_train,32,→,right,→,0.886533499986399,True,13,-,-,-
Y2-S2-166K18,5,408,PS,intra_train,39,↓,no_key,no_letter,-1,False,13,-,-,-
Y2-S2-166K18,5,409,PS,exp,40,→,right,→,0.582149499969091,True,9,0,0,0
Y2-S2-166K18,5,410,PS,exp,29,←,left,←,0.530931200017221,True,9,0,0,0
Y2-S2-166K18,5,411,PS,exp,41,→,left,←,0.615832799987402,False,9,-1,0,0
Y2-S2-166K18,5,412,PS,exp,40,←,left,←,0.547696799971163,True,10,-1,0,0
Y2-S2-166K18,5,413,PS,exp,47,↓,down,↓,0.563995999982581,True,10,-1,0,0
Y2-S2-166K18,5,414,PS,exp,33,↑,up,↑,0.694744300039019,True,10,1,1,1
Y2-S2-166K18,5,415,PS,exp,28,↓,down,↓,0.730192299990449,True,9,1,0,1
Y2-S2-166K18,5,416,PS,exp,28,↑,up,↑,0.663262300018687,True,9,1,0,1
Y2-S2-166K18,5,417,PS,exp,26,↓,up,↑,1.33851370000048,False,9,-1,1,2
Y2-S2-166K18,5,418,PS,exp,41,←,left,←,0.736461699998472,True,10,-1,0,2
Y2-S2-166K18,5,419,PS,exp,38,↑,up,↑,0.608036099991296,True,10,-1,0,2
Y2-S2-166K18,5,420,PS,exp,38,→,right,→,0.862023500027135,True,10,1,1,3
Y2-S2-166K18,5,421,PS,exp,32,↑,up,↑,0.925788499996997,True,9,1,0,3
Y2-S2-166K18,5,422,PS,exp,38,→,left,←,1.67025680001825,False,9,-1,1,4
Y2-S2-166K18,5,423,PS,exp,33,←,left,←,1.17412809998496,True,10,-1,0,4
Y2-S2-166K18,5,424,PS,exp,40,↓,left,←,0.795169299992267,False,10,-1,0,4
Y2-S2-166K18,5,425,PS,exp,46,→,right,→,0.803691899986006,True,11,-1,0,4
Y2-S2-166K18,5,426,PS,exp,43,←,right,→,1.00637479999568,False,11,-1,0,4
Y2-S2-166K18,5,427,PS,exp,48,→,right,→,0.705723599996418,True,12,-1,0,4
Y2-S2-166K18,5,428,PS,exp,33,↓,down,↓,0.948983900016174,True,12,-1,0,4
Y2-S2-166K18,5,429,PS,exp,35,←,left,←,0.701815999986138,True,12,1,1,5
Y2-S2-166K18,5,430,PS,exp,34,↑,up,↑,0.644122800033074,True,11,1,0,5
Y2-S2-166K18,5,431,PS,exp,47,→,right,→,0.580370399984531,True,11,1,0,5
Y2-S2-166K18,5,432,PS,exp,34,↑,up,↑,0.692258500028402,True,11,1,0,5
Y2-S2-166K18,5,433,PS,exp,45,→,right,→,0.583235499972943,True,10,1,0,5
Y2-S2-166K18,5,434,PS,exp,25,↑,up,↑,0.712857300008182,True,10,1,0,5
Y2-S2-166K18,5,435,PS,exp,42,↓,down,↓,0.57021320000058,True,10,1,0,5
Y2-S2-166K18,5,436,PS,exp,50,→,down,↓,0.661798299988732,False,9,-1,1,6
Y2-S2-166K18,5,437,PS,exp,25,←,left,←,0.469099300040398,True,10,-1,0,6
Y2-S2-166K18,5,438,PS,exp,42,↑,left,←,0.907503800000995,False,10,-1,0,6
Y2-S2-166K18,5,439,PS,exp,46,↓,down,↓,0.55113470001379,True,11,-1,0,6
Y2-S2-166K18,5,440,PS,exp,29,↑,up,↑,0.572275999991689,True,11,-1,0,6
Y2-S2-166K18,5,441,PS,exp,25,→,left,←,0.662091799953487,False,11,-1,0,6
Y2-S2-166K18,5,442,PS,exp,25,↓,down,↓,0.59927260002587,True,12,-1,0,6
Y2-S2-166K18,5,443,PS,exp,47,↑,up,↑,0.645586200000253,True,12,-1,0,6
Y2-S2-166K18,5,444,PS,exp,47,←,left,←,0.726070299977437,True,12,1,1,7
Y2-S2-166K18,5,445,PS,exp,48,→,right,→,0.634975099994335,True,11,1,0,7
Y2-S2-166K18,5,446,PS,exp,48,←,left,←,0.603083900001366,True,11,1,0,7
Y2-S2-166K18,5,447,PS,exp,50,→,right,→,0.648732300032862,True,11,1,0,7
Y2-S2-166K18,5,448,PS,exp,27,↑,up,↑,0.65638649999164,True,10,1,0,7
Y2-S2-166K18,5,449,PS,exp,33,←,left,←,1.79852579999715,True,10,1,0,7
Y2-S2-166K18,5,450,PS,exp,35,→,right,→,1.29045229998883,True,10,1,0,7
Y2-S2-166K18,5,451,PS,exp,38,←,left,←,0.631571000034455,True,9,1,0,7
Y2-S2-166K18,5,452,PS,exp,42,→,right,→,0.921675099991262,True,9,1,0,7
Y2-S2-166K18,5,453,PS,exp,44,↓,right,→,1.10470329999225,False,9,-1,1,8
Y2-S2-166K18,5,454,PS,exp,47,↑,left,←,0.579514999990352,False,10,-1,0,8
Y2-S2-166K18,5,455,PS,exp,37,↓,down,↓,0.596206500020344,True,11,-1,0,8
Y2-S2-166K18,5,456,PS,exp,25,←,left,←,0.768623400013894,True,11,-1,0,8
Y2-S2-166K18,5,457,PS,exp,36,↑,up,↑,0.603061000001617,True,11,1,1,9
Y2-S2-166K18,5,458,PS,exp,26,→,right,→,0.637916499981657,True,10,1,0,9
Y2-S2-166K18,5,459,PS,exp,26,↑,up,↑,0.555586599977687,True,10,1,0,9
Y2-S2-166K18,5,460,PS,exp,39,→,right,→,0.646091600006912,True,10,1,0,9
Y2-S2-166K18,5,461,PS,exp,33,←,left,←,0.518248300009873,True,9,1,0,9
Y2-S2-166K18,5,462,PS,exp,27,↓,down,↓,0.813897599990014,True,9,1,0,9
Y2-S2-166K18,5,463,PS,exp,41,→,left,←,1.15363129996695,False,9,-1,1,10
Y2-S2-166K18,5,464,PS,exp,34,←,left,←,1.66930949996458,True,10,-1,0,10
Y2-S2-166K18,5,465,PS,exp,45,↓,down,↓,0.641855200054124,True,10,-1,0,10
Y2-S2-166K18,5,466,PS,exp,37,→,right,→,1.31455770001048,True,10,1,1,11
Y2-S2-166K18,5,467,PS,exp,31,↑,up,↑,1.31031699996674,True,9,1,0,11
Y2-S2-166K18,5,468,PS,exp,44,→,up,↑,0.87359849998029,False,9,-1,1,12
Y2-S2-166K18,5,469,PS,exp,30,↑,left,←,1.2736568999826,False,10,-1,0,12
Y2-S2-166K18,5,470,PS,exp,50,←,left,←,1.43210259999614,True,11,-1,0,12
Y2-S2-166K18,5,471,PS,exp,44,↑,no_key,no_letter,-1,False,11,-1,0,12
Y2-S2-166K18,5,472,PS,exp,27,→,right,→,1.19265859998995,True,12,-1,0,12
Y2-S2-166K18,5,473,PS,exp,37,↑,left,←,0.724854499974754,False,12,-1,0,12
Y2-S2-166K18,5,474,PS,exp,29,→,left,←,1.08811970002716,False,13,-1,0,12
Y2-S2-166K18,5,475,PS,exp,28,↑,up,↑,0.725400299998,True,14,-1,0,12
Y2-S2-166K18,5,476,PS,exp,41,↓,down,↓,0.614934100012761,True,14,-1,0,12
Y2-S2-166K18,5,477,PS,exp,30,→,right,→,0.769165499950759,True,14,1,1,13
Y2-S2-166K18,5,478,PS,exp,29,↑,up,↑,0.541608400002588,True,13,1,0,13
Y2-S2-166K18,5,479,PS,exp,25,←,left,←,0.439548299997114,True,13,1,0,13
Y2-S2-166K18,5,480,PS,exp,26,→,right,→,0.554705999966245,True,13,1,0,13
Y2-S2-166K18,5,481,PS,exp,34,↓,down,↓,0.665875600010622,True,12,1,0,13
Y2-S2-166K18,5,482,PS,exp,48,←,left,←,1.47324269998353,True,12,1,0,13
Y2-S2-166K18,5,483,PS,exp,38,→,right,→,0.626984400034417,True,12,1,0,13
Y2-S2-166K18,5,484,PS,exp,30,←,left,←,0.619113699998707,True,11,1,0,13
Y2-S2-166K18,5,485,PS,exp,26,↑,up,↑,0.569008799968287,True,11,1,0,13
Y2-S2-166K18,5,486,PS,exp,27,→,right,→,0.560721599962562,True,11,1,0,13
Y2-S2-166K18,5,487,PS,exp,45,↓,left,←,0.839463399956003,False,10,-1,1,14
Y2-S2-166K18,5,488,PS,exp,29,←,left,←,0.59132619999582,True,11,-1,0,14
Y2-S2-166K18,5,489,PS,exp,50,→,right,→,0.602944799989928,True,11,-1,0,14
Y2-S2-166K18,5,490,PS,exp,35,↑,up,↑,1.18751079996582,True,11,1,1,15
Y2-S2-166K18,5,491,PS,exp,45,↓,down,↓,0.628420499968343,True,10,1,0,15
Y2-S2-166K18,5,492,PS,exp,47,↑,left,←,0.653535499994177,False,10,-1,1,16
Y2-S2-166K18,6,493,AS,intra_train,42,→,right,→,0.842522999970242,True,30,-,-,-
Y2-S2-166K18,6,494,AS,intra_train,27,←,no_key,no_letter,-1,False,30,-,-,-
Y2-S2-166K18,6,495,AS,intra_train,37,↓,no_key,no_letter,-1,False,30,-,-,-
Y2-S2-166K18,6,496,AS,intra_train,46,→,no_key,no_letter,-1,False,30,-,-,-
Y2-S2-166K18,6,497,AS,intra_train,36,↑,no_key,no_letter,-1,False,30,-,-,-
Y2-S2-166K18,6,498,AS,exp,26,←,no_key,no_letter,-1,False,20,-1,0,0
Y2-S2-166K18,6,499,AS,exp,28,→,no_key,no_letter,-1,False,21,-1,0,0
Y2-S2-166K18,6,500,AS,exp,42,↓,down,↓,1.15951800002949,True,22,-1,0,0
Y2-S2-166K18,6,501,AS,exp,29,↑,no_key,no_letter,-1,False,22,-1,0,0
Y2-S2-166K18,6,502,AS,exp,38,↓,down,↓,1.76522519998252,True,23,-1,0,0
Y2-S2-166K18,6,503,AS,exp,44,→,right,→,1.99699289997807,True,23,-1,0,0
Y2-S2-166K18,6,504,AS,exp,37,↓,no_key,no_letter,-1,False,23,-1,0,0
Y2-S2-166K18,6,505,AS,exp,43,→,right,→,1.36845080001513,True,24,-1,0,0
Y2-S2-166K18,6,506,AS,exp,48,↑,up,↑,1.563866600045,True,24,-1,0,0
Y2-S2-166K18,6,507,AS,exp,26,↓,down,↓,1.8710846999893,True,24,1,1,1
Y2-S2-166K18,6,508,AS,exp,26,↑,up,↑,1.5075058999937,True,23,1,0,1
Y2-S2-166K18,6,509,AS,exp,46,→,right,→,0.648540000023786,True,23,1,0,1
Y2-S2-166K18,6,510,AS,exp,40,↑,up,↑,0.744272499985527,True,23,1,0,1
Y2-S2-166K18,6,511,AS,exp,33,→,right,→,0.584725099964999,True,22,1,0,1
Y2-S2-166K18,6,512,AS,exp,37,↑,up,↑,0.731197899964172,True,22,1,0,1
Y2-S2-166K18,6,513,AS,exp,46,↓,down,↓,1.47562179999659,True,22,1,0,1
Y2-S2-166K18,6,514,AS,exp,27,↑,up,↑,0.992483099980746,True,21,1,0,1
Y2-S2-166K18,6,515,AS,exp,42,←,left,←,0.64596899994649,True,21,1,0,1
Y2-S2-166K18,6,516,AS,exp,49,→,right,→,0.80397870001616,True,21,1,0,1
Y2-S2-166K18,6,517,AS,exp,30,↓,left,←,1.59704469999997,False,20,-1,1,2
Y2-S2-166K18,6,518,AS,exp,40,↑,up,↑,0.856376499985345,True,21,-1,0,2
Y2-S2-166K18,6,519,AS,exp,44,↓,down,↓,0.661381300014909,True,21,-1,0,2
Y2-S2-166K18,6,520,AS,exp,34,→,right,→,0.907513700018171,True,21,1,1,3
Y2-S2-166K18,6,521,AS,exp,36,↓,down,↓,0.754677600052673,True,20,1,0,3
Y2-S2-166K18,6,522,AS,exp,47,↑,down,↓,1.14424319996033,False,20,-1,1,4
Y2-S2-166K18,6,523,AS,exp,25,↓,down,↓,0.822518900036812,True,21,-1,0,4
Y2-S2-166K18,6,524,AS,exp,43,↑,up,↑,0.637805100006517,True,21,-1,0,4
Y2-S2-166K18,6,525,AS,exp,46,→,right,→,0.821547300030943,True,21,1,1,5
Y2-S2-166K18,6,526,AS,exp,36,←,right,→,0.683685600000899,False,20,-1,1,6
Y2-S2-166K18,6,527,AS,exp,43,↓,down,↓,1.99526749999495,True,21,-1,0,6
Y2-S2-166K18,6,528,AS,exp,47,↑,up,↑,0.647541399986949,True,21,-1,0,6
Y2-S2-166K18,6,529,AS,exp,50,→,right,→,0.683995099971071,True,21,1,1,7
Y2-S2-166K18,6,530,AS,exp,42,↑,left,←,0.959490499983076,False,20,-1,1,8
Y2-S2-166K18,6,531,AS,exp,30,↓,down,↓,0.597734500013758,True,21,-1,0,8
Y2-S2-166K18,6,532,AS,exp,37,↑,up,↑,0.795293999952264,True,21,-1,0,8
Y2-S2-166K18,6,533,AS,exp,37,←,left,←,0.778309600020293,True,21,1,1,9
Y2-S2-166K18,6,534,AS,exp,46,↓,down,↓,0.856891300005373,True,20,1,0,9
Y2-S2-166K18,6,535,AS,exp,33,→,right,→,0.674383800011128,True,20,1,0,9
Y2-S2-166K18,6,536,AS,exp,41,↑,up,↑,0.9804297000519,True,20,1,0,9
Y2-S2-166K18,6,537,AS,exp,48,←,left,←,0.656760399986524,True,19,1,0,9
Y2-S2-166K18,6,538,AS,exp,38,↓,down,↓,0.61788020003587,True,19,1,0,9
Y2-S2-166K18,6,539,AS,exp,45,←,left,←,0.69720850000158,True,19,1,0,9
Y2-S2-166K18,6,540,AS,exp,33,↓,down,↓,1.79842429998098,True,18,1,0,9
Y2-S2-166K18,6,541,AS,exp,30,↑,down,↓,1.07004169997526,False,18,-1,1,10
Y2-S2-166K18,6,542,AS,exp,49,←,left,←,0.607621399976779,True,19,-1,0,10
Y2-S2-166K18,6,543,AS,exp,35,↑,up,↑,0.579939400020521,True,19,-1,0,10
Y2-S2-166K18,6,544,AS,exp,39,←,right,→,0.733778199995868,False,19,-1,0,10
Y2-S2-166K18,6,545,AS,exp,32,↓,left,←,0.675264500023332,False,20,-1,0,10
Y2-S2-166K18,6,546,AS,exp,25,↑,down,↓,1.334362900001,False,21,-1,0,10
Y2-S2-166K18,6,547,AS,exp,42,↓,down,↓,0.760438799974509,True,22,-1,0,10
Y2-S2-166K18,6,548,AS,exp,44,←,left,←,0.816943400015589,True,22,-1,0,10
Y2-S2-166K18,6,549,AS,exp,43,↓,down,↓,0.877482400042936,True,22,1,1,11
Y2-S2-166K18,6,550,AS,exp,33,←,left,←,0.76779670000542,True,21,1,0,11
Y2-S2-166K18,6,551,AS,exp,46,↓,down,↓,0.708161099988502,True,21,1,0,11
Y2-S2-166K18,6,552,AS,exp,43,←,left,←,0.970356899953913,True,21,1,0,11
Y2-S2-166K18,6,553,AS,exp,35,→,right,→,0.721066800004337,True,20,1,0,11
Y2-S2-166K18,6,554,AS,exp,25,←,left,←,0.681660400005058,True,20,1,0,11
Y2-S2-166K18,6,555,AS,exp,32,→,right,→,0.811632699973416,True,20,1,0,11
Y2-S2-166K18,6,556,AS,exp,47,↓,down,↓,0.814530999981798,True,19,1,0,11
Y2-S2-166K18,6,557,AS,exp,25,←,right,→,0.768027900019661,False,19,-1,1,12
Y2-S2-166K18,6,558,AS,exp,47,↑,up,↑,1.00450860004639,True,20,-1,0,12
Y2-S2-166K18,6,559,AS,exp,25,→,right,→,1.09895710001001,True,20,-1,0,12
Y2-S2-166K18,6,560,AS,exp,28,←,left,←,0.692284499993548,True,20,1,1,13
Y2-S2-166K18,6,561,AS,exp,39,↓,down,↓,0.86806800001068,True,19,1,0,13
Y2-S2-166K18,6,562,AS,exp,44,→,right,→,0.828196600021329,True,19,1,0,13
Y2-S2-166K18,6,563,AS,exp,43,↓,down,↓,0.666415999992751,True,19,1,0,13
Y2-S2-166K18,6,564,AS,exp,26,←,left,←,1.53131839999696,True,18,1,0,13
Y2-S2-166K18,6,565,AS,exp,39,↓,no_key,no_letter,-1,False,18,-1,1,14
Y2-S2-166K18,6,566,AS,exp,36,←,left,←,0.779928600008134,True,19,-1,0,14
Y2-S2-166K18,6,567,AS,exp,47,↑,up,↑,1.0046444000327,True,19,-1,0,14
Y2-S2-166K18,6,568,AS,exp,28,↓,down,↓,0.80067450000206,True,19,1,1,15
Y2-S2-166K18,6,569,AS,exp,33,↑,up,↑,0.813065800000913,True,18,1,0,15
Y2-S2-166K18,6,570,AS,exp,49,→,right,→,0.614425099978689,True,18,1,0,15
Y2-S2-166K18,6,571,AS,exp,28,↓,down,↓,0.701934100012295,True,18,1,0,15
Y2-S2-166K18,6,572,AS,exp,38,↑,left,←,1.28257360000862,False,17,-1,1,16
Y2-S2-166K18,7,573,AS,intra_train,30,←,left,←,0.839544699992985,True,30,-,-,-
Y2-S2-166K18,7,574,AS,intra_train,28,↓,down,↓,0.848506899958011,True,30,-,-,-
Y2-S2-166K18,7,575,AS,intra_train,30,←,left,←,1.73342520004371,True,30,-,-,-
Y2-S2-166K18,7,576,AS,intra_train,31,↑,up,↑,0.971536299970467,True,30,-,-,-
Y2-S2-166K18,7,577,AS,intra_train,44,↓,right,→,0.778957400005311,False,30,-,-,-
Y2-S2-166K18,7,578,AS,exp,47,←,left,←,0.75617870001588,True,20,0,0,0
Y2-S2-166K18,7,579,AS,exp,26,↑,up,↑,1.03381699998863,True,20,0,0,0
Y2-S2-166K18,7,580,AS,exp,46,↓,up,↑,1.70053440000629,False,20,-1,0,0
Y2-S2-166K18,7,581,AS,exp,27,→,right,→,0.877028099959716,True,21,-1,0,0
Y2-S2-166K18,7,582,AS,exp,46,↓,down,↓,0.884688099962659,True,21,-1,0,0
Y2-S2-166K18,7,583,AS,exp,31,↑,up,↑,1.00147319998359,True,21,1,1,1
Y2-S2-166K18,7,584,AS,exp,31,←,left,←,1.1207737000077,True,20,1,0,1
Y2-S2-166K18,7,585,AS,exp,38,↑,up,↑,0.754228300007526,True,20,1,0,1
Y2-S2-166K18,7,586,AS,exp,28,←,left,←,0.96974670002237,True,20,1,0,1
Y2-S2-166K18,7,587,AS,exp,50,→,right,→,1.17182400001911,True,19,1,0,1
Y2-S2-166K18,7,588,AS,exp,39,←,left,←,0.642323800013401,True,19,1,0,1
Y2-S2-166K18,7,589,AS,exp,47,↓,down,↓,1.20258730003843,True,19,1,0,1
Y2-S2-166K18,7,590,AS,exp,37,→,left,←,0.882316800008994,False,18,-1,1,2
Y2-S2-166K18,7,591,AS,exp,28,←,right,→,0.910718000028282,False,19,-1,0,2
Y2-S2-166K18,7,592,AS,exp,48,↓,down,↓,1.22210220003035,True,20,-1,0,2
Y2-S2-166K18,7,593,AS,exp,45,→,right,→,0.781924200011417,True,20,-1,0,2
Y2-S2-166K18,7,594,AS,exp,50,←,right,→,1.26909630000591,False,20,-1,0,2
Y2-S2-166K18,7,595,AS,exp,25,→,right,→,0.717217599973083,True,21,-1,0,2
Y2-S2-166K18,7,596,AS,exp,39,↑,up,↑,0.897585999977309,True,21,-1,0,2
Y2-S2-166K18,7,597,AS,exp,35,←,left,←,0.784965600003488,True,21,1,1,3
Y2-S2-166K18,7,598,AS,exp,41,↑,left,←,0.752641899976879,False,20,-1,1,4
Y2-S2-166K18,7,599,AS,exp,38,←,left,←,0.601577099994756,True,21,-1,0,4
Y2-S2-166K18,7,600,AS,exp,32,↓,down,↓,0.942909600038547,True,21,-1,0,4
Y2-S2-166K18,7,601,AS,exp,41,←,right,→,0.716085699968971,False,21,-1,0,4
Y2-S2-166K18,7,602,AS,exp,30,→,left,←,1.09672159998445,False,22,-1,0,4
Y2-S2-166K18,7,603,AS,exp,46,←,left,←,1.0404903999879,True,23,-1,0,4
Y2-S2-166K18,7,604,AS,exp,41,↑,up,↑,0.793690800026525,True,23,-1,0,4
Y2-S2-166K18,7,605,AS,exp,31,→,right,→,1.32715179998195,True,23,1,1,5
Y2-S2-166K18,7,606,AS,exp,42,↓,down,↓,1.15867760003312,True,22,1,0,5
Y2-S2-166K18,7,607,AS,exp,41,←,left,←,0.837067599990405,True,22,1,0,5
Y2-S2-166K18,7,608,AS,exp,34,↓,down,↓,0.552071400044952,True,22,1,0,5
Y2-S2-166K18,7,609,AS,exp,33,→,right,→,0.661535800027195,True,21,1,0,5
Y2-S2-166K18,7,610,AS,exp,49,←,left,←,1.57898590003606,True,21,1,0,5
Y2-S2-166K18,7,611,AS,exp,45,→,right,→,0.668680500006303,True,21,1,0,5
Y2-S2-166K18,7,612,AS,exp,45,←,right,→,0.787781700026244,False,20,-1,1,6
Y2-S2-166K18,7,613,AS,exp,27,↓,down,↓,0.742173600010574,True,21,-1,0,6
Y2-S2-166K18,7,614,AS,exp,25,←,left,←,0.655806399998255,True,21,-1,0,6
Y2-S2-166K18,7,615,AS,exp,42,↑,up,↑,0.82634919998236,True,21,1,1,7
Y2-S2-166K18,7,616,AS,exp,31,→,right,→,0.687397700035945,True,20,1,0,7
Y2-S2-166K18,7,617,AS,exp,45,↑,up,↑,0.859778899990488,True,20,1,0,7
Y2-S2-166K18,7,618,AS,exp,32,←,left,←,1.95053889998235,True,20,1,0,7
Y2-S2-166K18,7,619,AS,exp,41,↓,down,↓,1.01760600000853,True,19,1,0,7
Y2-S2-166K18,7,620,AS,exp,33,↑,up,↑,0.869938999996521,True,19,1,0,7
Y2-S2-166K18,7,621,AS,exp,39,←,left,←,0.962280000036117,True,19,1,0,7
Y2-S2-166K18,7,622,AS,exp,39,↑,up,↑,0.981299699982628,True,18,1,0,7
Y2-S2-166K18,7,623,AS,exp,35,←,left,←,1.91976759996032,True,18,1,0,7
Y2-S2-166K18,7,624,AS,exp,37,↑,up,↑,0.714167399972212,True,18,1,0,7
Y2-S2-166K18,7,625,AS,exp,34,←,left,←,0.696261399949435,True,17,1,0,7
Y2-S2-166K18,7,626,AS,exp,27,↑,left,←,1.47946790000424,False,17,-1,1,8
Y2-S2-166K18,7,627,AS,exp,39,←,left,←,1.9539937999798,True,18,-1,0,8
Y2-S2-166K18,7,628,AS,exp,31,→,left,←,1.03433059999952,False,18,-1,0,8
Y2-S2-166K18,7,629,AS,exp,30,←,left,←,1.13186030002544,True,19,-1,0,8
Y2-S2-166K18,7,630,AS,exp,41,↓,down,↓,1.86090680002235,True,19,-1,0,8
Y2-S2-166K18,7,631,AS,exp,40,→,right,→,0.730638499953784,True,19,1,1,9
Y2-S2-166K18,7,632,AS,exp,41,↑,up,↑,0.791481999971438,True,18,1,0,9
Y2-S2-166K18,7,633,AS,exp,36,↓,right,→,0.833312900038436,False,18,-1,1,10
Y2-S2-166K18,7,634,AS,exp,33,←,left,←,0.837143600045238,True,19,-1,0,10
Y2-S2-166K18,7,635,AS,exp,48,↑,up,↑,0.71214030002011,True,19,-1,0,10
Y2-S2-166K18,7,636,AS,exp,30,←,right,→,0.55488890002016,False,19,-1,0,10
Y2-S2-166K18,7,637,AS,exp,32,→,right,→,0.714196000015363,True,20,-1,0,10
Y2-S2-166K18,7,638,AS,exp,38,↓,down,↓,0.898629800009076,True,20,-1,0,10
Y2-S2-166K18,7,639,AS,exp,46,↑,left,←,1.10935089999111,False,20,-1,0,10
Y2-S2-166K18,7,640,AS,exp,26,→,right,→,0.625726300000679,True,21,-1,0,10
Y2-S2-166K18,7,641,AS,exp,39,↑,up,↑,0.571177200006787,True,21,-1,0,10
Y2-S2-166K18,7,642,AS,exp,40,←,right,→,0.816866199951619,False,21,-1,0,10
Y2-S2-166K18,7,643,AS,exp,32,↓,down,↓,1.31767680001212,True,22,-1,0,10
Y2-S2-166K18,7,644,AS,exp,28,→,right,→,0.888950900000054,True,22,-1,0,10
Y2-S2-166K18,7,645,AS,exp,40,↓,down,↓,0.742448300006799,True,22,1,1,11
Y2-S2-166K18,7,646,AS,exp,29,←,left,←,0.879714799986687,True,21,1,0,11
Y2-S2-166K18,7,647,AS,exp,32,↓,down,↓,0.773853900027461,True,21,1,0,11
Y2-S2-166K18,7,648,AS,exp,44,←,left,←,0.903903800004628,True,21,1,0,11
Y2-S2-166K18,7,649,AS,exp,36,↓,down,↓,0.662984599999618,True,20,1,0,11
Y2-S2-166K18,7,650,AS,exp,41,↑,up,↑,0.97187439998379,True,20,1,0,11
Y2-S2-166K18,7,651,AS,exp,47,←,left,←,0.587031900009606,True,20,1,0,11
Y2-S2-166K18,7,652,AS,exp,31,↑,up,↑,0.978440700040665,True,19,1,0,11
Y2-S2-166K18,7,653,AS,exp,40,←,up,↑,1.06753319996642,False,19,-1,1,12
Y2-S2-166K18,7,654,AS,exp,39,→,right,→,0.845407899993006,True,20,-1,0,12
Y2-S2-166K18,7,655,AS,exp,40,←,left,←,0.869727600016631,True,20,-1,0,12
Y2-S2-166K18,7,656,AS,exp,45,↓,down,↓,1.16649809997762,True,20,1,1,13
Y2-S2-166K18,7,657,AS,exp,31,→,right,→,0.604739199974574,True,19,1,0,13
Y2-S2-166K18,7,658,AS,exp,37,↑,up,↑,0.882312899979297,True,19,1,0,13
Y2-S2-166K18,7,659,AS,exp,38,→,right,→,0.723759999964386,True,19,1,0,13
Y2-S2-166K18,7,660,AS,exp,39,↑,up,↑,1.12438550003571,True,18,1,0,13
Y2-S2-166K18,7,661,AS,exp,25,→,right,→,0.860148200008553,True,18,1,0,13
Y2-S2-166K18,7,662,AS,exp,32,←,right,→,0.87555880000582,False,18,-1,1,14
Y2-S2-166K18,7,663,AS,exp,39,↓,down,↓,1.12913920002757,True,19,-1,0,14
Y2-S2-166K18,7,664,AS,exp,44,←,left,←,0.73211550002452,True,19,-1,0,14
Y2-S2-166K18,7,665,AS,exp,32,↑,up,↑,0.802785600011703,True,19,1,1,15
Y2-S2-166K18,7,666,AS,exp,30,→,right,→,0.694987599970773,True,18,1,0,15
Y2-S2-166K18,7,667,AS,exp,38,←,right,→,0.507205300033093,False,18,-1,1,16
Y2-S2-166K18,8,668,PS,intra_train,34,↓,no_key,no_letter,-1,False,13,-,-,-
Y2-S2-166K18,8,669,PS,intra_train,34,↑,up,↑,0.582694499986246,True,13,-,-,-
Y2-S2-166K18,8,670,PS,intra_train,47,→,right,→,0.604567300004419,True,13,-,-,-
Y2-S2-166K18,8,671,PS,intra_train,36,↑,up,↑,0.54023679997772,True,13,-,-,-
Y2-S2-166K18,8,672,PS,intra_train,25,←,left,←,0.432757299975492,True,13,-,-,-
Y2-S2-166K18,8,673,PS,exp,40,↑,up,↑,0.56900289998157,True,9,0,0,0
Y2-S2-166K18,8,674,PS,exp,26,→,right,→,0.622031100036111,True,9,0,0,0
Y2-S2-166K18,8,675,PS,exp,50,↓,left,←,1.14483659999678,False,9,-1,0,0
Y2-S2-166K18,8,676,PS,exp,49,↑,up,↑,0.605139799998142,True,10,-1,0,0
Y2-S2-166K18,8,677,PS,exp,38,↓,down,↓,0.716669100045692,True,10,-1,0,0
Y2-S2-166K18,8,678,PS,exp,44,←,left,←,0.511168400000315,True,10,1,1,1
Y2-S2-166K18,8,679,PS,exp,47,↓,down,↓,0.606986899976619,True,9,1,0,1
Y2-S2-166K18,8,680,PS,exp,29,↑,right,→,1.38237639999716,False,9,-1,1,2
Y2-S2-166K18,8,681,PS,exp,27,←,left,←,0.553850100026466,True,10,-1,0,2
Y2-S2-166K18,8,682,PS,exp,50,↓,down,↓,0.616986699984409,True,10,-1,0,2
Y2-S2-166K18,8,683,PS,exp,25,→,right,→,0.595840199966915,True,10,1,1,3
Y2-S2-166K18,8,684,PS,exp,46,←,left,←,0.708294000010938,True,9,1,0,3
Y2-S2-166K18,8,685,PS,exp,50,→,right,→,0.559930799994618,True,9,1,0,3
Y2-S2-166K18,8,686,PS,exp,43,↓,down,↓,0.654444899992086,True,9,1,0,3
Y2-S2-166K18,8,687,PS,exp,41,←,left,←,0.492267099965829,True,8,1,0,3
Y2-S2-166K18,8,688,PS,exp,29,↓,left,←,0.86132440000074,False,8,-1,1,4
Y2-S2-166K18,8,689,PS,exp,29,←,left,←,0.72568269999465,True,9,-1,0,4
Y2-S2-166K18,8,690,PS,exp,41,→,right,→,0.5373976000119,True,9,-1,0,4
Y2-S2-166K18,8,691,PS,exp,36,↑,up,↑,0.613562199985609,True,9,1,1,5
Y2-S2-166K18,8,692,PS,exp,28,↓,down,↓,0.626766599947587,True,8,1,0,5
Y2-S2-166K18,8,693,PS,exp,32,→,right,→,0.843786399986129,True,8,1,0,5
Y2-S2-166K18,8,694,PS,exp,42,↑,left,←,0.746529800002463,False,8,-1,1,6
Y2-S2-166K18,8,695,PS,exp,28,←,left,←,0.565851600025781,True,9,-1,0,6
Y2-S2-166K18,8,696,PS,exp,39,→,right,→,0.853227900050115,True,9,-1,0,6
Y2-S2-166K18,8,697,PS,exp,45,↑,left,←,1.42514259996824,False,9,-1,0,6
Y2-S2-166K18,8,698,PS,exp,41,↓,down,↓,0.684159800002817,True,10,-1,0,6
Y2-S2-166K18,8,699,PS,exp,37,←,left,←,0.728549499996007,True,10,-1,0,6
Y2-S2-166K18,8,700,PS,exp,34,↑,up,↑,0.89452380000148,True,10,1,1,7
Y2-S2-166K18,8,701,PS,exp,31,↓,down,↓,0.66876339999726,True,9,1,0,7
Y2-S2-166K18,8,702,PS,exp,33,↑,up,↑,0.735193900007289,True,9,1,0,7
Y2-S2-166K18,8,703,PS,exp,36,←,left,←,0.654366299975663,True,9,1,0,7
Y2-S2-166K18,8,704,PS,exp,43,↓,down,↓,0.787187800044194,True,8,1,0,7
Y2-S2-166K18,8,705,PS,exp,33,→,no_key,no_letter,-1,False,8,-1,1,8
Y2-S2-166K18,8,706,PS,exp,32,←,left,←,0.804574500012677,True,9,-1,0,8
Y2-S2-166K18,8,707,PS,exp,44,↓,down,↓,0.636511699995026,True,9,-1,0,8
Y2-S2-166K18,8,708,PS,exp,27,←,left,←,1.51432340004249,True,9,1,1,9
Y2-S2-166K18,8,709,PS,exp,38,↑,left,←,0.859347099962179,False,8,-1,1,10
Y2-S2-166K18,8,710,PS,exp,50,→,no_key,no_letter,-1,False,9,-1,0,10
Y2-S2-166K18,8,711,PS,exp,30,←,left,←,0.661684399994556,True,10,-1,0,10
Y2-S2-166K18,8,712,PS,exp,29,→,left,←,0.759419200010598,False,10,-1,0,10
Y2-S2-166K18,8,713,PS,exp,26,↓,left,←,1.18605550000211,False,11,-1,0,10
Y2-S2-166K18,8,714,PS,exp,37,→,right,→,0.592770699993707,True,12,-1,0,10
Y2-S2-166K18,8,715,PS,exp,48,↓,down,↓,0.653871999995317,True,12,-1,0,10
Y2-S2-166K18,8,716,PS,exp,39,←,left,←,0.841282400011551,True,12,1,1,11
Y2-S2-166K18,8,717,PS,exp,50,↓,down,↓,0.757886499981396,True,11,1,0,11
Y2-S2-166K18,8,718,PS,exp,35,↑,up,↑,0.781685599999037,True,11,1,0,11
Y2-S2-166K18,8,719,PS,exp,27,→,down,↓,0.8669531000196,False,11,-1,1,12
Y2-S2-166K18,8,720,PS,exp,44,←,left,←,0.72097720002057,True,12,-1,0,12
Y2-S2-166K18,8,721,PS,exp,34,→,right,→,0.631853300030343,True,12,-1,0,12
Y2-S2-166K18,8,722,PS,exp,31,↓,right,→,1.62090290000197,False,12,-1,0,12
Y2-S2-166K18,8,723,PS,exp,34,←,left,←,0.485008899995592,True,13,-1,0,12
Y2-S2-166K18,8,724,PS,exp,34,↑,up,↑,0.524288100015838,True,13,-1,0,12
Y2-S2-166K18,8,725,PS,exp,45,↓,down,↓,0.597572800004855,True,13,1,1,13
Y2-S2-166K18,8,726,PS,exp,34,←,left,←,0.557579700020142,True,12,1,0,13
Y2-S2-166K18,8,727,PS,exp,32,↓,down,↓,0.594848999986425,True,12,1,0,13
Y2-S2-166K18,8,728,PS,exp,30,↑,up,↑,0.694442400010303,True,12,1,0,13
Y2-S2-166K18,8,729,PS,exp,32,→,left,←,0.929912600026,False,11,-1,1,14
Y2-S2-166K18,8,730,PS,exp,41,←,left,←,0.539521400001831,True,12,-1,0,14
Y2-S2-166K18,8,731,PS,exp,35,→,right,→,0.682584499998484,True,12,-1,0,14
Y2-S2-166K18,8,732,PS,exp,36,←,right,→,1.09036920004291,False,12,-1,0,14
Y2-S2-166K18,8,733,PS,exp,48,↑,up,↑,0.596099600021262,True,13,-1,0,14
Y2-S2-166K18,8,734,PS,exp,39,←,left,←,0.543357099988498,True,13,-1,0,14
Y2-S2-166K18,8,735,PS,exp,31,→,right,→,0.650975199998356,True,13,1,1,15
Y2-S2-166K18,8,736,PS,exp,26,↓,left,←,0.86069599998882,False,12,-1,1,16
