PART_ID,Block_no,Trial_no,Block_type,Trial_type,CSI,Stim_letter,Key_pressed,letter_choose,Rt,Corr,Stimulus Time,Level,Reversal,Revs_count
Y2-S2-144M20,1,1,PS,train,46,↓,down,↓,0.500509900040925,True,30,-,-,-
Y2-S2-144M20,1,2,PS,train,27,→,right,→,0.483926699962467,True,30,-,-,-
Y2-S2-144M20,1,3,PS,train,35,↑,up,↑,0.600885400082916,True,30,-,-,-
Y2-S2-144M20,1,4,PS,train,36,→,right,→,0.466989400330931,True,30,-,-,-
Y2-S2-144M20,1,5,PS,train,35,↓,down,↓,0.467904000077397,True,30,-,-,-
Y2-S2-144M20,1,6,PS,train,36,→,right,→,0.961706900037825,True,30,-,-,-
Y2-S2-144M20,1,7,PS,train,25,↑,up,↑,0.771619900129736,True,30,-,-,-
Y2-S2-144M20,1,8,PS,train,25,←,left,←,0.967207500245422,True,30,-,-,-
Y2-S2-144M20,1,9,PS,train,37,↓,down,↓,0.731279999949038,True,30,-,-,-
Y2-S2-144M20,1,10,PS,train,40,↑,up,↑,0.815438500139862,True,30,-,-,-
Y2-S2-144M20,2,11,AS,train,30,←,left,←,0.767232100013644,True,45,-,-,-
Y2-S2-144M20,2,12,AS,train,49,↓,down,↓,1.49086879985407,True,45,-,-,-
Y2-S2-144M20,2,13,AS,train,50,→,right,→,0.701294300146401,True,45,-,-,-
Y2-S2-144M20,2,14,AS,train,25,↑,up,↑,0.733816299587488,True,45,-,-,-
Y2-S2-144M20,2,15,AS,train,48,→,right,→,0.701044800225645,True,45,-,-,-
Y2-S2-144M20,2,16,AS,train,40,←,left,←,0.817220399621874,True,45,-,-,-
Y2-S2-144M20,2,17,AS,train,41,→,right,→,0.550908499862999,True,45,-,-,-
Y2-S2-144M20,2,18,AS,train,26,↑,up,↑,0.717705299612135,True,45,-,-,-
Y2-S2-144M20,2,19,AS,train,30,→,right,→,0.667580800130963,True,45,-,-,-
Y2-S2-144M20,2,20,AS,train,47,↑,up,↑,0.684229199774563,True,45,-,-,-
Y2-S2-144M20,-,21,PS,adaptive,50,↓,down,↓,0.392425100319088,True,10,0,0,0
Y2-S2-144M20,-,22,PS,adaptive,34,↑,up,↑,0.554722999688238,True,10,0,0,0
Y2-S2-144M20,-,23,PS,adaptive,34,←,left,←,0.71886819973588,True,10,1,0,0
Y2-S2-144M20,-,24,PS,adaptive,41,→,right,→,0.419406100176275,True,9,1,0,0
Y2-S2-144M20,-,25,PS,adaptive,40,↓,down,↓,0.446310699917376,True,9,1,0,0
Y2-S2-144M20,-,26,PS,adaptive,33,→,right,→,0.52111960016191,True,9,1,0,0
Y2-S2-144M20,-,27,PS,adaptive,41,↓,down,↓,0.411639099940658,True,8,1,0,0
Y2-S2-144M20,-,28,PS,adaptive,34,↑,down,↓,0.620666400063783,False,8,-1,1,1
Y2-S2-144M20,-,29,PS,adaptive,28,→,right,→,0.478737200144678,True,9,-1,0,1
Y2-S2-144M20,-,30,PS,adaptive,30,↓,left,←,0.575039299670607,False,9,-1,0,1
Y2-S2-144M20,-,31,PS,adaptive,47,←,left,←,0.426080900244415,True,10,-1,0,1
Y2-S2-144M20,-,32,PS,adaptive,42,→,right,→,0.38995510013774,True,10,-1,0,1
Y2-S2-144M20,-,33,PS,adaptive,42,↑,up,↑,0.593896400183439,True,10,1,1,2
Y2-S2-144M20,-,34,PS,adaptive,29,←,left,←,0.401283499784768,True,9,1,0,2
Y2-S2-144M20,-,35,PS,adaptive,37,↑,up,↑,0.545090200379491,True,9,1,0,2
Y2-S2-144M20,-,36,PS,adaptive,49,→,right,→,0.554715699981898,True,9,1,0,2
Y2-S2-144M20,-,37,PS,adaptive,44,↓,left,←,0.600786100141704,False,8,-1,1,3
Y2-S2-144M20,-,38,PS,adaptive,49,→,right,→,0.438971200026572,True,9,-1,0,3
Y2-S2-144M20,-,39,PS,adaptive,41,↓,down,↓,0.605183099862188,True,9,-1,0,3
Y2-S2-144M20,-,40,PS,adaptive,44,←,left,←,0.466706099919975,True,9,1,1,4
Y2-S2-144M20,-,41,AS,adaptive,50,↑,up,↑,0.550258399918675,True,20,0,0,0
Y2-S2-144M20,-,42,AS,adaptive,44,←,left,←,0.552165099885315,True,20,0,0,0
Y2-S2-144M20,-,43,AS,adaptive,30,↑,up,↑,0.611311099957675,True,20,1,0,0
Y2-S2-144M20,-,44,AS,adaptive,44,↓,down,↓,0.400686699897051,True,19,1,0,0
Y2-S2-144M20,-,45,AS,adaptive,26,←,left,←,0.517585900146514,True,19,1,0,0
Y2-S2-144M20,-,46,AS,adaptive,30,↓,down,↓,0.681468999944627,True,19,1,0,0
Y2-S2-144M20,-,47,AS,adaptive,28,←,left,←,0.540728500112891,True,18,1,0,0
Y2-S2-144M20,-,48,AS,adaptive,32,↑,up,↑,0.534061799757183,True,18,1,0,0
Y2-S2-144M20,-,49,AS,adaptive,25,→,right,→,0.594631200190634,True,18,1,0,0
Y2-S2-144M20,-,50,AS,adaptive,45,←,left,←,0.350566299632192,True,17,1,0,0
Y2-S2-144M20,-,51,AS,adaptive,41,↑,up,↑,0.474250299856067,True,17,1,0,0
Y2-S2-144M20,-,52,AS,adaptive,45,↓,down,↓,0.483869400341064,True,17,1,0,0
Y2-S2-144M20,-,53,AS,adaptive,33,←,left,←,0.549939599819481,True,16,1,0,0
Y2-S2-144M20,-,54,AS,adaptive,30,→,right,→,0.638437800109386,True,16,1,0,0
Y2-S2-144M20,-,55,AS,adaptive,26,↓,down,↓,0.62844379991293,True,16,1,0,0
Y2-S2-144M20,-,56,AS,adaptive,45,←,left,←,0.467186499852687,True,15,1,0,0
Y2-S2-144M20,-,57,AS,adaptive,34,→,right,→,0.562437099870294,True,15,1,0,0
Y2-S2-144M20,-,58,AS,adaptive,26,↓,down,↓,0.551841699983925,True,15,1,0,0
Y2-S2-144M20,-,59,AS,adaptive,50,→,left,←,0.608010500203818,False,14,-1,1,1
Y2-S2-144M20,-,60,AS,adaptive,37,↑,up,↑,0.486238200217485,True,15,-1,0,1
Y2-S2-144M20,-,61,AS,adaptive,27,→,right,→,0.666152900084853,True,15,-1,0,1
Y2-S2-144M20,-,62,AS,adaptive,31,↑,left,←,0.655133400112391,False,15,-1,0,1
Y2-S2-144M20,-,63,AS,adaptive,32,←,left,←,0.512343700043857,True,16,-1,0,1
Y2-S2-144M20,-,64,AS,adaptive,43,→,right,→,0.490304000210017,True,16,-1,0,1
Y2-S2-144M20,-,65,AS,adaptive,42,←,down,↓,1.3704379000701,False,16,-1,0,1
Y2-S2-144M20,-,66,AS,adaptive,27,→,left,←,0.959862200077623,False,17,-1,0,1
Y2-S2-144M20,-,67,AS,adaptive,50,↑,up,↑,0.59856089996174,True,18,-1,0,1
Y2-S2-144M20,-,68,AS,adaptive,37,←,left,←,0.501620099879801,True,18,-1,0,1
Y2-S2-144M20,-,69,AS,adaptive,32,↓,down,↓,0.494703100062907,True,18,1,1,2
Y2-S2-144M20,-,70,AS,adaptive,25,→,right,→,0.544604599941522,True,17,1,0,2
Y2-S2-144M20,-,71,AS,adaptive,34,↑,down,↓,0.928823899943382,False,17,-1,1,3
Y2-S2-144M20,-,72,AS,adaptive,41,→,left,←,0.417276700027287,False,18,-1,0,3
Y2-S2-144M20,-,73,AS,adaptive,39,↓,down,↓,0.550207499880344,True,19,-1,0,3
Y2-S2-144M20,-,74,AS,adaptive,31,↑,up,↑,0.651956300251186,True,19,-1,0,3
Y2-S2-144M20,-,75,AS,adaptive,41,↓,down,↓,0.515949400141835,True,19,1,1,4
Y2-S2-144M20,1,76,AS,intra_train,37,→,right,→,0.500858700368553,True,27,-,-,-
Y2-S2-144M20,1,77,AS,intra_train,32,↓,down,↓,0.467544999904931,True,27,-,-,-
Y2-S2-144M20,1,78,AS,intra_train,37,←,left,←,0.668203899636865,True,27,-,-,-
Y2-S2-144M20,1,79,AS,intra_train,39,↓,down,↓,0.517397199757397,True,27,-,-,-
Y2-S2-144M20,1,80,AS,intra_train,28,↑,up,↑,1.20481429994106,True,27,-,-,-
Y2-S2-144M20,1,81,AS,exp,30,→,right,→,0.53428199980408,True,18,0,0,0
Y2-S2-144M20,1,82,AS,exp,45,↓,down,↓,0.623644600156695,True,18,0,0,0
Y2-S2-144M20,1,83,AS,exp,49,↑,up,↑,0.705965800210834,True,18,1,0,0
Y2-S2-144M20,1,84,AS,exp,26,↓,down,↓,0.611006900202483,True,17,1,0,0
Y2-S2-144M20,1,85,AS,exp,26,↑,up,↑,0.621807599905878,True,17,1,0,0
Y2-S2-144M20,1,86,AS,exp,49,→,right,→,0.553909100126475,True,17,1,0,0
Y2-S2-144M20,1,87,AS,exp,34,↓,down,↓,0.537466899957508,True,16,1,0,0
Y2-S2-144M20,1,88,AS,exp,39,←,left,←,0.53749019978568,True,16,1,0,0
Y2-S2-144M20,1,89,AS,exp,33,↓,down,↓,0.515981300268322,True,16,1,0,0
Y2-S2-144M20,1,90,AS,exp,39,↑,up,↑,0.643264699727297,True,15,1,0,0
Y2-S2-144M20,1,91,AS,exp,32,↓,down,↓,1.06016959995031,True,15,1,0,0
Y2-S2-144M20,1,92,AS,exp,28,→,right,→,0.570074600167573,True,15,1,0,0
Y2-S2-144M20,1,93,AS,exp,45,←,left,←,0.647451899945736,True,14,1,0,0
Y2-S2-144M20,1,94,AS,exp,25,↑,up,↑,0.67606610013172,True,14,1,0,0
Y2-S2-144M20,1,95,AS,exp,30,→,right,→,0.482303199823946,True,14,1,0,0
Y2-S2-144M20,1,96,AS,exp,49,↑,down,↓,0.680719599593431,False,13,-1,1,1
Y2-S2-144M20,1,97,AS,exp,33,←,left,←,0.471345299854875,True,14,-1,0,1
Y2-S2-144M20,1,98,AS,exp,35,↑,left,←,1.00927270017564,False,14,-1,0,1
Y2-S2-144M20,1,99,AS,exp,40,↓,right,→,1.4378788000904,False,15,-1,0,1
Y2-S2-144M20,1,100,AS,exp,32,→,right,→,0.557835599873215,True,16,-1,0,1
Y2-S2-144M20,1,101,AS,exp,37,↑,up,↑,0.597612999845296,True,16,-1,0,1
Y2-S2-144M20,1,102,AS,exp,50,→,right,→,0.541388000361621,True,16,1,1,2
Y2-S2-144M20,1,103,AS,exp,36,↑,up,↑,1.20023370021954,True,15,1,0,2
Y2-S2-144M20,1,104,AS,exp,28,←,left,←,0.537683199625462,True,15,1,0,2
Y2-S2-144M20,1,105,AS,exp,44,→,right,→,0.474150599911809,True,15,1,0,2
Y2-S2-144M20,1,106,AS,exp,26,↑,left,←,0.675607099663466,False,14,-1,1,3
Y2-S2-144M20,1,107,AS,exp,46,→,right,→,0.933767300099134,True,15,-1,0,3
Y2-S2-144M20,1,108,AS,exp,36,↑,up,↑,0.506242700386792,True,15,-1,0,3
Y2-S2-144M20,1,109,AS,exp,47,←,left,←,0.545325200073421,True,15,1,1,4
Y2-S2-144M20,1,110,AS,exp,26,↓,down,↓,0.540632899850607,True,14,1,0,4
Y2-S2-144M20,1,111,AS,exp,37,↑,up,↑,0.594160299748182,True,14,1,0,4
Y2-S2-144M20,1,112,AS,exp,44,→,right,→,0.497444200329483,True,14,1,0,4
Y2-S2-144M20,1,113,AS,exp,25,↓,down,↓,0.513678499963135,True,13,1,0,4
Y2-S2-144M20,1,114,AS,exp,41,←,left,←,0.699690500274301,True,13,1,0,4
Y2-S2-144M20,1,115,AS,exp,43,↓,down,↓,0.575498699676246,True,13,1,0,4
Y2-S2-144M20,1,116,AS,exp,39,↑,down,↓,0.735599299892783,False,12,-1,1,5
Y2-S2-144M20,1,117,AS,exp,27,→,right,→,0.503465500194579,True,13,-1,0,5
Y2-S2-144M20,1,118,AS,exp,45,←,right,→,0.472107300069183,False,13,-1,0,5
Y2-S2-144M20,1,119,AS,exp,28,↑,up,↑,0.556048200000078,True,14,-1,0,5
Y2-S2-144M20,1,120,AS,exp,40,←,right,→,1.06346490001306,False,14,-1,0,5
Y2-S2-144M20,1,121,AS,exp,49,↑,up,↑,0.613131400197744,True,15,-1,0,5
Y2-S2-144M20,1,122,AS,exp,42,←,right,→,0.858844700269401,False,15,-1,0,5
Y2-S2-144M20,1,123,AS,exp,50,→,left,←,0.610396900214255,False,16,-1,0,5
Y2-S2-144M20,1,124,AS,exp,27,↓,down,↓,0.627609100192785,True,17,-1,0,5
Y2-S2-144M20,1,125,AS,exp,37,↑,down,↓,1.22094780020416,False,17,-1,0,5
Y2-S2-144M20,1,126,AS,exp,39,→,right,→,0.560469499789178,True,18,-1,0,5
Y2-S2-144M20,1,127,AS,exp,26,↓,left,←,0.864200199954212,False,18,-1,0,5
Y2-S2-144M20,1,128,AS,exp,48,↑,up,↑,0.547461399808526,True,19,-1,0,5
Y2-S2-144M20,1,129,AS,exp,47,←,left,←,0.604691700078547,True,19,-1,0,5
Y2-S2-144M20,1,130,AS,exp,45,↑,up,↑,0.52387659996748,True,19,1,1,6
Y2-S2-144M20,1,131,AS,exp,39,→,right,→,0.508641100022942,True,18,1,0,6
Y2-S2-144M20,1,132,AS,exp,44,↓,down,↓,0.639801499899477,True,18,1,0,6
Y2-S2-144M20,1,133,AS,exp,35,←,left,←,0.695732899941504,True,18,1,0,6
Y2-S2-144M20,1,134,AS,exp,29,↑,up,↑,0.570215899962932,True,17,1,0,6
Y2-S2-144M20,1,135,AS,exp,31,←,left,←,0.652286499738693,True,17,1,0,6
Y2-S2-144M20,1,136,AS,exp,28,↓,down,↓,0.492533300071955,True,17,1,0,6
Y2-S2-144M20,1,137,AS,exp,27,←,left,←,0.555510399863124,True,16,1,0,6
Y2-S2-144M20,1,138,AS,exp,49,→,right,→,0.604834300000221,True,16,1,0,6
Y2-S2-144M20,1,139,AS,exp,29,↑,up,↑,0.892135799862444,True,16,1,0,6
Y2-S2-144M20,1,140,AS,exp,45,←,left,←,0.599626199807972,True,15,1,0,6
Y2-S2-144M20,1,141,AS,exp,38,↑,down,↓,0.793405700009316,False,15,-1,1,7
Y2-S2-144M20,1,142,AS,exp,38,→,right,→,1.00895190006122,True,16,-1,0,7
Y2-S2-144M20,1,143,AS,exp,45,↑,up,↑,0.591302399989218,True,16,-1,0,7
Y2-S2-144M20,1,144,AS,exp,28,→,right,→,0.575898099690676,True,16,1,1,8
Y2-S2-144M20,1,145,AS,exp,45,←,left,←,1.11564259976149,True,15,1,0,8
Y2-S2-144M20,1,146,AS,exp,39,↓,down,↓,0.525384299922735,True,15,1,0,8
Y2-S2-144M20,1,147,AS,exp,47,↑,down,↓,1.27491960022599,False,15,-1,1,9
Y2-S2-144M20,1,148,AS,exp,28,↓,down,↓,1.46896870015189,True,16,-1,0,9
Y2-S2-144M20,1,149,AS,exp,30,←,right,→,1.88481700001284,False,16,-1,0,9
Y2-S2-144M20,1,150,AS,exp,40,↓,down,↓,0.73056389996782,True,17,-1,0,9
Y2-S2-144M20,1,151,AS,exp,50,→,right,→,0.591398699674755,True,17,-1,0,9
Y2-S2-144M20,1,152,AS,exp,45,↓,up,↑,0.870684700086713,False,17,-1,0,9
Y2-S2-144M20,1,153,AS,exp,49,←,left,←,0.674107499886304,True,18,-1,0,9
Y2-S2-144M20,1,154,AS,exp,43,↓,right,→,0.945576699916273,False,18,-1,0,9
Y2-S2-144M20,1,155,AS,exp,47,→,left,←,0.894040499813855,False,19,-1,0,9
Y2-S2-144M20,1,156,AS,exp,50,↑,up,↑,0.768114200327545,True,20,-1,0,9
Y2-S2-144M20,1,157,AS,exp,50,→,left,←,0.68962029973045,False,20,-1,0,9
Y2-S2-144M20,1,158,AS,exp,50,↑,up,↑,0.703492000233382,True,21,-1,0,9
Y2-S2-144M20,1,159,AS,exp,42,→,right,→,0.681230900343508,True,21,-1,0,9
Y2-S2-144M20,1,160,AS,exp,40,↑,up,↑,0.757235000375658,True,21,1,1,10
Y2-S2-144M20,1,161,AS,exp,40,→,right,→,0.655999000184238,True,20,1,0,10
Y2-S2-144M20,1,162,AS,exp,27,←,right,→,0.433560499921441,False,20,-1,1,11
Y2-S2-144M20,1,163,AS,exp,42,→,right,→,0.581767099909484,True,21,-1,0,11
Y2-S2-144M20,1,164,AS,exp,27,↑,up,↑,0.666524999774993,True,21,-1,0,11
Y2-S2-144M20,1,165,AS,exp,35,→,right,→,1.1886416003108,True,21,1,1,12
Y2-S2-144M20,1,166,AS,exp,39,↑,up,↑,0.588066899683327,True,20,1,0,12
Y2-S2-144M20,1,167,AS,exp,30,→,right,→,0.62294950010255,True,20,1,0,12
Y2-S2-144M20,1,168,AS,exp,50,↓,down,↓,0.654382300097495,True,20,1,0,12
Y2-S2-144M20,1,169,AS,exp,28,←,left,←,0.559237000066787,True,19,1,0,12
Y2-S2-144M20,1,170,AS,exp,46,↓,down,↓,0.529358100146055,True,19,1,0,12
Y2-S2-144M20,1,171,AS,exp,30,←,left,←,0.637797600124031,True,19,1,0,12
Y2-S2-144M20,1,172,AS,exp,36,↑,right,→,0.882131800055504,False,18,-1,1,13
Y2-S2-144M20,1,173,AS,exp,50,←,left,←,0.517829900141805,True,19,-1,0,13
Y2-S2-144M20,1,174,AS,exp,30,→,no_key,no_letter,-1,False,19,-1,0,13
Y2-S2-144M20,1,175,AS,exp,41,↑,left,←,0.860946199856699,False,20,-1,0,13
Y2-S2-144M20,1,176,AS,exp,44,↓,down,↓,0.677274399902672,True,21,-1,0,13
Y2-S2-144M20,1,177,AS,exp,25,←,left,←,0.808229899965227,True,21,-1,0,13
Y2-S2-144M20,1,178,AS,exp,36,↓,up,↑,0.697151700034738,False,21,-1,0,13
Y2-S2-144M20,1,179,AS,exp,31,→,right,→,0.731521300040186,True,22,-1,0,13
Y2-S2-144M20,1,180,AS,exp,47,↓,down,↓,0.723298699595034,True,22,-1,0,13
Y2-S2-144M20,1,181,AS,exp,25,↑,up,↑,1.07429140014574,True,22,1,1,14
Y2-S2-144M20,1,182,AS,exp,29,↓,down,↓,0.647990100085735,True,21,1,0,14
Y2-S2-144M20,1,183,AS,exp,47,←,left,←,0.563449800014496,True,21,1,0,14
Y2-S2-144M20,1,184,AS,exp,48,→,right,→,0.627532800193876,True,21,1,0,14
Y2-S2-144M20,1,185,AS,exp,49,↓,down,↓,0.70725840004161,True,20,1,0,14
Y2-S2-144M20,1,186,AS,exp,28,←,left,←,1.06961800018325,True,20,1,0,14
Y2-S2-144M20,1,187,AS,exp,36,↓,down,↓,0.724212099798024,True,20,1,0,14
Y2-S2-144M20,1,188,AS,exp,31,↑,up,↑,0.707471299916506,True,19,1,0,14
Y2-S2-144M20,1,189,AS,exp,35,←,left,←,0.488063899800181,True,19,1,0,14
Y2-S2-144M20,1,190,AS,exp,29,↑,up,↑,0.688717300072312,True,19,1,0,14
Y2-S2-144M20,1,191,AS,exp,33,↓,down,↓,0.677218199707568,True,18,1,0,14
Y2-S2-144M20,1,192,AS,exp,40,↑,up,↑,0.86935959989205,True,18,1,0,14
Y2-S2-144M20,1,193,AS,exp,41,←,left,←,1.05794129986316,True,18,1,0,14
Y2-S2-144M20,1,194,AS,exp,32,→,right,→,0.776180000044406,True,17,1,0,14
Y2-S2-144M20,1,195,AS,exp,34,←,left,←,0.487423999700695,True,17,1,0,14
Y2-S2-144M20,1,196,AS,exp,28,↑,up,↑,0.670455100014806,True,17,1,0,14
Y2-S2-144M20,1,197,AS,exp,26,↓,down,↓,0.619784200098366,True,16,1,0,14
Y2-S2-144M20,1,198,AS,exp,35,→,right,→,0.697083699982613,True,16,1,0,14
Y2-S2-144M20,1,199,AS,exp,38,↓,left,←,0.759784299880266,False,16,-1,1,15
Y2-S2-144M20,1,200,AS,exp,27,→,right,→,0.502756100147963,True,17,-1,0,15
Y2-S2-144M20,1,201,AS,exp,36,↓,down,↓,0.51375860022381,True,17,-1,0,15
Y2-S2-144M20,1,202,AS,exp,35,↑,up,↑,0.671702600084245,True,17,1,1,16
Y2-S2-144M20,2,203,PS,intra_train,41,←,left,←,0.440099600236863,True,12,-,-,-
Y2-S2-144M20,2,204,PS,intra_train,26,↑,up,↑,0.571464099921286,True,12,-,-,-
Y2-S2-144M20,2,205,PS,intra_train,35,→,right,→,0.495910599827766,True,12,-,-,-
Y2-S2-144M20,2,206,PS,intra_train,38,←,left,←,0.465137000195682,True,12,-,-,-
Y2-S2-144M20,2,207,PS,intra_train,26,↑,up,↑,0.541850200388581,True,12,-,-,-
Y2-S2-144M20,2,208,PS,exp,43,←,left,←,0.439065699931234,True,8,0,0,0
Y2-S2-144M20,2,209,PS,exp,43,→,right,→,0.587232599966228,True,8,0,0,0
Y2-S2-144M20,2,210,PS,exp,36,↓,down,↓,0.441507899668068,True,8,1,0,0
Y2-S2-144M20,2,211,PS,exp,41,→,left,←,0.494251399766654,False,7,-1,1,1
Y2-S2-144M20,2,212,PS,exp,34,↑,right,→,1.09458129992709,False,8,-1,0,1
Y2-S2-144M20,2,213,PS,exp,35,→,right,→,0.610778199974448,True,9,-1,0,1
Y2-S2-144M20,2,214,PS,exp,45,↓,down,↓,0.39154819957912,True,9,-1,0,1
Y2-S2-144M20,2,215,PS,exp,25,→,right,→,0.609301200136542,True,9,1,1,2
Y2-S2-144M20,2,216,PS,exp,42,↑,down,↓,0.527216400019825,False,8,-1,1,3
Y2-S2-144M20,2,217,PS,exp,43,↓,left,←,0.478368199896067,False,9,-1,0,3
Y2-S2-144M20,2,218,PS,exp,37,←,left,←,0.446125899907202,True,10,-1,0,3
Y2-S2-144M20,2,219,PS,exp,30,→,right,→,0.633750099688768,True,10,-1,0,3
Y2-S2-144M20,2,220,PS,exp,29,↓,down,↓,0.386707799974829,True,10,1,1,4
Y2-S2-144M20,2,221,PS,exp,48,↑,up,↑,0.490507900249213,True,9,1,0,4
Y2-S2-144M20,2,222,PS,exp,50,→,down,↓,0.555294699966908,False,9,-1,1,5
Y2-S2-144M20,2,223,PS,exp,37,↑,right,→,0.661158999893814,False,10,-1,0,5
Y2-S2-144M20,2,224,PS,exp,32,←,left,←,0.443888399749994,True,11,-1,0,5
Y2-S2-144M20,2,225,PS,exp,25,↑,up,↑,0.477122899610549,True,11,-1,0,5
Y2-S2-144M20,2,226,PS,exp,45,↓,down,↓,0.478750600013882,True,11,1,1,6
Y2-S2-144M20,2,227,PS,exp,28,→,left,←,0.853689200244844,False,10,-1,1,7
Y2-S2-144M20,2,228,PS,exp,26,↑,up,↑,0.4322454999201,True,11,-1,0,7
Y2-S2-144M20,2,229,PS,exp,34,←,left,←,0.420949699822813,True,11,-1,0,7
Y2-S2-144M20,2,230,PS,exp,46,↓,left,←,0.606638400349766,False,11,-1,0,7
Y2-S2-144M20,2,231,PS,exp,43,→,right,→,0.401602300349623,True,12,-1,0,7
Y2-S2-144M20,2,232,PS,exp,31,↑,up,↑,0.477254299912602,True,12,-1,0,7
Y2-S2-144M20,2,233,PS,exp,25,←,left,←,0.442387199960649,True,12,1,1,8
Y2-S2-144M20,2,234,PS,exp,29,↓,down,↓,0.397898700088263,True,11,1,0,8
Y2-S2-144M20,2,235,PS,exp,49,↑,left,←,0.588463900145143,False,11,-1,1,9
Y2-S2-144M20,2,236,PS,exp,33,↓,down,↓,0.397934999782592,True,12,-1,0,9
Y2-S2-144M20,2,237,PS,exp,28,↑,up,↑,0.513649399857968,True,12,-1,0,9
Y2-S2-144M20,2,238,PS,exp,50,→,right,→,0.533945099916309,True,12,1,1,10
Y2-S2-144M20,2,239,PS,exp,50,←,left,←,0.367663700133562,True,11,1,0,10
Y2-S2-144M20,2,240,PS,exp,50,→,right,→,0.419468599837273,True,11,1,0,10
Y2-S2-144M20,2,241,PS,exp,49,↑,up,↑,0.510183800011873,True,11,1,0,10
Y2-S2-144M20,2,242,PS,exp,25,←,left,←,0.797846299596131,True,10,1,0,10
Y2-S2-144M20,2,243,PS,exp,49,↓,down,↓,0.526967700105161,True,10,1,0,10
Y2-S2-144M20,2,244,PS,exp,45,↑,up,↑,0.457760700024664,True,10,1,0,10
Y2-S2-144M20,2,245,PS,exp,39,←,left,←,0.494769099634141,True,9,1,0,10
Y2-S2-144M20,2,246,PS,exp,29,→,right,→,0.655282400082797,True,9,1,0,10
Y2-S2-144M20,2,247,PS,exp,40,↑,up,↑,0.742107199970633,True,9,1,0,10
Y2-S2-144M20,2,248,PS,exp,40,←,left,←,0.408320600166917,True,8,1,0,10
Y2-S2-144M20,2,249,PS,exp,34,↓,down,↓,0.580056699924171,True,8,1,0,10
Y2-S2-144M20,2,250,PS,exp,40,→,left,←,0.684685199987143,False,8,-1,1,11
Y2-S2-144M20,2,251,PS,exp,25,←,right,→,0.755882199853659,False,9,-1,0,11
Y2-S2-144M20,2,252,PS,exp,43,↑,left,←,0.685843800194562,False,10,-1,0,11
Y2-S2-144M20,2,253,PS,exp,25,→,left,←,0.938532600179315,False,11,-1,0,11
Y2-S2-144M20,2,254,PS,exp,30,↓,down,↓,0.399620699696243,True,12,-1,0,11
Y2-S2-144M20,2,255,PS,exp,48,↑,down,↓,0.94244770007208,False,12,-1,0,11
Y2-S2-144M20,2,256,PS,exp,26,←,left,←,0.503049000166357,True,13,-1,0,11
Y2-S2-144M20,2,257,PS,exp,31,→,right,→,0.48716549994424,True,13,-1,0,11
Y2-S2-144M20,2,258,PS,exp,25,←,left,←,0.471018000040203,True,13,1,1,12
Y2-S2-144M20,2,259,PS,exp,33,→,right,→,0.429942999966443,True,12,1,0,12
Y2-S2-144M20,2,260,PS,exp,27,←,left,←,0.317672999575734,True,12,1,0,12
Y2-S2-144M20,2,261,PS,exp,39,→,right,→,0.371619299985468,True,12,1,0,12
Y2-S2-144M20,2,262,PS,exp,36,←,left,←,0.363873100373894,True,11,1,0,12
Y2-S2-144M20,2,263,PS,exp,50,↑,up,↑,0.47313249995932,True,11,1,0,12
Y2-S2-144M20,2,264,PS,exp,35,→,right,→,0.45653730025515,True,11,1,0,12
Y2-S2-144M20,2,265,PS,exp,44,↑,up,↑,0.448130200151354,True,10,1,0,12
Y2-S2-144M20,2,266,PS,exp,48,←,left,←,0.382811400108039,True,10,1,0,12
Y2-S2-144M20,2,267,PS,exp,39,↑,left,←,0.796613499987871,False,10,-1,1,13
Y2-S2-144M20,2,268,PS,exp,25,←,left,←,0.782541600055993,True,11,-1,0,13
Y2-S2-144M20,2,269,PS,exp,38,↑,up,↑,0.525578700006008,True,11,-1,0,13
Y2-S2-144M20,2,270,PS,exp,40,→,right,→,0.464505000039935,True,11,1,1,14
Y2-S2-144M20,2,271,PS,exp,44,↓,down,↓,0.45871110027656,True,10,1,0,14
Y2-S2-144M20,2,272,PS,exp,41,←,left,←,0.473573400173336,True,10,1,0,14
Y2-S2-144M20,2,273,PS,exp,25,↑,left,←,0.669828900136054,False,10,-1,1,15
Y2-S2-144M20,2,274,PS,exp,43,↓,down,↓,0.400284799747169,True,11,-1,0,15
Y2-S2-144M20,2,275,PS,exp,26,↑,left,←,0.67546910000965,False,11,-1,0,15
Y2-S2-144M20,2,276,PS,exp,27,←,left,←,0.516115800011903,True,12,-1,0,15
Y2-S2-144M20,2,277,PS,exp,50,↑,up,↑,0.506367799825966,True,12,-1,0,15
Y2-S2-144M20,2,278,PS,exp,41,←,left,←,0.505335099995136,True,12,1,1,16
Y2-S2-144M20,3,279,PS,intra_train,39,↑,up,↑,0.419920400250703,True,12,-,-,-
Y2-S2-144M20,3,280,PS,intra_train,41,↓,down,↓,0.49833710025996,True,12,-,-,-
Y2-S2-144M20,3,281,PS,intra_train,45,↑,left,←,0.506361600011587,False,12,-,-,-
Y2-S2-144M20,3,282,PS,intra_train,45,↓,down,↓,0.420036700088531,True,12,-,-,-
Y2-S2-144M20,3,283,PS,intra_train,45,↑,left,←,0.600282699801028,False,12,-,-,-
Y2-S2-144M20,3,284,PS,exp,32,→,right,→,0.387744000181556,True,8,0,0,0
Y2-S2-144M20,3,285,PS,exp,44,←,left,←,0.424421399831772,True,8,0,0,0
Y2-S2-144M20,3,286,PS,exp,43,↓,down,↓,0.610483800061047,True,8,1,0,0
Y2-S2-144M20,3,287,PS,exp,29,→,right,→,0.370329800061882,True,7,1,0,0
Y2-S2-144M20,3,288,PS,exp,31,↑,left,←,0.499057300388813,False,7,-1,1,1
Y2-S2-144M20,3,289,PS,exp,43,↓,down,↓,0.438654799945653,True,8,-1,0,1
Y2-S2-144M20,3,290,PS,exp,37,→,right,→,0.513716400135309,True,8,-1,0,1
Y2-S2-144M20,3,291,PS,exp,30,←,left,←,0.629886799957603,True,8,1,1,2
Y2-S2-144M20,3,292,PS,exp,50,→,left,←,0.552381500136107,False,7,-1,1,3
Y2-S2-144M20,3,293,PS,exp,32,↑,up,↑,0.627770700026304,True,8,-1,0,3
Y2-S2-144M20,3,294,PS,exp,37,→,left,←,0.639272999949753,False,8,-1,0,3
Y2-S2-144M20,3,295,PS,exp,30,←,left,←,0.522209600079805,True,9,-1,0,3
Y2-S2-144M20,3,296,PS,exp,37,↓,down,↓,0.391658300068229,True,9,-1,0,3
Y2-S2-144M20,3,297,PS,exp,37,←,left,←,0.400114300195128,True,9,1,1,4
Y2-S2-144M20,3,298,PS,exp,36,↑,left,←,0.810401000082493,False,8,-1,1,5
Y2-S2-144M20,3,299,PS,exp,32,←,left,←,0.412455700337887,True,9,-1,0,5
Y2-S2-144M20,3,300,PS,exp,48,→,right,→,0.467166699934751,True,9,-1,0,5
Y2-S2-144M20,3,301,PS,exp,44,↑,up,↑,0.449300399981439,True,9,1,1,6
Y2-S2-144M20,3,302,PS,exp,41,←,left,←,0.46058510011062,True,8,1,0,6
Y2-S2-144M20,3,303,PS,exp,44,↑,left,←,0.448578599840403,False,8,-1,1,7
Y2-S2-144M20,3,304,PS,exp,32,→,right,→,0.555327599868178,True,9,-1,0,7
Y2-S2-144M20,3,305,PS,exp,28,↓,down,↓,0.456890599802136,True,9,-1,0,7
Y2-S2-144M20,3,306,PS,exp,28,→,left,←,0.509339899756014,False,9,-1,0,7
Y2-S2-144M20,3,307,PS,exp,38,↓,down,↓,0.388086500111967,True,10,-1,0,7
Y2-S2-144M20,3,308,PS,exp,26,→,left,←,0.614527499768883,False,10,-1,0,7
Y2-S2-144M20,3,309,PS,exp,36,↓,down,↓,0.369449499994516,True,11,-1,0,7
Y2-S2-144M20,3,310,PS,exp,27,↑,left,←,1.00873890006915,False,11,-1,0,7
Y2-S2-144M20,3,311,PS,exp,35,→,right,→,0.439236800186336,True,12,-1,0,7
Y2-S2-144M20,3,312,PS,exp,27,↓,down,↓,0.449845199938864,True,12,-1,0,7
Y2-S2-144M20,3,313,PS,exp,46,←,left,←,0.445251000113785,True,12,1,1,8
Y2-S2-144M20,3,314,PS,exp,48,→,right,→,0.452359199989587,True,11,1,0,8
Y2-S2-144M20,3,315,PS,exp,43,↑,left,←,0.819346300326288,False,11,-1,1,9
Y2-S2-144M20,3,316,PS,exp,50,←,left,←,0.655920800287277,True,12,-1,0,9
Y2-S2-144M20,3,317,PS,exp,26,↑,up,↑,0.537071899976581,True,12,-1,0,9
Y2-S2-144M20,3,318,PS,exp,39,→,right,→,0.383316600229591,True,12,1,1,10
Y2-S2-144M20,3,319,PS,exp,26,←,left,←,0.423747900407761,True,11,1,0,10
Y2-S2-144M20,3,320,PS,exp,25,↑,left,←,0.662204199936241,False,11,-1,1,11
Y2-S2-144M20,3,321,PS,exp,27,←,left,←,0.434990600217134,True,12,-1,0,11
Y2-S2-144M20,3,322,PS,exp,43,↓,down,↓,0.393076300155371,True,12,-1,0,11
Y2-S2-144M20,3,323,PS,exp,44,→,right,→,0.429717100225389,True,12,1,1,12
Y2-S2-144M20,3,324,PS,exp,31,↓,down,↓,0.436547900084406,True,11,1,0,12
Y2-S2-144M20,3,325,PS,exp,27,→,right,→,0.469378799665719,True,11,1,0,12
Y2-S2-144M20,3,326,PS,exp,29,↑,up,↑,0.446736699901521,True,11,1,0,12
Y2-S2-144M20,3,327,PS,exp,48,←,left,←,0.451606199610978,True,10,1,0,12
Y2-S2-144M20,3,328,PS,exp,42,→,right,→,0.393826799932867,True,10,1,0,12
Y2-S2-144M20,3,329,PS,exp,38,↑,right,→,0.585812199860811,False,10,-1,1,13
Y2-S2-144M20,3,330,PS,exp,49,←,left,←,0.464587699621916,True,11,-1,0,13
Y2-S2-144M20,3,331,PS,exp,47,↓,down,↓,0.404915600083768,True,11,-1,0,13
Y2-S2-144M20,3,332,PS,exp,42,←,left,←,0.409909800160676,True,11,1,1,14
Y2-S2-144M20,3,333,PS,exp,40,↓,down,↓,0.554721899796277,True,10,1,0,14
Y2-S2-144M20,3,334,PS,exp,50,←,left,←,0.427660599816591,True,10,1,0,14
Y2-S2-144M20,3,335,PS,exp,29,↓,down,↓,0.512604900170118,True,10,1,0,14
Y2-S2-144M20,3,336,PS,exp,47,→,right,→,0.438322199974209,True,9,1,0,14
Y2-S2-144M20,3,337,PS,exp,38,↓,left,←,0.453965499997139,False,9,-1,1,15
Y2-S2-144M20,3,338,PS,exp,43,↑,up,↑,0.510545499622822,True,10,-1,0,15
Y2-S2-144M20,3,339,PS,exp,43,↓,down,↓,0.438336600083858,True,10,-1,0,15
Y2-S2-144M20,3,340,PS,exp,40,→,right,→,0.40145119978115,True,10,1,1,16
Y2-S2-144M20,4,341,AS,intra_train,48,←,left,←,1.43762250011787,True,27,-,-,-
Y2-S2-144M20,4,342,AS,intra_train,25,↑,up,↑,1.03559960005805,True,27,-,-,-
Y2-S2-144M20,4,343,AS,intra_train,40,←,left,←,1.07346710003912,True,27,-,-,-
Y2-S2-144M20,4,344,AS,intra_train,46,→,right,→,0.550667900126427,True,27,-,-,-
Y2-S2-144M20,4,345,AS,intra_train,25,↓,down,↓,0.48388640023768,True,27,-,-,-
Y2-S2-144M20,4,346,AS,exp,48,↑,up,↑,0.615899200085551,True,18,0,0,0
Y2-S2-144M20,4,347,AS,exp,42,→,right,→,0.487398500088602,True,18,0,0,0
Y2-S2-144M20,4,348,AS,exp,35,←,left,←,0.511431400198489,True,18,1,0,0
Y2-S2-144M20,4,349,AS,exp,37,↑,up,↑,0.666307399980724,True,17,1,0,0
Y2-S2-144M20,4,350,AS,exp,31,→,right,→,0.558106999844313,True,17,1,0,0
Y2-S2-144M20,4,351,AS,exp,47,↓,down,↓,0.545549199916422,True,17,1,0,0
Y2-S2-144M20,4,352,AS,exp,45,↑,up,↑,0.528448200318962,True,16,1,0,0
Y2-S2-144M20,4,353,AS,exp,31,↓,down,↓,0.559260100126267,True,16,1,0,0
Y2-S2-144M20,4,354,AS,exp,45,→,right,→,0.527666400186718,True,16,1,0,0
Y2-S2-144M20,4,355,AS,exp,44,←,left,←,0.44027840020135,True,15,1,0,0
Y2-S2-144M20,4,356,AS,exp,50,↓,down,↓,0.567008499987423,True,15,1,0,0
Y2-S2-144M20,4,357,AS,exp,37,→,right,→,0.524020900018513,True,15,1,0,0
Y2-S2-144M20,4,358,AS,exp,33,←,left,←,0.605994000099599,True,14,1,0,0
Y2-S2-144M20,4,359,AS,exp,48,→,right,→,0.514917300082743,True,14,1,0,0
Y2-S2-144M20,4,360,AS,exp,48,←,left,←,0.5076221995987,True,14,1,0,0
Y2-S2-144M20,4,361,AS,exp,41,↓,down,↓,0.507975399959832,True,13,1,0,0
Y2-S2-144M20,4,362,AS,exp,32,↑,down,↓,0.624993499834091,False,13,-1,1,1
Y2-S2-144M20,4,363,AS,exp,47,→,left,←,0.650456200353801,False,14,-1,0,1
Y2-S2-144M20,4,364,AS,exp,40,↑,left,←,0.792284500319511,False,15,-1,0,1
Y2-S2-144M20,4,365,AS,exp,43,→,right,→,0.525294700171799,True,16,-1,0,1
Y2-S2-144M20,4,366,AS,exp,41,↓,down,↓,0.539036400150508,True,16,-1,0,1
Y2-S2-144M20,4,367,AS,exp,46,←,left,←,0.646738899871707,True,16,1,1,2
Y2-S2-144M20,4,368,AS,exp,27,↓,left,←,0.75913710007444,False,15,-1,1,3
Y2-S2-144M20,4,369,AS,exp,35,→,left,←,0.563567100092769,False,16,-1,0,3
Y2-S2-144M20,4,370,AS,exp,28,↓,down,↓,0.474243000149727,True,17,-1,0,3
Y2-S2-144M20,4,371,AS,exp,30,↑,up,↑,0.593783299904317,True,17,-1,0,3
Y2-S2-144M20,4,372,AS,exp,29,↓,left,←,0.908940999768674,False,17,-1,0,3
Y2-S2-144M20,4,373,AS,exp,30,←,left,←,0.555286599788815,True,18,-1,0,3
Y2-S2-144M20,4,374,AS,exp,28,→,right,→,0.840985899791122,True,18,-1,0,3
Y2-S2-144M20,4,375,AS,exp,46,↓,right,→,0.79684490012005,False,18,-1,0,3
Y2-S2-144M20,4,376,AS,exp,45,←,left,←,0.79822209989652,True,19,-1,0,3
Y2-S2-144M20,4,377,AS,exp,42,↑,up,↑,0.492960499599576,True,19,-1,0,3
Y2-S2-144M20,4,378,AS,exp,43,←,left,←,0.509933299850673,True,19,1,1,4
Y2-S2-144M20,4,379,AS,exp,28,↑,right,→,0.712332199793309,False,18,-1,1,5
Y2-S2-144M20,4,380,AS,exp,27,→,right,→,0.543573400005698,True,19,-1,0,5
Y2-S2-144M20,4,381,AS,exp,44,←,left,←,1.85793109983206,True,19,-1,0,5
Y2-S2-144M20,4,382,AS,exp,50,↓,down,↓,0.596420599613339,True,19,1,1,6
Y2-S2-144M20,4,383,AS,exp,26,←,left,←,0.593872599769384,True,18,1,0,6
Y2-S2-144M20,4,384,AS,exp,33,→,left,←,0.739631799980998,False,18,-1,1,7
Y2-S2-144M20,4,385,AS,exp,41,↑,up,↑,0.647329200059176,True,19,-1,0,7
Y2-S2-144M20,4,386,AS,exp,49,←,left,←,0.602572499774396,True,19,-1,0,7
Y2-S2-144M20,4,387,AS,exp,42,→,right,→,0.61554710008204,True,19,1,1,8
Y2-S2-144M20,4,388,AS,exp,50,↓,down,↓,0.616505699697882,True,18,1,0,8
Y2-S2-144M20,4,389,AS,exp,44,↑,left,←,1.15655890014023,False,18,-1,1,9
Y2-S2-144M20,4,390,AS,exp,45,→,right,→,0.663794400170445,True,19,-1,0,9
Y2-S2-144M20,4,391,AS,exp,50,↑,up,↑,0.491531000006944,True,19,-1,0,9
Y2-S2-144M20,4,392,AS,exp,33,→,right,→,0.95988619979471,True,19,1,1,10
Y2-S2-144M20,4,393,AS,exp,26,↑,up,↑,0.93954970035702,True,18,1,0,10
Y2-S2-144M20,4,394,AS,exp,35,→,left,←,1.08982439991087,False,18,-1,1,11
Y2-S2-144M20,4,395,AS,exp,35,←,left,←,0.654616000130773,True,19,-1,0,11
Y2-S2-144M20,4,396,AS,exp,34,↓,down,↓,0.654267000034452,True,19,-1,0,11
Y2-S2-144M20,4,397,AS,exp,37,→,right,→,0.565724699757993,True,19,1,1,12
Y2-S2-144M20,4,398,AS,exp,36,←,left,←,0.561877899803221,True,18,1,0,12
Y2-S2-144M20,4,399,AS,exp,49,→,left,←,1.00750249996781,False,18,-1,1,13
Y2-S2-144M20,4,400,AS,exp,40,↑,up,↑,0.720321499742568,True,19,-1,0,13
Y2-S2-144M20,4,401,AS,exp,39,→,right,→,0.559890499804169,True,19,-1,0,13
Y2-S2-144M20,4,402,AS,exp,39,↑,up,↑,0.547643600031734,True,19,1,1,14
Y2-S2-144M20,4,403,AS,exp,48,→,right,→,0.638604499865323,True,18,1,0,14
Y2-S2-144M20,4,404,AS,exp,30,↓,down,↓,0.680383800063282,True,18,1,0,14
Y2-S2-144M20,4,405,AS,exp,31,←,left,←,0.604863000102341,True,18,1,0,14
Y2-S2-144M20,4,406,AS,exp,49,↓,down,↓,0.52192289987579,True,17,1,0,14
Y2-S2-144M20,4,407,AS,exp,29,←,left,←,0.709466299973428,True,17,1,0,14
Y2-S2-144M20,4,408,AS,exp,37,↓,down,↓,0.609008800238371,True,17,1,0,14
Y2-S2-144M20,4,409,AS,exp,41,↑,up,↑,0.839957199990749,True,16,1,0,14
Y2-S2-144M20,4,410,AS,exp,44,→,right,→,0.583230100106448,True,16,1,0,14
Y2-S2-144M20,4,411,AS,exp,37,↑,up,↑,0.621189499739558,True,16,1,0,14
Y2-S2-144M20,4,412,AS,exp,50,↓,down,↓,0.511554599739611,True,15,1,0,14
Y2-S2-144M20,4,413,AS,exp,46,→,right,→,0.560057599563152,True,15,1,0,14
Y2-S2-144M20,4,414,AS,exp,40,↓,down,↓,0.651793700177223,True,15,1,0,14
Y2-S2-144M20,4,415,AS,exp,31,↑,left,←,0.919271199963987,False,14,-1,1,15
Y2-S2-144M20,4,416,AS,exp,40,←,left,←,0.708782200235874,True,15,-1,0,15
Y2-S2-144M20,4,417,AS,exp,41,↑,down,↓,0.807886300142855,False,15,-1,0,15
Y2-S2-144M20,4,418,AS,exp,50,→,right,→,0.54686229955405,True,16,-1,0,15
Y2-S2-144M20,4,419,AS,exp,48,↑,up,↑,0.656893899664283,True,16,-1,0,15
Y2-S2-144M20,4,420,AS,exp,43,←,left,←,0.787692499812692,True,16,1,1,16
Y2-S2-144M20,5,421,AS,intra_train,28,↑,up,↑,0.679063600022346,True,27,-,-,-
Y2-S2-144M20,5,422,AS,intra_train,44,↓,down,↓,0.450723700225353,True,27,-,-,-
Y2-S2-144M20,5,423,AS,intra_train,50,→,right,→,0.417681899853051,True,27,-,-,-
Y2-S2-144M20,5,424,AS,intra_train,42,↓,down,↓,1.0542855001986,True,27,-,-,-
Y2-S2-144M20,5,425,AS,intra_train,26,→,right,→,1.03439709963277,True,27,-,-,-
Y2-S2-144M20,5,426,AS,exp,41,↓,down,↓,0.502356300130487,True,18,0,0,0
Y2-S2-144M20,5,427,AS,exp,43,→,right,→,0.531468100380153,True,18,0,0,0
Y2-S2-144M20,5,428,AS,exp,38,←,left,←,0.643911399878562,True,18,1,0,0
Y2-S2-144M20,5,429,AS,exp,32,↑,up,↑,0.554569100029767,True,17,1,0,0
Y2-S2-144M20,5,430,AS,exp,47,↓,down,↓,0.456620899960399,True,17,1,0,0
Y2-S2-144M20,5,431,AS,exp,43,↑,left,←,0.858802599832416,False,17,-1,1,1
Y2-S2-144M20,5,432,AS,exp,34,→,right,→,0.528679499868304,True,18,-1,0,1
Y2-S2-144M20,5,433,AS,exp,33,↑,down,↓,1.09273310005665,False,18,-1,0,1
Y2-S2-144M20,5,434,AS,exp,37,→,right,→,0.56593650020659,True,19,-1,0,1
Y2-S2-144M20,5,435,AS,exp,26,←,left,←,0.633948599919677,True,19,-1,0,1
Y2-S2-144M20,5,436,AS,exp,32,↓,down,↓,0.52810679981485,True,19,1,1,2
Y2-S2-144M20,5,437,AS,exp,38,←,left,←,0.633760999888182,True,18,1,0,2
Y2-S2-144M20,5,438,AS,exp,33,↓,down,↓,0.611508600413799,True,18,1,0,2
Y2-S2-144M20,5,439,AS,exp,49,→,right,→,0.915902799926698,True,18,1,0,2
Y2-S2-144M20,5,440,AS,exp,38,↑,up,↑,0.782578899990767,True,17,1,0,2
Y2-S2-144M20,5,441,AS,exp,42,→,right,→,0.570922600105405,True,17,1,0,2
Y2-S2-144M20,5,442,AS,exp,45,←,left,←,0.727644599974155,True,17,1,0,2
Y2-S2-144M20,5,443,AS,exp,41,↓,down,↓,0.520974199753255,True,16,1,0,2
Y2-S2-144M20,5,444,AS,exp,34,↑,right,→,0.976035799831152,False,16,-1,1,3
Y2-S2-144M20,5,445,AS,exp,47,↓,down,↓,1.2357980995439,True,17,-1,0,3
Y2-S2-144M20,5,446,AS,exp,31,↑,up,↑,0.733137399889529,True,17,-1,0,3
Y2-S2-144M20,5,447,AS,exp,47,←,left,←,0.614069799892604,True,17,1,1,4
Y2-S2-144M20,5,448,AS,exp,35,↓,down,↓,0.710430900100619,True,16,1,0,4
Y2-S2-144M20,5,449,AS,exp,42,←,left,←,0.57151409983635,True,16,1,0,4
Y2-S2-144M20,5,450,AS,exp,35,↓,down,↓,0.559002100024372,True,16,1,0,4
Y2-S2-144M20,5,451,AS,exp,39,↑,up,↑,0.727458299603313,True,15,1,0,4
Y2-S2-144M20,5,452,AS,exp,35,→,right,→,0.678261199966073,True,15,1,0,4
Y2-S2-144M20,5,453,AS,exp,42,↓,down,↓,0.467488100286573,True,15,1,0,4
Y2-S2-144M20,5,454,AS,exp,28,↑,up,↑,0.668726000003517,True,14,1,0,4
Y2-S2-144M20,5,455,AS,exp,45,→,left,←,0.85389389982447,False,14,-1,1,5
Y2-S2-144M20,5,456,AS,exp,33,↑,down,↓,0.678639699704945,False,15,-1,0,5
Y2-S2-144M20,5,457,AS,exp,27,→,right,→,0.597174299880862,True,16,-1,0,5
Y2-S2-144M20,5,458,AS,exp,34,←,left,←,0.510996599681675,True,16,-1,0,5
Y2-S2-144M20,5,459,AS,exp,33,↓,down,↓,0.52449919981882,True,16,1,1,6
Y2-S2-144M20,5,460,AS,exp,41,↑,down,↓,1.01848800014704,False,15,-1,1,7
Y2-S2-144M20,5,461,AS,exp,42,→,left,←,0.637493799906224,False,16,-1,0,7
Y2-S2-144M20,5,462,AS,exp,35,←,right,→,0.662882100325078,False,17,-1,0,7
Y2-S2-144M20,5,463,AS,exp,34,↑,up,↑,0.673002700321376,True,18,-1,0,7
Y2-S2-144M20,5,464,AS,exp,35,←,left,←,0.644914799835533,True,18,-1,0,7
Y2-S2-144M20,5,465,AS,exp,36,↑,down,↓,0.496067200321704,False,18,-1,0,7
Y2-S2-144M20,5,466,AS,exp,27,↓,up,↑,1.56887249974534,False,19,-1,0,7
Y2-S2-144M20,5,467,AS,exp,44,↑,up,↑,1.57539790030569,True,20,-1,0,7
Y2-S2-144M20,5,468,AS,exp,47,←,left,←,1.10419900016859,True,20,-1,0,7
Y2-S2-144M20,5,469,AS,exp,35,→,right,→,0.585432799998671,True,20,1,1,8
Y2-S2-144M20,5,470,AS,exp,32,↑,left,←,1.00395879987627,False,19,-1,1,9
Y2-S2-144M20,5,471,AS,exp,38,←,left,←,0.556524700019509,True,20,-1,0,9
Y2-S2-144M20,5,472,AS,exp,31,→,right,→,0.646132899913937,True,20,-1,0,9
Y2-S2-144M20,5,473,AS,exp,43,←,left,←,0.55743130017072,True,20,1,1,10
Y2-S2-144M20,5,474,AS,exp,27,→,right,→,0.637156599666923,True,19,1,0,10
Y2-S2-144M20,5,475,AS,exp,41,←,left,←,0.589699700009078,True,19,1,0,10
Y2-S2-144M20,5,476,AS,exp,29,→,right,→,0.603507699910551,True,19,1,0,10
Y2-S2-144M20,5,477,AS,exp,35,↑,up,↑,0.645083400420845,True,18,1,0,10
Y2-S2-144M20,5,478,AS,exp,49,←,left,←,0.563177699688822,True,18,1,0,10
Y2-S2-144M20,5,479,AS,exp,41,↓,down,↓,0.656033699866384,True,18,1,0,10
Y2-S2-144M20,5,480,AS,exp,31,→,left,←,0.692168599925935,False,17,-1,1,11
Y2-S2-144M20,5,481,AS,exp,38,↓,down,↓,0.520659100264311,True,18,-1,0,11
Y2-S2-144M20,5,482,AS,exp,28,↑,up,↑,0.647598099894822,True,18,-1,0,11
Y2-S2-144M20,5,483,AS,exp,31,←,left,←,0.678243400063366,True,18,1,1,12
Y2-S2-144M20,5,484,AS,exp,28,↓,down,↓,0.666575800161809,True,17,1,0,12
Y2-S2-144M20,5,485,AS,exp,35,↑,up,↑,0.606616999953985,True,17,1,0,12
Y2-S2-144M20,5,486,AS,exp,30,←,left,←,0.500962999649346,True,17,1,0,12
Y2-S2-144M20,5,487,AS,exp,38,↓,down,↓,0.452540799975395,True,16,1,0,12
Y2-S2-144M20,5,488,AS,exp,39,→,right,→,0.79719420010224,True,16,1,0,12
Y2-S2-144M20,5,489,AS,exp,44,↓,down,↓,0.52585450001061,True,16,1,0,12
Y2-S2-144M20,5,490,AS,exp,50,↑,down,↓,0.917189700063318,False,15,-1,1,13
Y2-S2-144M20,5,491,AS,exp,32,←,left,←,0.931160000152886,True,16,-1,0,13
Y2-S2-144M20,5,492,AS,exp,42,↓,down,↓,0.599344200454652,True,16,-1,0,13
Y2-S2-144M20,5,493,AS,exp,31,→,left,←,1.02857429999858,False,16,-1,0,13
Y2-S2-144M20,5,494,AS,exp,27,↓,down,↓,0.825649899896234,True,17,-1,0,13
Y2-S2-144M20,5,495,AS,exp,46,→,right,→,0.598328799940646,True,17,-1,0,13
Y2-S2-144M20,5,496,AS,exp,42,↑,up,↑,0.645500699989498,True,17,1,1,14
Y2-S2-144M20,5,497,AS,exp,40,→,right,→,0.504036200232804,True,16,1,0,14
Y2-S2-144M20,5,498,AS,exp,38,↑,down,↓,0.784354100003839,False,16,-1,1,15
Y2-S2-144M20,5,499,AS,exp,32,↓,down,↓,0.605648200027645,True,17,-1,0,15
Y2-S2-144M20,5,500,AS,exp,26,↑,up,↑,0.632236899808049,True,17,-1,0,15
Y2-S2-144M20,5,501,AS,exp,43,→,right,→,0.933949599973857,True,17,1,1,16
Y2-S2-144M20,6,502,PS,intra_train,27,←,left,←,0.462109799962491,True,12,-,-,-
Y2-S2-144M20,6,503,PS,intra_train,39,↑,up,↑,0.587067999877036,True,12,-,-,-
Y2-S2-144M20,6,504,PS,intra_train,28,→,right,→,0.50908839982003,True,12,-,-,-
Y2-S2-144M20,6,505,PS,intra_train,34,←,left,←,0.502905299887061,True,12,-,-,-
Y2-S2-144M20,6,506,PS,intra_train,31,↑,up,↑,0.519225100055337,True,12,-,-,-
Y2-S2-144M20,6,507,PS,exp,37,←,left,←,0.474464800208807,True,8,0,0,0
Y2-S2-144M20,6,508,PS,exp,49,↑,right,→,0.683799099642783,False,8,-1,0,0
Y2-S2-144M20,6,509,PS,exp,47,←,left,←,0.403041100129485,True,9,-1,0,0
Y2-S2-144M20,6,510,PS,exp,40,↓,left,←,0.53230610024184,False,9,-1,0,0
Y2-S2-144M20,6,511,PS,exp,35,↑,up,↑,0.56746259983629,True,10,-1,0,0
Y2-S2-144M20,6,512,PS,exp,42,←,left,←,0.436538000125438,True,10,-1,0,0
Y2-S2-144M20,6,513,PS,exp,42,→,right,→,0.451996700372547,True,10,1,1,1
Y2-S2-144M20,6,514,PS,exp,28,↓,down,↓,0.56612650025636,True,9,1,0,1
Y2-S2-144M20,6,515,PS,exp,43,→,right,→,0.50179689982906,True,9,1,0,1
Y2-S2-144M20,6,516,PS,exp,41,↓,down,↓,0.449677799828351,True,9,1,0,1
Y2-S2-144M20,6,517,PS,exp,25,→,right,→,0.541216399986297,True,8,1,0,1
Y2-S2-144M20,6,518,PS,exp,39,↑,left,←,0.646544199902564,False,8,-1,1,2
Y2-S2-144M20,6,519,PS,exp,45,←,left,←,0.422637700103223,True,9,-1,0,2
Y2-S2-144M20,6,520,PS,exp,34,↑,left,←,0.560754700098187,False,9,-1,0,2
Y2-S2-144M20,6,521,PS,exp,39,↓,down,↓,0.454132799990475,True,10,-1,0,2
Y2-S2-144M20,6,522,PS,exp,43,←,left,←,0.42188509972766,True,10,-1,0,2
Y2-S2-144M20,6,523,PS,exp,38,↑,up,↑,0.548730499576777,True,10,1,1,3
Y2-S2-144M20,6,524,PS,exp,40,→,right,→,0.682222600094974,True,9,1,0,3
Y2-S2-144M20,6,525,PS,exp,32,←,right,→,0.673136100172997,False,9,-1,1,4
Y2-S2-144M20,6,526,PS,exp,33,↓,down,↓,0.401285500265658,True,10,-1,0,4
Y2-S2-144M20,6,527,PS,exp,42,→,right,→,0.460382400080562,True,10,-1,0,4
Y2-S2-144M20,6,528,PS,exp,49,↓,down,↓,0.731868700124323,True,10,1,1,5
Y2-S2-144M20,6,529,PS,exp,25,↑,right,→,1.19070950010791,False,9,-1,1,6
Y2-S2-144M20,6,530,PS,exp,41,←,left,←,0.52835759986192,True,10,-1,0,6
Y2-S2-144M20,6,531,PS,exp,31,→,right,→,0.687682100106031,True,10,-1,0,6
Y2-S2-144M20,6,532,PS,exp,34,↑,right,→,1.35233939997852,False,10,-1,0,6
Y2-S2-144M20,6,533,PS,exp,43,→,right,→,0.493384700268507,True,11,-1,0,6
Y2-S2-144M20,6,534,PS,exp,46,↓,down,↓,0.430422300007194,True,11,-1,0,6
Y2-S2-144M20,6,535,PS,exp,37,→,right,→,0.642261299770325,True,11,1,1,7
Y2-S2-144M20,6,536,PS,exp,35,←,left,←,0.495358900167048,True,10,1,0,7
Y2-S2-144M20,6,537,PS,exp,38,→,right,→,0.393571299966425,True,10,1,0,7
Y2-S2-144M20,6,538,PS,exp,46,←,left,←,0.47091279970482,True,10,1,0,7
Y2-S2-144M20,6,539,PS,exp,38,→,left,←,0.54053940018639,False,9,-1,1,8
Y2-S2-144M20,6,540,PS,exp,35,←,left,←,0.3820064002648,True,10,-1,0,8
Y2-S2-144M20,6,541,PS,exp,28,↓,down,↓,0.478999599814415,True,10,-1,0,8
Y2-S2-144M20,6,542,PS,exp,39,→,right,→,0.489444800186902,True,10,1,1,9
Y2-S2-144M20,6,543,PS,exp,27,↓,down,↓,0.617505299858749,True,9,1,0,9
Y2-S2-144M20,6,544,PS,exp,40,↑,right,→,1.27761670015752,False,9,-1,1,10
Y2-S2-144M20,6,545,PS,exp,40,↓,down,↓,0.507463899906725,True,10,-1,0,10
Y2-S2-144M20,6,546,PS,exp,45,↑,up,↑,0.511998599860817,True,10,-1,0,10
Y2-S2-144M20,6,547,PS,exp,25,↓,right,→,0.631968799978495,False,10,-1,0,10
Y2-S2-144M20,6,548,PS,exp,41,↑,left,←,1.09439390012994,False,11,-1,0,10
Y2-S2-144M20,6,549,PS,exp,40,←,right,→,0.948234200011939,False,12,-1,0,10
Y2-S2-144M20,6,550,PS,exp,50,↑,up,↑,0.590342900250107,True,13,-1,0,10
Y2-S2-144M20,6,551,PS,exp,37,↓,down,↓,0.453634499572217,True,13,-1,0,10
Y2-S2-144M20,6,552,PS,exp,35,←,left,←,0.492673200089484,True,13,1,1,11
Y2-S2-144M20,6,553,PS,exp,41,→,right,→,0.387395500205457,True,12,1,0,11
Y2-S2-144M20,6,554,PS,exp,32,↑,left,←,0.437583500053734,False,12,-1,1,12
Y2-S2-144M20,6,555,PS,exp,44,←,left,←,0.442064199596643,True,13,-1,0,12
Y2-S2-144M20,6,556,PS,exp,35,↑,up,↑,0.567138199694455,True,13,-1,0,12
Y2-S2-144M20,6,557,PS,exp,30,→,right,→,0.653946700040251,True,13,1,1,13
Y2-S2-144M20,6,558,PS,exp,46,↓,down,↓,0.49019190017134,True,12,1,0,13
Y2-S2-144M20,6,559,PS,exp,48,←,left,←,0.437268799636513,True,12,1,0,13
Y2-S2-144M20,6,560,PS,exp,34,↓,down,↓,0.39485100004822,True,12,1,0,13
Y2-S2-144M20,6,561,PS,exp,46,←,left,←,0.48854329995811,True,11,1,0,13
Y2-S2-144M20,6,562,PS,exp,27,↑,left,←,0.585434299893677,False,11,-1,1,14
Y2-S2-144M20,6,563,PS,exp,34,←,left,←,0.459412400145084,True,12,-1,0,14
Y2-S2-144M20,6,564,PS,exp,29,↑,left,←,0.655035400297493,False,12,-1,0,14
Y2-S2-144M20,6,565,PS,exp,41,←,left,←,0.417737399693579,True,13,-1,0,14
Y2-S2-144M20,6,566,PS,exp,41,↑,up,↑,0.630543999839574,True,13,-1,0,14
Y2-S2-144M20,6,567,PS,exp,35,←,left,←,0.461647300049663,True,13,1,1,15
Y2-S2-144M20,6,568,PS,exp,41,↓,down,↓,0.38324989983812,True,12,1,0,15
Y2-S2-144M20,6,569,PS,exp,26,↑,left,←,1.00639239978045,False,12,-1,1,16
Y2-S2-144M20,7,570,PS,intra_train,47,←,left,←,0.397263899911195,True,12,-,-,-
Y2-S2-144M20,7,571,PS,intra_train,25,→,right,→,0.419636800419539,True,12,-,-,-
Y2-S2-144M20,7,572,PS,intra_train,29,↑,up,↑,0.511742999777198,True,12,-,-,-
Y2-S2-144M20,7,573,PS,intra_train,43,↓,down,↓,0.454751600045711,True,12,-,-,-
Y2-S2-144M20,7,574,PS,intra_train,31,↑,up,↑,0.545409599784762,True,12,-,-,-
Y2-S2-144M20,7,575,PS,exp,31,↓,down,↓,0.515589199960232,True,8,0,0,0
Y2-S2-144M20,7,576,PS,exp,50,↑,left,←,0.752324499655515,False,8,-1,0,0
Y2-S2-144M20,7,577,PS,exp,36,←,left,←,0.496156000066549,True,9,-1,0,0
Y2-S2-144M20,7,578,PS,exp,49,→,right,→,0.375178399961442,True,9,-1,0,0
Y2-S2-144M20,7,579,PS,exp,35,←,left,←,0.486442399676889,True,9,1,1,1
Y2-S2-144M20,7,580,PS,exp,47,↓,down,↓,0.456827899906784,True,8,1,0,1
Y2-S2-144M20,7,581,PS,exp,33,→,right,→,0.56983539974317,True,8,1,0,1
Y2-S2-144M20,7,582,PS,exp,44,←,left,←,0.456831900402904,True,8,1,0,1
Y2-S2-144M20,7,583,PS,exp,32,↓,left,←,0.749467600136995,False,7,-1,1,2
Y2-S2-144M20,7,584,PS,exp,32,→,right,→,0.495270500425249,True,8,-1,0,2
Y2-S2-144M20,7,585,PS,exp,37,↓,left,←,0.598817100282759,False,8,-1,0,2
Y2-S2-144M20,7,586,PS,exp,30,→,right,→,0.440929500386119,True,9,-1,0,2
Y2-S2-144M20,7,587,PS,exp,45,←,left,←,0.556319900322706,True,9,-1,0,2
Y2-S2-144M20,7,588,PS,exp,31,↑,up,↑,0.64060389995575,True,9,1,1,3
Y2-S2-144M20,7,589,PS,exp,45,→,right,→,0.378016599919647,True,8,1,0,3
Y2-S2-144M20,7,590,PS,exp,40,↓,down,↓,0.53540759999305,True,8,1,0,3
Y2-S2-144M20,7,591,PS,exp,42,↑,up,↑,0.458595599979162,True,8,1,0,3
Y2-S2-144M20,7,592,PS,exp,28,→,right,→,0.386710899882019,True,7,1,0,3
Y2-S2-144M20,7,593,PS,exp,30,↓,down,↓,0.4371700999327,True,7,1,0,3
Y2-S2-144M20,7,594,PS,exp,31,↑,up,↑,0.439033000264317,True,7,1,0,3
Y2-S2-144M20,7,595,PS,exp,50,→,right,→,0.652927299961448,True,6,1,0,3
Y2-S2-144M20,7,596,PS,exp,30,←,left,←,0.448220600374043,True,6,1,0,3
Y2-S2-144M20,7,597,PS,exp,47,→,right,→,0.419670899864286,True,6,1,0,3
Y2-S2-144M20,7,598,PS,exp,35,←,left,←,0.465293899644166,True,5,1,0,3
Y2-S2-144M20,7,599,PS,exp,29,↓,right,→,0.466714000329375,False,5,-1,1,4
Y2-S2-144M20,7,600,PS,exp,32,←,left,←,0.340936700347811,True,6,-1,0,4
Y2-S2-144M20,7,601,PS,exp,26,↓,left,←,0.528792299795896,False,6,-1,0,4
Y2-S2-144M20,7,602,PS,exp,33,←,right,→,0.493331199977547,False,7,-1,0,4
Y2-S2-144M20,7,603,PS,exp,28,↑,up,↑,0.596360499970615,True,8,-1,0,4
Y2-S2-144M20,7,604,PS,exp,45,←,left,←,0.44985180022195,True,8,-1,0,4
Y2-S2-144M20,7,605,PS,exp,48,→,right,→,0.506159100215882,True,8,1,1,5
Y2-S2-144M20,7,606,PS,exp,41,←,left,←,0.515092900022864,True,7,1,0,5
Y2-S2-144M20,7,607,PS,exp,31,↑,down,↓,0.575491200201213,False,7,-1,1,6
Y2-S2-144M20,7,608,PS,exp,47,→,right,→,0.44272689986974,True,8,-1,0,6
Y2-S2-144M20,7,609,PS,exp,48,↑,up,↑,0.556120899971575,True,8,-1,0,6
Y2-S2-144M20,7,610,PS,exp,39,←,up,↑,0.76694680005312,False,8,-1,0,6
Y2-S2-144M20,7,611,PS,exp,46,→,left,←,0.648626899812371,False,9,-1,0,6
Y2-S2-144M20,7,612,PS,exp,48,↑,right,→,1.32635040022433,False,10,-1,0,6
Y2-S2-144M20,7,613,PS,exp,31,↓,down,↓,0.401033299975097,True,11,-1,0,6
Y2-S2-144M20,7,614,PS,exp,41,←,left,←,0.446854299865663,True,11,-1,0,6
Y2-S2-144M20,7,615,PS,exp,39,↓,down,↓,0.394450499676168,True,11,1,1,7
Y2-S2-144M20,7,616,PS,exp,43,←,left,←,0.478614800143987,True,10,1,0,7
Y2-S2-144M20,7,617,PS,exp,25,↓,down,↓,0.414202000014484,True,10,1,0,7
Y2-S2-144M20,7,618,PS,exp,35,→,right,→,0.366695200093091,True,10,1,0,7
Y2-S2-144M20,7,619,PS,exp,42,↓,down,↓,0.512695900164545,True,9,1,0,7
Y2-S2-144M20,7,620,PS,exp,44,↑,up,↑,0.757927299942821,True,9,1,0,7
Y2-S2-144M20,7,621,PS,exp,32,←,left,←,0.437650899868459,True,9,1,0,7
Y2-S2-144M20,7,622,PS,exp,40,→,right,→,0.467290599830449,True,8,1,0,7
Y2-S2-144M20,7,623,PS,exp,35,↓,left,←,0.460496600251645,False,8,-1,1,8
Y2-S2-144M20,7,624,PS,exp,36,←,left,←,0.502721900120378,True,9,-1,0,8
Y2-S2-144M20,7,625,PS,exp,39,↑,up,↑,0.392759599722922,True,9,-1,0,8
Y2-S2-144M20,7,626,PS,exp,47,←,left,←,0.42457289993763,True,9,1,1,9
Y2-S2-144M20,7,627,PS,exp,25,→,right,→,0.450356099754572,True,8,1,0,9
Y2-S2-144M20,7,628,PS,exp,37,←,left,←,0.615405200049281,True,8,1,0,9
Y2-S2-144M20,7,629,PS,exp,47,↑,up,↑,0.615283400285989,True,8,1,0,9
Y2-S2-144M20,7,630,PS,exp,34,←,left,←,0.541338299866766,True,7,1,0,9
Y2-S2-144M20,7,631,PS,exp,49,→,right,→,0.513968999963254,True,7,1,0,9
Y2-S2-144M20,7,632,PS,exp,48,↓,down,↓,0.579942000098527,True,7,1,0,9
Y2-S2-144M20,7,633,PS,exp,46,←,up,↑,0.649647400248796,False,6,-1,1,10
Y2-S2-144M20,7,634,PS,exp,49,↑,right,→,0.80198090011254,False,7,-1,0,10
Y2-S2-144M20,7,635,PS,exp,42,←,left,←,0.429581200238317,True,8,-1,0,10
Y2-S2-144M20,7,636,PS,exp,41,→,right,→,0.633355299942195,True,8,-1,0,10
Y2-S2-144M20,7,637,PS,exp,28,↑,left,←,0.424423099961132,False,8,-1,0,10
Y2-S2-144M20,7,638,PS,exp,44,→,down,↓,0.641129200346768,False,9,-1,0,10
Y2-S2-144M20,7,639,PS,exp,45,←,left,←,0.573590599931777,True,10,-1,0,10
Y2-S2-144M20,7,640,PS,exp,31,↓,down,↓,0.43584719998762,True,10,-1,0,10
Y2-S2-144M20,7,641,PS,exp,36,↑,up,↑,0.488835900090635,True,10,1,1,11
Y2-S2-144M20,7,642,PS,exp,25,←,left,←,0.380862900055945,True,9,1,0,11
Y2-S2-144M20,7,643,PS,exp,48,→,right,→,0.383204000070691,True,9,1,0,11
Y2-S2-144M20,7,644,PS,exp,29,↑,left,←,0.523286800365895,False,9,-1,1,12
Y2-S2-144M20,7,645,PS,exp,26,←,right,→,0.630235199816525,False,10,-1,0,12
Y2-S2-144M20,7,646,PS,exp,46,↓,down,↓,0.639769299887121,True,11,-1,0,12
Y2-S2-144M20,7,647,PS,exp,47,→,right,→,0.378408799879253,True,11,-1,0,12
Y2-S2-144M20,7,648,PS,exp,41,←,left,←,0.375211599748582,True,11,1,1,13
Y2-S2-144M20,7,649,PS,exp,30,↑,right,→,0.618067000061274,False,10,-1,1,14
Y2-S2-144M20,7,650,PS,exp,27,↓,down,↓,0.468914899975061,True,11,-1,0,14
Y2-S2-144M20,7,651,PS,exp,26,→,left,←,0.62326390016824,False,11,-1,0,14
Y2-S2-144M20,7,652,PS,exp,35,↓,down,↓,0.540965999942273,True,12,-1,0,14
Y2-S2-144M20,7,653,PS,exp,50,↑,up,↑,0.504053300246596,True,12,-1,0,14
Y2-S2-144M20,7,654,PS,exp,43,↓,down,↓,0.444620899856091,True,12,1,1,15
Y2-S2-144M20,7,655,PS,exp,46,→,right,→,0.461389000061899,True,11,1,0,15
Y2-S2-144M20,7,656,PS,exp,35,←,left,←,0.439969799946994,True,11,1,0,15
Y2-S2-144M20,7,657,PS,exp,36,↑,down,↓,0.563331800047308,False,11,-1,1,16
Y2-S2-144M20,8,658,AS,intra_train,43,→,right,→,0.534291999880225,True,27,-,-,-
Y2-S2-144M20,8,659,AS,intra_train,35,↑,up,↑,0.825496000237763,True,27,-,-,-
Y2-S2-144M20,8,660,AS,intra_train,38,↓,down,↓,0.658456000033766,True,27,-,-,-
Y2-S2-144M20,8,661,AS,intra_train,47,↑,up,↑,0.686172800138593,True,27,-,-,-
Y2-S2-144M20,8,662,AS,intra_train,40,↓,down,↓,0.48381399968639,True,27,-,-,-
Y2-S2-144M20,8,663,AS,exp,37,↑,up,↑,0.88321840018034,True,18,0,0,0
Y2-S2-144M20,8,664,AS,exp,29,←,left,←,1.02662659995258,True,18,0,0,0
Y2-S2-144M20,8,665,AS,exp,45,↑,down,↓,0.891663700342178,False,18,-1,0,0
Y2-S2-144M20,8,666,AS,exp,34,↓,down,↓,1.1536527001299,True,19,-1,0,0
Y2-S2-144M20,8,667,AS,exp,25,→,right,→,0.647338400129229,True,19,-1,0,0
Y2-S2-144M20,8,668,AS,exp,32,←,left,←,0.597734700422734,True,19,1,1,1
Y2-S2-144M20,8,669,AS,exp,33,↑,up,↑,0.753331200219691,True,18,1,0,1
Y2-S2-144M20,8,670,AS,exp,44,↓,right,→,0.771048000082374,False,18,-1,1,2
Y2-S2-144M20,8,671,AS,exp,43,←,left,←,0.549214900005609,True,19,-1,0,2
Y2-S2-144M20,8,672,AS,exp,25,→,right,→,0.487555600237101,True,19,-1,0,2
Y2-S2-144M20,8,673,AS,exp,27,↑,up,↑,0.853083499707282,True,19,1,1,3
Y2-S2-144M20,8,674,AS,exp,36,←,left,←,0.511641399934888,True,18,1,0,3
Y2-S2-144M20,8,675,AS,exp,43,↓,down,↓,0.710049300454557,True,18,1,0,3
Y2-S2-144M20,8,676,AS,exp,46,→,right,→,0.787800299935043,True,18,1,0,3
Y2-S2-144M20,8,677,AS,exp,35,↓,down,↓,0.521649000234902,True,17,1,0,3
Y2-S2-144M20,8,678,AS,exp,48,↑,up,↑,0.796569400001317,True,17,1,0,3
Y2-S2-144M20,8,679,AS,exp,41,→,right,→,0.548349299933761,True,17,1,0,3
Y2-S2-144M20,8,680,AS,exp,29,↑,up,↑,0.638313899748027,True,16,1,0,3
Y2-S2-144M20,8,681,AS,exp,46,←,left,←,0.585458800196648,True,16,1,0,3
Y2-S2-144M20,8,682,AS,exp,45,→,right,→,0.547615199815482,True,16,1,0,3
Y2-S2-144M20,8,683,AS,exp,42,↑,up,↑,0.76512059988454,True,15,1,0,3
Y2-S2-144M20,8,684,AS,exp,48,↓,down,↓,0.524704100098461,True,15,1,0,3
Y2-S2-144M20,8,685,AS,exp,41,↑,up,↑,0.67040289985016,True,15,1,0,3
Y2-S2-144M20,8,686,AS,exp,33,←,left,←,0.59173440001905,True,14,1,0,3
Y2-S2-144M20,8,687,AS,exp,30,↑,down,↓,0.592404399998486,False,14,-1,1,4
Y2-S2-144M20,8,688,AS,exp,47,↓,right,→,0.797310600057244,False,15,-1,0,4
Y2-S2-144M20,8,689,AS,exp,39,→,right,→,0.591325900051743,True,16,-1,0,4
Y2-S2-144M20,8,690,AS,exp,26,↓,down,↓,0.545392400119454,True,16,-1,0,4
Y2-S2-144M20,8,691,AS,exp,47,←,left,←,0.552742500323802,True,16,1,1,5
Y2-S2-144M20,8,692,AS,exp,28,↓,down,↓,0.518051499966532,True,15,1,0,5
Y2-S2-144M20,8,693,AS,exp,40,→,right,→,0.489738599862903,True,15,1,0,5
Y2-S2-144M20,8,694,AS,exp,48,↓,left,←,0.558924499899149,False,15,-1,1,6
Y2-S2-144M20,8,695,AS,exp,50,↑,up,↑,0.464553700294346,True,16,-1,0,6
Y2-S2-144M20,8,696,AS,exp,48,←,left,←,1.03793560015038,True,16,-1,0,6
Y2-S2-144M20,8,697,AS,exp,50,↑,up,↑,0.593911100178957,True,16,1,1,7
Y2-S2-144M20,8,698,AS,exp,45,↓,down,↓,0.461003799922764,True,15,1,0,7
Y2-S2-144M20,8,699,AS,exp,42,↑,up,↑,0.614344200119376,True,15,1,0,7
Y2-S2-144M20,8,700,AS,exp,48,↓,down,↓,0.460321799851954,True,15,1,0,7
Y2-S2-144M20,8,701,AS,exp,41,↑,up,↑,0.599635200109333,True,14,1,0,7
Y2-S2-144M20,8,702,AS,exp,31,→,right,→,0.540582600049675,True,14,1,0,7
Y2-S2-144M20,8,703,AS,exp,37,←,left,←,0.552075699903071,True,14,1,0,7
Y2-S2-144M20,8,704,AS,exp,45,↓,down,↓,0.518645399715751,True,13,1,0,7
Y2-S2-144M20,8,705,AS,exp,34,←,left,←,0.623469599988312,True,13,1,0,7
Y2-S2-144M20,8,706,AS,exp,30,→,right,→,0.549176000058651,True,13,1,0,7
Y2-S2-144M20,8,707,AS,exp,26,↑,down,↓,0.55521439993754,False,12,-1,1,8
Y2-S2-144M20,8,708,AS,exp,38,←,left,←,0.559254299849272,True,13,-1,0,8
Y2-S2-144M20,8,709,AS,exp,43,↑,up,↑,0.577140199951828,True,13,-1,0,8
Y2-S2-144M20,8,710,AS,exp,46,→,left,←,0.498475600033999,False,13,-1,0,8
Y2-S2-144M20,8,711,AS,exp,38,↑,up,↑,0.46710200002417,True,14,-1,0,8
Y2-S2-144M20,8,712,AS,exp,42,←,left,←,0.421540800016373,True,14,-1,0,8
Y2-S2-144M20,8,713,AS,exp,50,→,right,→,0.471000799909234,True,14,1,1,9
Y2-S2-144M20,8,714,AS,exp,27,↑,up,↑,0.51555240014568,True,13,1,0,9
Y2-S2-144M20,8,715,AS,exp,47,↓,left,←,0.789445799775422,False,13,-1,1,10
Y2-S2-144M20,8,716,AS,exp,49,→,down,↓,0.589117199648172,False,14,-1,0,10
Y2-S2-144M20,8,717,AS,exp,34,←,left,←,0.534579999744892,True,15,-1,0,10
Y2-S2-144M20,8,718,AS,exp,26,→,left,←,0.458407799713314,False,15,-1,0,10
Y2-S2-144M20,8,719,AS,exp,34,←,left,←,0.509919899981469,True,16,-1,0,10
Y2-S2-144M20,8,720,AS,exp,42,→,right,→,0.584620200097561,True,16,-1,0,10
Y2-S2-144M20,8,721,AS,exp,28,↑,up,↑,0.597194700036198,True,16,1,1,11
Y2-S2-144M20,8,722,AS,exp,38,←,left,←,0.513921199832112,True,15,1,0,11
Y2-S2-144M20,8,723,AS,exp,46,↑,up,↑,0.580064999870956,True,15,1,0,11
Y2-S2-144M20,8,724,AS,exp,28,→,right,→,0.546921500004828,True,15,1,0,11
Y2-S2-144M20,8,725,AS,exp,33,↑,up,↑,0.510237699840218,True,14,1,0,11
Y2-S2-144M20,8,726,AS,exp,50,→,left,←,0.646828100085259,False,14,-1,1,12
Y2-S2-144M20,8,727,AS,exp,37,↑,up,↑,0.523671300150454,True,15,-1,0,12
Y2-S2-144M20,8,728,AS,exp,45,↓,down,↓,0.645436800085008,True,15,-1,0,12
Y2-S2-144M20,8,729,AS,exp,48,→,right,→,0.513429599814117,True,15,1,1,13
Y2-S2-144M20,8,730,AS,exp,31,↓,down,↓,0.792831299826503,True,14,1,0,13
Y2-S2-144M20,8,731,AS,exp,41,←,left,←,0.727334100287408,True,14,1,0,13
Y2-S2-144M20,8,732,AS,exp,44,→,right,→,0.646961699705571,True,14,1,0,13
Y2-S2-144M20,8,733,AS,exp,38,↓,down,↓,0.61488310014829,True,13,1,0,13
Y2-S2-144M20,8,734,AS,exp,49,↑,left,←,0.759944000281394,False,13,-1,1,14
Y2-S2-144M20,8,735,AS,exp,45,→,right,→,0.499669800046831,True,14,-1,0,14
Y2-S2-144M20,8,736,AS,exp,32,←,left,←,0.602534799836576,True,14,-1,0,14
Y2-S2-144M20,8,737,AS,exp,31,→,right,→,0.598613699898124,True,14,1,1,15
Y2-S2-144M20,8,738,AS,exp,47,←,left,←,0.567390799988061,True,13,1,0,15
Y2-S2-144M20,8,739,AS,exp,42,→,right,→,0.545890199951828,True,13,1,0,15
Y2-S2-144M20,8,740,AS,exp,47,↑,down,↓,0.739646200090647,False,13,-1,1,16
