PART_ID,Block_no,Trial_no,Block_type,Trial_type,CSI,Stim_letter,Key_pressed,letter_choose,Rt,Corr,Stimulus Time,Level,Reversal,Revs_count
Y2-S2-213K23,1,1,PS,train,50,↓,down,↓,1.954744499642402,True,30,-,-,-
Y2-S2-213K23,1,2,PS,train,34,←,left,←,0.5837264000438154,True,30,-,-,-
Y2-S2-213K23,1,3,PS,train,35,↑,up,↑,0.756984299980104,True,30,-,-,-
Y2-S2-213K23,1,4,PS,train,49,↓,down,↓,0.5173560995608568,True,30,-,-,-
Y2-S2-213K23,1,5,PS,train,25,→,right,→,1.1801519999280572,True,30,-,-,-
Y2-S2-213K23,1,6,PS,train,43,↓,down,↓,0.8494632001966238,True,30,-,-,-
Y2-S2-213K23,1,7,PS,train,40,→,right,→,0.6341746998950839,True,30,-,-,-
Y2-S2-213K23,1,8,PS,train,31,↓,down,↓,0.5006945002824068,True,30,-,-,-
Y2-S2-213K23,1,9,PS,train,48,↑,up,↑,0.7100372998975217,True,30,-,-,-
Y2-S2-213K23,1,10,PS,train,25,←,left,←,0.6715442002750933,True,30,-,-,-
Y2-S2-213K23,2,11,AS,train,35,↓,down,↓,0.551233199890703,True,45,-,-,-
Y2-S2-213K23,2,12,AS,train,34,←,left,←,0.6513518001884222,True,45,-,-,-
Y2-S2-213K23,2,13,AS,train,34,→,right,→,0.7508086999878287,True,45,-,-,-
Y2-S2-213K23,2,14,AS,train,37,↑,up,↑,0.8838056996464729,True,45,-,-,-
Y2-S2-213K23,2,15,AS,train,26,↓,down,↓,0.6676969998516142,True,45,-,-,-
Y2-S2-213K23,2,16,AS,train,50,↑,up,↑,0.7011107001453638,True,45,-,-,-
Y2-S2-213K23,2,17,AS,train,32,←,left,←,0.8172324998304248,True,45,-,-,-
Y2-S2-213K23,2,18,AS,train,30,→,right,→,0.6843778998591006,True,45,-,-,-
Y2-S2-213K23,2,19,AS,train,46,↓,down,↓,0.5342598999850452,True,45,-,-,-
Y2-S2-213K23,2,20,AS,train,36,→,right,→,1.6213519000448287,True,45,-,-,-
Y2-S2-213K23,-,21,PS,adaptive,44,↓,down,↓,0.701220499817282,True,10,0,0,0
Y2-S2-213K23,-,22,PS,adaptive,30,→,right,→,0.6598464003764093,True,10,0,0,0
Y2-S2-213K23,-,23,PS,adaptive,28,↓,down,↓,0.5962706999853253,True,10,1,0,0
Y2-S2-213K23,-,24,PS,adaptive,30,↑,up,↑,0.6753731998614967,True,9,1,0,0
Y2-S2-213K23,-,25,PS,adaptive,41,←,left,←,0.6558412001468241,True,9,1,0,0
Y2-S2-213K23,-,26,PS,adaptive,48,↓,down,↓,0.9482184001244605,True,9,1,0,0
Y2-S2-213K23,-,27,PS,adaptive,38,→,right,→,0.6343473000451922,True,8,1,0,0
Y2-S2-213K23,-,28,PS,adaptive,44,←,left,←,0.6748687997460365,True,8,1,0,0
Y2-S2-213K23,-,29,PS,adaptive,31,↑,up,↑,0.6994786998257041,True,8,1,0,0
Y2-S2-213K23,-,30,PS,adaptive,50,↓,down,↓,0.6236662999726832,True,7,1,0,0
Y2-S2-213K23,-,31,PS,adaptive,26,→,right,→,0.7464183997362852,True,7,1,0,0
Y2-S2-213K23,-,32,PS,adaptive,26,←,right,→,0.6234051999635994,False,7,-1,1,1
Y2-S2-213K23,-,33,PS,adaptive,47,↑,up,↑,1.1063617002218962,True,8,-1,0,1
Y2-S2-213K23,-,34,PS,adaptive,32,→,right,→,0.6337854000739753,True,8,-1,0,1
Y2-S2-213K23,-,35,PS,adaptive,33,↑,up,↑,0.6544389999471605,True,8,1,1,2
Y2-S2-213K23,-,36,PS,adaptive,32,↓,down,↓,0.621944600250572,True,7,1,0,2
Y2-S2-213K23,-,37,PS,adaptive,43,→,right,→,0.541493299882859,True,7,1,0,2
Y2-S2-213K23,-,38,PS,adaptive,31,↑,up,↑,0.5558158000931144,True,7,1,0,2
Y2-S2-213K23,-,39,PS,adaptive,25,↓,up,↑,0.6776238000020385,False,6,-1,1,3
Y2-S2-213K23,-,40,PS,adaptive,41,→,right,→,0.5601234002970159,True,7,-1,0,3
Y2-S2-213K23,-,41,PS,adaptive,36,↓,right,→,0.5803890000097454,False,7,-1,0,3
Y2-S2-213K23,-,42,PS,adaptive,29,→,left,←,0.6203351002186537,False,8,-1,0,3
Y2-S2-213K23,-,43,PS,adaptive,40,↑,up,↑,0.6739329998381436,True,9,-1,0,3
Y2-S2-213K23,-,44,PS,adaptive,38,↓,down,↓,0.6527710002847016,True,9,-1,0,3
Y2-S2-213K23,-,45,PS,adaptive,45,←,left,←,0.6541963000781834,True,9,1,1,4
Y2-S2-213K23,-,46,AS,adaptive,30,→,right,→,0.5852101002819836,True,20,0,0,0
Y2-S2-213K23,-,47,AS,adaptive,40,↓,left,←,1.012310799676925,False,20,-1,0,0
Y2-S2-213K23,-,48,AS,adaptive,29,←,left,←,0.5505635999143124,True,21,-1,0,0
Y2-S2-213K23,-,49,AS,adaptive,39,↑,up,↑,0.7648972999304533,True,21,-1,0,0
Y2-S2-213K23,-,50,AS,adaptive,34,↓,down,↓,0.6315681003034115,True,21,1,1,1
Y2-S2-213K23,-,51,AS,adaptive,44,↑,up,↑,0.653664099983871,True,20,1,0,1
Y2-S2-213K23,-,52,AS,adaptive,50,←,left,←,0.7811067001894116,True,20,1,0,1
Y2-S2-213K23,-,53,AS,adaptive,26,↑,down,↓,0.7243017996661365,False,20,-1,1,2
Y2-S2-213K23,-,54,AS,adaptive,38,↓,down,↓,0.8230778998695314,True,21,-1,0,2
Y2-S2-213K23,-,55,AS,adaptive,34,↑,up,↑,0.6701809000223875,True,21,-1,0,2
Y2-S2-213K23,-,56,AS,adaptive,37,←,left,←,0.7069711000658572,True,21,1,1,3
Y2-S2-213K23,-,57,AS,adaptive,31,↓,down,↓,0.6282406002283096,True,20,1,0,3
Y2-S2-213K23,-,58,AS,adaptive,40,↑,left,←,0.9143194002099335,False,20,-1,1,4
Y2-S2-213K23,1,59,PS,intra_train,31,→,left,←,0.6546371001750231,False,12,-,-,-
Y2-S2-213K23,1,60,PS,intra_train,29,←,left,←,0.9536815998144448,True,12,-,-,-
Y2-S2-213K23,1,61,PS,intra_train,38,↑,up,↑,0.5307578998617828,True,12,-,-,-
Y2-S2-213K23,1,62,PS,intra_train,30,←,left,←,0.5986579000018537,True,12,-,-,-
Y2-S2-213K23,1,63,PS,intra_train,29,→,right,→,0.6647965000011027,True,12,-,-,-
Y2-S2-213K23,1,64,PS,exp,41,↑,up,↑,0.6533591998741031,True,8,0,0,0
Y2-S2-213K23,1,65,PS,exp,41,→,left,←,0.6973163997754455,False,8,-1,0,0
Y2-S2-213K23,1,66,PS,exp,36,←,left,←,0.6651832996867597,True,9,-1,0,0
Y2-S2-213K23,1,67,PS,exp,47,↓,down,↓,0.5670889001339674,True,9,-1,0,0
Y2-S2-213K23,1,68,PS,exp,39,↑,right,→,0.6741518997587264,False,9,-1,0,0
Y2-S2-213K23,1,69,PS,exp,35,←,left,←,0.6399530000053346,True,10,-1,0,0
Y2-S2-213K23,1,70,PS,exp,32,↑,up,↑,0.6671898998320103,True,10,-1,0,0
Y2-S2-213K23,1,71,PS,exp,38,↓,down,↓,0.6666255998425186,True,10,1,1,1
Y2-S2-213K23,1,72,PS,exp,36,→,right,→,0.6765846000052989,True,9,1,0,1
Y2-S2-213K23,1,73,PS,exp,26,←,left,←,0.5573735004290938,True,9,1,0,1
Y2-S2-213K23,1,74,PS,exp,36,↑,up,↑,0.5919937998987734,True,9,1,0,1
Y2-S2-213K23,1,75,PS,exp,40,↓,left,←,0.553343900013715,False,8,-1,1,2
Y2-S2-213K23,1,76,PS,exp,41,→,right,→,0.5725599001161754,True,9,-1,0,2
Y2-S2-213K23,1,77,PS,exp,45,←,left,←,0.527003699913621,True,9,-1,0,2
Y2-S2-213K23,1,78,PS,exp,25,↑,right,→,0.6217502998188138,False,9,-1,0,2
Y2-S2-213K23,1,79,PS,exp,25,↓,up,↑,0.6222998998127878,False,10,-1,0,2
Y2-S2-213K23,1,80,PS,exp,46,↑,right,→,0.6507292999885976,False,11,-1,0,2
Y2-S2-213K23,1,81,PS,exp,36,↓,down,↓,0.5844509000889957,True,12,-1,0,2
Y2-S2-213K23,1,82,PS,exp,29,↑,up,↑,0.5690185995772481,True,12,-1,0,2
Y2-S2-213K23,1,83,PS,exp,41,→,left,←,0.590412899851799,False,12,-1,0,2
Y2-S2-213K23,1,84,PS,exp,27,↓,down,↓,0.656281300354749,True,13,-1,0,2
Y2-S2-213K23,1,85,PS,exp,48,↑,up,↑,0.6105897999368608,True,13,-1,0,2
Y2-S2-213K23,1,86,PS,exp,45,→,left,←,0.5450005996972322,False,13,-1,0,2
Y2-S2-213K23,1,87,PS,exp,26,←,left,←,0.5424525002017617,True,14,-1,0,2
Y2-S2-213K23,1,88,PS,exp,38,→,right,→,0.5080884001217782,True,14,-1,0,2
Y2-S2-213K23,1,89,PS,exp,41,↓,down,↓,0.45451240008696914,True,14,1,1,3
Y2-S2-213K23,1,90,PS,exp,30,↑,up,↑,0.5225082999095321,True,13,1,0,3
Y2-S2-213K23,1,91,PS,exp,35,←,left,←,0.47965360013768077,True,13,1,0,3
Y2-S2-213K23,1,92,PS,exp,35,→,right,→,0.537140800151974,True,13,1,0,3
Y2-S2-213K23,1,93,PS,exp,32,←,left,←,0.6829188000410795,True,12,1,0,3
Y2-S2-213K23,1,94,PS,exp,46,→,right,→,0.7158070998266339,True,12,1,0,3
Y2-S2-213K23,1,95,PS,exp,49,←,left,←,0.6675724000670016,True,12,1,0,3
Y2-S2-213K23,1,96,PS,exp,37,→,right,→,0.6138996002264321,True,11,1,0,3
Y2-S2-213K23,1,97,PS,exp,42,↓,down,↓,0.5837701996788383,True,11,1,0,3
Y2-S2-213K23,1,98,PS,exp,46,←,left,←,0.9504054002463818,True,11,1,0,3
Y2-S2-213K23,1,99,PS,exp,46,↑,up,↑,0.7832982996478677,True,10,1,0,3
Y2-S2-213K23,1,100,PS,exp,27,→,right,→,0.6853133998811245,True,10,1,0,3
Y2-S2-213K23,1,101,PS,exp,36,↓,down,↓,0.6465563997626305,True,10,1,0,3
Y2-S2-213K23,1,102,PS,exp,42,←,down,↓,0.6468442999757826,False,9,-1,1,4
Y2-S2-213K23,1,103,PS,exp,50,↓,down,↓,0.6065004002302885,True,10,-1,0,4
Y2-S2-213K23,1,104,PS,exp,44,↑,up,↑,0.5839521000161767,True,10,-1,0,4
Y2-S2-213K23,1,105,PS,exp,45,↓,down,↓,0.7528419997543097,True,10,1,1,5
Y2-S2-213K23,1,106,PS,exp,49,→,right,→,0.6579034999012947,True,9,1,0,5
Y2-S2-213K23,1,107,PS,exp,32,↓,down,↓,0.5935261002741754,True,9,1,0,5
Y2-S2-213K23,1,108,PS,exp,49,→,down,↓,0.8658729000017047,False,9,-1,1,6
Y2-S2-213K23,1,109,PS,exp,45,←,left,←,0.5920380000025034,True,10,-1,0,6
Y2-S2-213K23,1,110,PS,exp,28,↓,right,→,0.7190088001079857,False,10,-1,0,6
Y2-S2-213K23,1,111,PS,exp,40,→,right,→,0.5838735001161695,True,11,-1,0,6
Y2-S2-213K23,1,112,PS,exp,44,←,left,←,0.7179294000379741,True,11,-1,0,6
Y2-S2-213K23,1,113,PS,exp,48,↓,left,←,0.8699516002088785,False,11,-1,0,6
Y2-S2-213K23,1,114,PS,exp,45,↑,up,↑,0.6760115996003151,True,12,-1,0,6
Y2-S2-213K23,1,115,PS,exp,27,→,right,→,0.6185121000744402,True,12,-1,0,6
Y2-S2-213K23,1,116,PS,exp,47,↓,down,↓,0.6379517996683717,True,12,1,1,7
Y2-S2-213K23,1,117,PS,exp,40,→,right,→,0.8279246999882162,True,11,1,0,7
Y2-S2-213K23,1,118,PS,exp,26,←,left,←,0.6277549001388252,True,11,1,0,7
Y2-S2-213K23,1,119,PS,exp,45,↓,down,↓,0.5865575997158885,True,11,1,0,7
Y2-S2-213K23,1,120,PS,exp,34,↑,up,↑,0.6255366001278162,True,10,1,0,7
Y2-S2-213K23,1,121,PS,exp,34,←,left,←,0.5658793998882174,True,10,1,0,7
Y2-S2-213K23,1,122,PS,exp,27,↑,up,↑,0.6735702999867499,True,10,1,0,7
Y2-S2-213K23,1,123,PS,exp,26,↓,down,↓,0.5575446002185345,True,9,1,0,7
Y2-S2-213K23,1,124,PS,exp,31,→,right,→,0.5377181000076234,True,9,1,0,7
Y2-S2-213K23,1,125,PS,exp,48,↓,down,↓,0.5152942999266088,True,9,1,0,7
Y2-S2-213K23,1,126,PS,exp,43,→,right,→,0.5078449998982251,True,8,1,0,7
Y2-S2-213K23,1,127,PS,exp,49,↓,down,↓,0.4702763999812305,True,8,1,0,7
Y2-S2-213K23,1,128,PS,exp,47,→,right,→,0.8090238999575377,True,8,1,0,7
Y2-S2-213K23,1,129,PS,exp,49,↑,down,↓,0.668983600102365,False,7,-1,1,8
Y2-S2-213K23,1,130,PS,exp,43,→,right,→,0.5234793000854552,True,8,-1,0,8
Y2-S2-213K23,1,131,PS,exp,36,←,left,←,0.6192594999447465,True,8,-1,0,8
Y2-S2-213K23,1,132,PS,exp,35,↑,right,→,0.5423222999088466,False,8,-1,0,8
Y2-S2-213K23,1,133,PS,exp,25,←,left,←,1.0985729997046292,True,9,-1,0,8
Y2-S2-213K23,1,134,PS,exp,38,↓,down,↓,0.6316682999022305,True,9,-1,0,8
Y2-S2-213K23,1,135,PS,exp,43,↑,up,↑,0.620147000066936,True,9,1,1,9
Y2-S2-213K23,1,136,PS,exp,37,→,up,↑,1.0087615000084043,False,8,-1,1,10
Y2-S2-213K23,1,137,PS,exp,32,↑,up,↑,0.7146783000789583,True,9,-1,0,10
Y2-S2-213K23,1,138,PS,exp,25,→,left,←,0.6284054000861943,False,9,-1,0,10
Y2-S2-213K23,1,139,PS,exp,42,↑,up,↑,0.615797400008887,True,10,-1,0,10
Y2-S2-213K23,1,140,PS,exp,28,→,right,→,0.6938152997754514,True,10,-1,0,10
Y2-S2-213K23,1,141,PS,exp,37,←,left,←,0.6465878998860717,True,10,1,1,11
Y2-S2-213K23,1,142,PS,exp,35,↓,down,↓,0.7180172996595502,True,9,1,0,11
Y2-S2-213K23,1,143,PS,exp,27,→,left,←,0.5521491998806596,False,9,-1,1,12
Y2-S2-213K23,1,144,PS,exp,40,←,left,←,0.6576139000244439,True,10,-1,0,12
Y2-S2-213K23,1,145,PS,exp,46,↓,down,↓,0.5459104999899864,True,10,-1,0,12
Y2-S2-213K23,1,146,PS,exp,38,←,left,←,0.6934095001779497,True,10,1,1,13
Y2-S2-213K23,1,147,PS,exp,47,→,right,→,0.5344422999769449,True,9,1,0,13
Y2-S2-213K23,1,148,PS,exp,49,←,left,←,0.5322430999949574,True,9,1,0,13
Y2-S2-213K23,1,149,PS,exp,50,↑,up,↑,0.7258003000169992,True,9,1,0,13
Y2-S2-213K23,1,150,PS,exp,34,←,down,↓,0.7770406999625266,False,8,-1,1,14
Y2-S2-213K23,1,151,PS,exp,28,→,right,→,0.8793190000578761,True,9,-1,0,14
Y2-S2-213K23,1,152,PS,exp,35,↓,down,↓,0.868461599573493,True,9,-1,0,14
Y2-S2-213K23,1,153,PS,exp,30,→,right,→,0.5553464000113308,True,9,1,1,15
Y2-S2-213K23,1,154,PS,exp,32,↓,down,↓,0.5937123000621796,True,8,1,0,15
Y2-S2-213K23,1,155,PS,exp,37,↑,up,↑,1.0091511998325586,True,8,1,0,15
Y2-S2-213K23,1,156,PS,exp,28,↓,down,↓,0.5116850002668798,True,8,1,0,15
Y2-S2-213K23,1,157,PS,exp,43,→,right,→,0.7370704999193549,True,7,1,0,15
Y2-S2-213K23,1,158,PS,exp,47,←,down,↓,0.7476997999474406,False,7,-1,1,16
Y2-S2-213K23,2,159,AS,intra_train,39,↑,up,↑,0.8066929001361132,True,31,-,-,-
Y2-S2-213K23,2,160,AS,intra_train,28,↓,down,↓,0.6988735999912024,True,31,-,-,-
Y2-S2-213K23,2,161,AS,intra_train,46,→,right,→,0.4678728999570012,True,31,-,-,-
Y2-S2-213K23,2,162,AS,intra_train,49,←,left,←,0.8262168001383543,True,31,-,-,-
Y2-S2-213K23,2,163,AS,intra_train,35,↓,down,↓,0.6505212001502514,True,31,-,-,-
Y2-S2-213K23,2,164,AS,exp,47,←,left,←,0.46701089991256595,True,21,0,0,0
Y2-S2-213K23,2,165,AS,exp,46,↑,up,↑,0.43385809985920787,True,21,0,0,0
Y2-S2-213K23,2,166,AS,exp,45,↓,down,↓,0.9463649000972509,True,21,1,0,0
Y2-S2-213K23,2,167,AS,exp,35,→,left,←,0.6039618002250791,False,20,-1,1,1
Y2-S2-213K23,2,168,AS,exp,35,↓,down,↓,0.7352885999716818,True,21,-1,0,1
Y2-S2-213K23,2,169,AS,exp,36,→,right,→,0.7183848000131547,True,21,-1,0,1
Y2-S2-213K23,2,170,AS,exp,26,↓,right,→,1.1565351001918316,False,21,-1,0,1
Y2-S2-213K23,2,171,AS,exp,49,→,right,→,0.7804867001250386,True,22,-1,0,1
Y2-S2-213K23,2,172,AS,exp,47,↑,left,←,1.2877004998736084,False,22,-1,0,1
Y2-S2-213K23,2,173,AS,exp,50,↓,down,↓,1.4222333999350667,True,23,-1,0,1
Y2-S2-213K23,2,174,AS,exp,36,→,right,→,1.1393305999226868,True,23,-1,0,1
Y2-S2-213K23,2,175,AS,exp,32,←,right,→,0.9317095000296831,False,23,-1,0,1
Y2-S2-213K23,2,176,AS,exp,42,↓,down,↓,0.8510623001493514,True,24,-1,0,1
Y2-S2-213K23,2,177,AS,exp,44,↑,up,↑,1.0491027999669313,True,24,-1,0,1
Y2-S2-213K23,2,178,AS,exp,40,←,left,←,0.6814417000859976,True,24,1,1,2
Y2-S2-213K23,2,179,AS,exp,41,↓,down,↓,0.6202962002716959,True,23,1,0,2
Y2-S2-213K23,2,180,AS,exp,43,←,left,←,0.9441402000375092,True,23,1,0,2
Y2-S2-213K23,2,181,AS,exp,50,↓,down,↓,0.5990915996953845,True,23,1,0,2
Y2-S2-213K23,2,182,AS,exp,45,↑,up,↑,0.9186529000289738,True,22,1,0,2
Y2-S2-213K23,2,183,AS,exp,32,→,right,→,0.6243727998808026,True,22,1,0,2
Y2-S2-213K23,2,184,AS,exp,50,←,left,←,0.5504290000535548,True,22,1,0,2
Y2-S2-213K23,2,185,AS,exp,33,↑,up,↑,1.0813223998993635,True,21,1,0,2
Y2-S2-213K23,2,186,AS,exp,46,→,right,→,0.8642822001129389,True,21,1,0,2
Y2-S2-213K23,2,187,AS,exp,28,←,left,←,0.5264463000930846,True,21,1,0,2
Y2-S2-213K23,2,188,AS,exp,48,↓,down,↓,0.9140921998769045,True,20,1,0,2
Y2-S2-213K23,2,189,AS,exp,36,→,right,→,0.6126486998982728,True,20,1,0,2
Y2-S2-213K23,2,190,AS,exp,30,←,left,←,0.8272136999294162,True,20,1,0,2
Y2-S2-213K23,2,191,AS,exp,40,↓,down,↓,0.5502867000177503,True,19,1,0,2
Y2-S2-213K23,2,192,AS,exp,38,↑,up,↑,0.6161058000288904,True,19,1,0,2
Y2-S2-213K23,2,193,AS,exp,30,↓,down,↓,0.6311679999344051,True,19,1,0,2
Y2-S2-213K23,2,194,AS,exp,30,→,right,→,0.49983560014516115,True,18,1,0,2
Y2-S2-213K23,2,195,AS,exp,50,←,left,←,1.4694709000177681,True,18,1,0,2
Y2-S2-213K23,2,196,AS,exp,44,→,right,→,0.49218619987368584,True,18,1,0,2
Y2-S2-213K23,2,197,AS,exp,50,↑,up,↑,0.5065030003897846,True,17,1,0,2
Y2-S2-213K23,2,198,AS,exp,30,↓,down,↓,0.5612155003473163,True,17,1,0,2
Y2-S2-213K23,2,199,AS,exp,38,←,left,←,0.49455650011077523,True,17,1,0,2
Y2-S2-213K23,2,200,AS,exp,35,↑,down,↓,0.541104800067842,False,16,-1,1,3
Y2-S2-213K23,2,201,AS,exp,28,→,right,→,1.1894970000721514,True,17,-1,0,3
Y2-S2-213K23,2,202,AS,exp,49,↑,up,↑,0.8364039999432862,True,17,-1,0,3
Y2-S2-213K23,2,203,AS,exp,26,←,up,↑,0.8504846999421716,False,17,-1,0,3
Y2-S2-213K23,2,204,AS,exp,48,↓,down,↓,0.5532861999236047,True,18,-1,0,3
Y2-S2-213K23,2,205,AS,exp,34,↑,up,↑,0.5778028997592628,True,18,-1,0,3
Y2-S2-213K23,2,206,AS,exp,48,↓,down,↓,0.5031428001821041,True,18,1,1,4
Y2-S2-213K23,2,207,AS,exp,49,←,left,←,0.45821240032091737,True,17,1,0,4
Y2-S2-213K23,2,208,AS,exp,29,↑,down,↓,0.6153082996606827,False,17,-1,1,5
Y2-S2-213K23,2,209,AS,exp,26,→,up,↑,0.7764189997687936,False,18,-1,0,5
Y2-S2-213K23,2,210,AS,exp,40,↑,up,↑,0.5257822000421584,True,19,-1,0,5
Y2-S2-213K23,2,211,AS,exp,42,↓,down,↓,1.0215233000926673,True,19,-1,0,5
Y2-S2-213K23,2,212,AS,exp,44,→,right,→,0.5325878001749516,True,19,1,1,6
Y2-S2-213K23,2,213,AS,exp,36,↑,up,↑,0.986920400056988,True,18,1,0,6
Y2-S2-213K23,2,214,AS,exp,28,←,left,←,0.9880182002671063,True,18,1,0,6
Y2-S2-213K23,2,215,AS,exp,31,↑,down,↓,1.0759314000606537,False,18,-1,1,7
Y2-S2-213K23,2,216,AS,exp,37,↓,down,↓,0.6052808002568781,True,19,-1,0,7
Y2-S2-213K23,2,217,AS,exp,37,↑,up,↑,0.7706675003282726,True,19,-1,0,7
Y2-S2-213K23,2,218,AS,exp,42,→,right,→,0.9718880001455545,True,19,1,1,8
Y2-S2-213K23,2,219,AS,exp,33,↓,down,↓,0.8525598999112844,True,18,1,0,8
Y2-S2-213K23,2,220,AS,exp,36,↑,left,←,0.8817680003121495,False,18,-1,1,9
Y2-S2-213K23,2,221,AS,exp,32,↓,down,↓,0.6192493000999093,True,19,-1,0,9
Y2-S2-213K23,2,222,AS,exp,42,↑,up,↑,0.7930393000133336,True,19,-1,0,9
Y2-S2-213K23,2,223,AS,exp,46,↓,down,↓,0.5145864998921752,True,19,1,1,10
Y2-S2-213K23,2,224,AS,exp,44,↑,up,↑,0.555437299888581,True,18,1,0,10
Y2-S2-213K23,2,225,AS,exp,27,←,left,←,0.848405800294131,True,18,1,0,10
Y2-S2-213K23,2,226,AS,exp,49,↑,up,↑,0.7679510996676981,True,18,1,0,10
Y2-S2-213K23,2,227,AS,exp,43,↓,down,↓,0.5858355001546443,True,17,1,0,10
Y2-S2-213K23,2,228,AS,exp,36,↑,up,↑,0.9102574000135064,True,17,1,0,10
Y2-S2-213K23,2,229,AS,exp,28,→,right,→,0.787627600133419,True,17,1,0,10
Y2-S2-213K23,2,230,AS,exp,45,↓,right,→,0.9603760000318289,False,16,-1,1,11
Y2-S2-213K23,2,231,AS,exp,36,←,right,→,0.9398101000115275,False,17,-1,0,11
Y2-S2-213K23,2,232,AS,exp,27,↓,down,↓,0.721573299728334,True,18,-1,0,11
Y2-S2-213K23,2,233,AS,exp,25,←,right,→,1.280918600037694,False,18,-1,0,11
Y2-S2-213K23,2,234,AS,exp,44,↑,up,↑,0.8574871998280287,True,19,-1,0,11
Y2-S2-213K23,2,235,AS,exp,38,→,right,→,0.591421399731189,True,19,-1,0,11
Y2-S2-213K23,2,236,AS,exp,25,↓,right,→,0.9957409002818167,False,19,-1,0,11
Y2-S2-213K23,2,237,AS,exp,30,↑,up,↑,0.581543100066483,True,20,-1,0,11
Y2-S2-213K23,2,238,AS,exp,39,→,right,→,0.576414099894464,True,20,-1,0,11
Y2-S2-213K23,2,239,AS,exp,28,←,left,←,1.1637445003725588,True,20,1,1,12
Y2-S2-213K23,2,240,AS,exp,39,→,right,→,0.6373649998567998,True,19,1,0,12
Y2-S2-213K23,2,241,AS,exp,43,↑,up,↑,0.5094298999756575,True,19,1,0,12
Y2-S2-213K23,2,242,AS,exp,41,→,right,→,0.8171168998815119,True,19,1,0,12
Y2-S2-213K23,2,243,AS,exp,37,↑,up,↑,0.43409830005839467,True,18,1,0,12
Y2-S2-213K23,2,244,AS,exp,28,↓,down,↓,0.7251514000818133,True,18,1,0,12
Y2-S2-213K23,2,245,AS,exp,41,→,right,→,0.636627099942416,True,18,1,0,12
Y2-S2-213K23,2,246,AS,exp,45,↓,down,↓,1.293151400052011,True,17,1,0,12
Y2-S2-213K23,2,247,AS,exp,36,→,right,→,0.6112510999664664,True,17,1,0,12
Y2-S2-213K23,2,248,AS,exp,49,↓,down,↓,0.9170094998553395,True,17,1,0,12
Y2-S2-213K23,2,249,AS,exp,41,→,right,→,0.5625189999118447,True,16,1,0,12
Y2-S2-213K23,2,250,AS,exp,49,←,right,→,0.6243451000191271,False,16,-1,1,13
Y2-S2-213K23,2,251,AS,exp,46,→,right,→,0.5713556003756821,True,17,-1,0,13
Y2-S2-213K23,2,252,AS,exp,25,↑,up,↑,0.799995600245893,True,17,-1,0,13
Y2-S2-213K23,2,253,AS,exp,45,↓,down,↓,0.6415540999732912,True,17,1,1,14
Y2-S2-213K23,2,254,AS,exp,33,↑,up,↑,1.0409279996529222,True,16,1,0,14
Y2-S2-213K23,2,255,AS,exp,31,←,up,↑,0.9036177000962198,False,16,-1,1,15
Y2-S2-213K23,2,256,AS,exp,38,→,right,→,0.5967578999698162,True,17,-1,0,15
Y2-S2-213K23,2,257,AS,exp,39,←,right,→,0.6140674003399909,False,17,-1,0,15
Y2-S2-213K23,2,258,AS,exp,45,→,right,→,0.5049604997038841,True,18,-1,0,15
Y2-S2-213K23,2,259,AS,exp,36,↑,up,↑,0.5843123001977801,True,18,-1,0,15
Y2-S2-213K23,2,260,AS,exp,25,↓,down,↓,0.6155976001173258,True,18,1,1,16
Y2-S2-213K23,3,261,AS,intra_train,40,→,right,→,0.7333030002191663,True,31,-,-,-
Y2-S2-213K23,3,262,AS,intra_train,34,↓,down,↓,0.4343747003003955,True,31,-,-,-
Y2-S2-213K23,3,263,AS,intra_train,38,↑,up,↑,0.4012565999291837,True,31,-,-,-
Y2-S2-213K23,3,264,AS,intra_train,44,←,right,→,0.48447659984230995,False,31,-,-,-
Y2-S2-213K23,3,265,AS,intra_train,30,↓,down,↓,0.7252948000095785,True,31,-,-,-
Y2-S2-213K23,3,266,AS,exp,32,→,right,→,0.46699219988659024,True,21,0,0,0
Y2-S2-213K23,3,267,AS,exp,25,↑,up,↑,0.7263084999285638,True,21,0,0,0
Y2-S2-213K23,3,268,AS,exp,50,→,right,→,1.072128999978304,True,21,1,0,0
Y2-S2-213K23,3,269,AS,exp,37,↓,down,↓,0.5127755999565125,True,20,1,0,0
Y2-S2-213K23,3,270,AS,exp,49,→,right,→,1.0557556999847293,True,20,1,0,0
Y2-S2-213K23,3,271,AS,exp,30,←,left,←,0.8023946001194417,True,20,1,0,0
Y2-S2-213K23,3,272,AS,exp,32,↓,down,↓,0.5355080999433994,True,19,1,0,0
Y2-S2-213K23,3,273,AS,exp,38,←,left,←,0.6483133998699486,True,19,1,0,0
Y2-S2-213K23,3,274,AS,exp,27,→,right,→,0.8360612997785211,True,19,1,0,0
Y2-S2-213K23,3,275,AS,exp,41,←,left,←,0.41682179970666766,True,18,1,0,0
Y2-S2-213K23,3,276,AS,exp,30,↑,up,↑,0.7437502001412213,True,18,1,0,0
Y2-S2-213K23,3,277,AS,exp,26,→,right,→,0.5290493001230061,True,18,1,0,0
Y2-S2-213K23,3,278,AS,exp,30,←,right,→,0.6323049999773502,False,17,-1,1,1
Y2-S2-213K23,3,279,AS,exp,42,↓,up,↑,0.9171214997768402,False,18,-1,0,1
Y2-S2-213K23,3,280,AS,exp,43,→,right,→,0.546552799642086,True,19,-1,0,1
Y2-S2-213K23,3,281,AS,exp,28,↑,up,↑,0.5077291997149587,True,19,-1,0,1
Y2-S2-213K23,3,282,AS,exp,44,←,right,→,0.6602511000819504,False,19,-1,0,1
Y2-S2-213K23,3,283,AS,exp,32,↓,down,↓,0.467213099822402,True,20,-1,0,1
Y2-S2-213K23,3,284,AS,exp,33,←,left,←,0.46701049990952015,True,20,-1,0,1
Y2-S2-213K23,3,285,AS,exp,41,↓,down,↓,0.582124600186944,True,20,1,1,2
Y2-S2-213K23,3,286,AS,exp,40,→,right,→,1.0865927999839187,True,19,1,0,2
Y2-S2-213K23,3,287,AS,exp,43,↑,up,↑,0.7156207002699375,True,19,1,0,2
Y2-S2-213K23,3,288,AS,exp,40,→,right,→,0.45055529987439513,True,19,1,0,2
Y2-S2-213K23,3,289,AS,exp,50,↓,down,↓,0.4692218001000583,True,18,1,0,2
Y2-S2-213K23,3,290,AS,exp,39,←,left,←,0.9531205999664962,True,18,1,0,2
Y2-S2-213K23,3,291,AS,exp,26,→,right,→,0.4870388996787369,True,18,1,0,2
Y2-S2-213K23,3,292,AS,exp,33,↑,up,↑,0.6629826999269426,True,17,1,0,2
Y2-S2-213K23,3,293,AS,exp,44,→,right,→,0.46278109960258007,True,17,1,0,2
Y2-S2-213K23,3,294,AS,exp,37,←,left,←,0.6531667001545429,True,17,1,0,2
Y2-S2-213K23,3,295,AS,exp,43,→,right,→,0.4897193000651896,True,16,1,0,2
Y2-S2-213K23,3,296,AS,exp,44,↑,up,↑,0.569197699893266,True,16,1,0,2
Y2-S2-213K23,3,297,AS,exp,37,↓,down,↓,0.7901778998784721,True,16,1,0,2
Y2-S2-213K23,3,298,AS,exp,44,→,right,→,0.46988120023161173,True,15,1,0,2
Y2-S2-213K23,3,299,AS,exp,44,↓,down,↓,0.6778068002313375,True,15,1,0,2
Y2-S2-213K23,3,300,AS,exp,33,→,right,→,0.7691949000582099,True,15,1,0,2
Y2-S2-213K23,3,301,AS,exp,35,↑,down,↓,0.6486196997575462,False,14,-1,1,3
Y2-S2-213K23,3,302,AS,exp,30,→,down,↓,1.0126205999404192,False,15,-1,0,3
Y2-S2-213K23,3,303,AS,exp,31,↑,down,↓,0.8845142000354826,False,16,-1,0,3
Y2-S2-213K23,3,304,AS,exp,30,→,right,→,0.4837247999384999,True,17,-1,0,3
Y2-S2-213K23,3,305,AS,exp,37,←,left,←,0.5196388000622392,True,17,-1,0,3
Y2-S2-213K23,3,306,AS,exp,41,→,right,→,0.5831241002306342,True,17,1,1,4
Y2-S2-213K23,3,307,AS,exp,45,↓,down,↓,0.4872159003280103,True,16,1,0,4
Y2-S2-213K23,3,308,AS,exp,31,→,right,→,0.5407079001888633,True,16,1,0,4
Y2-S2-213K23,3,309,AS,exp,46,↑,down,↓,0.701553599908948,False,16,-1,1,5
Y2-S2-213K23,3,310,AS,exp,36,→,down,↓,0.6628779000602663,False,17,-1,0,5
Y2-S2-213K23,3,311,AS,exp,29,↓,down,↓,0.5419189999811351,True,18,-1,0,5
Y2-S2-213K23,3,312,AS,exp,37,↑,down,↓,0.56211750023067,False,18,-1,0,5
Y2-S2-213K23,3,313,AS,exp,38,↓,down,↓,0.7321766000241041,True,19,-1,0,5
Y2-S2-213K23,3,314,AS,exp,41,→,right,→,0.5227892999537289,True,19,-1,0,5
Y2-S2-213K23,3,315,AS,exp,28,↑,down,↓,0.7697552996687591,False,19,-1,0,5
Y2-S2-213K23,3,316,AS,exp,25,←,left,←,0.5612633000127971,True,20,-1,0,5
Y2-S2-213K23,3,317,AS,exp,33,↑,up,↑,0.4499522000551224,True,20,-1,0,5
Y2-S2-213K23,3,318,AS,exp,31,←,left,←,0.5027224998921156,True,20,1,1,6
Y2-S2-213K23,3,319,AS,exp,31,↑,up,↑,0.7179576000198722,True,19,1,0,6
Y2-S2-213K23,3,320,AS,exp,48,←,left,←,0.532205699943006,True,19,1,0,6
Y2-S2-213K23,3,321,AS,exp,45,↓,down,↓,0.41742860013619065,True,19,1,0,6
Y2-S2-213K23,3,322,AS,exp,42,→,no_key,no_letter,-1.0,False,18,-1,1,7
Y2-S2-213K23,3,323,AS,exp,26,↑,right,→,1.1150055998004973,False,19,-1,0,7
Y2-S2-213K23,3,324,AS,exp,46,→,right,→,0.5275631998665631,True,20,-1,0,7
Y2-S2-213K23,3,325,AS,exp,31,↑,up,↑,0.5890428000129759,True,20,-1,0,7
Y2-S2-213K23,3,326,AS,exp,32,←,left,←,0.5908700004220009,True,20,1,1,8
Y2-S2-213K23,3,327,AS,exp,44,↑,down,↓,0.785828800406307,False,19,-1,1,9
Y2-S2-213K23,3,328,AS,exp,46,←,right,→,0.866994300391525,False,20,-1,0,9
Y2-S2-213K23,3,329,AS,exp,32,↑,up,↑,0.7250971999019384,True,21,-1,0,9
Y2-S2-213K23,3,330,AS,exp,40,←,left,←,0.8706412999890745,True,21,-1,0,9
Y2-S2-213K23,3,331,AS,exp,26,↓,down,↓,1.0717809000052512,True,21,1,1,10
Y2-S2-213K23,3,332,AS,exp,40,↑,up,↑,0.9257885999977589,True,20,1,0,10
Y2-S2-213K23,3,333,AS,exp,50,←,left,←,0.9573669000528753,True,20,1,0,10
Y2-S2-213K23,3,334,AS,exp,40,→,right,→,0.9108172003179789,True,20,1,0,10
Y2-S2-213K23,3,335,AS,exp,27,↑,up,↑,0.6415556003339589,True,19,1,0,10
Y2-S2-213K23,3,336,AS,exp,38,→,right,→,0.6205094000324607,True,19,1,0,10
Y2-S2-213K23,3,337,AS,exp,40,↓,down,↓,0.49679729994386435,True,19,1,0,10
Y2-S2-213K23,3,338,AS,exp,39,↑,up,↑,0.41727690026164055,True,18,1,0,10
Y2-S2-213K23,3,339,AS,exp,39,→,right,→,0.708262300118804,True,18,1,0,10
Y2-S2-213K23,3,340,AS,exp,34,↑,down,↓,0.733124400023371,False,18,-1,1,11
Y2-S2-213K23,3,341,AS,exp,50,↓,down,↓,1.1550957998260856,True,19,-1,0,11
Y2-S2-213K23,3,342,AS,exp,27,←,left,←,0.45057309977710247,True,19,-1,0,11
Y2-S2-213K23,3,343,AS,exp,49,↓,down,↓,0.4916449999436736,True,19,1,1,12
Y2-S2-213K23,3,344,AS,exp,33,←,left,←,0.5038545001298189,True,18,1,0,12
Y2-S2-213K23,3,345,AS,exp,32,↓,down,↓,0.5099868001416326,True,18,1,0,12
Y2-S2-213K23,3,346,AS,exp,29,↑,down,↓,0.8046929002739489,False,18,-1,1,13
Y2-S2-213K23,3,347,AS,exp,40,↓,down,↓,0.587973500136286,True,19,-1,0,13
Y2-S2-213K23,3,348,AS,exp,31,→,down,↓,0.7373937997035682,False,19,-1,0,13
Y2-S2-213K23,3,349,AS,exp,32,←,right,→,1.0997937000356615,False,20,-1,0,13
Y2-S2-213K23,3,350,AS,exp,38,↑,down,↓,0.584294700063765,False,21,-1,0,13
Y2-S2-213K23,3,351,AS,exp,39,←,left,←,0.4838566002435982,True,22,-1,0,13
Y2-S2-213K23,3,352,AS,exp,39,→,right,→,1.1543891998007894,True,22,-1,0,13
Y2-S2-213K23,3,353,AS,exp,27,←,left,←,0.5974606997333467,True,22,1,1,14
Y2-S2-213K23,3,354,AS,exp,50,↑,up,↑,0.5947840004228055,True,21,1,0,14
Y2-S2-213K23,3,355,AS,exp,47,→,right,→,0.8941293000243604,True,21,1,0,14
Y2-S2-213K23,3,356,AS,exp,28,←,right,→,0.7918642000295222,False,21,-1,1,15
Y2-S2-213K23,3,357,AS,exp,41,→,right,→,0.7501821997575462,True,22,-1,0,15
Y2-S2-213K23,3,358,AS,exp,33,↓,down,↓,0.6378518003039062,True,22,-1,0,15
Y2-S2-213K23,3,359,AS,exp,47,←,left,←,1.1645847000181675,True,22,1,1,16
Y2-S2-213K23,4,360,PS,intra_train,46,→,right,→,0.7905778000131249,True,12,-,-,-
Y2-S2-213K23,4,361,PS,intra_train,32,↑,right,→,0.8092962000519037,False,12,-,-,-
Y2-S2-213K23,4,362,PS,intra_train,44,↓,down,↓,0.7335974001325667,True,12,-,-,-
Y2-S2-213K23,4,363,PS,intra_train,31,→,left,←,0.790941100101918,False,12,-,-,-
Y2-S2-213K23,4,364,PS,intra_train,47,↓,down,↓,0.5112741999328136,True,12,-,-,-
Y2-S2-213K23,4,365,PS,exp,42,→,right,→,0.46515760011970997,True,8,0,0,0
Y2-S2-213K23,4,366,PS,exp,40,↑,left,←,0.6805063998326659,False,8,-1,0,0
Y2-S2-213K23,4,367,PS,exp,28,→,right,→,0.5014800000935793,True,9,-1,0,0
Y2-S2-213K23,4,368,PS,exp,34,↑,up,↑,0.6743350997567177,True,9,-1,0,0
Y2-S2-213K23,4,369,PS,exp,25,↓,left,←,0.6197831998579204,False,9,-1,0,0
Y2-S2-213K23,4,370,PS,exp,41,→,left,←,0.7951924996450543,False,10,-1,0,0
Y2-S2-213K23,4,371,PS,exp,31,↓,down,↓,0.5589807000942528,True,11,-1,0,0
Y2-S2-213K23,4,372,PS,exp,48,↑,down,↓,0.8064844999462366,False,11,-1,0,0
Y2-S2-213K23,4,373,PS,exp,50,←,left,←,1.4744522999972105,True,12,-1,0,0
Y2-S2-213K23,4,374,PS,exp,25,↓,up,↑,1.1016129995696247,False,12,-1,0,0
Y2-S2-213K23,4,375,PS,exp,49,→,right,→,0.6532323001883924,True,13,-1,0,0
Y2-S2-213K23,4,376,PS,exp,48,↓,right,→,0.8304921998642385,False,13,-1,0,0
Y2-S2-213K23,4,377,PS,exp,31,←,left,←,0.5438044001348317,True,14,-1,0,0
Y2-S2-213K23,4,378,PS,exp,48,↑,right,→,0.8746013003401458,False,14,-1,0,0
Y2-S2-213K23,4,379,PS,exp,40,←,up,↑,1.0476186000742018,False,15,-1,0,0
Y2-S2-213K23,4,380,PS,exp,45,→,right,→,0.7800539000891149,True,16,-1,0,0
Y2-S2-213K23,4,381,PS,exp,50,←,left,←,0.6758906999602914,True,16,-1,0,0
Y2-S2-213K23,4,382,PS,exp,48,→,right,→,0.6527138999663293,True,16,1,1,1
Y2-S2-213K23,4,383,PS,exp,29,↓,left,←,0.9490241999737918,False,15,-1,1,2
Y2-S2-213K23,4,384,PS,exp,26,→,right,→,0.5259985001757741,True,16,-1,0,2
Y2-S2-213K23,4,385,PS,exp,30,↓,down,↓,0.5597377000376582,True,16,-1,0,2
Y2-S2-213K23,4,386,PS,exp,31,←,left,←,0.49921979987993836,True,16,1,1,3
Y2-S2-213K23,4,387,PS,exp,28,↓,right,→,1.0198491998016834,False,15,-1,1,4
Y2-S2-213K23,4,388,PS,exp,44,→,right,→,0.6203736998140812,True,16,-1,0,4
Y2-S2-213K23,4,389,PS,exp,32,←,left,←,0.47052929969504476,True,16,-1,0,4
Y2-S2-213K23,4,390,PS,exp,50,↓,down,↓,0.5574115002527833,True,16,1,1,5
Y2-S2-213K23,4,391,PS,exp,30,←,left,←,0.6513443998992443,True,15,1,0,5
Y2-S2-213K23,4,392,PS,exp,48,↑,up,↑,0.5308078997768462,True,15,1,0,5
Y2-S2-213K23,4,393,PS,exp,47,↓,down,↓,0.45636089984327555,True,15,1,0,5
Y2-S2-213K23,4,394,PS,exp,32,→,right,→,0.5884568998590112,True,14,1,0,5
Y2-S2-213K23,4,395,PS,exp,38,↓,down,↓,0.46653860015794635,True,14,1,0,5
Y2-S2-213K23,4,396,PS,exp,50,↑,down,↓,0.8801217000000179,False,14,-1,1,6
Y2-S2-213K23,4,397,PS,exp,43,←,left,←,0.5257692998275161,True,15,-1,0,6
Y2-S2-213K23,4,398,PS,exp,34,↓,down,↓,0.6219640001654625,True,15,-1,0,6
Y2-S2-213K23,4,399,PS,exp,25,→,right,→,0.4890406997874379,True,15,1,1,7
Y2-S2-213K23,4,400,PS,exp,35,←,left,←,0.5085779000073671,True,14,1,0,7
Y2-S2-213K23,4,401,PS,exp,29,→,right,→,0.503579099662602,True,14,1,0,7
Y2-S2-213K23,4,402,PS,exp,31,←,left,←,0.4460724997334182,True,14,1,0,7
Y2-S2-213K23,4,403,PS,exp,48,→,left,←,0.6084596002474427,False,13,-1,1,8
Y2-S2-213K23,4,404,PS,exp,38,↓,down,↓,0.44605410005897284,True,14,-1,0,8
Y2-S2-213K23,4,405,PS,exp,32,→,right,→,0.7639794000424445,True,14,-1,0,8
Y2-S2-213K23,4,406,PS,exp,45,↑,up,↑,0.6774846999906003,True,14,1,1,9
Y2-S2-213K23,4,407,PS,exp,29,↓,down,↓,0.7861373997293413,True,13,1,0,9
Y2-S2-213K23,4,408,PS,exp,35,↑,left,←,0.7954836999997497,False,13,-1,1,10
Y2-S2-213K23,4,409,PS,exp,35,→,right,→,0.5959956003353,True,14,-1,0,10
Y2-S2-213K23,4,410,PS,exp,34,←,left,←,0.5200923997908831,True,14,-1,0,10
Y2-S2-213K23,4,411,PS,exp,35,↓,down,↓,0.722348100040108,True,14,1,1,11
Y2-S2-213K23,4,412,PS,exp,30,↑,down,↓,1.0278572998940945,False,13,-1,1,12
Y2-S2-213K23,4,413,PS,exp,29,→,right,→,0.5272939000278711,True,14,-1,0,12
Y2-S2-213K23,4,414,PS,exp,49,↓,down,↓,0.5211350000463426,True,14,-1,0,12
Y2-S2-213K23,4,415,PS,exp,28,↑,down,↓,0.6864115996286273,False,14,-1,0,12
Y2-S2-213K23,4,416,PS,exp,42,←,right,→,0.6938644000329077,False,15,-1,0,12
Y2-S2-213K23,4,417,PS,exp,34,→,right,→,0.46983089996501803,True,16,-1,0,12
Y2-S2-213K23,4,418,PS,exp,37,↓,down,↓,0.49803709983825684,True,16,-1,0,12
Y2-S2-213K23,4,419,PS,exp,35,→,right,→,0.9830136997625232,True,16,1,1,13
Y2-S2-213K23,4,420,PS,exp,28,←,left,←,0.6546284998767078,True,15,1,0,13
Y2-S2-213K23,4,421,PS,exp,35,→,right,→,0.6894361996091902,True,15,1,0,13
Y2-S2-213K23,4,422,PS,exp,41,←,left,←,0.5542435999959707,True,15,1,0,13
Y2-S2-213K23,4,423,PS,exp,28,→,right,→,0.4777436996810138,True,14,1,0,13
Y2-S2-213K23,4,424,PS,exp,42,←,right,→,0.7103592995554209,False,14,-1,1,14
Y2-S2-213K23,4,425,PS,exp,40,→,right,→,0.5647748000919819,True,15,-1,0,14
Y2-S2-213K23,4,426,PS,exp,39,↓,down,↓,0.43452310003340244,True,15,-1,0,14
Y2-S2-213K23,4,427,PS,exp,30,←,left,←,0.48231379967182875,True,15,1,1,15
Y2-S2-213K23,4,428,PS,exp,37,↑,up,↑,0.726658399682492,True,14,1,0,15
Y2-S2-213K23,4,429,PS,exp,48,←,left,←,0.5724669001065195,True,14,1,0,15
Y2-S2-213K23,4,430,PS,exp,34,→,right,→,0.47497970005497336,True,14,1,0,15
Y2-S2-213K23,4,431,PS,exp,44,↑,up,↑,0.79900459991768,True,13,1,0,15
Y2-S2-213K23,4,432,PS,exp,41,←,left,←,0.5662973001599312,True,13,1,0,15
Y2-S2-213K23,4,433,PS,exp,29,↓,down,↓,0.7246889001689851,True,13,1,0,15
Y2-S2-213K23,4,434,PS,exp,43,↑,up,↑,0.496701099909842,True,12,1,0,15
Y2-S2-213K23,4,435,PS,exp,39,↓,down,↓,0.40574780013412237,True,12,1,0,15
Y2-S2-213K23,4,436,PS,exp,38,←,left,←,0.5061083002947271,True,12,1,0,15
Y2-S2-213K23,4,437,PS,exp,25,↑,up,↑,0.9769311002455652,True,11,1,0,15
Y2-S2-213K23,4,438,PS,exp,31,↓,down,↓,0.43455929961055517,True,11,1,0,15
Y2-S2-213K23,4,439,PS,exp,38,→,right,→,0.44911650009453297,True,11,1,0,15
Y2-S2-213K23,4,440,PS,exp,44,↓,down,↓,0.6768275001086295,True,10,1,0,15
Y2-S2-213K23,4,441,PS,exp,42,←,down,↓,0.8138186000287533,False,10,-1,1,16
Y2-S2-213K23,5,442,PS,intra_train,42,↑,up,↑,0.6420595999807119,True,12,-,-,-
Y2-S2-213K23,5,443,PS,intra_train,50,→,right,→,0.5338558000512421,True,12,-,-,-
Y2-S2-213K23,5,444,PS,intra_train,29,←,left,←,0.5703666997142136,True,12,-,-,-
Y2-S2-213K23,5,445,PS,intra_train,30,→,right,→,0.4798795999959111,True,12,-,-,-
Y2-S2-213K23,5,446,PS,intra_train,32,↑,up,↑,0.4785318998619914,True,12,-,-,-
Y2-S2-213K23,5,447,PS,exp,36,→,right,→,0.44781679986044765,True,8,0,0,0
Y2-S2-213K23,5,448,PS,exp,32,↑,up,↑,0.6425676997750998,True,8,0,0,0
Y2-S2-213K23,5,449,PS,exp,34,↓,down,↓,0.6758276000618935,True,8,1,0,0
Y2-S2-213K23,5,450,PS,exp,41,←,left,←,0.45062619959935546,True,7,1,0,0
Y2-S2-213K23,5,451,PS,exp,26,↓,down,↓,0.5176086998544633,True,7,1,0,0
Y2-S2-213K23,5,452,PS,exp,41,→,down,↓,0.6733610001392663,False,7,-1,1,1
Y2-S2-213K23,5,453,PS,exp,49,↓,down,↓,0.4653504998423159,True,8,-1,0,1
Y2-S2-213K23,5,454,PS,exp,37,←,left,←,0.4889665003865957,True,8,-1,0,1
Y2-S2-213K23,5,455,PS,exp,33,↑,right,→,0.5004336000420153,False,8,-1,0,1
Y2-S2-213K23,5,456,PS,exp,50,↓,right,→,0.5656392001546919,False,9,-1,0,1
Y2-S2-213K23,5,457,PS,exp,47,←,left,←,0.4773908001370728,True,10,-1,0,1
Y2-S2-213K23,5,458,PS,exp,48,↓,right,→,0.46959130000323057,False,10,-1,0,1
Y2-S2-213K23,5,459,PS,exp,49,←,right,→,0.7261057002469897,False,11,-1,0,1
Y2-S2-213K23,5,460,PS,exp,29,↑,right,→,0.5852161999791861,False,12,-1,0,1
Y2-S2-213K23,5,461,PS,exp,46,→,right,→,0.5925163002684712,True,13,-1,0,1
Y2-S2-213K23,5,462,PS,exp,46,↓,down,↓,0.5574706001207232,True,13,-1,0,1
Y2-S2-213K23,5,463,PS,exp,34,→,right,→,0.5027052001096308,True,13,1,1,2
Y2-S2-213K23,5,464,PS,exp,37,↓,down,↓,0.9123970996588469,True,12,1,0,2
Y2-S2-213K23,5,465,PS,exp,47,→,right,→,0.46913350000977516,True,12,1,0,2
Y2-S2-213K23,5,466,PS,exp,32,↓,down,↓,0.4935977002605796,True,12,1,0,2
Y2-S2-213K23,5,467,PS,exp,39,→,right,→,0.4439484002068639,True,11,1,0,2
Y2-S2-213K23,5,468,PS,exp,26,↑,right,→,1.2115990999154747,False,11,-1,1,3
Y2-S2-213K23,5,469,PS,exp,38,←,left,←,0.5315800001844764,True,12,-1,0,3
Y2-S2-213K23,5,470,PS,exp,47,↑,right,→,0.6697428999468684,False,12,-1,0,3
Y2-S2-213K23,5,471,PS,exp,27,→,left,←,0.7454853998497128,False,13,-1,0,3
Y2-S2-213K23,5,472,PS,exp,32,↑,up,↑,0.47914859978482127,True,14,-1,0,3
Y2-S2-213K23,5,473,PS,exp,38,←,left,←,0.7303908998146653,True,14,-1,0,3
Y2-S2-213K23,5,474,PS,exp,32,↑,up,↑,0.4645911999978125,True,14,1,1,4
Y2-S2-213K23,5,475,PS,exp,38,←,left,←,0.5233926996588707,True,13,1,0,4
Y2-S2-213K23,5,476,PS,exp,31,↑,left,←,1.3072613002732396,False,13,-1,1,5
Y2-S2-213K23,5,477,PS,exp,32,←,left,←,0.5537193003110588,True,14,-1,0,5
Y2-S2-213K23,5,478,PS,exp,27,↑,up,↑,0.569531099870801,True,14,-1,0,5
Y2-S2-213K23,5,479,PS,exp,46,←,left,←,0.6137721999548376,True,14,1,1,6
Y2-S2-213K23,5,480,PS,exp,47,→,left,←,0.5202260999940336,False,13,-1,1,7
Y2-S2-213K23,5,481,PS,exp,36,↑,up,↑,0.5134507999755442,True,14,-1,0,7
Y2-S2-213K23,5,482,PS,exp,28,↓,left,←,0.6516730999574065,False,14,-1,0,7
Y2-S2-213K23,5,483,PS,exp,33,←,left,←,0.48748210025951266,True,15,-1,0,7
Y2-S2-213K23,5,484,PS,exp,34,→,left,←,0.637121600098908,False,15,-1,0,7
Y2-S2-213K23,5,485,PS,exp,41,↓,down,↓,0.5152667001821101,True,16,-1,0,7
Y2-S2-213K23,5,486,PS,exp,38,←,left,←,0.549144099932164,True,16,-1,0,7
Y2-S2-213K23,5,487,PS,exp,25,↑,up,↑,0.4655557000078261,True,16,1,1,8
Y2-S2-213K23,5,488,PS,exp,47,↓,right,→,0.9010592000558972,False,15,-1,1,9
Y2-S2-213K23,5,489,PS,exp,33,↑,up,↑,0.45234389975667,True,16,-1,0,9
Y2-S2-213K23,5,490,PS,exp,44,→,right,→,0.5690795001573861,True,16,-1,0,9
Y2-S2-213K23,5,491,PS,exp,32,←,left,←,1.2802283000200987,True,16,1,1,10
Y2-S2-213K23,5,492,PS,exp,25,↓,down,↓,0.6440507997758687,True,15,1,0,10
Y2-S2-213K23,5,493,PS,exp,31,→,right,→,0.5205876999534667,True,15,1,0,10
Y2-S2-213K23,5,494,PS,exp,36,↑,up,↑,0.4466332998126745,True,15,1,0,10
Y2-S2-213K23,5,495,PS,exp,42,↓,right,→,0.5085483998991549,False,14,-1,1,11
Y2-S2-213K23,5,496,PS,exp,50,→,up,↑,0.5771680995821953,False,15,-1,0,11
Y2-S2-213K23,5,497,PS,exp,27,↑,up,↑,0.5133885997347534,True,16,-1,0,11
Y2-S2-213K23,5,498,PS,exp,49,←,right,→,0.6652151998132467,False,16,-1,0,11
Y2-S2-213K23,5,499,PS,exp,37,→,right,→,0.45268769981339574,True,17,-1,0,11
Y2-S2-213K23,5,500,PS,exp,37,↓,down,↓,0.4662342998199165,True,17,-1,0,11
Y2-S2-213K23,5,501,PS,exp,35,↑,up,↑,0.48606929974630475,True,17,1,1,12
Y2-S2-213K23,5,502,PS,exp,28,→,right,→,0.7417970998212695,True,16,1,0,12
Y2-S2-213K23,5,503,PS,exp,49,←,up,↑,0.642433499917388,False,16,-1,1,13
Y2-S2-213K23,5,504,PS,exp,42,→,right,→,1.0080085997469723,True,17,-1,0,13
Y2-S2-213K23,5,505,PS,exp,33,←,left,←,0.4963496997952461,True,17,-1,0,13
Y2-S2-213K23,5,506,PS,exp,50,→,right,→,0.41708420030772686,True,17,1,1,14
Y2-S2-213K23,5,507,PS,exp,45,↑,up,↑,0.44623379968106747,True,16,1,0,14
Y2-S2-213K23,5,508,PS,exp,45,←,left,←,0.44217329984530807,True,16,1,0,14
Y2-S2-213K23,5,509,PS,exp,39,↓,down,↓,0.8637659000232816,True,16,1,0,14
Y2-S2-213K23,5,510,PS,exp,47,←,left,←,0.384064800105989,True,15,1,0,14
Y2-S2-213K23,5,511,PS,exp,27,→,right,→,0.43633020017296076,True,15,1,0,14
Y2-S2-213K23,5,512,PS,exp,47,←,left,←,0.7185303000733256,True,15,1,0,14
Y2-S2-213K23,5,513,PS,exp,43,↑,up,↑,0.6363468002527952,True,14,1,0,14
Y2-S2-213K23,5,514,PS,exp,41,←,left,←,0.85767039982602,True,14,1,0,14
Y2-S2-213K23,5,515,PS,exp,32,↓,down,↓,0.48187470017001033,True,14,1,0,14
Y2-S2-213K23,5,516,PS,exp,35,↑,up,↑,0.44367399998009205,True,13,1,0,14
Y2-S2-213K23,5,517,PS,exp,38,→,right,→,0.4829273000359535,True,13,1,0,14
Y2-S2-213K23,5,518,PS,exp,44,↓,right,→,0.4887287002056837,False,13,-1,1,15
Y2-S2-213K23,5,519,PS,exp,29,→,right,→,0.7327690999954939,True,14,-1,0,15
Y2-S2-213K23,5,520,PS,exp,33,↓,down,↓,0.5842218999750912,True,14,-1,0,15
Y2-S2-213K23,5,521,PS,exp,39,←,left,←,0.9181296997703612,True,14,1,1,16
Y2-S2-213K23,6,522,AS,intra_train,40,→,right,→,0.6005755001679063,True,31,-,-,-
Y2-S2-213K23,6,523,AS,intra_train,44,↓,right,→,0.5339302998036146,False,31,-,-,-
Y2-S2-213K23,6,524,AS,intra_train,40,→,right,→,0.5335503001697361,True,31,-,-,-
Y2-S2-213K23,6,525,AS,intra_train,25,←,left,←,0.6503624999895692,True,31,-,-,-
Y2-S2-213K23,6,526,AS,intra_train,41,↑,down,↓,0.43433349998667836,False,31,-,-,-
Y2-S2-213K23,6,527,AS,exp,34,→,left,←,0.8170427996665239,False,21,-1,0,0
Y2-S2-213K23,6,528,AS,exp,39,←,right,→,0.6175466002896428,False,22,-1,0,0
Y2-S2-213K23,6,529,AS,exp,40,→,right,→,0.5008076997473836,True,23,-1,0,0
Y2-S2-213K23,6,530,AS,exp,45,↓,down,↓,0.630273099988699,True,23,-1,0,0
Y2-S2-213K23,6,531,AS,exp,25,↑,up,↑,0.7174819000065327,True,23,1,1,1
Y2-S2-213K23,6,532,AS,exp,43,→,right,→,1.0380151001736522,True,22,1,0,1
Y2-S2-213K23,6,533,AS,exp,45,↓,down,↓,0.4673323999159038,True,22,1,0,1
Y2-S2-213K23,6,534,AS,exp,38,←,left,←,0.48374349996447563,True,22,1,0,1
Y2-S2-213K23,6,535,AS,exp,25,→,right,→,0.5196899999864399,True,21,1,0,1
Y2-S2-213K23,6,536,AS,exp,39,↑,up,↑,0.4508639997802675,True,21,1,0,1
Y2-S2-213K23,6,537,AS,exp,32,↓,down,↓,0.7203990998677909,True,21,1,0,1
Y2-S2-213K23,6,538,AS,exp,34,↑,up,↑,0.41722780000418425,True,20,1,0,1
Y2-S2-213K23,6,539,AS,exp,40,←,left,←,0.8759135999716818,True,20,1,0,1
Y2-S2-213K23,6,540,AS,exp,30,→,right,→,0.46701049990952015,True,20,1,0,1
Y2-S2-213K23,6,541,AS,exp,37,↑,up,↑,0.5947830998338759,True,19,1,0,1
Y2-S2-213K23,6,542,AS,exp,38,←,left,←,0.511326499748975,True,19,1,0,1
Y2-S2-213K23,6,543,AS,exp,50,↑,up,↑,0.726448499597609,True,19,1,0,1
Y2-S2-213K23,6,544,AS,exp,36,→,right,→,0.5858589997515082,True,18,1,0,1
Y2-S2-213K23,6,545,AS,exp,50,↑,up,↑,0.48559110006317496,True,18,1,0,1
Y2-S2-213K23,6,546,AS,exp,46,←,right,→,1.1197965000756085,False,18,-1,1,2
Y2-S2-213K23,6,547,AS,exp,37,→,right,→,0.9000353999435902,True,19,-1,0,2
Y2-S2-213K23,6,548,AS,exp,26,←,left,←,0.4978612996637821,True,19,-1,0,2
Y2-S2-213K23,6,549,AS,exp,29,→,right,→,1.0092035001143813,True,19,1,1,3
Y2-S2-213K23,6,550,AS,exp,42,←,left,←,0.5755566000007093,True,18,1,0,3
Y2-S2-213K23,6,551,AS,exp,25,→,right,→,0.7380814999341965,True,18,1,0,3
Y2-S2-213K23,6,552,AS,exp,49,←,right,→,1.0072984998114407,False,18,-1,1,4
Y2-S2-213K23,6,553,AS,exp,31,↓,down,↓,1.1457592002116144,True,19,-1,0,4
Y2-S2-213K23,6,554,AS,exp,44,↑,up,↑,0.4338887999765575,True,19,-1,0,4
Y2-S2-213K23,6,555,AS,exp,36,↓,down,↓,0.6981710996478796,True,19,1,1,5
Y2-S2-213K23,6,556,AS,exp,42,←,left,←,0.4951845002360642,True,18,1,0,5
Y2-S2-213K23,6,557,AS,exp,35,↑,up,↑,0.43384480010718107,True,18,1,0,5
Y2-S2-213K23,6,558,AS,exp,35,←,left,←,0.5078505002893507,True,18,1,0,5
Y2-S2-213K23,6,559,AS,exp,28,→,right,→,0.5331752002239227,True,17,1,0,5
Y2-S2-213K23,6,560,AS,exp,35,↓,down,↓,0.8069353001192212,True,17,1,0,5
Y2-S2-213K23,6,561,AS,exp,27,↑,up,↑,0.7726672999560833,True,17,1,0,5
Y2-S2-213K23,6,562,AS,exp,38,←,down,↓,0.8027506996877491,False,16,-1,1,6
Y2-S2-213K23,6,563,AS,exp,25,↑,up,↑,0.9766424000263214,True,17,-1,0,6
Y2-S2-213K23,6,564,AS,exp,36,→,right,→,0.9044016003608704,True,17,-1,0,6
Y2-S2-213K23,6,565,AS,exp,28,↓,down,↓,0.8719469998031855,True,17,1,1,7
Y2-S2-213K23,6,566,AS,exp,30,→,right,→,0.6305980002507567,True,16,1,0,7
Y2-S2-213K23,6,567,AS,exp,31,←,left,←,0.43958820030093193,True,16,1,0,7
Y2-S2-213K23,6,568,AS,exp,45,↑,right,→,0.8516277996823192,False,16,-1,1,8
Y2-S2-213K23,6,569,AS,exp,46,←,left,←,0.9107453003525734,True,17,-1,0,8
Y2-S2-213K23,6,570,AS,exp,35,↑,up,↑,0.6901394999586046,True,17,-1,0,8
Y2-S2-213K23,6,571,AS,exp,39,↓,up,↑,1.2328452998772264,False,17,-1,0,8
Y2-S2-213K23,6,572,AS,exp,47,↑,up,↑,0.5429823999293149,True,18,-1,0,8
Y2-S2-213K23,6,573,AS,exp,44,→,right,→,0.6654535001143813,True,18,-1,0,8
Y2-S2-213K23,6,574,AS,exp,49,↑,up,↑,0.4340856000781059,True,18,1,1,9
Y2-S2-213K23,6,575,AS,exp,33,←,left,←,0.4172973996028304,True,17,1,0,9
Y2-S2-213K23,6,576,AS,exp,37,↑,up,↑,0.4006865997798741,True,17,1,0,9
Y2-S2-213K23,6,577,AS,exp,33,←,right,→,0.6348100998438895,False,17,-1,1,10
Y2-S2-213K23,6,578,AS,exp,45,→,right,→,0.4774930998682976,True,18,-1,0,10
Y2-S2-213K23,6,579,AS,exp,35,↑,right,→,1.4703521998599172,False,18,-1,0,10
Y2-S2-213K23,6,580,AS,exp,32,→,right,→,0.6863488000817597,True,19,-1,0,10
Y2-S2-213K23,6,581,AS,exp,42,↑,up,↑,0.4340319996699691,True,19,-1,0,10
Y2-S2-213K23,6,582,AS,exp,48,→,right,→,0.928104099817574,True,19,1,1,11
Y2-S2-213K23,6,583,AS,exp,43,↓,down,↓,0.5069721001200378,True,18,1,0,11
Y2-S2-213K23,6,584,AS,exp,32,←,left,←,0.5068951002322137,True,18,1,0,11
Y2-S2-213K23,6,585,AS,exp,40,↓,down,↓,0.8493388998322189,True,18,1,0,11
Y2-S2-213K23,6,586,AS,exp,36,→,left,←,0.6648917999118567,False,17,-1,1,12
Y2-S2-213K23,6,587,AS,exp,40,↓,down,↓,0.5303235999308527,True,18,-1,0,12
Y2-S2-213K23,6,588,AS,exp,41,←,left,←,0.5019255001097918,True,18,-1,0,12
Y2-S2-213K23,6,589,AS,exp,33,↑,up,↑,0.5402913996949792,True,18,1,1,13
Y2-S2-213K23,6,590,AS,exp,26,↓,down,↓,0.5794922998175025,True,17,1,0,13
Y2-S2-213K23,6,591,AS,exp,27,↑,down,↓,1.0906066000461578,False,17,-1,1,14
Y2-S2-213K23,6,592,AS,exp,35,→,right,→,0.5704847001470625,True,18,-1,0,14
Y2-S2-213K23,6,593,AS,exp,48,↑,up,↑,0.4980859998613596,True,18,-1,0,14
Y2-S2-213K23,6,594,AS,exp,25,←,right,→,0.5713520003482699,False,18,-1,0,14
Y2-S2-213K23,6,595,AS,exp,44,↑,up,↑,0.7388691999949515,True,19,-1,0,14
Y2-S2-213K23,6,596,AS,exp,29,←,left,←,0.5113401999697089,True,19,-1,0,14
Y2-S2-213K23,6,597,AS,exp,45,↑,up,↑,0.9741181000135839,True,19,1,1,15
Y2-S2-213K23,6,598,AS,exp,27,→,right,→,1.357243400067091,True,18,1,0,15
Y2-S2-213K23,6,599,AS,exp,44,↓,down,↓,0.8182852999307215,True,18,1,0,15
Y2-S2-213K23,6,600,AS,exp,33,↑,up,↑,0.5530505999922752,True,18,1,0,15
Y2-S2-213K23,6,601,AS,exp,42,↓,down,↓,0.4011778002604842,True,17,1,0,15
Y2-S2-213K23,6,602,AS,exp,45,→,right,→,0.6808473998680711,True,17,1,0,15
Y2-S2-213K23,6,603,AS,exp,32,←,left,←,0.8328207000158727,True,17,1,0,15
Y2-S2-213K23,6,604,AS,exp,45,→,right,→,0.6029803003184497,True,16,1,0,15
Y2-S2-213K23,6,605,AS,exp,33,↓,down,↓,0.6858204999007285,True,16,1,0,15
Y2-S2-213K23,6,606,AS,exp,25,↑,up,↑,0.648142899852246,True,16,1,0,15
Y2-S2-213K23,6,607,AS,exp,27,→,right,→,0.7426320998929441,True,15,1,0,15
Y2-S2-213K23,6,608,AS,exp,30,↑,up,↑,0.6950218002311885,True,15,1,0,15
Y2-S2-213K23,6,609,AS,exp,26,→,right,→,0.49814700009301305,True,15,1,0,15
Y2-S2-213K23,6,610,AS,exp,35,↓,down,↓,0.6467514000833035,True,14,1,0,15
Y2-S2-213K23,6,611,AS,exp,50,→,right,→,0.5858352999202907,True,14,1,0,15
Y2-S2-213K23,6,612,AS,exp,46,←,right,→,1.0164038999937475,False,14,-1,1,16
Y2-S2-213K23,7,613,AS,intra_train,34,↑,up,↑,0.690119800157845,True,31,-,-,-
Y2-S2-213K23,7,614,AS,intra_train,46,←,left,←,0.7317622001282871,True,31,-,-,-
Y2-S2-213K23,7,615,AS,intra_train,29,→,right,→,0.4512374000623822,True,31,-,-,-
Y2-S2-213K23,7,616,AS,intra_train,40,↓,down,↓,0.4843462002463639,True,31,-,-,-
Y2-S2-213K23,7,617,AS,intra_train,33,↑,up,↑,0.3842231002636254,True,31,-,-,-
Y2-S2-213K23,7,618,AS,exp,35,←,left,←,0.6376370000652969,True,21,0,0,0
Y2-S2-213K23,7,619,AS,exp,46,↑,up,↑,0.7321037999354303,True,21,0,0,0
Y2-S2-213K23,7,620,AS,exp,30,↓,down,↓,0.731398600153625,True,21,1,0,0
Y2-S2-213K23,7,621,AS,exp,47,→,right,→,0.4503872003406286,True,20,1,0,0
Y2-S2-213K23,7,622,AS,exp,25,↓,down,↓,0.5310450000688434,True,20,1,0,0
Y2-S2-213K23,7,623,AS,exp,46,↑,up,↑,0.4174289000220597,True,20,1,0,0
Y2-S2-213K23,7,624,AS,exp,36,→,right,→,0.43413589987903833,True,19,1,0,0
Y2-S2-213K23,7,625,AS,exp,28,↑,up,↑,0.9796268003992736,True,19,1,0,0
Y2-S2-213K23,7,626,AS,exp,40,↓,down,↓,0.5821715998463333,True,19,1,0,0
Y2-S2-213K23,7,627,AS,exp,29,↑,up,↑,0.38390300003811717,True,18,1,0,0
Y2-S2-213K23,7,628,AS,exp,43,↓,down,↓,0.4171702996827662,True,18,1,0,0
Y2-S2-213K23,7,629,AS,exp,48,←,right,→,0.9110484002158046,False,18,-1,1,1
Y2-S2-213K23,7,630,AS,exp,40,↓,down,↓,0.41703440016135573,True,19,-1,0,1
Y2-S2-213K23,7,631,AS,exp,49,↑,up,↑,0.8100171997211874,True,19,-1,0,1
Y2-S2-213K23,7,632,AS,exp,27,→,right,→,0.6347698997706175,True,19,1,1,2
Y2-S2-213K23,7,633,AS,exp,33,←,left,←,0.43402160005643964,True,18,1,0,2
Y2-S2-213K23,7,634,AS,exp,50,↓,down,↓,0.8720924998633564,True,18,1,0,2
Y2-S2-213K23,7,635,AS,exp,34,←,left,←,0.5431260000914335,True,18,1,0,2
Y2-S2-213K23,7,636,AS,exp,44,↑,up,↑,0.740901299752295,True,17,1,0,2
Y2-S2-213K23,7,637,AS,exp,34,←,right,→,0.6128716999664903,False,17,-1,1,3
Y2-S2-213K23,7,638,AS,exp,48,↑,up,↑,0.7213079999201,True,18,-1,0,3
Y2-S2-213K23,7,639,AS,exp,27,→,right,→,0.6122441999614239,True,18,-1,0,3
Y2-S2-213K23,7,640,AS,exp,41,↑,up,↑,0.967036500107497,True,18,1,1,4
Y2-S2-213K23,7,641,AS,exp,46,→,right,→,0.6856712000444531,True,17,1,0,4
Y2-S2-213K23,7,642,AS,exp,26,↓,up,↑,0.7804001998156309,False,17,-1,1,5
Y2-S2-213K23,7,643,AS,exp,50,→,right,→,0.6759273996576667,True,18,-1,0,5
Y2-S2-213K23,7,644,AS,exp,31,↑,up,↑,0.417193700093776,True,18,-1,0,5
Y2-S2-213K23,7,645,AS,exp,37,↓,down,↓,0.9839347000233829,True,18,1,1,6
Y2-S2-213K23,7,646,AS,exp,29,←,right,→,0.5149495997466147,False,17,-1,1,7
Y2-S2-213K23,7,647,AS,exp,35,→,right,→,0.8984992001205683,True,18,-1,0,7
Y2-S2-213K23,7,648,AS,exp,34,↓,down,↓,0.9058538000099361,True,18,-1,0,7
Y2-S2-213K23,7,649,AS,exp,45,←,left,←,0.4334635999985039,True,18,1,1,8
Y2-S2-213K23,7,650,AS,exp,31,↓,down,↓,0.7347691999748349,True,17,1,0,8
Y2-S2-213K23,7,651,AS,exp,43,→,right,→,0.4588827001862228,True,17,1,0,8
Y2-S2-213K23,7,652,AS,exp,27,←,right,→,0.5562006998807192,False,17,-1,1,9
Y2-S2-213K23,7,653,AS,exp,45,↑,up,↑,0.9031197000294924,True,18,-1,0,9
Y2-S2-213K23,7,654,AS,exp,29,→,right,→,0.8897016001865268,True,18,-1,0,9
Y2-S2-213K23,7,655,AS,exp,31,←,left,←,0.7434437996707857,True,18,1,1,10
Y2-S2-213K23,7,656,AS,exp,26,→,right,→,0.41738020023331046,True,17,1,0,10
Y2-S2-213K23,7,657,AS,exp,38,↑,up,↑,0.8621911997906864,True,17,1,0,10
Y2-S2-213K23,7,658,AS,exp,31,→,right,→,0.8479569000191987,True,17,1,0,10
Y2-S2-213K23,7,659,AS,exp,37,↑,right,→,1.3137507997453213,False,16,-1,1,11
Y2-S2-213K23,7,660,AS,exp,45,↓,down,↓,0.870981500018388,True,17,-1,0,11
Y2-S2-213K23,7,661,AS,exp,41,←,left,←,0.5176289998926222,True,17,-1,0,11
Y2-S2-213K23,7,662,AS,exp,40,→,right,→,0.720040500164032,True,17,1,1,12
Y2-S2-213K23,7,663,AS,exp,36,↓,down,↓,0.6124789002351463,True,16,1,0,12
Y2-S2-213K23,7,664,AS,exp,29,→,right,→,0.6599644999951124,True,16,1,0,12
Y2-S2-213K23,7,665,AS,exp,25,↑,up,↑,0.5094103999435902,True,16,1,0,12
Y2-S2-213K23,7,666,AS,exp,42,→,right,→,0.5544534004293382,True,15,1,0,12
Y2-S2-213K23,7,667,AS,exp,36,←,right,→,0.47374629974365234,False,15,-1,1,13
Y2-S2-213K23,7,668,AS,exp,39,↑,down,↓,0.6742460001260042,False,16,-1,0,13
Y2-S2-213K23,7,669,AS,exp,30,←,right,→,0.5460777003318071,False,17,-1,0,13
Y2-S2-213K23,7,670,AS,exp,33,→,left,←,0.7752318000420928,False,18,-1,0,13
Y2-S2-213K23,7,671,AS,exp,31,↓,down,↓,0.9791268003173172,True,19,-1,0,13
Y2-S2-213K23,7,672,AS,exp,36,→,right,→,0.6623160000890493,True,19,-1,0,13
Y2-S2-213K23,7,673,AS,exp,38,↓,right,→,0.8159372000955045,False,19,-1,0,13
Y2-S2-213K23,7,674,AS,exp,30,←,left,←,1.0250952001661062,True,20,-1,0,13
Y2-S2-213K23,7,675,AS,exp,33,↑,up,↑,0.7911787000484765,True,20,-1,0,13
Y2-S2-213K23,7,676,AS,exp,32,→,right,→,0.5301679000258446,True,20,1,1,14
Y2-S2-213K23,7,677,AS,exp,37,↑,up,↑,1.2600668002851307,True,19,1,0,14
Y2-S2-213K23,7,678,AS,exp,47,↓,down,↓,0.9720870996825397,True,19,1,0,14
Y2-S2-213K23,7,679,AS,exp,42,←,left,←,0.5060136001557112,True,19,1,0,14
Y2-S2-213K23,7,680,AS,exp,37,→,right,→,0.8227717000991106,True,18,1,0,14
Y2-S2-213K23,7,681,AS,exp,34,↑,up,↑,0.5064383000135422,True,18,1,0,14
Y2-S2-213K23,7,682,AS,exp,34,→,right,→,0.9868263998068869,True,18,1,0,14
Y2-S2-213K23,7,683,AS,exp,29,↓,down,↓,0.7344442997127771,True,17,1,0,14
Y2-S2-213K23,7,684,AS,exp,38,→,right,→,0.5616164999082685,True,17,1,0,14
Y2-S2-213K23,7,685,AS,exp,25,←,right,→,0.5062386002391577,False,17,-1,1,15
Y2-S2-213K23,7,686,AS,exp,35,→,right,→,0.5254469001665711,True,18,-1,0,15
Y2-S2-213K23,7,687,AS,exp,29,←,right,→,0.4802214000374079,False,18,-1,0,15
Y2-S2-213K23,7,688,AS,exp,43,→,left,←,0.858479400165379,False,19,-1,0,15
Y2-S2-213K23,7,689,AS,exp,49,←,left,←,0.7197352000512183,True,20,-1,0,15
Y2-S2-213K23,7,690,AS,exp,36,→,right,→,0.7557478002272546,True,20,-1,0,15
Y2-S2-213K23,7,691,AS,exp,28,←,left,←,0.6740321996621788,True,20,1,1,16
Y2-S2-213K23,8,692,PS,intra_train,44,↓,down,↓,0.39795600017532706,True,12,-,-,-
Y2-S2-213K23,8,693,PS,intra_train,31,↑,left,←,0.8916003000922501,False,12,-,-,-
Y2-S2-213K23,8,694,PS,intra_train,36,↓,left,←,0.6978527996689081,False,12,-,-,-
Y2-S2-213K23,8,695,PS,intra_train,31,←,left,←,0.5033923001028597,True,12,-,-,-
Y2-S2-213K23,8,696,PS,intra_train,40,↓,down,↓,0.5601993002928793,True,12,-,-,-
Y2-S2-213K23,8,697,PS,exp,36,→,right,→,0.4223507000133395,True,8,0,0,0
Y2-S2-213K23,8,698,PS,exp,41,↑,up,↑,0.511084399651736,True,8,0,0,0
Y2-S2-213K23,8,699,PS,exp,46,→,right,→,0.38761219987645745,True,8,1,0,0
Y2-S2-213K23,8,700,PS,exp,46,↑,up,↑,0.45785809960216284,True,7,1,0,0
Y2-S2-213K23,8,701,PS,exp,31,↓,right,→,0.62936249980703,False,7,-1,1,1
Y2-S2-213K23,8,702,PS,exp,45,↑,up,↑,0.4498257003724575,True,8,-1,0,1
Y2-S2-213K23,8,703,PS,exp,46,↓,up,↑,0.43765470013022423,False,8,-1,0,1
Y2-S2-213K23,8,704,PS,exp,33,↑,down,↓,0.8443739996291697,False,9,-1,0,1
Y2-S2-213K23,8,705,PS,exp,29,→,right,→,0.6099920002743602,True,10,-1,0,1
Y2-S2-213K23,8,706,PS,exp,47,↑,up,↑,0.4584311000071466,True,10,-1,0,1
Y2-S2-213K23,8,707,PS,exp,36,→,right,→,0.719218899961561,True,10,1,1,2
Y2-S2-213K23,8,708,PS,exp,36,←,right,→,0.5378614002838731,False,9,-1,1,3
Y2-S2-213K23,8,709,PS,exp,46,↓,down,↓,0.4936024001799524,True,10,-1,0,3
Y2-S2-213K23,8,710,PS,exp,30,←,left,←,0.49368400033563375,True,10,-1,0,3
Y2-S2-213K23,8,711,PS,exp,37,↓,down,↓,0.6602790001779795,True,10,1,1,4
Y2-S2-213K23,8,712,PS,exp,48,↑,right,→,0.6649163998663425,False,9,-1,1,5
Y2-S2-213K23,8,713,PS,exp,39,↓,down,↓,0.40257119992747903,True,10,-1,0,5
Y2-S2-213K23,8,714,PS,exp,31,→,right,→,0.6100886003114283,True,10,-1,0,5
Y2-S2-213K23,8,715,PS,exp,40,↓,up,↑,0.9940971997566521,False,10,-1,0,5
Y2-S2-213K23,8,716,PS,exp,36,→,right,→,0.4713850002735853,True,11,-1,0,5
Y2-S2-213K23,8,717,PS,exp,42,↓,down,↓,0.46745980018749833,True,11,-1,0,5
Y2-S2-213K23,8,718,PS,exp,50,↑,up,↑,0.47114779986441135,True,11,1,1,6
Y2-S2-213K23,8,719,PS,exp,45,↓,left,←,0.9012793996371329,False,10,-1,1,7
Y2-S2-213K23,8,720,PS,exp,35,→,left,←,0.5531261996366084,False,11,-1,0,7
Y2-S2-213K23,8,721,PS,exp,28,↓,down,↓,0.5786911998875439,True,12,-1,0,7
Y2-S2-213K23,8,722,PS,exp,26,←,left,←,0.6418388998135924,True,12,-1,0,7
Y2-S2-213K23,8,723,PS,exp,44,→,left,←,0.727263499982655,False,12,-1,0,7
Y2-S2-213K23,8,724,PS,exp,42,←,left,←,0.46972010005265474,True,13,-1,0,7
Y2-S2-213K23,8,725,PS,exp,46,↓,down,↓,0.5476484000682831,True,13,-1,0,7
Y2-S2-213K23,8,726,PS,exp,26,↑,down,↓,0.7918225000612438,False,13,-1,0,7
Y2-S2-213K23,8,727,PS,exp,27,→,left,←,0.5827989997342229,False,14,-1,0,7
Y2-S2-213K23,8,728,PS,exp,26,←,left,←,0.7602278999984264,True,15,-1,0,7
Y2-S2-213K23,8,729,PS,exp,42,↓,left,←,0.583547499962151,False,15,-1,0,7
Y2-S2-213K23,8,730,PS,exp,33,←,left,←,0.6427690000273287,True,16,-1,0,7
Y2-S2-213K23,8,731,PS,exp,46,→,right,→,0.45033759996294975,True,16,-1,0,7
Y2-S2-213K23,8,732,PS,exp,44,←,left,←,0.5718366000801325,True,16,1,1,8
Y2-S2-213K23,8,733,PS,exp,27,↓,left,←,0.438676499761641,False,15,-1,1,9
Y2-S2-213K23,8,734,PS,exp,50,↑,left,←,0.6179275000467896,False,16,-1,0,9
Y2-S2-213K23,8,735,PS,exp,48,↓,down,↓,0.5611755000427365,True,17,-1,0,9
Y2-S2-213K23,8,736,PS,exp,49,←,left,←,0.5696143000386655,True,17,-1,0,9
Y2-S2-213K23,8,737,PS,exp,39,↑,left,←,0.6746518998406827,False,17,-1,0,9
Y2-S2-213K23,8,738,PS,exp,42,→,left,←,0.6701547000557184,False,18,-1,0,9
Y2-S2-213K23,8,739,PS,exp,48,←,left,←,0.4339878996834159,True,19,-1,0,9
Y2-S2-213K23,8,740,PS,exp,39,↓,down,↓,0.5180445001460612,True,19,-1,0,9
Y2-S2-213K23,8,741,PS,exp,39,←,left,←,0.5576774002984166,True,19,1,1,10
Y2-S2-213K23,8,742,PS,exp,28,→,left,←,0.8733031996525824,False,18,-1,1,11
Y2-S2-213K23,8,743,PS,exp,42,↓,down,↓,0.5154392002150416,True,19,-1,0,11
Y2-S2-213K23,8,744,PS,exp,28,→,left,←,0.5692928996868432,False,19,-1,0,11
Y2-S2-213K23,8,745,PS,exp,37,↑,up,↑,1.0922933998517692,True,20,-1,0,11
Y2-S2-213K23,8,746,PS,exp,38,←,left,←,0.5164959998801351,True,20,-1,0,11
Y2-S2-213K23,8,747,PS,exp,39,↑,up,↑,0.7028880999423563,True,20,1,1,12
Y2-S2-213K23,8,748,PS,exp,46,←,left,←,0.5121186999604106,True,19,1,0,12
Y2-S2-213K23,8,749,PS,exp,48,↓,down,↓,0.6576008000411093,True,19,1,0,12
Y2-S2-213K23,8,750,PS,exp,31,←,left,←,0.5562978000380099,True,19,1,0,12
Y2-S2-213K23,8,751,PS,exp,31,→,right,→,0.5814486998133361,True,18,1,0,12
Y2-S2-213K23,8,752,PS,exp,40,←,left,←,0.5487125003710389,True,18,1,0,12
Y2-S2-213K23,8,753,PS,exp,39,↑,up,↑,0.6153875002637506,True,18,1,0,12
Y2-S2-213K23,8,754,PS,exp,30,→,right,→,0.9391439002938569,True,17,1,0,12
Y2-S2-213K23,8,755,PS,exp,36,↑,up,↑,0.5685339001938701,True,17,1,0,12
Y2-S2-213K23,8,756,PS,exp,46,→,right,→,0.8781808000057936,True,17,1,0,12
Y2-S2-213K23,8,757,PS,exp,25,↑,up,↑,0.4863272998481989,True,16,1,0,12
Y2-S2-213K23,8,758,PS,exp,43,→,right,→,0.8866106001660228,True,16,1,0,12
Y2-S2-213K23,8,759,PS,exp,38,↑,right,→,0.8431878001429141,False,16,-1,1,13
Y2-S2-213K23,8,760,PS,exp,39,→,right,→,0.5225068000145257,True,17,-1,0,13
Y2-S2-213K23,8,761,PS,exp,46,←,left,←,0.7524692001752555,True,17,-1,0,13
Y2-S2-213K23,8,762,PS,exp,36,→,right,→,0.5084909000433981,True,17,1,1,14
Y2-S2-213K23,8,763,PS,exp,29,↓,down,↓,0.5927516999654472,True,16,1,0,14
Y2-S2-213K23,8,764,PS,exp,41,→,right,→,0.4429870997555554,True,16,1,0,14
Y2-S2-213K23,8,765,PS,exp,34,↓,down,↓,0.6505725001916289,True,16,1,0,14
Y2-S2-213K23,8,766,PS,exp,35,→,right,→,0.4750767997466028,True,15,1,0,14
Y2-S2-213K23,8,767,PS,exp,49,↑,up,↑,0.4570431997999549,True,15,1,0,14
Y2-S2-213K23,8,768,PS,exp,30,←,left,←,0.6603843998163939,True,15,1,0,14
Y2-S2-213K23,8,769,PS,exp,33,→,right,→,0.5406778999604285,True,14,1,0,14
Y2-S2-213K23,8,770,PS,exp,50,↑,up,↑,0.43351300014182925,True,14,1,0,14
Y2-S2-213K23,8,771,PS,exp,33,→,right,→,0.49602359998971224,True,14,1,0,14
Y2-S2-213K23,8,772,PS,exp,31,↓,down,↓,0.6078038001433015,True,13,1,0,14
Y2-S2-213K23,8,773,PS,exp,35,→,right,→,0.4279126999899745,True,13,1,0,14
Y2-S2-213K23,8,774,PS,exp,39,←,left,←,0.4836074998602271,True,13,1,0,14
Y2-S2-213K23,8,775,PS,exp,40,↓,up,↑,0.7453689998947084,False,12,-1,1,15
Y2-S2-213K23,8,776,PS,exp,41,↑,up,↑,0.5345922000706196,True,13,-1,0,15
Y2-S2-213K23,8,777,PS,exp,37,←,left,←,0.5707002999261022,True,13,-1,0,15
Y2-S2-213K23,8,778,PS,exp,36,↑,up,↑,0.7321623996831477,True,13,1,1,16
