PART_ID,Block_no,Trial_no,Block_type,Trial_type,CSI,Stim_letter,Key_pressed,letter_choose,Rt,Corr,Stimulus Time,Level,Reversal,Revs_count
Y2-S2-068K20,1,1,PS,train,27,→,right,→,0.7785872002132237,True,30,-,-,-
Y2-S2-068K20,1,2,PS,train,41,↑,up,↑,1.7412915001623333,True,30,-,-,-
Y2-S2-068K20,1,3,PS,train,43,←,left,←,0.6006583999842405,True,30,-,-,-
Y2-S2-068K20,1,4,PS,train,35,↓,down,↓,1.0430557001382113,True,30,-,-,-
Y2-S2-068K20,1,5,PS,train,49,←,left,←,1.425683899782598,True,30,-,-,-
Y2-S2-068K20,1,6,PS,train,32,↑,up,↑,0.93921779980883,True,30,-,-,-
Y2-S2-068K20,1,7,PS,train,40,↓,down,↓,1.0749793001450598,True,30,-,-,-
Y2-S2-068K20,1,8,PS,train,37,↑,up,↑,0.9005188001319766,True,30,-,-,-
Y2-S2-068K20,1,9,PS,train,28,←,left,←,0.5340173998847604,True,30,-,-,-
Y2-S2-068K20,1,10,PS,train,39,↑,down,↓,0.7493553003296256,False,30,-,-,-
Y2-S2-068K20,2,11,AS,train,35,→,right,→,0.7173611000180244,True,45,-,-,-
Y2-S2-068K20,2,12,AS,train,50,←,left,←,0.6679158001206815,True,45,-,-,-
Y2-S2-068K20,2,13,AS,train,25,↑,up,↑,0.7502665999345481,True,45,-,-,-
Y2-S2-068K20,2,14,AS,train,34,←,left,←,0.4511040998622775,True,45,-,-,-
Y2-S2-068K20,2,15,AS,train,33,→,right,→,0.6508070002309978,True,45,-,-,-
Y2-S2-068K20,2,16,AS,train,42,↓,right,→,0.6508947997353971,False,45,-,-,-
Y2-S2-068K20,2,17,AS,train,33,↑,up,↑,0.6177628999575973,True,45,-,-,-
Y2-S2-068K20,2,18,AS,train,27,↓,down,↓,0.6012749997898936,True,45,-,-,-
Y2-S2-068K20,2,19,AS,train,29,→,right,→,0.5010887999087572,True,45,-,-,-
Y2-S2-068K20,2,20,AS,train,35,←,left,←,0.7671605003997684,True,45,-,-,-
Y2-S2-068K20,-,21,PS,adaptive,44,↓,down,↓,0.7790850000455976,True,10,0,0,0
Y2-S2-068K20,-,22,PS,adaptive,40,→,right,→,0.9071208001114428,True,10,0,0,0
Y2-S2-068K20,-,23,PS,adaptive,49,↑,up,↑,1.1307058003731072,True,10,1,0,0
Y2-S2-068K20,-,24,PS,adaptive,31,↓,down,↓,0.6265079001896083,True,9,1,0,0
Y2-S2-068K20,-,25,PS,adaptive,29,→,right,→,0.4443803997710347,True,9,1,0,0
Y2-S2-068K20,-,26,PS,adaptive,49,↑,down,↓,0.8386619002558291,False,9,-1,1,1
Y2-S2-068K20,-,27,PS,adaptive,32,↓,down,↓,0.5417865002527833,True,10,-1,0,1
Y2-S2-068K20,-,28,PS,adaptive,40,→,right,→,0.8126048999838531,True,10,-1,0,1
Y2-S2-068K20,-,29,PS,adaptive,30,↑,up,↑,0.6813658997416496,True,10,1,1,2
Y2-S2-068K20,-,30,PS,adaptive,31,→,right,→,0.635459799785167,True,9,1,0,2
Y2-S2-068K20,-,31,PS,adaptive,44,↓,down,↓,0.574594400357455,True,9,1,0,2
Y2-S2-068K20,-,32,PS,adaptive,50,↑,right,→,0.6861405996605754,False,9,-1,1,3
Y2-S2-068K20,-,33,PS,adaptive,36,←,right,→,0.5878554997034371,False,10,-1,0,3
Y2-S2-068K20,-,34,PS,adaptive,30,↓,left,←,1.1053166002966464,False,11,-1,0,3
Y2-S2-068K20,-,35,PS,adaptive,43,←,left,←,0.5901015000417829,True,12,-1,0,3
Y2-S2-068K20,-,36,PS,adaptive,34,→,right,→,0.502761600073427,True,12,-1,0,3
Y2-S2-068K20,-,37,PS,adaptive,36,↑,up,↑,1.0254724998958409,True,12,1,1,4
Y2-S2-068K20,-,38,AS,adaptive,40,←,left,←,0.5101036000996828,True,20,0,0,0
Y2-S2-068K20,-,39,AS,adaptive,47,↑,right,→,0.90095129981637,False,20,-1,0,0
Y2-S2-068K20,-,40,AS,adaptive,45,↓,down,↓,0.6435559000819921,True,21,-1,0,0
Y2-S2-068K20,-,41,AS,adaptive,43,→,right,→,0.6732757999561727,True,21,-1,0,0
Y2-S2-068K20,-,42,AS,adaptive,30,↑,up,↑,0.6414365000091493,True,21,1,1,1
Y2-S2-068K20,-,43,AS,adaptive,42,→,no_key,no_letter,-1.0,False,20,-1,1,2
Y2-S2-068K20,-,44,AS,adaptive,36,↑,up,↑,0.7270332998596132,True,21,-1,0,2
Y2-S2-068K20,-,45,AS,adaptive,28,←,left,←,0.8284162003546953,True,21,-1,0,2
Y2-S2-068K20,-,46,AS,adaptive,45,↑,up,↑,0.7516775000840425,True,21,1,1,3
Y2-S2-068K20,-,47,AS,adaptive,26,→,right,→,0.4671487999148667,True,20,1,0,3
Y2-S2-068K20,-,48,AS,adaptive,25,↓,down,↓,0.6373429000377655,True,20,1,0,3
Y2-S2-068K20,-,49,AS,adaptive,42,→,right,→,0.8628748003393412,True,20,1,0,3
Y2-S2-068K20,-,50,AS,adaptive,27,←,right,→,0.925375200342387,False,19,-1,1,4
Y2-S2-068K20,1,51,AS,intra_train,37,↑,up,↑,1.09827100019902,True,30,-,-,-
Y2-S2-068K20,1,52,AS,intra_train,41,←,left,←,0.550513599999249,True,30,-,-,-
Y2-S2-068K20,1,53,AS,intra_train,43,↓,down,↓,0.5845476002432406,True,30,-,-,-
Y2-S2-068K20,1,54,AS,intra_train,44,→,right,→,1.3766143997199833,True,30,-,-,-
Y2-S2-068K20,1,55,AS,intra_train,50,↑,up,↑,0.8085900996811688,True,30,-,-,-
Y2-S2-068K20,1,56,AS,exp,29,←,left,←,1.0523840002715588,True,20,0,0,0
Y2-S2-068K20,1,57,AS,exp,32,↑,up,↑,0.7927791997790337,True,20,0,0,0
Y2-S2-068K20,1,58,AS,exp,25,→,right,→,0.5546813998371363,True,20,1,0,0
Y2-S2-068K20,1,59,AS,exp,50,←,right,→,0.6354844002053142,False,19,-1,1,1
Y2-S2-068K20,1,60,AS,exp,39,↑,up,↑,0.9387469002977014,True,20,-1,0,1
Y2-S2-068K20,1,61,AS,exp,41,↓,down,↓,0.7331530000083148,True,20,-1,0,1
Y2-S2-068K20,1,62,AS,exp,49,→,right,→,0.5881479000672698,True,20,1,1,2
Y2-S2-068K20,1,63,AS,exp,35,↑,up,↑,0.7955231000669301,True,19,1,0,2
Y2-S2-068K20,1,64,AS,exp,35,→,right,→,0.5260802996344864,True,19,1,0,2
Y2-S2-068K20,1,65,AS,exp,40,←,right,→,0.5629271999932826,False,19,-1,1,3
Y2-S2-068K20,1,66,AS,exp,27,↓,down,↓,0.8301948998123407,True,20,-1,0,3
Y2-S2-068K20,1,67,AS,exp,46,→,right,→,0.686789299827069,True,20,-1,0,3
Y2-S2-068K20,1,68,AS,exp,42,↑,up,↑,0.7653879998251796,True,20,1,1,4
Y2-S2-068K20,1,69,AS,exp,44,→,right,→,1.2652968997135758,True,19,1,0,4
Y2-S2-068K20,1,70,AS,exp,45,←,left,←,0.664690800011158,True,19,1,0,4
Y2-S2-068K20,1,71,AS,exp,28,→,right,→,0.6570561998523772,True,19,1,0,4
Y2-S2-068K20,1,72,AS,exp,28,↓,right,→,0.9533987999893725,False,18,-1,1,5
Y2-S2-068K20,1,73,AS,exp,48,←,left,←,0.6293952995911241,True,19,-1,0,5
Y2-S2-068K20,1,74,AS,exp,39,↓,down,↓,0.9897737000137568,True,19,-1,0,5
Y2-S2-068K20,1,75,AS,exp,26,←,left,←,0.6740108001977205,True,19,1,1,6
Y2-S2-068K20,1,76,AS,exp,38,→,right,→,0.5389521000906825,True,18,1,0,6
Y2-S2-068K20,1,77,AS,exp,32,←,left,←,1.0664920001290739,True,18,1,0,6
Y2-S2-068K20,1,78,AS,exp,26,↓,down,↓,0.8446422996930778,True,18,1,0,6
Y2-S2-068K20,1,79,AS,exp,42,←,left,←,0.7235797001048923,True,17,1,0,6
Y2-S2-068K20,1,80,AS,exp,32,↓,down,↓,0.6126132998615503,True,17,1,0,6
Y2-S2-068K20,1,81,AS,exp,38,↑,down,↓,0.6991308000870049,False,17,-1,1,7
Y2-S2-068K20,1,82,AS,exp,44,↓,down,↓,0.4981755996122956,True,18,-1,0,7
Y2-S2-068K20,1,83,AS,exp,36,↑,down,↓,0.5879893000237644,False,18,-1,0,7
Y2-S2-068K20,1,84,AS,exp,33,←,left,←,1.3597538997419178,True,19,-1,0,7
Y2-S2-068K20,1,85,AS,exp,35,↑,up,↑,0.5986751997843385,True,19,-1,0,7
Y2-S2-068K20,1,86,AS,exp,38,→,down,↓,0.5917198997922242,False,19,-1,0,7
Y2-S2-068K20,1,87,AS,exp,33,↓,down,↓,0.6198887997306883,True,20,-1,0,7
Y2-S2-068K20,1,88,AS,exp,35,←,left,←,0.6631409996189177,True,20,-1,0,7
Y2-S2-068K20,1,89,AS,exp,42,→,no_key,no_letter,-1.0,False,20,-1,0,7
Y2-S2-068K20,1,90,AS,exp,35,←,left,←,0.7085958002135158,True,21,-1,0,7
Y2-S2-068K20,1,91,AS,exp,29,↓,down,↓,0.6612843000330031,True,21,-1,0,7
Y2-S2-068K20,1,92,AS,exp,25,→,right,→,0.6726472000591457,True,21,1,1,8
Y2-S2-068K20,1,93,AS,exp,26,↑,down,↓,0.5644815997220576,False,20,-1,1,9
Y2-S2-068K20,1,94,AS,exp,28,↓,no_key,no_letter,-1.0,False,21,-1,0,9
Y2-S2-068K20,1,95,AS,exp,30,→,right,→,0.6057460000738502,True,22,-1,0,9
Y2-S2-068K20,1,96,AS,exp,29,↑,up,↑,0.802311799954623,True,22,-1,0,9
Y2-S2-068K20,1,97,AS,exp,28,←,left,←,0.681810500100255,True,22,1,1,10
Y2-S2-068K20,1,98,AS,exp,37,→,right,→,0.5506753996014595,True,21,1,0,10
Y2-S2-068K20,1,99,AS,exp,40,↑,right,→,0.8418156001716852,False,21,-1,1,11
Y2-S2-068K20,1,100,AS,exp,43,→,right,→,0.6290429998189211,True,22,-1,0,11
Y2-S2-068K20,1,101,AS,exp,32,←,left,←,0.5598110002465546,True,22,-1,0,11
Y2-S2-068K20,1,102,AS,exp,50,→,right,→,0.4174119997769594,True,22,1,1,12
Y2-S2-068K20,1,103,AS,exp,41,↓,down,↓,0.9527130001224577,True,21,1,0,12
Y2-S2-068K20,1,104,AS,exp,50,←,left,←,1.4816057002171874,True,21,1,0,12
Y2-S2-068K20,1,105,AS,exp,39,↓,down,↓,0.4839311996474862,True,21,1,0,12
Y2-S2-068K20,1,106,AS,exp,47,↑,up,↑,0.7312458003871143,True,20,1,0,12
Y2-S2-068K20,1,107,AS,exp,36,↓,down,↓,0.5721255000680685,True,20,1,0,12
Y2-S2-068K20,1,108,AS,exp,38,↑,down,↓,0.5780160003341734,False,20,-1,1,13
Y2-S2-068K20,1,109,AS,exp,31,↓,down,↓,0.6295708999969065,True,21,-1,0,13
Y2-S2-068K20,1,110,AS,exp,44,→,right,→,0.7101950999349356,True,21,-1,0,13
Y2-S2-068K20,1,111,AS,exp,43,↑,down,↓,0.8907111999578774,False,21,-1,0,13
Y2-S2-068K20,1,112,AS,exp,39,→,right,→,0.8311486998572946,True,22,-1,0,13
Y2-S2-068K20,1,113,AS,exp,32,↓,down,↓,0.6101517998613417,True,22,-1,0,13
Y2-S2-068K20,1,114,AS,exp,43,←,left,←,0.6575604998506606,True,22,1,1,14
Y2-S2-068K20,1,115,AS,exp,43,↓,right,→,0.7871105996891856,False,21,-1,1,15
Y2-S2-068K20,1,116,AS,exp,31,↑,up,↑,0.628885000012815,True,22,-1,0,15
Y2-S2-068K20,1,117,AS,exp,27,←,left,←,0.7445133002474904,True,22,-1,0,15
Y2-S2-068K20,1,118,AS,exp,48,↑,up,↑,0.5893251001834869,True,22,1,1,16
Y2-S2-068K20,2,119,PS,intra_train,43,→,right,→,0.9230412999168038,True,16,-,-,-
Y2-S2-068K20,2,120,PS,intra_train,29,←,right,→,0.7743240999989212,False,16,-,-,-
Y2-S2-068K20,2,121,PS,intra_train,25,↑,up,↑,0.8019453003071249,True,16,-,-,-
Y2-S2-068K20,2,122,PS,intra_train,36,↓,up,↑,1.0443531000055373,False,16,-,-,-
Y2-S2-068K20,2,123,PS,intra_train,26,↑,up,↑,0.5251497998833656,True,16,-,-,-
Y2-S2-068K20,2,124,PS,exp,27,→,right,→,0.5782508999109268,True,11,0,0,0
Y2-S2-068K20,2,125,PS,exp,43,↑,right,→,0.7799729001708329,False,11,-1,0,0
Y2-S2-068K20,2,126,PS,exp,38,←,left,←,0.9630897999741137,True,12,-1,0,0
Y2-S2-068K20,2,127,PS,exp,26,↓,right,→,0.943229699973017,False,12,-1,0,0
Y2-S2-068K20,2,128,PS,exp,26,←,left,←,1.0064976001158357,True,13,-1,0,0
Y2-S2-068K20,2,129,PS,exp,26,→,right,→,1.0185032999143004,True,13,-1,0,0
Y2-S2-068K20,2,130,PS,exp,27,↓,down,↓,0.5019052997231483,True,13,1,1,1
Y2-S2-068K20,2,131,PS,exp,33,→,right,→,0.9340186002664268,True,12,1,0,1
Y2-S2-068K20,2,132,PS,exp,36,↑,up,↑,0.4827803997322917,True,12,1,0,1
Y2-S2-068K20,2,133,PS,exp,45,→,right,→,0.6307990001514554,True,12,1,0,1
Y2-S2-068K20,2,134,PS,exp,41,↓,down,↓,0.530625999905169,True,11,1,0,1
Y2-S2-068K20,2,135,PS,exp,39,↑,up,↑,0.5154868001118302,True,11,1,0,1
Y2-S2-068K20,2,136,PS,exp,30,↓,down,↓,0.6581729999743402,True,11,1,0,1
Y2-S2-068K20,2,137,PS,exp,39,→,right,→,0.5974832000210881,True,10,1,0,1
Y2-S2-068K20,2,138,PS,exp,29,↑,right,→,0.7580531002022326,False,10,-1,1,2
Y2-S2-068K20,2,139,PS,exp,28,↓,down,↓,1.157638399861753,True,11,-1,0,2
Y2-S2-068K20,2,140,PS,exp,50,↑,up,↑,0.6338666998781264,True,11,-1,0,2
Y2-S2-068K20,2,141,PS,exp,48,↓,right,→,0.722558899782598,False,11,-1,0,2
Y2-S2-068K20,2,142,PS,exp,46,←,left,←,1.3832478001713753,True,12,-1,0,2
Y2-S2-068K20,2,143,PS,exp,46,↑,right,→,0.6898030997253954,False,12,-1,0,2
Y2-S2-068K20,2,144,PS,exp,45,←,left,←,0.40657579991966486,True,13,-1,0,2
Y2-S2-068K20,2,145,PS,exp,44,→,right,→,0.4249220001511276,True,13,-1,0,2
Y2-S2-068K20,2,146,PS,exp,30,←,left,←,0.8429173002950847,True,13,1,1,3
Y2-S2-068K20,2,147,PS,exp,38,→,right,→,0.7622119002044201,True,12,1,0,3
Y2-S2-068K20,2,148,PS,exp,40,←,left,←,0.5023022000677884,True,12,1,0,3
Y2-S2-068K20,2,149,PS,exp,33,→,right,→,0.5341742001473904,True,12,1,0,3
Y2-S2-068K20,2,150,PS,exp,47,←,left,←,0.5453102001920342,True,11,1,0,3
Y2-S2-068K20,2,151,PS,exp,42,↓,down,↓,0.810122000053525,True,11,1,0,3
Y2-S2-068K20,2,152,PS,exp,44,→,right,→,0.8817727998830378,True,11,1,0,3
Y2-S2-068K20,2,153,PS,exp,39,↓,down,↓,0.5961500001139939,True,10,1,0,3
Y2-S2-068K20,2,154,PS,exp,30,↑,up,↑,0.5784443002194166,True,10,1,0,3
Y2-S2-068K20,2,155,PS,exp,43,→,right,→,0.4494358003139496,True,10,1,0,3
Y2-S2-068K20,2,156,PS,exp,36,↓,down,↓,0.742213100194931,True,9,1,0,3
Y2-S2-068K20,2,157,PS,exp,47,↑,up,↑,0.48166869999840856,True,9,1,0,3
Y2-S2-068K20,2,158,PS,exp,42,→,right,→,0.5101378001272678,True,9,1,0,3
Y2-S2-068K20,2,159,PS,exp,37,←,left,←,0.4663897999562323,True,8,1,0,3
Y2-S2-068K20,2,160,PS,exp,28,↓,down,↓,0.5276608997955918,True,8,1,0,3
Y2-S2-068K20,2,161,PS,exp,43,↑,up,↑,0.5475984998047352,True,8,1,0,3
Y2-S2-068K20,2,162,PS,exp,32,→,right,→,0.5301124998368323,True,7,1,0,3
Y2-S2-068K20,2,163,PS,exp,33,↑,down,↓,0.6550972000695765,False,7,-1,1,4
Y2-S2-068K20,2,164,PS,exp,31,←,left,←,0.6195362000726163,True,8,-1,0,4
Y2-S2-068K20,2,165,PS,exp,48,↑,right,→,0.6656673001125455,False,8,-1,0,4
Y2-S2-068K20,2,166,PS,exp,39,→,right,→,0.5891529000364244,True,9,-1,0,4
Y2-S2-068K20,2,167,PS,exp,44,↑,up,↑,0.4422420999035239,True,9,-1,0,4
Y2-S2-068K20,2,168,PS,exp,43,→,right,→,0.5500690001063049,True,9,1,1,5
Y2-S2-068K20,2,169,PS,exp,44,↓,down,↓,0.6048653000034392,True,8,1,0,5
Y2-S2-068K20,2,170,PS,exp,25,↑,down,↓,0.45196609990671277,False,8,-1,1,6
Y2-S2-068K20,2,171,PS,exp,49,→,right,→,0.5283610001206398,True,9,-1,0,6
Y2-S2-068K20,2,172,PS,exp,34,↑,right,→,0.6551605998538435,False,9,-1,0,6
Y2-S2-068K20,2,173,PS,exp,47,→,right,→,0.5642597996629775,True,10,-1,0,6
Y2-S2-068K20,2,174,PS,exp,48,↓,down,↓,0.6289663002826273,True,10,-1,0,6
Y2-S2-068K20,2,175,PS,exp,33,→,right,→,0.5634761000983417,True,10,1,1,7
Y2-S2-068K20,2,176,PS,exp,36,↓,right,→,0.580883199814707,False,9,-1,1,8
Y2-S2-068K20,2,177,PS,exp,48,→,right,→,0.4622993995435536,True,10,-1,0,8
Y2-S2-068K20,2,178,PS,exp,38,↓,right,→,0.9433910003863275,False,10,-1,0,8
Y2-S2-068K20,2,179,PS,exp,26,↑,up,↑,0.7229565000161529,True,11,-1,0,8
Y2-S2-068K20,2,180,PS,exp,35,→,down,↓,0.5856359996832907,False,11,-1,0,8
Y2-S2-068K20,2,181,PS,exp,46,↓,down,↓,0.5924653001129627,True,12,-1,0,8
Y2-S2-068K20,2,182,PS,exp,46,↑,up,↑,0.824027800001204,True,12,-1,0,8
Y2-S2-068K20,2,183,PS,exp,26,←,left,←,0.7962599000893533,True,12,1,1,9
Y2-S2-068K20,2,184,PS,exp,28,↑,down,↓,0.6047537000849843,False,11,-1,1,10
Y2-S2-068K20,2,185,PS,exp,26,←,left,←,0.5716273998841643,True,12,-1,0,10
Y2-S2-068K20,2,186,PS,exp,43,↓,right,→,0.7351220003329217,False,12,-1,0,10
Y2-S2-068K20,2,187,PS,exp,32,→,right,→,0.6168688996694982,True,13,-1,0,10
Y2-S2-068K20,2,188,PS,exp,25,↑,up,↑,0.7634986997582018,True,13,-1,0,10
Y2-S2-068K20,2,189,PS,exp,34,↓,down,↓,0.5732698999345303,True,13,1,1,11
Y2-S2-068K20,2,190,PS,exp,25,↑,up,↑,0.76009720005095,True,12,1,0,11
Y2-S2-068K20,2,191,PS,exp,38,↓,right,→,0.4759622998535633,False,12,-1,1,12
Y2-S2-068K20,2,192,PS,exp,32,↑,down,↓,0.5546436002478004,False,13,-1,0,12
Y2-S2-068K20,2,193,PS,exp,25,↓,down,↓,0.5120601002126932,True,14,-1,0,12
Y2-S2-068K20,2,194,PS,exp,37,←,left,←,0.6095809997059405,True,14,-1,0,12
Y2-S2-068K20,2,195,PS,exp,41,→,right,→,0.6708963997662067,True,14,1,1,13
Y2-S2-068K20,2,196,PS,exp,29,↑,right,→,1.0740608000196517,False,13,-1,1,14
Y2-S2-068K20,2,197,PS,exp,45,←,right,→,0.5633800998330116,False,14,-1,0,14
Y2-S2-068K20,2,198,PS,exp,45,↓,right,→,0.6425859997980297,False,15,-1,0,14
Y2-S2-068K20,2,199,PS,exp,25,→,right,→,0.5000649001449347,True,16,-1,0,14
Y2-S2-068K20,2,200,PS,exp,33,↑,left,←,0.6017805999144912,False,16,-1,0,14
Y2-S2-068K20,2,201,PS,exp,41,↓,down,↓,0.7675270000472665,True,17,-1,0,14
Y2-S2-068K20,2,202,PS,exp,34,↑,down,↓,0.6144246002659202,False,17,-1,0,14
Y2-S2-068K20,2,203,PS,exp,43,↓,down,↓,0.21825290005654097,True,18,-1,0,14
Y2-S2-068K20,2,204,PS,exp,28,→,no_key,no_letter,-1.0,False,18,-1,0,14
Y2-S2-068K20,2,205,PS,exp,49,↓,down,↓,0.9442389998584986,True,19,-1,0,14
Y2-S2-068K20,2,206,PS,exp,45,←,left,←,0.6055614002980292,True,19,-1,0,14
Y2-S2-068K20,2,207,PS,exp,30,↓,left,←,1.1605831999331713,False,19,-1,0,14
Y2-S2-068K20,2,208,PS,exp,36,→,right,→,0.6326330997981131,True,20,-1,0,14
Y2-S2-068K20,2,209,PS,exp,28,←,left,←,1.1274155997671187,True,20,-1,0,14
Y2-S2-068K20,2,210,PS,exp,25,↑,up,↑,0.7169257001951337,True,20,1,1,15
Y2-S2-068K20,2,211,PS,exp,50,←,left,←,0.9373337002471089,True,19,1,0,15
Y2-S2-068K20,2,212,PS,exp,33,↑,up,↑,1.283945799805224,True,19,1,0,15
Y2-S2-068K20,2,213,PS,exp,44,↓,down,↓,0.6038631000556052,True,19,1,0,15
Y2-S2-068K20,2,214,PS,exp,41,→,right,→,0.6114606000483036,True,18,1,0,15
Y2-S2-068K20,2,215,PS,exp,42,↓,down,↓,1.0335340001620352,True,18,1,0,15
Y2-S2-068K20,2,216,PS,exp,28,↑,up,↑,0.7119498997926712,True,18,1,0,15
Y2-S2-068K20,2,217,PS,exp,41,↓,down,↓,0.7195930001325905,True,17,1,0,15
Y2-S2-068K20,2,218,PS,exp,48,↑,up,↑,0.7039495999924839,True,17,1,0,15
Y2-S2-068K20,2,219,PS,exp,25,→,down,↓,1.132691000122577,False,17,-1,1,16
Y2-S2-068K20,3,220,PS,intra_train,31,←,left,←,0.44975110003724694,True,16,-,-,-
Y2-S2-068K20,3,221,PS,intra_train,35,↓,down,↓,1.2318862997926772,True,16,-,-,-
Y2-S2-068K20,3,222,PS,intra_train,45,↑,down,↓,0.8349892999976873,False,16,-,-,-
Y2-S2-068K20,3,223,PS,intra_train,27,←,left,←,1.4882621001452208,True,16,-,-,-
Y2-S2-068K20,3,224,PS,intra_train,31,→,right,→,0.48867170000448823,True,16,-,-,-
Y2-S2-068K20,3,225,PS,exp,38,↓,down,↓,0.5833546998910606,True,11,0,0,0
Y2-S2-068K20,3,226,PS,exp,32,→,right,→,0.7171097998507321,True,11,0,0,0
Y2-S2-068K20,3,227,PS,exp,29,↓,right,→,0.7356095002032816,False,11,-1,0,0
Y2-S2-068K20,3,228,PS,exp,33,←,left,←,0.4608424003235996,True,12,-1,0,0
Y2-S2-068K20,3,229,PS,exp,40,→,right,→,0.5619294000789523,True,12,-1,0,0
Y2-S2-068K20,3,230,PS,exp,47,↑,up,↑,0.8035619999282062,True,12,1,1,1
Y2-S2-068K20,3,231,PS,exp,42,↓,down,↓,0.5720521998591721,True,11,1,0,1
Y2-S2-068K20,3,232,PS,exp,50,→,right,→,0.4463534001260996,True,11,1,0,1
Y2-S2-068K20,3,233,PS,exp,45,↓,down,↓,0.6485251998528838,True,11,1,0,1
Y2-S2-068K20,3,234,PS,exp,28,→,right,→,0.5781263001263142,True,10,1,0,1
Y2-S2-068K20,3,235,PS,exp,30,↑,left,←,0.6517922999337316,False,10,-1,1,2
Y2-S2-068K20,3,236,PS,exp,41,↓,down,↓,0.6797887999564409,True,11,-1,0,2
Y2-S2-068K20,3,237,PS,exp,50,↑,up,↑,1.1047049998305738,True,11,-1,0,2
Y2-S2-068K20,3,238,PS,exp,32,←,right,→,0.7666913997381926,False,11,-1,0,2
Y2-S2-068K20,3,239,PS,exp,47,↓,down,↓,0.8143751998431981,True,12,-1,0,2
Y2-S2-068K20,3,240,PS,exp,26,→,right,→,0.9036505003459752,True,12,-1,0,2
Y2-S2-068K20,3,241,PS,exp,31,←,left,←,0.839945400133729,True,12,1,1,3
Y2-S2-068K20,3,242,PS,exp,31,→,right,→,0.7744312998838723,True,11,1,0,3
Y2-S2-068K20,3,243,PS,exp,42,↓,down,↓,0.9284335002303123,True,11,1,0,3
Y2-S2-068K20,3,244,PS,exp,40,↑,right,→,0.9723701002076268,False,11,-1,1,4
Y2-S2-068K20,3,245,PS,exp,48,→,right,→,0.6652279999107122,True,12,-1,0,4
Y2-S2-068K20,3,246,PS,exp,42,↑,down,↓,0.7450116998516023,False,12,-1,0,4
Y2-S2-068K20,3,247,PS,exp,38,←,left,←,0.6680677998811007,True,13,-1,0,4
Y2-S2-068K20,3,248,PS,exp,25,↑,up,↑,0.7094996999949217,True,13,-1,0,4
Y2-S2-068K20,3,249,PS,exp,43,←,up,↑,1.5362785998731852,False,13,-1,0,4
Y2-S2-068K20,3,250,PS,exp,30,↑,down,↓,0.8873844002373517,False,14,-1,0,4
Y2-S2-068K20,3,251,PS,exp,44,↓,down,↓,1.1555230002850294,True,15,-1,0,4
Y2-S2-068K20,3,252,PS,exp,25,→,left,←,0.6494849999435246,False,15,-1,0,4
Y2-S2-068K20,3,253,PS,exp,47,↑,up,↑,0.7226611999794841,True,16,-1,0,4
Y2-S2-068K20,3,254,PS,exp,25,↓,down,↓,0.8990369997918606,True,16,-1,0,4
Y2-S2-068K20,3,255,PS,exp,49,←,left,←,0.746356800198555,True,16,1,1,5
Y2-S2-068K20,3,256,PS,exp,35,→,right,→,0.5397946001030505,True,15,1,0,5
Y2-S2-068K20,3,257,PS,exp,38,↓,down,↓,0.8884882000274956,True,15,1,0,5
Y2-S2-068K20,3,258,PS,exp,37,↑,right,→,0.6041875001974404,False,15,-1,1,6
Y2-S2-068K20,3,259,PS,exp,46,←,left,←,1.0637579001486301,True,16,-1,0,6
Y2-S2-068K20,3,260,PS,exp,25,→,right,→,0.470563399605453,True,16,-1,0,6
Y2-S2-068K20,3,261,PS,exp,39,↑,up,↑,0.672420300077647,True,16,1,1,7
Y2-S2-068K20,3,262,PS,exp,28,→,right,→,0.773477700073272,True,15,1,0,7
Y2-S2-068K20,3,263,PS,exp,26,←,down,↓,0.7711730999872088,False,15,-1,1,8
Y2-S2-068K20,3,264,PS,exp,28,→,down,↓,1.3156173001043499,False,16,-1,0,8
Y2-S2-068K20,3,265,PS,exp,25,↓,down,↓,0.7702178996987641,True,17,-1,0,8
Y2-S2-068K20,3,266,PS,exp,39,→,right,→,0.666952199768275,True,17,-1,0,8
Y2-S2-068K20,3,267,PS,exp,26,↑,up,↑,0.7262991000898182,True,17,1,1,9
Y2-S2-068K20,3,268,PS,exp,42,↓,up,↑,0.7604730003513396,False,16,-1,1,10
Y2-S2-068K20,3,269,PS,exp,29,←,left,←,0.916713900398463,True,17,-1,0,10
Y2-S2-068K20,3,270,PS,exp,38,↑,up,↑,1.1150797000154853,True,17,-1,0,10
Y2-S2-068K20,3,271,PS,exp,37,→,down,↓,1.3099495996721089,False,17,-1,0,10
Y2-S2-068K20,3,272,PS,exp,32,↓,down,↓,0.8492568000219762,True,18,-1,0,10
Y2-S2-068K20,3,273,PS,exp,27,↑,up,↑,0.6664438997395337,True,18,-1,0,10
Y2-S2-068K20,3,274,PS,exp,47,←,right,→,0.8723114002496004,False,18,-1,0,10
Y2-S2-068K20,3,275,PS,exp,41,↑,no_key,no_letter,-1.0,False,19,-1,0,10
Y2-S2-068K20,3,276,PS,exp,31,→,right,→,0.964620899874717,True,20,-1,0,10
Y2-S2-068K20,3,277,PS,exp,48,↑,up,↑,0.7487135999836028,True,20,-1,0,10
Y2-S2-068K20,3,278,PS,exp,33,←,left,←,0.6586990002542734,True,20,1,1,11
Y2-S2-068K20,3,279,PS,exp,29,↓,down,↓,0.742151899728924,True,19,1,0,11
Y2-S2-068K20,3,280,PS,exp,37,↑,down,↓,0.676465000025928,False,19,-1,1,12
Y2-S2-068K20,3,281,PS,exp,45,↓,no_key,no_letter,-1.0,False,20,-1,0,12
Y2-S2-068K20,3,282,PS,exp,44,←,left,←,0.913130700122565,True,21,-1,0,12
Y2-S2-068K20,3,283,PS,exp,33,↑,up,↑,0.8211079002358019,True,21,-1,0,12
Y2-S2-068K20,3,284,PS,exp,36,↓,down,↓,0.5479106996208429,True,21,1,1,13
Y2-S2-068K20,3,285,PS,exp,37,←,left,←,0.7679208000190556,True,20,1,0,13
Y2-S2-068K20,3,286,PS,exp,36,↓,down,↓,0.5620989999733865,True,20,1,0,13
Y2-S2-068K20,3,287,PS,exp,48,←,left,←,0.6612964002415538,True,20,1,0,13
Y2-S2-068K20,3,288,PS,exp,32,→,right,→,0.5099233998917043,True,19,1,0,13
Y2-S2-068K20,3,289,PS,exp,49,↓,no_key,no_letter,-1.0,False,19,-1,1,14
Y2-S2-068K20,3,290,PS,exp,33,←,no_key,no_letter,-1.0,False,20,-1,0,14
Y2-S2-068K20,3,291,PS,exp,34,↑,up,↑,0.6096215001307428,True,21,-1,0,14
Y2-S2-068K20,3,292,PS,exp,28,↓,down,↓,0.7061266996897757,True,21,-1,0,14
Y2-S2-068K20,3,293,PS,exp,29,→,right,→,0.4676073002628982,True,21,1,1,15
Y2-S2-068K20,3,294,PS,exp,26,↑,up,↑,0.5821223999373615,True,20,1,0,15
Y2-S2-068K20,3,295,PS,exp,32,→,right,→,0.46738529996946454,True,20,1,0,15
Y2-S2-068K20,3,296,PS,exp,30,↑,right,→,1.055646600201726,False,20,-1,1,16
Y2-S2-068K20,4,297,AS,intra_train,40,→,right,→,0.5669455002062023,True,30,-,-,-
Y2-S2-068K20,4,298,AS,intra_train,28,↑,up,↑,0.7944399998523295,True,30,-,-,-
Y2-S2-068K20,4,299,AS,intra_train,26,↓,down,↓,0.7077628001570702,True,30,-,-,-
Y2-S2-068K20,4,300,AS,intra_train,45,←,left,←,0.9834443000145257,True,30,-,-,-
Y2-S2-068K20,4,301,AS,intra_train,35,↓,down,↓,0.6338190999813378,True,30,-,-,-
Y2-S2-068K20,4,302,AS,exp,25,→,right,→,0.6958567998372018,True,20,0,0,0
Y2-S2-068K20,4,303,AS,exp,35,↓,down,↓,0.5673830998130143,True,20,0,0,0
Y2-S2-068K20,4,304,AS,exp,45,←,left,←,0.5305339996702969,True,20,1,0,0
Y2-S2-068K20,4,305,AS,exp,30,→,right,→,0.6018340000882745,True,19,1,0,0
Y2-S2-068K20,4,306,AS,exp,38,↓,down,↓,0.8413503998890519,True,19,1,0,0
Y2-S2-068K20,4,307,AS,exp,45,←,right,→,1.0203799000009894,False,19,-1,1,1
Y2-S2-068K20,4,308,AS,exp,50,↑,down,↓,1.7645304002799094,False,20,-1,0,1
Y2-S2-068K20,4,309,AS,exp,31,→,right,→,0.6270679999142885,True,21,-1,0,1
Y2-S2-068K20,4,310,AS,exp,35,↓,up,↑,0.9642817000858486,False,21,-1,0,1
Y2-S2-068K20,4,311,AS,exp,49,→,right,→,0.4838882996700704,True,22,-1,0,1
Y2-S2-068K20,4,312,AS,exp,41,↓,down,↓,0.8999742004089057,True,22,-1,0,1
Y2-S2-068K20,4,313,AS,exp,45,↑,up,↑,1.1488230996765196,True,22,1,1,2
Y2-S2-068K20,4,314,AS,exp,40,↓,down,↓,0.4669164000079036,True,21,1,0,2
Y2-S2-068K20,4,315,AS,exp,25,←,left,←,0.799330800306052,True,21,1,0,2
Y2-S2-068K20,4,316,AS,exp,44,→,right,→,0.5552886002697051,True,21,1,0,2
Y2-S2-068K20,4,317,AS,exp,33,↑,down,↓,0.8707393002696335,False,20,-1,1,3
Y2-S2-068K20,4,318,AS,exp,50,→,right,→,0.6466824002563953,True,21,-1,0,3
Y2-S2-068K20,4,319,AS,exp,36,↓,right,→,0.6191640999168158,False,21,-1,0,3
Y2-S2-068K20,4,320,AS,exp,30,←,left,←,1.2021185997873545,True,22,-1,0,3
Y2-S2-068K20,4,321,AS,exp,34,→,right,→,0.6634152997285128,True,22,-1,0,3
Y2-S2-068K20,4,322,AS,exp,30,↑,up,↑,1.1093637999147177,True,22,1,1,4
Y2-S2-068K20,4,323,AS,exp,45,→,right,→,0.7500986000522971,True,21,1,0,4
Y2-S2-068K20,4,324,AS,exp,25,↑,up,↑,0.6467249002307653,True,21,1,0,4
Y2-S2-068K20,4,325,AS,exp,42,↓,down,↓,0.6876656003296375,True,21,1,0,4
Y2-S2-068K20,4,326,AS,exp,33,→,right,→,0.7828730000182986,True,20,1,0,4
Y2-S2-068K20,4,327,AS,exp,26,↓,down,↓,1.0833483999595046,True,20,1,0,4
Y2-S2-068K20,4,328,AS,exp,35,←,right,→,0.6718248999677598,False,20,-1,1,5
Y2-S2-068K20,4,329,AS,exp,31,↑,right,→,0.3343670000322163,False,21,-1,0,5
Y2-S2-068K20,4,330,AS,exp,31,→,right,→,0.9677428998984396,True,22,-1,0,5
Y2-S2-068K20,4,331,AS,exp,33,↓,down,↓,0.8083998998627067,True,22,-1,0,5
Y2-S2-068K20,4,332,AS,exp,26,→,right,→,0.568147299811244,True,22,1,1,6
Y2-S2-068K20,4,333,AS,exp,44,↓,down,↓,0.8871694002300501,True,21,1,0,6
Y2-S2-068K20,4,334,AS,exp,32,↑,down,↓,0.7230972996912897,False,21,-1,1,7
Y2-S2-068K20,4,335,AS,exp,47,→,right,→,0.5461486000567675,True,22,-1,0,7
Y2-S2-068K20,4,336,AS,exp,40,↑,up,↑,0.558226200286299,True,22,-1,0,7
Y2-S2-068K20,4,337,AS,exp,37,↓,no_key,no_letter,-1.0,False,22,-1,0,7
Y2-S2-068K20,4,338,AS,exp,44,→,right,→,0.5002671000547707,True,23,-1,0,7
Y2-S2-068K20,4,339,AS,exp,25,↑,up,↑,0.8163471999578178,True,23,-1,0,7
Y2-S2-068K20,4,340,AS,exp,49,↓,down,↓,0.5170609001070261,True,23,1,1,8
Y2-S2-068K20,4,341,AS,exp,49,←,left,←,0.9645958002656698,True,22,1,0,8
Y2-S2-068K20,4,342,AS,exp,27,↑,up,↑,1.0447487998753786,True,22,1,0,8
Y2-S2-068K20,4,343,AS,exp,29,↓,down,↓,1.771144500002265,True,22,1,0,8
Y2-S2-068K20,4,344,AS,exp,46,←,left,←,0.5698887999169528,True,21,1,0,8
Y2-S2-068K20,4,345,AS,exp,34,↓,down,↓,1.0371867003850639,True,21,1,0,8
Y2-S2-068K20,4,346,AS,exp,42,←,left,←,0.6972126001492143,True,21,1,0,8
Y2-S2-068K20,4,347,AS,exp,40,↑,up,↑,0.7398008001036942,True,20,1,0,8
Y2-S2-068K20,4,348,AS,exp,32,→,left,←,1.205523299984634,False,20,-1,1,9
Y2-S2-068K20,4,349,AS,exp,39,↑,down,↓,1.1947662997990847,False,21,-1,0,9
Y2-S2-068K20,4,350,AS,exp,32,←,no_key,no_letter,-1.0,False,22,-1,0,9
Y2-S2-068K20,4,351,AS,exp,26,→,right,→,0.947932300157845,True,23,-1,0,9
Y2-S2-068K20,4,352,AS,exp,39,←,left,←,0.6657496001571417,True,23,-1,0,9
Y2-S2-068K20,4,353,AS,exp,49,→,right,→,0.7670625997707248,True,23,1,1,10
Y2-S2-068K20,4,354,AS,exp,39,↑,up,↑,0.7062760000117123,True,22,1,0,10
Y2-S2-068K20,4,355,AS,exp,31,→,right,→,0.7557005998678505,True,22,1,0,10
Y2-S2-068K20,4,356,AS,exp,50,↑,up,↑,1.0909110996872187,True,22,1,0,10
Y2-S2-068K20,4,357,AS,exp,45,←,left,←,0.9614338995888829,True,21,1,0,10
Y2-S2-068K20,4,358,AS,exp,37,↓,down,↓,0.5362582998350263,True,21,1,0,10
Y2-S2-068K20,4,359,AS,exp,31,↑,down,↓,0.6567232999950647,False,21,-1,1,11
Y2-S2-068K20,4,360,AS,exp,27,→,right,→,0.6971286996267736,True,22,-1,0,11
Y2-S2-068K20,4,361,AS,exp,47,↓,right,→,1.2132100998423994,False,22,-1,0,11
Y2-S2-068K20,4,362,AS,exp,35,←,down,↓,1.2076794998720288,False,23,-1,0,11
Y2-S2-068K20,4,363,AS,exp,44,→,right,→,0.5173526001162827,True,24,-1,0,11
Y2-S2-068K20,4,364,AS,exp,33,←,left,←,0.6362335998564959,True,24,-1,0,11
Y2-S2-068K20,4,365,AS,exp,44,→,right,→,0.6462418003939092,True,24,1,1,12
Y2-S2-068K20,4,366,AS,exp,37,←,right,→,1.828124100342393,False,23,-1,1,13
Y2-S2-068K20,4,367,AS,exp,38,→,no_key,no_letter,-1.0,False,24,-1,0,13
Y2-S2-068K20,4,368,AS,exp,34,←,left,←,0.6313023003749549,True,25,-1,0,13
Y2-S2-068K20,4,369,AS,exp,39,→,right,→,0.7946023000404239,True,25,-1,0,13
Y2-S2-068K20,4,370,AS,exp,33,←,left,←,0.653028900269419,True,25,1,1,14
Y2-S2-068K20,4,371,AS,exp,40,↑,no_key,no_letter,-1.0,False,24,-1,1,15
Y2-S2-068K20,4,372,AS,exp,29,→,right,→,0.7791113001294434,True,25,-1,0,15
Y2-S2-068K20,4,373,AS,exp,31,←,left,←,0.4505312000401318,True,25,-1,0,15
Y2-S2-068K20,4,374,AS,exp,50,↓,down,↓,0.5506139001809061,True,25,1,1,16
Y2-S2-068K20,5,375,AS,intra_train,48,↑,up,↑,0.6182074998505414,True,30,-,-,-
Y2-S2-068K20,5,376,AS,intra_train,42,←,left,←,0.7611634000204504,True,30,-,-,-
Y2-S2-068K20,5,377,AS,intra_train,36,→,right,→,0.6982183000072837,True,30,-,-,-
Y2-S2-068K20,5,378,AS,intra_train,42,←,left,←,0.5673656999133527,True,30,-,-,-
Y2-S2-068K20,5,379,AS,intra_train,43,↑,up,↑,1.404413599986583,True,30,-,-,-
Y2-S2-068K20,5,380,AS,exp,36,↓,down,↓,0.7010914999991655,True,20,0,0,0
Y2-S2-068K20,5,381,AS,exp,33,→,right,→,0.4342911997810006,True,20,0,0,0
Y2-S2-068K20,5,382,AS,exp,49,↓,down,↓,0.9158240002579987,True,20,1,0,0
Y2-S2-068K20,5,383,AS,exp,31,→,right,→,0.7422642996534705,True,19,1,0,0
Y2-S2-068K20,5,384,AS,exp,26,←,left,←,0.826131499838084,True,19,1,0,0
Y2-S2-068K20,5,385,AS,exp,41,↓,down,↓,0.7894481997936964,True,19,1,0,0
Y2-S2-068K20,5,386,AS,exp,45,→,right,→,1.5980585999786854,True,18,1,0,0
Y2-S2-068K20,5,387,AS,exp,33,↑,up,↑,1.3935142001137137,True,18,1,0,0
Y2-S2-068K20,5,388,AS,exp,34,←,left,←,0.6756196999922395,True,18,1,0,0
Y2-S2-068K20,5,389,AS,exp,45,↓,up,↑,0.6190319997258484,False,17,-1,1,1
Y2-S2-068K20,5,390,AS,exp,40,→,right,→,0.5770458001643419,True,18,-1,0,1
Y2-S2-068K20,5,391,AS,exp,39,↓,down,↓,0.6770934998057783,True,18,-1,0,1
Y2-S2-068K20,5,392,AS,exp,27,→,right,→,0.7583805001340806,True,18,1,1,2
Y2-S2-068K20,5,393,AS,exp,25,←,left,←,0.8419165001250803,True,17,1,0,2
Y2-S2-068K20,5,394,AS,exp,47,↑,up,↑,0.7042160001583397,True,17,1,0,2
Y2-S2-068K20,5,395,AS,exp,35,←,left,←,0.7357074003666639,True,17,1,0,2
Y2-S2-068K20,5,396,AS,exp,37,↓,down,↓,0.7120345002040267,True,16,1,0,2
Y2-S2-068K20,5,397,AS,exp,38,↑,down,↓,0.741348400246352,False,16,-1,1,3
Y2-S2-068K20,5,398,AS,exp,31,→,right,→,0.8117038002237678,True,17,-1,0,3
Y2-S2-068K20,5,399,AS,exp,35,↓,up,↑,1.3854420999996364,False,17,-1,0,3
Y2-S2-068K20,5,400,AS,exp,44,↑,up,↑,0.7359890001825988,True,18,-1,0,3
Y2-S2-068K20,5,401,AS,exp,47,←,left,←,1.1593218999914825,True,18,-1,0,3
Y2-S2-068K20,5,402,AS,exp,41,↑,up,↑,0.6307435999624431,True,18,1,1,4
Y2-S2-068K20,5,403,AS,exp,48,←,left,←,0.730081900022924,True,17,1,0,4
Y2-S2-068K20,5,404,AS,exp,40,→,right,→,1.6167715000919998,True,17,1,0,4
Y2-S2-068K20,5,405,AS,exp,28,↑,right,→,0.49345939978957176,False,17,-1,1,5
Y2-S2-068K20,5,406,AS,exp,30,↓,down,↓,0.7214639000594616,True,18,-1,0,5
Y2-S2-068K20,5,407,AS,exp,29,←,right,→,1.3150257002562284,False,18,-1,0,5
Y2-S2-068K20,5,408,AS,exp,27,↑,up,↑,0.8049245998263359,True,19,-1,0,5
Y2-S2-068K20,5,409,AS,exp,39,←,left,←,0.4902447001077235,True,19,-1,0,5
Y2-S2-068K20,5,410,AS,exp,43,↓,down,↓,0.875838799867779,True,19,1,1,6
Y2-S2-068K20,5,411,AS,exp,49,↑,up,↑,0.6351988995447755,True,18,1,0,6
Y2-S2-068K20,5,412,AS,exp,30,→,right,→,0.7163026002235711,True,18,1,0,6
Y2-S2-068K20,5,413,AS,exp,44,↓,down,↓,0.647641200106591,True,18,1,0,6
Y2-S2-068K20,5,414,AS,exp,35,↑,up,↑,0.9807788003236055,True,17,1,0,6
Y2-S2-068K20,5,415,AS,exp,44,→,right,→,0.7423582999035716,True,17,1,0,6
Y2-S2-068K20,5,416,AS,exp,35,↓,down,↓,0.7563215000554919,True,17,1,0,6
Y2-S2-068K20,5,417,AS,exp,25,→,right,→,0.8228372000157833,True,16,1,0,6
Y2-S2-068K20,5,418,AS,exp,46,←,left,←,0.8164391000755131,True,16,1,0,6
Y2-S2-068K20,5,419,AS,exp,39,↓,down,↓,0.631473199930042,True,16,1,0,6
Y2-S2-068K20,5,420,AS,exp,25,↑,up,↑,0.6497193002142012,True,15,1,0,6
Y2-S2-068K20,5,421,AS,exp,46,→,right,→,0.7940291999839246,True,15,1,0,6
Y2-S2-068K20,5,422,AS,exp,37,↓,down,↓,1.044549799989909,True,15,1,0,6
Y2-S2-068K20,5,423,AS,exp,29,↑,up,↑,0.726806899998337,True,14,1,0,6
Y2-S2-068K20,5,424,AS,exp,34,↓,right,→,1.1346988999284804,False,14,-1,1,7
Y2-S2-068K20,5,425,AS,exp,34,→,right,→,0.47537630004808307,True,15,-1,0,7
Y2-S2-068K20,5,426,AS,exp,35,←,right,→,0.7694955999031663,False,15,-1,0,7
Y2-S2-068K20,5,427,AS,exp,28,↑,up,↑,0.7055695997551084,True,16,-1,0,7
Y2-S2-068K20,5,428,AS,exp,44,→,right,→,0.8502655001357198,True,16,-1,0,7
Y2-S2-068K20,5,429,AS,exp,34,↓,down,↓,0.8954202001914382,True,16,1,1,8
Y2-S2-068K20,5,430,AS,exp,48,→,right,→,0.6642185002565384,True,15,1,0,8
Y2-S2-068K20,5,431,AS,exp,46,↓,down,↓,0.8407800002023578,True,15,1,0,8
Y2-S2-068K20,5,432,AS,exp,34,←,right,→,0.9149918002076447,False,15,-1,1,9
Y2-S2-068K20,5,433,AS,exp,50,→,right,→,0.854925099760294,True,16,-1,0,9
Y2-S2-068K20,5,434,AS,exp,37,←,left,←,0.5143244001083076,True,16,-1,0,9
Y2-S2-068K20,5,435,AS,exp,43,↑,up,↑,0.7442827001214027,True,16,1,1,10
Y2-S2-068K20,5,436,AS,exp,26,→,down,↓,0.6732518998906016,False,15,-1,1,11
Y2-S2-068K20,5,437,AS,exp,34,←,left,←,0.6856033001095057,True,16,-1,0,11
Y2-S2-068K20,5,438,AS,exp,47,↓,down,↓,0.5820187004283071,True,16,-1,0,11
Y2-S2-068K20,5,439,AS,exp,28,↑,up,↑,0.4946966003626585,True,16,1,1,12
Y2-S2-068K20,5,440,AS,exp,29,←,left,←,0.6324732000939548,True,15,1,0,12
Y2-S2-068K20,5,441,AS,exp,44,↑,down,↓,0.7458488000556827,False,15,-1,1,13
Y2-S2-068K20,5,442,AS,exp,41,→,right,→,0.8082278002984822,True,16,-1,0,13
Y2-S2-068K20,5,443,AS,exp,37,↑,up,↑,0.6454947995953262,True,16,-1,0,13
Y2-S2-068K20,5,444,AS,exp,44,↓,down,↓,0.7170231002382934,True,16,1,1,14
Y2-S2-068K20,5,445,AS,exp,41,→,left,←,0.750666500069201,False,15,-1,1,15
Y2-S2-068K20,5,446,AS,exp,32,↓,down,↓,0.5987618998624384,True,16,-1,0,15
Y2-S2-068K20,5,447,AS,exp,40,→,right,→,0.6936683999374509,True,16,-1,0,15
Y2-S2-068K20,5,448,AS,exp,37,↑,up,↑,0.7024683002382517,True,16,1,1,16
Y2-S2-068K20,6,449,PS,intra_train,45,←,left,←,0.5219123000279069,True,16,-,-,-
Y2-S2-068K20,6,450,PS,intra_train,32,↓,down,↓,0.6707978001795709,True,16,-,-,-
Y2-S2-068K20,6,451,PS,intra_train,28,↑,right,→,0.8541023000143468,False,16,-,-,-
Y2-S2-068K20,6,452,PS,intra_train,30,→,right,→,0.6729973000474274,True,16,-,-,-
Y2-S2-068K20,6,453,PS,intra_train,28,↑,up,↑,0.7087511997669935,True,16,-,-,-
Y2-S2-068K20,6,454,PS,exp,48,←,left,←,0.44357539992779493,True,11,0,0,0
Y2-S2-068K20,6,455,PS,exp,44,↓,right,→,0.7206707997247577,False,11,-1,0,0
Y2-S2-068K20,6,456,PS,exp,25,→,right,→,0.5331009002402425,True,12,-1,0,0
Y2-S2-068K20,6,457,PS,exp,47,←,right,→,0.6154586002230644,False,12,-1,0,0
Y2-S2-068K20,6,458,PS,exp,47,↓,right,→,0.4420994999818504,False,13,-1,0,0
Y2-S2-068K20,6,459,PS,exp,33,←,right,→,0.5048933997750282,False,14,-1,0,0
Y2-S2-068K20,6,460,PS,exp,30,↓,right,→,0.6992048001848161,False,15,-1,0,0
Y2-S2-068K20,6,461,PS,exp,37,↑,down,↓,0.8709189002402127,False,16,-1,0,0
Y2-S2-068K20,6,462,PS,exp,41,↓,up,↑,1.1799559998326004,False,17,-1,0,0
Y2-S2-068K20,6,463,PS,exp,42,→,right,→,0.47678060038015246,True,18,-1,0,0
Y2-S2-068K20,6,464,PS,exp,37,↓,up,↑,0.9185736998915672,False,18,-1,0,0
Y2-S2-068K20,6,465,PS,exp,39,→,right,→,0.5825189002789557,True,19,-1,0,0
Y2-S2-068K20,6,466,PS,exp,49,←,right,→,0.5058694998733699,False,19,-1,0,0
Y2-S2-068K20,6,467,PS,exp,28,↑,up,↑,0.6816245997324586,True,20,-1,0,0
Y2-S2-068K20,6,468,PS,exp,48,↓,down,↓,0.6255208998918533,True,20,-1,0,0
Y2-S2-068K20,6,469,PS,exp,35,←,left,←,1.4353919997811317,True,20,1,1,1
Y2-S2-068K20,6,470,PS,exp,33,→,right,→,0.5119433999061584,True,19,1,0,1
Y2-S2-068K20,6,471,PS,exp,44,←,left,←,0.6738117001950741,True,19,1,0,1
Y2-S2-068K20,6,472,PS,exp,41,→,right,→,0.5497726001776755,True,19,1,0,1
Y2-S2-068K20,6,473,PS,exp,42,↓,down,↓,0.6174137000925839,True,18,1,0,1
Y2-S2-068K20,6,474,PS,exp,31,↑,down,↓,0.8451311001554132,False,18,-1,1,2
Y2-S2-068K20,6,475,PS,exp,49,↓,down,↓,0.5070315999910235,True,19,-1,0,2
Y2-S2-068K20,6,476,PS,exp,26,→,right,→,0.48589230002835393,True,19,-1,0,2
Y2-S2-068K20,6,477,PS,exp,46,←,left,←,0.906147800385952,True,19,1,1,3
Y2-S2-068K20,6,478,PS,exp,37,↓,down,↓,0.5262690000236034,True,18,1,0,3
Y2-S2-068K20,6,479,PS,exp,44,←,left,←,0.6614986998029053,True,18,1,0,3
Y2-S2-068K20,6,480,PS,exp,46,↑,up,↑,0.6036523999646306,True,18,1,0,3
Y2-S2-068K20,6,481,PS,exp,36,←,left,←,0.6330935000441968,True,17,1,0,3
Y2-S2-068K20,6,482,PS,exp,26,→,right,→,0.5810687998309731,True,17,1,0,3
Y2-S2-068K20,6,483,PS,exp,48,↓,down,↓,0.6433267001993954,True,17,1,0,3
Y2-S2-068K20,6,484,PS,exp,32,←,left,←,0.7879971000365913,True,16,1,0,3
Y2-S2-068K20,6,485,PS,exp,39,→,right,→,0.5679545998573303,True,16,1,0,3
Y2-S2-068K20,6,486,PS,exp,42,↑,up,↑,0.5706598996184766,True,16,1,0,3
Y2-S2-068K20,6,487,PS,exp,34,↓,down,↓,0.6604923997074366,True,15,1,0,3
Y2-S2-068K20,6,488,PS,exp,48,→,right,→,0.5091937999241054,True,15,1,0,3
Y2-S2-068K20,6,489,PS,exp,29,↑,up,↑,0.5872692996636033,True,15,1,0,3
Y2-S2-068K20,6,490,PS,exp,36,→,right,→,0.47793889977037907,True,14,1,0,3
Y2-S2-068K20,6,491,PS,exp,48,↓,down,↓,0.5077243996784091,True,14,1,0,3
Y2-S2-068K20,6,492,PS,exp,33,↑,right,→,0.6486677001230419,False,14,-1,1,4
Y2-S2-068K20,6,493,PS,exp,32,←,left,←,0.788136400282383,True,15,-1,0,4
Y2-S2-068K20,6,494,PS,exp,42,↓,down,↓,0.5969202998094261,True,15,-1,0,4
Y2-S2-068K20,6,495,PS,exp,49,→,right,→,0.48826909996569157,True,15,1,1,5
Y2-S2-068K20,6,496,PS,exp,48,←,left,←,0.7105940999463201,True,14,1,0,5
Y2-S2-068K20,6,497,PS,exp,43,↓,down,↓,0.6377665000036359,True,14,1,0,5
Y2-S2-068K20,6,498,PS,exp,43,↑,no_key,no_letter,-1.0,False,14,-1,1,6
Y2-S2-068K20,6,499,PS,exp,37,←,left,←,0.5102703999727964,True,15,-1,0,6
Y2-S2-068K20,6,500,PS,exp,47,↓,down,↓,0.7323457999154925,True,15,-1,0,6
Y2-S2-068K20,6,501,PS,exp,36,↑,up,↑,0.5429375004023314,True,15,1,1,7
Y2-S2-068K20,6,502,PS,exp,29,←,left,←,0.5714997001923621,True,14,1,0,7
Y2-S2-068K20,6,503,PS,exp,40,→,right,→,0.6469033998437226,True,14,1,0,7
Y2-S2-068K20,6,504,PS,exp,43,↑,down,↓,0.7752625001594424,False,14,-1,1,8
Y2-S2-068K20,6,505,PS,exp,33,←,left,←,0.6243858002126217,True,15,-1,0,8
Y2-S2-068K20,6,506,PS,exp,27,↑,up,↑,0.7332190000452101,True,15,-1,0,8
Y2-S2-068K20,6,507,PS,exp,26,→,right,→,0.509034899994731,True,15,1,1,9
Y2-S2-068K20,6,508,PS,exp,31,↓,down,↓,0.5827639000490308,True,14,1,0,9
Y2-S2-068K20,6,509,PS,exp,39,→,right,→,0.5048827002756298,True,14,1,0,9
Y2-S2-068K20,6,510,PS,exp,33,↑,up,↑,0.6886391001753509,True,14,1,0,9
Y2-S2-068K20,6,511,PS,exp,28,↓,right,→,1.2058898000977933,False,13,-1,1,10
Y2-S2-068K20,6,512,PS,exp,32,←,right,→,0.6671232003718615,False,14,-1,0,10
Y2-S2-068K20,6,513,PS,exp,28,→,right,→,0.7049385001882911,True,15,-1,0,10
Y2-S2-068K20,6,514,PS,exp,45,↓,down,↓,0.5617748997174203,True,15,-1,0,10
Y2-S2-068K20,6,515,PS,exp,32,→,right,→,0.7185873999260366,True,15,1,1,11
Y2-S2-068K20,6,516,PS,exp,25,←,right,→,1.073940800037235,False,14,-1,1,12
Y2-S2-068K20,6,517,PS,exp,48,→,right,→,0.4905441999435425,True,15,-1,0,12
Y2-S2-068K20,6,518,PS,exp,49,←,left,←,0.6881266999989748,True,15,-1,0,12
Y2-S2-068K20,6,519,PS,exp,47,↑,up,↑,0.6086516003124416,True,15,1,1,13
Y2-S2-068K20,6,520,PS,exp,30,←,left,←,0.5363891003653407,True,14,1,0,13
Y2-S2-068K20,6,521,PS,exp,42,→,no_key,no_letter,-1.0,False,14,-1,1,14
Y2-S2-068K20,6,522,PS,exp,39,←,right,→,0.7789330999366939,False,15,-1,0,14
Y2-S2-068K20,6,523,PS,exp,26,↑,no_key,no_letter,-1.0,False,16,-1,0,14
Y2-S2-068K20,6,524,PS,exp,27,→,right,→,0.5667127002961934,True,17,-1,0,14
Y2-S2-068K20,6,525,PS,exp,38,↑,up,↑,0.5455955001525581,True,17,-1,0,14
Y2-S2-068K20,6,526,PS,exp,41,→,right,→,0.4983633002266288,True,17,1,1,15
Y2-S2-068K20,6,527,PS,exp,49,←,left,←,0.6580173000693321,True,16,1,0,15
Y2-S2-068K20,6,528,PS,exp,33,→,right,→,0.48269170010462403,True,16,1,0,15
Y2-S2-068K20,6,529,PS,exp,32,↑,right,→,0.4356439998373389,False,16,-1,1,16
Y2-S2-068K20,7,530,PS,intra_train,45,←,left,←,0.6062192004173994,True,16,-,-,-
Y2-S2-068K20,7,531,PS,intra_train,40,→,right,→,0.4009988000616431,True,16,-,-,-
Y2-S2-068K20,7,532,PS,intra_train,43,←,left,←,0.7298314999789,True,16,-,-,-
Y2-S2-068K20,7,533,PS,intra_train,46,↓,up,↑,0.7781097004190087,False,16,-,-,-
Y2-S2-068K20,7,534,PS,intra_train,25,→,right,→,0.5254351003095508,True,16,-,-,-
Y2-S2-068K20,7,535,PS,exp,50,↓,down,↓,0.46349290013313293,True,11,0,0,0
Y2-S2-068K20,7,536,PS,exp,38,←,left,←,0.43550699995830655,True,11,0,0,0
Y2-S2-068K20,7,537,PS,exp,43,→,right,→,0.3873658999800682,True,11,1,0,0
Y2-S2-068K20,7,538,PS,exp,40,↑,up,↑,0.5520208002999425,True,10,1,0,0
Y2-S2-068K20,7,539,PS,exp,34,↓,down,↓,0.5572357997298241,True,10,1,0,0
Y2-S2-068K20,7,540,PS,exp,25,→,right,→,0.5439603002741933,True,10,1,0,0
Y2-S2-068K20,7,541,PS,exp,43,↓,down,↓,0.5116304000839591,True,9,1,0,0
Y2-S2-068K20,7,542,PS,exp,40,↑,up,↑,0.9975268999114633,True,9,1,0,0
Y2-S2-068K20,7,543,PS,exp,33,←,down,↓,0.6697375997900963,False,9,-1,1,1
Y2-S2-068K20,7,544,PS,exp,28,↑,down,↓,0.8395409998483956,False,10,-1,0,1
Y2-S2-068K20,7,545,PS,exp,35,→,left,←,1.1705386000685394,False,11,-1,0,1
Y2-S2-068K20,7,546,PS,exp,50,↓,down,↓,0.5536817000247538,True,12,-1,0,1
Y2-S2-068K20,7,547,PS,exp,47,↑,down,↓,0.8294359999708831,False,12,-1,0,1
Y2-S2-068K20,7,548,PS,exp,30,↓,down,↓,0.7168506002053618,True,13,-1,0,1
Y2-S2-068K20,7,549,PS,exp,34,↑,up,↑,0.5224759001284838,True,13,-1,0,1
Y2-S2-068K20,7,550,PS,exp,50,←,no_key,no_letter,-1.0,False,13,-1,0,1
Y2-S2-068K20,7,551,PS,exp,36,→,right,→,0.48551050014793873,True,14,-1,0,1
Y2-S2-068K20,7,552,PS,exp,25,↑,up,↑,0.45173369999974966,True,14,-1,0,1
Y2-S2-068K20,7,553,PS,exp,33,↓,down,↓,0.4686439000070095,True,14,1,1,2
Y2-S2-068K20,7,554,PS,exp,31,←,left,←,0.5634167999960482,True,13,1,0,2
Y2-S2-068K20,7,555,PS,exp,25,→,left,←,0.5596139999106526,False,13,-1,1,3
Y2-S2-068K20,7,556,PS,exp,36,↓,down,↓,0.4466400998644531,True,14,-1,0,3
Y2-S2-068K20,7,557,PS,exp,37,→,right,→,0.595316399820149,True,14,-1,0,3
Y2-S2-068K20,7,558,PS,exp,35,↑,up,↑,0.6675200001336634,True,14,1,1,4
Y2-S2-068K20,7,559,PS,exp,26,→,right,→,0.5332998996600509,True,13,1,0,4
Y2-S2-068K20,7,560,PS,exp,34,↑,up,↑,0.6336968997493386,True,13,1,0,4
Y2-S2-068K20,7,561,PS,exp,31,↓,down,↓,0.574161299970001,True,13,1,0,4
Y2-S2-068K20,7,562,PS,exp,36,↑,up,↑,0.6704627000726759,True,12,1,0,4
Y2-S2-068K20,7,563,PS,exp,30,→,right,→,0.4854657999239862,True,12,1,0,4
Y2-S2-068K20,7,564,PS,exp,39,↑,up,↑,0.5507126003503799,True,12,1,0,4
Y2-S2-068K20,7,565,PS,exp,36,←,no_key,no_letter,-1.0,False,11,-1,1,5
Y2-S2-068K20,7,566,PS,exp,32,↓,down,↓,0.6785796000622213,True,12,-1,0,5
Y2-S2-068K20,7,567,PS,exp,30,→,right,→,0.45384970027953386,True,12,-1,0,5
Y2-S2-068K20,7,568,PS,exp,50,↑,up,↑,0.5974468998610973,True,12,1,1,6
Y2-S2-068K20,7,569,PS,exp,44,→,right,→,0.5671466998755932,True,11,1,0,6
Y2-S2-068K20,7,570,PS,exp,37,↓,down,↓,0.7053968999534845,True,11,1,0,6
Y2-S2-068K20,7,571,PS,exp,47,→,right,→,0.5623175003565848,True,11,1,0,6
Y2-S2-068K20,7,572,PS,exp,38,↓,down,↓,0.696191200055182,True,10,1,0,6
Y2-S2-068K20,7,573,PS,exp,47,←,left,←,0.621025400236249,True,10,1,0,6
Y2-S2-068K20,7,574,PS,exp,50,↓,right,→,0.5489002000540495,False,10,-1,1,7
Y2-S2-068K20,7,575,PS,exp,46,←,left,←,0.9736851998604834,True,11,-1,0,7
Y2-S2-068K20,7,576,PS,exp,32,↓,down,↓,0.6277854000218213,True,11,-1,0,7
Y2-S2-068K20,7,577,PS,exp,48,↑,up,↑,0.6291535999625921,True,11,1,1,8
Y2-S2-068K20,7,578,PS,exp,49,↓,down,↓,0.5540379998274148,True,10,1,0,8
Y2-S2-068K20,7,579,PS,exp,32,←,left,←,0.6447316999547184,True,10,1,0,8
Y2-S2-068K20,7,580,PS,exp,45,→,right,→,0.4824012001045048,True,10,1,0,8
Y2-S2-068K20,7,581,PS,exp,38,↓,down,↓,0.5981638003140688,True,9,1,0,8
Y2-S2-068K20,7,582,PS,exp,29,←,left,←,0.8313953997567296,True,9,1,0,8
Y2-S2-068K20,7,583,PS,exp,26,→,right,→,0.5424091001041234,True,9,1,0,8
Y2-S2-068K20,7,584,PS,exp,39,↓,down,↓,0.5311263003386557,True,8,1,0,8
Y2-S2-068K20,7,585,PS,exp,30,←,left,←,0.5187545996159315,True,8,1,0,8
Y2-S2-068K20,7,586,PS,exp,25,↑,right,→,0.5506275999359787,False,8,-1,1,9
Y2-S2-068K20,7,587,PS,exp,32,↓,down,↓,0.4315972998738289,True,9,-1,0,9
Y2-S2-068K20,7,588,PS,exp,50,←,right,→,0.6076515996828675,False,9,-1,0,9
Y2-S2-068K20,7,589,PS,exp,27,↓,right,→,0.572760199662298,False,10,-1,0,9
Y2-S2-068K20,7,590,PS,exp,41,→,right,→,0.5281092999503016,True,11,-1,0,9
Y2-S2-068K20,7,591,PS,exp,39,←,right,→,0.40106929978355765,False,11,-1,0,9
Y2-S2-068K20,7,592,PS,exp,38,↓,right,→,0.3720100997015834,False,12,-1,0,9
Y2-S2-068K20,7,593,PS,exp,33,→,down,↓,0.7748358002863824,False,13,-1,0,9
Y2-S2-068K20,7,594,PS,exp,47,←,left,←,0.5851246998645365,True,14,-1,0,9
Y2-S2-068K20,7,595,PS,exp,40,↓,down,↓,0.5184789998456836,True,14,-1,0,9
Y2-S2-068K20,7,596,PS,exp,32,↑,up,↑,0.661690799985081,True,14,1,1,10
Y2-S2-068K20,7,597,PS,exp,44,←,down,↓,0.8221229002811015,False,13,-1,1,11
Y2-S2-068K20,7,598,PS,exp,49,↑,up,↑,0.5266754999756813,True,14,-1,0,11
Y2-S2-068K20,7,599,PS,exp,41,→,right,→,0.5100957998074591,True,14,-1,0,11
Y2-S2-068K20,7,600,PS,exp,26,↓,down,↓,0.5835490999743342,True,14,1,1,12
Y2-S2-068K20,7,601,PS,exp,35,←,left,←,0.5558835999108851,True,13,1,0,12
Y2-S2-068K20,7,602,PS,exp,50,↑,right,→,0.5029525998979807,False,13,-1,1,13
Y2-S2-068K20,7,603,PS,exp,37,←,right,→,0.6765514998696744,False,14,-1,0,13
Y2-S2-068K20,7,604,PS,exp,40,→,right,→,0.8767932998016477,True,15,-1,0,13
Y2-S2-068K20,7,605,PS,exp,40,←,no_key,no_letter,-1.0,False,15,-1,0,13
Y2-S2-068K20,7,606,PS,exp,32,↓,down,↓,0.8455149997025728,True,16,-1,0,13
Y2-S2-068K20,7,607,PS,exp,28,→,right,→,0.7546802996657789,True,16,-1,0,13
Y2-S2-068K20,7,608,PS,exp,41,←,left,←,0.639638299588114,True,16,1,1,14
Y2-S2-068K20,7,609,PS,exp,27,→,right,→,0.5079736998304725,True,15,1,0,14
Y2-S2-068K20,7,610,PS,exp,39,←,left,←,0.591610100120306,True,15,1,0,14
Y2-S2-068K20,7,611,PS,exp,47,→,no_key,no_letter,-1.0,False,15,-1,1,15
Y2-S2-068K20,7,612,PS,exp,49,←,left,←,0.5587665000930429,True,16,-1,0,15
Y2-S2-068K20,7,613,PS,exp,44,↑,down,↓,0.682351800147444,False,16,-1,0,15
Y2-S2-068K20,7,614,PS,exp,44,↓,down,↓,0.5217754999175668,True,17,-1,0,15
Y2-S2-068K20,7,615,PS,exp,34,↑,up,↑,0.7566019999794662,True,17,-1,0,15
Y2-S2-068K20,7,616,PS,exp,25,←,left,←,0.8306534001603723,True,17,1,1,16
Y2-S2-068K20,8,617,AS,intra_train,39,↓,down,↓,0.550726099871099,True,30,-,-,-
Y2-S2-068K20,8,618,AS,intra_train,48,↑,down,↓,0.6007060999982059,False,30,-,-,-
Y2-S2-068K20,8,619,AS,intra_train,42,←,left,←,0.7219400997273624,True,30,-,-,-
Y2-S2-068K20,8,620,AS,intra_train,37,↑,up,↑,0.7107131001539528,True,30,-,-,-
Y2-S2-068K20,8,621,AS,intra_train,43,←,left,←,0.7649929998442531,True,30,-,-,-
Y2-S2-068K20,8,622,AS,exp,48,↑,up,↑,0.7507811998948455,True,20,0,0,0
Y2-S2-068K20,8,623,AS,exp,50,→,right,→,0.5756842000409961,True,20,0,0,0
Y2-S2-068K20,8,624,AS,exp,27,↑,up,↑,0.5699233999475837,True,20,1,0,0
Y2-S2-068K20,8,625,AS,exp,47,←,left,←,1.360230500344187,True,19,1,0,0
Y2-S2-068K20,8,626,AS,exp,42,↓,down,↓,0.5555247999727726,True,19,1,0,0
Y2-S2-068K20,8,627,AS,exp,29,→,left,←,0.8140638996846974,False,19,-1,1,1
Y2-S2-068K20,8,628,AS,exp,31,↑,up,↑,0.7300800001248717,True,20,-1,0,1
Y2-S2-068K20,8,629,AS,exp,36,↓,down,↓,0.8406644002534449,True,20,-1,0,1
Y2-S2-068K20,8,630,AS,exp,27,→,right,→,0.6036300999112427,True,20,1,1,2
Y2-S2-068K20,8,631,AS,exp,48,↓,left,←,0.9173808000050485,False,19,-1,1,3
Y2-S2-068K20,8,632,AS,exp,40,←,left,←,0.5273557999171317,True,20,-1,0,3
Y2-S2-068K20,8,633,AS,exp,37,→,right,→,0.5705470000393689,True,20,-1,0,3
Y2-S2-068K20,8,634,AS,exp,39,←,left,←,0.6667591999284923,True,20,1,1,4
Y2-S2-068K20,8,635,AS,exp,31,↓,down,↓,0.8093549003824592,True,19,1,0,4
Y2-S2-068K20,8,636,AS,exp,42,↑,up,↑,0.8053120002150536,True,19,1,0,4
Y2-S2-068K20,8,637,AS,exp,43,→,right,→,0.6880514002405107,True,19,1,0,4
Y2-S2-068K20,8,638,AS,exp,29,←,left,←,0.7481869999319315,True,18,1,0,4
Y2-S2-068K20,8,639,AS,exp,28,↓,down,↓,0.5845280000939965,True,18,1,0,4
Y2-S2-068K20,8,640,AS,exp,37,→,right,→,0.6185489003546536,True,18,1,0,4
Y2-S2-068K20,8,641,AS,exp,44,↑,up,↑,0.645705200266093,True,17,1,0,4
Y2-S2-068K20,8,642,AS,exp,31,→,right,→,0.4960452001541853,True,17,1,0,4
Y2-S2-068K20,8,643,AS,exp,36,↑,up,↑,0.9197014002129436,True,17,1,0,4
Y2-S2-068K20,8,644,AS,exp,34,←,left,←,0.6782410000450909,True,16,1,0,4
Y2-S2-068K20,8,645,AS,exp,28,↓,down,↓,0.6622975999489427,True,16,1,0,4
Y2-S2-068K20,8,646,AS,exp,29,↑,up,↑,1.0240768999792635,True,16,1,0,4
Y2-S2-068K20,8,647,AS,exp,35,↓,up,↑,0.920399900060147,False,15,-1,1,5
Y2-S2-068K20,8,648,AS,exp,25,←,left,←,0.5440744003280997,True,16,-1,0,5
Y2-S2-068K20,8,649,AS,exp,26,→,right,→,0.7038569999858737,True,16,-1,0,5
Y2-S2-068K20,8,650,AS,exp,30,↓,down,↓,0.6702179000712931,True,16,1,1,6
Y2-S2-068K20,8,651,AS,exp,29,←,left,←,0.8533147000707686,True,15,1,0,6
Y2-S2-068K20,8,652,AS,exp,43,↓,up,↑,1.216867099981755,False,15,-1,1,7
Y2-S2-068K20,8,653,AS,exp,32,→,right,→,0.6885861996561289,True,16,-1,0,7
Y2-S2-068K20,8,654,AS,exp,40,↑,right,→,0.7585583003237844,False,16,-1,0,7
Y2-S2-068K20,8,655,AS,exp,39,→,left,←,0.5948936999775469,False,17,-1,0,7
Y2-S2-068K20,8,656,AS,exp,42,←,left,←,0.6339278998784721,True,18,-1,0,7
Y2-S2-068K20,8,657,AS,exp,44,↓,down,↓,1.034421700052917,True,18,-1,0,7
Y2-S2-068K20,8,658,AS,exp,48,←,right,→,0.8130808002315462,False,18,-1,0,7
Y2-S2-068K20,8,659,AS,exp,31,→,right,→,0.5999831999652088,True,19,-1,0,7
Y2-S2-068K20,8,660,AS,exp,47,↓,down,↓,0.7967687002383173,True,19,-1,0,7
Y2-S2-068K20,8,661,AS,exp,38,←,left,←,0.5027793999761343,True,19,1,1,8
Y2-S2-068K20,8,662,AS,exp,35,↑,up,↑,0.6961353002116084,True,18,1,0,8
Y2-S2-068K20,8,663,AS,exp,44,↓,down,↓,0.761531800031662,True,18,1,0,8
Y2-S2-068K20,8,664,AS,exp,25,←,right,→,0.711067599710077,False,18,-1,1,9
Y2-S2-068K20,8,665,AS,exp,40,↑,down,↓,1.1778726000338793,False,19,-1,0,9
Y2-S2-068K20,8,666,AS,exp,50,↓,up,↑,1.6329262000508606,False,20,-1,0,9
Y2-S2-068K20,8,667,AS,exp,42,↑,up,↑,0.9938659002073109,True,21,-1,0,9
Y2-S2-068K20,8,668,AS,exp,44,→,right,→,0.6006188001483679,True,21,-1,0,9
Y2-S2-068K20,8,669,AS,exp,46,←,left,←,0.6968824998475611,True,21,1,1,10
Y2-S2-068K20,8,670,AS,exp,50,→,right,→,0.7777581000700593,True,20,1,0,10
Y2-S2-068K20,8,671,AS,exp,36,↓,down,↓,0.6740035000257194,True,20,1,0,10
Y2-S2-068K20,8,672,AS,exp,42,↑,up,↑,0.8405154999345541,True,20,1,0,10
Y2-S2-068K20,8,673,AS,exp,41,→,right,→,0.5643925000913441,True,19,1,0,10
Y2-S2-068K20,8,674,AS,exp,46,↓,down,↓,0.7108073998242617,True,19,1,0,10
Y2-S2-068K20,8,675,AS,exp,26,→,right,→,0.6199997998774052,True,19,1,0,10
Y2-S2-068K20,8,676,AS,exp,50,↓,down,↓,0.6398181999102235,True,18,1,0,10
Y2-S2-068K20,8,677,AS,exp,42,←,left,←,0.7945093996822834,True,18,1,0,10
Y2-S2-068K20,8,678,AS,exp,29,↑,up,↑,0.8661639001220465,True,18,1,0,10
Y2-S2-068K20,8,679,AS,exp,25,→,right,→,0.7252042996697128,True,17,1,0,10
Y2-S2-068K20,8,680,AS,exp,27,↑,up,↑,0.6683164001442492,True,17,1,0,10
Y2-S2-068K20,8,681,AS,exp,37,→,right,→,0.548114400357008,True,17,1,0,10
Y2-S2-068K20,8,682,AS,exp,26,←,right,→,0.7995984996668994,False,16,-1,1,11
Y2-S2-068K20,8,683,AS,exp,27,↑,up,↑,0.9306029002182186,True,17,-1,0,11
Y2-S2-068K20,8,684,AS,exp,29,←,left,←,0.5771742002107203,True,17,-1,0,11
Y2-S2-068K20,8,685,AS,exp,38,↑,up,↑,0.7219772003591061,True,17,1,1,12
Y2-S2-068K20,8,686,AS,exp,41,→,right,→,0.6639358997344971,True,16,1,0,12
Y2-S2-068K20,8,687,AS,exp,28,↓,down,↓,0.851719600148499,True,16,1,0,12
Y2-S2-068K20,8,688,AS,exp,30,→,right,→,0.4443105002865195,True,16,1,0,12
Y2-S2-068K20,8,689,AS,exp,37,↑,left,←,0.23422039998695254,False,15,-1,1,13
Y2-S2-068K20,8,690,AS,exp,36,←,left,←,0.6345928995870054,True,16,-1,0,13
Y2-S2-068K20,8,691,AS,exp,46,↑,up,↑,0.664939799811691,True,16,-1,0,13
Y2-S2-068K20,8,692,AS,exp,45,→,right,→,0.7510453998111188,True,16,1,1,14
Y2-S2-068K20,8,693,AS,exp,45,↑,up,↑,1.1926217000000179,True,15,1,0,14
Y2-S2-068K20,8,694,AS,exp,40,↓,down,↓,0.7157628000713885,True,15,1,0,14
Y2-S2-068K20,8,695,AS,exp,28,→,right,→,0.5146224000491202,True,15,1,0,14
Y2-S2-068K20,8,696,AS,exp,26,↑,up,↑,1.0199707001447678,True,14,1,0,14
Y2-S2-068K20,8,697,AS,exp,37,←,right,→,0.7714498001150787,False,14,-1,1,15
Y2-S2-068K20,8,698,AS,exp,27,→,right,→,0.5881370999850333,True,15,-1,0,15
Y2-S2-068K20,8,699,AS,exp,36,←,left,←,0.4799190000630915,True,15,-1,0,15
Y2-S2-068K20,8,700,AS,exp,27,→,right,→,0.5760370003990829,True,15,1,1,16
