PART_ID,Block_no,Trial_no,Block_type,Trial_type,CSI,Stim_letter,Key_pressed,letter_choose,Rt,Corr,Stimulus Time,Level,Reversal,Revs_count
Y2-S2-004K21,1,1,PS,train,40,←,left,←,0.6171912000281736,True,30,-,-,-
Y2-S2-004K21,1,2,PS,train,35,→,right,→,0.4345061000203714,True,30,-,-,-
Y2-S2-004K21,1,3,PS,train,35,←,left,←,0.6169292999547906,True,30,-,-,-
Y2-S2-004K21,1,4,PS,train,40,↑,no_key,no_letter,-1.0,False,30,-,-,-
Y2-S2-004K21,1,5,PS,train,31,→,right,→,0.5005267999949865,True,30,-,-,-
Y2-S2-004K21,1,6,PS,train,35,←,left,←,0.4837089999928139,True,30,-,-,-
Y2-S2-004K21,1,7,PS,train,27,↓,down,↓,0.6174370999797247,True,30,-,-,-
Y2-S2-004K21,1,8,PS,train,41,↑,up,↑,0.6339779999689199,True,30,-,-,-
Y2-S2-004K21,1,9,PS,train,25,←,left,←,0.5006267999997362,True,30,-,-,-
Y2-S2-004K21,1,10,PS,train,45,↑,up,↑,0.5340217999764718,True,30,-,-,-
Y2-S2-004K21,2,11,AS,train,26,←,left,←,0.5514181000180542,True,45,-,-,-
Y2-S2-004K21,2,12,AS,train,45,↓,up,↑,0.5510819000191987,False,45,-,-,-
Y2-S2-004K21,2,13,AS,train,27,←,left,←,0.5343628999544308,True,45,-,-,-
Y2-S2-004K21,2,14,AS,train,32,↓,down,↓,0.6674384000361897,True,45,-,-,-
Y2-S2-004K21,2,15,AS,train,37,↑,up,↑,0.7509069999796338,True,45,-,-,-
Y2-S2-004K21,2,16,AS,train,47,↓,down,↓,0.6678128000348806,True,45,-,-,-
Y2-S2-004K21,2,17,AS,train,30,←,left,←,0.46731649996945634,True,45,-,-,-
Y2-S2-004K21,2,18,AS,train,26,↑,up,↑,0.8672775999875739,True,45,-,-,-
Y2-S2-004K21,2,19,AS,train,44,→,left,←,0.6344323999946937,False,45,-,-,-
Y2-S2-004K21,2,20,AS,train,36,↓,down,↓,0.63428220001515,True,45,-,-,-
Y2-S2-004K21,-,21,PS,adaptive,28,→,right,→,0.57365249999566,True,10,0,0,0
Y2-S2-004K21,-,22,PS,adaptive,37,↓,right,→,1.0958210999961011,False,10,-1,0,0
Y2-S2-004K21,-,23,PS,adaptive,33,←,left,←,0.7492186999879777,True,11,-1,0,0
Y2-S2-004K21,-,24,PS,adaptive,46,↑,up,↑,0.7245612000115216,True,11,-1,0,0
Y2-S2-004K21,-,25,PS,adaptive,31,←,up,↑,1.075107000011485,False,11,-1,0,0
Y2-S2-004K21,-,26,PS,adaptive,47,↑,up,↑,0.5947310000192374,True,12,-1,0,0
Y2-S2-004K21,-,27,PS,adaptive,37,↓,right,→,1.3984931000159122,False,12,-1,0,0
Y2-S2-004K21,-,28,PS,adaptive,49,→,right,→,0.5174141000024974,True,13,-1,0,0
Y2-S2-004K21,-,29,PS,adaptive,39,↑,right,→,1.2337955000111833,False,13,-1,0,0
Y2-S2-004K21,-,30,PS,adaptive,40,↓,down,↓,0.6946597999776714,True,14,-1,0,0
Y2-S2-004K21,-,31,PS,adaptive,46,←,left,←,0.5282573999720626,True,14,-1,0,0
Y2-S2-004K21,-,32,PS,adaptive,29,↑,up,↑,0.5175868999795057,True,14,1,1,1
Y2-S2-004K21,-,33,PS,adaptive,27,←,left,←,0.6265642999787815,True,13,1,0,1
Y2-S2-004K21,-,34,PS,adaptive,26,→,right,→,0.4761356000090018,True,13,1,0,1
Y2-S2-004K21,-,35,PS,adaptive,47,↓,down,↓,0.923194799979683,True,13,1,0,1
Y2-S2-004K21,-,36,PS,adaptive,41,←,left,←,0.5257735000341199,True,12,1,0,1
Y2-S2-004K21,-,37,PS,adaptive,28,↑,up,↑,0.9705301999929361,True,12,1,0,1
Y2-S2-004K21,-,38,PS,adaptive,27,→,left,←,0.6198915999848396,False,12,-1,1,2
Y2-S2-004K21,-,39,PS,adaptive,47,↑,up,↑,0.463422900007572,True,13,-1,0,2
Y2-S2-004K21,-,40,PS,adaptive,46,→,right,→,0.5836674000020139,True,13,-1,0,2
Y2-S2-004K21,-,41,PS,adaptive,26,↓,down,↓,0.7190569000085816,True,13,1,1,3
Y2-S2-004K21,-,42,PS,adaptive,38,←,right,→,0.6864606000017375,False,12,-1,1,4
Y2-S2-004K21,-,43,AS,adaptive,40,↓,up,↑,0.9398924999986775,False,20,-1,0,0
Y2-S2-004K21,-,44,AS,adaptive,46,←,left,←,0.5687461999477819,True,21,-1,0,0
Y2-S2-004K21,-,45,AS,adaptive,34,→,right,→,0.5766273000044748,True,21,-1,0,0
Y2-S2-004K21,-,46,AS,adaptive,30,↑,up,↑,0.6087365999701433,True,21,1,1,1
Y2-S2-004K21,-,47,AS,adaptive,33,←,left,←,0.558724100003019,True,20,1,0,1
Y2-S2-004K21,-,48,AS,adaptive,46,↑,up,↑,0.40062570001464337,True,20,1,0,1
Y2-S2-004K21,-,49,AS,adaptive,31,↓,down,↓,0.5667569999932311,True,20,1,0,1
Y2-S2-004K21,-,50,AS,adaptive,37,→,right,→,0.4502658999990672,True,19,1,0,1
Y2-S2-004K21,-,51,AS,adaptive,47,↑,up,↑,0.494122400006745,True,19,1,0,1
Y2-S2-004K21,-,52,AS,adaptive,50,←,left,←,0.722930499992799,True,19,1,0,1
Y2-S2-004K21,-,53,AS,adaptive,28,↓,down,↓,0.8575759999803267,True,18,1,0,1
Y2-S2-004K21,-,54,AS,adaptive,42,→,right,→,0.6399116999818943,True,18,1,0,1
Y2-S2-004K21,-,55,AS,adaptive,31,←,left,←,0.807076999975834,True,18,1,0,1
Y2-S2-004K21,-,56,AS,adaptive,29,↑,up,↑,0.5878559999982826,True,17,1,0,1
Y2-S2-004K21,-,57,AS,adaptive,32,←,right,→,0.80931599996984,False,17,-1,1,2
Y2-S2-004K21,-,58,AS,adaptive,32,↑,up,↑,0.5519654999952763,True,18,-1,0,2
Y2-S2-004K21,-,59,AS,adaptive,30,↓,down,↓,0.687771899974905,True,18,-1,0,2
Y2-S2-004K21,-,60,AS,adaptive,33,↑,up,↑,0.6213007000042126,True,18,1,1,3
Y2-S2-004K21,-,61,AS,adaptive,35,↓,down,↓,0.7353920000023209,True,17,1,0,3
Y2-S2-004K21,-,62,AS,adaptive,45,←,left,←,0.8659127000137232,True,17,1,0,3
Y2-S2-004K21,-,63,AS,adaptive,29,→,right,→,0.5004257999826223,True,17,1,0,3
Y2-S2-004K21,-,64,AS,adaptive,34,←,left,←,0.7116646000067703,True,16,1,0,3
Y2-S2-004K21,-,65,AS,adaptive,50,→,left,←,0.8313730000518262,False,16,-1,1,4
Y2-S2-004K21,1,66,AS,intra_train,37,←,left,←,0.6033278999966569,True,25,-,-,-
Y2-S2-004K21,1,67,AS,intra_train,40,↓,down,↓,0.6699751000269316,True,25,-,-,-
Y2-S2-004K21,1,68,AS,intra_train,32,→,right,→,1.1735481999930926,True,25,-,-,-
Y2-S2-004K21,1,69,AS,intra_train,37,↓,down,↓,0.7007578999619,True,25,-,-,-
Y2-S2-004K21,1,70,AS,intra_train,47,↑,up,↑,0.9347231999854557,True,25,-,-,-
Y2-S2-004K21,1,71,AS,exp,25,←,left,←,0.5098945000208914,True,17,0,0,0
Y2-S2-004K21,1,72,AS,exp,49,→,right,→,0.5834403000189923,True,17,0,0,0
Y2-S2-004K21,1,73,AS,exp,31,↓,down,↓,0.6900933999568224,True,17,1,0,0
Y2-S2-004K21,1,74,AS,exp,49,→,right,→,0.468839899986051,True,16,1,0,0
Y2-S2-004K21,1,75,AS,exp,48,↓,down,↓,0.7145642999676056,True,16,1,0,0
Y2-S2-004K21,1,76,AS,exp,36,↑,up,↑,0.6264266999787651,True,16,1,0,0
Y2-S2-004K21,1,77,AS,exp,45,←,right,→,0.6963211999973282,False,15,-1,1,1
Y2-S2-004K21,1,78,AS,exp,42,↓,right,→,0.6721339999930933,False,16,-1,0,1
Y2-S2-004K21,1,79,AS,exp,30,←,left,←,0.705141199985519,True,17,-1,0,1
Y2-S2-004K21,1,80,AS,exp,50,↓,down,↓,0.6602884000167251,True,17,-1,0,1
Y2-S2-004K21,1,81,AS,exp,32,↑,right,→,1.6192468000226654,False,17,-1,0,1
Y2-S2-004K21,1,82,AS,exp,29,↓,down,↓,0.5915301999775693,True,18,-1,0,1
Y2-S2-004K21,1,83,AS,exp,47,←,left,←,0.5783351000281982,True,18,-1,0,1
Y2-S2-004K21,1,84,AS,exp,42,↑,up,↑,0.6940747000044212,True,18,1,1,2
Y2-S2-004K21,1,85,AS,exp,35,←,left,←,0.576146500010509,True,17,1,0,2
Y2-S2-004K21,1,86,AS,exp,49,↑,up,↑,0.741822800016962,True,17,1,0,2
Y2-S2-004K21,1,87,AS,exp,37,←,left,←,0.6701875000144355,True,17,1,0,2
Y2-S2-004K21,1,88,AS,exp,47,→,right,→,0.5143609000369906,True,16,1,0,2
Y2-S2-004K21,1,89,AS,exp,46,↓,up,↑,0.6929484999855049,False,16,-1,1,3
Y2-S2-004K21,1,90,AS,exp,32,↑,up,↑,0.5975199000095017,True,17,-1,0,3
Y2-S2-004K21,1,91,AS,exp,29,←,left,←,0.6301185000338592,True,17,-1,0,3
Y2-S2-004K21,1,92,AS,exp,42,↑,up,↑,0.6304506000014953,True,17,1,1,4
Y2-S2-004K21,1,93,AS,exp,34,←,left,←,0.6484954000334255,True,16,1,0,4
Y2-S2-004K21,1,94,AS,exp,44,↓,down,↓,0.7708425999735482,True,16,1,0,4
Y2-S2-004K21,1,95,AS,exp,49,↑,up,↑,0.7511423000250943,True,16,1,0,4
Y2-S2-004K21,1,96,AS,exp,40,→,right,→,0.48968980001518503,True,15,1,0,4
Y2-S2-004K21,1,97,AS,exp,38,↑,up,↑,0.5773881999775767,True,15,1,0,4
Y2-S2-004K21,1,98,AS,exp,44,←,left,←,0.5327726000105031,True,15,1,0,4
Y2-S2-004K21,1,99,AS,exp,29,↓,down,↓,1.141104499984067,True,14,1,0,4
Y2-S2-004K21,1,100,AS,exp,32,←,left,←,0.44791009998880327,True,14,1,0,4
Y2-S2-004K21,1,101,AS,exp,25,↓,down,↓,0.7907826000009663,True,14,1,0,4
Y2-S2-004K21,1,102,AS,exp,39,↑,up,↑,0.4632941000163555,True,13,1,0,4
Y2-S2-004K21,1,103,AS,exp,35,↓,right,→,1.1375914000091143,False,13,-1,1,5
Y2-S2-004K21,1,104,AS,exp,46,↑,up,↑,0.5785011000116356,True,14,-1,0,5
Y2-S2-004K21,1,105,AS,exp,38,←,left,←,0.6196326999925077,True,14,-1,0,5
Y2-S2-004K21,1,106,AS,exp,37,↓,up,↑,0.5464129999745637,False,14,-1,0,5
Y2-S2-004K21,1,107,AS,exp,50,←,down,↓,0.8293844999861903,False,15,-1,0,5
Y2-S2-004K21,1,108,AS,exp,34,↓,down,↓,0.6350134999956936,True,16,-1,0,5
Y2-S2-004K21,1,109,AS,exp,48,←,left,←,0.6984812999726273,True,16,-1,0,5
Y2-S2-004K21,1,110,AS,exp,42,↑,down,↓,0.7278224999899976,False,16,-1,0,5
Y2-S2-004K21,1,111,AS,exp,28,←,left,←,0.5063558000256307,True,17,-1,0,5
Y2-S2-004K21,1,112,AS,exp,40,↓,down,↓,0.8711870000115596,True,17,-1,0,5
Y2-S2-004K21,1,113,AS,exp,27,↑,up,↑,0.7801213000202551,True,17,1,1,6
Y2-S2-004K21,1,114,AS,exp,46,←,left,←,0.5843520000344142,True,16,1,0,6
Y2-S2-004K21,1,115,AS,exp,39,↓,down,↓,0.666933800035622,True,16,1,0,6
Y2-S2-004K21,1,116,AS,exp,30,↑,up,↑,0.8249326000222936,True,16,1,0,6
Y2-S2-004K21,1,117,AS,exp,28,←,left,←,0.6137807999621145,True,15,1,0,6
Y2-S2-004K21,1,118,AS,exp,27,↑,up,↑,0.515355899988208,True,15,1,0,6
Y2-S2-004K21,1,119,AS,exp,26,←,left,←,0.5021519999718294,True,15,1,0,6
Y2-S2-004K21,1,120,AS,exp,48,↑,right,→,0.4930100000347011,False,14,-1,1,7
Y2-S2-004K21,1,121,AS,exp,40,←,left,←,0.6329685999662615,True,15,-1,0,7
Y2-S2-004K21,1,122,AS,exp,35,↓,down,↓,0.641897399968002,True,15,-1,0,7
Y2-S2-004K21,1,123,AS,exp,26,↑,down,↓,0.6477654000045732,False,15,-1,0,7
Y2-S2-004K21,1,124,AS,exp,35,↓,down,↓,0.6637431000126526,True,16,-1,0,7
Y2-S2-004K21,1,125,AS,exp,28,↑,up,↑,0.5435526000219397,True,16,-1,0,7
Y2-S2-004K21,1,126,AS,exp,31,→,right,→,0.5669571000034921,True,16,1,1,8
Y2-S2-004K21,1,127,AS,exp,46,←,left,←,0.6518951999605633,True,15,1,0,8
Y2-S2-004K21,1,128,AS,exp,35,↑,right,→,0.8278626000392251,False,15,-1,1,9
Y2-S2-004K21,1,129,AS,exp,33,→,right,→,0.4652424000087194,True,16,-1,0,9
Y2-S2-004K21,1,130,AS,exp,45,←,up,↑,0.8565948000177741,False,16,-1,0,9
Y2-S2-004K21,1,131,AS,exp,38,→,right,→,0.5094702999922447,True,17,-1,0,9
Y2-S2-004K21,1,132,AS,exp,35,←,left,←,0.795783500012476,True,17,-1,0,9
Y2-S2-004K21,1,133,AS,exp,49,↓,up,↑,0.5044776999857277,False,17,-1,0,9
Y2-S2-004K21,1,134,AS,exp,50,↑,no_key,no_letter,-1.0,False,18,-1,0,9
Y2-S2-004K21,1,135,AS,exp,48,←,left,←,1.3164852999616414,True,19,-1,0,9
Y2-S2-004K21,1,136,AS,exp,44,↑,up,↑,0.6100597000331618,True,19,-1,0,9
Y2-S2-004K21,1,137,AS,exp,38,↓,down,↓,0.6713335999520496,True,19,1,1,10
Y2-S2-004K21,1,138,AS,exp,49,→,right,→,0.5749435999896377,True,18,1,0,10
Y2-S2-004K21,1,139,AS,exp,47,↑,up,↑,0.8114571000332944,True,18,1,0,10
Y2-S2-004K21,1,140,AS,exp,29,←,left,←,0.7378126999828964,True,18,1,0,10
Y2-S2-004K21,1,141,AS,exp,50,↓,up,↑,0.6402935000369325,False,17,-1,1,11
Y2-S2-004K21,1,142,AS,exp,40,→,right,→,0.5962665000115521,True,18,-1,0,11
Y2-S2-004K21,1,143,AS,exp,31,↑,down,↓,0.6796227999730036,False,18,-1,0,11
Y2-S2-004K21,1,144,AS,exp,30,↓,down,↓,0.7300436999648809,True,19,-1,0,11
Y2-S2-004K21,1,145,AS,exp,48,↑,up,↑,0.8159467999939807,True,19,-1,0,11
Y2-S2-004K21,1,146,AS,exp,35,←,left,←,0.700157199986279,True,19,1,1,12
Y2-S2-004K21,1,147,AS,exp,37,→,right,→,0.6025744000216946,True,18,1,0,12
Y2-S2-004K21,1,148,AS,exp,33,↑,up,↑,0.6262573000276461,True,18,1,0,12
Y2-S2-004K21,1,149,AS,exp,26,→,right,→,0.7343870000331663,True,18,1,0,12
Y2-S2-004K21,1,150,AS,exp,29,←,left,←,0.7684033999685198,True,17,1,0,12
Y2-S2-004K21,1,151,AS,exp,27,→,left,←,1.0088894999935292,False,17,-1,1,13
Y2-S2-004K21,1,152,AS,exp,32,↓,down,↓,0.9128015000023879,True,18,-1,0,13
Y2-S2-004K21,1,153,AS,exp,41,→,right,→,0.6697013000375591,True,18,-1,0,13
Y2-S2-004K21,1,154,AS,exp,33,↑,up,↑,0.5999652000027709,True,18,1,1,14
Y2-S2-004K21,1,155,AS,exp,46,←,left,←,0.7330751999979839,True,17,1,0,14
Y2-S2-004K21,1,156,AS,exp,31,↓,down,↓,0.7989490000181831,True,17,1,0,14
Y2-S2-004K21,1,157,AS,exp,49,→,right,→,0.7143650000216439,True,17,1,0,14
Y2-S2-004K21,1,158,AS,exp,36,←,left,←,0.6820140999625437,True,16,1,0,14
Y2-S2-004K21,1,159,AS,exp,36,↓,down,↓,0.7345357000012882,True,16,1,0,14
Y2-S2-004K21,1,160,AS,exp,30,←,left,←,0.7543858999852091,True,16,1,0,14
Y2-S2-004K21,1,161,AS,exp,39,→,right,→,0.7827218000311404,True,15,1,0,14
Y2-S2-004K21,1,162,AS,exp,34,↑,up,↑,0.6638664999627508,True,15,1,0,14
Y2-S2-004K21,1,163,AS,exp,43,↓,down,↓,0.9680626000044867,True,15,1,0,14
Y2-S2-004K21,1,164,AS,exp,45,←,left,←,0.7788431000080891,True,14,1,0,14
Y2-S2-004K21,1,165,AS,exp,32,→,up,↑,0.7931478000245988,False,14,-1,1,15
Y2-S2-004K21,1,166,AS,exp,48,←,left,←,0.9617197000188753,True,15,-1,0,15
Y2-S2-004K21,1,167,AS,exp,45,↓,right,→,0.687616600014735,False,15,-1,0,15
Y2-S2-004K21,1,168,AS,exp,45,↑,up,↑,0.9268477999721654,True,16,-1,0,15
Y2-S2-004K21,1,169,AS,exp,31,←,left,←,0.6567402000073344,True,16,-1,0,15
Y2-S2-004K21,1,170,AS,exp,48,↓,down,↓,0.6494700000039302,True,16,1,1,16
Y2-S2-004K21,2,171,PS,intra_train,28,→,right,→,0.6213360999827273,True,19,-,-,-
Y2-S2-004K21,2,172,PS,intra_train,36,←,left,←,1.218477200018242,True,19,-,-,-
Y2-S2-004K21,2,173,PS,intra_train,49,↓,down,↓,0.8544503000448458,True,19,-,-,-
Y2-S2-004K21,2,174,PS,intra_train,32,←,left,←,0.5051978999981657,True,19,-,-,-
Y2-S2-004K21,2,175,PS,intra_train,42,→,right,→,0.511825299996417,True,19,-,-,-
Y2-S2-004K21,2,176,PS,exp,41,←,left,←,0.4722590000019409,True,13,0,0,0
Y2-S2-004K21,2,177,PS,exp,47,↑,up,↑,0.7846650999854319,True,13,0,0,0
Y2-S2-004K21,2,178,PS,exp,38,→,right,→,0.5140589000075124,True,13,1,0,0
Y2-S2-004K21,2,179,PS,exp,49,↑,up,↑,0.5364700999925844,True,12,1,0,0
Y2-S2-004K21,2,180,PS,exp,35,→,right,→,0.4602916000294499,True,12,1,0,0
Y2-S2-004K21,2,181,PS,exp,36,↑,up,↑,0.47287739999592304,True,12,1,0,0
Y2-S2-004K21,2,182,PS,exp,45,→,right,→,0.5071187999565154,True,11,1,0,0
Y2-S2-004K21,2,183,PS,exp,30,↓,down,↓,0.625790300022345,True,11,1,0,0
Y2-S2-004K21,2,184,PS,exp,40,→,up,↑,0.6998234000056982,False,11,-1,1,1
Y2-S2-004K21,2,185,PS,exp,48,←,down,↓,0.9438591999933124,False,12,-1,0,1
Y2-S2-004K21,2,186,PS,exp,38,→,right,→,0.4502413999871351,True,13,-1,0,1
Y2-S2-004K21,2,187,PS,exp,38,↑,up,↑,0.5567210000008345,True,13,-1,0,1
Y2-S2-004K21,2,188,PS,exp,29,→,right,→,0.4464556000311859,True,13,1,1,2
Y2-S2-004K21,2,189,PS,exp,34,←,left,←,0.5498158999835141,True,12,1,0,2
Y2-S2-004K21,2,190,PS,exp,39,↓,down,↓,0.5879286000272259,True,12,1,0,2
Y2-S2-004K21,2,191,PS,exp,49,↑,up,↑,0.4395850000437349,True,12,1,0,2
Y2-S2-004K21,2,192,PS,exp,38,↓,down,↓,0.6352705000317656,True,11,1,0,2
Y2-S2-004K21,2,193,PS,exp,37,←,left,←,0.5440474000060931,True,11,1,0,2
Y2-S2-004K21,2,194,PS,exp,28,→,right,→,0.4330727999913506,True,11,1,0,2
Y2-S2-004K21,2,195,PS,exp,47,←,left,←,0.8943627000553533,True,10,1,0,2
Y2-S2-004K21,2,196,PS,exp,50,↑,up,↑,0.4735977000091225,True,10,1,0,2
Y2-S2-004K21,2,197,PS,exp,50,↓,up,↑,0.5634451999794692,False,10,-1,1,3
Y2-S2-004K21,2,198,PS,exp,27,→,right,→,1.4971781999920495,True,11,-1,0,3
Y2-S2-004K21,2,199,PS,exp,35,←,left,←,0.5703039999934845,True,11,-1,0,3
Y2-S2-004K21,2,200,PS,exp,43,→,right,→,0.755674900021404,True,11,1,1,4
Y2-S2-004K21,2,201,PS,exp,45,←,left,←,0.4460133999818936,True,10,1,0,4
Y2-S2-004K21,2,202,PS,exp,37,↑,up,↑,0.5808503000298515,True,10,1,0,4
Y2-S2-004K21,2,203,PS,exp,31,↓,up,↑,0.7103520999662578,False,10,-1,1,5
Y2-S2-004K21,2,204,PS,exp,44,↑,up,↑,0.5110306999995373,True,11,-1,0,5
Y2-S2-004K21,2,205,PS,exp,36,→,right,→,0.47373019997030497,True,11,-1,0,5
Y2-S2-004K21,2,206,PS,exp,36,←,up,↑,0.6707185999839567,False,11,-1,0,5
Y2-S2-004K21,2,207,PS,exp,37,→,right,→,0.5949266000534408,True,12,-1,0,5
Y2-S2-004K21,2,208,PS,exp,40,↑,up,↑,0.48123069998109713,True,12,-1,0,5
Y2-S2-004K21,2,209,PS,exp,45,→,right,→,0.5166053000139073,True,12,1,1,6
Y2-S2-004K21,2,210,PS,exp,37,↓,up,↑,0.5883569999714382,False,11,-1,1,7
Y2-S2-004K21,2,211,PS,exp,27,↑,up,↑,0.43589739996241406,True,12,-1,0,7
Y2-S2-004K21,2,212,PS,exp,49,→,right,→,0.5299542000284418,True,12,-1,0,7
Y2-S2-004K21,2,213,PS,exp,30,↑,up,↑,0.4722821000032127,True,12,1,1,8
Y2-S2-004K21,2,214,PS,exp,29,←,up,↑,0.35332940000807866,False,11,-1,1,9
Y2-S2-004K21,2,215,PS,exp,47,↑,up,↑,0.4637718999874778,True,12,-1,0,9
Y2-S2-004K21,2,216,PS,exp,38,→,right,→,0.6230486000422388,True,12,-1,0,9
Y2-S2-004K21,2,217,PS,exp,35,←,left,←,0.5793333000037819,True,12,1,1,10
Y2-S2-004K21,2,218,PS,exp,30,↑,up,↑,0.4884231999749318,True,11,1,0,10
Y2-S2-004K21,2,219,PS,exp,28,→,right,→,0.4659373000031337,True,11,1,0,10
Y2-S2-004K21,2,220,PS,exp,34,←,left,←,0.6079673999920487,True,11,1,0,10
Y2-S2-004K21,2,221,PS,exp,49,→,up,↑,0.5766378999687731,False,10,-1,1,11
Y2-S2-004K21,2,222,PS,exp,35,←,left,←,0.4225406000041403,True,11,-1,0,11
Y2-S2-004K21,2,223,PS,exp,35,↑,right,→,0.712013799988199,False,11,-1,0,11
Y2-S2-004K21,2,224,PS,exp,40,↓,down,↓,1.3735146999824792,True,12,-1,0,11
Y2-S2-004K21,2,225,PS,exp,32,←,left,←,0.6011372999637388,True,12,-1,0,11
Y2-S2-004K21,2,226,PS,exp,45,↑,up,↑,0.5059699000557885,True,12,1,1,12
Y2-S2-004K21,2,227,PS,exp,28,→,right,→,0.5394411999732256,True,11,1,0,12
Y2-S2-004K21,2,228,PS,exp,34,↓,left,←,0.8957722000195645,False,11,-1,1,13
Y2-S2-004K21,2,229,PS,exp,30,→,right,→,0.6216114000417292,True,12,-1,0,13
Y2-S2-004K21,2,230,PS,exp,43,←,up,↑,0.7278047999716364,False,12,-1,0,13
Y2-S2-004K21,2,231,PS,exp,34,↓,up,↑,0.6046751000103541,False,13,-1,0,13
Y2-S2-004K21,2,232,PS,exp,29,↑,up,↑,0.31725849997019395,True,14,-1,0,13
Y2-S2-004K21,2,233,PS,exp,44,↓,up,↑,0.7822681000106968,False,14,-1,0,13
Y2-S2-004K21,2,234,PS,exp,28,←,left,←,0.5649601999903098,True,15,-1,0,13
Y2-S2-004K21,2,235,PS,exp,32,↓,down,↓,0.6307862999965437,True,15,-1,0,13
Y2-S2-004K21,2,236,PS,exp,47,←,left,←,0.574716700008139,True,15,1,1,14
Y2-S2-004K21,2,237,PS,exp,26,↑,up,↑,0.5196068999939598,True,14,1,0,14
Y2-S2-004K21,2,238,PS,exp,41,→,right,→,0.46859239996410906,True,14,1,0,14
Y2-S2-004K21,2,239,PS,exp,35,←,left,←,0.459607099997811,True,14,1,0,14
Y2-S2-004K21,2,240,PS,exp,50,→,left,←,0.9353304999531247,False,13,-1,1,15
Y2-S2-004K21,2,241,PS,exp,30,↓,down,↓,0.9157138000009581,True,14,-1,0,15
Y2-S2-004K21,2,242,PS,exp,48,←,left,←,0.46488000004319474,True,14,-1,0,15
Y2-S2-004K21,2,243,PS,exp,32,↑,up,↑,0.5495322999777272,True,14,1,1,16
Y2-S2-004K21,3,244,PS,intra_train,30,←,left,←,0.5193473999970593,True,19,-,-,-
Y2-S2-004K21,3,245,PS,intra_train,48,↓,down,↓,0.5886182999820448,True,19,-,-,-
Y2-S2-004K21,3,246,PS,intra_train,36,←,left,←,0.417320899956394,True,19,-,-,-
Y2-S2-004K21,3,247,PS,intra_train,33,↓,down,↓,0.5449540999834426,True,19,-,-,-
Y2-S2-004K21,3,248,PS,intra_train,39,→,right,→,1.0208482999587432,True,19,-,-,-
Y2-S2-004K21,3,249,PS,exp,50,↓,down,↓,0.6407322000013664,True,13,0,0,0
Y2-S2-004K21,3,250,PS,exp,41,↑,up,↑,0.7400768999941647,True,13,0,0,0
Y2-S2-004K21,3,251,PS,exp,32,←,left,←,0.621830299962312,True,13,1,0,0
Y2-S2-004K21,3,252,PS,exp,45,↓,right,→,0.7488469000090845,False,12,-1,1,1
Y2-S2-004K21,3,253,PS,exp,46,←,left,←,0.5310191999888048,True,13,-1,0,1
Y2-S2-004K21,3,254,PS,exp,48,↑,up,↑,0.5615986000047997,True,13,-1,0,1
Y2-S2-004K21,3,255,PS,exp,36,←,left,←,0.4769527000025846,True,13,1,1,2
Y2-S2-004K21,3,256,PS,exp,27,↓,down,↓,0.7486574000213295,True,12,1,0,2
Y2-S2-004K21,3,257,PS,exp,30,→,right,→,0.5368506000377238,True,12,1,0,2
Y2-S2-004K21,3,258,PS,exp,42,↓,down,↓,0.6913073000032455,True,12,1,0,2
Y2-S2-004K21,3,259,PS,exp,47,↑,up,↑,0.6002951999544166,True,11,1,0,2
Y2-S2-004K21,3,260,PS,exp,48,→,right,→,0.4696076000109315,True,11,1,0,2
Y2-S2-004K21,3,261,PS,exp,49,←,left,←,0.8148541999980807,True,11,1,0,2
Y2-S2-004K21,3,262,PS,exp,46,↓,right,→,0.5844880000222474,False,10,-1,1,3
Y2-S2-004K21,3,263,PS,exp,39,→,right,→,0.47899669996695593,True,11,-1,0,3
Y2-S2-004K21,3,264,PS,exp,36,←,left,←,0.64076889998978,True,11,-1,0,3
Y2-S2-004K21,3,265,PS,exp,46,→,right,→,0.5835649999789894,True,11,1,1,4
Y2-S2-004K21,3,266,PS,exp,42,↑,up,↑,0.42461340001318604,True,10,1,0,4
Y2-S2-004K21,3,267,PS,exp,34,←,left,←,0.5034207999706268,True,10,1,0,4
Y2-S2-004K21,3,268,PS,exp,37,↓,up,↑,0.6043982999981381,False,10,-1,1,5
Y2-S2-004K21,3,269,PS,exp,46,↑,up,↑,0.595227400015574,True,11,-1,0,5
Y2-S2-004K21,3,270,PS,exp,38,↓,down,↓,0.7441127999918535,True,11,-1,0,5
Y2-S2-004K21,3,271,PS,exp,37,↑,right,→,0.702357399975881,False,11,-1,0,5
Y2-S2-004K21,3,272,PS,exp,36,↓,left,←,0.6669947999762371,False,12,-1,0,5
Y2-S2-004K21,3,273,PS,exp,41,↑,right,→,0.601448800007347,False,13,-1,0,5
Y2-S2-004K21,3,274,PS,exp,33,↓,down,↓,0.6743659999920055,True,14,-1,0,5
Y2-S2-004K21,3,275,PS,exp,35,↑,up,↑,1.196994600002654,True,14,-1,0,5
Y2-S2-004K21,3,276,PS,exp,33,→,right,→,0.4303778999601491,True,14,1,1,6
Y2-S2-004K21,3,277,PS,exp,48,←,left,←,0.6050077999825589,True,13,1,0,6
Y2-S2-004K21,3,278,PS,exp,30,↑,up,↑,0.6165653000352904,True,13,1,0,6
Y2-S2-004K21,3,279,PS,exp,46,↓,down,↓,0.6393084999872372,True,13,1,0,6
Y2-S2-004K21,3,280,PS,exp,50,↑,up,↑,0.6292888000025414,True,12,1,0,6
Y2-S2-004K21,3,281,PS,exp,29,←,left,←,0.7611655999789946,True,12,1,0,6
Y2-S2-004K21,3,282,PS,exp,27,→,right,→,0.5527177000185475,True,12,1,0,6
Y2-S2-004K21,3,283,PS,exp,48,←,left,←,0.42355359997600317,True,11,1,0,6
Y2-S2-004K21,3,284,PS,exp,34,↓,down,↓,0.5735040999716148,True,11,1,0,6
Y2-S2-004K21,3,285,PS,exp,40,←,left,←,0.5634118000161834,True,11,1,0,6
Y2-S2-004K21,3,286,PS,exp,49,↑,up,↑,0.4742930000065826,True,10,1,0,6
Y2-S2-004K21,3,287,PS,exp,26,←,left,←,0.38938369997777045,True,10,1,0,6
Y2-S2-004K21,3,288,PS,exp,26,→,right,→,0.44965980004053563,True,10,1,0,6
Y2-S2-004K21,3,289,PS,exp,33,↑,up,↑,0.4270793999894522,True,9,1,0,6
Y2-S2-004K21,3,290,PS,exp,39,←,left,←,0.6017188999685459,True,9,1,0,6
Y2-S2-004K21,3,291,PS,exp,30,↑,up,↑,0.4234462000313215,True,9,1,0,6
Y2-S2-004K21,3,292,PS,exp,47,←,right,→,0.7598893999820575,False,8,-1,1,7
Y2-S2-004K21,3,293,PS,exp,37,↓,up,↑,0.6386061999946833,False,9,-1,0,7
Y2-S2-004K21,3,294,PS,exp,42,↑,up,↑,0.6079993000021204,True,10,-1,0,7
Y2-S2-004K21,3,295,PS,exp,37,→,down,↓,0.5005261999904178,False,10,-1,0,7
Y2-S2-004K21,3,296,PS,exp,35,←,right,→,0.36228440003469586,False,11,-1,0,7
Y2-S2-004K21,3,297,PS,exp,40,↑,right,→,0.43303580000065267,False,12,-1,0,7
Y2-S2-004K21,3,298,PS,exp,28,↓,down,↓,0.7042132999631576,True,13,-1,0,7
Y2-S2-004K21,3,299,PS,exp,43,→,right,→,0.5910330999759026,True,13,-1,0,7
Y2-S2-004K21,3,300,PS,exp,34,↓,down,↓,0.6074690999812447,True,13,1,1,8
Y2-S2-004K21,3,301,PS,exp,32,→,right,→,0.6826652999734506,True,12,1,0,8
Y2-S2-004K21,3,302,PS,exp,34,↓,down,↓,0.509324100043159,True,12,1,0,8
Y2-S2-004K21,3,303,PS,exp,41,→,right,→,0.5401566999498755,True,12,1,0,8
Y2-S2-004K21,3,304,PS,exp,29,↓,down,↓,0.46161910000955686,True,11,1,0,8
Y2-S2-004K21,3,305,PS,exp,45,↑,down,↓,1.4504151999717578,False,11,-1,1,9
Y2-S2-004K21,3,306,PS,exp,47,→,right,→,0.6565160999889486,True,12,-1,0,9
Y2-S2-004K21,3,307,PS,exp,31,↓,down,↓,0.5523304999805987,True,12,-1,0,9
Y2-S2-004K21,3,308,PS,exp,45,→,right,→,0.5886329999775626,True,12,1,1,10
Y2-S2-004K21,3,309,PS,exp,37,↓,down,↓,0.57687900000019,True,11,1,0,10
Y2-S2-004K21,3,310,PS,exp,36,←,right,→,0.6887070999946445,False,11,-1,1,11
Y2-S2-004K21,3,311,PS,exp,32,↓,down,↓,0.4590304000303149,True,12,-1,0,11
Y2-S2-004K21,3,312,PS,exp,38,↑,up,↑,0.6685088999802247,True,12,-1,0,11
Y2-S2-004K21,3,313,PS,exp,35,→,right,→,0.49351259996183217,True,12,1,1,12
Y2-S2-004K21,3,314,PS,exp,35,↑,up,↑,0.5619806000031531,True,11,1,0,12
Y2-S2-004K21,3,315,PS,exp,41,→,right,→,0.5189085000311024,True,11,1,0,12
Y2-S2-004K21,3,316,PS,exp,47,↓,down,↓,0.6828903999994509,True,11,1,0,12
Y2-S2-004K21,3,317,PS,exp,40,↑,right,→,0.7009516999823973,False,10,-1,1,13
Y2-S2-004K21,3,318,PS,exp,47,←,left,←,0.5103224000195041,True,11,-1,0,13
Y2-S2-004K21,3,319,PS,exp,47,↑,right,→,0.7735322000226006,False,11,-1,0,13
Y2-S2-004K21,3,320,PS,exp,34,←,left,←,0.5773846000083722,True,12,-1,0,13
Y2-S2-004K21,3,321,PS,exp,33,↑,left,←,0.859791100025177,False,12,-1,0,13
Y2-S2-004K21,3,322,PS,exp,40,↓,up,↑,1.6321130999713205,False,13,-1,0,13
Y2-S2-004K21,3,323,PS,exp,33,→,right,→,0.7863503000116907,True,14,-1,0,13
Y2-S2-004K21,3,324,PS,exp,25,↑,up,↑,0.45719539996935055,True,14,-1,0,13
Y2-S2-004K21,3,325,PS,exp,44,→,right,→,0.48631860001478344,True,14,1,1,14
Y2-S2-004K21,3,326,PS,exp,31,↓,up,↑,0.8130932999774814,False,13,-1,1,15
Y2-S2-004K21,3,327,PS,exp,31,←,right,→,0.6967172999866307,False,14,-1,0,15
Y2-S2-004K21,3,328,PS,exp,28,↑,up,↑,0.8013279999722727,True,15,-1,0,15
Y2-S2-004K21,3,329,PS,exp,48,↓,down,↓,1.3587348000146449,True,15,-1,0,15
Y2-S2-004K21,3,330,PS,exp,35,→,right,→,0.5942866000114009,True,15,1,1,16
Y2-S2-004K21,4,331,AS,intra_train,38,←,left,←,0.6629087000037543,True,25,-,-,-
Y2-S2-004K21,4,332,AS,intra_train,32,↓,down,↓,0.796633199963253,True,25,-,-,-
Y2-S2-004K21,4,333,AS,intra_train,37,↑,down,↓,0.017463100026361644,False,25,-,-,-
Y2-S2-004K21,4,334,AS,intra_train,45,←,left,←,1.5911332000396214,True,25,-,-,-
Y2-S2-004K21,4,335,AS,intra_train,32,↓,down,↓,0.986452899989672,True,25,-,-,-
Y2-S2-004K21,4,336,AS,exp,38,↑,down,↓,1.4661595999496058,False,17,-1,0,0
Y2-S2-004K21,4,337,AS,exp,41,↓,down,↓,0.5531600000103936,True,18,-1,0,0
Y2-S2-004K21,4,338,AS,exp,36,→,right,→,0.684950300026685,True,18,-1,0,0
Y2-S2-004K21,4,339,AS,exp,40,←,right,→,0.4336444999789819,False,18,-1,0,0
Y2-S2-004K21,4,340,AS,exp,33,↑,up,↑,0.7075689999619499,True,19,-1,0,0
Y2-S2-004K21,4,341,AS,exp,25,←,left,←,0.4922590000205673,True,19,-1,0,0
Y2-S2-004K21,4,342,AS,exp,27,↑,up,↑,0.659258600033354,True,19,1,1,1
Y2-S2-004K21,4,343,AS,exp,41,→,right,→,0.6643195999786258,True,18,1,0,1
Y2-S2-004K21,4,344,AS,exp,40,←,left,←,0.6823161999927834,True,18,1,0,1
Y2-S2-004K21,4,345,AS,exp,35,↓,up,↑,0.6903625000268221,False,18,-1,1,2
Y2-S2-004K21,4,346,AS,exp,43,→,right,→,0.6637964000110514,True,19,-1,0,2
Y2-S2-004K21,4,347,AS,exp,34,↓,down,↓,0.7081115000182763,True,19,-1,0,2
Y2-S2-004K21,4,348,AS,exp,39,↑,up,↑,0.555310100025963,True,19,1,1,3
Y2-S2-004K21,4,349,AS,exp,26,→,right,→,0.5404297999921255,True,18,1,0,3
Y2-S2-004K21,4,350,AS,exp,25,↑,up,↑,0.5756166999926791,True,18,1,0,3
Y2-S2-004K21,4,351,AS,exp,49,→,right,→,0.5474223000346683,True,18,1,0,3
Y2-S2-004K21,4,352,AS,exp,32,←,left,←,0.9651679999660701,True,17,1,0,3
Y2-S2-004K21,4,353,AS,exp,31,→,up,↑,1.063996400043834,False,17,-1,1,4
Y2-S2-004K21,4,354,AS,exp,34,←,right,→,0.911515399988275,False,18,-1,0,4
Y2-S2-004K21,4,355,AS,exp,44,→,right,→,0.5434776999754831,True,19,-1,0,4
Y2-S2-004K21,4,356,AS,exp,41,↑,up,↑,0.6571124999900348,True,19,-1,0,4
Y2-S2-004K21,4,357,AS,exp,27,↓,down,↓,0.9331110999919474,True,19,1,1,5
Y2-S2-004K21,4,358,AS,exp,25,→,right,→,0.5470345999929123,True,18,1,0,5
Y2-S2-004K21,4,359,AS,exp,40,←,left,←,0.9822518000146374,True,18,1,0,5
Y2-S2-004K21,4,360,AS,exp,29,↑,up,↑,0.6054439000436105,True,18,1,0,5
Y2-S2-004K21,4,361,AS,exp,43,↓,down,↓,0.6591625000000931,True,17,1,0,5
Y2-S2-004K21,4,362,AS,exp,36,←,down,↓,0.25100740004563704,False,17,-1,1,6
Y2-S2-004K21,4,363,AS,exp,48,↑,up,↑,0.8683014000416733,True,18,-1,0,6
Y2-S2-004K21,4,364,AS,exp,26,→,right,→,0.5784464000025764,True,18,-1,0,6
Y2-S2-004K21,4,365,AS,exp,50,↓,up,↑,0.9930817999993451,False,18,-1,0,6
Y2-S2-004K21,4,366,AS,exp,36,↑,up,↑,0.5767665000166744,True,19,-1,0,6
Y2-S2-004K21,4,367,AS,exp,38,→,right,→,0.5635007000528276,True,19,-1,0,6
Y2-S2-004K21,4,368,AS,exp,42,↓,down,↓,1.0371321000275202,True,19,1,1,7
Y2-S2-004K21,4,369,AS,exp,47,→,right,→,0.6008597000036389,True,18,1,0,7
Y2-S2-004K21,4,370,AS,exp,46,←,left,←,1.0964585000183433,True,18,1,0,7
Y2-S2-004K21,4,371,AS,exp,36,↓,down,↓,0.6849806000245735,True,18,1,0,7
Y2-S2-004K21,4,372,AS,exp,45,↑,up,↑,0.7845776000176556,True,17,1,0,7
Y2-S2-004K21,4,373,AS,exp,27,↓,down,↓,0.6582751999958418,True,17,1,0,7
Y2-S2-004K21,4,374,AS,exp,46,←,right,→,0.9063474999857135,False,17,-1,1,8
Y2-S2-004K21,4,375,AS,exp,36,↓,down,↓,0.6096757000195794,True,18,-1,0,8
Y2-S2-004K21,4,376,AS,exp,36,←,left,←,0.5728466000291519,True,18,-1,0,8
Y2-S2-004K21,4,377,AS,exp,25,↓,down,↓,0.835368100029882,True,18,1,1,9
Y2-S2-004K21,4,378,AS,exp,37,←,left,←,0.5734803000232205,True,17,1,0,9
Y2-S2-004K21,4,379,AS,exp,27,→,right,→,0.6384557000128552,True,17,1,0,9
Y2-S2-004K21,4,380,AS,exp,30,←,left,←,0.5226758000208065,True,17,1,0,9
Y2-S2-004K21,4,381,AS,exp,43,↓,down,↓,0.827930000028573,True,16,1,0,9
Y2-S2-004K21,4,382,AS,exp,48,→,right,→,0.7818906999891624,True,16,1,0,9
Y2-S2-004K21,4,383,AS,exp,35,↑,up,↑,0.8186032000230625,True,16,1,0,9
Y2-S2-004K21,4,384,AS,exp,46,↓,down,↓,0.6271868000039831,True,15,1,0,9
Y2-S2-004K21,4,385,AS,exp,29,←,left,←,0.7353242000099272,True,15,1,0,9
Y2-S2-004K21,4,386,AS,exp,29,→,left,←,0.7612897999933921,False,15,-1,1,10
Y2-S2-004K21,4,387,AS,exp,38,←,right,→,0.5026692999526858,False,16,-1,0,10
Y2-S2-004K21,4,388,AS,exp,41,↑,up,↑,0.8439633999951184,True,17,-1,0,10
Y2-S2-004K21,4,389,AS,exp,45,↓,down,↓,0.6096450000186451,True,17,-1,0,10
Y2-S2-004K21,4,390,AS,exp,44,↑,up,↑,0.7475593999843113,True,17,1,1,11
Y2-S2-004K21,4,391,AS,exp,45,↓,down,↓,0.5626590000465512,True,16,1,0,11
Y2-S2-004K21,4,392,AS,exp,31,←,left,←,0.8721514000208117,True,16,1,0,11
Y2-S2-004K21,4,393,AS,exp,27,↑,up,↑,0.868409699993208,True,16,1,0,11
Y2-S2-004K21,4,394,AS,exp,48,←,left,←,0.6450466000242159,True,15,1,0,11
Y2-S2-004K21,4,395,AS,exp,45,→,right,→,0.6093419999815524,True,15,1,0,11
Y2-S2-004K21,4,396,AS,exp,35,↓,down,↓,0.6508160000084899,True,15,1,0,11
Y2-S2-004K21,4,397,AS,exp,33,→,right,→,0.5568761000176892,True,14,1,0,11
Y2-S2-004K21,4,398,AS,exp,34,↓,down,↓,0.5086779000121169,True,14,1,0,11
Y2-S2-004K21,4,399,AS,exp,37,←,left,←,0.7206104000215419,True,14,1,0,11
Y2-S2-004K21,4,400,AS,exp,46,↓,down,↓,0.6697507000062615,True,13,1,0,11
Y2-S2-004K21,4,401,AS,exp,48,↑,down,↓,0.4536649999790825,False,13,-1,1,12
Y2-S2-004K21,4,402,AS,exp,38,↓,down,↓,0.5692869999911636,True,14,-1,0,12
Y2-S2-004K21,4,403,AS,exp,30,→,right,→,0.7628742000088096,True,14,-1,0,12
Y2-S2-004K21,4,404,AS,exp,40,←,right,→,0.588605800003279,False,14,-1,0,12
Y2-S2-004K21,4,405,AS,exp,40,↑,up,↑,0.5830027000047266,True,15,-1,0,12
Y2-S2-004K21,4,406,AS,exp,28,↓,down,↓,0.9396748999715783,True,15,-1,0,12
Y2-S2-004K21,4,407,AS,exp,44,↑,up,↑,0.8199614000041038,True,15,1,1,13
Y2-S2-004K21,4,408,AS,exp,30,↓,down,↓,0.5342751999851316,True,14,1,0,13
Y2-S2-004K21,4,409,AS,exp,29,↑,up,↑,0.839590199990198,True,14,1,0,13
Y2-S2-004K21,4,410,AS,exp,27,→,right,→,0.5497828000225127,True,14,1,0,13
Y2-S2-004K21,4,411,AS,exp,35,←,left,←,0.6497271000407636,True,13,1,0,13
Y2-S2-004K21,4,412,AS,exp,44,↑,up,↑,1.407202300033532,True,13,1,0,13
Y2-S2-004K21,4,413,AS,exp,31,←,left,←,1.1259574000141583,True,13,1,0,13
Y2-S2-004K21,4,414,AS,exp,47,↑,up,↑,0.751080899965018,True,12,1,0,13
Y2-S2-004K21,4,415,AS,exp,40,←,right,→,0.5279548999969848,False,12,-1,1,14
Y2-S2-004K21,4,416,AS,exp,41,↓,down,↓,0.938076899969019,True,13,-1,0,14
Y2-S2-004K21,4,417,AS,exp,50,↑,up,↑,0.7023406000225805,True,13,-1,0,14
Y2-S2-004K21,4,418,AS,exp,50,→,down,↓,0.10108849999960512,False,13,-1,0,14
Y2-S2-004K21,4,419,AS,exp,48,↑,up,↑,1.1793418999877758,True,14,-1,0,14
Y2-S2-004K21,4,420,AS,exp,44,→,right,→,0.590682799986098,True,14,-1,0,14
Y2-S2-004K21,4,421,AS,exp,43,↑,up,↑,0.5073626999510452,True,14,1,1,15
Y2-S2-004K21,4,422,AS,exp,27,→,right,→,0.6107043999945745,True,13,1,0,15
Y2-S2-004K21,4,423,AS,exp,48,←,left,←,0.6848108000122011,True,13,1,0,15
Y2-S2-004K21,4,424,AS,exp,39,↑,up,↑,0.46995820000302047,True,13,1,0,15
Y2-S2-004K21,4,425,AS,exp,39,↓,up,↑,0.6281201999518089,False,12,-1,1,16
Y2-S2-004K21,5,426,AS,intra_train,30,↑,up,↑,0.6859212000272237,True,25,-,-,-
Y2-S2-004K21,5,427,AS,intra_train,45,↓,down,↓,0.7017540000379086,True,25,-,-,-
Y2-S2-004K21,5,428,AS,intra_train,25,←,left,←,1.5203762000310235,True,25,-,-,-
Y2-S2-004K21,5,429,AS,intra_train,42,↓,down,↓,0.7781715999590233,True,25,-,-,-
Y2-S2-004K21,5,430,AS,intra_train,26,↑,up,↑,0.45072480000089854,True,25,-,-,-
Y2-S2-004K21,5,431,AS,exp,30,↓,down,↓,0.8854710999876261,True,17,0,0,0
Y2-S2-004K21,5,432,AS,exp,29,↑,up,↑,0.662441199994646,True,17,0,0,0
Y2-S2-004K21,5,433,AS,exp,38,→,right,→,0.6748638999997638,True,17,1,0,0
Y2-S2-004K21,5,434,AS,exp,37,←,left,←,0.6325978999957442,True,16,1,0,0
Y2-S2-004K21,5,435,AS,exp,31,↑,up,↑,0.7189722000039183,True,16,1,0,0
Y2-S2-004K21,5,436,AS,exp,38,←,left,←,0.699109600041993,True,16,1,0,0
Y2-S2-004K21,5,437,AS,exp,44,↑,up,↑,0.7516405999776907,True,15,1,0,0
Y2-S2-004K21,5,438,AS,exp,37,→,right,→,0.6787241999991238,True,15,1,0,0
Y2-S2-004K21,5,439,AS,exp,47,↑,up,↑,0.6964787999750115,True,15,1,0,0
Y2-S2-004K21,5,440,AS,exp,38,↓,up,↑,0.44520449999254197,False,14,-1,1,1
Y2-S2-004K21,5,441,AS,exp,43,↑,right,→,0.671274300024379,False,15,-1,0,1
Y2-S2-004K21,5,442,AS,exp,35,→,right,→,0.5708990999846719,True,16,-1,0,1
Y2-S2-004K21,5,443,AS,exp,46,↑,up,↑,0.5489718000171706,True,16,-1,0,1
Y2-S2-004K21,5,444,AS,exp,31,→,right,→,0.9664127000141889,True,16,1,1,2
Y2-S2-004K21,5,445,AS,exp,39,↓,up,↑,0.6965635999804363,False,15,-1,1,3
Y2-S2-004K21,5,446,AS,exp,49,↑,up,↑,0.4662467999733053,True,16,-1,0,3
Y2-S2-004K21,5,447,AS,exp,32,←,right,→,0.6452746999566443,False,16,-1,0,3
Y2-S2-004K21,5,448,AS,exp,36,↓,down,↓,1.6185384999844246,True,17,-1,0,3
Y2-S2-004K21,5,449,AS,exp,30,←,left,←,0.7579011999769136,True,17,-1,0,3
Y2-S2-004K21,5,450,AS,exp,26,↑,right,→,1.6749863000004552,False,17,-1,0,3
Y2-S2-004K21,5,451,AS,exp,32,↓,down,↓,0.7279830000479706,True,18,-1,0,3
Y2-S2-004K21,5,452,AS,exp,42,←,left,←,0.5026184000307694,True,18,-1,0,3
Y2-S2-004K21,5,453,AS,exp,39,↑,up,↑,0.5807881999644451,True,18,1,1,4
Y2-S2-004K21,5,454,AS,exp,30,←,right,→,0.8233753000386059,False,17,-1,1,5
Y2-S2-004K21,5,455,AS,exp,46,→,right,→,0.48226110002724454,True,18,-1,0,5
Y2-S2-004K21,5,456,AS,exp,42,←,left,←,0.7944679000065662,True,18,-1,0,5
Y2-S2-004K21,5,457,AS,exp,38,→,right,→,0.8616817999863997,True,18,1,1,6
Y2-S2-004K21,5,458,AS,exp,37,↓,right,→,0.5541878999792971,False,17,-1,1,7
Y2-S2-004K21,5,459,AS,exp,39,←,no_key,no_letter,-1.0,False,18,-1,0,7
Y2-S2-004K21,5,460,AS,exp,31,↑,up,↑,0.5888627999811433,True,19,-1,0,7
Y2-S2-004K21,5,461,AS,exp,35,↓,down,↓,0.789334700035397,True,19,-1,0,7
Y2-S2-004K21,5,462,AS,exp,41,↑,left,←,0.8579433999839239,False,19,-1,0,7
Y2-S2-004K21,5,463,AS,exp,38,←,left,←,0.6883003000402823,True,20,-1,0,7
Y2-S2-004K21,5,464,AS,exp,27,→,left,←,0.5250997000257485,False,20,-1,0,7
Y2-S2-004K21,5,465,AS,exp,39,↑,up,↑,0.5301476000458933,True,21,-1,0,7
Y2-S2-004K21,5,466,AS,exp,37,→,right,→,0.5885843000141904,True,21,-1,0,7
Y2-S2-004K21,5,467,AS,exp,39,←,no_key,no_letter,-1.0,False,21,-1,0,7
Y2-S2-004K21,5,468,AS,exp,42,→,right,→,0.7536466000019573,True,22,-1,0,7
Y2-S2-004K21,5,469,AS,exp,37,←,left,←,0.562088800012134,True,22,-1,0,7
Y2-S2-004K21,5,470,AS,exp,37,↑,up,↑,0.6776193000259809,True,22,1,1,8
Y2-S2-004K21,5,471,AS,exp,43,→,right,→,1.229658099997323,True,21,1,0,8
Y2-S2-004K21,5,472,AS,exp,33,↓,left,←,0.4337863000109792,False,21,-1,1,9
Y2-S2-004K21,5,473,AS,exp,28,→,down,↓,1.0626231000060216,False,22,-1,0,9
Y2-S2-004K21,5,474,AS,exp,45,←,left,←,0.6751330000115559,True,23,-1,0,9
Y2-S2-004K21,5,475,AS,exp,41,↑,up,↑,0.6246997999842279,True,23,-1,0,9
Y2-S2-004K21,5,476,AS,exp,45,↓,down,↓,0.7049991000094451,True,23,1,1,10
Y2-S2-004K21,5,477,AS,exp,41,↑,up,↑,0.7330846000113524,True,22,1,0,10
Y2-S2-004K21,5,478,AS,exp,46,→,right,→,0.5678766000200994,True,22,1,0,10
Y2-S2-004K21,5,479,AS,exp,39,←,left,←,0.6153566000284627,True,22,1,0,10
Y2-S2-004K21,5,480,AS,exp,27,↓,right,→,0.555560200009495,False,21,-1,1,11
Y2-S2-004K21,5,481,AS,exp,38,←,left,←,1.3090040999813937,True,22,-1,0,11
Y2-S2-004K21,5,482,AS,exp,48,↓,down,↓,0.9538519000052474,True,22,-1,0,11
Y2-S2-004K21,5,483,AS,exp,37,↑,up,↑,0.6583691000123508,True,22,1,1,12
Y2-S2-004K21,5,484,AS,exp,32,↓,down,↓,0.7760110999806784,True,21,1,0,12
Y2-S2-004K21,5,485,AS,exp,34,↑,up,↑,0.7455322999740019,True,21,1,0,12
Y2-S2-004K21,5,486,AS,exp,27,→,right,→,0.5252231000340544,True,21,1,0,12
Y2-S2-004K21,5,487,AS,exp,47,↑,up,↑,0.8024973999708891,True,20,1,0,12
Y2-S2-004K21,5,488,AS,exp,29,↓,up,↑,1.453074699966237,False,20,-1,1,13
Y2-S2-004K21,5,489,AS,exp,48,↑,up,↑,1.11444139998639,True,21,-1,0,13
Y2-S2-004K21,5,490,AS,exp,28,↓,down,↓,0.7089937999844551,True,21,-1,0,13
Y2-S2-004K21,5,491,AS,exp,48,→,right,→,0.7949732999550179,True,21,1,1,14
Y2-S2-004K21,5,492,AS,exp,33,←,left,←,0.9725536999758333,True,20,1,0,14
Y2-S2-004K21,5,493,AS,exp,35,↑,up,↑,1.305416300019715,True,20,1,0,14
Y2-S2-004K21,5,494,AS,exp,35,←,left,←,0.9430845999740995,True,20,1,0,14
Y2-S2-004K21,5,495,AS,exp,42,↓,right,→,0.752112899965141,False,19,-1,1,15
Y2-S2-004K21,5,496,AS,exp,48,←,left,←,0.9170392999658361,True,20,-1,0,15
Y2-S2-004K21,5,497,AS,exp,27,↑,up,↑,0.5638355000410229,True,20,-1,0,15
Y2-S2-004K21,5,498,AS,exp,35,↓,down,↓,0.8177180000348017,True,20,1,1,16
Y2-S2-004K21,6,499,PS,intra_train,49,→,right,→,0.4171743000042625,True,19,-,-,-
Y2-S2-004K21,6,500,PS,intra_train,48,↑,up,↑,0.5402196999639273,True,19,-,-,-
Y2-S2-004K21,6,501,PS,intra_train,49,←,left,←,0.646855200000573,True,19,-,-,-
Y2-S2-004K21,6,502,PS,intra_train,37,↑,up,↑,0.4987350999726914,True,19,-,-,-
Y2-S2-004K21,6,503,PS,intra_train,29,→,right,→,1.4902190000284463,True,19,-,-,-
Y2-S2-004K21,6,504,PS,exp,29,↓,up,↑,0.5419781999662519,False,13,-1,0,0
Y2-S2-004K21,6,505,PS,exp,39,→,right,→,0.9133995000156574,True,14,-1,0,0
Y2-S2-004K21,6,506,PS,exp,40,↓,down,↓,0.8769315999816172,True,14,-1,0,0
Y2-S2-004K21,6,507,PS,exp,47,←,right,→,0.45424410002306104,False,14,-1,0,0
Y2-S2-004K21,6,508,PS,exp,43,↑,up,↑,0.4837588000227697,True,15,-1,0,0
Y2-S2-004K21,6,509,PS,exp,27,→,right,→,0.5070793000049889,True,15,-1,0,0
Y2-S2-004K21,6,510,PS,exp,36,↑,up,↑,0.49759690003702417,True,15,1,1,1
Y2-S2-004K21,6,511,PS,exp,48,↓,down,↓,0.5516920000081882,True,14,1,0,1
Y2-S2-004K21,6,512,PS,exp,37,←,down,↓,0.8403200999600813,False,14,-1,1,2
Y2-S2-004K21,6,513,PS,exp,36,↓,down,↓,0.8140893999952823,True,15,-1,0,2
Y2-S2-004K21,6,514,PS,exp,31,←,left,←,0.6028212999808602,True,15,-1,0,2
Y2-S2-004K21,6,515,PS,exp,29,↑,up,↑,0.7216296999831684,True,15,1,1,3
Y2-S2-004K21,6,516,PS,exp,42,→,right,→,0.49471649999031797,True,14,1,0,3
Y2-S2-004K21,6,517,PS,exp,50,←,left,←,0.8577004999970086,True,14,1,0,3
Y2-S2-004K21,6,518,PS,exp,25,↑,up,↑,0.5096491000149399,True,14,1,0,3
Y2-S2-004K21,6,519,PS,exp,38,↓,up,↑,0.7323576000053436,False,13,-1,1,4
Y2-S2-004K21,6,520,PS,exp,40,←,left,←,0.5326057000202127,True,14,-1,0,4
Y2-S2-004K21,6,521,PS,exp,29,↑,up,↑,0.6315465000225231,True,14,-1,0,4
Y2-S2-004K21,6,522,PS,exp,25,↓,down,↓,1.0921880999812856,True,14,1,1,5
Y2-S2-004K21,6,523,PS,exp,46,←,left,←,0.722331800032407,True,13,1,0,5
Y2-S2-004K21,6,524,PS,exp,30,↑,up,↑,0.467224600026384,True,13,1,0,5
Y2-S2-004K21,6,525,PS,exp,34,↓,down,↓,0.5738296000054106,True,13,1,0,5
Y2-S2-004K21,6,526,PS,exp,42,→,right,→,0.4885789999971166,True,12,1,0,5
Y2-S2-004K21,6,527,PS,exp,28,↓,down,↓,0.5509812000091188,True,12,1,0,5
Y2-S2-004K21,6,528,PS,exp,25,←,right,→,0.7033679999876767,False,12,-1,1,6
Y2-S2-004K21,6,529,PS,exp,31,↓,left,←,0.8738143999944441,False,13,-1,0,6
Y2-S2-004K21,6,530,PS,exp,28,↑,up,↑,0.5627269999822602,True,14,-1,0,6
Y2-S2-004K21,6,531,PS,exp,49,←,left,←,0.7892850000062026,True,14,-1,0,6
Y2-S2-004K21,6,532,PS,exp,29,↑,up,↑,0.8188915000064299,True,14,1,1,7
Y2-S2-004K21,6,533,PS,exp,43,←,left,←,0.6149159999913536,True,13,1,0,7
Y2-S2-004K21,6,534,PS,exp,40,↑,up,↑,0.6941690999665298,True,13,1,0,7
Y2-S2-004K21,6,535,PS,exp,26,→,right,→,0.5362279000109993,True,13,1,0,7
Y2-S2-004K21,6,536,PS,exp,48,↑,up,↑,0.45410269999410957,True,12,1,0,7
Y2-S2-004K21,6,537,PS,exp,28,↓,up,↑,0.7649478000239469,False,12,-1,1,8
Y2-S2-004K21,6,538,PS,exp,40,↑,up,↑,0.4907103999867104,True,13,-1,0,8
Y2-S2-004K21,6,539,PS,exp,44,←,up,↑,0.7383681000210345,False,13,-1,0,8
Y2-S2-004K21,6,540,PS,exp,26,→,right,→,0.6201823999872431,True,14,-1,0,8
Y2-S2-004K21,6,541,PS,exp,44,←,left,←,0.8858530999859795,True,14,-1,0,8
Y2-S2-004K21,6,542,PS,exp,32,↓,down,↓,1.0037334999651648,True,14,1,1,9
Y2-S2-004K21,6,543,PS,exp,36,↑,up,↑,0.7214194999542087,True,13,1,0,9
Y2-S2-004K21,6,544,PS,exp,44,←,left,←,1.0187684000120498,True,13,1,0,9
Y2-S2-004K21,6,545,PS,exp,50,→,right,→,0.9241246999590658,True,13,1,0,9
Y2-S2-004K21,6,546,PS,exp,25,↑,up,↑,0.7177479999954812,True,12,1,0,9
Y2-S2-004K21,6,547,PS,exp,28,→,up,↑,0.76323699997738,False,12,-1,1,10
Y2-S2-004K21,6,548,PS,exp,38,←,left,←,0.7583919000462629,True,13,-1,0,10
Y2-S2-004K21,6,549,PS,exp,26,→,right,→,0.41258070000912994,True,13,-1,0,10
Y2-S2-004K21,6,550,PS,exp,45,↓,down,↓,0.7170215000514872,True,13,1,1,11
Y2-S2-004K21,6,551,PS,exp,44,←,left,←,0.7786717999842949,True,12,1,0,11
Y2-S2-004K21,6,552,PS,exp,42,↓,left,←,0.5521059000166133,False,12,-1,1,12
Y2-S2-004K21,6,553,PS,exp,50,↑,up,↑,0.3873674999922514,True,13,-1,0,12
Y2-S2-004K21,6,554,PS,exp,32,→,right,→,0.4722294000093825,True,13,-1,0,12
Y2-S2-004K21,6,555,PS,exp,35,↓,down,↓,0.8070525999646634,True,13,1,1,13
Y2-S2-004K21,6,556,PS,exp,34,↑,up,↑,0.7666906999656931,True,12,1,0,13
Y2-S2-004K21,6,557,PS,exp,26,←,left,←,0.49828470003558323,True,12,1,0,13
Y2-S2-004K21,6,558,PS,exp,34,↑,up,↑,0.4802764999913052,True,12,1,0,13
Y2-S2-004K21,6,559,PS,exp,39,→,right,→,0.5042611000244506,True,11,1,0,13
Y2-S2-004K21,6,560,PS,exp,42,↑,right,→,0.5781847000471316,False,11,-1,1,14
Y2-S2-004K21,6,561,PS,exp,37,→,right,→,0.5017307000234723,True,12,-1,0,14
Y2-S2-004K21,6,562,PS,exp,41,↓,down,↓,0.7455048999981955,True,12,-1,0,14
Y2-S2-004K21,6,563,PS,exp,28,↑,up,↑,0.8179041999974288,True,12,1,1,15
Y2-S2-004K21,6,564,PS,exp,30,→,right,→,0.36386729998048395,True,11,1,0,15
Y2-S2-004K21,6,565,PS,exp,38,↑,up,↑,0.5474038000102155,True,11,1,0,15
Y2-S2-004K21,6,566,PS,exp,28,→,right,→,0.800832100037951,True,11,1,0,15
Y2-S2-004K21,6,567,PS,exp,48,↓,down,↓,0.6233477999921888,True,10,1,0,15
Y2-S2-004K21,6,568,PS,exp,25,→,right,→,0.5829678999725729,True,10,1,0,15
Y2-S2-004K21,6,569,PS,exp,30,←,left,←,0.7160538000171073,True,10,1,0,15
Y2-S2-004K21,6,570,PS,exp,42,→,right,→,0.6383545999997295,True,9,1,0,15
Y2-S2-004K21,6,571,PS,exp,28,←,left,←,0.9180673999944702,True,9,1,0,15
Y2-S2-004K21,6,572,PS,exp,32,↓,up,↑,0.4859800999984145,False,9,-1,1,16
Y2-S2-004K21,7,573,PS,intra_train,33,←,left,←,0.53341430000728,True,19,-,-,-
Y2-S2-004K21,7,574,PS,intra_train,29,→,right,→,1.13772290002089,True,19,-,-,-
Y2-S2-004K21,7,575,PS,intra_train,36,↑,up,↑,0.5520501999999397,True,19,-,-,-
Y2-S2-004K21,7,576,PS,intra_train,40,↓,down,↓,0.6394483000040054,True,19,-,-,-
Y2-S2-004K21,7,577,PS,intra_train,41,←,right,→,1.0971729999873787,False,19,-,-,-
Y2-S2-004K21,7,578,PS,exp,25,↓,down,↓,0.6314317000214942,True,13,0,0,0
Y2-S2-004K21,7,579,PS,exp,25,←,left,←,0.5970782000222243,True,13,0,0,0
Y2-S2-004K21,7,580,PS,exp,40,→,right,→,0.6620257999747992,True,13,1,0,0
Y2-S2-004K21,7,581,PS,exp,48,←,left,←,0.5994702999596484,True,12,1,0,0
Y2-S2-004K21,7,582,PS,exp,29,↑,up,↑,0.6777933000121266,True,12,1,0,0
Y2-S2-004K21,7,583,PS,exp,30,←,left,←,0.48617329995613545,True,12,1,0,0
Y2-S2-004K21,7,584,PS,exp,44,↓,down,↓,1.060600200027693,True,11,1,0,0
Y2-S2-004K21,7,585,PS,exp,32,↑,down,↓,0.6075354000204243,False,11,-1,1,1
Y2-S2-004K21,7,586,PS,exp,42,←,left,←,0.5400687000364996,True,12,-1,0,1
Y2-S2-004K21,7,587,PS,exp,44,↓,down,↓,0.6082938000326976,True,12,-1,0,1
Y2-S2-004K21,7,588,PS,exp,45,→,right,→,0.5249038999900222,True,12,1,1,2
Y2-S2-004K21,7,589,PS,exp,39,←,down,↓,0.721950699982699,False,11,-1,1,3
Y2-S2-004K21,7,590,PS,exp,48,→,right,→,0.5322773000225425,True,12,-1,0,3
Y2-S2-004K21,7,591,PS,exp,27,↑,up,↑,0.659938900033012,True,12,-1,0,3
Y2-S2-004K21,7,592,PS,exp,49,→,right,→,0.4617749000317417,True,12,1,1,4
Y2-S2-004K21,7,593,PS,exp,27,↑,up,↑,0.7554261999903247,True,11,1,0,4
Y2-S2-004K21,7,594,PS,exp,48,↓,down,↓,0.6318964000092819,True,11,1,0,4
Y2-S2-004K21,7,595,PS,exp,35,→,right,→,0.540339800005313,True,11,1,0,4
Y2-S2-004K21,7,596,PS,exp,43,↑,down,↓,0.6669805999845266,False,10,-1,1,5
Y2-S2-004K21,7,597,PS,exp,27,←,left,←,0.6965325999772176,True,11,-1,0,5
Y2-S2-004K21,7,598,PS,exp,43,→,right,→,0.4551257999846712,True,11,-1,0,5
Y2-S2-004K21,7,599,PS,exp,29,↓,down,↓,0.9283143999637105,True,11,1,1,6
Y2-S2-004K21,7,600,PS,exp,42,←,right,→,0.7071241000085138,False,10,-1,1,7
Y2-S2-004K21,7,601,PS,exp,29,↑,up,↑,0.6028267999645323,True,11,-1,0,7
Y2-S2-004K21,7,602,PS,exp,26,←,right,→,0.4958625000435859,False,11,-1,0,7
Y2-S2-004K21,7,603,PS,exp,41,→,left,←,0.7021707999520004,False,12,-1,0,7
Y2-S2-004K21,7,604,PS,exp,25,↑,up,↑,0.4653708999976516,True,13,-1,0,7
Y2-S2-004K21,7,605,PS,exp,25,←,left,←,0.5553523999988101,True,13,-1,0,7
Y2-S2-004K21,7,606,PS,exp,32,↑,up,↑,0.5317679999861866,True,13,1,1,8
Y2-S2-004K21,7,607,PS,exp,41,→,right,→,0.4751340000075288,True,12,1,0,8
Y2-S2-004K21,7,608,PS,exp,35,↓,down,↓,0.9085405999794602,True,12,1,0,8
Y2-S2-004K21,7,609,PS,exp,34,↑,up,↑,0.7840108000091277,True,12,1,0,8
Y2-S2-004K21,7,610,PS,exp,25,←,right,→,0.657554599980358,False,11,-1,1,9
Y2-S2-004K21,7,611,PS,exp,41,↑,down,↓,1.5493313999613747,False,12,-1,0,9
Y2-S2-004K21,7,612,PS,exp,28,→,left,←,0.9689040999510325,False,13,-1,0,9
Y2-S2-004K21,7,613,PS,exp,39,←,left,←,0.7169159000040963,True,14,-1,0,9
Y2-S2-004K21,7,614,PS,exp,35,→,right,→,0.4807557999738492,True,14,-1,0,9
Y2-S2-004K21,7,615,PS,exp,48,←,left,←,0.6201084000058472,True,14,1,1,10
Y2-S2-004K21,7,616,PS,exp,40,↓,down,↓,0.7490802999818698,True,13,1,0,10
Y2-S2-004K21,7,617,PS,exp,46,↑,up,↑,1.2629881000029854,True,13,1,0,10
Y2-S2-004K21,7,618,PS,exp,32,→,right,→,0.546413499978371,True,13,1,0,10
Y2-S2-004K21,7,619,PS,exp,49,←,left,←,0.6828929000184871,True,12,1,0,10
Y2-S2-004K21,7,620,PS,exp,42,↑,left,←,0.7879988999920897,False,12,-1,1,11
Y2-S2-004K21,7,621,PS,exp,25,←,left,←,0.45559979998506606,True,13,-1,0,11
Y2-S2-004K21,7,622,PS,exp,47,→,up,↑,0.6712029000045732,False,13,-1,0,11
Y2-S2-004K21,7,623,PS,exp,46,↑,left,←,0.7916686999960802,False,14,-1,0,11
Y2-S2-004K21,7,624,PS,exp,43,→,right,→,0.6255760000203736,True,15,-1,0,11
Y2-S2-004K21,7,625,PS,exp,47,↑,up,↑,0.5162073000101373,True,15,-1,0,11
Y2-S2-004K21,7,626,PS,exp,45,→,right,→,0.4685294999508187,True,15,1,1,12
Y2-S2-004K21,7,627,PS,exp,38,←,left,←,0.5259282999904826,True,14,1,0,12
Y2-S2-004K21,7,628,PS,exp,34,↑,up,↑,0.4464274999918416,True,14,1,0,12
Y2-S2-004K21,7,629,PS,exp,37,←,left,←,0.6743169999681413,True,14,1,0,12
Y2-S2-004K21,7,630,PS,exp,50,↓,right,→,0.7753648000070825,False,13,-1,1,13
Y2-S2-004K21,7,631,PS,exp,48,←,left,←,0.6384562000166625,True,14,-1,0,13
Y2-S2-004K21,7,632,PS,exp,46,↓,down,↓,1.180667500011623,True,14,-1,0,13
Y2-S2-004K21,7,633,PS,exp,33,↑,down,↓,0.49293110001599416,False,14,-1,0,13
Y2-S2-004K21,7,634,PS,exp,34,←,left,←,0.6405545999878086,True,15,-1,0,13
Y2-S2-004K21,7,635,PS,exp,46,↓,down,↓,0.48406029999023303,True,15,-1,0,13
Y2-S2-004K21,7,636,PS,exp,36,←,right,→,0.6588422000058927,False,15,-1,0,13
Y2-S2-004K21,7,637,PS,exp,49,→,right,→,0.5374394999817014,True,16,-1,0,13
Y2-S2-004K21,7,638,PS,exp,47,←,left,←,0.47535909997532144,True,16,-1,0,13
Y2-S2-004K21,7,639,PS,exp,31,↑,up,↑,0.5078973000054248,True,16,1,1,14
Y2-S2-004K21,7,640,PS,exp,44,←,left,←,0.575141099980101,True,15,1,0,14
Y2-S2-004K21,7,641,PS,exp,40,↑,up,↑,0.5082506000180729,True,15,1,0,14
Y2-S2-004K21,7,642,PS,exp,28,→,right,→,0.6548748000059277,True,15,1,0,14
Y2-S2-004K21,7,643,PS,exp,44,↑,up,↑,0.6552416000049561,True,14,1,0,14
Y2-S2-004K21,7,644,PS,exp,38,→,right,→,0.4269745000055991,True,14,1,0,14
Y2-S2-004K21,7,645,PS,exp,28,↓,down,↓,0.7582428000168875,True,14,1,0,14
Y2-S2-004K21,7,646,PS,exp,45,→,right,→,0.43701120000332594,True,13,1,0,14
Y2-S2-004K21,7,647,PS,exp,29,↓,down,↓,0.5657577000092715,True,13,1,0,14
Y2-S2-004K21,7,648,PS,exp,30,→,right,→,0.43459670001175255,True,13,1,0,14
Y2-S2-004K21,7,649,PS,exp,26,↑,up,↑,0.4642741000279784,True,12,1,0,14
Y2-S2-004K21,7,650,PS,exp,46,←,left,←,0.7676090000313707,True,12,1,0,14
Y2-S2-004K21,7,651,PS,exp,45,↓,down,↓,0.567758799996227,True,12,1,0,14
Y2-S2-004K21,7,652,PS,exp,38,↑,up,↑,0.4403573999879882,True,11,1,0,14
Y2-S2-004K21,7,653,PS,exp,27,↓,down,↓,0.7195942000253126,True,11,1,0,14
Y2-S2-004K21,7,654,PS,exp,43,←,up,↑,0.7476560999639332,False,11,-1,1,15
Y2-S2-004K21,7,655,PS,exp,48,↓,down,↓,0.6909012999967672,True,12,-1,0,15
Y2-S2-004K21,7,656,PS,exp,36,↑,down,↓,0.5355910999933258,False,12,-1,0,15
Y2-S2-004K21,7,657,PS,exp,44,→,right,→,1.03519269998651,True,13,-1,0,15
Y2-S2-004K21,7,658,PS,exp,35,↑,up,↑,0.5006853999802843,True,13,-1,0,15
Y2-S2-004K21,7,659,PS,exp,28,←,left,←,0.48730540001997724,True,13,1,1,16
Y2-S2-004K21,8,660,AS,intra_train,34,→,right,→,1.2108034000266343,True,25,-,-,-
Y2-S2-004K21,8,661,AS,intra_train,33,←,up,↑,0.33448359998874366,False,25,-,-,-
Y2-S2-004K21,8,662,AS,intra_train,37,↓,down,↓,0.7070545999449678,True,25,-,-,-
Y2-S2-004K21,8,663,AS,intra_train,27,→,right,→,0.6804631999693811,True,25,-,-,-
Y2-S2-004K21,8,664,AS,intra_train,26,↓,no_key,no_letter,-1.0,False,25,-,-,-
Y2-S2-004K21,8,665,AS,exp,38,→,right,→,0.5046170999994501,True,17,0,0,0
Y2-S2-004K21,8,666,AS,exp,43,↓,right,→,0.8455992999952286,False,17,-1,0,0
Y2-S2-004K21,8,667,AS,exp,38,→,right,→,1.0316528999828734,True,18,-1,0,0
Y2-S2-004K21,8,668,AS,exp,35,↓,down,↓,0.6263317000120878,True,18,-1,0,0
Y2-S2-004K21,8,669,AS,exp,47,←,left,←,0.974304800038226,True,18,1,1,1
Y2-S2-004K21,8,670,AS,exp,49,↓,down,↓,0.7246746000018902,True,17,1,0,1
Y2-S2-004K21,8,671,AS,exp,40,←,left,←,0.682375599979423,True,17,1,0,1
Y2-S2-004K21,8,672,AS,exp,50,↑,up,↑,0.7151856999844313,True,17,1,0,1
Y2-S2-004K21,8,673,AS,exp,35,→,right,→,0.8051244999514893,True,16,1,0,1
Y2-S2-004K21,8,674,AS,exp,48,↓,down,↓,0.7340050000348128,True,16,1,0,1
Y2-S2-004K21,8,675,AS,exp,45,←,left,←,0.6370482999482192,True,16,1,0,1
Y2-S2-004K21,8,676,AS,exp,46,↑,up,↑,0.6944279000163078,True,15,1,0,1
Y2-S2-004K21,8,677,AS,exp,44,↓,down,↓,0.8084716000012122,True,15,1,0,1
Y2-S2-004K21,8,678,AS,exp,50,←,left,←,1.0091781000373885,True,15,1,0,1
Y2-S2-004K21,8,679,AS,exp,47,↑,up,↑,0.7920519000035711,True,14,1,0,1
Y2-S2-004K21,8,680,AS,exp,48,→,left,←,0.6741065999958664,False,14,-1,1,2
Y2-S2-004K21,8,681,AS,exp,33,↑,right,→,1.2512216999894008,False,15,-1,0,2
Y2-S2-004K21,8,682,AS,exp,36,→,right,→,0.6256828000186943,True,16,-1,0,2
Y2-S2-004K21,8,683,AS,exp,42,←,left,←,0.6281311999773607,True,16,-1,0,2
Y2-S2-004K21,8,684,AS,exp,49,↑,up,↑,1.5127017999766394,True,16,1,1,3
Y2-S2-004K21,8,685,AS,exp,49,→,right,→,0.6128324000164866,True,15,1,0,3
Y2-S2-004K21,8,686,AS,exp,46,↓,up,↑,0.697327200032305,False,15,-1,1,4
Y2-S2-004K21,8,687,AS,exp,50,←,left,←,0.6407545999973081,True,16,-1,0,4
Y2-S2-004K21,8,688,AS,exp,25,↓,down,↓,0.8262784999678843,True,16,-1,0,4
Y2-S2-004K21,8,689,AS,exp,39,↑,up,↑,0.5105584999546409,True,16,1,1,5
Y2-S2-004K21,8,690,AS,exp,35,←,left,←,0.6415796999935992,True,15,1,0,5
Y2-S2-004K21,8,691,AS,exp,47,↓,down,↓,0.7095808000303805,True,15,1,0,5
Y2-S2-004K21,8,692,AS,exp,43,→,right,→,0.582516799971927,True,15,1,0,5
Y2-S2-004K21,8,693,AS,exp,49,↓,down,↓,0.6353171999799088,True,14,1,0,5
Y2-S2-004K21,8,694,AS,exp,25,↑,up,↑,0.5895335999666713,True,14,1,0,5
Y2-S2-004K21,8,695,AS,exp,25,↓,down,↓,0.5446908999583684,True,14,1,0,5
Y2-S2-004K21,8,696,AS,exp,27,→,left,←,0.7026027999818325,False,13,-1,1,6
Y2-S2-004K21,8,697,AS,exp,46,←,left,←,0.5970015999628231,True,14,-1,0,6
Y2-S2-004K21,8,698,AS,exp,48,↑,no_key,no_letter,-1.0,False,14,-1,0,6
Y2-S2-004K21,8,699,AS,exp,32,←,left,←,0.6130859999684617,True,15,-1,0,6
Y2-S2-004K21,8,700,AS,exp,38,↑,up,↑,0.5553504999843426,True,15,-1,0,6
Y2-S2-004K21,8,701,AS,exp,50,→,right,→,0.733167800004594,True,15,1,1,7
Y2-S2-004K21,8,702,AS,exp,39,←,right,→,0.9045604999992065,False,14,-1,1,8
Y2-S2-004K21,8,703,AS,exp,47,↑,up,↑,0.49586349999299273,True,15,-1,0,8
Y2-S2-004K21,8,704,AS,exp,36,←,left,←,0.6980596999637783,True,15,-1,0,8
Y2-S2-004K21,8,705,AS,exp,43,↓,down,↓,0.7523078999947757,True,15,1,1,9
Y2-S2-004K21,8,706,AS,exp,26,↑,down,↓,1.213745899964124,False,14,-1,1,10
Y2-S2-004K21,8,707,AS,exp,33,←,left,←,0.6035620999755338,True,15,-1,0,10
Y2-S2-004K21,8,708,AS,exp,50,↑,up,↑,0.5827865999890491,True,15,-1,0,10
Y2-S2-004K21,8,709,AS,exp,29,←,left,←,0.5657625000458211,True,15,1,1,11
Y2-S2-004K21,8,710,AS,exp,50,↓,down,↓,0.9455588000128046,True,14,1,0,11
Y2-S2-004K21,8,711,AS,exp,41,→,right,→,0.5187002999591641,True,14,1,0,11
Y2-S2-004K21,8,712,AS,exp,47,←,left,←,0.5528015000163577,True,14,1,0,11
Y2-S2-004K21,8,713,AS,exp,40,↓,left,←,0.6042573999729939,False,13,-1,1,12
Y2-S2-004K21,8,714,AS,exp,44,←,right,→,0.526221500011161,False,14,-1,0,12
Y2-S2-004K21,8,715,AS,exp,29,↑,left,←,0.8254832999664359,False,15,-1,0,12
Y2-S2-004K21,8,716,AS,exp,32,←,right,→,0.7209908000077121,False,16,-1,0,12
Y2-S2-004K21,8,717,AS,exp,31,→,right,→,0.6099046999588609,True,17,-1,0,12
Y2-S2-004K21,8,718,AS,exp,41,↓,down,↓,0.9147902999538928,True,17,-1,0,12
Y2-S2-004K21,8,719,AS,exp,45,←,left,←,0.7223695999709889,True,17,1,1,13
Y2-S2-004K21,8,720,AS,exp,45,↑,down,↓,0.6288520999951288,False,16,-1,1,14
Y2-S2-004K21,8,721,AS,exp,43,↓,down,↓,0.6578496000147425,True,17,-1,0,14
Y2-S2-004K21,8,722,AS,exp,32,↑,down,↓,0.5857073999941349,False,17,-1,0,14
Y2-S2-004K21,8,723,AS,exp,28,↓,up,↑,0.7103123000124469,False,18,-1,0,14
Y2-S2-004K21,8,724,AS,exp,28,→,up,↑,1.0493264999822713,False,19,-1,0,14
Y2-S2-004K21,8,725,AS,exp,36,←,right,→,0.5517870999756269,False,20,-1,0,14
Y2-S2-004K21,8,726,AS,exp,32,↓,down,↓,0.8877823000075296,True,21,-1,0,14
Y2-S2-004K21,8,727,AS,exp,46,←,left,←,0.7182228000019677,True,21,-1,0,14
Y2-S2-004K21,8,728,AS,exp,47,↑,up,↑,0.7127027999958955,True,21,1,1,15
Y2-S2-004K21,8,729,AS,exp,31,←,left,←,0.6820025999913923,True,20,1,0,15
Y2-S2-004K21,8,730,AS,exp,37,↑,up,↑,0.450599699979648,True,20,1,0,15
Y2-S2-004K21,8,731,AS,exp,27,↓,down,↓,0.6923933000070974,True,20,1,0,15
Y2-S2-004K21,8,732,AS,exp,30,↑,up,↑,0.546062899986282,True,19,1,0,15
Y2-S2-004K21,8,733,AS,exp,28,↓,up,↑,0.450966399977915,False,19,-1,1,16
