PART_ID,Block_no,Trial_no,Block_type,Trial_type,CSI,Stim_letter,Key_pressed,letter_choose,Rt,Corr,Stimulus Time,Level,Reversal,Revs_count
Y2-S2-003K22,1,1,PS,train,28,↓,no_key,no_letter,-1.0,False,30,-,-,-
Y2-S2-003K22,1,2,PS,train,38,←,no_key,no_letter,-1.0,False,30,-,-,-
Y2-S2-003K22,1,3,PS,train,31,→,right,→,0.5508384000277147,True,30,-,-,-
Y2-S2-003K22,1,4,PS,train,28,↓,down,↓,0.7783135999925435,True,30,-,-,-
Y2-S2-003K22,1,5,PS,train,41,←,left,←,0.5005721000488847,True,30,-,-,-
Y2-S2-003K22,1,6,PS,train,26,↑,up,↑,0.6164862000150606,True,30,-,-,-
Y2-S2-003K22,1,7,PS,train,46,↓,down,↓,0.6171892000129446,True,30,-,-,-
Y2-S2-003K22,1,8,PS,train,41,↑,up,↑,1.4541014999849722,True,30,-,-,-
Y2-S2-003K22,1,9,PS,train,46,→,right,→,0.7068355000810698,True,30,-,-,-
Y2-S2-003K22,1,10,PS,train,40,↓,down,↓,0.6011173999868333,True,30,-,-,-
Y2-S2-003K22,2,11,AS,train,29,←,left,←,0.6510251999134198,True,45,-,-,-
Y2-S2-003K22,2,12,AS,train,46,→,right,→,0.800805400009267,True,45,-,-,-
Y2-S2-003K22,2,13,AS,train,49,←,left,←,0.7176267000613734,True,45,-,-,-
Y2-S2-003K22,2,14,AS,train,36,↑,up,↑,0.6508419000310823,True,45,-,-,-
Y2-S2-003K22,2,15,AS,train,46,↓,down,↓,1.998797999927774,True,45,-,-,-
Y2-S2-003K22,2,16,AS,train,37,↑,up,↑,0.6677313999971375,True,45,-,-,-
Y2-S2-003K22,2,17,AS,train,35,←,left,←,0.6834655000129715,True,45,-,-,-
Y2-S2-003K22,2,18,AS,train,41,↓,down,↓,0.717907499987632,True,45,-,-,-
Y2-S2-003K22,2,19,AS,train,35,→,right,→,0.7338555000023916,True,45,-,-,-
Y2-S2-003K22,2,20,AS,train,40,↑,up,↑,0.8174573000287637,True,45,-,-,-
Y2-S2-003K22,-,21,PS,adaptive,43,←,left,←,0.47467230004258454,True,10,0,0,0
Y2-S2-003K22,-,22,PS,adaptive,45,→,right,→,0.623423199984245,True,10,0,0,0
Y2-S2-003K22,-,23,PS,adaptive,27,←,left,←,0.6569603000534698,True,10,1,0,0
Y2-S2-003K22,-,24,PS,adaptive,48,↓,down,↓,0.7476635000202805,True,9,1,0,0
Y2-S2-003K22,-,25,PS,adaptive,44,←,left,←,0.6520190000301227,True,9,1,0,0
Y2-S2-003K22,-,26,PS,adaptive,35,→,right,→,0.5534846000373363,True,9,1,0,0
Y2-S2-003K22,-,27,PS,adaptive,26,↓,down,↓,0.6511906000087038,True,8,1,0,0
Y2-S2-003K22,-,28,PS,adaptive,49,→,right,→,0.5505750000011176,True,8,1,0,0
Y2-S2-003K22,-,29,PS,adaptive,28,↓,up,↑,0.8159746999153867,False,8,-1,1,1
Y2-S2-003K22,-,30,PS,adaptive,25,→,left,←,1.2272881000535563,False,9,-1,0,1
Y2-S2-003K22,-,31,PS,adaptive,40,↓,down,↓,0.5824647000990808,True,10,-1,0,1
Y2-S2-003K22,-,32,PS,adaptive,28,←,left,←,0.8417424999643117,True,10,-1,0,1
Y2-S2-003K22,-,33,PS,adaptive,39,↑,up,↑,0.6715186999645084,True,10,1,1,2
Y2-S2-003K22,-,34,PS,adaptive,45,→,right,→,0.7488162000663579,True,9,1,0,2
Y2-S2-003K22,-,35,PS,adaptive,38,↑,up,↑,0.5742041000630707,True,9,1,0,2
Y2-S2-003K22,-,36,PS,adaptive,36,↓,up,↑,0.6796627000439912,False,9,-1,1,3
Y2-S2-003K22,-,37,PS,adaptive,36,↑,up,↑,0.5938976999605075,True,10,-1,0,3
Y2-S2-003K22,-,38,PS,adaptive,36,↓,down,↓,0.594979300047271,True,10,-1,0,3
Y2-S2-003K22,-,39,PS,adaptive,26,↑,up,↑,0.6457414999604225,True,10,1,1,4
Y2-S2-003K22,-,40,AS,adaptive,48,→,right,→,0.5668598000193015,True,20,0,0,0
Y2-S2-003K22,-,41,AS,adaptive,47,↓,down,↓,0.5845969000365585,True,20,0,0,0
Y2-S2-003K22,-,42,AS,adaptive,44,↑,up,↑,0.8592665999894962,True,20,1,0,0
Y2-S2-003K22,-,43,AS,adaptive,48,→,right,→,0.7225577000062913,True,19,1,0,0
Y2-S2-003K22,-,44,AS,adaptive,44,←,left,←,0.9566609999164939,True,19,1,0,0
Y2-S2-003K22,-,45,AS,adaptive,50,↑,up,↑,1.1471429000375792,True,19,1,0,0
Y2-S2-003K22,-,46,AS,adaptive,37,←,left,←,0.5325281999539584,True,18,1,0,0
Y2-S2-003K22,-,47,AS,adaptive,31,→,right,→,1.4469242999330163,True,18,1,0,0
Y2-S2-003K22,-,48,AS,adaptive,34,←,left,←,0.8722149999812245,True,18,1,0,0
Y2-S2-003K22,-,49,AS,adaptive,46,↓,down,↓,0.5791454000864178,True,17,1,0,0
Y2-S2-003K22,-,50,AS,adaptive,25,←,left,←,0.7546229000436142,True,17,1,0,0
Y2-S2-003K22,-,51,AS,adaptive,25,↓,right,→,0.9131354000419378,False,17,-1,1,1
Y2-S2-003K22,-,52,AS,adaptive,49,→,right,→,0.47124310000799596,True,18,-1,0,1
Y2-S2-003K22,-,53,AS,adaptive,47,↑,up,↑,0.7716741999611259,True,18,-1,0,1
Y2-S2-003K22,-,54,AS,adaptive,25,←,left,←,0.8677979999920353,True,18,1,1,2
Y2-S2-003K22,-,55,AS,adaptive,50,↓,down,↓,0.5651517000515014,True,17,1,0,2
Y2-S2-003K22,-,56,AS,adaptive,26,←,left,←,1.3430633000098169,True,17,1,0,2
Y2-S2-003K22,-,57,AS,adaptive,47,→,right,→,0.7943974999943748,True,17,1,0,2
Y2-S2-003K22,-,58,AS,adaptive,26,↓,down,↓,0.8928316999226809,True,16,1,0,2
Y2-S2-003K22,-,59,AS,adaptive,43,↑,up,↑,0.457987800007686,True,16,1,0,2
Y2-S2-003K22,-,60,AS,adaptive,36,↓,up,↑,0.8425545999780297,False,16,-1,1,3
Y2-S2-003K22,-,61,AS,adaptive,49,←,left,←,0.36731420003343374,True,17,-1,0,3
Y2-S2-003K22,-,62,AS,adaptive,32,↓,up,↑,0.7162692999700084,False,17,-1,0,3
Y2-S2-003K22,-,63,AS,adaptive,28,←,down,↓,0.7510033000726253,False,18,-1,0,3
Y2-S2-003K22,-,64,AS,adaptive,37,→,right,→,0.6364942999789491,True,19,-1,0,3
Y2-S2-003K22,-,65,AS,adaptive,26,←,left,←,0.5270000000018626,True,19,-1,0,3
Y2-S2-003K22,-,66,AS,adaptive,46,→,right,→,0.7629168999847025,True,19,1,1,4
Y2-S2-003K22,1,67,PS,intra_train,44,↓,down,↓,0.6977847000816837,True,13,-,-,-
Y2-S2-003K22,1,68,PS,intra_train,45,↑,up,↑,0.7329651000909507,True,13,-,-,-
Y2-S2-003K22,1,69,PS,intra_train,27,→,right,→,0.49263030011206865,True,13,-,-,-
Y2-S2-003K22,1,70,PS,intra_train,31,↓,down,↓,0.5607511000707746,True,13,-,-,-
Y2-S2-003K22,1,71,PS,intra_train,45,←,left,←,0.47009860002435744,True,13,-,-,-
Y2-S2-003K22,1,72,PS,exp,50,↓,right,→,0.8062513000331819,False,9,-1,0,0
Y2-S2-003K22,1,73,PS,exp,34,→,left,←,1.3037031000712886,False,10,-1,0,0
Y2-S2-003K22,1,74,PS,exp,50,↑,up,↑,0.5305408999556676,True,11,-1,0,0
Y2-S2-003K22,1,75,PS,exp,35,↓,down,↓,0.8567699999548495,True,11,-1,0,0
Y2-S2-003K22,1,76,PS,exp,49,→,right,→,0.4676200000103563,True,11,1,1,1
Y2-S2-003K22,1,77,PS,exp,25,←,left,←,0.8900349999312311,True,10,1,0,1
Y2-S2-003K22,1,78,PS,exp,30,↑,up,↑,0.46970569994300604,True,10,1,0,1
Y2-S2-003K22,1,79,PS,exp,29,→,right,→,0.4443672999041155,True,10,1,0,1
Y2-S2-003K22,1,80,PS,exp,44,←,up,↑,0.7171844000695273,False,9,-1,1,2
Y2-S2-003K22,1,81,PS,exp,32,↑,up,↑,1.0566554999677464,True,10,-1,0,2
Y2-S2-003K22,1,82,PS,exp,29,→,right,→,0.5431142000015825,True,10,-1,0,2
Y2-S2-003K22,1,83,PS,exp,49,↑,left,←,1.409675300004892,False,10,-1,0,2
Y2-S2-003K22,1,84,PS,exp,26,←,left,←,0.482628499972634,True,11,-1,0,2
Y2-S2-003K22,1,85,PS,exp,46,↑,up,↑,0.5481646000407636,True,11,-1,0,2
Y2-S2-003K22,1,86,PS,exp,42,↓,down,↓,0.6130649999249727,True,11,1,1,3
Y2-S2-003K22,1,87,PS,exp,25,↑,right,→,1.146755800000392,False,10,-1,1,4
Y2-S2-003K22,1,88,PS,exp,35,→,right,→,0.5053106000414118,True,11,-1,0,4
Y2-S2-003K22,1,89,PS,exp,46,←,left,←,0.5853337999433279,True,11,-1,0,4
Y2-S2-003K22,1,90,PS,exp,48,→,up,↑,0.569206399959512,False,11,-1,0,4
Y2-S2-003K22,1,91,PS,exp,42,↑,up,↑,0.4995641000568867,True,12,-1,0,4
Y2-S2-003K22,1,92,PS,exp,30,→,left,←,0.6463837999617681,False,12,-1,0,4
Y2-S2-003K22,1,93,PS,exp,32,←,left,←,0.5069725000066683,True,13,-1,0,4
Y2-S2-003K22,1,94,PS,exp,38,↑,up,↑,0.49335669993888587,True,13,-1,0,4
Y2-S2-003K22,1,95,PS,exp,43,←,right,→,1.0053154999623075,False,13,-1,0,4
Y2-S2-003K22,1,96,PS,exp,32,↓,down,↓,0.6238716000225395,True,14,-1,0,4
Y2-S2-003K22,1,97,PS,exp,40,←,left,←,0.4731708000181243,True,14,-1,0,4
Y2-S2-003K22,1,98,PS,exp,30,↓,down,↓,0.690567500074394,True,14,1,1,5
Y2-S2-003K22,1,99,PS,exp,35,↑,right,→,0.5517090000212193,False,13,-1,1,6
Y2-S2-003K22,1,100,PS,exp,25,→,right,→,0.5893208000343293,True,14,-1,0,6
Y2-S2-003K22,1,101,PS,exp,36,↑,up,↑,0.8702766000060365,True,14,-1,0,6
Y2-S2-003K22,1,102,PS,exp,50,←,left,←,0.5197088000131771,True,14,1,1,7
Y2-S2-003K22,1,103,PS,exp,35,→,right,→,0.4776526000350714,True,13,1,0,7
Y2-S2-003K22,1,104,PS,exp,41,↓,down,↓,0.7385755999712273,True,13,1,0,7
Y2-S2-003K22,1,105,PS,exp,28,←,right,→,0.46802559995558113,False,13,-1,1,8
Y2-S2-003K22,1,106,PS,exp,36,↑,up,↑,0.7731930998852476,True,14,-1,0,8
Y2-S2-003K22,1,107,PS,exp,27,→,right,→,0.6155807999894023,True,14,-1,0,8
Y2-S2-003K22,1,108,PS,exp,45,↑,left,←,0.7888912000926211,False,14,-1,0,8
Y2-S2-003K22,1,109,PS,exp,46,→,right,→,0.6686682999134064,True,15,-1,0,8
Y2-S2-003K22,1,110,PS,exp,26,↓,down,↓,0.9403596000047401,True,15,-1,0,8
Y2-S2-003K22,1,111,PS,exp,30,↑,left,←,0.8081038000527769,False,15,-1,0,8
Y2-S2-003K22,1,112,PS,exp,30,↓,left,←,0.7806051999796182,False,16,-1,0,8
Y2-S2-003K22,1,113,PS,exp,45,↑,up,↑,0.707573699997738,True,17,-1,0,8
Y2-S2-003K22,1,114,PS,exp,35,←,right,→,0.4746287000598386,False,17,-1,0,8
Y2-S2-003K22,1,115,PS,exp,37,↓,down,↓,0.6107230000197887,True,18,-1,0,8
Y2-S2-003K22,1,116,PS,exp,26,↑,up,↑,0.46827589999884367,True,18,-1,0,8
Y2-S2-003K22,1,117,PS,exp,50,→,right,→,0.7422987999161705,True,18,1,1,9
Y2-S2-003K22,1,118,PS,exp,35,↑,left,←,0.9496756999287754,False,17,-1,1,10
Y2-S2-003K22,1,119,PS,exp,28,→,right,→,0.5069420000072569,True,18,-1,0,10
Y2-S2-003K22,1,120,PS,exp,36,↑,up,↑,1.5631945000495762,True,18,-1,0,10
Y2-S2-003K22,1,121,PS,exp,37,↓,down,↓,0.542965600034222,True,18,1,1,11
Y2-S2-003K22,1,122,PS,exp,47,↑,up,↑,0.6275050999829546,True,17,1,0,11
Y2-S2-003K22,1,123,PS,exp,34,←,left,←,0.4172279000049457,True,17,1,0,11
Y2-S2-003K22,1,124,PS,exp,38,↓,up,↑,0.7453551000216976,False,17,-1,1,12
Y2-S2-003K22,1,125,PS,exp,35,↑,up,↑,0.49752850004006177,True,18,-1,0,12
Y2-S2-003K22,1,126,PS,exp,44,←,left,←,0.48546809994149953,True,18,-1,0,12
Y2-S2-003K22,1,127,PS,exp,29,↓,down,↓,1.0132535999873653,True,18,1,1,13
Y2-S2-003K22,1,128,PS,exp,46,↑,up,↑,1.0657157000387087,True,17,1,0,13
Y2-S2-003K22,1,129,PS,exp,39,←,left,←,0.5864567999960855,True,17,1,0,13
Y2-S2-003K22,1,130,PS,exp,27,↑,left,←,1.1054754999931902,False,17,-1,1,14
Y2-S2-003K22,1,131,PS,exp,48,←,left,←,1.0520551000954583,True,18,-1,0,14
Y2-S2-003K22,1,132,PS,exp,41,↓,up,↑,0.8524337999988347,False,18,-1,0,14
Y2-S2-003K22,1,133,PS,exp,38,→,right,→,0.8618603999493644,True,19,-1,0,14
Y2-S2-003K22,1,134,PS,exp,49,↓,down,↓,0.6221213999669999,True,19,-1,0,14
Y2-S2-003K22,1,135,PS,exp,47,→,right,→,1.166044499957934,True,19,1,1,15
Y2-S2-003K22,1,136,PS,exp,29,↓,down,↓,0.6838319000089541,True,18,1,0,15
Y2-S2-003K22,1,137,PS,exp,37,←,right,→,0.7306331000290811,False,18,-1,1,16
Y2-S2-003K22,2,138,AS,intra_train,37,↓,down,↓,0.6604195999680087,True,27,-,-,-
Y2-S2-003K22,2,139,AS,intra_train,25,←,left,←,0.7254979000426829,True,27,-,-,-
Y2-S2-003K22,2,140,AS,intra_train,46,↑,up,↑,2.039897600072436,True,27,-,-,-
Y2-S2-003K22,2,141,AS,intra_train,50,←,left,←,0.5340524999191985,True,27,-,-,-
Y2-S2-003K22,2,142,AS,intra_train,41,↓,down,↓,1.3844809000147507,True,27,-,-,-
Y2-S2-003K22,2,143,AS,exp,46,←,left,←,0.6501632999861613,True,18,0,0,0
Y2-S2-003K22,2,144,AS,exp,28,↑,up,↑,0.5407547000795603,True,18,0,0,0
Y2-S2-003K22,2,145,AS,exp,35,→,right,→,1.1208246999885887,True,18,1,0,0
Y2-S2-003K22,2,146,AS,exp,46,←,left,←,1.0930013000033796,True,17,1,0,0
Y2-S2-003K22,2,147,AS,exp,45,→,right,→,0.5500467999372631,True,17,1,0,0
Y2-S2-003K22,2,148,AS,exp,50,←,up,↑,0.8275681999512017,False,17,-1,1,1
Y2-S2-003K22,2,149,AS,exp,32,↓,down,↓,0.8487075000302866,True,18,-1,0,1
Y2-S2-003K22,2,150,AS,exp,48,↑,up,↑,0.49063290003687143,True,18,-1,0,1
Y2-S2-003K22,2,151,AS,exp,40,↓,down,↓,0.7788438000716269,True,18,1,1,2
Y2-S2-003K22,2,152,AS,exp,29,→,right,→,0.4175273000728339,True,17,1,0,2
Y2-S2-003K22,2,153,AS,exp,43,↓,down,↓,0.7456124000018463,True,17,1,0,2
Y2-S2-003K22,2,154,AS,exp,37,→,right,→,0.6194711000425741,True,17,1,0,2
Y2-S2-003K22,2,155,AS,exp,34,↑,down,↓,0.6762433000840247,False,16,-1,1,3
Y2-S2-003K22,2,156,AS,exp,37,↓,down,↓,0.885383200016804,True,17,-1,0,3
Y2-S2-003K22,2,157,AS,exp,40,↑,up,↑,0.6595793999731541,True,17,-1,0,3
Y2-S2-003K22,2,158,AS,exp,34,←,left,←,0.5653992000734434,True,17,1,1,4
Y2-S2-003K22,2,159,AS,exp,43,↓,down,↓,0.7211324999807402,True,16,1,0,4
Y2-S2-003K22,2,160,AS,exp,34,←,left,←,0.6734973000129685,True,16,1,0,4
Y2-S2-003K22,2,161,AS,exp,41,↓,down,↓,0.76541079999879,True,16,1,0,4
Y2-S2-003K22,2,162,AS,exp,37,←,left,←,0.6389725999906659,True,15,1,0,4
Y2-S2-003K22,2,163,AS,exp,34,→,right,→,0.7142278999090195,True,15,1,0,4
Y2-S2-003K22,2,164,AS,exp,41,←,left,←,0.48271090001799166,True,15,1,0,4
Y2-S2-003K22,2,165,AS,exp,37,↓,down,↓,0.6458062001038343,True,14,1,0,4
Y2-S2-003K22,2,166,AS,exp,31,←,down,↓,0.6739653999684379,False,14,-1,1,5
Y2-S2-003K22,2,167,AS,exp,48,→,right,→,0.5327536000404507,True,15,-1,0,5
Y2-S2-003K22,2,168,AS,exp,46,←,right,→,0.7286517000757158,False,15,-1,0,5
Y2-S2-003K22,2,169,AS,exp,45,↓,down,↓,0.6400137000018731,True,16,-1,0,5
Y2-S2-003K22,2,170,AS,exp,46,←,left,←,0.9815056000370532,True,16,-1,0,5
Y2-S2-003K22,2,171,AS,exp,26,↑,up,↑,0.8237051999894902,True,16,1,1,6
Y2-S2-003K22,2,172,AS,exp,48,↓,up,↑,1.0907646999694407,False,15,-1,1,7
Y2-S2-003K22,2,173,AS,exp,37,←,right,→,0.44013470003847033,False,16,-1,0,7
Y2-S2-003K22,2,174,AS,exp,49,→,right,→,0.708545200061053,True,17,-1,0,7
Y2-S2-003K22,2,175,AS,exp,40,↑,up,↑,0.4845865999814123,True,17,-1,0,7
Y2-S2-003K22,2,176,AS,exp,35,→,down,↓,1.0390106999548152,False,17,-1,0,7
Y2-S2-003K22,2,177,AS,exp,46,←,left,←,1.1610241000307724,True,18,-1,0,7
Y2-S2-003K22,2,178,AS,exp,35,↑,up,↑,0.5838781000347808,True,18,-1,0,7
Y2-S2-003K22,2,179,AS,exp,30,→,right,→,0.5290432999609038,True,18,1,1,8
Y2-S2-003K22,2,180,AS,exp,41,↓,right,→,0.8590286000398919,False,17,-1,1,9
Y2-S2-003K22,2,181,AS,exp,46,↑,up,↑,0.4338855999521911,True,18,-1,0,9
Y2-S2-003K22,2,182,AS,exp,46,→,right,→,0.5233958000317216,True,18,-1,0,9
Y2-S2-003K22,2,183,AS,exp,27,↓,down,↓,0.6500943000428379,True,18,1,1,10
Y2-S2-003K22,2,184,AS,exp,29,→,right,→,0.5466648999135941,True,17,1,0,10
Y2-S2-003K22,2,185,AS,exp,42,↓,up,↑,0.9584042000351474,False,17,-1,1,11
Y2-S2-003K22,2,186,AS,exp,48,↑,up,↑,0.5084246998885646,True,18,-1,0,11
Y2-S2-003K22,2,187,AS,exp,49,↓,down,↓,0.7119620000012219,True,18,-1,0,11
Y2-S2-003K22,2,188,AS,exp,26,→,right,→,0.4920810000039637,True,18,1,1,12
Y2-S2-003K22,2,189,AS,exp,31,↓,down,↓,0.6342626999830827,True,17,1,0,12
Y2-S2-003K22,2,190,AS,exp,29,←,left,←,1.2133576999185607,True,17,1,0,12
Y2-S2-003K22,2,191,AS,exp,25,→,right,→,0.6841527000069618,True,17,1,0,12
Y2-S2-003K22,2,192,AS,exp,29,↓,down,↓,0.6808053000131622,True,16,1,0,12
Y2-S2-003K22,2,193,AS,exp,45,←,left,←,0.6643553000176325,True,16,1,0,12
Y2-S2-003K22,2,194,AS,exp,47,↓,down,↓,0.5629729999927804,True,16,1,0,12
Y2-S2-003K22,2,195,AS,exp,37,→,right,→,0.5185577000956982,True,15,1,0,12
Y2-S2-003K22,2,196,AS,exp,42,←,right,→,0.6621509999968112,False,15,-1,1,13
Y2-S2-003K22,2,197,AS,exp,48,→,right,→,0.47702099999878556,True,16,-1,0,13
Y2-S2-003K22,2,198,AS,exp,33,↓,down,↓,0.6664844999322668,True,16,-1,0,13
Y2-S2-003K22,2,199,AS,exp,32,↑,up,↑,0.7072793000843376,True,16,1,1,14
Y2-S2-003K22,2,200,AS,exp,42,→,right,→,0.48318290000315756,True,15,1,0,14
Y2-S2-003K22,2,201,AS,exp,32,↑,up,↑,0.6891227000160143,True,15,1,0,14
Y2-S2-003K22,2,202,AS,exp,35,↓,up,↑,0.6561815999448299,False,15,-1,1,15
Y2-S2-003K22,2,203,AS,exp,44,→,right,→,0.6545497999759391,True,16,-1,0,15
Y2-S2-003K22,2,204,AS,exp,38,↑,up,↑,0.6537489000475034,True,16,-1,0,15
Y2-S2-003K22,2,205,AS,exp,26,↓,down,↓,1.0283460000064224,True,16,1,1,16
Y2-S2-003K22,3,206,AS,intra_train,45,↑,up,↑,1.4870428999420255,True,27,-,-,-
Y2-S2-003K22,3,207,AS,intra_train,31,↓,down,↓,0.5671071000397205,True,27,-,-,-
Y2-S2-003K22,3,208,AS,intra_train,48,↑,down,↓,1.1913348999805748,False,27,-,-,-
Y2-S2-003K22,3,209,AS,intra_train,26,↓,down,↓,0.5171605000505224,True,27,-,-,-
Y2-S2-003K22,3,210,AS,intra_train,34,↑,up,↑,0.694464800064452,True,27,-,-,-
Y2-S2-003K22,3,211,AS,exp,38,→,right,→,0.5257261000806466,True,18,0,0,0
Y2-S2-003K22,3,212,AS,exp,25,←,right,→,1.0664627000223845,False,18,-1,0,0
Y2-S2-003K22,3,213,AS,exp,44,↑,up,↑,0.543439400033094,True,19,-1,0,0
Y2-S2-003K22,3,214,AS,exp,34,←,left,←,0.45061830000486225,True,19,-1,0,0
Y2-S2-003K22,3,215,AS,exp,26,↓,up,↑,0.9018552999477834,False,19,-1,0,0
Y2-S2-003K22,3,216,AS,exp,48,←,left,←,0.5921308000106364,True,20,-1,0,0
Y2-S2-003K22,3,217,AS,exp,31,↑,up,↑,0.46721430006437004,True,20,-1,0,0
Y2-S2-003K22,3,218,AS,exp,29,↓,down,↓,1.0242385999299586,True,20,1,1,1
Y2-S2-003K22,3,219,AS,exp,41,↑,up,↑,1.3312195000471547,True,19,1,0,1
Y2-S2-003K22,3,220,AS,exp,40,→,right,→,0.5638841000618413,True,19,1,0,1
Y2-S2-003K22,3,221,AS,exp,46,←,left,←,0.4179481000173837,True,19,1,0,1
Y2-S2-003K22,3,222,AS,exp,29,↑,up,↑,0.7783887999830768,True,18,1,0,1
Y2-S2-003K22,3,223,AS,exp,49,↓,down,↓,0.7397380999755114,True,18,1,0,1
Y2-S2-003K22,3,224,AS,exp,32,→,right,→,0.6445812999736518,True,18,1,0,1
Y2-S2-003K22,3,225,AS,exp,30,↓,down,↓,0.5889038000022992,True,17,1,0,1
Y2-S2-003K22,3,226,AS,exp,25,←,left,←,0.45177819998934865,True,17,1,0,1
Y2-S2-003K22,3,227,AS,exp,39,↑,up,↑,0.4657037000870332,True,17,1,0,1
Y2-S2-003K22,3,228,AS,exp,39,→,down,↓,0.9354271999327466,False,16,-1,1,2
Y2-S2-003K22,3,229,AS,exp,29,↑,up,↑,0.4745956000406295,True,17,-1,0,2
Y2-S2-003K22,3,230,AS,exp,49,→,up,↑,0.719550900044851,False,17,-1,0,2
Y2-S2-003K22,3,231,AS,exp,41,↓,up,↑,0.6111280999612063,False,18,-1,0,2
Y2-S2-003K22,3,232,AS,exp,30,←,left,←,0.5366987999295816,True,19,-1,0,2
Y2-S2-003K22,3,233,AS,exp,28,↑,up,↑,0.6169665999477729,True,19,-1,0,2
Y2-S2-003K22,3,234,AS,exp,37,←,left,←,0.4505514999618754,True,19,1,1,3
Y2-S2-003K22,3,235,AS,exp,27,↓,up,↑,0.9291013999609277,False,18,-1,1,4
Y2-S2-003K22,3,236,AS,exp,49,→,right,→,0.4505873000016436,True,19,-1,0,4
Y2-S2-003K22,3,237,AS,exp,48,↑,up,↑,0.5144378000404686,True,19,-1,0,4
Y2-S2-003K22,3,238,AS,exp,31,←,left,←,0.4009367999387905,True,19,1,1,5
Y2-S2-003K22,3,239,AS,exp,39,↓,right,→,0.610070199938491,False,18,-1,1,6
Y2-S2-003K22,3,240,AS,exp,29,←,left,←,0.584000000031665,True,19,-1,0,6
Y2-S2-003K22,3,241,AS,exp,37,↑,up,↑,0.5017769000260159,True,19,-1,0,6
Y2-S2-003K22,3,242,AS,exp,37,↓,down,↓,0.6157987000187859,True,19,1,1,7
Y2-S2-003K22,3,243,AS,exp,41,↑,up,↑,1.2640989000210539,True,18,1,0,7
Y2-S2-003K22,3,244,AS,exp,41,←,left,←,0.6534243000205606,True,18,1,0,7
Y2-S2-003K22,3,245,AS,exp,25,→,right,→,0.5273181999800727,True,18,1,0,7
Y2-S2-003K22,3,246,AS,exp,44,↓,down,↓,0.5872461999533698,True,17,1,0,7
Y2-S2-003K22,3,247,AS,exp,25,↑,up,↑,0.5192002999829128,True,17,1,0,7
Y2-S2-003K22,3,248,AS,exp,41,→,right,→,0.7010053999256343,True,17,1,0,7
Y2-S2-003K22,3,249,AS,exp,29,←,left,←,1.1304442000109702,True,16,1,0,7
Y2-S2-003K22,3,250,AS,exp,29,↑,up,↑,0.7508745000232011,True,16,1,0,7
Y2-S2-003K22,3,251,AS,exp,48,→,right,→,0.8684232999803498,True,16,1,0,7
Y2-S2-003K22,3,252,AS,exp,48,↓,down,↓,0.5216819000197574,True,15,1,0,7
Y2-S2-003K22,3,253,AS,exp,33,→,right,→,0.5323441999498755,True,15,1,0,7
Y2-S2-003K22,3,254,AS,exp,29,↑,up,↑,1.0487835999811068,True,15,1,0,7
Y2-S2-003K22,3,255,AS,exp,50,→,right,→,0.7055575998965651,True,14,1,0,7
Y2-S2-003K22,3,256,AS,exp,42,↑,up,↑,0.45314009999856353,True,14,1,0,7
Y2-S2-003K22,3,257,AS,exp,37,←,left,←,0.36728679994121194,True,14,1,0,7
Y2-S2-003K22,3,258,AS,exp,28,→,right,→,0.644413199974224,True,13,1,0,7
Y2-S2-003K22,3,259,AS,exp,31,←,up,↑,0.520102099981159,False,13,-1,1,8
Y2-S2-003K22,3,260,AS,exp,38,↓,up,↑,0.47718479996547103,False,14,-1,0,8
Y2-S2-003K22,3,261,AS,exp,37,→,right,→,0.5197163999546319,True,15,-1,0,8
Y2-S2-003K22,3,262,AS,exp,25,↑,up,↑,0.4925133000360802,True,15,-1,0,8
Y2-S2-003K22,3,263,AS,exp,42,←,up,↑,0.8646075000287965,False,15,-1,0,8
Y2-S2-003K22,3,264,AS,exp,44,↓,down,↓,0.553693599998951,True,16,-1,0,8
Y2-S2-003K22,3,265,AS,exp,35,→,right,→,0.633782200049609,True,16,-1,0,8
Y2-S2-003K22,3,266,AS,exp,48,↑,up,↑,0.5803184999385849,True,16,1,1,9
Y2-S2-003K22,3,267,AS,exp,48,←,right,→,0.5184773999499157,False,15,-1,1,10
Y2-S2-003K22,3,268,AS,exp,27,↓,down,↓,1.0298812999390066,True,16,-1,0,10
Y2-S2-003K22,3,269,AS,exp,34,←,left,←,0.43808859994169325,True,16,-1,0,10
Y2-S2-003K22,3,270,AS,exp,35,↑,up,↑,0.4797691999701783,True,16,1,1,11
Y2-S2-003K22,3,271,AS,exp,39,↓,down,↓,0.7162682999623939,True,15,1,0,11
Y2-S2-003K22,3,272,AS,exp,26,←,right,→,0.6933728998992592,False,15,-1,1,12
Y2-S2-003K22,3,273,AS,exp,44,↑,up,↑,0.48023029998876154,True,16,-1,0,12
Y2-S2-003K22,3,274,AS,exp,46,→,right,→,0.4914223999949172,True,16,-1,0,12
Y2-S2-003K22,3,275,AS,exp,42,←,left,←,0.35076679999474436,True,16,1,1,13
Y2-S2-003K22,3,276,AS,exp,37,↑,up,↑,0.5053761000744998,True,15,1,0,13
Y2-S2-003K22,3,277,AS,exp,32,←,left,←,0.4513849000213668,True,15,1,0,13
Y2-S2-003K22,3,278,AS,exp,50,↓,down,↓,0.5391829001018777,True,15,1,0,13
Y2-S2-003K22,3,279,AS,exp,49,→,right,→,0.49854320008307695,True,14,1,0,13
Y2-S2-003K22,3,280,AS,exp,31,←,right,→,0.7950573000125587,False,14,-1,1,14
Y2-S2-003K22,3,281,AS,exp,41,↓,down,↓,0.7288256000028923,True,15,-1,0,14
Y2-S2-003K22,3,282,AS,exp,45,←,right,→,0.7558927000500262,False,15,-1,0,14
Y2-S2-003K22,3,283,AS,exp,50,↓,down,↓,0.6456515999743715,True,16,-1,0,14
Y2-S2-003K22,3,284,AS,exp,39,↑,up,↑,0.6000215999083593,True,16,-1,0,14
Y2-S2-003K22,3,285,AS,exp,31,↓,right,→,1.091593199991621,False,16,-1,0,14
Y2-S2-003K22,3,286,AS,exp,42,←,left,←,0.6803057000506669,True,17,-1,0,14
Y2-S2-003K22,3,287,AS,exp,31,↑,up,↑,0.6959416000172496,True,17,-1,0,14
Y2-S2-003K22,3,288,AS,exp,41,←,left,←,0.4778246000641957,True,17,1,1,15
Y2-S2-003K22,3,289,AS,exp,39,↓,down,↓,0.5538066000444815,True,16,1,0,15
Y2-S2-003K22,3,290,AS,exp,28,←,left,←,0.6968750000232831,True,16,1,0,15
Y2-S2-003K22,3,291,AS,exp,44,↑,up,↑,0.5174569000955671,True,16,1,0,15
Y2-S2-003K22,3,292,AS,exp,26,→,right,→,0.6121991999680176,True,15,1,0,15
Y2-S2-003K22,3,293,AS,exp,43,←,up,↑,0.7531085000373423,False,15,-1,1,16
Y2-S2-003K22,4,294,PS,intra_train,33,↓,down,↓,0.927554199937731,True,13,-,-,-
Y2-S2-003K22,4,295,PS,intra_train,37,↑,up,↑,0.8400705999229103,True,13,-,-,-
Y2-S2-003K22,4,296,PS,intra_train,49,↓,left,←,0.6965390999102965,False,13,-,-,-
Y2-S2-003K22,4,297,PS,intra_train,38,↑,up,↑,0.7475818000966683,True,13,-,-,-
Y2-S2-003K22,4,298,PS,intra_train,48,↓,down,↓,0.5649579000892118,True,13,-,-,-
Y2-S2-003K22,4,299,PS,exp,39,↑,right,→,0.6207264999393374,False,9,-1,0,0
Y2-S2-003K22,4,300,PS,exp,29,←,left,←,0.4567838000366464,True,10,-1,0,0
Y2-S2-003K22,4,301,PS,exp,47,→,right,→,0.42506100004538894,True,10,-1,0,0
Y2-S2-003K22,4,302,PS,exp,31,↓,right,→,0.8553414999041706,False,10,-1,0,0
Y2-S2-003K22,4,303,PS,exp,45,↑,up,↑,0.5459945999318734,True,11,-1,0,0
Y2-S2-003K22,4,304,PS,exp,26,↓,right,→,1.1587564999936149,False,11,-1,0,0
Y2-S2-003K22,4,305,PS,exp,36,↑,right,→,0.5957439999328926,False,12,-1,0,0
Y2-S2-003K22,4,306,PS,exp,31,←,right,→,0.6832023999886587,False,13,-1,0,0
Y2-S2-003K22,4,307,PS,exp,49,→,right,→,0.4519614999881014,True,14,-1,0,0
Y2-S2-003K22,4,308,PS,exp,42,←,right,→,0.4190876999637112,False,14,-1,0,0
Y2-S2-003K22,4,309,PS,exp,27,→,right,→,0.4813762999838218,True,15,-1,0,0
Y2-S2-003K22,4,310,PS,exp,33,↑,up,↑,0.8938267000485212,True,15,-1,0,0
Y2-S2-003K22,4,311,PS,exp,32,→,left,←,0.7064588000066578,False,15,-1,0,0
Y2-S2-003K22,4,312,PS,exp,48,↓,down,↓,0.7025249999715015,True,16,-1,0,0
Y2-S2-003K22,4,313,PS,exp,28,↑,down,↓,1.3121623999904841,False,16,-1,0,0
Y2-S2-003K22,4,314,PS,exp,25,←,left,←,0.625827599898912,True,17,-1,0,0
Y2-S2-003K22,4,315,PS,exp,38,→,right,→,0.579220800078474,True,17,-1,0,0
Y2-S2-003K22,4,316,PS,exp,37,←,left,←,0.5182660999707878,True,17,1,1,1
Y2-S2-003K22,4,317,PS,exp,37,↑,up,↑,0.647555899922736,True,16,1,0,1
Y2-S2-003K22,4,318,PS,exp,27,↓,down,↓,0.7191806000191718,True,16,1,0,1
Y2-S2-003K22,4,319,PS,exp,28,→,right,→,1.0412015001056716,True,16,1,0,1
Y2-S2-003K22,4,320,PS,exp,29,↓,left,←,0.8095551000442356,False,15,-1,1,2
Y2-S2-003K22,4,321,PS,exp,38,↑,up,↑,0.7210187000455335,True,16,-1,0,2
Y2-S2-003K22,4,322,PS,exp,35,←,left,←,0.47558399999979883,True,16,-1,0,2
Y2-S2-003K22,4,323,PS,exp,42,→,right,→,0.49977100000251085,True,16,1,1,3
Y2-S2-003K22,4,324,PS,exp,49,↑,up,↑,0.5955585000338033,True,15,1,0,3
Y2-S2-003K22,4,325,PS,exp,31,→,right,→,0.5587082999991253,True,15,1,0,3
Y2-S2-003K22,4,326,PS,exp,49,↑,left,←,0.9909201000118628,False,15,-1,1,4
Y2-S2-003K22,4,327,PS,exp,46,↓,down,↓,0.6634475999744609,True,16,-1,0,4
Y2-S2-003K22,4,328,PS,exp,38,→,right,→,0.4799258999992162,True,16,-1,0,4
Y2-S2-003K22,4,329,PS,exp,44,←,left,←,0.6700513999676332,True,16,1,1,5
Y2-S2-003K22,4,330,PS,exp,44,→,right,→,0.5085229000542313,True,15,1,0,5
Y2-S2-003K22,4,331,PS,exp,49,←,left,←,0.5709687999915332,True,15,1,0,5
Y2-S2-003K22,4,332,PS,exp,42,→,right,→,1.3123800000175834,True,15,1,0,5
Y2-S2-003K22,4,333,PS,exp,49,←,left,←,0.41667669999878854,True,14,1,0,5
Y2-S2-003K22,4,334,PS,exp,31,→,left,←,0.7560533999931067,False,14,-1,1,6
Y2-S2-003K22,4,335,PS,exp,49,←,left,←,0.7240047000814229,True,15,-1,0,6
Y2-S2-003K22,4,336,PS,exp,28,→,right,→,0.4747287000063807,True,15,-1,0,6
Y2-S2-003K22,4,337,PS,exp,35,←,left,←,0.4425160000100732,True,15,1,1,7
Y2-S2-003K22,4,338,PS,exp,43,↓,down,↓,0.6327974000014365,True,14,1,0,7
Y2-S2-003K22,4,339,PS,exp,47,↑,up,↑,0.45845930010546,True,14,1,0,7
Y2-S2-003K22,4,340,PS,exp,37,↓,down,↓,0.5858400000724941,True,14,1,0,7
Y2-S2-003K22,4,341,PS,exp,32,←,down,↓,0.8843850999837741,False,13,-1,1,8
Y2-S2-003K22,4,342,PS,exp,29,↑,up,↑,0.607925400021486,True,14,-1,0,8
Y2-S2-003K22,4,343,PS,exp,38,↓,left,←,1.2981052999384701,False,14,-1,0,8
Y2-S2-003K22,4,344,PS,exp,44,→,right,→,0.6097705999854952,True,15,-1,0,8
Y2-S2-003K22,4,345,PS,exp,46,←,left,←,0.6250396999530494,True,15,-1,0,8
Y2-S2-003K22,4,346,PS,exp,29,↑,up,↑,0.6828811999876052,True,15,1,1,9
Y2-S2-003K22,4,347,PS,exp,31,→,right,→,0.610863900044933,True,14,1,0,9
Y2-S2-003K22,4,348,PS,exp,26,↓,left,←,1.1293847999768332,False,14,-1,1,10
Y2-S2-003K22,4,349,PS,exp,32,↑,up,↑,0.6951653999276459,True,15,-1,0,10
Y2-S2-003K22,4,350,PS,exp,44,←,left,←,0.46171859989408404,True,15,-1,0,10
Y2-S2-003K22,4,351,PS,exp,44,→,right,→,0.4425398000748828,True,15,1,1,11
Y2-S2-003K22,4,352,PS,exp,37,←,left,←,0.5195405000122264,True,14,1,0,11
Y2-S2-003K22,4,353,PS,exp,28,→,right,→,0.9698472999734804,True,14,1,0,11
Y2-S2-003K22,4,354,PS,exp,50,←,right,→,0.45026910002343357,False,14,-1,1,12
Y2-S2-003K22,4,355,PS,exp,37,↓,left,←,0.8198179999599233,False,15,-1,0,12
Y2-S2-003K22,4,356,PS,exp,32,→,right,→,0.4777571000158787,True,16,-1,0,12
Y2-S2-003K22,4,357,PS,exp,30,↓,down,↓,0.7268226000014693,True,16,-1,0,12
Y2-S2-003K22,4,358,PS,exp,30,↑,up,↑,0.4681540000019595,True,16,1,1,13
Y2-S2-003K22,4,359,PS,exp,33,→,right,→,0.5074656000360847,True,15,1,0,13
Y2-S2-003K22,4,360,PS,exp,49,←,left,←,0.4565398000413552,True,15,1,0,13
Y2-S2-003K22,4,361,PS,exp,39,→,right,→,0.46483299997635186,True,15,1,0,13
Y2-S2-003K22,4,362,PS,exp,41,↑,up,↑,0.4818580000428483,True,14,1,0,13
Y2-S2-003K22,4,363,PS,exp,48,↓,down,↓,0.6712802000110969,True,14,1,0,13
Y2-S2-003K22,4,364,PS,exp,39,→,right,→,0.6917420000536367,True,14,1,0,13
Y2-S2-003K22,4,365,PS,exp,43,↓,down,↓,0.5856469999998808,True,13,1,0,13
Y2-S2-003K22,4,366,PS,exp,39,←,left,←,0.4464540999615565,True,13,1,0,13
Y2-S2-003K22,4,367,PS,exp,36,↑,up,↑,0.5259629999054596,True,13,1,0,13
Y2-S2-003K22,4,368,PS,exp,25,←,left,←,0.5240743999602273,True,12,1,0,13
Y2-S2-003K22,4,369,PS,exp,43,→,right,→,0.993831800064072,True,12,1,0,13
Y2-S2-003K22,4,370,PS,exp,34,←,left,←,0.5571889000711963,True,12,1,0,13
Y2-S2-003K22,4,371,PS,exp,34,↑,down,↓,0.6994827999733388,False,11,-1,1,14
Y2-S2-003K22,4,372,PS,exp,41,↓,up,↑,0.7075126999989152,False,12,-1,0,14
Y2-S2-003K22,4,373,PS,exp,44,↑,up,↑,0.5824359999969602,True,13,-1,0,14
Y2-S2-003K22,4,374,PS,exp,38,←,right,→,0.6038082999875769,False,13,-1,0,14
Y2-S2-003K22,4,375,PS,exp,33,↑,up,↑,0.4296006999211386,True,14,-1,0,14
Y2-S2-003K22,4,376,PS,exp,43,←,right,→,1.0121554000070319,False,14,-1,0,14
Y2-S2-003K22,4,377,PS,exp,41,→,right,→,0.4699240999761969,True,15,-1,0,14
Y2-S2-003K22,4,378,PS,exp,31,←,left,←,0.7280089999549091,True,15,-1,0,14
Y2-S2-003K22,4,379,PS,exp,28,↓,down,↓,0.8030436000553891,True,15,1,1,15
Y2-S2-003K22,4,380,PS,exp,43,↑,up,↑,1.1044837000081316,True,14,1,0,15
Y2-S2-003K22,4,381,PS,exp,43,←,left,←,0.6062457000371069,True,14,1,0,15
Y2-S2-003K22,4,382,PS,exp,28,↑,up,↑,0.5975667999591678,True,14,1,0,15
Y2-S2-003K22,4,383,PS,exp,25,↓,down,↓,0.7329633000772446,True,13,1,0,15
Y2-S2-003K22,4,384,PS,exp,29,←,left,←,0.6545792000833899,True,13,1,0,15
Y2-S2-003K22,4,385,PS,exp,28,→,left,←,0.65166400000453,False,13,-1,1,16
Y2-S2-003K22,5,386,PS,intra_train,42,←,left,←,0.57607349997852,True,13,-,-,-
Y2-S2-003K22,5,387,PS,intra_train,43,→,right,→,0.4488353000488132,True,13,-,-,-
Y2-S2-003K22,5,388,PS,intra_train,26,↓,down,↓,0.6251264999154955,True,13,-,-,-
Y2-S2-003K22,5,389,PS,intra_train,38,←,left,←,0.5475939000025392,True,13,-,-,-
Y2-S2-003K22,5,390,PS,intra_train,25,↓,down,↓,0.9231040000449866,True,13,-,-,-
Y2-S2-003K22,5,391,PS,exp,46,←,left,←,0.42470739991404116,True,9,0,0,0
Y2-S2-003K22,5,392,PS,exp,25,→,right,→,0.6286257000174373,True,9,0,0,0
Y2-S2-003K22,5,393,PS,exp,50,←,left,←,0.4317324999719858,True,9,1,0,0
Y2-S2-003K22,5,394,PS,exp,43,↑,left,←,0.933102700044401,False,8,-1,1,1
Y2-S2-003K22,5,395,PS,exp,50,↓,down,↓,0.5735310999443755,True,9,-1,0,1
Y2-S2-003K22,5,396,PS,exp,39,↑,left,←,0.5586429999675602,False,9,-1,0,1
Y2-S2-003K22,5,397,PS,exp,48,→,down,↓,0.6206978999543935,False,10,-1,0,1
Y2-S2-003K22,5,398,PS,exp,36,←,left,←,0.5824889000505209,True,11,-1,0,1
Y2-S2-003K22,5,399,PS,exp,44,→,right,→,0.8723214999772608,True,11,-1,0,1
Y2-S2-003K22,5,400,PS,exp,43,↑,up,↑,0.7580165000399575,True,11,1,1,2
Y2-S2-003K22,5,401,PS,exp,28,↓,down,↓,0.6685283000115305,True,10,1,0,2
Y2-S2-003K22,5,402,PS,exp,44,←,left,←,0.6823843999300152,True,10,1,0,2
Y2-S2-003K22,5,403,PS,exp,35,↓,down,↓,0.8036831999197602,True,10,1,0,2
Y2-S2-003K22,5,404,PS,exp,50,↑,down,↓,0.6508924999507144,False,9,-1,1,3
Y2-S2-003K22,5,405,PS,exp,50,↓,down,↓,0.5077794000972062,True,10,-1,0,3
Y2-S2-003K22,5,406,PS,exp,35,↑,down,↓,0.5757315000519156,False,10,-1,0,3
Y2-S2-003K22,5,407,PS,exp,42,↓,down,↓,0.7244455999461934,True,11,-1,0,3
Y2-S2-003K22,5,408,PS,exp,30,←,left,←,0.466925400076434,True,11,-1,0,3
Y2-S2-003K22,5,409,PS,exp,49,↑,up,↑,0.6256471000378951,True,11,1,1,4
Y2-S2-003K22,5,410,PS,exp,34,↓,down,↓,0.6587834999663755,True,10,1,0,4
Y2-S2-003K22,5,411,PS,exp,49,←,left,←,0.47642379999160767,True,10,1,0,4
Y2-S2-003K22,5,412,PS,exp,45,↑,left,←,1.0794358999701217,False,10,-1,1,5
Y2-S2-003K22,5,413,PS,exp,33,←,left,←,0.5832063999259844,True,11,-1,0,5
Y2-S2-003K22,5,414,PS,exp,28,↓,down,↓,0.7240965999662876,True,11,-1,0,5
Y2-S2-003K22,5,415,PS,exp,48,→,right,→,0.7190977000864223,True,11,1,1,6
Y2-S2-003K22,5,416,PS,exp,31,↑,up,↑,0.6567326999502257,True,10,1,0,6
Y2-S2-003K22,5,417,PS,exp,43,↓,down,↓,0.6383337998995557,True,10,1,0,6
Y2-S2-003K22,5,418,PS,exp,25,→,up,↑,0.7126755999634042,False,10,-1,1,7
Y2-S2-003K22,5,419,PS,exp,44,↓,down,↓,0.5738164000213146,True,11,-1,0,7
Y2-S2-003K22,5,420,PS,exp,29,→,right,→,0.6436511999927461,True,11,-1,0,7
Y2-S2-003K22,5,421,PS,exp,44,←,left,←,0.4068084000609815,True,11,1,1,8
Y2-S2-003K22,5,422,PS,exp,44,↑,down,↓,0.6342356000095606,False,10,-1,1,9
Y2-S2-003K22,5,423,PS,exp,47,↓,down,↓,0.5973844999680296,True,11,-1,0,9
Y2-S2-003K22,5,424,PS,exp,31,←,right,→,0.638639900018461,False,11,-1,0,9
Y2-S2-003K22,5,425,PS,exp,38,→,right,→,0.537554300040938,True,12,-1,0,9
Y2-S2-003K22,5,426,PS,exp,25,↓,down,↓,0.6627162999939173,True,12,-1,0,9
Y2-S2-003K22,5,427,PS,exp,27,←,left,←,1.2183046999853104,True,12,1,1,10
Y2-S2-003K22,5,428,PS,exp,27,↓,down,↓,0.599932000041008,True,11,1,0,10
Y2-S2-003K22,5,429,PS,exp,31,→,left,←,0.6398155000060797,False,11,-1,1,11
Y2-S2-003K22,5,430,PS,exp,26,↓,down,↓,0.558906999998726,True,12,-1,0,11
Y2-S2-003K22,5,431,PS,exp,42,↑,up,↑,0.6366393000353128,True,12,-1,0,11
Y2-S2-003K22,5,432,PS,exp,35,→,right,→,0.47871000005397946,True,12,1,1,12
Y2-S2-003K22,5,433,PS,exp,26,↓,down,↓,0.5583700999850407,True,11,1,0,12
Y2-S2-003K22,5,434,PS,exp,29,→,right,→,0.7605622999835759,True,11,1,0,12
Y2-S2-003K22,5,435,PS,exp,36,↑,up,↑,0.4833377000177279,True,11,1,0,12
Y2-S2-003K22,5,436,PS,exp,49,→,right,→,0.48528169991914183,True,10,1,0,12
Y2-S2-003K22,5,437,PS,exp,43,↑,up,↑,0.5861510999966413,True,10,1,0,12
Y2-S2-003K22,5,438,PS,exp,36,→,right,→,0.6739292000420392,True,10,1,0,12
Y2-S2-003K22,5,439,PS,exp,26,↑,up,↑,0.6258576998952776,True,9,1,0,12
Y2-S2-003K22,5,440,PS,exp,30,→,left,←,0.6329263999359682,False,9,-1,1,13
Y2-S2-003K22,5,441,PS,exp,43,↑,up,↑,0.4683322999626398,True,10,-1,0,13
Y2-S2-003K22,5,442,PS,exp,48,←,left,←,0.4287977999774739,True,10,-1,0,13
Y2-S2-003K22,5,443,PS,exp,40,→,right,→,0.48244199994951487,True,10,1,1,14
Y2-S2-003K22,5,444,PS,exp,39,←,left,←,0.5938110999995843,True,9,1,0,14
Y2-S2-003K22,5,445,PS,exp,34,↓,up,↑,0.6412219000048935,False,9,-1,1,15
Y2-S2-003K22,5,446,PS,exp,49,→,right,→,0.5367032999638468,True,10,-1,0,15
Y2-S2-003K22,5,447,PS,exp,27,←,right,→,1.0409239999717101,False,10,-1,0,15
Y2-S2-003K22,5,448,PS,exp,29,↑,left,←,1.0486349000129849,False,11,-1,0,15
Y2-S2-003K22,5,449,PS,exp,44,↓,up,↑,0.5803720999974757,False,12,-1,0,15
Y2-S2-003K22,5,450,PS,exp,50,←,left,←,0.5424077999778092,True,13,-1,0,15
Y2-S2-003K22,5,451,PS,exp,39,↑,up,↑,0.5443883000407368,True,13,-1,0,15
Y2-S2-003K22,5,452,PS,exp,45,↓,down,↓,0.727433199994266,True,13,1,1,16
Y2-S2-003K22,6,453,AS,intra_train,31,→,right,→,0.6875250999582931,True,27,-,-,-
Y2-S2-003K22,6,454,AS,intra_train,43,↑,up,↑,1.1518858999479562,True,27,-,-,-
Y2-S2-003K22,6,455,AS,intra_train,45,←,left,←,0.8013290000380948,True,27,-,-,-
Y2-S2-003K22,6,456,AS,intra_train,39,↑,up,↑,1.0961574000539258,True,27,-,-,-
Y2-S2-003K22,6,457,AS,intra_train,35,←,left,←,0.8001995000522584,True,27,-,-,-
Y2-S2-003K22,6,458,AS,exp,47,→,down,↓,0.6691067999927327,False,18,-1,0,0
Y2-S2-003K22,6,459,AS,exp,31,←,left,←,0.4343051000032574,True,19,-1,0,0
Y2-S2-003K22,6,460,AS,exp,36,↓,up,↑,0.9701594000216573,False,19,-1,0,0
Y2-S2-003K22,6,461,AS,exp,35,←,left,←,0.506690000067465,True,20,-1,0,0
Y2-S2-003K22,6,462,AS,exp,42,↓,down,↓,0.5763842000160366,True,20,-1,0,0
Y2-S2-003K22,6,463,AS,exp,30,→,right,→,1.2990413000807166,True,20,1,1,1
Y2-S2-003K22,6,464,AS,exp,46,↓,down,↓,0.6076192000182346,True,19,1,0,1
Y2-S2-003K22,6,465,AS,exp,46,↑,up,↑,0.5958830000599846,True,19,1,0,1
Y2-S2-003K22,6,466,AS,exp,29,↓,down,↓,0.7160252999747172,True,19,1,0,1
Y2-S2-003K22,6,467,AS,exp,48,←,left,←,0.43361039995215833,True,18,1,0,1
Y2-S2-003K22,6,468,AS,exp,38,↓,down,↓,0.8666707000229508,True,18,1,0,1
Y2-S2-003K22,6,469,AS,exp,49,↑,up,↑,0.7780483999522403,True,18,1,0,1
Y2-S2-003K22,6,470,AS,exp,32,↓,down,↓,0.7789601000258699,True,17,1,0,1
Y2-S2-003K22,6,471,AS,exp,28,↑,right,→,0.9410578000824898,False,17,-1,1,2
Y2-S2-003K22,6,472,AS,exp,43,←,up,↑,0.9331252999836579,False,18,-1,0,2
Y2-S2-003K22,6,473,AS,exp,30,→,right,→,1.0868641999550164,True,19,-1,0,2
Y2-S2-003K22,6,474,AS,exp,36,←,up,↑,0.6185917999828234,False,19,-1,0,2
Y2-S2-003K22,6,475,AS,exp,45,→,no_key,no_letter,-1.0,False,20,-1,0,2
Y2-S2-003K22,6,476,AS,exp,31,↑,up,↑,0.545231300056912,True,21,-1,0,2
Y2-S2-003K22,6,477,AS,exp,39,↓,down,↓,0.6897173000033945,True,21,-1,0,2
Y2-S2-003K22,6,478,AS,exp,48,↑,up,↑,0.53805229999125,True,21,1,1,3
Y2-S2-003K22,6,479,AS,exp,33,←,left,←,0.588922799914144,True,20,1,0,3
Y2-S2-003K22,6,480,AS,exp,46,↑,up,↑,0.6256260999944061,True,20,1,0,3
Y2-S2-003K22,6,481,AS,exp,42,←,up,↑,0.7674928999040276,False,20,-1,1,4
Y2-S2-003K22,6,482,AS,exp,38,→,right,→,0.7653491999953985,True,21,-1,0,4
Y2-S2-003K22,6,483,AS,exp,40,←,left,←,0.5883475999580696,True,21,-1,0,4
Y2-S2-003K22,6,484,AS,exp,48,↑,up,↑,1.1153737000422552,True,21,1,1,5
Y2-S2-003K22,6,485,AS,exp,44,↓,down,↓,0.6768400999717414,True,20,1,0,5
Y2-S2-003K22,6,486,AS,exp,31,←,left,←,1.1825304999947548,True,20,1,0,5
Y2-S2-003K22,6,487,AS,exp,25,↑,up,↑,0.5728271999396384,True,20,1,0,5
Y2-S2-003K22,6,488,AS,exp,48,←,left,←,0.41738519992213696,True,19,1,0,5
Y2-S2-003K22,6,489,AS,exp,49,→,right,→,0.9356883999425918,True,19,1,0,5
Y2-S2-003K22,6,490,AS,exp,46,←,left,←,0.5161833000602201,True,19,1,0,5
Y2-S2-003K22,6,491,AS,exp,49,→,up,↑,0.76967860001605,False,18,-1,1,6
Y2-S2-003K22,6,492,AS,exp,50,←,left,←,0.58826470002532,True,19,-1,0,6
Y2-S2-003K22,6,493,AS,exp,32,↓,down,↓,0.6555472000036389,True,19,-1,0,6
Y2-S2-003K22,6,494,AS,exp,33,→,right,→,0.6303539000218734,True,19,1,1,7
Y2-S2-003K22,6,495,AS,exp,47,↑,up,↑,0.5507300000172108,True,18,1,0,7
Y2-S2-003K22,6,496,AS,exp,47,←,left,←,0.4734212999464944,True,18,1,0,7
Y2-S2-003K22,6,497,AS,exp,32,↑,up,↑,0.4004330000607297,True,18,1,0,7
Y2-S2-003K22,6,498,AS,exp,27,→,right,→,0.7046981999883428,True,17,1,0,7
Y2-S2-003K22,6,499,AS,exp,44,↑,up,↑,0.4904372999444604,True,17,1,0,7
Y2-S2-003K22,6,500,AS,exp,25,↓,down,↓,0.5233605999965221,True,17,1,0,7
Y2-S2-003K22,6,501,AS,exp,36,←,left,←,0.46600460004992783,True,16,1,0,7
Y2-S2-003K22,6,502,AS,exp,49,↑,up,↑,0.3842271000612527,True,16,1,0,7
Y2-S2-003K22,6,503,AS,exp,25,→,left,←,0.6699746999656782,False,16,-1,1,8
Y2-S2-003K22,6,504,AS,exp,41,←,right,→,0.7833505999296904,False,17,-1,0,8
Y2-S2-003K22,6,505,AS,exp,39,↓,down,↓,0.5926163999829441,True,18,-1,0,8
Y2-S2-003K22,6,506,AS,exp,28,↑,up,↑,0.5882407000754029,True,18,-1,0,8
Y2-S2-003K22,6,507,AS,exp,28,→,left,←,0.4874889999628067,False,18,-1,0,8
Y2-S2-003K22,6,508,AS,exp,40,↓,down,↓,0.6349760999437422,True,19,-1,0,8
Y2-S2-003K22,6,509,AS,exp,47,→,right,→,1.106834200094454,True,19,-1,0,8
Y2-S2-003K22,6,510,AS,exp,50,←,left,←,0.5032535999780521,True,19,1,1,9
Y2-S2-003K22,6,511,AS,exp,34,↑,up,↑,0.5601285999873653,True,18,1,0,9
Y2-S2-003K22,6,512,AS,exp,47,↓,down,↓,0.585671600070782,True,18,1,0,9
Y2-S2-003K22,6,513,AS,exp,40,→,up,↑,0.8644985998980701,False,18,-1,1,10
Y2-S2-003K22,6,514,AS,exp,31,←,left,←,1.1188865000149235,True,19,-1,0,10
Y2-S2-003K22,6,515,AS,exp,41,↑,up,↑,0.49410080001689494,True,19,-1,0,10
Y2-S2-003K22,6,516,AS,exp,50,←,left,←,0.49092949996702373,True,19,1,1,11
Y2-S2-003K22,6,517,AS,exp,39,↓,down,↓,0.6853397999657318,True,18,1,0,11
Y2-S2-003K22,6,518,AS,exp,30,←,left,←,0.6078358000377193,True,18,1,0,11
Y2-S2-003K22,6,519,AS,exp,28,↓,down,↓,0.6572428999934345,True,18,1,0,11
Y2-S2-003K22,6,520,AS,exp,33,←,left,←,0.5243704000022262,True,17,1,0,11
Y2-S2-003K22,6,521,AS,exp,33,↑,up,↑,0.9216193000320345,True,17,1,0,11
Y2-S2-003K22,6,522,AS,exp,36,↓,down,↓,0.6641634000698105,True,17,1,0,11
Y2-S2-003K22,6,523,AS,exp,31,↑,up,↑,0.4426719000330195,True,16,1,0,11
Y2-S2-003K22,6,524,AS,exp,25,→,left,←,1.311805299948901,False,16,-1,1,12
Y2-S2-003K22,6,525,AS,exp,44,↓,down,↓,0.7824504999443889,True,17,-1,0,12
Y2-S2-003K22,6,526,AS,exp,47,↑,up,↑,0.5043695999775082,True,17,-1,0,12
Y2-S2-003K22,6,527,AS,exp,32,→,left,←,0.7406075999606401,False,17,-1,0,12
Y2-S2-003K22,6,528,AS,exp,27,↓,down,↓,0.6650450999150053,True,18,-1,0,12
Y2-S2-003K22,6,529,AS,exp,44,←,left,←,0.4738567000022158,True,18,-1,0,12
Y2-S2-003K22,6,530,AS,exp,33,→,right,→,0.5722795000765473,True,18,1,1,13
Y2-S2-003K22,6,531,AS,exp,47,↓,down,↓,0.5884030000306666,True,17,1,0,13
Y2-S2-003K22,6,532,AS,exp,40,←,left,←,0.4757286000531167,True,17,1,0,13
Y2-S2-003K22,6,533,AS,exp,27,↓,up,↑,1.148544399999082,False,17,-1,1,14
Y2-S2-003K22,6,534,AS,exp,33,↑,up,↑,0.5729812999488786,True,18,-1,0,14
Y2-S2-003K22,6,535,AS,exp,36,←,left,←,0.8900391000788659,True,18,-1,0,14
Y2-S2-003K22,6,536,AS,exp,32,↓,down,↓,0.6325677999993786,True,18,1,1,15
Y2-S2-003K22,6,537,AS,exp,36,↑,up,↑,0.7320280999410897,True,17,1,0,15
Y2-S2-003K22,6,538,AS,exp,34,↓,down,↓,0.5674022000748664,True,17,1,0,15
Y2-S2-003K22,6,539,AS,exp,41,←,left,←,0.5367061999859288,True,17,1,0,15
Y2-S2-003K22,6,540,AS,exp,36,↑,down,↓,0.8892266999464482,False,16,-1,1,16
Y2-S2-003K22,7,541,AS,intra_train,46,↓,down,↓,1.3092662999406457,True,27,-,-,-
Y2-S2-003K22,7,542,AS,intra_train,44,↑,up,↑,0.695367900072597,True,27,-,-,-
Y2-S2-003K22,7,543,AS,intra_train,44,→,right,→,0.6290159999625757,True,27,-,-,-
Y2-S2-003K22,7,544,AS,intra_train,44,↓,down,↓,1.235177000053227,True,27,-,-,-
Y2-S2-003K22,7,545,AS,intra_train,50,↑,up,↑,0.6217204000568017,True,27,-,-,-
Y2-S2-003K22,7,546,AS,exp,43,↓,right,→,1.1846267000073567,False,18,-1,0,0
Y2-S2-003K22,7,547,AS,exp,49,→,right,→,0.6303514998871833,True,19,-1,0,0
Y2-S2-003K22,7,548,AS,exp,46,↑,up,↑,0.6581689000595361,True,19,-1,0,0
Y2-S2-003K22,7,549,AS,exp,25,→,right,→,0.49318119999952614,True,19,1,1,1
Y2-S2-003K22,7,550,AS,exp,32,↑,right,→,0.7646243000635877,False,18,-1,1,2
Y2-S2-003K22,7,551,AS,exp,35,←,left,←,0.5115357000613585,True,19,-1,0,2
Y2-S2-003K22,7,552,AS,exp,25,↓,down,↓,0.5516896999906749,True,19,-1,0,2
Y2-S2-003K22,7,553,AS,exp,49,→,right,→,0.45057660003658384,True,19,1,1,3
Y2-S2-003K22,7,554,AS,exp,31,←,left,←,0.41722390009090304,True,18,1,0,3
Y2-S2-003K22,7,555,AS,exp,46,→,right,→,1.2511455999920145,True,18,1,0,3
Y2-S2-003K22,7,556,AS,exp,31,←,left,←,0.6753993999445811,True,18,1,0,3
Y2-S2-003K22,7,557,AS,exp,34,↑,up,↑,0.8766042999923229,True,17,1,0,3
Y2-S2-003K22,7,558,AS,exp,26,↓,down,↓,0.6505839999299496,True,17,1,0,3
Y2-S2-003K22,7,559,AS,exp,41,←,right,→,0.5711966999806464,False,17,-1,1,4
Y2-S2-003K22,7,560,AS,exp,30,→,right,→,0.565650700009428,True,18,-1,0,4
Y2-S2-003K22,7,561,AS,exp,27,←,left,←,0.5243472999427468,True,18,-1,0,4
Y2-S2-003K22,7,562,AS,exp,50,→,right,→,0.4339633999625221,True,18,1,1,5
Y2-S2-003K22,7,563,AS,exp,39,←,left,←,0.4681390000041574,True,17,1,0,5
Y2-S2-003K22,7,564,AS,exp,45,→,right,→,0.4590543999802321,True,17,1,0,5
Y2-S2-003K22,7,565,AS,exp,37,←,left,←,0.47011529991868883,True,17,1,0,5
Y2-S2-003K22,7,566,AS,exp,26,↓,down,↓,0.7387312999926507,True,16,1,0,5
Y2-S2-003K22,7,567,AS,exp,31,↑,up,↑,0.5431942000286654,True,16,1,0,5
Y2-S2-003K22,7,568,AS,exp,38,↓,down,↓,0.7143935000058264,True,16,1,0,5
Y2-S2-003K22,7,569,AS,exp,42,→,right,→,0.6017858000705019,True,15,1,0,5
Y2-S2-003K22,7,570,AS,exp,35,←,right,→,0.4377771000145003,False,15,-1,1,6
Y2-S2-003K22,7,571,AS,exp,25,↑,up,↑,1.132952000014484,True,16,-1,0,6
Y2-S2-003K22,7,572,AS,exp,42,↓,down,↓,0.5249320999719203,True,16,-1,0,6
Y2-S2-003K22,7,573,AS,exp,31,←,left,←,1.1243934999220073,True,16,1,1,7
Y2-S2-003K22,7,574,AS,exp,49,↓,down,↓,0.5903494999511167,True,15,1,0,7
Y2-S2-003K22,7,575,AS,exp,36,↑,up,↑,0.5563316000625491,True,15,1,0,7
Y2-S2-003K22,7,576,AS,exp,35,←,left,←,0.4834407999878749,True,15,1,0,7
Y2-S2-003K22,7,577,AS,exp,40,→,right,→,0.4825846999883652,True,14,1,0,7
Y2-S2-003K22,7,578,AS,exp,34,↓,down,↓,0.6246311999857426,True,14,1,0,7
Y2-S2-003K22,7,579,AS,exp,30,←,left,←,0.6297528999857605,True,14,1,0,7
Y2-S2-003K22,7,580,AS,exp,45,→,right,→,0.9411088000051677,True,13,1,0,7
Y2-S2-003K22,7,581,AS,exp,48,↓,left,←,0.42343500000424683,False,13,-1,1,8
Y2-S2-003K22,7,582,AS,exp,49,→,right,→,0.5337394999805838,True,14,-1,0,8
Y2-S2-003K22,7,583,AS,exp,48,↓,down,↓,0.6408897000364959,True,14,-1,0,8
Y2-S2-003K22,7,584,AS,exp,39,←,left,←,0.6387617000145838,True,14,1,1,9
Y2-S2-003K22,7,585,AS,exp,36,↑,up,↑,0.7270795999793336,True,13,1,0,9
Y2-S2-003K22,7,586,AS,exp,40,←,right,→,0.504349899943918,False,13,-1,1,10
Y2-S2-003K22,7,587,AS,exp,38,↓,down,↓,0.6278062000637874,True,14,-1,0,10
Y2-S2-003K22,7,588,AS,exp,35,←,left,←,0.4714350000722334,True,14,-1,0,10
Y2-S2-003K22,7,589,AS,exp,46,↑,right,→,0.5998349000001326,False,14,-1,0,10
Y2-S2-003K22,7,590,AS,exp,34,→,left,←,0.8204385000281036,False,15,-1,0,10
Y2-S2-003K22,7,591,AS,exp,36,↓,down,↓,0.6283355000196025,True,16,-1,0,10
Y2-S2-003K22,7,592,AS,exp,38,↑,up,↑,0.6953575001098216,True,16,-1,0,10
Y2-S2-003K22,7,593,AS,exp,47,←,left,←,0.7125661000609398,True,16,1,1,11
Y2-S2-003K22,7,594,AS,exp,26,↑,up,↑,0.5430079000070691,True,15,1,0,11
Y2-S2-003K22,7,595,AS,exp,33,→,right,→,0.5491354999830946,True,15,1,0,11
Y2-S2-003K22,7,596,AS,exp,25,←,left,←,0.5045997999841347,True,15,1,0,11
Y2-S2-003K22,7,597,AS,exp,39,↑,up,↑,0.5083314999938011,True,14,1,0,11
Y2-S2-003K22,7,598,AS,exp,50,↓,down,↓,0.7295948000391945,True,14,1,0,11
Y2-S2-003K22,7,599,AS,exp,30,↑,up,↑,0.6261352000292391,True,14,1,0,11
Y2-S2-003K22,7,600,AS,exp,36,→,left,←,0.5520053000655025,False,13,-1,1,12
Y2-S2-003K22,7,601,AS,exp,34,↑,up,↑,0.5005028999876231,True,14,-1,0,12
Y2-S2-003K22,7,602,AS,exp,36,→,no_key,no_letter,-1.0,False,14,-1,0,12
Y2-S2-003K22,7,603,AS,exp,28,←,left,←,0.49382420000620186,True,15,-1,0,12
Y2-S2-003K22,7,604,AS,exp,50,↓,down,↓,0.7323088999837637,True,15,-1,0,12
Y2-S2-003K22,7,605,AS,exp,31,←,right,→,0.43349369999486953,False,15,-1,0,12
Y2-S2-003K22,7,606,AS,exp,26,↑,up,↑,0.4728503000224009,True,16,-1,0,12
Y2-S2-003K22,7,607,AS,exp,32,→,right,→,0.5205075000412762,True,16,-1,0,12
Y2-S2-003K22,7,608,AS,exp,43,←,left,←,0.5327481999993324,True,16,1,1,13
Y2-S2-003K22,7,609,AS,exp,34,→,up,↑,0.6593921999447048,False,15,-1,1,14
Y2-S2-003K22,7,610,AS,exp,33,↑,up,↑,0.5802703000372276,True,16,-1,0,14
Y2-S2-003K22,7,611,AS,exp,40,→,right,→,0.40024919994175434,True,16,-1,0,14
Y2-S2-003K22,7,612,AS,exp,43,↑,left,←,0.44796110002789646,False,16,-1,0,14
Y2-S2-003K22,7,613,AS,exp,35,→,right,→,1.1930099000455812,True,17,-1,0,14
Y2-S2-003K22,7,614,AS,exp,41,↑,up,↑,0.5889765999745578,True,17,-1,0,14
Y2-S2-003K22,7,615,AS,exp,35,→,up,↑,0.8385594999417663,False,17,-1,0,14
Y2-S2-003K22,7,616,AS,exp,29,↓,down,↓,0.7998228999786079,True,18,-1,0,14
Y2-S2-003K22,7,617,AS,exp,43,←,left,←,0.7951927999965847,True,18,-1,0,14
Y2-S2-003K22,7,618,AS,exp,25,↑,up,↑,0.6319062999682501,True,18,1,1,15
Y2-S2-003K22,7,619,AS,exp,44,→,right,→,0.7874117000028491,True,17,1,0,15
Y2-S2-003K22,7,620,AS,exp,30,↓,down,↓,0.7494310999754816,True,17,1,0,15
Y2-S2-003K22,7,621,AS,exp,43,↑,up,↑,0.5203275999519974,True,17,1,0,15
Y2-S2-003K22,7,622,AS,exp,38,→,right,→,0.7413879999658093,True,16,1,0,15
Y2-S2-003K22,7,623,AS,exp,35,←,left,←,0.6497356001054868,True,16,1,0,15
Y2-S2-003K22,7,624,AS,exp,42,↓,down,↓,0.6315880999900401,True,16,1,0,15
Y2-S2-003K22,7,625,AS,exp,34,←,left,←,0.710311200004071,True,15,1,0,15
Y2-S2-003K22,7,626,AS,exp,41,↓,down,↓,0.5620069999713451,True,15,1,0,15
Y2-S2-003K22,7,627,AS,exp,28,←,left,←,0.6847999000456184,True,15,1,0,15
Y2-S2-003K22,7,628,AS,exp,48,↓,right,→,1.2215888000791892,False,14,-1,1,16
Y2-S2-003K22,8,629,PS,intra_train,27,←,left,←,0.8774858000688255,True,13,-,-,-
Y2-S2-003K22,8,630,PS,intra_train,50,↑,left,←,0.7508857999928296,False,13,-,-,-
Y2-S2-003K22,8,631,PS,intra_train,31,←,up,↑,0.7134975000517443,False,13,-,-,-
Y2-S2-003K22,8,632,PS,intra_train,50,↓,down,↓,0.5697333000134677,True,13,-,-,-
Y2-S2-003K22,8,633,PS,intra_train,41,↑,up,↑,0.743824900011532,True,13,-,-,-
Y2-S2-003K22,8,634,PS,exp,45,←,right,→,0.5582727999426425,False,9,-1,0,0
Y2-S2-003K22,8,635,PS,exp,44,↑,right,→,0.5762331000296399,False,10,-1,0,0
Y2-S2-003K22,8,636,PS,exp,28,↓,down,↓,0.5752664000028744,True,11,-1,0,0
Y2-S2-003K22,8,637,PS,exp,36,→,left,←,0.6080323000205681,False,11,-1,0,0
Y2-S2-003K22,8,638,PS,exp,40,↑,up,↑,0.46692970010917634,True,12,-1,0,0
Y2-S2-003K22,8,639,PS,exp,26,↓,down,↓,0.6450141000095755,True,12,-1,0,0
Y2-S2-003K22,8,640,PS,exp,42,↑,left,←,0.8547727999975905,False,12,-1,0,0
Y2-S2-003K22,8,641,PS,exp,34,↓,down,↓,0.6395051000872627,True,13,-1,0,0
Y2-S2-003K22,8,642,PS,exp,44,→,right,→,0.5311704999767244,True,13,-1,0,0
Y2-S2-003K22,8,643,PS,exp,26,↑,up,↑,0.5910596000030637,True,13,1,1,1
Y2-S2-003K22,8,644,PS,exp,50,↓,down,↓,0.5534668000182137,True,12,1,0,1
Y2-S2-003K22,8,645,PS,exp,42,←,left,←,0.4639916999731213,True,12,1,0,1
Y2-S2-003K22,8,646,PS,exp,39,→,right,→,0.45127329998649657,True,12,1,0,1
Y2-S2-003K22,8,647,PS,exp,26,↑,up,↑,0.5627604000037536,True,11,1,0,1
Y2-S2-003K22,8,648,PS,exp,47,↓,down,↓,0.6616881999652833,True,11,1,0,1
Y2-S2-003K22,8,649,PS,exp,28,→,right,→,0.520259500015527,True,11,1,0,1
Y2-S2-003K22,8,650,PS,exp,30,↑,down,↓,0.6707466999068856,False,10,-1,1,2
Y2-S2-003K22,8,651,PS,exp,35,←,right,→,0.46862300008069724,False,11,-1,0,2
Y2-S2-003K22,8,652,PS,exp,28,→,right,→,0.6088581000221893,True,12,-1,0,2
Y2-S2-003K22,8,653,PS,exp,43,↑,right,→,0.6804725000401959,False,12,-1,0,2
Y2-S2-003K22,8,654,PS,exp,47,↓,down,↓,0.8096403999952599,True,13,-1,0,2
Y2-S2-003K22,8,655,PS,exp,32,↑,up,↑,0.7419594000093639,True,13,-1,0,2
Y2-S2-003K22,8,656,PS,exp,37,↓,down,↓,0.5994393000146374,True,13,1,1,3
Y2-S2-003K22,8,657,PS,exp,49,←,left,←,0.5929240999976173,True,12,1,0,3
Y2-S2-003K22,8,658,PS,exp,47,→,right,→,0.730892000021413,True,12,1,0,3
Y2-S2-003K22,8,659,PS,exp,28,↓,down,↓,0.667575899977237,True,12,1,0,3
Y2-S2-003K22,8,660,PS,exp,36,→,right,→,0.6509954999201,True,11,1,0,3
Y2-S2-003K22,8,661,PS,exp,47,↑,down,↓,0.6145511000650004,False,11,-1,1,4
Y2-S2-003K22,8,662,PS,exp,32,←,right,→,0.7727311999769881,False,12,-1,0,4
Y2-S2-003K22,8,663,PS,exp,27,↓,down,↓,0.5623775999993086,True,13,-1,0,4
Y2-S2-003K22,8,664,PS,exp,48,←,left,←,0.6488632000982761,True,13,-1,0,4
Y2-S2-003K22,8,665,PS,exp,34,↓,down,↓,0.5629168000305071,True,13,1,1,5
Y2-S2-003K22,8,666,PS,exp,39,→,down,↓,0.5035499000223354,False,12,-1,1,6
Y2-S2-003K22,8,667,PS,exp,50,↓,down,↓,0.45348779996857047,True,13,-1,0,6
Y2-S2-003K22,8,668,PS,exp,38,↑,up,↑,0.7459344998933375,True,13,-1,0,6
Y2-S2-003K22,8,669,PS,exp,37,←,left,←,0.48030429997015744,True,13,1,1,7
Y2-S2-003K22,8,670,PS,exp,41,↑,down,↓,0.5871681999415159,False,12,-1,1,8
Y2-S2-003K22,8,671,PS,exp,25,↓,down,↓,0.6562256999313831,True,13,-1,0,8
Y2-S2-003K22,8,672,PS,exp,40,←,left,←,0.7333063000114635,True,13,-1,0,8
Y2-S2-003K22,8,673,PS,exp,32,→,right,→,0.7308990999590605,True,13,1,1,9
Y2-S2-003K22,8,674,PS,exp,34,↑,up,↑,0.7904767000582069,True,12,1,0,9
Y2-S2-003K22,8,675,PS,exp,48,→,up,↑,0.5439034999581054,False,12,-1,1,10
Y2-S2-003K22,8,676,PS,exp,34,↓,down,↓,0.6520028000231832,True,13,-1,0,10
Y2-S2-003K22,8,677,PS,exp,30,→,right,→,0.6062230999814346,True,13,-1,0,10
Y2-S2-003K22,8,678,PS,exp,34,←,left,←,0.6302149000111967,True,13,1,1,11
Y2-S2-003K22,8,679,PS,exp,39,→,right,→,0.49389739998150617,True,12,1,0,11
Y2-S2-003K22,8,680,PS,exp,26,↑,up,↑,0.41398369998205453,True,12,1,0,11
Y2-S2-003K22,8,681,PS,exp,35,←,left,←,0.3796023998875171,True,12,1,0,11
Y2-S2-003K22,8,682,PS,exp,45,↓,down,↓,0.6318348000058904,True,11,1,0,11
Y2-S2-003K22,8,683,PS,exp,34,←,up,↑,0.7063567000441253,False,11,-1,1,12
Y2-S2-003K22,8,684,PS,exp,40,↑,up,↑,0.6290238000219688,True,12,-1,0,12
Y2-S2-003K22,8,685,PS,exp,30,↓,right,→,0.6923241999465972,False,12,-1,0,12
Y2-S2-003K22,8,686,PS,exp,32,→,right,→,0.7332920999033377,True,13,-1,0,12
Y2-S2-003K22,8,687,PS,exp,47,←,right,→,0.5911159999668598,False,13,-1,0,12
Y2-S2-003K22,8,688,PS,exp,49,↑,down,↓,0.5317449000431225,False,14,-1,0,12
Y2-S2-003K22,8,689,PS,exp,41,↓,right,→,0.4413638999685645,False,15,-1,0,12
Y2-S2-003K22,8,690,PS,exp,48,←,left,←,0.5813478999771178,True,16,-1,0,12
Y2-S2-003K22,8,691,PS,exp,25,↓,right,→,0.7414802999701351,False,16,-1,0,12
Y2-S2-003K22,8,692,PS,exp,39,→,right,→,0.5285820999415591,True,17,-1,0,12
Y2-S2-003K22,8,693,PS,exp,25,↓,down,↓,0.6076005999930203,True,17,-1,0,12
Y2-S2-003K22,8,694,PS,exp,45,→,right,→,0.5455916000064462,True,17,1,1,13
Y2-S2-003K22,8,695,PS,exp,42,↓,down,↓,0.48804830003064126,True,16,1,0,13
Y2-S2-003K22,8,696,PS,exp,35,→,right,→,0.48032910004258156,True,16,1,0,13
Y2-S2-003K22,8,697,PS,exp,48,↑,up,↑,0.40056039998307824,True,16,1,0,13
Y2-S2-003K22,8,698,PS,exp,32,←,left,←,0.42770449991803616,True,15,1,0,13
Y2-S2-003K22,8,699,PS,exp,36,↓,down,↓,0.6801179000176489,True,15,1,0,13
Y2-S2-003K22,8,700,PS,exp,40,↑,up,↑,0.6014578000176698,True,15,1,0,13
Y2-S2-003K22,8,701,PS,exp,48,←,left,←,0.6248311999952421,True,14,1,0,13
Y2-S2-003K22,8,702,PS,exp,45,↓,down,↓,0.6631091999588534,True,14,1,0,13
Y2-S2-003K22,8,703,PS,exp,47,→,right,→,0.4443388000363484,True,14,1,0,13
Y2-S2-003K22,8,704,PS,exp,34,↓,down,↓,0.736733500030823,True,13,1,0,13
Y2-S2-003K22,8,705,PS,exp,28,↑,up,↑,0.5261603998951614,True,13,1,0,13
Y2-S2-003K22,8,706,PS,exp,46,↓,down,↓,0.6314300999511033,True,13,1,0,13
Y2-S2-003K22,8,707,PS,exp,43,←,left,←,0.5724027000833303,True,12,1,0,13
Y2-S2-003K22,8,708,PS,exp,36,→,right,→,0.5863130999496207,True,12,1,0,13
Y2-S2-003K22,8,709,PS,exp,37,↓,down,↓,0.7836150000803173,True,12,1,0,13
Y2-S2-003K22,8,710,PS,exp,37,↑,up,↑,0.5445553999161348,True,11,1,0,13
Y2-S2-003K22,8,711,PS,exp,39,←,left,←,0.5332612000638619,True,11,1,0,13
Y2-S2-003K22,8,712,PS,exp,35,→,right,→,0.4656746999826282,True,11,1,0,13
Y2-S2-003K22,8,713,PS,exp,42,↓,down,↓,0.6802052999846637,True,10,1,0,13
Y2-S2-003K22,8,714,PS,exp,38,←,left,←,0.4162694000406191,True,10,1,0,13
Y2-S2-003K22,8,715,PS,exp,47,→,down,↓,0.7354777000145987,False,10,-1,1,14
Y2-S2-003K22,8,716,PS,exp,25,←,left,←,0.5657639000564814,True,11,-1,0,14
Y2-S2-003K22,8,717,PS,exp,26,↓,down,↓,0.6081687000114471,True,11,-1,0,14
Y2-S2-003K22,8,718,PS,exp,35,→,right,→,0.5456378000089899,True,11,1,1,15
Y2-S2-003K22,8,719,PS,exp,25,↓,down,↓,0.5746988999890164,True,10,1,0,15
Y2-S2-003K22,8,720,PS,exp,28,→,up,↑,0.5396395999705419,False,10,-1,1,16
