PART_ID,Block_no,Trial_no,Block_type,Trial_type,CSI,Stim_letter,Key_pressed,letter_choose,Rt,Corr,Stimulus Time,Level,Reversal,Revs_count
Y2-S2-132M21,1,1,PS,train,36,→,right,→,1.461601400282234,True,30,-,-,-
Y2-S2-132M21,1,2,PS,train,34,↑,up,↑,0.9327751002274454,True,30,-,-,-
Y2-S2-132M21,1,3,PS,train,43,←,left,←,0.69242940004915,True,30,-,-,-
Y2-S2-132M21,1,4,PS,train,27,↓,down,↓,1.1070399000309408,True,30,-,-,-
Y2-S2-132M21,1,5,PS,train,44,→,right,→,0.9254550999030471,True,30,-,-,-
Y2-S2-132M21,1,6,PS,train,44,←,left,←,0.7436693999916315,True,30,-,-,-
Y2-S2-132M21,1,7,PS,train,36,→,right,→,1.1307902000844479,True,30,-,-,-
Y2-S2-132M21,1,8,PS,train,26,↑,up,↑,1.1143884002231061,True,30,-,-,-
Y2-S2-132M21,1,9,PS,train,41,↓,down,↓,1.0453197001479566,True,30,-,-,-
Y2-S2-132M21,1,10,PS,train,44,→,right,→,0.8992521003820002,True,30,-,-,-
Y2-S2-132M21,2,11,AS,train,43,↑,up,↑,0.9652402000501752,True,45,-,-,-
Y2-S2-132M21,2,12,AS,train,40,↓,down,↓,0.9671636000275612,True,45,-,-,-
Y2-S2-132M21,2,13,AS,train,38,→,right,→,0.8339717001654208,True,45,-,-,-
Y2-S2-132M21,2,14,AS,train,39,↓,down,↓,0.9921103999949992,True,45,-,-,-
Y2-S2-132M21,2,15,AS,train,48,→,right,→,0.9724229997955263,True,45,-,-,-
Y2-S2-132M21,2,16,AS,train,31,↑,up,↑,0.8340829997323453,True,45,-,-,-
Y2-S2-132M21,2,17,AS,train,42,→,right,→,1.0849311999045312,True,45,-,-,-
Y2-S2-132M21,2,18,AS,train,31,←,left,←,1.1330444999039173,True,45,-,-,-
Y2-S2-132M21,2,19,AS,train,26,↓,down,↓,1.1966208000667393,True,45,-,-,-
Y2-S2-132M21,2,20,AS,train,31,↑,up,↑,1.1967943999916315,True,45,-,-,-
Y2-S2-132M21,-,21,PS,adaptive,41,←,left,←,1.0699636996723711,True,10,0,0,0
Y2-S2-132M21,-,22,PS,adaptive,25,→,right,→,0.7394774998538196,True,10,0,0,0
Y2-S2-132M21,-,23,PS,adaptive,34,↓,down,↓,0.9633943000808358,True,10,1,0,0
Y2-S2-132M21,-,24,PS,adaptive,27,←,left,←,0.7254103999584913,True,9,1,0,0
Y2-S2-132M21,-,25,PS,adaptive,38,→,right,→,0.7841722997836769,True,9,1,0,0
Y2-S2-132M21,-,26,PS,adaptive,30,↓,up,↑,0.8116533001884818,False,9,-1,1,1
Y2-S2-132M21,-,27,PS,adaptive,32,→,right,→,0.7172248000279069,True,10,-1,0,1
Y2-S2-132M21,-,28,PS,adaptive,46,←,left,←,0.9098544996231794,True,10,-1,0,1
Y2-S2-132M21,-,29,PS,adaptive,41,↑,up,↑,0.8756610997952521,True,10,1,1,2
Y2-S2-132M21,-,30,PS,adaptive,25,→,up,↑,0.7160825999453664,False,9,-1,1,3
Y2-S2-132M21,-,31,PS,adaptive,45,↓,down,↓,0.7474512001499534,True,10,-1,0,3
Y2-S2-132M21,-,32,PS,adaptive,30,↑,up,↑,0.7024139999412,True,10,-1,0,3
Y2-S2-132M21,-,33,PS,adaptive,39,←,left,←,0.8119875998236239,True,10,1,1,4
Y2-S2-132M21,-,34,AS,adaptive,43,→,right,→,0.7940611997619271,True,20,0,0,0
Y2-S2-132M21,-,35,AS,adaptive,50,↑,up,↑,1.7279376997612417,True,20,0,0,0
Y2-S2-132M21,-,36,AS,adaptive,29,←,left,←,0.7349370000883937,True,20,1,0,0
Y2-S2-132M21,-,37,AS,adaptive,28,→,right,→,0.6538681997917593,True,19,1,0,0
Y2-S2-132M21,-,38,AS,adaptive,34,↑,up,↑,0.629369200207293,True,19,1,0,0
Y2-S2-132M21,-,39,AS,adaptive,36,←,left,←,0.7490765997208655,True,19,1,0,0
Y2-S2-132M21,-,40,AS,adaptive,31,→,right,→,0.6377186002209783,True,18,1,0,0
Y2-S2-132M21,-,41,AS,adaptive,27,↓,up,↑,0.8345057000406086,False,18,-1,1,1
Y2-S2-132M21,-,42,AS,adaptive,35,←,left,←,0.6359577002003789,True,19,-1,0,1
Y2-S2-132M21,-,43,AS,adaptive,50,→,right,→,0.7303725997917354,True,19,-1,0,1
Y2-S2-132M21,-,44,AS,adaptive,40,↓,right,→,1.0968064996413887,False,19,-1,0,1
Y2-S2-132M21,-,45,AS,adaptive,35,→,right,→,0.7420268999412656,True,20,-1,0,1
Y2-S2-132M21,-,46,AS,adaptive,48,↑,right,→,0.6677509001456201,False,20,-1,0,1
Y2-S2-132M21,-,47,AS,adaptive,27,→,right,→,0.6155208996497095,True,21,-1,0,1
Y2-S2-132M21,-,48,AS,adaptive,44,↓,up,↑,1.244698700029403,False,21,-1,0,1
Y2-S2-132M21,-,49,AS,adaptive,40,→,down,↓,0.08430980006232858,False,22,-1,0,1
Y2-S2-132M21,-,50,AS,adaptive,50,↑,up,↑,0.6540203001350164,True,23,-1,0,1
Y2-S2-132M21,-,51,AS,adaptive,50,→,right,→,0.7878519003279507,True,23,-1,0,1
Y2-S2-132M21,-,52,AS,adaptive,40,←,left,←,0.6216357001103461,True,23,1,1,2
Y2-S2-132M21,-,53,AS,adaptive,48,↑,up,↑,1.0536115998402238,True,22,1,0,2
Y2-S2-132M21,-,54,AS,adaptive,50,→,no_key,no_letter,-1.0,False,22,-1,1,3
Y2-S2-132M21,-,55,AS,adaptive,49,←,left,←,0.806625499855727,True,23,-1,0,3
Y2-S2-132M21,-,56,AS,adaptive,26,↓,down,↓,0.9091795003041625,True,23,-1,0,3
Y2-S2-132M21,-,57,AS,adaptive,31,↑,up,↑,1.0680623999796808,True,23,1,1,4
Y2-S2-132M21,1,58,PS,intra_train,34,→,right,→,0.9482370000332594,True,13,-,-,-
Y2-S2-132M21,1,59,PS,intra_train,35,↑,left,←,0.4751722998917103,False,13,-,-,-
Y2-S2-132M21,1,60,PS,intra_train,35,↓,up,↑,1.021504099946469,False,13,-,-,-
Y2-S2-132M21,1,61,PS,intra_train,47,→,right,→,0.6537845996208489,True,13,-,-,-
Y2-S2-132M21,1,62,PS,intra_train,28,↓,up,↑,0.7685823999345303,False,13,-,-,-
Y2-S2-132M21,1,63,PS,exp,25,↑,no_key,no_letter,-1.0,False,9,-1,0,0
Y2-S2-132M21,1,64,PS,exp,39,→,down,↓,1.0768764000386,False,10,-1,0,0
Y2-S2-132M21,1,65,PS,exp,45,↑,up,↑,0.5892219999805093,True,11,-1,0,0
Y2-S2-132M21,1,66,PS,exp,47,→,right,→,0.57294060010463,True,11,-1,0,0
Y2-S2-132M21,1,67,PS,exp,41,←,left,←,0.7562037003226578,True,11,1,1,1
Y2-S2-132M21,1,68,PS,exp,40,↓,down,↓,0.8668387997895479,True,10,1,0,1
Y2-S2-132M21,1,69,PS,exp,38,←,left,←,0.5596908000297844,True,10,1,0,1
Y2-S2-132M21,1,70,PS,exp,32,↑,up,↑,0.7274291003122926,True,10,1,0,1
Y2-S2-132M21,1,71,PS,exp,25,↓,down,↓,0.6644494999200106,True,9,1,0,1
Y2-S2-132M21,1,72,PS,exp,49,←,left,←,0.593384400010109,True,9,1,0,1
Y2-S2-132M21,1,73,PS,exp,27,↓,down,↓,0.7194674001075327,True,9,1,0,1
Y2-S2-132M21,1,74,PS,exp,32,←,left,←,0.636856600176543,True,8,1,0,1
Y2-S2-132M21,1,75,PS,exp,28,↓,down,↓,0.7176143997348845,True,8,1,0,1
Y2-S2-132M21,1,76,PS,exp,37,↑,down,↓,0.9738007001578808,False,8,-1,1,2
Y2-S2-132M21,1,77,PS,exp,32,→,right,→,0.6185616999864578,True,9,-1,0,2
Y2-S2-132M21,1,78,PS,exp,38,↑,right,→,1.270412300247699,False,9,-1,0,2
Y2-S2-132M21,1,79,PS,exp,26,→,right,→,0.4615580001845956,True,10,-1,0,2
Y2-S2-132M21,1,80,PS,exp,41,↓,down,↓,0.7162099000997841,True,10,-1,0,2
Y2-S2-132M21,1,81,PS,exp,35,↑,up,↑,0.497161699924618,True,10,1,1,3
Y2-S2-132M21,1,82,PS,exp,48,→,right,→,0.5477232001721859,True,9,1,0,3
Y2-S2-132M21,1,83,PS,exp,25,↓,down,↓,0.9134810999967158,True,9,1,0,3
Y2-S2-132M21,1,84,PS,exp,26,←,left,←,0.5979136000387371,True,9,1,0,3
Y2-S2-132M21,1,85,PS,exp,39,→,right,→,0.56651909975335,True,8,1,0,3
Y2-S2-132M21,1,86,PS,exp,38,↓,no_key,no_letter,-1.0,False,8,-1,1,4
Y2-S2-132M21,1,87,PS,exp,50,←,left,←,0.4865886000916362,True,9,-1,0,4
Y2-S2-132M21,1,88,PS,exp,49,→,right,→,0.6172092002816498,True,9,-1,0,4
Y2-S2-132M21,1,89,PS,exp,34,↑,up,↑,0.5932684997096658,True,9,1,1,5
Y2-S2-132M21,1,90,PS,exp,25,→,down,↓,1.547190499957651,False,8,-1,1,6
Y2-S2-132M21,1,91,PS,exp,31,↑,up,↑,1.0224845996126533,True,9,-1,0,6
Y2-S2-132M21,1,92,PS,exp,43,→,right,→,0.46424590004608035,True,9,-1,0,6
Y2-S2-132M21,1,93,PS,exp,49,←,left,←,0.8117621000856161,True,9,1,1,7
Y2-S2-132M21,1,94,PS,exp,34,→,right,→,0.576210199855268,True,8,1,0,7
Y2-S2-132M21,1,95,PS,exp,44,↓,left,←,0.7540644998662174,False,8,-1,1,8
Y2-S2-132M21,1,96,PS,exp,38,↑,up,↑,0.5507739000022411,True,9,-1,0,8
Y2-S2-132M21,1,97,PS,exp,26,←,up,↑,0.7327423999086022,False,9,-1,0,8
Y2-S2-132M21,1,98,PS,exp,25,↓,down,↓,0.7865459001623094,True,10,-1,0,8
Y2-S2-132M21,1,99,PS,exp,33,→,right,→,0.6212500999681652,True,10,-1,0,8
Y2-S2-132M21,1,100,PS,exp,41,←,left,←,0.4691438996233046,True,10,1,1,9
Y2-S2-132M21,1,101,PS,exp,42,↑,up,↑,0.534306799992919,True,9,1,0,9
Y2-S2-132M21,1,102,PS,exp,33,←,right,→,0.7095775995403528,False,9,-1,1,10
Y2-S2-132M21,1,103,PS,exp,47,↑,no_key,no_letter,-1.0,False,10,-1,0,10
Y2-S2-132M21,1,104,PS,exp,38,↓,down,↓,0.6825513998046517,True,11,-1,0,10
Y2-S2-132M21,1,105,PS,exp,27,↑,up,↑,0.745508000254631,True,11,-1,0,10
Y2-S2-132M21,1,106,PS,exp,31,→,right,→,0.6162302000448108,True,11,1,1,11
Y2-S2-132M21,1,107,PS,exp,41,↑,up,↑,0.43576630018651485,True,10,1,0,11
Y2-S2-132M21,1,108,PS,exp,47,↓,right,→,0.5040663001127541,False,10,-1,1,12
Y2-S2-132M21,1,109,PS,exp,25,←,down,↓,1.6291331998072565,False,11,-1,0,12
Y2-S2-132M21,1,110,PS,exp,31,→,right,→,1.0311412001028657,True,12,-1,0,12
Y2-S2-132M21,1,111,PS,exp,32,↑,up,↑,0.4883905998431146,True,12,-1,0,12
Y2-S2-132M21,1,112,PS,exp,27,←,left,←,0.833725200034678,True,12,1,1,13
Y2-S2-132M21,1,113,PS,exp,40,↑,up,↑,0.5986735997721553,True,11,1,0,13
Y2-S2-132M21,1,114,PS,exp,48,↓,right,→,1.6392764998599887,False,11,-1,1,14
Y2-S2-132M21,1,115,PS,exp,46,→,right,→,0.42562599992379546,True,12,-1,0,14
Y2-S2-132M21,1,116,PS,exp,27,↓,down,↓,0.7375114997848868,True,12,-1,0,14
Y2-S2-132M21,1,117,PS,exp,33,↑,up,↑,0.5202159001491964,True,12,1,1,15
Y2-S2-132M21,1,118,PS,exp,39,→,right,→,0.45916249975562096,True,11,1,0,15
Y2-S2-132M21,1,119,PS,exp,31,←,left,←,0.8077283999882638,True,11,1,0,15
Y2-S2-132M21,1,120,PS,exp,31,↓,down,↓,0.7049969001673162,True,11,1,0,15
Y2-S2-132M21,1,121,PS,exp,25,←,right,→,1.3059941004030406,False,10,-1,1,16
Y2-S2-132M21,2,122,AS,intra_train,38,↑,up,↑,1.0658505000174046,True,33,-,-,-
Y2-S2-132M21,2,123,AS,intra_train,36,→,right,→,1.6416061003692448,True,33,-,-,-
Y2-S2-132M21,2,124,AS,intra_train,27,↓,down,↓,0.9893326000310481,True,33,-,-,-
Y2-S2-132M21,2,125,AS,intra_train,37,→,right,→,0.7623658003285527,True,33,-,-,-
Y2-S2-132M21,2,126,AS,intra_train,44,↑,up,↑,1.0915308999828994,True,33,-,-,-
Y2-S2-132M21,2,127,AS,exp,36,→,right,→,1.2941584000363946,True,22,0,0,0
Y2-S2-132M21,2,128,AS,exp,41,↓,down,↓,0.7785705998539925,True,22,0,0,0
Y2-S2-132M21,2,129,AS,exp,29,→,right,→,0.7297879997640848,True,22,1,0,0
Y2-S2-132M21,2,130,AS,exp,37,←,left,←,0.6351401996798813,True,21,1,0,0
Y2-S2-132M21,2,131,AS,exp,44,→,right,→,0.6999375000596046,True,21,1,0,0
Y2-S2-132M21,2,132,AS,exp,30,↓,down,↓,0.9361710003577173,True,21,1,0,0
Y2-S2-132M21,2,133,AS,exp,48,→,right,→,0.8023935998789966,True,20,1,0,0
Y2-S2-132M21,2,134,AS,exp,42,↓,up,↑,0.8170845997519791,False,20,-1,1,1
Y2-S2-132M21,2,135,AS,exp,36,↑,up,↑,0.7581385998055339,True,21,-1,0,1
Y2-S2-132M21,2,136,AS,exp,46,→,right,→,1.6351541001349688,True,21,-1,0,1
Y2-S2-132M21,2,137,AS,exp,27,↑,up,↑,0.7589179999195039,True,21,1,1,2
Y2-S2-132M21,2,138,AS,exp,41,←,up,↑,0.865252900402993,False,20,-1,1,3
Y2-S2-132M21,2,139,AS,exp,35,↑,up,↑,0.75117679964751,True,21,-1,0,3
Y2-S2-132M21,2,140,AS,exp,29,←,left,←,0.6409591999836266,True,21,-1,0,3
Y2-S2-132M21,2,141,AS,exp,42,↑,up,↑,0.7083828998729587,True,21,1,1,4
Y2-S2-132M21,2,142,AS,exp,27,↓,up,↑,0.5458261002786458,False,20,-1,1,5
Y2-S2-132M21,2,143,AS,exp,27,→,right,→,0.662190199829638,True,21,-1,0,5
Y2-S2-132M21,2,144,AS,exp,30,↑,up,↑,0.7226678002625704,True,21,-1,0,5
Y2-S2-132M21,2,145,AS,exp,32,↓,down,↓,1.168911499902606,True,21,1,1,6
Y2-S2-132M21,2,146,AS,exp,27,↑,left,←,1.862035300116986,False,20,-1,1,7
Y2-S2-132M21,2,147,AS,exp,34,↓,down,↓,0.9509781999513507,True,21,-1,0,7
Y2-S2-132M21,2,148,AS,exp,50,↑,up,↑,0.7494776002131402,True,21,-1,0,7
Y2-S2-132M21,2,149,AS,exp,38,←,left,←,0.8188187000341713,True,21,1,1,8
Y2-S2-132M21,2,150,AS,exp,26,↑,up,↑,0.6775372000411153,True,20,1,0,8
Y2-S2-132M21,2,151,AS,exp,43,←,left,←,0.7384092002175748,True,20,1,0,8
Y2-S2-132M21,2,152,AS,exp,33,↑,up,↑,0.6133220000192523,True,20,1,0,8
Y2-S2-132M21,2,153,AS,exp,38,↓,down,↓,0.9629005999304354,True,19,1,0,8
Y2-S2-132M21,2,154,AS,exp,37,→,right,→,0.5259169000200927,True,19,1,0,8
Y2-S2-132M21,2,155,AS,exp,48,↑,up,↑,0.45057629980146885,True,19,1,0,8
Y2-S2-132M21,2,156,AS,exp,47,→,right,→,0.9851550003513694,True,18,1,0,8
Y2-S2-132M21,2,157,AS,exp,35,↑,up,↑,0.6631292998790741,True,18,1,0,8
Y2-S2-132M21,2,158,AS,exp,42,←,left,←,0.7872048998251557,True,18,1,0,8
Y2-S2-132M21,2,159,AS,exp,49,↑,up,↑,0.7746548997238278,True,17,1,0,8
Y2-S2-132M21,2,160,AS,exp,36,→,right,→,0.6540832999162376,True,17,1,0,8
Y2-S2-132M21,2,161,AS,exp,28,←,left,←,0.7070328998379409,True,17,1,0,8
Y2-S2-132M21,2,162,AS,exp,40,↓,down,↓,1.1126548000611365,True,16,1,0,8
Y2-S2-132M21,2,163,AS,exp,30,↑,up,↑,0.5824250001460314,True,16,1,0,8
Y2-S2-132M21,2,164,AS,exp,38,↓,down,↓,0.7697986997663975,True,16,1,0,8
Y2-S2-132M21,2,165,AS,exp,31,←,up,↑,0.7990240999497473,False,15,-1,1,9
Y2-S2-132M21,2,166,AS,exp,48,↑,up,↑,0.6180722997523844,True,16,-1,0,9
Y2-S2-132M21,2,167,AS,exp,25,←,left,←,0.7428524000570178,True,16,-1,0,9
Y2-S2-132M21,2,168,AS,exp,49,↑,up,↑,0.7309987996704876,True,16,1,1,10
Y2-S2-132M21,2,169,AS,exp,33,↓,down,↓,0.8618739997036755,True,15,1,0,10
Y2-S2-132M21,2,170,AS,exp,50,←,down,↓,1.1521173999644816,False,15,-1,1,11
Y2-S2-132M21,2,171,AS,exp,30,↓,up,↑,0.6724272998981178,False,16,-1,0,11
Y2-S2-132M21,2,172,AS,exp,25,→,right,→,0.734204700216651,True,17,-1,0,11
Y2-S2-132M21,2,173,AS,exp,40,↓,down,↓,0.6707717003300786,True,17,-1,0,11
Y2-S2-132M21,2,174,AS,exp,31,←,left,←,0.6845415001735091,True,17,1,1,12
Y2-S2-132M21,2,175,AS,exp,29,↑,up,↑,0.6407365999184549,True,16,1,0,12
Y2-S2-132M21,2,176,AS,exp,26,←,left,←,0.6458016000688076,True,16,1,0,12
Y2-S2-132M21,2,177,AS,exp,42,→,right,→,0.833385500125587,True,16,1,0,12
Y2-S2-132M21,2,178,AS,exp,36,↑,up,↑,0.5521502001211047,True,15,1,0,12
Y2-S2-132M21,2,179,AS,exp,43,←,down,↓,1.3809933001175523,False,15,-1,1,13
Y2-S2-132M21,2,180,AS,exp,40,→,left,←,0.8028979003429413,False,16,-1,0,13
Y2-S2-132M21,2,181,AS,exp,29,←,left,←,0.7638754001818597,True,17,-1,0,13
Y2-S2-132M21,2,182,AS,exp,27,↓,right,→,0.8067481997422874,False,17,-1,0,13
Y2-S2-132M21,2,183,AS,exp,45,↑,up,↑,0.7638954999856651,True,18,-1,0,13
Y2-S2-132M21,2,184,AS,exp,34,→,left,←,0.7353980001062155,False,18,-1,0,13
Y2-S2-132M21,2,185,AS,exp,43,↑,up,↑,1.0107052000239491,True,19,-1,0,13
Y2-S2-132M21,2,186,AS,exp,29,←,left,←,0.9874770003370941,True,19,-1,0,13
Y2-S2-132M21,2,187,AS,exp,28,→,left,←,1.0915282000787556,False,19,-1,0,13
Y2-S2-132M21,2,188,AS,exp,30,↓,up,↑,0.6862564999610186,False,20,-1,0,13
Y2-S2-132M21,2,189,AS,exp,40,↑,up,↑,1.134947500191629,True,21,-1,0,13
Y2-S2-132M21,2,190,AS,exp,37,↓,down,↓,0.7758575002662838,True,21,-1,0,13
Y2-S2-132M21,2,191,AS,exp,34,↑,up,↑,0.8123755999840796,True,21,1,1,14
Y2-S2-132M21,2,192,AS,exp,34,→,right,→,0.7044078996405005,True,20,1,0,14
Y2-S2-132M21,2,193,AS,exp,41,←,left,←,0.6765895998105407,True,20,1,0,14
Y2-S2-132M21,2,194,AS,exp,28,→,right,→,0.7442164998501539,True,20,1,0,14
Y2-S2-132M21,2,195,AS,exp,25,↓,down,↓,0.8757935999892652,True,19,1,0,14
Y2-S2-132M21,2,196,AS,exp,37,↑,up,↑,0.708109799772501,True,19,1,0,14
Y2-S2-132M21,2,197,AS,exp,49,↓,down,↓,0.7938815001398325,True,19,1,0,14
Y2-S2-132M21,2,198,AS,exp,49,→,right,→,0.6471518999896944,True,18,1,0,14
Y2-S2-132M21,2,199,AS,exp,37,←,left,←,0.7965440000407398,True,18,1,0,14
Y2-S2-132M21,2,200,AS,exp,35,→,right,→,0.6356058996170759,True,18,1,0,14
Y2-S2-132M21,2,201,AS,exp,33,↓,down,↓,1.0490780998952687,True,17,1,0,14
Y2-S2-132M21,2,202,AS,exp,35,→,right,→,0.6886534998193383,True,17,1,0,14
Y2-S2-132M21,2,203,AS,exp,29,←,right,→,0.9245623000897467,False,17,-1,1,15
Y2-S2-132M21,2,204,AS,exp,37,↓,down,↓,0.7922339998185635,True,18,-1,0,15
Y2-S2-132M21,2,205,AS,exp,34,←,left,←,0.7823683000169694,True,18,-1,0,15
Y2-S2-132M21,2,206,AS,exp,40,→,right,→,0.9956185002811253,True,18,1,1,16
Y2-S2-132M21,3,207,AS,intra_train,35,↓,down,↓,1.1259449003264308,True,33,-,-,-
Y2-S2-132M21,3,208,AS,intra_train,32,→,right,→,0.6170948999933898,True,33,-,-,-
Y2-S2-132M21,3,209,AS,intra_train,37,←,left,←,0.6833770996890962,True,33,-,-,-
Y2-S2-132M21,3,210,AS,intra_train,26,↓,down,↓,1.4205355001613498,True,33,-,-,-
Y2-S2-132M21,3,211,AS,intra_train,49,↑,up,↑,0.6671935999765992,True,33,-,-,-
Y2-S2-132M21,3,212,AS,exp,49,↓,down,↓,0.8813086999580264,True,22,0,0,0
Y2-S2-132M21,3,213,AS,exp,39,→,right,→,0.853603099938482,True,22,0,0,0
Y2-S2-132M21,3,214,AS,exp,25,←,left,←,0.6451834999024868,True,22,1,0,0
Y2-S2-132M21,3,215,AS,exp,41,→,right,→,0.7370071997866035,True,21,1,0,0
Y2-S2-132M21,3,216,AS,exp,32,↑,up,↑,0.7469498999416828,True,21,1,0,0
Y2-S2-132M21,3,217,AS,exp,41,←,left,←,0.7811051998287439,True,21,1,0,0
Y2-S2-132M21,3,218,AS,exp,29,↓,down,↓,1.2030905997380614,True,20,1,0,0
Y2-S2-132M21,3,219,AS,exp,42,↑,down,↓,1.091565600130707,False,20,-1,1,1
Y2-S2-132M21,3,220,AS,exp,40,→,right,→,0.575842599850148,True,21,-1,0,1
Y2-S2-132M21,3,221,AS,exp,35,↓,down,↓,1.0018939999863505,True,21,-1,0,1
Y2-S2-132M21,3,222,AS,exp,48,→,right,→,0.8560474999248981,True,21,1,1,2
Y2-S2-132M21,3,223,AS,exp,38,←,left,←,0.6564933001063764,True,20,1,0,2
Y2-S2-132M21,3,224,AS,exp,48,↑,up,↑,0.5961385001428425,True,20,1,0,2
Y2-S2-132M21,3,225,AS,exp,31,→,right,→,0.7240304001607001,True,20,1,0,2
Y2-S2-132M21,3,226,AS,exp,49,↑,up,↑,0.5249152998439968,True,19,1,0,2
Y2-S2-132M21,3,227,AS,exp,42,→,right,→,0.8297000001184642,True,19,1,0,2
Y2-S2-132M21,3,228,AS,exp,33,↑,down,↓,1.1675070999190211,False,19,-1,1,3
Y2-S2-132M21,3,229,AS,exp,32,→,right,→,0.7728982004337013,True,20,-1,0,3
Y2-S2-132M21,3,230,AS,exp,26,←,right,→,0.8095174003392458,False,20,-1,0,3
Y2-S2-132M21,3,231,AS,exp,36,→,right,→,0.569155799690634,True,21,-1,0,3
Y2-S2-132M21,3,232,AS,exp,49,↓,down,↓,0.7629116997122765,True,21,-1,0,3
Y2-S2-132M21,3,233,AS,exp,35,↑,up,↑,0.5572424000129104,True,21,1,1,4
Y2-S2-132M21,3,234,AS,exp,49,↓,down,↓,0.8553208000957966,True,20,1,0,4
Y2-S2-132M21,3,235,AS,exp,29,→,right,→,0.5219737999141216,True,20,1,0,4
Y2-S2-132M21,3,236,AS,exp,32,↓,up,↑,1.0877860002219677,False,20,-1,1,5
Y2-S2-132M21,3,237,AS,exp,49,←,left,←,0.7402484999038279,True,21,-1,0,5
Y2-S2-132M21,3,238,AS,exp,44,→,right,→,1.0297859003767371,True,21,-1,0,5
Y2-S2-132M21,3,239,AS,exp,44,↓,down,↓,1.4418089999817312,True,21,1,1,6
Y2-S2-132M21,3,240,AS,exp,40,→,right,→,0.650180300232023,True,20,1,0,6
Y2-S2-132M21,3,241,AS,exp,30,↓,down,↓,0.7597248000092804,True,20,1,0,6
Y2-S2-132M21,3,242,AS,exp,47,↑,up,↑,0.5645236000418663,True,20,1,0,6
Y2-S2-132M21,3,243,AS,exp,43,→,right,→,0.7352656000293791,True,19,1,0,6
Y2-S2-132M21,3,244,AS,exp,29,↓,down,↓,0.8710568002425134,True,19,1,0,6
Y2-S2-132M21,3,245,AS,exp,34,↑,up,↑,0.5519310003146529,True,19,1,0,6
Y2-S2-132M21,3,246,AS,exp,37,→,right,→,0.7805961999110878,True,18,1,0,6
Y2-S2-132M21,3,247,AS,exp,47,↓,right,→,1.2307502999901772,False,18,-1,1,7
Y2-S2-132M21,3,248,AS,exp,35,→,right,→,0.743849300313741,True,19,-1,0,7
Y2-S2-132M21,3,249,AS,exp,44,↑,up,↑,0.720817799679935,True,19,-1,0,7
Y2-S2-132M21,3,250,AS,exp,30,←,up,↑,0.8111760001629591,False,19,-1,0,7
Y2-S2-132M21,3,251,AS,exp,32,↑,up,↑,0.5786469001322985,True,20,-1,0,7
Y2-S2-132M21,3,252,AS,exp,50,←,left,←,0.8063308000564575,True,20,-1,0,7
Y2-S2-132M21,3,253,AS,exp,48,↓,down,↓,0.8365639997646213,True,20,1,1,8
Y2-S2-132M21,3,254,AS,exp,38,←,right,→,0.7578811002895236,False,19,-1,1,9
Y2-S2-132M21,3,255,AS,exp,38,↑,up,↑,0.6219060998409986,True,20,-1,0,9
Y2-S2-132M21,3,256,AS,exp,46,←,left,←,0.7332021999172866,True,20,-1,0,9
Y2-S2-132M21,3,257,AS,exp,27,↑,up,↑,0.8743182998150587,True,20,1,1,10
Y2-S2-132M21,3,258,AS,exp,43,↓,down,↓,0.7332227001897991,True,19,1,0,10
Y2-S2-132M21,3,259,AS,exp,43,↑,up,↑,0.8725101002492011,True,19,1,0,10
Y2-S2-132M21,3,260,AS,exp,30,←,left,←,0.8861071998253465,True,19,1,0,10
Y2-S2-132M21,3,261,AS,exp,28,→,right,→,0.7095794999040663,True,18,1,0,10
Y2-S2-132M21,3,262,AS,exp,30,←,up,↑,0.8992381999269128,False,18,-1,1,11
Y2-S2-132M21,3,263,AS,exp,36,↑,down,↓,1.1600321000441909,False,19,-1,0,11
Y2-S2-132M21,3,264,AS,exp,48,↓,up,↑,1.2232160000130534,False,20,-1,0,11
Y2-S2-132M21,3,265,AS,exp,26,→,down,↓,1.296059399843216,False,21,-1,0,11
Y2-S2-132M21,3,266,AS,exp,38,←,left,←,0.7156797000207007,True,22,-1,0,11
Y2-S2-132M21,3,267,AS,exp,29,↓,down,↓,0.7962850998155773,True,22,-1,0,11
Y2-S2-132M21,3,268,AS,exp,47,→,right,→,0.713638000190258,True,22,1,1,12
Y2-S2-132M21,3,269,AS,exp,34,←,right,→,0.5842193998396397,False,21,-1,1,13
Y2-S2-132M21,3,270,AS,exp,31,→,right,→,0.781589699909091,True,22,-1,0,13
Y2-S2-132M21,3,271,AS,exp,41,↓,down,↓,0.9589411998167634,True,22,-1,0,13
Y2-S2-132M21,3,272,AS,exp,34,↑,up,↑,0.7721902001649141,True,22,1,1,14
Y2-S2-132M21,3,273,AS,exp,34,←,left,←,0.7792930002324283,True,21,1,0,14
Y2-S2-132M21,3,274,AS,exp,41,↑,up,↑,0.5742967999540269,True,21,1,0,14
Y2-S2-132M21,3,275,AS,exp,38,↓,down,↓,0.8990987995639443,True,21,1,0,14
Y2-S2-132M21,3,276,AS,exp,31,↑,right,→,1.0643362998962402,False,20,-1,1,15
Y2-S2-132M21,3,277,AS,exp,48,↓,down,↓,0.9317148998379707,True,21,-1,0,15
Y2-S2-132M21,3,278,AS,exp,35,↑,up,↑,0.7631421000696719,True,21,-1,0,15
Y2-S2-132M21,3,279,AS,exp,39,→,right,→,0.7663048999384046,True,21,1,1,16
Y2-S2-132M21,4,280,PS,intra_train,41,↓,down,↓,0.9325512000359595,True,13,-,-,-
Y2-S2-132M21,4,281,PS,intra_train,38,↑,up,↑,1.6291628000326455,True,13,-,-,-
Y2-S2-132M21,4,282,PS,intra_train,34,←,right,→,0.488179599866271,False,13,-,-,-
Y2-S2-132M21,4,283,PS,intra_train,38,↓,down,↓,1.0738105000928044,True,13,-,-,-
Y2-S2-132M21,4,284,PS,intra_train,31,→,right,→,0.7160001997835934,True,13,-,-,-
Y2-S2-132M21,4,285,PS,exp,35,↓,down,↓,0.7129724002443254,True,9,0,0,0
Y2-S2-132M21,4,286,PS,exp,28,↑,down,↓,0.6935299001634121,False,9,-1,0,0
Y2-S2-132M21,4,287,PS,exp,27,→,left,←,0.507506700232625,False,10,-1,0,0
Y2-S2-132M21,4,288,PS,exp,32,←,right,→,0.49554739985615015,False,11,-1,0,0
Y2-S2-132M21,4,289,PS,exp,45,→,right,→,0.4668499999679625,True,12,-1,0,0
Y2-S2-132M21,4,290,PS,exp,47,↑,down,↓,0.8751933998428285,False,12,-1,0,0
Y2-S2-132M21,4,291,PS,exp,31,↓,down,↓,1.407522500026971,True,13,-1,0,0
Y2-S2-132M21,4,292,PS,exp,29,→,no_key,no_letter,-1.0,False,13,-1,0,0
Y2-S2-132M21,4,293,PS,exp,42,↓,up,↑,1.6181391002610326,False,14,-1,0,0
Y2-S2-132M21,4,294,PS,exp,35,→,right,→,0.6402972000651062,True,15,-1,0,0
Y2-S2-132M21,4,295,PS,exp,27,←,left,←,0.5942210000939667,True,15,-1,0,0
Y2-S2-132M21,4,296,PS,exp,43,↓,up,↑,0.6815659999847412,False,15,-1,0,0
Y2-S2-132M21,4,297,PS,exp,45,→,right,→,0.8045644001103938,True,16,-1,0,0
Y2-S2-132M21,4,298,PS,exp,45,↑,up,↑,1.797549200244248,True,16,-1,0,0
Y2-S2-132M21,4,299,PS,exp,47,↓,down,↓,0.6506993002258241,True,16,1,1,1
Y2-S2-132M21,4,300,PS,exp,31,↑,up,↑,0.5763809001073241,True,15,1,0,1
Y2-S2-132M21,4,301,PS,exp,26,←,left,←,0.5239331996999681,True,15,1,0,1
Y2-S2-132M21,4,302,PS,exp,47,↓,down,↓,0.892816100269556,True,15,1,0,1
Y2-S2-132M21,4,303,PS,exp,37,↑,up,↑,1.0469212997704744,True,14,1,0,1
Y2-S2-132M21,4,304,PS,exp,41,→,left,←,0.5341966999694705,False,14,-1,1,2
Y2-S2-132M21,4,305,PS,exp,30,↓,down,↓,0.9837922002188861,True,15,-1,0,2
Y2-S2-132M21,4,306,PS,exp,38,←,left,←,0.4951717001385987,True,15,-1,0,2
Y2-S2-132M21,4,307,PS,exp,45,↓,down,↓,0.8246828000992537,True,15,1,1,3
Y2-S2-132M21,4,308,PS,exp,50,↑,up,↑,0.6223534001037478,True,14,1,0,3
Y2-S2-132M21,4,309,PS,exp,33,↓,down,↓,0.746558700222522,True,14,1,0,3
Y2-S2-132M21,4,310,PS,exp,34,→,right,→,0.5029143001884222,True,14,1,0,3
Y2-S2-132M21,4,311,PS,exp,47,↓,down,↓,0.7572328997775912,True,13,1,0,3
Y2-S2-132M21,4,312,PS,exp,50,→,right,→,0.5490959002636373,True,13,1,0,3
Y2-S2-132M21,4,313,PS,exp,45,←,right,→,0.7060158001258969,False,13,-1,1,4
Y2-S2-132M21,4,314,PS,exp,37,↓,down,↓,0.7876101001165807,True,14,-1,0,4
Y2-S2-132M21,4,315,PS,exp,29,↑,up,↑,0.5757996002212167,True,14,-1,0,4
Y2-S2-132M21,4,316,PS,exp,41,↓,down,↓,0.649367899633944,True,14,1,1,5
Y2-S2-132M21,4,317,PS,exp,34,↑,up,↑,0.5981658003292978,True,13,1,0,5
Y2-S2-132M21,4,318,PS,exp,40,↓,down,↓,0.7682545003481209,True,13,1,0,5
Y2-S2-132M21,4,319,PS,exp,38,→,right,→,0.5769790001213551,True,13,1,0,5
Y2-S2-132M21,4,320,PS,exp,28,←,left,←,0.48988989973440766,True,12,1,0,5
Y2-S2-132M21,4,321,PS,exp,47,↑,up,↑,0.6089321998879313,True,12,1,0,5
Y2-S2-132M21,4,322,PS,exp,31,←,left,←,0.5089769000187516,True,12,1,0,5
Y2-S2-132M21,4,323,PS,exp,32,↓,down,↓,0.8648664997890592,True,11,1,0,5
Y2-S2-132M21,4,324,PS,exp,33,←,left,←,0.4286875003017485,True,11,1,0,5
Y2-S2-132M21,4,325,PS,exp,29,→,left,←,0.6413527000695467,False,11,-1,1,6
Y2-S2-132M21,4,326,PS,exp,41,↑,up,↑,0.5092629999853671,True,12,-1,0,6
Y2-S2-132M21,4,327,PS,exp,32,→,right,→,0.47936000023037195,True,12,-1,0,6
Y2-S2-132M21,4,328,PS,exp,25,↑,up,↑,0.5140097001567483,True,12,1,1,7
Y2-S2-132M21,4,329,PS,exp,49,↓,down,↓,0.788835400249809,True,11,1,0,7
Y2-S2-132M21,4,330,PS,exp,38,↑,up,↑,0.4447106998413801,True,11,1,0,7
Y2-S2-132M21,4,331,PS,exp,38,←,left,←,0.5762579999864101,True,11,1,0,7
Y2-S2-132M21,4,332,PS,exp,48,↓,down,↓,0.8684398997575045,True,10,1,0,7
Y2-S2-132M21,4,333,PS,exp,34,←,left,←,0.5291261998936534,True,10,1,0,7
Y2-S2-132M21,4,334,PS,exp,43,→,left,←,0.7888019001111388,False,10,-1,1,8
Y2-S2-132M21,4,335,PS,exp,50,↓,down,↓,0.6657366999424994,True,11,-1,0,8
Y2-S2-132M21,4,336,PS,exp,30,→,right,→,0.9336308999918401,True,11,-1,0,8
Y2-S2-132M21,4,337,PS,exp,32,←,left,←,0.44973979983478785,True,11,1,1,9
Y2-S2-132M21,4,338,PS,exp,47,→,right,→,0.545210300013423,True,10,1,0,9
Y2-S2-132M21,4,339,PS,exp,35,↓,down,↓,0.6947507997974753,True,10,1,0,9
Y2-S2-132M21,4,340,PS,exp,43,↑,up,↑,0.5124058001674712,True,10,1,0,9
Y2-S2-132M21,4,341,PS,exp,41,←,right,→,0.6748486999422312,False,9,-1,1,10
Y2-S2-132M21,4,342,PS,exp,50,↑,down,↓,0.9722090000286698,False,10,-1,0,10
Y2-S2-132M21,4,343,PS,exp,40,←,left,←,0.5586823001503944,True,11,-1,0,10
Y2-S2-132M21,4,344,PS,exp,50,↑,up,↑,0.8937213998287916,True,11,-1,0,10
Y2-S2-132M21,4,345,PS,exp,28,→,right,→,0.6817437000572681,True,11,1,1,11
Y2-S2-132M21,4,346,PS,exp,35,↓,down,↓,0.8462763000279665,True,10,1,0,11
Y2-S2-132M21,4,347,PS,exp,44,↑,up,↑,0.5419483999721706,True,10,1,0,11
Y2-S2-132M21,4,348,PS,exp,49,↓,down,↓,1.0007911999709904,True,10,1,0,11
Y2-S2-132M21,4,349,PS,exp,29,↑,up,↑,0.9016975001432002,True,9,1,0,11
Y2-S2-132M21,4,350,PS,exp,27,←,left,←,0.7798587996512651,True,9,1,0,11
Y2-S2-132M21,4,351,PS,exp,47,→,right,→,0.517578300088644,True,9,1,0,11
Y2-S2-132M21,4,352,PS,exp,39,↓,down,↓,0.7329482999630272,True,8,1,0,11
Y2-S2-132M21,4,353,PS,exp,44,↑,up,↑,0.5471391999162734,True,8,1,0,11
Y2-S2-132M21,4,354,PS,exp,32,←,left,←,0.9903119001537561,True,8,1,0,11
Y2-S2-132M21,4,355,PS,exp,28,→,right,→,0.3919652998447418,True,7,1,0,11
Y2-S2-132M21,4,356,PS,exp,43,↑,right,→,0.8565639997832477,False,7,-1,1,12
Y2-S2-132M21,4,357,PS,exp,30,↓,down,↓,0.8291974999010563,True,8,-1,0,12
Y2-S2-132M21,4,358,PS,exp,28,→,right,→,0.5815510000102222,True,8,-1,0,12
Y2-S2-132M21,4,359,PS,exp,50,↓,right,→,1.0614116000942886,False,8,-1,0,12
Y2-S2-132M21,4,360,PS,exp,29,→,right,→,0.5048249000683427,True,9,-1,0,12
Y2-S2-132M21,4,361,PS,exp,49,↓,down,↓,0.8186812000349164,True,9,-1,0,12
Y2-S2-132M21,4,362,PS,exp,37,→,right,→,0.515330099966377,True,9,1,1,13
Y2-S2-132M21,4,363,PS,exp,38,←,right,→,0.6538503998890519,False,8,-1,1,14
Y2-S2-132M21,4,364,PS,exp,32,→,right,→,0.4684060998260975,True,9,-1,0,14
Y2-S2-132M21,4,365,PS,exp,31,↑,right,→,0.6089444002136588,False,9,-1,0,14
Y2-S2-132M21,4,366,PS,exp,33,←,right,→,0.44737649988383055,False,10,-1,0,14
Y2-S2-132M21,4,367,PS,exp,36,→,right,→,0.4581826999783516,True,11,-1,0,14
Y2-S2-132M21,4,368,PS,exp,28,↓,right,→,0.6385614001192153,False,11,-1,0,14
Y2-S2-132M21,4,369,PS,exp,33,→,right,→,0.4941891999915242,True,12,-1,0,14
Y2-S2-132M21,4,370,PS,exp,44,↓,down,↓,0.6929784999229014,True,12,-1,0,14
Y2-S2-132M21,4,371,PS,exp,40,→,right,→,0.5291514000855386,True,12,1,1,15
Y2-S2-132M21,4,372,PS,exp,26,↑,up,↑,0.5121480999514461,True,11,1,0,15
Y2-S2-132M21,4,373,PS,exp,46,↓,down,↓,0.9806385999545455,True,11,1,0,15
Y2-S2-132M21,4,374,PS,exp,48,←,left,←,0.6078882999718189,True,11,1,0,15
Y2-S2-132M21,4,375,PS,exp,37,↑,up,↑,0.5960725997574627,True,10,1,0,15
Y2-S2-132M21,4,376,PS,exp,40,←,left,←,0.5781960999593139,True,10,1,0,15
Y2-S2-132M21,4,377,PS,exp,35,→,right,→,0.4862959999591112,True,10,1,0,15
Y2-S2-132M21,4,378,PS,exp,47,↑,up,↑,0.7928396998904645,True,9,1,0,15
Y2-S2-132M21,4,379,PS,exp,38,↓,down,↓,0.9259115001186728,True,9,1,0,15
Y2-S2-132M21,4,380,PS,exp,32,→,right,→,0.5032641002908349,True,9,1,0,15
Y2-S2-132M21,4,381,PS,exp,39,↓,down,↓,0.6827410003170371,True,8,1,0,15
Y2-S2-132M21,4,382,PS,exp,38,↑,up,↑,0.5250141997821629,True,8,1,0,15
Y2-S2-132M21,4,383,PS,exp,41,←,left,←,0.6845853999257088,True,8,1,0,15
Y2-S2-132M21,4,384,PS,exp,25,↓,down,↓,0.8017599997110665,True,7,1,0,15
Y2-S2-132M21,4,385,PS,exp,30,↑,down,↓,0.7568808998912573,False,7,-1,1,16
Y2-S2-132M21,5,386,PS,intra_train,47,↓,down,↓,0.6398803000338376,True,13,-,-,-
Y2-S2-132M21,5,387,PS,intra_train,27,→,right,→,0.49646509997546673,True,13,-,-,-
Y2-S2-132M21,5,388,PS,intra_train,29,↑,up,↑,0.6301600001752377,True,13,-,-,-
Y2-S2-132M21,5,389,PS,intra_train,28,↓,down,↓,0.6059125000610948,True,13,-,-,-
Y2-S2-132M21,5,390,PS,intra_train,27,←,left,←,0.6114135999232531,True,13,-,-,-
Y2-S2-132M21,5,391,PS,exp,36,↓,down,↓,0.6081823003478348,True,9,0,0,0
Y2-S2-132M21,5,392,PS,exp,32,↑,up,↑,0.5204389002174139,True,9,0,0,0
Y2-S2-132M21,5,393,PS,exp,32,←,left,←,0.4413678999990225,True,9,1,0,0
Y2-S2-132M21,5,394,PS,exp,25,↑,up,↑,0.47027460020035505,True,8,1,0,0
Y2-S2-132M21,5,395,PS,exp,40,→,right,→,0.5715438998304307,True,8,1,0,0
Y2-S2-132M21,5,396,PS,exp,45,←,left,←,0.5267628999426961,True,8,1,0,0
Y2-S2-132M21,5,397,PS,exp,26,↓,down,↓,0.6957978000864387,True,7,1,0,0
Y2-S2-132M21,5,398,PS,exp,43,→,right,→,0.5289810998365283,True,7,1,0,0
Y2-S2-132M21,5,399,PS,exp,35,←,left,←,0.47102850023657084,True,7,1,0,0
Y2-S2-132M21,5,400,PS,exp,37,↑,left,←,0.8830967000685632,False,6,-1,1,1
Y2-S2-132M21,5,401,PS,exp,35,↓,down,↓,1.1522758998908103,True,7,-1,0,1
Y2-S2-132M21,5,402,PS,exp,38,→,right,→,0.6793976998887956,True,7,-1,0,1
Y2-S2-132M21,5,403,PS,exp,34,←,left,←,0.49626339972019196,True,7,1,1,2
Y2-S2-132M21,5,404,PS,exp,46,↓,left,←,1.2746894001029432,False,6,-1,1,3
Y2-S2-132M21,5,405,PS,exp,43,→,right,→,0.5141958999447525,True,7,-1,0,3
Y2-S2-132M21,5,406,PS,exp,26,↓,right,→,0.7028773999772966,False,7,-1,0,3
Y2-S2-132M21,5,407,PS,exp,30,↑,left,←,1.323174700140953,False,8,-1,0,3
Y2-S2-132M21,5,408,PS,exp,34,↓,right,→,0.726823200006038,False,9,-1,0,3
Y2-S2-132M21,5,409,PS,exp,38,→,right,→,0.5393730001524091,True,10,-1,0,3
Y2-S2-132M21,5,410,PS,exp,50,↓,right,→,1.0320556000806391,False,10,-1,0,3
Y2-S2-132M21,5,411,PS,exp,37,←,right,→,0.41240289993584156,False,11,-1,0,3
Y2-S2-132M21,5,412,PS,exp,32,→,right,→,0.8304273998364806,True,12,-1,0,3
Y2-S2-132M21,5,413,PS,exp,25,↑,left,←,0.5755500998347998,False,12,-1,0,3
Y2-S2-132M21,5,414,PS,exp,33,↓,right,→,0.8562316996976733,False,13,-1,0,3
Y2-S2-132M21,5,415,PS,exp,28,↑,left,←,1.130379700101912,False,14,-1,0,3
Y2-S2-132M21,5,416,PS,exp,40,→,right,→,1.1110133999027312,True,15,-1,0,3
Y2-S2-132M21,5,417,PS,exp,44,←,left,←,0.614765000063926,True,15,-1,0,3
Y2-S2-132M21,5,418,PS,exp,49,↑,left,←,0.7733771000057459,False,15,-1,0,3
Y2-S2-132M21,5,419,PS,exp,49,↓,down,↓,0.7012109998613596,True,16,-1,0,3
Y2-S2-132M21,5,420,PS,exp,33,←,left,←,0.6711407001130283,True,16,-1,0,3
Y2-S2-132M21,5,421,PS,exp,33,↑,up,↑,0.589610599912703,True,16,1,1,4
Y2-S2-132M21,5,422,PS,exp,41,←,left,←,0.5625282004475594,True,15,1,0,4
Y2-S2-132M21,5,423,PS,exp,49,→,right,→,1.1024822001345456,True,15,1,0,4
Y2-S2-132M21,5,424,PS,exp,42,←,left,←,0.6440879995934665,True,15,1,0,4
Y2-S2-132M21,5,425,PS,exp,38,↑,up,↑,0.6362136001698673,True,14,1,0,4
Y2-S2-132M21,5,426,PS,exp,50,→,right,→,0.4560026000253856,True,14,1,0,4
Y2-S2-132M21,5,427,PS,exp,35,↓,down,↓,0.9096136000007391,True,14,1,0,4
Y2-S2-132M21,5,428,PS,exp,29,←,left,←,1.013487999793142,True,13,1,0,4
Y2-S2-132M21,5,429,PS,exp,33,↓,down,↓,0.7342244000174105,True,13,1,0,4
Y2-S2-132M21,5,430,PS,exp,32,←,left,←,0.5397927002049983,True,13,1,0,4
Y2-S2-132M21,5,431,PS,exp,45,↓,down,↓,0.8364204000681639,True,12,1,0,4
Y2-S2-132M21,5,432,PS,exp,50,↑,up,↑,0.5063547999598086,True,12,1,0,4
Y2-S2-132M21,5,433,PS,exp,26,→,right,→,0.4760894002392888,True,12,1,0,4
Y2-S2-132M21,5,434,PS,exp,33,↓,down,↓,0.7796490001492202,True,11,1,0,4
Y2-S2-132M21,5,435,PS,exp,40,↑,up,↑,0.5743306996300817,True,11,1,0,4
Y2-S2-132M21,5,436,PS,exp,49,↓,down,↓,0.6428279001265764,True,11,1,0,4
Y2-S2-132M21,5,437,PS,exp,48,→,right,→,0.45539880031719804,True,10,1,0,4
Y2-S2-132M21,5,438,PS,exp,30,←,right,→,0.8456504000350833,False,10,-1,1,5
Y2-S2-132M21,5,439,PS,exp,40,→,right,→,0.480283800046891,True,11,-1,0,5
Y2-S2-132M21,5,440,PS,exp,25,↑,right,→,1.0184885999187827,False,11,-1,0,5
Y2-S2-132M21,5,441,PS,exp,26,→,right,→,0.4810944003984332,True,12,-1,0,5
Y2-S2-132M21,5,442,PS,exp,27,↑,up,↑,0.476233399938792,True,12,-1,0,5
Y2-S2-132M21,5,443,PS,exp,44,←,left,←,0.6049918001517653,True,12,1,1,6
Y2-S2-132M21,5,444,PS,exp,43,→,right,→,0.6863315999507904,True,11,1,0,6
Y2-S2-132M21,5,445,PS,exp,41,↓,right,→,0.8725626999512315,False,11,-1,1,7
Y2-S2-132M21,5,446,PS,exp,34,↑,up,↑,0.5061019998975098,True,12,-1,0,7
Y2-S2-132M21,5,447,PS,exp,28,↓,down,↓,0.601078299805522,True,12,-1,0,7
Y2-S2-132M21,5,448,PS,exp,41,←,left,←,0.5617847996763885,True,12,1,1,8
Y2-S2-132M21,5,449,PS,exp,45,→,right,→,0.6374950003810227,True,11,1,0,8
Y2-S2-132M21,5,450,PS,exp,49,←,left,←,0.4354050001129508,True,11,1,0,8
Y2-S2-132M21,5,451,PS,exp,44,↓,right,→,0.7733571003191173,False,11,-1,1,9
Y2-S2-132M21,5,452,PS,exp,30,↑,up,↑,0.47294990019872785,True,12,-1,0,9
Y2-S2-132M21,5,453,PS,exp,48,↓,down,↓,0.662744099739939,True,12,-1,0,9
Y2-S2-132M21,5,454,PS,exp,47,↑,up,↑,0.7240396998822689,True,12,1,1,10
Y2-S2-132M21,5,455,PS,exp,49,↓,down,↓,0.7372779999859631,True,11,1,0,10
Y2-S2-132M21,5,456,PS,exp,28,←,left,←,0.5709803001955152,True,11,1,0,10
Y2-S2-132M21,5,457,PS,exp,29,→,right,→,0.980918999761343,True,11,1,0,10
Y2-S2-132M21,5,458,PS,exp,44,←,left,←,0.6266188998706639,True,10,1,0,10
Y2-S2-132M21,5,459,PS,exp,25,↑,up,↑,0.54812530009076,True,10,1,0,10
Y2-S2-132M21,5,460,PS,exp,30,→,right,→,0.6148435999639332,True,10,1,0,10
Y2-S2-132M21,5,461,PS,exp,25,←,left,←,0.8618545001372695,True,9,1,0,10
Y2-S2-132M21,5,462,PS,exp,32,↓,right,→,1.3931474001146853,False,9,-1,1,11
Y2-S2-132M21,5,463,PS,exp,38,→,right,→,0.5371880000457168,True,10,-1,0,11
Y2-S2-132M21,5,464,PS,exp,50,↑,up,↑,0.6197659000754356,True,10,-1,0,11
Y2-S2-132M21,5,465,PS,exp,46,←,left,←,0.8159179999493062,True,10,1,1,12
Y2-S2-132M21,5,466,PS,exp,49,↓,down,↓,0.7814914002083242,True,9,1,0,12
Y2-S2-132M21,5,467,PS,exp,40,←,up,↑,1.6520183002576232,False,9,-1,1,13
Y2-S2-132M21,5,468,PS,exp,25,↓,down,↓,0.8221820001490414,True,10,-1,0,13
Y2-S2-132M21,5,469,PS,exp,28,←,left,←,0.6865307004190981,True,10,-1,0,13
Y2-S2-132M21,5,470,PS,exp,46,↓,down,↓,0.6844649002887309,True,10,1,1,14
Y2-S2-132M21,5,471,PS,exp,46,→,right,→,0.5540089998394251,True,9,1,0,14
Y2-S2-132M21,5,472,PS,exp,38,←,right,→,0.8152315001934767,False,9,-1,1,15
Y2-S2-132M21,5,473,PS,exp,27,↑,up,↑,0.5617498001083732,True,10,-1,0,15
Y2-S2-132M21,5,474,PS,exp,49,↓,up,↑,0.9538221997208893,False,10,-1,0,15
Y2-S2-132M21,5,475,PS,exp,50,→,right,→,1.4815593999810517,True,11,-1,0,15
Y2-S2-132M21,5,476,PS,exp,39,←,left,←,0.6145663997158408,True,11,-1,0,15
Y2-S2-132M21,5,477,PS,exp,41,↑,up,↑,0.6783075002022088,True,11,1,1,16
Y2-S2-132M21,6,478,AS,intra_train,50,→,right,→,0.6170398001559079,True,33,-,-,-
Y2-S2-132M21,6,479,AS,intra_train,34,↓,down,↓,1.76183500001207,True,33,-,-,-
Y2-S2-132M21,6,480,AS,intra_train,49,↑,up,↑,0.683812600094825,True,33,-,-,-
Y2-S2-132M21,6,481,AS,intra_train,48,→,right,→,0.9192806002683938,True,33,-,-,-
Y2-S2-132M21,6,482,AS,intra_train,29,↑,up,↑,0.7207928001880646,True,33,-,-,-
Y2-S2-132M21,6,483,AS,exp,25,←,left,←,0.6164704998955131,True,22,0,0,0
Y2-S2-132M21,6,484,AS,exp,35,↓,down,↓,0.7942357999272645,True,22,0,0,0
Y2-S2-132M21,6,485,AS,exp,30,→,right,→,0.8421328999102116,True,22,1,0,0
Y2-S2-132M21,6,486,AS,exp,30,↓,down,↓,0.6751069002784789,True,21,1,0,0
Y2-S2-132M21,6,487,AS,exp,46,→,right,→,1.244304200168699,True,21,1,0,0
Y2-S2-132M21,6,488,AS,exp,30,↑,up,↑,0.6625570002943277,True,21,1,0,0
Y2-S2-132M21,6,489,AS,exp,28,←,left,←,0.7065245998091996,True,20,1,0,0
Y2-S2-132M21,6,490,AS,exp,46,→,right,→,0.9186402000486851,True,20,1,0,0
Y2-S2-132M21,6,491,AS,exp,45,←,left,←,0.6256293002516031,True,20,1,0,0
Y2-S2-132M21,6,492,AS,exp,26,→,left,←,0.5384835000149906,False,19,-1,1,1
Y2-S2-132M21,6,493,AS,exp,29,←,left,←,0.9116829000413418,True,20,-1,0,1
Y2-S2-132M21,6,494,AS,exp,37,↓,down,↓,0.6981195001862943,True,20,-1,0,1
Y2-S2-132M21,6,495,AS,exp,40,↑,up,↑,0.6765994001179934,True,20,1,1,2
Y2-S2-132M21,6,496,AS,exp,42,→,left,←,0.9586934000253677,False,19,-1,1,3
Y2-S2-132M21,6,497,AS,exp,36,↓,down,↓,1.0331798000261188,True,20,-1,0,3
Y2-S2-132M21,6,498,AS,exp,27,↑,up,↑,0.5819109999574721,True,20,-1,0,3
Y2-S2-132M21,6,499,AS,exp,33,↓,down,↓,0.7265084004029632,True,20,1,1,4
Y2-S2-132M21,6,500,AS,exp,28,→,right,→,0.6329149999655783,True,19,1,0,4
Y2-S2-132M21,6,501,AS,exp,41,↑,up,↑,0.7437015003524721,True,19,1,0,4
Y2-S2-132M21,6,502,AS,exp,34,↓,down,↓,0.7930610002949834,True,19,1,0,4
Y2-S2-132M21,6,503,AS,exp,26,→,right,→,0.7362787998281419,True,18,1,0,4
Y2-S2-132M21,6,504,AS,exp,47,↓,up,↑,0.9762128000147641,False,18,-1,1,5
Y2-S2-132M21,6,505,AS,exp,38,→,right,→,0.7025878001004457,True,19,-1,0,5
Y2-S2-132M21,6,506,AS,exp,30,←,left,←,0.8630694998428226,True,19,-1,0,5
Y2-S2-132M21,6,507,AS,exp,29,↓,down,↓,0.8710204996168613,True,19,1,1,6
Y2-S2-132M21,6,508,AS,exp,39,↑,down,↓,0.9134530001319945,False,18,-1,1,7
Y2-S2-132M21,6,509,AS,exp,29,→,right,→,0.6319912001490593,True,19,-1,0,7
Y2-S2-132M21,6,510,AS,exp,28,↓,down,↓,0.8288133000023663,True,19,-1,0,7
Y2-S2-132M21,6,511,AS,exp,26,↑,up,↑,0.8266555001027882,True,19,1,1,8
Y2-S2-132M21,6,512,AS,exp,41,↓,up,↑,0.9009867003187537,False,18,-1,1,9
Y2-S2-132M21,6,513,AS,exp,50,→,right,→,0.6856357003562152,True,19,-1,0,9
Y2-S2-132M21,6,514,AS,exp,41,↑,up,↑,0.7255526003427804,True,19,-1,0,9
Y2-S2-132M21,6,515,AS,exp,27,↓,down,↓,0.814884299878031,True,19,1,1,10
Y2-S2-132M21,6,516,AS,exp,33,→,up,↑,0.773017399944365,False,18,-1,1,11
Y2-S2-132M21,6,517,AS,exp,44,←,left,←,1.0957061001099646,True,19,-1,0,11
Y2-S2-132M21,6,518,AS,exp,35,↑,up,↑,0.8119394001550972,True,19,-1,0,11
Y2-S2-132M21,6,519,AS,exp,30,↓,down,↓,0.8361280998215079,True,19,1,1,12
Y2-S2-132M21,6,520,AS,exp,42,←,down,↓,0.9772298997268081,False,18,-1,1,13
Y2-S2-132M21,6,521,AS,exp,49,↑,up,↑,0.6008399003185332,True,19,-1,0,13
Y2-S2-132M21,6,522,AS,exp,29,↓,down,↓,0.7494633998721838,True,19,-1,0,13
Y2-S2-132M21,6,523,AS,exp,45,↑,up,↑,0.8336938000284135,True,19,1,1,14
Y2-S2-132M21,6,524,AS,exp,31,↓,down,↓,1.0268806996755302,True,18,1,0,14
Y2-S2-132M21,6,525,AS,exp,45,←,left,←,1.1888925000093877,True,18,1,0,14
Y2-S2-132M21,6,526,AS,exp,41,→,right,→,0.5309557998552918,True,18,1,0,14
Y2-S2-132M21,6,527,AS,exp,33,←,left,←,0.7092757998034358,True,17,1,0,14
Y2-S2-132M21,6,528,AS,exp,37,→,right,→,0.5927452999167144,True,17,1,0,14
Y2-S2-132M21,6,529,AS,exp,50,↓,down,↓,0.8228349001146853,True,17,1,0,14
Y2-S2-132M21,6,530,AS,exp,26,←,right,→,1.0445273998193443,False,16,-1,1,15
Y2-S2-132M21,6,531,AS,exp,42,→,left,←,1.0612098001874983,False,17,-1,0,15
Y2-S2-132M21,6,532,AS,exp,43,←,left,←,0.7605097000487149,True,18,-1,0,15
Y2-S2-132M21,6,533,AS,exp,45,↓,down,↓,0.8144307998009026,True,18,-1,0,15
Y2-S2-132M21,6,534,AS,exp,47,↑,up,↑,0.6511305999010801,True,18,1,1,16
Y2-S2-132M21,7,535,AS,intra_train,32,↓,down,↓,0.8858847999945283,True,33,-,-,-
Y2-S2-132M21,7,536,AS,intra_train,31,←,left,←,1.221544399857521,True,33,-,-,-
Y2-S2-132M21,7,537,AS,intra_train,29,↓,down,↓,0.8475170000456274,True,33,-,-,-
Y2-S2-132M21,7,538,AS,intra_train,45,↑,up,↑,0.7187312999740243,True,33,-,-,-
Y2-S2-132M21,7,539,AS,intra_train,49,←,left,←,1.4116636998951435,True,33,-,-,-
Y2-S2-132M21,7,540,AS,exp,50,→,left,←,0.4838493997231126,False,22,-1,0,0
Y2-S2-132M21,7,541,AS,exp,34,←,left,←,0.7126796003431082,True,23,-1,0,0
Y2-S2-132M21,7,542,AS,exp,33,→,right,→,0.6250554998405278,True,23,-1,0,0
Y2-S2-132M21,7,543,AS,exp,43,↓,down,↓,0.9883012999780476,True,23,1,1,1
Y2-S2-132M21,7,544,AS,exp,35,←,left,←,0.6360424002632499,True,22,1,0,1
Y2-S2-132M21,7,545,AS,exp,41,↓,down,↓,0.9277494000270963,True,22,1,0,1
Y2-S2-132M21,7,546,AS,exp,48,←,left,←,0.7533467998728156,True,22,1,0,1
Y2-S2-132M21,7,547,AS,exp,43,↑,up,↑,0.7309948997572064,True,21,1,0,1
Y2-S2-132M21,7,548,AS,exp,41,←,left,←,0.6189717999659479,True,21,1,0,1
Y2-S2-132M21,7,549,AS,exp,33,→,right,→,0.6867407998070121,True,21,1,0,1
Y2-S2-132M21,7,550,AS,exp,46,↑,up,↑,0.6751684001646936,True,20,1,0,1
Y2-S2-132M21,7,551,AS,exp,33,→,right,→,0.5634185997769237,True,20,1,0,1
Y2-S2-132M21,7,552,AS,exp,39,←,left,←,0.6902207997627556,True,20,1,0,1
Y2-S2-132M21,7,553,AS,exp,31,↑,up,↑,0.9561279998160899,True,19,1,0,1
Y2-S2-132M21,7,554,AS,exp,38,←,left,←,0.6366687999106944,True,19,1,0,1
Y2-S2-132M21,7,555,AS,exp,34,↓,down,↓,1.0378133999183774,True,19,1,0,1
Y2-S2-132M21,7,556,AS,exp,49,↑,up,↑,1.1320229996927083,True,18,1,0,1
Y2-S2-132M21,7,557,AS,exp,49,↓,up,↑,0.7229722999036312,False,18,-1,1,2
Y2-S2-132M21,7,558,AS,exp,49,→,right,→,0.7732998002320528,True,19,-1,0,2
Y2-S2-132M21,7,559,AS,exp,38,←,left,←,0.6653893999755383,True,19,-1,0,2
Y2-S2-132M21,7,560,AS,exp,49,↓,down,↓,0.9116275003179908,True,19,1,1,3
Y2-S2-132M21,7,561,AS,exp,42,→,up,↑,0.840378999710083,False,18,-1,1,4
Y2-S2-132M21,7,562,AS,exp,41,↑,up,↑,1.4971902002580464,True,19,-1,0,4
Y2-S2-132M21,7,563,AS,exp,44,↓,down,↓,0.7705982998013496,True,19,-1,0,4
Y2-S2-132M21,7,564,AS,exp,46,→,right,→,0.6422830997034907,True,19,1,1,5
Y2-S2-132M21,7,565,AS,exp,50,←,left,←,0.7352875997312367,True,18,1,0,5
Y2-S2-132M21,7,566,AS,exp,46,↑,up,↑,0.7025350001640618,True,18,1,0,5
Y2-S2-132M21,7,567,AS,exp,48,→,right,→,0.7645512004382908,True,18,1,0,5
Y2-S2-132M21,7,568,AS,exp,27,↑,up,↑,0.609680499881506,True,17,1,0,5
Y2-S2-132M21,7,569,AS,exp,25,↓,down,↓,0.7915852000005543,True,17,1,0,5
Y2-S2-132M21,7,570,AS,exp,37,↑,up,↑,0.702278200071305,True,17,1,0,5
Y2-S2-132M21,7,571,AS,exp,45,→,right,→,0.879324100445956,True,16,1,0,5
Y2-S2-132M21,7,572,AS,exp,49,↓,down,↓,0.7570425001904368,True,16,1,0,5
Y2-S2-132M21,7,573,AS,exp,25,↑,up,↑,0.7609834000468254,True,16,1,0,5
Y2-S2-132M21,7,574,AS,exp,35,←,left,←,0.7115813996642828,True,15,1,0,5
Y2-S2-132M21,7,575,AS,exp,46,↓,no_key,no_letter,-1.0,False,15,-1,1,6
Y2-S2-132M21,7,576,AS,exp,37,→,right,→,1.1618508999235928,True,16,-1,0,6
Y2-S2-132M21,7,577,AS,exp,49,←,left,←,0.5105550000444055,True,16,-1,0,6
Y2-S2-132M21,7,578,AS,exp,32,→,right,→,0.6570763001218438,True,16,1,1,7
Y2-S2-132M21,7,579,AS,exp,47,↓,left,←,1.1862075999379158,False,15,-1,1,8
Y2-S2-132M21,7,580,AS,exp,33,→,right,→,0.5929956999607384,True,16,-1,0,8
Y2-S2-132M21,7,581,AS,exp,33,↑,up,↑,0.616068399976939,True,16,-1,0,8
Y2-S2-132M21,7,582,AS,exp,37,←,right,→,0.7757341000251472,False,16,-1,0,8
Y2-S2-132M21,7,583,AS,exp,35,↓,down,↓,0.9736584001220763,True,17,-1,0,8
Y2-S2-132M21,7,584,AS,exp,38,↑,up,↑,0.6516084000468254,True,17,-1,0,8
Y2-S2-132M21,7,585,AS,exp,39,↓,up,↑,1.0291410996578634,False,17,-1,0,8
Y2-S2-132M21,7,586,AS,exp,39,↑,up,↑,0.7135472996160388,True,18,-1,0,8
Y2-S2-132M21,7,587,AS,exp,49,↓,down,↓,0.9001877000555396,True,18,-1,0,8
Y2-S2-132M21,7,588,AS,exp,39,↑,up,↑,0.7343600001186132,True,18,1,1,9
Y2-S2-132M21,7,589,AS,exp,45,↓,down,↓,0.7411771002225578,True,17,1,0,9
Y2-S2-132M21,7,590,AS,exp,30,→,right,→,0.7242651996202767,True,17,1,0,9
Y2-S2-132M21,7,591,AS,exp,38,↓,down,↓,0.7842307998798788,True,17,1,0,9
Y2-S2-132M21,7,592,AS,exp,32,↑,down,↓,0.9722457998432219,False,16,-1,1,10
Y2-S2-132M21,7,593,AS,exp,26,↓,down,↓,0.7752537000924349,True,17,-1,0,10
Y2-S2-132M21,7,594,AS,exp,49,→,right,→,0.7311025997623801,True,17,-1,0,10
Y2-S2-132M21,7,595,AS,exp,39,↓,down,↓,0.7540977001190186,True,17,1,1,11
Y2-S2-132M21,7,596,AS,exp,41,→,right,→,0.6158246998675168,True,16,1,0,11
Y2-S2-132M21,7,597,AS,exp,28,↓,down,↓,0.8443045001477003,True,16,1,0,11
Y2-S2-132M21,7,598,AS,exp,30,↑,down,↓,0.77767249988392,False,16,-1,1,12
Y2-S2-132M21,7,599,AS,exp,25,→,down,↓,0.9119386002421379,False,17,-1,0,12
Y2-S2-132M21,7,600,AS,exp,31,←,left,←,0.7378151002340019,True,18,-1,0,12
Y2-S2-132M21,7,601,AS,exp,33,↑,up,↑,0.5168050997890532,True,18,-1,0,12
Y2-S2-132M21,7,602,AS,exp,37,→,right,→,0.6293482999317348,True,18,1,1,13
Y2-S2-132M21,7,603,AS,exp,37,↑,up,↑,0.640799599699676,True,17,1,0,13
Y2-S2-132M21,7,604,AS,exp,42,↓,down,↓,0.7169216000474989,True,17,1,0,13
Y2-S2-132M21,7,605,AS,exp,33,→,left,←,1.480981799773872,False,17,-1,1,14
Y2-S2-132M21,7,606,AS,exp,31,↑,up,↑,0.6003388003446162,True,18,-1,0,14
Y2-S2-132M21,7,607,AS,exp,47,←,left,←,0.6598326000384986,True,18,-1,0,14
Y2-S2-132M21,7,608,AS,exp,29,↓,up,↑,0.7146738995797932,False,18,-1,0,14
Y2-S2-132M21,7,609,AS,exp,25,←,left,←,0.7224065000191331,True,19,-1,0,14
Y2-S2-132M21,7,610,AS,exp,42,↑,up,↑,0.8620654996484518,True,19,-1,0,14
Y2-S2-132M21,7,611,AS,exp,45,↓,down,↓,1.1017491999082267,True,19,1,1,15
Y2-S2-132M21,7,612,AS,exp,26,←,right,→,0.7126314002089202,False,18,-1,1,16
Y2-S2-132M21,8,613,PS,intra_train,42,↑,up,↑,0.5528567000292242,True,13,-,-,-
Y2-S2-132M21,8,614,PS,intra_train,37,→,right,→,0.5554308998398483,True,13,-,-,-
Y2-S2-132M21,8,615,PS,intra_train,40,↑,up,↑,0.5615347996354103,True,13,-,-,-
Y2-S2-132M21,8,616,PS,intra_train,25,←,left,←,0.45988480001688004,True,13,-,-,-
Y2-S2-132M21,8,617,PS,intra_train,27,→,right,→,0.47233300004154444,True,13,-,-,-
Y2-S2-132M21,8,618,PS,exp,35,↓,down,↓,0.7550168000161648,True,9,0,0,0
Y2-S2-132M21,8,619,PS,exp,39,↑,up,↑,0.5467579001560807,True,9,0,0,0
Y2-S2-132M21,8,620,PS,exp,50,→,right,→,0.4633892998099327,True,9,1,0,0
Y2-S2-132M21,8,621,PS,exp,35,↓,down,↓,0.6323148999363184,True,8,1,0,0
Y2-S2-132M21,8,622,PS,exp,26,↑,up,↑,0.5666547999717295,True,8,1,0,0
Y2-S2-132M21,8,623,PS,exp,32,←,left,←,0.523514200001955,True,8,1,0,0
Y2-S2-132M21,8,624,PS,exp,39,↑,up,↑,0.5486797001212835,True,7,1,0,0
Y2-S2-132M21,8,625,PS,exp,50,←,left,←,0.9771320000290871,True,7,1,0,0
Y2-S2-132M21,8,626,PS,exp,27,→,up,↑,0.629507299978286,False,7,-1,1,1
Y2-S2-132M21,8,627,PS,exp,25,←,left,←,0.5015120999887586,True,8,-1,0,1
Y2-S2-132M21,8,628,PS,exp,36,↑,right,→,0.6880710003897548,False,8,-1,0,1
Y2-S2-132M21,8,629,PS,exp,44,↓,down,↓,0.630736599676311,True,9,-1,0,1
Y2-S2-132M21,8,630,PS,exp,28,↑,up,↑,0.47419039998203516,True,9,-1,0,1
Y2-S2-132M21,8,631,PS,exp,28,↓,down,↓,0.6458386997692287,True,9,1,1,2
Y2-S2-132M21,8,632,PS,exp,33,→,right,→,0.79911720007658,True,8,1,0,2
Y2-S2-132M21,8,633,PS,exp,45,←,left,←,0.5517517002299428,True,8,1,0,2
Y2-S2-132M21,8,634,PS,exp,40,↑,up,↑,0.4586900002323091,True,8,1,0,2
Y2-S2-132M21,8,635,PS,exp,50,→,right,→,0.6646221997216344,True,7,1,0,2
Y2-S2-132M21,8,636,PS,exp,42,←,left,←,0.6221528998576105,True,7,1,0,2
Y2-S2-132M21,8,637,PS,exp,42,↑,left,←,0.7186023001559079,False,7,-1,1,3
Y2-S2-132M21,8,638,PS,exp,27,←,left,←,0.41747030010446906,True,8,-1,0,3
Y2-S2-132M21,8,639,PS,exp,50,→,right,→,0.44108910020440817,True,8,-1,0,3
Y2-S2-132M21,8,640,PS,exp,28,←,left,←,0.5661482000723481,True,8,1,1,4
Y2-S2-132M21,8,641,PS,exp,39,→,right,→,0.3866983000189066,True,7,1,0,4
Y2-S2-132M21,8,642,PS,exp,39,↑,right,→,0.7792579000815749,False,7,-1,1,5
Y2-S2-132M21,8,643,PS,exp,29,↓,up,↑,0.8555595995858312,False,8,-1,0,5
Y2-S2-132M21,8,644,PS,exp,43,←,left,←,0.4647686998359859,True,9,-1,0,5
Y2-S2-132M21,8,645,PS,exp,39,↑,up,↑,0.4415315999649465,True,9,-1,0,5
Y2-S2-132M21,8,646,PS,exp,32,↓,down,↓,0.5845410004258156,True,9,1,1,6
Y2-S2-132M21,8,647,PS,exp,27,↑,up,↑,0.41287529980763793,True,8,1,0,6
Y2-S2-132M21,8,648,PS,exp,42,↓,down,↓,0.6823673001490533,True,8,1,0,6
Y2-S2-132M21,8,649,PS,exp,49,←,left,←,0.9461123999208212,True,8,1,0,6
Y2-S2-132M21,8,650,PS,exp,31,↓,up,↑,0.6821701000444591,False,7,-1,1,7
Y2-S2-132M21,8,651,PS,exp,50,↑,up,↑,0.8270662003196776,True,8,-1,0,7
Y2-S2-132M21,8,652,PS,exp,32,←,left,←,0.6443576999008656,True,8,-1,0,7
Y2-S2-132M21,8,653,PS,exp,31,↑,up,↑,0.5712051000446081,True,8,1,1,8
Y2-S2-132M21,8,654,PS,exp,37,→,right,→,0.760187900159508,True,7,1,0,8
Y2-S2-132M21,8,655,PS,exp,37,↓,right,→,1.0942135998047888,False,7,-1,1,9
Y2-S2-132M21,8,656,PS,exp,50,→,right,→,0.7407680000178516,True,8,-1,0,9
Y2-S2-132M21,8,657,PS,exp,44,←,left,←,0.6814037999138236,True,8,-1,0,9
Y2-S2-132M21,8,658,PS,exp,42,↓,down,↓,0.8244492998346686,True,8,1,1,10
Y2-S2-132M21,8,659,PS,exp,35,←,up,↑,0.7505930997431278,False,7,-1,1,11
Y2-S2-132M21,8,660,PS,exp,49,↓,left,←,0.9189675999805331,False,8,-1,0,11
Y2-S2-132M21,8,661,PS,exp,45,→,right,→,0.5953327999450266,True,9,-1,0,11
Y2-S2-132M21,8,662,PS,exp,33,←,left,←,0.7449105996638536,True,9,-1,0,11
Y2-S2-132M21,8,663,PS,exp,28,↑,up,↑,0.7992671001702547,True,9,1,1,12
Y2-S2-132M21,8,664,PS,exp,44,←,right,→,0.6370509997941554,False,8,-1,1,13
Y2-S2-132M21,8,665,PS,exp,27,↓,left,←,0.7519712997600436,False,9,-1,0,13
Y2-S2-132M21,8,666,PS,exp,37,↑,right,→,0.4246427002362907,False,10,-1,0,13
Y2-S2-132M21,8,667,PS,exp,37,↓,left,←,0.5275345002301037,False,11,-1,0,13
Y2-S2-132M21,8,668,PS,exp,27,↑,up,↑,0.6352780000306666,True,12,-1,0,13
Y2-S2-132M21,8,669,PS,exp,46,←,left,←,0.6190096996724606,True,12,-1,0,13
Y2-S2-132M21,8,670,PS,exp,39,↑,up,↑,0.7237351997755468,True,12,1,1,14
Y2-S2-132M21,8,671,PS,exp,35,←,left,←,0.5565313999541104,True,11,1,0,14
Y2-S2-132M21,8,672,PS,exp,35,↑,up,↑,0.48945580003783107,True,11,1,0,14
Y2-S2-132M21,8,673,PS,exp,44,↓,up,↑,0.7887285999022424,False,11,-1,1,15
Y2-S2-132M21,8,674,PS,exp,25,↑,no_key,no_letter,-1.0,False,12,-1,0,15
Y2-S2-132M21,8,675,PS,exp,43,↓,up,↑,0.6376281999982893,False,13,-1,0,15
Y2-S2-132M21,8,676,PS,exp,31,←,left,←,0.8209075001068413,True,14,-1,0,15
Y2-S2-132M21,8,677,PS,exp,44,↑,up,↑,0.5025303000584245,True,14,-1,0,15
Y2-S2-132M21,8,678,PS,exp,30,→,right,→,0.7312802001833916,True,14,1,1,16
