PART_ID,Block_no,Trial_no,Block_type,Trial_type,CSI,Stim_letter,Key_pressed,letter_choose,Rt,Corr,Stimulus Time,Level,Reversal,Revs_count
Y2-S2-021M22,1,1,PS,train,29,←,left,←,1.6611405001021922,True,30,-,-,-
Y2-S2-021M22,1,2,PS,train,44,→,right,→,0.7339211001526564,True,30,-,-,-
Y2-S2-021M22,1,3,PS,train,28,←,left,←,0.74123809998855,True,30,-,-,-
Y2-S2-021M22,1,4,PS,train,29,↑,up,↑,0.7501693000085652,True,30,-,-,-
Y2-S2-021M22,1,5,PS,train,42,↓,down,↓,0.8885842999443412,True,30,-,-,-
Y2-S2-021M22,1,6,PS,train,29,→,right,→,0.5506060998886824,True,30,-,-,-
Y2-S2-021M22,1,7,PS,train,28,←,left,←,0.45103009999729693,True,30,-,-,-
Y2-S2-021M22,1,8,PS,train,26,↑,up,↑,0.8245625998824835,True,30,-,-,-
Y2-S2-021M22,1,9,PS,train,44,↓,down,↓,0.6171706998720765,True,30,-,-,-
Y2-S2-021M22,1,10,PS,train,33,←,left,←,0.45118900015950203,True,30,-,-,-
Y2-S2-021M22,2,11,AS,train,28,↓,down,↓,1.0050440998747945,True,45,-,-,-
Y2-S2-021M22,2,12,AS,train,34,→,right,→,0.6344089999329299,True,45,-,-,-
Y2-S2-021M22,2,13,AS,train,50,↑,up,↑,0.7178728999570012,True,45,-,-,-
Y2-S2-021M22,2,14,AS,train,26,→,right,→,0.8009305000305176,True,45,-,-,-
Y2-S2-021M22,2,15,AS,train,44,←,left,←,0.5677614999003708,True,45,-,-,-
Y2-S2-021M22,2,16,AS,train,33,↓,up,↑,0.5511737000197172,False,45,-,-,-
Y2-S2-021M22,2,17,AS,train,39,←,left,←,0.7339844999369234,True,45,-,-,-
Y2-S2-021M22,2,18,AS,train,42,→,right,→,0.8507089999038726,True,45,-,-,-
Y2-S2-021M22,2,19,AS,train,37,↓,down,↓,0.8339448999613523,True,45,-,-,-
Y2-S2-021M22,2,20,AS,train,48,↑,up,↑,0.6344707999378443,True,45,-,-,-
Y2-S2-021M22,-,21,PS,adaptive,49,←,left,←,0.41933519998565316,True,10,0,0,0
Y2-S2-021M22,-,22,PS,adaptive,27,↑,up,↑,0.7435717999469489,True,10,0,0,0
Y2-S2-021M22,-,23,PS,adaptive,40,→,right,→,0.6102037001401186,True,10,1,0,0
Y2-S2-021M22,-,24,PS,adaptive,47,↓,up,↑,0.7339637000113726,False,9,-1,1,1
Y2-S2-021M22,-,25,PS,adaptive,45,←,left,←,0.7060961998067796,True,10,-1,0,1
Y2-S2-021M22,-,26,PS,adaptive,34,→,right,→,0.4623581999912858,True,10,-1,0,1
Y2-S2-021M22,-,27,PS,adaptive,30,↑,up,↑,0.6548214999493212,True,10,1,1,2
Y2-S2-021M22,-,28,PS,adaptive,44,↓,down,↓,0.7278413001913577,True,9,1,0,2
Y2-S2-021M22,-,29,PS,adaptive,27,←,left,←,0.744137299945578,True,9,1,0,2
Y2-S2-021M22,-,30,PS,adaptive,49,↑,up,↑,0.7349250998813659,True,9,1,0,2
Y2-S2-021M22,-,31,PS,adaptive,49,↓,down,↓,0.7169653000310063,True,8,1,0,2
Y2-S2-021M22,-,32,PS,adaptive,31,→,right,→,0.6709082999732345,True,8,1,0,2
Y2-S2-021M22,-,33,PS,adaptive,45,←,right,→,1.3919405001215637,False,8,-1,1,3
Y2-S2-021M22,-,34,PS,adaptive,43,↑,up,↑,0.9336556999478489,True,9,-1,0,3
Y2-S2-021M22,-,35,PS,adaptive,33,↓,up,↑,0.6812056000344455,False,9,-1,0,3
Y2-S2-021M22,-,36,PS,adaptive,35,←,left,←,0.5080578001216054,True,10,-1,0,3
Y2-S2-021M22,-,37,PS,adaptive,29,→,right,→,0.5683070998638868,True,10,-1,0,3
Y2-S2-021M22,-,38,PS,adaptive,32,↑,left,←,1.5163122001104057,False,10,-1,0,3
Y2-S2-021M22,-,39,PS,adaptive,40,→,right,→,0.5694824999663979,True,11,-1,0,3
Y2-S2-021M22,-,40,PS,adaptive,30,↑,up,↑,0.5588640000205487,True,11,-1,0,3
Y2-S2-021M22,-,41,PS,adaptive,26,↓,left,←,0.7371835999656469,False,11,-1,0,3
Y2-S2-021M22,-,42,PS,adaptive,32,→,right,→,0.5116581998299807,True,12,-1,0,3
Y2-S2-021M22,-,43,PS,adaptive,31,↑,up,↑,0.5475799997802824,True,12,-1,0,3
Y2-S2-021M22,-,44,PS,adaptive,49,→,right,→,0.5445997000206262,True,12,1,1,4
Y2-S2-021M22,-,45,AS,adaptive,41,←,left,←,1.1137526000384241,True,20,0,0,0
Y2-S2-021M22,-,46,AS,adaptive,46,↑,up,↑,1.8915046998299658,True,20,0,0,0
Y2-S2-021M22,-,47,AS,adaptive,45,→,right,→,0.6874524001032114,True,20,1,0,0
Y2-S2-021M22,-,48,AS,adaptive,37,↑,up,↑,0.6798039998393506,True,19,1,0,0
Y2-S2-021M22,-,49,AS,adaptive,36,←,right,→,1.6750960999634117,False,19,-1,1,1
Y2-S2-021M22,-,50,AS,adaptive,34,↓,up,↑,0.5497896999586374,False,20,-1,0,1
Y2-S2-021M22,-,51,AS,adaptive,37,←,left,←,0.955644299974665,True,21,-1,0,1
Y2-S2-021M22,-,52,AS,adaptive,41,↓,down,↓,1.4254104001447558,True,21,-1,0,1
Y2-S2-021M22,-,53,AS,adaptive,33,↑,up,↑,1.132526099914685,True,21,1,1,2
Y2-S2-021M22,-,54,AS,adaptive,34,↓,down,↓,0.9616386000998318,True,20,1,0,2
Y2-S2-021M22,-,55,AS,adaptive,40,→,right,→,0.6642217000480741,True,20,1,0,2
Y2-S2-021M22,-,56,AS,adaptive,50,↑,up,↑,1.0069051999598742,True,20,1,0,2
Y2-S2-021M22,-,57,AS,adaptive,36,←,right,→,0.9314893998671323,False,19,-1,1,3
Y2-S2-021M22,-,58,AS,adaptive,44,↑,up,↑,0.699397899908945,True,20,-1,0,3
Y2-S2-021M22,-,59,AS,adaptive,26,↓,down,↓,0.8241161000914872,True,20,-1,0,3
Y2-S2-021M22,-,60,AS,adaptive,31,→,right,→,0.6532018000725657,True,20,1,1,4
Y2-S2-021M22,1,61,PS,intra_train,25,↑,up,↑,0.7093203999102116,True,16,-,-,-
Y2-S2-021M22,1,62,PS,intra_train,48,↓,down,↓,0.7637088999617845,True,16,-,-,-
Y2-S2-021M22,1,63,PS,intra_train,35,↑,up,↑,0.7579023998696357,True,16,-,-,-
Y2-S2-021M22,1,64,PS,intra_train,38,↓,down,↓,0.5473274001851678,True,16,-,-,-
Y2-S2-021M22,1,65,PS,intra_train,42,←,left,←,1.3533654999919236,True,16,-,-,-
Y2-S2-021M22,1,66,PS,exp,28,↓,down,↓,0.8928684000857174,True,11,0,0,0
Y2-S2-021M22,1,67,PS,exp,37,↑,up,↑,0.5867878999561071,True,11,0,0,0
Y2-S2-021M22,1,68,PS,exp,31,→,right,→,0.5010188999585807,True,11,1,0,0
Y2-S2-021M22,1,69,PS,exp,44,↑,up,↑,0.4706987999379635,True,10,1,0,0
Y2-S2-021M22,1,70,PS,exp,49,→,right,→,0.5040146999526769,True,10,1,0,0
Y2-S2-021M22,1,71,PS,exp,38,←,left,←,0.720055399928242,True,10,1,0,0
Y2-S2-021M22,1,72,PS,exp,38,↓,down,↓,0.5837572000455111,True,9,1,0,0
Y2-S2-021M22,1,73,PS,exp,34,→,right,→,0.6738450999837369,True,9,1,0,0
Y2-S2-021M22,1,74,PS,exp,29,↑,up,↑,0.6450428001116961,True,9,1,0,0
Y2-S2-021M22,1,75,PS,exp,39,←,left,←,0.7123768001329154,True,8,1,0,0
Y2-S2-021M22,1,76,PS,exp,28,↓,down,↓,0.5146792999003083,True,8,1,0,0
Y2-S2-021M22,1,77,PS,exp,25,→,left,←,0.8236997001804411,False,8,-1,1,1
Y2-S2-021M22,1,78,PS,exp,33,↑,up,↑,0.4698759999591857,True,9,-1,0,1
Y2-S2-021M22,1,79,PS,exp,26,↓,down,↓,0.47324730013497174,True,9,-1,0,1
Y2-S2-021M22,1,80,PS,exp,47,→,right,→,0.5633227999787778,True,9,1,1,2
Y2-S2-021M22,1,81,PS,exp,36,↑,up,↑,1.1107290999498218,True,8,1,0,2
Y2-S2-021M22,1,82,PS,exp,35,←,left,←,0.7727391999214888,True,8,1,0,2
Y2-S2-021M22,1,83,PS,exp,46,→,right,→,0.51823929999955,True,8,1,0,2
Y2-S2-021M22,1,84,PS,exp,40,←,left,←,0.6091670000459999,True,7,1,0,2
Y2-S2-021M22,1,85,PS,exp,26,↑,right,→,0.8691528998315334,False,7,-1,1,3
Y2-S2-021M22,1,86,PS,exp,49,↓,down,↓,0.7033919999375939,True,8,-1,0,3
Y2-S2-021M22,1,87,PS,exp,35,←,left,←,0.7156305001117289,True,8,-1,0,3
Y2-S2-021M22,1,88,PS,exp,36,→,left,←,1.5814829000737518,False,8,-1,0,3
Y2-S2-021M22,1,89,PS,exp,37,↑,right,→,0.7480442000087351,False,9,-1,0,3
Y2-S2-021M22,1,90,PS,exp,47,←,left,←,0.6310825999826193,True,10,-1,0,3
Y2-S2-021M22,1,91,PS,exp,29,→,right,→,0.5682159001007676,True,10,-1,0,3
Y2-S2-021M22,1,92,PS,exp,38,↑,up,↑,0.5322503000497818,True,10,1,1,4
Y2-S2-021M22,1,93,PS,exp,26,↓,down,↓,0.7808601001743227,True,9,1,0,4
Y2-S2-021M22,1,94,PS,exp,31,←,down,↓,0.5560756998602301,False,9,-1,1,5
Y2-S2-021M22,1,95,PS,exp,25,→,right,→,0.5314631999935955,True,10,-1,0,5
Y2-S2-021M22,1,96,PS,exp,40,↓,down,↓,0.4656366999261081,True,10,-1,0,5
Y2-S2-021M22,1,97,PS,exp,50,→,right,→,0.4814557998906821,True,10,1,1,6
Y2-S2-021M22,1,98,PS,exp,34,←,left,←,0.6024205000139773,True,9,1,0,6
Y2-S2-021M22,1,99,PS,exp,38,↓,left,←,0.6978549999184906,False,9,-1,1,7
Y2-S2-021M22,1,100,PS,exp,37,→,right,→,0.5705208999570459,True,10,-1,0,7
Y2-S2-021M22,1,101,PS,exp,26,↑,left,←,0.6942664999514818,False,10,-1,0,7
Y2-S2-021M22,1,102,PS,exp,28,→,right,→,0.493203500052914,True,11,-1,0,7
Y2-S2-021M22,1,103,PS,exp,48,↓,down,↓,0.8409355999901891,True,11,-1,0,7
Y2-S2-021M22,1,104,PS,exp,39,→,right,→,0.629573600133881,True,11,1,1,8
Y2-S2-021M22,1,105,PS,exp,32,↓,down,↓,0.7006759000942111,True,10,1,0,8
Y2-S2-021M22,1,106,PS,exp,26,→,right,→,0.5433170998003334,True,10,1,0,8
Y2-S2-021M22,1,107,PS,exp,48,↓,down,↓,0.5619612999726087,True,10,1,0,8
Y2-S2-021M22,1,108,PS,exp,39,↑,up,↑,0.6646650000475347,True,9,1,0,8
Y2-S2-021M22,1,109,PS,exp,27,←,left,←,0.5067916000261903,True,9,1,0,8
Y2-S2-021M22,1,110,PS,exp,28,→,right,→,0.44864799990318716,True,9,1,0,8
Y2-S2-021M22,1,111,PS,exp,47,←,up,↑,0.7567342000547796,False,8,-1,1,9
Y2-S2-021M22,1,112,PS,exp,47,↓,down,↓,0.782959699863568,True,9,-1,0,9
Y2-S2-021M22,1,113,PS,exp,38,←,left,←,0.5849506999365985,True,9,-1,0,9
Y2-S2-021M22,1,114,PS,exp,46,↓,down,↓,0.6765707000158727,True,9,1,1,10
Y2-S2-021M22,1,115,PS,exp,30,→,left,←,0.7857927998993546,False,8,-1,1,11
Y2-S2-021M22,1,116,PS,exp,50,↓,down,↓,0.5379302999936044,True,9,-1,0,11
Y2-S2-021M22,1,117,PS,exp,49,↑,left,←,0.5097061998676509,False,9,-1,0,11
Y2-S2-021M22,1,118,PS,exp,44,↓,up,↑,1.0249315998516977,False,10,-1,0,11
Y2-S2-021M22,1,119,PS,exp,37,↑,up,↑,0.5861388000193983,True,11,-1,0,11
Y2-S2-021M22,1,120,PS,exp,33,←,right,→,0.8600549998227507,False,11,-1,0,11
Y2-S2-021M22,1,121,PS,exp,28,→,right,→,0.5220895998645574,True,12,-1,0,11
Y2-S2-021M22,1,122,PS,exp,32,↓,down,↓,0.5009671000298113,True,12,-1,0,11
Y2-S2-021M22,1,123,PS,exp,42,→,right,→,0.5018451998475939,True,12,1,1,12
Y2-S2-021M22,1,124,PS,exp,28,←,left,←,0.7163293999619782,True,11,1,0,12
Y2-S2-021M22,1,125,PS,exp,38,↑,up,↑,0.5526071998756379,True,11,1,0,12
Y2-S2-021M22,1,126,PS,exp,31,↓,down,↓,0.9206509999930859,True,11,1,0,12
Y2-S2-021M22,1,127,PS,exp,25,←,left,←,0.47527830000035465,True,10,1,0,12
Y2-S2-021M22,1,128,PS,exp,44,↑,up,↑,0.6329300000797957,True,10,1,0,12
Y2-S2-021M22,1,129,PS,exp,41,↓,down,↓,0.5658895999658853,True,10,1,0,12
Y2-S2-021M22,1,130,PS,exp,41,←,left,←,0.6123967999592423,True,9,1,0,12
Y2-S2-021M22,1,131,PS,exp,49,→,right,→,0.560772700002417,True,9,1,0,12
Y2-S2-021M22,1,132,PS,exp,41,←,left,←,0.5203309000935405,True,9,1,0,12
Y2-S2-021M22,1,133,PS,exp,29,↑,up,↑,0.4659277000464499,True,8,1,0,12
Y2-S2-021M22,1,134,PS,exp,27,↓,down,↓,0.9883257001638412,True,8,1,0,12
Y2-S2-021M22,1,135,PS,exp,39,↑,up,↑,0.6418844999279827,True,8,1,0,12
Y2-S2-021M22,1,136,PS,exp,34,→,right,→,0.5621559999417514,True,7,1,0,12
Y2-S2-021M22,1,137,PS,exp,32,↑,up,↑,0.698425899958238,True,7,1,0,12
Y2-S2-021M22,1,138,PS,exp,50,↓,down,↓,0.8757489998824894,True,7,1,0,12
Y2-S2-021M22,1,139,PS,exp,25,←,left,←,0.7439136998727918,True,6,1,0,12
Y2-S2-021M22,1,140,PS,exp,30,↑,left,←,0.7207786000799388,False,6,-1,1,13
Y2-S2-021M22,1,141,PS,exp,25,↓,down,↓,0.5801852000877261,True,7,-1,0,13
Y2-S2-021M22,1,142,PS,exp,27,→,down,↓,0.7861635000444949,False,7,-1,0,13
Y2-S2-021M22,1,143,PS,exp,32,←,left,←,0.4753208998590708,True,8,-1,0,13
Y2-S2-021M22,1,144,PS,exp,48,→,right,→,0.45268019987270236,True,8,-1,0,13
Y2-S2-021M22,1,145,PS,exp,32,↓,left,←,0.7416777999605983,False,8,-1,0,13
Y2-S2-021M22,1,146,PS,exp,49,←,left,←,0.513147700112313,True,9,-1,0,13
Y2-S2-021M22,1,147,PS,exp,33,↑,left,←,0.6167258000932634,False,9,-1,0,13
Y2-S2-021M22,1,148,PS,exp,47,→,right,→,0.5272027000319213,True,10,-1,0,13
Y2-S2-021M22,1,149,PS,exp,42,↓,left,←,0.6271347999572754,False,10,-1,0,13
Y2-S2-021M22,1,150,PS,exp,34,→,right,→,0.5122636000160128,True,11,-1,0,13
Y2-S2-021M22,1,151,PS,exp,49,↑,up,↑,1.5384250001516193,True,11,-1,0,13
Y2-S2-021M22,1,152,PS,exp,34,←,left,←,0.5230068999808282,True,11,1,1,14
Y2-S2-021M22,1,153,PS,exp,49,↓,down,↓,0.8301435001194477,True,10,1,0,14
Y2-S2-021M22,1,154,PS,exp,49,→,left,←,0.7519380999729037,False,10,-1,1,15
Y2-S2-021M22,1,155,PS,exp,32,↑,up,↑,0.7204193000216037,True,11,-1,0,15
Y2-S2-021M22,1,156,PS,exp,37,←,up,↑,0.9576304000802338,False,11,-1,0,15
Y2-S2-021M22,1,157,PS,exp,25,↓,down,↓,0.8329861001111567,True,12,-1,0,15
Y2-S2-021M22,1,158,PS,exp,41,←,left,←,1.5643764999695122,True,12,-1,0,15
Y2-S2-021M22,1,159,PS,exp,30,↑,up,↑,1.0316002999898046,True,12,1,1,16
Y2-S2-021M22,2,160,AS,intra_train,41,↓,down,↓,1.0993425999768078,True,28,-,-,-
Y2-S2-021M22,2,161,AS,intra_train,45,→,right,→,0.7386262000072747,True,28,-,-,-
Y2-S2-021M22,2,162,AS,intra_train,50,↑,up,↑,0.8055061001796275,True,28,-,-,-
Y2-S2-021M22,2,163,AS,intra_train,28,→,right,→,0.6515328998211771,True,28,-,-,-
Y2-S2-021M22,2,164,AS,intra_train,30,←,left,←,0.6439271001145244,True,28,-,-,-
Y2-S2-021M22,2,165,AS,exp,29,↑,up,↑,0.7596856001764536,True,19,0,0,0
Y2-S2-021M22,2,166,AS,exp,42,↓,no_key,no_letter,-1.0,False,19,-1,0,0
Y2-S2-021M22,2,167,AS,exp,49,←,left,←,0.7513761001173407,True,20,-1,0,0
Y2-S2-021M22,2,168,AS,exp,38,↓,up,↑,0.8035470999311656,False,20,-1,0,0
Y2-S2-021M22,2,169,AS,exp,36,→,left,←,0.8146412998903543,False,21,-1,0,0
Y2-S2-021M22,2,170,AS,exp,50,↑,up,↑,0.5658718999475241,True,22,-1,0,0
Y2-S2-021M22,2,171,AS,exp,26,↓,left,←,0.6957103998865932,False,22,-1,0,0
Y2-S2-021M22,2,172,AS,exp,49,→,right,→,0.5640984999481589,True,23,-1,0,0
Y2-S2-021M22,2,173,AS,exp,27,↓,down,↓,0.9110593001823872,True,23,-1,0,0
Y2-S2-021M22,2,174,AS,exp,47,→,left,←,0.5526417000219226,False,23,-1,0,0
Y2-S2-021M22,2,175,AS,exp,26,←,left,←,0.9762439001351595,True,24,-1,0,0
Y2-S2-021M22,2,176,AS,exp,29,↓,down,↓,0.5948999000247568,True,24,-1,0,0
Y2-S2-021M22,2,177,AS,exp,33,→,right,→,0.6457110000774264,True,24,1,1,1
Y2-S2-021M22,2,178,AS,exp,28,←,left,←,0.5591716999188066,True,23,1,0,1
Y2-S2-021M22,2,179,AS,exp,29,→,right,→,0.6940021000336856,True,23,1,0,1
Y2-S2-021M22,2,180,AS,exp,44,↓,right,→,1.7784734000451863,False,23,-1,1,2
Y2-S2-021M22,2,181,AS,exp,47,←,left,←,1.0503796997945756,True,24,-1,0,2
Y2-S2-021M22,2,182,AS,exp,26,↑,up,↑,1.2588641999755055,True,24,-1,0,2
Y2-S2-021M22,2,183,AS,exp,41,←,right,→,0.9929255000315607,False,24,-1,0,2
Y2-S2-021M22,2,184,AS,exp,46,↓,down,↓,0.9553068999666721,True,25,-1,0,2
Y2-S2-021M22,2,185,AS,exp,43,←,left,←,0.7081685999874026,True,25,-1,0,2
Y2-S2-021M22,2,186,AS,exp,43,↑,up,↑,0.7532738000154495,True,25,1,1,3
Y2-S2-021M22,2,187,AS,exp,30,↓,down,↓,0.9886064999736845,True,24,1,0,3
Y2-S2-021M22,2,188,AS,exp,28,←,left,←,0.48388660000637174,True,24,1,0,3
Y2-S2-021M22,2,189,AS,exp,27,↓,down,↓,0.8650169000029564,True,24,1,0,3
Y2-S2-021M22,2,190,AS,exp,41,↑,up,↑,0.9683226000051945,True,23,1,0,3
Y2-S2-021M22,2,191,AS,exp,47,→,right,→,0.5169472000561655,True,23,1,0,3
Y2-S2-021M22,2,192,AS,exp,25,↑,up,↑,0.6372779000084847,True,23,1,0,3
Y2-S2-021M22,2,193,AS,exp,29,↓,up,↑,0.4173091999255121,False,22,-1,1,4
Y2-S2-021M22,2,194,AS,exp,26,↑,up,↑,0.5173448999412358,True,23,-1,0,4
Y2-S2-021M22,2,195,AS,exp,46,→,right,→,0.517237399937585,True,23,-1,0,4
Y2-S2-021M22,2,196,AS,exp,46,↑,up,↑,0.3844278999604285,True,23,1,1,5
Y2-S2-021M22,2,197,AS,exp,45,→,right,→,1.1535823000594974,True,22,1,0,5
Y2-S2-021M22,2,198,AS,exp,39,↓,up,↑,1.1518004001118243,False,22,-1,1,6
Y2-S2-021M22,2,199,AS,exp,46,←,left,←,0.38391559990122914,True,23,-1,0,6
Y2-S2-021M22,2,200,AS,exp,38,↑,up,↑,0.7615193999372423,True,23,-1,0,6
Y2-S2-021M22,2,201,AS,exp,46,←,left,←,0.41696740011684597,True,23,1,1,7
Y2-S2-021M22,2,202,AS,exp,25,↓,down,↓,1.0005930999759585,True,22,1,0,7
Y2-S2-021M22,2,203,AS,exp,26,↑,down,↓,0.7755585999693722,False,22,-1,1,8
Y2-S2-021M22,2,204,AS,exp,37,→,right,→,0.9608952000271529,True,23,-1,0,8
Y2-S2-021M22,2,205,AS,exp,36,↑,up,↑,1.215402799891308,True,23,-1,0,8
Y2-S2-021M22,2,206,AS,exp,25,←,left,←,0.9402854999061674,True,23,1,1,9
Y2-S2-021M22,2,207,AS,exp,27,↑,up,↑,0.9602329002227634,True,22,1,0,9
Y2-S2-021M22,2,208,AS,exp,38,←,left,←,0.6446507000364363,True,22,1,0,9
Y2-S2-021M22,2,209,AS,exp,39,→,right,→,0.6342760999687016,True,22,1,0,9
Y2-S2-021M22,2,210,AS,exp,28,↑,left,←,0.8685444998554885,False,21,-1,1,10
Y2-S2-021M22,2,211,AS,exp,49,→,left,←,0.6463353000581264,False,22,-1,0,10
Y2-S2-021M22,2,212,AS,exp,40,↑,no_key,no_letter,-1.0,False,23,-1,0,10
Y2-S2-021M22,2,213,AS,exp,47,↓,up,↑,0.7205968000926077,False,24,-1,0,10
Y2-S2-021M22,2,214,AS,exp,37,→,right,→,0.6560851000249386,True,25,-1,0,10
Y2-S2-021M22,2,215,AS,exp,45,↑,up,↑,0.6848862001206726,True,25,-1,0,10
Y2-S2-021M22,2,216,AS,exp,31,←,left,←,0.7592335999943316,True,25,1,1,11
Y2-S2-021M22,2,217,AS,exp,45,↓,down,↓,0.8482007998973131,True,24,1,0,11
Y2-S2-021M22,2,218,AS,exp,48,↑,up,↑,0.8602750999853015,True,24,1,0,11
Y2-S2-021M22,2,219,AS,exp,30,→,left,←,0.580868300050497,False,24,-1,1,12
Y2-S2-021M22,2,220,AS,exp,43,↓,down,↓,0.8979373001493514,True,25,-1,0,12
Y2-S2-021M22,2,221,AS,exp,43,←,left,←,0.9006262999027967,True,25,-1,0,12
Y2-S2-021M22,2,222,AS,exp,29,→,left,←,0.6103753000497818,False,25,-1,0,12
Y2-S2-021M22,2,223,AS,exp,44,↓,down,↓,1.02238929993473,True,26,-1,0,12
Y2-S2-021M22,2,224,AS,exp,30,↑,up,↑,0.9418792999349535,True,26,-1,0,12
Y2-S2-021M22,2,225,AS,exp,28,→,left,←,0.567275800043717,False,26,-1,0,12
Y2-S2-021M22,2,226,AS,exp,50,←,no_key,no_letter,-1.0,False,27,-1,0,12
Y2-S2-021M22,2,227,AS,exp,43,→,no_key,no_letter,-1.0,False,28,-1,0,12
Y2-S2-021M22,2,228,AS,exp,41,↓,down,↓,0.9432514000218362,True,29,-1,0,12
Y2-S2-021M22,2,229,AS,exp,34,→,right,→,0.6822989000938833,True,29,-1,0,12
Y2-S2-021M22,2,230,AS,exp,39,↓,down,↓,0.8075883002020419,True,29,1,1,13
Y2-S2-021M22,2,231,AS,exp,37,→,right,→,0.7990017998963594,True,28,1,0,13
Y2-S2-021M22,2,232,AS,exp,32,←,left,←,0.7526171000208706,True,28,1,0,13
Y2-S2-021M22,2,233,AS,exp,36,→,right,→,0.9588761001359671,True,28,1,0,13
Y2-S2-021M22,2,234,AS,exp,46,←,left,←,0.668723699869588,True,27,1,0,13
Y2-S2-021M22,2,235,AS,exp,41,↓,up,↑,1.304309300146997,False,27,-1,1,14
Y2-S2-021M22,2,236,AS,exp,25,→,right,→,0.7988028998952359,True,28,-1,0,14
Y2-S2-021M22,2,237,AS,exp,42,↑,up,↑,0.8052003998309374,True,28,-1,0,14
Y2-S2-021M22,2,238,AS,exp,34,←,left,←,0.6800597999244928,True,28,1,1,15
Y2-S2-021M22,2,239,AS,exp,50,→,right,→,0.7434125000145286,True,27,1,0,15
Y2-S2-021M22,2,240,AS,exp,40,↑,up,↑,0.675612400053069,True,27,1,0,15
Y2-S2-021M22,2,241,AS,exp,32,↓,down,↓,0.7486205000896007,True,27,1,0,15
Y2-S2-021M22,2,242,AS,exp,28,←,left,←,0.43411249993368983,True,26,1,0,15
Y2-S2-021M22,2,243,AS,exp,29,↑,up,↑,0.9990355998743325,True,26,1,0,15
Y2-S2-021M22,2,244,AS,exp,29,→,right,→,0.8727104000281543,True,26,1,0,15
Y2-S2-021M22,2,245,AS,exp,38,←,left,←,0.899627799866721,True,25,1,0,15
Y2-S2-021M22,2,246,AS,exp,30,→,right,→,0.5503799000289291,True,25,1,0,15
Y2-S2-021M22,2,247,AS,exp,38,←,left,←,1.3954243001062423,True,25,1,0,15
Y2-S2-021M22,2,248,AS,exp,37,↓,down,↓,0.912395300110802,True,24,1,0,15
Y2-S2-021M22,2,249,AS,exp,31,←,left,←,0.43383520003408194,True,24,1,0,15
Y2-S2-021M22,2,250,AS,exp,45,→,right,→,1.2290801999624819,True,24,1,0,15
Y2-S2-021M22,2,251,AS,exp,30,↑,up,↑,0.9345524001400918,True,23,1,0,15
Y2-S2-021M22,2,252,AS,exp,39,←,left,←,0.3673946000635624,True,23,1,0,15
Y2-S2-021M22,2,253,AS,exp,39,↓,down,↓,0.7672794000245631,True,23,1,0,15
Y2-S2-021M22,2,254,AS,exp,40,←,right,→,0.03443929995410144,False,22,-1,1,16
Y2-S2-021M22,3,255,AS,intra_train,27,↓,down,↓,1.1998286999296397,True,28,-,-,-
Y2-S2-021M22,3,256,AS,intra_train,34,↑,up,↑,0.696637999964878,True,28,-,-,-
Y2-S2-021M22,3,257,AS,intra_train,44,→,right,→,0.7772110998630524,True,28,-,-,-
Y2-S2-021M22,3,258,AS,intra_train,49,←,left,←,0.765387199819088,True,28,-,-,-
Y2-S2-021M22,3,259,AS,intra_train,42,→,right,→,0.6418668997939676,True,28,-,-,-
Y2-S2-021M22,3,260,AS,exp,29,↑,right,→,0.8674212000332773,False,19,-1,0,0
Y2-S2-021M22,3,261,AS,exp,30,→,right,→,0.673206799896434,True,20,-1,0,0
Y2-S2-021M22,3,262,AS,exp,31,↓,down,↓,0.8667091999668628,True,20,-1,0,0
Y2-S2-021M22,3,263,AS,exp,50,←,left,←,0.5431590999942273,True,20,1,1,1
Y2-S2-021M22,3,264,AS,exp,27,↓,up,↑,1.1097071000840515,False,19,-1,1,2
Y2-S2-021M22,3,265,AS,exp,28,↑,down,↓,0.9023896001745015,False,20,-1,0,2
Y2-S2-021M22,3,266,AS,exp,41,→,right,→,0.7607412000652403,True,21,-1,0,2
Y2-S2-021M22,3,267,AS,exp,48,↑,up,↑,0.6126590999774635,True,21,-1,0,2
Y2-S2-021M22,3,268,AS,exp,33,→,right,→,0.9260483998805285,True,21,1,1,3
Y2-S2-021M22,3,269,AS,exp,47,↑,up,↑,0.5513412000145763,True,20,1,0,3
Y2-S2-021M22,3,270,AS,exp,47,←,left,←,0.6899352001491934,True,20,1,0,3
Y2-S2-021M22,3,271,AS,exp,37,→,right,→,0.5675470000132918,True,20,1,0,3
Y2-S2-021M22,3,272,AS,exp,30,↑,down,↓,1.151320899836719,False,19,-1,1,4
Y2-S2-021M22,3,273,AS,exp,48,→,right,→,0.6358082999940962,True,20,-1,0,4
Y2-S2-021M22,3,274,AS,exp,50,←,right,→,0.956349000101909,False,20,-1,0,4
Y2-S2-021M22,3,275,AS,exp,32,→,right,→,0.6589393999893218,True,21,-1,0,4
Y2-S2-021M22,3,276,AS,exp,31,↑,up,↑,0.586800399934873,True,21,-1,0,4
Y2-S2-021M22,3,277,AS,exp,42,↓,down,↓,0.8265643999911845,True,21,1,1,5
Y2-S2-021M22,3,278,AS,exp,39,↑,up,↑,0.7625135001726449,True,20,1,0,5
Y2-S2-021M22,3,279,AS,exp,38,→,right,→,0.7232837001793087,True,20,1,0,5
Y2-S2-021M22,3,280,AS,exp,43,↓,left,←,1.4449487999081612,False,20,-1,1,6
Y2-S2-021M22,3,281,AS,exp,31,→,left,←,0.5584881000686437,False,21,-1,0,6
Y2-S2-021M22,3,282,AS,exp,43,↓,up,↑,0.8303740997798741,False,22,-1,0,6
Y2-S2-021M22,3,283,AS,exp,28,↑,up,↑,0.7130271999631077,True,23,-1,0,6
Y2-S2-021M22,3,284,AS,exp,34,→,right,→,0.8532936999108642,True,23,-1,0,6
Y2-S2-021M22,3,285,AS,exp,40,↓,down,↓,1.102093799971044,True,23,1,1,7
Y2-S2-021M22,3,286,AS,exp,36,←,left,←,0.974802799988538,True,22,1,0,7
Y2-S2-021M22,3,287,AS,exp,50,↓,down,↓,1.1179092999082059,True,22,1,0,7
Y2-S2-021M22,3,288,AS,exp,42,←,left,←,0.6973926001228392,True,22,1,0,7
Y2-S2-021M22,3,289,AS,exp,37,↓,left,←,1.2330787000246346,False,21,-1,1,8
Y2-S2-021M22,3,290,AS,exp,29,↑,up,↑,0.4506216999143362,True,22,-1,0,8
Y2-S2-021M22,3,291,AS,exp,33,↓,down,↓,0.839055199874565,True,22,-1,0,8
Y2-S2-021M22,3,292,AS,exp,32,→,left,←,1.0957112999167293,False,22,-1,0,8
Y2-S2-021M22,3,293,AS,exp,27,↑,up,↑,0.8586056001950055,True,23,-1,0,8
Y2-S2-021M22,3,294,AS,exp,30,←,left,←,0.46738709998317063,True,23,-1,0,8
Y2-S2-021M22,3,295,AS,exp,44,↑,up,↑,0.4503236999735236,True,23,1,1,9
Y2-S2-021M22,3,296,AS,exp,25,↓,down,↓,0.7229174000676721,True,22,1,0,9
Y2-S2-021M22,3,297,AS,exp,35,↑,up,↑,0.48403319995850325,True,22,1,0,9
Y2-S2-021M22,3,298,AS,exp,46,↓,down,↓,0.5373943001031876,True,22,1,0,9
Y2-S2-021M22,3,299,AS,exp,38,→,right,→,0.5278251999989152,True,21,1,0,9
Y2-S2-021M22,3,300,AS,exp,38,↓,left,←,1.9043473000638187,False,21,-1,1,10
Y2-S2-021M22,3,301,AS,exp,37,←,left,←,0.7712477000895888,True,22,-1,0,10
Y2-S2-021M22,3,302,AS,exp,41,→,right,→,0.4507956001907587,True,22,-1,0,10
Y2-S2-021M22,3,303,AS,exp,49,←,left,←,0.4669315000064671,True,22,1,1,11
Y2-S2-021M22,3,304,AS,exp,29,↓,left,←,1.2415291999932379,False,21,-1,1,12
Y2-S2-021M22,3,305,AS,exp,25,↑,up,↑,0.45072420011274517,True,22,-1,0,12
Y2-S2-021M22,3,306,AS,exp,41,←,left,←,0.6015180998947471,True,22,-1,0,12
Y2-S2-021M22,3,307,AS,exp,34,→,right,→,0.6611550999805331,True,22,1,1,13
Y2-S2-021M22,3,308,AS,exp,44,↓,no_key,no_letter,-1.0,False,21,-1,1,14
Y2-S2-021M22,3,309,AS,exp,28,←,left,←,0.8609229000285268,True,22,-1,0,14
Y2-S2-021M22,3,310,AS,exp,35,↑,up,↑,1.8156553998123854,True,22,-1,0,14
Y2-S2-021M22,3,311,AS,exp,43,↓,left,←,1.1438547999132425,False,22,-1,0,14
Y2-S2-021M22,3,312,AS,exp,37,→,left,←,0.5938375000841916,False,23,-1,0,14
Y2-S2-021M22,3,313,AS,exp,41,↑,up,↑,1.0541968999896199,True,24,-1,0,14
Y2-S2-021M22,3,314,AS,exp,43,↓,down,↓,1.257463099900633,True,24,-1,0,14
Y2-S2-021M22,3,315,AS,exp,25,↑,up,↑,0.7047214999329299,True,24,1,1,15
Y2-S2-021M22,3,316,AS,exp,39,↓,down,↓,0.6079787998460233,True,23,1,0,15
Y2-S2-021M22,3,317,AS,exp,47,→,right,→,0.6965379999019206,True,23,1,0,15
Y2-S2-021M22,3,318,AS,exp,26,↑,up,↑,0.5172967999242246,True,23,1,0,15
Y2-S2-021M22,3,319,AS,exp,44,←,left,←,0.8031625000294298,True,22,1,0,15
Y2-S2-021M22,3,320,AS,exp,40,→,right,→,1.8198037999682128,True,22,1,0,15
Y2-S2-021M22,3,321,AS,exp,37,↑,up,↑,0.9174593000207096,True,22,1,0,15
Y2-S2-021M22,3,322,AS,exp,29,←,left,←,0.968254700070247,True,21,1,0,15
Y2-S2-021M22,3,323,AS,exp,35,↓,down,↓,1.1408665000926703,True,21,1,0,15
Y2-S2-021M22,3,324,AS,exp,48,←,left,←,1.3576219999231398,True,21,1,0,15
Y2-S2-021M22,3,325,AS,exp,38,↑,up,↑,1.099750799825415,True,20,1,0,15
Y2-S2-021M22,3,326,AS,exp,27,↓,up,↑,1.1806624000892043,False,20,-1,1,16
Y2-S2-021M22,4,327,PS,intra_train,31,←,left,←,0.9387696997728199,True,16,-,-,-
Y2-S2-021M22,4,328,PS,intra_train,49,↓,up,↑,0.8506750999949872,False,16,-,-,-
Y2-S2-021M22,4,329,PS,intra_train,45,←,left,←,0.6470427999738604,True,16,-,-,-
Y2-S2-021M22,4,330,PS,intra_train,42,↓,up,↑,0.9297462000977248,False,16,-,-,-
Y2-S2-021M22,4,331,PS,intra_train,34,↑,right,→,1.3540201000869274,False,16,-,-,-
Y2-S2-021M22,4,332,PS,exp,27,→,left,←,0.7889437000267208,False,11,-1,0,0
Y2-S2-021M22,4,333,PS,exp,35,↑,no_key,no_letter,-1.0,False,12,-1,0,0
Y2-S2-021M22,4,334,PS,exp,30,←,left,←,0.5433293997775763,True,13,-1,0,0
Y2-S2-021M22,4,335,PS,exp,47,→,no_key,no_letter,-1.0,False,13,-1,0,0
Y2-S2-021M22,4,336,PS,exp,41,↑,up,↑,0.46255879988893867,True,14,-1,0,0
Y2-S2-021M22,4,337,PS,exp,42,↓,down,↓,0.8860301999375224,True,14,-1,0,0
Y2-S2-021M22,4,338,PS,exp,42,↑,up,↑,0.4545261000748724,True,14,1,1,1
Y2-S2-021M22,4,339,PS,exp,48,→,right,→,0.49982380005531013,True,13,1,0,1
Y2-S2-021M22,4,340,PS,exp,42,←,left,←,0.6082224999554455,True,13,1,0,1
Y2-S2-021M22,4,341,PS,exp,36,↑,up,↑,0.4592694998718798,True,13,1,0,1
Y2-S2-021M22,4,342,PS,exp,42,↓,down,↓,0.880634400062263,True,12,1,0,1
Y2-S2-021M22,4,343,PS,exp,36,→,up,↑,0.7506138000171632,False,12,-1,1,2
Y2-S2-021M22,4,344,PS,exp,43,↑,up,↑,0.4602318999823183,True,13,-1,0,2
Y2-S2-021M22,4,345,PS,exp,38,←,left,←,0.7657796000130475,True,13,-1,0,2
Y2-S2-021M22,4,346,PS,exp,46,↑,up,↑,0.5478523001074791,True,13,1,1,3
Y2-S2-021M22,4,347,PS,exp,29,←,left,←,0.4776770998723805,True,12,1,0,3
Y2-S2-021M22,4,348,PS,exp,37,↑,up,↑,0.429038800066337,True,12,1,0,3
Y2-S2-021M22,4,349,PS,exp,34,→,right,→,0.7888877000659704,True,12,1,0,3
Y2-S2-021M22,4,350,PS,exp,27,↓,down,↓,0.920592499896884,True,11,1,0,3
Y2-S2-021M22,4,351,PS,exp,28,→,right,→,0.5186779000796378,True,11,1,0,3
Y2-S2-021M22,4,352,PS,exp,25,↑,up,↑,0.6315705000888556,True,11,1,0,3
Y2-S2-021M22,4,353,PS,exp,41,→,right,→,0.6126743000932038,True,10,1,0,3
Y2-S2-021M22,4,354,PS,exp,46,←,left,←,0.7808164998423308,True,10,1,0,3
Y2-S2-021M22,4,355,PS,exp,46,→,right,→,0.42318239994347095,True,10,1,0,3
Y2-S2-021M22,4,356,PS,exp,35,↓,left,←,0.6227700000163168,False,9,-1,1,4
Y2-S2-021M22,4,357,PS,exp,32,↑,up,↑,0.4763262001797557,True,10,-1,0,4
Y2-S2-021M22,4,358,PS,exp,40,→,right,→,0.5003849999047816,True,10,-1,0,4
Y2-S2-021M22,4,359,PS,exp,34,↓,down,↓,0.8583636998664588,True,10,1,1,5
Y2-S2-021M22,4,360,PS,exp,37,↑,right,→,0.5719385000411421,False,9,-1,1,6
Y2-S2-021M22,4,361,PS,exp,44,←,left,←,0.5681531999725848,True,10,-1,0,6
Y2-S2-021M22,4,362,PS,exp,42,↓,down,↓,0.7489147998858243,True,10,-1,0,6
Y2-S2-021M22,4,363,PS,exp,36,↑,up,↑,0.487324999878183,True,10,1,1,7
Y2-S2-021M22,4,364,PS,exp,45,←,left,←,0.9792150999419391,True,9,1,0,7
Y2-S2-021M22,4,365,PS,exp,46,→,right,→,0.4372861001174897,True,9,1,0,7
Y2-S2-021M22,4,366,PS,exp,25,←,right,→,0.7538307998329401,False,9,-1,1,8
Y2-S2-021M22,4,367,PS,exp,36,→,left,←,1.1125392999965698,False,10,-1,0,8
Y2-S2-021M22,4,368,PS,exp,30,↓,down,↓,0.7723096997942775,True,11,-1,0,8
Y2-S2-021M22,4,369,PS,exp,44,←,left,←,0.5648271001409739,True,11,-1,0,8
Y2-S2-021M22,4,370,PS,exp,35,↑,up,↑,0.515366300009191,True,11,1,1,9
Y2-S2-021M22,4,371,PS,exp,48,←,left,←,0.7420109999366105,True,10,1,0,9
Y2-S2-021M22,4,372,PS,exp,30,↑,up,↑,0.7014811998233199,True,10,1,0,9
Y2-S2-021M22,4,373,PS,exp,26,←,left,←,0.42561880010180175,True,10,1,0,9
Y2-S2-021M22,4,374,PS,exp,29,↑,up,↑,0.6039905999787152,True,9,1,0,9
Y2-S2-021M22,4,375,PS,exp,34,→,right,→,0.49095830018632114,True,9,1,0,9
Y2-S2-021M22,4,376,PS,exp,37,↓,down,↓,0.8020408998709172,True,9,1,0,9
Y2-S2-021M22,4,377,PS,exp,44,→,left,←,1.3583255999255925,False,8,-1,1,10
Y2-S2-021M22,4,378,PS,exp,48,↓,down,↓,0.8252223001327366,True,9,-1,0,10
Y2-S2-021M22,4,379,PS,exp,35,↑,up,↑,0.5515361002180725,True,9,-1,0,10
Y2-S2-021M22,4,380,PS,exp,38,↓,down,↓,0.5626836998853832,True,9,1,1,11
Y2-S2-021M22,4,381,PS,exp,33,←,left,←,0.8864202999975532,True,8,1,0,11
Y2-S2-021M22,4,382,PS,exp,36,→,right,→,1.7572399999480695,True,8,1,0,11
Y2-S2-021M22,4,383,PS,exp,35,↑,up,↑,0.5625452999956906,True,8,1,0,11
Y2-S2-021M22,4,384,PS,exp,43,→,left,←,0.6674781998153776,False,7,-1,1,12
Y2-S2-021M22,4,385,PS,exp,41,←,left,←,0.5507932000327855,True,8,-1,0,12
Y2-S2-021M22,4,386,PS,exp,49,↑,up,↑,1.0580454000737518,True,8,-1,0,12
Y2-S2-021M22,4,387,PS,exp,31,↓,down,↓,0.9873059000819921,True,8,1,1,13
Y2-S2-021M22,4,388,PS,exp,50,→,up,↑,0.820262499852106,False,7,-1,1,14
Y2-S2-021M22,4,389,PS,exp,45,↓,left,←,0.6071623999159783,False,8,-1,0,14
Y2-S2-021M22,4,390,PS,exp,50,←,left,←,0.6839787000790238,True,9,-1,0,14
Y2-S2-021M22,4,391,PS,exp,34,↑,right,→,1.0730690001510084,False,9,-1,0,14
Y2-S2-021M22,4,392,PS,exp,28,→,right,→,0.5465299000497907,True,10,-1,0,14
Y2-S2-021M22,4,393,PS,exp,26,←,left,←,0.5145845001097769,True,10,-1,0,14
Y2-S2-021M22,4,394,PS,exp,25,→,right,→,0.5488050000276417,True,10,1,1,15
Y2-S2-021M22,4,395,PS,exp,40,↑,up,↑,0.5545463000889868,True,9,1,0,15
Y2-S2-021M22,4,396,PS,exp,37,↓,down,↓,0.8709165002219379,True,9,1,0,15
Y2-S2-021M22,4,397,PS,exp,32,→,right,→,0.6915968998800963,True,9,1,0,15
Y2-S2-021M22,4,398,PS,exp,50,←,left,←,0.7508743000216782,True,8,1,0,15
Y2-S2-021M22,4,399,PS,exp,35,↑,up,↑,0.5129758999682963,True,8,1,0,15
Y2-S2-021M22,4,400,PS,exp,48,↓,down,↓,0.6860164999961853,True,8,1,0,15
Y2-S2-021M22,4,401,PS,exp,40,↑,up,↑,0.6746332999318838,True,7,1,0,15
Y2-S2-021M22,4,402,PS,exp,30,←,right,→,0.5449043000116944,False,7,-1,1,16
Y2-S2-021M22,5,403,PS,intra_train,39,↓,no_key,no_letter,-1.0,False,16,-,-,-
Y2-S2-021M22,5,404,PS,intra_train,48,→,right,→,0.5700407000258565,True,16,-,-,-
Y2-S2-021M22,5,405,PS,intra_train,28,↓,down,↓,0.7982375000137836,True,16,-,-,-
Y2-S2-021M22,5,406,PS,intra_train,44,←,left,←,0.7499398000072688,True,16,-,-,-
Y2-S2-021M22,5,407,PS,intra_train,45,→,right,→,0.6327585000544786,True,16,-,-,-
Y2-S2-021M22,5,408,PS,exp,38,↑,down,↓,1.5960087000858039,False,11,-1,0,0
Y2-S2-021M22,5,409,PS,exp,38,→,left,←,0.6930168999824673,False,12,-1,0,0
Y2-S2-021M22,5,410,PS,exp,46,↑,right,→,0.7527993000112474,False,13,-1,0,0
Y2-S2-021M22,5,411,PS,exp,26,↓,down,↓,0.6702113000210375,True,14,-1,0,0
Y2-S2-021M22,5,412,PS,exp,30,←,left,←,1.1040447000414133,True,14,-1,0,0
Y2-S2-021M22,5,413,PS,exp,37,↓,down,↓,0.7462776000611484,True,14,1,1,1
Y2-S2-021M22,5,414,PS,exp,27,←,left,←,0.7672332001384348,True,13,1,0,1
Y2-S2-021M22,5,415,PS,exp,33,→,right,→,0.9110382997896522,True,13,1,0,1
Y2-S2-021M22,5,416,PS,exp,42,↑,up,↑,0.5222487999126315,True,13,1,0,1
Y2-S2-021M22,5,417,PS,exp,29,←,left,←,0.6618990001734346,True,12,1,0,1
Y2-S2-021M22,5,418,PS,exp,48,→,up,↑,0.8735356000252068,False,12,-1,1,2
Y2-S2-021M22,5,419,PS,exp,30,↓,down,↓,0.8373024000320584,True,13,-1,0,2
Y2-S2-021M22,5,420,PS,exp,28,→,right,→,0.49638469982892275,True,13,-1,0,2
Y2-S2-021M22,5,421,PS,exp,49,↑,left,←,1.4229226999450475,False,13,-1,0,2
Y2-S2-021M22,5,422,PS,exp,31,←,left,←,0.535693199839443,True,14,-1,0,2
Y2-S2-021M22,5,423,PS,exp,50,↑,right,→,0.6778415001463145,False,14,-1,0,2
Y2-S2-021M22,5,424,PS,exp,32,↓,down,↓,1.0653218999505043,True,15,-1,0,2
Y2-S2-021M22,5,425,PS,exp,42,↑,left,←,0.7317254999652505,False,15,-1,0,2
Y2-S2-021M22,5,426,PS,exp,28,←,left,←,0.5590953000355512,True,16,-1,0,2
Y2-S2-021M22,5,427,PS,exp,36,↑,up,↑,0.5288953999988735,True,16,-1,0,2
Y2-S2-021M22,5,428,PS,exp,32,↓,down,↓,0.781137099955231,True,16,1,1,3
Y2-S2-021M22,5,429,PS,exp,32,←,left,←,1.6696135001257062,True,15,1,0,3
Y2-S2-021M22,5,430,PS,exp,29,→,left,←,1.047250400064513,False,15,-1,1,4
Y2-S2-021M22,5,431,PS,exp,43,←,left,←,0.5337570998817682,True,16,-1,0,4
Y2-S2-021M22,5,432,PS,exp,41,↓,up,↑,0.5462434999644756,False,16,-1,0,4
Y2-S2-021M22,5,433,PS,exp,34,→,left,←,0.8919108998961747,False,17,-1,0,4
Y2-S2-021M22,5,434,PS,exp,38,←,no_key,no_letter,-1.0,False,18,-1,0,4
Y2-S2-021M22,5,435,PS,exp,48,→,right,→,1.126682800007984,True,19,-1,0,4
Y2-S2-021M22,5,436,PS,exp,29,↑,up,↑,0.6827540001831949,True,19,-1,0,4
Y2-S2-021M22,5,437,PS,exp,28,→,right,→,0.7488626998383552,True,19,1,1,5
Y2-S2-021M22,5,438,PS,exp,40,↑,up,↑,0.558932000072673,True,18,1,0,5
Y2-S2-021M22,5,439,PS,exp,47,↓,down,↓,0.9361244000028819,True,18,1,0,5
Y2-S2-021M22,5,440,PS,exp,29,→,left,←,1.0674610999412835,False,18,-1,1,6
Y2-S2-021M22,5,441,PS,exp,46,↓,down,↓,0.544135799864307,True,19,-1,0,6
Y2-S2-021M22,5,442,PS,exp,45,→,right,→,0.6282720998860896,True,19,-1,0,6
Y2-S2-021M22,5,443,PS,exp,26,↓,down,↓,0.5636072000488639,True,19,1,1,7
Y2-S2-021M22,5,444,PS,exp,37,→,right,→,0.4845422001089901,True,18,1,0,7
Y2-S2-021M22,5,445,PS,exp,36,←,left,←,0.5616580999922007,True,18,1,0,7
Y2-S2-021M22,5,446,PS,exp,49,↑,up,↑,0.9402224000077695,True,18,1,0,7
Y2-S2-021M22,5,447,PS,exp,28,↓,down,↓,1.0457353999372572,True,17,1,0,7
Y2-S2-021M22,5,448,PS,exp,29,→,right,→,1.331137599889189,True,17,1,0,7
Y2-S2-021M22,5,449,PS,exp,47,←,left,←,0.8161369999870658,True,17,1,0,7
Y2-S2-021M22,5,450,PS,exp,25,↓,down,↓,1.0104294000193477,True,16,1,0,7
Y2-S2-021M22,5,451,PS,exp,27,↑,up,↑,1.0266068000346422,True,16,1,0,7
Y2-S2-021M22,5,452,PS,exp,43,←,left,←,1.1165438999887556,True,16,1,0,7
Y2-S2-021M22,5,453,PS,exp,25,↑,left,←,1.254602100001648,False,15,-1,1,8
Y2-S2-021M22,5,454,PS,exp,26,→,right,→,0.4781866001430899,True,16,-1,0,8
Y2-S2-021M22,5,455,PS,exp,31,↓,up,↑,0.9309751000255346,False,16,-1,0,8
Y2-S2-021M22,5,456,PS,exp,42,↑,up,↑,0.5612554999534041,True,17,-1,0,8
Y2-S2-021M22,5,457,PS,exp,36,↓,up,↑,0.5014260001480579,False,17,-1,0,8
Y2-S2-021M22,5,458,PS,exp,31,→,right,→,0.6384342999663204,True,18,-1,0,8
Y2-S2-021M22,5,459,PS,exp,27,↑,left,←,0.7090153000317514,False,18,-1,0,8
Y2-S2-021M22,5,460,PS,exp,47,←,left,←,1.1600387999787927,True,19,-1,0,8
Y2-S2-021M22,5,461,PS,exp,42,↑,up,↑,0.8158770001027733,True,19,-1,0,8
Y2-S2-021M22,5,462,PS,exp,45,↓,left,←,0.8580042000394315,False,19,-1,0,8
Y2-S2-021M22,5,463,PS,exp,39,→,right,→,0.5590248999651521,True,20,-1,0,8
Y2-S2-021M22,5,464,PS,exp,29,↑,left,←,0.9763712999410927,False,20,-1,0,8
Y2-S2-021M22,5,465,PS,exp,32,→,left,←,1.1840224999468774,False,21,-1,0,8
Y2-S2-021M22,5,466,PS,exp,38,↑,up,↑,0.48384759994223714,True,22,-1,0,8
Y2-S2-021M22,5,467,PS,exp,39,→,right,→,0.6059938999824226,True,22,-1,0,8
Y2-S2-021M22,5,468,PS,exp,48,←,left,←,0.8033797000534832,True,22,1,1,9
Y2-S2-021M22,5,469,PS,exp,32,↓,up,↑,0.5735736999195069,False,21,-1,1,10
Y2-S2-021M22,5,470,PS,exp,50,←,left,←,0.6494773998856544,True,22,-1,0,10
Y2-S2-021M22,5,471,PS,exp,30,→,right,→,0.48356360010802746,True,22,-1,0,10
Y2-S2-021M22,5,472,PS,exp,43,↓,down,↓,1.4952230001799762,True,22,1,1,11
Y2-S2-021M22,5,473,PS,exp,37,→,right,→,0.6296580000780523,True,21,1,0,11
Y2-S2-021M22,5,474,PS,exp,41,↑,up,↑,0.69606429990381,True,21,1,0,11
Y2-S2-021M22,5,475,PS,exp,38,←,left,←,0.6818398998584598,True,21,1,0,11
Y2-S2-021M22,5,476,PS,exp,39,↑,right,→,1.3812610001768917,False,20,-1,1,12
Y2-S2-021M22,5,477,PS,exp,37,←,left,←,0.433950699865818,True,21,-1,0,12
Y2-S2-021M22,5,478,PS,exp,45,→,right,→,0.4511367999948561,True,21,-1,0,12
Y2-S2-021M22,5,479,PS,exp,44,↑,up,↑,1.218770300038159,True,21,1,1,13
Y2-S2-021M22,5,480,PS,exp,33,↓,down,↓,0.7416634000837803,True,20,1,0,13
Y2-S2-021M22,5,481,PS,exp,25,←,left,←,0.7261667000129819,True,20,1,0,13
Y2-S2-021M22,5,482,PS,exp,47,↑,up,↑,0.7700689001940191,True,20,1,0,13
Y2-S2-021M22,5,483,PS,exp,26,→,right,→,0.5424591000191867,True,19,1,0,13
Y2-S2-021M22,5,484,PS,exp,34,←,left,←,0.40112679987214506,True,19,1,0,13
Y2-S2-021M22,5,485,PS,exp,28,→,right,→,0.540989900007844,True,19,1,0,13
Y2-S2-021M22,5,486,PS,exp,39,←,left,←,0.5581977998372167,True,18,1,0,13
Y2-S2-021M22,5,487,PS,exp,42,↑,up,↑,0.7196045001037419,True,18,1,0,13
Y2-S2-021M22,5,488,PS,exp,29,←,left,←,0.474267799872905,True,18,1,0,13
Y2-S2-021M22,5,489,PS,exp,39,↓,down,↓,0.6770983000751585,True,17,1,0,13
Y2-S2-021M22,5,490,PS,exp,28,↑,up,↑,0.549063199898228,True,17,1,0,13
Y2-S2-021M22,5,491,PS,exp,38,↓,down,↓,0.7062675999477506,True,17,1,0,13
Y2-S2-021M22,5,492,PS,exp,36,↑,up,↑,0.5526757999323308,True,16,1,0,13
Y2-S2-021M22,5,493,PS,exp,37,←,left,←,0.43882540008053184,True,16,1,0,13
Y2-S2-021M22,5,494,PS,exp,40,→,right,→,0.501044400036335,True,16,1,0,13
Y2-S2-021M22,5,495,PS,exp,48,↑,up,↑,0.5149303998332471,True,15,1,0,13
Y2-S2-021M22,5,496,PS,exp,44,→,right,→,0.4884535002056509,True,15,1,0,13
Y2-S2-021M22,5,497,PS,exp,45,↑,no_key,no_letter,-1.0,False,15,-1,1,14
Y2-S2-021M22,5,498,PS,exp,30,←,left,←,0.5115533000789583,True,16,-1,0,14
Y2-S2-021M22,5,499,PS,exp,42,↓,down,↓,0.8362698999699205,True,16,-1,0,14
Y2-S2-021M22,5,500,PS,exp,38,→,left,←,1.130060400115326,False,16,-1,0,14
Y2-S2-021M22,5,501,PS,exp,34,↑,up,↑,0.526823100168258,True,17,-1,0,14
Y2-S2-021M22,5,502,PS,exp,35,→,right,→,0.5839146000798792,True,17,-1,0,14
Y2-S2-021M22,5,503,PS,exp,33,↑,up,↑,0.685902199940756,True,17,1,1,15
Y2-S2-021M22,5,504,PS,exp,43,←,left,←,0.4781252001412213,True,16,1,0,15
Y2-S2-021M22,5,505,PS,exp,25,↑,up,↑,0.615371200023219,True,16,1,0,15
Y2-S2-021M22,5,506,PS,exp,50,↓,right,→,0.7802838999778032,False,16,-1,1,16
Y2-S2-021M22,6,507,AS,intra_train,36,→,right,→,1.0068610000889748,True,28,-,-,-
Y2-S2-021M22,6,508,AS,intra_train,47,↓,right,→,1.2125772999133915,False,28,-,-,-
Y2-S2-021M22,6,509,AS,intra_train,37,←,left,←,0.8435849000234157,True,28,-,-,-
Y2-S2-021M22,6,510,AS,intra_train,25,→,right,→,0.7087363000027835,True,28,-,-,-
Y2-S2-021M22,6,511,AS,intra_train,29,↓,down,↓,0.96909169992432,True,28,-,-,-
Y2-S2-021M22,6,512,AS,exp,43,↑,up,↑,1.0831867998931557,True,19,0,0,0
Y2-S2-021M22,6,513,AS,exp,29,↓,down,↓,0.8679386000148952,True,19,0,0,0
Y2-S2-021M22,6,514,AS,exp,29,↑,up,↑,0.677198400022462,True,19,1,0,0
Y2-S2-021M22,6,515,AS,exp,36,→,right,→,0.8872937001287937,True,18,1,0,0
Y2-S2-021M22,6,516,AS,exp,25,↑,up,↑,0.49632930010557175,True,18,1,0,0
Y2-S2-021M22,6,517,AS,exp,32,↓,down,↓,0.5073776999488473,True,18,1,0,0
Y2-S2-021M22,6,518,AS,exp,48,↑,up,↑,1.5830234999302775,True,17,1,0,0
Y2-S2-021M22,6,519,AS,exp,42,←,left,←,0.8287444999441504,True,17,1,0,0
Y2-S2-021M22,6,520,AS,exp,39,→,right,→,0.5265324001666158,True,17,1,0,0
Y2-S2-021M22,6,521,AS,exp,42,↓,up,↑,0.8563282999675721,False,16,-1,1,1
Y2-S2-021M22,6,522,AS,exp,43,←,left,←,0.8184803000185639,True,17,-1,0,1
Y2-S2-021M22,6,523,AS,exp,28,↓,down,↓,0.7322939001023769,True,17,-1,0,1
Y2-S2-021M22,6,524,AS,exp,28,→,left,←,0.7456992000807077,False,17,-1,0,1
Y2-S2-021M22,6,525,AS,exp,36,↑,up,↑,0.5227184998802841,True,18,-1,0,1
Y2-S2-021M22,6,526,AS,exp,31,↓,up,↑,0.9288499997928739,False,18,-1,0,1
Y2-S2-021M22,6,527,AS,exp,49,→,up,↑,0.9712296999059618,False,19,-1,0,1
Y2-S2-021M22,6,528,AS,exp,32,←,left,←,0.7111084000207484,True,20,-1,0,1
Y2-S2-021M22,6,529,AS,exp,49,↑,up,↑,0.4671392000745982,True,20,-1,0,1
Y2-S2-021M22,6,530,AS,exp,49,↓,right,→,1.504295599879697,False,20,-1,0,1
Y2-S2-021M22,6,531,AS,exp,34,←,left,←,0.46730090002529323,True,21,-1,0,1
Y2-S2-021M22,6,532,AS,exp,30,↑,up,↑,0.5317134000360966,True,21,-1,0,1
Y2-S2-021M22,6,533,AS,exp,28,↓,up,↑,1.146134400041774,False,21,-1,0,1
Y2-S2-021M22,6,534,AS,exp,29,→,right,→,0.7832536001224071,True,22,-1,0,1
Y2-S2-021M22,6,535,AS,exp,40,←,left,←,0.48378050001338124,True,22,-1,0,1
Y2-S2-021M22,6,536,AS,exp,26,→,right,→,0.9455710002221167,True,22,1,1,2
Y2-S2-021M22,6,537,AS,exp,38,↓,down,↓,0.8129142001271248,True,21,1,0,2
Y2-S2-021M22,6,538,AS,exp,47,→,up,↑,1.390552300028503,False,21,-1,1,3
Y2-S2-021M22,6,539,AS,exp,27,↓,down,↓,0.560435299994424,True,22,-1,0,3
Y2-S2-021M22,6,540,AS,exp,36,→,left,←,1.1847568000666797,False,22,-1,0,3
Y2-S2-021M22,6,541,AS,exp,43,←,left,←,0.6141478999052197,True,23,-1,0,3
Y2-S2-021M22,6,542,AS,exp,46,↑,up,↑,0.8172816999722272,True,23,-1,0,3
Y2-S2-021M22,6,543,AS,exp,41,→,down,↓,1.5660864000674337,False,23,-1,0,3
Y2-S2-021M22,6,544,AS,exp,34,↑,up,↑,1.4160184999927878,True,24,-1,0,3
Y2-S2-021M22,6,545,AS,exp,46,←,left,←,0.8286751001141965,True,24,-1,0,3
Y2-S2-021M22,6,546,AS,exp,47,↓,down,↓,0.784347599837929,True,24,1,1,4
Y2-S2-021M22,6,547,AS,exp,45,↑,up,↑,0.8341588000766933,True,23,1,0,4
Y2-S2-021M22,6,548,AS,exp,38,←,left,←,1.0739017999731004,True,23,1,0,4
Y2-S2-021M22,6,549,AS,exp,25,↓,down,↓,1.0737010999582708,True,23,1,0,4
Y2-S2-021M22,6,550,AS,exp,50,→,right,→,1.2441042000427842,True,22,1,0,4
Y2-S2-021M22,6,551,AS,exp,41,↓,down,↓,1.8966715999413282,True,22,1,0,4
Y2-S2-021M22,6,552,AS,exp,34,↑,up,↑,0.5999495000578463,True,22,1,0,4
Y2-S2-021M22,6,553,AS,exp,32,↓,up,↑,0.9712688000872731,False,21,-1,1,5
Y2-S2-021M22,6,554,AS,exp,37,↑,up,↑,0.5880734999664128,True,22,-1,0,5
Y2-S2-021M22,6,555,AS,exp,32,←,left,←,1.776023899903521,True,22,-1,0,5
Y2-S2-021M22,6,556,AS,exp,48,↓,right,→,1.2420061000157148,False,22,-1,0,5
Y2-S2-021M22,6,557,AS,exp,25,→,up,↑,1.263956299982965,False,23,-1,0,5
Y2-S2-021M22,6,558,AS,exp,30,←,left,←,0.8793850999791175,True,24,-1,0,5
Y2-S2-021M22,6,559,AS,exp,28,↓,down,↓,0.9436004001181573,True,24,-1,0,5
Y2-S2-021M22,6,560,AS,exp,49,↑,up,↑,0.9672445999458432,True,24,1,1,6
Y2-S2-021M22,6,561,AS,exp,41,↓,down,↓,0.8136810001451522,True,23,1,0,6
Y2-S2-021M22,6,562,AS,exp,36,↑,up,↑,0.8579013999551535,True,23,1,0,6
Y2-S2-021M22,6,563,AS,exp,29,←,left,←,1.0879848999902606,True,23,1,0,6
Y2-S2-021M22,6,564,AS,exp,40,↑,up,↑,0.8365048998966813,True,22,1,0,6
Y2-S2-021M22,6,565,AS,exp,41,←,left,←,0.9447033999022096,True,22,1,0,6
Y2-S2-021M22,6,566,AS,exp,42,↑,up,↑,0.6522243998479098,True,22,1,0,6
Y2-S2-021M22,6,567,AS,exp,31,←,left,←,0.5915486000012606,True,21,1,0,6
Y2-S2-021M22,6,568,AS,exp,29,↓,down,↓,0.5952703000511974,True,21,1,0,6
Y2-S2-021M22,6,569,AS,exp,30,→,down,↓,0.8039214999880642,False,21,-1,1,7
Y2-S2-021M22,6,570,AS,exp,26,←,left,←,0.8714946999680251,True,22,-1,0,7
Y2-S2-021M22,6,571,AS,exp,45,→,right,→,1.370820599840954,True,22,-1,0,7
Y2-S2-021M22,6,572,AS,exp,29,↑,up,↑,0.8705921999644488,True,22,1,1,8
Y2-S2-021M22,6,573,AS,exp,40,↓,down,↓,0.8626713999547064,True,21,1,0,8
Y2-S2-021M22,6,574,AS,exp,38,↑,up,↑,0.5764693999662995,True,21,1,0,8
Y2-S2-021M22,6,575,AS,exp,33,←,left,←,0.7984543000347912,True,21,1,0,8
Y2-S2-021M22,6,576,AS,exp,43,↑,up,↑,0.5291358998510987,True,20,1,0,8
Y2-S2-021M22,6,577,AS,exp,26,↓,down,↓,0.8173975001554936,True,20,1,0,8
Y2-S2-021M22,6,578,AS,exp,29,→,up,↑,1.5292026000097394,False,20,-1,1,9
Y2-S2-021M22,6,579,AS,exp,50,↑,up,↑,0.6214580999221653,True,21,-1,0,9
Y2-S2-021M22,6,580,AS,exp,38,↓,down,↓,0.8715505001600832,True,21,-1,0,9
Y2-S2-021M22,6,581,AS,exp,26,↑,down,↓,0.8405196000821888,False,21,-1,0,9
Y2-S2-021M22,6,582,AS,exp,40,→,right,→,0.8489879001863301,True,22,-1,0,9
Y2-S2-021M22,6,583,AS,exp,37,↑,up,↑,0.8991763999219984,True,22,-1,0,9
Y2-S2-021M22,6,584,AS,exp,28,→,down,↓,1.3598498001229018,False,22,-1,0,9
Y2-S2-021M22,6,585,AS,exp,38,↑,up,↑,0.5841928001027554,True,23,-1,0,9
Y2-S2-021M22,6,586,AS,exp,32,→,right,→,1.3406494001392275,True,23,-1,0,9
Y2-S2-021M22,6,587,AS,exp,37,↑,up,↑,1.3627409001346678,True,23,1,1,10
Y2-S2-021M22,6,588,AS,exp,27,→,right,→,0.9148184000514448,True,22,1,0,10
Y2-S2-021M22,6,589,AS,exp,48,↑,up,↑,0.9060481998603791,True,22,1,0,10
Y2-S2-021M22,6,590,AS,exp,28,←,left,←,0.725748100085184,True,22,1,0,10
Y2-S2-021M22,6,591,AS,exp,34,↓,down,↓,0.82548200013116,True,21,1,0,10
Y2-S2-021M22,6,592,AS,exp,36,↑,up,↑,0.7696034000255167,True,21,1,0,10
Y2-S2-021M22,6,593,AS,exp,43,↓,up,↑,0.6440643998794258,False,21,-1,1,11
Y2-S2-021M22,6,594,AS,exp,48,↑,up,↑,0.7679492000024766,True,22,-1,0,11
Y2-S2-021M22,6,595,AS,exp,33,↓,down,↓,0.7056625001132488,True,22,-1,0,11
Y2-S2-021M22,6,596,AS,exp,26,↑,up,↑,0.7010735999792814,True,22,1,1,12
Y2-S2-021M22,6,597,AS,exp,36,←,left,←,0.8025746999774128,True,21,1,0,12
Y2-S2-021M22,6,598,AS,exp,39,↑,up,↑,0.4340164999011904,True,21,1,0,12
Y2-S2-021M22,6,599,AS,exp,29,←,left,←,0.9020404000766575,True,21,1,0,12
Y2-S2-021M22,6,600,AS,exp,27,↑,up,↑,0.6973623000085354,True,20,1,0,12
Y2-S2-021M22,6,601,AS,exp,29,↓,down,↓,0.515643399907276,True,20,1,0,12
Y2-S2-021M22,6,602,AS,exp,25,↑,up,↑,0.6436027998570353,True,20,1,0,12
Y2-S2-021M22,6,603,AS,exp,36,←,left,←,0.6202881000936031,True,19,1,0,12
Y2-S2-021M22,6,604,AS,exp,34,↑,up,↑,0.6342875000555068,True,19,1,0,12
Y2-S2-021M22,6,605,AS,exp,47,←,right,→,0.6633806000463665,False,19,-1,1,13
Y2-S2-021M22,6,606,AS,exp,37,↓,down,↓,0.9063327999319881,True,20,-1,0,13
Y2-S2-021M22,6,607,AS,exp,44,→,right,→,1.134582499973476,True,20,-1,0,13
Y2-S2-021M22,6,608,AS,exp,49,↓,down,↓,1.1394136999733746,True,20,1,1,14
Y2-S2-021M22,6,609,AS,exp,30,↑,up,↑,0.6605360999237746,True,19,1,0,14
Y2-S2-021M22,6,610,AS,exp,44,←,right,→,1.110453899949789,False,19,-1,1,15
Y2-S2-021M22,6,611,AS,exp,38,→,right,→,0.6360516999848187,True,20,-1,0,15
Y2-S2-021M22,6,612,AS,exp,26,←,left,←,0.6157925999723375,True,20,-1,0,15
Y2-S2-021M22,6,613,AS,exp,47,→,right,→,0.9603527998551726,True,20,1,1,16
Y2-S2-021M22,7,614,AS,intra_train,27,↓,down,↓,0.9904538998380303,True,28,-,-,-
Y2-S2-021M22,7,615,AS,intra_train,35,→,right,→,1.1342505000066012,True,28,-,-,-
Y2-S2-021M22,7,616,AS,intra_train,36,←,left,←,0.6867835000157356,True,28,-,-,-
Y2-S2-021M22,7,617,AS,intra_train,32,→,right,→,0.6452892001252621,True,28,-,-,-
Y2-S2-021M22,7,618,AS,intra_train,36,↓,down,↓,0.842802400002256,True,28,-,-,-
Y2-S2-021M22,7,619,AS,exp,38,←,left,←,0.6046246001496911,True,19,0,0,0
Y2-S2-021M22,7,620,AS,exp,26,↑,up,↑,0.7093773998785764,True,19,0,0,0
Y2-S2-021M22,7,621,AS,exp,36,←,left,←,0.5098135999869555,True,19,1,0,0
Y2-S2-021M22,7,622,AS,exp,45,↑,up,↑,0.6719018998555839,True,18,1,0,0
Y2-S2-021M22,7,623,AS,exp,27,↓,up,↑,0.880361899966374,False,18,-1,1,1
Y2-S2-021M22,7,624,AS,exp,32,←,left,←,0.6939675000030547,True,19,-1,0,1
Y2-S2-021M22,7,625,AS,exp,45,→,right,→,0.6505742000881582,True,19,-1,0,1
Y2-S2-021M22,7,626,AS,exp,31,↓,down,↓,0.8223219001665711,True,19,1,1,2
Y2-S2-021M22,7,627,AS,exp,30,↑,up,↑,1.0030954000540078,True,18,1,0,2
Y2-S2-021M22,7,628,AS,exp,37,→,right,→,1.0222934999037534,True,18,1,0,2
Y2-S2-021M22,7,629,AS,exp,48,←,right,→,0.8065085001289845,False,18,-1,1,3
Y2-S2-021M22,7,630,AS,exp,40,→,right,→,0.615928899962455,True,19,-1,0,3
Y2-S2-021M22,7,631,AS,exp,38,↑,up,↑,0.5788479000329971,True,19,-1,0,3
Y2-S2-021M22,7,632,AS,exp,31,→,right,→,0.6352543998509645,True,19,1,1,4
Y2-S2-021M22,7,633,AS,exp,34,↑,no_key,no_letter,-1.0,False,18,-1,1,5
Y2-S2-021M22,7,634,AS,exp,34,→,right,→,0.7204721998423338,True,19,-1,0,5
Y2-S2-021M22,7,635,AS,exp,41,↓,down,↓,0.7705862999428064,True,19,-1,0,5
Y2-S2-021M22,7,636,AS,exp,50,←,left,←,0.8183183998335153,True,19,1,1,6
Y2-S2-021M22,7,637,AS,exp,50,↓,down,↓,0.8715763997752219,True,18,1,0,6
Y2-S2-021M22,7,638,AS,exp,33,↑,up,↑,0.43415740015916526,True,18,1,0,6
Y2-S2-021M22,7,639,AS,exp,48,→,left,←,0.6810604000929743,False,18,-1,1,7
Y2-S2-021M22,7,640,AS,exp,26,↑,up,↑,0.580098900012672,True,19,-1,0,7
Y2-S2-021M22,7,641,AS,exp,31,←,left,←,0.8252527001313865,True,19,-1,0,7
Y2-S2-021M22,7,642,AS,exp,42,↑,up,↑,0.6142849000170827,True,19,1,1,8
Y2-S2-021M22,7,643,AS,exp,43,→,right,→,0.48346769995987415,True,18,1,0,8
Y2-S2-021M22,7,644,AS,exp,50,↓,no_key,no_letter,-1.0,False,18,-1,1,9
Y2-S2-021M22,7,645,AS,exp,29,↑,up,↑,0.49110670015215874,True,19,-1,0,9
Y2-S2-021M22,7,646,AS,exp,34,↓,down,↓,0.5248443000018597,True,19,-1,0,9
Y2-S2-021M22,7,647,AS,exp,30,←,left,←,0.9035713998600841,True,19,1,1,10
Y2-S2-021M22,7,648,AS,exp,43,↓,down,↓,0.9731775000691414,True,18,1,0,10
Y2-S2-021M22,7,649,AS,exp,39,→,no_key,no_letter,-1.0,False,18,-1,1,11
Y2-S2-021M22,7,650,AS,exp,43,←,left,←,0.6399620000738651,True,19,-1,0,11
Y2-S2-021M22,7,651,AS,exp,49,↑,up,↑,0.6224215000402182,True,19,-1,0,11
Y2-S2-021M22,7,652,AS,exp,43,→,right,→,0.5700153999496251,True,19,1,1,12
Y2-S2-021M22,7,653,AS,exp,48,↑,up,↑,0.4340671000536531,True,18,1,0,12
Y2-S2-021M22,7,654,AS,exp,46,→,left,←,0.7877610002178699,False,18,-1,1,13
Y2-S2-021M22,7,655,AS,exp,31,↑,left,←,0.6129679000005126,False,19,-1,0,13
Y2-S2-021M22,7,656,AS,exp,25,→,left,←,0.5721474001184106,False,20,-1,0,13
Y2-S2-021M22,7,657,AS,exp,25,↑,up,↑,0.4842605998273939,True,21,-1,0,13
Y2-S2-021M22,7,658,AS,exp,35,←,left,←,0.46716760005801916,True,21,-1,0,13
Y2-S2-021M22,7,659,AS,exp,42,↑,no_key,no_letter,-1.0,False,21,-1,0,13
Y2-S2-021M22,7,660,AS,exp,32,↓,down,↓,0.8753211000002921,True,22,-1,0,13
Y2-S2-021M22,7,661,AS,exp,30,↑,up,↑,0.7967117000371218,True,22,-1,0,13
Y2-S2-021M22,7,662,AS,exp,45,→,right,→,0.5441829001065344,True,22,1,1,14
Y2-S2-021M22,7,663,AS,exp,37,←,left,←,0.9140518000349402,True,21,1,0,14
Y2-S2-021M22,7,664,AS,exp,47,↓,down,↓,0.9108812001068145,True,21,1,0,14
Y2-S2-021M22,7,665,AS,exp,45,→,left,←,0.9189613999333233,False,21,-1,1,15
Y2-S2-021M22,7,666,AS,exp,41,←,left,←,0.8156731999479234,True,22,-1,0,15
Y2-S2-021M22,7,667,AS,exp,34,↑,up,↑,0.6141255998518318,True,22,-1,0,15
Y2-S2-021M22,7,668,AS,exp,49,↓,down,↓,0.7822543000802398,True,22,1,1,16
Y2-S2-021M22,8,669,PS,intra_train,43,←,left,←,0.7941926999483258,True,16,-,-,-
Y2-S2-021M22,8,670,PS,intra_train,36,→,right,→,0.48933290014974773,True,16,-,-,-
Y2-S2-021M22,8,671,PS,intra_train,40,↓,right,→,1.244713299907744,False,16,-,-,-
Y2-S2-021M22,8,672,PS,intra_train,38,→,right,→,0.7119050000328571,True,16,-,-,-
Y2-S2-021M22,8,673,PS,intra_train,50,↓,down,↓,0.6562999000307173,True,16,-,-,-
Y2-S2-021M22,8,674,PS,exp,25,→,right,→,0.7262939000502229,True,11,0,0,0
Y2-S2-021M22,8,675,PS,exp,41,↑,up,↑,0.46393060008995235,True,11,0,0,0
Y2-S2-021M22,8,676,PS,exp,42,→,right,→,0.48095680004917085,True,11,1,0,0
Y2-S2-021M22,8,677,PS,exp,44,↓,down,↓,0.5823541998397559,True,10,1,0,0
Y2-S2-021M22,8,678,PS,exp,29,→,right,→,0.5412153000943363,True,10,1,0,0
Y2-S2-021M22,8,679,PS,exp,41,↓,left,←,0.6556947999633849,False,10,-1,1,1
Y2-S2-021M22,8,680,PS,exp,39,←,left,←,0.4126782000530511,True,11,-1,0,1
Y2-S2-021M22,8,681,PS,exp,38,↓,down,↓,0.6689269999042153,True,11,-1,0,1
Y2-S2-021M22,8,682,PS,exp,45,↑,left,←,0.943548999959603,False,11,-1,0,1
Y2-S2-021M22,8,683,PS,exp,32,←,left,←,0.42204670002683997,True,12,-1,0,1
Y2-S2-021M22,8,684,PS,exp,37,→,right,→,0.5760977999307215,True,12,-1,0,1
Y2-S2-021M22,8,685,PS,exp,26,←,left,←,0.505911499960348,True,12,1,1,2
Y2-S2-021M22,8,686,PS,exp,43,→,right,→,0.45003690011799335,True,11,1,0,2
Y2-S2-021M22,8,687,PS,exp,43,←,left,←,0.7185452000703663,True,11,1,0,2
Y2-S2-021M22,8,688,PS,exp,31,↑,up,↑,0.4943078998476267,True,11,1,0,2
Y2-S2-021M22,8,689,PS,exp,37,→,left,←,0.6411950001493096,False,10,-1,1,3
Y2-S2-021M22,8,690,PS,exp,44,↓,down,↓,0.6655470998957753,True,11,-1,0,3
Y2-S2-021M22,8,691,PS,exp,30,↑,left,←,0.6132809999398887,False,11,-1,0,3
Y2-S2-021M22,8,692,PS,exp,38,↓,down,↓,0.6354995998553932,True,12,-1,0,3
Y2-S2-021M22,8,693,PS,exp,45,→,right,→,0.6132050000596792,True,12,-1,0,3
Y2-S2-021M22,8,694,PS,exp,28,←,left,←,0.37526130001060665,True,12,1,1,4
Y2-S2-021M22,8,695,PS,exp,30,→,right,→,0.42270629992708564,True,11,1,0,4
Y2-S2-021M22,8,696,PS,exp,28,←,left,←,0.4738861999940127,True,11,1,0,4
Y2-S2-021M22,8,697,PS,exp,37,→,right,→,0.5575287998653948,True,11,1,0,4
Y2-S2-021M22,8,698,PS,exp,44,←,left,←,0.4470019000582397,True,10,1,0,4
Y2-S2-021M22,8,699,PS,exp,37,↓,down,↓,0.8939883999992162,True,10,1,0,4
Y2-S2-021M22,8,700,PS,exp,29,←,left,←,0.7901416998356581,True,10,1,0,4
Y2-S2-021M22,8,701,PS,exp,35,→,left,←,0.6673357000108808,False,9,-1,1,5
Y2-S2-021M22,8,702,PS,exp,44,←,left,←,0.45318129984661937,True,10,-1,0,5
Y2-S2-021M22,8,703,PS,exp,38,→,right,→,0.3978812999557704,True,10,-1,0,5
Y2-S2-021M22,8,704,PS,exp,35,↑,left,←,0.5559404999949038,False,10,-1,0,5
Y2-S2-021M22,8,705,PS,exp,33,↓,left,←,0.7453386001288891,False,11,-1,0,5
Y2-S2-021M22,8,706,PS,exp,41,←,left,←,0.5721517999190837,True,12,-1,0,5
Y2-S2-021M22,8,707,PS,exp,30,↑,left,←,0.7632800000719726,False,12,-1,0,5
Y2-S2-021M22,8,708,PS,exp,47,↓,down,↓,1.0356162001844496,True,13,-1,0,5
Y2-S2-021M22,8,709,PS,exp,29,→,right,→,0.4720862000249326,True,13,-1,0,5
Y2-S2-021M22,8,710,PS,exp,47,←,left,←,0.5922720998059958,True,13,1,1,6
Y2-S2-021M22,8,711,PS,exp,47,↑,up,↑,0.599008799996227,True,12,1,0,6
Y2-S2-021M22,8,712,PS,exp,44,↓,down,↓,0.7380174999125302,True,12,1,0,6
Y2-S2-021M22,8,713,PS,exp,50,←,right,→,1.0161747999954969,False,12,-1,1,7
Y2-S2-021M22,8,714,PS,exp,45,→,right,→,0.5280061999801546,True,13,-1,0,7
Y2-S2-021M22,8,715,PS,exp,44,←,left,←,0.38722360017709434,True,13,-1,0,7
Y2-S2-021M22,8,716,PS,exp,29,↑,up,↑,0.5503867999650538,True,13,1,1,8
Y2-S2-021M22,8,717,PS,exp,40,↓,down,↓,0.5666734001133591,True,12,1,0,8
Y2-S2-021M22,8,718,PS,exp,25,←,left,←,0.60063900006935,True,12,1,0,8
Y2-S2-021M22,8,719,PS,exp,28,→,right,→,0.5984057998284698,True,12,1,0,8
Y2-S2-021M22,8,720,PS,exp,33,↓,down,↓,1.212256700033322,True,11,1,0,8
Y2-S2-021M22,8,721,PS,exp,26,↑,up,↑,0.5912913999054581,True,11,1,0,8
Y2-S2-021M22,8,722,PS,exp,30,←,left,←,0.6219194999430329,True,11,1,0,8
Y2-S2-021M22,8,723,PS,exp,31,↓,down,↓,0.7089886001776904,True,10,1,0,8
Y2-S2-021M22,8,724,PS,exp,27,→,right,→,0.7432772000320256,True,10,1,0,8
Y2-S2-021M22,8,725,PS,exp,48,↑,up,↑,0.5585660999640822,True,10,1,0,8
Y2-S2-021M22,8,726,PS,exp,27,←,up,↑,0.9670564001426101,False,9,-1,1,9
Y2-S2-021M22,8,727,PS,exp,50,→,right,→,0.555256700143218,True,10,-1,0,9
Y2-S2-021M22,8,728,PS,exp,50,↓,right,→,0.8567007998935878,False,10,-1,0,9
Y2-S2-021M22,8,729,PS,exp,46,↑,up,↑,0.6645945999771357,True,11,-1,0,9
Y2-S2-021M22,8,730,PS,exp,31,↓,left,←,1.6417688000947237,False,11,-1,0,9
Y2-S2-021M22,8,731,PS,exp,33,→,right,→,0.5082175999414176,True,12,-1,0,9
Y2-S2-021M22,8,732,PS,exp,45,↓,left,←,0.7719453999307007,False,12,-1,0,9
Y2-S2-021M22,8,733,PS,exp,40,←,left,←,0.40467819990590215,True,13,-1,0,9
Y2-S2-021M22,8,734,PS,exp,31,↓,down,↓,0.7826692999806255,True,13,-1,0,9
Y2-S2-021M22,8,735,PS,exp,44,→,right,→,0.6600011000409722,True,13,1,1,10
Y2-S2-021M22,8,736,PS,exp,45,↑,up,↑,0.592075299937278,True,12,1,0,10
Y2-S2-021M22,8,737,PS,exp,50,←,left,←,0.6981409001164138,True,12,1,0,10
Y2-S2-021M22,8,738,PS,exp,42,→,right,→,0.5049035998526961,True,12,1,0,10
Y2-S2-021M22,8,739,PS,exp,25,↑,left,←,0.7417184999212623,False,11,-1,1,11
Y2-S2-021M22,8,740,PS,exp,27,↓,down,↓,0.6616453998722136,True,12,-1,0,11
Y2-S2-021M22,8,741,PS,exp,44,↑,up,↑,0.43628109991550446,True,12,-1,0,11
Y2-S2-021M22,8,742,PS,exp,36,→,right,→,0.6298338000196964,True,12,1,1,12
Y2-S2-021M22,8,743,PS,exp,38,↑,up,↑,0.46124209999106824,True,11,1,0,12
Y2-S2-021M22,8,744,PS,exp,45,→,right,→,0.45907179987989366,True,11,1,0,12
Y2-S2-021M22,8,745,PS,exp,48,↑,left,←,0.44120520004071295,False,11,-1,1,13
Y2-S2-021M22,8,746,PS,exp,32,→,left,←,0.5835629999637604,False,12,-1,0,13
Y2-S2-021M22,8,747,PS,exp,47,←,left,←,0.4484834000468254,True,13,-1,0,13
Y2-S2-021M22,8,748,PS,exp,39,↑,up,↑,0.6417702999897301,True,13,-1,0,13
Y2-S2-021M22,8,749,PS,exp,34,↓,down,↓,0.8435437998268753,True,13,1,1,14
Y2-S2-021M22,8,750,PS,exp,25,↑,up,↑,0.45371199981309474,True,12,1,0,14
Y2-S2-021M22,8,751,PS,exp,43,↓,down,↓,0.4867945001460612,True,12,1,0,14
Y2-S2-021M22,8,752,PS,exp,27,↑,up,↑,0.41994050005450845,True,12,1,0,14
Y2-S2-021M22,8,753,PS,exp,50,↓,down,↓,0.47747240005992353,True,11,1,0,14
Y2-S2-021M22,8,754,PS,exp,31,→,left,←,0.6437146000098437,False,11,-1,1,15
Y2-S2-021M22,8,755,PS,exp,25,←,left,←,0.48637489997781813,True,12,-1,0,15
Y2-S2-021M22,8,756,PS,exp,40,→,right,→,0.4895333999302238,True,12,-1,0,15
Y2-S2-021M22,8,757,PS,exp,30,↓,left,←,0.8212621998973191,False,12,-1,0,15
Y2-S2-021M22,8,758,PS,exp,43,←,left,←,0.4237816999666393,True,13,-1,0,15
Y2-S2-021M22,8,759,PS,exp,41,→,right,→,0.47851869999431074,True,13,-1,0,15
Y2-S2-021M22,8,760,PS,exp,41,↓,down,↓,0.8772472999989986,True,13,1,1,16
