PART_ID,Block_no,Trial_no,Block_type,Trial_type,CSI,Stim_letter,Key_pressed,letter_choose,Rt,Corr,Stimulus Time,Level,Reversal,Revs_count
Y2-S2-015K27,1,1,PS,train,43,↑,down,↓,1.5301600999664515,False,30,-,-,-
Y2-S2-015K27,1,2,PS,train,33,→,right,→,0.9728773001115769,True,30,-,-,-
Y2-S2-015K27,1,3,PS,train,43,↓,down,↓,1.127089999965392,True,30,-,-,-
Y2-S2-015K27,1,4,PS,train,48,↑,up,↑,1.4341456999536604,True,30,-,-,-
Y2-S2-015K27,1,5,PS,train,38,→,right,→,0.8514664000831544,True,30,-,-,-
Y2-S2-015K27,1,6,PS,train,32,↓,down,↓,0.9403585999971256,True,30,-,-,-
Y2-S2-015K27,1,7,PS,train,37,→,right,→,0.8963127000024542,True,30,-,-,-
Y2-S2-015K27,1,8,PS,train,26,↓,down,↓,1.1675437000812963,True,30,-,-,-
Y2-S2-015K27,1,9,PS,train,48,←,left,←,1.6817371000070125,True,30,-,-,-
Y2-S2-015K27,1,10,PS,train,42,→,right,→,1.3214271999895573,True,30,-,-,-
Y2-S2-015K27,2,11,AS,train,25,↓,down,↓,1.1149112000130117,True,45,-,-,-
Y2-S2-015K27,2,12,AS,train,50,→,no_key,no_letter,-1.0,False,45,-,-,-
Y2-S2-015K27,2,13,AS,train,37,↓,down,↓,0.8670600999612361,True,45,-,-,-
Y2-S2-015K27,2,14,AS,train,50,→,right,→,0.8341826000250876,True,45,-,-,-
Y2-S2-015K27,2,15,AS,train,25,↓,down,↓,1.4756111999740824,True,45,-,-,-
Y2-S2-015K27,2,16,AS,train,39,←,left,←,1.4901757999323308,True,45,-,-,-
Y2-S2-015K27,2,17,AS,train,30,↓,down,↓,1.0288368999026716,True,45,-,-,-
Y2-S2-015K27,2,18,AS,train,32,↑,up,↑,1.631396499928087,True,45,-,-,-
Y2-S2-015K27,2,19,AS,train,41,↓,down,↓,0.9365665999939665,True,45,-,-,-
Y2-S2-015K27,2,20,AS,train,42,↑,up,↑,1.2148280000546947,True,45,-,-,-
Y2-S2-015K27,-,21,PS,adaptive,28,←,left,←,0.848063200013712,True,10,0,0,0
Y2-S2-015K27,-,22,PS,adaptive,49,↑,up,↑,0.9057959999190643,True,10,0,0,0
Y2-S2-015K27,-,23,PS,adaptive,43,←,down,↓,1.236904799938202,False,10,-1,0,0
Y2-S2-015K27,-,24,PS,adaptive,27,↓,down,↓,0.9444998999824747,True,11,-1,0,0
Y2-S2-015K27,-,25,PS,adaptive,43,→,right,→,0.8754761000163853,True,11,-1,0,0
Y2-S2-015K27,-,26,PS,adaptive,41,↓,down,↓,0.9095899999374524,True,11,1,1,1
Y2-S2-015K27,-,27,PS,adaptive,29,→,right,→,0.7522757000988349,True,10,1,0,1
Y2-S2-015K27,-,28,PS,adaptive,46,←,left,←,1.3359702000161633,True,10,1,0,1
Y2-S2-015K27,-,29,PS,adaptive,27,↑,down,↓,1.2235062000108883,False,10,-1,1,2
Y2-S2-015K27,-,30,PS,adaptive,43,←,left,←,0.8381395998876542,True,11,-1,0,2
Y2-S2-015K27,-,31,PS,adaptive,41,↓,right,→,1.1873218000400811,False,11,-1,0,2
Y2-S2-015K27,-,32,PS,adaptive,36,↑,up,↑,0.940104000037536,True,12,-1,0,2
Y2-S2-015K27,-,33,PS,adaptive,40,↓,right,→,1.182632299955003,False,12,-1,0,2
Y2-S2-015K27,-,34,PS,adaptive,39,↑,up,↑,0.8466152999317273,True,13,-1,0,2
Y2-S2-015K27,-,35,PS,adaptive,48,→,right,→,0.775186000042595,True,13,-1,0,2
Y2-S2-015K27,-,36,PS,adaptive,33,↑,up,↑,1.6850816999794915,True,13,1,1,3
Y2-S2-015K27,-,37,PS,adaptive,41,→,right,→,0.8981022000079975,True,12,1,0,3
Y2-S2-015K27,-,38,PS,adaptive,34,←,left,←,0.9006564000155777,True,12,1,0,3
Y2-S2-015K27,-,39,PS,adaptive,36,↓,down,↓,1.140755399945192,True,12,1,0,3
Y2-S2-015K27,-,40,PS,adaptive,26,↑,left,←,0.9676654000068083,False,11,-1,1,4
Y2-S2-015K27,-,41,AS,adaptive,27,→,right,→,0.8423483000369743,True,20,0,0,0
Y2-S2-015K27,-,42,AS,adaptive,43,↑,up,↑,0.7963050999678671,True,20,0,0,0
Y2-S2-015K27,-,43,AS,adaptive,48,→,right,→,1.1506270000245422,True,20,1,0,0
Y2-S2-015K27,-,44,AS,adaptive,46,↑,left,←,1.5430106000276282,False,19,-1,1,1
Y2-S2-015K27,-,45,AS,adaptive,38,←,no_key,no_letter,-1.0,False,20,-1,0,1
Y2-S2-015K27,-,46,AS,adaptive,35,↑,up,↑,0.9888526001013815,True,21,-1,0,1
Y2-S2-015K27,-,47,AS,adaptive,50,→,left,←,1.0953162000514567,False,21,-1,0,1
Y2-S2-015K27,-,48,AS,adaptive,48,↑,up,↑,0.7816052999114618,True,22,-1,0,1
Y2-S2-015K27,-,49,AS,adaptive,33,←,down,↓,1.6990951000479981,False,22,-1,0,1
Y2-S2-015K27,-,50,AS,adaptive,31,↑,up,↑,0.9181227999506518,True,23,-1,0,1
Y2-S2-015K27,-,51,AS,adaptive,43,←,left,←,1.1633438999997452,True,23,-1,0,1
Y2-S2-015K27,-,52,AS,adaptive,29,↓,up,↑,1.2329800999723375,False,23,-1,0,1
Y2-S2-015K27,-,53,AS,adaptive,33,→,right,→,0.7985921000363305,True,24,-1,0,1
Y2-S2-015K27,-,54,AS,adaptive,49,↓,down,↓,1.3318261000094935,True,24,-1,0,1
Y2-S2-015K27,-,55,AS,adaptive,33,→,left,←,0.9647718999767676,False,24,-1,0,1
Y2-S2-015K27,-,56,AS,adaptive,43,←,left,←,1.0133611999917775,True,25,-1,0,1
Y2-S2-015K27,-,57,AS,adaptive,27,→,right,→,0.8883381999330595,True,25,-1,0,1
Y2-S2-015K27,-,58,AS,adaptive,43,←,left,←,0.8045503000030294,True,25,1,1,2
Y2-S2-015K27,-,59,AS,adaptive,29,↓,down,↓,0.894833100028336,True,24,1,0,2
Y2-S2-015K27,-,60,AS,adaptive,40,←,left,←,0.667232499923557,True,24,1,0,2
Y2-S2-015K27,-,61,AS,adaptive,25,↓,left,←,1.3120276998961344,False,24,-1,1,3
Y2-S2-015K27,-,62,AS,adaptive,27,↑,down,↓,1.0339647999498993,False,25,-1,0,3
Y2-S2-015K27,-,63,AS,adaptive,38,→,right,→,1.3614386999979615,True,26,-1,0,3
Y2-S2-015K27,-,64,AS,adaptive,40,←,left,←,0.9286244999384508,True,26,-1,0,3
Y2-S2-015K27,-,65,AS,adaptive,39,↑,up,↑,1.6504106000065804,True,26,1,1,4
Y2-S2-015K27,1,66,AS,intra_train,42,↓,down,↓,1.2239172999979928,True,37,-,-,-
Y2-S2-015K27,1,67,AS,intra_train,28,↑,up,↑,2.0017198000568897,True,37,-,-,-
Y2-S2-015K27,1,68,AS,intra_train,39,→,right,→,0.9023212000029162,True,37,-,-,-
Y2-S2-015K27,1,69,AS,intra_train,43,↓,down,↓,0.8394559000153095,True,37,-,-,-
Y2-S2-015K27,1,70,AS,intra_train,43,←,left,←,1.1902560000307858,True,37,-,-,-
Y2-S2-015K27,1,71,AS,exp,33,↑,up,↑,0.9456816000165418,True,25,0,0,0
Y2-S2-015K27,1,72,AS,exp,32,↓,down,↓,1.1666147999931127,True,25,0,0,0
Y2-S2-015K27,1,73,AS,exp,28,←,right,→,0.6319554999936372,False,25,-1,0,0
Y2-S2-015K27,1,74,AS,exp,32,↓,down,↓,0.9908853999804705,True,26,-1,0,0
Y2-S2-015K27,1,75,AS,exp,29,←,left,←,1.575060399947688,True,26,-1,0,0
Y2-S2-015K27,1,76,AS,exp,35,↓,down,↓,0.9095299999462441,True,26,1,1,1
Y2-S2-015K27,1,77,AS,exp,30,←,left,←,0.9931259999284521,True,25,1,0,1
Y2-S2-015K27,1,78,AS,exp,42,↓,down,↓,1.1218226000200957,True,25,1,0,1
Y2-S2-015K27,1,79,AS,exp,45,↑,up,↑,1.3016847999533638,True,25,1,0,1
Y2-S2-015K27,1,80,AS,exp,41,→,right,→,0.92764290003106,True,24,1,0,1
Y2-S2-015K27,1,81,AS,exp,37,↑,up,↑,0.7958304999629036,True,24,1,0,1
Y2-S2-015K27,1,82,AS,exp,40,←,left,←,0.9824715000577271,True,24,1,0,1
Y2-S2-015K27,1,83,AS,exp,49,↓,down,↓,0.9741108999587595,True,23,1,0,1
Y2-S2-015K27,1,84,AS,exp,40,←,left,←,0.7211941999848932,True,23,1,0,1
Y2-S2-015K27,1,85,AS,exp,42,→,right,→,0.8044239999726415,True,23,1,0,1
Y2-S2-015K27,1,86,AS,exp,44,↑,down,↓,1.1429861000506207,False,22,-1,1,2
Y2-S2-015K27,1,87,AS,exp,49,→,left,←,0.902393399970606,False,23,-1,0,2
Y2-S2-015K27,1,88,AS,exp,34,↑,down,↓,0.9963358000386506,False,24,-1,0,2
Y2-S2-015K27,1,89,AS,exp,37,↓,down,↓,0.8420637000817806,True,25,-1,0,2
Y2-S2-015K27,1,90,AS,exp,47,↑,up,↑,0.911266400013119,True,25,-1,0,2
Y2-S2-015K27,1,91,AS,exp,37,↓,down,↓,0.9566628999309614,True,25,1,1,3
Y2-S2-015K27,1,92,AS,exp,29,←,left,←,0.6105083000147715,True,24,1,0,3
Y2-S2-015K27,1,93,AS,exp,50,↓,down,↓,1.2576060000574216,True,24,1,0,3
Y2-S2-015K27,1,94,AS,exp,32,←,left,←,0.7132326000137255,True,24,1,0,3
Y2-S2-015K27,1,95,AS,exp,34,↑,down,↓,0.7755431000841781,False,23,-1,1,4
Y2-S2-015K27,1,96,AS,exp,37,←,left,←,0.941666700062342,True,24,-1,0,4
Y2-S2-015K27,1,97,AS,exp,27,↑,up,↑,1.6649478999897838,True,24,-1,0,4
Y2-S2-015K27,1,98,AS,exp,50,→,right,→,0.7552318000234663,True,24,1,1,5
Y2-S2-015K27,1,99,AS,exp,30,↑,up,↑,1.2915661999722943,True,23,1,0,5
Y2-S2-015K27,1,100,AS,exp,38,←,left,←,0.6446148999966681,True,23,1,0,5
Y2-S2-015K27,1,101,AS,exp,39,→,right,→,0.9187501000706106,True,23,1,0,5
Y2-S2-015K27,1,102,AS,exp,39,↑,right,→,1.1009220000123605,False,22,-1,1,6
Y2-S2-015K27,1,103,AS,exp,43,←,right,→,1.8114575000945479,False,23,-1,0,6
Y2-S2-015K27,1,104,AS,exp,50,↓,down,↓,1.0786754000000656,True,24,-1,0,6
Y2-S2-015K27,1,105,AS,exp,35,↑,up,↑,0.8814207999967039,True,24,-1,0,6
Y2-S2-015K27,1,106,AS,exp,31,→,right,→,0.9439319999655709,True,24,1,1,7
Y2-S2-015K27,1,107,AS,exp,27,←,left,←,0.8922804000321776,True,23,1,0,7
Y2-S2-015K27,1,108,AS,exp,50,→,right,→,0.7686875000363216,True,23,1,0,7
Y2-S2-015K27,1,109,AS,exp,42,←,left,←,0.6997876000823453,True,23,1,0,7
Y2-S2-015K27,1,110,AS,exp,31,→,right,→,0.6319896000204608,True,22,1,0,7
Y2-S2-015K27,1,111,AS,exp,34,↑,up,↑,0.9211507000727579,True,22,1,0,7
Y2-S2-015K27,1,112,AS,exp,38,→,left,←,1.002885999972932,False,22,-1,1,8
Y2-S2-015K27,1,113,AS,exp,26,←,no_key,no_letter,-1.0,False,23,-1,0,8
Y2-S2-015K27,1,114,AS,exp,41,→,right,→,0.6218015999766067,True,24,-1,0,8
Y2-S2-015K27,1,115,AS,exp,34,←,left,←,0.8521802000468597,True,24,-1,0,8
Y2-S2-015K27,1,116,AS,exp,31,↓,down,↓,1.2040973999537528,True,24,1,1,9
Y2-S2-015K27,1,117,AS,exp,33,←,left,←,0.7607302999822423,True,23,1,0,9
Y2-S2-015K27,1,118,AS,exp,34,→,left,←,0.7827631999971345,False,23,-1,1,10
Y2-S2-015K27,1,119,AS,exp,28,←,left,←,0.8308471000054851,True,24,-1,0,10
Y2-S2-015K27,1,120,AS,exp,37,→,right,→,1.1691778000677004,True,24,-1,0,10
Y2-S2-015K27,1,121,AS,exp,33,↓,no_key,no_letter,-1.0,False,24,-1,0,10
Y2-S2-015K27,1,122,AS,exp,42,↑,up,↑,0.8160015000030398,True,25,-1,0,10
Y2-S2-015K27,1,123,AS,exp,29,↓,down,↓,1.0435898000141606,True,25,-1,0,10
Y2-S2-015K27,1,124,AS,exp,39,←,right,→,0.9257601000135764,False,25,-1,0,10
Y2-S2-015K27,1,125,AS,exp,26,↓,right,→,2.011104500037618,False,26,-1,0,10
Y2-S2-015K27,1,126,AS,exp,42,←,no_key,no_letter,-1.0,False,27,-1,0,10
Y2-S2-015K27,1,127,AS,exp,29,↑,up,↑,0.9567726000677794,True,28,-1,0,10
Y2-S2-015K27,1,128,AS,exp,29,↓,down,↓,1.0254039999563247,True,28,-1,0,10
Y2-S2-015K27,1,129,AS,exp,41,↑,no_key,no_letter,-1.0,False,28,-1,0,10
Y2-S2-015K27,1,130,AS,exp,32,→,left,←,1.1586826000129804,False,29,-1,0,10
Y2-S2-015K27,1,131,AS,exp,36,↓,down,↓,1.0566774000180885,True,30,-1,0,10
Y2-S2-015K27,1,132,AS,exp,35,→,right,→,1.0400757999159396,True,30,-1,0,10
Y2-S2-015K27,1,133,AS,exp,40,↓,down,↓,0.9199588999617845,True,30,1,1,11
Y2-S2-015K27,1,134,AS,exp,30,→,right,→,0.9834885000018403,True,29,1,0,11
Y2-S2-015K27,1,135,AS,exp,30,←,right,→,0.9337135999230668,False,29,-1,1,12
Y2-S2-015K27,1,136,AS,exp,46,↓,down,↓,0.9466421999968588,True,30,-1,0,12
Y2-S2-015K27,1,137,AS,exp,25,↑,up,↑,1.0397907999577,True,30,-1,0,12
Y2-S2-015K27,1,138,AS,exp,29,↓,down,↓,1.1572669999441132,True,30,1,1,13
Y2-S2-015K27,1,139,AS,exp,36,←,left,←,0.9247206000145525,True,29,1,0,13
Y2-S2-015K27,1,140,AS,exp,27,→,right,→,0.852895800024271,True,29,1,0,13
Y2-S2-015K27,1,141,AS,exp,39,↓,up,↑,1.702275599935092,False,29,-1,1,14
Y2-S2-015K27,1,142,AS,exp,49,↑,up,↑,1.7873346999986097,True,30,-1,0,14
Y2-S2-015K27,1,143,AS,exp,40,↓,down,↓,0.762405600049533,True,30,-1,0,14
Y2-S2-015K27,1,144,AS,exp,42,→,right,→,2.1315101000946015,True,30,1,1,15
Y2-S2-015K27,1,145,AS,exp,45,↓,down,↓,1.711701299995184,True,29,1,0,15
Y2-S2-015K27,1,146,AS,exp,40,↑,up,↑,1.0539792999625206,True,29,1,0,15
Y2-S2-015K27,1,147,AS,exp,39,↓,down,↓,0.9542327999370173,True,29,1,0,15
Y2-S2-015K27,1,148,AS,exp,38,→,right,→,0.9632398999528959,True,28,1,0,15
Y2-S2-015K27,1,149,AS,exp,28,↑,up,↑,1.001344699994661,True,28,1,0,15
Y2-S2-015K27,1,150,AS,exp,43,←,right,→,1.0667764999670908,False,28,-1,1,16
Y2-S2-015K27,2,151,PS,intra_train,26,↓,no_key,no_letter,-1.0,False,18,-,-,-
Y2-S2-015K27,2,152,PS,intra_train,35,←,left,←,0.9531044999603182,True,18,-,-,-
Y2-S2-015K27,2,153,PS,intra_train,32,→,left,←,1.191233400022611,False,18,-,-,-
Y2-S2-015K27,2,154,PS,intra_train,43,←,left,←,0.7215506000211462,True,18,-,-,-
Y2-S2-015K27,2,155,PS,intra_train,45,↑,up,↑,1.0543887000530958,True,18,-,-,-
Y2-S2-015K27,2,156,PS,exp,27,←,left,←,0.6542139000957832,True,12,0,0,0
Y2-S2-015K27,2,157,PS,exp,33,→,left,←,1.158648999989964,False,12,-1,0,0
Y2-S2-015K27,2,158,PS,exp,41,↑,up,↑,0.9340888999868184,True,13,-1,0,0
Y2-S2-015K27,2,159,PS,exp,28,→,right,→,1.0641611999599263,True,13,-1,0,0
Y2-S2-015K27,2,160,PS,exp,26,↓,down,↓,0.8976375000784174,True,13,1,1,1
Y2-S2-015K27,2,161,PS,exp,27,↑,up,↑,0.9992582999402657,True,12,1,0,1
Y2-S2-015K27,2,162,PS,exp,34,↓,up,↑,1.3169442999642342,False,12,-1,1,2
Y2-S2-015K27,2,163,PS,exp,49,←,left,←,0.7687356000533327,True,13,-1,0,2
Y2-S2-015K27,2,164,PS,exp,46,↑,up,↑,0.7177306999219581,True,13,-1,0,2
Y2-S2-015K27,2,165,PS,exp,37,←,up,↑,1.6921618999913335,False,13,-1,0,2
Y2-S2-015K27,2,166,PS,exp,38,↑,up,↑,0.9230013999622315,True,14,-1,0,2
Y2-S2-015K27,2,167,PS,exp,34,↓,down,↓,0.8314965000608936,True,14,-1,0,2
Y2-S2-015K27,2,168,PS,exp,39,↑,down,↓,1.004367700079456,False,14,-1,0,2
Y2-S2-015K27,2,169,PS,exp,29,→,right,→,0.7787897000089288,True,15,-1,0,2
Y2-S2-015K27,2,170,PS,exp,48,↓,down,↓,0.8560780000407249,True,15,-1,0,2
Y2-S2-015K27,2,171,PS,exp,27,←,up,↑,1.3608640999300405,False,15,-1,0,2
Y2-S2-015K27,2,172,PS,exp,26,↓,down,↓,0.8012939000036567,True,16,-1,0,2
Y2-S2-015K27,2,173,PS,exp,31,←,left,←,0.8631847999058664,True,16,-1,0,2
Y2-S2-015K27,2,174,PS,exp,40,↑,up,↑,0.7989741000346839,True,16,1,1,3
Y2-S2-015K27,2,175,PS,exp,29,↓,down,↓,1.0863371000159532,True,15,1,0,3
Y2-S2-015K27,2,176,PS,exp,26,↑,up,↑,0.7696648000273854,True,15,1,0,3
Y2-S2-015K27,2,177,PS,exp,32,←,down,↓,1.1399172999663278,False,15,-1,1,4
Y2-S2-015K27,2,178,PS,exp,37,→,right,→,0.6442672000266612,True,16,-1,0,4
Y2-S2-015K27,2,179,PS,exp,46,↓,down,↓,0.7001387999625877,True,16,-1,0,4
Y2-S2-015K27,2,180,PS,exp,41,→,down,↓,0.9511427999241278,False,16,-1,0,4
Y2-S2-015K27,2,181,PS,exp,28,←,left,←,1.0415159000549465,True,17,-1,0,4
Y2-S2-015K27,2,182,PS,exp,41,→,right,→,0.6272976000327617,True,17,-1,0,4
Y2-S2-015K27,2,183,PS,exp,43,↑,up,↑,0.853933300008066,True,17,1,1,5
Y2-S2-015K27,2,184,PS,exp,31,→,left,←,0.8020504000596702,False,16,-1,1,6
Y2-S2-015K27,2,185,PS,exp,41,↑,up,↑,0.6383602999849245,True,17,-1,0,6
Y2-S2-015K27,2,186,PS,exp,35,↓,up,↑,1.03868869994767,False,17,-1,0,6
Y2-S2-015K27,2,187,PS,exp,37,←,left,←,0.8463812000118196,True,18,-1,0,6
Y2-S2-015K27,2,188,PS,exp,26,→,left,←,0.8229654999449849,False,18,-1,0,6
Y2-S2-015K27,2,189,PS,exp,47,↑,down,↓,1.0076734999893233,False,19,-1,0,6
Y2-S2-015K27,2,190,PS,exp,39,←,left,←,0.732635400025174,True,20,-1,0,6
Y2-S2-015K27,2,191,PS,exp,25,↓,down,↓,0.5918723000213504,True,20,-1,0,6
Y2-S2-015K27,2,192,PS,exp,40,←,left,←,0.9007223999360576,True,20,1,1,7
Y2-S2-015K27,2,193,PS,exp,36,↓,down,↓,0.8216457000235096,True,19,1,0,7
Y2-S2-015K27,2,194,PS,exp,26,↑,up,↑,1.1511889999965206,True,19,1,0,7
Y2-S2-015K27,2,195,PS,exp,29,→,right,→,0.7208794000325724,True,19,1,0,7
Y2-S2-015K27,2,196,PS,exp,41,↑,up,↑,0.6492371999192983,True,18,1,0,7
Y2-S2-015K27,2,197,PS,exp,40,→,right,→,0.5762674000579864,True,18,1,0,7
Y2-S2-015K27,2,198,PS,exp,25,←,right,→,1.0904227000428364,False,18,-1,1,8
Y2-S2-015K27,2,199,PS,exp,38,→,right,→,0.7142951000714675,True,19,-1,0,8
Y2-S2-015K27,2,200,PS,exp,47,↓,down,↓,1.1695612999610603,True,19,-1,0,8
Y2-S2-015K27,2,201,PS,exp,35,↑,up,↑,0.8911940000252798,True,19,1,1,9
Y2-S2-015K27,2,202,PS,exp,26,←,left,←,0.8314003000268713,True,18,1,0,9
Y2-S2-015K27,2,203,PS,exp,32,↓,down,↓,0.8950796999270096,True,18,1,0,9
Y2-S2-015K27,2,204,PS,exp,27,→,right,→,0.8489839999238029,True,18,1,0,9
Y2-S2-015K27,2,205,PS,exp,25,←,left,←,0.7056109999539331,True,17,1,0,9
Y2-S2-015K27,2,206,PS,exp,39,↓,down,↓,0.8046668999595568,True,17,1,0,9
Y2-S2-015K27,2,207,PS,exp,31,↑,up,↑,0.7265372999245301,True,17,1,0,9
Y2-S2-015K27,2,208,PS,exp,31,↓,down,↓,0.7202413999475539,True,16,1,0,9
Y2-S2-015K27,2,209,PS,exp,49,←,left,←,0.7524181000189856,True,16,1,0,9
Y2-S2-015K27,2,210,PS,exp,31,→,right,→,0.5751034000422806,True,16,1,0,9
Y2-S2-015K27,2,211,PS,exp,35,←,left,←,0.6282076000934467,True,15,1,0,9
Y2-S2-015K27,2,212,PS,exp,29,↑,up,↑,0.779865000047721,True,15,1,0,9
Y2-S2-015K27,2,213,PS,exp,27,→,right,→,0.609634599997662,True,15,1,0,9
Y2-S2-015K27,2,214,PS,exp,48,←,right,→,1.0250825000694022,False,14,-1,1,10
Y2-S2-015K27,2,215,PS,exp,36,↑,left,←,1.0670774000464007,False,15,-1,0,10
Y2-S2-015K27,2,216,PS,exp,29,→,right,→,0.8735419999575242,True,16,-1,0,10
Y2-S2-015K27,2,217,PS,exp,50,↓,down,↓,0.6661404999904335,True,16,-1,0,10
Y2-S2-015K27,2,218,PS,exp,50,↑,up,↑,1.2811946999281645,True,16,1,1,11
Y2-S2-015K27,2,219,PS,exp,47,↓,down,↓,0.70596559997648,True,15,1,0,11
Y2-S2-015K27,2,220,PS,exp,39,←,left,←,0.6331760999746621,True,15,1,0,11
Y2-S2-015K27,2,221,PS,exp,37,→,right,→,0.616744099999778,True,15,1,0,11
Y2-S2-015K27,2,222,PS,exp,25,↓,down,↓,0.7576236999593675,True,14,1,0,11
Y2-S2-015K27,2,223,PS,exp,34,→,right,→,0.7569591000210494,True,14,1,0,11
Y2-S2-015K27,2,224,PS,exp,30,←,down,↓,1.1259640000062063,False,14,-1,1,12
Y2-S2-015K27,2,225,PS,exp,50,↓,down,↓,0.5446374999592081,True,15,-1,0,12
Y2-S2-015K27,2,226,PS,exp,32,←,down,↓,0.6921460999874398,False,15,-1,0,12
Y2-S2-015K27,2,227,PS,exp,49,↑,up,↑,1.1856298999628052,True,16,-1,0,12
Y2-S2-015K27,2,228,PS,exp,50,←,left,←,1.1842318000271916,True,16,-1,0,12
Y2-S2-015K27,2,229,PS,exp,35,→,right,→,0.4940504999831319,True,16,1,1,13
Y2-S2-015K27,2,230,PS,exp,28,↓,down,↓,0.736793499905616,True,15,1,0,13
Y2-S2-015K27,2,231,PS,exp,48,←,left,←,0.9689283000770956,True,15,1,0,13
Y2-S2-015K27,2,232,PS,exp,34,→,left,←,0.9852322000078857,False,15,-1,1,14
Y2-S2-015K27,2,233,PS,exp,30,←,left,←,0.7702685000840575,True,16,-1,0,14
Y2-S2-015K27,2,234,PS,exp,36,↑,down,↓,0.9908089999807999,False,16,-1,0,14
Y2-S2-015K27,2,235,PS,exp,35,→,right,→,0.722105500055477,True,17,-1,0,14
Y2-S2-015K27,2,236,PS,exp,32,↑,up,↑,0.8867825999623165,True,17,-1,0,14
Y2-S2-015K27,2,237,PS,exp,34,↓,down,↓,0.9439857000252232,True,17,1,1,15
Y2-S2-015K27,2,238,PS,exp,41,↑,up,↑,0.7842740999767557,True,16,1,0,15
Y2-S2-015K27,2,239,PS,exp,44,←,left,←,0.7585780000081286,True,16,1,0,15
Y2-S2-015K27,2,240,PS,exp,36,↑,down,↓,0.9748491999926046,False,16,-1,1,16
Y2-S2-015K27,3,241,PS,intra_train,33,↓,down,↓,0.6366008999757469,True,18,-,-,-
Y2-S2-015K27,3,242,PS,intra_train,27,→,down,↓,0.991465000086464,False,18,-,-,-
Y2-S2-015K27,3,243,PS,intra_train,39,↑,up,↑,0.8268010000465438,True,18,-,-,-
Y2-S2-015K27,3,244,PS,intra_train,25,→,down,↓,1.095505499979481,False,18,-,-,-
Y2-S2-015K27,3,245,PS,intra_train,26,↓,down,↓,0.6098542999243364,True,18,-,-,-
Y2-S2-015K27,3,246,PS,exp,28,←,left,←,1.176040899939835,True,12,0,0,0
Y2-S2-015K27,3,247,PS,exp,38,→,right,→,0.6976774000795558,True,12,0,0,0
Y2-S2-015K27,3,248,PS,exp,41,↑,up,↑,0.6436278999317437,True,12,1,0,0
Y2-S2-015K27,3,249,PS,exp,39,←,left,←,0.5940589000238106,True,11,1,0,0
Y2-S2-015K27,3,250,PS,exp,33,↑,down,↓,0.70973140001297,False,11,-1,1,1
Y2-S2-015K27,3,251,PS,exp,37,←,down,↓,0.9810287998989224,False,12,-1,0,1
Y2-S2-015K27,3,252,PS,exp,48,↓,down,↓,0.5388317999895662,True,13,-1,0,1
Y2-S2-015K27,3,253,PS,exp,37,←,right,→,1.0213890000013635,False,13,-1,0,1
Y2-S2-015K27,3,254,PS,exp,40,→,right,→,0.650962800020352,True,14,-1,0,1
Y2-S2-015K27,3,255,PS,exp,29,↓,down,↓,0.6147646999452263,True,14,-1,0,1
Y2-S2-015K27,3,256,PS,exp,36,↑,up,↑,0.8264779000310227,True,14,1,1,2
Y2-S2-015K27,3,257,PS,exp,39,→,right,→,0.8596304000820965,True,13,1,0,2
Y2-S2-015K27,3,258,PS,exp,40,↓,no_key,no_letter,-1.0,False,13,-1,1,3
Y2-S2-015K27,3,259,PS,exp,32,→,right,→,0.7132269999710843,True,14,-1,0,3
Y2-S2-015K27,3,260,PS,exp,45,←,left,←,0.7356113001005724,True,14,-1,0,3
Y2-S2-015K27,3,261,PS,exp,32,→,left,←,0.8046549999853596,False,14,-1,0,3
Y2-S2-015K27,3,262,PS,exp,49,←,left,←,0.7855905999895185,True,15,-1,0,3
Y2-S2-015K27,3,263,PS,exp,25,→,left,←,0.968121699988842,False,15,-1,0,3
Y2-S2-015K27,3,264,PS,exp,40,↓,down,↓,0.7990057999268174,True,16,-1,0,3
Y2-S2-015K27,3,265,PS,exp,50,→,left,←,0.6867975000059232,False,16,-1,0,3
Y2-S2-015K27,3,266,PS,exp,34,↑,up,↑,0.8618592999409884,True,17,-1,0,3
Y2-S2-015K27,3,267,PS,exp,30,←,left,←,0.7023255999665707,True,17,-1,0,3
Y2-S2-015K27,3,268,PS,exp,39,→,right,→,0.9011593000032008,True,17,1,1,4
Y2-S2-015K27,3,269,PS,exp,31,↓,down,↓,0.6864650000352412,True,16,1,0,4
Y2-S2-015K27,3,270,PS,exp,50,↑,up,↑,0.8595609000185505,True,16,1,0,4
Y2-S2-015K27,3,271,PS,exp,44,←,left,←,0.7603018000954762,True,16,1,0,4
Y2-S2-015K27,3,272,PS,exp,49,↓,down,↓,0.7971781000960618,True,15,1,0,4
Y2-S2-015K27,3,273,PS,exp,46,→,down,↓,1.0409188999328762,False,15,-1,1,5
Y2-S2-015K27,3,274,PS,exp,31,↑,left,←,0.927192399976775,False,16,-1,0,5
Y2-S2-015K27,3,275,PS,exp,47,→,right,→,0.6528965000761673,True,17,-1,0,5
Y2-S2-015K27,3,276,PS,exp,35,↑,up,↑,0.8882524999789894,True,17,-1,0,5
Y2-S2-015K27,3,277,PS,exp,43,←,left,←,0.5936308999080211,True,17,1,1,6
Y2-S2-015K27,3,278,PS,exp,34,↑,down,↓,0.7341321000130847,False,16,-1,1,7
Y2-S2-015K27,3,279,PS,exp,30,→,down,↓,0.8836062999907881,False,17,-1,0,7
Y2-S2-015K27,3,280,PS,exp,43,↑,up,↑,0.6464275000616908,True,18,-1,0,7
Y2-S2-015K27,3,281,PS,exp,25,↓,down,↓,0.6900899999309331,True,18,-1,0,7
Y2-S2-015K27,3,282,PS,exp,38,←,left,←,0.5622834000969306,True,18,1,1,8
Y2-S2-015K27,3,283,PS,exp,31,↓,down,↓,0.664875999907963,True,17,1,0,8
Y2-S2-015K27,3,284,PS,exp,49,↑,down,↓,0.9111778999213129,False,17,-1,1,9
Y2-S2-015K27,3,285,PS,exp,34,→,left,←,0.8230780999874696,False,18,-1,0,9
Y2-S2-015K27,3,286,PS,exp,28,↑,left,←,1.2306121999863535,False,19,-1,0,9
Y2-S2-015K27,3,287,PS,exp,28,←,left,←,0.5552741000428796,True,20,-1,0,9
Y2-S2-015K27,3,288,PS,exp,27,→,right,→,0.7599374999990687,True,20,-1,0,9
Y2-S2-015K27,3,289,PS,exp,30,↑,up,↑,1.7050033999839798,True,20,1,1,10
Y2-S2-015K27,3,290,PS,exp,39,↓,down,↓,0.8226188999833539,True,19,1,0,10
Y2-S2-015K27,3,291,PS,exp,32,←,left,←,0.8298507999861613,True,19,1,0,10
Y2-S2-015K27,3,292,PS,exp,39,→,right,→,0.6628026999533176,True,19,1,0,10
Y2-S2-015K27,3,293,PS,exp,50,↑,up,↑,0.864044800051488,True,18,1,0,10
Y2-S2-015K27,3,294,PS,exp,37,←,left,←,0.6322583999717608,True,18,1,0,10
Y2-S2-015K27,3,295,PS,exp,46,↑,up,↑,0.7730674999766052,True,18,1,0,10
Y2-S2-015K27,3,296,PS,exp,36,→,left,←,0.8423273001099005,False,17,-1,1,11
Y2-S2-015K27,3,297,PS,exp,40,←,left,←,0.7100654999958351,True,18,-1,0,11
Y2-S2-015K27,3,298,PS,exp,34,↓,down,↓,0.7324238000437617,True,18,-1,0,11
Y2-S2-015K27,3,299,PS,exp,31,↑,up,↑,1.1101049000862986,True,18,1,1,12
Y2-S2-015K27,3,300,PS,exp,34,←,right,→,0.8685597999719903,False,17,-1,1,13
Y2-S2-015K27,3,301,PS,exp,43,→,right,→,0.763461000053212,True,18,-1,0,13
Y2-S2-015K27,3,302,PS,exp,35,←,left,←,0.7179325999459252,True,18,-1,0,13
Y2-S2-015K27,3,303,PS,exp,47,↓,down,↓,1.0030994999688119,True,18,1,1,14
Y2-S2-015K27,3,304,PS,exp,36,←,left,←,0.8181937999324873,True,17,1,0,14
Y2-S2-015K27,3,305,PS,exp,49,↓,down,↓,0.7843679999932647,True,17,1,0,14
Y2-S2-015K27,3,306,PS,exp,29,←,down,↓,1.354570599971339,False,17,-1,1,15
Y2-S2-015K27,3,307,PS,exp,35,↓,down,↓,0.6171224999707192,True,18,-1,0,15
Y2-S2-015K27,3,308,PS,exp,26,↑,up,↑,0.7503667999990284,True,18,-1,0,15
Y2-S2-015K27,3,309,PS,exp,40,↓,up,↑,1.1115482000168413,False,18,-1,0,15
Y2-S2-015K27,3,310,PS,exp,48,←,left,←,1.0031962000066414,True,19,-1,0,15
Y2-S2-015K27,3,311,PS,exp,46,↑,down,↓,0.7544804000062868,False,19,-1,0,15
Y2-S2-015K27,3,312,PS,exp,50,→,right,→,0.7847660999977961,True,20,-1,0,15
Y2-S2-015K27,3,313,PS,exp,39,↑,down,↓,0.8291022999910638,False,20,-1,0,15
Y2-S2-015K27,3,314,PS,exp,48,→,right,→,0.9429270999971777,True,21,-1,0,15
Y2-S2-015K27,3,315,PS,exp,50,↓,down,↓,0.8985171000240371,True,21,-1,0,15
Y2-S2-015K27,3,316,PS,exp,26,←,left,←,0.8831948000006378,True,21,1,1,16
Y2-S2-015K27,4,317,AS,intra_train,30,↓,down,↓,1.0246273999800906,True,37,-,-,-
Y2-S2-015K27,4,318,AS,intra_train,34,←,left,←,0.8348062000004575,True,37,-,-,-
Y2-S2-015K27,4,319,AS,intra_train,25,→,right,→,0.9303270999807864,True,37,-,-,-
Y2-S2-015K27,4,320,AS,intra_train,43,↓,down,↓,0.8768213000148535,True,37,-,-,-
Y2-S2-015K27,4,321,AS,intra_train,49,←,left,←,0.964315399993211,True,37,-,-,-
Y2-S2-015K27,4,322,AS,exp,47,↓,down,↓,0.71000019996427,True,25,0,0,0
Y2-S2-015K27,4,323,AS,exp,50,→,right,→,1.1628842999925837,True,25,0,0,0
Y2-S2-015K27,4,324,AS,exp,35,↑,up,↑,1.002591999946162,True,25,1,0,0
Y2-S2-015K27,4,325,AS,exp,42,↓,down,↓,0.9777444000355899,True,24,1,0,0
Y2-S2-015K27,4,326,AS,exp,43,→,left,←,0.9163933999370784,False,24,-1,1,1
Y2-S2-015K27,4,327,AS,exp,26,↓,down,↓,0.6526578000048175,True,25,-1,0,1
Y2-S2-015K27,4,328,AS,exp,43,←,left,←,0.6591115999035537,True,25,-1,0,1
Y2-S2-015K27,4,329,AS,exp,40,↑,left,←,1.4571617000037804,False,25,-1,0,1
Y2-S2-015K27,4,330,AS,exp,50,←,left,←,0.7825799999991432,True,26,-1,0,1
Y2-S2-015K27,4,331,AS,exp,47,↓,right,→,1.3180636999895796,False,26,-1,0,1
Y2-S2-015K27,4,332,AS,exp,45,↑,up,↑,1.692432799958624,True,27,-1,0,1
Y2-S2-015K27,4,333,AS,exp,25,↓,down,↓,1.1068759999470785,True,27,-1,0,1
Y2-S2-015K27,4,334,AS,exp,33,↑,up,↑,0.9028952999506146,True,27,1,1,2
Y2-S2-015K27,4,335,AS,exp,50,←,right,→,0.8694331999868155,False,26,-1,1,3
Y2-S2-015K27,4,336,AS,exp,38,↑,up,↑,1.8272548000095412,True,27,-1,0,3
Y2-S2-015K27,4,337,AS,exp,30,↓,down,↓,0.9800212999107316,True,27,-1,0,3
Y2-S2-015K27,4,338,AS,exp,33,↑,down,↓,1.0447928999783471,False,27,-1,0,3
Y2-S2-015K27,4,339,AS,exp,29,→,right,→,0.8832332999445498,True,28,-1,0,3
Y2-S2-015K27,4,340,AS,exp,50,←,left,←,1.049344199942425,True,28,-1,0,3
Y2-S2-015K27,4,341,AS,exp,36,→,right,→,0.8397808000445366,True,28,1,1,4
Y2-S2-015K27,4,342,AS,exp,37,←,left,←,0.708816000027582,True,27,1,0,4
Y2-S2-015K27,4,343,AS,exp,45,→,right,→,0.7618961000116542,True,27,1,0,4
Y2-S2-015K27,4,344,AS,exp,28,←,left,←,0.8092385000782087,True,27,1,0,4
Y2-S2-015K27,4,345,AS,exp,38,↑,left,←,1.1647461999673396,False,26,-1,1,5
Y2-S2-015K27,4,346,AS,exp,43,↓,right,→,1.2654201000696048,False,27,-1,0,5
Y2-S2-015K27,4,347,AS,exp,37,↑,up,↑,1.0601715000811964,True,28,-1,0,5
Y2-S2-015K27,4,348,AS,exp,37,→,right,→,0.9083738999906927,True,28,-1,0,5
Y2-S2-015K27,4,349,AS,exp,50,←,left,←,0.9911551000550389,True,28,1,1,6
Y2-S2-015K27,4,350,AS,exp,26,→,left,←,0.8875022999709472,False,27,-1,1,7
Y2-S2-015K27,4,351,AS,exp,40,↑,up,↑,0.8334086999529973,True,28,-1,0,7
Y2-S2-015K27,4,352,AS,exp,41,↓,up,↑,1.1767481999704614,False,28,-1,0,7
Y2-S2-015K27,4,353,AS,exp,31,↑,up,↑,0.8177318999078125,True,29,-1,0,7
Y2-S2-015K27,4,354,AS,exp,26,→,left,←,0.6834796000039205,False,29,-1,0,7
Y2-S2-015K27,4,355,AS,exp,37,↑,up,↑,0.8544798999791965,True,30,-1,0,7
Y2-S2-015K27,4,356,AS,exp,34,→,right,→,0.6837688999949023,True,30,-1,0,7
Y2-S2-015K27,4,357,AS,exp,33,←,up,↑,1.1089892000891268,False,30,-1,0,7
Y2-S2-015K27,4,358,AS,exp,27,↓,down,↓,1.1577200000174344,True,31,-1,0,7
Y2-S2-015K27,4,359,AS,exp,50,←,left,←,0.762266100035049,True,31,-1,0,7
Y2-S2-015K27,4,360,AS,exp,47,↑,up,↑,1.004648800007999,True,31,1,1,8
Y2-S2-015K27,4,361,AS,exp,27,↓,down,↓,0.9352619999554008,True,30,1,0,8
Y2-S2-015K27,4,362,AS,exp,34,↑,up,↑,1.1481815000297502,True,30,1,0,8
Y2-S2-015K27,4,363,AS,exp,43,↓,down,↓,0.709875899949111,True,30,1,0,8
Y2-S2-015K27,4,364,AS,exp,39,→,right,→,0.8608532000798732,True,29,1,0,8
Y2-S2-015K27,4,365,AS,exp,49,←,left,←,0.9571052000392228,True,29,1,0,8
Y2-S2-015K27,4,366,AS,exp,43,↑,left,←,1.1134025999344885,False,29,-1,1,9
Y2-S2-015K27,4,367,AS,exp,32,↓,down,↓,0.8837787000229582,True,30,-1,0,9
Y2-S2-015K27,4,368,AS,exp,32,↑,up,↑,0.7251062999712303,True,30,-1,0,9
Y2-S2-015K27,4,369,AS,exp,35,→,right,→,0.7415603999979794,True,30,1,1,10
Y2-S2-015K27,4,370,AS,exp,50,↓,down,↓,1.4444806000683457,True,29,1,0,10
Y2-S2-015K27,4,371,AS,exp,44,←,right,→,0.7803576000733301,False,29,-1,1,11
Y2-S2-015K27,4,372,AS,exp,37,↓,down,↓,1.0885593999410048,True,30,-1,0,11
Y2-S2-015K27,4,373,AS,exp,27,←,left,←,1.2091902999673039,True,30,-1,0,11
Y2-S2-015K27,4,374,AS,exp,47,↓,down,↓,0.7784436999354511,True,30,1,1,12
Y2-S2-015K27,4,375,AS,exp,35,↑,down,↓,1.4488125999923795,False,29,-1,1,13
Y2-S2-015K27,4,376,AS,exp,25,↓,down,↓,0.726044200011529,True,30,-1,0,13
Y2-S2-015K27,4,377,AS,exp,29,←,left,←,0.6733460000250489,True,30,-1,0,13
Y2-S2-015K27,4,378,AS,exp,27,↑,up,↑,0.8710600000340492,True,30,1,1,14
Y2-S2-015K27,4,379,AS,exp,38,→,right,→,0.6005300000542775,True,29,1,0,14
Y2-S2-015K27,4,380,AS,exp,42,↑,up,↑,1.0492523000575602,True,29,1,0,14
Y2-S2-015K27,4,381,AS,exp,42,←,left,←,0.8719356999499723,True,29,1,0,14
Y2-S2-015K27,4,382,AS,exp,36,→,left,←,0.8783283000811934,False,28,-1,1,15
Y2-S2-015K27,4,383,AS,exp,47,↓,right,→,0.7560602999292314,False,29,-1,0,15
Y2-S2-015K27,4,384,AS,exp,33,↑,up,↑,0.8110422999598086,True,30,-1,0,15
Y2-S2-015K27,4,385,AS,exp,44,→,right,→,1.7299804000649601,True,30,-1,0,15
Y2-S2-015K27,4,386,AS,exp,46,↓,down,↓,0.9062738000648096,True,30,1,1,16
Y2-S2-015K27,5,387,AS,intra_train,44,←,left,←,0.9638845999725163,True,37,-,-,-
Y2-S2-015K27,5,388,AS,intra_train,32,↓,up,↑,0.9374951000791043,False,37,-,-,-
Y2-S2-015K27,5,389,AS,intra_train,25,←,left,←,0.6005105000222102,True,37,-,-,-
Y2-S2-015K27,5,390,AS,intra_train,45,↑,up,↑,0.7508297999156639,True,37,-,-,-
Y2-S2-015K27,5,391,AS,intra_train,35,→,right,→,0.7924328000517562,True,37,-,-,-
Y2-S2-015K27,5,392,AS,exp,25,↑,up,↑,0.862696300027892,True,25,0,0,0
Y2-S2-015K27,5,393,AS,exp,40,→,right,→,0.8685536000411958,True,25,0,0,0
Y2-S2-015K27,5,394,AS,exp,28,↓,down,↓,1.078494800021872,True,25,1,0,0
Y2-S2-015K27,5,395,AS,exp,35,→,right,→,0.9157951000379398,True,24,1,0,0
Y2-S2-015K27,5,396,AS,exp,39,←,left,←,1.0066007999703288,True,24,1,0,0
Y2-S2-015K27,5,397,AS,exp,47,↓,down,↓,1.0180998999858275,True,24,1,0,0
Y2-S2-015K27,5,398,AS,exp,29,←,left,←,0.8034614999778569,True,23,1,0,0
Y2-S2-015K27,5,399,AS,exp,42,→,right,→,0.7614287999458611,True,23,1,0,0
Y2-S2-015K27,5,400,AS,exp,40,↑,down,↓,1.195558000006713,False,23,-1,1,1
Y2-S2-015K27,5,401,AS,exp,28,↓,down,↓,0.9086419999366626,True,24,-1,0,1
Y2-S2-015K27,5,402,AS,exp,35,←,left,←,0.9112431999528781,True,24,-1,0,1
Y2-S2-015K27,5,403,AS,exp,25,↑,up,↑,0.8155951000517234,True,24,1,1,2
Y2-S2-015K27,5,404,AS,exp,45,↓,down,↓,0.9424828999908641,True,23,1,0,2
Y2-S2-015K27,5,405,AS,exp,30,←,left,←,0.8501751999137923,True,23,1,0,2
Y2-S2-015K27,5,406,AS,exp,40,↓,down,↓,0.7048941999673843,True,23,1,0,2
Y2-S2-015K27,5,407,AS,exp,49,←,left,←,0.6645860999124125,True,22,1,0,2
Y2-S2-015K27,5,408,AS,exp,34,↓,down,↓,0.9054618000518531,True,22,1,0,2
Y2-S2-015K27,5,409,AS,exp,50,←,left,←,0.9482097000582144,True,22,1,0,2
Y2-S2-015K27,5,410,AS,exp,44,↑,down,↓,0.9318035000469536,False,21,-1,1,3
Y2-S2-015K27,5,411,AS,exp,38,→,left,←,0.8015768999466673,False,22,-1,0,3
Y2-S2-015K27,5,412,AS,exp,35,↑,up,↑,1.5488883999641985,True,23,-1,0,3
Y2-S2-015K27,5,413,AS,exp,48,↓,down,↓,0.868275300017558,True,23,-1,0,3
Y2-S2-015K27,5,414,AS,exp,26,↑,right,→,0.9246767999138683,False,23,-1,0,3
Y2-S2-015K27,5,415,AS,exp,41,→,right,→,0.9492250999901444,True,24,-1,0,3
Y2-S2-015K27,5,416,AS,exp,31,↓,down,↓,0.6632877999218181,True,24,-1,0,3
Y2-S2-015K27,5,417,AS,exp,38,↑,down,↓,0.8962438999442384,False,24,-1,0,3
Y2-S2-015K27,5,418,AS,exp,34,↓,down,↓,0.8262869999743998,True,25,-1,0,3
Y2-S2-015K27,5,419,AS,exp,50,←,left,←,1.0979586000321433,True,25,-1,0,3
Y2-S2-015K27,5,420,AS,exp,37,→,right,→,0.6182374999625608,True,25,1,1,4
Y2-S2-015K27,5,421,AS,exp,44,↑,up,↑,0.7554511999478564,True,24,1,0,4
Y2-S2-015K27,5,422,AS,exp,47,→,right,→,0.606630300055258,True,24,1,0,4
Y2-S2-015K27,5,423,AS,exp,46,↑,up,↑,0.9154053000966087,True,24,1,0,4
Y2-S2-015K27,5,424,AS,exp,34,←,left,←,0.9258809000020847,True,23,1,0,4
Y2-S2-015K27,5,425,AS,exp,45,→,left,←,0.6875294999917969,False,23,-1,1,5
Y2-S2-015K27,5,426,AS,exp,47,↑,up,↑,0.759497300023213,True,24,-1,0,5
Y2-S2-015K27,5,427,AS,exp,30,↓,down,↓,0.8678901999955997,True,24,-1,0,5
Y2-S2-015K27,5,428,AS,exp,26,↑,up,↑,1.0256463000550866,True,24,1,1,6
Y2-S2-015K27,5,429,AS,exp,43,↓,down,↓,0.8428821000270545,True,23,1,0,6
Y2-S2-015K27,5,430,AS,exp,39,←,down,↓,1.3303314000368118,False,23,-1,1,7
Y2-S2-015K27,5,431,AS,exp,48,↓,down,↓,0.8161844999995083,True,24,-1,0,7
Y2-S2-015K27,5,432,AS,exp,43,↑,down,↓,0.7695748000405729,False,24,-1,0,7
Y2-S2-015K27,5,433,AS,exp,29,←,left,←,0.7440007000695914,True,25,-1,0,7
Y2-S2-015K27,5,434,AS,exp,45,→,right,→,0.8841209000675008,True,25,-1,0,7
Y2-S2-015K27,5,435,AS,exp,50,←,left,←,0.8691905000014231,True,25,1,1,8
Y2-S2-015K27,5,436,AS,exp,36,→,right,→,0.679795500007458,True,24,1,0,8
Y2-S2-015K27,5,437,AS,exp,39,↑,up,↑,0.7523126000305638,True,24,1,0,8
Y2-S2-015K27,5,438,AS,exp,35,→,left,←,1.0813717000419274,False,24,-1,1,9
Y2-S2-015K27,5,439,AS,exp,44,←,left,←,0.8280945000005886,True,25,-1,0,9
Y2-S2-015K27,5,440,AS,exp,45,→,right,→,0.9559331000782549,True,25,-1,0,9
Y2-S2-015K27,5,441,AS,exp,50,↓,down,↓,1.1705382999498397,True,25,1,1,10
Y2-S2-015K27,5,442,AS,exp,25,→,right,→,1.1840597999980673,True,24,1,0,10
Y2-S2-015K27,5,443,AS,exp,39,↓,down,↓,1.0646628000540659,True,24,1,0,10
Y2-S2-015K27,5,444,AS,exp,44,↑,up,↑,0.7636874000309035,True,24,1,0,10
Y2-S2-015K27,5,445,AS,exp,40,→,right,→,0.7057359999744222,True,23,1,0,10
Y2-S2-015K27,5,446,AS,exp,29,↑,up,↑,0.9009323999052867,True,23,1,0,10
Y2-S2-015K27,5,447,AS,exp,41,←,left,←,0.828128399909474,True,23,1,0,10
Y2-S2-015K27,5,448,AS,exp,38,↓,down,↓,1.0681017999304458,True,22,1,0,10
Y2-S2-015K27,5,449,AS,exp,35,↑,up,↑,0.8525309000397101,True,22,1,0,10
Y2-S2-015K27,5,450,AS,exp,48,→,right,→,0.6739077999955043,True,22,1,0,10
Y2-S2-015K27,5,451,AS,exp,28,↑,up,↑,0.597424800042063,True,21,1,0,10
Y2-S2-015K27,5,452,AS,exp,32,↓,up,↑,0.9684353000484407,False,21,-1,1,11
Y2-S2-015K27,5,453,AS,exp,29,↑,up,↑,1.099838399910368,True,22,-1,0,11
Y2-S2-015K27,5,454,AS,exp,25,←,left,←,1.163671600050293,True,22,-1,0,11
Y2-S2-015K27,5,455,AS,exp,50,↑,up,↑,0.8366722000064328,True,22,1,1,12
Y2-S2-015K27,5,456,AS,exp,48,↓,down,↓,0.8595703999744728,True,21,1,0,12
Y2-S2-015K27,5,457,AS,exp,40,→,right,→,0.717866100021638,True,21,1,0,12
Y2-S2-015K27,5,458,AS,exp,31,←,left,←,0.7841805999632925,True,21,1,0,12
Y2-S2-015K27,5,459,AS,exp,46,→,right,→,0.6760899999644607,True,20,1,0,12
Y2-S2-015K27,5,460,AS,exp,30,↓,up,↑,1.1615342000732198,False,20,-1,1,13
Y2-S2-015K27,5,461,AS,exp,48,→,right,→,0.7377816999796778,True,21,-1,0,13
Y2-S2-015K27,5,462,AS,exp,30,↓,right,→,1.3981659000273794,False,21,-1,0,13
Y2-S2-015K27,5,463,AS,exp,44,→,right,→,0.6543675999855623,True,22,-1,0,13
Y2-S2-015K27,5,464,AS,exp,36,↓,right,→,0.9828908999916166,False,22,-1,0,13
Y2-S2-015K27,5,465,AS,exp,26,→,left,←,1.2626112999860197,False,23,-1,0,13
Y2-S2-015K27,5,466,AS,exp,42,↑,up,↑,0.6224643000168726,True,24,-1,0,13
Y2-S2-015K27,5,467,AS,exp,33,←,left,←,0.8798268999671564,True,24,-1,0,13
Y2-S2-015K27,5,468,AS,exp,25,→,right,→,0.9855317999608815,True,24,1,1,14
Y2-S2-015K27,5,469,AS,exp,32,↓,down,↓,0.9353551999665797,True,23,1,0,14
Y2-S2-015K27,5,470,AS,exp,50,↑,up,↑,0.7911939000478014,True,23,1,0,14
Y2-S2-015K27,5,471,AS,exp,48,↓,down,↓,1.0715178999816999,True,23,1,0,14
Y2-S2-015K27,5,472,AS,exp,33,←,left,←,0.6890381000703201,True,22,1,0,14
Y2-S2-015K27,5,473,AS,exp,39,→,up,↑,1.0323918999638408,False,22,-1,1,15
Y2-S2-015K27,5,474,AS,exp,42,↑,up,↑,0.6581278000958264,True,23,-1,0,15
Y2-S2-015K27,5,475,AS,exp,32,←,up,↑,1.0958138999994844,False,23,-1,0,15
Y2-S2-015K27,5,476,AS,exp,34,↑,up,↑,0.6989251999184489,True,24,-1,0,15
Y2-S2-015K27,5,477,AS,exp,33,←,left,←,0.7737117999931797,True,24,-1,0,15
Y2-S2-015K27,5,478,AS,exp,31,↓,down,↓,0.8755854000337422,True,24,1,1,16
Y2-S2-015K27,6,479,PS,intra_train,32,↑,up,↑,0.7389636000152677,True,18,-,-,-
Y2-S2-015K27,6,480,PS,intra_train,28,→,right,→,1.279228699975647,True,18,-,-,-
Y2-S2-015K27,6,481,PS,intra_train,31,↓,down,↓,1.0069002999225631,True,18,-,-,-
Y2-S2-015K27,6,482,PS,intra_train,46,↑,up,↑,0.8087351000867784,True,18,-,-,-
Y2-S2-015K27,6,483,PS,intra_train,40,←,right,→,1.3100852000061423,False,18,-,-,-
Y2-S2-015K27,6,484,PS,exp,28,↓,down,↓,0.7746531999437138,True,12,0,0,0
Y2-S2-015K27,6,485,PS,exp,42,←,left,←,1.0320343000348657,True,12,0,0,0
Y2-S2-015K27,6,486,PS,exp,33,↑,up,↑,0.6167526999488473,True,12,1,0,0
Y2-S2-015K27,6,487,PS,exp,32,↓,down,↓,0.7627662000013515,True,11,1,0,0
Y2-S2-015K27,6,488,PS,exp,49,→,right,→,1.0560102000599727,True,11,1,0,0
Y2-S2-015K27,6,489,PS,exp,38,←,left,←,1.743152300012298,True,11,1,0,0
Y2-S2-015K27,6,490,PS,exp,31,↑,down,↓,1.2524433999788016,False,10,-1,1,1
Y2-S2-015K27,6,491,PS,exp,33,→,right,→,0.7750896000070497,True,11,-1,0,1
Y2-S2-015K27,6,492,PS,exp,27,←,left,←,0.6945080999284983,True,11,-1,0,1
Y2-S2-015K27,6,493,PS,exp,26,→,right,→,0.9395674999104813,True,11,1,1,2
Y2-S2-015K27,6,494,PS,exp,49,↑,up,↑,0.8146006000461057,True,10,1,0,2
Y2-S2-015K27,6,495,PS,exp,34,←,right,→,0.8590258000185713,False,10,-1,1,3
Y2-S2-015K27,6,496,PS,exp,35,↓,down,↓,0.6856487999903038,True,11,-1,0,3
Y2-S2-015K27,6,497,PS,exp,48,→,right,→,0.6986878999741748,True,11,-1,0,3
Y2-S2-015K27,6,498,PS,exp,35,↓,up,↑,1.1455559000605717,False,11,-1,0,3
Y2-S2-015K27,6,499,PS,exp,48,→,right,→,0.6753525000531226,True,12,-1,0,3
Y2-S2-015K27,6,500,PS,exp,26,←,left,←,0.7896138000069186,True,12,-1,0,3
Y2-S2-015K27,6,501,PS,exp,32,↓,down,↓,0.9638349000597373,True,12,1,1,4
Y2-S2-015K27,6,502,PS,exp,29,←,left,←,0.6734578999457881,True,11,1,0,4
Y2-S2-015K27,6,503,PS,exp,37,↓,right,→,0.7453856999054551,False,11,-1,1,5
Y2-S2-015K27,6,504,PS,exp,37,↑,up,↑,0.8879342000000179,True,12,-1,0,5
Y2-S2-015K27,6,505,PS,exp,45,↓,down,↓,0.6815277000423521,True,12,-1,0,5
Y2-S2-015K27,6,506,PS,exp,35,→,down,↓,0.7099531000712886,False,12,-1,0,5
Y2-S2-015K27,6,507,PS,exp,31,←,left,←,0.7116367000853643,True,13,-1,0,5
Y2-S2-015K27,6,508,PS,exp,44,→,right,→,0.8961732999887317,True,13,-1,0,5
Y2-S2-015K27,6,509,PS,exp,26,↑,right,→,0.9529255999950692,False,13,-1,0,5
Y2-S2-015K27,6,510,PS,exp,46,→,right,→,0.5685510999755934,True,14,-1,0,5
Y2-S2-015K27,6,511,PS,exp,40,↑,up,↑,1.167405299958773,True,14,-1,0,5
Y2-S2-015K27,6,512,PS,exp,31,→,right,→,0.613924500066787,True,14,1,1,6
Y2-S2-015K27,6,513,PS,exp,49,←,left,←,0.9133700999664143,True,13,1,0,6
Y2-S2-015K27,6,514,PS,exp,49,↑,left,←,0.8556281999917701,False,13,-1,1,7
Y2-S2-015K27,6,515,PS,exp,49,↓,down,↓,0.7694253000663593,True,14,-1,0,7
Y2-S2-015K27,6,516,PS,exp,30,↑,down,↓,0.9291358001064509,False,14,-1,0,7
Y2-S2-015K27,6,517,PS,exp,38,→,right,→,0.8020944999298081,True,15,-1,0,7
Y2-S2-015K27,6,518,PS,exp,41,←,left,←,0.7476644000271335,True,15,-1,0,7
Y2-S2-015K27,6,519,PS,exp,40,↓,no_key,no_letter,-1.0,False,15,-1,0,7
Y2-S2-015K27,6,520,PS,exp,39,→,right,→,0.8184346000198275,True,16,-1,0,7
Y2-S2-015K27,6,521,PS,exp,50,←,left,←,0.7233416000381112,True,16,-1,0,7
Y2-S2-015K27,6,522,PS,exp,40,↑,up,↑,0.9820430000545457,True,16,1,1,8
Y2-S2-015K27,6,523,PS,exp,42,←,left,←,0.738458100007847,True,15,1,0,8
Y2-S2-015K27,6,524,PS,exp,25,↓,left,←,1.553148000035435,False,15,-1,1,9
Y2-S2-015K27,6,525,PS,exp,39,↑,up,↑,0.9173885999480262,True,16,-1,0,9
Y2-S2-015K27,6,526,PS,exp,38,←,left,←,0.7315751999849454,True,16,-1,0,9
Y2-S2-015K27,6,527,PS,exp,36,↓,down,↓,0.7077531999675557,True,16,1,1,10
Y2-S2-015K27,6,528,PS,exp,36,←,left,←,0.7222448999527842,True,15,1,0,10
Y2-S2-015K27,6,529,PS,exp,30,↑,up,↑,0.7913042999571189,True,15,1,0,10
Y2-S2-015K27,6,530,PS,exp,27,→,left,←,0.9842072000028566,False,15,-1,1,11
Y2-S2-015K27,6,531,PS,exp,36,←,left,←,0.532205699943006,True,16,-1,0,11
Y2-S2-015K27,6,532,PS,exp,45,→,right,→,0.6063213999150321,True,16,-1,0,11
Y2-S2-015K27,6,533,PS,exp,37,↑,up,↑,0.5961060000117868,True,16,1,1,12
Y2-S2-015K27,6,534,PS,exp,42,←,left,←,0.6570158998947591,True,15,1,0,12
Y2-S2-015K27,6,535,PS,exp,28,↓,left,←,0.7954338999697939,False,15,-1,1,13
Y2-S2-015K27,6,536,PS,exp,26,→,left,←,0.7461618999950588,False,16,-1,0,13
Y2-S2-015K27,6,537,PS,exp,33,←,left,←,0.5660408000694588,True,17,-1,0,13
Y2-S2-015K27,6,538,PS,exp,37,↓,down,↓,0.7901974000269547,True,17,-1,0,13
Y2-S2-015K27,6,539,PS,exp,29,→,right,→,0.6819571999367326,True,17,1,1,14
Y2-S2-015K27,6,540,PS,exp,34,←,left,←,0.7681613999884576,True,16,1,0,14
Y2-S2-015K27,6,541,PS,exp,41,↑,up,↑,0.684581899899058,True,16,1,0,14
Y2-S2-015K27,6,542,PS,exp,41,↓,down,↓,0.9253754999954253,True,16,1,0,14
Y2-S2-015K27,6,543,PS,exp,30,→,right,→,0.6440835000248626,True,15,1,0,14
Y2-S2-015K27,6,544,PS,exp,36,←,down,↓,1.1083226000191644,False,15,-1,1,15
Y2-S2-015K27,6,545,PS,exp,48,→,right,→,0.5536192000145093,True,16,-1,0,15
Y2-S2-015K27,6,546,PS,exp,26,←,left,←,0.6512016999768093,True,16,-1,0,15
Y2-S2-015K27,6,547,PS,exp,48,→,right,→,0.6308112000115216,True,16,1,1,16
Y2-S2-015K27,7,548,PS,intra_train,37,←,left,←,0.7521115000126883,True,18,-,-,-
Y2-S2-015K27,7,549,PS,intra_train,28,↓,down,↓,0.8578988999361172,True,18,-,-,-
Y2-S2-015K27,7,550,PS,intra_train,34,→,right,→,0.5565548000158742,True,18,-,-,-
Y2-S2-015K27,7,551,PS,intra_train,35,↑,up,↑,1.0724793000845239,True,18,-,-,-
Y2-S2-015K27,7,552,PS,intra_train,35,←,up,↑,1.4110294999554753,False,18,-,-,-
Y2-S2-015K27,7,553,PS,exp,26,↓,down,↓,0.8065535000059754,True,12,0,0,0
Y2-S2-015K27,7,554,PS,exp,34,←,down,↓,1.378683999995701,False,12,-1,0,0
Y2-S2-015K27,7,555,PS,exp,37,↓,down,↓,0.6484271999215707,True,13,-1,0,0
Y2-S2-015K27,7,556,PS,exp,40,→,right,→,0.8132106000557542,True,13,-1,0,0
Y2-S2-015K27,7,557,PS,exp,34,↓,down,↓,1.365544099942781,True,13,1,1,1
Y2-S2-015K27,7,558,PS,exp,40,↑,up,↑,0.8172307999338955,True,12,1,0,1
Y2-S2-015K27,7,559,PS,exp,25,←,left,←,0.8423366999486461,True,12,1,0,1
Y2-S2-015K27,7,560,PS,exp,47,→,right,→,0.743848399957642,True,12,1,0,1
Y2-S2-015K27,7,561,PS,exp,50,↓,down,↓,1.8098755999235436,True,11,1,0,1
Y2-S2-015K27,7,562,PS,exp,48,↑,right,→,0.8155394999776036,False,11,-1,1,2
Y2-S2-015K27,7,563,PS,exp,30,↓,down,↓,0.9502664000028744,True,12,-1,0,2
Y2-S2-015K27,7,564,PS,exp,42,→,right,→,0.6802438000449911,True,12,-1,0,2
Y2-S2-015K27,7,565,PS,exp,34,↑,right,→,1.123079700046219,False,12,-1,0,2
Y2-S2-015K27,7,566,PS,exp,50,→,right,→,0.7243083000648767,True,13,-1,0,2
Y2-S2-015K27,7,567,PS,exp,29,↓,down,↓,1.0004154000198469,True,13,-1,0,2
Y2-S2-015K27,7,568,PS,exp,40,↑,down,↓,0.8334286999888718,False,13,-1,0,2
Y2-S2-015K27,7,569,PS,exp,44,←,left,←,0.7802624000469223,True,14,-1,0,2
Y2-S2-015K27,7,570,PS,exp,50,↑,up,↑,0.8952296000206843,True,14,-1,0,2
Y2-S2-015K27,7,571,PS,exp,30,→,left,←,0.7321254999842495,False,14,-1,0,2
Y2-S2-015K27,7,572,PS,exp,39,↑,up,↑,0.9439037999836728,True,15,-1,0,2
Y2-S2-015K27,7,573,PS,exp,50,←,left,←,0.9508126000873744,True,15,-1,0,2
Y2-S2-015K27,7,574,PS,exp,26,↓,down,↓,0.7333143999567255,True,15,1,1,3
Y2-S2-015K27,7,575,PS,exp,39,↑,up,↑,0.7107649999670684,True,14,1,0,3
Y2-S2-015K27,7,576,PS,exp,31,↓,down,↓,0.7287692000390962,True,14,1,0,3
Y2-S2-015K27,7,577,PS,exp,31,↑,down,↓,0.8708939999341965,False,14,-1,1,4
Y2-S2-015K27,7,578,PS,exp,30,→,down,↓,0.8118300000205636,False,15,-1,0,4
Y2-S2-015K27,7,579,PS,exp,32,↓,no_key,no_letter,-1.0,False,16,-1,0,4
Y2-S2-015K27,7,580,PS,exp,48,↑,up,↑,0.7138045000610873,True,17,-1,0,4
Y2-S2-015K27,7,581,PS,exp,34,→,right,→,0.8048154000425711,True,17,-1,0,4
Y2-S2-015K27,7,582,PS,exp,32,↓,down,↓,0.7096027999650687,True,17,1,1,5
Y2-S2-015K27,7,583,PS,exp,41,→,right,→,0.8529809999745339,True,16,1,0,5
Y2-S2-015K27,7,584,PS,exp,40,↓,down,↓,0.9221450999611989,True,16,1,0,5
Y2-S2-015K27,7,585,PS,exp,45,→,right,→,0.6972269000252709,True,16,1,0,5
Y2-S2-015K27,7,586,PS,exp,47,↑,up,↑,0.9406137000769377,True,15,1,0,5
Y2-S2-015K27,7,587,PS,exp,47,→,right,→,0.5657355000730604,True,15,1,0,5
Y2-S2-015K27,7,588,PS,exp,32,↑,up,↑,0.5781242999946699,True,15,1,0,5
Y2-S2-015K27,7,589,PS,exp,28,←,left,←,1.5099370999960229,True,14,1,0,5
Y2-S2-015K27,7,590,PS,exp,32,↑,up,↑,0.77837900002487,True,14,1,0,5
Y2-S2-015K27,7,591,PS,exp,48,←,left,←,0.5707178999437019,True,14,1,0,5
Y2-S2-015K27,7,592,PS,exp,36,↓,down,↓,0.7193862999556586,True,13,1,0,5
Y2-S2-015K27,7,593,PS,exp,28,→,right,→,0.7084094999590889,True,13,1,0,5
Y2-S2-015K27,7,594,PS,exp,37,↑,right,→,1.358344899956137,False,13,-1,1,6
Y2-S2-015K27,7,595,PS,exp,31,←,left,←,0.9764205999672413,True,14,-1,0,6
Y2-S2-015K27,7,596,PS,exp,28,↑,no_key,no_letter,-1.0,False,14,-1,0,6
Y2-S2-015K27,7,597,PS,exp,28,←,left,←,0.7188388999784365,True,15,-1,0,6
Y2-S2-015K27,7,598,PS,exp,50,↓,left,←,0.8535802999977022,False,15,-1,0,6
Y2-S2-015K27,7,599,PS,exp,39,↑,left,←,1.2393836999544874,False,16,-1,0,6
Y2-S2-015K27,7,600,PS,exp,38,→,right,→,0.6929569001076743,True,17,-1,0,6
Y2-S2-015K27,7,601,PS,exp,33,↓,left,←,0.8345784000121057,False,17,-1,0,6
Y2-S2-015K27,7,602,PS,exp,33,↑,up,↑,0.8594560000346974,True,18,-1,0,6
Y2-S2-015K27,7,603,PS,exp,40,←,left,←,0.7336514999624342,True,18,-1,0,6
Y2-S2-015K27,7,604,PS,exp,29,↓,down,↓,0.841619799961336,True,18,1,1,7
Y2-S2-015K27,7,605,PS,exp,26,←,left,←,0.6415121000027284,True,17,1,0,7
Y2-S2-015K27,7,606,PS,exp,50,↑,up,↑,0.6211375000420958,True,17,1,0,7
Y2-S2-015K27,7,607,PS,exp,48,→,right,→,0.6980294999666512,True,17,1,0,7
Y2-S2-015K27,7,608,PS,exp,25,↑,down,↓,1.022215100005269,False,16,-1,1,8
Y2-S2-015K27,7,609,PS,exp,44,↓,right,→,1.2138446000171825,False,17,-1,0,8
Y2-S2-015K27,7,610,PS,exp,45,↑,up,↑,0.7406589000020176,True,18,-1,0,8
Y2-S2-015K27,7,611,PS,exp,28,←,right,→,0.8470248999074101,False,18,-1,0,8
Y2-S2-015K27,7,612,PS,exp,40,↑,up,↑,0.6265773000195622,True,19,-1,0,8
Y2-S2-015K27,7,613,PS,exp,43,←,left,←,0.6719074998982251,True,19,-1,0,8
Y2-S2-015K27,7,614,PS,exp,34,↑,up,↑,0.5109745000954717,True,19,1,1,9
Y2-S2-015K27,7,615,PS,exp,40,→,right,→,0.6279284000629559,True,18,1,0,9
Y2-S2-015K27,7,616,PS,exp,27,↑,up,↑,0.6104493999155238,True,18,1,0,9
Y2-S2-015K27,7,617,PS,exp,40,↓,down,↓,0.9017855999991298,True,18,1,0,9
Y2-S2-015K27,7,618,PS,exp,47,←,left,←,0.8729455000720918,True,17,1,0,9
Y2-S2-015K27,7,619,PS,exp,35,↑,up,↑,0.48923810000997037,True,17,1,0,9
Y2-S2-015K27,7,620,PS,exp,38,←,left,←,0.6665073999902233,True,17,1,0,9
Y2-S2-015K27,7,621,PS,exp,46,↑,up,↑,0.49184059991966933,True,16,1,0,9
Y2-S2-015K27,7,622,PS,exp,47,↓,down,↓,1.052451999974437,True,16,1,0,9
Y2-S2-015K27,7,623,PS,exp,43,↑,up,↑,0.7016717999940738,True,16,1,0,9
Y2-S2-015K27,7,624,PS,exp,41,↓,down,↓,0.7359170001000166,True,15,1,0,9
Y2-S2-015K27,7,625,PS,exp,27,→,right,→,0.6542292999802157,True,15,1,0,9
Y2-S2-015K27,7,626,PS,exp,38,↓,down,↓,0.48275460000149906,True,15,1,0,9
Y2-S2-015K27,7,627,PS,exp,49,↑,down,↓,0.9392168000340462,False,14,-1,1,10
Y2-S2-015K27,7,628,PS,exp,33,↓,down,↓,1.1340100999223068,True,15,-1,0,10
Y2-S2-015K27,7,629,PS,exp,30,←,down,↓,0.6156845999648795,False,15,-1,0,10
Y2-S2-015K27,7,630,PS,exp,26,↑,down,↓,1.5938685000874102,False,16,-1,0,10
Y2-S2-015K27,7,631,PS,exp,42,↓,down,↓,0.6140307999448851,True,17,-1,0,10
Y2-S2-015K27,7,632,PS,exp,32,→,right,→,0.8132356000132859,True,17,-1,0,10
Y2-S2-015K27,7,633,PS,exp,36,↑,left,←,1.018878300092183,False,17,-1,0,10
Y2-S2-015K27,7,634,PS,exp,33,→,right,→,0.7979147000005469,True,18,-1,0,10
Y2-S2-015K27,7,635,PS,exp,44,↓,down,↓,0.8562795000616461,True,18,-1,0,10
Y2-S2-015K27,7,636,PS,exp,33,↑,up,↑,0.9946153999771923,True,18,1,1,11
Y2-S2-015K27,7,637,PS,exp,43,←,left,←,0.8448732999386266,True,17,1,0,11
Y2-S2-015K27,7,638,PS,exp,44,→,right,→,0.7089278999483213,True,17,1,0,11
Y2-S2-015K27,7,639,PS,exp,44,↑,up,↑,0.9721805000444874,True,17,1,0,11
Y2-S2-015K27,7,640,PS,exp,43,←,left,←,0.7157698000082746,True,16,1,0,11
Y2-S2-015K27,7,641,PS,exp,34,→,right,→,0.5910287000006065,True,16,1,0,11
Y2-S2-015K27,7,642,PS,exp,46,↑,up,↑,0.6989309000782669,True,16,1,0,11
Y2-S2-015K27,7,643,PS,exp,34,←,left,←,0.8265176999848336,True,15,1,0,11
Y2-S2-015K27,7,644,PS,exp,46,↓,down,↓,0.8051885000895709,True,15,1,0,11
Y2-S2-015K27,7,645,PS,exp,27,←,left,←,0.6634298000717536,True,15,1,0,11
Y2-S2-015K27,7,646,PS,exp,34,↑,up,↑,0.481869800016284,True,14,1,0,11
Y2-S2-015K27,7,647,PS,exp,44,→,up,↑,0.878736500046216,False,14,-1,1,12
Y2-S2-015K27,7,648,PS,exp,50,↑,up,↑,0.8380552999442443,True,15,-1,0,12
Y2-S2-015K27,7,649,PS,exp,36,↓,down,↓,0.8261567000299692,True,15,-1,0,12
Y2-S2-015K27,7,650,PS,exp,46,↑,up,↑,0.696991499979049,True,15,1,1,13
Y2-S2-015K27,7,651,PS,exp,44,←,left,←,0.649069800041616,True,14,1,0,13
Y2-S2-015K27,7,652,PS,exp,28,→,right,→,1.158807500032708,True,14,1,0,13
Y2-S2-015K27,7,653,PS,exp,36,←,left,←,0.8186831000493839,True,14,1,0,13
Y2-S2-015K27,7,654,PS,exp,26,↑,left,←,0.8914609000785276,False,13,-1,1,14
Y2-S2-015K27,7,655,PS,exp,48,←,left,←,0.6470714000752196,True,14,-1,0,14
Y2-S2-015K27,7,656,PS,exp,33,↑,right,→,0.7915207999758422,False,14,-1,0,14
Y2-S2-015K27,7,657,PS,exp,45,←,left,←,0.6558182999724522,True,15,-1,0,14
Y2-S2-015K27,7,658,PS,exp,27,↑,left,←,0.7858556999126449,False,15,-1,0,14
Y2-S2-015K27,7,659,PS,exp,29,←,left,←,0.7794739999808371,True,16,-1,0,14
Y2-S2-015K27,7,660,PS,exp,35,↓,down,↓,0.9770016999682412,True,16,-1,0,14
Y2-S2-015K27,7,661,PS,exp,47,→,down,↓,1.0214858000399545,False,16,-1,0,14
Y2-S2-015K27,7,662,PS,exp,44,↓,down,↓,0.7045334000140429,True,17,-1,0,14
Y2-S2-015K27,7,663,PS,exp,39,↑,up,↑,0.8516331999562681,True,17,-1,0,14
Y2-S2-015K27,7,664,PS,exp,50,↓,down,↓,0.6310847999993712,True,17,1,1,15
Y2-S2-015K27,7,665,PS,exp,49,↑,up,↑,1.0165602000197396,True,16,1,0,15
Y2-S2-015K27,7,666,PS,exp,34,←,left,←,0.7819313999498263,True,16,1,0,15
Y2-S2-015K27,7,667,PS,exp,47,↑,left,←,1.0005083000287414,False,16,-1,1,16
Y2-S2-015K27,8,668,AS,intra_train,47,↓,down,↓,1.1821647000033408,True,37,-,-,-
Y2-S2-015K27,8,669,AS,intra_train,40,←,left,←,0.6837662999751046,True,37,-,-,-
Y2-S2-015K27,8,670,AS,intra_train,25,↑,up,↑,0.8274750000564381,True,37,-,-,-
Y2-S2-015K27,8,671,AS,intra_train,31,→,right,→,1.5890682999743149,True,37,-,-,-
Y2-S2-015K27,8,672,AS,intra_train,36,↑,up,↑,0.6336224999977276,True,37,-,-,-
Y2-S2-015K27,8,673,AS,exp,38,→,right,→,0.8421152998926118,True,25,0,0,0
Y2-S2-015K27,8,674,AS,exp,42,←,up,↑,1.8284164000069723,False,25,-1,0,0
Y2-S2-015K27,8,675,AS,exp,40,↓,down,↓,0.9823908000253141,True,26,-1,0,0
Y2-S2-015K27,8,676,AS,exp,42,↑,up,↑,0.7622144999913871,True,26,-1,0,0
Y2-S2-015K27,8,677,AS,exp,38,↓,down,↓,0.7742382000433281,True,26,1,1,1
Y2-S2-015K27,8,678,AS,exp,34,→,no_key,no_letter,-1.0,False,25,-1,1,2
Y2-S2-015K27,8,679,AS,exp,35,←,left,←,0.935793700045906,True,26,-1,0,2
Y2-S2-015K27,8,680,AS,exp,26,→,right,→,1.3505810999777168,True,26,-1,0,2
Y2-S2-015K27,8,681,AS,exp,44,↑,up,↑,0.7606459999224171,True,26,1,1,3
Y2-S2-015K27,8,682,AS,exp,33,←,left,←,0.9382738000713289,True,25,1,0,3
Y2-S2-015K27,8,683,AS,exp,30,↑,left,←,1.0534091000445187,False,25,-1,1,4
Y2-S2-015K27,8,684,AS,exp,49,↓,down,↓,0.7941563000204042,True,26,-1,0,4
Y2-S2-015K27,8,685,AS,exp,31,←,left,←,0.9452553999144584,True,26,-1,0,4
Y2-S2-015K27,8,686,AS,exp,45,↓,down,↓,0.9473204000387341,True,26,1,1,5
Y2-S2-015K27,8,687,AS,exp,48,←,left,←,1.0041563999839127,True,25,1,0,5
Y2-S2-015K27,8,688,AS,exp,29,↑,up,↑,0.882076199981384,True,25,1,0,5
Y2-S2-015K27,8,689,AS,exp,40,←,left,←,0.6352276999969035,True,25,1,0,5
Y2-S2-015K27,8,690,AS,exp,40,→,right,→,1.012500699958764,True,24,1,0,5
Y2-S2-015K27,8,691,AS,exp,46,↑,up,↑,0.9943747000070289,True,24,1,0,5
Y2-S2-015K27,8,692,AS,exp,36,↓,down,↓,0.8601068001007661,True,24,1,0,5
Y2-S2-015K27,8,693,AS,exp,32,↑,up,↑,0.7279916000552475,True,23,1,0,5
Y2-S2-015K27,8,694,AS,exp,41,→,right,→,0.6286016000667587,True,23,1,0,5
Y2-S2-015K27,8,695,AS,exp,32,↓,down,↓,0.9083889999892563,True,23,1,0,5
Y2-S2-015K27,8,696,AS,exp,34,→,down,↓,1.2295445998897776,False,22,-1,1,6
Y2-S2-015K27,8,697,AS,exp,41,↓,down,↓,0.963468800066039,True,23,-1,0,6
Y2-S2-015K27,8,698,AS,exp,33,→,right,→,1.0056258999975398,True,23,-1,0,6
Y2-S2-015K27,8,699,AS,exp,38,↓,down,↓,0.7642066999105737,True,23,1,1,7
Y2-S2-015K27,8,700,AS,exp,47,→,right,→,0.721367200021632,True,22,1,0,7
Y2-S2-015K27,8,701,AS,exp,42,↑,up,↑,1.1706896000541747,True,22,1,0,7
Y2-S2-015K27,8,702,AS,exp,43,→,right,→,0.7295054999412969,True,22,1,0,7
Y2-S2-015K27,8,703,AS,exp,47,←,left,←,0.824114799965173,True,21,1,0,7
Y2-S2-015K27,8,704,AS,exp,45,→,left,←,1.0262250000378117,False,21,-1,1,8
Y2-S2-015K27,8,705,AS,exp,36,↑,up,↑,0.7169321000110358,True,22,-1,0,8
Y2-S2-015K27,8,706,AS,exp,45,←,left,←,0.9082173000788316,True,22,-1,0,8
Y2-S2-015K27,8,707,AS,exp,27,→,right,→,0.5844259998993948,True,22,1,1,9
Y2-S2-015K27,8,708,AS,exp,46,←,left,←,0.8501140000298619,True,21,1,0,9
Y2-S2-015K27,8,709,AS,exp,27,↑,up,↑,0.7482154000317678,True,21,1,0,9
Y2-S2-015K27,8,710,AS,exp,31,→,right,→,0.7230139999883249,True,21,1,0,9
Y2-S2-015K27,8,711,AS,exp,42,↑,up,↑,0.6955682999687269,True,20,1,0,9
Y2-S2-015K27,8,712,AS,exp,43,→,right,→,1.2729428999591619,True,20,1,0,9
Y2-S2-015K27,8,713,AS,exp,36,↑,down,↓,1.0821780000114813,False,20,-1,1,10
Y2-S2-015K27,8,714,AS,exp,41,↓,down,↓,0.6103462999453768,True,21,-1,0,10
Y2-S2-015K27,8,715,AS,exp,46,↑,left,←,1.248674700036645,False,21,-1,0,10
Y2-S2-015K27,8,716,AS,exp,48,→,right,→,0.8159513999707997,True,22,-1,0,10
Y2-S2-015K27,8,717,AS,exp,49,←,left,←,0.6443953999551013,True,22,-1,0,10
Y2-S2-015K27,8,718,AS,exp,43,↑,up,↑,1.5914378000888973,True,22,1,1,11
Y2-S2-015K27,8,719,AS,exp,25,→,right,→,1.0562805000226945,True,21,1,0,11
Y2-S2-015K27,8,720,AS,exp,29,↑,up,↑,0.7673715999117121,True,21,1,0,11
Y2-S2-015K27,8,721,AS,exp,37,←,left,←,0.9138591999653727,True,21,1,0,11
Y2-S2-015K27,8,722,AS,exp,44,→,right,→,1.0064822001149878,True,20,1,0,11
Y2-S2-015K27,8,723,AS,exp,34,↑,up,↑,0.6846986000891775,True,20,1,0,11
Y2-S2-015K27,8,724,AS,exp,31,↓,right,→,1.3729290999472141,False,20,-1,1,12
Y2-S2-015K27,8,725,AS,exp,38,←,left,←,0.8709303999785334,True,21,-1,0,12
Y2-S2-015K27,8,726,AS,exp,28,↓,down,↓,0.9397744999732822,True,21,-1,0,12
Y2-S2-015K27,8,727,AS,exp,33,→,left,←,1.367944100056775,False,21,-1,0,12
Y2-S2-015K27,8,728,AS,exp,43,←,left,←,0.881049899966456,True,22,-1,0,12
Y2-S2-015K27,8,729,AS,exp,44,↓,down,↓,1.015088799991645,True,22,-1,0,12
Y2-S2-015K27,8,730,AS,exp,33,↑,up,↑,0.8978198999539018,True,22,1,1,13
Y2-S2-015K27,8,731,AS,exp,42,←,left,←,0.7332000000169501,True,21,1,0,13
Y2-S2-015K27,8,732,AS,exp,37,↓,down,↓,1.145560200093314,True,21,1,0,13
Y2-S2-015K27,8,733,AS,exp,27,→,right,→,0.6873144999844953,True,21,1,0,13
Y2-S2-015K27,8,734,AS,exp,50,←,up,↑,1.1511180999223143,False,20,-1,1,14
Y2-S2-015K27,8,735,AS,exp,37,→,right,→,0.6701379999285564,True,21,-1,0,14
Y2-S2-015K27,8,736,AS,exp,38,←,left,←,0.9820967999985442,True,21,-1,0,14
Y2-S2-015K27,8,737,AS,exp,49,→,right,→,0.766839100047946,True,21,1,1,15
Y2-S2-015K27,8,738,AS,exp,43,←,left,←,0.6624931999249384,True,20,1,0,15
Y2-S2-015K27,8,739,AS,exp,36,↑,left,←,1.4618009000550956,False,20,-1,1,16
