PART_ID,Block_no,Trial_no,Block_type,Trial_type,CSI,Stim_letter,Key_pressed,letter_choose,Rt,Corr,Stimulus Time,Level,Reversal,Revs_count
Y2-S2-197K23,1,1,PS,train,25,←,left,←,0.517107899999246,True,30,-,-,-
Y2-S2-197K23,1,2,PS,train,45,↑,up,↑,0.9527142999577336,True,30,-,-,-
Y2-S2-197K23,1,3,PS,train,35,↓,down,↓,1.0391006999998353,True,30,-,-,-
Y2-S2-197K23,1,4,PS,train,46,←,left,←,0.8260719999670982,True,30,-,-,-
Y2-S2-197K23,1,5,PS,train,29,→,right,→,0.8877795999869704,True,30,-,-,-
Y2-S2-197K23,1,6,PS,train,34,↑,up,↑,1.0003694000188261,True,30,-,-,-
Y2-S2-197K23,1,7,PS,train,26,←,left,←,0.8967618999886326,True,30,-,-,-
Y2-S2-197K23,1,8,PS,train,28,↑,up,↑,0.8727314000134356,True,30,-,-,-
Y2-S2-197K23,1,9,PS,train,38,↓,down,↓,0.9032608999987133,True,30,-,-,-
Y2-S2-197K23,1,10,PS,train,48,←,left,←,1.0387423999491148,True,30,-,-,-
Y2-S2-197K23,2,11,AS,train,46,↑,up,↑,1.1189073999994434,True,45,-,-,-
Y2-S2-197K23,2,12,AS,train,39,↓,down,↓,1.0127210000064224,True,45,-,-,-
Y2-S2-197K23,2,13,AS,train,35,↑,up,↑,1.1229034999851137,True,45,-,-,-
Y2-S2-197K23,2,14,AS,train,30,→,right,→,0.9926559999585152,True,45,-,-,-
Y2-S2-197K23,2,15,AS,train,25,←,left,←,1.036293699988164,True,45,-,-,-
Y2-S2-197K23,2,16,AS,train,39,→,right,→,0.9772892000037245,True,45,-,-,-
Y2-S2-197K23,2,17,AS,train,43,←,left,←,1.429584099969361,True,45,-,-,-
Y2-S2-197K23,2,18,AS,train,35,↓,down,↓,1.0713177000288852,True,45,-,-,-
Y2-S2-197K23,2,19,AS,train,44,→,right,→,1.0439312000526115,True,45,-,-,-
Y2-S2-197K23,2,20,AS,train,40,↓,down,↓,0.9230032000341453,True,45,-,-,-
Y2-S2-197K23,-,21,PS,adaptive,48,→,left,←,1.1662659999565221,False,10,-1,0,0
Y2-S2-197K23,-,22,PS,adaptive,50,↓,down,↓,0.7077189999981783,True,11,-1,0,0
Y2-S2-197K23,-,23,PS,adaptive,40,↑,up,↑,0.6942027999903075,True,11,-1,0,0
Y2-S2-197K23,-,24,PS,adaptive,36,↓,down,↓,0.8387455999618396,True,11,1,1,1
Y2-S2-197K23,-,25,PS,adaptive,37,↑,down,↓,1.0415112000191584,False,10,-1,1,2
Y2-S2-197K23,-,26,PS,adaptive,40,↓,down,↓,0.6656002000090666,True,11,-1,0,2
Y2-S2-197K23,-,27,PS,adaptive,48,↑,left,←,0.8109069000347517,False,11,-1,0,2
Y2-S2-197K23,-,28,PS,adaptive,35,←,left,←,0.6339572000433691,True,12,-1,0,2
Y2-S2-197K23,-,29,PS,adaptive,37,→,right,→,0.6026394999935292,True,12,-1,0,2
Y2-S2-197K23,-,30,PS,adaptive,39,↓,down,↓,0.5557497999980114,True,12,1,1,3
Y2-S2-197K23,-,31,PS,adaptive,34,↑,up,↑,0.6082455000141636,True,11,1,0,3
Y2-S2-197K23,-,32,PS,adaptive,39,←,left,←,0.5720877999556251,True,11,1,0,3
Y2-S2-197K23,-,33,PS,adaptive,43,→,right,→,0.5169495000154711,True,11,1,0,3
Y2-S2-197K23,-,34,PS,adaptive,50,↑,up,↑,0.6538224000250921,True,10,1,0,3
Y2-S2-197K23,-,35,PS,adaptive,37,←,right,→,0.6358831999823451,False,10,-1,1,4
Y2-S2-197K23,-,36,AS,adaptive,42,↓,down,↓,0.6609871999826282,True,20,0,0,0
Y2-S2-197K23,-,37,AS,adaptive,31,↑,up,↑,1.0079612000263296,True,20,0,0,0
Y2-S2-197K23,-,38,AS,adaptive,41,←,left,←,0.8861701000132598,True,20,1,0,0
Y2-S2-197K23,-,39,AS,adaptive,37,↑,up,↑,0.6453907999675721,True,19,1,0,0
Y2-S2-197K23,-,40,AS,adaptive,32,←,right,→,0.878303799952846,False,19,-1,1,1
Y2-S2-197K23,-,41,AS,adaptive,44,↓,down,↓,0.7371010000351816,True,20,-1,0,1
Y2-S2-197K23,-,42,AS,adaptive,46,↑,up,↑,0.6427139000152238,True,20,-1,0,1
Y2-S2-197K23,-,43,AS,adaptive,28,←,left,←,0.6848887000232935,True,20,1,1,2
Y2-S2-197K23,-,44,AS,adaptive,48,↑,up,↑,0.5964718000032008,True,19,1,0,2
Y2-S2-197K23,-,45,AS,adaptive,40,→,right,→,0.5668738000094891,True,19,1,0,2
Y2-S2-197K23,-,46,AS,adaptive,47,←,left,←,0.6231006999732926,True,19,1,0,2
Y2-S2-197K23,-,47,AS,adaptive,39,↓,up,↑,0.7881292999954894,False,18,-1,1,3
Y2-S2-197K23,-,48,AS,adaptive,46,↑,up,↑,0.5812026999774389,True,19,-1,0,3
Y2-S2-197K23,-,49,AS,adaptive,32,←,left,←,0.6242396000307053,True,19,-1,0,3
Y2-S2-197K23,-,50,AS,adaptive,29,↑,up,↑,0.60215380002046,True,19,1,1,4
Y2-S2-197K23,1,51,AS,intra_train,25,↓,down,↓,0.6459476000163704,True,27,-,-,-
Y2-S2-197K23,1,52,AS,intra_train,38,←,left,←,0.690578700043261,True,27,-,-,-
Y2-S2-197K23,1,53,AS,intra_train,26,↑,up,↑,0.6677836999879219,True,27,-,-,-
Y2-S2-197K23,1,54,AS,intra_train,39,↓,down,↓,0.6563158000353724,True,27,-,-,-
Y2-S2-197K23,1,55,AS,intra_train,34,→,right,→,0.6456932000000961,True,27,-,-,-
Y2-S2-197K23,1,56,AS,exp,42,↑,up,↑,0.6080687000066973,True,18,0,0,0
Y2-S2-197K23,1,57,AS,exp,34,←,up,↑,0.7721616999479011,False,18,-1,0,0
Y2-S2-197K23,1,58,AS,exp,31,↓,down,↓,0.6332591000245884,True,19,-1,0,0
Y2-S2-197K23,1,59,AS,exp,26,↑,up,↑,0.7103029999998398,True,19,-1,0,0
Y2-S2-197K23,1,60,AS,exp,46,←,left,←,0.5936005000257865,True,19,1,1,1
Y2-S2-197K23,1,61,AS,exp,28,↓,down,↓,0.8061370000359602,True,18,1,0,1
Y2-S2-197K23,1,62,AS,exp,25,↑,up,↑,0.6977229999611154,True,18,1,0,1
Y2-S2-197K23,1,63,AS,exp,44,←,left,←,0.6418810000177473,True,18,1,0,1
Y2-S2-197K23,1,64,AS,exp,40,→,right,→,0.6405057000229135,True,17,1,0,1
Y2-S2-197K23,1,65,AS,exp,49,↑,up,↑,0.7161872999859042,True,17,1,0,1
Y2-S2-197K23,1,66,AS,exp,37,↓,down,↓,0.6294233999797143,True,17,1,0,1
Y2-S2-197K23,1,67,AS,exp,46,↑,up,↑,0.6963779000216164,True,16,1,0,1
Y2-S2-197K23,1,68,AS,exp,36,←,left,←,0.5330205999780446,True,16,1,0,1
Y2-S2-197K23,1,69,AS,exp,34,↑,up,↑,0.8212363999919035,True,16,1,0,1
Y2-S2-197K23,1,70,AS,exp,43,→,right,→,0.5737794000306167,True,15,1,0,1
Y2-S2-197K23,1,71,AS,exp,33,←,left,←,0.566163300012704,True,15,1,0,1
Y2-S2-197K23,1,72,AS,exp,38,↑,up,↑,0.6543250999529846,True,15,1,0,1
Y2-S2-197K23,1,73,AS,exp,38,→,right,→,0.5918439999804832,True,14,1,0,1
Y2-S2-197K23,1,74,AS,exp,28,↑,up,↑,0.6723490000003949,True,14,1,0,1
Y2-S2-197K23,1,75,AS,exp,46,↓,down,↓,0.7120616000029258,True,14,1,0,1
Y2-S2-197K23,1,76,AS,exp,43,←,left,←,0.5970412000315264,True,13,1,0,1
Y2-S2-197K23,1,77,AS,exp,33,→,right,→,0.6372057000407949,True,13,1,0,1
Y2-S2-197K23,1,78,AS,exp,31,↑,left,←,0.707613600010518,False,13,-1,1,2
Y2-S2-197K23,1,79,AS,exp,42,←,left,←,0.6328663000022061,True,14,-1,0,2
Y2-S2-197K23,1,80,AS,exp,38,→,right,→,0.5652361999964342,True,14,-1,0,2
Y2-S2-197K23,1,81,AS,exp,42,↑,right,→,0.6165178999654017,False,14,-1,0,2
Y2-S2-197K23,1,82,AS,exp,34,↓,down,↓,0.6490748000214808,True,15,-1,0,2
Y2-S2-197K23,1,83,AS,exp,30,→,right,→,0.47088069998426363,True,15,-1,0,2
Y2-S2-197K23,1,84,AS,exp,37,←,left,←,0.4972229999839328,True,15,1,1,3
Y2-S2-197K23,1,85,AS,exp,50,↑,up,↑,0.6747274999506772,True,14,1,0,3
Y2-S2-197K23,1,86,AS,exp,41,→,right,→,0.5187211000011303,True,14,1,0,3
Y2-S2-197K23,1,87,AS,exp,29,↑,up,↑,0.7060879999771714,True,14,1,0,3
Y2-S2-197K23,1,88,AS,exp,35,→,right,→,0.5220018000109121,True,13,1,0,3
Y2-S2-197K23,1,89,AS,exp,31,↑,down,↓,0.7992881000391208,False,13,-1,1,4
Y2-S2-197K23,1,90,AS,exp,43,↓,down,↓,0.6816906000021845,True,14,-1,0,4
Y2-S2-197K23,1,91,AS,exp,48,←,left,←,0.6507759999949485,True,14,-1,0,4
Y2-S2-197K23,1,92,AS,exp,26,↓,down,↓,0.6970432999660261,True,14,1,1,5
Y2-S2-197K23,1,93,AS,exp,41,←,right,→,0.5577927000122145,False,13,-1,1,6
Y2-S2-197K23,1,94,AS,exp,32,→,right,→,0.6615635000052862,True,14,-1,0,6
Y2-S2-197K23,1,95,AS,exp,31,↑,up,↑,0.645013699948322,True,14,-1,0,6
Y2-S2-197K23,1,96,AS,exp,36,→,right,→,0.6410118999774568,True,14,1,1,7
Y2-S2-197K23,1,97,AS,exp,31,↑,up,↑,0.5866539999842644,True,13,1,0,7
Y2-S2-197K23,1,98,AS,exp,32,→,right,→,0.6031265000347048,True,13,1,0,7
Y2-S2-197K23,1,99,AS,exp,45,↑,up,↑,0.6951782000251114,True,13,1,0,7
Y2-S2-197K23,1,100,AS,exp,49,→,right,→,0.617507699993439,True,12,1,0,7
Y2-S2-197K23,1,101,AS,exp,39,↓,down,↓,0.6864889000426047,True,12,1,0,7
Y2-S2-197K23,1,102,AS,exp,49,→,right,→,0.4513793000369333,True,12,1,0,7
Y2-S2-197K23,1,103,AS,exp,45,←,left,←,0.5624449999886565,True,11,1,0,7
Y2-S2-197K23,1,104,AS,exp,41,↓,down,↓,0.49685629998566583,True,11,1,0,7
Y2-S2-197K23,1,105,AS,exp,50,↑,up,↑,0.6860732999630272,True,11,1,0,7
Y2-S2-197K23,1,106,AS,exp,34,↓,up,↑,0.9729630000074394,False,10,-1,1,8
Y2-S2-197K23,1,107,AS,exp,34,←,left,←,0.5360973000060767,True,11,-1,0,8
Y2-S2-197K23,1,108,AS,exp,28,↑,down,↓,0.6123410000000149,False,11,-1,0,8
Y2-S2-197K23,1,109,AS,exp,43,←,left,←,0.55783419997897,True,12,-1,0,8
Y2-S2-197K23,1,110,AS,exp,49,→,right,→,0.5548968999646604,True,12,-1,0,8
Y2-S2-197K23,1,111,AS,exp,43,↑,up,↑,0.684025099966675,True,12,1,1,9
Y2-S2-197K23,1,112,AS,exp,39,↓,down,↓,0.4984802999533713,True,11,1,0,9
Y2-S2-197K23,1,113,AS,exp,38,↑,up,↑,0.6823831999790855,True,11,1,0,9
Y2-S2-197K23,1,114,AS,exp,27,←,right,→,0.6145813000039198,False,11,-1,1,10
Y2-S2-197K23,1,115,AS,exp,43,→,right,→,0.6010801999946125,True,12,-1,0,10
Y2-S2-197K23,1,116,AS,exp,33,←,right,→,0.5890532999765128,False,12,-1,0,10
Y2-S2-197K23,1,117,AS,exp,33,↓,down,↓,0.5436753000249155,True,13,-1,0,10
Y2-S2-197K23,1,118,AS,exp,28,←,left,←,0.4866975000477396,True,13,-1,0,10
Y2-S2-197K23,1,119,AS,exp,47,↓,down,↓,0.5601272999774665,True,13,1,1,11
Y2-S2-197K23,1,120,AS,exp,31,←,right,→,0.6000939999939874,False,12,-1,1,12
Y2-S2-197K23,1,121,AS,exp,30,↓,down,↓,0.40404180000768974,True,13,-1,0,12
Y2-S2-197K23,1,122,AS,exp,28,←,left,←,0.4102322999970056,True,13,-1,0,12
Y2-S2-197K23,1,123,AS,exp,33,→,right,→,0.5159913999959826,True,13,1,1,13
Y2-S2-197K23,1,124,AS,exp,36,↓,down,↓,0.4430503999465145,True,12,1,0,13
Y2-S2-197K23,1,125,AS,exp,46,→,right,→,0.489646999980323,True,12,1,0,13
Y2-S2-197K23,1,126,AS,exp,25,←,left,←,0.5885863999719732,True,12,1,0,13
Y2-S2-197K23,1,127,AS,exp,27,↓,down,↓,0.4078756999806501,True,11,1,0,13
Y2-S2-197K23,1,128,AS,exp,29,←,left,←,0.6949362000450492,True,11,1,0,13
Y2-S2-197K23,1,129,AS,exp,28,→,right,→,0.48840549995657057,True,11,1,0,13
Y2-S2-197K23,1,130,AS,exp,44,↑,down,↓,0.5544224999612197,False,10,-1,1,14
Y2-S2-197K23,1,131,AS,exp,42,←,left,←,0.5069074000348337,True,11,-1,0,14
Y2-S2-197K23,1,132,AS,exp,44,→,right,→,0.6072051000082865,True,11,-1,0,14
Y2-S2-197K23,1,133,AS,exp,43,↑,up,↑,0.8339382000267506,True,11,1,1,15
Y2-S2-197K23,1,134,AS,exp,39,←,left,←,0.770149800053332,True,10,1,0,15
Y2-S2-197K23,1,135,AS,exp,45,→,right,→,1.0300967000075616,True,10,1,0,15
Y2-S2-197K23,1,136,AS,exp,47,↓,right,→,0.7051457999623381,False,10,-1,1,16
Y2-S2-197K23,2,137,PS,intra_train,45,↑,down,↓,0.780408599996008,False,16,-,-,-
Y2-S2-197K23,2,138,PS,intra_train,45,→,right,→,0.43881050002528355,True,16,-,-,-
Y2-S2-197K23,2,139,PS,intra_train,41,↑,up,↑,0.5459105999907479,True,16,-,-,-
Y2-S2-197K23,2,140,PS,intra_train,29,←,left,←,0.4527385999681428,True,16,-,-,-
Y2-S2-197K23,2,141,PS,intra_train,48,→,right,→,0.5453116999706253,True,16,-,-,-
Y2-S2-197K23,2,142,PS,exp,45,←,left,←,0.4181018999661319,True,11,0,0,0
Y2-S2-197K23,2,143,PS,exp,28,↓,down,↓,0.6298439999809489,True,11,0,0,0
Y2-S2-197K23,2,144,PS,exp,48,→,right,→,0.47342890000436455,True,11,1,0,0
Y2-S2-197K23,2,145,PS,exp,27,↑,down,↓,0.6273775000008754,False,10,-1,1,1
Y2-S2-197K23,2,146,PS,exp,47,↓,down,↓,0.4811512000160292,True,11,-1,0,1
Y2-S2-197K23,2,147,PS,exp,34,↑,up,↑,0.6241008999641053,True,11,-1,0,1
Y2-S2-197K23,2,148,PS,exp,40,→,right,→,0.37712969997664914,True,11,1,1,2
Y2-S2-197K23,2,149,PS,exp,47,↓,down,↓,0.5586731000221334,True,10,1,0,2
Y2-S2-197K23,2,150,PS,exp,41,→,right,→,0.4060705000301823,True,10,1,0,2
Y2-S2-197K23,2,151,PS,exp,28,↑,up,↑,0.5119255000026897,True,10,1,0,2
Y2-S2-197K23,2,152,PS,exp,45,←,right,→,0.6532949000247754,False,9,-1,1,3
Y2-S2-197K23,2,153,PS,exp,36,↑,right,→,0.48125059995800257,False,10,-1,0,3
Y2-S2-197K23,2,154,PS,exp,39,→,right,→,0.39970279997214675,True,11,-1,0,3
Y2-S2-197K23,2,155,PS,exp,49,←,left,←,0.5135924000060186,True,11,-1,0,3
Y2-S2-197K23,2,156,PS,exp,36,→,right,→,0.5462387999868952,True,11,1,1,4
Y2-S2-197K23,2,157,PS,exp,37,↓,down,↓,0.5774085000157356,True,10,1,0,4
Y2-S2-197K23,2,158,PS,exp,45,↑,up,↑,0.6053205999778584,True,10,1,0,4
Y2-S2-197K23,2,159,PS,exp,49,→,right,→,0.5166098999907263,True,10,1,0,4
Y2-S2-197K23,2,160,PS,exp,42,←,left,←,0.5286436000023969,True,9,1,0,4
Y2-S2-197K23,2,161,PS,exp,35,→,right,→,0.4198487999965437,True,9,1,0,4
Y2-S2-197K23,2,162,PS,exp,48,↑,up,↑,0.47522889997344464,True,9,1,0,4
Y2-S2-197K23,2,163,PS,exp,47,←,right,→,0.3135336000123061,False,8,-1,1,5
Y2-S2-197K23,2,164,PS,exp,38,↓,down,↓,0.6152503999765031,True,9,-1,0,5
Y2-S2-197K23,2,165,PS,exp,26,←,right,→,0.6308318999945186,False,9,-1,0,5
Y2-S2-197K23,2,166,PS,exp,34,↑,right,→,0.8290422999998555,False,10,-1,0,5
Y2-S2-197K23,2,167,PS,exp,44,↓,down,↓,0.4898825000273064,True,11,-1,0,5
Y2-S2-197K23,2,168,PS,exp,41,←,left,←,0.4872574999462813,True,11,-1,0,5
Y2-S2-197K23,2,169,PS,exp,43,↓,down,↓,0.4515988000202924,True,11,1,1,6
Y2-S2-197K23,2,170,PS,exp,26,←,left,←,0.5147585999802686,True,10,1,0,6
Y2-S2-197K23,2,171,PS,exp,34,↑,up,↑,0.6298373000463471,True,10,1,0,6
Y2-S2-197K23,2,172,PS,exp,35,↓,down,↓,0.4914040000294335,True,10,1,0,6
Y2-S2-197K23,2,173,PS,exp,29,→,left,←,0.6953476999769919,False,9,-1,1,7
Y2-S2-197K23,2,174,PS,exp,46,↓,down,↓,0.5473961000097916,True,10,-1,0,7
Y2-S2-197K23,2,175,PS,exp,46,↑,up,↑,0.524107399978675,True,10,-1,0,7
Y2-S2-197K23,2,176,PS,exp,31,←,down,↓,0.8064161000074819,False,10,-1,0,7
Y2-S2-197K23,2,177,PS,exp,30,↑,up,↑,0.5545986000215635,True,11,-1,0,7
Y2-S2-197K23,2,178,PS,exp,36,↓,down,↓,0.6685310999746434,True,11,-1,0,7
Y2-S2-197K23,2,179,PS,exp,41,←,left,←,0.4763282000203617,True,11,1,1,8
Y2-S2-197K23,2,180,PS,exp,29,↑,up,↑,0.6083036999916658,True,10,1,0,8
Y2-S2-197K23,2,181,PS,exp,29,←,left,←,0.46006989997113124,True,10,1,0,8
Y2-S2-197K23,2,182,PS,exp,30,→,left,←,0.8987555000348948,False,10,-1,1,9
Y2-S2-197K23,2,183,PS,exp,31,←,left,←,0.5542807999881916,True,11,-1,0,9
Y2-S2-197K23,2,184,PS,exp,26,↑,up,↑,0.711961799999699,True,11,-1,0,9
Y2-S2-197K23,2,185,PS,exp,29,→,right,→,0.49631570000201464,True,11,1,1,10
Y2-S2-197K23,2,186,PS,exp,26,↓,down,↓,0.6645462999586016,True,10,1,0,10
Y2-S2-197K23,2,187,PS,exp,41,→,right,→,0.5559063000255264,True,10,1,0,10
Y2-S2-197K23,2,188,PS,exp,42,↑,up,↑,0.5305277000297792,True,10,1,0,10
Y2-S2-197K23,2,189,PS,exp,31,↓,down,↓,0.6125649000168778,True,9,1,0,10
Y2-S2-197K23,2,190,PS,exp,25,←,right,→,0.58743069996126,False,9,-1,1,11
Y2-S2-197K23,2,191,PS,exp,36,→,right,→,0.7243454999988899,True,10,-1,0,11
Y2-S2-197K23,2,192,PS,exp,36,←,left,←,0.60497280000709,True,10,-1,0,11
Y2-S2-197K23,2,193,PS,exp,29,↓,down,↓,0.5090043999953195,True,10,1,1,12
Y2-S2-197K23,2,194,PS,exp,32,←,left,←,0.5529323000228032,True,9,1,0,12
Y2-S2-197K23,2,195,PS,exp,27,↓,right,→,0.670955799985677,False,9,-1,1,13
Y2-S2-197K23,2,196,PS,exp,37,↑,up,↑,0.5347849000245333,True,10,-1,0,13
Y2-S2-197K23,2,197,PS,exp,26,←,left,←,0.48301999998511747,True,10,-1,0,13
Y2-S2-197K23,2,198,PS,exp,26,↓,down,↓,0.7254748999839649,True,10,1,1,14
Y2-S2-197K23,2,199,PS,exp,34,→,right,→,0.4491825000150129,True,9,1,0,14
Y2-S2-197K23,2,200,PS,exp,37,↑,up,↑,0.4832314999657683,True,9,1,0,14
Y2-S2-197K23,2,201,PS,exp,33,↓,down,↓,0.8134477999992669,True,9,1,0,14
Y2-S2-197K23,2,202,PS,exp,37,←,left,←,0.4240251000155695,True,8,1,0,14
Y2-S2-197K23,2,203,PS,exp,44,→,left,←,0.6027709000045434,False,8,-1,1,15
Y2-S2-197K23,2,204,PS,exp,36,↑,up,↑,0.5100499999825843,True,9,-1,0,15
Y2-S2-197K23,2,205,PS,exp,49,→,right,→,0.41814259998500347,True,9,-1,0,15
Y2-S2-197K23,2,206,PS,exp,47,↓,right,→,0.5460734000080265,False,9,-1,0,15
Y2-S2-197K23,2,207,PS,exp,42,→,right,→,0.42137739999452606,True,10,-1,0,15
Y2-S2-197K23,2,208,PS,exp,42,↓,down,↓,0.5630696999724023,True,10,-1,0,15
Y2-S2-197K23,2,209,PS,exp,48,↑,up,↑,0.5803893000120297,True,10,1,1,16
Y2-S2-197K23,3,210,PS,intra_train,40,→,right,→,0.5327075000386685,True,16,-,-,-
Y2-S2-197K23,3,211,PS,intra_train,45,←,left,←,0.5893827000400051,True,16,-,-,-
Y2-S2-197K23,3,212,PS,intra_train,32,→,right,→,0.5692337999935262,True,16,-,-,-
Y2-S2-197K23,3,213,PS,intra_train,27,←,left,←,0.6319962000125088,True,16,-,-,-
Y2-S2-197K23,3,214,PS,intra_train,39,↑,up,↑,0.5714054999989457,True,16,-,-,-
Y2-S2-197K23,3,215,PS,exp,28,←,left,←,0.5273867000360042,True,11,0,0,0
Y2-S2-197K23,3,216,PS,exp,41,↑,up,↑,0.5266469999914989,True,11,0,0,0
Y2-S2-197K23,3,217,PS,exp,40,↓,down,↓,0.6351091000251472,True,11,1,0,0
Y2-S2-197K23,3,218,PS,exp,34,→,left,←,0.7237066000234336,False,10,-1,1,1
Y2-S2-197K23,3,219,PS,exp,26,←,left,←,0.5480358999921009,True,11,-1,0,1
Y2-S2-197K23,3,220,PS,exp,41,↑,up,↑,0.5630695999716409,True,11,-1,0,1
Y2-S2-197K23,3,221,PS,exp,48,←,left,←,0.44445579999592155,True,11,1,1,2
Y2-S2-197K23,3,222,PS,exp,31,→,right,→,0.784753100015223,True,10,1,0,2
Y2-S2-197K23,3,223,PS,exp,30,↑,up,↑,0.5856731000239961,True,10,1,0,2
Y2-S2-197K23,3,224,PS,exp,45,↓,right,→,0.5219937000074424,False,10,-1,1,3
Y2-S2-197K23,3,225,PS,exp,44,↑,down,↓,0.7596009999979287,False,11,-1,0,3
Y2-S2-197K23,3,226,PS,exp,44,→,right,→,0.4508475000038743,True,12,-1,0,3
Y2-S2-197K23,3,227,PS,exp,25,←,left,←,0.466222699964419,True,12,-1,0,3
Y2-S2-197K23,3,228,PS,exp,34,↑,up,↑,0.5409630999783985,True,12,1,1,4
Y2-S2-197K23,3,229,PS,exp,30,→,right,→,0.5274647999904118,True,11,1,0,4
Y2-S2-197K23,3,230,PS,exp,50,↑,down,↓,0.7290229999925941,False,11,-1,1,5
Y2-S2-197K23,3,231,PS,exp,36,↓,down,↓,0.4684963000472635,True,12,-1,0,5
Y2-S2-197K23,3,232,PS,exp,34,→,right,→,0.5693543000379577,True,12,-1,0,5
Y2-S2-197K23,3,233,PS,exp,39,↓,down,↓,0.5090325000346638,True,12,1,1,6
Y2-S2-197K23,3,234,PS,exp,32,→,right,→,0.47744479996617883,True,11,1,0,6
Y2-S2-197K23,3,235,PS,exp,45,↑,up,↑,0.6866510999971069,True,11,1,0,6
Y2-S2-197K23,3,236,PS,exp,34,→,right,→,0.6134427000069991,True,11,1,0,6
Y2-S2-197K23,3,237,PS,exp,40,↓,down,↓,0.4660157000180334,True,10,1,0,6
Y2-S2-197K23,3,238,PS,exp,32,←,left,←,0.5909285000525415,True,10,1,0,6
Y2-S2-197K23,3,239,PS,exp,29,→,right,→,0.4241401999606751,True,10,1,0,6
Y2-S2-197K23,3,240,PS,exp,28,←,right,→,0.38113370002247393,False,9,-1,1,7
Y2-S2-197K23,3,241,PS,exp,34,↓,down,↓,0.47187209996627644,True,10,-1,0,7
Y2-S2-197K23,3,242,PS,exp,28,→,right,→,0.4728301999857649,True,10,-1,0,7
Y2-S2-197K23,3,243,PS,exp,43,←,left,←,0.4687230000272393,True,10,1,1,8
Y2-S2-197K23,3,244,PS,exp,28,→,right,→,0.45393249997869134,True,9,1,0,8
Y2-S2-197K23,3,245,PS,exp,48,↓,down,↓,0.5007605999708176,True,9,1,0,8
Y2-S2-197K23,3,246,PS,exp,41,→,right,→,0.4536599999992177,True,9,1,0,8
Y2-S2-197K23,3,247,PS,exp,33,←,left,←,0.4789238999946974,True,8,1,0,8
Y2-S2-197K23,3,248,PS,exp,49,→,right,→,0.10080500005278736,True,8,1,0,8
Y2-S2-197K23,3,249,PS,exp,27,↓,down,↓,0.5178888000082225,True,8,1,0,8
Y2-S2-197K23,3,250,PS,exp,30,→,down,↓,0.7241731000249274,False,7,-1,1,9
Y2-S2-197K23,3,251,PS,exp,41,←,right,→,0.765587100002449,False,8,-1,0,9
Y2-S2-197K23,3,252,PS,exp,40,↑,up,↑,0.5831959000206552,True,9,-1,0,9
Y2-S2-197K23,3,253,PS,exp,28,↓,down,↓,0.6234151999815367,True,9,-1,0,9
Y2-S2-197K23,3,254,PS,exp,49,↑,up,↑,0.6162479000049643,True,9,1,1,10
Y2-S2-197K23,3,255,PS,exp,41,↓,down,↓,0.5737977999961004,True,8,1,0,10
Y2-S2-197K23,3,256,PS,exp,35,↑,right,→,0.644392299989704,False,8,-1,1,11
Y2-S2-197K23,3,257,PS,exp,40,↓,down,↓,0.3999282000004314,True,9,-1,0,11
Y2-S2-197K23,3,258,PS,exp,49,↑,up,↑,0.5612286999821663,True,9,-1,0,11
Y2-S2-197K23,3,259,PS,exp,27,←,left,←,0.4860014999867417,True,9,1,1,12
Y2-S2-197K23,3,260,PS,exp,43,→,right,→,0.5477485000155866,True,8,1,0,12
Y2-S2-197K23,3,261,PS,exp,38,↓,right,→,0.562562299950514,False,8,-1,1,13
Y2-S2-197K23,3,262,PS,exp,35,↑,up,↑,0.4899574000155553,True,9,-1,0,13
Y2-S2-197K23,3,263,PS,exp,31,←,left,←,0.4517371999681927,True,9,-1,0,13
Y2-S2-197K23,3,264,PS,exp,32,→,right,→,0.4239460999961011,True,9,1,1,14
Y2-S2-197K23,3,265,PS,exp,46,↑,up,↑,0.5373045000014827,True,8,1,0,14
Y2-S2-197K23,3,266,PS,exp,49,→,right,→,0.5698586999787949,True,8,1,0,14
Y2-S2-197K23,3,267,PS,exp,34,←,left,←,0.5443365999963135,True,8,1,0,14
Y2-S2-197K23,3,268,PS,exp,42,↑,up,↑,0.41588509996654466,True,7,1,0,14
Y2-S2-197K23,3,269,PS,exp,43,←,right,→,0.6062293000286445,False,7,-1,1,15
Y2-S2-197K23,3,270,PS,exp,46,↑,up,↑,0.545922800025437,True,8,-1,0,15
Y2-S2-197K23,3,271,PS,exp,36,↓,down,↓,0.6285367000382394,True,8,-1,0,15
Y2-S2-197K23,3,272,PS,exp,26,←,left,←,0.4869198999949731,True,8,1,1,16
Y2-S2-197K23,4,273,AS,intra_train,36,→,right,→,0.5672509999712929,True,27,-,-,-
Y2-S2-197K23,4,274,AS,intra_train,47,↑,up,↑,1.256591400015168,True,27,-,-,-
Y2-S2-197K23,4,275,AS,intra_train,35,→,right,→,0.8306155000464059,True,27,-,-,-
Y2-S2-197K23,4,276,AS,intra_train,35,←,left,←,0.6682015999685973,True,27,-,-,-
Y2-S2-197K23,4,277,AS,intra_train,35,→,right,→,0.6554982000379823,True,27,-,-,-
Y2-S2-197K23,4,278,AS,exp,33,↓,down,↓,0.7344141000066884,True,18,0,0,0
Y2-S2-197K23,4,279,AS,exp,32,←,left,←,1.0120221000397578,True,18,0,0,0
Y2-S2-197K23,4,280,AS,exp,42,↓,down,↓,0.5892783000017516,True,18,1,0,0
Y2-S2-197K23,4,281,AS,exp,41,←,down,↓,0.8173812000313774,False,17,-1,1,1
Y2-S2-197K23,4,282,AS,exp,27,→,right,→,0.5493581999908201,True,18,-1,0,1
Y2-S2-197K23,4,283,AS,exp,32,↑,up,↑,0.7820377000025474,True,18,-1,0,1
Y2-S2-197K23,4,284,AS,exp,27,↓,down,↓,0.4861191000090912,True,18,1,1,2
Y2-S2-197K23,4,285,AS,exp,45,↑,up,↑,0.6078640000196174,True,17,1,0,2
Y2-S2-197K23,4,286,AS,exp,40,→,right,→,0.5075157000101171,True,17,1,0,2
Y2-S2-197K23,4,287,AS,exp,44,↑,up,↑,0.6598123000003397,True,17,1,0,2
Y2-S2-197K23,4,288,AS,exp,45,↓,down,↓,0.6684590000077151,True,16,1,0,2
Y2-S2-197K23,4,289,AS,exp,42,←,left,←,0.5280339000164531,True,16,1,0,2
Y2-S2-197K23,4,290,AS,exp,39,→,right,→,0.6042219000519253,True,16,1,0,2
Y2-S2-197K23,4,291,AS,exp,36,↓,down,↓,0.6046770999673754,True,15,1,0,2
Y2-S2-197K23,4,292,AS,exp,49,↑,right,→,0.6633212000015192,False,15,-1,1,3
Y2-S2-197K23,4,293,AS,exp,43,←,left,←,0.5931298000505194,True,16,-1,0,3
Y2-S2-197K23,4,294,AS,exp,27,→,right,→,0.6046452999580652,True,16,-1,0,3
Y2-S2-197K23,4,295,AS,exp,46,↓,down,↓,0.7689447000157088,True,16,1,1,4
Y2-S2-197K23,4,296,AS,exp,39,←,left,←,0.44746460003079847,True,15,1,0,4
Y2-S2-197K23,4,297,AS,exp,37,↑,up,↑,0.6011196000035852,True,15,1,0,4
Y2-S2-197K23,4,298,AS,exp,29,→,right,→,0.6101620999979787,True,15,1,0,4
Y2-S2-197K23,4,299,AS,exp,41,←,left,←,0.4785050000064075,True,14,1,0,4
Y2-S2-197K23,4,300,AS,exp,27,→,right,→,0.5499692999874242,True,14,1,0,4
Y2-S2-197K23,4,301,AS,exp,41,↓,down,↓,0.6828304000082426,True,14,1,0,4
Y2-S2-197K23,4,302,AS,exp,34,↑,up,↑,0.5040182000375353,True,13,1,0,4
Y2-S2-197K23,4,303,AS,exp,36,↓,down,↓,0.5769417000119574,True,13,1,0,4
Y2-S2-197K23,4,304,AS,exp,39,→,right,→,0.5908850000123493,True,13,1,0,4
Y2-S2-197K23,4,305,AS,exp,47,↓,down,↓,0.6605369999888353,True,12,1,0,4
Y2-S2-197K23,4,306,AS,exp,26,→,right,→,0.5829682000330649,True,12,1,0,4
Y2-S2-197K23,4,307,AS,exp,45,↓,down,↓,0.6533248999621719,True,12,1,0,4
Y2-S2-197K23,4,308,AS,exp,26,↑,up,↑,0.4392662000027485,True,11,1,0,4
Y2-S2-197K23,4,309,AS,exp,47,←,right,→,0.559198800008744,False,11,-1,1,5
Y2-S2-197K23,4,310,AS,exp,26,→,left,←,0.5759084999444894,False,12,-1,0,5
Y2-S2-197K23,4,311,AS,exp,30,←,down,↓,0.7638933999696746,False,13,-1,0,5
Y2-S2-197K23,4,312,AS,exp,48,↑,up,↑,0.8033202000078745,True,14,-1,0,5
Y2-S2-197K23,4,313,AS,exp,29,↓,down,↓,0.727096899994649,True,14,-1,0,5
Y2-S2-197K23,4,314,AS,exp,37,→,right,→,0.4027193000074476,True,14,1,1,6
Y2-S2-197K23,4,315,AS,exp,41,↑,up,↑,0.3851559999748133,True,13,1,0,6
Y2-S2-197K23,4,316,AS,exp,45,→,right,→,0.5852434000116773,True,13,1,0,6
Y2-S2-197K23,4,317,AS,exp,35,←,left,←,0.3965671000187285,True,13,1,0,6
Y2-S2-197K23,4,318,AS,exp,32,↑,up,↑,0.6389504999970086,True,12,1,0,6
Y2-S2-197K23,4,319,AS,exp,34,←,right,→,0.5711820999858901,False,12,-1,1,7
Y2-S2-197K23,4,320,AS,exp,46,→,right,→,0.4823276999522932,True,13,-1,0,7
Y2-S2-197K23,4,321,AS,exp,29,←,left,←,0.3917296000290662,True,13,-1,0,7
Y2-S2-197K23,4,322,AS,exp,25,↓,right,→,0.45763680001255125,False,13,-1,0,7
Y2-S2-197K23,4,323,AS,exp,49,→,right,→,0.4481265000067651,True,14,-1,0,7
Y2-S2-197K23,4,324,AS,exp,36,↓,right,→,0.8263735999935307,False,14,-1,0,7
Y2-S2-197K23,4,325,AS,exp,40,←,right,→,0.5769379999837838,False,15,-1,0,7
Y2-S2-197K23,4,326,AS,exp,29,↑,up,↑,0.46612920000916347,True,16,-1,0,7
Y2-S2-197K23,4,327,AS,exp,31,↓,up,↑,0.7718431000248529,False,16,-1,0,7
Y2-S2-197K23,4,328,AS,exp,27,←,right,→,0.5223113000392914,False,17,-1,0,7
Y2-S2-197K23,4,329,AS,exp,42,↑,right,→,0.417497500020545,False,18,-1,0,7
Y2-S2-197K23,4,330,AS,exp,35,←,right,→,0.4504528999677859,False,19,-1,0,7
Y2-S2-197K23,4,331,AS,exp,40,→,right,→,1.420357699971646,True,20,-1,0,7
Y2-S2-197K23,4,332,AS,exp,39,↑,up,↑,1.2801342000020668,True,20,-1,0,7
Y2-S2-197K23,4,333,AS,exp,47,→,right,→,0.6030416000285186,True,20,1,1,8
Y2-S2-197K23,4,334,AS,exp,48,↓,down,↓,0.6843699999735691,True,19,1,0,8
Y2-S2-197K23,4,335,AS,exp,46,←,right,→,0.7136920000193641,False,19,-1,1,9
Y2-S2-197K23,4,336,AS,exp,39,→,right,→,1.0176077000214718,True,20,-1,0,9
Y2-S2-197K23,4,337,AS,exp,38,↓,right,→,0.5840723000001162,False,20,-1,0,9
Y2-S2-197K23,4,338,AS,exp,50,→,right,→,0.4672216000035405,True,21,-1,0,9
Y2-S2-197K23,4,339,AS,exp,49,←,right,→,0.5704934999812394,False,21,-1,0,9
Y2-S2-197K23,4,340,AS,exp,41,→,right,→,0.41736419999506325,True,22,-1,0,9
Y2-S2-197K23,4,341,AS,exp,27,←,left,←,0.5008473000489175,True,22,-1,0,9
Y2-S2-197K23,4,342,AS,exp,44,↓,down,↓,0.5706466999836266,True,22,1,1,10
Y2-S2-197K23,4,343,AS,exp,30,↑,down,↓,0.6787665999727324,False,21,-1,1,11
Y2-S2-197K23,4,344,AS,exp,43,→,right,→,0.48398469999665394,True,22,-1,0,11
Y2-S2-197K23,4,345,AS,exp,48,↓,right,→,0.4171794999856502,False,22,-1,0,11
Y2-S2-197K23,4,346,AS,exp,28,←,right,→,0.484103899972979,False,23,-1,0,11
Y2-S2-197K23,4,347,AS,exp,42,→,right,→,0.5002835000050254,True,24,-1,0,11
Y2-S2-197K23,4,348,AS,exp,25,↑,up,↑,0.7734747999929823,True,24,-1,0,11
Y2-S2-197K23,4,349,AS,exp,27,→,right,→,0.6379699999815784,True,24,1,1,12
Y2-S2-197K23,4,350,AS,exp,38,↓,down,↓,0.7711541000171565,True,23,1,0,12
Y2-S2-197K23,4,351,AS,exp,34,→,right,→,0.6533950999728404,True,23,1,0,12
Y2-S2-197K23,4,352,AS,exp,25,←,left,←,0.7235790000413544,True,23,1,0,12
Y2-S2-197K23,4,353,AS,exp,39,→,right,→,0.8467354999738745,True,22,1,0,12
Y2-S2-197K23,4,354,AS,exp,41,↓,down,↓,0.7927436000318266,True,22,1,0,12
Y2-S2-197K23,4,355,AS,exp,49,→,right,→,0.6188718000194058,True,22,1,0,12
Y2-S2-197K23,4,356,AS,exp,50,←,left,←,0.6472247000201605,True,21,1,0,12
Y2-S2-197K23,4,357,AS,exp,38,→,right,→,0.6591833000420593,True,21,1,0,12
Y2-S2-197K23,4,358,AS,exp,41,←,left,←,0.6370076999883167,True,21,1,0,12
Y2-S2-197K23,4,359,AS,exp,43,→,right,→,0.7042783999931999,True,20,1,0,12
Y2-S2-197K23,4,360,AS,exp,45,↑,up,↑,0.7807358000427485,True,20,1,0,12
Y2-S2-197K23,4,361,AS,exp,34,←,left,←,0.7242258000187576,True,20,1,0,12
Y2-S2-197K23,4,362,AS,exp,49,↓,down,↓,0.6848206000286154,True,19,1,0,12
Y2-S2-197K23,4,363,AS,exp,44,←,left,←,0.6507174000144005,True,19,1,0,12
Y2-S2-197K23,4,364,AS,exp,49,→,right,→,0.637458199984394,True,19,1,0,12
Y2-S2-197K23,4,365,AS,exp,32,←,left,←,0.6379027999937534,True,18,1,0,12
Y2-S2-197K23,4,366,AS,exp,44,↑,up,↑,0.8234229999943636,True,18,1,0,12
Y2-S2-197K23,4,367,AS,exp,34,→,right,→,0.6405733000137843,True,18,1,0,12
Y2-S2-197K23,4,368,AS,exp,40,↑,up,↑,0.786233099992387,True,17,1,0,12
Y2-S2-197K23,4,369,AS,exp,35,↓,down,↓,0.7088133000070229,True,17,1,0,12
Y2-S2-197K23,4,370,AS,exp,49,→,right,→,0.6213026000186801,True,17,1,0,12
Y2-S2-197K23,4,371,AS,exp,28,←,left,←,0.4768272000364959,True,16,1,0,12
Y2-S2-197K23,4,372,AS,exp,32,↑,up,↑,0.7614412999828346,True,16,1,0,12
Y2-S2-197K23,4,373,AS,exp,43,←,left,←,1.157487399992533,True,16,1,0,12
Y2-S2-197K23,4,374,AS,exp,29,↓,down,↓,0.6543983000447042,True,15,1,0,12
Y2-S2-197K23,4,375,AS,exp,42,↑,up,↑,0.5592302000150084,True,15,1,0,12
Y2-S2-197K23,4,376,AS,exp,32,←,left,←,0.48230239999247715,True,15,1,0,12
Y2-S2-197K23,4,377,AS,exp,44,↑,up,↑,0.6248135000350885,True,14,1,0,12
Y2-S2-197K23,4,378,AS,exp,44,↓,down,↓,0.6752273999736644,True,14,1,0,12
Y2-S2-197K23,4,379,AS,exp,43,→,right,→,0.5560100000002421,True,14,1,0,12
Y2-S2-197K23,4,380,AS,exp,36,←,left,←,0.5718847999814898,True,13,1,0,12
Y2-S2-197K23,4,381,AS,exp,29,→,right,→,0.6402641999884509,True,13,1,0,12
Y2-S2-197K23,4,382,AS,exp,46,↓,down,↓,0.44797310000285506,True,13,1,0,12
Y2-S2-197K23,4,383,AS,exp,40,↑,up,↑,0.5706346000079066,True,12,1,0,12
Y2-S2-197K23,4,384,AS,exp,37,←,left,←,0.5314692000392824,True,12,1,0,12
Y2-S2-197K23,4,385,AS,exp,38,→,right,→,0.4503190999967046,True,12,1,0,12
Y2-S2-197K23,4,386,AS,exp,28,←,right,→,0.489729700027965,False,11,-1,1,13
Y2-S2-197K23,4,387,AS,exp,26,→,right,→,0.600302400009241,True,12,-1,0,13
Y2-S2-197K23,4,388,AS,exp,28,↓,left,←,0.7138163999770768,False,12,-1,0,13
Y2-S2-197K23,4,389,AS,exp,31,↑,up,↑,0.5471071000210941,True,13,-1,0,13
Y2-S2-197K23,4,390,AS,exp,37,←,left,←,0.5110672999871895,True,13,-1,0,13
Y2-S2-197K23,4,391,AS,exp,44,↓,down,↓,0.6671341999899596,True,13,1,1,14
Y2-S2-197K23,4,392,AS,exp,42,←,left,←,0.4495984999812208,True,12,1,0,14
Y2-S2-197K23,4,393,AS,exp,45,↑,up,↑,0.4459954000194557,True,12,1,0,14
Y2-S2-197K23,4,394,AS,exp,35,←,left,←,0.43642099999124184,True,12,1,0,14
Y2-S2-197K23,4,395,AS,exp,39,→,left,←,0.6893707000417635,False,11,-1,1,15
Y2-S2-197K23,4,396,AS,exp,31,↓,down,↓,0.4856073000119068,True,12,-1,0,15
Y2-S2-197K23,4,397,AS,exp,39,↑,down,↓,0.604466599994339,False,12,-1,0,15
Y2-S2-197K23,4,398,AS,exp,37,→,right,→,0.5591192000429146,True,13,-1,0,15
Y2-S2-197K23,4,399,AS,exp,36,←,no_key,no_letter,-1.0,False,13,-1,0,15
Y2-S2-197K23,4,400,AS,exp,41,→,right,→,0.5198743999935687,True,14,-1,0,15
Y2-S2-197K23,4,401,AS,exp,26,↑,no_key,no_letter,-1.0,False,14,-1,0,15
Y2-S2-197K23,4,402,AS,exp,41,→,right,→,0.5835377000039443,True,15,-1,0,15
Y2-S2-197K23,4,403,AS,exp,50,←,left,←,0.5735835999948904,True,15,-1,0,15
Y2-S2-197K23,4,404,AS,exp,26,↑,up,↑,0.649458100029733,True,15,1,1,16
Y2-S2-197K23,5,405,AS,intra_train,31,←,left,←,0.6227283999905922,True,27,-,-,-
Y2-S2-197K23,5,406,AS,intra_train,38,↑,up,↑,0.6290330000338145,True,27,-,-,-
Y2-S2-197K23,5,407,AS,intra_train,34,←,left,←,0.5668638999923132,True,27,-,-,-
Y2-S2-197K23,5,408,AS,intra_train,29,→,right,→,0.7154747999738902,True,27,-,-,-
Y2-S2-197K23,5,409,AS,intra_train,43,↑,up,↑,0.6278954999870621,True,27,-,-,-
Y2-S2-197K23,5,410,AS,exp,50,→,right,→,0.5828284000162967,True,18,0,0,0
Y2-S2-197K23,5,411,AS,exp,32,↑,up,↑,0.4712899999576621,True,18,0,0,0
Y2-S2-197K23,5,412,AS,exp,50,↓,down,↓,0.567424199951347,True,18,1,0,0
Y2-S2-197K23,5,413,AS,exp,26,←,right,→,0.6549136000103317,False,17,-1,1,1
Y2-S2-197K23,5,414,AS,exp,31,→,right,→,0.47603259998140857,True,18,-1,0,1
Y2-S2-197K23,5,415,AS,exp,25,←,left,←,0.5361664000083692,True,18,-1,0,1
Y2-S2-197K23,5,416,AS,exp,38,↑,down,↓,0.7332247000304051,False,18,-1,0,1
Y2-S2-197K23,5,417,AS,exp,50,←,left,←,1.3707871999940835,True,19,-1,0,1
Y2-S2-197K23,5,418,AS,exp,39,↑,up,↑,0.6388945000362583,True,19,-1,0,1
Y2-S2-197K23,5,419,AS,exp,33,↓,down,↓,0.696184300002642,True,19,1,1,2
Y2-S2-197K23,5,420,AS,exp,39,↑,up,↑,0.47589429997606203,True,18,1,0,2
Y2-S2-197K23,5,421,AS,exp,32,→,right,→,0.5995997000136413,True,18,1,0,2
Y2-S2-197K23,5,422,AS,exp,41,↑,up,↑,0.5876467000343837,True,18,1,0,2
Y2-S2-197K23,5,423,AS,exp,36,←,left,←,0.648858799948357,True,17,1,0,2
Y2-S2-197K23,5,424,AS,exp,27,→,left,←,0.6903593000024557,False,17,-1,1,3
Y2-S2-197K23,5,425,AS,exp,46,←,left,←,0.51629610004602,True,18,-1,0,3
Y2-S2-197K23,5,426,AS,exp,45,↓,left,←,0.43423860002076253,False,18,-1,0,3
Y2-S2-197K23,5,427,AS,exp,31,↑,up,↑,0.6373382000019774,True,19,-1,0,3
Y2-S2-197K23,5,428,AS,exp,28,←,left,←,1.141226700041443,True,19,-1,0,3
Y2-S2-197K23,5,429,AS,exp,39,↓,down,↓,0.9016080999863334,True,19,1,1,4
Y2-S2-197K23,5,430,AS,exp,49,←,left,←,0.6036298999679275,True,18,1,0,4
Y2-S2-197K23,5,431,AS,exp,31,↑,up,↑,0.5766556999878958,True,18,1,0,4
Y2-S2-197K23,5,432,AS,exp,29,↓,down,↓,0.8118643999914639,True,18,1,0,4
Y2-S2-197K23,5,433,AS,exp,32,→,right,→,0.6660889000049792,True,17,1,0,4
Y2-S2-197K23,5,434,AS,exp,50,↓,down,↓,0.8077344999765046,True,17,1,0,4
Y2-S2-197K23,5,435,AS,exp,47,←,left,←,0.7371659000054933,True,17,1,0,4
Y2-S2-197K23,5,436,AS,exp,35,↑,up,↑,0.5685610999935307,True,16,1,0,4
Y2-S2-197K23,5,437,AS,exp,32,←,left,←,0.5772869000211358,True,16,1,0,4
Y2-S2-197K23,5,438,AS,exp,35,↑,up,↑,0.5076593999983743,True,16,1,0,4
Y2-S2-197K23,5,439,AS,exp,34,↓,down,↓,0.7767061999766156,True,15,1,0,4
Y2-S2-197K23,5,440,AS,exp,34,→,right,→,0.5008333000005223,True,15,1,0,4
Y2-S2-197K23,5,441,AS,exp,30,↓,down,↓,0.6493768999935128,True,15,1,0,4
Y2-S2-197K23,5,442,AS,exp,33,←,right,→,0.8232643000083044,False,14,-1,1,5
Y2-S2-197K23,5,443,AS,exp,27,↓,down,↓,0.6998714000219479,True,15,-1,0,5
Y2-S2-197K23,5,444,AS,exp,45,→,right,→,0.4491008000331931,True,15,-1,0,5
Y2-S2-197K23,5,445,AS,exp,34,↓,down,↓,0.621620999998413,True,15,1,1,6
Y2-S2-197K23,5,446,AS,exp,26,←,right,→,0.5404825000441633,False,14,-1,1,7
Y2-S2-197K23,5,447,AS,exp,45,→,right,→,0.501212699979078,True,15,-1,0,7
Y2-S2-197K23,5,448,AS,exp,43,←,left,←,0.46876989997690544,True,15,-1,0,7
Y2-S2-197K23,5,449,AS,exp,50,↓,down,↓,0.553630999987945,True,15,1,1,8
Y2-S2-197K23,5,450,AS,exp,27,→,right,→,0.43277740001212806,True,14,1,0,8
Y2-S2-197K23,5,451,AS,exp,45,↑,up,↑,0.45733610005117953,True,14,1,0,8
Y2-S2-197K23,5,452,AS,exp,35,←,left,←,0.36759380000876263,True,14,1,0,8
Y2-S2-197K23,5,453,AS,exp,32,↑,right,→,0.7304344999720342,False,13,-1,1,9
Y2-S2-197K23,5,454,AS,exp,26,→,right,→,0.7608328000060283,True,14,-1,0,9
Y2-S2-197K23,5,455,AS,exp,47,←,left,←,0.46855150000192225,True,14,-1,0,9
Y2-S2-197K23,5,456,AS,exp,25,↓,down,↓,0.5963931999867782,True,14,1,1,10
Y2-S2-197K23,5,457,AS,exp,41,↑,up,↑,0.46353290003025904,True,13,1,0,10
Y2-S2-197K23,5,458,AS,exp,46,→,right,→,0.4850379999843426,True,13,1,0,10
Y2-S2-197K23,5,459,AS,exp,30,↓,down,↓,0.5215700999833643,True,13,1,0,10
Y2-S2-197K23,5,460,AS,exp,44,↑,right,→,0.7456287000095472,False,12,-1,1,11
Y2-S2-197K23,5,461,AS,exp,39,→,right,→,0.4286213000304997,True,13,-1,0,11
Y2-S2-197K23,5,462,AS,exp,34,↑,down,↓,0.7201483999961056,False,13,-1,0,11
Y2-S2-197K23,5,463,AS,exp,38,←,right,→,0.4379661999992095,False,14,-1,0,11
Y2-S2-197K23,5,464,AS,exp,44,↓,down,↓,0.6237012000055984,True,15,-1,0,11
Y2-S2-197K23,5,465,AS,exp,37,↑,up,↑,0.7024659999879077,True,15,-1,0,11
Y2-S2-197K23,5,466,AS,exp,48,←,left,←,0.42620839999290183,True,15,1,1,12
Y2-S2-197K23,5,467,AS,exp,25,→,right,→,0.4901265999651514,True,14,1,0,12
Y2-S2-197K23,5,468,AS,exp,50,←,right,→,0.6932710999972187,False,14,-1,1,13
Y2-S2-197K23,5,469,AS,exp,31,↓,down,↓,0.6477060000179335,True,15,-1,0,13
Y2-S2-197K23,5,470,AS,exp,37,↑,up,↑,0.6777537000016309,True,15,-1,0,13
Y2-S2-197K23,5,471,AS,exp,28,↓,down,↓,0.5401602999772877,True,15,1,1,14
Y2-S2-197K23,5,472,AS,exp,28,→,left,←,0.49244619999080896,False,14,-1,1,15
Y2-S2-197K23,5,473,AS,exp,30,↓,down,↓,0.6421299999929033,True,15,-1,0,15
Y2-S2-197K23,5,474,AS,exp,37,←,up,↑,0.7271901000058278,False,15,-1,0,15
Y2-S2-197K23,5,475,AS,exp,40,↑,up,↑,0.6303916000179015,True,16,-1,0,15
Y2-S2-197K23,5,476,AS,exp,45,←,left,←,0.6252254999708384,True,16,-1,0,15
Y2-S2-197K23,5,477,AS,exp,39,→,right,→,0.6755972999962978,True,16,1,1,16
Y2-S2-197K23,6,478,PS,intra_train,40,↑,up,↑,0.5284778000204824,True,16,-,-,-
Y2-S2-197K23,6,479,PS,intra_train,38,→,right,→,0.6101452999864705,True,16,-,-,-
Y2-S2-197K23,6,480,PS,intra_train,36,↓,down,↓,0.7131958000245504,True,16,-,-,-
Y2-S2-197K23,6,481,PS,intra_train,30,←,left,←,0.6230896000051871,True,16,-,-,-
Y2-S2-197K23,6,482,PS,intra_train,47,↓,down,↓,0.7136220000102185,True,16,-,-,-
Y2-S2-197K23,6,483,PS,exp,34,↑,down,↓,0.735330099996645,False,11,-1,0,0
Y2-S2-197K23,6,484,PS,exp,29,→,right,→,0.7312663000193425,True,12,-1,0,0
Y2-S2-197K23,6,485,PS,exp,35,←,left,←,0.4517028999980539,True,12,-1,0,0
Y2-S2-197K23,6,486,PS,exp,44,↓,down,↓,0.5558996999752708,True,12,1,1,1
Y2-S2-197K23,6,487,PS,exp,45,←,left,←,0.38160840002819896,True,11,1,0,1
Y2-S2-197K23,6,488,PS,exp,38,↑,up,↑,0.5740341999917291,True,11,1,0,1
Y2-S2-197K23,6,489,PS,exp,26,→,right,→,0.4560638000257313,True,11,1,0,1
Y2-S2-197K23,6,490,PS,exp,34,↑,up,↑,0.47381530003622174,True,10,1,0,1
Y2-S2-197K23,6,491,PS,exp,43,↓,down,↓,0.6867668000049889,True,10,1,0,1
Y2-S2-197K23,6,492,PS,exp,43,→,right,→,0.5530659999931231,True,10,1,0,1
Y2-S2-197K23,6,493,PS,exp,35,↑,up,↑,0.3945403000107035,True,9,1,0,1
Y2-S2-197K23,6,494,PS,exp,45,↓,down,↓,0.5905082999961451,True,9,1,0,1
Y2-S2-197K23,6,495,PS,exp,45,←,left,←,0.8494642999721691,True,9,1,0,1
Y2-S2-197K23,6,496,PS,exp,33,↓,down,↓,0.625366100051906,True,8,1,0,1
Y2-S2-197K23,6,497,PS,exp,40,←,right,→,0.5912166999769397,False,8,-1,1,2
Y2-S2-197K23,6,498,PS,exp,40,→,right,→,0.734540100034792,True,9,-1,0,2
Y2-S2-197K23,6,499,PS,exp,37,↓,down,↓,0.5395075000124052,True,9,-1,0,2
Y2-S2-197K23,6,500,PS,exp,48,↑,up,↑,0.5594446999602951,True,9,1,1,3
Y2-S2-197K23,6,501,PS,exp,33,←,left,←,0.40528109995648265,True,8,1,0,3
Y2-S2-197K23,6,502,PS,exp,49,→,left,←,0.5611175000085495,False,8,-1,1,4
Y2-S2-197K23,6,503,PS,exp,28,←,left,←,0.4821250999812037,True,9,-1,0,4
Y2-S2-197K23,6,504,PS,exp,33,→,right,→,0.4138491000048816,True,9,-1,0,4
Y2-S2-197K23,6,505,PS,exp,37,↑,up,↑,0.5852151999715716,True,9,1,1,5
Y2-S2-197K23,6,506,PS,exp,37,→,down,↓,0.9960310999886133,False,8,-1,1,6
Y2-S2-197K23,6,507,PS,exp,28,↓,right,→,0.7718886000220664,False,9,-1,0,6
Y2-S2-197K23,6,508,PS,exp,32,→,down,↓,0.777888200012967,False,10,-1,0,6
Y2-S2-197K23,6,509,PS,exp,37,←,left,←,0.42529619997367263,True,11,-1,0,6
Y2-S2-197K23,6,510,PS,exp,38,→,right,→,0.6340499000507407,True,11,-1,0,6
Y2-S2-197K23,6,511,PS,exp,27,↓,down,↓,0.6014739999664016,True,11,1,1,7
Y2-S2-197K23,6,512,PS,exp,49,←,left,←,0.4888931999448687,True,10,1,0,7
Y2-S2-197K23,6,513,PS,exp,41,→,left,←,0.5544653999968432,False,10,-1,1,8
Y2-S2-197K23,6,514,PS,exp,43,←,left,←,0.4710117999929935,True,11,-1,0,8
Y2-S2-197K23,6,515,PS,exp,42,→,right,→,0.4619560000137426,True,11,-1,0,8
Y2-S2-197K23,6,516,PS,exp,47,↓,down,↓,0.666541300015524,True,11,1,1,9
Y2-S2-197K23,6,517,PS,exp,27,↑,up,↑,0.6345696999924257,True,10,1,0,9
Y2-S2-197K23,6,518,PS,exp,38,→,right,→,0.6014093999983743,True,10,1,0,9
Y2-S2-197K23,6,519,PS,exp,42,↓,down,↓,0.6279004000243731,True,10,1,0,9
Y2-S2-197K23,6,520,PS,exp,43,↑,up,↑,0.5832298999885097,True,9,1,0,9
Y2-S2-197K23,6,521,PS,exp,34,←,right,→,0.5817772000445984,False,9,-1,1,10
Y2-S2-197K23,6,522,PS,exp,49,↑,up,↑,0.8867273000068963,True,10,-1,0,10
Y2-S2-197K23,6,523,PS,exp,35,→,right,→,0.5681879000039771,True,10,-1,0,10
Y2-S2-197K23,6,524,PS,exp,30,↑,down,↓,0.8055646999855526,False,10,-1,0,10
Y2-S2-197K23,6,525,PS,exp,37,↓,down,↓,0.46346839994657785,True,11,-1,0,10
Y2-S2-197K23,6,526,PS,exp,26,←,left,←,0.5376087999902666,True,11,-1,0,10
Y2-S2-197K23,6,527,PS,exp,32,↑,up,↑,0.6291904000099748,True,11,1,1,11
Y2-S2-197K23,6,528,PS,exp,35,←,left,←,0.4232484999811277,True,10,1,0,11
Y2-S2-197K23,6,529,PS,exp,47,↑,up,↑,0.49551229999633506,True,10,1,0,11
Y2-S2-197K23,6,530,PS,exp,26,←,up,↑,0.6868781999801286,False,10,-1,1,12
Y2-S2-197K23,6,531,PS,exp,39,↑,up,↑,0.46988320001401007,True,11,-1,0,12
Y2-S2-197K23,6,532,PS,exp,46,↓,up,↑,0.7127050000126474,False,11,-1,0,12
Y2-S2-197K23,6,533,PS,exp,48,→,right,→,0.5637837999965996,True,12,-1,0,12
Y2-S2-197K23,6,534,PS,exp,26,↓,right,→,0.5509269000031054,False,12,-1,0,12
Y2-S2-197K23,6,535,PS,exp,26,→,right,→,0.6327418999862857,True,13,-1,0,12
Y2-S2-197K23,6,536,PS,exp,44,↓,right,→,0.480628399993293,False,13,-1,0,12
Y2-S2-197K23,6,537,PS,exp,27,←,left,←,0.47892080002930015,True,14,-1,0,12
Y2-S2-197K23,6,538,PS,exp,30,→,right,→,0.5907512999838218,True,14,-1,0,12
Y2-S2-197K23,6,539,PS,exp,44,←,left,←,0.5043898999574594,True,14,1,1,13
Y2-S2-197K23,6,540,PS,exp,32,→,right,→,0.5512972999713384,True,13,1,0,13
Y2-S2-197K23,6,541,PS,exp,36,↓,down,↓,0.711661399982404,True,13,1,0,13
Y2-S2-197K23,6,542,PS,exp,48,→,right,→,0.6000507000135258,True,13,1,0,13
Y2-S2-197K23,6,543,PS,exp,29,←,left,←,0.8162286000442691,True,12,1,0,13
Y2-S2-197K23,6,544,PS,exp,34,↓,down,↓,0.6379614999750629,True,12,1,0,13
Y2-S2-197K23,6,545,PS,exp,32,↑,up,↑,0.8202420999878086,True,12,1,0,13
Y2-S2-197K23,6,546,PS,exp,47,↓,down,↓,0.660198500030674,True,11,1,0,13
Y2-S2-197K23,6,547,PS,exp,41,←,left,←,0.5379412000183947,True,11,1,0,13
Y2-S2-197K23,6,548,PS,exp,27,→,right,→,0.5110066000488587,True,11,1,0,13
Y2-S2-197K23,6,549,PS,exp,30,↑,down,↓,0.7280032000271603,False,10,-1,1,14
Y2-S2-197K23,6,550,PS,exp,41,↓,down,↓,0.5529132999945432,True,11,-1,0,14
Y2-S2-197K23,6,551,PS,exp,38,←,left,←,0.5312999000307173,True,11,-1,0,14
Y2-S2-197K23,6,552,PS,exp,30,↑,up,↑,0.6125969000277109,True,11,1,1,15
Y2-S2-197K23,6,553,PS,exp,27,←,left,←,0.47996389999752864,True,10,1,0,15
Y2-S2-197K23,6,554,PS,exp,46,↑,up,↑,0.605926200048998,True,10,1,0,15
Y2-S2-197K23,6,555,PS,exp,32,←,left,←,0.5217804000130855,True,10,1,0,15
Y2-S2-197K23,6,556,PS,exp,46,↑,up,↑,0.6198765999870375,True,9,1,0,15
Y2-S2-197K23,6,557,PS,exp,50,↓,down,↓,0.5841766000376083,True,9,1,0,15
Y2-S2-197K23,6,558,PS,exp,44,←,down,↓,0.5088499000412412,False,9,-1,1,16
Y2-S2-197K23,7,559,PS,intra_train,45,→,up,↑,0.6906858999864198,False,16,-,-,-
Y2-S2-197K23,7,560,PS,intra_train,47,←,left,←,0.539957000000868,True,16,-,-,-
Y2-S2-197K23,7,561,PS,intra_train,26,→,right,→,0.558908800012432,True,16,-,-,-
Y2-S2-197K23,7,562,PS,intra_train,35,↓,down,↓,0.5435539999743924,True,16,-,-,-
Y2-S2-197K23,7,563,PS,intra_train,47,↑,up,↑,0.4901046000304632,True,16,-,-,-
Y2-S2-197K23,7,564,PS,exp,32,→,right,→,0.4940544000128284,True,11,0,0,0
Y2-S2-197K23,7,565,PS,exp,32,↓,down,↓,0.5570028000511229,True,11,0,0,0
Y2-S2-197K23,7,566,PS,exp,31,←,left,←,0.5114238999667577,True,11,1,0,0
Y2-S2-197K23,7,567,PS,exp,28,↓,down,↓,0.5830450999783352,True,10,1,0,0
Y2-S2-197K23,7,568,PS,exp,41,←,left,←,0.44075320003321394,True,10,1,0,0
Y2-S2-197K23,7,569,PS,exp,33,↑,right,→,0.6118822999997064,False,10,-1,1,1
Y2-S2-197K23,7,570,PS,exp,26,←,left,←,0.399404100026004,True,11,-1,0,1
Y2-S2-197K23,7,571,PS,exp,32,↑,up,↑,0.4687874999945052,True,11,-1,0,1
Y2-S2-197K23,7,572,PS,exp,50,→,right,→,0.42946509999455884,True,11,1,1,2
Y2-S2-197K23,7,573,PS,exp,45,↓,down,↓,0.6345209000282921,True,10,1,0,2
Y2-S2-197K23,7,574,PS,exp,50,→,right,→,0.6059561999863945,True,10,1,0,2
Y2-S2-197K23,7,575,PS,exp,34,↑,up,↑,0.5811982000013813,True,10,1,0,2
Y2-S2-197K23,7,576,PS,exp,37,↓,down,↓,0.5626651999773458,True,9,1,0,2
Y2-S2-197K23,7,577,PS,exp,38,↑,up,↑,0.47794280003290623,True,9,1,0,2
Y2-S2-197K23,7,578,PS,exp,38,→,right,→,0.5240444000228308,True,9,1,0,2
Y2-S2-197K23,7,579,PS,exp,40,←,left,←,0.44443020003382117,True,8,1,0,2
Y2-S2-197K23,7,580,PS,exp,40,↓,down,↓,0.5883559000212699,True,8,1,0,2
Y2-S2-197K23,7,581,PS,exp,45,→,down,↓,0.6075082000461407,False,8,-1,1,3
Y2-S2-197K23,7,582,PS,exp,34,←,up,↑,0.6002758999820799,False,9,-1,0,3
Y2-S2-197K23,7,583,PS,exp,44,↓,down,↓,0.5512441999744624,True,10,-1,0,3
Y2-S2-197K23,7,584,PS,exp,30,→,right,→,0.45321920001879334,True,10,-1,0,3
Y2-S2-197K23,7,585,PS,exp,42,↑,up,↑,0.4161178999929689,True,10,1,1,4
Y2-S2-197K23,7,586,PS,exp,28,↓,down,↓,0.5863891000044532,True,9,1,0,4
Y2-S2-197K23,7,587,PS,exp,35,↑,right,→,0.4667018000036478,False,9,-1,1,5
Y2-S2-197K23,7,588,PS,exp,47,→,right,→,0.5162810999900103,True,10,-1,0,5
Y2-S2-197K23,7,589,PS,exp,45,↑,up,↑,0.47725489997537807,True,10,-1,0,5
Y2-S2-197K23,7,590,PS,exp,37,←,left,←,0.42767850001109764,True,10,1,1,6
Y2-S2-197K23,7,591,PS,exp,46,↓,right,→,0.5391289999824949,False,9,-1,1,7
Y2-S2-197K23,7,592,PS,exp,48,↑,up,↑,0.5259898999938741,True,10,-1,0,7
Y2-S2-197K23,7,593,PS,exp,50,→,up,↑,0.6019532999489456,False,10,-1,0,7
Y2-S2-197K23,7,594,PS,exp,29,←,left,←,0.7945448000100441,True,11,-1,0,7
Y2-S2-197K23,7,595,PS,exp,44,↓,down,↓,0.4443222999689169,True,11,-1,0,7
Y2-S2-197K23,7,596,PS,exp,26,←,left,←,0.5246818999876268,True,11,1,1,8
Y2-S2-197K23,7,597,PS,exp,48,→,down,↓,0.6130815999931656,False,10,-1,1,9
Y2-S2-197K23,7,598,PS,exp,32,↑,up,↑,0.5580804000492208,True,11,-1,0,9
Y2-S2-197K23,7,599,PS,exp,49,↓,down,↓,0.5434129000059329,True,11,-1,0,9
Y2-S2-197K23,7,600,PS,exp,50,←,left,←,0.5797857000143267,True,11,1,1,10
Y2-S2-197K23,7,601,PS,exp,34,→,right,→,0.5620028999983333,True,10,1,0,10
Y2-S2-197K23,7,602,PS,exp,37,←,left,←,0.5148407999658957,True,10,1,0,10
Y2-S2-197K23,7,603,PS,exp,34,↑,up,↑,0.5835330999689177,True,10,1,0,10
Y2-S2-197K23,7,604,PS,exp,36,←,left,←,0.7698588999919593,True,9,1,0,10
Y2-S2-197K23,7,605,PS,exp,25,→,right,→,0.5512920000473969,True,9,1,0,10
Y2-S2-197K23,7,606,PS,exp,50,↑,left,←,0.5760661999811418,False,9,-1,1,11
Y2-S2-197K23,7,607,PS,exp,39,↓,right,→,0.4284550999873318,False,10,-1,0,11
Y2-S2-197K23,7,608,PS,exp,35,←,left,←,0.39523490000283346,True,11,-1,0,11
Y2-S2-197K23,7,609,PS,exp,42,→,right,→,0.4264833999914117,True,11,-1,0,11
Y2-S2-197K23,7,610,PS,exp,25,↑,right,→,1.2188158000353724,False,11,-1,0,11
Y2-S2-197K23,7,611,PS,exp,33,↓,down,↓,0.5410728999995627,True,12,-1,0,11
Y2-S2-197K23,7,612,PS,exp,36,→,right,→,0.5815306999720633,True,12,-1,0,11
Y2-S2-197K23,7,613,PS,exp,42,↑,up,↑,0.6061650000046939,True,12,1,1,12
Y2-S2-197K23,7,614,PS,exp,48,↓,down,↓,0.4812560999998823,True,11,1,0,12
Y2-S2-197K23,7,615,PS,exp,46,→,right,→,0.563640000007581,True,11,1,0,12
Y2-S2-197K23,7,616,PS,exp,30,↓,down,↓,0.501004199963063,True,11,1,0,12
Y2-S2-197K23,7,617,PS,exp,39,↑,up,↑,0.8243227999773808,True,10,1,0,12
Y2-S2-197K23,7,618,PS,exp,42,↓,down,↓,0.5110479000140913,True,10,1,0,12
Y2-S2-197K23,7,619,PS,exp,39,←,left,←,0.576890199969057,True,10,1,0,12
Y2-S2-197K23,7,620,PS,exp,47,↑,up,↑,0.7358594000106677,True,9,1,0,12
Y2-S2-197K23,7,621,PS,exp,50,→,right,→,0.4489251999766566,True,9,1,0,12
Y2-S2-197K23,7,622,PS,exp,28,←,right,→,0.4916036000358872,False,9,-1,1,13
Y2-S2-197K23,7,623,PS,exp,33,↓,down,↓,0.5192094999947585,True,10,-1,0,13
Y2-S2-197K23,7,624,PS,exp,32,↑,up,↑,0.6460340000339784,True,10,-1,0,13
Y2-S2-197K23,7,625,PS,exp,30,↓,down,↓,0.5819188000168651,True,10,1,1,14
Y2-S2-197K23,7,626,PS,exp,42,↑,up,↑,0.6225714999600314,True,9,1,0,14
Y2-S2-197K23,7,627,PS,exp,50,↓,down,↓,0.5321819999953732,True,9,1,0,14
Y2-S2-197K23,7,628,PS,exp,30,↑,up,↑,0.7873934000381269,True,9,1,0,14
Y2-S2-197K23,7,629,PS,exp,46,→,right,→,0.46650410001166165,True,8,1,0,14
Y2-S2-197K23,7,630,PS,exp,40,↓,down,↓,0.5699960999772884,True,8,1,0,14
Y2-S2-197K23,7,631,PS,exp,31,←,down,↓,0.662268900021445,False,8,-1,1,15
Y2-S2-197K23,7,632,PS,exp,31,↓,down,↓,0.8323959999834187,True,9,-1,0,15
Y2-S2-197K23,7,633,PS,exp,34,↑,up,↑,0.5733528999844566,True,9,-1,0,15
Y2-S2-197K23,7,634,PS,exp,30,←,right,→,0.581941700016614,False,9,-1,0,15
Y2-S2-197K23,7,635,PS,exp,31,↑,up,↑,0.5945953000336885,True,10,-1,0,15
Y2-S2-197K23,7,636,PS,exp,42,←,up,↑,0.6245345999486744,False,10,-1,0,15
Y2-S2-197K23,7,637,PS,exp,38,↑,up,↑,0.5487231000442989,True,11,-1,0,15
Y2-S2-197K23,7,638,PS,exp,42,←,right,→,0.4997621000511572,False,11,-1,0,15
Y2-S2-197K23,7,639,PS,exp,37,↓,right,→,0.5602196999825537,False,12,-1,0,15
Y2-S2-197K23,7,640,PS,exp,27,←,left,←,0.42611180001404136,True,13,-1,0,15
Y2-S2-197K23,7,641,PS,exp,35,↑,right,→,0.5203724000020884,False,13,-1,0,15
Y2-S2-197K23,7,642,PS,exp,43,→,right,→,0.44864110002527013,True,14,-1,0,15
Y2-S2-197K23,7,643,PS,exp,32,↓,down,↓,0.5639168999623507,True,14,-1,0,15
Y2-S2-197K23,7,644,PS,exp,31,←,left,←,0.4613573999959044,True,14,1,1,16
Y2-S2-197K23,8,645,AS,intra_train,33,↑,up,↑,0.6488465000293218,True,27,-,-,-
Y2-S2-197K23,8,646,AS,intra_train,47,←,left,←,0.5507272999966517,True,27,-,-,-
Y2-S2-197K23,8,647,AS,intra_train,28,→,left,←,0.5172472999547608,False,27,-,-,-
Y2-S2-197K23,8,648,AS,intra_train,49,↓,down,↓,0.732783300045412,True,27,-,-,-
Y2-S2-197K23,8,649,AS,intra_train,50,←,left,←,1.0725702999625355,True,27,-,-,-
Y2-S2-197K23,8,650,AS,exp,31,↓,down,↓,0.6779023999697529,True,18,0,0,0
Y2-S2-197K23,8,651,AS,exp,35,↑,up,↑,0.5405243000132032,True,18,0,0,0
Y2-S2-197K23,8,652,AS,exp,26,↓,down,↓,0.6455716000054963,True,18,1,0,0
Y2-S2-197K23,8,653,AS,exp,31,↑,up,↑,0.4948382000438869,True,17,1,0,0
Y2-S2-197K23,8,654,AS,exp,34,↓,down,↓,0.6366851999773644,True,17,1,0,0
Y2-S2-197K23,8,655,AS,exp,30,↑,up,↑,0.5013116000336595,True,17,1,0,0
Y2-S2-197K23,8,656,AS,exp,26,←,left,←,0.5900034999940544,True,16,1,0,0
Y2-S2-197K23,8,657,AS,exp,29,↑,up,↑,0.600357300019823,True,16,1,0,0
Y2-S2-197K23,8,658,AS,exp,34,→,right,→,0.4901135000400245,True,16,1,0,0
Y2-S2-197K23,8,659,AS,exp,46,↑,up,↑,0.4722234000219032,True,15,1,0,0
Y2-S2-197K23,8,660,AS,exp,31,←,left,←,0.5293374999891967,True,15,1,0,0
Y2-S2-197K23,8,661,AS,exp,30,→,right,→,0.5875680999597535,True,15,1,0,0
Y2-S2-197K23,8,662,AS,exp,42,←,left,←,0.5359822000027634,True,14,1,0,0
Y2-S2-197K23,8,663,AS,exp,32,→,right,→,0.45916810003109276,True,14,1,0,0
Y2-S2-197K23,8,664,AS,exp,41,←,left,←,0.7668041000142694,True,14,1,0,0
Y2-S2-197K23,8,665,AS,exp,31,↑,up,↑,0.4856302000116557,True,13,1,0,0
Y2-S2-197K23,8,666,AS,exp,42,←,left,←,0.5188246000325307,True,13,1,0,0
Y2-S2-197K23,8,667,AS,exp,36,→,right,→,0.45476470002904534,True,13,1,0,0
Y2-S2-197K23,8,668,AS,exp,40,↑,up,↑,0.5746532999910414,True,12,1,0,0
Y2-S2-197K23,8,669,AS,exp,30,↓,up,↑,1.154365299968049,False,12,-1,1,1
Y2-S2-197K23,8,670,AS,exp,44,←,left,←,0.5888594000134617,True,13,-1,0,1
Y2-S2-197K23,8,671,AS,exp,31,↑,up,↑,0.5850530999596231,True,13,-1,0,1
Y2-S2-197K23,8,672,AS,exp,42,↓,down,↓,0.6531705999514088,True,13,1,1,2
Y2-S2-197K23,8,673,AS,exp,35,→,right,→,0.5441405999590643,True,12,1,0,2
Y2-S2-197K23,8,674,AS,exp,34,↑,down,↓,0.6723254999960773,False,12,-1,1,3
Y2-S2-197K23,8,675,AS,exp,48,←,left,←,0.46520820003934205,True,13,-1,0,3
Y2-S2-197K23,8,676,AS,exp,30,↓,down,↓,0.6955469999811612,True,13,-1,0,3
Y2-S2-197K23,8,677,AS,exp,50,←,left,←,0.5186818999936804,True,13,1,1,4
Y2-S2-197K23,8,678,AS,exp,32,↓,down,↓,0.7391430999850854,True,12,1,0,4
Y2-S2-197K23,8,679,AS,exp,44,←,left,←,0.44506850000470877,True,12,1,0,4
Y2-S2-197K23,8,680,AS,exp,27,→,right,→,0.3887482999707572,True,12,1,0,4
Y2-S2-197K23,8,681,AS,exp,39,←,left,←,0.6865085000172257,True,11,1,0,4
Y2-S2-197K23,8,682,AS,exp,29,↓,down,↓,0.5140640999889001,True,11,1,0,4
Y2-S2-197K23,8,683,AS,exp,39,←,right,→,0.4791235000011511,False,11,-1,1,5
Y2-S2-197K23,8,684,AS,exp,45,→,right,→,0.5300544999772683,True,12,-1,0,5
Y2-S2-197K23,8,685,AS,exp,25,↓,right,→,0.5065012999693863,False,12,-1,0,5
Y2-S2-197K23,8,686,AS,exp,26,←,left,←,0.3504048999748193,True,13,-1,0,5
Y2-S2-197K23,8,687,AS,exp,48,→,right,→,0.6097908000228927,True,13,-1,0,5
Y2-S2-197K23,8,688,AS,exp,50,↑,up,↑,0.5191682999720797,True,13,1,1,6
Y2-S2-197K23,8,689,AS,exp,44,→,right,→,0.7182566999690607,True,12,1,0,6
Y2-S2-197K23,8,690,AS,exp,33,←,left,←,0.3932092000031844,True,12,1,0,6
Y2-S2-197K23,8,691,AS,exp,31,→,right,→,0.4235789999947883,True,12,1,0,6
Y2-S2-197K23,8,692,AS,exp,33,←,left,←,0.3559337999904528,True,11,1,0,6
Y2-S2-197K23,8,693,AS,exp,48,↓,down,↓,0.6546954000368714,True,11,1,0,6
Y2-S2-197K23,8,694,AS,exp,35,↑,up,↑,0.37994969997089356,True,11,1,0,6
Y2-S2-197K23,8,695,AS,exp,41,←,left,←,0.3946876000263728,True,10,1,0,6
Y2-S2-197K23,8,696,AS,exp,43,↑,up,↑,0.5615654000430368,True,10,1,0,6
Y2-S2-197K23,8,697,AS,exp,28,↓,down,↓,0.6507135999854654,True,10,1,0,6
Y2-S2-197K23,8,698,AS,exp,38,←,left,←,0.8333048999775201,True,9,1,0,6
Y2-S2-197K23,8,699,AS,exp,41,↑,up,↑,0.6781214000075124,True,9,1,0,6
Y2-S2-197K23,8,700,AS,exp,27,↓,left,←,0.7247872000443749,False,9,-1,1,7
Y2-S2-197K23,8,701,AS,exp,27,→,right,→,0.4527047000010498,True,10,-1,0,7
Y2-S2-197K23,8,702,AS,exp,43,↑,up,↑,0.3692829999490641,True,10,-1,0,7
Y2-S2-197K23,8,703,AS,exp,35,→,right,→,0.4806533000082709,True,10,1,1,8
Y2-S2-197K23,8,704,AS,exp,36,↑,up,↑,0.6767634000279941,True,9,1,0,8
Y2-S2-197K23,8,705,AS,exp,35,↓,down,↓,0.6989677000092342,True,9,1,0,8
Y2-S2-197K23,8,706,AS,exp,41,→,right,→,0.4890544000081718,True,9,1,0,8
Y2-S2-197K23,8,707,AS,exp,48,←,left,←,0.37518570001702756,True,8,1,0,8
Y2-S2-197K23,8,708,AS,exp,29,↑,up,↑,0.36949979997007176,True,8,1,0,8
Y2-S2-197K23,8,709,AS,exp,26,←,right,→,0.5581654999987222,False,8,-1,1,9
Y2-S2-197K23,8,710,AS,exp,33,↑,left,←,0.701774499961175,False,9,-1,0,9
Y2-S2-197K23,8,711,AS,exp,44,←,right,→,0.551959500007797,False,10,-1,0,9
Y2-S2-197K23,8,712,AS,exp,27,→,right,→,0.47438560001319274,True,11,-1,0,9
Y2-S2-197K23,8,713,AS,exp,40,↓,down,↓,0.7518427000031807,True,11,-1,0,9
Y2-S2-197K23,8,714,AS,exp,41,↑,up,↑,0.501822300022468,True,11,1,1,10
Y2-S2-197K23,8,715,AS,exp,31,←,left,←,0.3693560999818146,True,10,1,0,10
Y2-S2-197K23,8,716,AS,exp,26,↓,down,↓,0.5440415000193752,True,10,1,0,10
Y2-S2-197K23,8,717,AS,exp,44,→,right,→,0.644645299995318,True,10,1,0,10
Y2-S2-197K23,8,718,AS,exp,34,↑,up,↑,0.6949037000304088,True,9,1,0,10
Y2-S2-197K23,8,719,AS,exp,43,←,down,↓,0.6971857000025921,False,9,-1,1,11
Y2-S2-197K23,8,720,AS,exp,43,↓,right,→,0.5921275000437163,False,10,-1,0,11
Y2-S2-197K23,8,721,AS,exp,50,←,left,←,0.4290921000065282,True,11,-1,0,11
Y2-S2-197K23,8,722,AS,exp,34,→,right,→,0.6849055000348017,True,11,-1,0,11
Y2-S2-197K23,8,723,AS,exp,41,←,left,←,0.4458987999823876,True,11,1,1,12
Y2-S2-197K23,8,724,AS,exp,46,↑,right,→,0.43030890001682565,False,10,-1,1,13
Y2-S2-197K23,8,725,AS,exp,44,→,right,→,0.5165990999666974,True,11,-1,0,13
Y2-S2-197K23,8,726,AS,exp,36,↑,up,↑,0.40136039996286854,True,11,-1,0,13
Y2-S2-197K23,8,727,AS,exp,50,↓,right,→,0.605338399996981,False,11,-1,0,13
Y2-S2-197K23,8,728,AS,exp,46,→,right,→,0.5938644999987446,True,12,-1,0,13
Y2-S2-197K23,8,729,AS,exp,27,↓,right,→,0.5558038000017405,False,12,-1,0,13
Y2-S2-197K23,8,730,AS,exp,31,←,up,↑,0.5301748999627307,False,13,-1,0,13
Y2-S2-197K23,8,731,AS,exp,48,↓,down,↓,0.6045379999559373,True,14,-1,0,13
Y2-S2-197K23,8,732,AS,exp,48,↑,down,↓,0.6218565999879502,False,14,-1,0,13
Y2-S2-197K23,8,733,AS,exp,32,→,right,→,0.4204712000209838,True,15,-1,0,13
Y2-S2-197K23,8,734,AS,exp,31,↓,down,↓,0.503620499977842,True,15,-1,0,13
Y2-S2-197K23,8,735,AS,exp,44,→,right,→,0.4607620000024326,True,15,1,1,14
Y2-S2-197K23,8,736,AS,exp,31,←,left,←,1.0607977000181563,True,14,1,0,14
Y2-S2-197K23,8,737,AS,exp,42,→,right,→,0.6011889000074007,True,14,1,0,14
Y2-S2-197K23,8,738,AS,exp,42,↓,down,↓,0.5188864999799989,True,14,1,0,14
Y2-S2-197K23,8,739,AS,exp,38,→,right,→,0.419520299998112,True,13,1,0,14
Y2-S2-197K23,8,740,AS,exp,32,↓,down,↓,0.4180908999987878,True,13,1,0,14
Y2-S2-197K23,8,741,AS,exp,49,↑,down,↓,0.5800824000034481,False,13,-1,1,15
Y2-S2-197K23,8,742,AS,exp,44,→,down,↓,0.594395300024189,False,14,-1,0,15
Y2-S2-197K23,8,743,AS,exp,36,←,left,←,0.3675821000360884,True,15,-1,0,15
Y2-S2-197K23,8,744,AS,exp,37,→,right,→,0.5014480999670923,True,15,-1,0,15
Y2-S2-197K23,8,745,AS,exp,37,↑,up,↑,0.5238889000029303,True,15,1,1,16
