PART_ID,Block_no,Trial_no,Block_type,Trial_type,CSI,Stim_letter,Key_pressed,letter_choose,Rt,Corr,Stimulus Time,Level,Reversal,Revs_count
Y2-S2-082K20,1,1,PS,train,26,↑,up,↑,0.6006203000433743,True,30,-,-,-
Y2-S2-082K20,1,2,PS,train,26,←,left,←,0.5172307998873293,True,30,-,-,-
Y2-S2-082K20,1,3,PS,train,36,→,right,→,0.5177341001108289,True,30,-,-,-
Y2-S2-082K20,1,4,PS,train,46,←,left,←,0.5341405998915434,True,30,-,-,-
Y2-S2-082K20,1,5,PS,train,38,↑,down,↓,1.1549132000654936,False,30,-,-,-
Y2-S2-082K20,1,6,PS,train,32,←,left,←,0.6978479996323586,True,30,-,-,-
Y2-S2-082K20,1,7,PS,train,25,↑,down,↓,0.9519826001487672,False,30,-,-,-
Y2-S2-082K20,1,8,PS,train,44,↓,down,↓,1.5050832000561059,True,30,-,-,-
Y2-S2-082K20,1,9,PS,train,29,→,right,→,0.6173633998259902,True,30,-,-,-
Y2-S2-082K20,1,10,PS,train,27,←,left,←,0.5672538001090288,True,30,-,-,-
Y2-S2-082K20,2,11,AS,train,50,↓,down,↓,0.6009177002124488,True,45,-,-,-
Y2-S2-082K20,2,12,AS,train,25,→,right,→,0.5342692001722753,True,45,-,-,-
Y2-S2-082K20,2,13,AS,train,40,↑,up,↑,0.6347027001902461,True,45,-,-,-
Y2-S2-082K20,2,14,AS,train,25,→,right,→,0.4676939998753369,True,45,-,-,-
Y2-S2-082K20,2,15,AS,train,47,↑,up,↑,0.5841676997952163,True,45,-,-,-
Y2-S2-082K20,2,16,AS,train,31,→,right,→,0.46790469996631145,True,45,-,-,-
Y2-S2-082K20,2,17,AS,train,42,↑,up,↑,0.5509858997538686,True,45,-,-,-
Y2-S2-082K20,2,18,AS,train,28,↓,down,↓,0.6844989000819623,True,45,-,-,-
Y2-S2-082K20,2,19,AS,train,44,↑,up,↑,0.5343856001272798,True,45,-,-,-
Y2-S2-082K20,2,20,AS,train,46,→,right,→,0.534532000310719,True,45,-,-,-
Y2-S2-082K20,-,21,PS,adaptive,43,↑,up,↑,0.4320493000559509,True,10,0,0,0
Y2-S2-082K20,-,22,PS,adaptive,37,←,left,←,0.6096195001155138,True,10,0,0,0
Y2-S2-082K20,-,23,PS,adaptive,46,→,left,←,0.6231426000595093,False,10,-1,0,0
Y2-S2-082K20,-,24,PS,adaptive,27,↑,up,↑,0.4405437000095844,True,11,-1,0,0
Y2-S2-082K20,-,25,PS,adaptive,35,↓,down,↓,0.6298040999099612,True,11,-1,0,0
Y2-S2-082K20,-,26,PS,adaptive,47,↑,down,↓,0.9397829002700746,False,11,-1,0,0
Y2-S2-082K20,-,27,PS,adaptive,27,←,left,←,0.5041555999778211,True,12,-1,0,0
Y2-S2-082K20,-,28,PS,adaptive,46,→,right,→,0.4326387997716665,True,12,-1,0,0
Y2-S2-082K20,-,29,PS,adaptive,26,←,left,←,0.514474299736321,True,12,1,1,1
Y2-S2-082K20,-,30,PS,adaptive,28,↑,up,↑,0.545930499676615,True,11,1,0,1
Y2-S2-082K20,-,31,PS,adaptive,45,↓,down,↓,0.7169122002087533,True,11,1,0,1
Y2-S2-082K20,-,32,PS,adaptive,36,↑,left,←,0.75641810009256,False,11,-1,1,2
Y2-S2-082K20,-,33,PS,adaptive,30,→,right,→,0.4825413003563881,True,12,-1,0,2
Y2-S2-082K20,-,34,PS,adaptive,45,↓,down,↓,0.6541860001161695,True,12,-1,0,2
Y2-S2-082K20,-,35,PS,adaptive,46,←,up,↑,0.4196657999418676,False,12,-1,0,2
Y2-S2-082K20,-,36,PS,adaptive,40,↑,up,↑,0.5106139001436532,True,13,-1,0,2
Y2-S2-082K20,-,37,PS,adaptive,25,→,right,→,0.7002677000127733,True,13,-1,0,2
Y2-S2-082K20,-,38,PS,adaptive,33,↓,down,↓,0.612507900223136,True,13,1,1,3
Y2-S2-082K20,-,39,PS,adaptive,41,↑,up,↑,0.4046612000092864,True,12,1,0,3
Y2-S2-082K20,-,40,PS,adaptive,44,←,left,←,0.5007368996739388,True,12,1,0,3
Y2-S2-082K20,-,41,PS,adaptive,43,→,right,→,0.4531268998980522,True,12,1,0,3
Y2-S2-082K20,-,42,PS,adaptive,29,↓,left,←,0.42254320019856095,False,11,-1,1,4
Y2-S2-082K20,-,43,AS,adaptive,38,↑,up,↑,0.6137284999713302,True,20,0,0,0
Y2-S2-082K20,-,44,AS,adaptive,40,←,left,←,0.5369633999653161,True,20,0,0,0
Y2-S2-082K20,-,45,AS,adaptive,25,↑,up,↑,0.620144700165838,True,20,1,0,0
Y2-S2-082K20,-,46,AS,adaptive,43,←,right,→,0.5238991999067366,False,19,-1,1,1
Y2-S2-082K20,-,47,AS,adaptive,42,→,right,→,0.6877347999252379,True,20,-1,0,1
Y2-S2-082K20,-,48,AS,adaptive,39,↓,down,↓,0.7602707999758422,True,20,-1,0,1
Y2-S2-082K20,-,49,AS,adaptive,32,↑,up,↑,0.6717961002141237,True,20,1,1,2
Y2-S2-082K20,-,50,AS,adaptive,34,→,right,→,0.5084889000281692,True,19,1,0,2
Y2-S2-082K20,-,51,AS,adaptive,33,↑,up,↑,0.5123777999542654,True,19,1,0,2
Y2-S2-082K20,-,52,AS,adaptive,48,→,right,→,0.8477267003618181,True,19,1,0,2
Y2-S2-082K20,-,53,AS,adaptive,43,↑,up,↑,0.5374540002085268,True,18,1,0,2
Y2-S2-082K20,-,54,AS,adaptive,47,←,left,←,0.7844095998443663,True,18,1,0,2
Y2-S2-082K20,-,55,AS,adaptive,50,↓,down,↓,0.6077741999179125,True,18,1,0,2
Y2-S2-082K20,-,56,AS,adaptive,47,↑,up,↑,0.6742871999740601,True,17,1,0,2
Y2-S2-082K20,-,57,AS,adaptive,34,←,left,←,0.5561478999443352,True,17,1,0,2
Y2-S2-082K20,-,58,AS,adaptive,33,↓,down,↓,0.6545043000951409,True,17,1,0,2
Y2-S2-082K20,-,59,AS,adaptive,36,↑,down,↓,0.6821770002134144,False,16,-1,1,3
Y2-S2-082K20,-,60,AS,adaptive,48,→,right,→,0.7009950997307897,True,17,-1,0,3
Y2-S2-082K20,-,61,AS,adaptive,44,↑,up,↑,0.47882230021059513,True,17,-1,0,3
Y2-S2-082K20,-,62,AS,adaptive,47,↓,down,↓,0.6977360998280346,True,17,1,1,4
Y2-S2-082K20,1,63,AS,intra_train,40,→,right,→,0.48410729970782995,True,24,-,-,-
Y2-S2-082K20,1,64,AS,intra_train,37,↑,up,↑,0.7711738999933004,True,24,-,-,-
Y2-S2-082K20,1,65,AS,intra_train,31,→,right,→,0.5819337000139058,True,24,-,-,-
Y2-S2-082K20,1,66,AS,intra_train,33,↑,up,↑,1.3313543000258505,True,24,-,-,-
Y2-S2-082K20,1,67,AS,intra_train,47,↓,down,↓,1.6233274997211993,True,24,-,-,-
Y2-S2-082K20,1,68,AS,exp,39,↑,up,↑,0.5939781996421516,True,16,0,0,0
Y2-S2-082K20,1,69,AS,exp,37,→,right,→,0.6365462001413107,True,16,0,0,0
Y2-S2-082K20,1,70,AS,exp,35,↓,down,↓,0.5944710001349449,True,16,1,0,0
Y2-S2-082K20,1,71,AS,exp,33,←,left,←,0.5648052003234625,True,15,1,0,0
Y2-S2-082K20,1,72,AS,exp,42,↑,up,↑,0.5853017000481486,True,15,1,0,0
Y2-S2-082K20,1,73,AS,exp,31,←,left,←,0.5477138999849558,True,15,1,0,0
Y2-S2-082K20,1,74,AS,exp,43,↓,down,↓,0.5588460001163185,True,14,1,0,0
Y2-S2-082K20,1,75,AS,exp,37,←,left,←,0.5478965998627245,True,14,1,0,0
Y2-S2-082K20,1,76,AS,exp,25,↓,down,↓,0.5927633000537753,True,14,1,0,0
Y2-S2-082K20,1,77,AS,exp,42,←,left,←,0.5564166000112891,True,13,1,0,0
Y2-S2-082K20,1,78,AS,exp,42,→,right,→,0.508638400118798,True,13,1,0,0
Y2-S2-082K20,1,79,AS,exp,41,↑,down,↓,0.6478264997713268,False,13,-1,1,1
Y2-S2-082K20,1,80,AS,exp,32,↓,down,↓,0.6206525000743568,True,14,-1,0,1
Y2-S2-082K20,1,81,AS,exp,42,←,left,←,0.5493478998541832,True,14,-1,0,1
Y2-S2-082K20,1,82,AS,exp,31,↑,up,↑,0.5305886999703944,True,14,1,1,2
Y2-S2-082K20,1,83,AS,exp,38,↓,down,↓,0.5390574997290969,True,13,1,0,2
Y2-S2-082K20,1,84,AS,exp,47,→,right,→,0.5569873000495136,True,13,1,0,2
Y2-S2-082K20,1,85,AS,exp,44,←,left,←,0.5293323001824319,True,13,1,0,2
Y2-S2-082K20,1,86,AS,exp,42,↓,down,↓,0.5093786003999412,True,12,1,0,2
Y2-S2-082K20,1,87,AS,exp,31,←,left,←,0.5079338001087308,True,12,1,0,2
Y2-S2-082K20,1,88,AS,exp,30,→,right,→,0.5856626001186669,True,12,1,0,2
Y2-S2-082K20,1,89,AS,exp,29,↓,down,↓,0.5818247999995947,True,11,1,0,2
Y2-S2-082K20,1,90,AS,exp,29,←,left,←,0.4041633000597358,True,11,1,0,2
Y2-S2-082K20,1,91,AS,exp,34,↓,down,↓,0.585215900093317,True,11,1,0,2
Y2-S2-082K20,1,92,AS,exp,46,→,right,→,0.5202289000153542,True,10,1,0,2
Y2-S2-082K20,1,93,AS,exp,38,↑,down,↓,0.6052602999843657,False,10,-1,1,3
Y2-S2-082K20,1,94,AS,exp,28,↓,down,↓,0.7017718995921314,True,11,-1,0,3
Y2-S2-082K20,1,95,AS,exp,27,↑,down,↓,0.509695699904114,False,11,-1,0,3
Y2-S2-082K20,1,96,AS,exp,45,↓,down,↓,0.493189699947834,True,12,-1,0,3
Y2-S2-082K20,1,97,AS,exp,34,→,left,←,0.6021917001344264,False,12,-1,0,3
Y2-S2-082K20,1,98,AS,exp,28,↑,down,↓,0.6254966002888978,False,13,-1,0,3
Y2-S2-082K20,1,99,AS,exp,25,↓,down,↓,0.5623151999898255,True,14,-1,0,3
Y2-S2-082K20,1,100,AS,exp,26,→,right,→,0.5445574996992946,True,14,-1,0,3
Y2-S2-082K20,1,101,AS,exp,39,←,left,←,0.43032030016183853,True,14,1,1,4
Y2-S2-082K20,1,102,AS,exp,48,→,right,→,0.5491673997603357,True,13,1,0,4
Y2-S2-082K20,1,103,AS,exp,38,↓,down,↓,0.5402903999201953,True,13,1,0,4
Y2-S2-082K20,1,104,AS,exp,49,↑,up,↑,0.44930920004844666,True,13,1,0,4
Y2-S2-082K20,1,105,AS,exp,32,↓,down,↓,0.6384860998950899,True,12,1,0,4
Y2-S2-082K20,1,106,AS,exp,42,→,left,←,0.6993451998569071,False,12,-1,1,5
Y2-S2-082K20,1,107,AS,exp,37,↓,down,↓,0.5614299001172185,True,13,-1,0,5
Y2-S2-082K20,1,108,AS,exp,33,→,right,→,0.6506256000138819,True,13,-1,0,5
Y2-S2-082K20,1,109,AS,exp,26,↓,down,↓,0.6420660000294447,True,13,1,1,6
Y2-S2-082K20,1,110,AS,exp,30,←,left,←,0.5243158997036517,True,12,1,0,6
Y2-S2-082K20,1,111,AS,exp,37,→,right,→,0.5685364999808371,True,12,1,0,6
Y2-S2-082K20,1,112,AS,exp,36,←,right,→,1.6284043001942337,False,12,-1,1,7
Y2-S2-082K20,1,113,AS,exp,43,→,right,→,0.5408105002716184,True,13,-1,0,7
Y2-S2-082K20,1,114,AS,exp,36,↓,down,↓,0.5475317002274096,True,13,-1,0,7
Y2-S2-082K20,1,115,AS,exp,30,↑,down,↓,0.6593371001072228,False,13,-1,0,7
Y2-S2-082K20,1,116,AS,exp,38,→,left,←,0.7482091998681426,False,14,-1,0,7
Y2-S2-082K20,1,117,AS,exp,26,↓,down,↓,0.5732728000730276,True,15,-1,0,7
Y2-S2-082K20,1,118,AS,exp,44,→,right,→,0.43671909999102354,True,15,-1,0,7
Y2-S2-082K20,1,119,AS,exp,36,↓,down,↓,0.6075586001388729,True,15,1,1,8
Y2-S2-082K20,1,120,AS,exp,30,→,right,→,0.5893799001350999,True,14,1,0,8
Y2-S2-082K20,1,121,AS,exp,50,←,left,←,0.5250153001397848,True,14,1,0,8
Y2-S2-082K20,1,122,AS,exp,26,↑,up,↑,0.6135265999473631,True,14,1,0,8
Y2-S2-082K20,1,123,AS,exp,49,↓,down,↓,0.6318598003126681,True,13,1,0,8
Y2-S2-082K20,1,124,AS,exp,34,→,right,→,0.4560962999239564,True,13,1,0,8
Y2-S2-082K20,1,125,AS,exp,33,↓,down,↓,0.5313789998181164,True,13,1,0,8
Y2-S2-082K20,1,126,AS,exp,30,←,left,←,0.5697826999239624,True,12,1,0,8
Y2-S2-082K20,1,127,AS,exp,49,↓,down,↓,0.5786373997107148,True,12,1,0,8
Y2-S2-082K20,1,128,AS,exp,31,↑,up,↑,0.47125890012830496,True,12,1,0,8
Y2-S2-082K20,1,129,AS,exp,48,←,left,←,0.6419320995919406,True,11,1,0,8
Y2-S2-082K20,1,130,AS,exp,30,→,no_key,no_letter,-1.0,False,11,-1,1,9
Y2-S2-082K20,1,131,AS,exp,48,←,left,←,0.4881928996182978,True,12,-1,0,9
Y2-S2-082K20,1,132,AS,exp,44,↓,down,↓,0.5601734002120793,True,12,-1,0,9
Y2-S2-082K20,1,133,AS,exp,46,↑,up,↑,0.6743669998832047,True,12,1,1,10
Y2-S2-082K20,1,134,AS,exp,47,←,no_key,no_letter,-1.0,False,11,-1,1,11
Y2-S2-082K20,1,135,AS,exp,26,↑,no_key,no_letter,-1.0,False,12,-1,0,11
Y2-S2-082K20,1,136,AS,exp,48,↓,down,↓,0.5881346999667585,True,13,-1,0,11
Y2-S2-082K20,1,137,AS,exp,41,←,left,←,0.4240261996164918,True,13,-1,0,11
Y2-S2-082K20,1,138,AS,exp,49,→,right,→,0.621497499756515,True,13,1,1,12
Y2-S2-082K20,1,139,AS,exp,29,←,left,←,0.5348406997509301,True,12,1,0,12
Y2-S2-082K20,1,140,AS,exp,37,↑,up,↑,0.6593720000237226,True,12,1,0,12
Y2-S2-082K20,1,141,AS,exp,33,←,right,→,0.7389937001280487,False,12,-1,1,13
Y2-S2-082K20,1,142,AS,exp,38,→,left,←,1.5311957001686096,False,13,-1,0,13
Y2-S2-082K20,1,143,AS,exp,32,↓,no_key,no_letter,-1.0,False,14,-1,0,13
Y2-S2-082K20,1,144,AS,exp,50,↑,up,↑,0.9296374996192753,True,15,-1,0,13
Y2-S2-082K20,1,145,AS,exp,27,↓,up,↑,0.8503406001254916,False,15,-1,0,13
Y2-S2-082K20,1,146,AS,exp,34,→,right,→,0.538081900216639,True,16,-1,0,13
Y2-S2-082K20,1,147,AS,exp,38,↓,down,↓,0.6074155000969768,True,16,-1,0,13
Y2-S2-082K20,1,148,AS,exp,34,←,left,←,0.48022380005568266,True,16,1,1,14
Y2-S2-082K20,1,149,AS,exp,46,↓,down,↓,0.6007372997701168,True,15,1,0,14
Y2-S2-082K20,1,150,AS,exp,30,←,left,←,0.45493739983066916,True,15,1,0,14
Y2-S2-082K20,1,151,AS,exp,36,→,up,↑,0.899596500210464,False,15,-1,1,15
Y2-S2-082K20,1,152,AS,exp,46,↑,up,↑,0.47865379974246025,True,16,-1,0,15
Y2-S2-082K20,1,153,AS,exp,35,←,left,←,0.5062976996414363,True,16,-1,0,15
Y2-S2-082K20,1,154,AS,exp,41,↑,up,↑,0.4999804999679327,True,16,1,1,16
Y2-S2-082K20,2,155,PS,intra_train,33,→,right,→,0.6593214999884367,True,18,-,-,-
Y2-S2-082K20,2,156,PS,intra_train,31,↓,down,↓,0.5693941996432841,True,18,-,-,-
Y2-S2-082K20,2,157,PS,intra_train,49,←,left,←,0.5905639999546111,True,18,-,-,-
Y2-S2-082K20,2,158,PS,intra_train,41,↑,down,↓,0.48323020013049245,False,18,-,-,-
Y2-S2-082K20,2,159,PS,intra_train,39,→,right,→,0.4837682000361383,True,18,-,-,-
Y2-S2-082K20,2,160,PS,exp,28,↓,up,↑,0.7586353998631239,False,12,-1,0,0
Y2-S2-082K20,2,161,PS,exp,50,↑,up,↑,0.5472172000445426,True,13,-1,0,0
Y2-S2-082K20,2,162,PS,exp,31,↓,down,↓,0.7201988999731839,True,13,-1,0,0
Y2-S2-082K20,2,163,PS,exp,40,←,left,←,0.4955846997909248,True,13,1,1,1
Y2-S2-082K20,2,164,PS,exp,48,↑,up,↑,0.46129109989851713,True,12,1,0,1
Y2-S2-082K20,2,165,PS,exp,40,↓,down,↓,0.5674705002456903,True,12,1,0,1
Y2-S2-082K20,2,166,PS,exp,38,→,right,→,0.519877300132066,True,12,1,0,1
Y2-S2-082K20,2,167,PS,exp,31,←,right,→,0.8270008000545204,False,11,-1,1,2
Y2-S2-082K20,2,168,PS,exp,33,↑,up,↑,0.4289461998268962,True,12,-1,0,2
Y2-S2-082K20,2,169,PS,exp,46,←,left,←,0.48169919988140464,True,12,-1,0,2
Y2-S2-082K20,2,170,PS,exp,46,↓,down,↓,0.7407379001379013,True,12,1,1,3
Y2-S2-082K20,2,171,PS,exp,37,↑,up,↑,0.35513419983908534,True,11,1,0,3
Y2-S2-082K20,2,172,PS,exp,32,↓,up,↑,0.7409800998866558,False,11,-1,1,4
Y2-S2-082K20,2,173,PS,exp,42,←,left,←,0.5835113995708525,True,12,-1,0,4
Y2-S2-082K20,2,174,PS,exp,46,→,right,→,0.44616169994696975,True,12,-1,0,4
Y2-S2-082K20,2,175,PS,exp,26,↑,up,↑,0.5538587002083659,True,12,1,1,5
Y2-S2-082K20,2,176,PS,exp,35,←,left,←,0.48278759978711605,True,11,1,0,5
Y2-S2-082K20,2,177,PS,exp,29,↑,up,↑,0.4698458998464048,True,11,1,0,5
Y2-S2-082K20,2,178,PS,exp,34,↓,down,↓,0.7319296998903155,True,11,1,0,5
Y2-S2-082K20,2,179,PS,exp,42,→,right,→,0.41164959967136383,True,10,1,0,5
Y2-S2-082K20,2,180,PS,exp,48,←,right,→,0.39643590012565255,False,10,-1,1,6
Y2-S2-082K20,2,181,PS,exp,50,↑,up,↑,0.4123419001698494,True,11,-1,0,6
Y2-S2-082K20,2,182,PS,exp,31,→,right,→,0.43832729989662766,True,11,-1,0,6
Y2-S2-082K20,2,183,PS,exp,50,↓,down,↓,0.5033168001100421,True,11,1,1,7
Y2-S2-082K20,2,184,PS,exp,29,←,left,←,0.5474617001600564,True,10,1,0,7
Y2-S2-082K20,2,185,PS,exp,46,→,right,→,0.41041669994592667,True,10,1,0,7
Y2-S2-082K20,2,186,PS,exp,29,↓,down,↓,0.7138125998899341,True,10,1,0,7
Y2-S2-082K20,2,187,PS,exp,44,→,right,→,0.4528056001290679,True,9,1,0,7
Y2-S2-082K20,2,188,PS,exp,37,↓,right,→,0.6028220998123288,False,9,-1,1,8
Y2-S2-082K20,2,189,PS,exp,25,←,left,←,0.38719609985128045,True,10,-1,0,8
Y2-S2-082K20,2,190,PS,exp,28,↓,down,↓,0.625153100118041,True,10,-1,0,8
Y2-S2-082K20,2,191,PS,exp,49,↑,up,↑,0.4007162000052631,True,10,1,1,9
Y2-S2-082K20,2,192,PS,exp,28,↓,up,↑,0.6970561002381146,False,9,-1,1,10
Y2-S2-082K20,2,193,PS,exp,36,←,left,←,0.5140587999485433,True,10,-1,0,10
Y2-S2-082K20,2,194,PS,exp,29,↓,down,↓,0.44940249994397163,True,10,-1,0,10
Y2-S2-082K20,2,195,PS,exp,37,←,right,→,0.40794390020892024,False,10,-1,0,10
Y2-S2-082K20,2,196,PS,exp,25,→,right,→,0.4459123997949064,True,11,-1,0,10
Y2-S2-082K20,2,197,PS,exp,44,↑,up,↑,0.4330993997864425,True,11,-1,0,10
Y2-S2-082K20,2,198,PS,exp,43,→,right,→,0.4341730996966362,True,11,1,1,11
Y2-S2-082K20,2,199,PS,exp,33,↓,up,↑,0.5506644998677075,False,10,-1,1,12
Y2-S2-082K20,2,200,PS,exp,44,→,right,→,0.4832346998155117,True,11,-1,0,12
Y2-S2-082K20,2,201,PS,exp,47,↑,up,↑,0.5051458002999425,True,11,-1,0,12
Y2-S2-082K20,2,202,PS,exp,42,↓,down,↓,0.6135901999659836,True,11,1,1,13
Y2-S2-082K20,2,203,PS,exp,28,↑,up,↑,0.45723799988627434,True,10,1,0,13
Y2-S2-082K20,2,204,PS,exp,28,↓,down,↓,0.602038100361824,True,10,1,0,13
Y2-S2-082K20,2,205,PS,exp,39,→,right,→,0.45376940025016665,True,10,1,0,13
Y2-S2-082K20,2,206,PS,exp,26,↑,up,↑,0.6587267997674644,True,9,1,0,13
Y2-S2-082K20,2,207,PS,exp,48,↓,up,↑,0.6697697998024523,False,9,-1,1,14
Y2-S2-082K20,2,208,PS,exp,29,←,left,←,0.4444425003603101,True,10,-1,0,14
Y2-S2-082K20,2,209,PS,exp,34,→,right,→,0.3974691997282207,True,10,-1,0,14
Y2-S2-082K20,2,210,PS,exp,25,↓,down,↓,0.5613245000131428,True,10,1,1,15
Y2-S2-082K20,2,211,PS,exp,40,←,left,←,0.3848688001744449,True,9,1,0,15
Y2-S2-082K20,2,212,PS,exp,46,↓,down,↓,0.474543200340122,True,9,1,0,15
Y2-S2-082K20,2,213,PS,exp,44,←,left,←,0.4751753997988999,True,9,1,0,15
Y2-S2-082K20,2,214,PS,exp,45,→,left,←,0.6403520000167191,False,8,-1,1,16
Y2-S2-082K20,3,215,PS,intra_train,33,↓,down,↓,0.5515041002072394,True,18,-,-,-
Y2-S2-082K20,3,216,PS,intra_train,34,←,left,←,1.075731699820608,True,18,-,-,-
Y2-S2-082K20,3,217,PS,intra_train,47,→,right,→,0.4841288002207875,True,18,-,-,-
Y2-S2-082K20,3,218,PS,intra_train,39,↑,up,↑,1.0201166002079844,True,18,-,-,-
Y2-S2-082K20,3,219,PS,intra_train,38,←,left,←,0.4005972999148071,True,18,-,-,-
Y2-S2-082K20,3,220,PS,exp,30,↓,down,↓,0.5896959002129734,True,12,0,0,0
Y2-S2-082K20,3,221,PS,exp,37,→,left,←,0.48739359993487597,False,12,-1,0,0
Y2-S2-082K20,3,222,PS,exp,33,↓,down,↓,0.6240344000980258,True,13,-1,0,0
Y2-S2-082K20,3,223,PS,exp,45,→,left,←,0.7436267002485693,False,13,-1,0,0
Y2-S2-082K20,3,224,PS,exp,36,↓,down,↓,0.43562539992854,True,14,-1,0,0
Y2-S2-082K20,3,225,PS,exp,32,←,left,←,0.4965474996715784,True,14,-1,0,0
Y2-S2-082K20,3,226,PS,exp,43,↓,down,↓,0.5100189000368118,True,14,1,1,1
Y2-S2-082K20,3,227,PS,exp,43,↑,up,↑,0.43551109964028,True,13,1,0,1
Y2-S2-082K20,3,228,PS,exp,32,→,right,→,0.6325337998569012,True,13,1,0,1
Y2-S2-082K20,3,229,PS,exp,33,←,left,←,0.4973605000413954,True,13,1,0,1
Y2-S2-082K20,3,230,PS,exp,33,↑,up,↑,0.6461481000296772,True,12,1,0,1
Y2-S2-082K20,3,231,PS,exp,34,→,right,→,0.4994894000701606,True,12,1,0,1
Y2-S2-082K20,3,232,PS,exp,41,↓,down,↓,0.5258558997884393,True,12,1,0,1
Y2-S2-082K20,3,233,PS,exp,41,←,left,←,0.43532729987055063,True,11,1,0,1
Y2-S2-082K20,3,234,PS,exp,27,↑,up,↑,0.48587890015915036,True,11,1,0,1
Y2-S2-082K20,3,235,PS,exp,41,→,right,→,0.4187723002396524,True,11,1,0,1
Y2-S2-082K20,3,236,PS,exp,36,←,left,←,0.4141267999075353,True,10,1,0,1
Y2-S2-082K20,3,237,PS,exp,32,→,right,→,0.5168550000526011,True,10,1,0,1
Y2-S2-082K20,3,238,PS,exp,27,↑,up,↑,0.5813901000656188,True,10,1,0,1
Y2-S2-082K20,3,239,PS,exp,38,→,right,→,0.46210609981790185,True,9,1,0,1
Y2-S2-082K20,3,240,PS,exp,34,↑,up,↑,0.4758569998666644,True,9,1,0,1
Y2-S2-082K20,3,241,PS,exp,27,↓,up,↑,0.6086774999275804,False,9,-1,1,2
Y2-S2-082K20,3,242,PS,exp,48,←,left,←,0.5044908998534083,True,10,-1,0,2
Y2-S2-082K20,3,243,PS,exp,49,↑,up,↑,0.4203134998679161,True,10,-1,0,2
Y2-S2-082K20,3,244,PS,exp,40,→,right,→,0.39765490032732487,True,10,1,1,3
Y2-S2-082K20,3,245,PS,exp,29,←,left,←,0.4426963999867439,True,9,1,0,3
Y2-S2-082K20,3,246,PS,exp,46,↓,down,↓,0.5774668999947608,True,9,1,0,3
Y2-S2-082K20,3,247,PS,exp,35,←,left,←,0.4619350996799767,True,9,1,0,3
Y2-S2-082K20,3,248,PS,exp,28,↑,up,↑,0.4245939999818802,True,8,1,0,3
Y2-S2-082K20,3,249,PS,exp,34,→,right,→,0.4229302001185715,True,8,1,0,3
Y2-S2-082K20,3,250,PS,exp,48,←,left,←,0.44781089993193746,True,8,1,0,3
Y2-S2-082K20,3,251,PS,exp,45,→,right,→,0.46491040010005236,True,7,1,0,3
Y2-S2-082K20,3,252,PS,exp,40,←,left,←,0.3776198998093605,True,7,1,0,3
Y2-S2-082K20,3,253,PS,exp,32,↓,left,←,0.6956976000219584,False,7,-1,1,4
Y2-S2-082K20,3,254,PS,exp,50,→,right,→,0.47301380010321736,True,8,-1,0,4
Y2-S2-082K20,3,255,PS,exp,41,←,left,←,0.45228749979287386,True,8,-1,0,4
Y2-S2-082K20,3,256,PS,exp,37,↑,up,↑,0.42702560033649206,True,8,1,1,5
Y2-S2-082K20,3,257,PS,exp,36,→,right,→,0.3827602998353541,True,7,1,0,5
Y2-S2-082K20,3,258,PS,exp,26,↓,down,↓,0.5733302002772689,True,7,1,0,5
Y2-S2-082K20,3,259,PS,exp,49,→,left,←,0.6692429999820888,False,7,-1,1,6
Y2-S2-082K20,3,260,PS,exp,43,↑,up,↑,0.5150003000162542,True,8,-1,0,6
Y2-S2-082K20,3,261,PS,exp,48,←,left,←,0.44260849989950657,True,8,-1,0,6
Y2-S2-082K20,3,262,PS,exp,43,↑,up,↑,0.4618973000906408,True,8,1,1,7
Y2-S2-082K20,3,263,PS,exp,28,←,right,→,0.7073099003173411,False,7,-1,1,8
Y2-S2-082K20,3,264,PS,exp,32,↑,up,↑,0.6522331000305712,True,8,-1,0,8
Y2-S2-082K20,3,265,PS,exp,48,↓,down,↓,0.5396076999604702,True,8,-1,0,8
Y2-S2-082K20,3,266,PS,exp,47,→,right,→,0.5654385001398623,True,8,1,1,9
Y2-S2-082K20,3,267,PS,exp,30,←,left,←,0.5258735995739698,True,7,1,0,9
Y2-S2-082K20,3,268,PS,exp,39,↑,down,↓,0.8436369001865387,False,7,-1,1,10
Y2-S2-082K20,3,269,PS,exp,44,←,left,←,0.49303249968215823,True,8,-1,0,10
Y2-S2-082K20,3,270,PS,exp,32,→,right,→,0.5005882000550628,True,8,-1,0,10
Y2-S2-082K20,3,271,PS,exp,43,↑,up,↑,0.5179973999038339,True,8,1,1,11
Y2-S2-082K20,3,272,PS,exp,37,←,left,←,0.54299829993397,True,7,1,0,11
Y2-S2-082K20,3,273,PS,exp,45,↓,up,↑,0.5642425999976695,False,7,-1,1,12
Y2-S2-082K20,3,274,PS,exp,48,↑,left,←,0.7384820999577641,False,8,-1,0,12
Y2-S2-082K20,3,275,PS,exp,26,→,left,←,0.46430510003119707,False,9,-1,0,12
Y2-S2-082K20,3,276,PS,exp,42,↑,no_key,no_letter,-1.0,False,10,-1,0,12
Y2-S2-082K20,3,277,PS,exp,25,→,right,→,0.5991854001767933,True,11,-1,0,12
Y2-S2-082K20,3,278,PS,exp,48,←,left,←,0.4174740999005735,True,11,-1,0,12
Y2-S2-082K20,3,279,PS,exp,50,↑,up,↑,1.5101013998501003,True,11,1,1,13
Y2-S2-082K20,3,280,PS,exp,33,→,right,→,0.4220329001545906,True,10,1,0,13
Y2-S2-082K20,3,281,PS,exp,43,↑,up,↑,0.46248559979721904,True,10,1,0,13
Y2-S2-082K20,3,282,PS,exp,26,↓,down,↓,0.5954851997084916,True,10,1,0,13
Y2-S2-082K20,3,283,PS,exp,48,←,left,←,0.4241395997814834,True,9,1,0,13
Y2-S2-082K20,3,284,PS,exp,35,↓,down,↓,0.6321898000314832,True,9,1,0,13
Y2-S2-082K20,3,285,PS,exp,43,←,right,→,0.4876688001677394,False,9,-1,1,14
Y2-S2-082K20,3,286,PS,exp,45,↓,left,←,0.35425319988280535,False,10,-1,0,14
Y2-S2-082K20,3,287,PS,exp,29,→,right,→,0.619735499843955,True,11,-1,0,14
Y2-S2-082K20,3,288,PS,exp,31,↑,up,↑,0.5554647999815643,True,11,-1,0,14
Y2-S2-082K20,3,289,PS,exp,50,→,right,→,0.40111410012468696,True,11,1,1,15
Y2-S2-082K20,3,290,PS,exp,45,←,right,→,0.3691569003276527,False,10,-1,1,16
Y2-S2-082K20,4,291,AS,intra_train,36,↓,down,↓,0.6299748001620173,True,24,-,-,-
Y2-S2-082K20,4,292,AS,intra_train,38,→,right,→,0.5867473999969661,True,24,-,-,-
Y2-S2-082K20,4,293,AS,intra_train,47,↓,down,↓,0.764764899853617,True,24,-,-,-
Y2-S2-082K20,4,294,AS,intra_train,30,↑,up,↑,0.7238142997957766,True,24,-,-,-
Y2-S2-082K20,4,295,AS,intra_train,48,←,left,←,0.6708930996246636,True,24,-,-,-
Y2-S2-082K20,4,296,AS,exp,43,→,right,→,0.8657110999338329,True,16,0,0,0
Y2-S2-082K20,4,297,AS,exp,44,←,left,←,0.7081637997180223,True,16,0,0,0
Y2-S2-082K20,4,298,AS,exp,32,→,right,→,0.5081377001479268,True,16,1,0,0
Y2-S2-082K20,4,299,AS,exp,25,↓,down,↓,0.6798068000935018,True,15,1,0,0
Y2-S2-082K20,4,300,AS,exp,28,←,left,←,0.5076776002533734,True,15,1,0,0
Y2-S2-082K20,4,301,AS,exp,32,↓,down,↓,0.6021487000398338,True,15,1,0,0
Y2-S2-082K20,4,302,AS,exp,38,↑,up,↑,0.5779046998359263,True,14,1,0,0
Y2-S2-082K20,4,303,AS,exp,29,←,left,←,0.7908145003020763,True,14,1,0,0
Y2-S2-082K20,4,304,AS,exp,45,↓,down,↓,0.6107401000335813,True,14,1,0,0
Y2-S2-082K20,4,305,AS,exp,35,←,left,←,0.6489655002951622,True,13,1,0,0
Y2-S2-082K20,4,306,AS,exp,27,↑,up,↑,0.7496849000453949,True,13,1,0,0
Y2-S2-082K20,4,307,AS,exp,47,↓,down,↓,0.5734685999341309,True,13,1,0,0
Y2-S2-082K20,4,308,AS,exp,43,→,right,→,0.7929821000434458,True,12,1,0,0
Y2-S2-082K20,4,309,AS,exp,30,←,up,↑,0.6553056002594531,False,12,-1,1,1
Y2-S2-082K20,4,310,AS,exp,27,↑,up,↑,0.5901111997663975,True,13,-1,0,1
Y2-S2-082K20,4,311,AS,exp,27,←,right,→,0.5560467997565866,False,13,-1,0,1
Y2-S2-082K20,4,312,AS,exp,44,↓,left,←,1.4720028997398913,False,14,-1,0,1
Y2-S2-082K20,4,313,AS,exp,32,→,right,→,0.546900300309062,True,15,-1,0,1
Y2-S2-082K20,4,314,AS,exp,46,↓,down,↓,0.653942400123924,True,15,-1,0,1
Y2-S2-082K20,4,315,AS,exp,42,←,left,←,0.6263588001020253,True,15,1,1,2
Y2-S2-082K20,4,316,AS,exp,35,→,right,→,0.5553013999015093,True,14,1,0,2
Y2-S2-082K20,4,317,AS,exp,26,↓,down,↓,0.5928375003859401,True,14,1,0,2
Y2-S2-082K20,4,318,AS,exp,35,←,left,←,0.5115847000852227,True,14,1,0,2
Y2-S2-082K20,4,319,AS,exp,42,↓,down,↓,0.7453259998001158,True,13,1,0,2
Y2-S2-082K20,4,320,AS,exp,41,→,right,→,0.4468947001732886,True,13,1,0,2
Y2-S2-082K20,4,321,AS,exp,33,←,right,→,0.4495522999204695,False,13,-1,1,3
Y2-S2-082K20,4,322,AS,exp,27,→,right,→,0.47561300033703446,True,14,-1,0,3
Y2-S2-082K20,4,323,AS,exp,42,↓,down,↓,0.5885661002248526,True,14,-1,0,3
Y2-S2-082K20,4,324,AS,exp,26,↑,up,↑,0.5251309997402132,True,14,1,1,4
Y2-S2-082K20,4,325,AS,exp,33,←,left,←,0.4983280999585986,True,13,1,0,4
Y2-S2-082K20,4,326,AS,exp,43,↓,down,↓,0.5923330998048186,True,13,1,0,4
Y2-S2-082K20,4,327,AS,exp,27,←,right,→,0.4503417997621,False,13,-1,1,5
Y2-S2-082K20,4,328,AS,exp,30,↑,up,↑,0.7770969998091459,True,14,-1,0,5
Y2-S2-082K20,4,329,AS,exp,48,→,right,→,0.5107792001217604,True,14,-1,0,5
Y2-S2-082K20,4,330,AS,exp,42,←,left,←,0.5789839001372457,True,14,1,1,6
Y2-S2-082K20,4,331,AS,exp,45,→,right,→,0.6123645999468863,True,13,1,0,6
Y2-S2-082K20,4,332,AS,exp,35,←,left,←,0.4637972000055015,True,13,1,0,6
Y2-S2-082K20,4,333,AS,exp,40,↑,up,↑,0.6906722998246551,True,13,1,0,6
Y2-S2-082K20,4,334,AS,exp,34,↓,down,↓,0.530211899895221,True,12,1,0,6
Y2-S2-082K20,4,335,AS,exp,37,↑,up,↑,0.557527800090611,True,12,1,0,6
Y2-S2-082K20,4,336,AS,exp,39,→,right,→,0.5793218999169767,True,12,1,0,6
Y2-S2-082K20,4,337,AS,exp,40,↓,down,↓,0.5793061000294983,True,11,1,0,6
Y2-S2-082K20,4,338,AS,exp,27,↑,up,↑,0.5938451997935772,True,11,1,0,6
Y2-S2-082K20,4,339,AS,exp,35,←,left,←,0.6684584999457002,True,11,1,0,6
Y2-S2-082K20,4,340,AS,exp,41,→,up,↑,0.7681419001892209,False,10,-1,1,7
Y2-S2-082K20,4,341,AS,exp,34,↓,up,↑,0.5831553000025451,False,11,-1,0,7
Y2-S2-082K20,4,342,AS,exp,28,↑,up,↑,0.5562032996676862,True,12,-1,0,7
Y2-S2-082K20,4,343,AS,exp,42,←,left,←,0.4809345002286136,True,12,-1,0,7
Y2-S2-082K20,4,344,AS,exp,38,→,right,→,0.5226783999241889,True,12,1,1,8
Y2-S2-082K20,4,345,AS,exp,27,↓,down,↓,0.5608487999998033,True,11,1,0,8
Y2-S2-082K20,4,346,AS,exp,49,←,left,←,0.6842848001979291,True,11,1,0,8
Y2-S2-082K20,4,347,AS,exp,47,↓,up,↑,0.6487195999361575,False,11,-1,1,9
Y2-S2-082K20,4,348,AS,exp,25,←,left,←,0.6385534000582993,True,12,-1,0,9
Y2-S2-082K20,4,349,AS,exp,26,↓,down,↓,0.5477959997951984,True,12,-1,0,9
Y2-S2-082K20,4,350,AS,exp,46,↑,up,↑,0.3850631997920573,True,12,1,1,10
Y2-S2-082K20,4,351,AS,exp,30,→,right,→,0.4136876002885401,True,11,1,0,10
Y2-S2-082K20,4,352,AS,exp,26,↓,down,↓,0.5585706001147628,True,11,1,0,10
Y2-S2-082K20,4,353,AS,exp,45,→,right,→,0.5756785003468394,True,11,1,0,10
Y2-S2-082K20,4,354,AS,exp,43,↓,up,↑,0.5513844001106918,False,10,-1,1,11
Y2-S2-082K20,4,355,AS,exp,43,↑,down,↓,0.7159529998898506,False,11,-1,0,11
Y2-S2-082K20,4,356,AS,exp,49,↓,up,↑,0.6299874000251293,False,12,-1,0,11
Y2-S2-082K20,4,357,AS,exp,26,→,right,→,0.6183068999089301,True,13,-1,0,11
Y2-S2-082K20,4,358,AS,exp,26,↓,down,↓,0.6453693001531065,True,13,-1,0,11
Y2-S2-082K20,4,359,AS,exp,28,→,right,→,0.5363480001688004,True,13,1,1,12
Y2-S2-082K20,4,360,AS,exp,38,←,left,←,0.6211939002387226,True,12,1,0,12
Y2-S2-082K20,4,361,AS,exp,38,↓,down,↓,0.7076380997896194,True,12,1,0,12
Y2-S2-082K20,4,362,AS,exp,30,←,right,→,0.6627187002450228,False,12,-1,1,13
Y2-S2-082K20,4,363,AS,exp,38,↑,up,↑,0.5798068000003695,True,13,-1,0,13
Y2-S2-082K20,4,364,AS,exp,27,→,right,→,0.4568556002341211,True,13,-1,0,13
Y2-S2-082K20,4,365,AS,exp,39,←,left,←,0.6773636001162231,True,13,1,1,14
Y2-S2-082K20,4,366,AS,exp,42,→,right,→,0.5993075002916157,True,12,1,0,14
Y2-S2-082K20,4,367,AS,exp,42,↓,down,↓,0.5574170998297632,True,12,1,0,14
Y2-S2-082K20,4,368,AS,exp,38,→,right,→,0.5298027000389993,True,12,1,0,14
Y2-S2-082K20,4,369,AS,exp,32,↓,up,↑,0.6600121003575623,False,11,-1,1,15
Y2-S2-082K20,4,370,AS,exp,38,→,right,→,0.5502089001238346,True,12,-1,0,15
Y2-S2-082K20,4,371,AS,exp,34,↓,down,↓,0.5929507003165781,True,12,-1,0,15
Y2-S2-082K20,4,372,AS,exp,32,↑,up,↑,0.5485625001601875,True,12,1,1,16
Y2-S2-082K20,5,373,AS,intra_train,31,←,left,←,0.5338914999738336,True,24,-,-,-
Y2-S2-082K20,5,374,AS,intra_train,39,→,right,→,0.45054739993065596,True,24,-,-,-
Y2-S2-082K20,5,375,AS,intra_train,48,←,right,→,0.3834072998724878,False,24,-,-,-
Y2-S2-082K20,5,376,AS,intra_train,49,↑,up,↑,0.500999600160867,True,24,-,-,-
Y2-S2-082K20,5,377,AS,intra_train,30,←,left,←,0.5009255004115403,True,24,-,-,-
Y2-S2-082K20,5,378,AS,exp,44,↑,up,↑,0.553610899951309,True,16,0,0,0
Y2-S2-082K20,5,379,AS,exp,39,↓,down,↓,0.7047339002601802,True,16,0,0,0
Y2-S2-082K20,5,380,AS,exp,27,→,right,→,1.2926273997873068,True,16,1,0,0
Y2-S2-082K20,5,381,AS,exp,40,↑,up,↑,0.5336412000469863,True,15,1,0,0
Y2-S2-082K20,5,382,AS,exp,39,↓,down,↓,0.5753472996875644,True,15,1,0,0
Y2-S2-082K20,5,383,AS,exp,34,↑,up,↑,0.48911690013483167,True,15,1,0,0
Y2-S2-082K20,5,384,AS,exp,46,↓,up,↑,0.8849881002679467,False,14,-1,1,1
Y2-S2-082K20,5,385,AS,exp,42,↑,up,↑,0.591711999848485,True,15,-1,0,1
Y2-S2-082K20,5,386,AS,exp,27,↓,down,↓,0.6077697002328932,True,15,-1,0,1
Y2-S2-082K20,5,387,AS,exp,44,→,right,→,0.48507989989593625,True,15,1,1,2
Y2-S2-082K20,5,388,AS,exp,44,↓,down,↓,0.5406494000926614,True,14,1,0,2
Y2-S2-082K20,5,389,AS,exp,29,←,left,←,0.524526699911803,True,14,1,0,2
Y2-S2-082K20,5,390,AS,exp,30,→,right,→,0.6410618000663817,True,14,1,0,2
Y2-S2-082K20,5,391,AS,exp,30,↑,up,↑,0.40693899989128113,True,13,1,0,2
Y2-S2-082K20,5,392,AS,exp,28,←,left,←,0.5422121002338827,True,13,1,0,2
Y2-S2-082K20,5,393,AS,exp,30,↓,down,↓,0.604458199813962,True,13,1,0,2
Y2-S2-082K20,5,394,AS,exp,41,→,right,→,0.6136137000285089,True,12,1,0,2
Y2-S2-082K20,5,395,AS,exp,50,←,left,←,0.46291170036420226,True,12,1,0,2
Y2-S2-082K20,5,396,AS,exp,40,→,right,→,0.5617253999225795,True,12,1,0,2
Y2-S2-082K20,5,397,AS,exp,50,←,right,→,0.5859807999804616,False,11,-1,1,3
Y2-S2-082K20,5,398,AS,exp,43,↑,no_key,no_letter,-1.0,False,12,-1,0,3
Y2-S2-082K20,5,399,AS,exp,43,→,right,→,1.4510981999337673,True,13,-1,0,3
Y2-S2-082K20,5,400,AS,exp,44,↓,right,→,0.9859155002050102,False,13,-1,0,3
Y2-S2-082K20,5,401,AS,exp,30,↑,left,←,0.4772145003080368,False,14,-1,0,3
Y2-S2-082K20,5,402,AS,exp,37,→,right,→,0.5284634996205568,True,15,-1,0,3
Y2-S2-082K20,5,403,AS,exp,40,↓,up,↑,0.5655732997693121,False,15,-1,0,3
Y2-S2-082K20,5,404,AS,exp,43,←,left,←,0.4340506996959448,True,16,-1,0,3
Y2-S2-082K20,5,405,AS,exp,41,↓,down,↓,0.6313710999675095,True,16,-1,0,3
Y2-S2-082K20,5,406,AS,exp,46,←,left,←,0.5985697000287473,True,16,1,1,4
Y2-S2-082K20,5,407,AS,exp,38,↑,up,↑,0.4240589998662472,True,15,1,0,4
Y2-S2-082K20,5,408,AS,exp,37,←,left,←,0.5653614001348615,True,15,1,0,4
Y2-S2-082K20,5,409,AS,exp,44,↓,down,↓,0.5057792002335191,True,15,1,0,4
Y2-S2-082K20,5,410,AS,exp,29,←,left,←,0.4642206998541951,True,14,1,0,4
Y2-S2-082K20,5,411,AS,exp,27,↑,up,↑,0.651862199883908,True,14,1,0,4
Y2-S2-082K20,5,412,AS,exp,39,→,right,→,0.45761659974232316,True,14,1,0,4
Y2-S2-082K20,5,413,AS,exp,40,←,left,←,0.43207440013065934,True,13,1,0,4
Y2-S2-082K20,5,414,AS,exp,48,→,right,→,0.4819008996710181,True,13,1,0,4
Y2-S2-082K20,5,415,AS,exp,37,↑,down,↓,0.7939320998266339,False,13,-1,1,5
Y2-S2-082K20,5,416,AS,exp,37,↓,up,↑,0.7315511996857822,False,14,-1,0,5
Y2-S2-082K20,5,417,AS,exp,28,↑,up,↑,0.5907247001305223,True,15,-1,0,5
Y2-S2-082K20,5,418,AS,exp,30,↓,down,↓,0.4927822998724878,True,15,-1,0,5
Y2-S2-082K20,5,419,AS,exp,41,↑,up,↑,0.5309162996709347,True,15,1,1,6
Y2-S2-082K20,5,420,AS,exp,37,→,right,→,0.585674500092864,True,14,1,0,6
Y2-S2-082K20,5,421,AS,exp,32,↓,down,↓,0.60339289996773,True,14,1,0,6
Y2-S2-082K20,5,422,AS,exp,46,↑,up,↑,0.4637585999444127,True,14,1,0,6
Y2-S2-082K20,5,423,AS,exp,30,↓,up,↑,0.5003546997904778,False,13,-1,1,7
Y2-S2-082K20,5,424,AS,exp,42,←,left,←,0.6269143996760249,True,14,-1,0,7
Y2-S2-082K20,5,425,AS,exp,25,↑,up,↑,0.5110194999724627,True,14,-1,0,7
Y2-S2-082K20,5,426,AS,exp,39,→,right,→,0.6017159000039101,True,14,1,1,8
Y2-S2-082K20,5,427,AS,exp,43,↓,up,↑,0.6069133998826146,False,13,-1,1,9
Y2-S2-082K20,5,428,AS,exp,45,←,left,←,0.48928420012816787,True,14,-1,0,9
Y2-S2-082K20,5,429,AS,exp,41,→,right,→,0.5308650000952184,True,14,-1,0,9
Y2-S2-082K20,5,430,AS,exp,36,←,left,←,0.43972730031237006,True,14,1,1,10
Y2-S2-082K20,5,431,AS,exp,42,→,no_key,no_letter,-1.0,False,13,-1,1,11
Y2-S2-082K20,5,432,AS,exp,28,↑,up,↑,0.5115325003862381,True,14,-1,0,11
Y2-S2-082K20,5,433,AS,exp,26,←,left,←,0.4363537998870015,True,14,-1,0,11
Y2-S2-082K20,5,434,AS,exp,34,↓,down,↓,0.6548325996845961,True,14,1,1,12
Y2-S2-082K20,5,435,AS,exp,39,↑,up,↑,0.5716392998583615,True,13,1,0,12
Y2-S2-082K20,5,436,AS,exp,41,↓,down,↓,0.5912545002065599,True,13,1,0,12
Y2-S2-082K20,5,437,AS,exp,36,→,left,←,0.8985146996565163,False,13,-1,1,13
Y2-S2-082K20,5,438,AS,exp,31,↓,down,↓,0.48261209996417165,True,14,-1,0,13
Y2-S2-082K20,5,439,AS,exp,39,↑,down,↓,0.46989049995318055,False,14,-1,0,13
Y2-S2-082K20,5,440,AS,exp,46,→,left,←,0.7549641998484731,False,15,-1,0,13
Y2-S2-082K20,5,441,AS,exp,46,↓,down,↓,0.5765824001282454,True,16,-1,0,13
Y2-S2-082K20,5,442,AS,exp,38,→,right,→,0.5470679001882672,True,16,-1,0,13
Y2-S2-082K20,5,443,AS,exp,45,↑,up,↑,0.48567960038781166,True,16,1,1,14
Y2-S2-082K20,5,444,AS,exp,38,↓,down,↓,1.2118985997512937,True,15,1,0,14
Y2-S2-082K20,5,445,AS,exp,31,←,left,←,0.4957636999897659,True,15,1,0,14
Y2-S2-082K20,5,446,AS,exp,38,↑,down,↓,0.6004933998920023,False,15,-1,1,15
Y2-S2-082K20,5,447,AS,exp,36,→,right,→,0.5330346999689937,True,16,-1,0,15
Y2-S2-082K20,5,448,AS,exp,26,←,left,←,0.5719320001080632,True,16,-1,0,15
Y2-S2-082K20,5,449,AS,exp,44,↓,down,↓,0.6170307002030313,True,16,1,1,16
Y2-S2-082K20,6,450,PS,intra_train,48,→,right,→,0.5463227997533977,True,18,-,-,-
Y2-S2-082K20,6,451,PS,intra_train,50,↑,up,↑,0.9933759002014995,True,18,-,-,-
Y2-S2-082K20,6,452,PS,intra_train,34,→,right,→,0.6159219001419842,True,18,-,-,-
Y2-S2-082K20,6,453,PS,intra_train,32,↑,up,↑,0.5967028997838497,True,18,-,-,-
Y2-S2-082K20,6,454,PS,intra_train,48,↓,down,↓,0.5425779996439815,True,18,-,-,-
Y2-S2-082K20,6,455,PS,exp,30,→,right,→,0.6516845002770424,True,12,0,0,0
Y2-S2-082K20,6,456,PS,exp,36,↑,up,↑,0.44779610028490424,True,12,0,0,0
Y2-S2-082K20,6,457,PS,exp,26,→,left,←,0.4276701998896897,False,12,-1,0,0
Y2-S2-082K20,6,458,PS,exp,48,↓,down,↓,0.6852063997648656,True,13,-1,0,0
Y2-S2-082K20,6,459,PS,exp,33,←,left,←,0.5319436001591384,True,13,-1,0,0
Y2-S2-082K20,6,460,PS,exp,44,↓,left,←,0.8499755999073386,False,13,-1,0,0
Y2-S2-082K20,6,461,PS,exp,39,→,left,←,0.47111509973183274,False,14,-1,0,0
Y2-S2-082K20,6,462,PS,exp,39,←,left,←,0.4559263000264764,True,15,-1,0,0
Y2-S2-082K20,6,463,PS,exp,29,↑,down,↓,0.7199565996415913,False,15,-1,0,0
Y2-S2-082K20,6,464,PS,exp,30,←,left,←,0.3843057001940906,True,16,-1,0,0
Y2-S2-082K20,6,465,PS,exp,36,↑,down,↓,0.7545330999419093,False,16,-1,0,0
Y2-S2-082K20,6,466,PS,exp,49,→,right,→,0.47616799967363477,True,17,-1,0,0
Y2-S2-082K20,6,467,PS,exp,34,←,left,←,0.6120847999118268,True,17,-1,0,0
Y2-S2-082K20,6,468,PS,exp,44,→,right,→,0.5054589998908341,True,17,1,1,1
Y2-S2-082K20,6,469,PS,exp,38,←,left,←,0.9359298995696008,True,16,1,0,1
Y2-S2-082K20,6,470,PS,exp,47,↓,down,↓,0.6296610999852419,True,16,1,0,1
Y2-S2-082K20,6,471,PS,exp,27,↑,up,↑,0.5058353999629617,True,16,1,0,1
Y2-S2-082K20,6,472,PS,exp,37,↓,down,↓,0.6897621001116931,True,15,1,0,1
Y2-S2-082K20,6,473,PS,exp,36,→,right,→,0.4246173999272287,True,15,1,0,1
Y2-S2-082K20,6,474,PS,exp,36,←,left,←,0.4384011998772621,True,15,1,0,1
Y2-S2-082K20,6,475,PS,exp,49,↑,up,↑,0.4602367002516985,True,14,1,0,1
Y2-S2-082K20,6,476,PS,exp,37,↓,down,↓,0.627617500256747,True,14,1,0,1
Y2-S2-082K20,6,477,PS,exp,27,→,right,→,0.4409419000148773,True,14,1,0,1
Y2-S2-082K20,6,478,PS,exp,50,↑,up,↑,0.4701550998724997,True,13,1,0,1
Y2-S2-082K20,6,479,PS,exp,33,←,left,←,0.48767799977213144,True,13,1,0,1
Y2-S2-082K20,6,480,PS,exp,43,↑,up,↑,0.5082054999656975,True,13,1,0,1
Y2-S2-082K20,6,481,PS,exp,47,↓,down,↓,0.5992819000966847,True,12,1,0,1
Y2-S2-082K20,6,482,PS,exp,50,→,right,→,0.577543499879539,True,12,1,0,1
Y2-S2-082K20,6,483,PS,exp,33,↓,left,←,0.4099059998989105,False,12,-1,1,2
Y2-S2-082K20,6,484,PS,exp,49,←,left,←,0.4453683001920581,True,13,-1,0,2
Y2-S2-082K20,6,485,PS,exp,39,→,right,→,0.6946375002153218,True,13,-1,0,2
Y2-S2-082K20,6,486,PS,exp,43,↓,down,↓,0.5046910997480154,True,13,1,1,3
Y2-S2-082K20,6,487,PS,exp,35,↑,up,↑,0.5066466997377574,True,12,1,0,3
Y2-S2-082K20,6,488,PS,exp,33,↓,down,↓,0.6577844000421464,True,12,1,0,3
Y2-S2-082K20,6,489,PS,exp,42,↑,up,↑,0.4683948000892997,True,12,1,0,3
Y2-S2-082K20,6,490,PS,exp,36,→,right,→,0.5870242002420127,True,11,1,0,3
Y2-S2-082K20,6,491,PS,exp,48,↑,up,↑,0.4417083002626896,True,11,1,0,3
Y2-S2-082K20,6,492,PS,exp,28,→,right,→,0.5797387999482453,True,11,1,0,3
Y2-S2-082K20,6,493,PS,exp,41,←,left,←,0.4423217000439763,True,10,1,0,3
Y2-S2-082K20,6,494,PS,exp,35,↑,up,↑,0.4774723001755774,True,10,1,0,3
Y2-S2-082K20,6,495,PS,exp,46,↓,down,↓,0.5623416998423636,True,10,1,0,3
Y2-S2-082K20,6,496,PS,exp,47,←,left,←,0.42691189981997013,True,9,1,0,3
Y2-S2-082K20,6,497,PS,exp,37,→,right,→,0.523337499704212,True,9,1,0,3
Y2-S2-082K20,6,498,PS,exp,48,←,left,←,0.6033713002689183,True,9,1,0,3
Y2-S2-082K20,6,499,PS,exp,35,↓,down,↓,0.5762773999013007,True,8,1,0,3
Y2-S2-082K20,6,500,PS,exp,50,←,right,→,0.6822906997986138,False,8,-1,1,4
Y2-S2-082K20,6,501,PS,exp,40,↓,down,↓,0.7615916999056935,True,9,-1,0,4
Y2-S2-082K20,6,502,PS,exp,31,←,left,←,0.4463618998415768,True,9,-1,0,4
Y2-S2-082K20,6,503,PS,exp,36,↓,down,↓,0.632780899759382,True,9,1,1,5
Y2-S2-082K20,6,504,PS,exp,28,←,left,←,0.433451300021261,True,8,1,0,5
Y2-S2-082K20,6,505,PS,exp,38,→,right,→,0.49898859998211265,True,8,1,0,5
Y2-S2-082K20,6,506,PS,exp,42,↓,down,↓,0.538629800081253,True,8,1,0,5
Y2-S2-082K20,6,507,PS,exp,34,↑,right,→,0.6360080000013113,False,7,-1,1,6
Y2-S2-082K20,6,508,PS,exp,43,←,left,←,0.5146684995852411,True,8,-1,0,6
Y2-S2-082K20,6,509,PS,exp,36,↓,right,→,0.5417912001721561,False,8,-1,0,6
Y2-S2-082K20,6,510,PS,exp,46,↑,up,↑,0.4599844003096223,True,9,-1,0,6
Y2-S2-082K20,6,511,PS,exp,46,↓,down,↓,0.5725150001235306,True,9,-1,0,6
Y2-S2-082K20,6,512,PS,exp,40,←,right,→,0.45344899967312813,False,9,-1,0,6
Y2-S2-082K20,6,513,PS,exp,50,↑,up,↑,0.47662399988621473,True,10,-1,0,6
Y2-S2-082K20,6,514,PS,exp,26,→,left,←,0.5150385000742972,False,10,-1,0,6
Y2-S2-082K20,6,515,PS,exp,43,↓,down,↓,0.5802601003088057,True,11,-1,0,6
Y2-S2-082K20,6,516,PS,exp,36,→,right,→,0.4119417001493275,True,11,-1,0,6
Y2-S2-082K20,6,517,PS,exp,30,↓,down,↓,0.5178916002623737,True,11,1,1,7
Y2-S2-082K20,6,518,PS,exp,41,←,left,←,0.7439218000508845,True,10,1,0,7
Y2-S2-082K20,6,519,PS,exp,41,↑,up,↑,0.4912378001026809,True,10,1,0,7
Y2-S2-082K20,6,520,PS,exp,40,↓,down,↓,0.627004399895668,True,10,1,0,7
Y2-S2-082K20,6,521,PS,exp,38,→,right,→,0.5024401997216046,True,9,1,0,7
Y2-S2-082K20,6,522,PS,exp,42,↓,down,↓,0.46721670031547546,True,9,1,0,7
Y2-S2-082K20,6,523,PS,exp,49,↑,up,↑,0.422962199896574,True,9,1,0,7
Y2-S2-082K20,6,524,PS,exp,26,→,right,→,0.44750870019197464,True,8,1,0,7
Y2-S2-082K20,6,525,PS,exp,38,↑,down,↓,0.5882059000432491,False,8,-1,1,8
Y2-S2-082K20,6,526,PS,exp,41,↓,down,↓,0.5647541000507772,True,9,-1,0,8
Y2-S2-082K20,6,527,PS,exp,29,↑,down,↓,0.613335800357163,False,9,-1,0,8
Y2-S2-082K20,6,528,PS,exp,48,↓,down,↓,0.6977821998298168,True,10,-1,0,8
Y2-S2-082K20,6,529,PS,exp,46,→,right,→,0.5018572001717985,True,10,-1,0,8
Y2-S2-082K20,6,530,PS,exp,39,←,left,←,0.5007826001383364,True,10,1,1,9
Y2-S2-082K20,6,531,PS,exp,31,↑,up,↑,0.474637100007385,True,9,1,0,9
Y2-S2-082K20,6,532,PS,exp,46,→,right,→,0.43419399997219443,True,9,1,0,9
Y2-S2-082K20,6,533,PS,exp,31,←,left,←,0.5292237000539899,True,9,1,0,9
Y2-S2-082K20,6,534,PS,exp,32,↑,up,↑,0.49634950002655387,True,8,1,0,9
Y2-S2-082K20,6,535,PS,exp,50,→,left,←,1.0813843002542853,False,8,-1,1,10
Y2-S2-082K20,6,536,PS,exp,38,←,right,→,0.47054569981992245,False,9,-1,0,10
Y2-S2-082K20,6,537,PS,exp,40,↑,up,↑,0.513695000205189,True,10,-1,0,10
Y2-S2-082K20,6,538,PS,exp,38,↓,left,←,0.6346375998109579,False,10,-1,0,10
Y2-S2-082K20,6,539,PS,exp,29,↑,left,←,0.4878525002859533,False,11,-1,0,10
Y2-S2-082K20,6,540,PS,exp,26,→,right,→,0.5145855997689068,True,12,-1,0,10
Y2-S2-082K20,6,541,PS,exp,31,↓,up,↑,0.6230717999860644,False,12,-1,0,10
Y2-S2-082K20,6,542,PS,exp,33,→,right,→,0.4308718997053802,True,13,-1,0,10
Y2-S2-082K20,6,543,PS,exp,47,←,left,←,0.4689512001350522,True,13,-1,0,10
Y2-S2-082K20,6,544,PS,exp,45,→,right,→,0.5695755002088845,True,13,1,1,11
Y2-S2-082K20,6,545,PS,exp,49,↑,up,↑,0.6320384996943176,True,12,1,0,11
Y2-S2-082K20,6,546,PS,exp,46,←,left,←,0.5591816999949515,True,12,1,0,11
Y2-S2-082K20,6,547,PS,exp,29,→,right,→,0.550638500135392,True,12,1,0,11
Y2-S2-082K20,6,548,PS,exp,31,←,left,←,0.5062380000017583,True,11,1,0,11
Y2-S2-082K20,6,549,PS,exp,50,→,right,→,0.43556280015036464,True,11,1,0,11
Y2-S2-082K20,6,550,PS,exp,35,↑,up,↑,1.125128900166601,True,11,1,0,11
Y2-S2-082K20,6,551,PS,exp,30,→,right,→,0.635451199952513,True,10,1,0,11
Y2-S2-082K20,6,552,PS,exp,33,↓,down,↓,0.7326621999964118,True,10,1,0,11
Y2-S2-082K20,6,553,PS,exp,46,←,left,←,0.4714481998234987,True,10,1,0,11
Y2-S2-082K20,6,554,PS,exp,48,↑,left,←,0.5764301000162959,False,9,-1,1,12
Y2-S2-082K20,6,555,PS,exp,45,↓,down,↓,0.6393291000276804,True,10,-1,0,12
Y2-S2-082K20,6,556,PS,exp,26,↑,up,↑,0.48119870014488697,True,10,-1,0,12
Y2-S2-082K20,6,557,PS,exp,45,→,right,→,0.5316976001486182,True,10,1,1,13
Y2-S2-082K20,6,558,PS,exp,37,←,right,→,0.5308622000738978,False,9,-1,1,14
Y2-S2-082K20,6,559,PS,exp,46,→,right,→,0.4987972998060286,True,10,-1,0,14
Y2-S2-082K20,6,560,PS,exp,32,↑,up,↑,0.46881420025601983,True,10,-1,0,14
Y2-S2-082K20,6,561,PS,exp,27,→,right,→,0.7990200002677739,True,10,1,1,15
Y2-S2-082K20,6,562,PS,exp,29,↑,left,←,0.5649723000824451,False,9,-1,1,16
Y2-S2-082K20,7,563,PS,intra_train,33,←,left,←,1.0967292999848723,True,18,-,-,-
Y2-S2-082K20,7,564,PS,intra_train,31,↓,down,↓,0.6263709999620914,True,18,-,-,-
Y2-S2-082K20,7,565,PS,intra_train,31,←,left,←,0.5132110002450645,True,18,-,-,-
Y2-S2-082K20,7,566,PS,intra_train,33,↑,up,↑,0.5465254001319408,True,18,-,-,-
Y2-S2-082K20,7,567,PS,intra_train,37,↓,down,↓,0.5117256999947131,True,18,-,-,-
Y2-S2-082K20,7,568,PS,exp,31,↑,up,↑,0.49468389991670847,True,12,0,0,0
Y2-S2-082K20,7,569,PS,exp,42,→,right,→,0.4992185002192855,True,12,0,0,0
Y2-S2-082K20,7,570,PS,exp,39,←,left,←,0.45964059978723526,True,12,1,0,0
Y2-S2-082K20,7,571,PS,exp,49,→,right,→,0.4513571998104453,True,11,1,0,0
Y2-S2-082K20,7,572,PS,exp,42,↑,right,→,0.5218448000960052,False,11,-1,1,1
Y2-S2-082K20,7,573,PS,exp,49,→,right,→,0.5346882999874651,True,12,-1,0,1
Y2-S2-082K20,7,574,PS,exp,28,↓,down,↓,0.6085756998509169,True,12,-1,0,1
Y2-S2-082K20,7,575,PS,exp,33,↑,right,→,0.4961687996983528,False,12,-1,0,1
Y2-S2-082K20,7,576,PS,exp,47,←,left,←,0.5187435001134872,True,13,-1,0,1
Y2-S2-082K20,7,577,PS,exp,28,↓,down,↓,0.524995299987495,True,13,-1,0,1
Y2-S2-082K20,7,578,PS,exp,39,←,left,←,0.4542684000916779,True,13,1,1,2
Y2-S2-082K20,7,579,PS,exp,37,↑,up,↑,0.4706945000216365,True,12,1,0,2
Y2-S2-082K20,7,580,PS,exp,44,→,right,→,0.41221030009910464,True,12,1,0,2
Y2-S2-082K20,7,581,PS,exp,49,↓,down,↓,0.5954716000705957,True,12,1,0,2
Y2-S2-082K20,7,582,PS,exp,30,←,right,→,0.4712368999607861,False,11,-1,1,3
Y2-S2-082K20,7,583,PS,exp,29,↑,up,↑,0.42024810006842017,True,12,-1,0,3
Y2-S2-082K20,7,584,PS,exp,39,→,right,→,0.4553673001937568,True,12,-1,0,3
Y2-S2-082K20,7,585,PS,exp,38,↑,up,↑,0.4196326001547277,True,12,1,1,4
Y2-S2-082K20,7,586,PS,exp,32,↓,down,↓,0.5671247001737356,True,11,1,0,4
Y2-S2-082K20,7,587,PS,exp,49,↑,up,↑,0.4291832000017166,True,11,1,0,4
Y2-S2-082K20,7,588,PS,exp,41,←,left,←,0.5271737999282777,True,11,1,0,4
Y2-S2-082K20,7,589,PS,exp,48,→,right,→,0.5486599998548627,True,10,1,0,4
Y2-S2-082K20,7,590,PS,exp,41,↑,up,↑,0.40921569988131523,True,10,1,0,4
Y2-S2-082K20,7,591,PS,exp,47,↓,down,↓,0.6745207002386451,True,10,1,0,4
Y2-S2-082K20,7,592,PS,exp,38,←,left,←,0.4585415003821254,True,9,1,0,4
Y2-S2-082K20,7,593,PS,exp,32,→,right,→,0.4785458999685943,True,9,1,0,4
Y2-S2-082K20,7,594,PS,exp,44,↑,up,↑,0.6352904997766018,True,9,1,0,4
Y2-S2-082K20,7,595,PS,exp,47,→,right,→,0.48248020000755787,True,8,1,0,4
Y2-S2-082K20,7,596,PS,exp,28,↑,up,↑,0.5330209997482598,True,8,1,0,4
Y2-S2-082K20,7,597,PS,exp,45,→,right,→,0.4717767001129687,True,8,1,0,4
Y2-S2-082K20,7,598,PS,exp,30,↓,down,↓,0.507561800070107,True,7,1,0,4
Y2-S2-082K20,7,599,PS,exp,45,↑,up,↑,0.5766547997482121,True,7,1,0,4
Y2-S2-082K20,7,600,PS,exp,48,←,right,→,0.5620483001694083,False,7,-1,1,5
Y2-S2-082K20,7,601,PS,exp,33,↑,right,→,0.6587999002076685,False,8,-1,0,5
Y2-S2-082K20,7,602,PS,exp,49,↓,down,↓,0.5695833000354469,True,9,-1,0,5
Y2-S2-082K20,7,603,PS,exp,28,↑,down,↓,0.696906799916178,False,9,-1,0,5
Y2-S2-082K20,7,604,PS,exp,36,↓,right,→,0.5643115001730621,False,10,-1,0,5
Y2-S2-082K20,7,605,PS,exp,46,←,left,←,0.4428013996221125,True,11,-1,0,5
Y2-S2-082K20,7,606,PS,exp,44,→,right,→,0.5146674001589417,True,11,-1,0,5
Y2-S2-082K20,7,607,PS,exp,40,↓,down,↓,0.49447540007531643,True,11,1,1,6
Y2-S2-082K20,7,608,PS,exp,39,←,left,←,0.48855969961732626,True,10,1,0,6
Y2-S2-082K20,7,609,PS,exp,44,↑,up,↑,0.5731401001103222,True,10,1,0,6
Y2-S2-082K20,7,610,PS,exp,32,←,left,←,0.4869452998973429,True,10,1,0,6
Y2-S2-082K20,7,611,PS,exp,46,↑,up,↑,0.46195989986881614,True,9,1,0,6
Y2-S2-082K20,7,612,PS,exp,26,→,right,→,0.4158494998700917,True,9,1,0,6
Y2-S2-082K20,7,613,PS,exp,42,↓,down,↓,0.561196600086987,True,9,1,0,6
Y2-S2-082K20,7,614,PS,exp,36,→,right,→,0.45987039990723133,True,8,1,0,6
Y2-S2-082K20,7,615,PS,exp,41,↓,down,↓,0.48476439993828535,True,8,1,0,6
Y2-S2-082K20,7,616,PS,exp,43,↑,up,↑,0.44997610012069345,True,8,1,0,6
Y2-S2-082K20,7,617,PS,exp,40,→,right,→,0.5515609001740813,True,7,1,0,6
Y2-S2-082K20,7,618,PS,exp,35,↓,left,←,0.9579815999604762,False,7,-1,1,7
Y2-S2-082K20,7,619,PS,exp,27,←,left,←,0.38125550001859665,True,8,-1,0,7
Y2-S2-082K20,7,620,PS,exp,37,↑,up,↑,0.5506069003604352,True,8,-1,0,7
Y2-S2-082K20,7,621,PS,exp,43,←,left,←,0.4551993003115058,True,8,1,1,8
Y2-S2-082K20,7,622,PS,exp,43,↓,down,↓,0.5262158997356892,True,7,1,0,8
Y2-S2-082K20,7,623,PS,exp,28,→,left,←,0.4984980998560786,False,7,-1,1,9
Y2-S2-082K20,7,624,PS,exp,34,↑,left,←,1.054538100026548,False,8,-1,0,9
Y2-S2-082K20,7,625,PS,exp,30,→,right,→,0.42547510005533695,True,9,-1,0,9
Y2-S2-082K20,7,626,PS,exp,33,↑,up,↑,0.4999203998595476,True,9,-1,0,9
Y2-S2-082K20,7,627,PS,exp,35,←,left,←,0.7513975999318063,True,9,1,1,10
Y2-S2-082K20,7,628,PS,exp,37,→,right,→,0.46674219984561205,True,8,1,0,10
Y2-S2-082K20,7,629,PS,exp,34,↓,left,←,0.41214470006525517,False,8,-1,1,11
Y2-S2-082K20,7,630,PS,exp,33,↑,up,↑,0.556253899820149,True,9,-1,0,11
Y2-S2-082K20,7,631,PS,exp,33,↓,left,←,0.4024586002342403,False,9,-1,0,11
Y2-S2-082K20,7,632,PS,exp,49,↑,down,↓,0.885168599896133,False,10,-1,0,11
Y2-S2-082K20,7,633,PS,exp,50,↓,down,↓,0.530288000125438,True,11,-1,0,11
Y2-S2-082K20,7,634,PS,exp,31,↑,up,↑,0.5030644000507891,True,11,-1,0,11
Y2-S2-082K20,7,635,PS,exp,40,←,left,←,0.6045439997687936,True,11,1,1,12
Y2-S2-082K20,7,636,PS,exp,38,→,right,→,0.5226795999333262,True,10,1,0,12
Y2-S2-082K20,7,637,PS,exp,31,↑,up,↑,0.43846069974824786,True,10,1,0,12
Y2-S2-082K20,7,638,PS,exp,28,←,left,←,0.42377550015226007,True,10,1,0,12
Y2-S2-082K20,7,639,PS,exp,47,↓,down,↓,0.6316277999430895,True,9,1,0,12
Y2-S2-082K20,7,640,PS,exp,39,→,left,←,0.47496420005336404,False,9,-1,1,13
Y2-S2-082K20,7,641,PS,exp,28,↑,up,↑,0.4786074999719858,True,10,-1,0,13
Y2-S2-082K20,7,642,PS,exp,39,←,left,←,0.4684786000289023,True,10,-1,0,13
Y2-S2-082K20,7,643,PS,exp,26,↑,left,←,1.7380428002215922,False,10,-1,0,13
Y2-S2-082K20,7,644,PS,exp,30,←,left,←,0.43892710004001856,True,11,-1,0,13
Y2-S2-082K20,7,645,PS,exp,41,↑,up,↑,1.3300687996670604,True,11,-1,0,13
Y2-S2-082K20,7,646,PS,exp,46,←,left,←,0.3920688000507653,True,11,1,1,14
Y2-S2-082K20,7,647,PS,exp,29,→,left,←,0.34525200026109815,False,10,-1,1,15
Y2-S2-082K20,7,648,PS,exp,36,↑,up,↑,0.6528186998330057,True,11,-1,0,15
Y2-S2-082K20,7,649,PS,exp,45,←,left,←,0.45042760018259287,True,11,-1,0,15
Y2-S2-082K20,7,650,PS,exp,48,↑,left,←,0.9019267000257969,False,11,-1,0,15
Y2-S2-082K20,7,651,PS,exp,25,←,left,←,0.531171899754554,True,12,-1,0,15
Y2-S2-082K20,7,652,PS,exp,41,↑,up,↑,0.6867319000884891,True,12,-1,0,15
Y2-S2-082K20,7,653,PS,exp,43,←,left,←,0.5210226001217961,True,12,1,1,16
Y2-S2-082K20,8,654,AS,intra_train,27,→,right,→,0.6131894001737237,True,24,-,-,-
Y2-S2-082K20,8,655,AS,intra_train,29,↓,down,↓,0.8899743999354541,True,24,-,-,-
Y2-S2-082K20,8,656,AS,intra_train,29,←,left,←,0.41737839998677373,True,24,-,-,-
Y2-S2-082K20,8,657,AS,intra_train,48,↑,up,↑,1.0661459998227656,True,24,-,-,-
Y2-S2-082K20,8,658,AS,intra_train,31,←,left,←,0.4673268999904394,True,24,-,-,-
Y2-S2-082K20,8,659,AS,exp,28,→,up,↑,1.4269485999830067,False,16,-1,0,0
Y2-S2-082K20,8,660,AS,exp,50,←,left,←,0.6553135002031922,True,17,-1,0,0
Y2-S2-082K20,8,661,AS,exp,28,→,right,→,0.670585900079459,True,17,-1,0,0
Y2-S2-082K20,8,662,AS,exp,32,←,left,←,0.5812018997967243,True,17,1,1,1
Y2-S2-082K20,8,663,AS,exp,28,↑,up,↑,0.5981897003948689,True,16,1,0,1
Y2-S2-082K20,8,664,AS,exp,33,→,right,→,0.7394369998946786,True,16,1,0,1
Y2-S2-082K20,8,665,AS,exp,29,↑,up,↑,0.5861402000300586,True,16,1,0,1
Y2-S2-082K20,8,666,AS,exp,42,↓,down,↓,0.669834999833256,True,15,1,0,1
Y2-S2-082K20,8,667,AS,exp,26,←,left,←,0.5491575999185443,True,15,1,0,1
Y2-S2-082K20,8,668,AS,exp,38,→,left,←,1.345588400028646,False,15,-1,1,2
Y2-S2-082K20,8,669,AS,exp,40,↑,up,↑,0.5521932002156973,True,16,-1,0,2
Y2-S2-082K20,8,670,AS,exp,38,→,right,→,0.5217480999417603,True,16,-1,0,2
Y2-S2-082K20,8,671,AS,exp,28,←,left,←,0.5542517001740634,True,16,1,1,3
Y2-S2-082K20,8,672,AS,exp,38,↑,up,↑,0.6427596998400986,True,15,1,0,3
Y2-S2-082K20,8,673,AS,exp,50,↓,down,↓,0.651857300195843,True,15,1,0,3
Y2-S2-082K20,8,674,AS,exp,38,↑,up,↑,0.49112700019031763,True,15,1,0,3
Y2-S2-082K20,8,675,AS,exp,31,←,left,←,0.42781159980222583,True,14,1,0,3
Y2-S2-082K20,8,676,AS,exp,33,↓,down,↓,0.6319055003114045,True,14,1,0,3
Y2-S2-082K20,8,677,AS,exp,38,←,left,←,0.5287754996679723,True,14,1,0,3
Y2-S2-082K20,8,678,AS,exp,44,↓,down,↓,0.730988500174135,True,13,1,0,3
Y2-S2-082K20,8,679,AS,exp,38,→,left,←,0.5895607001148164,False,13,-1,1,4
Y2-S2-082K20,8,680,AS,exp,46,↓,down,↓,0.63789530005306,True,14,-1,0,4
Y2-S2-082K20,8,681,AS,exp,37,←,left,←,0.4919099002145231,True,14,-1,0,4
Y2-S2-082K20,8,682,AS,exp,40,↓,down,↓,0.6715232999995351,True,14,1,1,5
Y2-S2-082K20,8,683,AS,exp,40,←,left,←,0.7328828000463545,True,13,1,0,5
Y2-S2-082K20,8,684,AS,exp,42,↓,down,↓,0.5686077997088432,True,13,1,0,5
Y2-S2-082K20,8,685,AS,exp,50,←,left,←,0.6244028001092374,True,13,1,0,5
Y2-S2-082K20,8,686,AS,exp,43,↑,up,↑,0.5021343003027141,True,12,1,0,5
Y2-S2-082K20,8,687,AS,exp,45,→,right,→,0.5717555000446737,True,12,1,0,5
Y2-S2-082K20,8,688,AS,exp,33,↑,up,↑,0.5228764000348747,True,12,1,0,5
Y2-S2-082K20,8,689,AS,exp,36,↓,left,←,1.35177670000121,False,11,-1,1,6
Y2-S2-082K20,8,690,AS,exp,35,↑,up,↑,0.7501206998713315,True,12,-1,0,6
Y2-S2-082K20,8,691,AS,exp,43,←,left,←,0.6204131999984384,True,12,-1,0,6
Y2-S2-082K20,8,692,AS,exp,44,→,right,→,0.5350912003777921,True,12,1,1,7
Y2-S2-082K20,8,693,AS,exp,48,↓,down,↓,0.6568493000231683,True,11,1,0,7
Y2-S2-082K20,8,694,AS,exp,35,←,left,←,0.5805971999652684,True,11,1,0,7
Y2-S2-082K20,8,695,AS,exp,42,↑,up,↑,0.6131087997928262,True,11,1,0,7
Y2-S2-082K20,8,696,AS,exp,45,←,left,←,0.541270200163126,True,10,1,0,7
Y2-S2-082K20,8,697,AS,exp,29,↓,down,↓,0.7203223002143204,True,10,1,0,7
Y2-S2-082K20,8,698,AS,exp,30,←,left,←,0.5196865000762045,True,10,1,0,7
Y2-S2-082K20,8,699,AS,exp,28,↓,down,↓,0.8143336996436119,True,9,1,0,7
Y2-S2-082K20,8,700,AS,exp,33,↑,up,↑,0.34047200018540025,True,9,1,0,7
Y2-S2-082K20,8,701,AS,exp,44,→,left,←,0.4895179998129606,False,9,-1,1,8
Y2-S2-082K20,8,702,AS,exp,27,↓,down,↓,0.9045441998168826,True,10,-1,0,8
Y2-S2-082K20,8,703,AS,exp,34,→,right,→,0.5786799001507461,True,10,-1,0,8
Y2-S2-082K20,8,704,AS,exp,43,←,left,←,0.533925199881196,True,10,1,1,9
Y2-S2-082K20,8,705,AS,exp,49,↓,down,↓,0.6607723999768496,True,9,1,0,9
Y2-S2-082K20,8,706,AS,exp,37,←,left,←,0.5581592000089586,True,9,1,0,9
Y2-S2-082K20,8,707,AS,exp,44,↓,down,↓,0.6366452998481691,True,9,1,0,9
Y2-S2-082K20,8,708,AS,exp,38,←,left,←,0.5182601995766163,True,8,1,0,9
Y2-S2-082K20,8,709,AS,exp,25,↓,down,↓,0.5331493001431227,True,8,1,0,9
Y2-S2-082K20,8,710,AS,exp,43,←,right,→,0.7678645001724362,False,8,-1,1,10
Y2-S2-082K20,8,711,AS,exp,49,→,left,←,0.5924320998601615,False,9,-1,0,10
Y2-S2-082K20,8,712,AS,exp,26,↑,up,↑,0.416253499686718,True,10,-1,0,10
Y2-S2-082K20,8,713,AS,exp,26,→,right,→,0.4866618001833558,True,10,-1,0,10
Y2-S2-082K20,8,714,AS,exp,25,↓,down,↓,0.7689538998529315,True,10,1,1,11
Y2-S2-082K20,8,715,AS,exp,47,←,left,←,0.6613296996802092,True,9,1,0,11
Y2-S2-082K20,8,716,AS,exp,44,↓,up,↑,0.4894790998660028,False,9,-1,1,12
Y2-S2-082K20,8,717,AS,exp,43,→,left,←,0.5008014999330044,False,10,-1,0,12
Y2-S2-082K20,8,718,AS,exp,40,←,left,←,0.4056953997351229,True,11,-1,0,12
Y2-S2-082K20,8,719,AS,exp,48,↓,down,↓,0.674806300085038,True,11,-1,0,12
Y2-S2-082K20,8,720,AS,exp,28,→,right,→,0.5239641997031868,True,11,1,1,13
Y2-S2-082K20,8,721,AS,exp,25,↓,down,↓,0.5161398001946509,True,10,1,0,13
Y2-S2-082K20,8,722,AS,exp,40,←,left,←,0.5501470998860896,True,10,1,0,13
Y2-S2-082K20,8,723,AS,exp,31,→,right,→,0.38510659988969564,True,10,1,0,13
Y2-S2-082K20,8,724,AS,exp,50,↑,up,↑,0.5717876004055142,True,9,1,0,13
Y2-S2-082K20,8,725,AS,exp,26,←,left,←,0.6461606998927891,True,9,1,0,13
Y2-S2-082K20,8,726,AS,exp,25,→,left,←,0.5979047999717295,False,9,-1,1,14
Y2-S2-082K20,8,727,AS,exp,45,←,left,←,0.7051930003799498,True,10,-1,0,14
Y2-S2-082K20,8,728,AS,exp,27,→,left,←,0.647858599666506,False,10,-1,0,14
Y2-S2-082K20,8,729,AS,exp,49,↓,down,↓,0.3552950001321733,True,11,-1,0,14
Y2-S2-082K20,8,730,AS,exp,44,←,left,←,0.5678886002860963,True,11,-1,0,14
Y2-S2-082K20,8,731,AS,exp,44,↓,down,↓,0.4617198999039829,True,11,1,1,15
Y2-S2-082K20,8,732,AS,exp,39,→,left,←,0.5859067998826504,False,10,-1,1,16
