PART_ID,Block_no,Trial_no,Block_type,Trial_type,CSI,Stim_letter,Key_pressed,letter_choose,Rt,Corr,Stimulus Time,Level,Reversal,Revs_count
Y2-S2-011K24,1,1,PS,train,41,→,right,→,0.8941163001582026,True,30,-,-,-
Y2-S2-011K24,1,2,PS,train,44,↓,down,↓,2.1267511998303235,True,30,-,-,-
Y2-S2-011K24,1,3,PS,train,50,↑,up,↑,0.7004031999967992,True,30,-,-,-
Y2-S2-011K24,1,4,PS,train,47,↓,down,↓,1.2870929001364857,True,30,-,-,-
Y2-S2-011K24,1,5,PS,train,47,→,right,→,0.5672476999461651,True,30,-,-,-
Y2-S2-011K24,1,6,PS,train,25,←,left,←,0.6944560001138598,True,30,-,-,-
Y2-S2-011K24,1,7,PS,train,36,↓,down,↓,0.6173583001364022,True,30,-,-,-
Y2-S2-011K24,1,8,PS,train,49,←,left,←,0.6893418999388814,True,30,-,-,-
Y2-S2-011K24,1,9,PS,train,31,→,right,→,0.7181267999112606,True,30,-,-,-
Y2-S2-011K24,1,10,PS,train,29,↓,no_key,no_letter,-1.0,False,30,-,-,-
Y2-S2-011K24,2,11,AS,train,50,→,right,→,0.7836855999194086,True,45,-,-,-
Y2-S2-011K24,2,12,AS,train,30,↑,up,↑,0.634452800033614,True,45,-,-,-
Y2-S2-011K24,2,13,AS,train,27,→,right,→,0.5679957999382168,True,45,-,-,-
Y2-S2-011K24,2,14,AS,train,44,↓,down,↓,0.7674849999602884,True,45,-,-,-
Y2-S2-011K24,2,15,AS,train,47,→,right,→,0.7673963999841362,True,45,-,-,-
Y2-S2-011K24,2,16,AS,train,42,↓,down,↓,0.6509755000006407,True,45,-,-,-
Y2-S2-011K24,2,17,AS,train,50,↑,up,↑,0.6514169999863952,True,45,-,-,-
Y2-S2-011K24,2,18,AS,train,40,→,right,→,0.5180172000546008,True,45,-,-,-
Y2-S2-011K24,2,19,AS,train,43,↓,down,↓,0.5843817999120802,True,45,-,-,-
Y2-S2-011K24,2,20,AS,train,35,↑,up,↑,0.5841416001785547,True,45,-,-,-
Y2-S2-011K24,-,21,PS,adaptive,34,→,right,→,0.5204199000727385,True,10,0,0,0
Y2-S2-011K24,-,22,PS,adaptive,36,←,left,←,0.4594103000126779,True,10,0,0,0
Y2-S2-011K24,-,23,PS,adaptive,41,→,right,→,0.5070420000702143,True,10,1,0,0
Y2-S2-011K24,-,24,PS,adaptive,42,↓,down,↓,0.9628607998602092,True,9,1,0,0
Y2-S2-011K24,-,25,PS,adaptive,44,←,left,←,0.8688521001022309,True,9,1,0,0
Y2-S2-011K24,-,26,PS,adaptive,37,↓,down,↓,0.8100856000091881,True,9,1,0,0
Y2-S2-011K24,-,27,PS,adaptive,39,←,left,←,0.6321244998835027,True,8,1,0,0
Y2-S2-011K24,-,28,PS,adaptive,42,↓,up,↑,0.7567362999543548,False,8,-1,1,1
Y2-S2-011K24,-,29,PS,adaptive,44,←,left,←,0.5719180998858064,True,9,-1,0,1
Y2-S2-011K24,-,30,PS,adaptive,25,↑,up,↑,0.686414800118655,True,9,-1,0,1
Y2-S2-011K24,-,31,PS,adaptive,46,→,right,→,0.4781354998704046,True,9,1,1,2
Y2-S2-011K24,-,32,PS,adaptive,44,←,left,←,0.5706537000369281,True,8,1,0,2
Y2-S2-011K24,-,33,PS,adaptive,45,↑,down,↓,0.8921520998701453,False,8,-1,1,3
Y2-S2-011K24,-,34,PS,adaptive,41,←,left,←,1.6646469000261277,True,9,-1,0,3
Y2-S2-011K24,-,35,PS,adaptive,47,↑,right,→,0.39078180002979934,False,9,-1,0,3
Y2-S2-011K24,-,36,PS,adaptive,28,→,right,→,0.48717980016954243,True,10,-1,0,3
Y2-S2-011K24,-,37,PS,adaptive,29,↓,right,→,0.8261175998486578,False,10,-1,0,3
Y2-S2-011K24,-,38,PS,adaptive,36,→,right,→,0.5608628001064062,True,11,-1,0,3
Y2-S2-011K24,-,39,PS,adaptive,28,↓,down,↓,0.622181799961254,True,11,-1,0,3
Y2-S2-011K24,-,40,PS,adaptive,48,→,right,→,0.5025935999583453,True,11,1,1,4
Y2-S2-011K24,-,41,AS,adaptive,40,↓,down,↓,1.0309707000851631,True,20,0,0,0
Y2-S2-011K24,-,42,AS,adaptive,28,←,left,←,0.4671219000592828,True,20,0,0,0
Y2-S2-011K24,-,43,AS,adaptive,40,↓,down,↓,0.9527032999321818,True,20,1,0,0
Y2-S2-011K24,-,44,AS,adaptive,30,↑,up,↑,0.433786700014025,True,19,1,0,0
Y2-S2-011K24,-,45,AS,adaptive,49,←,left,←,0.41689769993536174,True,19,1,0,0
Y2-S2-011K24,-,46,AS,adaptive,33,→,right,→,0.521000400185585,True,19,1,0,0
Y2-S2-011K24,-,47,AS,adaptive,41,↓,down,↓,0.4700845000334084,True,18,1,0,0
Y2-S2-011K24,-,48,AS,adaptive,48,→,right,→,0.4006882000248879,True,18,1,0,0
Y2-S2-011K24,-,49,AS,adaptive,32,↓,down,↓,0.4836927999276668,True,18,1,0,0
Y2-S2-011K24,-,50,AS,adaptive,46,→,right,→,0.3840055000036955,True,17,1,0,0
Y2-S2-011K24,-,51,AS,adaptive,50,←,down,↓,0.8064743999857455,False,17,-1,1,1
Y2-S2-011K24,-,52,AS,adaptive,44,↑,up,↑,0.8276356998831034,True,18,-1,0,1
Y2-S2-011K24,-,53,AS,adaptive,31,←,right,→,0.5002774000167847,False,18,-1,0,1
Y2-S2-011K24,-,54,AS,adaptive,29,→,right,→,0.6306580998934805,True,19,-1,0,1
Y2-S2-011K24,-,55,AS,adaptive,35,←,left,←,0.45081449998542666,True,19,-1,0,1
Y2-S2-011K24,-,56,AS,adaptive,35,↑,down,↓,0.5938029000535607,False,19,-1,0,1
Y2-S2-011K24,-,57,AS,adaptive,36,→,right,→,0.71847949991934,True,20,-1,0,1
Y2-S2-011K24,-,58,AS,adaptive,35,↑,up,↑,0.41738450014963746,True,20,-1,0,1
Y2-S2-011K24,-,59,AS,adaptive,36,→,right,→,0.5590868999715894,True,20,1,1,2
Y2-S2-011K24,-,60,AS,adaptive,34,↓,down,↓,0.579553100047633,True,19,1,0,2
Y2-S2-011K24,-,61,AS,adaptive,46,↑,up,↑,0.48819199996069074,True,19,1,0,2
Y2-S2-011K24,-,62,AS,adaptive,29,↓,down,↓,0.5654448999557644,True,19,1,0,2
Y2-S2-011K24,-,63,AS,adaptive,47,→,right,→,0.48016949999146163,True,18,1,0,2
Y2-S2-011K24,-,64,AS,adaptive,44,↓,down,↓,1.8226880999282002,True,18,1,0,2
Y2-S2-011K24,-,65,AS,adaptive,33,←,left,←,0.6616441998630762,True,18,1,0,2
Y2-S2-011K24,-,66,AS,adaptive,44,→,left,←,0.8318459000438452,False,17,-1,1,3
Y2-S2-011K24,-,67,AS,adaptive,50,↑,up,↑,0.5823975999373943,True,18,-1,0,3
Y2-S2-011K24,-,68,AS,adaptive,38,↓,up,↑,0.7692094999365509,False,18,-1,0,3
Y2-S2-011K24,-,69,AS,adaptive,38,↑,up,↑,0.9135092999786139,True,19,-1,0,3
Y2-S2-011K24,-,70,AS,adaptive,50,←,up,↑,0.866862699855119,False,19,-1,0,3
Y2-S2-011K24,-,71,AS,adaptive,28,↑,up,↑,0.9123673001304269,True,20,-1,0,3
Y2-S2-011K24,-,72,AS,adaptive,33,↓,down,↓,0.5504431000445038,True,20,-1,0,3
Y2-S2-011K24,-,73,AS,adaptive,28,←,left,←,0.767849100055173,True,20,1,1,4
Y2-S2-011K24,1,74,PS,intra_train,37,↓,down,↓,0.5284567000344396,True,15,-,-,-
Y2-S2-011K24,1,75,PS,intra_train,34,↑,up,↑,0.43713729991577566,True,15,-,-,-
Y2-S2-011K24,1,76,PS,intra_train,41,→,right,→,0.452268399996683,True,15,-,-,-
Y2-S2-011K24,1,77,PS,intra_train,29,↑,up,↑,0.384355700109154,True,15,-,-,-
Y2-S2-011K24,1,78,PS,intra_train,28,←,left,←,0.36732299998402596,True,15,-,-,-
Y2-S2-011K24,1,79,PS,exp,38,↓,down,↓,0.5136252001393586,True,10,0,0,0
Y2-S2-011K24,1,80,PS,exp,29,←,left,←,0.473255000077188,True,10,0,0,0
Y2-S2-011K24,1,81,PS,exp,50,↓,down,↓,0.5190463999751955,True,10,1,0,0
Y2-S2-011K24,1,82,PS,exp,39,↑,up,↑,0.65311020007357,True,9,1,0,0
Y2-S2-011K24,1,83,PS,exp,26,←,left,←,0.5465508999768645,True,9,1,0,0
Y2-S2-011K24,1,84,PS,exp,50,↑,up,↑,0.4410580999683589,True,9,1,0,0
Y2-S2-011K24,1,85,PS,exp,31,↓,right,→,0.7012746001128107,False,8,-1,1,1
Y2-S2-011K24,1,86,PS,exp,38,→,right,→,0.5000299999956042,True,9,-1,0,1
Y2-S2-011K24,1,87,PS,exp,29,↑,up,↑,0.45117920008488,True,9,-1,0,1
Y2-S2-011K24,1,88,PS,exp,28,←,right,→,0.6456249998882413,False,9,-1,0,1
Y2-S2-011K24,1,89,PS,exp,34,↓,right,→,0.8278487999923527,False,10,-1,0,1
Y2-S2-011K24,1,90,PS,exp,26,↑,right,→,0.9683850000146776,False,11,-1,0,1
Y2-S2-011K24,1,91,PS,exp,49,↓,right,→,0.6375641000922769,False,12,-1,0,1
Y2-S2-011K24,1,92,PS,exp,46,↑,up,↑,0.46658240002579987,True,13,-1,0,1
Y2-S2-011K24,1,93,PS,exp,42,←,left,←,0.6373916000593454,True,13,-1,0,1
Y2-S2-011K24,1,94,PS,exp,42,↓,down,↓,0.5503233999479562,True,13,1,1,2
Y2-S2-011K24,1,95,PS,exp,42,→,right,→,0.4507446999195963,True,12,1,0,2
Y2-S2-011K24,1,96,PS,exp,30,←,left,←,0.43067630007863045,True,12,1,0,2
Y2-S2-011K24,1,97,PS,exp,48,↑,down,↓,0.5368428998626769,False,12,-1,1,3
Y2-S2-011K24,1,98,PS,exp,40,←,right,→,0.5064336999785155,False,13,-1,0,3
Y2-S2-011K24,1,99,PS,exp,25,→,right,→,0.41973239998333156,True,14,-1,0,3
Y2-S2-011K24,1,100,PS,exp,29,←,left,←,0.4940035999752581,True,14,-1,0,3
Y2-S2-011K24,1,101,PS,exp,31,→,right,→,0.432459200033918,True,14,1,1,4
Y2-S2-011K24,1,102,PS,exp,28,↓,left,←,0.9161326999310404,False,13,-1,1,5
Y2-S2-011K24,1,103,PS,exp,29,↑,up,↑,0.5638918001204729,True,14,-1,0,5
Y2-S2-011K24,1,104,PS,exp,50,←,up,↑,0.5188619000837207,False,14,-1,0,5
Y2-S2-011K24,1,105,PS,exp,31,↑,left,←,0.6093527001794428,False,15,-1,0,5
Y2-S2-011K24,1,106,PS,exp,39,↓,down,↓,0.5513220999855548,True,16,-1,0,5
Y2-S2-011K24,1,107,PS,exp,37,↑,up,↑,0.6566198000218719,True,16,-1,0,5
Y2-S2-011K24,1,108,PS,exp,36,←,left,←,0.5318615001160651,True,16,1,1,6
Y2-S2-011K24,1,109,PS,exp,25,↑,up,↑,0.6154618000146002,True,15,1,0,6
Y2-S2-011K24,1,110,PS,exp,38,→,no_key,no_letter,-1.0,False,15,-1,1,7
Y2-S2-011K24,1,111,PS,exp,34,←,no_key,no_letter,-1.0,False,16,-1,0,7
Y2-S2-011K24,1,112,PS,exp,26,↑,no_key,no_letter,-1.0,False,17,-1,0,7
Y2-S2-011K24,1,113,PS,exp,28,←,left,←,0.40116060012951493,True,18,-1,0,7
Y2-S2-011K24,1,114,PS,exp,32,↑,no_key,no_letter,-1.0,False,18,-1,0,7
Y2-S2-011K24,1,115,PS,exp,30,←,left,←,0.4507474999409169,True,19,-1,0,7
Y2-S2-011K24,1,116,PS,exp,31,→,right,→,0.45022969995625317,True,19,-1,0,7
Y2-S2-011K24,1,117,PS,exp,48,↓,no_key,no_letter,-1.0,False,19,-1,0,7
Y2-S2-011K24,1,118,PS,exp,28,→,right,→,0.41722630010917783,True,20,-1,0,7
Y2-S2-011K24,1,119,PS,exp,25,↑,no_key,no_letter,-1.0,False,20,-1,0,7
Y2-S2-011K24,1,120,PS,exp,37,↓,down,↓,0.5573748999740928,True,21,-1,0,7
Y2-S2-011K24,1,121,PS,exp,29,↑,up,↑,0.45079190004616976,True,21,-1,0,7
Y2-S2-011K24,1,122,PS,exp,28,←,left,←,0.41768849990330637,True,21,1,1,8
Y2-S2-011K24,1,123,PS,exp,44,→,right,→,0.5222564998548478,True,20,1,0,8
Y2-S2-011K24,1,124,PS,exp,33,←,left,←,0.4010648999828845,True,20,1,0,8
Y2-S2-011K24,1,125,PS,exp,50,↓,down,↓,0.5891587999649346,True,20,1,0,8
Y2-S2-011K24,1,126,PS,exp,30,↑,up,↑,0.4339375998824835,True,19,1,0,8
Y2-S2-011K24,1,127,PS,exp,33,↓,down,↓,0.4503679999615997,True,19,1,0,8
Y2-S2-011K24,1,128,PS,exp,32,↑,up,↑,0.4890747999306768,True,19,1,0,8
Y2-S2-011K24,1,129,PS,exp,28,↓,down,↓,0.5623321000020951,True,18,1,0,8
Y2-S2-011K24,1,130,PS,exp,31,↑,up,↑,0.5811279001645744,True,18,1,0,8
Y2-S2-011K24,1,131,PS,exp,27,↓,down,↓,0.5090232000220567,True,18,1,0,8
Y2-S2-011K24,1,132,PS,exp,36,↑,up,↑,0.4173598999623209,True,17,1,0,8
Y2-S2-011K24,1,133,PS,exp,27,←,left,←,0.5104636999312788,True,17,1,0,8
Y2-S2-011K24,1,134,PS,exp,47,→,right,→,0.4566314001567662,True,17,1,0,8
Y2-S2-011K24,1,135,PS,exp,27,↓,down,↓,0.6037492000032216,True,16,1,0,8
Y2-S2-011K24,1,136,PS,exp,33,↑,up,↑,0.5739929999690503,True,16,1,0,8
Y2-S2-011K24,1,137,PS,exp,38,→,right,→,1.2012239000760019,True,16,1,0,8
Y2-S2-011K24,1,138,PS,exp,48,↓,down,↓,0.5541971002239734,True,15,1,0,8
Y2-S2-011K24,1,139,PS,exp,28,→,right,→,0.48562600021250546,True,15,1,0,8
Y2-S2-011K24,1,140,PS,exp,27,↑,up,↑,0.5519922999665141,True,15,1,0,8
Y2-S2-011K24,1,141,PS,exp,29,←,left,←,1.4069223999977112,True,14,1,0,8
Y2-S2-011K24,1,142,PS,exp,25,↑,up,↑,0.4358118998352438,True,14,1,0,8
Y2-S2-011K24,1,143,PS,exp,50,→,right,→,0.42492780019529164,True,14,1,0,8
Y2-S2-011K24,1,144,PS,exp,40,↓,down,↓,0.5518139998894185,True,13,1,0,8
Y2-S2-011K24,1,145,PS,exp,50,←,left,←,0.3973560999147594,True,13,1,0,8
Y2-S2-011K24,1,146,PS,exp,37,→,right,→,0.47935050004161894,True,13,1,0,8
Y2-S2-011K24,1,147,PS,exp,46,↓,down,↓,0.9585994998924434,True,12,1,0,8
Y2-S2-011K24,1,148,PS,exp,34,←,right,→,0.4203189997933805,False,12,-1,1,9
Y2-S2-011K24,1,149,PS,exp,25,→,no_key,no_letter,-1.0,False,13,-1,0,9
Y2-S2-011K24,1,150,PS,exp,39,↓,down,↓,0.47833760012872517,True,14,-1,0,9
Y2-S2-011K24,1,151,PS,exp,30,←,left,←,0.3674991999287158,True,14,-1,0,9
Y2-S2-011K24,1,152,PS,exp,30,→,right,→,0.4643175001256168,True,14,1,1,10
Y2-S2-011K24,1,153,PS,exp,46,↑,up,↑,0.4529609000310302,True,13,1,0,10
Y2-S2-011K24,1,154,PS,exp,30,←,left,←,0.40734499995596707,True,13,1,0,10
Y2-S2-011K24,1,155,PS,exp,38,→,right,→,0.4247056997846812,True,13,1,0,10
Y2-S2-011K24,1,156,PS,exp,27,↑,up,↑,0.47682909993454814,True,12,1,0,10
Y2-S2-011K24,1,157,PS,exp,27,↓,down,↓,1.1094303999561816,True,12,1,0,10
Y2-S2-011K24,1,158,PS,exp,36,↑,up,↑,0.5019024999346584,True,12,1,0,10
Y2-S2-011K24,1,159,PS,exp,39,→,right,→,0.438822700176388,True,11,1,0,10
Y2-S2-011K24,1,160,PS,exp,41,↑,up,↑,0.4230596001725644,True,11,1,0,10
Y2-S2-011K24,1,161,PS,exp,32,↓,down,↓,0.5955457999370992,True,11,1,0,10
Y2-S2-011K24,1,162,PS,exp,46,→,up,↑,0.5899326000362635,False,10,-1,1,11
Y2-S2-011K24,1,163,PS,exp,50,←,left,←,0.39172499999403954,True,11,-1,0,11
Y2-S2-011K24,1,164,PS,exp,37,↑,up,↑,0.6606119000352919,True,11,-1,0,11
Y2-S2-011K24,1,165,PS,exp,46,↓,right,→,1.3792600999586284,False,11,-1,0,11
Y2-S2-011K24,1,166,PS,exp,32,→,right,→,0.4787413999438286,True,12,-1,0,11
Y2-S2-011K24,1,167,PS,exp,34,↓,down,↓,0.46759129990823567,True,12,-1,0,11
Y2-S2-011K24,1,168,PS,exp,40,←,left,←,1.101631100056693,True,12,1,1,12
Y2-S2-011K24,1,169,PS,exp,25,→,right,→,0.41053109988570213,True,11,1,0,12
Y2-S2-011K24,1,170,PS,exp,50,↑,up,↑,0.4603218000847846,True,11,1,0,12
Y2-S2-011K24,1,171,PS,exp,46,←,left,←,0.5390210999175906,True,11,1,0,12
Y2-S2-011K24,1,172,PS,exp,30,→,right,→,0.405068599851802,True,10,1,0,12
Y2-S2-011K24,1,173,PS,exp,46,↓,down,↓,0.6133593998383731,True,10,1,0,12
Y2-S2-011K24,1,174,PS,exp,28,→,right,→,0.5547601999714971,True,10,1,0,12
Y2-S2-011K24,1,175,PS,exp,30,←,left,←,0.3922162000089884,True,9,1,0,12
Y2-S2-011K24,1,176,PS,exp,28,↑,up,↑,0.6169020000379533,True,9,1,0,12
Y2-S2-011K24,1,177,PS,exp,31,↓,down,↓,0.4868574000429362,True,9,1,0,12
Y2-S2-011K24,1,178,PS,exp,48,↑,right,→,0.5452777999453247,False,8,-1,1,13
Y2-S2-011K24,1,179,PS,exp,43,←,left,←,0.5227527001406997,True,9,-1,0,13
Y2-S2-011K24,1,180,PS,exp,26,↑,up,↑,0.4066246000584215,True,9,-1,0,13
Y2-S2-011K24,1,181,PS,exp,40,←,down,↓,0.6651383000425994,False,9,-1,0,13
Y2-S2-011K24,1,182,PS,exp,30,↓,down,↓,0.624640499940142,True,10,-1,0,13
Y2-S2-011K24,1,183,PS,exp,48,↑,up,↑,0.5692781999241561,True,10,-1,0,13
Y2-S2-011K24,1,184,PS,exp,49,→,right,→,0.50134740001522,True,10,1,1,14
Y2-S2-011K24,1,185,PS,exp,33,←,right,→,0.6975438999943435,False,9,-1,1,15
Y2-S2-011K24,1,186,PS,exp,25,↓,down,↓,0.46604639990255237,True,10,-1,0,15
Y2-S2-011K24,1,187,PS,exp,50,↑,up,↑,0.5015694000758231,True,10,-1,0,15
Y2-S2-011K24,1,188,PS,exp,32,→,left,←,0.6859750000294298,False,10,-1,0,15
Y2-S2-011K24,1,189,PS,exp,46,←,left,←,0.5242759000975639,True,11,-1,0,15
Y2-S2-011K24,1,190,PS,exp,28,↑,up,↑,0.5927404998801649,True,11,-1,0,15
Y2-S2-011K24,1,191,PS,exp,37,→,right,→,0.4480898000765592,True,11,1,1,16
Y2-S2-011K24,2,192,AS,intra_train,31,←,left,←,0.6507006001193076,True,28,-,-,-
Y2-S2-011K24,2,193,AS,intra_train,26,↑,up,↑,0.40145520004443824,True,28,-,-,-
Y2-S2-011K24,2,194,AS,intra_train,49,↓,down,↓,0.6428311001509428,True,28,-,-,-
Y2-S2-011K24,2,195,AS,intra_train,36,↑,up,↑,0.45082219992764294,True,28,-,-,-
Y2-S2-011K24,2,196,AS,intra_train,34,↓,down,↓,0.7853406998328865,True,28,-,-,-
Y2-S2-011K24,2,197,AS,exp,46,→,down,↓,0.8806564998812973,False,19,-1,0,0
Y2-S2-011K24,2,198,AS,exp,38,↓,right,→,1.1449368998873979,False,20,-1,0,0
Y2-S2-011K24,2,199,AS,exp,29,→,right,→,0.564227000111714,True,21,-1,0,0
Y2-S2-011K24,2,200,AS,exp,34,↑,up,↑,0.6262833999935538,True,21,-1,0,0
Y2-S2-011K24,2,201,AS,exp,48,↓,down,↓,0.4839979000389576,True,21,1,1,1
Y2-S2-011K24,2,202,AS,exp,37,↑,no_key,no_letter,-1.0,False,20,-1,1,2
Y2-S2-011K24,2,203,AS,exp,48,→,right,→,0.5257572000846267,True,21,-1,0,2
Y2-S2-011K24,2,204,AS,exp,48,↑,up,↑,1.5577785999048501,True,21,-1,0,2
Y2-S2-011K24,2,205,AS,exp,40,←,left,←,0.5236736000515521,True,21,1,1,3
Y2-S2-011K24,2,206,AS,exp,35,↑,up,↑,0.619353000074625,True,20,1,0,3
Y2-S2-011K24,2,207,AS,exp,33,←,left,←,0.5194824000354856,True,20,1,0,3
Y2-S2-011K24,2,208,AS,exp,50,↓,down,↓,0.5737542000133544,True,20,1,0,3
Y2-S2-011K24,2,209,AS,exp,34,→,right,→,0.6408247998915613,True,19,1,0,3
Y2-S2-011K24,2,210,AS,exp,46,↑,up,↑,0.585551799973473,True,19,1,0,3
Y2-S2-011K24,2,211,AS,exp,25,←,right,→,0.5985528000164777,False,19,-1,1,4
Y2-S2-011K24,2,212,AS,exp,26,→,right,→,0.7376121999695897,True,20,-1,0,4
Y2-S2-011K24,2,213,AS,exp,41,←,right,→,0.6431844001635909,False,20,-1,0,4
Y2-S2-011K24,2,214,AS,exp,39,↓,down,↓,0.48363259993493557,True,21,-1,0,4
Y2-S2-011K24,2,215,AS,exp,37,↑,up,↑,0.8359904000535607,True,21,-1,0,4
Y2-S2-011K24,2,216,AS,exp,44,→,right,→,0.4337839998770505,True,21,1,1,5
Y2-S2-011K24,2,217,AS,exp,47,↓,down,↓,0.6192526000086218,True,20,1,0,5
Y2-S2-011K24,2,218,AS,exp,46,→,right,→,0.531224399805069,True,20,1,0,5
Y2-S2-011K24,2,219,AS,exp,46,←,left,←,0.45051199989393353,True,20,1,0,5
Y2-S2-011K24,2,220,AS,exp,48,→,right,→,0.5620626998133957,True,19,1,0,5
Y2-S2-011K24,2,221,AS,exp,34,↑,up,↑,0.41694830008782446,True,19,1,0,5
Y2-S2-011K24,2,222,AS,exp,47,→,right,→,0.553684099810198,True,19,1,0,5
Y2-S2-011K24,2,223,AS,exp,43,↑,down,↓,0.8542225998826325,False,18,-1,1,6
Y2-S2-011K24,2,224,AS,exp,28,→,up,↑,0.6634374998975545,False,19,-1,0,6
Y2-S2-011K24,2,225,AS,exp,32,↑,up,↑,0.8368130000308156,True,20,-1,0,6
Y2-S2-011K24,2,226,AS,exp,35,←,left,←,0.45097710005939007,True,20,-1,0,6
Y2-S2-011K24,2,227,AS,exp,29,↑,up,↑,0.615593499969691,True,20,1,1,7
Y2-S2-011K24,2,228,AS,exp,31,←,left,←,1.8582156000193208,True,19,1,0,7
Y2-S2-011K24,2,229,AS,exp,36,↓,up,↑,0.8219827001448721,False,19,-1,1,8
Y2-S2-011K24,2,230,AS,exp,32,←,left,←,0.7454399999696761,True,20,-1,0,8
Y2-S2-011K24,2,231,AS,exp,48,↓,up,↑,0.5178252998739481,False,20,-1,0,8
Y2-S2-011K24,2,232,AS,exp,32,↑,up,↑,0.6323599999304861,True,21,-1,0,8
Y2-S2-011K24,2,233,AS,exp,50,↓,down,↓,0.5830958001315594,True,21,-1,0,8
Y2-S2-011K24,2,234,AS,exp,36,←,left,←,0.467436800012365,True,21,1,1,9
Y2-S2-011K24,2,235,AS,exp,26,↑,down,↓,0.6382263000123203,False,20,-1,1,10
Y2-S2-011K24,2,236,AS,exp,48,↓,down,↓,1.2309576000552624,True,21,-1,0,10
Y2-S2-011K24,2,237,AS,exp,28,↑,up,↑,0.5345600000582635,True,21,-1,0,10
Y2-S2-011K24,2,238,AS,exp,31,↓,down,↓,0.5919949000235647,True,21,1,1,11
Y2-S2-011K24,2,239,AS,exp,50,→,right,→,0.41671770019456744,True,20,1,0,11
Y2-S2-011K24,2,240,AS,exp,39,↓,down,↓,0.6075447001494467,True,20,1,0,11
Y2-S2-011K24,2,241,AS,exp,28,↑,up,↑,0.7471959001850337,True,20,1,0,11
Y2-S2-011K24,2,242,AS,exp,25,←,left,←,0.43394559994339943,True,19,1,0,11
Y2-S2-011K24,2,243,AS,exp,45,→,right,→,0.6527627999894321,True,19,1,0,11
Y2-S2-011K24,2,244,AS,exp,31,↓,down,↓,0.5833572999108583,True,19,1,0,11
Y2-S2-011K24,2,245,AS,exp,27,↑,right,→,0.5849544999655336,False,18,-1,1,12
Y2-S2-011K24,2,246,AS,exp,30,←,left,←,1.085125199984759,True,19,-1,0,12
Y2-S2-011K24,2,247,AS,exp,40,↑,down,↓,0.8769936000462621,False,19,-1,0,12
Y2-S2-011K24,2,248,AS,exp,33,←,right,→,0.5098377999383956,False,20,-1,0,12
Y2-S2-011K24,2,249,AS,exp,34,↑,up,↑,0.79629490012303,True,21,-1,0,12
Y2-S2-011K24,2,250,AS,exp,25,↓,down,↓,1.3724992999341339,True,21,-1,0,12
Y2-S2-011K24,2,251,AS,exp,40,→,right,→,1.07059510005638,True,21,1,1,13
Y2-S2-011K24,2,252,AS,exp,39,←,left,←,1.4556275000795722,True,20,1,0,13
Y2-S2-011K24,2,253,AS,exp,33,↓,down,↓,0.677614799933508,True,20,1,0,13
Y2-S2-011K24,2,254,AS,exp,43,←,right,→,0.5449661000166088,False,20,-1,1,14
Y2-S2-011K24,2,255,AS,exp,34,→,right,→,1.0569494001101702,True,21,-1,0,14
Y2-S2-011K24,2,256,AS,exp,38,↓,down,↓,0.6059733999427408,True,21,-1,0,14
Y2-S2-011K24,2,257,AS,exp,41,←,left,←,0.4174055000767112,True,21,1,1,15
Y2-S2-011K24,2,258,AS,exp,45,↓,down,↓,0.5517547000199556,True,20,1,0,15
Y2-S2-011K24,2,259,AS,exp,47,←,right,→,0.6029036999680102,False,20,-1,1,16
Y2-S2-011K24,3,260,AS,intra_train,28,↓,down,↓,0.6858508998993784,True,28,-,-,-
Y2-S2-011K24,3,261,AS,intra_train,38,↑,up,↑,0.4507417001295835,True,28,-,-,-
Y2-S2-011K24,3,262,AS,intra_train,43,←,left,←,0.4178194999694824,True,28,-,-,-
Y2-S2-011K24,3,263,AS,intra_train,40,↓,down,↓,0.6700049000792205,True,28,-,-,-
Y2-S2-011K24,3,264,AS,intra_train,44,→,right,→,0.6720122001133859,True,28,-,-,-
Y2-S2-011K24,3,265,AS,exp,45,↑,up,↑,0.7564584000501782,True,19,0,0,0
Y2-S2-011K24,3,266,AS,exp,38,→,right,→,0.5310714000370353,True,19,0,0,0
Y2-S2-011K24,3,267,AS,exp,29,↑,up,↑,0.6767068000044674,True,19,1,0,0
Y2-S2-011K24,3,268,AS,exp,31,→,left,←,0.9601362000685185,False,18,-1,1,1
Y2-S2-011K24,3,269,AS,exp,49,←,left,←,0.7677535000257194,True,19,-1,0,1
Y2-S2-011K24,3,270,AS,exp,28,→,right,→,0.6368261000607163,True,19,-1,0,1
Y2-S2-011K24,3,271,AS,exp,48,↑,left,←,0.9321279998403043,False,19,-1,0,1
Y2-S2-011K24,3,272,AS,exp,39,↓,down,↓,0.5029945001006126,True,20,-1,0,1
Y2-S2-011K24,3,273,AS,exp,46,←,left,←,0.5413262001238763,True,20,-1,0,1
Y2-S2-011K24,3,274,AS,exp,38,↑,up,↑,0.5805242999922484,True,20,1,1,2
Y2-S2-011K24,3,275,AS,exp,48,↓,up,↑,0.9607057000976056,False,19,-1,1,3
Y2-S2-011K24,3,276,AS,exp,26,→,right,→,1.3300243001431227,True,20,-1,0,3
Y2-S2-011K24,3,277,AS,exp,45,↓,down,↓,0.516634700121358,True,20,-1,0,3
Y2-S2-011K24,3,278,AS,exp,37,←,right,→,0.5353517001494765,False,20,-1,0,3
Y2-S2-011K24,3,279,AS,exp,26,→,right,→,0.6030119999777526,True,21,-1,0,3
Y2-S2-011K24,3,280,AS,exp,26,←,right,→,0.5584156000986695,False,21,-1,0,3
Y2-S2-011K24,3,281,AS,exp,50,→,right,→,0.5995579999871552,True,22,-1,0,3
Y2-S2-011K24,3,282,AS,exp,47,←,right,→,0.573858399875462,False,22,-1,0,3
Y2-S2-011K24,3,283,AS,exp,27,↓,down,↓,0.6754289001692086,True,23,-1,0,3
Y2-S2-011K24,3,284,AS,exp,45,←,left,←,0.6020935999695212,True,23,-1,0,3
Y2-S2-011K24,3,285,AS,exp,37,↓,down,↓,0.5003446999471635,True,23,1,1,4
Y2-S2-011K24,3,286,AS,exp,29,↑,up,↑,0.8529369998723269,True,22,1,0,4
Y2-S2-011K24,3,287,AS,exp,30,→,right,→,1.269341800129041,True,22,1,0,4
Y2-S2-011K24,3,288,AS,exp,38,←,left,←,0.657239600084722,True,22,1,0,4
Y2-S2-011K24,3,289,AS,exp,26,↑,up,↑,0.6360662998631597,True,21,1,0,4
Y2-S2-011K24,3,290,AS,exp,27,→,right,→,1.1307879998348653,True,21,1,0,4
Y2-S2-011K24,3,291,AS,exp,34,←,left,←,1.8024102000053972,True,21,1,0,4
Y2-S2-011K24,3,292,AS,exp,29,↑,left,←,0.969499200116843,False,20,-1,1,5
Y2-S2-011K24,3,293,AS,exp,38,↓,down,↓,0.6235634000040591,True,21,-1,0,5
Y2-S2-011K24,3,294,AS,exp,50,→,right,→,0.933936299989,True,21,-1,0,5
Y2-S2-011K24,3,295,AS,exp,50,↑,up,↑,0.6203743999358267,True,21,1,1,6
Y2-S2-011K24,3,296,AS,exp,37,←,left,←,0.6653825999237597,True,20,1,0,6
Y2-S2-011K24,3,297,AS,exp,36,→,left,←,0.9029071000404656,False,20,-1,1,7
Y2-S2-011K24,3,298,AS,exp,28,↓,left,←,0.889233099995181,False,21,-1,0,7
Y2-S2-011K24,3,299,AS,exp,30,↑,up,↑,0.4837990999221802,True,22,-1,0,7
Y2-S2-011K24,3,300,AS,exp,29,→,right,→,0.467481300001964,True,22,-1,0,7
Y2-S2-011K24,3,301,AS,exp,40,↓,down,↓,0.7692418999504298,True,22,1,1,8
Y2-S2-011K24,3,302,AS,exp,32,←,left,←,0.6767829000018537,True,21,1,0,8
Y2-S2-011K24,3,303,AS,exp,49,↓,down,↓,0.7304706000722945,True,21,1,0,8
Y2-S2-011K24,3,304,AS,exp,47,←,left,←,0.5796151999384165,True,21,1,0,8
Y2-S2-011K24,3,305,AS,exp,29,↑,up,↑,0.612040099920705,True,20,1,0,8
Y2-S2-011K24,3,306,AS,exp,49,→,right,→,0.5551299001090229,True,20,1,0,8
Y2-S2-011K24,3,307,AS,exp,41,←,left,←,0.5138536000158638,True,20,1,0,8
Y2-S2-011K24,3,308,AS,exp,34,↓,down,↓,1.0342776998877525,True,19,1,0,8
Y2-S2-011K24,3,309,AS,exp,47,↑,up,↑,0.7490031998604536,True,19,1,0,8
Y2-S2-011K24,3,310,AS,exp,41,→,up,↑,0.8528020000085235,False,19,-1,1,9
Y2-S2-011K24,3,311,AS,exp,25,↓,down,↓,0.5045574998948723,True,20,-1,0,9
Y2-S2-011K24,3,312,AS,exp,41,↑,up,↑,0.5857844999991357,True,20,-1,0,9
Y2-S2-011K24,3,313,AS,exp,40,↓,down,↓,0.603457200108096,True,20,1,1,10
Y2-S2-011K24,3,314,AS,exp,42,←,left,←,0.5824233999010175,True,19,1,0,10
Y2-S2-011K24,3,315,AS,exp,39,↓,down,↓,0.5118923999834806,True,19,1,0,10
Y2-S2-011K24,3,316,AS,exp,28,→,left,←,0.8518163999542594,False,19,-1,1,11
Y2-S2-011K24,3,317,AS,exp,38,←,left,←,0.4672613001894206,True,20,-1,0,11
Y2-S2-011K24,3,318,AS,exp,28,↓,down,↓,0.7568981000222266,True,20,-1,0,11
Y2-S2-011K24,3,319,AS,exp,36,↑,up,↑,1.0430069998838007,True,20,1,1,12
Y2-S2-011K24,3,320,AS,exp,31,←,left,←,0.9808200998231769,True,19,1,0,12
Y2-S2-011K24,3,321,AS,exp,26,→,right,→,0.6458215999882668,True,19,1,0,12
Y2-S2-011K24,3,322,AS,exp,50,←,left,←,0.48529089987277985,True,19,1,0,12
Y2-S2-011K24,3,323,AS,exp,25,↓,down,↓,0.7755576001945883,True,18,1,0,12
Y2-S2-011K24,3,324,AS,exp,37,→,right,→,0.5481319001410156,True,18,1,0,12
Y2-S2-011K24,3,325,AS,exp,47,↑,up,↑,0.8033827000763267,True,18,1,0,12
Y2-S2-011K24,3,326,AS,exp,36,↓,down,↓,0.7009407998993993,True,17,1,0,12
Y2-S2-011K24,3,327,AS,exp,30,↑,down,↓,0.970649299910292,False,17,-1,1,13
Y2-S2-011K24,3,328,AS,exp,34,↓,down,↓,0.4717157001141459,True,18,-1,0,13
Y2-S2-011K24,3,329,AS,exp,25,←,down,↓,0.9249643001239747,False,18,-1,0,13
Y2-S2-011K24,3,330,AS,exp,26,↓,down,↓,0.7475737000349909,True,19,-1,0,13
Y2-S2-011K24,3,331,AS,exp,32,→,right,→,0.5669012998696417,True,19,-1,0,13
Y2-S2-011K24,3,332,AS,exp,48,↓,down,↓,0.5896829999983311,True,19,1,1,14
Y2-S2-011K24,3,333,AS,exp,38,→,right,→,1.0914737000130117,True,18,1,0,14
Y2-S2-011K24,3,334,AS,exp,50,←,down,↓,0.8579873000271618,False,18,-1,1,15
Y2-S2-011K24,3,335,AS,exp,45,→,right,→,0.6024255000520498,True,19,-1,0,15
Y2-S2-011K24,3,336,AS,exp,48,↓,down,↓,0.6114592000376433,True,19,-1,0,15
Y2-S2-011K24,3,337,AS,exp,26,↑,down,↓,0.6277524000033736,False,19,-1,0,15
Y2-S2-011K24,3,338,AS,exp,43,→,right,→,0.560156499966979,True,20,-1,0,15
Y2-S2-011K24,3,339,AS,exp,45,←,right,→,0.531282699899748,False,20,-1,0,15
Y2-S2-011K24,3,340,AS,exp,32,→,right,→,1.0923644001595676,True,21,-1,0,15
Y2-S2-011K24,3,341,AS,exp,42,↓,down,↓,0.6689323999453336,True,21,-1,0,15
Y2-S2-011K24,3,342,AS,exp,30,→,right,→,0.5204307001549751,True,21,1,1,16
Y2-S2-011K24,4,343,PS,intra_train,36,↑,up,↑,0.4941683001816273,True,15,-,-,-
Y2-S2-011K24,4,344,PS,intra_train,43,←,left,←,0.667222699848935,True,15,-,-,-
Y2-S2-011K24,4,345,PS,intra_train,27,↓,up,↑,0.6139136001002043,False,15,-,-,-
Y2-S2-011K24,4,346,PS,intra_train,37,←,left,←,0.7260844002012163,True,15,-,-,-
Y2-S2-011K24,4,347,PS,intra_train,28,→,right,→,0.6659713999833912,True,15,-,-,-
Y2-S2-011K24,4,348,PS,exp,27,↑,down,↓,0.6851053000427783,False,10,-1,0,0
Y2-S2-011K24,4,349,PS,exp,26,→,left,←,0.40433729998767376,False,11,-1,0,0
Y2-S2-011K24,4,350,PS,exp,28,↓,down,↓,0.5072586999740452,True,12,-1,0,0
Y2-S2-011K24,4,351,PS,exp,47,↑,up,↑,0.7062369999475777,True,12,-1,0,0
Y2-S2-011K24,4,352,PS,exp,34,→,right,→,0.5133798001334071,True,12,1,1,1
Y2-S2-011K24,4,353,PS,exp,37,←,left,←,0.45520949992351234,True,11,1,0,1
Y2-S2-011K24,4,354,PS,exp,28,↑,up,↑,0.4925015000626445,True,11,1,0,1
Y2-S2-011K24,4,355,PS,exp,40,↓,down,↓,0.43617819994688034,True,11,1,0,1
Y2-S2-011K24,4,356,PS,exp,35,↑,down,↓,0.555147800128907,False,10,-1,1,2
Y2-S2-011K24,4,357,PS,exp,36,→,right,→,0.5491902998182923,True,11,-1,0,2
Y2-S2-011K24,4,358,PS,exp,28,←,left,←,0.4555277000181377,True,11,-1,0,2
Y2-S2-011K24,4,359,PS,exp,39,↓,down,↓,0.44567509996704757,True,11,1,1,3
Y2-S2-011K24,4,360,PS,exp,40,→,down,↓,0.5548319001682103,False,10,-1,1,4
Y2-S2-011K24,4,361,PS,exp,43,↑,up,↑,0.6156138000078499,True,11,-1,0,4
Y2-S2-011K24,4,362,PS,exp,34,→,right,→,0.45395589992403984,True,11,-1,0,4
Y2-S2-011K24,4,363,PS,exp,46,↓,down,↓,0.5293825999833643,True,11,1,1,5
Y2-S2-011K24,4,364,PS,exp,50,←,left,←,0.4418338998220861,True,10,1,0,5
Y2-S2-011K24,4,365,PS,exp,48,→,right,→,0.5709265000186861,True,10,1,0,5
Y2-S2-011K24,4,366,PS,exp,50,↑,up,↑,0.5432009999640286,True,10,1,0,5
Y2-S2-011K24,4,367,PS,exp,27,←,left,←,0.49169850000180304,True,9,1,0,5
Y2-S2-011K24,4,368,PS,exp,39,↑,down,↓,0.6054016998969018,False,9,-1,1,6
Y2-S2-011K24,4,369,PS,exp,44,↓,down,↓,0.5718340000603348,True,10,-1,0,6
Y2-S2-011K24,4,370,PS,exp,38,←,left,←,0.39448100002482533,True,10,-1,0,6
Y2-S2-011K24,4,371,PS,exp,47,↑,up,↑,0.47454899991862476,True,10,1,1,7
Y2-S2-011K24,4,372,PS,exp,33,→,left,←,0.8536636999342591,False,9,-1,1,8
Y2-S2-011K24,4,373,PS,exp,37,←,left,←,0.4087805999442935,True,10,-1,0,8
Y2-S2-011K24,4,374,PS,exp,46,↓,down,↓,0.558161900145933,True,10,-1,0,8
Y2-S2-011K24,4,375,PS,exp,31,→,down,↓,0.7786105999257416,False,10,-1,0,8
Y2-S2-011K24,4,376,PS,exp,47,↓,down,↓,0.9259023999329656,True,11,-1,0,8
Y2-S2-011K24,4,377,PS,exp,32,←,left,←,0.4176432997919619,True,11,-1,0,8
Y2-S2-011K24,4,378,PS,exp,41,↑,up,↑,0.525710699846968,True,11,1,1,9
Y2-S2-011K24,4,379,PS,exp,45,←,left,←,0.4643903998658061,True,10,1,0,9
Y2-S2-011K24,4,380,PS,exp,31,↓,down,↓,0.537575599970296,True,10,1,0,9
Y2-S2-011K24,4,381,PS,exp,31,→,right,→,0.48952879989519715,True,10,1,0,9
Y2-S2-011K24,4,382,PS,exp,42,↑,up,↑,0.5124280999880284,True,9,1,0,9
Y2-S2-011K24,4,383,PS,exp,34,↓,down,↓,0.5550072998739779,True,9,1,0,9
Y2-S2-011K24,4,384,PS,exp,25,→,right,→,0.512749700108543,True,9,1,0,9
Y2-S2-011K24,4,385,PS,exp,30,↓,down,↓,0.4577411999925971,True,8,1,0,9
Y2-S2-011K24,4,386,PS,exp,42,↑,up,↑,0.5155706000514328,True,8,1,0,9
Y2-S2-011K24,4,387,PS,exp,49,←,left,←,0.4200760000385344,True,8,1,0,9
Y2-S2-011K24,4,388,PS,exp,44,→,right,→,0.47193340002559125,True,7,1,0,9
Y2-S2-011K24,4,389,PS,exp,45,←,left,←,0.42802250012755394,True,7,1,0,9
Y2-S2-011K24,4,390,PS,exp,48,↑,up,↑,0.5251678000204265,True,7,1,0,9
Y2-S2-011K24,4,391,PS,exp,36,←,left,←,0.6179281000513583,True,6,1,0,9
Y2-S2-011K24,4,392,PS,exp,40,↑,up,↑,0.5151617000810802,True,6,1,0,9
Y2-S2-011K24,4,393,PS,exp,35,→,right,→,0.718174499925226,True,6,1,0,9
Y2-S2-011K24,4,394,PS,exp,25,←,left,←,0.5257109999656677,True,5,1,0,9
Y2-S2-011K24,4,395,PS,exp,44,↑,up,↑,0.5762660000473261,True,5,1,0,9
Y2-S2-011K24,4,396,PS,exp,41,←,up,↑,0.46755849989131093,False,5,-1,1,10
Y2-S2-011K24,4,397,PS,exp,31,↑,left,←,0.6057765998411924,False,6,-1,0,10
Y2-S2-011K24,4,398,PS,exp,46,←,right,→,0.4912632000632584,False,7,-1,0,10
Y2-S2-011K24,4,399,PS,exp,45,↓,down,↓,0.5614485999103636,True,8,-1,0,10
Y2-S2-011K24,4,400,PS,exp,33,←,right,→,0.49365650000981987,False,8,-1,0,10
Y2-S2-011K24,4,401,PS,exp,28,↓,down,↓,0.5994821998756379,True,9,-1,0,10
Y2-S2-011K24,4,402,PS,exp,33,→,right,→,0.4673888999968767,True,9,-1,0,10
Y2-S2-011K24,4,403,PS,exp,46,↓,down,↓,0.4533861998934299,True,9,1,1,11
Y2-S2-011K24,4,404,PS,exp,28,→,left,←,0.7322229999117553,False,8,-1,1,12
Y2-S2-011K24,4,405,PS,exp,32,↑,up,↑,0.5452734001446515,True,9,-1,0,12
Y2-S2-011K24,4,406,PS,exp,33,↓,down,↓,0.4956638999283314,True,9,-1,0,12
Y2-S2-011K24,4,407,PS,exp,36,↑,up,↑,0.5447523999027908,True,9,1,1,13
Y2-S2-011K24,4,408,PS,exp,29,↓,down,↓,0.437669700011611,True,8,1,0,13
Y2-S2-011K24,4,409,PS,exp,49,←,left,←,0.40001720003783703,True,8,1,0,13
Y2-S2-011K24,4,410,PS,exp,37,→,right,→,0.43231379985809326,True,8,1,0,13
Y2-S2-011K24,4,411,PS,exp,32,←,left,←,0.36393900006078184,True,7,1,0,13
Y2-S2-011K24,4,412,PS,exp,33,→,up,↑,0.577209500130266,False,7,-1,1,14
Y2-S2-011K24,4,413,PS,exp,42,↑,up,↑,0.5921475000213832,True,8,-1,0,14
Y2-S2-011K24,4,414,PS,exp,35,←,down,↓,0.33012249995954335,False,8,-1,0,14
Y2-S2-011K24,4,415,PS,exp,47,→,right,→,0.49153409991413355,True,9,-1,0,14
Y2-S2-011K24,4,416,PS,exp,33,↑,up,↑,0.5130912000313401,True,9,-1,0,14
Y2-S2-011K24,4,417,PS,exp,30,→,up,↑,0.691513700177893,False,9,-1,0,14
Y2-S2-011K24,4,418,PS,exp,50,↓,right,→,0.4451041999273002,False,10,-1,0,14
Y2-S2-011K24,4,419,PS,exp,32,↑,up,↑,0.5448429000098258,True,11,-1,0,14
Y2-S2-011K24,4,420,PS,exp,47,←,left,←,0.6501829999033362,True,11,-1,0,14
Y2-S2-011K24,4,421,PS,exp,37,↓,right,→,0.5498969000764191,False,11,-1,0,14
Y2-S2-011K24,4,422,PS,exp,29,←,left,←,0.5754178001079708,True,12,-1,0,14
Y2-S2-011K24,4,423,PS,exp,37,↑,up,↑,0.47747409995645285,True,12,-1,0,14
Y2-S2-011K24,4,424,PS,exp,31,→,right,→,0.4794567998033017,True,12,1,1,15
Y2-S2-011K24,4,425,PS,exp,25,↓,down,↓,0.6207364001311362,True,11,1,0,15
Y2-S2-011K24,4,426,PS,exp,37,→,right,→,0.55757059995085,True,11,1,0,15
Y2-S2-011K24,4,427,PS,exp,40,↓,down,↓,0.5223622999619693,True,11,1,0,15
Y2-S2-011K24,4,428,PS,exp,50,→,right,→,0.356330499984324,True,10,1,0,15
Y2-S2-011K24,4,429,PS,exp,35,↓,down,↓,0.5741546000353992,True,10,1,0,15
Y2-S2-011K24,4,430,PS,exp,50,→,right,→,0.5341368999797851,True,10,1,0,15
Y2-S2-011K24,4,431,PS,exp,28,↓,down,↓,0.631329899886623,True,9,1,0,15
Y2-S2-011K24,4,432,PS,exp,42,←,left,←,0.49097850010730326,True,9,1,0,15
Y2-S2-011K24,4,433,PS,exp,29,→,right,→,0.4557952999603003,True,9,1,0,15
Y2-S2-011K24,4,434,PS,exp,45,↓,down,↓,0.4875818002037704,True,8,1,0,15
Y2-S2-011K24,4,435,PS,exp,28,→,right,→,0.41378309996798635,True,8,1,0,15
Y2-S2-011K24,4,436,PS,exp,38,←,left,←,0.4118904999922961,True,8,1,0,15
Y2-S2-011K24,4,437,PS,exp,25,↓,down,↓,0.6167252999730408,True,7,1,0,15
Y2-S2-011K24,4,438,PS,exp,40,→,right,→,0.45624840003438294,True,7,1,0,15
Y2-S2-011K24,4,439,PS,exp,46,←,right,→,0.4317336999811232,False,7,-1,1,16
Y2-S2-011K24,5,440,PS,intra_train,46,↑,up,↑,0.5663416001480073,True,15,-,-,-
Y2-S2-011K24,5,441,PS,intra_train,26,←,left,←,0.4929201998747885,True,15,-,-,-
Y2-S2-011K24,5,442,PS,intra_train,42,↑,up,↑,0.48570859991014004,True,15,-,-,-
Y2-S2-011K24,5,443,PS,intra_train,36,←,left,←,0.5041022999212146,True,15,-,-,-
Y2-S2-011K24,5,444,PS,intra_train,42,↓,down,↓,0.4963365998119116,True,15,-,-,-
Y2-S2-011K24,5,445,PS,exp,28,↑,up,↑,0.4692786999512464,True,10,0,0,0
Y2-S2-011K24,5,446,PS,exp,42,↓,left,←,0.7735047000460327,False,10,-1,0,0
Y2-S2-011K24,5,447,PS,exp,50,←,left,←,0.4556593999732286,True,11,-1,0,0
Y2-S2-011K24,5,448,PS,exp,42,↑,up,↑,0.4496674998663366,True,11,-1,0,0
Y2-S2-011K24,5,449,PS,exp,43,←,up,↑,0.7797212000004947,False,11,-1,0,0
Y2-S2-011K24,5,450,PS,exp,44,↓,down,↓,0.5494899998884648,True,12,-1,0,0
Y2-S2-011K24,5,451,PS,exp,44,↑,up,↑,0.43380119977518916,True,12,-1,0,0
Y2-S2-011K24,5,452,PS,exp,30,→,right,→,0.5010939000640064,True,12,1,1,1
Y2-S2-011K24,5,453,PS,exp,48,↓,down,↓,0.6111882000695914,True,11,1,0,1
Y2-S2-011K24,5,454,PS,exp,50,←,left,←,0.6068533000070602,True,11,1,0,1
Y2-S2-011K24,5,455,PS,exp,33,→,left,←,0.3690555999055505,False,11,-1,1,2
Y2-S2-011K24,5,456,PS,exp,31,←,left,←,0.41098579997196794,True,12,-1,0,2
Y2-S2-011K24,5,457,PS,exp,32,→,right,→,0.46982540003955364,True,12,-1,0,2
Y2-S2-011K24,5,458,PS,exp,45,↓,down,↓,0.534953200025484,True,12,1,1,3
Y2-S2-011K24,5,459,PS,exp,36,↑,up,↑,0.5800065000075847,True,11,1,0,3
Y2-S2-011K24,5,460,PS,exp,43,←,left,←,0.6104268000926822,True,11,1,0,3
Y2-S2-011K24,5,461,PS,exp,35,→,right,→,0.4982648000586778,True,11,1,0,3
Y2-S2-011K24,5,462,PS,exp,34,↑,up,↑,0.4871096999850124,True,10,1,0,3
Y2-S2-011K24,5,463,PS,exp,39,←,left,←,0.4626309999730438,True,10,1,0,3
Y2-S2-011K24,5,464,PS,exp,30,↑,up,↑,0.4636439001187682,True,10,1,0,3
Y2-S2-011K24,5,465,PS,exp,29,↓,down,↓,0.532270000083372,True,9,1,0,3
Y2-S2-011K24,5,466,PS,exp,44,←,left,←,0.47484009992331266,True,9,1,0,3
Y2-S2-011K24,5,467,PS,exp,45,↓,down,↓,0.5717191000003368,True,9,1,0,3
Y2-S2-011K24,5,468,PS,exp,35,→,left,←,0.5717722999397665,False,8,-1,1,4
Y2-S2-011K24,5,469,PS,exp,25,←,left,←,0.506196599919349,True,9,-1,0,4
Y2-S2-011K24,5,470,PS,exp,43,↑,up,↑,0.5531275998800993,True,9,-1,0,4
Y2-S2-011K24,5,471,PS,exp,44,←,left,←,0.4911221000365913,True,9,1,1,5
Y2-S2-011K24,5,472,PS,exp,36,↑,up,↑,0.6588268999475986,True,8,1,0,5
Y2-S2-011K24,5,473,PS,exp,28,↓,down,↓,0.48245089990086854,True,8,1,0,5
Y2-S2-011K24,5,474,PS,exp,39,←,left,←,0.4086011000908911,True,8,1,0,5
Y2-S2-011K24,5,475,PS,exp,35,↑,up,↑,0.4397163998801261,True,7,1,0,5
Y2-S2-011K24,5,476,PS,exp,36,←,left,←,0.41476040007546544,True,7,1,0,5
Y2-S2-011K24,5,477,PS,exp,46,→,down,↓,0.3358307001180947,False,7,-1,1,6
Y2-S2-011K24,5,478,PS,exp,28,↑,up,↑,0.6529769999906421,True,8,-1,0,6
Y2-S2-011K24,5,479,PS,exp,38,→,right,→,1.0102983000688255,True,8,-1,0,6
Y2-S2-011K24,5,480,PS,exp,33,←,left,←,0.4594975998625159,True,8,1,1,7
Y2-S2-011K24,5,481,PS,exp,47,↓,down,↓,0.4589110999368131,True,7,1,0,7
Y2-S2-011K24,5,482,PS,exp,47,→,right,→,0.4698592000640929,True,7,1,0,7
Y2-S2-011K24,5,483,PS,exp,37,↑,up,↑,0.5391853998880833,True,7,1,0,7
Y2-S2-011K24,5,484,PS,exp,42,↓,down,↓,0.40552300005219877,True,6,1,0,7
Y2-S2-011K24,5,485,PS,exp,36,→,left,←,0.41668160003609955,False,6,-1,1,8
Y2-S2-011K24,5,486,PS,exp,28,↓,down,↓,0.47684170003049076,True,7,-1,0,8
Y2-S2-011K24,5,487,PS,exp,45,←,left,←,0.5733193999622017,True,7,-1,0,8
Y2-S2-011K24,5,488,PS,exp,30,↑,up,↑,0.538821900030598,True,7,1,1,9
Y2-S2-011K24,5,489,PS,exp,41,→,down,↓,0.7908113000448793,False,6,-1,1,10
Y2-S2-011K24,5,490,PS,exp,33,↓,down,↓,0.4743743999861181,True,7,-1,0,10
Y2-S2-011K24,5,491,PS,exp,50,←,left,←,0.4789070999249816,True,7,-1,0,10
Y2-S2-011K24,5,492,PS,exp,38,→,right,→,0.3360729000996798,True,7,1,1,11
Y2-S2-011K24,5,493,PS,exp,39,↓,down,↓,0.519637499935925,True,6,1,0,11
Y2-S2-011K24,5,494,PS,exp,38,↑,left,←,0.48969529988244176,False,6,-1,1,12
Y2-S2-011K24,5,495,PS,exp,39,↓,down,↓,0.6167335000354797,True,7,-1,0,12
Y2-S2-011K24,5,496,PS,exp,40,←,down,↓,0.5344357001595199,False,7,-1,0,12
Y2-S2-011K24,5,497,PS,exp,45,→,up,↑,0.3184275000821799,False,8,-1,0,12
Y2-S2-011K24,5,498,PS,exp,46,←,right,→,0.5568172000348568,False,9,-1,0,12
Y2-S2-011K24,5,499,PS,exp,33,→,left,←,0.5854506001342088,False,10,-1,0,12
Y2-S2-011K24,5,500,PS,exp,45,↓,down,↓,0.5992658999748528,True,11,-1,0,12
Y2-S2-011K24,5,501,PS,exp,37,←,right,→,0.4721992998383939,False,11,-1,0,12
Y2-S2-011K24,5,502,PS,exp,42,→,right,→,0.4650345998816192,True,12,-1,0,12
Y2-S2-011K24,5,503,PS,exp,31,↑,up,↑,0.7951476001180708,True,12,-1,0,12
Y2-S2-011K24,5,504,PS,exp,34,→,right,→,0.4884697000961751,True,12,1,1,13
Y2-S2-011K24,5,505,PS,exp,34,↓,left,←,0.7054742998443544,False,11,-1,1,14
Y2-S2-011K24,5,506,PS,exp,41,←,left,←,0.5767689000349492,True,12,-1,0,14
Y2-S2-011K24,5,507,PS,exp,37,↑,up,↑,0.4444003999233246,True,12,-1,0,14
Y2-S2-011K24,5,508,PS,exp,28,←,right,→,0.46652480005286634,False,12,-1,0,14
Y2-S2-011K24,5,509,PS,exp,48,→,right,→,0.6990578998811543,True,13,-1,0,14
Y2-S2-011K24,5,510,PS,exp,49,↑,up,↑,0.5307018000166863,True,13,-1,0,14
Y2-S2-011K24,5,511,PS,exp,50,→,right,→,0.4206529001239687,True,13,1,1,15
Y2-S2-011K24,5,512,PS,exp,26,←,left,←,0.5643600998446345,True,12,1,0,15
Y2-S2-011K24,5,513,PS,exp,49,↓,down,↓,0.46817700006067753,True,12,1,0,15
Y2-S2-011K24,5,514,PS,exp,37,←,left,←,0.3988834999036044,True,12,1,0,15
Y2-S2-011K24,5,515,PS,exp,49,→,right,→,0.4869568001013249,True,11,1,0,15
Y2-S2-011K24,5,516,PS,exp,50,↑,up,↑,0.6020726999267936,True,11,1,0,15
Y2-S2-011K24,5,517,PS,exp,48,←,left,←,0.4692943999543786,True,11,1,0,15
Y2-S2-011K24,5,518,PS,exp,29,↑,up,↑,0.7724790999200195,True,10,1,0,15
Y2-S2-011K24,5,519,PS,exp,44,↓,down,↓,0.47399159986525774,True,10,1,0,15
Y2-S2-011K24,5,520,PS,exp,25,←,left,←,0.9192399999592453,True,10,1,0,15
Y2-S2-011K24,5,521,PS,exp,29,↑,up,↑,0.4883370001334697,True,9,1,0,15
Y2-S2-011K24,5,522,PS,exp,37,←,left,←,0.44958580005913973,True,9,1,0,15
Y2-S2-011K24,5,523,PS,exp,38,↑,up,↑,0.687409000005573,True,9,1,0,15
Y2-S2-011K24,5,524,PS,exp,38,←,left,←,0.3786955000832677,True,8,1,0,15
Y2-S2-011K24,5,525,PS,exp,27,→,right,→,0.4065574000123888,True,8,1,0,15
Y2-S2-011K24,5,526,PS,exp,32,↓,down,↓,0.5046122998464853,True,8,1,0,15
Y2-S2-011K24,5,527,PS,exp,34,↑,up,↑,0.4264125998597592,True,7,1,0,15
Y2-S2-011K24,5,528,PS,exp,50,→,right,→,0.43926459993235767,True,7,1,0,15
Y2-S2-011K24,5,529,PS,exp,45,↑,up,↑,0.4341258001513779,True,7,1,0,15
Y2-S2-011K24,5,530,PS,exp,49,←,up,↑,0.6363614001311362,False,6,-1,1,16
Y2-S2-011K24,6,531,AS,intra_train,48,↑,up,↑,0.5006522999610752,True,28,-,-,-
Y2-S2-011K24,6,532,AS,intra_train,39,→,right,→,0.4841000000014901,True,28,-,-,-
Y2-S2-011K24,6,533,AS,intra_train,26,↑,right,→,1.2847219000104815,False,28,-,-,-
Y2-S2-011K24,6,534,AS,intra_train,39,↓,left,←,1.6937243998982012,False,28,-,-,-
Y2-S2-011K24,6,535,AS,intra_train,37,←,right,→,0.6356623999308795,False,28,-,-,-
Y2-S2-011K24,6,536,AS,exp,49,→,right,→,1.1558813999872655,True,19,0,0,0
Y2-S2-011K24,6,537,AS,exp,44,↓,left,←,1.007167899981141,False,19,-1,0,0
Y2-S2-011K24,6,538,AS,exp,45,↑,up,↑,1.0393226000014693,True,20,-1,0,0
Y2-S2-011K24,6,539,AS,exp,39,↓,down,↓,0.5874111999291927,True,20,-1,0,0
Y2-S2-011K24,6,540,AS,exp,48,←,left,←,0.4672266999259591,True,20,1,1,1
Y2-S2-011K24,6,541,AS,exp,39,↓,down,↓,0.6505931001156569,True,19,1,0,1
Y2-S2-011K24,6,542,AS,exp,42,↑,up,↑,0.6261422999668866,True,19,1,0,1
Y2-S2-011K24,6,543,AS,exp,45,←,left,←,0.5925284000113606,True,19,1,0,1
Y2-S2-011K24,6,544,AS,exp,39,↑,down,↓,0.7259831998962909,False,18,-1,1,2
Y2-S2-011K24,6,545,AS,exp,43,↓,up,↑,0.9789930998813361,False,19,-1,0,2
Y2-S2-011K24,6,546,AS,exp,27,←,left,←,0.6535990999545902,True,20,-1,0,2
Y2-S2-011K24,6,547,AS,exp,47,↑,down,↓,0.729465999873355,False,20,-1,0,2
Y2-S2-011K24,6,548,AS,exp,46,→,right,→,0.656193400034681,True,21,-1,0,2
Y2-S2-011K24,6,549,AS,exp,31,↑,up,↑,0.450882000150159,True,21,-1,0,2
Y2-S2-011K24,6,550,AS,exp,39,↓,up,↑,0.9938920999411494,False,21,-1,0,2
Y2-S2-011K24,6,551,AS,exp,37,←,right,→,0.434111800044775,False,22,-1,0,2
Y2-S2-011K24,6,552,AS,exp,25,↓,down,↓,0.592335700057447,True,23,-1,0,2
Y2-S2-011K24,6,553,AS,exp,47,←,left,←,0.450745000038296,True,23,-1,0,2
Y2-S2-011K24,6,554,AS,exp,50,→,right,→,0.7035948999691755,True,23,1,1,3
Y2-S2-011K24,6,555,AS,exp,32,←,left,←,0.7667670999653637,True,22,1,0,3
Y2-S2-011K24,6,556,AS,exp,28,↑,up,↑,0.6339581999927759,True,22,1,0,3
Y2-S2-011K24,6,557,AS,exp,49,→,right,→,0.6248228000476956,True,22,1,0,3
Y2-S2-011K24,6,558,AS,exp,42,↑,up,↑,0.6737770999316126,True,21,1,0,3
Y2-S2-011K24,6,559,AS,exp,49,←,left,←,0.4175009001046419,True,21,1,0,3
Y2-S2-011K24,6,560,AS,exp,46,↓,up,↑,1.0336570998188108,False,21,-1,1,4
Y2-S2-011K24,6,561,AS,exp,33,←,left,←,0.3839912998955697,True,22,-1,0,4
Y2-S2-011K24,6,562,AS,exp,33,↓,down,↓,0.7623137999325991,True,22,-1,0,4
Y2-S2-011K24,6,563,AS,exp,39,→,right,→,0.6606091998983175,True,22,1,1,5
Y2-S2-011K24,6,564,AS,exp,39,←,left,←,0.5548585001379251,True,21,1,0,5
Y2-S2-011K24,6,565,AS,exp,40,→,left,←,0.9541039001196623,False,21,-1,1,6
Y2-S2-011K24,6,566,AS,exp,44,←,left,←,0.6572398000862449,True,22,-1,0,6
Y2-S2-011K24,6,567,AS,exp,26,↓,down,↓,0.45050120004452765,True,22,-1,0,6
Y2-S2-011K24,6,568,AS,exp,30,↑,left,←,1.2950186000671238,False,22,-1,0,6
Y2-S2-011K24,6,569,AS,exp,45,↓,down,↓,1.4024920999072492,True,23,-1,0,6
Y2-S2-011K24,6,570,AS,exp,36,↑,up,↑,0.4005642000120133,True,23,-1,0,6
Y2-S2-011K24,6,571,AS,exp,48,→,right,→,0.7927944001276046,True,23,1,1,7
Y2-S2-011K24,6,572,AS,exp,27,←,left,←,0.7090056000743061,True,22,1,0,7
Y2-S2-011K24,6,573,AS,exp,27,↑,up,↑,0.46697200019843876,True,22,1,0,7
Y2-S2-011K24,6,574,AS,exp,37,←,left,←,0.7174466999713331,True,22,1,0,7
Y2-S2-011K24,6,575,AS,exp,31,↑,up,↑,0.753919499926269,True,21,1,0,7
Y2-S2-011K24,6,576,AS,exp,35,↓,down,↓,0.7878571997862309,True,21,1,0,7
Y2-S2-011K24,6,577,AS,exp,48,←,right,→,0.5946027000900358,False,21,-1,1,8
Y2-S2-011K24,6,578,AS,exp,35,↓,down,↓,1.3016005998943,True,22,-1,0,8
Y2-S2-011K24,6,579,AS,exp,47,→,right,→,0.40091140009462833,True,22,-1,0,8
Y2-S2-011K24,6,580,AS,exp,29,↓,down,↓,0.5955211000982672,True,22,1,1,9
Y2-S2-011K24,6,581,AS,exp,38,↑,up,↑,0.60230219992809,True,21,1,0,9
Y2-S2-011K24,6,582,AS,exp,49,↓,down,↓,0.7426102999597788,True,21,1,0,9
Y2-S2-011K24,6,583,AS,exp,34,←,left,←,0.4010268999263644,True,21,1,0,9
Y2-S2-011K24,6,584,AS,exp,42,↓,right,→,0.5073718000203371,False,20,-1,1,10
Y2-S2-011K24,6,585,AS,exp,27,↑,up,↑,0.40079780016094446,True,21,-1,0,10
Y2-S2-011K24,6,586,AS,exp,42,←,left,←,0.5874820000026375,True,21,-1,0,10
Y2-S2-011K24,6,587,AS,exp,25,↓,down,↓,0.6653354000300169,True,21,1,1,11
Y2-S2-011K24,6,588,AS,exp,39,↑,up,↑,0.6010356999468058,True,20,1,0,11
Y2-S2-011K24,6,589,AS,exp,35,←,left,←,0.45059940009377897,True,20,1,0,11
Y2-S2-011K24,6,590,AS,exp,25,↓,down,↓,0.5304202998522669,True,20,1,0,11
Y2-S2-011K24,6,591,AS,exp,31,←,left,←,0.5952173999976367,True,19,1,0,11
Y2-S2-011K24,6,592,AS,exp,35,↓,down,↓,0.6792111999820918,True,19,1,0,11
Y2-S2-011K24,6,593,AS,exp,48,←,left,←,0.5502818999812007,True,19,1,0,11
Y2-S2-011K24,6,594,AS,exp,46,↓,down,↓,0.43441170011647046,True,18,1,0,11
Y2-S2-011K24,6,595,AS,exp,46,↑,left,←,0.8161128999199718,False,18,-1,1,12
Y2-S2-011K24,6,596,AS,exp,43,→,right,→,0.7316769000608474,True,19,-1,0,12
Y2-S2-011K24,6,597,AS,exp,35,↓,down,↓,0.8137040000874549,True,19,-1,0,12
Y2-S2-011K24,6,598,AS,exp,36,↑,left,←,0.8861310000065714,False,19,-1,0,12
Y2-S2-011K24,6,599,AS,exp,36,←,left,←,0.6441476000472903,True,20,-1,0,12
Y2-S2-011K24,6,600,AS,exp,26,→,right,→,0.4172644999343902,True,20,-1,0,12
Y2-S2-011K24,6,601,AS,exp,35,↑,up,↑,0.6800405997782946,True,20,1,1,13
Y2-S2-011K24,6,602,AS,exp,28,→,right,→,0.5309379000682384,True,19,1,0,13
Y2-S2-011K24,6,603,AS,exp,44,↑,up,↑,0.6311331999022514,True,19,1,0,13
Y2-S2-011K24,6,604,AS,exp,28,←,left,←,0.485938600031659,True,19,1,0,13
Y2-S2-011K24,6,605,AS,exp,49,↑,up,↑,1.364490200066939,True,18,1,0,13
Y2-S2-011K24,6,606,AS,exp,46,←,left,←,0.41705809999257326,True,18,1,0,13
Y2-S2-011K24,6,607,AS,exp,25,→,left,←,0.4841877999715507,False,18,-1,1,14
Y2-S2-011K24,6,608,AS,exp,31,↑,up,↑,0.45049410010688007,True,19,-1,0,14
Y2-S2-011K24,6,609,AS,exp,40,→,right,→,0.43425669986754656,True,19,-1,0,14
Y2-S2-011K24,6,610,AS,exp,26,↓,down,↓,0.7394753000698984,True,19,1,1,15
Y2-S2-011K24,6,611,AS,exp,42,↑,up,↑,0.6323637999594212,True,18,1,0,15
Y2-S2-011K24,6,612,AS,exp,34,→,right,→,0.7359486999921501,True,18,1,0,15
Y2-S2-011K24,6,613,AS,exp,47,↑,up,↑,0.4859660000074655,True,18,1,0,15
Y2-S2-011K24,6,614,AS,exp,29,→,right,→,0.8181072999723256,True,17,1,0,15
Y2-S2-011K24,6,615,AS,exp,47,←,left,←,0.7151361000724137,True,17,1,0,15
Y2-S2-011K24,6,616,AS,exp,33,↓,down,↓,0.5128375999629498,True,17,1,0,15
Y2-S2-011K24,6,617,AS,exp,28,↑,up,↑,0.6931272998917848,True,16,1,0,15
Y2-S2-011K24,6,618,AS,exp,46,←,right,→,0.5460067000240088,False,16,-1,1,16
Y2-S2-011K24,7,619,AS,intra_train,46,↓,down,↓,0.7714124000631273,True,28,-,-,-
Y2-S2-011K24,7,620,AS,intra_train,38,←,left,←,0.5177039001137018,True,28,-,-,-
Y2-S2-011K24,7,621,AS,intra_train,29,→,right,→,0.4517977999057621,True,28,-,-,-
Y2-S2-011K24,7,622,AS,intra_train,50,↓,down,↓,0.7654311000369489,True,28,-,-,-
Y2-S2-011K24,7,623,AS,intra_train,29,←,left,←,0.4673266999889165,True,28,-,-,-
Y2-S2-011K24,7,624,AS,exp,32,→,right,→,0.5177571000531316,True,19,0,0,0
Y2-S2-011K24,7,625,AS,exp,41,←,left,←,0.6878277999348938,True,19,0,0,0
Y2-S2-011K24,7,626,AS,exp,41,→,right,→,0.5072097000665963,True,19,1,0,0
Y2-S2-011K24,7,627,AS,exp,45,←,left,←,0.4842103000264615,True,18,1,0,0
Y2-S2-011K24,7,628,AS,exp,38,→,right,→,1.3224153998307884,True,18,1,0,0
Y2-S2-011K24,7,629,AS,exp,37,↓,left,←,0.5777875001076609,False,18,-1,1,1
Y2-S2-011K24,7,630,AS,exp,48,↑,up,↑,0.647916299989447,True,19,-1,0,1
Y2-S2-011K24,7,631,AS,exp,46,↓,right,→,0.5666873999871314,False,19,-1,0,1
Y2-S2-011K24,7,632,AS,exp,35,→,right,→,0.40064290002919734,True,20,-1,0,1
Y2-S2-011K24,7,633,AS,exp,44,↑,left,←,0.5635143998079002,False,20,-1,0,1
Y2-S2-011K24,7,634,AS,exp,26,←,left,←,0.7870792998000979,True,21,-1,0,1
Y2-S2-011K24,7,635,AS,exp,27,→,right,→,0.714942199876532,True,21,-1,0,1
Y2-S2-011K24,7,636,AS,exp,28,↓,down,↓,0.6059338001068681,True,21,1,1,2
Y2-S2-011K24,7,637,AS,exp,35,↑,up,↑,0.5065429999958724,True,20,1,0,2
Y2-S2-011K24,7,638,AS,exp,33,←,left,←,0.5600146998185664,True,20,1,0,2
Y2-S2-011K24,7,639,AS,exp,43,↓,down,↓,0.5834098998457193,True,20,1,0,2
Y2-S2-011K24,7,640,AS,exp,50,↑,up,↑,0.6784578000660986,True,19,1,0,2
Y2-S2-011K24,7,641,AS,exp,30,←,left,←,0.5827741997782141,True,19,1,0,2
Y2-S2-011K24,7,642,AS,exp,26,↓,down,↓,0.5104630999267101,True,19,1,0,2
Y2-S2-011K24,7,643,AS,exp,31,↑,up,↑,0.640481699956581,True,18,1,0,2
Y2-S2-011K24,7,644,AS,exp,30,→,right,→,1.1341323000378907,True,18,1,0,2
Y2-S2-011K24,7,645,AS,exp,41,↓,down,↓,0.7584883000236005,True,18,1,0,2
Y2-S2-011K24,7,646,AS,exp,44,←,left,←,1.0107535999268293,True,17,1,0,2
Y2-S2-011K24,7,647,AS,exp,50,↓,right,→,0.5478245997801423,False,17,-1,1,3
Y2-S2-011K24,7,648,AS,exp,34,↑,left,←,0.38390840007923543,False,18,-1,0,3
Y2-S2-011K24,7,649,AS,exp,37,↓,down,↓,0.5438041999004781,True,19,-1,0,3
Y2-S2-011K24,7,650,AS,exp,49,→,right,→,1.101859499933198,True,19,-1,0,3
Y2-S2-011K24,7,651,AS,exp,47,↓,down,↓,0.5405030001420528,True,19,1,1,4
Y2-S2-011K24,7,652,AS,exp,35,→,right,→,0.5721460999920964,True,18,1,0,4
Y2-S2-011K24,7,653,AS,exp,39,↑,left,←,0.2346240000333637,False,18,-1,1,5
Y2-S2-011K24,7,654,AS,exp,25,↓,down,↓,1.2420270000584424,True,19,-1,0,5
Y2-S2-011K24,7,655,AS,exp,25,←,right,→,0.4172131000086665,False,19,-1,0,5
Y2-S2-011K24,7,656,AS,exp,43,→,left,←,0.9853727000299841,False,20,-1,0,5
Y2-S2-011K24,7,657,AS,exp,32,←,left,←,0.9924084001686424,True,21,-1,0,5
Y2-S2-011K24,7,658,AS,exp,40,↓,down,↓,1.3017791998572648,True,21,-1,0,5
Y2-S2-011K24,7,659,AS,exp,25,↑,up,↑,0.41716749989427626,True,21,1,1,6
Y2-S2-011K24,7,660,AS,exp,46,↓,down,↓,0.4174452000297606,True,20,1,0,6
Y2-S2-011K24,7,661,AS,exp,25,→,right,→,0.5607134001329541,True,20,1,0,6
Y2-S2-011K24,7,662,AS,exp,25,↓,right,→,0.5103957999963313,False,20,-1,1,7
Y2-S2-011K24,7,663,AS,exp,40,→,down,↓,0.3341898999642581,False,21,-1,0,7
Y2-S2-011K24,7,664,AS,exp,30,↓,down,↓,0.6650322999339551,True,22,-1,0,7
Y2-S2-011K24,7,665,AS,exp,28,←,right,→,0.4840993001125753,False,22,-1,0,7
Y2-S2-011K24,7,666,AS,exp,29,↓,down,↓,0.4840239000041038,True,23,-1,0,7
Y2-S2-011K24,7,667,AS,exp,31,↑,up,↑,0.5874740998260677,True,23,-1,0,7
Y2-S2-011K24,7,668,AS,exp,30,↓,down,↓,0.6430093999952078,True,23,1,1,8
Y2-S2-011K24,7,669,AS,exp,31,→,right,→,0.4347643000073731,True,22,1,0,8
Y2-S2-011K24,7,670,AS,exp,42,↑,down,↓,0.6023248999845237,False,22,-1,1,9
Y2-S2-011K24,7,671,AS,exp,28,↓,down,↓,1.1719419998116791,True,23,-1,0,9
Y2-S2-011K24,7,672,AS,exp,27,↑,up,↑,0.41720250016078353,True,23,-1,0,9
Y2-S2-011K24,7,673,AS,exp,29,←,left,←,0.6039479000028223,True,23,1,1,10
Y2-S2-011K24,7,674,AS,exp,29,↓,up,↑,0.7555006998591125,False,22,-1,1,11
Y2-S2-011K24,7,675,AS,exp,37,↑,left,←,1.2032655000220984,False,23,-1,0,11
Y2-S2-011K24,7,676,AS,exp,37,←,left,←,0.7639733001124114,True,24,-1,0,11
Y2-S2-011K24,7,677,AS,exp,31,↑,up,↑,0.6440568000543863,True,24,-1,0,11
Y2-S2-011K24,7,678,AS,exp,50,↓,down,↓,1.3548000999726355,True,24,1,1,12
Y2-S2-011K24,7,679,AS,exp,31,→,right,→,0.6878945000935346,True,23,1,0,12
Y2-S2-011K24,7,680,AS,exp,34,↑,up,↑,0.6307826999109238,True,23,1,0,12
Y2-S2-011K24,7,681,AS,exp,30,←,right,→,0.5826560999266803,False,23,-1,1,13
Y2-S2-011K24,7,682,AS,exp,42,→,left,←,0.5676764999516308,False,24,-1,0,13
Y2-S2-011K24,7,683,AS,exp,42,←,left,←,1.0996195999905467,True,25,-1,0,13
Y2-S2-011K24,7,684,AS,exp,37,↓,down,↓,0.759111599996686,True,25,-1,0,13
Y2-S2-011K24,7,685,AS,exp,41,→,left,←,0.6319689000956714,False,25,-1,0,13
Y2-S2-011K24,7,686,AS,exp,29,←,left,←,0.6881530999671668,True,26,-1,0,13
Y2-S2-011K24,7,687,AS,exp,32,↑,up,↑,0.4677344001829624,True,26,-1,0,13
Y2-S2-011K24,7,688,AS,exp,50,↓,down,↓,0.7508922999259084,True,26,1,1,14
Y2-S2-011K24,7,689,AS,exp,42,←,left,←,0.6438488999847323,True,25,1,0,14
Y2-S2-011K24,7,690,AS,exp,43,→,right,→,0.7074755001813173,True,25,1,0,14
Y2-S2-011K24,7,691,AS,exp,32,↓,down,↓,0.7957095000892878,True,25,1,0,14
Y2-S2-011K24,7,692,AS,exp,37,→,right,→,0.45095119997859,True,24,1,0,14
Y2-S2-011K24,7,693,AS,exp,28,↓,down,↓,0.5813445001840591,True,24,1,0,14
Y2-S2-011K24,7,694,AS,exp,26,←,left,←,0.6888117999769747,True,24,1,0,14
Y2-S2-011K24,7,695,AS,exp,39,→,right,→,0.585836400045082,True,23,1,0,14
Y2-S2-011K24,7,696,AS,exp,48,↓,left,←,1.0975770000368357,False,23,-1,1,15
Y2-S2-011K24,7,697,AS,exp,28,←,left,←,0.6511649000458419,True,24,-1,0,15
Y2-S2-011K24,7,698,AS,exp,32,→,right,→,0.45054719992913306,True,24,-1,0,15
Y2-S2-011K24,7,699,AS,exp,32,↑,up,↑,0.6898100001271814,True,24,1,1,16
Y2-S2-011K24,8,700,PS,intra_train,48,→,right,→,0.483649899950251,True,15,-,-,-
Y2-S2-011K24,8,701,PS,intra_train,27,↑,up,↑,0.4272606000304222,True,15,-,-,-
Y2-S2-011K24,8,702,PS,intra_train,29,→,right,→,0.9609145999420434,True,15,-,-,-
Y2-S2-011K24,8,703,PS,intra_train,33,↓,right,→,1.0075264000333846,False,15,-,-,-
Y2-S2-011K24,8,704,PS,intra_train,32,→,right,→,0.47869920008815825,True,15,-,-,-
Y2-S2-011K24,8,705,PS,exp,43,←,left,←,0.41082440013997257,True,10,0,0,0
Y2-S2-011K24,8,706,PS,exp,40,→,right,→,0.5013763001188636,True,10,0,0,0
Y2-S2-011K24,8,707,PS,exp,49,←,left,←,0.4808449000120163,True,10,1,0,0
Y2-S2-011K24,8,708,PS,exp,44,↓,down,↓,0.5149859997909516,True,9,1,0,0
Y2-S2-011K24,8,709,PS,exp,42,←,left,←,0.7159343999810517,True,9,1,0,0
Y2-S2-011K24,8,710,PS,exp,42,→,right,→,0.663690600078553,True,9,1,0,0
Y2-S2-011K24,8,711,PS,exp,29,↑,right,→,0.4916941998526454,False,8,-1,1,1
Y2-S2-011K24,8,712,PS,exp,26,↓,down,↓,0.5531593000050634,True,9,-1,0,1
Y2-S2-011K24,8,713,PS,exp,31,→,right,→,0.41938339988701046,True,9,-1,0,1
Y2-S2-011K24,8,714,PS,exp,29,↑,right,→,0.45767139992676675,False,9,-1,0,1
Y2-S2-011K24,8,715,PS,exp,31,→,down,↓,0.4778244998306036,False,10,-1,0,1
Y2-S2-011K24,8,716,PS,exp,44,↑,up,↑,0.9970631001051515,True,11,-1,0,1
Y2-S2-011K24,8,717,PS,exp,29,→,down,↓,0.5670757999178022,False,11,-1,0,1
Y2-S2-011K24,8,718,PS,exp,49,←,left,←,0.745602099923417,True,12,-1,0,1
Y2-S2-011K24,8,719,PS,exp,29,↓,down,↓,0.544862300157547,True,12,-1,0,1
Y2-S2-011K24,8,720,PS,exp,44,↑,up,↑,0.537758800201118,True,12,1,1,2
Y2-S2-011K24,8,721,PS,exp,37,↓,down,↓,0.44248050008900464,True,11,1,0,2
Y2-S2-011K24,8,722,PS,exp,34,→,right,→,0.48010349995456636,True,11,1,0,2
Y2-S2-011K24,8,723,PS,exp,29,↓,down,↓,0.43676159996539354,True,11,1,0,2
Y2-S2-011K24,8,724,PS,exp,28,↑,up,↑,0.5889315002132207,True,10,1,0,2
Y2-S2-011K24,8,725,PS,exp,48,←,left,←,0.5042824000120163,True,10,1,0,2
Y2-S2-011K24,8,726,PS,exp,28,↓,right,→,0.6568438000977039,False,10,-1,1,3
Y2-S2-011K24,8,727,PS,exp,49,→,right,→,0.5498593999072909,True,11,-1,0,3
Y2-S2-011K24,8,728,PS,exp,27,↓,down,↓,0.4478552998043597,True,11,-1,0,3
Y2-S2-011K24,8,729,PS,exp,44,←,left,←,0.5096042000222951,True,11,1,1,4
Y2-S2-011K24,8,730,PS,exp,46,↓,down,↓,0.5001947998534888,True,10,1,0,4
Y2-S2-011K24,8,731,PS,exp,28,←,left,←,0.46638250001706183,True,10,1,0,4
Y2-S2-011K24,8,732,PS,exp,31,↑,up,↑,0.5012447000481188,True,10,1,0,4
Y2-S2-011K24,8,733,PS,exp,31,→,right,→,0.5637189000844955,True,9,1,0,4
Y2-S2-011K24,8,734,PS,exp,29,←,left,←,0.4775471000466496,True,9,1,0,4
Y2-S2-011K24,8,735,PS,exp,50,↑,up,↑,0.4436594999860972,True,9,1,0,4
Y2-S2-011K24,8,736,PS,exp,47,→,right,→,0.5149558999110013,True,8,1,0,4
Y2-S2-011K24,8,737,PS,exp,43,←,left,←,0.36601389991119504,True,8,1,0,4
Y2-S2-011K24,8,738,PS,exp,29,→,up,↑,0.7845575001556426,False,8,-1,1,5
Y2-S2-011K24,8,739,PS,exp,35,↑,up,↑,0.4959781998768449,True,9,-1,0,5
Y2-S2-011K24,8,740,PS,exp,28,↓,up,↑,0.6841735001653433,False,9,-1,0,5
Y2-S2-011K24,8,741,PS,exp,33,↑,right,→,0.41047600004822016,False,10,-1,0,5
Y2-S2-011K24,8,742,PS,exp,44,→,right,→,0.5534857001621276,True,11,-1,0,5
Y2-S2-011K24,8,743,PS,exp,42,←,left,←,0.4075723998248577,True,11,-1,0,5
Y2-S2-011K24,8,744,PS,exp,44,→,right,→,0.4695264999754727,True,11,1,1,6
Y2-S2-011K24,8,745,PS,exp,35,←,left,←,0.45405709999613464,True,10,1,0,6
Y2-S2-011K24,8,746,PS,exp,31,↓,down,↓,0.6173440001439303,True,10,1,0,6
Y2-S2-011K24,8,747,PS,exp,37,→,right,→,0.4035895001143217,True,10,1,0,6
Y2-S2-011K24,8,748,PS,exp,26,↑,up,↑,0.44123129989020526,True,9,1,0,6
Y2-S2-011K24,8,749,PS,exp,40,↓,right,→,0.7301209000870585,False,9,-1,1,7
Y2-S2-011K24,8,750,PS,exp,35,↑,up,↑,0.3971930001862347,True,10,-1,0,7
Y2-S2-011K24,8,751,PS,exp,47,↓,down,↓,0.5096789998933673,True,10,-1,0,7
Y2-S2-011K24,8,752,PS,exp,33,↑,up,↑,0.5308545001316816,True,10,1,1,8
Y2-S2-011K24,8,753,PS,exp,34,←,left,←,0.4788651999551803,True,9,1,0,8
Y2-S2-011K24,8,754,PS,exp,49,↑,up,↑,0.35390920005738735,True,9,1,0,8
Y2-S2-011K24,8,755,PS,exp,32,→,right,→,0.7260577999986708,True,9,1,0,8
Y2-S2-011K24,8,756,PS,exp,37,←,up,↑,0.7462047999724746,False,8,-1,1,9
Y2-S2-011K24,8,757,PS,exp,31,↓,down,↓,0.48543359991163015,True,9,-1,0,9
Y2-S2-011K24,8,758,PS,exp,36,←,right,→,0.3364194999448955,False,9,-1,0,9
Y2-S2-011K24,8,759,PS,exp,34,→,left,←,0.3690775998402387,False,10,-1,0,9
Y2-S2-011K24,8,760,PS,exp,37,←,left,←,0.38437789981253445,True,11,-1,0,9
Y2-S2-011K24,8,761,PS,exp,44,↓,right,→,0.4456686000339687,False,11,-1,0,9
Y2-S2-011K24,8,762,PS,exp,25,←,left,←,1.0808746998663992,True,12,-1,0,9
Y2-S2-011K24,8,763,PS,exp,26,↑,up,↑,0.4825552999973297,True,12,-1,0,9
Y2-S2-011K24,8,764,PS,exp,46,→,up,↑,0.38232470001094043,False,12,-1,0,9
Y2-S2-011K24,8,765,PS,exp,35,←,left,←,0.35101129999384284,True,13,-1,0,9
Y2-S2-011K24,8,766,PS,exp,46,→,left,←,0.31733360001817346,False,13,-1,0,9
Y2-S2-011K24,8,767,PS,exp,28,←,left,←,0.440886199939996,True,14,-1,0,9
Y2-S2-011K24,8,768,PS,exp,40,↓,down,↓,0.5113568999804556,True,14,-1,0,9
Y2-S2-011K24,8,769,PS,exp,50,↑,up,↑,0.48074949998408556,True,14,1,1,10
Y2-S2-011K24,8,770,PS,exp,32,→,up,↑,0.7929694999475032,False,13,-1,1,11
Y2-S2-011K24,8,771,PS,exp,41,↓,up,↑,0.8320074998773634,False,14,-1,0,11
Y2-S2-011K24,8,772,PS,exp,47,↑,up,↑,0.47074729995802045,True,15,-1,0,11
Y2-S2-011K24,8,773,PS,exp,27,↓,down,↓,0.6317336999345571,True,15,-1,0,11
Y2-S2-011K24,8,774,PS,exp,46,←,left,←,0.6121329998131841,True,15,1,1,12
Y2-S2-011K24,8,775,PS,exp,41,→,left,←,0.7527731000445783,False,14,-1,1,13
Y2-S2-011K24,8,776,PS,exp,49,↓,down,↓,0.4873844999819994,True,15,-1,0,13
Y2-S2-011K24,8,777,PS,exp,49,→,right,→,0.46941379993222654,True,15,-1,0,13
Y2-S2-011K24,8,778,PS,exp,36,↓,down,↓,0.5601623998954892,True,15,1,1,14
Y2-S2-011K24,8,779,PS,exp,46,→,right,→,0.48471640003845096,True,14,1,0,14
Y2-S2-011K24,8,780,PS,exp,39,↓,down,↓,0.52158880000934,True,14,1,0,14
Y2-S2-011K24,8,781,PS,exp,49,→,right,→,0.4428298999555409,True,14,1,0,14
Y2-S2-011K24,8,782,PS,exp,43,↓,down,↓,0.549461199901998,True,13,1,0,14
Y2-S2-011K24,8,783,PS,exp,38,←,left,←,0.46125940000638366,True,13,1,0,14
Y2-S2-011K24,8,784,PS,exp,43,↓,down,↓,0.48524909978732467,True,13,1,0,14
Y2-S2-011K24,8,785,PS,exp,33,↑,up,↑,0.6239781999029219,True,12,1,0,14
Y2-S2-011K24,8,786,PS,exp,49,↓,down,↓,0.4937832998111844,True,12,1,0,14
Y2-S2-011K24,8,787,PS,exp,42,→,right,→,0.3687537999358028,True,12,1,0,14
Y2-S2-011K24,8,788,PS,exp,41,↑,up,↑,0.4496152999345213,True,11,1,0,14
Y2-S2-011K24,8,789,PS,exp,34,↓,down,↓,0.5102780000306666,True,11,1,0,14
Y2-S2-011K24,8,790,PS,exp,47,→,right,→,0.5544816001784056,True,11,1,0,14
Y2-S2-011K24,8,791,PS,exp,45,←,left,←,0.4146837000735104,True,10,1,0,14
Y2-S2-011K24,8,792,PS,exp,32,↑,up,↑,0.6383593000937253,True,10,1,0,14
Y2-S2-011K24,8,793,PS,exp,48,↓,down,↓,0.6070914999581873,True,10,1,0,14
Y2-S2-011K24,8,794,PS,exp,26,←,left,←,0.4792296001687646,True,9,1,0,14
Y2-S2-011K24,8,795,PS,exp,34,↓,down,↓,0.4777112000156194,True,9,1,0,14
Y2-S2-011K24,8,796,PS,exp,47,←,down,↓,0.6076123998500407,False,9,-1,1,15
Y2-S2-011K24,8,797,PS,exp,47,↓,down,↓,0.5244233999401331,True,10,-1,0,15
Y2-S2-011K24,8,798,PS,exp,28,↑,up,↑,0.8576118000783026,True,10,-1,0,15
Y2-S2-011K24,8,799,PS,exp,35,←,right,→,0.6653503999114037,False,10,-1,0,15
Y2-S2-011K24,8,800,PS,exp,27,↑,up,↑,0.7769556001294404,True,11,-1,0,15
Y2-S2-011K24,8,801,PS,exp,26,←,left,←,0.4946878000628203,True,11,-1,0,15
Y2-S2-011K24,8,802,PS,exp,42,↑,up,↑,0.41146779991686344,True,11,1,1,16
