PART_ID,Block_no,Trial_no,Block_type,Trial_type,CSI,Stim_letter,Key_pressed,letter_choose,Rt,Corr,Stimulus Time,Level,Reversal,Revs_count
Y2-S2-006K27,1,1,PS,train,36,→,up,↑,1.132885199971497,False,30,-,-,-
Y2-S2-006K27,1,2,PS,train,50,↑,up,↑,1.2600892998743802,True,30,-,-,-
Y2-S2-006K27,1,3,PS,train,32,←,left,←,0.7099945000372827,True,30,-,-,-
Y2-S2-006K27,1,4,PS,train,27,→,right,→,0.6020019000861794,True,30,-,-,-
Y2-S2-006K27,1,5,PS,train,25,↓,left,←,0.5505720998626202,False,30,-,-,-
Y2-S2-006K27,1,6,PS,train,35,↑,up,↑,0.5341123000252992,True,30,-,-,-
Y2-S2-006K27,1,7,PS,train,40,→,right,→,0.567310499958694,True,30,-,-,-
Y2-S2-006K27,1,8,PS,train,25,←,left,←,0.5504546000156552,True,30,-,-,-
Y2-S2-006K27,1,9,PS,train,46,↓,up,↑,0.5340708000585437,False,30,-,-,-
Y2-S2-006K27,1,10,PS,train,50,←,left,←,0.5675944001413882,True,30,-,-,-
Y2-S2-006K27,2,11,AS,train,47,↑,up,↑,1.1457799999043345,True,45,-,-,-
Y2-S2-006K27,2,12,AS,train,37,↓,down,↓,0.6183400999289006,True,45,-,-,-
Y2-S2-006K27,2,13,AS,train,42,←,left,←,0.5177683997899294,True,45,-,-,-
Y2-S2-006K27,2,14,AS,train,39,↑,right,→,0.7176237001549453,False,45,-,-,-
Y2-S2-006K27,2,15,AS,train,48,↓,down,↓,0.8838402000255883,True,45,-,-,-
Y2-S2-006K27,2,16,AS,train,49,←,left,←,0.8175022997893393,True,45,-,-,-
Y2-S2-006K27,2,17,AS,train,27,↑,up,↑,0.8504669000394642,True,45,-,-,-
Y2-S2-006K27,2,18,AS,train,26,←,left,←,0.5347440999466926,True,45,-,-,-
Y2-S2-006K27,2,19,AS,train,37,↑,up,↑,0.4678750999737531,True,45,-,-,-
Y2-S2-006K27,2,20,AS,train,35,←,left,←,0.8337846000213176,True,45,-,-,-
Y2-S2-006K27,-,21,PS,adaptive,28,→,up,↑,1.2688542001415044,False,10,-1,0,0
Y2-S2-006K27,-,22,PS,adaptive,41,↑,up,↑,0.6397780999541283,True,11,-1,0,0
Y2-S2-006K27,-,23,PS,adaptive,42,↓,up,↑,0.7409234000369906,False,11,-1,0,0
Y2-S2-006K27,-,24,PS,adaptive,50,→,up,↑,0.7736476000864059,False,12,-1,0,0
Y2-S2-006K27,-,25,PS,adaptive,39,↑,up,↑,0.46750889997929335,True,13,-1,0,0
Y2-S2-006K27,-,26,PS,adaptive,26,→,right,→,0.6052866999525577,True,13,-1,0,0
Y2-S2-006K27,-,27,PS,adaptive,25,↓,up,↑,0.5295969999860972,False,13,-1,0,0
Y2-S2-006K27,-,28,PS,adaptive,32,↑,up,↑,0.5606323999818414,True,14,-1,0,0
Y2-S2-006K27,-,29,PS,adaptive,40,←,left,←,0.5110517998691648,True,14,-1,0,0
Y2-S2-006K27,-,30,PS,adaptive,38,↑,up,↑,0.5513391001150012,True,14,1,1,1
Y2-S2-006K27,-,31,PS,adaptive,39,←,left,←,0.6508993001189083,True,13,1,0,1
Y2-S2-006K27,-,32,PS,adaptive,29,↓,down,↓,0.7719654999673367,True,13,1,0,1
Y2-S2-006K27,-,33,PS,adaptive,36,↑,left,←,0.8783722000662237,False,13,-1,1,2
Y2-S2-006K27,-,34,PS,adaptive,45,↓,down,↓,0.7349191999528557,True,14,-1,0,2
Y2-S2-006K27,-,35,PS,adaptive,37,→,down,↓,0.46816179994493723,False,14,-1,0,2
Y2-S2-006K27,-,36,PS,adaptive,33,↑,down,↓,0.20115999993868172,False,15,-1,0,2
Y2-S2-006K27,-,37,PS,adaptive,45,↓,left,←,0.6353425001725554,False,16,-1,0,2
Y2-S2-006K27,-,38,PS,adaptive,48,↑,left,←,0.984173099976033,False,17,-1,0,2
Y2-S2-006K27,-,39,PS,adaptive,25,←,left,←,0.47570009995251894,True,18,-1,0,2
Y2-S2-006K27,-,40,PS,adaptive,26,↓,left,←,0.6828606999479234,False,18,-1,0,2
Y2-S2-006K27,-,41,PS,adaptive,28,↑,left,←,0.6886508001480252,False,19,-1,0,2
Y2-S2-006K27,-,42,PS,adaptive,40,←,left,←,0.1676346999593079,True,20,-1,0,2
Y2-S2-006K27,-,43,PS,adaptive,45,↑,left,←,0.1848901999182999,False,20,-1,0,2
Y2-S2-006K27,-,44,PS,adaptive,29,→,right,→,0.624656300060451,True,21,-1,0,2
Y2-S2-006K27,-,45,PS,adaptive,37,←,right,→,0.6228346000425518,False,21,-1,0,2
Y2-S2-006K27,-,46,PS,adaptive,49,↓,down,↓,0.6376401998568326,True,22,-1,0,2
Y2-S2-006K27,-,47,PS,adaptive,48,→,right,→,0.6370484000071883,True,22,-1,0,2
Y2-S2-006K27,-,48,PS,adaptive,37,↓,right,→,0.9220761999022216,False,22,-1,0,2
Y2-S2-006K27,-,49,PS,adaptive,31,→,right,→,0.38365170010365546,True,23,-1,0,2
Y2-S2-006K27,-,50,PS,adaptive,49,←,left,←,0.5009231001604348,True,23,-1,0,2
Y2-S2-006K27,-,51,PS,adaptive,48,↑,up,↑,0.8758760998025537,True,23,1,1,3
Y2-S2-006K27,-,52,PS,adaptive,49,↓,left,←,0.8951397000346333,False,22,-1,1,4
Y2-S2-006K27,-,53,AS,adaptive,32,→,right,→,0.607263500103727,True,20,0,0,0
Y2-S2-006K27,-,54,AS,adaptive,45,←,right,→,0.3840493999887258,False,20,-1,0,0
Y2-S2-006K27,-,55,AS,adaptive,44,→,right,→,1.2298155999742448,True,21,-1,0,0
Y2-S2-006K27,-,56,AS,adaptive,26,←,left,←,0.5609033999498934,True,21,-1,0,0
Y2-S2-006K27,-,57,AS,adaptive,38,↑,right,→,0.7004656000062823,False,21,-1,0,0
Y2-S2-006K27,-,58,AS,adaptive,47,→,right,→,1.0610422000754625,True,22,-1,0,0
Y2-S2-006K27,-,59,AS,adaptive,38,←,left,←,0.5399074999149889,True,22,-1,0,0
Y2-S2-006K27,-,60,AS,adaptive,34,↓,up,↑,0.5617933999747038,False,22,-1,0,0
Y2-S2-006K27,-,61,AS,adaptive,35,↑,up,↑,0.8825125000439584,True,23,-1,0,0
Y2-S2-006K27,-,62,AS,adaptive,47,→,right,→,1.1807035999372602,True,23,-1,0,0
Y2-S2-006K27,-,63,AS,adaptive,37,↓,up,↑,1.3183033999521285,False,23,-1,0,0
Y2-S2-006K27,-,64,AS,adaptive,42,→,right,→,0.6276624000165612,True,24,-1,0,0
Y2-S2-006K27,-,65,AS,adaptive,27,↑,up,↑,0.5174820001702756,True,24,-1,0,0
Y2-S2-006K27,-,66,AS,adaptive,40,→,right,→,0.6426260999869555,True,24,1,1,1
Y2-S2-006K27,-,67,AS,adaptive,47,←,up,↑,1.2769695001188666,False,23,-1,1,2
Y2-S2-006K27,-,68,AS,adaptive,38,→,right,→,0.8084234998095781,True,24,-1,0,2
Y2-S2-006K27,-,69,AS,adaptive,35,↓,up,↑,0.5852717000525445,False,24,-1,0,2
Y2-S2-006K27,-,70,AS,adaptive,39,→,left,←,1.1336042999755591,False,25,-1,0,2
Y2-S2-006K27,-,71,AS,adaptive,34,↓,down,↓,0.7139471999835223,True,26,-1,0,2
Y2-S2-006K27,-,72,AS,adaptive,46,→,down,↓,0.2843578001484275,False,26,-1,0,2
Y2-S2-006K27,-,73,AS,adaptive,36,←,right,→,0.18430710001848638,False,27,-1,0,2
Y2-S2-006K27,-,74,AS,adaptive,36,↓,left,←,0.38430280005559325,False,28,-1,0,2
Y2-S2-006K27,-,75,AS,adaptive,26,←,down,↓,1.7181935999542475,False,29,-1,0,2
Y2-S2-006K27,-,76,AS,adaptive,39,→,down,↓,0.2676506000570953,False,30,-1,0,2
Y2-S2-006K27,-,77,AS,adaptive,26,←,right,→,0.15132289985194802,False,31,-1,0,2
Y2-S2-006K27,-,78,AS,adaptive,42,↑,down,↓,0.6176222001668066,False,32,-1,0,2
Y2-S2-006K27,-,79,AS,adaptive,32,↓,up,↑,0.46781750000081956,False,33,-1,0,2
Y2-S2-006K27,-,80,AS,adaptive,26,←,left,←,0.8449850000906736,True,34,-1,0,2
Y2-S2-006K27,-,81,AS,adaptive,45,↓,down,↓,0.5345459000673145,True,34,-1,0,2
Y2-S2-006K27,-,82,AS,adaptive,36,←,left,←,0.6336750998161733,True,34,1,1,3
Y2-S2-006K27,-,83,AS,adaptive,42,↑,left,←,0.5178964999504387,False,33,-1,1,4
Y2-S2-006K27,1,84,AS,intra_train,38,↓,left,←,0.5177331001032144,False,51,-,-,-
Y2-S2-006K27,1,85,AS,intra_train,25,↑,right,→,0.5676712000276893,False,51,-,-,-
Y2-S2-006K27,1,86,AS,intra_train,34,→,right,→,0.7172322000842541,True,51,-,-,-
Y2-S2-006K27,1,87,AS,intra_train,35,←,left,←,0.7680050998460501,True,51,-,-,-
Y2-S2-006K27,1,88,AS,intra_train,29,↓,down,↓,0.5846967999823391,True,51,-,-,-
Y2-S2-006K27,1,89,AS,exp,26,↑,down,↓,0.6340635998640209,False,34,-1,0,0
Y2-S2-006K27,1,90,AS,exp,33,←,left,←,0.7649625001940876,True,35,-1,0,0
Y2-S2-006K27,1,91,AS,exp,28,↓,down,↓,0.8432197000365704,True,35,-1,0,0
Y2-S2-006K27,1,92,AS,exp,37,→,right,→,1.3022399998735636,True,35,1,1,1
Y2-S2-006K27,1,93,AS,exp,33,↓,down,↓,0.684819099958986,True,34,1,0,1
Y2-S2-006K27,1,94,AS,exp,44,→,right,→,0.6839533001184464,True,34,1,0,1
Y2-S2-006K27,1,95,AS,exp,40,↓,down,↓,1.242523399880156,True,34,1,0,1
Y2-S2-006K27,1,96,AS,exp,31,→,right,→,0.6009897999465466,True,33,1,0,1
Y2-S2-006K27,1,97,AS,exp,29,↓,down,↓,0.5680213000159711,True,33,1,0,1
Y2-S2-006K27,1,98,AS,exp,35,→,right,→,0.6175571999046952,True,33,1,0,1
Y2-S2-006K27,1,99,AS,exp,26,↓,down,↓,0.6008053000550717,True,32,1,0,1
Y2-S2-006K27,1,100,AS,exp,30,→,right,→,0.8527904998045415,True,32,1,0,1
Y2-S2-006K27,1,101,AS,exp,49,↑,down,↓,0.7492812001146376,False,32,-1,1,2
Y2-S2-006K27,1,102,AS,exp,29,→,up,↑,0.20130089996382594,False,33,-1,0,2
Y2-S2-006K27,1,103,AS,exp,44,←,right,→,0.7595921999309212,False,34,-1,0,2
Y2-S2-006K27,1,104,AS,exp,41,↓,down,↓,0.9443165000993758,True,35,-1,0,2
Y2-S2-006K27,1,105,AS,exp,29,→,right,→,0.8097125999629498,True,35,-1,0,2
Y2-S2-006K27,1,106,AS,exp,37,←,left,←,0.8428264001850039,True,35,1,1,3
Y2-S2-006K27,1,107,AS,exp,33,↑,up,↑,0.7947104999329895,True,34,1,0,3
Y2-S2-006K27,1,108,AS,exp,44,↓,left,←,0.9235143000259995,False,34,-1,1,4
Y2-S2-006K27,1,109,AS,exp,43,→,right,→,0.6171814000699669,True,35,-1,0,4
Y2-S2-006K27,1,110,AS,exp,37,←,left,←,0.6005345999728888,True,35,-1,0,4
Y2-S2-006K27,1,111,AS,exp,46,→,right,→,0.8641446998808533,True,35,1,1,5
Y2-S2-006K27,1,112,AS,exp,29,↑,right,→,0.7632238999940455,False,34,-1,1,6
Y2-S2-006K27,1,113,AS,exp,30,←,right,→,0.13439060002565384,False,35,-1,0,6
Y2-S2-006K27,1,114,AS,exp,37,→,left,←,0.46767559996806085,False,36,-1,0,6
Y2-S2-006K27,1,115,AS,exp,33,↓,right,→,0.30073120002634823,False,37,-1,0,6
Y2-S2-006K27,1,116,AS,exp,32,↑,left,←,0.36784199997782707,False,38,-1,0,6
Y2-S2-006K27,1,117,AS,exp,26,↓,down,↓,0.28438749979250133,True,39,-1,0,6
Y2-S2-006K27,1,118,AS,exp,31,←,down,↓,0.2845782001968473,False,39,-1,0,6
Y2-S2-006K27,1,119,AS,exp,43,↓,right,→,0.034616800025105476,False,40,-1,0,6
Y2-S2-006K27,1,120,AS,exp,35,←,up,↑,0.3677687000017613,False,41,-1,0,6
Y2-S2-006K27,1,121,AS,exp,46,→,up,↑,0.7170231998898089,False,42,-1,0,6
Y2-S2-006K27,1,122,AS,exp,39,←,left,←,0.9825111001264304,True,43,-1,0,6
Y2-S2-006K27,1,123,AS,exp,33,→,left,←,0.4507635000627488,False,43,-1,0,6
Y2-S2-006K27,1,124,AS,exp,32,↑,right,→,0.01785619999282062,False,44,-1,0,6
Y2-S2-006K27,1,125,AS,exp,25,→,right,→,0.6342178001068532,True,45,-1,0,6
Y2-S2-006K27,1,126,AS,exp,25,↑,right,→,0.0011575999669730663,False,45,-1,0,6
Y2-S2-006K27,1,127,AS,exp,46,→,right,→,0.46769799990579486,True,46,-1,0,6
Y2-S2-006K27,1,128,AS,exp,33,↑,right,→,0.2510887000244111,False,46,-1,0,6
Y2-S2-006K27,1,129,AS,exp,27,→,right,→,0.5010017000604421,True,47,-1,0,6
Y2-S2-006K27,1,130,AS,exp,37,←,right,→,0.8004637998528779,False,47,-1,0,6
Y2-S2-006K27,1,131,AS,exp,35,↓,down,↓,1.543154199840501,True,48,-1,0,6
Y2-S2-006K27,1,132,AS,exp,34,→,down,↓,0.9909495001193136,False,48,-1,0,6
Y2-S2-006K27,1,133,AS,exp,37,←,left,←,0.817128200083971,True,49,-1,0,6
Y2-S2-006K27,1,134,AS,exp,49,→,right,→,0.5677286998834461,True,49,-1,0,6
Y2-S2-006K27,1,135,AS,exp,34,←,left,←,0.7027778998017311,True,49,1,1,7
Y2-S2-006K27,1,136,AS,exp,28,→,right,→,0.5843084000516683,True,48,1,0,7
Y2-S2-006K27,1,137,AS,exp,41,←,left,←,1.303473599953577,True,48,1,0,7
Y2-S2-006K27,1,138,AS,exp,27,↑,left,←,0.33434549998492,False,48,-1,1,8
Y2-S2-006K27,1,139,AS,exp,38,→,up,↑,0.2511527999304235,False,49,-1,0,8
Y2-S2-006K27,1,140,AS,exp,29,↓,right,→,0.2677663001231849,False,50,-1,0,8
Y2-S2-006K27,1,141,AS,exp,44,→,down,↓,0.15143140009604394,False,51,-1,0,8
Y2-S2-006K27,1,142,AS,exp,31,↓,down,↓,0.06768879992887378,True,52,-1,0,8
Y2-S2-006K27,1,143,AS,exp,39,→,down,↓,0.2346858000382781,False,52,-1,0,8
Y2-S2-006K27,1,144,AS,exp,33,↑,down,↓,0.23442930006422102,False,53,-1,0,8
Y2-S2-006K27,1,145,AS,exp,50,←,down,↓,0.250935000134632,False,54,-1,0,8
Y2-S2-006K27,1,146,AS,exp,25,↑,down,↓,0.017725700046867132,False,55,-1,0,8
Y2-S2-006K27,1,147,AS,exp,49,←,down,↓,0.41747370013035834,False,56,-1,0,8
Y2-S2-006K27,1,148,AS,exp,45,↑,down,↓,0.7015026002191007,False,57,-1,0,8
Y2-S2-006K27,1,149,AS,exp,29,↓,up,↑,0.8006835000123829,False,58,-1,0,8
Y2-S2-006K27,1,150,AS,exp,34,↑,down,↓,1.0506808999925852,False,59,-1,0,8
Y2-S2-006K27,1,151,AS,exp,38,←,left,←,0.7341799999121577,True,60,-1,0,8
Y2-S2-006K27,1,152,AS,exp,45,↑,left,←,0.8675838999915868,False,60,-1,0,8
Y2-S2-006K27,1,153,AS,exp,36,←,left,←,0.6842297001276165,True,61,-1,0,8
Y2-S2-006K27,1,154,AS,exp,32,→,left,←,0.6185498000122607,False,61,-1,0,8
Y2-S2-006K27,1,155,AS,exp,34,←,right,→,0.734235999872908,False,62,-1,0,8
Y2-S2-006K27,1,156,AS,exp,43,→,right,→,0.6009217998944223,True,63,-1,0,8
Y2-S2-006K27,1,157,AS,exp,32,↑,left,←,0.9512756001204252,False,63,-1,0,8
Y2-S2-006K27,1,158,AS,exp,42,→,left,←,1.4422609999310225,False,64,-1,0,8
Y2-S2-006K27,1,159,AS,exp,43,↓,left,←,0.5507008999120444,False,65,-1,0,8
Y2-S2-006K27,1,160,AS,exp,48,↑,down,↓,0.451375899836421,False,66,-1,0,8
Y2-S2-006K27,1,161,AS,exp,35,↓,down,↓,0.38452319987118244,True,67,-1,0,8
Y2-S2-006K27,1,162,AS,exp,36,↑,down,↓,0.5177553999237716,False,67,-1,0,8
Y2-S2-006K27,1,163,AS,exp,33,←,down,↓,0.1843752998393029,False,68,-1,0,8
Y2-S2-006K27,1,164,AS,exp,41,↑,down,↓,0.5342468000017107,False,69,-1,0,8
Y2-S2-006K27,1,165,AS,exp,28,←,left,←,1.2506580001208931,True,70,-1,0,8
Y2-S2-006K27,1,166,AS,exp,28,↑,up,↑,0.8012930999975652,True,70,-1,0,8
Y2-S2-006K27,1,167,AS,exp,43,←,up,↑,0.4510693000629544,False,70,-1,0,8
Y2-S2-006K27,1,168,AS,exp,33,→,left,←,0.36765290005132556,False,71,-1,0,8
Y2-S2-006K27,1,169,AS,exp,33,↑,up,↑,0.8343449998646975,True,72,-1,0,8
Y2-S2-006K27,1,170,AS,exp,47,↓,up,↑,0.584258500020951,False,72,-1,0,8
Y2-S2-006K27,1,171,AS,exp,42,→,right,→,0.7679068001452833,True,73,-1,0,8
Y2-S2-006K27,1,172,AS,exp,48,←,right,→,0.28422400006093085,False,73,-1,0,8
Y2-S2-006K27,1,173,AS,exp,26,↓,left,←,0.9510161997750401,False,74,-1,0,8
Y2-S2-006K27,1,174,AS,exp,33,←,left,←,1.1842716000974178,True,75,-1,0,8
Y2-S2-006K27,1,175,AS,exp,34,↑,up,↑,0.6676890999078751,True,75,-1,0,8
Y2-S2-006K27,1,176,AS,exp,27,→,left,←,0.6345791001804173,False,75,-1,0,8
Y2-S2-006K27,1,177,AS,exp,40,↑,up,↑,1.545561800012365,True,76,-1,0,8
Y2-S2-006K27,1,178,AS,exp,49,↓,down,↓,1.001218100078404,True,76,-1,0,8
Y2-S2-006K27,1,179,AS,exp,25,↑,up,↑,0.28426890005357563,True,76,1,1,9
Y2-S2-006K27,1,180,AS,exp,45,→,right,→,0.667747899889946,True,75,1,0,9
Y2-S2-006K27,1,181,AS,exp,45,←,left,←,0.6676425999030471,True,75,1,0,9
Y2-S2-006K27,1,182,AS,exp,45,↓,down,↓,0.7676073000766337,True,75,1,0,9
Y2-S2-006K27,1,183,AS,exp,31,→,right,→,0.6174588999710977,True,74,1,0,9
Y2-S2-006K27,1,184,AS,exp,39,↓,right,→,0.3674983000382781,False,74,-1,1,10
Y2-S2-006K27,1,185,AS,exp,48,→,down,↓,1.4707106000278145,False,75,-1,0,10
Y2-S2-006K27,1,186,AS,exp,46,↓,down,↓,1.333995700115338,True,76,-1,0,10
Y2-S2-006K27,1,187,AS,exp,30,←,down,↓,0.2515036999247968,False,76,-1,0,10
Y2-S2-006K27,1,188,AS,exp,48,→,right,→,0.8178926000837237,True,77,-1,0,10
Y2-S2-006K27,1,189,AS,exp,40,↑,up,↑,1.4811937001068145,True,77,-1,0,10
Y2-S2-006K27,1,190,AS,exp,45,↓,up,↑,1.217826700070873,False,77,-1,0,10
Y2-S2-006K27,1,191,AS,exp,37,→,up,↑,0.10109469993039966,False,78,-1,0,10
Y2-S2-006K27,1,192,AS,exp,49,↓,right,→,0.3509557999204844,False,79,-1,0,10
Y2-S2-006K27,1,193,AS,exp,44,←,down,↓,0.33444330003112555,False,80,-1,0,10
Y2-S2-006K27,1,194,AS,exp,45,→,down,↓,0.35121230012737215,False,81,-1,0,10
Y2-S2-006K27,1,195,AS,exp,33,↑,down,↓,0.051350299967452884,False,82,-1,0,10
Y2-S2-006K27,1,196,AS,exp,40,↓,down,↓,0.9175321999937296,True,83,-1,0,10
Y2-S2-006K27,1,197,AS,exp,47,↑,down,↓,1.9347209001425654,False,83,-1,0,10
Y2-S2-006K27,1,198,AS,exp,41,↓,down,↓,2.796288900077343,True,84,-1,0,10
Y2-S2-006K27,1,199,AS,exp,34,→,down,↓,0.21788889984600246,False,84,-1,0,10
Y2-S2-006K27,1,200,AS,exp,50,↓,down,↓,1.0012285001575947,True,85,-1,0,10
Y2-S2-006K27,1,201,AS,exp,45,←,left,←,0.7177023000549525,True,85,-1,0,10
Y2-S2-006K27,1,202,AS,exp,42,↓,left,←,0.35126459994353354,False,85,-1,0,10
Y2-S2-006K27,1,203,AS,exp,48,←,left,←,0.6511134998872876,True,86,-1,0,10
Y2-S2-006K27,1,204,AS,exp,26,↓,left,←,0.15115399984642863,False,86,-1,0,10
Y2-S2-006K27,1,205,AS,exp,31,↑,left,←,0.2344794999808073,False,87,-1,0,10
Y2-S2-006K27,1,206,AS,exp,29,→,right,→,0.568387100007385,True,88,-1,0,10
Y2-S2-006K27,1,207,AS,exp,48,↑,right,→,0.6677437999751419,False,88,-1,0,10
Y2-S2-006K27,1,208,AS,exp,26,↓,right,→,0.7675195001065731,False,89,-1,0,10
Y2-S2-006K27,1,209,AS,exp,31,↑,right,→,0.40137819992378354,False,90,-1,0,10
Y2-S2-006K27,1,210,AS,exp,27,→,right,→,1.7277805998455733,True,91,-1,0,10
Y2-S2-006K27,1,211,AS,exp,49,←,right,→,1.777126600034535,False,91,-1,0,10
Y2-S2-006K27,1,212,AS,exp,33,↓,right,→,2.7278579000849277,False,92,-1,0,10
Y2-S2-006K27,1,213,AS,exp,39,→,down,↓,0.5681385998614132,False,93,-1,0,10
Y2-S2-006K27,1,214,AS,exp,42,←,right,→,0.21801110007800162,False,94,-1,0,10
Y2-S2-006K27,1,215,AS,exp,49,→,right,→,1.9990768998395652,True,95,-1,0,10
Y2-S2-006K27,1,216,AS,exp,33,↓,down,↓,0.7348083998076618,True,95,-1,0,10
Y2-S2-006K27,1,217,AS,exp,25,←,left,←,0.934722599806264,True,95,1,1,11
Y2-S2-006K27,1,218,AS,exp,32,→,right,→,0.7843824001029134,True,94,1,0,11
Y2-S2-006K27,1,219,AS,exp,38,↓,right,→,0.7012587001081556,False,94,-1,1,12
Y2-S2-006K27,1,220,AS,exp,39,↑,right,→,0.4844164000824094,False,95,-1,0,12
Y2-S2-006K27,1,221,AS,exp,25,→,up,↑,0.31796499993652105,False,96,-1,0,12
Y2-S2-006K27,1,222,AS,exp,40,↓,down,↓,0.7179421000182629,True,97,-1,0,12
Y2-S2-006K27,1,223,AS,exp,50,↑,up,↑,0.7175767999142408,True,97,-1,0,12
Y2-S2-006K27,1,224,AS,exp,40,→,right,→,2.724613100057468,True,97,1,1,13
Y2-S2-006K27,1,225,AS,exp,35,↓,right,→,0.3678914001211524,False,96,-1,1,14
Y2-S2-006K27,1,226,AS,exp,45,→,right,→,0.5510437001939863,True,97,-1,0,14
Y2-S2-006K27,1,227,AS,exp,38,←,left,←,0.5346363999415189,True,97,-1,0,14
Y2-S2-006K27,1,228,AS,exp,46,↓,down,↓,0.784797300118953,True,97,1,1,15
Y2-S2-006K27,1,229,AS,exp,26,←,left,←,0.9176892000250518,True,96,1,0,15
Y2-S2-006K27,1,230,AS,exp,38,↑,right,→,1.0344871999695897,False,96,-1,1,16
Y2-S2-006K27,2,231,PS,intra_train,46,↓,down,↓,1.1395065998658538,True,34,-,-,-
Y2-S2-006K27,2,232,PS,intra_train,49,→,right,→,0.6003994999919087,True,34,-,-,-
Y2-S2-006K27,2,233,PS,intra_train,30,←,left,←,0.5347424000501633,True,34,-,-,-
Y2-S2-006K27,2,234,PS,intra_train,45,↓,down,↓,0.773166700033471,True,34,-,-,-
Y2-S2-006K27,2,235,PS,intra_train,35,←,left,←,0.5011011001188308,True,34,-,-,-
Y2-S2-006K27,2,236,PS,exp,48,↑,right,→,0.6351495000999421,False,23,-1,0,0
Y2-S2-006K27,2,237,PS,exp,32,↓,left,←,0.6087577999569476,False,24,-1,0,0
Y2-S2-006K27,2,238,PS,exp,32,→,right,→,1.1134462000336498,True,25,-1,0,0
Y2-S2-006K27,2,239,PS,exp,47,↑,up,↑,0.6390559000428766,True,25,-1,0,0
Y2-S2-006K27,2,240,PS,exp,33,↓,down,↓,0.6292210000101477,True,25,1,1,1
Y2-S2-006K27,2,241,PS,exp,30,→,left,←,0.9212697001639754,False,24,-1,1,2
Y2-S2-006K27,2,242,PS,exp,41,←,left,←,0.06769250007346272,True,25,-1,0,2
Y2-S2-006K27,2,243,PS,exp,27,→,left,←,0.38440870004706085,False,25,-1,0,2
Y2-S2-006K27,2,244,PS,exp,41,↓,left,←,0.23440580000169575,False,26,-1,0,2
Y2-S2-006K27,2,245,PS,exp,48,←,down,↓,0.2510938001796603,False,27,-1,0,2
Y2-S2-006K27,2,246,PS,exp,47,↑,down,↓,0.06766960001550615,False,28,-1,0,2
Y2-S2-006K27,2,247,PS,exp,47,←,down,↓,0.45110120018944144,False,29,-1,0,2
Y2-S2-006K27,2,248,PS,exp,26,↑,down,↓,0.2676599998958409,False,30,-1,0,2
Y2-S2-006K27,2,249,PS,exp,44,↓,down,↓,0.13414480001665652,True,31,-1,0,2
Y2-S2-006K27,2,250,PS,exp,49,←,down,↓,0.31761900009587407,False,31,-1,0,2
Y2-S2-006K27,2,251,PS,exp,39,→,down,↓,0.5504834000021219,False,32,-1,0,2
Y2-S2-006K27,2,252,PS,exp,35,↑,down,↓,0.08448060019873083,False,33,-1,0,2
Y2-S2-006K27,2,253,PS,exp,28,↓,down,↓,1.6022366001270711,True,34,-1,0,2
Y2-S2-006K27,2,254,PS,exp,47,←,left,←,0.9212394000496715,True,34,-1,0,2
Y2-S2-006K27,2,255,PS,exp,25,↓,down,↓,0.7005558998789638,True,34,1,1,3
Y2-S2-006K27,2,256,PS,exp,41,→,right,→,1.0127594000659883,True,33,1,0,3
Y2-S2-006K27,2,257,PS,exp,47,↓,right,→,0.4008572001475841,False,33,-1,1,4
Y2-S2-006K27,2,258,PS,exp,50,→,right,→,0.5178625001572073,True,34,-1,0,4
Y2-S2-006K27,2,259,PS,exp,28,↑,right,→,0.2510649000760168,False,34,-1,0,4
Y2-S2-006K27,2,260,PS,exp,32,←,right,→,2.1876253001391888,False,35,-1,0,4
Y2-S2-006K27,2,261,PS,exp,27,→,right,→,0.7336818999610841,True,36,-1,0,4
Y2-S2-006K27,2,262,PS,exp,42,↓,right,→,0.0011221000459045172,False,36,-1,0,4
Y2-S2-006K27,2,263,PS,exp,49,←,right,→,-0.015028900001198053,False,37,-1,0,4
Y2-S2-006K27,2,264,PS,exp,25,↓,right,→,0.1342805998865515,False,38,-1,0,4
Y2-S2-006K27,2,265,PS,exp,46,↑,right,→,0.034232799895107746,False,39,-1,0,4
Y2-S2-006K27,2,266,PS,exp,27,←,right,→,0.08422780013643205,False,40,-1,0,4
Y2-S2-006K27,2,267,PS,exp,27,→,right,→,0.1845189998857677,True,41,-1,0,4
Y2-S2-006K27,2,268,PS,exp,45,←,right,→,0.5507944000419229,False,41,-1,0,4
Y2-S2-006K27,2,269,PS,exp,44,→,right,→,0.9702600000891834,True,42,-1,0,4
Y2-S2-006K27,2,270,PS,exp,25,←,right,→,0.13458940014243126,False,42,-1,0,4
Y2-S2-006K27,2,271,PS,exp,28,↓,right,→,0.9598574999254197,False,43,-1,0,4
Y2-S2-006K27,2,272,PS,exp,48,→,right,→,0.18462259997613728,True,44,-1,0,4
Y2-S2-006K27,2,273,PS,exp,37,↓,right,→,0.35098919994197786,False,44,-1,0,4
Y2-S2-006K27,2,274,PS,exp,36,↑,right,→,0.3179132000077516,False,45,-1,0,4
Y2-S2-006K27,2,275,PS,exp,30,→,right,→,0.3177402999717742,True,46,-1,0,4
Y2-S2-006K27,2,276,PS,exp,34,↑,right,→,0.03438530000858009,False,46,-1,0,4
Y2-S2-006K27,2,277,PS,exp,33,→,right,→,0.2678449999075383,True,47,-1,0,4
Y2-S2-006K27,2,278,PS,exp,38,←,right,→,0.38430010015144944,False,47,-1,0,4
Y2-S2-006K27,2,279,PS,exp,44,↓,right,→,0.7179340000730008,False,48,-1,0,4
Y2-S2-006K27,2,280,PS,exp,33,←,right,→,0.03445299994200468,False,49,-1,0,4
Y2-S2-006K27,2,281,PS,exp,29,↑,right,→,0.38457500003278255,False,50,-1,0,4
Y2-S2-006K27,2,282,PS,exp,50,↓,right,→,0.38415789999999106,False,51,-1,0,4
Y2-S2-006K27,2,283,PS,exp,34,↑,right,→,0.08417310006916523,False,52,-1,0,4
Y2-S2-006K27,2,284,PS,exp,41,←,right,→,0.034699900075793266,False,53,-1,0,4
Y2-S2-006K27,2,285,PS,exp,36,↓,down,↓,0.6511321999132633,True,54,-1,0,4
Y2-S2-006K27,2,286,PS,exp,31,←,left,←,1.1552464000415057,True,54,-1,0,4
Y2-S2-006K27,2,287,PS,exp,30,↓,left,←,0.284821700071916,False,54,-1,0,4
Y2-S2-006K27,2,288,PS,exp,33,→,left,←,0.06751949992030859,False,55,-1,0,4
Y2-S2-006K27,2,289,PS,exp,47,↓,left,←,0.06741859996691346,False,56,-1,0,4
Y2-S2-006K27,2,290,PS,exp,34,↑,left,←,0.05149660003371537,False,57,-1,0,4
Y2-S2-006K27,2,291,PS,exp,35,↓,left,←,0.33442400000058115,False,58,-1,0,4
Y2-S2-006K27,2,292,PS,exp,30,↑,left,←,0.267938100034371,False,59,-1,0,4
Y2-S2-006K27,2,293,PS,exp,47,→,left,←,0.3345739000942558,False,60,-1,0,4
Y2-S2-006K27,2,294,PS,exp,39,←,left,←,0.28479119995608926,True,61,-1,0,4
Y2-S2-006K27,2,295,PS,exp,38,→,left,←,0.4175299999769777,False,61,-1,0,4
Y2-S2-006K27,2,296,PS,exp,43,←,left,←,0.1513028999324888,True,62,-1,0,4
Y2-S2-006K27,2,297,PS,exp,47,↑,left,←,0.16778480005450547,False,62,-1,0,4
Y2-S2-006K27,2,298,PS,exp,27,→,left,←,0.21756949997507036,False,63,-1,0,4
Y2-S2-006K27,2,299,PS,exp,30,↓,down,↓,0.6343910000286996,True,64,-1,0,4
Y2-S2-006K27,2,300,PS,exp,31,→,down,↓,0.18492279993370175,False,64,-1,0,4
Y2-S2-006K27,2,301,PS,exp,44,←,down,↓,0.801410699961707,False,65,-1,0,4
Y2-S2-006K27,2,302,PS,exp,36,↓,down,↓,0.5846341999713331,True,66,-1,0,4
Y2-S2-006K27,2,303,PS,exp,43,←,down,↓,0.28495800006203353,False,66,-1,0,4
Y2-S2-006K27,2,304,PS,exp,27,↑,left,←,0.41754429996944964,False,67,-1,0,4
Y2-S2-006K27,2,305,PS,exp,49,←,left,←,0.0012456001713871956,True,68,-1,0,4
Y2-S2-006K27,2,306,PS,exp,48,↓,left,←,0.5009383000433445,False,68,-1,0,4
Y2-S2-006K27,2,307,PS,exp,33,→,left,←,0.3011489000637084,False,69,-1,0,4
Y2-S2-006K27,2,308,PS,exp,40,↑,left,←,0.2675787000916898,False,70,-1,0,4
Y2-S2-006K27,2,309,PS,exp,40,←,left,←,0.26795509993098676,True,71,-1,0,4
Y2-S2-006K27,2,310,PS,exp,29,→,left,←,0.2842363999225199,False,71,-1,0,4
Y2-S2-006K27,2,311,PS,exp,45,↑,left,←,0.3341637998819351,False,72,-1,0,4
Y2-S2-006K27,2,312,PS,exp,45,→,right,→,0.33449169993400574,True,73,-1,0,4
Y2-S2-006K27,2,313,PS,exp,26,↑,right,→,0.017640999983996153,False,73,-1,0,4
Y2-S2-006K27,2,314,PS,exp,39,←,right,→,0.3680662999395281,False,74,-1,0,4
Y2-S2-006K27,2,315,PS,exp,47,↓,right,→,0.5844030999578536,False,75,-1,0,4
Y2-S2-006K27,2,316,PS,exp,38,←,right,→,0.35132290003821254,False,76,-1,0,4
Y2-S2-006K27,2,317,PS,exp,29,↑,down,↓,1.1678114999085665,False,77,-1,0,4
Y2-S2-006K27,2,318,PS,exp,48,↓,down,↓,0.9514750000089407,True,78,-1,0,4
Y2-S2-006K27,2,319,PS,exp,27,→,down,↓,0.31812780001200736,False,78,-1,0,4
Y2-S2-006K27,2,320,PS,exp,31,↓,down,↓,0.6508201002143323,True,79,-1,0,4
Y2-S2-006K27,2,321,PS,exp,28,→,down,↓,0.3177711998578161,False,79,-1,0,4
Y2-S2-006K27,2,322,PS,exp,41,↑,right,→,0.18459890014491975,False,80,-1,0,4
Y2-S2-006K27,2,323,PS,exp,48,→,up,↑,0.35118940006941557,False,81,-1,0,4
Y2-S2-006K27,2,324,PS,exp,46,←,right,→,0.11851639999076724,False,82,-1,0,4
Y2-S2-006K27,2,325,PS,exp,46,↓,right,→,0.3007173000369221,False,83,-1,0,4
Y2-S2-006K27,2,326,PS,exp,32,↑,right,→,0.20123410015366971,False,84,-1,0,4
Y2-S2-006K27,2,327,PS,exp,32,→,right,→,0.050806399900466204,True,85,-1,0,4
Y2-S2-006K27,2,328,PS,exp,35,↓,right,→,0.20142910000868142,False,85,-1,0,4
Y2-S2-006K27,2,329,PS,exp,28,↑,right,→,0.11780589981935918,False,86,-1,0,4
Y2-S2-006K27,2,330,PS,exp,28,←,right,→,0.051019099773839116,False,87,-1,0,4
Y2-S2-006K27,2,331,PS,exp,28,↓,right,→,0.2673450999427587,False,88,-1,0,4
Y2-S2-006K27,2,332,PS,exp,25,→,right,→,0.15126670012250543,True,89,-1,0,4
Y2-S2-006K27,2,333,PS,exp,38,↓,right,→,0.48478549998253584,False,89,-1,0,4
Y2-S2-006K27,2,334,PS,exp,35,↑,right,→,0.15126339998096228,False,90,-1,0,4
Y2-S2-006K27,2,335,PS,exp,32,→,right,→,0.5843279999680817,True,91,-1,0,4
Y2-S2-006K27,2,336,PS,exp,37,↓,right,→,0.11776890000328422,False,91,-1,0,4
Y2-S2-006K27,2,337,PS,exp,34,↑,right,→,0.0010803998447954655,False,92,-1,0,4
Y2-S2-006K27,2,338,PS,exp,49,←,left,←,0.8343320998828858,True,93,-1,0,4
Y2-S2-006K27,2,339,PS,exp,48,↓,right,→,0.5675536999478936,False,93,-1,0,4
Y2-S2-006K27,2,340,PS,exp,44,↑,left,←,0.0011768999975174665,False,94,-1,0,4
Y2-S2-006K27,2,341,PS,exp,43,↓,left,←,0.250872400123626,False,95,-1,0,4
Y2-S2-006K27,2,342,PS,exp,26,↑,left,←,0.08506780001334846,False,96,-1,0,4
Y2-S2-006K27,2,343,PS,exp,39,→,left,←,0.01784989982843399,False,97,-1,0,4
Y2-S2-006K27,2,344,PS,exp,31,←,right,→,0.2848870998714119,False,98,-1,0,4
Y2-S2-006K27,2,345,PS,exp,25,↓,left,←,0.051070400048047304,False,99,-1,0,4
Y2-S2-006K27,2,346,PS,exp,27,←,left,←,0.5845588999800384,True,100,-1,0,4
Y2-S2-006K27,2,347,PS,exp,27,↓,left,←,0.7676777997985482,False,100,-1,0,4
Y2-S2-006K27,2,348,PS,exp,29,←,left,←,0.6680252999067307,True,101,-1,0,4
Y2-S2-006K27,2,349,PS,exp,43,→,left,←,0.8179784999229014,False,101,-1,0,4
Y2-S2-006K27,2,350,PS,exp,48,←,right,→,0.18424880015663803,False,102,-1,0,4
Y2-S2-006K27,2,351,PS,exp,26,↓,right,→,0.1181256000418216,False,103,-1,0,4
Y2-S2-006K27,2,352,PS,exp,35,↑,up,↑,1.1173859001137316,True,104,-1,0,4
Y2-S2-006K27,2,353,PS,exp,35,→,up,↑,0.0011787000112235546,False,104,-1,0,4
Y2-S2-006K27,2,354,PS,exp,50,←,up,↑,0.16760469996370375,False,105,-1,0,4
Y2-S2-006K27,2,355,PS,exp,49,↓,up,↑,0.367751199984923,False,106,-1,0,4
Y2-S2-006K27,2,356,PS,exp,31,←,down,↓,0.0011515999212861061,False,107,-1,0,4
Y2-S2-006K27,2,357,PS,exp,49,→,down,↓,0.21766260010190308,False,108,-1,0,4
Y2-S2-006K27,2,358,PS,exp,29,↓,down,↓,0.20121040008962154,True,109,-1,0,4
Y2-S2-006K27,2,359,PS,exp,49,←,down,↓,0.08459310000762343,False,109,-1,0,4
Y2-S2-006K27,2,360,PS,exp,42,→,down,↓,0.05056580016389489,False,110,-1,0,4
Y2-S2-006K27,2,361,PS,exp,32,↑,down,↓,0.567653700010851,False,111,-1,0,4
Y2-S2-006K27,2,362,PS,exp,39,↓,down,↓,0.06804640009067953,True,112,-1,0,4
Y2-S2-006K27,2,363,PS,exp,48,↑,down,↓,0.06784199993126094,False,112,-1,0,4
Y2-S2-006K27,2,364,PS,exp,28,↓,down,↓,0.718103599967435,True,113,-1,0,4
Y2-S2-006K27,2,365,PS,exp,44,↑,up,↑,0.6844820000696927,True,113,-1,0,4
Y2-S2-006K27,2,366,PS,exp,45,↓,up,↑,0.05150299984961748,False,113,-1,0,4
Y2-S2-006K27,2,367,PS,exp,37,←,down,↓,0.06783619988709688,False,114,-1,0,4
Y2-S2-006K27,2,368,PS,exp,50,↑,left,←,0.5680525999050587,False,115,-1,0,4
Y2-S2-006K27,2,369,PS,exp,25,←,left,←,1.2840980000328273,True,116,-1,0,4
Y2-S2-006K27,2,370,PS,exp,50,→,left,←,0.6008937999140471,False,116,-1,0,4
Y2-S2-006K27,2,371,PS,exp,30,←,right,→,0.15126850013621151,False,117,-1,0,4
Y2-S2-006K27,2,372,PS,exp,28,→,left,←,0.33434549998492,False,118,-1,0,4
Y2-S2-006K27,2,373,PS,exp,28,↓,right,→,0.23443119996227324,False,119,-1,0,4
Y2-S2-006K27,2,374,PS,exp,39,↑,right,→,0.15109870000742376,False,120,-1,0,4
Y2-S2-006K27,2,375,PS,exp,28,↓,right,→,0.3012090001720935,False,121,-1,0,4
Y2-S2-006K27,2,376,PS,exp,38,←,right,→,0.1679141998756677,False,122,-1,0,4
Y2-S2-006K27,2,377,PS,exp,41,↓,right,→,0.21758759999647737,False,123,-1,0,4
Y2-S2-006K27,2,378,PS,exp,41,←,right,→,0.4679352000821382,False,124,-1,0,4
Y2-S2-006K27,2,379,PS,exp,40,↓,right,→,0.2846133999992162,False,125,-1,0,4
Y2-S2-006K27,2,380,PS,exp,32,←,no_key,no_letter,-1.0,False,126,-1,0,4
Y2-S2-006K27,2,381,PS,exp,39,↑,right,→,0.41765690012834966,False,127,-1,0,4
Y2-S2-006K27,2,382,PS,exp,37,↓,no_key,no_letter,-1.0,False,128,-1,0,4
Y2-S2-006K27,2,383,PS,exp,29,→,no_key,no_letter,-1.0,False,129,-1,0,4
Y2-S2-006K27,2,384,PS,exp,39,↓,no_key,no_letter,-1.0,False,130,-1,0,4
Y2-S2-006K27,2,385,PS,exp,33,→,right,→,2.767584200017154,True,131,-1,0,4
Y2-S2-006K27,2,386,PS,exp,31,←,left,←,0.8348254000302404,True,131,-1,0,4
Y2-S2-006K27,2,387,PS,exp,48,→,right,→,0.6180372999515384,True,131,1,1,5
Y2-S2-006K27,2,388,PS,exp,27,←,right,→,0.4011280999984592,False,130,-1,1,6
Y2-S2-006K27,2,389,PS,exp,50,→,right,→,0.6680740001611412,True,131,-1,0,6
Y2-S2-006K27,2,390,PS,exp,44,↓,right,→,0.3341781001072377,False,131,-1,0,6
Y2-S2-006K27,2,391,PS,exp,49,↑,up,↑,3.2686763000674546,True,132,-1,0,6
Y2-S2-006K27,2,392,PS,exp,40,→,right,→,0.5679583000019193,True,132,-1,0,6
Y2-S2-006K27,2,393,PS,exp,34,↑,up,↑,1.4512376000639051,True,132,1,1,7
Y2-S2-006K27,2,394,PS,exp,43,↓,up,↑,0.3179067999590188,False,131,-1,1,8
Y2-S2-006K27,2,395,PS,exp,29,↑,down,↓,0.31762220012024045,False,132,-1,0,8
Y2-S2-006K27,2,396,PS,exp,31,←,down,↓,0.001267199870198965,False,133,-1,0,8
Y2-S2-006K27,2,397,PS,exp,32,→,down,↓,0.20090749999508262,False,134,-1,0,8
Y2-S2-006K27,2,398,PS,exp,29,↑,down,↓,0.2172294999472797,False,135,-1,0,8
Y2-S2-006K27,2,399,PS,exp,33,←,down,↓,0.0011030999012291431,False,136,-1,0,8
Y2-S2-006K27,2,400,PS,exp,33,→,down,↓,0.08440719987265766,False,137,-1,0,8
Y2-S2-006K27,2,401,PS,exp,37,←,down,↓,0.4344132000114769,False,138,-1,0,8
Y2-S2-006K27,2,402,PS,exp,47,→,down,↓,0.0015124001074582338,False,139,-1,0,8
Y2-S2-006K27,2,403,PS,exp,49,↓,down,↓,0.001275799935683608,True,140,-1,0,8
Y2-S2-006K27,2,404,PS,exp,30,←,down,↓,0.18454839987680316,False,140,-1,0,8
Y2-S2-006K27,2,405,PS,exp,38,↓,down,↓,0.017621399834752083,True,141,-1,0,8
Y2-S2-006K27,2,406,PS,exp,31,←,down,↓,0.11772929993458092,False,141,-1,0,8
Y2-S2-006K27,2,407,PS,exp,46,→,right,→,0.9179863999597728,True,142,-1,0,8
Y2-S2-006K27,2,408,PS,exp,25,↑,right,→,0.3012511001434177,False,142,-1,0,8
Y2-S2-006K27,2,409,PS,exp,40,↓,up,↑,0.25097629986703396,False,143,-1,0,8
Y2-S2-006K27,2,410,PS,exp,45,←,up,↑,0.2676105999853462,False,144,-1,0,8
Y2-S2-006K27,2,411,PS,exp,40,↓,left,←,0.11653729993849993,False,145,-1,0,8
Y2-S2-006K27,2,412,PS,exp,26,↑,left,←,1.1343274000100791,False,146,-1,0,8
Y2-S2-006K27,2,413,PS,exp,36,→,right,→,0.951240099966526,True,147,-1,0,8
Y2-S2-006K27,2,414,PS,exp,41,↑,right,→,0.017631800146773458,False,147,-1,0,8
Y2-S2-006K27,2,415,PS,exp,37,→,up,↑,0.10113950003869832,False,148,-1,0,8
Y2-S2-006K27,2,416,PS,exp,35,↑,up,↑,0.1012711999937892,True,149,-1,0,8
Y2-S2-006K27,2,417,PS,exp,34,←,up,↑,0.8009336001705378,False,149,-1,0,8
Y2-S2-006K27,2,418,PS,exp,38,↓,up,↑,1.5509734998922795,False,150,-1,0,8
Y2-S2-006K27,2,419,PS,exp,46,→,up,↑,0.017926099942997098,False,151,-1,0,8
Y2-S2-006K27,2,420,PS,exp,44,↓,up,↑,0.3345038997940719,False,152,-1,0,8
Y2-S2-006K27,2,421,PS,exp,43,→,up,↑,0.0011754001025110483,False,153,-1,0,8
Y2-S2-006K27,2,422,PS,exp,46,↓,up,↑,0.1675485000014305,False,154,-1,0,8
Y2-S2-006K27,2,423,PS,exp,43,↑,up,↑,0.06789349997416139,True,155,-1,0,8
Y2-S2-006K27,2,424,PS,exp,41,←,up,↑,0.0673076999373734,False,155,-1,0,8
Y2-S2-006K27,2,425,PS,exp,25,↓,left,←,0.11772669991478324,False,156,-1,0,8
Y2-S2-006K27,2,426,PS,exp,44,←,left,←,0.3841307999100536,True,157,-1,0,8
Y2-S2-006K27,2,427,PS,exp,36,→,left,←,0.2172109999228269,False,157,-1,0,8
Y2-S2-006K27,2,428,PS,exp,27,↑,left,←,0.33426109980791807,False,158,-1,0,8
Y2-S2-006K27,2,429,PS,exp,25,↓,up,↑,0.23458369984291494,False,159,-1,0,8
Y2-S2-006K27,2,430,PS,exp,35,←,up,↑,0.21757530001923442,False,160,-1,0,8
Y2-S2-006K27,2,431,PS,exp,34,→,left,←,0.0011722000781446695,False,161,-1,0,8
Y2-S2-006K27,2,432,PS,exp,40,↓,right,→,0.017593099968507886,False,162,-1,0,8
Y2-S2-006K27,2,433,PS,exp,45,←,left,←,1.6176851999480277,True,163,-1,0,8
Y2-S2-006K27,2,434,PS,exp,40,→,right,→,0.6506434001494199,True,163,-1,0,8
Y2-S2-006K27,2,435,PS,exp,26,←,left,←,0.5842448000330478,True,163,1,1,9
Y2-S2-006K27,2,436,PS,exp,49,↑,up,↑,1.0679434998892248,True,162,1,0,9
Y2-S2-006K27,2,437,PS,exp,39,←,left,←,0.667683299863711,True,162,1,0,9
Y2-S2-006K27,2,438,PS,exp,40,→,left,←,0.2846766000147909,False,162,-1,1,10
Y2-S2-006K27,2,439,PS,exp,37,←,right,→,0.2676520000677556,False,163,-1,0,10
Y2-S2-006K27,2,440,PS,exp,35,↓,left,←,0.4176560000050813,False,164,-1,0,10
Y2-S2-006K27,2,441,PS,exp,27,↑,left,←,0.40092790010385215,False,165,-1,0,10
Y2-S2-006K27,2,442,PS,exp,29,←,left,←,0.20106910006143153,True,166,-1,0,10
Y2-S2-006K27,2,443,PS,exp,49,→,left,←,0.4511700998991728,False,166,-1,0,10
Y2-S2-006K27,2,444,PS,exp,29,↓,up,↑,0.9679171000607312,False,167,-1,0,10
Y2-S2-006K27,2,445,PS,exp,39,↑,right,→,3.33547109994106,False,168,-1,0,10
Y2-S2-006K27,2,446,PS,exp,28,→,right,→,0.43558990000747144,True,169,-1,0,10
Y2-S2-006K27,2,447,PS,exp,37,↓,right,→,0.584206199971959,False,169,-1,0,10
Y2-S2-006K27,2,448,PS,exp,31,→,right,→,0.3177743998821825,True,170,-1,0,10
Y2-S2-006K27,2,449,PS,exp,27,↓,right,→,0.4679147000424564,False,170,-1,0,10
Y2-S2-006K27,2,450,PS,exp,37,←,down,↓,0.7511001999955624,False,171,-1,0,10
Y2-S2-006K27,2,451,PS,exp,47,↓,down,↓,0.7343804999254644,True,172,-1,0,10
Y2-S2-006K27,2,452,PS,exp,39,↑,down,↓,0.06757059996016324,False,172,-1,0,10
Y2-S2-006K27,2,453,PS,exp,38,→,down,↓,0.2512145999353379,False,173,-1,0,10
Y2-S2-006K27,2,454,PS,exp,32,↑,no_key,no_letter,-1.0,False,174,-1,0,10
Y2-S2-006K27,2,455,PS,exp,50,←,down,↓,0.05097090010531247,False,175,-1,0,10
Y2-S2-006K27,2,456,PS,exp,49,→,right,→,0.6508754000533372,True,176,-1,0,10
Y2-S2-006K27,2,457,PS,exp,44,←,right,→,0.10117020015604794,False,176,-1,0,10
Y2-S2-006K27,2,458,PS,exp,44,→,right,→,0.7345322999171913,True,177,-1,0,10
Y2-S2-006K27,2,459,PS,exp,47,↑,right,→,0.30099390004761517,False,177,-1,0,10
Y2-S2-006K27,2,460,PS,exp,29,←,left,←,2.950636599911377,True,178,-1,0,10
Y2-S2-006K27,2,461,PS,exp,45,→,left,←,0.08434960013255477,False,178,-1,0,10
Y2-S2-006K27,2,462,PS,exp,30,↓,down,↓,0.651372899999842,True,179,-1,0,10
Y2-S2-006K27,2,463,PS,exp,34,←,left,←,0.6841313999611884,True,179,-1,0,10
Y2-S2-006K27,2,464,PS,exp,33,→,right,→,1.034533299971372,True,179,1,1,11
Y2-S2-006K27,2,465,PS,exp,36,↓,down,↓,0.684669200098142,True,178,1,0,11
Y2-S2-006K27,2,466,PS,exp,37,→,right,→,1.5846319999545813,True,178,1,0,11
Y2-S2-006K27,2,467,PS,exp,45,←,left,←,1.1341649999376386,True,178,1,0,11
Y2-S2-006K27,2,468,PS,exp,36,→,right,→,0.7346876999363303,True,177,1,0,11
Y2-S2-006K27,2,469,PS,exp,38,←,left,←,0.6014933998230845,True,177,1,0,11
Y2-S2-006K27,2,470,PS,exp,41,→,right,→,0.4009702999610454,True,177,1,0,11
Y2-S2-006K27,2,471,PS,exp,45,↑,up,↑,4.474837000016123,True,176,1,0,11
Y2-S2-006K27,2,472,PS,exp,33,←,left,←,1.6178214999381453,True,176,1,0,11
Y2-S2-006K27,2,473,PS,exp,48,↑,up,↑,0.6174232000485063,True,176,1,0,11
Y2-S2-006K27,2,474,PS,exp,35,←,up,↑,0.1008961999323219,False,175,-1,1,12
Y2-S2-006K27,2,475,PS,exp,25,↑,up,↑,0.06779740005731583,True,176,-1,0,12
Y2-S2-006K27,2,476,PS,exp,47,←,up,↑,0.017877599922940135,False,176,-1,0,12
Y2-S2-006K27,2,477,PS,exp,43,→,right,→,0.8844757000915706,True,177,-1,0,12
Y2-S2-006K27,2,478,PS,exp,25,←,left,←,1.0511686999816447,True,177,-1,0,12
Y2-S2-006K27,2,479,PS,exp,26,→,right,→,0.8346218999940902,True,177,1,1,13
Y2-S2-006K27,2,480,PS,exp,30,↑,up,↑,0.7345501999370754,True,176,1,0,13
Y2-S2-006K27,2,481,PS,exp,49,↓,up,↑,3.590143600013107,False,176,-1,1,14
Y2-S2-006K27,2,482,PS,exp,47,→,right,→,1.4344440000131726,True,177,-1,0,14
Y2-S2-006K27,2,483,PS,exp,40,↓,down,↓,1.467663299990818,True,177,-1,0,14
Y2-S2-006K27,2,484,PS,exp,37,←,left,←,0.6510637998580933,True,177,1,1,15
Y2-S2-006K27,2,485,PS,exp,32,→,right,→,0.7677894001826644,True,176,1,0,15
Y2-S2-006K27,2,486,PS,exp,43,↑,up,↑,0.7511521000415087,True,176,1,0,15
Y2-S2-006K27,2,487,PS,exp,38,↓,down,↓,1.3010243000462651,True,176,1,0,15
Y2-S2-006K27,2,488,PS,exp,28,↑,down,↓,2.800525699974969,False,175,-1,1,16
Y2-S2-006K27,3,489,PS,intra_train,31,→,up,↑,1.1082446998916566,False,34,-,-,-
Y2-S2-006K27,3,490,PS,intra_train,26,↑,up,↑,0.05024689994752407,True,34,-,-,-
Y2-S2-006K27,3,491,PS,intra_train,34,←,left,←,0.5838349999394268,True,34,-,-,-
Y2-S2-006K27,3,492,PS,intra_train,50,↓,down,↓,0.7345135000068694,True,34,-,-,-
Y2-S2-006K27,3,493,PS,intra_train,35,←,left,←,0.6340383999049664,True,34,-,-,-
Y2-S2-006K27,3,494,PS,exp,43,↑,up,↑,0.7989276999142021,True,23,0,0,0
Y2-S2-006K27,3,495,PS,exp,46,←,left,←,0.5876662998925894,True,23,0,0,0
Y2-S2-006K27,3,496,PS,exp,35,↑,up,↑,1.0616824999451637,True,23,1,0,0
Y2-S2-006K27,3,497,PS,exp,34,↓,down,↓,0.8636247999966145,True,22,1,0,0
Y2-S2-006K27,3,498,PS,exp,28,↑,up,↑,0.8198608001694083,True,22,1,0,0
Y2-S2-006K27,3,499,PS,exp,25,→,left,←,0.6227301999460906,False,22,-1,1,1
Y2-S2-006K27,3,500,PS,exp,45,←,right,→,0.6233817001339048,False,23,-1,0,1
Y2-S2-006K27,3,501,PS,exp,28,→,right,→,0.0846017999574542,True,24,-1,0,1
Y2-S2-006K27,3,502,PS,exp,46,←,right,→,0.03419990022666752,False,24,-1,0,1
Y2-S2-006K27,3,503,PS,exp,46,→,left,←,0.13435829989612103,False,25,-1,0,1
Y2-S2-006K27,3,504,PS,exp,47,↓,right,→,0.5171853001229465,False,26,-1,0,1
Y2-S2-006K27,3,505,PS,exp,33,↑,right,→,0.5673513999208808,False,27,-1,0,1
Y2-S2-006K27,3,506,PS,exp,26,←,right,→,0.4839158998802304,False,28,-1,0,1
Y2-S2-006K27,3,507,PS,exp,39,↓,no_key,no_letter,-1.0,False,29,-1,0,1
Y2-S2-006K27,3,508,PS,exp,35,↑,right,→,0.40135669987648726,False,30,-1,0,1
Y2-S2-006K27,3,509,PS,exp,26,←,up,↑,1.4160472999792546,False,31,-1,0,1
Y2-S2-006K27,3,510,PS,exp,37,↓,up,↑,0.251339599955827,False,32,-1,0,1
Y2-S2-006K27,3,511,PS,exp,31,→,up,↑,0.05093480017967522,False,33,-1,0,1
Y2-S2-006K27,3,512,PS,exp,45,←,right,→,0.0018496999982744455,False,34,-1,0,1
Y2-S2-006K27,3,513,PS,exp,39,→,right,→,0.9354996001347899,True,35,-1,0,1
Y2-S2-006K27,3,514,PS,exp,40,↓,no_key,no_letter,-1.0,False,35,-1,0,1
Y2-S2-006K27,3,515,PS,exp,26,↑,right,→,1.5767433000728488,False,36,-1,0,1
Y2-S2-006K27,3,516,PS,exp,43,↓,down,↓,0.6676421000156552,True,37,-1,0,1
Y2-S2-006K27,3,517,PS,exp,32,→,right,→,0.6672886998858303,True,37,-1,0,1
Y2-S2-006K27,3,518,PS,exp,38,↓,right,→,0.05105950008146465,False,37,-1,0,1
Y2-S2-006K27,3,519,PS,exp,33,←,right,→,0.4512178001459688,False,38,-1,0,1
Y2-S2-006K27,3,520,PS,exp,50,→,right,→,0.25100990012288094,True,39,-1,0,1
Y2-S2-006K27,3,521,PS,exp,30,←,right,→,0.18439690000377595,False,39,-1,0,1
Y2-S2-006K27,3,522,PS,exp,38,↑,left,←,0.6838416999671608,False,40,-1,0,1
Y2-S2-006K27,3,523,PS,exp,37,→,left,←,0.5011274002026767,False,41,-1,0,1
Y2-S2-006K27,3,524,PS,exp,45,↑,left,←,1.2338124001398683,False,42,-1,0,1
Y2-S2-006K27,3,525,PS,exp,28,→,no_key,no_letter,-1.0,False,43,-1,0,1
Y2-S2-006K27,3,526,PS,exp,43,↓,left,←,0.3669459999073297,False,44,-1,0,1
Y2-S2-006K27,3,527,PS,exp,33,↑,left,←,0.16781280003488064,False,45,-1,0,1
Y2-S2-006K27,3,528,PS,exp,27,↓,left,←,0.55102329980582,False,46,-1,0,1
Y2-S2-006K27,3,529,PS,exp,45,↑,left,←,1.4384928999934345,False,47,-1,0,1
Y2-S2-006K27,3,530,PS,exp,30,←,left,←,0.1175310998223722,True,48,-1,0,1
Y2-S2-006K27,3,531,PS,exp,32,→,left,←,0.01816709991544485,False,48,-1,0,1
Y2-S2-006K27,3,532,PS,exp,26,↓,left,←,0.3010840001516044,False,49,-1,0,1
Y2-S2-006K27,3,533,PS,exp,31,↑,left,←,0.634771800134331,False,50,-1,0,1
Y2-S2-006K27,3,534,PS,exp,37,←,left,←,1.3285866000223905,True,51,-1,0,1
Y2-S2-006K27,3,535,PS,exp,48,→,right,→,1.0417929999530315,True,51,-1,0,1
Y2-S2-006K27,3,536,PS,exp,39,↓,down,↓,0.9515617000870407,True,51,1,1,2
Y2-S2-006K27,3,537,PS,exp,38,→,right,→,2.071037999819964,True,50,1,0,2
Y2-S2-006K27,3,538,PS,exp,40,↑,right,→,1.5258367999922484,False,50,-1,1,3
Y2-S2-006K27,3,539,PS,exp,30,←,up,↑,0.5173953000921756,False,51,-1,0,3
Y2-S2-006K27,3,540,PS,exp,49,↑,up,↑,0.017855799989774823,True,52,-1,0,3
Y2-S2-006K27,3,541,PS,exp,42,↓,up,↑,0.1504509998485446,False,52,-1,0,3
Y2-S2-006K27,3,542,PS,exp,42,←,up,↑,0.05074390000663698,False,53,-1,0,3
Y2-S2-006K27,3,543,PS,exp,38,↓,up,↑,0.001142500201240182,False,54,-1,0,3
Y2-S2-006K27,3,544,PS,exp,35,←,up,↑,0.10130469989962876,False,55,-1,0,3
Y2-S2-006K27,3,545,PS,exp,29,↑,up,↑,0.11776400008238852,True,56,-1,0,3
Y2-S2-006K27,3,546,PS,exp,38,→,up,↑,0.05131919984705746,False,56,-1,0,3
Y2-S2-006K27,3,547,PS,exp,46,↑,up,↑,0.034884699853137136,True,57,-1,0,3
Y2-S2-006K27,3,548,PS,exp,48,↓,up,↑,0.01806679996661842,False,57,-1,0,3
Y2-S2-006K27,3,549,PS,exp,35,↑,up,↑,0.1343143000267446,True,58,-1,0,3
Y2-S2-006K27,3,550,PS,exp,50,→,up,↑,0.13483829982578754,False,58,-1,0,3
Y2-S2-006K27,3,551,PS,exp,39,↓,up,↑,0.20120910019613802,False,59,-1,0,3
Y2-S2-006K27,3,552,PS,exp,36,←,up,↑,0.05080579989589751,False,60,-1,0,3
Y2-S2-006K27,3,553,PS,exp,41,↑,up,↑,0.03451970010064542,True,61,-1,0,3
Y2-S2-006K27,3,554,PS,exp,45,→,up,↑,0.051240599947050214,False,61,-1,0,3
Y2-S2-006K27,3,555,PS,exp,41,↓,up,↑,0.40093260002322495,False,62,-1,0,3
Y2-S2-006K27,3,556,PS,exp,50,←,up,↑,1.4265143000520766,False,63,-1,0,3
Y2-S2-006K27,3,557,PS,exp,36,↑,up,↑,0.05104580009356141,True,64,-1,0,3
Y2-S2-006K27,3,558,PS,exp,36,→,up,↑,0.0676581000443548,False,64,-1,0,3
Y2-S2-006K27,3,559,PS,exp,31,↓,up,↑,0.18438679981045425,False,65,-1,0,3
Y2-S2-006K27,3,560,PS,exp,36,→,up,↑,1.3997957999818027,False,66,-1,0,3
Y2-S2-006K27,3,561,PS,exp,27,↓,up,↑,2.3464869000017643,False,67,-1,0,3
Y2-S2-006K27,3,562,PS,exp,41,→,up,↑,0.10116459988057613,False,68,-1,0,3
Y2-S2-006K27,3,563,PS,exp,47,←,up,↑,0.18439110019244254,False,69,-1,0,3
Y2-S2-006K27,3,564,PS,exp,42,↓,up,↑,0.5507919997908175,False,70,-1,0,3
Y2-S2-006K27,3,565,PS,exp,25,↑,up,↑,0.16758470004424453,True,71,-1,0,3
Y2-S2-006K27,3,566,PS,exp,45,←,no_key,no_letter,-1.0,False,71,-1,0,3
Y2-S2-006K27,3,567,PS,exp,37,↑,no_key,no_letter,-1.0,False,72,-1,0,3
Y2-S2-006K27,3,568,PS,exp,38,↓,up,↑,0.08426559995859861,False,73,-1,0,3
Y2-S2-006K27,3,569,PS,exp,38,→,up,↑,0.03439219994470477,False,74,-1,0,3
Y2-S2-006K27,3,570,PS,exp,43,↓,up,↑,2.523906599963084,False,75,-1,0,3
Y2-S2-006K27,3,571,PS,exp,29,→,up,↑,0.18454560008831322,False,76,-1,0,3
Y2-S2-006K27,3,572,PS,exp,34,↑,right,→,0.5511793999467045,False,77,-1,0,3
Y2-S2-006K27,3,573,PS,exp,31,→,right,→,0.4678332000039518,True,78,-1,0,3
Y2-S2-006K27,3,574,PS,exp,29,↓,up,↑,0.3841291998978704,False,78,-1,0,3
Y2-S2-006K27,3,575,PS,exp,32,←,up,↑,0.734360900009051,False,79,-1,0,3
Y2-S2-006K27,3,576,PS,exp,37,↓,left,←,0.13430080004036427,False,80,-1,0,3
Y2-S2-006K27,3,577,PS,exp,41,↑,up,↑,0.7678241000976413,True,81,-1,0,3
Y2-S2-006K27,3,578,PS,exp,31,↓,no_key,no_letter,-1.0,False,81,-1,0,3
Y2-S2-006K27,3,579,PS,exp,32,↑,no_key,no_letter,-1.0,False,82,-1,0,3
Y2-S2-006K27,3,580,PS,exp,27,↓,no_key,no_letter,-1.0,False,83,-1,0,3
Y2-S2-006K27,3,581,PS,exp,32,↑,no_key,no_letter,-1.0,False,84,-1,0,3
Y2-S2-006K27,3,582,PS,exp,42,↓,down,↓,0.6511682001873851,True,85,-1,0,3
Y2-S2-006K27,3,583,PS,exp,39,→,right,→,2.137041199952364,True,85,-1,0,3
Y2-S2-006K27,3,584,PS,exp,27,↓,down,↓,0.7177556999959052,True,85,1,1,4
Y2-S2-006K27,3,585,PS,exp,38,→,right,→,0.7009025998413563,True,84,1,0,4
Y2-S2-006K27,3,586,PS,exp,38,↓,down,↓,0.7843328001908958,True,84,1,0,4
Y2-S2-006K27,3,587,PS,exp,41,←,left,←,0.6011659000068903,True,84,1,0,4
Y2-S2-006K27,3,588,PS,exp,32,↑,up,↑,1.755226399982348,True,83,1,0,4
Y2-S2-006K27,3,589,PS,exp,35,→,right,→,0.9844870001543313,True,83,1,0,4
Y2-S2-006K27,3,590,PS,exp,35,↓,right,→,0.18424020009115338,False,83,-1,1,5
Y2-S2-006K27,3,591,PS,exp,31,→,down,↓,0.20119039993733168,False,84,-1,0,5
Y2-S2-006K27,3,592,PS,exp,43,↓,down,↓,0.184370799921453,True,85,-1,0,5
Y2-S2-006K27,3,593,PS,exp,30,←,down,↓,0.08467249991372228,False,85,-1,0,5
Y2-S2-006K27,3,594,PS,exp,48,↑,down,↓,0.15108440001495183,False,86,-1,0,5
Y2-S2-006K27,3,595,PS,exp,44,→,up,↑,0.16824179980903864,False,87,-1,0,5
Y2-S2-006K27,3,596,PS,exp,48,↓,up,↑,0.21813250007107854,False,88,-1,0,5
Y2-S2-006K27,3,597,PS,exp,32,←,up,↑,0.06784979999065399,False,89,-1,0,5
Y2-S2-006K27,3,598,PS,exp,35,↑,up,↑,0.18415819993242621,True,90,-1,0,5
Y2-S2-006K27,3,599,PS,exp,32,←,up,↑,0.3511876000557095,False,90,-1,0,5
Y2-S2-006K27,3,600,PS,exp,29,↓,up,↑,2.9199580000713468,False,91,-1,0,5
Y2-S2-006K27,3,601,PS,exp,41,↑,up,↑,0.11776029993779957,True,92,-1,0,5
Y2-S2-006K27,3,602,PS,exp,43,←,up,↑,1.6506782998330891,False,92,-1,0,5
Y2-S2-006K27,3,603,PS,exp,49,→,up,↑,0.01754059991799295,False,93,-1,0,5
Y2-S2-006K27,3,604,PS,exp,31,←,up,↑,0.15125230001285672,False,94,-1,0,5
Y2-S2-006K27,3,605,PS,exp,38,↑,up,↑,0.0011610998772084713,True,95,-1,0,5
Y2-S2-006K27,3,606,PS,exp,37,←,up,↑,0.21755459997802973,False,95,-1,0,5
Y2-S2-006K27,3,607,PS,exp,32,→,up,↑,1.3681508998852223,False,96,-1,0,5
Y2-S2-006K27,3,608,PS,exp,36,↓,up,↑,0.0512773001100868,False,97,-1,0,5
Y2-S2-006K27,3,609,PS,exp,35,↑,up,↑,1.8733967998996377,True,98,-1,0,5
Y2-S2-006K27,3,610,PS,exp,31,↓,down,↓,0.7346843001432717,True,98,-1,0,5
Y2-S2-006K27,3,611,PS,exp,43,→,right,→,0.9014642001129687,True,98,1,1,6
Y2-S2-006K27,3,612,PS,exp,30,↓,down,↓,0.8349484999198467,True,97,1,0,6
Y2-S2-006K27,3,613,PS,exp,50,↑,up,↑,0.9182194999884814,True,97,1,0,6
Y2-S2-006K27,3,614,PS,exp,44,↓,down,↓,0.8176904001738876,True,97,1,0,6
Y2-S2-006K27,3,615,PS,exp,37,→,right,→,0.8678051999304444,True,96,1,0,6
Y2-S2-006K27,3,616,PS,exp,41,←,left,←,0.9844386000186205,True,96,1,0,6
Y2-S2-006K27,3,617,PS,exp,27,→,right,→,1.48456919984892,True,96,1,0,6
Y2-S2-006K27,3,618,PS,exp,40,↓,down,↓,0.6342697001527995,True,95,1,0,6
Y2-S2-006K27,3,619,PS,exp,33,←,left,←,0.6680644999723881,True,95,1,0,6
Y2-S2-006K27,3,620,PS,exp,30,→,right,→,0.5846091001294553,True,95,1,0,6
Y2-S2-006K27,3,621,PS,exp,32,↓,right,→,0.2011448999401182,False,94,-1,1,7
Y2-S2-006K27,3,622,PS,exp,35,←,left,←,0.6000339000020176,True,95,-1,0,7
Y2-S2-006K27,3,623,PS,exp,37,↓,left,←,0.2678313001524657,False,95,-1,0,7
Y2-S2-006K27,3,624,PS,exp,26,→,no_key,no_letter,-1.0,False,96,-1,0,7
Y2-S2-006K27,3,625,PS,exp,46,←,left,←,0.7674563000909984,True,97,-1,0,7
Y2-S2-006K27,3,626,PS,exp,50,↓,down,↓,0.8343757998663932,True,97,-1,0,7
Y2-S2-006K27,3,627,PS,exp,42,→,right,→,0.86754129990004,True,97,1,1,8
Y2-S2-006K27,3,628,PS,exp,48,↑,right,→,0.28454159991815686,False,96,-1,1,9
Y2-S2-006K27,3,629,PS,exp,33,↓,right,→,0.31755359983071685,False,97,-1,0,9
Y2-S2-006K27,3,630,PS,exp,42,→,right,→,0.31762100011110306,True,98,-1,0,9
Y2-S2-006K27,3,631,PS,exp,26,↑,right,→,0.3347810998093337,False,98,-1,0,9
Y2-S2-006K27,3,632,PS,exp,35,←,right,→,0.5510199998971075,False,99,-1,0,9
Y2-S2-006K27,3,633,PS,exp,43,↑,right,→,0.11676450003869832,False,100,-1,0,9
Y2-S2-006K27,3,634,PS,exp,45,↓,right,→,0.7510389999952167,False,101,-1,0,9
Y2-S2-006K27,3,635,PS,exp,47,→,right,→,0.25107729993760586,True,102,-1,0,9
Y2-S2-006K27,3,636,PS,exp,43,↓,right,→,0.2344965001102537,False,102,-1,0,9
Y2-S2-006K27,3,637,PS,exp,41,←,right,→,0.08426279993727803,False,103,-1,0,9
Y2-S2-006K27,3,638,PS,exp,32,→,right,→,0.06757310009561479,True,104,-1,0,9
Y2-S2-006K27,3,639,PS,exp,43,↓,right,→,1.2013071000110358,False,104,-1,0,9
Y2-S2-006K27,3,640,PS,exp,26,→,right,→,0.21774979983456433,True,105,-1,0,9
Y2-S2-006K27,3,641,PS,exp,27,↑,right,→,0.06760279997251928,False,105,-1,0,9
Y2-S2-006K27,3,642,PS,exp,31,↓,right,→,0.08460499998182058,False,106,-1,0,9
Y2-S2-006K27,3,643,PS,exp,44,←,down,↓,0.8510829000733793,False,107,-1,0,9
Y2-S2-006K27,3,644,PS,exp,36,↑,down,↓,0.13431840017437935,False,108,-1,0,9
Y2-S2-006K27,3,645,PS,exp,44,←,down,↓,0.08438679995015264,False,109,-1,0,9
Y2-S2-006K27,3,646,PS,exp,50,↓,down,↓,0.3343997001647949,True,110,-1,0,9
Y2-S2-006K27,3,647,PS,exp,44,↑,down,↓,0.2014363999478519,False,110,-1,0,9
Y2-S2-006K27,3,648,PS,exp,49,→,right,→,1.4677895000204444,True,111,-1,0,9
Y2-S2-006K27,3,649,PS,exp,30,↑,up,↑,1.4849173000548035,True,111,-1,0,9
Y2-S2-006K27,3,650,PS,exp,42,←,left,←,1.0176236999686807,True,111,1,1,10
Y2-S2-006K27,3,651,PS,exp,33,↓,down,↓,1.0345332000870258,True,110,1,0,10
Y2-S2-006K27,3,652,PS,exp,47,→,right,→,0.7012153000105172,True,110,1,0,10
Y2-S2-006K27,3,653,PS,exp,33,←,left,←,0.5509111999999732,True,110,1,0,10
Y2-S2-006K27,3,654,PS,exp,36,↓,down,↓,0.8177402000874281,True,109,1,0,10
Y2-S2-006K27,3,655,PS,exp,43,←,left,←,0.7176147000864148,True,109,1,0,10
Y2-S2-006K27,3,656,PS,exp,38,↑,up,↑,0.8346863999031484,True,109,1,0,10
Y2-S2-006K27,3,657,PS,exp,49,←,left,←,0.5177571000531316,True,108,1,0,10
Y2-S2-006K27,3,658,PS,exp,37,→,right,→,0.9675656000617892,True,108,1,0,10
Y2-S2-006K27,3,659,PS,exp,33,←,left,←,0.5342368001583964,True,108,1,0,10
Y2-S2-006K27,3,660,PS,exp,49,→,right,→,0.4844635999761522,True,107,1,0,10
Y2-S2-006K27,3,661,PS,exp,35,←,left,←,0.5008020999375731,True,107,1,0,10
Y2-S2-006K27,3,662,PS,exp,32,↑,right,→,0.7172357998788357,False,107,-1,1,11
Y2-S2-006K27,3,663,PS,exp,42,→,right,→,0.11759079992771149,True,108,-1,0,11
Y2-S2-006K27,3,664,PS,exp,33,↑,right,→,0.4011240000836551,False,108,-1,0,11
Y2-S2-006K27,3,665,PS,exp,45,←,right,→,0.30117439990863204,False,109,-1,0,11
Y2-S2-006K27,3,666,PS,exp,27,↑,right,→,0.7509586999658495,False,110,-1,0,11
Y2-S2-006K27,3,667,PS,exp,29,→,right,→,0.5176947999279946,True,111,-1,0,11
Y2-S2-006K27,3,668,PS,exp,47,↑,up,↑,1.0510462000966072,True,111,-1,0,11
Y2-S2-006K27,3,669,PS,exp,30,↓,down,↓,0.8503588000312448,True,111,1,1,12
Y2-S2-006K27,3,670,PS,exp,50,↑,up,↑,0.7012169000227004,True,110,1,0,12
Y2-S2-006K27,3,671,PS,exp,41,→,right,→,0.7178315001074225,True,110,1,0,12
Y2-S2-006K27,3,672,PS,exp,43,←,left,←,1.2183024000842124,True,110,1,0,12
Y2-S2-006K27,3,673,PS,exp,27,↑,up,↑,0.9011361999437213,True,109,1,0,12
Y2-S2-006K27,3,674,PS,exp,47,↓,down,↓,1.4344262999948114,True,109,1,0,12
Y2-S2-006K27,3,675,PS,exp,29,↑,up,↑,0.9841416999697685,True,109,1,0,12
Y2-S2-006K27,3,676,PS,exp,27,→,right,→,1.05101010017097,True,108,1,0,12
Y2-S2-006K27,3,677,PS,exp,38,←,left,←,0.6511784000322223,True,108,1,0,12
Y2-S2-006K27,3,678,PS,exp,44,↑,up,↑,0.6857741998974234,True,108,1,0,12
Y2-S2-006K27,3,679,PS,exp,28,←,left,←,0.7676337999291718,True,107,1,0,12
Y2-S2-006K27,3,680,PS,exp,32,↓,down,↓,1.1676429999060929,True,107,1,0,12
Y2-S2-006K27,3,681,PS,exp,33,↑,up,↑,0.6011504998896271,True,107,1,0,12
Y2-S2-006K27,3,682,PS,exp,47,→,right,→,0.9678134999703616,True,106,1,0,12
Y2-S2-006K27,3,683,PS,exp,28,↑,right,→,0.8345933998934925,False,106,-1,1,13
Y2-S2-006K27,3,684,PS,exp,39,↓,right,→,0.7675401999149472,False,107,-1,0,13
Y2-S2-006K27,3,685,PS,exp,46,↑,up,↑,1.23485799995251,True,108,-1,0,13
Y2-S2-006K27,3,686,PS,exp,25,↓,down,↓,1.1673121999483556,True,108,-1,0,13
Y2-S2-006K27,3,687,PS,exp,35,←,left,←,0.5178664000704885,True,108,1,1,14
Y2-S2-006K27,3,688,PS,exp,28,↑,up,↑,0.8010901000816375,True,107,1,0,14
Y2-S2-006K27,3,689,PS,exp,33,→,right,→,0.7512872000224888,True,107,1,0,14
Y2-S2-006K27,3,690,PS,exp,39,↓,down,↓,0.9177445999812335,True,107,1,0,14
Y2-S2-006K27,3,691,PS,exp,47,←,left,←,0.6847731999587268,True,106,1,0,14
Y2-S2-006K27,3,692,PS,exp,39,↓,down,↓,0.6679567000828683,True,106,1,0,14
Y2-S2-006K27,3,693,PS,exp,33,→,right,→,0.6847050001379102,True,106,1,0,14
Y2-S2-006K27,3,694,PS,exp,28,↑,up,↑,0.9342994000762701,True,105,1,0,14
Y2-S2-006K27,3,695,PS,exp,35,↓,down,↓,0.8181183999404311,True,105,1,0,14
Y2-S2-006K27,3,696,PS,exp,33,←,left,←,0.7341320000123233,True,105,1,0,14
Y2-S2-006K27,3,697,PS,exp,39,→,right,→,0.7175564998760819,True,104,1,0,14
Y2-S2-006K27,3,698,PS,exp,38,↓,down,↓,1.1345184999518096,True,104,1,0,14
Y2-S2-006K27,3,699,PS,exp,45,←,left,←,1.16771740000695,True,104,1,0,14
Y2-S2-006K27,3,700,PS,exp,29,↑,up,↑,1.0342754002194852,True,103,1,0,14
Y2-S2-006K27,3,701,PS,exp,26,→,right,→,0.6012860999908298,True,103,1,0,14
Y2-S2-006K27,3,702,PS,exp,26,↑,up,↑,1.0509815998375416,True,103,1,0,14
Y2-S2-006K27,3,703,PS,exp,39,→,right,→,0.7175409998744726,True,102,1,0,14
Y2-S2-006K27,3,704,PS,exp,48,←,left,←,0.6674383000936359,True,102,1,0,14
Y2-S2-006K27,3,705,PS,exp,25,→,right,→,0.9005373001564294,True,102,1,0,14
Y2-S2-006K27,3,706,PS,exp,29,←,left,←,0.8345375000499189,True,101,1,0,14
Y2-S2-006K27,3,707,PS,exp,38,↑,up,↑,0.7343634001445025,True,101,1,0,14
Y2-S2-006K27,3,708,PS,exp,42,←,left,←,0.767431000014767,True,101,1,0,14
Y2-S2-006K27,3,709,PS,exp,50,→,right,→,0.6845717998221517,True,100,1,0,14
Y2-S2-006K27,3,710,PS,exp,25,←,left,←,0.5344565999694169,True,100,1,0,14
Y2-S2-006K27,3,711,PS,exp,45,↑,up,↑,0.5842846999876201,True,100,1,0,14
Y2-S2-006K27,3,712,PS,exp,43,←,left,←,0.5509481998160481,True,99,1,0,14
Y2-S2-006K27,3,713,PS,exp,25,↑,up,↑,1.001364499796182,True,99,1,0,14
Y2-S2-006K27,3,714,PS,exp,41,←,left,←,0.5505132998805493,True,99,1,0,14
Y2-S2-006K27,3,715,PS,exp,41,→,right,→,0.7675610999576747,True,98,1,0,14
Y2-S2-006K27,3,716,PS,exp,50,←,left,←,0.7345646000467241,True,98,1,0,14
Y2-S2-006K27,3,717,PS,exp,37,→,right,→,0.834491599816829,True,98,1,0,14
Y2-S2-006K27,3,718,PS,exp,31,↓,down,↓,1.1345163001678884,True,97,1,0,14
Y2-S2-006K27,3,719,PS,exp,49,←,left,←,0.5179187001194805,True,97,1,0,14
Y2-S2-006K27,3,720,PS,exp,47,↓,down,↓,0.6510859001427889,True,97,1,0,14
Y2-S2-006K27,3,721,PS,exp,34,↑,up,↑,0.8510320999193937,True,96,1,0,14
Y2-S2-006K27,3,722,PS,exp,41,←,left,←,0.7175817000679672,True,96,1,0,14
Y2-S2-006K27,3,723,PS,exp,36,↓,down,↓,0.8680128999985754,True,96,1,0,14
Y2-S2-006K27,3,724,PS,exp,42,→,right,→,0.7847327999770641,True,95,1,0,14
Y2-S2-006K27,3,725,PS,exp,36,↓,down,↓,0.7007397999987006,True,95,1,0,14
Y2-S2-006K27,3,726,PS,exp,44,→,right,→,0.4841745998710394,True,95,1,0,14
Y2-S2-006K27,3,727,PS,exp,37,↑,right,→,0.7510474999435246,False,94,-1,1,15
Y2-S2-006K27,3,728,PS,exp,43,↓,right,→,0.16755839996039867,False,95,-1,0,15
Y2-S2-006K27,3,729,PS,exp,44,↑,right,→,0.15130150015465915,False,96,-1,0,15
Y2-S2-006K27,3,730,PS,exp,29,↓,right,→,0.41787080001085997,False,97,-1,0,15
Y2-S2-006K27,3,731,PS,exp,30,↑,right,→,0.48425150010734797,False,98,-1,0,15
Y2-S2-006K27,3,732,PS,exp,37,←,right,→,0.1342929000966251,False,99,-1,0,15
Y2-S2-006K27,3,733,PS,exp,41,→,right,→,0.017458199989050627,True,100,-1,0,15
Y2-S2-006K27,3,734,PS,exp,35,↑,right,→,0.43434159993194044,False,100,-1,0,15
Y2-S2-006K27,3,735,PS,exp,26,→,right,→,0.43427289999090135,True,101,-1,0,15
Y2-S2-006K27,3,736,PS,exp,32,↓,right,→,0.1844039000570774,False,101,-1,0,15
Y2-S2-006K27,3,737,PS,exp,44,→,right,→,0.1842197000514716,True,102,-1,0,15
Y2-S2-006K27,3,738,PS,exp,30,↓,right,→,0.21758080017752945,False,102,-1,0,15
Y2-S2-006K27,3,739,PS,exp,39,←,right,→,0.15100359986536205,False,103,-1,0,15
Y2-S2-006K27,3,740,PS,exp,34,→,right,→,0.16791970003396273,True,104,-1,0,15
Y2-S2-006K27,3,741,PS,exp,47,↓,right,→,0.2510917999316007,False,104,-1,0,15
Y2-S2-006K27,3,742,PS,exp,42,↑,right,→,0.2010792000219226,False,105,-1,0,15
Y2-S2-006K27,3,743,PS,exp,38,←,right,→,0.0847692999523133,False,106,-1,0,15
Y2-S2-006K27,3,744,PS,exp,30,↑,right,→,0.3344594999216497,False,107,-1,0,15
Y2-S2-006K27,3,745,PS,exp,46,→,right,→,0.9173825001344085,True,108,-1,0,15
Y2-S2-006K27,3,746,PS,exp,46,↓,down,↓,0.6347376999910921,True,108,-1,0,15
Y2-S2-006K27,3,747,PS,exp,41,↑,up,↑,1.3675712998956442,True,108,1,1,16
Y2-S2-006K27,4,748,AS,intra_train,46,→,right,→,1.061738400021568,True,51,-,-,-
Y2-S2-006K27,4,749,AS,intra_train,26,←,left,←,0.7011035000905395,True,51,-,-,-
Y2-S2-006K27,4,750,AS,intra_train,34,→,right,→,0.5344475000165403,True,51,-,-,-
Y2-S2-006K27,4,751,AS,intra_train,48,↓,down,↓,1.1784041000064462,True,51,-,-,-
Y2-S2-006K27,4,752,AS,intra_train,26,←,left,←,0.6673787001054734,True,51,-,-,-
Y2-S2-006K27,4,753,AS,exp,47,↓,right,→,0.6836558000650257,False,34,-1,0,0
Y2-S2-006K27,4,754,AS,exp,32,→,right,→,0.7008583000861108,True,35,-1,0,0
Y2-S2-006K27,4,755,AS,exp,45,←,right,→,0.7849253001622856,False,35,-1,0,0
Y2-S2-006K27,4,756,AS,exp,41,→,right,→,0.8417553999461234,True,36,-1,0,0
Y2-S2-006K27,4,757,AS,exp,30,↑,right,→,0.5509870999958366,False,36,-1,0,0
Y2-S2-006K27,4,758,AS,exp,31,↓,right,→,0.367502500070259,False,37,-1,0,0
Y2-S2-006K27,4,759,AS,exp,42,→,right,→,0.10119089996442199,True,38,-1,0,0
Y2-S2-006K27,4,760,AS,exp,29,←,right,→,0.3508526000659913,False,38,-1,0,0
Y2-S2-006K27,4,761,AS,exp,36,↑,right,→,0.05134090012870729,False,39,-1,0,0
Y2-S2-006K27,4,762,AS,exp,41,←,right,→,0.4514743001200259,False,40,-1,0,0
Y2-S2-006K27,4,763,AS,exp,36,↓,right,→,1.325197600061074,False,41,-1,0,0
Y2-S2-006K27,4,764,AS,exp,34,←,right,→,0.017640599980950356,False,42,-1,0,0
Y2-S2-006K27,4,765,AS,exp,38,↑,right,→,0.051191600039601326,False,43,-1,0,0
Y2-S2-006K27,4,766,AS,exp,27,←,right,→,0.16748079983517528,False,44,-1,0,0
Y2-S2-006K27,4,767,AS,exp,31,↓,right,→,0.20120710018090904,False,45,-1,0,0
Y2-S2-006K27,4,768,AS,exp,36,↑,right,→,0.13475779979489744,False,46,-1,0,0
Y2-S2-006K27,4,769,AS,exp,44,←,right,→,0.2512093000113964,False,47,-1,0,0
Y2-S2-006K27,4,770,AS,exp,37,→,right,→,0.20109390001744032,True,48,-1,0,0
Y2-S2-006K27,4,771,AS,exp,28,←,right,→,0.21766519988887012,False,48,-1,0,0
Y2-S2-006K27,4,772,AS,exp,27,↑,right,→,0.20134749985300004,False,49,-1,0,0
Y2-S2-006K27,4,773,AS,exp,33,→,right,→,0.2010403999593109,True,50,-1,0,0
Y2-S2-006K27,4,774,AS,exp,30,↓,right,→,0.08424820005893707,False,50,-1,0,0
Y2-S2-006K27,4,775,AS,exp,35,↑,right,→,0.251276700058952,False,51,-1,0,0
Y2-S2-006K27,4,776,AS,exp,50,↓,right,→,0.2342278000432998,False,52,-1,0,0
Y2-S2-006K27,4,777,AS,exp,50,←,right,→,0.20100359991192818,False,53,-1,0,0
Y2-S2-006K27,4,778,AS,exp,36,↓,right,→,0.30076620006002486,False,54,-1,0,0
Y2-S2-006K27,4,779,AS,exp,32,←,right,→,0.11786290002055466,False,55,-1,0,0
Y2-S2-006K27,4,780,AS,exp,32,↑,right,→,0.4678197999019176,False,56,-1,0,0
Y2-S2-006K27,4,781,AS,exp,27,←,right,→,0.2513329000212252,False,57,-1,0,0
Y2-S2-006K27,4,782,AS,exp,34,→,right,→,0.11749149998649955,True,58,-1,0,0
Y2-S2-006K27,4,783,AS,exp,31,←,right,→,0.08393950015306473,False,58,-1,0,0
Y2-S2-006K27,4,784,AS,exp,45,↑,right,→,0.0011926000006496906,False,59,-1,0,0
Y2-S2-006K27,4,785,AS,exp,40,←,right,→,0.6009982000105083,False,60,-1,0,0
Y2-S2-006K27,4,786,AS,exp,35,→,right,→,0.41762090008705854,True,61,-1,0,0
Y2-S2-006K27,4,787,AS,exp,47,↑,right,→,0.518053000094369,False,61,-1,0,0
Y2-S2-006K27,4,788,AS,exp,35,↓,down,↓,1.1172511999029666,True,62,-1,0,0
Y2-S2-006K27,4,789,AS,exp,29,←,right,→,1.1339052999392152,False,62,-1,0,0
Y2-S2-006K27,4,790,AS,exp,37,↓,left,←,1.9589194001164287,False,63,-1,0,0
Y2-S2-006K27,4,791,AS,exp,30,→,left,←,0.36761000007390976,False,64,-1,0,0
Y2-S2-006K27,4,792,AS,exp,46,←,right,→,0.11752630001865327,False,65,-1,0,0
Y2-S2-006K27,4,793,AS,exp,34,↓,left,←,0.08397139981389046,False,66,-1,0,0
Y2-S2-006K27,4,794,AS,exp,40,↑,down,↓,0.11770569998770952,False,67,-1,0,0
Y2-S2-006K27,4,795,AS,exp,35,←,up,↑,0.1341573998797685,False,68,-1,0,0
Y2-S2-006K27,4,796,AS,exp,32,↑,left,←,0.6513398999813944,False,69,-1,0,0
Y2-S2-006K27,4,797,AS,exp,42,↓,left,←,0.0012262000236660242,False,70,-1,0,0
Y2-S2-006K27,4,798,AS,exp,38,↑,left,←,0.3013677999842912,False,71,-1,0,0
Y2-S2-006K27,4,799,AS,exp,27,↓,left,←,0.10092510003596544,False,72,-1,0,0
Y2-S2-006K27,4,800,AS,exp,34,↑,down,↓,0.034443499986082315,False,73,-1,0,0
Y2-S2-006K27,4,801,AS,exp,34,↓,up,↑,0.18477219995111227,False,74,-1,0,0
Y2-S2-006K27,4,802,AS,exp,40,→,up,↑,0.1348133001010865,False,75,-1,0,0
Y2-S2-006K27,4,803,AS,exp,38,↑,right,→,0.16768860002048314,False,76,-1,0,0
Y2-S2-006K27,4,804,AS,exp,25,←,right,→,0.016695900121703744,False,77,-1,0,0
Y2-S2-006K27,4,805,AS,exp,34,↑,left,←,0.18457109993323684,False,78,-1,0,0
Y2-S2-006K27,4,806,AS,exp,29,→,up,↑,0.23451980017125607,False,79,-1,0,0
Y2-S2-006K27,4,807,AS,exp,48,←,right,→,0.2343985999468714,False,80,-1,0,0
Y2-S2-006K27,4,808,AS,exp,49,→,right,→,0.06756279990077019,True,81,-1,0,0
Y2-S2-006K27,4,809,AS,exp,35,↑,right,→,0.017964099999517202,False,81,-1,0,0
Y2-S2-006K27,4,810,AS,exp,36,←,right,→,0.4678575999569148,False,82,-1,0,0
Y2-S2-006K27,4,811,AS,exp,36,↑,left,←,0.43471949989907444,False,83,-1,0,0
Y2-S2-006K27,4,812,AS,exp,39,→,left,←,0.16699540009722114,False,84,-1,0,0
Y2-S2-006K27,4,813,AS,exp,32,←,left,←,0.2677150999661535,True,85,-1,0,0
Y2-S2-006K27,4,814,AS,exp,28,→,left,←,0.31741739995777607,False,85,-1,0,0
Y2-S2-006K27,4,815,AS,exp,37,↑,left,←,0.23468109988607466,False,86,-1,0,0
Y2-S2-006K27,4,816,AS,exp,46,↓,up,↑,0.2343522000592202,False,87,-1,0,0
Y2-S2-006K27,4,817,AS,exp,47,←,down,↓,0.11703739990480244,False,88,-1,0,0
Y2-S2-006K27,4,818,AS,exp,25,→,left,←,0.13474999996833503,False,89,-1,0,0
Y2-S2-006K27,4,819,AS,exp,30,↑,right,→,0.36746100010350347,False,90,-1,0,0
Y2-S2-006K27,4,820,AS,exp,37,↓,right,→,0.21748779993504286,False,91,-1,0,0
Y2-S2-006K27,4,821,AS,exp,36,←,right,→,0.5678794998675585,False,92,-1,0,0
Y2-S2-006K27,4,822,AS,exp,25,↓,right,→,0.36778769991360605,False,93,-1,0,0
Y2-S2-006K27,4,823,AS,exp,28,→,down,↓,0.23420660011470318,False,94,-1,0,0
Y2-S2-006K27,4,824,AS,exp,25,←,left,←,0.5842990998644382,True,95,-1,0,0
Y2-S2-006K27,4,825,AS,exp,33,↓,down,↓,0.9847152999136597,True,95,-1,0,0
Y2-S2-006K27,4,826,AS,exp,27,←,down,↓,0.21784379985183477,False,95,-1,0,0
Y2-S2-006K27,4,827,AS,exp,27,↓,down,↓,0.750985300168395,True,96,-1,0,0
Y2-S2-006K27,4,828,AS,exp,36,→,down,↓,0.08452449995093048,False,96,-1,0,0
Y2-S2-006K27,4,829,AS,exp,48,↑,down,↓,0.30127769988030195,False,97,-1,0,0
Y2-S2-006K27,4,830,AS,exp,44,←,left,←,0.6511472000274807,True,98,-1,0,0
Y2-S2-006K27,4,831,AS,exp,27,↓,left,←,0.40124609996564686,False,98,-1,0,0
Y2-S2-006K27,4,832,AS,exp,44,→,left,←,0.5180259000044316,False,99,-1,0,0
Y2-S2-006K27,4,833,AS,exp,39,←,left,←,0.05127689987421036,True,100,-1,0,0
Y2-S2-006K27,4,834,AS,exp,49,→,left,←,0.00117790000513196,False,100,-1,0,0
Y2-S2-006K27,4,835,AS,exp,38,↑,left,←,0.1842000000178814,False,101,-1,0,0
Y2-S2-006K27,4,836,AS,exp,41,↓,down,↓,1.0677868998609483,True,102,-1,0,0
Y2-S2-006K27,4,837,AS,exp,50,→,right,→,0.8843628000468016,True,102,-1,0,0
Y2-S2-006K27,4,838,AS,exp,42,↑,up,↑,1.201421600067988,True,102,1,1,1
Y2-S2-006K27,4,839,AS,exp,28,→,right,→,0.7011531998869032,True,101,1,0,1
Y2-S2-006K27,4,840,AS,exp,50,↓,down,↓,1.0177617000881582,True,101,1,0,1
Y2-S2-006K27,4,841,AS,exp,33,←,left,←,0.651338999858126,True,101,1,0,1
Y2-S2-006K27,4,842,AS,exp,39,↓,down,↓,0.5677781000267714,True,100,1,0,1
Y2-S2-006K27,4,843,AS,exp,33,↑,down,↓,0.8346204999834299,False,100,-1,1,2
Y2-S2-006K27,4,844,AS,exp,44,↓,down,↓,0.6175788000691682,True,101,-1,0,2
Y2-S2-006K27,4,845,AS,exp,39,→,right,→,0.7846274001058191,True,101,-1,0,2
Y2-S2-006K27,4,846,AS,exp,35,↑,up,↑,1.0846750000491738,True,101,1,1,3
Y2-S2-006K27,4,847,AS,exp,36,←,left,←,1.3511917998548597,True,100,1,0,3
Y2-S2-006K27,4,848,AS,exp,33,↑,up,↑,1.0009638001210988,True,100,1,0,3
Y2-S2-006K27,4,849,AS,exp,26,→,right,→,1.0019680000841618,True,100,1,0,3
Y2-S2-006K27,4,850,AS,exp,44,↓,down,↓,1.1845685001462698,True,99,1,0,3
Y2-S2-006K27,4,851,AS,exp,30,→,right,→,0.9509680999908596,True,99,1,0,3
Y2-S2-006K27,4,852,AS,exp,48,↑,down,↓,0.7509320001117885,False,99,-1,1,4
Y2-S2-006K27,4,853,AS,exp,41,←,up,↑,0.08422760013490915,False,100,-1,0,4
Y2-S2-006K27,4,854,AS,exp,25,→,up,↑,0.3014036000240594,False,101,-1,0,4
Y2-S2-006K27,4,855,AS,exp,39,←,up,↑,0.4009239999577403,False,102,-1,0,4
Y2-S2-006K27,4,856,AS,exp,44,↓,up,↑,0.20066550001502037,False,103,-1,0,4
Y2-S2-006K27,4,857,AS,exp,25,→,up,↑,0.15101089980453253,False,104,-1,0,4
Y2-S2-006K27,4,858,AS,exp,27,↑,no_key,no_letter,-1.0,False,105,-1,0,4
Y2-S2-006K27,4,859,AS,exp,28,←,left,←,0.7674424999859184,True,106,-1,0,4
Y2-S2-006K27,4,860,AS,exp,31,↑,up,↑,1.567686199909076,True,106,-1,0,4
Y2-S2-006K27,4,861,AS,exp,31,←,left,←,0.717283200006932,True,106,1,1,5
Y2-S2-006K27,4,862,AS,exp,48,↓,down,↓,1.0178310999181122,True,105,1,0,5
Y2-S2-006K27,4,863,AS,exp,46,↑,up,↑,0.7843341999687254,True,105,1,0,5
Y2-S2-006K27,4,864,AS,exp,46,↓,down,↓,0.9008714999072254,True,105,1,0,5
Y2-S2-006K27,4,865,AS,exp,49,→,right,→,0.884533500066027,True,104,1,0,5
Y2-S2-006K27,4,866,AS,exp,38,↑,up,↑,0.9678164999932051,True,104,1,0,5
Y2-S2-006K27,4,867,AS,exp,38,↓,down,↓,0.8511310999747366,True,104,1,0,5
Y2-S2-006K27,4,868,AS,exp,41,↑,up,↑,0.8174919998273253,True,103,1,0,5
Y2-S2-006K27,4,869,AS,exp,48,←,left,←,0.8679174999706447,True,103,1,0,5
Y2-S2-006K27,4,870,AS,exp,34,→,down,↓,0.3178971998859197,False,103,-1,1,6
Y2-S2-006K27,4,871,AS,exp,46,↓,down,↓,0.11783219990320504,True,104,-1,0,6
Y2-S2-006K27,4,872,AS,exp,26,↑,down,↓,0.30105910007841885,False,104,-1,0,6
Y2-S2-006K27,4,873,AS,exp,34,↓,down,↓,0.10133130010217428,True,105,-1,0,6
Y2-S2-006K27,4,874,AS,exp,30,→,down,↓,0.0010879000183194876,False,105,-1,0,6
Y2-S2-006K27,4,875,AS,exp,45,↑,down,↓,0.03437729994766414,False,106,-1,0,6
Y2-S2-006K27,4,876,AS,exp,46,→,down,↓,0.28427870012819767,False,107,-1,0,6
Y2-S2-006K27,4,877,AS,exp,34,↓,down,↓,0.18441860005259514,True,108,-1,0,6
Y2-S2-006K27,4,878,AS,exp,34,→,right,→,2.20839020004496,True,108,-1,0,6
Y2-S2-006K27,4,879,AS,exp,37,←,left,←,0.6679440999869257,True,108,1,1,7
Y2-S2-006K27,4,880,AS,exp,39,↓,down,↓,1.2011827998794615,True,107,1,0,7
Y2-S2-006K27,4,881,AS,exp,37,←,left,←,0.668123499955982,True,107,1,0,7
Y2-S2-006K27,4,882,AS,exp,50,↑,left,←,1.0845372001640499,False,107,-1,1,8
Y2-S2-006K27,4,883,AS,exp,43,←,right,→,2.4144333000294864,False,108,-1,0,8
Y2-S2-006K27,4,884,AS,exp,26,↓,right,→,0.333610599860549,False,109,-1,0,8
Y2-S2-006K27,4,885,AS,exp,40,↑,left,←,0.6012592001352459,False,110,-1,0,8
Y2-S2-006K27,4,886,AS,exp,38,←,down,↓,0.21775409998372197,False,111,-1,0,8
Y2-S2-006K27,4,887,AS,exp,35,↑,down,↓,0.051124499877914786,False,112,-1,0,8
Y2-S2-006K27,4,888,AS,exp,47,→,down,↓,0.01787250000052154,False,113,-1,0,8
Y2-S2-006K27,4,889,AS,exp,30,←,down,↓,0.017695300048217177,False,114,-1,0,8
Y2-S2-006K27,4,890,AS,exp,40,→,down,↓,0.051336999982595444,False,115,-1,0,8
Y2-S2-006K27,4,891,AS,exp,42,←,down,↓,0.0679719999898225,False,116,-1,0,8
Y2-S2-006K27,4,892,AS,exp,28,→,down,↓,0.01802619989030063,False,117,-1,0,8
Y2-S2-006K27,4,893,AS,exp,47,←,down,↓,1.5676321000792086,False,118,-1,0,8
Y2-S2-006K27,4,894,AS,exp,50,↑,down,↓,0.7343024001456797,False,119,-1,0,8
Y2-S2-006K27,4,895,AS,exp,47,↓,down,↓,0.7012650000397116,True,120,-1,0,8
Y2-S2-006K27,4,896,AS,exp,35,→,down,↓,0.3342510999646038,False,120,-1,0,8
Y2-S2-006K27,4,897,AS,exp,29,↓,down,↓,0.001183199929073453,True,121,-1,0,8
Y2-S2-006K27,4,898,AS,exp,49,←,down,↓,0.1343222998548299,False,121,-1,0,8
Y2-S2-006K27,4,899,AS,exp,32,↑,down,↓,0.001105200033634901,False,122,-1,0,8
Y2-S2-006K27,4,900,AS,exp,49,→,down,↓,0.2341666000429541,False,123,-1,0,8
Y2-S2-006K27,4,901,AS,exp,47,↓,down,↓,0.5175465000793338,True,124,-1,0,8
Y2-S2-006K27,4,902,AS,exp,47,↑,down,↓,0.5012012000661343,False,124,-1,0,8
Y2-S2-006K27,4,903,AS,exp,45,↓,up,↑,0.001110800076276064,False,125,-1,0,8
Y2-S2-006K27,4,904,AS,exp,46,←,down,↓,0.2509204000234604,False,126,-1,0,8
Y2-S2-006K27,4,905,AS,exp,33,↑,down,↓,0.08446800010278821,False,127,-1,0,8
Y2-S2-006K27,4,906,AS,exp,46,→,down,↓,0.4176966999657452,False,128,-1,0,8
Y2-S2-006K27,4,907,AS,exp,49,↑,down,↓,0.01745599997229874,False,129,-1,0,8
Y2-S2-006K27,4,908,AS,exp,36,↓,down,↓,0.5511777999345213,True,130,-1,0,8
Y2-S2-006K27,4,909,AS,exp,37,←,down,↓,0.10089520015753806,False,130,-1,0,8
Y2-S2-006K27,4,910,AS,exp,49,↑,down,↓,0.13432630011811852,False,131,-1,0,8
Y2-S2-006K27,4,911,AS,exp,45,↓,down,↓,0.1672527000773698,True,132,-1,0,8
Y2-S2-006K27,4,912,AS,exp,35,↑,down,↓,0.06760660000145435,False,132,-1,0,8
Y2-S2-006K27,4,913,AS,exp,48,←,down,↓,0.10084690013900399,False,133,-1,0,8
Y2-S2-006K27,4,914,AS,exp,38,↓,down,↓,0.6677302999887615,True,134,-1,0,8
Y2-S2-006K27,4,915,AS,exp,40,→,right,→,0.6514570999424905,True,134,-1,0,8
Y2-S2-006K27,4,916,AS,exp,28,↑,up,↑,1.4343797999899834,True,134,1,1,9
Y2-S2-006K27,4,917,AS,exp,43,↓,down,↓,0.6514276000671089,True,133,1,0,9
Y2-S2-006K27,4,918,AS,exp,33,↑,up,↑,0.9177248999476433,True,133,1,0,9
Y2-S2-006K27,4,919,AS,exp,40,←,left,←,0.6846545001026243,True,133,1,0,9
Y2-S2-006K27,4,920,AS,exp,35,→,right,→,0.5679256999865174,True,132,1,0,9
Y2-S2-006K27,4,921,AS,exp,48,↑,up,↑,1.0168790000025183,True,132,1,0,9
Y2-S2-006K27,4,922,AS,exp,32,→,right,→,0.9176535999868065,True,132,1,0,9
Y2-S2-006K27,4,923,AS,exp,27,↓,down,↓,1.2180421000812203,True,131,1,0,9
Y2-S2-006K27,4,924,AS,exp,41,→,right,→,0.8176949999760836,True,131,1,0,9
Y2-S2-006K27,4,925,AS,exp,50,←,left,←,0.6510024000890553,True,131,1,0,9
Y2-S2-006K27,4,926,AS,exp,29,↓,down,↓,0.7509717000648379,True,130,1,0,9
Y2-S2-006K27,4,927,AS,exp,36,←,left,←,1.08431509998627,True,130,1,0,9
Y2-S2-006K27,4,928,AS,exp,39,→,right,→,0.767855399986729,True,130,1,0,9
Y2-S2-006K27,4,929,AS,exp,32,←,right,→,0.2342262000311166,False,129,-1,1,10
Y2-S2-006K27,4,930,AS,exp,42,↑,left,←,0.15131999994628131,False,130,-1,0,10
Y2-S2-006K27,4,931,AS,exp,44,→,up,↑,0.46787009993568063,False,131,-1,0,10
Y2-S2-006K27,4,932,AS,exp,37,↓,right,→,0.1011315998621285,False,132,-1,0,10
Y2-S2-006K27,4,933,AS,exp,32,←,right,→,0.0677327997982502,False,133,-1,0,10
Y2-S2-006K27,4,934,AS,exp,40,→,right,→,0.38499510008841753,True,134,-1,0,10
Y2-S2-006K27,4,935,AS,exp,30,←,right,→,0.4511995001230389,False,134,-1,0,10
Y2-S2-006K27,4,936,AS,exp,39,→,right,→,0.251264400081709,True,135,-1,0,10
Y2-S2-006K27,4,937,AS,exp,32,↑,right,→,0.4176614999305457,False,135,-1,0,10
Y2-S2-006K27,4,938,AS,exp,31,→,right,→,0.20074429991655052,True,136,-1,0,10
Y2-S2-006K27,4,939,AS,exp,35,↑,right,→,0.21751460013911128,False,136,-1,0,10
Y2-S2-006K27,4,940,AS,exp,50,←,right,→,0.2675832000095397,False,137,-1,0,10
Y2-S2-006K27,4,941,AS,exp,45,↑,left,←,0.20127790002152324,False,138,-1,0,10
Y2-S2-006K27,4,942,AS,exp,26,↓,left,←,0.06780089996755123,False,139,-1,0,10
Y2-S2-006K27,4,943,AS,exp,29,→,left,←,0.20119960000738502,False,140,-1,0,10
Y2-S2-006K27,4,944,AS,exp,46,↓,left,←,0.20104820001870394,False,141,-1,0,10
Y2-S2-006K27,4,945,AS,exp,43,←,left,←,0.05127510009333491,True,142,-1,0,10
Y2-S2-006K27,4,946,AS,exp,43,→,left,←,0.317631300073117,False,142,-1,0,10
Y2-S2-006K27,4,947,AS,exp,49,↑,left,←,0.034487699856981635,False,143,-1,0,10
Y2-S2-006K27,4,948,AS,exp,30,→,left,←,0.3344554000068456,False,144,-1,0,10
Y2-S2-006K27,4,949,AS,exp,28,←,left,←,0.21821850002743304,True,145,-1,0,10
Y2-S2-006K27,4,950,AS,exp,43,→,left,←,3.3849120000377297,False,145,-1,0,10
Y2-S2-006K27,4,951,AS,exp,41,↓,left,←,0.01756350020878017,False,146,-1,0,10
Y2-S2-006K27,4,952,AS,exp,27,↑,left,←,0.3343428000807762,False,147,-1,0,10
Y2-S2-006K27,4,953,AS,exp,37,↓,left,←,2.10121909994632,False,148,-1,0,10
Y2-S2-006K27,4,954,AS,exp,29,→,left,←,0.36781409988179803,False,149,-1,0,10
Y2-S2-006K27,4,955,AS,exp,33,↓,left,←,0.20119880000129342,False,150,-1,0,10
Y2-S2-006K27,4,956,AS,exp,30,←,left,←,1.318112200126052,True,151,-1,0,10
Y2-S2-006K27,4,957,AS,exp,42,→,left,←,0.06742069986648858,False,151,-1,0,10
Y2-S2-006K27,4,958,AS,exp,26,↑,right,→,0.0010859000030905008,False,152,-1,0,10
Y2-S2-006K27,4,959,AS,exp,32,↓,right,→,0.2012656000442803,False,153,-1,0,10
Y2-S2-006K27,4,960,AS,exp,43,↑,up,↑,1.3676674000453204,True,154,-1,0,10
Y2-S2-006K27,4,961,AS,exp,45,→,up,↑,0.28431280003860593,False,154,-1,0,10
Y2-S2-006K27,4,962,AS,exp,49,←,right,→,0.1842986000701785,False,155,-1,0,10
Y2-S2-006K27,4,963,AS,exp,42,↓,left,←,0.30100489989854395,False,156,-1,0,10
Y2-S2-006K27,4,964,AS,exp,43,↑,left,←,0.2177822000812739,False,157,-1,0,10
Y2-S2-006K27,4,965,AS,exp,50,↓,left,←,0.2506805001758039,False,158,-1,0,10
Y2-S2-006K27,4,966,AS,exp,44,←,left,←,0.26779099996201694,True,159,-1,0,10
Y2-S2-006K27,4,967,AS,exp,35,↓,up,↑,4.04678520001471,False,159,-1,0,10
Y2-S2-006K27,4,968,AS,exp,36,←,right,→,0.7677853000350296,False,160,-1,0,10
Y2-S2-006K27,4,969,AS,exp,30,↑,left,←,0.23446510010398924,False,161,-1,0,10
Y2-S2-006K27,4,970,AS,exp,34,→,left,←,0.3516512999776751,False,162,-1,0,10
Y2-S2-006K27,4,971,AS,exp,27,↑,left,←,0.6009074000176042,False,163,-1,0,10
Y2-S2-006K27,4,972,AS,exp,27,↓,left,←,0.0012475999537855387,False,164,-1,0,10
Y2-S2-006K27,4,973,AS,exp,31,←,left,←,0.13439000002108514,True,165,-1,0,10
Y2-S2-006K27,4,974,AS,exp,25,↑,left,←,3.5561265000142157,False,165,-1,0,10
Y2-S2-006K27,4,975,AS,exp,37,↓,left,←,0.0007360999006778002,False,166,-1,0,10
Y2-S2-006K27,4,976,AS,exp,47,→,left,←,0.2506210000719875,False,167,-1,0,10
Y2-S2-006K27,4,977,AS,exp,42,↑,left,←,0.4847267000004649,False,168,-1,0,10
Y2-S2-006K27,4,978,AS,exp,38,↓,left,←,0.15093669993802905,False,169,-1,0,10
Y2-S2-006K27,4,979,AS,exp,45,↑,left,←,0.1847600000910461,False,170,-1,0,10
Y2-S2-006K27,4,980,AS,exp,25,↓,no_key,no_letter,-1.0,False,171,-1,0,10
Y2-S2-006K27,4,981,AS,exp,38,←,right,→,0.3176067001186311,False,172,-1,0,10
Y2-S2-006K27,4,982,AS,exp,50,↑,right,→,0.6010635998100042,False,173,-1,0,10
Y2-S2-006K27,4,983,AS,exp,44,→,right,→,0.7681342998985201,True,174,-1,0,10
Y2-S2-006K27,4,984,AS,exp,38,←,left,←,0.6014733000192791,True,174,-1,0,10
Y2-S2-006K27,4,985,AS,exp,50,→,right,→,0.9682446999941021,True,174,1,1,11
Y2-S2-006K27,4,986,AS,exp,44,↓,right,→,0.7512169999536127,False,173,-1,1,12
Y2-S2-006K27,4,987,AS,exp,36,→,right,→,0.917772299842909,True,174,-1,0,12
Y2-S2-006K27,4,988,AS,exp,36,↓,up,↑,2.134567799977958,False,174,-1,0,12
Y2-S2-006K27,4,989,AS,exp,30,→,right,→,1.417925100075081,True,175,-1,0,12
Y2-S2-006K27,4,990,AS,exp,31,↓,down,↓,0.7180871998425573,True,175,-1,0,12
Y2-S2-006K27,4,991,AS,exp,35,↑,down,↓,2.7178940000012517,False,175,-1,0,12
Y2-S2-006K27,4,992,AS,exp,36,←,left,←,0.7509502000175416,True,176,-1,0,12
Y2-S2-006K27,4,993,AS,exp,32,↓,down,↓,0.8840443999506533,True,176,-1,0,12
Y2-S2-006K27,4,994,AS,exp,33,↑,up,↑,1.4844600001815706,True,176,1,1,13
Y2-S2-006K27,4,995,AS,exp,39,→,right,→,0.9178990998771042,True,175,1,0,13
Y2-S2-006K27,4,996,AS,exp,27,←,right,→,0.7510693001095206,False,175,-1,1,14
Y2-S2-006K27,4,997,AS,exp,36,↑,right,→,4.007879900047556,False,176,-1,0,14
Y2-S2-006K27,4,998,AS,exp,26,←,left,←,0.9513111000414938,True,177,-1,0,14
Y2-S2-006K27,4,999,AS,exp,27,→,right,→,0.8341979999095201,True,177,-1,0,14
Y2-S2-006K27,4,1000,AS,exp,36,←,left,←,0.5178292999044061,True,177,1,1,15
Y2-S2-006K27,4,1001,AS,exp,37,→,left,←,0.7010671999305487,False,176,-1,1,16
Y2-S2-006K27,5,1002,AS,intra_train,38,↓,no_key,no_letter,-1.0,False,51,-,-,-
Y2-S2-006K27,5,1003,AS,intra_train,45,↑,up,↑,0.7009875001385808,True,51,-,-,-
Y2-S2-006K27,5,1004,AS,intra_train,34,↓,up,↑,0.501077099936083,False,51,-,-,-
Y2-S2-006K27,5,1005,AS,intra_train,25,↑,down,↓,0.05081430007703602,False,51,-,-,-
Y2-S2-006K27,5,1006,AS,intra_train,46,←,down,↓,0.18417670018970966,False,51,-,-,-
Y2-S2-006K27,5,1007,AS,exp,33,↓,right,→,1.2240315999370068,False,34,-1,0,0
Y2-S2-006K27,5,1008,AS,exp,32,→,right,→,1.4109831000678241,True,35,-1,0,0
Y2-S2-006K27,5,1009,AS,exp,25,←,right,→,0.7808920000679791,False,35,-1,0,0
Y2-S2-006K27,5,1010,AS,exp,50,→,left,←,1.4124731000047177,False,36,-1,0,0
Y2-S2-006K27,5,1011,AS,exp,50,↑,right,→,0.8163407000247389,False,37,-1,0,0
Y2-S2-006K27,5,1012,AS,exp,35,→,right,→,0.48469540011137724,True,38,-1,0,0
Y2-S2-006K27,5,1013,AS,exp,38,←,right,→,0.6009004001971334,False,38,-1,0,0
Y2-S2-006K27,5,1014,AS,exp,33,↓,right,→,0.48441129992716014,False,39,-1,0,0
Y2-S2-006K27,5,1015,AS,exp,33,←,right,→,0.3178370001260191,False,40,-1,0,0
Y2-S2-006K27,5,1016,AS,exp,35,→,right,→,0.23457009997218847,True,41,-1,0,0
Y2-S2-006K27,5,1017,AS,exp,49,↑,right,→,0.11786019988358021,False,41,-1,0,0
Y2-S2-006K27,5,1018,AS,exp,29,↓,right,→,1.1103360999841243,False,42,-1,0,0
Y2-S2-006K27,5,1019,AS,exp,26,←,right,→,1.609734200173989,False,43,-1,0,0
Y2-S2-006K27,5,1020,AS,exp,46,↓,right,→,1.8786681999918073,False,44,-1,0,0
Y2-S2-006K27,5,1021,AS,exp,32,↑,down,↓,0.7013360001146793,False,45,-1,0,0
Y2-S2-006K27,5,1022,AS,exp,29,←,no_key,no_letter,-1.0,False,46,-1,0,0
Y2-S2-006K27,5,1023,AS,exp,42,↑,left,←,1.0717362000141293,False,47,-1,0,0
Y2-S2-006K27,5,1024,AS,exp,34,←,left,←,0.4008280001580715,True,48,-1,0,0
Y2-S2-006K27,5,1025,AS,exp,43,↑,left,←,0.5008312000427395,False,48,-1,0,0
Y2-S2-006K27,5,1026,AS,exp,32,→,left,←,0.41738229990005493,False,49,-1,0,0
Y2-S2-006K27,5,1027,AS,exp,26,↑,left,←,1.0817539999261498,False,50,-1,0,0
Y2-S2-006K27,5,1028,AS,exp,39,→,left,←,0.5345781999640167,False,51,-1,0,0
Y2-S2-006K27,5,1029,AS,exp,34,↑,left,←,0.4512199000455439,False,52,-1,0,0
Y2-S2-006K27,5,1030,AS,exp,45,↓,left,←,0.13423830014653504,False,53,-1,0,0
Y2-S2-006K27,5,1031,AS,exp,50,←,left,←,0.3842728000599891,True,54,-1,0,0
Y2-S2-006K27,5,1032,AS,exp,38,↑,up,↑,0.8678528000600636,True,54,-1,0,0
Y2-S2-006K27,5,1033,AS,exp,33,→,no_key,no_letter,-1.0,False,54,-1,0,0
Y2-S2-006K27,5,1034,AS,exp,41,↑,left,←,0.31783859990537167,False,55,-1,0,0
Y2-S2-006K27,5,1035,AS,exp,31,←,left,←,0.4015754999127239,True,56,-1,0,0
Y2-S2-006K27,5,1036,AS,exp,45,→,left,←,0.3841959999408573,False,56,-1,0,0
Y2-S2-006K27,5,1037,AS,exp,50,↑,left,←,0.30168989999219775,False,57,-1,0,0
Y2-S2-006K27,5,1038,AS,exp,32,←,left,←,0.2008082999382168,True,58,-1,0,0
Y2-S2-006K27,5,1039,AS,exp,47,↑,left,←,0.25126409996300936,False,58,-1,0,0
Y2-S2-006K27,5,1040,AS,exp,43,↓,left,←,0.11802469985559583,False,59,-1,0,0
Y2-S2-006K27,5,1041,AS,exp,43,→,left,←,0.26799260010011494,False,60,-1,0,0
Y2-S2-006K27,5,1042,AS,exp,48,↓,left,←,1.416100700153038,False,61,-1,0,0
Y2-S2-006K27,5,1043,AS,exp,46,←,left,←,0.7675473999697715,True,62,-1,0,0
Y2-S2-006K27,5,1044,AS,exp,27,↑,up,↑,1.229887899942696,True,62,-1,0,0
Y2-S2-006K27,5,1045,AS,exp,41,→,left,←,1.0172810000367463,False,62,-1,0,0
Y2-S2-006K27,5,1046,AS,exp,48,↑,up,↑,0.9010254999157041,True,63,-1,0,0
Y2-S2-006K27,5,1047,AS,exp,43,←,left,←,0.6183219999074936,True,63,-1,0,0
Y2-S2-006K27,5,1048,AS,exp,44,→,left,←,0.5511817999649793,False,63,-1,0,0
Y2-S2-006K27,5,1049,AS,exp,28,↓,left,←,0.41789799998514354,False,64,-1,0,0
Y2-S2-006K27,5,1050,AS,exp,30,↑,left,←,0.23377379984594882,False,65,-1,0,0
Y2-S2-006K27,5,1051,AS,exp,33,↓,left,←,0.11762640019878745,False,66,-1,0,0
Y2-S2-006K27,5,1052,AS,exp,25,→,left,←,0.18456889991648495,False,67,-1,0,0
Y2-S2-006K27,5,1053,AS,exp,26,↑,left,←,0.417983700055629,False,68,-1,0,0
Y2-S2-006K27,5,1054,AS,exp,38,←,no_key,no_letter,-1.0,False,69,-1,0,0
Y2-S2-006K27,5,1055,AS,exp,35,↑,left,←,0.08460809988901019,False,70,-1,0,0
Y2-S2-006K27,5,1056,AS,exp,25,←,left,←,0.33409389993175864,True,71,-1,0,0
Y2-S2-006K27,5,1057,AS,exp,25,→,left,←,1.2002699000295252,False,71,-1,0,0
Y2-S2-006K27,5,1058,AS,exp,30,↑,left,←,0.20098399999551475,False,72,-1,0,0
Y2-S2-006K27,5,1059,AS,exp,43,↓,left,←,0.35124089987948537,False,73,-1,0,0
Y2-S2-006K27,5,1060,AS,exp,40,→,left,←,0.3843677998520434,False,74,-1,0,0
Y2-S2-006K27,5,1061,AS,exp,47,↑,right,→,0.10126879997551441,False,75,-1,0,0
Y2-S2-006K27,5,1062,AS,exp,45,←,right,→,0.017668799962848425,False,76,-1,0,0
Y2-S2-006K27,5,1063,AS,exp,38,→,right,→,0.18440600018948317,True,77,-1,0,0
Y2-S2-006K27,5,1064,AS,exp,47,↑,right,→,0.46779430005699396,False,77,-1,0,0
Y2-S2-006K27,5,1065,AS,exp,32,←,right,→,0.30112720001488924,False,78,-1,0,0
Y2-S2-006K27,5,1066,AS,exp,34,↓,right,→,2.385939800180495,False,79,-1,0,0
Y2-S2-006K27,5,1067,AS,exp,33,↑,right,→,0.0011113998480141163,False,80,-1,0,0
Y2-S2-006K27,5,1068,AS,exp,44,←,right,→,0.3342600001487881,False,81,-1,0,0
Y2-S2-006K27,5,1069,AS,exp,34,→,right,→,0.2511045001447201,True,82,-1,0,0
Y2-S2-006K27,5,1070,AS,exp,49,↑,right,→,0.16797740012407303,False,82,-1,0,0
Y2-S2-006K27,5,1071,AS,exp,31,←,right,→,0.18441299977712333,False,83,-1,0,0
Y2-S2-006K27,5,1072,AS,exp,32,→,right,→,0.16753900004550815,True,84,-1,0,0
Y2-S2-006K27,5,1073,AS,exp,36,←,right,→,0.5010355999693274,False,84,-1,0,0
Y2-S2-006K27,5,1074,AS,exp,48,↓,right,→,0.5689526000060141,False,85,-1,0,0
Y2-S2-006K27,5,1075,AS,exp,40,←,right,→,0.18455419992096722,False,86,-1,0,0
Y2-S2-006K27,5,1076,AS,exp,40,↑,right,→,0.383866700110957,False,87,-1,0,0
Y2-S2-006K27,5,1077,AS,exp,30,←,right,→,0.05120330001227558,False,88,-1,0,0
Y2-S2-006K27,5,1078,AS,exp,26,↑,right,→,1.0009177001193166,False,89,-1,0,0
Y2-S2-006K27,5,1079,AS,exp,29,←,right,→,1.0845003998838365,False,90,-1,0,0
Y2-S2-006K27,5,1080,AS,exp,39,→,right,→,0.48465260001830757,True,91,-1,0,0
Y2-S2-006K27,5,1081,AS,exp,31,↑,right,→,0.033999300096184015,False,91,-1,0,0
Y2-S2-006K27,5,1082,AS,exp,39,↓,right,→,0.18429039977490902,False,92,-1,0,0
Y2-S2-006K27,5,1083,AS,exp,39,←,right,→,0.5519302999600768,False,93,-1,0,0
Y2-S2-006K27,5,1084,AS,exp,42,↓,down,↓,0.7840611999854445,True,94,-1,0,0
Y2-S2-006K27,5,1085,AS,exp,41,↑,up,↑,1.5672432000283152,True,94,-1,0,0
Y2-S2-006K27,5,1086,AS,exp,48,→,right,→,1.084618299966678,True,94,1,1,1
Y2-S2-006K27,5,1087,AS,exp,30,↑,up,↑,0.6342476001009345,True,93,1,0,1
Y2-S2-006K27,5,1088,AS,exp,40,→,up,↑,0.21805959986522794,False,93,-1,1,2
Y2-S2-006K27,5,1089,AS,exp,37,↓,up,↑,0.06747979996725917,False,94,-1,0,2
Y2-S2-006K27,5,1090,AS,exp,32,→,up,↑,0.23455639998428524,False,95,-1,0,2
Y2-S2-006K27,5,1091,AS,exp,43,←,up,↑,0.16798459994606674,False,96,-1,0,2
Y2-S2-006K27,5,1092,AS,exp,27,→,up,↑,0.051168999867513776,False,97,-1,0,2
Y2-S2-006K27,5,1093,AS,exp,36,←,up,↑,0.017734399996697903,False,98,-1,0,2
Y2-S2-006K27,5,1094,AS,exp,50,↑,up,↑,0.0678790002129972,True,99,-1,0,2
Y2-S2-006K27,5,1095,AS,exp,39,←,up,↑,0.1843565998133272,False,99,-1,0,2
Y2-S2-006K27,5,1096,AS,exp,45,↓,up,↑,0.15146910003386438,False,100,-1,0,2
Y2-S2-006K27,5,1097,AS,exp,27,←,up,↑,0.2173425001092255,False,101,-1,0,2
Y2-S2-006K27,5,1098,AS,exp,50,↑,up,↑,0.6013098999392241,True,102,-1,0,2
Y2-S2-006K27,5,1099,AS,exp,48,↓,up,↑,0.06791900005191565,False,102,-1,0,2
Y2-S2-006K27,5,1100,AS,exp,47,↑,up,↑,0.050882000010460615,True,103,-1,0,2
Y2-S2-006K27,5,1101,AS,exp,45,→,up,↑,0.16767079988494515,False,103,-1,0,2
Y2-S2-006K27,5,1102,AS,exp,48,↑,up,↑,0.10082950000651181,True,104,-1,0,2
Y2-S2-006K27,5,1103,AS,exp,48,←,up,↑,0.13446089997887611,False,104,-1,0,2
Y2-S2-006K27,5,1104,AS,exp,25,↓,up,↑,0.11772879981435835,False,105,-1,0,2
Y2-S2-006K27,5,1105,AS,exp,49,←,up,↑,0.08452309994027019,False,106,-1,0,2
Y2-S2-006K27,5,1106,AS,exp,37,↓,up,↑,0.11734330002218485,False,107,-1,0,2
Y2-S2-006K27,5,1107,AS,exp,45,→,up,↑,0.13456279993988574,False,108,-1,0,2
Y2-S2-006K27,5,1108,AS,exp,50,←,up,↑,0.06756639992818236,False,109,-1,0,2
Y2-S2-006K27,5,1109,AS,exp,29,↑,up,↑,0.21761719998903573,True,110,-1,0,2
Y2-S2-006K27,5,1110,AS,exp,44,→,up,↑,0.13454529992304742,False,110,-1,0,2
Y2-S2-006K27,5,1111,AS,exp,35,←,up,↑,0.05123659991659224,False,111,-1,0,2
Y2-S2-006K27,5,1112,AS,exp,34,→,up,↑,0.017505399882793427,False,112,-1,0,2
Y2-S2-006K27,5,1113,AS,exp,36,↓,up,↑,0.0011347001418471336,False,113,-1,0,2
Y2-S2-006K27,5,1114,AS,exp,43,←,up,↑,0.11774939997121692,False,114,-1,0,2
Y2-S2-006K27,5,1115,AS,exp,37,→,up,↑,0.0677676999475807,False,115,-1,0,2
Y2-S2-006K27,5,1116,AS,exp,32,↓,up,↑,0.10130930016748607,False,116,-1,0,2
Y2-S2-006K27,5,1117,AS,exp,36,→,up,↑,0.0012157999444752932,False,117,-1,0,2
Y2-S2-006K27,5,1118,AS,exp,28,↓,up,↑,0.18486639996990561,False,118,-1,0,2
Y2-S2-006K27,5,1119,AS,exp,34,↑,up,↑,0.5177858001552522,True,119,-1,0,2
Y2-S2-006K27,5,1120,AS,exp,25,←,up,↑,0.0011605999898165464,False,119,-1,0,2
Y2-S2-006K27,5,1121,AS,exp,26,↑,up,↑,0.23441080003976822,True,120,-1,0,2
Y2-S2-006K27,5,1122,AS,exp,28,→,up,↑,0.01766609982587397,False,120,-1,0,2
Y2-S2-006K27,5,1123,AS,exp,48,←,up,↑,0.7175831999629736,False,121,-1,0,2
Y2-S2-006K27,5,1124,AS,exp,29,→,up,↑,0.2669556001201272,False,122,-1,0,2
Y2-S2-006K27,5,1125,AS,exp,42,←,up,↑,0.11778219998814166,False,123,-1,0,2
Y2-S2-006K27,5,1126,AS,exp,36,↑,up,↑,0.13446770003065467,True,124,-1,0,2
Y2-S2-006K27,5,1127,AS,exp,42,→,up,↑,0.00112139992415905,False,124,-1,0,2
Y2-S2-006K27,5,1128,AS,exp,49,↑,up,↑,0.5177800001110882,True,125,-1,0,2
Y2-S2-006K27,5,1129,AS,exp,45,←,up,↑,0.03459729999303818,False,125,-1,0,2
Y2-S2-006K27,5,1130,AS,exp,43,↓,up,↑,0.10132419993169606,False,126,-1,0,2
Y2-S2-006K27,5,1131,AS,exp,35,←,up,↑,0.3343395001720637,False,127,-1,0,2
Y2-S2-006K27,5,1132,AS,exp,50,↑,up,↑,0.03525009984150529,True,128,-1,0,2
Y2-S2-006K27,5,1133,AS,exp,47,↓,up,↑,0.10113679990172386,False,128,-1,0,2
Y2-S2-006K27,5,1134,AS,exp,30,←,up,↑,0.08427480002865195,False,129,-1,0,2
Y2-S2-006K27,5,1135,AS,exp,30,↓,up,↑,0.18407880002632737,False,130,-1,0,2
Y2-S2-006K27,5,1136,AS,exp,45,←,up,↑,1.0843509999103844,False,131,-1,0,2
Y2-S2-006K27,5,1137,AS,exp,28,↑,up,↑,0.28403969993814826,True,132,-1,0,2
Y2-S2-006K27,5,1138,AS,exp,36,→,up,↑,0.01760290004312992,False,132,-1,0,2
Y2-S2-006K27,5,1139,AS,exp,42,↑,up,↑,0.03435020009055734,True,133,-1,0,2
Y2-S2-006K27,5,1140,AS,exp,44,↓,up,↑,0.051346899941563606,False,133,-1,0,2
Y2-S2-006K27,5,1141,AS,exp,27,←,up,↑,1.3679599000606686,False,134,-1,0,2
Y2-S2-006K27,5,1142,AS,exp,43,↑,up,↑,0.03441660013049841,True,135,-1,0,2
Y2-S2-006K27,5,1143,AS,exp,31,←,up,↑,0.03444890002720058,False,135,-1,0,2
Y2-S2-006K27,5,1144,AS,exp,37,↓,up,↑,0.0011279999744147062,False,136,-1,0,2
Y2-S2-006K27,5,1145,AS,exp,38,←,up,↑,0.2177411001175642,False,137,-1,0,2
Y2-S2-006K27,5,1146,AS,exp,46,↓,up,↑,0.10076539986766875,False,138,-1,0,2
Y2-S2-006K27,5,1147,AS,exp,46,→,up,↑,1.13441830012016,False,139,-1,0,2
Y2-S2-006K27,5,1148,AS,exp,40,↑,up,↑,1.285345499869436,True,140,-1,0,2
Y2-S2-006K27,5,1149,AS,exp,45,→,right,→,0.8509844001382589,True,140,-1,0,2
Y2-S2-006K27,5,1150,AS,exp,43,↓,right,→,1.5177972000092268,False,140,-1,0,2
Y2-S2-006K27,5,1151,AS,exp,26,→,right,→,0.001500499900430441,True,141,-1,0,2
Y2-S2-006K27,5,1152,AS,exp,41,↓,right,→,0.1847236999310553,False,141,-1,0,2
Y2-S2-006K27,5,1153,AS,exp,31,←,right,→,0.06787140015512705,False,142,-1,0,2
Y2-S2-006K27,5,1154,AS,exp,47,→,right,→,0.0011522998102009296,True,143,-1,0,2
Y2-S2-006K27,5,1155,AS,exp,43,↑,right,→,0.28439030004665256,False,143,-1,0,2
Y2-S2-006K27,5,1156,AS,exp,47,↓,right,→,0.4679487000685185,False,144,-1,0,2
Y2-S2-006K27,5,1157,AS,exp,46,↑,right,→,0.6343842002097517,False,145,-1,0,2
Y2-S2-006K27,5,1158,AS,exp,43,↓,right,→,0.0012008000630885363,False,146,-1,0,2
Y2-S2-006K27,5,1159,AS,exp,26,→,right,→,0.11803320003673434,True,147,-1,0,2
Y2-S2-006K27,5,1160,AS,exp,25,↑,right,→,0.2508533999789506,False,147,-1,0,2
Y2-S2-006K27,5,1161,AS,exp,44,→,right,→,0.16748960013501346,True,148,-1,0,2
Y2-S2-006K27,5,1162,AS,exp,26,↓,right,→,0.5675826000515372,False,148,-1,0,2
Y2-S2-006K27,5,1163,AS,exp,44,↑,right,→,0.16701690014451742,False,149,-1,0,2
Y2-S2-006K27,5,1164,AS,exp,47,→,up,↑,0.6343219999689609,False,150,-1,0,2
Y2-S2-006K27,5,1165,AS,exp,44,←,left,←,1.2504272998776287,True,151,-1,0,2
Y2-S2-006K27,5,1166,AS,exp,48,→,right,→,0.9345876001752913,True,151,-1,0,2
Y2-S2-006K27,5,1167,AS,exp,41,←,no_key,no_letter,-1.0,False,151,-1,0,2
Y2-S2-006K27,5,1168,AS,exp,43,→,right,→,0.5179089000448585,True,152,-1,0,2
Y2-S2-006K27,5,1169,AS,exp,40,↓,right,→,1.0014246997889131,False,152,-1,0,2
Y2-S2-006K27,5,1170,AS,exp,40,→,right,→,1.6510121000465006,True,153,-1,0,2
Y2-S2-006K27,5,1171,AS,exp,35,↑,right,→,0.3842226001434028,False,153,-1,0,2
Y2-S2-006K27,5,1172,AS,exp,48,↓,right,→,0.21780139999464154,False,154,-1,0,2
Y2-S2-006K27,5,1173,AS,exp,37,←,right,→,0.2841765000484884,False,155,-1,0,2
Y2-S2-006K27,5,1174,AS,exp,25,→,right,→,3.7988738999702036,True,156,-1,0,2
Y2-S2-006K27,5,1175,AS,exp,38,↓,right,→,0.0011702000629156828,False,156,-1,0,2
Y2-S2-006K27,5,1176,AS,exp,30,↑,right,→,0.2509016999974847,False,157,-1,0,2
Y2-S2-006K27,5,1177,AS,exp,44,←,right,→,2.717106399824843,False,158,-1,0,2
Y2-S2-006K27,5,1178,AS,exp,43,↓,right,→,2.2012676999438554,False,159,-1,0,2
Y2-S2-006K27,5,1179,AS,exp,37,↑,right,→,0.016982499975711107,False,160,-1,0,2
Y2-S2-006K27,5,1180,AS,exp,34,→,right,→,0.7008856001775712,True,161,-1,0,2
Y2-S2-006K27,5,1181,AS,exp,32,↓,right,→,0.03449200000613928,False,161,-1,0,2
Y2-S2-006K27,5,1182,AS,exp,43,→,right,→,0.23470010003075004,True,162,-1,0,2
Y2-S2-006K27,5,1183,AS,exp,43,↓,right,→,0.18421199987642467,False,162,-1,0,2
Y2-S2-006K27,5,1184,AS,exp,43,→,right,→,0.051376399816945195,True,163,-1,0,2
Y2-S2-006K27,5,1185,AS,exp,36,←,no_key,no_letter,-1.0,False,163,-1,0,2
Y2-S2-006K27,5,1186,AS,exp,43,↓,right,→,1.6010445998981595,False,164,-1,0,2
Y2-S2-006K27,5,1187,AS,exp,43,↑,right,→,0.2842139999847859,False,165,-1,0,2
Y2-S2-006K27,5,1188,AS,exp,49,←,right,→,0.16806830000132322,False,166,-1,0,2
Y2-S2-006K27,5,1189,AS,exp,29,→,right,→,0.41749120014719665,True,167,-1,0,2
Y2-S2-006K27,5,1190,AS,exp,28,↓,right,→,0.45115940016694367,False,167,-1,0,2
Y2-S2-006K27,5,1191,AS,exp,48,→,right,→,0.3176613999530673,True,168,-1,0,2
Y2-S2-006K27,5,1192,AS,exp,43,↑,right,→,0.6678036001976579,False,168,-1,0,2
Y2-S2-006K27,5,1193,AS,exp,43,→,right,→,0.06787650007754564,True,169,-1,0,2
Y2-S2-006K27,5,1194,AS,exp,33,↑,right,→,0.384422600036487,False,169,-1,0,2
Y2-S2-006K27,5,1195,AS,exp,28,→,right,→,2.6014278999064118,True,170,-1,0,2
Y2-S2-006K27,5,1196,AS,exp,30,↑,up,↑,1.3513669001404196,True,170,-1,0,2
Y2-S2-006K27,5,1197,AS,exp,38,→,up,↑,0.1183114000596106,False,170,-1,0,2
Y2-S2-006K27,5,1198,AS,exp,44,↓,up,↑,0.6514220000244677,False,171,-1,0,2
Y2-S2-006K27,5,1199,AS,exp,46,↑,up,↑,0.08464149991050363,True,172,-1,0,2
Y2-S2-006K27,5,1200,AS,exp,41,←,up,↑,0.23443089984357357,False,172,-1,0,2
Y2-S2-006K27,5,1201,AS,exp,30,↓,up,↑,0.10136100021190941,False,173,-1,0,2
Y2-S2-006K27,5,1202,AS,exp,32,↑,up,↑,1.901205100119114,True,174,-1,0,2
Y2-S2-006K27,5,1203,AS,exp,30,↓,up,↑,0.18423690018244088,False,174,-1,0,2
Y2-S2-006K27,5,1204,AS,exp,38,↑,up,↑,0.784712899941951,True,175,-1,0,2
Y2-S2-006K27,5,1205,AS,exp,37,↓,up,↑,0.21748539991676807,False,175,-1,0,2
Y2-S2-006K27,5,1206,AS,exp,26,→,no_key,no_letter,-1.0,False,176,-1,0,2
Y2-S2-006K27,5,1207,AS,exp,46,←,up,↑,0.10122860013507307,False,177,-1,0,2
Y2-S2-006K27,5,1208,AS,exp,38,↓,up,↑,0.2843432000372559,False,178,-1,0,2
Y2-S2-006K27,5,1209,AS,exp,44,↑,up,↑,1.6010964999441057,True,179,-1,0,2
Y2-S2-006K27,5,1210,AS,exp,46,←,up,↑,1.7844891999848187,False,179,-1,0,2
Y2-S2-006K27,5,1211,AS,exp,34,↓,up,↑,0.15114440000616014,False,180,-1,0,2
Y2-S2-006K27,5,1212,AS,exp,45,←,up,↑,0.18452530005015433,False,181,-1,0,2
Y2-S2-006K27,5,1213,AS,exp,40,→,up,↑,0.18480340018868446,False,182,-1,0,2
Y2-S2-006K27,5,1214,AS,exp,32,←,no_key,no_letter,-1.0,False,183,-1,0,2
Y2-S2-006K27,5,1215,AS,exp,27,↑,up,↑,0.017768000019714236,True,184,-1,0,2
Y2-S2-006K27,5,1216,AS,exp,35,←,up,↑,0.5508357998915017,False,184,-1,0,2
Y2-S2-006K27,5,1217,AS,exp,26,↑,up,↑,0.001088300021365285,True,185,-1,0,2
Y2-S2-006K27,5,1218,AS,exp,38,↓,up,↑,0.13457469991408288,False,185,-1,0,2
Y2-S2-006K27,5,1219,AS,exp,29,↑,up,↑,0.16795269981957972,True,186,-1,0,2
Y2-S2-006K27,5,1220,AS,exp,50,←,up,↑,0.017938300035893917,False,186,-1,0,2
Y2-S2-006K27,5,1221,AS,exp,40,↑,up,↑,2.0175981000065804,True,187,-1,0,2
Y2-S2-006K27,5,1222,AS,exp,25,↓,down,↓,1.185045000165701,True,187,-1,0,2
Y2-S2-006K27,5,1223,AS,exp,32,→,up,↑,0.6010389998555183,False,187,-1,0,2
Y2-S2-006K27,5,1224,AS,exp,28,↓,no_key,no_letter,-1.0,False,188,-1,0,2
Y2-S2-006K27,5,1225,AS,exp,27,←,up,↑,2.5511427000164986,False,189,-1,0,2
Y2-S2-006K27,5,1226,AS,exp,25,→,up,↑,0.08431800012476742,False,190,-1,0,2
Y2-S2-006K27,5,1227,AS,exp,26,↑,up,↑,0.06772589986212552,True,191,-1,0,2
Y2-S2-006K27,5,1228,AS,exp,26,↓,up,↑,0.017655800096690655,False,191,-1,0,2
Y2-S2-006K27,5,1229,AS,exp,42,→,up,↑,0.11769809992983937,False,192,-1,0,2
Y2-S2-006K27,5,1230,AS,exp,35,↑,up,↑,0.11792119988240302,True,193,-1,0,2
Y2-S2-006K27,5,1231,AS,exp,34,↓,up,↑,1.7844895999878645,False,193,-1,0,2
Y2-S2-006K27,5,1232,AS,exp,46,↑,up,↑,0.23427650006487966,True,194,-1,0,2
Y2-S2-006K27,5,1233,AS,exp,47,←,up,↑,1.3010036998894066,False,194,-1,0,2
Y2-S2-006K27,5,1234,AS,exp,48,→,right,→,1.1846850998699665,True,195,-1,0,2
Y2-S2-006K27,5,1235,AS,exp,35,↓,down,↓,1.5513343999627978,True,195,-1,0,2
Y2-S2-006K27,5,1236,AS,exp,48,←,left,←,1.2677258998155594,True,195,1,1,3
Y2-S2-006K27,5,1237,AS,exp,45,→,right,→,1.3175864000804722,True,194,1,0,3
Y2-S2-006K27,5,1238,AS,exp,37,←,left,←,0.7682472001761198,True,194,1,0,3
Y2-S2-006K27,5,1239,AS,exp,27,↓,down,↓,1.0345383000094444,True,194,1,0,3
Y2-S2-006K27,5,1240,AS,exp,39,→,right,→,1.5514696000609547,True,193,1,0,3
Y2-S2-006K27,5,1241,AS,exp,34,↑,up,↑,0.8180209000129253,True,193,1,0,3
Y2-S2-006K27,5,1242,AS,exp,37,←,right,→,0.7844213000498712,False,193,-1,1,4
Y2-S2-006K27,5,1243,AS,exp,30,↑,right,→,0.26798029989004135,False,194,-1,0,4
Y2-S2-006K27,5,1244,AS,exp,25,→,right,→,4.0776575999334455,True,195,-1,0,4
Y2-S2-006K27,5,1245,AS,exp,49,↓,right,→,0.7346896999515593,False,195,-1,0,4
Y2-S2-006K27,5,1246,AS,exp,31,↑,no_key,no_letter,-1.0,False,196,-1,0,4
Y2-S2-006K27,5,1247,AS,exp,40,→,right,→,0.6013153998646885,True,197,-1,0,4
Y2-S2-006K27,5,1248,AS,exp,50,↓,right,→,0.16824740008451045,False,197,-1,0,4
Y2-S2-006K27,5,1249,AS,exp,40,→,right,→,0.5676877999212593,True,198,-1,0,4
Y2-S2-006K27,5,1250,AS,exp,31,←,right,→,0.5509385000914335,False,198,-1,0,4
Y2-S2-006K27,5,1251,AS,exp,29,↑,right,→,1.151087700156495,False,199,-1,0,4
Y2-S2-006K27,5,1252,AS,exp,33,→,right,→,0.4011516999453306,True,200,-1,0,4
Y2-S2-006K27,5,1253,AS,exp,36,↑,no_key,no_letter,-1.0,False,200,-1,0,4
Y2-S2-006K27,5,1254,AS,exp,29,↓,right,→,4.195724700111896,False,201,-1,0,4
Y2-S2-006K27,5,1255,AS,exp,40,←,right,→,0.46791380015201867,False,202,-1,0,4
Y2-S2-006K27,5,1256,AS,exp,30,→,right,→,0.0011517999228090048,True,203,-1,0,4
Y2-S2-006K27,5,1257,AS,exp,27,↓,right,→,0.31766370008699596,False,203,-1,0,4
Y2-S2-006K27,5,1258,AS,exp,40,→,right,→,0.16747620003297925,True,204,-1,0,4
Y2-S2-006K27,5,1259,AS,exp,42,←,right,→,0.001168800052255392,False,204,-1,0,4
Y2-S2-006K27,5,1260,AS,exp,44,→,right,→,0.4846743999514729,True,205,-1,0,4
Y2-S2-006K27,5,1261,AS,exp,27,↑,right,→,0.13363689999096096,False,205,-1,0,4
Y2-S2-006K27,5,1262,AS,exp,34,←,right,→,0.18467009998857975,False,206,-1,0,4
Y2-S2-006K27,5,1263,AS,exp,47,↑,right,→,0.3844018999952823,False,207,-1,0,4
Y2-S2-006K27,5,1264,AS,exp,40,←,up,↑,0.15096860006451607,False,208,-1,0,4
Y2-S2-006K27,5,1265,AS,exp,44,→,right,→,0.41732620005495846,True,209,-1,0,4
Y2-S2-006K27,5,1266,AS,exp,48,↓,right,→,0.7009217999875546,False,209,-1,0,4
Y2-S2-006K27,5,1267,AS,exp,30,→,right,→,0.9177270999643952,True,210,-1,0,4
Y2-S2-006K27,5,1268,AS,exp,49,←,right,→,1.8180366000160575,False,210,-1,0,4
Y2-S2-006K27,5,1269,AS,exp,39,→,right,→,1.0509798000566661,True,211,-1,0,4
Y2-S2-006K27,5,1270,AS,exp,38,↑,up,↑,0.7011718999128789,True,211,-1,0,4
Y2-S2-006K27,5,1271,AS,exp,46,↓,up,↑,0.7512116001453251,False,211,-1,0,4
Y2-S2-006K27,5,1272,AS,exp,33,↑,no_key,no_letter,-1.0,False,212,-1,0,4
Y2-S2-006K27,5,1273,AS,exp,28,→,right,→,0.451152800116688,True,213,-1,0,4
Y2-S2-006K27,5,1274,AS,exp,40,↓,right,→,0.8342047999612987,False,213,-1,0,4
Y2-S2-006K27,5,1275,AS,exp,30,↑,right,→,0.5178402999881655,False,214,-1,0,4
Y2-S2-006K27,5,1276,AS,exp,30,←,right,→,0.45124760014005005,False,215,-1,0,4
Y2-S2-006K27,5,1277,AS,exp,39,↑,right,→,0.5846275000367314,False,216,-1,0,4
Y2-S2-006K27,5,1278,AS,exp,25,→,right,→,0.25113320001401007,True,217,-1,0,4
Y2-S2-006K27,5,1279,AS,exp,49,←,right,→,0.40136880008503795,False,217,-1,0,4
Y2-S2-006K27,5,1280,AS,exp,49,→,right,→,0.6013972999062389,True,218,-1,0,4
Y2-S2-006K27,5,1281,AS,exp,37,↑,right,→,0.03419509995728731,False,218,-1,0,4
Y2-S2-006K27,5,1282,AS,exp,45,↓,no_key,no_letter,-1.0,False,219,-1,0,4
Y2-S2-006K27,5,1283,AS,exp,42,↑,right,→,0.7345855000894517,False,220,-1,0,4
Y2-S2-006K27,5,1284,AS,exp,39,→,right,→,0.884776699822396,True,221,-1,0,4
Y2-S2-006K27,5,1285,AS,exp,49,↑,up,↑,1.651037700008601,True,221,-1,0,4
Y2-S2-006K27,5,1286,AS,exp,25,←,left,←,2.734538499964401,True,221,1,1,5
Y2-S2-006K27,5,1287,AS,exp,25,→,right,→,1.2008756001014262,True,220,1,0,5
Y2-S2-006K27,5,1288,AS,exp,33,←,left,←,1.0846619999501854,True,220,1,0,5
Y2-S2-006K27,5,1289,AS,exp,26,↓,down,↓,1.0180905999150127,True,220,1,0,5
Y2-S2-006K27,5,1290,AS,exp,29,↑,up,↑,1.351075500017032,True,219,1,0,5
Y2-S2-006K27,5,1291,AS,exp,40,→,right,→,0.6344751000870019,True,219,1,0,5
Y2-S2-006K27,5,1292,AS,exp,43,↓,down,↓,1.3012885001953691,True,219,1,0,5
Y2-S2-006K27,5,1293,AS,exp,29,→,right,→,0.9512547999620438,True,218,1,0,5
Y2-S2-006K27,5,1294,AS,exp,30,↑,up,↑,1.1514224000275135,True,218,1,0,5
Y2-S2-006K27,5,1295,AS,exp,46,←,left,←,0.717572099994868,True,218,1,0,5
Y2-S2-006K27,5,1296,AS,exp,33,→,right,→,0.7178435001987964,True,217,1,0,5
Y2-S2-006K27,5,1297,AS,exp,45,↑,up,↑,0.9176851999945939,True,217,1,0,5
Y2-S2-006K27,5,1298,AS,exp,29,→,right,→,0.6510310999583453,True,217,1,0,5
Y2-S2-006K27,5,1299,AS,exp,40,↑,up,↑,1.0677641001529992,True,216,1,0,5
Y2-S2-006K27,5,1300,AS,exp,31,↓,down,↓,1.2012130001094192,True,216,1,0,5
Y2-S2-006K27,5,1301,AS,exp,28,→,right,→,0.7346066001337022,True,216,1,0,5
Y2-S2-006K27,5,1302,AS,exp,50,↓,down,↓,1.4508577999658883,True,215,1,0,5
Y2-S2-006K27,5,1303,AS,exp,46,←,left,←,0.7508350999560207,True,215,1,0,5
Y2-S2-006K27,5,1304,AS,exp,31,→,right,→,0.7676601000130177,True,215,1,0,5
Y2-S2-006K27,5,1305,AS,exp,33,↑,up,↑,1.1841468999627978,True,214,1,0,5
Y2-S2-006K27,5,1306,AS,exp,42,←,left,←,0.7013203999958932,True,214,1,0,5
Y2-S2-006K27,5,1307,AS,exp,47,↑,up,↑,1.2847487998660654,True,214,1,0,5
Y2-S2-006K27,5,1308,AS,exp,37,↓,down,↓,1.301066700136289,True,213,1,0,5
Y2-S2-006K27,5,1309,AS,exp,38,↑,up,↑,0.9508958000224084,True,213,1,0,5
Y2-S2-006K27,5,1310,AS,exp,29,←,left,←,1.6345698998775333,True,213,1,0,5
Y2-S2-006K27,5,1311,AS,exp,27,↑,up,↑,0.9349237000569701,True,212,1,0,5
Y2-S2-006K27,5,1312,AS,exp,31,→,right,→,0.9343226999044418,True,212,1,0,5
Y2-S2-006K27,5,1313,AS,exp,50,↓,down,↓,0.75130490004085,True,212,1,0,5
Y2-S2-006K27,5,1314,AS,exp,26,←,left,←,1.317990900017321,True,211,1,0,5
Y2-S2-006K27,5,1315,AS,exp,38,→,right,→,0.7512862000148743,True,211,1,0,5
Y2-S2-006K27,5,1316,AS,exp,31,↑,up,↑,1.7011814001016319,True,211,1,0,5
Y2-S2-006K27,5,1317,AS,exp,30,↓,down,↓,1.2008233000524342,True,210,1,0,5
Y2-S2-006K27,5,1318,AS,exp,31,→,right,→,1.0510966998990625,True,210,1,0,5
Y2-S2-006K27,5,1319,AS,exp,41,↑,up,↑,1.517667799955234,True,210,1,0,5
Y2-S2-006K27,5,1320,AS,exp,34,→,right,→,0.8180194001179188,True,209,1,0,5
Y2-S2-006K27,5,1321,AS,exp,33,↑,up,↑,0.9846042999997735,True,209,1,0,5
Y2-S2-006K27,5,1322,AS,exp,26,→,up,↑,0.5178939001634717,False,209,-1,1,6
Y2-S2-006K27,5,1323,AS,exp,38,↑,up,↑,0.15103389997966588,True,210,-1,0,6
Y2-S2-006K27,5,1324,AS,exp,32,↓,up,↑,0.20110829989425838,False,210,-1,0,6
Y2-S2-006K27,5,1325,AS,exp,48,→,up,↑,0.834911199985072,False,211,-1,0,6
Y2-S2-006K27,5,1326,AS,exp,34,←,up,↑,0.03487450000829995,False,212,-1,0,6
Y2-S2-006K27,5,1327,AS,exp,28,→,up,↑,0.08433440001681447,False,213,-1,0,6
Y2-S2-006K27,5,1328,AS,exp,38,↓,up,↑,0.08467629994265735,False,214,-1,0,6
Y2-S2-006K27,5,1329,AS,exp,39,↑,up,↑,0.0011070999316871166,True,215,-1,0,6
Y2-S2-006K27,5,1330,AS,exp,49,→,up,↑,0.11759319994598627,False,215,-1,0,6
Y2-S2-006K27,5,1331,AS,exp,30,↓,up,↑,0.08468800014816225,False,216,-1,0,6
Y2-S2-006K27,5,1332,AS,exp,50,←,up,↑,0.018051400082185864,False,217,-1,0,6
Y2-S2-006K27,5,1333,AS,exp,32,→,up,↑,0.15109959989786148,False,218,-1,0,6
Y2-S2-006K27,5,1334,AS,exp,26,↓,up,↑,0.3175517001654953,False,219,-1,0,6
Y2-S2-006K27,5,1335,AS,exp,32,↑,up,↑,3.217699100030586,True,220,-1,0,6
