PART_ID,Block_no,Trial_no,Block_type,Trial_type,CSI,Stim_letter,Key_pressed,letter_choose,Rt,Corr,Stimulus Time,Level,Reversal,Revs_count
Y2-S2-096K22,1,1,PS,train,30,→,left,←,1.8228298000176437,False,30,-,-,-
Y2-S2-096K22,1,2,PS,train,43,←,no_key,no_letter,-1.0,False,30,-,-,-
Y2-S2-096K22,1,3,PS,train,25,↓,down,↓,0.7307000999862794,True,30,-,-,-
Y2-S2-096K22,1,4,PS,train,39,→,right,→,0.710416299989447,True,30,-,-,-
Y2-S2-096K22,1,5,PS,train,26,←,left,←,0.6339149000123143,True,30,-,-,-
Y2-S2-096K22,1,6,PS,train,49,→,right,→,0.87471989999176,True,30,-,-,-
Y2-S2-096K22,1,7,PS,train,42,↓,left,←,1.082134500000393,False,30,-,-,-
Y2-S2-096K22,1,8,PS,train,30,→,right,→,0.9434493000153452,True,30,-,-,-
Y2-S2-096K22,1,9,PS,train,33,↓,down,↓,0.8908419999934267,True,30,-,-,-
Y2-S2-096K22,1,10,PS,train,38,→,right,→,0.6339900000020862,True,30,-,-,-
Y2-S2-096K22,2,11,AS,train,33,↓,down,↓,0.8337063000071794,True,45,-,-,-
Y2-S2-096K22,2,12,AS,train,34,↑,up,↑,0.9181340999784879,True,45,-,-,-
Y2-S2-096K22,2,13,AS,train,50,←,left,←,0.9775109000038356,True,45,-,-,-
Y2-S2-096K22,2,14,AS,train,28,↓,down,↓,0.7671886000025552,True,45,-,-,-
Y2-S2-096K22,2,15,AS,train,25,→,right,→,0.7339983999845572,True,45,-,-,-
Y2-S2-096K22,2,16,AS,train,41,←,left,←,0.7008578999957535,True,45,-,-,-
Y2-S2-096K22,2,17,AS,train,31,→,right,→,0.7177254999987781,True,45,-,-,-
Y2-S2-096K22,2,18,AS,train,26,↑,up,↑,0.7839719999756198,True,45,-,-,-
Y2-S2-096K22,2,19,AS,train,46,→,right,→,0.8508925999922212,True,45,-,-,-
Y2-S2-096K22,2,20,AS,train,27,↓,down,↓,0.7507352999818977,True,45,-,-,-
Y2-S2-096K22,-,21,PS,adaptive,43,←,left,←,0.9613338999915868,True,10,0,0,0
Y2-S2-096K22,-,22,PS,adaptive,29,→,right,→,0.7108490999962669,True,10,0,0,0
Y2-S2-096K22,-,23,PS,adaptive,36,←,left,←,0.5379896000085864,True,10,1,0,0
Y2-S2-096K22,-,24,PS,adaptive,26,→,right,→,0.5424246999900788,True,9,1,0,0
Y2-S2-096K22,-,25,PS,adaptive,34,←,left,←,0.4644968999782577,True,9,1,0,0
Y2-S2-096K22,-,26,PS,adaptive,34,↓,right,→,0.8218757000286132,False,9,-1,1,1
Y2-S2-096K22,-,27,PS,adaptive,50,→,right,→,1.3703290999983437,True,10,-1,0,1
Y2-S2-096K22,-,28,PS,adaptive,46,↑,left,←,1.5527581000060309,False,10,-1,0,1
Y2-S2-096K22,-,29,PS,adaptive,42,→,right,→,0.5609955000109039,True,11,-1,0,1
Y2-S2-096K22,-,30,PS,adaptive,25,↓,down,↓,0.7848231999960262,True,11,-1,0,1
Y2-S2-096K22,-,31,PS,adaptive,43,↑,up,↑,0.6499276999966241,True,11,1,1,2
Y2-S2-096K22,-,32,PS,adaptive,29,↓,down,↓,0.7943954000074882,True,10,1,0,2
Y2-S2-096K22,-,33,PS,adaptive,36,↑,left,←,0.7312456999788992,False,10,-1,1,3
Y2-S2-096K22,-,34,PS,adaptive,38,↓,left,←,0.7204986999859102,False,11,-1,0,3
Y2-S2-096K22,-,35,PS,adaptive,36,↑,left,←,0.812304299994139,False,12,-1,0,3
Y2-S2-096K22,-,36,PS,adaptive,35,↓,down,↓,0.6317584000062197,True,13,-1,0,3
Y2-S2-096K22,-,37,PS,adaptive,30,→,left,←,1.0106006999849342,False,13,-1,0,3
Y2-S2-096K22,-,38,PS,adaptive,35,←,left,←,0.5544389999995474,True,14,-1,0,3
Y2-S2-096K22,-,39,PS,adaptive,27,↓,down,↓,0.6952374000102282,True,14,-1,0,3
Y2-S2-096K22,-,40,PS,adaptive,48,→,right,→,0.6638794000027701,True,14,1,1,4
Y2-S2-096K22,-,41,AS,adaptive,41,↓,down,↓,0.6570345000072848,True,20,0,0,0
Y2-S2-096K22,-,42,AS,adaptive,47,←,left,←,0.5678531999874394,True,20,0,0,0
Y2-S2-096K22,-,43,AS,adaptive,35,↑,up,↑,0.6665976000076625,True,20,1,0,0
Y2-S2-096K22,-,44,AS,adaptive,49,←,left,←,0.6037361999915447,True,19,1,0,0
Y2-S2-096K22,-,45,AS,adaptive,36,→,right,→,0.7098767999850679,True,19,1,0,0
Y2-S2-096K22,-,46,AS,adaptive,44,↓,down,↓,0.7420087999780662,True,19,1,0,0
Y2-S2-096K22,-,47,AS,adaptive,25,→,right,→,0.6206253000127617,True,18,1,0,0
Y2-S2-096K22,-,48,AS,adaptive,49,←,left,←,0.691591500013601,True,18,1,0,0
Y2-S2-096K22,-,49,AS,adaptive,48,↓,right,→,0.7394762000185438,False,18,-1,1,1
Y2-S2-096K22,-,50,AS,adaptive,35,→,right,→,0.7018171999952756,True,19,-1,0,1
Y2-S2-096K22,-,51,AS,adaptive,43,←,left,←,0.7115678999980446,True,19,-1,0,1
Y2-S2-096K22,-,52,AS,adaptive,40,↑,up,↑,1.025460100005148,True,19,1,1,2
Y2-S2-096K22,-,53,AS,adaptive,46,↓,up,↑,0.8741593000013381,False,18,-1,1,3
Y2-S2-096K22,-,54,AS,adaptive,25,←,left,←,0.8909503000031691,True,19,-1,0,3
Y2-S2-096K22,-,55,AS,adaptive,35,↑,up,↑,1.0808028999890666,True,19,-1,0,3
Y2-S2-096K22,-,56,AS,adaptive,29,←,left,←,0.6729641000274569,True,19,1,1,4
Y2-S2-096K22,1,57,PS,intra_train,47,↓,down,↓,0.6969919000111986,True,19,-,-,-
Y2-S2-096K22,1,58,PS,intra_train,41,→,down,↓,0.4175515999959316,False,19,-,-,-
Y2-S2-096K22,1,59,PS,intra_train,50,←,left,←,0.49508379999315366,True,19,-,-,-
Y2-S2-096K22,1,60,PS,intra_train,46,↑,up,↑,0.5775961000181269,True,19,-,-,-
Y2-S2-096K22,1,61,PS,intra_train,25,↓,down,↓,0.6695657999953255,True,19,-,-,-
Y2-S2-096K22,1,62,PS,exp,28,←,left,←,0.46755950001534075,True,13,0,0,0
Y2-S2-096K22,1,63,PS,exp,43,→,left,←,0.5732564999780152,False,13,-1,0,0
Y2-S2-096K22,1,64,PS,exp,40,←,left,←,0.6457099999825004,True,14,-1,0,0
Y2-S2-096K22,1,65,PS,exp,41,→,right,→,0.6028766999952495,True,14,-1,0,0
Y2-S2-096K22,1,66,PS,exp,46,↓,down,↓,0.48927950000506826,True,14,1,1,1
Y2-S2-096K22,1,67,PS,exp,30,→,right,→,0.5346122999908403,True,13,1,0,1
Y2-S2-096K22,1,68,PS,exp,43,↓,left,←,0.8192511999804992,False,13,-1,1,2
Y2-S2-096K22,1,69,PS,exp,32,↑,up,↑,0.603973599994788,True,14,-1,0,2
Y2-S2-096K22,1,70,PS,exp,44,↓,right,→,0.845239499991294,False,14,-1,0,2
Y2-S2-096K22,1,71,PS,exp,44,←,left,←,0.6577503999869805,True,15,-1,0,2
Y2-S2-096K22,1,72,PS,exp,34,↑,up,↑,0.5375325000204612,True,15,-1,0,2
Y2-S2-096K22,1,73,PS,exp,31,←,left,←,0.7218419999990147,True,15,1,1,3
Y2-S2-096K22,1,74,PS,exp,45,↓,down,↓,0.5790459999989253,True,14,1,0,3
Y2-S2-096K22,1,75,PS,exp,39,←,left,←,0.5400773999863304,True,14,1,0,3
Y2-S2-096K22,1,76,PS,exp,38,↑,up,↑,0.4973832000105176,True,14,1,0,3
Y2-S2-096K22,1,77,PS,exp,29,→,right,→,0.6053404999838676,True,13,1,0,3
Y2-S2-096K22,1,78,PS,exp,30,←,left,←,0.48802340001566336,True,13,1,0,3
Y2-S2-096K22,1,79,PS,exp,36,↑,up,↑,0.45561210002051666,True,13,1,0,3
Y2-S2-096K22,1,80,PS,exp,38,←,left,←,0.4618113999895286,True,12,1,0,3
Y2-S2-096K22,1,81,PS,exp,30,→,left,←,0.5578156000119634,False,12,-1,1,4
Y2-S2-096K22,1,82,PS,exp,38,↓,down,↓,0.6569113000005018,True,13,-1,0,4
Y2-S2-096K22,1,83,PS,exp,33,←,left,←,0.5202439000131562,True,13,-1,0,4
Y2-S2-096K22,1,84,PS,exp,37,↓,up,↑,1.1502119000069797,False,13,-1,0,4
Y2-S2-096K22,1,85,PS,exp,38,→,right,→,0.668164299975615,True,14,-1,0,4
Y2-S2-096K22,1,86,PS,exp,39,←,left,←,0.6517414000118151,True,14,-1,0,4
Y2-S2-096K22,1,87,PS,exp,39,↑,up,↑,0.547943799989298,True,14,1,1,5
Y2-S2-096K22,1,88,PS,exp,46,←,left,←,0.5628646000113804,True,13,1,0,5
Y2-S2-096K22,1,89,PS,exp,49,→,right,→,0.49675269998260774,True,13,1,0,5
Y2-S2-096K22,1,90,PS,exp,30,←,left,←,0.7065497000003234,True,13,1,0,5
Y2-S2-096K22,1,91,PS,exp,48,→,right,→,0.6464510999794584,True,12,1,0,5
Y2-S2-096K22,1,92,PS,exp,37,↓,down,↓,0.6781405999790877,True,12,1,0,5
Y2-S2-096K22,1,93,PS,exp,46,↑,left,←,0.8952222999942023,False,12,-1,1,6
Y2-S2-096K22,1,94,PS,exp,41,←,right,→,0.764341100002639,False,13,-1,0,6
Y2-S2-096K22,1,95,PS,exp,41,→,right,→,0.6658058000029996,True,14,-1,0,6
Y2-S2-096K22,1,96,PS,exp,46,↑,up,↑,0.6048802000004798,True,14,-1,0,6
Y2-S2-096K22,1,97,PS,exp,27,↓,down,↓,0.7057485000113957,True,14,1,1,7
Y2-S2-096K22,1,98,PS,exp,36,↑,up,↑,0.6487805999931879,True,13,1,0,7
Y2-S2-096K22,1,99,PS,exp,37,→,down,↓,1.8348130999947898,False,13,-1,1,8
Y2-S2-096K22,1,100,PS,exp,50,↓,down,↓,0.5782329000066966,True,14,-1,0,8
Y2-S2-096K22,1,101,PS,exp,35,↑,up,↑,0.6443054999981541,True,14,-1,0,8
Y2-S2-096K22,1,102,PS,exp,35,←,down,↓,1.417521499999566,False,14,-1,0,8
Y2-S2-096K22,1,103,PS,exp,47,↑,up,↑,0.7358395000046585,True,15,-1,0,8
Y2-S2-096K22,1,104,PS,exp,50,←,left,←,0.7353984999936074,True,15,-1,0,8
Y2-S2-096K22,1,105,PS,exp,32,↓,down,↓,0.5441682999953628,True,15,1,1,9
Y2-S2-096K22,1,106,PS,exp,30,←,left,←,0.569134400022449,True,14,1,0,9
Y2-S2-096K22,1,107,PS,exp,48,↑,down,↓,1.2551762999792118,False,14,-1,1,10
Y2-S2-096K22,1,108,PS,exp,40,↓,down,↓,0.5268859000061639,True,15,-1,0,10
Y2-S2-096K22,1,109,PS,exp,47,←,left,←,0.5809169999847654,True,15,-1,0,10
Y2-S2-096K22,1,110,PS,exp,31,→,right,→,0.7137046999996528,True,15,1,1,11
Y2-S2-096K22,1,111,PS,exp,40,←,left,←,0.4659646999789402,True,14,1,0,11
Y2-S2-096K22,1,112,PS,exp,49,↑,up,↑,0.5651478999934625,True,14,1,0,11
Y2-S2-096K22,1,113,PS,exp,43,→,right,→,0.7677613999985624,True,14,1,0,11
Y2-S2-096K22,1,114,PS,exp,50,←,left,←,0.7682762000185903,True,13,1,0,11
Y2-S2-096K22,1,115,PS,exp,37,→,right,→,0.6265573000127915,True,13,1,0,11
Y2-S2-096K22,1,116,PS,exp,30,↓,down,↓,0.6333851000235882,True,13,1,0,11
Y2-S2-096K22,1,117,PS,exp,49,↑,up,↑,0.5211870000057388,True,12,1,0,11
Y2-S2-096K22,1,118,PS,exp,38,↓,right,→,0.6518728000228293,False,12,-1,1,12
Y2-S2-096K22,1,119,PS,exp,43,→,right,→,0.5128354000044055,True,13,-1,0,12
Y2-S2-096K22,1,120,PS,exp,48,←,left,←,0.5613335000234656,True,13,-1,0,12
Y2-S2-096K22,1,121,PS,exp,41,→,right,→,0.4760504000005312,True,13,1,1,13
Y2-S2-096K22,1,122,PS,exp,38,↑,right,→,0.7542405000131112,False,12,-1,1,14
Y2-S2-096K22,1,123,PS,exp,25,←,left,←,0.5062564999971073,True,13,-1,0,14
Y2-S2-096K22,1,124,PS,exp,26,↑,up,↑,0.5603687000111677,True,13,-1,0,14
Y2-S2-096K22,1,125,PS,exp,28,←,left,←,0.5248474000254646,True,13,1,1,15
Y2-S2-096K22,1,126,PS,exp,27,↑,down,↓,1.001223500003107,False,12,-1,1,16
Y2-S2-096K22,2,127,AS,intra_train,34,←,left,←,0.6836213000060525,True,27,-,-,-
Y2-S2-096K22,2,128,AS,intra_train,25,↓,left,←,0.8558750000083819,False,27,-,-,-
Y2-S2-096K22,2,129,AS,intra_train,36,←,left,←,0.7809074999822769,True,27,-,-,-
Y2-S2-096K22,2,130,AS,intra_train,42,→,right,→,0.7832383000059053,True,27,-,-,-
Y2-S2-096K22,2,131,AS,intra_train,31,←,left,←,0.5837777999986429,True,27,-,-,-
Y2-S2-096K22,2,132,AS,exp,28,↓,down,↓,0.8085589999973308,True,18,0,0,0
Y2-S2-096K22,2,133,AS,exp,26,←,left,←,0.5400354999874253,True,18,0,0,0
Y2-S2-096K22,2,134,AS,exp,26,↓,down,↓,0.7109381000045687,True,18,1,0,0
Y2-S2-096K22,2,135,AS,exp,29,→,right,→,0.4956316000025254,True,17,1,0,0
Y2-S2-096K22,2,136,AS,exp,39,←,left,←,0.516177500016056,True,17,1,0,0
Y2-S2-096K22,2,137,AS,exp,35,↑,up,↑,0.5858176999900024,True,17,1,0,0
Y2-S2-096K22,2,138,AS,exp,41,→,right,→,0.5812287000007927,True,16,1,0,0
Y2-S2-096K22,2,139,AS,exp,49,↑,right,→,0.5107971999968868,False,16,-1,1,1
Y2-S2-096K22,2,140,AS,exp,25,→,up,↑,0.6598251000104938,False,17,-1,0,1
Y2-S2-096K22,2,141,AS,exp,27,←,left,←,0.5602064999984577,True,18,-1,0,1
Y2-S2-096K22,2,142,AS,exp,36,↓,down,↓,1.3908278000017162,True,18,-1,0,1
Y2-S2-096K22,2,143,AS,exp,41,→,right,→,0.6728013000101782,True,18,1,1,2
Y2-S2-096K22,2,144,AS,exp,46,←,left,←,0.5185520999948494,True,17,1,0,2
Y2-S2-096K22,2,145,AS,exp,43,↓,down,↓,0.7260705000080634,True,17,1,0,2
Y2-S2-096K22,2,146,AS,exp,46,←,left,←,0.5876227999979164,True,17,1,0,2
Y2-S2-096K22,2,147,AS,exp,25,→,left,←,1.1566668000014033,False,16,-1,1,3
Y2-S2-096K22,2,148,AS,exp,34,←,left,←,0.5601473999849986,True,17,-1,0,3
Y2-S2-096K22,2,149,AS,exp,40,→,right,→,0.7312623999896459,True,17,-1,0,3
Y2-S2-096K22,2,150,AS,exp,26,←,left,←,0.7850567999994382,True,17,1,1,4
Y2-S2-096K22,2,151,AS,exp,33,→,right,→,0.5982600999996066,True,16,1,0,4
Y2-S2-096K22,2,152,AS,exp,27,↓,down,↓,0.797343100013677,True,16,1,0,4
Y2-S2-096K22,2,153,AS,exp,35,→,down,↓,1.1139835999929346,False,16,-1,1,5
Y2-S2-096K22,2,154,AS,exp,33,←,left,←,0.554097099986393,True,17,-1,0,5
Y2-S2-096K22,2,155,AS,exp,45,↑,up,↑,0.5221853000111878,True,17,-1,0,5
Y2-S2-096K22,2,156,AS,exp,33,↓,right,→,0.6527114999771584,False,17,-1,0,5
Y2-S2-096K22,2,157,AS,exp,31,←,left,←,0.6465185999986716,True,18,-1,0,5
Y2-S2-096K22,2,158,AS,exp,50,↓,down,↓,0.6746799000247847,True,18,-1,0,5
Y2-S2-096K22,2,159,AS,exp,49,←,right,→,0.9096687999845017,False,18,-1,0,5
Y2-S2-096K22,2,160,AS,exp,41,↓,down,↓,0.7472995000134688,True,19,-1,0,5
Y2-S2-096K22,2,161,AS,exp,50,→,right,→,0.7749923999945167,True,19,-1,0,5
Y2-S2-096K22,2,162,AS,exp,42,←,left,←,0.8554083999770228,True,19,1,1,6
Y2-S2-096K22,2,163,AS,exp,25,↑,up,↑,1.0617425000236835,True,18,1,0,6
Y2-S2-096K22,2,164,AS,exp,43,→,right,→,0.7242894000082742,True,18,1,0,6
Y2-S2-096K22,2,165,AS,exp,36,↓,down,↓,0.6393224000057671,True,18,1,0,6
Y2-S2-096K22,2,166,AS,exp,41,→,right,→,0.5984079000190832,True,17,1,0,6
Y2-S2-096K22,2,167,AS,exp,38,↑,up,↑,0.776421799993841,True,17,1,0,6
Y2-S2-096K22,2,168,AS,exp,41,←,left,←,0.7925719000049867,True,17,1,0,6
Y2-S2-096K22,2,169,AS,exp,43,↑,right,→,1.192298900015885,False,16,-1,1,7
Y2-S2-096K22,2,170,AS,exp,41,→,right,→,0.5283271000080276,True,17,-1,0,7
Y2-S2-096K22,2,171,AS,exp,45,↓,down,↓,0.9426660999888554,True,17,-1,0,7
Y2-S2-096K22,2,172,AS,exp,48,←,left,←,0.6493042999936733,True,17,1,1,8
Y2-S2-096K22,2,173,AS,exp,43,↓,down,↓,0.5789181999862194,True,16,1,0,8
Y2-S2-096K22,2,174,AS,exp,44,←,left,←,0.6735240000125486,True,16,1,0,8
Y2-S2-096K22,2,175,AS,exp,38,↓,up,↑,1.1467020999989472,False,16,-1,1,9
Y2-S2-096K22,2,176,AS,exp,45,↑,up,↑,0.7415993000031449,True,17,-1,0,9
Y2-S2-096K22,2,177,AS,exp,43,↓,right,→,1.0436977999925148,False,17,-1,0,9
Y2-S2-096K22,2,178,AS,exp,46,←,left,←,0.9827136999811046,True,18,-1,0,9
Y2-S2-096K22,2,179,AS,exp,28,↑,right,→,1.208905900013633,False,18,-1,0,9
Y2-S2-096K22,2,180,AS,exp,49,←,left,←,0.7460298000078183,True,19,-1,0,9
Y2-S2-096K22,2,181,AS,exp,28,→,right,→,0.8211622000089847,True,19,-1,0,9
Y2-S2-096K22,2,182,AS,exp,32,←,no_key,no_letter,-1.0,False,19,-1,0,9
Y2-S2-096K22,2,183,AS,exp,45,↓,down,↓,0.7251883999851998,True,20,-1,0,9
Y2-S2-096K22,2,184,AS,exp,41,→,right,→,0.5935702999995556,True,20,-1,0,9
Y2-S2-096K22,2,185,AS,exp,47,↑,up,↑,1.0494056000025012,True,20,1,1,10
Y2-S2-096K22,2,186,AS,exp,45,←,left,←,0.6049118000082672,True,19,1,0,10
Y2-S2-096K22,2,187,AS,exp,40,↑,no_key,no_letter,-1.0,False,19,-1,1,11
Y2-S2-096K22,2,188,AS,exp,27,↓,down,↓,0.7861066000186838,True,20,-1,0,11
Y2-S2-096K22,2,189,AS,exp,41,→,right,→,0.5912906000157818,True,20,-1,0,11
Y2-S2-096K22,2,190,AS,exp,33,←,left,←,0.6272257000091486,True,20,1,1,12
Y2-S2-096K22,2,191,AS,exp,36,↑,up,↑,0.5931600999902003,True,19,1,0,12
Y2-S2-096K22,2,192,AS,exp,48,←,left,←,0.5202080000017304,True,19,1,0,12
Y2-S2-096K22,2,193,AS,exp,49,→,right,→,0.6050117999839131,True,19,1,0,12
Y2-S2-096K22,2,194,AS,exp,42,←,left,←,0.841690600005677,True,18,1,0,12
Y2-S2-096K22,2,195,AS,exp,31,↓,down,↓,0.8108523999981117,True,18,1,0,12
Y2-S2-096K22,2,196,AS,exp,30,↑,down,↓,1.2267816999810748,False,18,-1,1,13
Y2-S2-096K22,2,197,AS,exp,35,←,left,←,0.6515892999887001,True,19,-1,0,13
Y2-S2-096K22,2,198,AS,exp,47,↑,up,↑,0.6884914999827743,True,19,-1,0,13
Y2-S2-096K22,2,199,AS,exp,33,→,right,→,0.6100938000017777,True,19,1,1,14
Y2-S2-096K22,2,200,AS,exp,40,←,left,←,0.6779432000184897,True,18,1,0,14
Y2-S2-096K22,2,201,AS,exp,50,↓,down,↓,0.5934041000145953,True,18,1,0,14
Y2-S2-096K22,2,202,AS,exp,47,←,left,←,0.8589801000198349,True,18,1,0,14
Y2-S2-096K22,2,203,AS,exp,34,↑,down,↓,0.7786942000093404,False,17,-1,1,15
Y2-S2-096K22,2,204,AS,exp,45,←,left,←,0.7657000999897718,True,18,-1,0,15
Y2-S2-096K22,2,205,AS,exp,42,→,right,→,0.6858540000102948,True,18,-1,0,15
Y2-S2-096K22,2,206,AS,exp,46,←,left,←,0.5435384000011254,True,18,1,1,16
Y2-S2-096K22,3,207,AS,intra_train,41,↓,no_key,no_letter,-1.0,False,27,-,-,-
Y2-S2-096K22,3,208,AS,intra_train,37,←,left,←,0.7577123999944888,True,27,-,-,-
Y2-S2-096K22,3,209,AS,intra_train,31,↓,down,↓,0.8051845000009052,True,27,-,-,-
Y2-S2-096K22,3,210,AS,intra_train,27,←,left,←,0.7025388999900315,True,27,-,-,-
Y2-S2-096K22,3,211,AS,intra_train,44,→,right,→,0.5839640999911353,True,27,-,-,-
Y2-S2-096K22,3,212,AS,exp,34,↑,up,↑,0.668610799999442,True,18,0,0,0
Y2-S2-096K22,3,213,AS,exp,50,→,right,→,0.6548724000167567,True,18,0,0,0
Y2-S2-096K22,3,214,AS,exp,25,↓,down,↓,0.8807083000137936,True,18,1,0,0
Y2-S2-096K22,3,215,AS,exp,40,←,left,←,0.5817618000146467,True,17,1,0,0
Y2-S2-096K22,3,216,AS,exp,34,↓,down,↓,0.6617074000241701,True,17,1,0,0
Y2-S2-096K22,3,217,AS,exp,34,←,left,←,0.648976099997526,True,17,1,0,0
Y2-S2-096K22,3,218,AS,exp,46,→,right,→,0.7078004999784753,True,16,1,0,0
Y2-S2-096K22,3,219,AS,exp,47,←,left,←,1.3274600000004284,True,16,1,0,0
Y2-S2-096K22,3,220,AS,exp,46,↑,up,↑,0.8461645000206772,True,16,1,0,0
Y2-S2-096K22,3,221,AS,exp,40,→,right,→,0.8523889000061899,True,15,1,0,0
Y2-S2-096K22,3,222,AS,exp,44,↓,down,↓,0.9167562999937218,True,15,1,0,0
Y2-S2-096K22,3,223,AS,exp,42,→,right,→,0.7445259000232909,True,15,1,0,0
Y2-S2-096K22,3,224,AS,exp,38,↓,down,↓,0.6447034000011627,True,14,1,0,0
Y2-S2-096K22,3,225,AS,exp,34,↑,up,↑,0.9908915999985766,True,14,1,0,0
Y2-S2-096K22,3,226,AS,exp,30,→,down,↓,1.4152637000079267,False,14,-1,1,1
Y2-S2-096K22,3,227,AS,exp,43,←,left,←,0.6385487999941688,True,15,-1,0,1
Y2-S2-096K22,3,228,AS,exp,48,↑,up,↑,0.8646430000080727,True,15,-1,0,1
Y2-S2-096K22,3,229,AS,exp,29,↓,down,↓,0.762230799999088,True,15,1,1,2
Y2-S2-096K22,3,230,AS,exp,50,→,right,→,0.6172989000042435,True,14,1,0,2
Y2-S2-096K22,3,231,AS,exp,36,←,left,←,0.748903200001223,True,14,1,0,2
Y2-S2-096K22,3,232,AS,exp,33,↑,down,↓,1.0820679000171367,False,14,-1,1,3
Y2-S2-096K22,3,233,AS,exp,48,↓,down,↓,0.6342513000126928,True,15,-1,0,3
Y2-S2-096K22,3,234,AS,exp,38,→,left,←,0.8259717999899294,False,15,-1,0,3
Y2-S2-096K22,3,235,AS,exp,40,↓,right,→,0.9554838999756612,False,16,-1,0,3
Y2-S2-096K22,3,236,AS,exp,39,←,left,←,0.7086295000044629,True,17,-1,0,3
Y2-S2-096K22,3,237,AS,exp,45,↓,down,↓,0.6807972000096925,True,17,-1,0,3
Y2-S2-096K22,3,238,AS,exp,32,↑,down,↓,1.6621406999765895,False,17,-1,0,3
Y2-S2-096K22,3,239,AS,exp,34,↓,down,↓,0.5708108000108041,True,18,-1,0,3
Y2-S2-096K22,3,240,AS,exp,38,↑,up,↑,0.5577582000114489,True,18,-1,0,3
Y2-S2-096K22,3,241,AS,exp,32,→,up,↑,1.3878817999793682,False,18,-1,0,3
Y2-S2-096K22,3,242,AS,exp,44,←,left,←,0.6646208000020124,True,19,-1,0,3
Y2-S2-096K22,3,243,AS,exp,45,↓,down,↓,0.7250857999897562,True,19,-1,0,3
Y2-S2-096K22,3,244,AS,exp,30,↑,up,↑,0.69233059999533,True,19,1,1,4
Y2-S2-096K22,3,245,AS,exp,34,→,right,→,0.5924895000061952,True,18,1,0,4
Y2-S2-096K22,3,246,AS,exp,30,↑,up,↑,0.7958269000228029,True,18,1,0,4
Y2-S2-096K22,3,247,AS,exp,27,→,right,→,0.6371130000043195,True,18,1,0,4
Y2-S2-096K22,3,248,AS,exp,33,↓,down,↓,0.6975684000062756,True,17,1,0,4
Y2-S2-096K22,3,249,AS,exp,50,↑,up,↑,0.8630286999978125,True,17,1,0,4
Y2-S2-096K22,3,250,AS,exp,43,→,right,→,0.6361108000273816,True,17,1,0,4
Y2-S2-096K22,3,251,AS,exp,25,←,left,←,0.5395669999998063,True,16,1,0,4
Y2-S2-096K22,3,252,AS,exp,44,↑,up,↑,0.5532250999822281,True,16,1,0,4
Y2-S2-096K22,3,253,AS,exp,28,→,right,→,0.7281798000039998,True,16,1,0,4
Y2-S2-096K22,3,254,AS,exp,40,↓,right,→,0.9197027999907732,False,15,-1,1,5
Y2-S2-096K22,3,255,AS,exp,39,→,right,→,0.7802132999931928,True,16,-1,0,5
Y2-S2-096K22,3,256,AS,exp,40,↑,no_key,no_letter,-1.0,False,16,-1,0,5
Y2-S2-096K22,3,257,AS,exp,42,→,right,→,0.6559878000116441,True,17,-1,0,5
Y2-S2-096K22,3,258,AS,exp,32,↓,down,↓,0.6534263999783434,True,17,-1,0,5
Y2-S2-096K22,3,259,AS,exp,29,↑,up,↑,0.953872300015064,True,17,1,1,6
Y2-S2-096K22,3,260,AS,exp,41,↓,down,↓,0.5582378999970388,True,16,1,0,6
Y2-S2-096K22,3,261,AS,exp,28,←,left,←,0.7399260999809485,True,16,1,0,6
Y2-S2-096K22,3,262,AS,exp,48,↑,left,←,1.1542876999883447,False,16,-1,1,7
Y2-S2-096K22,3,263,AS,exp,35,←,left,←,1.1175642999878619,True,17,-1,0,7
Y2-S2-096K22,3,264,AS,exp,40,↑,down,↓,1.0024215999874286,False,17,-1,0,7
Y2-S2-096K22,3,265,AS,exp,39,←,right,→,1.2598415999964345,False,18,-1,0,7
Y2-S2-096K22,3,266,AS,exp,33,→,right,→,0.7479680000105873,True,19,-1,0,7
Y2-S2-096K22,3,267,AS,exp,46,↑,down,↓,1.6905792000179645,False,19,-1,0,7
Y2-S2-096K22,3,268,AS,exp,42,↓,down,↓,1.3458622000180185,True,20,-1,0,7
Y2-S2-096K22,3,269,AS,exp,30,←,left,←,0.7690694000048097,True,20,-1,0,7
Y2-S2-096K22,3,270,AS,exp,31,↓,down,↓,0.6177398999861907,True,20,1,1,8
Y2-S2-096K22,3,271,AS,exp,32,↑,up,↑,0.8203177000104915,True,19,1,0,8
Y2-S2-096K22,3,272,AS,exp,25,←,left,←,0.7595376999815926,True,19,1,0,8
Y2-S2-096K22,3,273,AS,exp,37,→,right,→,0.6171439999889117,True,19,1,0,8
Y2-S2-096K22,3,274,AS,exp,31,↑,up,↑,0.5809233000036329,True,18,1,0,8
Y2-S2-096K22,3,275,AS,exp,48,←,left,←,0.4750880000065081,True,18,1,0,8
Y2-S2-096K22,3,276,AS,exp,43,↓,down,↓,0.8191650999942794,True,18,1,0,8
Y2-S2-096K22,3,277,AS,exp,40,↑,up,↑,0.893159300001571,True,17,1,0,8
Y2-S2-096K22,3,278,AS,exp,34,←,left,←,1.038297999999486,True,17,1,0,8
Y2-S2-096K22,3,279,AS,exp,43,↓,down,↓,0.8934655000048224,True,17,1,0,8
Y2-S2-096K22,3,280,AS,exp,49,↑,left,←,0.9575916999892797,False,16,-1,1,9
Y2-S2-096K22,3,281,AS,exp,29,→,right,→,0.5675616000080481,True,17,-1,0,9
Y2-S2-096K22,3,282,AS,exp,36,←,left,←,0.5495477000076789,True,17,-1,0,9
Y2-S2-096K22,3,283,AS,exp,41,↓,down,↓,0.7614311999932397,True,17,1,1,10
Y2-S2-096K22,3,284,AS,exp,33,→,right,→,0.639494700008072,True,16,1,0,10
Y2-S2-096K22,3,285,AS,exp,47,↑,left,←,1.1099078000115696,False,16,-1,1,11
Y2-S2-096K22,3,286,AS,exp,43,←,right,→,0.7736107999808155,False,17,-1,0,11
Y2-S2-096K22,3,287,AS,exp,45,→,right,→,0.7769161000032909,True,18,-1,0,11
Y2-S2-096K22,3,288,AS,exp,42,↓,down,↓,0.793348800012609,True,18,-1,0,11
Y2-S2-096K22,3,289,AS,exp,27,↑,right,→,0.9498008000082336,False,18,-1,0,11
Y2-S2-096K22,3,290,AS,exp,43,←,right,→,0.5630372999876272,False,19,-1,0,11
Y2-S2-096K22,3,291,AS,exp,26,→,right,→,0.6488993000239134,True,20,-1,0,11
Y2-S2-096K22,3,292,AS,exp,29,←,left,←,0.4508030000142753,True,20,-1,0,11
Y2-S2-096K22,3,293,AS,exp,48,→,right,→,0.5413907000038307,True,20,1,1,12
Y2-S2-096K22,3,294,AS,exp,30,←,right,→,0.8966509000165388,False,19,-1,1,13
Y2-S2-096K22,3,295,AS,exp,43,→,right,→,0.5166712999925949,True,20,-1,0,13
Y2-S2-096K22,3,296,AS,exp,33,↓,right,→,1.3652782999852207,False,20,-1,0,13
Y2-S2-096K22,3,297,AS,exp,28,↑,up,↑,0.7151894000126049,True,21,-1,0,13
Y2-S2-096K22,3,298,AS,exp,49,↓,down,↓,0.7149758999876212,True,21,-1,0,13
Y2-S2-096K22,3,299,AS,exp,50,→,right,→,0.7598696000059135,True,21,1,1,14
Y2-S2-096K22,3,300,AS,exp,47,↓,right,→,0.5966205000004265,False,20,-1,1,15
Y2-S2-096K22,3,301,AS,exp,50,↑,up,↑,0.5568526999850292,True,21,-1,0,15
Y2-S2-096K22,3,302,AS,exp,41,←,left,←,0.6233179999981076,True,21,-1,0,15
Y2-S2-096K22,3,303,AS,exp,25,→,right,→,0.5843455999856815,True,21,1,1,16
Y2-S2-096K22,4,304,PS,intra_train,46,↓,up,↑,1.2263766000105534,False,19,-,-,-
Y2-S2-096K22,4,305,PS,intra_train,33,←,left,←,0.6890549000236206,True,19,-,-,-
Y2-S2-096K22,4,306,PS,intra_train,47,→,right,→,0.6083954999921843,True,19,-,-,-
Y2-S2-096K22,4,307,PS,intra_train,36,←,left,←,0.613371699990239,True,19,-,-,-
Y2-S2-096K22,4,308,PS,intra_train,30,↑,up,↑,0.49388620001263916,True,19,-,-,-
Y2-S2-096K22,4,309,PS,exp,42,→,right,→,0.539497100020526,True,13,0,0,0
Y2-S2-096K22,4,310,PS,exp,29,↑,right,→,1.1673408999922685,False,13,-1,0,0
Y2-S2-096K22,4,311,PS,exp,46,←,left,←,0.5534169000166003,True,14,-1,0,0
Y2-S2-096K22,4,312,PS,exp,29,↓,down,↓,0.6664167999988422,True,14,-1,0,0
Y2-S2-096K22,4,313,PS,exp,30,←,left,←,0.5869482999842148,True,14,1,1,1
Y2-S2-096K22,4,314,PS,exp,26,→,right,→,0.5839954999973997,True,13,1,0,1
Y2-S2-096K22,4,315,PS,exp,37,←,left,←,0.5879608000104781,True,13,1,0,1
Y2-S2-096K22,4,316,PS,exp,31,↓,down,↓,0.6280876999953762,True,13,1,0,1
Y2-S2-096K22,4,317,PS,exp,29,→,down,↓,0.797740599984536,False,12,-1,1,2
Y2-S2-096K22,4,318,PS,exp,25,←,left,←,0.5374735999794211,True,13,-1,0,2
Y2-S2-096K22,4,319,PS,exp,25,→,right,→,0.7505143999878783,True,13,-1,0,2
Y2-S2-096K22,4,320,PS,exp,37,↓,down,↓,0.6793824000051245,True,13,1,1,3
Y2-S2-096K22,4,321,PS,exp,46,←,left,←,0.5685411999875214,True,12,1,0,3
Y2-S2-096K22,4,322,PS,exp,36,↓,down,↓,0.5758553000050597,True,12,1,0,3
Y2-S2-096K22,4,323,PS,exp,39,←,left,←,0.6613072000036482,True,12,1,0,3
Y2-S2-096K22,4,324,PS,exp,26,↑,up,↑,0.6282087999861687,True,11,1,0,3
Y2-S2-096K22,4,325,PS,exp,47,→,right,→,0.5056813000119291,True,11,1,0,3
Y2-S2-096K22,4,326,PS,exp,49,↑,right,→,0.7882484000001568,False,11,-1,1,4
Y2-S2-096K22,4,327,PS,exp,25,↓,down,↓,0.5804263000027277,True,12,-1,0,4
Y2-S2-096K22,4,328,PS,exp,41,←,left,←,0.5066628000058699,True,12,-1,0,4
Y2-S2-096K22,4,329,PS,exp,38,↑,up,↑,0.5094546999898739,True,12,1,1,5
Y2-S2-096K22,4,330,PS,exp,25,→,left,←,0.6839183999982197,False,11,-1,1,6
Y2-S2-096K22,4,331,PS,exp,45,←,left,←,0.8589076999924146,True,12,-1,0,6
Y2-S2-096K22,4,332,PS,exp,30,→,right,→,0.5669929999858141,True,12,-1,0,6
Y2-S2-096K22,4,333,PS,exp,50,←,left,←,0.558243700012099,True,12,1,1,7
Y2-S2-096K22,4,334,PS,exp,41,→,right,→,0.9298036000109278,True,11,1,0,7
Y2-S2-096K22,4,335,PS,exp,50,↑,left,←,0.5314534000062849,False,11,-1,1,8
Y2-S2-096K22,4,336,PS,exp,40,→,right,→,0.5492570000060368,True,12,-1,0,8
Y2-S2-096K22,4,337,PS,exp,47,↑,up,↑,0.8004575000086334,True,12,-1,0,8
Y2-S2-096K22,4,338,PS,exp,34,↓,down,↓,0.6323115999985021,True,12,1,1,9
Y2-S2-096K22,4,339,PS,exp,42,←,left,←,0.5393169999879319,True,11,1,0,9
Y2-S2-096K22,4,340,PS,exp,50,↓,right,→,0.5100716000015382,False,11,-1,1,10
Y2-S2-096K22,4,341,PS,exp,28,↑,up,↑,0.6227325999934692,True,12,-1,0,10
Y2-S2-096K22,4,342,PS,exp,25,↓,up,↑,0.8883019000058994,False,12,-1,0,10
Y2-S2-096K22,4,343,PS,exp,31,←,up,↑,0.8806492000003345,False,13,-1,0,10
Y2-S2-096K22,4,344,PS,exp,43,↑,up,↑,0.4469585999904666,True,14,-1,0,10
Y2-S2-096K22,4,345,PS,exp,33,→,right,→,1.0644932000141125,True,14,-1,0,10
Y2-S2-096K22,4,346,PS,exp,33,↓,down,↓,0.911141199991107,True,14,1,1,11
Y2-S2-096K22,4,347,PS,exp,28,→,right,→,0.8321447000198532,True,13,1,0,11
Y2-S2-096K22,4,348,PS,exp,35,↑,up,↑,1.1397258000215515,True,13,1,0,11
Y2-S2-096K22,4,349,PS,exp,37,→,right,→,0.8200275999843143,True,13,1,0,11
Y2-S2-096K22,4,350,PS,exp,36,↑,up,↑,0.6041947000194341,True,12,1,0,11
Y2-S2-096K22,4,351,PS,exp,41,←,up,↑,0.8441197999927681,False,12,-1,1,12
Y2-S2-096K22,4,352,PS,exp,42,↑,up,↑,0.6145648999954574,True,13,-1,0,12
Y2-S2-096K22,4,353,PS,exp,29,←,left,←,0.9421260999806691,True,13,-1,0,12
Y2-S2-096K22,4,354,PS,exp,27,↑,right,→,1.120500200020615,False,13,-1,0,12
Y2-S2-096K22,4,355,PS,exp,39,←,left,←,0.695732299995143,True,14,-1,0,12
Y2-S2-096K22,4,356,PS,exp,42,↑,up,↑,0.8335887000139337,True,14,-1,0,12
Y2-S2-096K22,4,357,PS,exp,33,←,left,←,0.6414953999919817,True,14,1,1,13
Y2-S2-096K22,4,358,PS,exp,45,↓,up,↑,1.4148153999994975,False,13,-1,1,14
Y2-S2-096K22,4,359,PS,exp,50,↑,up,↑,1.1952380999864545,True,14,-1,0,14
Y2-S2-096K22,4,360,PS,exp,30,←,left,←,1.2714345999993384,True,14,-1,0,14
Y2-S2-096K22,4,361,PS,exp,40,↑,up,↑,0.6579900000069756,True,14,1,1,15
Y2-S2-096K22,4,362,PS,exp,49,↓,down,↓,0.9068651999987196,True,13,1,0,15
Y2-S2-096K22,4,363,PS,exp,29,↑,up,↑,0.5648075000208337,True,13,1,0,15
Y2-S2-096K22,4,364,PS,exp,29,←,up,↑,0.8698470999952406,False,13,-1,1,16
Y2-S2-096K22,5,365,PS,intra_train,27,↑,up,↑,0.7295330000051763,True,19,-,-,-
Y2-S2-096K22,5,366,PS,intra_train,44,→,right,→,0.807539999979781,True,19,-,-,-
Y2-S2-096K22,5,367,PS,intra_train,41,←,left,←,0.8985411000030581,True,19,-,-,-
Y2-S2-096K22,5,368,PS,intra_train,39,↑,up,↑,0.8013424999953713,True,19,-,-,-
Y2-S2-096K22,5,369,PS,intra_train,40,→,right,→,1.1960331000154838,True,19,-,-,-
Y2-S2-096K22,5,370,PS,exp,26,↓,down,↓,0.9838389999931678,True,13,0,0,0
Y2-S2-096K22,5,371,PS,exp,44,↑,up,↑,0.7343394000199623,True,13,0,0,0
Y2-S2-096K22,5,372,PS,exp,30,↓,down,↓,0.7012576999841258,True,13,1,0,0
Y2-S2-096K22,5,373,PS,exp,50,→,down,↓,0.5068370000226423,False,12,-1,1,1
Y2-S2-096K22,5,374,PS,exp,28,↑,up,↑,0.608199100010097,True,13,-1,0,1
Y2-S2-096K22,5,375,PS,exp,46,→,right,→,0.5103288000100292,True,13,-1,0,1
Y2-S2-096K22,5,376,PS,exp,40,←,left,←,0.7234270999906585,True,13,1,1,2
Y2-S2-096K22,5,377,PS,exp,33,→,right,→,0.5784849000046961,True,12,1,0,2
Y2-S2-096K22,5,378,PS,exp,33,↑,up,↑,0.9542211000225507,True,12,1,0,2
Y2-S2-096K22,5,379,PS,exp,35,↓,down,↓,0.723811099975137,True,12,1,0,2
Y2-S2-096K22,5,380,PS,exp,34,↑,right,→,0.9295810000039637,False,11,-1,1,3
Y2-S2-096K22,5,381,PS,exp,30,↓,down,↓,0.9389355000166688,True,12,-1,0,3
Y2-S2-096K22,5,382,PS,exp,28,↑,right,→,1.0614186000020709,False,12,-1,0,3
Y2-S2-096K22,5,383,PS,exp,31,↓,down,↓,0.9533276000001933,True,13,-1,0,3
Y2-S2-096K22,5,384,PS,exp,46,→,right,→,0.6161155000154395,True,13,-1,0,3
Y2-S2-096K22,5,385,PS,exp,49,↑,up,↑,0.6991692999727093,True,13,1,1,4
Y2-S2-096K22,5,386,PS,exp,32,←,left,←,0.7069271000218578,True,12,1,0,4
Y2-S2-096K22,5,387,PS,exp,25,↓,down,↓,0.6357163999928162,True,12,1,0,4
Y2-S2-096K22,5,388,PS,exp,48,←,left,←,0.5578687000088394,True,12,1,0,4
Y2-S2-096K22,5,389,PS,exp,50,→,right,→,0.5779328999924473,True,11,1,0,4
Y2-S2-096K22,5,390,PS,exp,38,↑,up,↑,0.7483012999873608,True,11,1,0,4
Y2-S2-096K22,5,391,PS,exp,31,→,down,↓,1.1700592999986839,False,11,-1,1,5
Y2-S2-096K22,5,392,PS,exp,38,↓,down,↓,0.7880288000160363,True,12,-1,0,5
Y2-S2-096K22,5,393,PS,exp,39,→,right,→,0.6159723000018857,True,12,-1,0,5
Y2-S2-096K22,5,394,PS,exp,37,↓,up,↑,1.346508399990853,False,12,-1,0,5
Y2-S2-096K22,5,395,PS,exp,41,↑,up,↑,1.231715100002475,True,13,-1,0,5
Y2-S2-096K22,5,396,PS,exp,28,↓,down,↓,1.1166741999913938,True,13,-1,0,5
Y2-S2-096K22,5,397,PS,exp,45,←,left,←,0.6751393000013195,True,13,1,1,6
Y2-S2-096K22,5,398,PS,exp,41,→,right,→,0.6762406000052579,True,12,1,0,6
Y2-S2-096K22,5,399,PS,exp,31,↓,down,↓,0.6293000000005122,True,12,1,0,6
Y2-S2-096K22,5,400,PS,exp,29,→,right,→,0.5502610999974422,True,12,1,0,6
Y2-S2-096K22,5,401,PS,exp,25,↓,right,→,1.0694164999877103,False,11,-1,1,7
Y2-S2-096K22,5,402,PS,exp,25,↑,up,↑,0.712064499995904,True,12,-1,0,7
Y2-S2-096K22,5,403,PS,exp,35,→,right,→,0.5967554999806453,True,12,-1,0,7
Y2-S2-096K22,5,404,PS,exp,50,←,left,←,0.6418612999841571,True,12,1,1,8
Y2-S2-096K22,5,405,PS,exp,30,↑,right,→,1.1106788000033703,False,11,-1,1,9
Y2-S2-096K22,5,406,PS,exp,25,→,right,→,0.5902647000038996,True,12,-1,0,9
Y2-S2-096K22,5,407,PS,exp,34,←,left,←,0.6565248999977484,True,12,-1,0,9
Y2-S2-096K22,5,408,PS,exp,35,→,right,→,1.1485539999848697,True,12,1,1,10
Y2-S2-096K22,5,409,PS,exp,49,↓,down,↓,0.8461939000117127,True,11,1,0,10
Y2-S2-096K22,5,410,PS,exp,45,←,right,→,1.21571170000243,False,11,-1,1,11
Y2-S2-096K22,5,411,PS,exp,29,↑,up,↑,0.9976247000158764,True,12,-1,0,11
Y2-S2-096K22,5,412,PS,exp,35,↓,right,→,1.1639290000020992,False,12,-1,0,11
Y2-S2-096K22,5,413,PS,exp,43,←,left,←,0.7003494999953546,True,13,-1,0,11
Y2-S2-096K22,5,414,PS,exp,36,↑,up,↑,0.8047626000188757,True,13,-1,0,11
Y2-S2-096K22,5,415,PS,exp,43,→,right,→,0.6471340999996755,True,13,1,1,12
Y2-S2-096K22,5,416,PS,exp,34,↑,down,↓,1.3990914000023622,False,12,-1,1,13
Y2-S2-096K22,5,417,PS,exp,30,→,up,↑,1.7543822999869008,False,13,-1,0,13
Y2-S2-096K22,5,418,PS,exp,42,↓,down,↓,1.0407170999969821,True,14,-1,0,13
Y2-S2-096K22,5,419,PS,exp,40,↑,up,↑,0.5890121000120416,True,14,-1,0,13
Y2-S2-096K22,5,420,PS,exp,37,↓,down,↓,0.688372700009495,True,14,1,1,14
Y2-S2-096K22,5,421,PS,exp,48,↑,up,↑,0.40942060001543723,True,13,1,0,14
Y2-S2-096K22,5,422,PS,exp,38,→,left,←,0.9530258000013418,False,13,-1,1,15
Y2-S2-096K22,5,423,PS,exp,43,←,left,←,0.9079296999843791,True,14,-1,0,15
Y2-S2-096K22,5,424,PS,exp,32,→,right,→,0.5430491000006441,True,14,-1,0,15
Y2-S2-096K22,5,425,PS,exp,26,←,up,↑,1.2996702000091318,False,14,-1,0,15
Y2-S2-096K22,5,426,PS,exp,41,↑,up,↑,0.6484789999958593,True,15,-1,0,15
Y2-S2-096K22,5,427,PS,exp,29,→,right,→,0.5770208000030834,True,15,-1,0,15
Y2-S2-096K22,5,428,PS,exp,32,↓,left,←,0.6409122000040952,False,15,-1,0,15
Y2-S2-096K22,5,429,PS,exp,30,←,left,←,0.6542625000001863,True,16,-1,0,15
Y2-S2-096K22,5,430,PS,exp,41,↑,up,↑,0.8034077000047546,True,16,-1,0,15
Y2-S2-096K22,5,431,PS,exp,46,←,left,←,0.6233474000182468,True,16,1,1,16
Y2-S2-096K22,6,432,AS,intra_train,26,↓,down,↓,0.8638441000075545,True,27,-,-,-
Y2-S2-096K22,6,433,AS,intra_train,42,→,right,→,0.8016859999916051,True,27,-,-,-
Y2-S2-096K22,6,434,AS,intra_train,46,←,left,←,0.6450474000012036,True,27,-,-,-
Y2-S2-096K22,6,435,AS,intra_train,39,→,right,→,0.5838407999835908,True,27,-,-,-
Y2-S2-096K22,6,436,AS,intra_train,34,↑,up,↑,0.6421409999893513,True,27,-,-,-
Y2-S2-096K22,6,437,AS,exp,37,↓,down,↓,0.7309627000067849,True,18,0,0,0
Y2-S2-096K22,6,438,AS,exp,26,↑,up,↑,0.8248277000093367,True,18,0,0,0
Y2-S2-096K22,6,439,AS,exp,26,↓,down,↓,0.4881795000110287,True,18,1,0,0
Y2-S2-096K22,6,440,AS,exp,27,←,left,←,0.5729655999748502,True,17,1,0,0
Y2-S2-096K22,6,441,AS,exp,49,↓,left,←,0.5656770000059623,False,17,-1,1,1
Y2-S2-096K22,6,442,AS,exp,26,→,right,→,1.2152548000158276,True,18,-1,0,1
Y2-S2-096K22,6,443,AS,exp,34,←,left,←,0.6538402000151109,True,18,-1,0,1
Y2-S2-096K22,6,444,AS,exp,31,→,right,→,0.7616785000136588,True,18,1,1,2
Y2-S2-096K22,6,445,AS,exp,32,↓,down,↓,0.6272021999757271,True,17,1,0,2
Y2-S2-096K22,6,446,AS,exp,29,→,down,↓,0.5746798999898601,False,17,-1,1,3
Y2-S2-096K22,6,447,AS,exp,40,←,left,←,0.6413317999977153,True,18,-1,0,3
Y2-S2-096K22,6,448,AS,exp,39,→,right,→,0.6093376999779139,True,18,-1,0,3
Y2-S2-096K22,6,449,AS,exp,32,↑,right,→,1.034541499975603,False,18,-1,0,3
Y2-S2-096K22,6,450,AS,exp,50,↓,down,↓,0.757586399995489,True,19,-1,0,3
Y2-S2-096K22,6,451,AS,exp,27,←,left,←,0.6759878000011668,True,19,-1,0,3
Y2-S2-096K22,6,452,AS,exp,29,↓,down,↓,0.5521348000038415,True,19,1,1,4
Y2-S2-096K22,6,453,AS,exp,33,←,left,←,0.5725670999963768,True,18,1,0,4
Y2-S2-096K22,6,454,AS,exp,44,→,left,←,0.5820888000016566,False,18,-1,1,5
Y2-S2-096K22,6,455,AS,exp,46,↑,up,↑,0.8571463999978732,True,19,-1,0,5
Y2-S2-096K22,6,456,AS,exp,30,←,left,←,0.6650000999798067,True,19,-1,0,5
Y2-S2-096K22,6,457,AS,exp,40,↓,down,↓,0.8559859000088181,True,19,1,1,6
Y2-S2-096K22,6,458,AS,exp,49,←,left,←,0.543184400012251,True,18,1,0,6
Y2-S2-096K22,6,459,AS,exp,49,↓,down,↓,0.7050601000082679,True,18,1,0,6
Y2-S2-096K22,6,460,AS,exp,33,↑,up,↑,0.7304774000076577,True,18,1,0,6
Y2-S2-096K22,6,461,AS,exp,30,↓,down,↓,0.6895128000178374,True,17,1,0,6
Y2-S2-096K22,6,462,AS,exp,40,→,down,↓,1.1272714999795426,False,17,-1,1,7
Y2-S2-096K22,6,463,AS,exp,40,↑,up,↑,0.598302500002319,True,18,-1,0,7
Y2-S2-096K22,6,464,AS,exp,40,→,right,→,0.765056900010677,True,18,-1,0,7
Y2-S2-096K22,6,465,AS,exp,39,↑,down,↓,0.9098693999985699,False,18,-1,0,7
Y2-S2-096K22,6,466,AS,exp,47,→,right,→,0.5828745999897365,True,19,-1,0,7
Y2-S2-096K22,6,467,AS,exp,31,←,left,←,0.6517550999997184,True,19,-1,0,7
Y2-S2-096K22,6,468,AS,exp,34,↑,up,↑,0.7519801999733318,True,19,1,1,8
Y2-S2-096K22,6,469,AS,exp,43,↓,down,↓,0.7538731999811716,True,18,1,0,8
Y2-S2-096K22,6,470,AS,exp,50,↑,up,↑,0.7385450000001583,True,18,1,0,8
Y2-S2-096K22,6,471,AS,exp,40,↓,down,↓,0.8200855999893975,True,18,1,0,8
Y2-S2-096K22,6,472,AS,exp,49,←,down,↓,1.1283413000055589,False,17,-1,1,9
Y2-S2-096K22,6,473,AS,exp,34,↓,down,↓,0.7104065000021365,True,18,-1,0,9
Y2-S2-096K22,6,474,AS,exp,41,↑,up,↑,0.7235443000099622,True,18,-1,0,9
Y2-S2-096K22,6,475,AS,exp,42,↓,down,↓,0.647738700004993,True,18,1,1,10
Y2-S2-096K22,6,476,AS,exp,39,←,left,←,0.9997819999989588,True,17,1,0,10
Y2-S2-096K22,6,477,AS,exp,26,↑,up,↑,1.1168385999917518,True,17,1,0,10
Y2-S2-096K22,6,478,AS,exp,46,→,right,→,0.6472089000162669,True,17,1,0,10
Y2-S2-096K22,6,479,AS,exp,42,↓,down,↓,0.7522098000044934,True,16,1,0,10
Y2-S2-096K22,6,480,AS,exp,40,→,right,→,0.5385181999881752,True,16,1,0,10
Y2-S2-096K22,6,481,AS,exp,34,↑,down,↓,0.713428200018825,False,16,-1,1,11
Y2-S2-096K22,6,482,AS,exp,26,↓,down,↓,0.7608256999810692,True,17,-1,0,11
Y2-S2-096K22,6,483,AS,exp,48,←,left,←,0.6307352999865543,True,17,-1,0,11
Y2-S2-096K22,6,484,AS,exp,47,↓,down,↓,0.7320708000042941,True,17,1,1,12
Y2-S2-096K22,6,485,AS,exp,49,↑,down,↓,0.6251846999803092,False,16,-1,1,13
Y2-S2-096K22,6,486,AS,exp,25,↓,down,↓,0.4960600000049453,True,17,-1,0,13
Y2-S2-096K22,6,487,AS,exp,30,←,left,←,0.6274949999933597,True,17,-1,0,13
Y2-S2-096K22,6,488,AS,exp,50,↑,up,↑,1.0753642999916337,True,17,1,1,14
Y2-S2-096K22,6,489,AS,exp,36,→,right,→,0.600208499992732,True,16,1,0,14
Y2-S2-096K22,6,490,AS,exp,45,↓,down,↓,0.6893012999789789,True,16,1,0,14
Y2-S2-096K22,6,491,AS,exp,38,←,left,←,0.6650838000059593,True,16,1,0,14
Y2-S2-096K22,6,492,AS,exp,46,→,left,←,0.5757540000195149,False,15,-1,1,15
Y2-S2-096K22,6,493,AS,exp,26,←,right,→,1.0169885999930557,False,16,-1,0,15
Y2-S2-096K22,6,494,AS,exp,45,↓,down,↓,0.5576289999880828,True,17,-1,0,15
Y2-S2-096K22,6,495,AS,exp,30,→,right,→,0.7652210999804083,True,17,-1,0,15
Y2-S2-096K22,6,496,AS,exp,29,↓,down,↓,0.7289030999818351,True,17,1,1,16
Y2-S2-096K22,7,497,AS,intra_train,40,←,left,←,0.7533651999838185,True,27,-,-,-
Y2-S2-096K22,7,498,AS,intra_train,46,↑,up,↑,0.5504171999928076,True,27,-,-,-
Y2-S2-096K22,7,499,AS,intra_train,36,↓,down,↓,0.7149122999981046,True,27,-,-,-
Y2-S2-096K22,7,500,AS,intra_train,39,←,left,←,0.6939015999960247,True,27,-,-,-
Y2-S2-096K22,7,501,AS,intra_train,38,↓,down,↓,0.5838982999848668,True,27,-,-,-
Y2-S2-096K22,7,502,AS,exp,41,↑,up,↑,0.8340772000083234,True,18,0,0,0
Y2-S2-096K22,7,503,AS,exp,41,←,left,←,0.7837107999948785,True,18,0,0,0
Y2-S2-096K22,7,504,AS,exp,50,→,right,→,0.6031254999979865,True,18,1,0,0
Y2-S2-096K22,7,505,AS,exp,50,↑,down,↓,0.9316490999772213,False,17,-1,1,1
Y2-S2-096K22,7,506,AS,exp,29,←,left,←,0.5798998000100255,True,18,-1,0,1
Y2-S2-096K22,7,507,AS,exp,34,→,right,→,0.5216442000237294,True,18,-1,0,1
Y2-S2-096K22,7,508,AS,exp,31,↓,down,↓,0.5547324999934062,True,18,1,1,2
Y2-S2-096K22,7,509,AS,exp,39,↑,up,↑,0.558127099997364,True,17,1,0,2
Y2-S2-096K22,7,510,AS,exp,30,→,right,→,0.5596951000043191,True,17,1,0,2
Y2-S2-096K22,7,511,AS,exp,29,←,left,←,0.8226197000185493,True,17,1,0,2
Y2-S2-096K22,7,512,AS,exp,33,↓,up,↑,0.821605900011491,False,16,-1,1,3
Y2-S2-096K22,7,513,AS,exp,26,↑,down,↓,1.025666600005934,False,17,-1,0,3
Y2-S2-096K22,7,514,AS,exp,26,↓,down,↓,0.5969172999903094,True,18,-1,0,3
Y2-S2-096K22,7,515,AS,exp,26,←,right,→,1.2637176999996882,False,18,-1,0,3
Y2-S2-096K22,7,516,AS,exp,37,↑,up,↑,0.8255438999913167,True,19,-1,0,3
Y2-S2-096K22,7,517,AS,exp,38,→,right,→,0.7051026000117417,True,19,-1,0,3
Y2-S2-096K22,7,518,AS,exp,26,←,left,←,0.6112760000105482,True,19,1,1,4
Y2-S2-096K22,7,519,AS,exp,44,↓,down,↓,0.7014945000119042,True,18,1,0,4
Y2-S2-096K22,7,520,AS,exp,48,→,right,→,0.7666200999810826,True,18,1,0,4
Y2-S2-096K22,7,521,AS,exp,48,←,left,←,0.695727700018324,True,18,1,0,4
Y2-S2-096K22,7,522,AS,exp,35,↓,down,↓,0.8056364000076428,True,17,1,0,4
Y2-S2-096K22,7,523,AS,exp,36,→,right,→,0.7371411000203807,True,17,1,0,4
Y2-S2-096K22,7,524,AS,exp,34,↓,down,↓,0.739650100003928,True,17,1,0,4
Y2-S2-096K22,7,525,AS,exp,35,↑,up,↑,0.6239045999827795,True,16,1,0,4
Y2-S2-096K22,7,526,AS,exp,44,→,right,→,0.5273645000124816,True,16,1,0,4
Y2-S2-096K22,7,527,AS,exp,30,↑,up,↑,0.6821924000105355,True,16,1,0,4
Y2-S2-096K22,7,528,AS,exp,28,→,right,→,0.5692696000041906,True,15,1,0,4
Y2-S2-096K22,7,529,AS,exp,43,↑,up,↑,0.6555128999752924,True,15,1,0,4
Y2-S2-096K22,7,530,AS,exp,26,→,right,→,0.46133970000664704,True,15,1,0,4
Y2-S2-096K22,7,531,AS,exp,33,←,left,←,1.1465590000152588,True,14,1,0,4
Y2-S2-096K22,7,532,AS,exp,30,↑,up,↑,0.5185523999971338,True,14,1,0,4
Y2-S2-096K22,7,533,AS,exp,47,→,right,→,0.671874099993147,True,14,1,0,4
Y2-S2-096K22,7,534,AS,exp,48,↑,right,→,0.8226453000097536,False,13,-1,1,5
Y2-S2-096K22,7,535,AS,exp,40,↓,down,↓,0.6950505999848247,True,14,-1,0,5
Y2-S2-096K22,7,536,AS,exp,28,←,right,→,0.6949916000012308,False,14,-1,0,5
Y2-S2-096K22,7,537,AS,exp,50,↑,up,↑,0.6824814999999944,True,15,-1,0,5
Y2-S2-096K22,7,538,AS,exp,25,←,left,←,0.6417416000040248,True,15,-1,0,5
Y2-S2-096K22,7,539,AS,exp,28,↑,left,←,0.5696907000092324,False,15,-1,0,5
Y2-S2-096K22,7,540,AS,exp,47,→,right,→,1.520958500012057,True,16,-1,0,5
Y2-S2-096K22,7,541,AS,exp,39,↓,down,↓,0.7620709999755491,True,16,-1,0,5
Y2-S2-096K22,7,542,AS,exp,50,↑,up,↑,0.8623970999906305,True,16,1,1,6
Y2-S2-096K22,7,543,AS,exp,26,→,right,→,0.5905621999991126,True,15,1,0,6
Y2-S2-096K22,7,544,AS,exp,49,←,right,→,0.9999811000016052,False,15,-1,1,7
Y2-S2-096K22,7,545,AS,exp,32,↑,up,↑,1.2889427999907639,True,16,-1,0,7
Y2-S2-096K22,7,546,AS,exp,29,→,right,→,0.5711144999950193,True,16,-1,0,7
Y2-S2-096K22,7,547,AS,exp,50,↑,up,↑,0.8594839999859687,True,16,1,1,8
Y2-S2-096K22,7,548,AS,exp,38,→,down,↓,1.0175526000093669,False,15,-1,1,9
Y2-S2-096K22,7,549,AS,exp,25,↓,up,↑,1.4063291000202298,False,16,-1,0,9
Y2-S2-096K22,7,550,AS,exp,39,↑,up,↑,0.997533600020688,True,17,-1,0,9
Y2-S2-096K22,7,551,AS,exp,42,↓,down,↓,0.6568149999948218,True,17,-1,0,9
Y2-S2-096K22,7,552,AS,exp,43,↑,up,↑,0.6272083000221755,True,17,1,1,10
Y2-S2-096K22,7,553,AS,exp,26,↓,down,↓,0.6339655999909155,True,16,1,0,10
Y2-S2-096K22,7,554,AS,exp,38,↑,up,↑,0.9354862000036519,True,16,1,0,10
Y2-S2-096K22,7,555,AS,exp,26,→,up,↑,0.8235451999935322,False,16,-1,1,11
Y2-S2-096K22,7,556,AS,exp,28,↑,up,↑,0.680122299992945,True,17,-1,0,11
Y2-S2-096K22,7,557,AS,exp,49,→,right,→,0.5778938999865204,True,17,-1,0,11
Y2-S2-096K22,7,558,AS,exp,29,←,left,←,1.06955200000084,True,17,1,1,12
Y2-S2-096K22,7,559,AS,exp,41,→,right,→,0.5386541000043508,True,16,1,0,12
Y2-S2-096K22,7,560,AS,exp,50,↑,up,↑,0.6432910999865271,True,16,1,0,12
Y2-S2-096K22,7,561,AS,exp,43,→,up,↑,0.6385508000093978,False,16,-1,1,13
Y2-S2-096K22,7,562,AS,exp,42,←,left,←,0.6682086000218987,True,17,-1,0,13
Y2-S2-096K22,7,563,AS,exp,28,↑,up,↑,0.686541600007331,True,17,-1,0,13
Y2-S2-096K22,7,564,AS,exp,35,←,left,←,0.5896261000016239,True,17,1,1,14
Y2-S2-096K22,7,565,AS,exp,44,↓,left,←,0.5911998999945354,False,16,-1,1,15
Y2-S2-096K22,7,566,AS,exp,30,←,left,←,0.5646664000232704,True,17,-1,0,15
Y2-S2-096K22,7,567,AS,exp,32,→,right,→,0.5579739999957383,True,17,-1,0,15
Y2-S2-096K22,7,568,AS,exp,50,↓,down,↓,0.6037790999980643,True,17,1,1,16
Y2-S2-096K22,8,569,PS,intra_train,38,↑,up,↑,0.5688605000032112,True,19,-,-,-
Y2-S2-096K22,8,570,PS,intra_train,43,←,left,←,0.7867661000054795,True,19,-,-,-
Y2-S2-096K22,8,571,PS,intra_train,47,→,down,↓,0.8638857999758329,False,19,-,-,-
Y2-S2-096K22,8,572,PS,intra_train,29,↑,up,↑,0.5913714000198524,True,19,-,-,-
Y2-S2-096K22,8,573,PS,intra_train,31,→,right,→,0.8257612999877892,True,19,-,-,-
Y2-S2-096K22,8,574,PS,exp,26,←,left,←,0.7369043999933638,True,13,0,0,0
Y2-S2-096K22,8,575,PS,exp,40,↓,down,↓,0.6803594999946654,True,13,0,0,0
Y2-S2-096K22,8,576,PS,exp,33,↑,left,←,1.3552030000137165,False,13,-1,0,0
Y2-S2-096K22,8,577,PS,exp,41,↓,down,↓,0.6051552999997512,True,14,-1,0,0
Y2-S2-096K22,8,578,PS,exp,48,↑,up,↑,0.6564102999982424,True,14,-1,0,0
Y2-S2-096K22,8,579,PS,exp,41,←,left,←,0.6256347000016831,True,14,1,1,1
Y2-S2-096K22,8,580,PS,exp,40,↑,up,↑,0.6039639999798965,True,13,1,0,1
Y2-S2-096K22,8,581,PS,exp,48,→,left,←,0.5810158000094816,False,13,-1,1,2
Y2-S2-096K22,8,582,PS,exp,25,←,left,←,0.6913123999838717,True,14,-1,0,2
Y2-S2-096K22,8,583,PS,exp,26,↓,left,←,0.9857990999880712,False,14,-1,0,2
Y2-S2-096K22,8,584,PS,exp,40,←,left,←,0.5226090000069235,True,15,-1,0,2
Y2-S2-096K22,8,585,PS,exp,28,↓,left,←,1.2419415999902412,False,15,-1,0,2
Y2-S2-096K22,8,586,PS,exp,41,↑,up,↑,0.5393536000046879,True,16,-1,0,2
Y2-S2-096K22,8,587,PS,exp,49,→,right,→,0.6626418000087142,True,16,-1,0,2
Y2-S2-096K22,8,588,PS,exp,27,←,left,←,0.5685838000208605,True,16,1,1,3
Y2-S2-096K22,8,589,PS,exp,33,↓,down,↓,0.6709218999894802,True,15,1,0,3
Y2-S2-096K22,8,590,PS,exp,26,↑,up,↑,0.5654654999962077,True,15,1,0,3
Y2-S2-096K22,8,591,PS,exp,50,→,right,→,0.6782748000114225,True,15,1,0,3
Y2-S2-096K22,8,592,PS,exp,34,↑,no_key,no_letter,-1.0,False,14,-1,1,4
Y2-S2-096K22,8,593,PS,exp,30,→,right,→,0.5315121999883559,True,15,-1,0,4
Y2-S2-096K22,8,594,PS,exp,50,↓,left,←,0.8991104000015184,False,15,-1,0,4
Y2-S2-096K22,8,595,PS,exp,49,→,right,→,0.7712524000089616,True,16,-1,0,4
Y2-S2-096K22,8,596,PS,exp,45,↓,down,↓,0.5220446999883279,True,16,-1,0,4
Y2-S2-096K22,8,597,PS,exp,43,←,left,←,0.49105079998844303,True,16,1,1,5
Y2-S2-096K22,8,598,PS,exp,31,→,left,←,0.9552108999923803,False,15,-1,1,6
Y2-S2-096K22,8,599,PS,exp,26,↓,right,→,0.8196062999777496,False,16,-1,0,6
Y2-S2-096K22,8,600,PS,exp,26,←,left,←,0.5867735000210814,True,17,-1,0,6
Y2-S2-096K22,8,601,PS,exp,48,→,right,→,0.6665931000025012,True,17,-1,0,6
Y2-S2-096K22,8,602,PS,exp,37,↑,up,↑,0.9208642000157852,True,17,1,1,7
Y2-S2-096K22,8,603,PS,exp,31,→,right,→,0.6863773999793921,True,16,1,0,7
Y2-S2-096K22,8,604,PS,exp,44,↓,down,↓,0.6748256999999285,True,16,1,0,7
Y2-S2-096K22,8,605,PS,exp,25,←,right,→,0.8064751999918371,False,16,-1,1,8
Y2-S2-096K22,8,606,PS,exp,31,↓,down,↓,1.144798900000751,True,17,-1,0,8
Y2-S2-096K22,8,607,PS,exp,32,→,right,→,0.5546040000044741,True,17,-1,0,8
Y2-S2-096K22,8,608,PS,exp,46,↓,down,↓,0.7111664999974892,True,17,1,1,9
Y2-S2-096K22,8,609,PS,exp,28,↑,right,→,0.9133581999922171,False,16,-1,1,10
Y2-S2-096K22,8,610,PS,exp,29,←,right,→,1.1256208999839146,False,17,-1,0,10
Y2-S2-096K22,8,611,PS,exp,44,↓,down,↓,0.7700317999988329,True,18,-1,0,10
Y2-S2-096K22,8,612,PS,exp,42,→,right,→,0.6569357999833301,True,18,-1,0,10
Y2-S2-096K22,8,613,PS,exp,29,↓,down,↓,0.6524376000161283,True,18,1,1,11
Y2-S2-096K22,8,614,PS,exp,43,←,left,←,0.8594046999933198,True,17,1,0,11
Y2-S2-096K22,8,615,PS,exp,36,→,right,→,0.6027587999997195,True,17,1,0,11
Y2-S2-096K22,8,616,PS,exp,40,←,left,←,0.7101016000087839,True,17,1,0,11
Y2-S2-096K22,8,617,PS,exp,47,↑,up,↑,0.8019644999876618,True,16,1,0,11
Y2-S2-096K22,8,618,PS,exp,28,←,left,←,0.6693520999979228,True,16,1,0,11
Y2-S2-096K22,8,619,PS,exp,49,↑,up,↑,0.565288200014038,True,16,1,0,11
Y2-S2-096K22,8,620,PS,exp,30,↓,down,↓,0.6103773000068031,True,15,1,0,11
Y2-S2-096K22,8,621,PS,exp,26,↑,up,↑,0.911791299993638,True,15,1,0,11
Y2-S2-096K22,8,622,PS,exp,25,←,left,←,0.9630894000001717,True,15,1,0,11
Y2-S2-096K22,8,623,PS,exp,37,↓,down,↓,0.5564756999956444,True,14,1,0,11
Y2-S2-096K22,8,624,PS,exp,39,→,right,→,0.5786412000015844,True,14,1,0,11
Y2-S2-096K22,8,625,PS,exp,33,↓,down,↓,0.6809620000130963,True,14,1,0,11
Y2-S2-096K22,8,626,PS,exp,34,←,left,←,0.5429835000250023,True,13,1,0,11
Y2-S2-096K22,8,627,PS,exp,40,↓,down,↓,0.6196978999942075,True,13,1,0,11
Y2-S2-096K22,8,628,PS,exp,34,←,left,←,0.588140600011684,True,13,1,0,11
Y2-S2-096K22,8,629,PS,exp,29,↑,up,↑,0.8295635999820661,True,12,1,0,11
Y2-S2-096K22,8,630,PS,exp,38,→,right,→,0.6309185999853071,True,12,1,0,11
Y2-S2-096K22,8,631,PS,exp,40,↓,down,↓,0.8971954000007827,True,12,1,0,11
Y2-S2-096K22,8,632,PS,exp,29,→,left,←,0.6678840999957174,False,11,-1,1,12
Y2-S2-096K22,8,633,PS,exp,41,←,left,←,0.5483152999950107,True,12,-1,0,12
Y2-S2-096K22,8,634,PS,exp,41,↑,up,↑,0.6914244999934454,True,12,-1,0,12
Y2-S2-096K22,8,635,PS,exp,46,↓,down,↓,0.6022684999916237,True,12,1,1,13
Y2-S2-096K22,8,636,PS,exp,27,→,down,↓,0.5209379000007175,False,11,-1,1,14
Y2-S2-096K22,8,637,PS,exp,27,↑,up,↑,0.6433021999837365,True,12,-1,0,14
Y2-S2-096K22,8,638,PS,exp,42,←,left,←,0.7588322999945376,True,12,-1,0,14
Y2-S2-096K22,8,639,PS,exp,27,↓,down,↓,0.5742131000151858,True,12,1,1,15
Y2-S2-096K22,8,640,PS,exp,31,←,left,←,0.5685881999961566,True,11,1,0,15
Y2-S2-096K22,8,641,PS,exp,43,→,right,→,0.5387711999937892,True,11,1,0,15
Y2-S2-096K22,8,642,PS,exp,42,↑,up,↑,0.4882993999926839,True,11,1,0,15
Y2-S2-096K22,8,643,PS,exp,32,←,down,↓,0.8474097000143956,False,10,-1,1,16
