PART_ID,Block_no,Trial_no,Block_type,Trial_type,CSI,Stim_letter,Key_pressed,letter_choose,Rt,Corr,Stimulus Time,Level,Reversal,Revs_count
Y2-S2-231K22,1,1,PS,train,50,↑,up,↑,0.7004380999132991,True,30,-,-,-
Y2-S2-231K22,1,2,PS,train,29,→,right,→,1.6974222001153976,True,30,-,-,-
Y2-S2-231K22,1,3,PS,train,25,↑,up,↑,0.583791800076142,True,30,-,-,-
Y2-S2-231K22,1,4,PS,train,48,↓,down,↓,0.9682094000745565,True,30,-,-,-
Y2-S2-231K22,1,5,PS,train,48,↑,up,↑,0.6173121999017894,True,30,-,-,-
Y2-S2-231K22,1,6,PS,train,49,→,right,→,0.7547951999586076,True,30,-,-,-
Y2-S2-231K22,1,7,PS,train,40,↑,up,↑,0.7678650000598282,True,30,-,-,-
Y2-S2-231K22,1,8,PS,train,29,↓,down,↓,0.9663099001627415,True,30,-,-,-
Y2-S2-231K22,1,9,PS,train,35,↑,left,←,1.4059053999371827,False,30,-,-,-
Y2-S2-231K22,1,10,PS,train,49,←,left,←,1.8552130998577923,True,30,-,-,-
Y2-S2-231K22,2,11,AS,train,50,↓,down,↓,0.7673268001526594,True,45,-,-,-
Y2-S2-231K22,2,12,AS,train,34,→,right,→,1.0394290999975055,True,45,-,-,-
Y2-S2-231K22,2,13,AS,train,44,↑,up,↑,0.8000471999403089,True,45,-,-,-
Y2-S2-231K22,2,14,AS,train,41,←,left,←,0.7503671001177281,True,45,-,-,-
Y2-S2-231K22,2,15,AS,train,29,→,right,→,0.7508028999436647,True,45,-,-,-
Y2-S2-231K22,2,16,AS,train,42,↑,up,↑,0.6678354998584837,True,45,-,-,-
Y2-S2-231K22,2,17,AS,train,35,→,right,→,0.7178507000207901,True,45,-,-,-
Y2-S2-231K22,2,18,AS,train,35,↓,down,↓,0.8005607998929918,True,45,-,-,-
Y2-S2-231K22,2,19,AS,train,38,↑,up,↑,1.9654274999629706,True,45,-,-,-
Y2-S2-231K22,2,20,AS,train,36,→,right,→,0.7013314999639988,True,45,-,-,-
Y2-S2-231K22,-,21,PS,adaptive,43,↑,up,↑,0.45403130003251135,True,10,0,0,0
Y2-S2-231K22,-,22,PS,adaptive,36,↓,down,↓,0.6591968000866473,True,10,0,0,0
Y2-S2-231K22,-,23,PS,adaptive,41,→,up,↑,1.4299559998326004,False,10,-1,0,0
Y2-S2-231K22,-,24,PS,adaptive,35,↓,down,↓,0.7746852000709623,True,11,-1,0,0
Y2-S2-231K22,-,25,PS,adaptive,39,↑,up,↑,0.5375717000570148,True,11,-1,0,0
Y2-S2-231K22,-,26,PS,adaptive,34,←,left,←,0.6462145999539644,True,11,1,1,1
Y2-S2-231K22,-,27,PS,adaptive,27,↑,up,↑,0.48691549990326166,True,10,1,0,1
Y2-S2-231K22,-,28,PS,adaptive,45,→,left,←,0.8492252000141889,False,10,-1,1,2
Y2-S2-231K22,-,29,PS,adaptive,37,↑,up,↑,0.6240681998897344,True,11,-1,0,2
Y2-S2-231K22,-,30,PS,adaptive,48,↓,left,←,0.9853199999779463,False,11,-1,0,2
Y2-S2-231K22,-,31,PS,adaptive,46,←,left,←,0.6704776999540627,True,12,-1,0,2
Y2-S2-231K22,-,32,PS,adaptive,48,→,right,→,0.7691890001296997,True,12,-1,0,2
Y2-S2-231K22,-,33,PS,adaptive,32,←,left,←,0.7144083001185209,True,12,1,1,3
Y2-S2-231K22,-,34,PS,adaptive,30,↑,up,↑,0.6995462998747826,True,11,1,0,3
Y2-S2-231K22,-,35,PS,adaptive,43,→,right,→,0.5160698001272976,True,11,1,0,3
Y2-S2-231K22,-,36,PS,adaptive,27,←,left,←,0.7049783000256866,True,11,1,0,3
Y2-S2-231K22,-,37,PS,adaptive,43,→,right,→,0.705264599993825,True,10,1,0,3
Y2-S2-231K22,-,38,PS,adaptive,46,↓,left,←,0.781096100108698,False,10,-1,1,4
Y2-S2-231K22,-,39,AS,adaptive,33,←,left,←,0.6717145999427885,True,20,0,0,0
Y2-S2-231K22,-,40,AS,adaptive,30,↑,up,↑,0.6767963001038879,True,20,0,0,0
Y2-S2-231K22,-,41,AS,adaptive,41,←,left,←,0.7450379999354482,True,20,1,0,0
Y2-S2-231K22,-,42,AS,adaptive,36,↑,up,↑,0.6136971998494118,True,19,1,0,0
Y2-S2-231K22,-,43,AS,adaptive,32,↓,down,↓,0.700138800079003,True,19,1,0,0
Y2-S2-231K22,-,44,AS,adaptive,42,→,right,→,0.6214427999220788,True,19,1,0,0
Y2-S2-231K22,-,45,AS,adaptive,28,←,left,←,0.6726929999422282,True,18,1,0,0
Y2-S2-231K22,-,46,AS,adaptive,33,→,right,→,0.680899899918586,True,18,1,0,0
Y2-S2-231K22,-,47,AS,adaptive,47,↑,up,↑,0.594891499960795,True,18,1,0,0
Y2-S2-231K22,-,48,AS,adaptive,28,→,right,→,0.7010147001128644,True,17,1,0,0
Y2-S2-231K22,-,49,AS,adaptive,46,←,left,←,0.8313325999770314,True,17,1,0,0
Y2-S2-231K22,-,50,AS,adaptive,27,→,right,→,0.6527170999906957,True,17,1,0,0
Y2-S2-231K22,-,51,AS,adaptive,37,←,left,←,0.6521840000059456,True,16,1,0,0
Y2-S2-231K22,-,52,AS,adaptive,33,↑,up,↑,0.7925690999254584,True,16,1,0,0
Y2-S2-231K22,-,53,AS,adaptive,40,→,right,→,0.6331893999595195,True,16,1,0,0
Y2-S2-231K22,-,54,AS,adaptive,29,↑,down,↓,0.8175770998932421,False,15,-1,1,1
Y2-S2-231K22,-,55,AS,adaptive,49,→,right,→,0.6053183001931757,True,16,-1,0,1
Y2-S2-231K22,-,56,AS,adaptive,27,←,left,←,0.5958283999934793,True,16,-1,0,1
Y2-S2-231K22,-,57,AS,adaptive,45,↓,down,↓,0.770334699889645,True,16,1,1,2
Y2-S2-231K22,-,58,AS,adaptive,27,→,right,→,0.6563800999429077,True,15,1,0,2
Y2-S2-231K22,-,59,AS,adaptive,26,↓,down,↓,0.6822631999384612,True,15,1,0,2
Y2-S2-231K22,-,60,AS,adaptive,50,→,right,→,0.5810014000162482,True,15,1,0,2
Y2-S2-231K22,-,61,AS,adaptive,37,↓,down,↓,0.7741416001226753,True,14,1,0,2
Y2-S2-231K22,-,62,AS,adaptive,41,↑,up,↑,0.8113778000697494,True,14,1,0,2
Y2-S2-231K22,-,63,AS,adaptive,39,↓,down,↓,0.9789109998382628,True,14,1,0,2
Y2-S2-231K22,-,64,AS,adaptive,27,→,right,→,0.570384900085628,True,13,1,0,2
Y2-S2-231K22,-,65,AS,adaptive,47,↓,left,←,0.9571226998232305,False,13,-1,1,3
Y2-S2-231K22,-,66,AS,adaptive,30,↑,down,↓,0.7358242000918835,False,14,-1,0,3
Y2-S2-231K22,-,67,AS,adaptive,36,←,right,→,0.6890100000891834,False,15,-1,0,3
Y2-S2-231K22,-,68,AS,adaptive,47,↑,up,↑,0.6870699001010507,True,16,-1,0,3
Y2-S2-231K22,-,69,AS,adaptive,34,←,left,←,0.7104132000822574,True,16,-1,0,3
Y2-S2-231K22,-,70,AS,adaptive,33,↑,up,↑,0.656781499972567,True,16,1,1,4
Y2-S2-231K22,1,71,AS,intra_train,47,←,left,←,0.676382799865678,True,22,-,-,-
Y2-S2-231K22,1,72,AS,intra_train,48,↓,down,↓,0.6984647000208497,True,22,-,-,-
Y2-S2-231K22,1,73,AS,intra_train,44,←,left,←,0.6015414998400956,True,22,-,-,-
Y2-S2-231K22,1,74,AS,intra_train,45,↓,down,↓,0.7840487998910248,True,22,-,-,-
Y2-S2-231K22,1,75,AS,intra_train,35,↑,up,↑,0.6895373999141157,True,22,-,-,-
Y2-S2-231K22,1,76,AS,exp,27,←,left,←,0.5174547999631613,True,15,0,0,0
Y2-S2-231K22,1,77,AS,exp,29,↑,left,←,0.6539000000339001,False,15,-1,0,0
Y2-S2-231K22,1,78,AS,exp,41,→,left,←,0.8672889000736177,False,16,-1,0,0
Y2-S2-231K22,1,79,AS,exp,33,↓,up,↑,0.6168937999755144,False,17,-1,0,0
Y2-S2-231K22,1,80,AS,exp,49,↑,up,↑,0.7756966000888497,True,18,-1,0,0
Y2-S2-231K22,1,81,AS,exp,48,→,left,←,0.6858743999619037,False,18,-1,0,0
Y2-S2-231K22,1,82,AS,exp,50,←,left,←,0.6576304000336677,True,19,-1,0,0
Y2-S2-231K22,1,83,AS,exp,38,↑,up,↑,1.0627461997792125,True,19,-1,0,0
Y2-S2-231K22,1,84,AS,exp,50,→,right,→,0.6622772000264376,True,19,1,1,1
Y2-S2-231K22,1,85,AS,exp,49,↓,down,↓,0.6936765999998897,True,18,1,0,1
Y2-S2-231K22,1,86,AS,exp,33,↑,up,↑,0.7630914999172091,True,18,1,0,1
Y2-S2-231K22,1,87,AS,exp,42,←,left,←,0.6686340998858213,True,18,1,0,1
Y2-S2-231K22,1,88,AS,exp,35,→,right,→,0.7500505999196321,True,17,1,0,1
Y2-S2-231K22,1,89,AS,exp,40,↑,up,↑,0.5713374000042677,True,17,1,0,1
Y2-S2-231K22,1,90,AS,exp,27,↓,down,↓,0.7460010999348015,True,17,1,0,1
Y2-S2-231K22,1,91,AS,exp,49,↑,up,↑,0.7065922999754548,True,16,1,0,1
Y2-S2-231K22,1,92,AS,exp,34,←,left,←,0.5401306001003832,True,16,1,0,1
Y2-S2-231K22,1,93,AS,exp,29,→,left,←,0.6007611998356879,False,16,-1,1,2
Y2-S2-231K22,1,94,AS,exp,38,↑,up,↑,0.5340356000233442,True,17,-1,0,2
Y2-S2-231K22,1,95,AS,exp,37,↓,down,↓,0.7378968999255449,True,17,-1,0,2
Y2-S2-231K22,1,96,AS,exp,41,↑,up,↑,0.6617041998542845,True,17,1,1,3
Y2-S2-231K22,1,97,AS,exp,44,→,right,→,0.8689750998746604,True,16,1,0,3
Y2-S2-231K22,1,98,AS,exp,48,↓,down,↓,0.6975684999488294,True,16,1,0,3
Y2-S2-231K22,1,99,AS,exp,38,↑,up,↑,0.6481558999512345,True,16,1,0,3
Y2-S2-231K22,1,100,AS,exp,48,←,left,←,0.5823087999597192,True,15,1,0,3
Y2-S2-231K22,1,101,AS,exp,45,→,left,←,0.7489059001673013,False,15,-1,1,4
Y2-S2-231K22,1,102,AS,exp,27,↓,down,↓,0.7545105000026524,True,16,-1,0,4
Y2-S2-231K22,1,103,AS,exp,39,↑,down,↓,0.59285349980928,False,16,-1,0,4
Y2-S2-231K22,1,104,AS,exp,25,↓,up,↑,0.6029322000686079,False,17,-1,0,4
Y2-S2-231K22,1,105,AS,exp,38,←,left,←,0.5839979001320899,True,18,-1,0,4
Y2-S2-231K22,1,106,AS,exp,43,↓,down,↓,0.7690512000117451,True,18,-1,0,4
Y2-S2-231K22,1,107,AS,exp,37,↑,up,↑,0.6119725999888033,True,18,1,1,5
Y2-S2-231K22,1,108,AS,exp,29,→,right,→,0.6327152999583632,True,17,1,0,5
Y2-S2-231K22,1,109,AS,exp,43,↑,up,↑,0.6657461998984218,True,17,1,0,5
Y2-S2-231K22,1,110,AS,exp,49,←,left,←,0.5813819000031799,True,17,1,0,5
Y2-S2-231K22,1,111,AS,exp,41,↓,down,↓,0.7184210000559688,True,16,1,0,5
Y2-S2-231K22,1,112,AS,exp,38,→,right,→,0.7185990998987108,True,16,1,0,5
Y2-S2-231K22,1,113,AS,exp,31,↓,down,↓,0.757505499990657,True,16,1,0,5
Y2-S2-231K22,1,114,AS,exp,32,→,right,→,0.590466900030151,True,15,1,0,5
Y2-S2-231K22,1,115,AS,exp,48,↑,up,↑,0.5129919999744743,True,15,1,0,5
Y2-S2-231K22,1,116,AS,exp,32,↓,down,↓,0.759859399870038,True,15,1,0,5
Y2-S2-231K22,1,117,AS,exp,43,←,left,←,0.8196642000693828,True,14,1,0,5
Y2-S2-231K22,1,118,AS,exp,36,↓,down,↓,0.805210700025782,True,14,1,0,5
Y2-S2-231K22,1,119,AS,exp,42,↑,up,↑,0.6922359000891447,True,14,1,0,5
Y2-S2-231K22,1,120,AS,exp,37,←,left,←,0.5733264998998493,True,13,1,0,5
Y2-S2-231K22,1,121,AS,exp,27,→,right,→,0.6385111000854522,True,13,1,0,5
Y2-S2-231K22,1,122,AS,exp,49,↓,down,↓,0.7323457999154925,True,13,1,0,5
Y2-S2-231K22,1,123,AS,exp,35,←,left,←,0.6554739999119192,True,12,1,0,5
Y2-S2-231K22,1,124,AS,exp,28,↓,down,↓,0.6810674001462758,True,12,1,0,5
Y2-S2-231K22,1,125,AS,exp,44,↑,down,↓,0.8306485000066459,False,12,-1,1,6
Y2-S2-231K22,1,126,AS,exp,47,→,left,←,0.7167381998151541,False,13,-1,0,6
Y2-S2-231K22,1,127,AS,exp,27,↓,left,←,0.8210531000513583,False,14,-1,0,6
Y2-S2-231K22,1,128,AS,exp,35,←,left,←,0.5545277001801878,True,15,-1,0,6
Y2-S2-231K22,1,129,AS,exp,27,↓,down,↓,0.6999029000289738,True,15,-1,0,6
Y2-S2-231K22,1,130,AS,exp,44,→,right,→,0.6394076000433415,True,15,1,1,7
Y2-S2-231K22,1,131,AS,exp,47,↑,up,↑,0.9090476999990642,True,14,1,0,7
Y2-S2-231K22,1,132,AS,exp,45,↓,down,↓,0.6898008000571281,True,14,1,0,7
Y2-S2-231K22,1,133,AS,exp,26,↑,down,↓,0.8784666999708861,False,14,-1,1,8
Y2-S2-231K22,1,134,AS,exp,40,→,right,→,0.6359873998444527,True,15,-1,0,8
Y2-S2-231K22,1,135,AS,exp,35,←,right,→,0.5869722000788897,False,15,-1,0,8
Y2-S2-231K22,1,136,AS,exp,30,↓,down,↓,0.7126802999991924,True,16,-1,0,8
Y2-S2-231K22,1,137,AS,exp,44,→,right,→,0.692897800123319,True,16,-1,0,8
Y2-S2-231K22,1,138,AS,exp,29,↑,up,↑,0.6824811999686062,True,16,1,1,9
Y2-S2-231K22,1,139,AS,exp,43,↓,down,↓,0.7239116001874208,True,15,1,0,9
Y2-S2-231K22,1,140,AS,exp,40,←,left,←,0.6110694999806583,True,15,1,0,9
Y2-S2-231K22,1,141,AS,exp,49,→,left,←,0.8629274999257177,False,15,-1,1,10
Y2-S2-231K22,1,142,AS,exp,34,↓,left,←,0.9989085998386145,False,16,-1,0,10
Y2-S2-231K22,1,143,AS,exp,34,↑,up,↑,0.605067899916321,True,17,-1,0,10
Y2-S2-231K22,1,144,AS,exp,37,↓,down,↓,0.8050372002180666,True,17,-1,0,10
Y2-S2-231K22,1,145,AS,exp,39,↑,up,↑,0.9423702000640333,True,17,1,1,11
Y2-S2-231K22,1,146,AS,exp,32,↓,down,↓,0.9044492000248283,True,16,1,0,11
Y2-S2-231K22,1,147,AS,exp,25,←,right,→,1.1501009999774396,False,16,-1,1,12
Y2-S2-231K22,1,148,AS,exp,33,↓,down,↓,0.6465768001507968,True,17,-1,0,12
Y2-S2-231K22,1,149,AS,exp,40,→,right,→,0.607005099998787,True,17,-1,0,12
Y2-S2-231K22,1,150,AS,exp,46,↓,down,↓,0.6678888001479208,True,17,1,1,13
Y2-S2-231K22,1,151,AS,exp,36,←,left,←,0.6111951000057161,True,16,1,0,13
Y2-S2-231K22,1,152,AS,exp,36,↓,down,↓,0.7333717998117208,True,16,1,0,13
Y2-S2-231K22,1,153,AS,exp,38,←,left,←,0.79008479998447,True,16,1,0,13
Y2-S2-231K22,1,154,AS,exp,43,↓,down,↓,0.7803738000802696,True,15,1,0,13
Y2-S2-231K22,1,155,AS,exp,41,↑,up,↑,0.7618231999222189,True,15,1,0,13
Y2-S2-231K22,1,156,AS,exp,27,↓,down,↓,0.656857900088653,True,15,1,0,13
Y2-S2-231K22,1,157,AS,exp,46,↑,left,←,0.8185801000799984,False,14,-1,1,14
Y2-S2-231K22,1,158,AS,exp,40,↓,down,↓,0.6154241999611259,True,15,-1,0,14
Y2-S2-231K22,1,159,AS,exp,29,↑,up,↑,0.587436500005424,True,15,-1,0,14
Y2-S2-231K22,1,160,AS,exp,37,←,left,←,0.8774627998936921,True,15,1,1,15
Y2-S2-231K22,1,161,AS,exp,30,→,right,→,0.9479584998916835,True,14,1,0,15
Y2-S2-231K22,1,162,AS,exp,41,↓,down,↓,0.5975712998770177,True,14,1,0,15
Y2-S2-231K22,1,163,AS,exp,36,→,left,←,0.9259379000868648,False,14,-1,1,16
Y2-S2-231K22,2,164,PS,intra_train,35,↑,up,↑,1.5171077998820692,True,16,-,-,-
Y2-S2-231K22,2,165,PS,intra_train,49,←,right,→,1.0266980999149382,False,16,-,-,-
Y2-S2-231K22,2,166,PS,intra_train,32,↑,up,↑,0.5629831000696868,True,16,-,-,-
Y2-S2-231K22,2,167,PS,intra_train,46,↓,down,↓,0.6624866998754442,True,16,-,-,-
Y2-S2-231K22,2,168,PS,intra_train,35,→,down,↓,0.8112953999079764,False,16,-,-,-
Y2-S2-231K22,2,169,PS,exp,31,←,left,←,0.5642725999932736,True,11,0,0,0
Y2-S2-231K22,2,170,PS,exp,43,→,right,→,0.5506954998709261,True,11,0,0,0
Y2-S2-231K22,2,171,PS,exp,40,↓,up,↑,0.6725060997996479,False,11,-1,0,0
Y2-S2-231K22,2,172,PS,exp,32,→,right,→,0.6394802001304924,True,12,-1,0,0
Y2-S2-231K22,2,173,PS,exp,35,↓,down,↓,0.7004502001218498,True,12,-1,0,0
Y2-S2-231K22,2,174,PS,exp,26,↑,right,→,0.843541800044477,False,12,-1,0,0
Y2-S2-231K22,2,175,PS,exp,48,→,left,←,0.740205500042066,False,13,-1,0,0
Y2-S2-231K22,2,176,PS,exp,26,↑,up,↑,0.48715850012376904,True,14,-1,0,0
Y2-S2-231K22,2,177,PS,exp,41,→,right,→,0.665428000036627,True,14,-1,0,0
Y2-S2-231K22,2,178,PS,exp,48,↓,down,↓,0.7878147000446916,True,14,1,1,1
Y2-S2-231K22,2,179,PS,exp,28,↑,down,↓,0.6556273000314832,False,13,-1,1,2
Y2-S2-231K22,2,180,PS,exp,40,←,left,←,0.4522096000146121,True,14,-1,0,2
Y2-S2-231K22,2,181,PS,exp,47,↓,down,↓,0.5804011998698115,True,14,-1,0,2
Y2-S2-231K22,2,182,PS,exp,49,←,left,←,0.9954137001186609,True,14,1,1,3
Y2-S2-231K22,2,183,PS,exp,46,→,right,→,0.707488999934867,True,13,1,0,3
Y2-S2-231K22,2,184,PS,exp,26,↑,up,↑,0.580795600079,True,13,1,0,3
Y2-S2-231K22,2,185,PS,exp,33,←,down,↓,0.9893467000219971,False,13,-1,1,4
Y2-S2-231K22,2,186,PS,exp,49,↑,up,↑,0.6746085998602211,True,14,-1,0,4
Y2-S2-231K22,2,187,PS,exp,30,←,left,←,0.5441952000837773,True,14,-1,0,4
Y2-S2-231K22,2,188,PS,exp,28,↑,up,↑,0.5645031998865306,True,14,1,1,5
Y2-S2-231K22,2,189,PS,exp,37,↓,down,↓,0.653150400146842,True,13,1,0,5
Y2-S2-231K22,2,190,PS,exp,46,→,right,→,0.6949943001382053,True,13,1,0,5
Y2-S2-231K22,2,191,PS,exp,37,↓,down,↓,0.6754639998544008,True,13,1,0,5
Y2-S2-231K22,2,192,PS,exp,43,↑,up,↑,0.5800834998954087,True,12,1,0,5
Y2-S2-231K22,2,193,PS,exp,45,↓,down,↓,0.6531241999473423,True,12,1,0,5
Y2-S2-231K22,2,194,PS,exp,33,→,right,→,0.5034096001181751,True,12,1,0,5
Y2-S2-231K22,2,195,PS,exp,41,↑,left,←,0.7484873998910189,False,11,-1,1,6
Y2-S2-231K22,2,196,PS,exp,46,←,left,←,0.7000799002125859,True,12,-1,0,6
Y2-S2-231K22,2,197,PS,exp,31,→,right,→,0.5119002000428736,True,12,-1,0,6
Y2-S2-231K22,2,198,PS,exp,29,↑,up,↑,0.6891632999759167,True,12,1,1,7
Y2-S2-231K22,2,199,PS,exp,46,←,left,←,0.6859444000292569,True,11,1,0,7
Y2-S2-231K22,2,200,PS,exp,47,→,right,→,0.5268208000343293,True,11,1,0,7
Y2-S2-231K22,2,201,PS,exp,50,←,right,→,0.6578204999677837,False,11,-1,1,8
Y2-S2-231K22,2,202,PS,exp,32,↓,down,↓,0.6908905999734998,True,12,-1,0,8
Y2-S2-231K22,2,203,PS,exp,37,→,left,←,0.65909230010584,False,12,-1,0,8
Y2-S2-231K22,2,204,PS,exp,39,↑,up,↑,0.5888716999907047,True,13,-1,0,8
Y2-S2-231K22,2,205,PS,exp,36,←,left,←,0.7000157998409122,True,13,-1,0,8
Y2-S2-231K22,2,206,PS,exp,40,→,right,→,0.497236100025475,True,13,1,1,9
Y2-S2-231K22,2,207,PS,exp,34,↑,up,↑,0.5519644999876618,True,12,1,0,9
Y2-S2-231K22,2,208,PS,exp,43,→,right,→,0.5974997000303119,True,12,1,0,9
Y2-S2-231K22,2,209,PS,exp,27,←,left,←,0.5288710000459105,True,12,1,0,9
Y2-S2-231K22,2,210,PS,exp,50,↓,left,←,0.6757775000296533,False,11,-1,1,10
Y2-S2-231K22,2,211,PS,exp,46,→,right,→,0.6829414998646826,True,12,-1,0,10
Y2-S2-231K22,2,212,PS,exp,32,←,left,←,0.5660504000261426,True,12,-1,0,10
Y2-S2-231K22,2,213,PS,exp,43,↑,up,↑,0.5095295000355691,True,12,1,1,11
Y2-S2-231K22,2,214,PS,exp,48,↓,down,↓,0.5923733999952674,True,11,1,0,11
Y2-S2-231K22,2,215,PS,exp,45,↑,left,←,0.6915049999952316,False,11,-1,1,12
Y2-S2-231K22,2,216,PS,exp,44,↓,down,↓,1.0886053999420255,True,12,-1,0,12
Y2-S2-231K22,2,217,PS,exp,26,←,left,←,0.5577547000721097,True,12,-1,0,12
Y2-S2-231K22,2,218,PS,exp,47,↓,down,↓,0.663728800136596,True,12,1,1,13
Y2-S2-231K22,2,219,PS,exp,29,←,left,←,0.9068408999592066,True,11,1,0,13
Y2-S2-231K22,2,220,PS,exp,50,↓,down,↓,0.6248042001388967,True,11,1,0,13
Y2-S2-231K22,2,221,PS,exp,25,→,right,→,0.5811115000396967,True,11,1,0,13
Y2-S2-231K22,2,222,PS,exp,47,↑,up,↑,0.5198860999662429,True,10,1,0,13
Y2-S2-231K22,2,223,PS,exp,48,←,left,←,0.5807362000923604,True,10,1,0,13
Y2-S2-231K22,2,224,PS,exp,42,→,right,→,0.6858357000164688,True,10,1,0,13
Y2-S2-231K22,2,225,PS,exp,33,↓,left,←,1.0089755998924375,False,9,-1,1,14
Y2-S2-231K22,2,226,PS,exp,27,↑,down,↓,0.5732501999009401,False,10,-1,0,14
Y2-S2-231K22,2,227,PS,exp,49,↓,down,↓,0.759160100016743,True,11,-1,0,14
Y2-S2-231K22,2,228,PS,exp,41,↑,up,↑,0.5688670999370515,True,11,-1,0,14
Y2-S2-231K22,2,229,PS,exp,46,→,right,→,0.6146752999629825,True,11,1,1,15
Y2-S2-231K22,2,230,PS,exp,27,↓,down,↓,0.6436093999072909,True,10,1,0,15
Y2-S2-231K22,2,231,PS,exp,34,←,left,←,0.5491291000507772,True,10,1,0,15
Y2-S2-231K22,2,232,PS,exp,28,→,right,→,0.8564878001343459,True,10,1,0,15
Y2-S2-231K22,2,233,PS,exp,45,↑,up,↑,0.4928265998605639,True,9,1,0,15
Y2-S2-231K22,2,234,PS,exp,26,→,right,→,0.6072515000123531,True,9,1,0,15
Y2-S2-231K22,2,235,PS,exp,30,↑,up,↑,0.6474911000113934,True,9,1,0,15
Y2-S2-231K22,2,236,PS,exp,41,←,left,←,0.5916029999498278,True,8,1,0,15
Y2-S2-231K22,2,237,PS,exp,28,→,right,→,0.8508393000811338,True,8,1,0,15
Y2-S2-231K22,2,238,PS,exp,50,↑,up,↑,0.6412934998515993,True,8,1,0,15
Y2-S2-231K22,2,239,PS,exp,35,↓,down,↓,0.5359841999597847,True,7,1,0,15
Y2-S2-231K22,2,240,PS,exp,25,→,right,→,0.9574684000108391,True,7,1,0,15
Y2-S2-231K22,2,241,PS,exp,36,↓,down,↓,0.5823540999554098,True,7,1,0,15
Y2-S2-231K22,2,242,PS,exp,33,←,left,←,0.5565873000305146,True,6,1,0,15
Y2-S2-231K22,2,243,PS,exp,29,→,right,→,0.7146011998411268,True,6,1,0,15
Y2-S2-231K22,2,244,PS,exp,32,←,left,←,0.5187147001270205,True,6,1,0,15
Y2-S2-231K22,2,245,PS,exp,48,↑,down,↓,0.808917400194332,False,5,-1,1,16
Y2-S2-231K22,3,246,PS,intra_train,37,←,left,←,0.505814400035888,True,16,-,-,-
Y2-S2-231K22,3,247,PS,intra_train,43,↑,up,↑,0.5533980999607593,True,16,-,-,-
Y2-S2-231K22,3,248,PS,intra_train,48,↓,down,↓,0.6486671001184732,True,16,-,-,-
Y2-S2-231K22,3,249,PS,intra_train,26,↑,up,↑,0.5377164001110941,True,16,-,-,-
Y2-S2-231K22,3,250,PS,intra_train,29,→,right,→,0.5174742999952286,True,16,-,-,-
Y2-S2-231K22,3,251,PS,exp,46,↓,down,↓,0.5862484001554549,True,11,0,0,0
Y2-S2-231K22,3,252,PS,exp,34,↑,up,↑,0.5186563997995108,True,11,0,0,0
Y2-S2-231K22,3,253,PS,exp,26,→,right,→,0.4449340000282973,True,11,1,0,0
Y2-S2-231K22,3,254,PS,exp,49,←,left,←,0.4742171000689268,True,10,1,0,0
Y2-S2-231K22,3,255,PS,exp,27,→,right,→,0.4774847000371665,True,10,1,0,0
Y2-S2-231K22,3,256,PS,exp,28,←,down,↓,0.8655397999100387,False,10,-1,1,1
Y2-S2-231K22,3,257,PS,exp,41,↑,up,↑,0.6234800999518484,True,11,-1,0,1
Y2-S2-231K22,3,258,PS,exp,42,←,left,←,0.4394522001966834,True,11,-1,0,1
Y2-S2-231K22,3,259,PS,exp,26,↓,down,↓,0.6513940999284387,True,11,1,1,2
Y2-S2-231K22,3,260,PS,exp,36,↑,up,↑,0.6879048000555485,True,10,1,0,2
Y2-S2-231K22,3,261,PS,exp,45,←,left,←,0.6097107001114637,True,10,1,0,2
Y2-S2-231K22,3,262,PS,exp,37,↑,right,→,0.8871026001870632,False,10,-1,1,3
Y2-S2-231K22,3,263,PS,exp,44,↓,down,↓,0.7050652999896556,True,11,-1,0,3
Y2-S2-231K22,3,264,PS,exp,48,←,left,←,0.43611679994501173,True,11,-1,0,3
Y2-S2-231K22,3,265,PS,exp,30,↓,down,↓,0.570274000056088,True,11,1,1,4
Y2-S2-231K22,3,266,PS,exp,42,→,right,→,0.4588543002028018,True,10,1,0,4
Y2-S2-231K22,3,267,PS,exp,34,←,left,←,0.4981589999515563,True,10,1,0,4
Y2-S2-231K22,3,268,PS,exp,30,↑,up,↑,0.5868855998851359,True,10,1,0,4
Y2-S2-231K22,3,269,PS,exp,32,→,right,→,0.5357476000208408,True,9,1,0,4
Y2-S2-231K22,3,270,PS,exp,47,←,right,→,0.5401858000550419,False,9,-1,1,5
Y2-S2-231K22,3,271,PS,exp,43,↑,up,↑,0.5640096999704838,True,10,-1,0,5
Y2-S2-231K22,3,272,PS,exp,45,↓,down,↓,0.5918493000790477,True,10,-1,0,5
Y2-S2-231K22,3,273,PS,exp,49,←,left,←,0.6164231000002474,True,10,1,1,6
Y2-S2-231K22,3,274,PS,exp,42,↓,down,↓,0.5535937999375165,True,9,1,0,6
Y2-S2-231K22,3,275,PS,exp,35,→,left,←,0.6850362000986934,False,9,-1,1,7
Y2-S2-231K22,3,276,PS,exp,34,←,left,←,0.4816751000471413,True,10,-1,0,7
Y2-S2-231K22,3,277,PS,exp,25,↓,left,←,0.5013676001690328,False,10,-1,0,7
Y2-S2-231K22,3,278,PS,exp,46,←,left,←,0.4856420001015067,True,11,-1,0,7
Y2-S2-231K22,3,279,PS,exp,33,→,right,→,0.49040000000968575,True,11,-1,0,7
Y2-S2-231K22,3,280,PS,exp,40,↓,down,↓,0.5658303000964224,True,11,1,1,8
Y2-S2-231K22,3,281,PS,exp,47,→,right,→,0.5828994999174029,True,10,1,0,8
Y2-S2-231K22,3,282,PS,exp,49,↑,up,↑,0.6053523998707533,True,10,1,0,8
Y2-S2-231K22,3,283,PS,exp,37,↓,down,↓,0.5049788998439908,True,10,1,0,8
Y2-S2-231K22,3,284,PS,exp,43,→,left,←,0.8351604000199586,False,9,-1,1,9
Y2-S2-231K22,3,285,PS,exp,41,↓,down,↓,0.6700784000568092,True,10,-1,0,9
Y2-S2-231K22,3,286,PS,exp,40,→,right,→,0.6189719000831246,True,10,-1,0,9
Y2-S2-231K22,3,287,PS,exp,35,↑,down,↓,0.7145726000890136,False,10,-1,0,9
Y2-S2-231K22,3,288,PS,exp,29,→,right,→,0.6617389000020921,True,11,-1,0,9
Y2-S2-231K22,3,289,PS,exp,30,↑,down,↓,0.6598922999110073,False,11,-1,0,9
Y2-S2-231K22,3,290,PS,exp,31,←,left,←,0.5540879999753088,True,12,-1,0,9
Y2-S2-231K22,3,291,PS,exp,25,→,right,→,0.5112727000378072,True,12,-1,0,9
Y2-S2-231K22,3,292,PS,exp,50,←,right,→,0.9732860999647528,False,12,-1,0,9
Y2-S2-231K22,3,293,PS,exp,37,↓,down,↓,0.7209559998009354,True,13,-1,0,9
Y2-S2-231K22,3,294,PS,exp,38,↑,up,↑,0.5589473000727594,True,13,-1,0,9
Y2-S2-231K22,3,295,PS,exp,25,↓,up,↑,0.6600295999087393,False,13,-1,0,9
Y2-S2-231K22,3,296,PS,exp,46,↑,up,↑,0.5337867999915034,True,14,-1,0,9
Y2-S2-231K22,3,297,PS,exp,41,→,right,→,0.529910699930042,True,14,-1,0,9
Y2-S2-231K22,3,298,PS,exp,30,↓,down,↓,0.622193899936974,True,14,1,1,10
Y2-S2-231K22,3,299,PS,exp,30,→,right,→,0.6014064000919461,True,13,1,0,10
Y2-S2-231K22,3,300,PS,exp,35,↓,down,↓,0.5548538998700678,True,13,1,0,10
Y2-S2-231K22,3,301,PS,exp,30,→,right,→,0.49498139997012913,True,13,1,0,10
Y2-S2-231K22,3,302,PS,exp,25,←,left,←,0.5861388000193983,True,12,1,0,10
Y2-S2-231K22,3,303,PS,exp,39,↓,down,↓,0.49263070011511445,True,12,1,0,10
Y2-S2-231K22,3,304,PS,exp,38,↑,up,↑,0.5886826999485493,True,12,1,0,10
Y2-S2-231K22,3,305,PS,exp,36,→,right,→,0.7175898000132293,True,11,1,0,10
Y2-S2-231K22,3,306,PS,exp,39,↓,down,↓,0.5419463999569416,True,11,1,0,10
Y2-S2-231K22,3,307,PS,exp,49,←,left,←,0.5809684998821467,True,11,1,0,10
Y2-S2-231K22,3,308,PS,exp,33,→,right,→,0.5741498998831958,True,10,1,0,10
Y2-S2-231K22,3,309,PS,exp,45,←,left,←,0.5532190999947488,True,10,1,0,10
Y2-S2-231K22,3,310,PS,exp,46,→,right,→,0.44400150002911687,True,10,1,0,10
Y2-S2-231K22,3,311,PS,exp,40,↑,left,←,0.48511760006658733,False,9,-1,1,11
Y2-S2-231K22,3,312,PS,exp,26,↓,down,↓,0.5361865998711437,True,10,-1,0,11
Y2-S2-231K22,3,313,PS,exp,40,←,right,→,0.44561669998802245,False,10,-1,0,11
Y2-S2-231K22,3,314,PS,exp,32,→,right,→,0.46629799995571375,True,11,-1,0,11
Y2-S2-231K22,3,315,PS,exp,45,←,left,←,0.42328300001099706,True,11,-1,0,11
Y2-S2-231K22,3,316,PS,exp,27,↓,right,→,0.692649100208655,False,11,-1,0,11
Y2-S2-231K22,3,317,PS,exp,46,→,right,→,0.5427945000119507,True,12,-1,0,11
Y2-S2-231K22,3,318,PS,exp,36,↓,down,↓,0.6652190999593586,True,12,-1,0,11
Y2-S2-231K22,3,319,PS,exp,35,→,right,→,0.4273886000737548,True,12,1,1,12
Y2-S2-231K22,3,320,PS,exp,47,↓,down,↓,0.7925270001869649,True,11,1,0,12
Y2-S2-231K22,3,321,PS,exp,50,↑,up,↑,0.5170955001376569,True,11,1,0,12
Y2-S2-231K22,3,322,PS,exp,49,↓,down,↓,0.6226354001555592,True,11,1,0,12
Y2-S2-231K22,3,323,PS,exp,44,→,right,→,0.5308381000068039,True,10,1,0,12
Y2-S2-231K22,3,324,PS,exp,29,↑,up,↑,0.6822627999354154,True,10,1,0,12
Y2-S2-231K22,3,325,PS,exp,34,→,right,→,0.862209300044924,True,10,1,0,12
Y2-S2-231K22,3,326,PS,exp,29,↓,down,↓,0.6507282999809831,True,9,1,0,12
Y2-S2-231K22,3,327,PS,exp,25,←,left,←,0.7451935999561101,True,9,1,0,12
Y2-S2-231K22,3,328,PS,exp,35,↑,left,←,0.5875178999267519,False,9,-1,1,13
Y2-S2-231K22,3,329,PS,exp,49,←,left,←,0.5422320000361651,True,10,-1,0,13
Y2-S2-231K22,3,330,PS,exp,31,↓,right,→,0.7414611000567675,False,10,-1,0,13
Y2-S2-231K22,3,331,PS,exp,33,←,left,←,0.7099139001220465,True,11,-1,0,13
Y2-S2-231K22,3,332,PS,exp,40,→,right,→,0.5752226999029517,True,11,-1,0,13
Y2-S2-231K22,3,333,PS,exp,26,↓,down,↓,0.5624619999434799,True,11,1,1,14
Y2-S2-231K22,3,334,PS,exp,50,←,left,←,0.5810153000056744,True,10,1,0,14
Y2-S2-231K22,3,335,PS,exp,26,↑,up,↑,0.602142799878493,True,10,1,0,14
Y2-S2-231K22,3,336,PS,exp,41,→,down,↓,0.8437355000060052,False,10,-1,1,15
Y2-S2-231K22,3,337,PS,exp,42,←,left,←,0.4603186999447644,True,11,-1,0,15
Y2-S2-231K22,3,338,PS,exp,26,→,right,→,0.5147212999872863,True,11,-1,0,15
Y2-S2-231K22,3,339,PS,exp,37,↑,up,↑,0.5478600000496954,True,11,1,1,16
Y2-S2-231K22,4,340,AS,intra_train,36,→,right,→,0.6029562000185251,True,22,-,-,-
Y2-S2-231K22,4,341,AS,intra_train,45,↑,up,↑,0.5535590001381934,True,22,-,-,-
Y2-S2-231K22,4,342,AS,intra_train,45,→,left,←,0.5596660000737756,False,22,-,-,-
Y2-S2-231K22,4,343,AS,intra_train,36,↑,up,↑,0.6388313001953065,True,22,-,-,-
Y2-S2-231K22,4,344,AS,intra_train,48,↓,down,↓,0.7278364999219775,True,22,-,-,-
Y2-S2-231K22,4,345,AS,exp,47,→,right,→,0.5978883001953363,True,15,0,0,0
Y2-S2-231K22,4,346,AS,exp,50,←,left,←,0.5358945999760181,True,15,0,0,0
Y2-S2-231K22,4,347,AS,exp,47,↓,down,↓,0.7236478999257088,True,15,1,0,0
Y2-S2-231K22,4,348,AS,exp,38,→,right,→,0.6545983001124114,True,14,1,0,0
Y2-S2-231K22,4,349,AS,exp,27,↑,down,↓,0.7846528000663966,False,14,-1,1,1
Y2-S2-231K22,4,350,AS,exp,44,↓,down,↓,0.6247008999343961,True,15,-1,0,1
Y2-S2-231K22,4,351,AS,exp,30,↑,up,↑,0.494471900165081,True,15,-1,0,1
Y2-S2-231K22,4,352,AS,exp,34,→,right,→,0.5955093000084162,True,15,1,1,2
Y2-S2-231K22,4,353,AS,exp,36,←,down,↓,0.7181212999857962,False,14,-1,1,3
Y2-S2-231K22,4,354,AS,exp,35,↑,down,↓,0.7301086001098156,False,15,-1,0,3
Y2-S2-231K22,4,355,AS,exp,44,→,right,→,0.5199762000702322,True,16,-1,0,3
Y2-S2-231K22,4,356,AS,exp,27,↓,down,↓,0.5845566999632865,True,16,-1,0,3
Y2-S2-231K22,4,357,AS,exp,33,↑,up,↑,0.4757042001001537,True,16,1,1,4
Y2-S2-231K22,4,358,AS,exp,33,→,left,←,0.7103748999070376,False,15,-1,1,5
Y2-S2-231K22,4,359,AS,exp,36,↓,down,↓,0.9496920998208225,True,16,-1,0,5
Y2-S2-231K22,4,360,AS,exp,45,→,right,→,0.4501807999331504,True,16,-1,0,5
Y2-S2-231K22,4,361,AS,exp,40,↓,down,↓,0.7812632999848574,True,16,1,1,6
Y2-S2-231K22,4,362,AS,exp,50,↑,down,↓,0.6480457000434399,False,15,-1,1,7
Y2-S2-231K22,4,363,AS,exp,46,↓,down,↓,0.643938000081107,True,16,-1,0,7
Y2-S2-231K22,4,364,AS,exp,46,→,right,→,0.4950443999841809,True,16,-1,0,7
Y2-S2-231K22,4,365,AS,exp,30,↓,down,↓,0.6221183999441564,True,16,1,1,8
Y2-S2-231K22,4,366,AS,exp,30,↑,up,↑,0.4864606000483036,True,15,1,0,8
Y2-S2-231K22,4,367,AS,exp,34,←,left,←,0.6496077999472618,True,15,1,0,8
Y2-S2-231K22,4,368,AS,exp,33,↑,down,↓,0.6631549000740051,False,15,-1,1,9
Y2-S2-231K22,4,369,AS,exp,50,←,left,←,0.629157799994573,True,16,-1,0,9
Y2-S2-231K22,4,370,AS,exp,42,↑,up,↑,0.6103711000178009,True,16,-1,0,9
Y2-S2-231K22,4,371,AS,exp,48,→,right,→,0.6260375999845564,True,16,1,1,10
Y2-S2-231K22,4,372,AS,exp,25,←,right,→,0.5106780000496656,False,15,-1,1,11
Y2-S2-231K22,4,373,AS,exp,42,→,right,→,0.6277389000169933,True,16,-1,0,11
Y2-S2-231K22,4,374,AS,exp,48,↑,up,↑,0.5346699999645352,True,16,-1,0,11
Y2-S2-231K22,4,375,AS,exp,31,←,left,←,0.5511178998276591,True,16,1,1,12
Y2-S2-231K22,4,376,AS,exp,29,→,left,←,0.5338010000996292,False,15,-1,1,13
Y2-S2-231K22,4,377,AS,exp,28,←,left,←,0.49808680010028183,True,16,-1,0,13
Y2-S2-231K22,4,378,AS,exp,50,↓,right,→,0.8364241998642683,False,16,-1,0,13
Y2-S2-231K22,4,379,AS,exp,49,←,left,←,0.6614975999109447,True,17,-1,0,13
Y2-S2-231K22,4,380,AS,exp,46,↑,up,↑,0.573504300089553,True,17,-1,0,13
Y2-S2-231K22,4,381,AS,exp,35,←,left,←,0.6400977000594139,True,17,1,1,14
Y2-S2-231K22,4,382,AS,exp,36,→,right,→,0.5276450000237674,True,16,1,0,14
Y2-S2-231K22,4,383,AS,exp,48,↑,down,↓,0.8289183999877423,False,16,-1,1,15
Y2-S2-231K22,4,384,AS,exp,30,←,left,←,0.8442655999679118,True,17,-1,0,15
Y2-S2-231K22,4,385,AS,exp,38,→,right,→,0.5539412000216544,True,17,-1,0,15
Y2-S2-231K22,4,386,AS,exp,25,←,left,←,0.6884862999431789,True,17,1,1,16
Y2-S2-231K22,5,387,AS,intra_train,28,↑,up,↑,0.6988528000656515,True,22,-,-,-
Y2-S2-231K22,5,388,AS,intra_train,42,→,right,→,0.6145639000460505,True,22,-,-,-
Y2-S2-231K22,5,389,AS,intra_train,25,↓,down,↓,0.7421968998387456,True,22,-,-,-
Y2-S2-231K22,5,390,AS,intra_train,32,→,right,→,0.6064416000153869,True,22,-,-,-
Y2-S2-231K22,5,391,AS,intra_train,31,↓,down,↓,0.8257931000553071,True,22,-,-,-
Y2-S2-231K22,5,392,AS,exp,38,↑,up,↑,0.6659822999499738,True,15,0,0,0
Y2-S2-231K22,5,393,AS,exp,28,←,left,←,0.6247004999313504,True,15,0,0,0
Y2-S2-231K22,5,394,AS,exp,48,↑,up,↑,0.5453492000233382,True,15,1,0,0
Y2-S2-231K22,5,395,AS,exp,39,←,left,←,0.46042979997582734,True,14,1,0,0
Y2-S2-231K22,5,396,AS,exp,40,→,right,→,0.48102539987303317,True,14,1,0,0
Y2-S2-231K22,5,397,AS,exp,27,↓,down,↓,0.7608731999062002,True,14,1,0,0
Y2-S2-231K22,5,398,AS,exp,35,→,left,←,0.5908851001877338,False,13,-1,1,1
Y2-S2-231K22,5,399,AS,exp,35,↓,up,↑,0.6570388001855463,False,14,-1,0,1
Y2-S2-231K22,5,400,AS,exp,42,←,left,←,0.5733062999788672,True,15,-1,0,1
Y2-S2-231K22,5,401,AS,exp,28,↓,down,↓,0.5548821000847965,True,15,-1,0,1
Y2-S2-231K22,5,402,AS,exp,27,←,left,←,0.5226243999786675,True,15,1,1,2
Y2-S2-231K22,5,403,AS,exp,25,↓,left,←,0.6684995999094099,False,14,-1,1,3
Y2-S2-231K22,5,404,AS,exp,25,→,right,→,0.5615473999641836,True,15,-1,0,3
Y2-S2-231K22,5,405,AS,exp,39,↑,up,↑,0.5611123000271618,True,15,-1,0,3
Y2-S2-231K22,5,406,AS,exp,50,↓,down,↓,0.6888574999757111,True,15,1,1,4
Y2-S2-231K22,5,407,AS,exp,31,↑,up,↑,0.5371709999162704,True,14,1,0,4
Y2-S2-231K22,5,408,AS,exp,26,↓,down,↓,0.7244510999880731,True,14,1,0,4
Y2-S2-231K22,5,409,AS,exp,32,→,right,→,0.5076039000414312,True,14,1,0,4
Y2-S2-231K22,5,410,AS,exp,29,←,left,←,0.5327478998806328,True,13,1,0,4
Y2-S2-231K22,5,411,AS,exp,30,→,right,→,0.5905347999650985,True,13,1,0,4
Y2-S2-231K22,5,412,AS,exp,49,↑,down,↓,0.6625043000094593,False,13,-1,1,5
Y2-S2-231K22,5,413,AS,exp,26,→,right,→,0.8921396001242101,True,14,-1,0,5
Y2-S2-231K22,5,414,AS,exp,50,↓,down,↓,0.7054961000103503,True,14,-1,0,5
Y2-S2-231K22,5,415,AS,exp,47,→,right,→,0.5860334001481533,True,14,1,1,6
Y2-S2-231K22,5,416,AS,exp,50,↑,down,↓,0.7130322998855263,False,13,-1,1,7
Y2-S2-231K22,5,417,AS,exp,27,→,right,→,0.6989661001134664,True,14,-1,0,7
Y2-S2-231K22,5,418,AS,exp,33,↑,up,↑,0.7149299997836351,True,14,-1,0,7
Y2-S2-231K22,5,419,AS,exp,33,↓,down,↓,0.6635010000318289,True,14,1,1,8
Y2-S2-231K22,5,420,AS,exp,28,↑,up,↑,0.5899699998553842,True,13,1,0,8
Y2-S2-231K22,5,421,AS,exp,32,→,left,←,0.553689599968493,False,13,-1,1,9
Y2-S2-231K22,5,422,AS,exp,40,↑,down,↓,0.6584607001859695,False,14,-1,0,9
Y2-S2-231K22,5,423,AS,exp,38,←,left,←,0.5403034000191838,True,15,-1,0,9
Y2-S2-231K22,5,424,AS,exp,25,↓,left,←,1.1589279999025166,False,15,-1,0,9
Y2-S2-231K22,5,425,AS,exp,26,↑,up,↑,0.7239777001086622,True,16,-1,0,9
Y2-S2-231K22,5,426,AS,exp,26,↓,down,↓,0.7449209000915289,True,16,-1,0,9
Y2-S2-231K22,5,427,AS,exp,47,→,left,←,0.6935139999259263,False,16,-1,0,9
Y2-S2-231K22,5,428,AS,exp,26,↑,up,↑,0.645185399800539,True,17,-1,0,9
Y2-S2-231K22,5,429,AS,exp,35,←,left,←,0.8133278999011964,True,17,-1,0,9
Y2-S2-231K22,5,430,AS,exp,36,↓,down,↓,0.6566170000005513,True,17,1,1,10
Y2-S2-231K22,5,431,AS,exp,30,→,right,→,0.5884984999429435,True,16,1,0,10
Y2-S2-231K22,5,432,AS,exp,44,←,right,→,0.7547900001518428,False,16,-1,1,11
Y2-S2-231K22,5,433,AS,exp,48,↑,up,↑,0.5960207998286933,True,17,-1,0,11
Y2-S2-231K22,5,434,AS,exp,31,↓,down,↓,0.6367042001802474,True,17,-1,0,11
Y2-S2-231K22,5,435,AS,exp,42,→,right,→,0.804200500017032,True,17,1,1,12
Y2-S2-231K22,5,436,AS,exp,50,↓,down,↓,0.6876599998213351,True,16,1,0,12
Y2-S2-231K22,5,437,AS,exp,34,↑,up,↑,0.5187789001502097,True,16,1,0,12
Y2-S2-231K22,5,438,AS,exp,48,→,right,→,1.0495931000914425,True,16,1,0,12
Y2-S2-231K22,5,439,AS,exp,50,↑,down,↓,0.757533400086686,False,15,-1,1,13
Y2-S2-231K22,5,440,AS,exp,42,↓,down,↓,0.5756687999237329,True,16,-1,0,13
Y2-S2-231K22,5,441,AS,exp,29,→,down,↓,0.7663308000192046,False,16,-1,0,13
Y2-S2-231K22,5,442,AS,exp,43,←,left,←,0.6596590999979526,True,17,-1,0,13
Y2-S2-231K22,5,443,AS,exp,37,→,right,→,0.5404499000869691,True,17,-1,0,13
Y2-S2-231K22,5,444,AS,exp,46,↓,down,↓,0.6038969000801444,True,17,1,1,14
Y2-S2-231K22,5,445,AS,exp,49,←,right,→,0.689970999956131,False,16,-1,1,15
Y2-S2-231K22,5,446,AS,exp,43,↑,up,↑,0.6221370999701321,True,17,-1,0,15
Y2-S2-231K22,5,447,AS,exp,36,↓,down,↓,0.6937293000519276,True,17,-1,0,15
Y2-S2-231K22,5,448,AS,exp,31,↑,up,↑,0.7514443998225033,True,17,1,1,16
Y2-S2-231K22,6,449,PS,intra_train,27,←,left,←,0.7969977001193911,True,16,-,-,-
Y2-S2-231K22,6,450,PS,intra_train,27,→,right,→,0.5146669999230653,True,16,-,-,-
Y2-S2-231K22,6,451,PS,intra_train,31,↓,down,↓,0.6307890000753105,True,16,-,-,-
Y2-S2-231K22,6,452,PS,intra_train,36,↑,up,↑,0.6178459001239389,True,16,-,-,-
Y2-S2-231K22,6,453,PS,intra_train,44,↓,down,↓,0.564371399814263,True,16,-,-,-
Y2-S2-231K22,6,454,PS,exp,40,←,left,←,0.6111597998533398,True,11,0,0,0
Y2-S2-231K22,6,455,PS,exp,31,↓,down,↓,0.6111326001118869,True,11,0,0,0
Y2-S2-231K22,6,456,PS,exp,49,←,left,←,0.6487197999376804,True,11,1,0,0
Y2-S2-231K22,6,457,PS,exp,33,↓,down,↓,0.6075345000717789,True,10,1,0,0
Y2-S2-231K22,6,458,PS,exp,43,←,left,←,0.4698997000232339,True,10,1,0,0
Y2-S2-231K22,6,459,PS,exp,25,↓,down,↓,0.519049699883908,True,10,1,0,0
Y2-S2-231K22,6,460,PS,exp,26,→,right,→,0.5276993000879884,True,9,1,0,0
Y2-S2-231K22,6,461,PS,exp,41,↑,down,↓,0.7477400000207126,False,9,-1,1,1
Y2-S2-231K22,6,462,PS,exp,36,←,left,←,0.7945135999470949,True,10,-1,0,1
Y2-S2-231K22,6,463,PS,exp,36,→,right,→,0.5410681001376361,True,10,-1,0,1
Y2-S2-231K22,6,464,PS,exp,33,←,left,←,0.6743902999442071,True,10,1,1,2
Y2-S2-231K22,6,465,PS,exp,35,↑,up,↑,0.662686700001359,True,9,1,0,2
Y2-S2-231K22,6,466,PS,exp,34,→,right,→,0.5711098001338542,True,9,1,0,2
Y2-S2-231K22,6,467,PS,exp,46,↓,down,↓,0.5874679998960346,True,9,1,0,2
Y2-S2-231K22,6,468,PS,exp,50,←,left,←,0.6889113998040557,True,8,1,0,2
Y2-S2-231K22,6,469,PS,exp,45,↓,down,↓,0.6272146999835968,True,8,1,0,2
Y2-S2-231K22,6,470,PS,exp,29,↑,left,←,0.7048107001464814,False,8,-1,1,3
Y2-S2-231K22,6,471,PS,exp,42,←,left,←,0.5833262999076396,True,9,-1,0,3
Y2-S2-231K22,6,472,PS,exp,31,→,right,→,0.43116319994442165,True,9,-1,0,3
Y2-S2-231K22,6,473,PS,exp,31,←,left,←,0.5970938000828028,True,9,1,1,4
Y2-S2-231K22,6,474,PS,exp,27,→,right,→,0.830684200162068,True,8,1,0,4
Y2-S2-231K22,6,475,PS,exp,46,↑,up,↑,0.4370775001589209,True,8,1,0,4
Y2-S2-231K22,6,476,PS,exp,39,↓,down,↓,0.5619634001050144,True,8,1,0,4
Y2-S2-231K22,6,477,PS,exp,30,←,right,→,0.5973396999761462,False,7,-1,1,5
Y2-S2-231K22,6,478,PS,exp,28,↑,left,←,0.5082551999948919,False,8,-1,0,5
Y2-S2-231K22,6,479,PS,exp,34,→,right,→,0.4163238999899477,True,9,-1,0,5
Y2-S2-231K22,6,480,PS,exp,47,↓,down,↓,0.6742583999875933,True,9,-1,0,5
Y2-S2-231K22,6,481,PS,exp,46,↑,right,→,0.6547008999623358,False,9,-1,0,5
Y2-S2-231K22,6,482,PS,exp,30,←,left,←,0.4657319001853466,True,10,-1,0,5
Y2-S2-231K22,6,483,PS,exp,41,↑,right,→,0.8897282001562417,False,10,-1,0,5
Y2-S2-231K22,6,484,PS,exp,36,←,left,←,0.6310454001650214,True,11,-1,0,5
Y2-S2-231K22,6,485,PS,exp,30,↑,up,↑,0.5664913000073284,True,11,-1,0,5
Y2-S2-231K22,6,486,PS,exp,39,↓,down,↓,0.7179535001050681,True,11,1,1,6
Y2-S2-231K22,6,487,PS,exp,50,→,right,→,0.5139007000252604,True,10,1,0,6
Y2-S2-231K22,6,488,PS,exp,48,↑,down,↓,0.5628613999579102,False,10,-1,1,7
Y2-S2-231K22,6,489,PS,exp,32,→,left,←,0.6458294000476599,False,11,-1,0,7
Y2-S2-231K22,6,490,PS,exp,34,↓,down,↓,0.6427833000198007,True,12,-1,0,7
Y2-S2-231K22,6,491,PS,exp,28,→,left,←,0.5699192997999489,False,12,-1,0,7
Y2-S2-231K22,6,492,PS,exp,42,←,left,←,0.4676997000351548,True,13,-1,0,7
Y2-S2-231K22,6,493,PS,exp,25,→,right,→,0.4419140999671072,True,13,-1,0,7
Y2-S2-231K22,6,494,PS,exp,25,↓,down,↓,0.596663799835369,True,13,1,1,8
Y2-S2-231K22,6,495,PS,exp,36,↑,up,↑,0.5724913000594825,True,12,1,0,8
Y2-S2-231K22,6,496,PS,exp,34,↓,down,↓,0.4933372000232339,True,12,1,0,8
Y2-S2-231K22,6,497,PS,exp,29,↑,left,←,0.9819676000624895,False,12,-1,1,9
Y2-S2-231K22,6,498,PS,exp,50,←,left,←,0.8536207999568433,True,13,-1,0,9
Y2-S2-231K22,6,499,PS,exp,25,↓,down,↓,0.504796199966222,True,13,-1,0,9
Y2-S2-231K22,6,500,PS,exp,30,↑,up,↑,0.6162479999475181,True,13,1,1,10
Y2-S2-231K22,6,501,PS,exp,43,←,left,←,0.5204107998870313,True,12,1,0,10
Y2-S2-231K22,6,502,PS,exp,49,↓,down,↓,0.5474833000916988,True,12,1,0,10
Y2-S2-231K22,6,503,PS,exp,26,→,right,→,0.5328653999604285,True,12,1,0,10
Y2-S2-231K22,6,504,PS,exp,47,←,left,←,0.503580000018701,True,11,1,0,10
Y2-S2-231K22,6,505,PS,exp,44,→,left,←,0.6084400000981987,False,11,-1,1,11
Y2-S2-231K22,6,506,PS,exp,40,↑,down,↓,0.6472000000067055,False,12,-1,0,11
Y2-S2-231K22,6,507,PS,exp,25,→,right,→,0.5040311000775546,True,13,-1,0,11
Y2-S2-231K22,6,508,PS,exp,37,←,left,←,0.4123972998932004,True,13,-1,0,11
Y2-S2-231K22,6,509,PS,exp,31,↑,up,↑,0.7395205998327583,True,13,1,1,12
Y2-S2-231K22,6,510,PS,exp,34,↓,down,↓,0.6086298997979611,True,12,1,0,12
Y2-S2-231K22,6,511,PS,exp,41,←,left,←,0.563924599904567,True,12,1,0,12
Y2-S2-231K22,6,512,PS,exp,49,→,right,→,0.43754850002005696,True,12,1,0,12
Y2-S2-231K22,6,513,PS,exp,38,↓,down,↓,0.4972145000938326,True,11,1,0,12
Y2-S2-231K22,6,514,PS,exp,33,←,left,←,0.5294576000887901,True,11,1,0,12
Y2-S2-231K22,6,515,PS,exp,39,↓,down,↓,0.39172279997728765,True,11,1,0,12
Y2-S2-231K22,6,516,PS,exp,27,←,left,←,0.4003254999406636,True,10,1,0,12
Y2-S2-231K22,6,517,PS,exp,36,↓,down,↓,0.5123886000365019,True,10,1,0,12
Y2-S2-231K22,6,518,PS,exp,44,→,right,→,0.8692864999175072,True,10,1,0,12
Y2-S2-231K22,6,519,PS,exp,45,↑,down,↓,0.6932863001711667,False,9,-1,1,13
Y2-S2-231K22,6,520,PS,exp,27,↓,down,↓,0.5991438000928611,True,10,-1,0,13
Y2-S2-231K22,6,521,PS,exp,29,←,right,→,0.6332145999185741,False,10,-1,0,13
Y2-S2-231K22,6,522,PS,exp,48,→,right,→,0.9146586998831481,True,11,-1,0,13
Y2-S2-231K22,6,523,PS,exp,50,↑,up,↑,0.5727309000212699,True,11,-1,0,13
Y2-S2-231K22,6,524,PS,exp,38,↓,right,→,0.6516319001093507,False,11,-1,0,13
Y2-S2-231K22,6,525,PS,exp,43,↑,up,↑,0.5785424001514912,True,12,-1,0,13
Y2-S2-231K22,6,526,PS,exp,42,→,left,←,0.7246671000029892,False,12,-1,0,13
Y2-S2-231K22,6,527,PS,exp,40,←,left,←,0.4845213000662625,True,13,-1,0,13
Y2-S2-231K22,6,528,PS,exp,47,→,right,→,0.5622572000138462,True,13,-1,0,13
Y2-S2-231K22,6,529,PS,exp,27,←,down,↓,0.771148000145331,False,13,-1,0,13
Y2-S2-231K22,6,530,PS,exp,33,↑,up,↑,0.6294998999219388,True,14,-1,0,13
Y2-S2-231K22,6,531,PS,exp,27,←,left,←,0.4471235000528395,True,14,-1,0,13
Y2-S2-231K22,6,532,PS,exp,41,↑,up,↑,0.5890236000996083,True,14,1,1,14
Y2-S2-231K22,6,533,PS,exp,26,→,right,→,0.5895297001115978,True,13,1,0,14
Y2-S2-231K22,6,534,PS,exp,47,↑,up,↑,0.6004510999191552,True,13,1,0,14
Y2-S2-231K22,6,535,PS,exp,35,→,up,↑,0.7626762001309544,False,13,-1,1,15
Y2-S2-231K22,6,536,PS,exp,47,←,right,→,0.9994904000777751,False,14,-1,0,15
Y2-S2-231K22,6,537,PS,exp,48,↓,down,↓,0.655017500044778,True,15,-1,0,15
Y2-S2-231K22,6,538,PS,exp,31,→,left,←,0.9118423000909388,False,15,-1,0,15
Y2-S2-231K22,6,539,PS,exp,43,↓,down,↓,0.6240938999690115,True,16,-1,0,15
Y2-S2-231K22,6,540,PS,exp,45,←,left,←,0.5032921999227256,True,16,-1,0,15
Y2-S2-231K22,6,541,PS,exp,31,→,left,←,0.4629925999324769,False,16,-1,0,15
Y2-S2-231K22,6,542,PS,exp,48,↑,up,↑,0.7991848001256585,True,17,-1,0,15
Y2-S2-231K22,6,543,PS,exp,44,←,down,↓,0.480134200071916,False,17,-1,0,15
Y2-S2-231K22,6,544,PS,exp,28,↑,up,↑,0.5398281998932362,True,18,-1,0,15
Y2-S2-231K22,6,545,PS,exp,45,←,left,←,0.4339625998400152,True,18,-1,0,15
Y2-S2-231K22,6,546,PS,exp,35,→,right,→,0.4338197000324726,True,18,1,1,16
Y2-S2-231K22,7,547,PS,intra_train,34,←,left,←,1.3064373000524938,True,16,-,-,-
Y2-S2-231K22,7,548,PS,intra_train,49,↓,down,↓,0.6403200998902321,True,16,-,-,-
Y2-S2-231K22,7,549,PS,intra_train,44,←,left,←,0.5106359000783414,True,16,-,-,-
Y2-S2-231K22,7,550,PS,intra_train,39,↑,up,↑,0.5023946999572217,True,16,-,-,-
Y2-S2-231K22,7,551,PS,intra_train,33,↓,down,↓,0.7102280999533832,True,16,-,-,-
Y2-S2-231K22,7,552,PS,exp,37,←,left,←,0.5006448000203818,True,11,0,0,0
Y2-S2-231K22,7,553,PS,exp,42,→,right,→,0.4636558999773115,True,11,0,0,0
Y2-S2-231K22,7,554,PS,exp,48,↑,up,↑,0.46422969992272556,True,11,1,0,0
Y2-S2-231K22,7,555,PS,exp,44,←,left,←,0.6796650001779199,True,10,1,0,0
Y2-S2-231K22,7,556,PS,exp,50,↑,up,↑,0.5243402000050992,True,10,1,0,0
Y2-S2-231K22,7,557,PS,exp,39,←,left,←,0.44178860005922616,True,10,1,0,0
Y2-S2-231K22,7,558,PS,exp,42,→,left,←,0.5128520000725985,False,9,-1,1,1
Y2-S2-231K22,7,559,PS,exp,47,↓,left,←,0.3661664000246674,False,10,-1,0,1
Y2-S2-231K22,7,560,PS,exp,26,→,right,→,0.5779870001133531,True,11,-1,0,1
Y2-S2-231K22,7,561,PS,exp,45,←,left,←,0.4886147000361234,True,11,-1,0,1
Y2-S2-231K22,7,562,PS,exp,41,→,right,→,0.5694261000026017,True,11,1,1,2
Y2-S2-231K22,7,563,PS,exp,35,↓,down,↓,0.6254581001121551,True,10,1,0,2
Y2-S2-231K22,7,564,PS,exp,30,↑,up,↑,0.5374974999576807,True,10,1,0,2
Y2-S2-231K22,7,565,PS,exp,43,→,right,→,0.5081904998514801,True,10,1,0,2
Y2-S2-231K22,7,566,PS,exp,34,↓,down,↓,0.5389727000147104,True,9,1,0,2
Y2-S2-231K22,7,567,PS,exp,26,→,right,→,0.6670670998282731,True,9,1,0,2
Y2-S2-231K22,7,568,PS,exp,49,↓,right,→,0.6848437001463026,False,9,-1,1,3
Y2-S2-231K22,7,569,PS,exp,41,↑,left,←,0.708474799990654,False,10,-1,0,3
Y2-S2-231K22,7,570,PS,exp,41,←,left,←,0.44524429994635284,True,11,-1,0,3
Y2-S2-231K22,7,571,PS,exp,37,→,right,→,0.4739036001265049,True,11,-1,0,3
Y2-S2-231K22,7,572,PS,exp,43,←,right,→,0.6167677000630647,False,11,-1,0,3
Y2-S2-231K22,7,573,PS,exp,35,↑,up,↑,0.563843599986285,True,12,-1,0,3
Y2-S2-231K22,7,574,PS,exp,35,↓,down,↓,0.5873867999762297,True,12,-1,0,3
Y2-S2-231K22,7,575,PS,exp,33,→,right,→,0.4948243999388069,True,12,1,1,4
Y2-S2-231K22,7,576,PS,exp,29,↓,down,↓,0.5952596999704838,True,11,1,0,4
Y2-S2-231K22,7,577,PS,exp,41,←,left,←,0.6089620999991894,True,11,1,0,4
Y2-S2-231K22,7,578,PS,exp,43,→,right,→,0.5520864999853075,True,11,1,0,4
Y2-S2-231K22,7,579,PS,exp,38,↓,down,↓,0.5501549001783133,True,10,1,0,4
Y2-S2-231K22,7,580,PS,exp,47,↑,down,↓,0.6371404998935759,False,10,-1,1,5
Y2-S2-231K22,7,581,PS,exp,47,↓,down,↓,0.6785212000831962,True,11,-1,0,5
Y2-S2-231K22,7,582,PS,exp,25,↑,up,↑,0.5547539000399411,True,11,-1,0,5
Y2-S2-231K22,7,583,PS,exp,33,→,right,→,0.47951789991930127,True,11,1,1,6
Y2-S2-231K22,7,584,PS,exp,42,←,left,←,0.6824851001147181,True,10,1,0,6
Y2-S2-231K22,7,585,PS,exp,36,→,right,→,0.4995019999332726,True,10,1,0,6
Y2-S2-231K22,7,586,PS,exp,38,←,left,←,0.5386336999945343,True,10,1,0,6
Y2-S2-231K22,7,587,PS,exp,37,→,right,→,0.594317400129512,True,9,1,0,6
Y2-S2-231K22,7,588,PS,exp,49,↑,up,↑,0.5161820000503212,True,9,1,0,6
Y2-S2-231K22,7,589,PS,exp,28,↓,down,↓,0.5532639999873936,True,9,1,0,6
Y2-S2-231K22,7,590,PS,exp,40,↑,right,→,0.5237012000288814,False,8,-1,1,7
Y2-S2-231K22,7,591,PS,exp,32,←,down,↓,0.5645074001513422,False,9,-1,0,7
Y2-S2-231K22,7,592,PS,exp,26,→,right,→,0.553445199970156,True,10,-1,0,7
Y2-S2-231K22,7,593,PS,exp,45,↑,up,↑,0.5470506998244673,True,10,-1,0,7
Y2-S2-231K22,7,594,PS,exp,26,←,left,←,0.6189000001177192,True,10,1,1,8
Y2-S2-231K22,7,595,PS,exp,28,→,left,←,0.5922909001819789,False,9,-1,1,9
Y2-S2-231K22,7,596,PS,exp,50,↑,up,↑,0.5480855000205338,True,10,-1,0,9
Y2-S2-231K22,7,597,PS,exp,48,↓,down,↓,0.4399010001216084,True,10,-1,0,9
Y2-S2-231K22,7,598,PS,exp,36,←,down,↓,0.6649368000216782,False,10,-1,0,9
Y2-S2-231K22,7,599,PS,exp,35,↑,up,↑,0.5019576998893172,True,11,-1,0,9
Y2-S2-231K22,7,600,PS,exp,35,↓,right,→,0.8447067998349667,False,11,-1,0,9
Y2-S2-231K22,7,601,PS,exp,43,↑,up,↑,0.5756773999892175,True,12,-1,0,9
Y2-S2-231K22,7,602,PS,exp,38,←,left,←,0.9550300999544561,True,12,-1,0,9
Y2-S2-231K22,7,603,PS,exp,30,↑,up,↑,0.5174622000195086,True,12,1,1,10
Y2-S2-231K22,7,604,PS,exp,34,↓,left,←,0.5353101000655442,False,11,-1,1,11
Y2-S2-231K22,7,605,PS,exp,48,↑,up,↑,0.5919071999378502,True,12,-1,0,11
Y2-S2-231K22,7,606,PS,exp,35,→,right,→,0.5206357000861317,True,12,-1,0,11
Y2-S2-231K22,7,607,PS,exp,40,↑,up,↑,0.5083385000471026,True,12,1,1,12
Y2-S2-231K22,7,608,PS,exp,27,→,right,→,0.6702481999527663,True,11,1,0,12
Y2-S2-231K22,7,609,PS,exp,36,↑,up,↑,0.45262620016001165,True,11,1,0,12
Y2-S2-231K22,7,610,PS,exp,42,↓,left,←,0.5697584999725223,False,11,-1,1,13
Y2-S2-231K22,7,611,PS,exp,50,→,right,→,0.5105011998675764,True,12,-1,0,13
Y2-S2-231K22,7,612,PS,exp,41,↓,down,↓,0.7057592000346631,True,12,-1,0,13
Y2-S2-231K22,7,613,PS,exp,43,←,left,←,0.5555932000279427,True,12,1,1,14
Y2-S2-231K22,7,614,PS,exp,31,→,right,→,0.5192442000843585,True,11,1,0,14
Y2-S2-231K22,7,615,PS,exp,31,↑,up,↑,0.5483236000873148,True,11,1,0,14
Y2-S2-231K22,7,616,PS,exp,35,↓,down,↓,0.48570269998162985,True,11,1,0,14
Y2-S2-231K22,7,617,PS,exp,32,↑,up,↑,0.5234604999423027,True,10,1,0,14
Y2-S2-231K22,7,618,PS,exp,45,←,left,←,0.44486539997160435,True,10,1,0,14
Y2-S2-231K22,7,619,PS,exp,40,→,right,→,0.9004019999410957,True,10,1,0,14
Y2-S2-231K22,7,620,PS,exp,32,↓,down,↓,0.5232639999594539,True,9,1,0,14
Y2-S2-231K22,7,621,PS,exp,25,→,right,→,0.5415415000170469,True,9,1,0,14
Y2-S2-231K22,7,622,PS,exp,26,↓,down,↓,0.5133094000630081,True,9,1,0,14
Y2-S2-231K22,7,623,PS,exp,32,→,right,→,0.5046874999534339,True,8,1,0,14
Y2-S2-231K22,7,624,PS,exp,50,↑,down,↓,0.7515751000028104,False,8,-1,1,15
Y2-S2-231K22,7,625,PS,exp,25,↓,left,←,1.779991100076586,False,9,-1,0,15
Y2-S2-231K22,7,626,PS,exp,31,↑,up,↑,0.4342780001461506,True,10,-1,0,15
Y2-S2-231K22,7,627,PS,exp,43,→,down,↓,0.4858166000340134,False,10,-1,0,15
Y2-S2-231K22,7,628,PS,exp,45,←,left,←,0.4683751999400556,True,11,-1,0,15
Y2-S2-231K22,7,629,PS,exp,32,→,right,→,0.4265753000508994,True,11,-1,0,15
Y2-S2-231K22,7,630,PS,exp,40,↓,left,←,0.8591336000245064,False,11,-1,0,15
Y2-S2-231K22,7,631,PS,exp,29,←,left,←,0.44650319986976683,True,12,-1,0,15
Y2-S2-231K22,7,632,PS,exp,32,↑,up,↑,0.569482000079006,True,12,-1,0,15
Y2-S2-231K22,7,633,PS,exp,39,↓,down,↓,0.49474110011942685,True,12,1,1,16
Y2-S2-231K22,8,634,AS,intra_train,47,←,left,←,0.5637489000800997,True,22,-,-,-
Y2-S2-231K22,8,635,AS,intra_train,36,↓,down,↓,0.6189882999751717,True,22,-,-,-
Y2-S2-231K22,8,636,AS,intra_train,42,←,left,←,1.7566855000331998,True,22,-,-,-
Y2-S2-231K22,8,637,AS,intra_train,30,↓,down,↓,0.6206434001214802,True,22,-,-,-
Y2-S2-231K22,8,638,AS,intra_train,26,↑,up,↑,1.251628999831155,True,22,-,-,-
Y2-S2-231K22,8,639,AS,exp,29,←,left,←,0.6695203001145273,True,15,0,0,0
Y2-S2-231K22,8,640,AS,exp,43,↑,up,↑,0.7590875001624227,True,15,0,0,0
Y2-S2-231K22,8,641,AS,exp,32,→,down,↓,0.6413688000757247,False,15,-1,0,0
Y2-S2-231K22,8,642,AS,exp,39,←,left,←,0.5001547997817397,True,16,-1,0,0
Y2-S2-231K22,8,643,AS,exp,37,↑,up,↑,0.6122349000070244,True,16,-1,0,0
Y2-S2-231K22,8,644,AS,exp,45,←,right,→,0.6085954001173377,False,16,-1,0,0
Y2-S2-231K22,8,645,AS,exp,38,→,right,→,0.6250394000671804,True,17,-1,0,0
Y2-S2-231K22,8,646,AS,exp,47,↑,up,↑,0.8903089999221265,True,17,-1,0,0
Y2-S2-231K22,8,647,AS,exp,38,←,left,←,0.505394000094384,True,17,1,1,1
Y2-S2-231K22,8,648,AS,exp,47,↓,down,↓,0.6441443001385778,True,16,1,0,1
Y2-S2-231K22,8,649,AS,exp,50,←,up,↑,0.963208100060001,False,16,-1,1,2
Y2-S2-231K22,8,650,AS,exp,42,↑,up,↑,0.6089933000039309,True,17,-1,0,2
Y2-S2-231K22,8,651,AS,exp,44,←,right,→,0.6449819998815656,False,17,-1,0,2
Y2-S2-231K22,8,652,AS,exp,30,↓,down,↓,0.6288884000387043,True,18,-1,0,2
Y2-S2-231K22,8,653,AS,exp,34,←,left,←,0.7455155001953244,True,18,-1,0,2
Y2-S2-231K22,8,654,AS,exp,47,↑,left,←,1.403464499861002,False,18,-1,0,2
Y2-S2-231K22,8,655,AS,exp,28,←,left,←,0.6178876000922173,True,19,-1,0,2
Y2-S2-231K22,8,656,AS,exp,28,↓,down,↓,0.5534149000886828,True,19,-1,0,2
Y2-S2-231K22,8,657,AS,exp,29,↑,up,↑,1.4453271999955177,True,19,1,1,3
Y2-S2-231K22,8,658,AS,exp,42,↓,down,↓,0.5786647999193519,True,18,1,0,3
Y2-S2-231K22,8,659,AS,exp,29,←,left,←,0.6597664000000805,True,18,1,0,3
Y2-S2-231K22,8,660,AS,exp,26,↑,up,↑,0.539955599932,True,18,1,0,3
Y2-S2-231K22,8,661,AS,exp,40,→,left,←,0.8001236999407411,False,17,-1,1,4
Y2-S2-231K22,8,662,AS,exp,48,↑,up,↑,0.5452976999804378,True,18,-1,0,4
Y2-S2-231K22,8,663,AS,exp,45,←,left,←,0.6113465998787433,True,18,-1,0,4
Y2-S2-231K22,8,664,AS,exp,39,↑,up,↑,0.5263841000851244,True,18,1,1,5
Y2-S2-231K22,8,665,AS,exp,45,→,right,→,0.552777900127694,True,17,1,0,5
Y2-S2-231K22,8,666,AS,exp,45,↓,down,↓,0.5191697999835014,True,17,1,0,5
Y2-S2-231K22,8,667,AS,exp,42,←,left,←,0.5858370999339968,True,17,1,0,5
Y2-S2-231K22,8,668,AS,exp,30,↑,up,↑,0.6253045999910682,True,16,1,0,5
Y2-S2-231K22,8,669,AS,exp,28,←,left,←,0.5271018000785261,True,16,1,0,5
Y2-S2-231K22,8,670,AS,exp,35,→,left,←,0.48954979982227087,False,16,-1,1,6
Y2-S2-231K22,8,671,AS,exp,44,↑,up,↑,0.6439577999990433,True,17,-1,0,6
Y2-S2-231K22,8,672,AS,exp,49,←,left,←,0.5004670000635087,True,17,-1,0,6
Y2-S2-231K22,8,673,AS,exp,48,↓,down,↓,0.5817187998909503,True,17,1,1,7
Y2-S2-231K22,8,674,AS,exp,46,→,right,→,0.495605600066483,True,16,1,0,7
Y2-S2-231K22,8,675,AS,exp,45,↑,up,↑,0.6526605999097228,True,16,1,0,7
Y2-S2-231K22,8,676,AS,exp,46,→,left,←,0.6937571000307798,False,16,-1,1,8
Y2-S2-231K22,8,677,AS,exp,33,↑,down,↓,0.9254242000170052,False,17,-1,0,8
Y2-S2-231K22,8,678,AS,exp,28,←,left,←,0.5046784000005573,True,18,-1,0,8
Y2-S2-231K22,8,679,AS,exp,41,↑,up,↑,0.7348443998489529,True,18,-1,0,8
Y2-S2-231K22,8,680,AS,exp,44,→,left,←,0.7767999998759478,False,18,-1,0,8
Y2-S2-231K22,8,681,AS,exp,41,↓,down,↓,0.5461000998038799,True,19,-1,0,8
Y2-S2-231K22,8,682,AS,exp,26,→,right,→,0.7191448998637497,True,19,-1,0,8
Y2-S2-231K22,8,683,AS,exp,31,↓,down,↓,0.5992231001146138,True,19,1,1,9
Y2-S2-231K22,8,684,AS,exp,47,←,left,←,0.6520114000886679,True,18,1,0,9
Y2-S2-231K22,8,685,AS,exp,30,→,right,→,0.5075630999635905,True,18,1,0,9
Y2-S2-231K22,8,686,AS,exp,44,↓,down,↓,0.5938503001816571,True,18,1,0,9
Y2-S2-231K22,8,687,AS,exp,29,→,right,→,0.5158944998402148,True,17,1,0,9
Y2-S2-231K22,8,688,AS,exp,41,↑,up,↑,0.5026294998824596,True,17,1,0,9
Y2-S2-231K22,8,689,AS,exp,40,←,left,←,0.6356222999747843,True,17,1,0,9
Y2-S2-231K22,8,690,AS,exp,29,↑,up,↑,0.519994999980554,True,16,1,0,9
Y2-S2-231K22,8,691,AS,exp,45,→,left,←,0.685972600011155,False,16,-1,1,10
Y2-S2-231K22,8,692,AS,exp,36,↓,down,↓,0.6292900999542326,True,17,-1,0,10
Y2-S2-231K22,8,693,AS,exp,38,→,right,→,0.4966174999717623,True,17,-1,0,10
Y2-S2-231K22,8,694,AS,exp,38,←,left,←,0.5549569998402148,True,17,1,1,11
Y2-S2-231K22,8,695,AS,exp,39,↓,down,↓,0.6123093999922276,True,16,1,0,11
Y2-S2-231K22,8,696,AS,exp,47,←,left,←,0.4632281002122909,True,16,1,0,11
Y2-S2-231K22,8,697,AS,exp,39,→,down,↓,0.8999739999417216,False,16,-1,1,12
Y2-S2-231K22,8,698,AS,exp,28,←,right,→,1.0962311001494527,False,17,-1,0,12
Y2-S2-231K22,8,699,AS,exp,50,↓,down,↓,0.5680419001728296,True,18,-1,0,12
Y2-S2-231K22,8,700,AS,exp,48,↑,left,←,1.344385800184682,False,18,-1,0,12
Y2-S2-231K22,8,701,AS,exp,50,↓,down,↓,0.6677573001943529,True,19,-1,0,12
Y2-S2-231K22,8,702,AS,exp,29,→,right,→,0.566485800081864,True,19,-1,0,12
Y2-S2-231K22,8,703,AS,exp,47,←,left,←,0.647457400104031,True,19,1,1,13
Y2-S2-231K22,8,704,AS,exp,40,→,right,→,0.9557401998899877,True,18,1,0,13
Y2-S2-231K22,8,705,AS,exp,48,↑,up,↑,0.5579951999243349,True,18,1,0,13
Y2-S2-231K22,8,706,AS,exp,41,→,right,→,0.687225200003013,True,18,1,0,13
Y2-S2-231K22,8,707,AS,exp,45,↓,left,←,0.7719978999812156,False,17,-1,1,14
Y2-S2-231K22,8,708,AS,exp,46,→,right,→,0.7438626999501139,True,18,-1,0,14
Y2-S2-231K22,8,709,AS,exp,38,←,left,←,0.48790960013866425,True,18,-1,0,14
Y2-S2-231K22,8,710,AS,exp,42,↑,up,↑,0.6842071998398751,True,18,1,1,15
Y2-S2-231K22,8,711,AS,exp,29,↓,down,↓,0.5213983999565244,True,17,1,0,15
Y2-S2-231K22,8,712,AS,exp,26,→,right,→,0.5675906001124531,True,17,1,0,15
Y2-S2-231K22,8,713,AS,exp,41,↑,up,↑,0.477318299934268,True,17,1,0,15
Y2-S2-231K22,8,714,AS,exp,34,↓,down,↓,0.6567497998476028,True,16,1,0,15
Y2-S2-231K22,8,715,AS,exp,41,←,down,↓,1.1563420998863876,False,16,-1,1,16
