PART_ID,Block_no,Trial_no,Block_type,Trial_type,CSI,Stim_letter,Key_pressed,letter_choose,Rt,Corr,Stimulus Time,Level,Reversal,Revs_count
Y2-S2-273K18,1,1,PS,train,38,↑,up,↑,0.8465724000707269,True,30,-,-,-
Y2-S2-273K18,1,2,PS,train,38,←,left,←,0.8636070997454226,True,30,-,-,-
Y2-S2-273K18,1,3,PS,train,28,→,right,→,0.5837715002708137,True,30,-,-,-
Y2-S2-273K18,1,4,PS,train,32,↓,down,↓,0.8638181001879275,True,30,-,-,-
Y2-S2-273K18,1,5,PS,train,49,←,left,←,0.7331004999577999,True,30,-,-,-
Y2-S2-273K18,1,6,PS,train,29,↓,down,↓,0.6674816999584436,True,30,-,-,-
Y2-S2-273K18,1,7,PS,train,50,←,left,←,0.6175371003337204,True,30,-,-,-
Y2-S2-273K18,1,8,PS,train,40,↓,down,↓,0.8166605997830629,True,30,-,-,-
Y2-S2-273K18,1,9,PS,train,43,→,right,→,0.7107536997646093,True,30,-,-,-
Y2-S2-273K18,1,10,PS,train,36,↓,down,↓,0.7733387001790106,True,30,-,-,-
Y2-S2-273K18,2,11,AS,train,31,←,left,←,0.7506761997938156,True,45,-,-,-
Y2-S2-273K18,2,12,AS,train,36,↓,down,↓,0.7010917998850346,True,45,-,-,-
Y2-S2-273K18,2,13,AS,train,28,→,right,→,0.6841806001029909,True,45,-,-,-
Y2-S2-273K18,2,14,AS,train,31,↑,up,↑,0.8505969997495413,True,45,-,-,-
Y2-S2-273K18,2,15,AS,train,26,→,right,→,0.7672187997959554,True,45,-,-,-
Y2-S2-273K18,2,16,AS,train,42,↓,down,↓,0.7011860003694892,True,45,-,-,-
Y2-S2-273K18,2,17,AS,train,33,←,left,←,0.6008588997647166,True,45,-,-,-
Y2-S2-273K18,2,18,AS,train,26,↑,up,↑,0.7509901002049446,True,45,-,-,-
Y2-S2-273K18,2,19,AS,train,36,→,right,→,0.618000800255686,True,45,-,-,-
Y2-S2-273K18,2,20,AS,train,47,↓,down,↓,0.7337917000986636,True,45,-,-,-
Y2-S2-273K18,-,21,PS,adaptive,39,←,left,←,0.5739768999628723,True,10,0,0,0
Y2-S2-273K18,-,22,PS,adaptive,39,↑,no_key,no_letter,-1.0,False,10,-1,0,0
Y2-S2-273K18,-,23,PS,adaptive,37,↓,left,←,0.9430446000769734,False,11,-1,0,0
Y2-S2-273K18,-,24,PS,adaptive,34,←,left,←,0.5349596003070474,True,12,-1,0,0
Y2-S2-273K18,-,25,PS,adaptive,33,→,right,→,0.617176600266248,True,12,-1,0,0
Y2-S2-273K18,-,26,PS,adaptive,42,↓,up,↑,0.6660872003994882,False,12,-1,0,0
Y2-S2-273K18,-,27,PS,adaptive,45,→,right,→,0.4312887997366488,True,13,-1,0,0
Y2-S2-273K18,-,28,PS,adaptive,39,↓,down,↓,1.395508199930191,True,13,-1,0,0
Y2-S2-273K18,-,29,PS,adaptive,44,←,left,←,0.5572335999459028,True,13,1,1,1
Y2-S2-273K18,-,30,PS,adaptive,41,→,right,→,0.5165664996020496,True,12,1,0,1
Y2-S2-273K18,-,31,PS,adaptive,46,←,left,←,0.6281007998622954,True,12,1,0,1
Y2-S2-273K18,-,32,PS,adaptive,44,→,left,←,0.5951958000659943,False,12,-1,1,2
Y2-S2-273K18,-,33,PS,adaptive,36,←,left,←,0.8182693999260664,True,13,-1,0,2
Y2-S2-273K18,-,34,PS,adaptive,25,↑,up,↑,0.5543491002172232,True,13,-1,0,2
Y2-S2-273K18,-,35,PS,adaptive,45,→,right,→,0.4873704998753965,True,13,1,1,3
Y2-S2-273K18,-,36,PS,adaptive,35,←,left,←,0.5276673003099859,True,12,1,0,3
Y2-S2-273K18,-,37,PS,adaptive,36,↑,up,↑,0.631721300072968,True,12,1,0,3
Y2-S2-273K18,-,38,PS,adaptive,39,↓,up,↑,0.6127293999306858,False,12,-1,1,4
Y2-S2-273K18,-,39,AS,adaptive,31,→,right,→,0.5862715002149343,True,20,0,0,0
Y2-S2-273K18,-,40,AS,adaptive,47,↓,right,→,0.5195868997834623,False,20,-1,0,0
Y2-S2-273K18,-,41,AS,adaptive,43,↑,up,↑,0.7301694001071155,True,21,-1,0,0
Y2-S2-273K18,-,42,AS,adaptive,34,↓,down,↓,0.6315767001360655,True,21,-1,0,0
Y2-S2-273K18,-,43,AS,adaptive,31,←,left,←,0.5544428997673094,True,21,1,1,1
Y2-S2-273K18,-,44,AS,adaptive,31,↓,up,↑,0.7811859003268182,False,20,-1,1,2
Y2-S2-273K18,-,45,AS,adaptive,33,←,left,←,0.5517118000425398,True,21,-1,0,2
Y2-S2-273K18,-,46,AS,adaptive,44,↓,down,↓,0.6055303001776338,True,21,-1,0,2
Y2-S2-273K18,-,47,AS,adaptive,37,←,left,←,0.597677799873054,True,21,1,1,3
Y2-S2-273K18,-,48,AS,adaptive,35,↓,down,↓,0.5888852002099156,True,20,1,0,3
Y2-S2-273K18,-,49,AS,adaptive,40,↑,up,↑,0.6063747997395694,True,20,1,0,3
Y2-S2-273K18,-,50,AS,adaptive,33,↓,down,↓,0.8393406998366117,True,20,1,0,3
Y2-S2-273K18,-,51,AS,adaptive,39,→,right,→,0.7336091999895871,True,19,1,0,3
Y2-S2-273K18,-,52,AS,adaptive,49,↓,down,↓,0.5550892003811896,True,19,1,0,3
Y2-S2-273K18,-,53,AS,adaptive,38,→,right,→,0.7038837000727654,True,19,1,0,3
Y2-S2-273K18,-,54,AS,adaptive,30,←,left,←,0.7124463999643922,True,18,1,0,3
Y2-S2-273K18,-,55,AS,adaptive,31,↓,down,↓,0.5609919000416994,True,18,1,0,3
Y2-S2-273K18,-,56,AS,adaptive,27,→,right,→,0.574153299909085,True,18,1,0,3
Y2-S2-273K18,-,57,AS,adaptive,43,←,left,←,0.9485619999468327,True,17,1,0,3
Y2-S2-273K18,-,58,AS,adaptive,25,→,right,→,0.5655897003598511,True,17,1,0,3
Y2-S2-273K18,-,59,AS,adaptive,30,↑,up,↑,0.6149792997166514,True,17,1,0,3
Y2-S2-273K18,-,60,AS,adaptive,34,←,left,←,0.5487598995678127,True,16,1,0,3
Y2-S2-273K18,-,61,AS,adaptive,36,↑,up,↑,0.5998178999871016,True,16,1,0,3
Y2-S2-273K18,-,62,AS,adaptive,27,←,left,←,0.6768835000693798,True,16,1,0,3
Y2-S2-273K18,-,63,AS,adaptive,43,↑,up,↑,0.5418015997856855,True,15,1,0,3
Y2-S2-273K18,-,64,AS,adaptive,26,↓,down,↓,0.7023542001843452,True,15,1,0,3
Y2-S2-273K18,-,65,AS,adaptive,30,→,right,→,0.6366412998177111,True,15,1,0,3
Y2-S2-273K18,-,66,AS,adaptive,42,↑,up,↑,0.4808001001365483,True,14,1,0,3
Y2-S2-273K18,-,67,AS,adaptive,25,↓,up,↑,1.0411473996937275,False,14,-1,1,4
Y2-S2-273K18,1,68,AS,intra_train,45,←,down,↓,1.9778363001532853,False,22,-,-,-
Y2-S2-273K18,1,69,AS,intra_train,34,→,right,→,1.142776200082153,True,22,-,-,-
Y2-S2-273K18,1,70,AS,intra_train,46,↓,down,↓,1.4388220999389887,True,22,-,-,-
Y2-S2-273K18,1,71,AS,intra_train,32,↑,up,↑,0.5786474999040365,True,22,-,-,-
Y2-S2-273K18,1,72,AS,intra_train,38,←,left,←,0.6008255998604,True,22,-,-,-
Y2-S2-273K18,1,73,AS,exp,37,↑,up,↑,0.7620422001928091,True,15,0,0,0
Y2-S2-273K18,1,74,AS,exp,45,←,left,←,0.7865194999612868,True,15,0,0,0
Y2-S2-273K18,1,75,AS,exp,49,→,right,→,0.785831700079143,True,15,1,0,0
Y2-S2-273K18,1,76,AS,exp,28,↓,down,↓,0.7503418000414968,True,14,1,0,0
Y2-S2-273K18,1,77,AS,exp,32,←,left,←,0.6347457002848387,True,14,1,0,0
Y2-S2-273K18,1,78,AS,exp,31,↓,down,↓,0.6788494000211358,True,14,1,0,0
Y2-S2-273K18,1,79,AS,exp,28,→,left,←,0.6878792000934482,False,13,-1,1,1
Y2-S2-273K18,1,80,AS,exp,36,↓,down,↓,0.5629647001624107,True,14,-1,0,1
Y2-S2-273K18,1,81,AS,exp,36,←,left,←,0.6173791997134686,True,14,-1,0,1
Y2-S2-273K18,1,82,AS,exp,26,↑,up,↑,0.6969416998326778,True,14,1,1,2
Y2-S2-273K18,1,83,AS,exp,30,→,right,→,0.5869400002993643,True,13,1,0,2
Y2-S2-273K18,1,84,AS,exp,34,←,left,←,0.6666190000250936,True,13,1,0,2
Y2-S2-273K18,1,85,AS,exp,47,↓,down,↓,0.5583843998610973,True,13,1,0,2
Y2-S2-273K18,1,86,AS,exp,35,←,left,←,0.46447710040956736,True,12,1,0,2
Y2-S2-273K18,1,87,AS,exp,34,→,right,→,0.6099996999837458,True,12,1,0,2
Y2-S2-273K18,1,88,AS,exp,33,↓,down,↓,0.5780968996696174,True,12,1,0,2
Y2-S2-273K18,1,89,AS,exp,47,↑,up,↑,0.4509355998598039,True,11,1,0,2
Y2-S2-273K18,1,90,AS,exp,27,↓,down,↓,0.5996659998781979,True,11,1,0,2
Y2-S2-273K18,1,91,AS,exp,31,→,left,←,0.7891212999820709,False,11,-1,1,3
Y2-S2-273K18,1,92,AS,exp,42,←,left,←,0.5729020000435412,True,12,-1,0,3
Y2-S2-273K18,1,93,AS,exp,39,↓,down,↓,0.5897650998085737,True,12,-1,0,3
Y2-S2-273K18,1,94,AS,exp,48,↑,no_key,no_letter,-1.0,False,12,-1,0,3
Y2-S2-273K18,1,95,AS,exp,37,↓,down,↓,0.6366678001359105,True,13,-1,0,3
Y2-S2-273K18,1,96,AS,exp,34,↑,up,↑,0.7547842999920249,True,13,-1,0,3
Y2-S2-273K18,1,97,AS,exp,32,→,right,→,0.730077600106597,True,13,1,1,4
Y2-S2-273K18,1,98,AS,exp,46,↓,down,↓,0.6275355000980198,True,12,1,0,4
Y2-S2-273K18,1,99,AS,exp,47,↑,up,↑,0.6545362998731434,True,12,1,0,4
Y2-S2-273K18,1,100,AS,exp,44,↓,up,↑,0.8111107996664941,False,12,-1,1,5
Y2-S2-273K18,1,101,AS,exp,48,←,left,←,0.666355499997735,True,13,-1,0,5
Y2-S2-273K18,1,102,AS,exp,44,↓,down,↓,0.6469272999092937,True,13,-1,0,5
Y2-S2-273K18,1,103,AS,exp,49,←,left,←,0.6372568998485804,True,13,1,1,6
Y2-S2-273K18,1,104,AS,exp,26,→,right,→,1.4252239996567369,True,12,1,0,6
Y2-S2-273K18,1,105,AS,exp,41,←,left,←,0.6222152002155781,True,12,1,0,6
Y2-S2-273K18,1,106,AS,exp,45,→,up,↑,1.7915324000641704,False,12,-1,1,7
Y2-S2-273K18,1,107,AS,exp,25,↑,down,↓,1.6038508997298777,False,13,-1,0,7
Y2-S2-273K18,1,108,AS,exp,43,←,left,←,0.5502216997556388,True,14,-1,0,7
Y2-S2-273K18,1,109,AS,exp,29,↑,up,↑,0.9959681001491845,True,14,-1,0,7
Y2-S2-273K18,1,110,AS,exp,44,←,left,←,0.5450725997798145,True,14,1,1,8
Y2-S2-273K18,1,111,AS,exp,49,↓,down,↓,0.6891459003090858,True,13,1,0,8
Y2-S2-273K18,1,112,AS,exp,44,←,left,←,0.5106183001771569,True,13,1,0,8
Y2-S2-273K18,1,113,AS,exp,26,↑,left,←,1.129687299951911,False,13,-1,1,9
Y2-S2-273K18,1,114,AS,exp,36,←,left,←,0.7394745997153223,True,14,-1,0,9
Y2-S2-273K18,1,115,AS,exp,37,→,down,↓,0.6706658997572958,False,14,-1,0,9
Y2-S2-273K18,1,116,AS,exp,30,←,left,←,0.5098072998225689,True,15,-1,0,9
Y2-S2-273K18,1,117,AS,exp,32,→,right,→,0.5407875999808311,True,15,-1,0,9
Y2-S2-273K18,1,118,AS,exp,28,←,left,←,0.7301544998772442,True,15,1,1,10
Y2-S2-273K18,1,119,AS,exp,49,→,right,→,0.6135412002913654,True,14,1,0,10
Y2-S2-273K18,1,120,AS,exp,44,↓,down,↓,0.6318728998303413,True,14,1,0,10
Y2-S2-273K18,1,121,AS,exp,32,→,left,←,0.8898541000671685,False,14,-1,1,11
Y2-S2-273K18,1,122,AS,exp,43,←,left,←,0.8565227999351919,True,15,-1,0,11
Y2-S2-273K18,1,123,AS,exp,41,↑,up,↑,0.7243089000694454,True,15,-1,0,11
Y2-S2-273K18,1,124,AS,exp,25,←,left,←,0.5902892001904547,True,15,1,1,12
Y2-S2-273K18,1,125,AS,exp,31,→,right,→,0.5174079001881182,True,14,1,0,12
Y2-S2-273K18,1,126,AS,exp,29,←,left,←,0.4867325001396239,True,14,1,0,12
Y2-S2-273K18,1,127,AS,exp,29,→,left,←,0.5039790999144316,False,14,-1,1,13
Y2-S2-273K18,1,128,AS,exp,43,↓,down,↓,0.5892324000597,True,15,-1,0,13
Y2-S2-273K18,1,129,AS,exp,25,↑,down,↓,0.8079343000426888,False,15,-1,0,13
Y2-S2-273K18,1,130,AS,exp,32,→,right,→,0.5337350000627339,True,16,-1,0,13
Y2-S2-273K18,1,131,AS,exp,27,↓,down,↓,0.5870985998772085,True,16,-1,0,13
Y2-S2-273K18,1,132,AS,exp,30,↑,up,↑,0.6820255997590721,True,16,1,1,14
Y2-S2-273K18,1,133,AS,exp,39,←,left,←,0.5991700002923608,True,15,1,0,14
Y2-S2-273K18,1,134,AS,exp,28,→,right,→,0.5669267997145653,True,15,1,0,14
Y2-S2-273K18,1,135,AS,exp,31,↓,down,↓,0.7089401995763183,True,15,1,0,14
Y2-S2-273K18,1,136,AS,exp,34,←,left,←,0.6028446001000702,True,14,1,0,14
Y2-S2-273K18,1,137,AS,exp,30,↑,no_key,no_letter,-1.0,False,14,-1,1,15
Y2-S2-273K18,1,138,AS,exp,39,↓,down,↓,0.6523156999610364,True,15,-1,0,15
Y2-S2-273K18,1,139,AS,exp,27,→,right,→,0.5594260999932885,True,15,-1,0,15
Y2-S2-273K18,1,140,AS,exp,35,←,left,←,0.7606176999397576,True,15,1,1,16
Y2-S2-273K18,2,141,PS,intra_train,41,→,right,→,0.5297713000327349,True,19,-,-,-
Y2-S2-273K18,2,142,PS,intra_train,43,←,left,←,0.6112429997883737,True,19,-,-,-
Y2-S2-273K18,2,143,PS,intra_train,47,↑,up,↑,0.6751465001143515,True,19,-,-,-
Y2-S2-273K18,2,144,PS,intra_train,38,←,left,←,0.48812650004401803,True,19,-,-,-
Y2-S2-273K18,2,145,PS,intra_train,34,→,right,→,0.6044425996951759,True,19,-,-,-
Y2-S2-273K18,2,146,PS,exp,32,↑,up,↑,0.663194099906832,True,13,0,0,0
Y2-S2-273K18,2,147,PS,exp,45,←,right,→,0.570329399779439,False,13,-1,0,0
Y2-S2-273K18,2,148,PS,exp,48,→,left,←,0.47270999988541007,False,14,-1,0,0
Y2-S2-273K18,2,149,PS,exp,38,←,left,←,0.676388300023973,True,15,-1,0,0
Y2-S2-273K18,2,150,PS,exp,43,→,right,→,0.44228830002248287,True,15,-1,0,0
Y2-S2-273K18,2,151,PS,exp,36,←,left,←,0.6270456002093852,True,15,1,1,1
Y2-S2-273K18,2,152,PS,exp,28,→,left,←,0.8170533999800682,False,14,-1,1,2
Y2-S2-273K18,2,153,PS,exp,41,↓,down,↓,0.8414940000511706,True,15,-1,0,2
Y2-S2-273K18,2,154,PS,exp,28,↑,up,↑,0.5302499998360872,True,15,-1,0,2
Y2-S2-273K18,2,155,PS,exp,25,↓,down,↓,0.6248043002560735,True,15,1,1,3
Y2-S2-273K18,2,156,PS,exp,27,→,left,←,0.4319446999579668,False,14,-1,1,4
Y2-S2-273K18,2,157,PS,exp,43,↑,up,↑,0.5771870999597013,True,15,-1,0,4
Y2-S2-273K18,2,158,PS,exp,28,↓,down,↓,0.5875425999984145,True,15,-1,0,4
Y2-S2-273K18,2,159,PS,exp,48,←,left,←,0.5007802997715771,True,15,1,1,5
Y2-S2-273K18,2,160,PS,exp,38,→,right,→,0.5154690998606384,True,14,1,0,5
Y2-S2-273K18,2,161,PS,exp,45,↑,up,↑,0.6208437997847795,True,14,1,0,5
Y2-S2-273K18,2,162,PS,exp,31,→,right,→,0.507540600374341,True,14,1,0,5
Y2-S2-273K18,2,163,PS,exp,30,↑,up,↑,0.49645379977300763,True,13,1,0,5
Y2-S2-273K18,2,164,PS,exp,34,↓,down,↓,0.5575667000375688,True,13,1,0,5
Y2-S2-273K18,2,165,PS,exp,30,↑,up,↑,0.47725379979237914,True,13,1,0,5
Y2-S2-273K18,2,166,PS,exp,26,←,left,←,0.5023217997513711,True,12,1,0,5
Y2-S2-273K18,2,167,PS,exp,29,↑,up,↑,0.5055621000938118,True,12,1,0,5
Y2-S2-273K18,2,168,PS,exp,25,↓,down,↓,0.6318234000355005,True,12,1,0,5
Y2-S2-273K18,2,169,PS,exp,50,←,left,←,0.5410861996933818,True,11,1,0,5
Y2-S2-273K18,2,170,PS,exp,34,↑,up,↑,0.4811721001751721,True,11,1,0,5
Y2-S2-273K18,2,171,PS,exp,38,↓,down,↓,0.5151325999759138,True,11,1,0,5
Y2-S2-273K18,2,172,PS,exp,39,→,right,→,0.5454023000784218,True,10,1,0,5
Y2-S2-273K18,2,173,PS,exp,38,↑,up,↑,0.49212600011378527,True,10,1,0,5
Y2-S2-273K18,2,174,PS,exp,48,→,left,←,0.5409285998903215,False,10,-1,1,6
Y2-S2-273K18,2,175,PS,exp,42,←,left,←,0.5270239003002644,True,11,-1,0,6
Y2-S2-273K18,2,176,PS,exp,33,↓,up,↑,0.5306372996419668,False,11,-1,0,6
Y2-S2-273K18,2,177,PS,exp,36,←,left,←,0.5170536995865405,True,12,-1,0,6
Y2-S2-273K18,2,178,PS,exp,30,→,right,→,0.4408487002365291,True,12,-1,0,6
Y2-S2-273K18,2,179,PS,exp,43,↓,down,↓,0.6245792997069657,True,12,1,1,7
Y2-S2-273K18,2,180,PS,exp,46,→,right,→,0.4617486000061035,True,11,1,0,7
Y2-S2-273K18,2,181,PS,exp,42,↑,up,↑,0.5088797002099454,True,11,1,0,7
Y2-S2-273K18,2,182,PS,exp,45,↓,down,↓,0.5969968000426888,True,11,1,0,7
Y2-S2-273K18,2,183,PS,exp,32,←,right,→,0.7635897998698056,False,10,-1,1,8
Y2-S2-273K18,2,184,PS,exp,38,↓,down,↓,0.5901434998959303,True,11,-1,0,8
Y2-S2-273K18,2,185,PS,exp,46,↑,up,↑,0.5512782000005245,True,11,-1,0,8
Y2-S2-273K18,2,186,PS,exp,37,←,left,←,0.5088424002751708,True,11,1,1,9
Y2-S2-273K18,2,187,PS,exp,47,→,right,→,0.49936560029163957,True,10,1,0,9
Y2-S2-273K18,2,188,PS,exp,37,↓,no_key,no_letter,-1.0,False,10,-1,1,10
Y2-S2-273K18,2,189,PS,exp,44,→,no_key,no_letter,-1.0,False,11,-1,0,10
Y2-S2-273K18,2,190,PS,exp,26,↓,down,↓,0.6547094001434743,True,12,-1,0,10
Y2-S2-273K18,2,191,PS,exp,32,→,right,→,0.5319269997999072,True,12,-1,0,10
Y2-S2-273K18,2,192,PS,exp,34,←,left,←,0.5056250998750329,True,12,1,1,11
Y2-S2-273K18,2,193,PS,exp,29,→,left,←,0.8280563000589609,False,11,-1,1,12
Y2-S2-273K18,2,194,PS,exp,43,↓,down,↓,0.5006556999869645,True,12,-1,0,12
Y2-S2-273K18,2,195,PS,exp,30,↑,up,↑,0.5739830997772515,True,12,-1,0,12
Y2-S2-273K18,2,196,PS,exp,30,←,left,←,0.5867356001399457,True,12,1,1,13
Y2-S2-273K18,2,197,PS,exp,44,↓,down,↓,0.645509900059551,True,11,1,0,13
Y2-S2-273K18,2,198,PS,exp,31,↑,down,↓,0.9119294001720846,False,11,-1,1,14
Y2-S2-273K18,2,199,PS,exp,36,→,right,→,0.5765064000152051,True,12,-1,0,14
Y2-S2-273K18,2,200,PS,exp,38,←,left,←,0.5628189998678863,True,12,-1,0,14
Y2-S2-273K18,2,201,PS,exp,46,→,right,→,0.4665906000882387,True,12,1,1,15
Y2-S2-273K18,2,202,PS,exp,34,←,left,←,0.5366771002300084,True,11,1,0,15
Y2-S2-273K18,2,203,PS,exp,25,→,right,→,0.5181401004083455,True,11,1,0,15
Y2-S2-273K18,2,204,PS,exp,32,←,left,←,0.3769829999655485,True,11,1,0,15
Y2-S2-273K18,2,205,PS,exp,40,↓,down,↓,0.6171740000136197,True,10,1,0,15
Y2-S2-273K18,2,206,PS,exp,47,↑,up,↑,0.5631620995700359,True,10,1,0,15
Y2-S2-273K18,2,207,PS,exp,47,→,right,→,0.49736349983140826,True,10,1,0,15
Y2-S2-273K18,2,208,PS,exp,34,↓,left,←,0.5508471997454762,False,9,-1,1,16
Y2-S2-273K18,3,209,PS,intra_train,26,←,left,←,0.6046219998970628,True,19,-,-,-
Y2-S2-273K18,3,210,PS,intra_train,35,↑,up,↑,0.5186014999635518,True,19,-,-,-
Y2-S2-273K18,3,211,PS,intra_train,34,→,right,→,0.5917109996080399,True,19,-,-,-
Y2-S2-273K18,3,212,PS,intra_train,42,↑,up,↑,0.7417509998194873,True,19,-,-,-
Y2-S2-273K18,3,213,PS,intra_train,29,←,left,←,1.201673500239849,True,19,-,-,-
Y2-S2-273K18,3,214,PS,exp,42,→,right,→,0.5189641998149455,True,13,0,0,0
Y2-S2-273K18,3,215,PS,exp,43,↑,up,↑,0.4996895999647677,True,13,0,0,0
Y2-S2-273K18,3,216,PS,exp,42,→,right,→,0.5766952000558376,True,13,1,0,0
Y2-S2-273K18,3,217,PS,exp,30,↓,left,←,1.3044226001948118,False,12,-1,1,1
Y2-S2-273K18,3,218,PS,exp,36,→,right,→,0.44608400017023087,True,13,-1,0,1
Y2-S2-273K18,3,219,PS,exp,46,↑,up,↑,0.4560881000943482,True,13,-1,0,1
Y2-S2-273K18,3,220,PS,exp,31,↓,down,↓,0.6997243002988398,True,13,1,1,2
Y2-S2-273K18,3,221,PS,exp,46,↑,up,↑,0.43222719989717007,True,12,1,0,2
Y2-S2-273K18,3,222,PS,exp,35,→,left,←,0.5761367999948561,False,12,-1,1,3
Y2-S2-273K18,3,223,PS,exp,36,↓,down,↓,0.7383049000054598,True,13,-1,0,3
Y2-S2-273K18,3,224,PS,exp,48,→,right,→,0.5771594000980258,True,13,-1,0,3
Y2-S2-273K18,3,225,PS,exp,39,↑,up,↑,0.7671529999934137,True,13,1,1,4
Y2-S2-273K18,3,226,PS,exp,26,↓,down,↓,0.5737377000041306,True,12,1,0,4
Y2-S2-273K18,3,227,PS,exp,46,↑,up,↑,0.5156522002071142,True,12,1,0,4
Y2-S2-273K18,3,228,PS,exp,46,→,right,→,0.6271124999038875,True,12,1,0,4
Y2-S2-273K18,3,229,PS,exp,30,←,left,←,0.5326144001446664,True,11,1,0,4
Y2-S2-273K18,3,230,PS,exp,43,↑,up,↑,0.5356368999928236,True,11,1,0,4
Y2-S2-273K18,3,231,PS,exp,31,→,left,←,0.6827597999945283,False,11,-1,1,5
Y2-S2-273K18,3,232,PS,exp,41,↑,up,↑,0.47393220011144876,True,12,-1,0,5
Y2-S2-273K18,3,233,PS,exp,36,→,right,→,0.5094620999880135,True,12,-1,0,5
Y2-S2-273K18,3,234,PS,exp,50,←,left,←,0.5033992999233305,True,12,1,1,6
Y2-S2-273K18,3,235,PS,exp,44,→,left,←,1.0450198999606073,False,11,-1,1,7
Y2-S2-273K18,3,236,PS,exp,40,←,left,←,0.43842450017109513,True,12,-1,0,7
Y2-S2-273K18,3,237,PS,exp,28,→,left,←,0.6320783002302051,False,12,-1,0,7
Y2-S2-273K18,3,238,PS,exp,42,↓,down,↓,1.4632757999934256,True,13,-1,0,7
Y2-S2-273K18,3,239,PS,exp,39,↑,up,↑,0.45432249968871474,True,13,-1,0,7
Y2-S2-273K18,3,240,PS,exp,36,↓,down,↓,0.9575850996188819,True,13,1,1,8
Y2-S2-273K18,3,241,PS,exp,49,→,right,→,0.736124699935317,True,12,1,0,8
Y2-S2-273K18,3,242,PS,exp,28,←,left,←,0.7220827001146972,True,12,1,0,8
Y2-S2-273K18,3,243,PS,exp,48,↓,down,↓,0.8654159996658564,True,12,1,0,8
Y2-S2-273K18,3,244,PS,exp,49,↑,no_key,no_letter,-1.0,False,11,-1,1,9
Y2-S2-273K18,3,245,PS,exp,30,→,right,→,0.4908050000667572,True,12,-1,0,9
Y2-S2-273K18,3,246,PS,exp,47,↑,up,↑,0.5054993000812829,True,12,-1,0,9
Y2-S2-273K18,3,247,PS,exp,26,→,right,→,0.9180553997866809,True,12,1,1,10
Y2-S2-273K18,3,248,PS,exp,37,←,left,←,0.5178227997384965,True,11,1,0,10
Y2-S2-273K18,3,249,PS,exp,36,↓,down,↓,0.6656152997165918,True,11,1,0,10
Y2-S2-273K18,3,250,PS,exp,28,→,right,→,0.5996252996847034,True,11,1,0,10
Y2-S2-273K18,3,251,PS,exp,34,↑,up,↑,0.502470999956131,True,10,1,0,10
Y2-S2-273K18,3,252,PS,exp,28,→,right,→,0.623662400059402,True,10,1,0,10
Y2-S2-273K18,3,253,PS,exp,25,↓,down,↓,0.559349499642849,True,10,1,0,10
Y2-S2-273K18,3,254,PS,exp,40,↑,up,↑,0.9879034999758005,True,9,1,0,10
Y2-S2-273K18,3,255,PS,exp,42,→,right,→,0.5403754999861121,True,9,1,0,10
Y2-S2-273K18,3,256,PS,exp,47,←,left,←,0.5574475000612438,True,9,1,0,10
Y2-S2-273K18,3,257,PS,exp,36,↓,down,↓,0.633275100030005,True,8,1,0,10
Y2-S2-273K18,3,258,PS,exp,43,↑,up,↑,0.5047400998882949,True,8,1,0,10
Y2-S2-273K18,3,259,PS,exp,32,←,left,←,0.5521702999249101,True,8,1,0,10
Y2-S2-273K18,3,260,PS,exp,31,↑,left,←,1.2190860998816788,False,7,-1,1,11
Y2-S2-273K18,3,261,PS,exp,46,←,left,←,0.5320513001643121,True,8,-1,0,11
Y2-S2-273K18,3,262,PS,exp,33,→,no_key,no_letter,-1.0,False,8,-1,0,11
Y2-S2-273K18,3,263,PS,exp,42,←,left,←,0.45189839974045753,True,9,-1,0,11
Y2-S2-273K18,3,264,PS,exp,39,→,left,←,0.5294654997996986,False,9,-1,0,11
Y2-S2-273K18,3,265,PS,exp,25,←,left,←,0.5274411998689175,True,10,-1,0,11
Y2-S2-273K18,3,266,PS,exp,32,→,left,←,1.4812308000400662,False,10,-1,0,11
Y2-S2-273K18,3,267,PS,exp,44,↑,up,↑,0.5014379001222551,True,11,-1,0,11
Y2-S2-273K18,3,268,PS,exp,42,←,left,←,0.5709881000220776,True,11,-1,0,11
Y2-S2-273K18,3,269,PS,exp,48,→,left,←,0.6297183996066451,False,11,-1,0,11
Y2-S2-273K18,3,270,PS,exp,35,←,no_key,no_letter,-1.0,False,12,-1,0,11
Y2-S2-273K18,3,271,PS,exp,35,↓,down,↓,0.7009552996605635,True,13,-1,0,11
Y2-S2-273K18,3,272,PS,exp,35,→,right,→,0.5713669001124799,True,13,-1,0,11
Y2-S2-273K18,3,273,PS,exp,50,↓,down,↓,0.583171600010246,True,13,1,1,12
Y2-S2-273K18,3,274,PS,exp,26,→,right,→,0.6310463999398053,True,12,1,0,12
Y2-S2-273K18,3,275,PS,exp,27,↑,up,↑,0.6995255001820624,True,12,1,0,12
Y2-S2-273K18,3,276,PS,exp,48,↓,down,↓,0.4698478002101183,True,12,1,0,12
Y2-S2-273K18,3,277,PS,exp,40,↑,up,↑,0.6064971000887454,True,11,1,0,12
Y2-S2-273K18,3,278,PS,exp,34,←,left,←,0.5676855999045074,True,11,1,0,12
Y2-S2-273K18,3,279,PS,exp,38,↓,down,↓,0.6503610997460783,True,11,1,0,12
Y2-S2-273K18,3,280,PS,exp,39,←,left,←,0.4470454999245703,True,10,1,0,12
Y2-S2-273K18,3,281,PS,exp,32,↓,down,↓,0.6847279001958668,True,10,1,0,12
Y2-S2-273K18,3,282,PS,exp,48,→,right,→,0.463491799775511,True,10,1,0,12
Y2-S2-273K18,3,283,PS,exp,30,↓,down,↓,0.6037956001237035,True,9,1,0,12
Y2-S2-273K18,3,284,PS,exp,35,→,right,→,0.6155805997550488,True,9,1,0,12
Y2-S2-273K18,3,285,PS,exp,30,↑,up,↑,0.6686133001931012,True,9,1,0,12
Y2-S2-273K18,3,286,PS,exp,41,←,no_key,no_letter,-1.0,False,8,-1,1,13
Y2-S2-273K18,3,287,PS,exp,48,→,right,→,0.893940799869597,True,9,-1,0,13
Y2-S2-273K18,3,288,PS,exp,28,↑,no_key,no_letter,-1.0,False,9,-1,0,13
Y2-S2-273K18,3,289,PS,exp,42,→,right,→,0.43193359998986125,True,10,-1,0,13
Y2-S2-273K18,3,290,PS,exp,43,↑,up,↑,0.39969770004972816,True,10,-1,0,13
Y2-S2-273K18,3,291,PS,exp,40,←,left,←,1.226490099914372,True,10,1,1,14
Y2-S2-273K18,3,292,PS,exp,49,↑,up,↑,0.49931140011176467,True,9,1,0,14
Y2-S2-273K18,3,293,PS,exp,34,←,no_key,no_letter,-1.0,False,9,-1,1,15
Y2-S2-273K18,3,294,PS,exp,34,→,no_key,no_letter,-1.0,False,10,-1,0,15
Y2-S2-273K18,3,295,PS,exp,27,↓,down,↓,0.6154399998486042,True,11,-1,0,15
Y2-S2-273K18,3,296,PS,exp,37,←,left,←,0.5566000998951495,True,11,-1,0,15
Y2-S2-273K18,3,297,PS,exp,49,↑,down,↓,0.9940702999010682,False,11,-1,0,15
Y2-S2-273K18,3,298,PS,exp,25,↓,down,↓,0.640986300073564,True,12,-1,0,15
Y2-S2-273K18,3,299,PS,exp,48,↑,up,↑,0.4939179001376033,True,12,-1,0,15
Y2-S2-273K18,3,300,PS,exp,26,←,right,→,0.6014589997939765,False,12,-1,0,15
Y2-S2-273K18,3,301,PS,exp,45,↓,down,↓,0.5790779003873467,True,13,-1,0,15
Y2-S2-273K18,3,302,PS,exp,43,←,left,←,0.7687286003492773,True,13,-1,0,15
Y2-S2-273K18,3,303,PS,exp,41,→,right,→,0.48581469990313053,True,13,1,1,16
Y2-S2-273K18,4,304,AS,intra_train,35,←,left,←,0.6099246996454895,True,22,-,-,-
Y2-S2-273K18,4,305,AS,intra_train,34,↑,up,↑,0.6359251998364925,True,22,-,-,-
Y2-S2-273K18,4,306,AS,intra_train,35,↓,down,↓,0.8635222003795207,True,22,-,-,-
Y2-S2-273K18,4,307,AS,intra_train,25,←,left,←,0.6105847000144422,True,22,-,-,-
Y2-S2-273K18,4,308,AS,intra_train,31,→,right,→,0.5935348998755217,True,22,-,-,-
Y2-S2-273K18,4,309,AS,exp,35,↑,no_key,no_letter,-1.0,False,15,-1,0,0
Y2-S2-273K18,4,310,AS,exp,38,←,left,←,0.5495371003635228,True,16,-1,0,0
Y2-S2-273K18,4,311,AS,exp,40,→,right,→,0.6647581001743674,True,16,-1,0,0
Y2-S2-273K18,4,312,AS,exp,44,↓,down,↓,0.6199771999381483,True,16,1,1,1
Y2-S2-273K18,4,313,AS,exp,49,→,right,→,0.5809583999216557,True,15,1,0,1
Y2-S2-273K18,4,314,AS,exp,40,←,left,←,0.5620784997008741,True,15,1,0,1
Y2-S2-273K18,4,315,AS,exp,27,↓,down,↓,0.7115142000839114,True,15,1,0,1
Y2-S2-273K18,4,316,AS,exp,44,→,right,→,0.6175917997024953,True,14,1,0,1
Y2-S2-273K18,4,317,AS,exp,28,←,left,←,0.6528536002151668,True,14,1,0,1
Y2-S2-273K18,4,318,AS,exp,46,↑,up,↑,0.8367169997654855,True,14,1,0,1
Y2-S2-273K18,4,319,AS,exp,32,↓,no_key,no_letter,-1.0,False,13,-1,1,2
Y2-S2-273K18,4,320,AS,exp,37,←,no_key,no_letter,-1.0,False,14,-1,0,2
Y2-S2-273K18,4,321,AS,exp,38,↓,down,↓,0.6575940996408463,True,15,-1,0,2
Y2-S2-273K18,4,322,AS,exp,38,↑,up,↑,0.6345142996869981,True,15,-1,0,2
Y2-S2-273K18,4,323,AS,exp,45,↓,down,↓,0.6225358000956476,True,15,1,1,3
Y2-S2-273K18,4,324,AS,exp,43,→,right,→,0.5381277999840677,True,14,1,0,3
Y2-S2-273K18,4,325,AS,exp,46,↓,down,↓,0.6762840999290347,True,14,1,0,3
Y2-S2-273K18,4,326,AS,exp,35,→,right,→,0.648481999989599,True,14,1,0,3
Y2-S2-273K18,4,327,AS,exp,42,↓,down,↓,0.673872200306505,True,13,1,0,3
Y2-S2-273K18,4,328,AS,exp,41,↑,up,↑,0.8969761002808809,True,13,1,0,3
Y2-S2-273K18,4,329,AS,exp,46,←,left,←,0.6700605000369251,True,13,1,0,3
Y2-S2-273K18,4,330,AS,exp,38,↑,up,↑,0.6793526997789741,True,12,1,0,3
Y2-S2-273K18,4,331,AS,exp,45,↓,down,↓,0.6661961004137993,True,12,1,0,3
Y2-S2-273K18,4,332,AS,exp,48,→,no_key,no_letter,-1.0,False,12,-1,1,4
Y2-S2-273K18,4,333,AS,exp,34,↓,no_key,no_letter,-1.0,False,13,-1,0,4
Y2-S2-273K18,4,334,AS,exp,26,←,no_key,no_letter,-1.0,False,14,-1,0,4
Y2-S2-273K18,4,335,AS,exp,40,↓,down,↓,0.7787118996493518,True,15,-1,0,4
Y2-S2-273K18,4,336,AS,exp,27,←,right,→,0.8467141999863088,False,15,-1,0,4
Y2-S2-273K18,4,337,AS,exp,31,↑,up,↑,0.6286158002912998,True,16,-1,0,4
Y2-S2-273K18,4,338,AS,exp,44,↓,down,↓,0.6539972997270525,True,16,-1,0,4
Y2-S2-273K18,4,339,AS,exp,31,↑,up,↑,0.6634287000633776,True,16,1,1,5
Y2-S2-273K18,4,340,AS,exp,45,←,left,←,0.6257478999905288,True,15,1,0,5
Y2-S2-273K18,4,341,AS,exp,39,↑,up,↑,0.5215794998221099,True,15,1,0,5
Y2-S2-273K18,4,342,AS,exp,38,→,right,→,0.5745252999477088,True,15,1,0,5
Y2-S2-273K18,4,343,AS,exp,38,↑,up,↑,0.4850831003859639,True,14,1,0,5
Y2-S2-273K18,4,344,AS,exp,36,↓,down,↓,1.086236400064081,True,14,1,0,5
Y2-S2-273K18,4,345,AS,exp,50,→,right,→,0.6286637000739574,True,14,1,0,5
Y2-S2-273K18,4,346,AS,exp,27,↓,up,↑,0.9531402001157403,False,13,-1,1,6
Y2-S2-273K18,4,347,AS,exp,47,↑,up,↑,0.7589274002239108,True,14,-1,0,6
Y2-S2-273K18,4,348,AS,exp,37,→,right,→,0.577870599925518,True,14,-1,0,6
Y2-S2-273K18,4,349,AS,exp,25,←,left,←,0.6090052998624742,True,14,1,1,7
Y2-S2-273K18,4,350,AS,exp,35,↑,up,↑,0.7201048000715673,True,13,1,0,7
Y2-S2-273K18,4,351,AS,exp,36,↓,down,↓,0.6713143000379205,True,13,1,0,7
Y2-S2-273K18,4,352,AS,exp,48,↑,up,↑,0.6773614999838173,True,13,1,0,7
Y2-S2-273K18,4,353,AS,exp,28,←,left,←,0.956734299659729,True,12,1,0,7
Y2-S2-273K18,4,354,AS,exp,49,↑,up,↑,0.5995320002548397,True,12,1,0,7
Y2-S2-273K18,4,355,AS,exp,31,↓,down,↓,0.6372267999686301,True,12,1,0,7
Y2-S2-273K18,4,356,AS,exp,39,→,right,→,0.5888998997397721,True,11,1,0,7
Y2-S2-273K18,4,357,AS,exp,35,↑,left,←,1.7562716999091208,False,11,-1,1,8
Y2-S2-273K18,4,358,AS,exp,41,←,left,←,0.5805315002799034,True,12,-1,0,8
Y2-S2-273K18,4,359,AS,exp,43,↓,no_key,no_letter,-1.0,False,12,-1,0,8
Y2-S2-273K18,4,360,AS,exp,49,→,right,→,0.5871824999339879,True,13,-1,0,8
Y2-S2-273K18,4,361,AS,exp,49,←,left,←,0.5475641000084579,True,13,-1,0,8
Y2-S2-273K18,4,362,AS,exp,48,→,right,→,0.6415226999670267,True,13,1,1,9
Y2-S2-273K18,4,363,AS,exp,48,←,left,←,0.6004888000898063,True,12,1,0,9
Y2-S2-273K18,4,364,AS,exp,46,↓,down,↓,0.7811678997240961,True,12,1,0,9
Y2-S2-273K18,4,365,AS,exp,43,↑,up,↑,0.6305589000694454,True,12,1,0,9
Y2-S2-273K18,4,366,AS,exp,38,↓,down,↓,1.0633078999817371,True,11,1,0,9
Y2-S2-273K18,4,367,AS,exp,49,←,no_key,no_letter,-1.0,False,11,-1,1,10
Y2-S2-273K18,4,368,AS,exp,40,↓,down,↓,0.5634551998227835,True,12,-1,0,10
Y2-S2-273K18,4,369,AS,exp,25,↑,down,↓,0.7288742000237107,False,12,-1,0,10
Y2-S2-273K18,4,370,AS,exp,30,←,left,←,0.6833097999915481,True,13,-1,0,10
Y2-S2-273K18,4,371,AS,exp,47,↑,down,↓,0.8096469999291003,False,13,-1,0,10
Y2-S2-273K18,4,372,AS,exp,30,→,right,→,0.671537300106138,True,14,-1,0,10
Y2-S2-273K18,4,373,AS,exp,38,↓,down,↓,0.6929113999940455,True,14,-1,0,10
Y2-S2-273K18,4,374,AS,exp,39,↑,up,↑,0.6493929997086525,True,14,1,1,11
Y2-S2-273K18,4,375,AS,exp,38,→,left,←,1.1177575998008251,False,13,-1,1,12
Y2-S2-273K18,4,376,AS,exp,26,↓,down,↓,0.6472359001636505,True,14,-1,0,12
Y2-S2-273K18,4,377,AS,exp,40,←,no_key,no_letter,-1.0,False,14,-1,0,12
Y2-S2-273K18,4,378,AS,exp,40,↑,up,↑,0.6392059000208974,True,15,-1,0,12
Y2-S2-273K18,4,379,AS,exp,27,↓,down,↓,0.6020200001075864,True,15,-1,0,12
Y2-S2-273K18,4,380,AS,exp,40,←,left,←,0.5770296002738178,True,15,1,1,13
Y2-S2-273K18,4,381,AS,exp,45,→,right,→,0.7345342999324203,True,14,1,0,13
Y2-S2-273K18,4,382,AS,exp,32,↓,down,↓,0.7095434996299446,True,14,1,0,13
Y2-S2-273K18,4,383,AS,exp,32,→,right,→,0.5835938998498023,True,14,1,0,13
Y2-S2-273K18,4,384,AS,exp,26,↑,no_key,no_letter,-1.0,False,13,-1,1,14
Y2-S2-273K18,4,385,AS,exp,46,←,left,←,0.717554799746722,True,14,-1,0,14
Y2-S2-273K18,4,386,AS,exp,26,→,right,→,0.5530794998630881,True,14,-1,0,14
Y2-S2-273K18,4,387,AS,exp,27,↓,down,↓,0.7303054998628795,True,14,1,1,15
Y2-S2-273K18,4,388,AS,exp,50,→,right,→,0.5743901003152132,True,13,1,0,15
Y2-S2-273K18,4,389,AS,exp,43,←,no_key,no_letter,-1.0,False,13,-1,1,16
Y2-S2-273K18,5,390,AS,intra_train,39,↑,up,↑,0.5381411998532712,True,22,-,-,-
Y2-S2-273K18,5,391,AS,intra_train,49,↓,down,↓,0.8722133003175259,True,22,-,-,-
Y2-S2-273K18,5,392,AS,intra_train,50,↑,up,↑,0.5469476999714971,True,22,-,-,-
Y2-S2-273K18,5,393,AS,intra_train,41,↓,down,↓,0.7555666002444923,True,22,-,-,-
Y2-S2-273K18,5,394,AS,intra_train,50,←,left,←,0.5961520001292229,True,22,-,-,-
Y2-S2-273K18,5,395,AS,exp,34,→,right,→,0.6157793998718262,True,15,0,0,0
Y2-S2-273K18,5,396,AS,exp,41,←,left,←,1.0881664003245533,True,15,0,0,0
Y2-S2-273K18,5,397,AS,exp,49,→,right,→,0.5603971998207271,True,15,1,0,0
Y2-S2-273K18,5,398,AS,exp,28,↓,down,↓,0.6216919999569654,True,14,1,0,0
Y2-S2-273K18,5,399,AS,exp,48,←,no_key,no_letter,-1.0,False,14,-1,1,1
Y2-S2-273K18,5,400,AS,exp,34,↑,up,↑,0.6130407997407019,True,15,-1,0,1
Y2-S2-273K18,5,401,AS,exp,39,←,left,←,0.5176785998046398,True,15,-1,0,1
Y2-S2-273K18,5,402,AS,exp,35,↓,down,↓,0.623129699844867,True,15,1,1,2
Y2-S2-273K18,5,403,AS,exp,38,↑,up,↑,0.5713810999877751,True,14,1,0,2
Y2-S2-273K18,5,404,AS,exp,42,→,right,→,0.555691400077194,True,14,1,0,2
Y2-S2-273K18,5,405,AS,exp,38,↑,up,↑,0.46909309970214963,True,14,1,0,2
Y2-S2-273K18,5,406,AS,exp,45,↓,down,↓,0.6190768000669777,True,13,1,0,2
Y2-S2-273K18,5,407,AS,exp,33,←,left,←,0.5526300999335945,True,13,1,0,2
Y2-S2-273K18,5,408,AS,exp,42,↓,no_key,no_letter,-1.0,False,13,-1,1,3
Y2-S2-273K18,5,409,AS,exp,26,→,right,→,0.5167677002027631,True,14,-1,0,3
Y2-S2-273K18,5,410,AS,exp,42,←,left,←,0.5770983002148569,True,14,-1,0,3
Y2-S2-273K18,5,411,AS,exp,30,↑,up,↑,0.5677815000526607,True,14,1,1,4
Y2-S2-273K18,5,412,AS,exp,50,→,left,←,0.5299720000475645,False,13,-1,1,5
Y2-S2-273K18,5,413,AS,exp,47,↑,up,↑,0.5328508000820875,True,14,-1,0,5
Y2-S2-273K18,5,414,AS,exp,28,→,right,→,0.651732100173831,True,14,-1,0,5
Y2-S2-273K18,5,415,AS,exp,49,↓,down,↓,0.6212551998905838,True,14,1,1,6
Y2-S2-273K18,5,416,AS,exp,27,↑,up,↑,0.7062992001883686,True,13,1,0,6
Y2-S2-273K18,5,417,AS,exp,37,←,left,←,0.5947201997041702,True,13,1,0,6
Y2-S2-273K18,5,418,AS,exp,36,→,no_key,no_letter,-1.0,False,13,-1,1,7
Y2-S2-273K18,5,419,AS,exp,25,←,left,←,0.6379776000976562,True,14,-1,0,7
Y2-S2-273K18,5,420,AS,exp,41,↑,up,↑,0.5032188999466598,True,14,-1,0,7
Y2-S2-273K18,5,421,AS,exp,49,←,left,←,0.5393515001051128,True,14,1,1,8
Y2-S2-273K18,5,422,AS,exp,43,→,left,←,0.5161946997977793,False,13,-1,1,9
Y2-S2-273K18,5,423,AS,exp,34,←,left,←,0.5364136998541653,True,14,-1,0,9
Y2-S2-273K18,5,424,AS,exp,41,→,right,→,0.8041085000149906,True,14,-1,0,9
Y2-S2-273K18,5,425,AS,exp,49,↑,up,↑,0.5474391998723149,True,14,1,1,10
Y2-S2-273K18,5,426,AS,exp,36,←,left,←,0.5491814999841154,True,13,1,0,10
Y2-S2-273K18,5,427,AS,exp,45,↑,up,↑,0.5810803999193013,True,13,1,0,10
Y2-S2-273K18,5,428,AS,exp,25,→,left,←,0.5108798001892865,False,13,-1,1,11
Y2-S2-273K18,5,429,AS,exp,38,←,left,←,0.5378017001785338,True,14,-1,0,11
Y2-S2-273K18,5,430,AS,exp,33,→,right,→,0.518909600097686,True,14,-1,0,11
Y2-S2-273K18,5,431,AS,exp,27,↓,up,↑,0.44733079988509417,False,14,-1,0,11
Y2-S2-273K18,5,432,AS,exp,43,←,no_key,no_letter,-1.0,False,15,-1,0,11
Y2-S2-273K18,5,433,AS,exp,38,↑,up,↑,0.4640421997755766,True,16,-1,0,11
Y2-S2-273K18,5,434,AS,exp,40,→,right,→,0.6091958000324667,True,16,-1,0,11
Y2-S2-273K18,5,435,AS,exp,25,↓,down,↓,0.6444799001328647,True,16,1,1,12
Y2-S2-273K18,5,436,AS,exp,26,↑,up,↑,0.6451127002947032,True,15,1,0,12
Y2-S2-273K18,5,437,AS,exp,25,↓,no_key,no_letter,-1.0,False,15,-1,1,13
Y2-S2-273K18,5,438,AS,exp,42,↑,up,↑,0.6214045002125204,True,16,-1,0,13
Y2-S2-273K18,5,439,AS,exp,27,↓,down,↓,0.6574314003810287,True,16,-1,0,13
Y2-S2-273K18,5,440,AS,exp,33,←,left,←,0.7085140999406576,True,16,1,1,14
Y2-S2-273K18,5,441,AS,exp,28,→,no_key,no_letter,-1.0,False,15,-1,1,15
Y2-S2-273K18,5,442,AS,exp,48,←,left,←,0.5911208996549249,True,16,-1,0,15
Y2-S2-273K18,5,443,AS,exp,25,↓,down,↓,0.6217852002009749,True,16,-1,0,15
Y2-S2-273K18,5,444,AS,exp,48,←,left,←,0.6086943997070193,True,16,1,1,16
Y2-S2-273K18,6,445,PS,intra_train,36,↑,up,↑,0.516669100150466,True,19,-,-,-
Y2-S2-273K18,6,446,PS,intra_train,29,←,left,←,0.6078604999929667,True,19,-,-,-
Y2-S2-273K18,6,447,PS,intra_train,25,↓,down,↓,0.7374362000264227,True,19,-,-,-
Y2-S2-273K18,6,448,PS,intra_train,48,←,left,←,0.6002753004431725,True,19,-,-,-
Y2-S2-273K18,6,449,PS,intra_train,29,↓,down,↓,0.572738999966532,True,19,-,-,-
Y2-S2-273K18,6,450,PS,exp,26,↑,up,↑,0.5261681000702083,True,13,0,0,0
Y2-S2-273K18,6,451,PS,exp,42,↓,down,↓,0.6195780001580715,True,13,0,0,0
Y2-S2-273K18,6,452,PS,exp,25,→,left,←,0.46231779968366027,False,13,-1,0,0
Y2-S2-273K18,6,453,PS,exp,44,←,left,←,0.4876469001173973,True,14,-1,0,0
Y2-S2-273K18,6,454,PS,exp,26,↓,down,↓,0.6230484000407159,True,14,-1,0,0
Y2-S2-273K18,6,455,PS,exp,41,→,right,→,0.46673280000686646,True,14,1,1,1
Y2-S2-273K18,6,456,PS,exp,34,←,left,←,0.4223311999812722,True,13,1,0,1
Y2-S2-273K18,6,457,PS,exp,30,→,no_key,no_letter,-1.0,False,13,-1,1,2
Y2-S2-273K18,6,458,PS,exp,31,←,left,←,0.5030364003032446,True,14,-1,0,2
Y2-S2-273K18,6,459,PS,exp,45,→,right,→,0.48200180009007454,True,14,-1,0,2
Y2-S2-273K18,6,460,PS,exp,42,↓,down,↓,0.6636517997831106,True,14,1,1,3
Y2-S2-273K18,6,461,PS,exp,35,→,right,→,0.426479599904269,True,13,1,0,3
Y2-S2-273K18,6,462,PS,exp,43,↓,down,↓,0.5649365000426769,True,13,1,0,3
Y2-S2-273K18,6,463,PS,exp,34,→,right,→,0.4660911997780204,True,13,1,0,3
Y2-S2-273K18,6,464,PS,exp,49,↑,up,↑,0.5216144002042711,True,12,1,0,3
Y2-S2-273K18,6,465,PS,exp,25,→,right,→,0.5961628002114594,True,12,1,0,3
Y2-S2-273K18,6,466,PS,exp,41,←,left,←,0.5543479002080858,True,12,1,0,3
Y2-S2-273K18,6,467,PS,exp,28,→,right,→,0.4361654999665916,True,11,1,0,3
Y2-S2-273K18,6,468,PS,exp,40,←,left,←,0.41938359988853335,True,11,1,0,3
Y2-S2-273K18,6,469,PS,exp,39,↑,up,↑,0.4221655000001192,True,11,1,0,3
Y2-S2-273K18,6,470,PS,exp,31,←,left,←,0.5235530002973974,True,10,1,0,3
Y2-S2-273K18,6,471,PS,exp,39,→,right,→,0.46601099986582994,True,10,1,0,3
Y2-S2-273K18,6,472,PS,exp,42,↑,up,↑,0.44936779979616404,True,10,1,0,3
Y2-S2-273K18,6,473,PS,exp,47,←,left,←,0.4638311001472175,True,9,1,0,3
Y2-S2-273K18,6,474,PS,exp,33,↑,up,↑,0.4348102998919785,True,9,1,0,3
Y2-S2-273K18,6,475,PS,exp,35,↓,down,↓,0.5839527999050915,True,9,1,0,3
Y2-S2-273K18,6,476,PS,exp,34,→,right,→,0.5024119997397065,True,8,1,0,3
Y2-S2-273K18,6,477,PS,exp,45,←,left,←,0.4937045001424849,True,8,1,0,3
Y2-S2-273K18,6,478,PS,exp,50,↑,up,↑,0.43650100007653236,True,8,1,0,3
Y2-S2-273K18,6,479,PS,exp,28,←,left,←,0.5926030003465712,True,7,1,0,3
Y2-S2-273K18,6,480,PS,exp,34,↑,up,↑,0.5052700997330248,True,7,1,0,3
Y2-S2-273K18,6,481,PS,exp,27,→,right,→,0.529243600089103,True,7,1,0,3
Y2-S2-273K18,6,482,PS,exp,46,↑,no_key,no_letter,-1.0,False,6,-1,1,4
Y2-S2-273K18,6,483,PS,exp,41,←,left,←,0.42010820005089045,True,7,-1,0,4
Y2-S2-273K18,6,484,PS,exp,37,↑,no_key,no_letter,-1.0,False,7,-1,0,4
Y2-S2-273K18,6,485,PS,exp,28,→,no_key,no_letter,-1.0,False,8,-1,0,4
Y2-S2-273K18,6,486,PS,exp,39,↓,no_key,no_letter,-1.0,False,9,-1,0,4
Y2-S2-273K18,6,487,PS,exp,30,→,left,←,0.784102899953723,False,10,-1,0,4
Y2-S2-273K18,6,488,PS,exp,46,↑,right,→,1.1991622000932693,False,11,-1,0,4
Y2-S2-273K18,6,489,PS,exp,32,←,left,←,0.5034775002859533,True,12,-1,0,4
Y2-S2-273K18,6,490,PS,exp,33,↑,up,↑,0.48026950005441904,True,12,-1,0,4
Y2-S2-273K18,6,491,PS,exp,29,↓,down,↓,1.5460079996846616,True,12,1,1,5
Y2-S2-273K18,6,492,PS,exp,48,←,no_key,no_letter,-1.0,False,11,-1,1,6
Y2-S2-273K18,6,493,PS,exp,35,↑,up,↑,0.44714020006358624,True,12,-1,0,6
Y2-S2-273K18,6,494,PS,exp,43,←,left,←,0.44381759967654943,True,12,-1,0,6
Y2-S2-273K18,6,495,PS,exp,43,→,right,→,0.4929156000725925,True,12,1,1,7
Y2-S2-273K18,6,496,PS,exp,29,←,left,←,0.5660959002561867,True,11,1,0,7
Y2-S2-273K18,6,497,PS,exp,25,↓,down,↓,0.6312477998435497,True,11,1,0,7
Y2-S2-273K18,6,498,PS,exp,36,→,right,→,0.5198880000971258,True,11,1,0,7
Y2-S2-273K18,6,499,PS,exp,25,↓,left,←,1.0378439002670348,False,10,-1,1,8
Y2-S2-273K18,6,500,PS,exp,43,→,right,→,0.45581249985843897,True,11,-1,0,8
Y2-S2-273K18,6,501,PS,exp,30,↓,down,↓,0.549579800106585,True,11,-1,0,8
Y2-S2-273K18,6,502,PS,exp,38,→,right,→,0.4656984996981919,True,11,1,1,9
Y2-S2-273K18,6,503,PS,exp,50,↓,down,↓,0.510049800388515,True,10,1,0,9
Y2-S2-273K18,6,504,PS,exp,41,↑,down,↓,0.884691699873656,False,10,-1,1,10
Y2-S2-273K18,6,505,PS,exp,30,←,left,←,0.4480067999102175,True,11,-1,0,10
Y2-S2-273K18,6,506,PS,exp,26,→,right,→,0.4990106001496315,True,11,-1,0,10
Y2-S2-273K18,6,507,PS,exp,48,↓,down,↓,0.5410727998241782,True,11,1,1,11
Y2-S2-273K18,6,508,PS,exp,45,→,no_key,no_letter,-1.0,False,10,-1,1,12
Y2-S2-273K18,6,509,PS,exp,26,↑,up,↑,0.5663823997601867,True,11,-1,0,12
Y2-S2-273K18,6,510,PS,exp,28,←,left,←,0.7220017998479307,True,11,-1,0,12
Y2-S2-273K18,6,511,PS,exp,42,↑,up,↑,0.4832899998873472,True,11,1,1,13
Y2-S2-273K18,6,512,PS,exp,29,←,no_key,no_letter,-1.0,False,10,-1,1,14
Y2-S2-273K18,6,513,PS,exp,33,→,right,→,0.6028267000801861,True,11,-1,0,14
Y2-S2-273K18,6,514,PS,exp,44,←,left,←,0.6458324999548495,True,11,-1,0,14
Y2-S2-273K18,6,515,PS,exp,34,→,right,→,0.5873444997705519,True,11,1,1,15
Y2-S2-273K18,6,516,PS,exp,25,↑,up,↑,0.49606689997017384,True,10,1,0,15
Y2-S2-273K18,6,517,PS,exp,38,↓,down,↓,0.6645839996635914,True,10,1,0,15
Y2-S2-273K18,6,518,PS,exp,27,→,right,→,0.3680524998344481,True,10,1,0,15
Y2-S2-273K18,6,519,PS,exp,32,←,left,←,0.5302977999672294,True,9,1,0,15
Y2-S2-273K18,6,520,PS,exp,38,→,no_key,no_letter,-1.0,False,9,-1,1,16
Y2-S2-273K18,7,521,PS,intra_train,37,↑,up,↑,0.4337905999273062,True,19,-,-,-
Y2-S2-273K18,7,522,PS,intra_train,47,↓,down,↓,0.6678209998644888,True,19,-,-,-
Y2-S2-273K18,7,523,PS,intra_train,44,→,right,→,0.5274629001505673,True,19,-,-,-
Y2-S2-273K18,7,524,PS,intra_train,46,←,left,←,0.5056794998236,True,19,-,-,-
Y2-S2-273K18,7,525,PS,intra_train,25,↓,down,↓,0.5637675998732448,True,19,-,-,-
Y2-S2-273K18,7,526,PS,exp,38,←,left,←,0.5659894002601504,True,13,0,0,0
Y2-S2-273K18,7,527,PS,exp,32,↓,down,↓,1.024537599645555,True,13,0,0,0
Y2-S2-273K18,7,528,PS,exp,40,←,left,←,0.4729809002019465,True,13,1,0,0
Y2-S2-273K18,7,529,PS,exp,32,→,right,→,0.5896839997731149,True,12,1,0,0
Y2-S2-273K18,7,530,PS,exp,27,↓,down,↓,0.5230064000934362,True,12,1,0,0
Y2-S2-273K18,7,531,PS,exp,46,→,right,→,0.4714159998111427,True,12,1,0,0
Y2-S2-273K18,7,532,PS,exp,32,↓,down,↓,0.510110099799931,True,11,1,0,0
Y2-S2-273K18,7,533,PS,exp,50,→,right,→,0.4613707000389695,True,11,1,0,0
Y2-S2-273K18,7,534,PS,exp,29,←,left,←,0.4561723000369966,True,11,1,0,0
Y2-S2-273K18,7,535,PS,exp,28,↓,left,←,0.8563454998657107,False,10,-1,1,1
Y2-S2-273K18,7,536,PS,exp,37,←,left,←,0.5295759998261929,True,11,-1,0,1
Y2-S2-273K18,7,537,PS,exp,49,→,right,→,0.515274700243026,True,11,-1,0,1
Y2-S2-273K18,7,538,PS,exp,46,↑,up,↑,0.609383299946785,True,11,1,1,2
Y2-S2-273K18,7,539,PS,exp,45,↓,down,↓,0.7476499998010695,True,10,1,0,2
Y2-S2-273K18,7,540,PS,exp,50,←,left,←,0.5380584001541138,True,10,1,0,2
Y2-S2-273K18,7,541,PS,exp,38,↑,left,←,0.750464600045234,False,10,-1,1,3
Y2-S2-273K18,7,542,PS,exp,41,←,left,←,0.5954179000109434,True,11,-1,0,3
Y2-S2-273K18,7,543,PS,exp,50,↓,down,↓,0.6048241998068988,True,11,-1,0,3
Y2-S2-273K18,7,544,PS,exp,40,↑,left,←,0.5259962999261916,False,11,-1,0,3
Y2-S2-273K18,7,545,PS,exp,44,↓,down,↓,0.5272285998798907,True,12,-1,0,3
Y2-S2-273K18,7,546,PS,exp,39,←,left,←,0.5523435999639332,True,12,-1,0,3
Y2-S2-273K18,7,547,PS,exp,34,→,right,→,0.5602804999798536,True,12,1,1,4
Y2-S2-273K18,7,548,PS,exp,26,↓,down,↓,0.6074067996814847,True,11,1,0,4
Y2-S2-273K18,7,549,PS,exp,45,→,right,→,0.4552238998003304,True,11,1,0,4
Y2-S2-273K18,7,550,PS,exp,49,↑,up,↑,0.5673898002132773,True,11,1,0,4
Y2-S2-273K18,7,551,PS,exp,44,↓,down,↓,0.558884599711746,True,10,1,0,4
Y2-S2-273K18,7,552,PS,exp,46,↑,up,↑,0.7070776000618935,True,10,1,0,4
Y2-S2-273K18,7,553,PS,exp,37,→,right,→,0.5536555997096002,True,10,1,0,4
Y2-S2-273K18,7,554,PS,exp,46,↓,down,↓,0.5955138998106122,True,9,1,0,4
Y2-S2-273K18,7,555,PS,exp,28,←,no_key,no_letter,-1.0,False,9,-1,1,5
Y2-S2-273K18,7,556,PS,exp,28,↓,down,↓,0.537886600010097,True,10,-1,0,5
Y2-S2-273K18,7,557,PS,exp,27,↑,down,↓,1.5360864996910095,False,10,-1,0,5
Y2-S2-273K18,7,558,PS,exp,45,→,right,→,0.5165074998512864,True,11,-1,0,5
Y2-S2-273K18,7,559,PS,exp,43,↑,up,↑,0.4882233999669552,True,11,-1,0,5
Y2-S2-273K18,7,560,PS,exp,28,←,left,←,0.5300084999762475,True,11,1,1,6
Y2-S2-273K18,7,561,PS,exp,38,→,right,→,0.5097839999943972,True,10,1,0,6
Y2-S2-273K18,7,562,PS,exp,45,←,left,←,0.714351000264287,True,10,1,0,6
Y2-S2-273K18,7,563,PS,exp,50,↓,down,↓,0.5598118999041617,True,10,1,0,6
Y2-S2-273K18,7,564,PS,exp,30,↑,down,↓,0.5495028998702765,False,9,-1,1,7
Y2-S2-273K18,7,565,PS,exp,44,↓,down,↓,0.7108537000603974,True,10,-1,0,7
Y2-S2-273K18,7,566,PS,exp,46,←,left,←,0.6482605999335647,True,10,-1,0,7
Y2-S2-273K18,7,567,PS,exp,35,→,right,→,1.0567941996268928,True,10,1,1,8
Y2-S2-273K18,7,568,PS,exp,44,↑,no_key,no_letter,-1.0,False,9,-1,1,9
Y2-S2-273K18,7,569,PS,exp,36,↓,down,↓,0.5545883998274803,True,10,-1,0,9
Y2-S2-273K18,7,570,PS,exp,41,←,left,←,0.5419443999417126,True,10,-1,0,9
Y2-S2-273K18,7,571,PS,exp,48,↓,no_key,no_letter,-1.0,False,10,-1,0,9
Y2-S2-273K18,7,572,PS,exp,44,←,no_key,no_letter,-1.0,False,11,-1,0,9
Y2-S2-273K18,7,573,PS,exp,50,↑,up,↑,0.5043506999500096,True,12,-1,0,9
Y2-S2-273K18,7,574,PS,exp,29,←,left,←,0.5147016001865268,True,12,-1,0,9
Y2-S2-273K18,7,575,PS,exp,30,↑,up,↑,0.43490639980882406,True,12,1,1,10
Y2-S2-273K18,7,576,PS,exp,48,←,left,←,0.42448969976976514,True,11,1,0,10
Y2-S2-273K18,7,577,PS,exp,43,↑,up,↑,0.5442130998708308,True,11,1,0,10
Y2-S2-273K18,7,578,PS,exp,45,←,left,←,0.5147734000347555,True,11,1,0,10
Y2-S2-273K18,7,579,PS,exp,37,↓,down,↓,0.6329283001832664,True,10,1,0,10
Y2-S2-273K18,7,580,PS,exp,30,→,down,↓,1.264815399888903,False,10,-1,1,11
Y2-S2-273K18,7,581,PS,exp,40,↓,no_key,no_letter,-1.0,False,11,-1,0,11
Y2-S2-273K18,7,582,PS,exp,48,↑,up,↑,0.5415353998541832,True,12,-1,0,11
Y2-S2-273K18,7,583,PS,exp,26,←,no_key,no_letter,-1.0,False,12,-1,0,11
Y2-S2-273K18,7,584,PS,exp,45,↓,left,←,0.7868429003283381,False,13,-1,0,11
Y2-S2-273K18,7,585,PS,exp,31,→,right,→,0.9980810000561178,True,14,-1,0,11
Y2-S2-273K18,7,586,PS,exp,40,↓,no_key,no_letter,-1.0,False,14,-1,0,11
Y2-S2-273K18,7,587,PS,exp,44,↑,up,↑,0.5512395999394357,True,15,-1,0,11
Y2-S2-273K18,7,588,PS,exp,27,→,right,→,0.5997951002791524,True,15,-1,0,11
Y2-S2-273K18,7,589,PS,exp,47,↑,up,↑,0.5143190999515355,True,15,1,1,12
Y2-S2-273K18,7,590,PS,exp,38,←,left,←,0.559144000057131,True,14,1,0,12
Y2-S2-273K18,7,591,PS,exp,38,→,left,←,0.7282626000232995,False,14,-1,1,13
Y2-S2-273K18,7,592,PS,exp,39,↑,up,↑,0.6438166000880301,True,15,-1,0,13
Y2-S2-273K18,7,593,PS,exp,39,→,right,→,0.5292567000724375,True,15,-1,0,13
Y2-S2-273K18,7,594,PS,exp,34,↑,up,↑,0.5111445998772979,True,15,1,1,14
Y2-S2-273K18,7,595,PS,exp,40,↓,down,↓,0.6639609998092055,True,14,1,0,14
Y2-S2-273K18,7,596,PS,exp,49,↑,up,↑,0.670762799680233,True,14,1,0,14
Y2-S2-273K18,7,597,PS,exp,27,↓,down,↓,0.6202219002880156,True,14,1,0,14
Y2-S2-273K18,7,598,PS,exp,31,↑,down,↓,0.7905107997357845,False,13,-1,1,15
Y2-S2-273K18,7,599,PS,exp,38,↓,down,↓,0.5499847996979952,True,14,-1,0,15
Y2-S2-273K18,7,600,PS,exp,33,↑,up,↑,0.5754302996210754,True,14,-1,0,15
Y2-S2-273K18,7,601,PS,exp,32,→,right,→,0.5363162001594901,True,14,1,1,16
Y2-S2-273K18,8,602,AS,intra_train,34,←,left,←,0.6240566000342369,True,22,-,-,-
Y2-S2-273K18,8,603,AS,intra_train,27,→,right,→,0.5787623999640346,True,22,-,-,-
Y2-S2-273K18,8,604,AS,intra_train,42,↑,up,↑,0.8450733995996416,True,22,-,-,-
Y2-S2-273K18,8,605,AS,intra_train,34,←,left,←,0.8253017999231815,True,22,-,-,-
Y2-S2-273K18,8,606,AS,intra_train,28,↓,down,↓,0.8773680003359914,True,22,-,-,-
Y2-S2-273K18,8,607,AS,exp,32,←,left,←,0.5416346997953951,True,15,0,0,0
Y2-S2-273K18,8,608,AS,exp,31,↑,up,↑,0.5168637996539474,True,15,0,0,0
Y2-S2-273K18,8,609,AS,exp,34,→,right,→,0.5990523998625576,True,15,1,0,0
Y2-S2-273K18,8,610,AS,exp,30,↓,down,↓,0.751006499864161,True,14,1,0,0
Y2-S2-273K18,8,611,AS,exp,27,→,left,←,0.8661182997748256,False,14,-1,1,1
Y2-S2-273K18,8,612,AS,exp,44,↑,up,↑,0.5320029999129474,True,15,-1,0,1
Y2-S2-273K18,8,613,AS,exp,31,←,no_key,no_letter,-1.0,False,15,-1,0,1
Y2-S2-273K18,8,614,AS,exp,50,→,right,→,0.5692539000883698,True,16,-1,0,1
Y2-S2-273K18,8,615,AS,exp,49,←,left,←,0.5819374998100102,True,16,-1,0,1
Y2-S2-273K18,8,616,AS,exp,30,↑,up,↑,0.7433796003460884,True,16,1,1,2
Y2-S2-273K18,8,617,AS,exp,30,↓,down,↓,0.6696146000176668,True,15,1,0,2
Y2-S2-273K18,8,618,AS,exp,40,↑,up,↑,0.6268798997625709,True,15,1,0,2
Y2-S2-273K18,8,619,AS,exp,27,→,left,←,0.7641030000522733,False,15,-1,1,3
Y2-S2-273K18,8,620,AS,exp,28,↑,up,↑,0.7293451000005007,True,16,-1,0,3
Y2-S2-273K18,8,621,AS,exp,43,↓,down,↓,0.5926870000548661,True,16,-1,0,3
Y2-S2-273K18,8,622,AS,exp,43,←,left,←,0.5694754999130964,True,16,1,1,4
Y2-S2-273K18,8,623,AS,exp,48,→,right,→,0.6413969998247921,True,15,1,0,4
Y2-S2-273K18,8,624,AS,exp,27,←,left,←,0.7070432002656162,True,15,1,0,4
Y2-S2-273K18,8,625,AS,exp,29,↓,no_key,no_letter,-1.0,False,15,-1,1,5
Y2-S2-273K18,8,626,AS,exp,25,→,right,→,0.5890080998651683,True,16,-1,0,5
Y2-S2-273K18,8,627,AS,exp,43,↓,down,↓,0.6325062001124024,True,16,-1,0,5
Y2-S2-273K18,8,628,AS,exp,40,←,left,←,0.5462098997086287,True,16,1,1,6
Y2-S2-273K18,8,629,AS,exp,29,→,right,→,0.5239721997641027,True,15,1,0,6
Y2-S2-273K18,8,630,AS,exp,43,←,left,←,0.5975116998888552,True,15,1,0,6
Y2-S2-273K18,8,631,AS,exp,50,→,no_key,no_letter,-1.0,False,15,-1,1,7
Y2-S2-273K18,8,632,AS,exp,34,←,no_key,no_letter,-1.0,False,16,-1,0,7
Y2-S2-273K18,8,633,AS,exp,27,↑,up,↑,0.6013706000521779,True,17,-1,0,7
Y2-S2-273K18,8,634,AS,exp,40,←,left,←,0.5774292000569403,True,17,-1,0,7
Y2-S2-273K18,8,635,AS,exp,27,↓,down,↓,0.946038800291717,True,17,1,1,8
Y2-S2-273K18,8,636,AS,exp,38,←,no_key,no_letter,-1.0,False,16,-1,1,9
Y2-S2-273K18,8,637,AS,exp,29,→,right,→,0.5756939998827875,True,17,-1,0,9
Y2-S2-273K18,8,638,AS,exp,44,↑,no_key,no_letter,-1.0,False,17,-1,0,9
Y2-S2-273K18,8,639,AS,exp,29,→,right,→,0.8497150000184774,True,18,-1,0,9
Y2-S2-273K18,8,640,AS,exp,45,↑,up,↑,0.5750763998366892,True,18,-1,0,9
Y2-S2-273K18,8,641,AS,exp,28,↓,down,↓,0.834770199842751,True,18,1,1,10
Y2-S2-273K18,8,642,AS,exp,37,←,left,←,0.7139594000764191,True,17,1,0,10
Y2-S2-273K18,8,643,AS,exp,41,→,right,→,0.5988035001792014,True,17,1,0,10
Y2-S2-273K18,8,644,AS,exp,32,↓,down,↓,0.6841420996934175,True,17,1,0,10
Y2-S2-273K18,8,645,AS,exp,46,←,no_key,no_letter,-1.0,False,16,-1,1,11
Y2-S2-273K18,8,646,AS,exp,42,↑,up,↑,0.5253338003531098,True,17,-1,0,11
Y2-S2-273K18,8,647,AS,exp,25,→,right,→,0.5493497001007199,True,17,-1,0,11
Y2-S2-273K18,8,648,AS,exp,50,↓,down,↓,0.7798836999572814,True,17,1,1,12
Y2-S2-273K18,8,649,AS,exp,32,←,left,←,0.5670680999755859,True,16,1,0,12
Y2-S2-273K18,8,650,AS,exp,31,↑,up,↑,0.7996109002269804,True,16,1,0,12
Y2-S2-273K18,8,651,AS,exp,37,→,no_key,no_letter,-1.0,False,16,-1,1,13
Y2-S2-273K18,8,652,AS,exp,25,↑,up,↑,0.5377755998633802,True,17,-1,0,13
Y2-S2-273K18,8,653,AS,exp,39,→,right,→,0.580044699832797,True,17,-1,0,13
Y2-S2-273K18,8,654,AS,exp,49,↑,up,↑,0.5302916998043656,True,17,1,1,14
Y2-S2-273K18,8,655,AS,exp,37,↓,down,↓,0.7755468999966979,True,16,1,0,14
Y2-S2-273K18,8,656,AS,exp,47,←,right,→,0.5863268999382854,False,16,-1,1,15
Y2-S2-273K18,8,657,AS,exp,43,↑,up,↑,0.59471770003438,True,17,-1,0,15
Y2-S2-273K18,8,658,AS,exp,33,↓,down,↓,0.6993065997958183,True,17,-1,0,15
Y2-S2-273K18,8,659,AS,exp,35,→,no_key,no_letter,-1.0,False,17,-1,0,15
Y2-S2-273K18,8,660,AS,exp,43,↓,no_key,no_letter,-1.0,False,18,-1,0,15
Y2-S2-273K18,8,661,AS,exp,25,←,left,←,0.5625457996502519,True,19,-1,0,15
Y2-S2-273K18,8,662,AS,exp,49,↑,down,↓,0.8699004999361932,False,19,-1,0,15
Y2-S2-273K18,8,663,AS,exp,45,←,left,←,0.6720758997835219,True,20,-1,0,15
Y2-S2-273K18,8,664,AS,exp,28,↑,up,↑,0.9533179001882672,True,20,-1,0,15
Y2-S2-273K18,8,665,AS,exp,28,↓,down,↓,0.5555169000290334,True,20,1,1,16
