PART_ID,Block_no,Trial_no,Block_type,Trial_type,CSI,Stim_letter,Key_pressed,letter_choose,Rt,Corr,Stimulus Time,Level,Reversal,Revs_count
Y2-S2-019K19,1,1,PS,train,39,↑,up,↑,0.6732524000108242,True,30,-,-,-
Y2-S2-019K19,1,2,PS,train,41,↓,down,↓,0.8292838999768719,True,30,-,-,-
Y2-S2-019K19,1,3,PS,train,25,→,right,→,0.7308751000091434,True,30,-,-,-
Y2-S2-019K19,1,4,PS,train,37,↓,down,↓,0.8771167999366298,True,30,-,-,-
Y2-S2-019K19,1,5,PS,train,29,→,right,→,0.9795215999474749,True,30,-,-,-
Y2-S2-019K19,1,6,PS,train,33,↓,down,↓,1.0027467999607325,True,30,-,-,-
Y2-S2-019K19,1,7,PS,train,29,←,left,←,1.0177141000749543,True,30,-,-,-
Y2-S2-019K19,1,8,PS,train,35,↑,up,↑,0.8260620000073686,True,30,-,-,-
Y2-S2-019K19,1,9,PS,train,31,←,left,←,1.0588649000274017,True,30,-,-,-
Y2-S2-019K19,1,10,PS,train,28,→,right,→,0.9607594000408426,True,30,-,-,-
Y2-S2-019K19,2,11,AS,train,49,↓,down,↓,0.8841338000493124,True,45,-,-,-
Y2-S2-019K19,2,12,AS,train,38,↑,up,↑,1.3861030999105424,True,45,-,-,-
Y2-S2-019K19,2,13,AS,train,28,←,left,←,0.9719621000112966,True,45,-,-,-
Y2-S2-019K19,2,14,AS,train,32,↓,no_key,no_letter,-1.0,False,45,-,-,-
Y2-S2-019K19,2,15,AS,train,50,→,right,→,0.8174785999581218,True,45,-,-,-
Y2-S2-019K19,2,16,AS,train,37,←,left,←,0.8342257000040263,True,45,-,-,-
Y2-S2-019K19,2,17,AS,train,28,→,right,→,0.8506580999819562,True,45,-,-,-
Y2-S2-019K19,2,18,AS,train,36,↓,down,↓,0.7508149000350386,True,45,-,-,-
Y2-S2-019K19,2,19,AS,train,42,↑,up,↑,1.110731799970381,True,45,-,-,-
Y2-S2-019K19,2,20,AS,train,46,→,no_key,no_letter,-1.0,False,45,-,-,-
Y2-S2-019K19,-,21,PS,adaptive,39,←,left,←,0.7254056999227032,True,10,0,0,0
Y2-S2-019K19,-,22,PS,adaptive,45,→,right,→,0.9881041999906301,True,10,0,0,0
Y2-S2-019K19,-,23,PS,adaptive,49,←,right,→,1.246162600000389,False,10,-1,0,0
Y2-S2-019K19,-,24,PS,adaptive,36,↑,up,↑,0.8931099000619724,True,11,-1,0,0
Y2-S2-019K19,-,25,PS,adaptive,36,↓,right,→,1.2394617000827566,False,11,-1,0,0
Y2-S2-019K19,-,26,PS,adaptive,44,←,left,←,0.7527357999933884,True,12,-1,0,0
Y2-S2-019K19,-,27,PS,adaptive,44,↓,down,↓,0.9716763999313116,True,12,-1,0,0
Y2-S2-019K19,-,28,PS,adaptive,31,←,left,←,0.8264427999965847,True,12,1,1,1
Y2-S2-019K19,-,29,PS,adaptive,33,↓,down,↓,0.8911945000290871,True,11,1,0,1
Y2-S2-019K19,-,30,PS,adaptive,49,←,left,←,0.72276110004168,True,11,1,0,1
Y2-S2-019K19,-,31,PS,adaptive,47,↑,up,↑,1.0027660001069307,True,11,1,0,1
Y2-S2-019K19,-,32,PS,adaptive,32,↓,down,↓,0.6815329000819474,True,10,1,0,1
Y2-S2-019K19,-,33,PS,adaptive,36,←,left,←,0.7479490999830887,True,10,1,0,1
Y2-S2-019K19,-,34,PS,adaptive,38,↑,up,↑,0.7079380999784917,True,10,1,0,1
Y2-S2-019K19,-,35,PS,adaptive,33,→,right,→,0.6733148000203073,True,9,1,0,1
Y2-S2-019K19,-,36,PS,adaptive,45,←,left,←,0.6519196999724954,True,9,1,0,1
Y2-S2-019K19,-,37,PS,adaptive,50,→,right,→,0.6041949999053031,True,9,1,0,1
Y2-S2-019K19,-,38,PS,adaptive,40,↓,down,↓,0.8319729999639094,True,8,1,0,1
Y2-S2-019K19,-,39,PS,adaptive,35,↑,up,↑,0.9873645999468863,True,8,1,0,1
Y2-S2-019K19,-,40,PS,adaptive,36,↓,down,↓,1.363976399996318,True,8,1,0,1
Y2-S2-019K19,-,41,PS,adaptive,42,→,right,→,0.7714343999978155,True,7,1,0,1
Y2-S2-019K19,-,42,PS,adaptive,29,↓,up,↑,1.2305844000075012,False,7,-1,1,2
Y2-S2-019K19,-,43,PS,adaptive,34,←,up,↑,1.2838449999690056,False,8,-1,0,2
Y2-S2-019K19,-,44,PS,adaptive,34,↑,up,↑,1.197310500079766,True,9,-1,0,2
Y2-S2-019K19,-,45,PS,adaptive,33,↓,up,↑,1.1878450999502093,False,9,-1,0,2
Y2-S2-019K19,-,46,PS,adaptive,37,→,right,→,0.7616817000089213,True,10,-1,0,2
Y2-S2-019K19,-,47,PS,adaptive,49,↓,down,↓,1.1915857000276446,True,10,-1,0,2
Y2-S2-019K19,-,48,PS,adaptive,36,↑,up,↑,0.9495267000747845,True,10,1,1,3
Y2-S2-019K19,-,49,PS,adaptive,50,↓,up,↑,1.0305010000010952,False,9,-1,1,4
Y2-S2-019K19,-,50,AS,adaptive,27,↑,up,↑,1.066760600078851,True,20,0,0,0
Y2-S2-019K19,-,51,AS,adaptive,44,←,left,←,0.8862825999967754,True,20,0,0,0
Y2-S2-019K19,-,52,AS,adaptive,28,→,right,→,0.8164473000215366,True,20,1,0,0
Y2-S2-019K19,-,53,AS,adaptive,28,↓,down,↓,0.8095842000329867,True,19,1,0,0
Y2-S2-019K19,-,54,AS,adaptive,43,←,left,←,0.9068164000054821,True,19,1,0,0
Y2-S2-019K19,-,55,AS,adaptive,48,→,right,→,0.8025461999932304,True,19,1,0,0
Y2-S2-019K19,-,56,AS,adaptive,50,↓,down,↓,0.7796901999972761,True,18,1,0,0
Y2-S2-019K19,-,57,AS,adaptive,49,←,left,←,0.9187439999077469,True,18,1,0,0
Y2-S2-019K19,-,58,AS,adaptive,49,↓,down,↓,0.8354840000392869,True,18,1,0,0
Y2-S2-019K19,-,59,AS,adaptive,27,↑,down,↓,1.417533200001344,False,17,-1,1,1
Y2-S2-019K19,-,60,AS,adaptive,47,→,right,→,0.7130950000137091,True,18,-1,0,1
Y2-S2-019K19,-,61,AS,adaptive,44,←,up,↑,1.2484863999998197,False,18,-1,0,1
Y2-S2-019K19,-,62,AS,adaptive,50,↑,up,↑,1.409986799932085,True,19,-1,0,1
Y2-S2-019K19,-,63,AS,adaptive,44,↓,down,↓,1.2812512000091374,True,19,-1,0,1
Y2-S2-019K19,-,64,AS,adaptive,28,↑,up,↑,1.001302200020291,True,19,1,1,2
Y2-S2-019K19,-,65,AS,adaptive,42,←,left,←,0.8069976000115275,True,18,1,0,2
Y2-S2-019K19,-,66,AS,adaptive,43,→,left,←,0.9793079999508336,False,18,-1,1,3
Y2-S2-019K19,-,67,AS,adaptive,40,↑,up,↑,0.8599898000247777,True,19,-1,0,3
Y2-S2-019K19,-,68,AS,adaptive,42,↓,up,↑,0.8898220000555739,False,19,-1,0,3
Y2-S2-019K19,-,69,AS,adaptive,30,→,right,→,0.6824063000967726,True,20,-1,0,3
Y2-S2-019K19,-,70,AS,adaptive,30,↑,up,↑,0.7767329999478534,True,20,-1,0,3
Y2-S2-019K19,-,71,AS,adaptive,34,←,left,←,0.736178099992685,True,20,1,1,4
Y2-S2-019K19,1,72,PS,intra_train,29,↓,down,↓,0.8185586000327021,True,15,-,-,-
Y2-S2-019K19,1,73,PS,intra_train,49,→,right,→,0.6686756999697536,True,15,-,-,-
Y2-S2-019K19,1,74,PS,intra_train,49,↑,up,↑,1.1265904000028968,True,15,-,-,-
Y2-S2-019K19,1,75,PS,intra_train,43,↓,right,→,0.9694831999950111,False,15,-,-,-
Y2-S2-019K19,1,76,PS,intra_train,49,↑,up,↑,0.7871450999518856,True,15,-,-,-
Y2-S2-019K19,1,77,PS,exp,43,→,left,←,0.9218099999707192,False,10,-1,0,0
Y2-S2-019K19,1,78,PS,exp,38,↓,up,↑,0.9405349999433383,False,11,-1,0,0
Y2-S2-019K19,1,79,PS,exp,45,→,right,→,0.7216302999295294,True,12,-1,0,0
Y2-S2-019K19,1,80,PS,exp,29,↓,up,↑,0.9388782000169158,False,12,-1,0,0
Y2-S2-019K19,1,81,PS,exp,41,←,left,←,0.7540774000808597,True,13,-1,0,0
Y2-S2-019K19,1,82,PS,exp,37,↑,right,→,0.8308539999416098,False,13,-1,0,0
Y2-S2-019K19,1,83,PS,exp,41,←,left,←,0.7870809000451118,True,14,-1,0,0
Y2-S2-019K19,1,84,PS,exp,30,↑,up,↑,0.942637600004673,True,14,-1,0,0
Y2-S2-019K19,1,85,PS,exp,26,↓,down,↓,0.8268702999921516,True,14,1,1,1
Y2-S2-019K19,1,86,PS,exp,27,→,right,→,0.7623886000365019,True,13,1,0,1
Y2-S2-019K19,1,87,PS,exp,29,←,left,←,0.7406841000774875,True,13,1,0,1
Y2-S2-019K19,1,88,PS,exp,36,↓,down,↓,0.8595579999964684,True,13,1,0,1
Y2-S2-019K19,1,89,PS,exp,33,←,down,↓,1.2808605999452993,False,12,-1,1,2
Y2-S2-019K19,1,90,PS,exp,45,↑,up,↑,0.7176776999840513,True,13,-1,0,2
Y2-S2-019K19,1,91,PS,exp,33,↓,up,↑,0.8387721000472084,False,13,-1,0,2
Y2-S2-019K19,1,92,PS,exp,26,→,right,→,0.9664468999253586,True,14,-1,0,2
Y2-S2-019K19,1,93,PS,exp,41,↓,down,↓,0.8059543999843299,True,14,-1,0,2
Y2-S2-019K19,1,94,PS,exp,36,→,right,→,0.7264575000153854,True,14,1,1,3
Y2-S2-019K19,1,95,PS,exp,44,←,left,←,0.8872999999439344,True,13,1,0,3
Y2-S2-019K19,1,96,PS,exp,32,→,right,→,0.7406681999564171,True,13,1,0,3
Y2-S2-019K19,1,97,PS,exp,26,↓,down,↓,0.7673788999672979,True,13,1,0,3
Y2-S2-019K19,1,98,PS,exp,32,→,right,→,0.649113200022839,True,12,1,0,3
Y2-S2-019K19,1,99,PS,exp,33,↑,up,↑,0.7015557000413537,True,12,1,0,3
Y2-S2-019K19,1,100,PS,exp,25,→,right,→,0.7723289999412373,True,12,1,0,3
Y2-S2-019K19,1,101,PS,exp,39,←,left,←,0.8178377000149339,True,11,1,0,3
Y2-S2-019K19,1,102,PS,exp,50,→,right,→,0.6068642999744043,True,11,1,0,3
Y2-S2-019K19,1,103,PS,exp,36,←,left,←,0.7331074000103399,True,11,1,0,3
Y2-S2-019K19,1,104,PS,exp,43,→,right,→,0.8491563000716269,True,10,1,0,3
Y2-S2-019K19,1,105,PS,exp,28,↑,up,↑,1.049843700020574,True,10,1,0,3
Y2-S2-019K19,1,106,PS,exp,25,←,left,←,0.7410456000361592,True,10,1,0,3
Y2-S2-019K19,1,107,PS,exp,38,→,right,→,0.5766916000284255,True,9,1,0,3
Y2-S2-019K19,1,108,PS,exp,28,↓,down,↓,0.9392411999870092,True,9,1,0,3
Y2-S2-019K19,1,109,PS,exp,34,→,right,→,1.0630974000087008,True,9,1,0,3
Y2-S2-019K19,1,110,PS,exp,32,←,right,→,0.834324200055562,False,8,-1,1,4
Y2-S2-019K19,1,111,PS,exp,41,↑,up,↑,0.7654273000080138,True,9,-1,0,4
Y2-S2-019K19,1,112,PS,exp,45,→,right,→,0.6125827999785542,True,9,-1,0,4
Y2-S2-019K19,1,113,PS,exp,47,←,left,←,0.7711110999807715,True,9,1,1,5
Y2-S2-019K19,1,114,PS,exp,50,↓,down,↓,1.0461178999394178,True,8,1,0,5
Y2-S2-019K19,1,115,PS,exp,50,←,left,←,0.9787501000100747,True,8,1,0,5
Y2-S2-019K19,1,116,PS,exp,32,↓,down,↓,0.8575458000414073,True,8,1,0,5
Y2-S2-019K19,1,117,PS,exp,48,←,down,↓,0.9650018999818712,False,7,-1,1,6
Y2-S2-019K19,1,118,PS,exp,40,→,left,←,0.683781799976714,False,8,-1,0,6
Y2-S2-019K19,1,119,PS,exp,33,↓,down,↓,0.787032000022009,True,9,-1,0,6
Y2-S2-019K19,1,120,PS,exp,29,←,left,←,1.3639942000154406,True,9,-1,0,6
Y2-S2-019K19,1,121,PS,exp,46,→,right,→,0.6948578000301495,True,9,1,1,7
Y2-S2-019K19,1,122,PS,exp,25,↓,down,↓,0.8736082999967039,True,8,1,0,7
Y2-S2-019K19,1,123,PS,exp,45,→,right,→,0.6215372999431565,True,8,1,0,7
Y2-S2-019K19,1,124,PS,exp,29,↑,right,→,0.8586896000197157,False,8,-1,1,8
Y2-S2-019K19,1,125,PS,exp,42,→,right,→,0.7131503999698907,True,9,-1,0,8
Y2-S2-019K19,1,126,PS,exp,26,←,left,←,0.6762337000109255,True,9,-1,0,8
Y2-S2-019K19,1,127,PS,exp,28,↑,up,↑,0.8641848999541253,True,9,1,1,9
Y2-S2-019K19,1,128,PS,exp,27,↓,down,↓,0.698511999915354,True,8,1,0,9
Y2-S2-019K19,1,129,PS,exp,33,→,right,→,0.5920573000330478,True,8,1,0,9
Y2-S2-019K19,1,130,PS,exp,35,↑,up,↑,0.7733153000008315,True,8,1,0,9
Y2-S2-019K19,1,131,PS,exp,37,←,up,↑,1.1228438999969512,False,7,-1,1,10
Y2-S2-019K19,1,132,PS,exp,27,↓,down,↓,0.664398799999617,True,8,-1,0,10
Y2-S2-019K19,1,133,PS,exp,36,↑,up,↑,0.8109093999955803,True,8,-1,0,10
Y2-S2-019K19,1,134,PS,exp,46,←,up,↑,0.920908100088127,False,8,-1,0,10
Y2-S2-019K19,1,135,PS,exp,49,↑,up,↑,0.8495649000396952,True,9,-1,0,10
Y2-S2-019K19,1,136,PS,exp,44,↓,right,→,0.9161528000840917,False,9,-1,0,10
Y2-S2-019K19,1,137,PS,exp,33,→,right,→,0.7008428999688476,True,10,-1,0,10
Y2-S2-019K19,1,138,PS,exp,37,↓,down,↓,0.7792604999849573,True,10,-1,0,10
Y2-S2-019K19,1,139,PS,exp,40,↑,up,↑,0.7867688999976963,True,10,1,1,11
Y2-S2-019K19,1,140,PS,exp,41,→,up,↑,0.7266348000848666,False,9,-1,1,12
Y2-S2-019K19,1,141,PS,exp,42,←,up,↑,1.0096789000090212,False,10,-1,0,12
Y2-S2-019K19,1,142,PS,exp,49,↑,up,↑,0.7700335000408813,True,11,-1,0,12
Y2-S2-019K19,1,143,PS,exp,50,←,left,←,0.7547925999388099,True,11,-1,0,12
Y2-S2-019K19,1,144,PS,exp,25,↓,down,↓,0.7820482000242919,True,11,1,1,13
Y2-S2-019K19,1,145,PS,exp,31,←,left,←,0.7185625999700278,True,10,1,0,13
Y2-S2-019K19,1,146,PS,exp,34,→,right,→,0.7213179999962449,True,10,1,0,13
Y2-S2-019K19,1,147,PS,exp,26,↑,up,↑,0.8504889000905678,True,10,1,0,13
Y2-S2-019K19,1,148,PS,exp,35,→,up,↑,0.8429071999853477,False,9,-1,1,14
Y2-S2-019K19,1,149,PS,exp,27,←,left,←,0.6942843999713659,True,10,-1,0,14
Y2-S2-019K19,1,150,PS,exp,35,↑,up,↑,1.0460516000166535,True,10,-1,0,14
Y2-S2-019K19,1,151,PS,exp,41,→,right,→,0.6493265000171959,True,10,1,1,15
Y2-S2-019K19,1,152,PS,exp,37,←,left,←,1.0302875000052154,True,9,1,0,15
Y2-S2-019K19,1,153,PS,exp,44,→,left,←,0.7714226000243798,False,9,-1,1,16
Y2-S2-019K19,2,154,AS,intra_train,38,↑,up,↑,0.8582636000355706,True,28,-,-,-
Y2-S2-019K19,2,155,AS,intra_train,45,↓,down,↓,1.084895700099878,True,28,-,-,-
Y2-S2-019K19,2,156,AS,intra_train,28,←,left,←,0.7834880000445992,True,28,-,-,-
Y2-S2-019K19,2,157,AS,intra_train,39,↓,down,↓,0.812523299944587,True,28,-,-,-
Y2-S2-019K19,2,158,AS,intra_train,30,←,left,←,0.6863972999854013,True,28,-,-,-
Y2-S2-019K19,2,159,AS,exp,48,↑,up,↑,0.7431155999656767,True,19,0,0,0
Y2-S2-019K19,2,160,AS,exp,25,→,right,→,0.8096520999679342,True,19,0,0,0
Y2-S2-019K19,2,161,AS,exp,30,↓,down,↓,0.9369033999973908,True,19,1,0,0
Y2-S2-019K19,2,162,AS,exp,46,←,up,↑,1.017731299973093,False,18,-1,1,1
Y2-S2-019K19,2,163,AS,exp,29,↓,down,↓,0.838503299979493,True,19,-1,0,1
Y2-S2-019K19,2,164,AS,exp,25,→,right,→,0.7441299998899922,True,19,-1,0,1
Y2-S2-019K19,2,165,AS,exp,44,↓,down,↓,0.9762849999824539,True,19,1,1,2
Y2-S2-019K19,2,166,AS,exp,37,←,left,←,0.7910268000559881,True,18,1,0,2
Y2-S2-019K19,2,167,AS,exp,50,↑,down,↓,1.183494900004007,False,18,-1,1,3
Y2-S2-019K19,2,168,AS,exp,35,→,right,→,0.7674179999157786,True,19,-1,0,3
Y2-S2-019K19,2,169,AS,exp,39,←,left,←,0.9802006999962032,True,19,-1,0,3
Y2-S2-019K19,2,170,AS,exp,49,↑,up,↑,0.9603245999896899,True,19,1,1,4
Y2-S2-019K19,2,171,AS,exp,29,→,right,→,0.7746140999952331,True,18,1,0,4
Y2-S2-019K19,2,172,AS,exp,38,↓,down,↓,1.0286814999999478,True,18,1,0,4
Y2-S2-019K19,2,173,AS,exp,32,↑,up,↑,0.9465089999139309,True,18,1,0,4
Y2-S2-019K19,2,174,AS,exp,35,←,left,←,0.8904366000788286,True,17,1,0,4
Y2-S2-019K19,2,175,AS,exp,45,↑,up,↑,0.9156692000105977,True,17,1,0,4
Y2-S2-019K19,2,176,AS,exp,50,→,right,→,0.6745476999785751,True,17,1,0,4
Y2-S2-019K19,2,177,AS,exp,39,↓,down,↓,0.8289597999537364,True,16,1,0,4
Y2-S2-019K19,2,178,AS,exp,41,←,left,←,0.8129171000327915,True,16,1,0,4
Y2-S2-019K19,2,179,AS,exp,28,↓,down,↓,1.047025200095959,True,16,1,0,4
Y2-S2-019K19,2,180,AS,exp,38,←,left,←,0.8903997000306845,True,15,1,0,4
Y2-S2-019K19,2,181,AS,exp,29,↓,down,↓,0.8453111000126228,True,15,1,0,4
Y2-S2-019K19,2,182,AS,exp,32,↑,up,↑,0.8457276999251917,True,15,1,0,4
Y2-S2-019K19,2,183,AS,exp,25,↓,up,↑,0.9261794000631198,False,14,-1,1,5
Y2-S2-019K19,2,184,AS,exp,37,←,left,←,0.8367835000390187,True,15,-1,0,5
Y2-S2-019K19,2,185,AS,exp,46,→,left,←,1.0592275999952108,False,15,-1,0,5
Y2-S2-019K19,2,186,AS,exp,36,←,left,←,0.9007660000352189,True,16,-1,0,5
Y2-S2-019K19,2,187,AS,exp,33,→,right,→,0.7581960000097752,True,16,-1,0,5
Y2-S2-019K19,2,188,AS,exp,44,←,left,←,0.7456339000491425,True,16,1,1,6
Y2-S2-019K19,2,189,AS,exp,26,↑,up,↑,0.8566226999973878,True,15,1,0,6
Y2-S2-019K19,2,190,AS,exp,42,←,left,←,0.7594791000010446,True,15,1,0,6
Y2-S2-019K19,2,191,AS,exp,29,↓,down,↓,0.8163807999808341,True,15,1,0,6
Y2-S2-019K19,2,192,AS,exp,26,↑,down,↓,0.993846100056544,False,14,-1,1,7
Y2-S2-019K19,2,193,AS,exp,32,→,right,→,0.6245592999039218,True,15,-1,0,7
Y2-S2-019K19,2,194,AS,exp,25,↓,up,↑,1.3696098000509664,False,15,-1,0,7
Y2-S2-019K19,2,195,AS,exp,33,←,left,←,1.079202799941413,True,16,-1,0,7
Y2-S2-019K19,2,196,AS,exp,45,↓,down,↓,0.8874092000769451,True,16,-1,0,7
Y2-S2-019K19,2,197,AS,exp,47,←,left,←,0.8975448000710458,True,16,1,1,8
Y2-S2-019K19,2,198,AS,exp,39,↓,down,↓,1.28671699995175,True,15,1,0,8
Y2-S2-019K19,2,199,AS,exp,36,→,right,→,0.9832618000218645,True,15,1,0,8
Y2-S2-019K19,2,200,AS,exp,50,↓,down,↓,1.0083635000046343,True,15,1,0,8
Y2-S2-019K19,2,201,AS,exp,39,←,left,←,0.7370275999419391,True,14,1,0,8
Y2-S2-019K19,2,202,AS,exp,30,↑,up,↑,0.8524388000369072,True,14,1,0,8
Y2-S2-019K19,2,203,AS,exp,37,←,right,→,0.76618089992553,False,14,-1,1,9
Y2-S2-019K19,2,204,AS,exp,28,↑,up,↑,0.7062292000046,True,15,-1,0,9
Y2-S2-019K19,2,205,AS,exp,32,→,left,←,0.8130439000669867,False,15,-1,0,9
Y2-S2-019K19,2,206,AS,exp,35,↓,down,↓,0.9164674000348896,True,16,-1,0,9
Y2-S2-019K19,2,207,AS,exp,31,↑,down,↓,0.8091031999792904,False,16,-1,0,9
Y2-S2-019K19,2,208,AS,exp,47,←,left,←,0.7887260999996215,True,17,-1,0,9
Y2-S2-019K19,2,209,AS,exp,35,↓,down,↓,0.9188327000010759,True,17,-1,0,9
Y2-S2-019K19,2,210,AS,exp,34,→,right,→,0.7517205000622198,True,17,1,1,10
Y2-S2-019K19,2,211,AS,exp,42,↓,down,↓,0.9556824999162927,True,16,1,0,10
Y2-S2-019K19,2,212,AS,exp,35,←,left,←,0.8454820999177173,True,16,1,0,10
Y2-S2-019K19,2,213,AS,exp,42,↑,up,↑,0.8954080999828875,True,16,1,0,10
Y2-S2-019K19,2,214,AS,exp,36,↓,down,↓,0.8922000000020489,True,15,1,0,10
Y2-S2-019K19,2,215,AS,exp,25,←,left,←,0.8765247999690473,True,15,1,0,10
Y2-S2-019K19,2,216,AS,exp,46,↓,down,↓,0.8443364999257028,True,15,1,0,10
Y2-S2-019K19,2,217,AS,exp,46,←,left,←,0.7393870999803767,True,14,1,0,10
Y2-S2-019K19,2,218,AS,exp,42,↓,down,↓,0.8521102000959218,True,14,1,0,10
Y2-S2-019K19,2,219,AS,exp,26,←,left,←,0.8573239999823272,True,14,1,0,10
Y2-S2-019K19,2,220,AS,exp,27,→,right,→,0.7570921999868006,True,13,1,0,10
Y2-S2-019K19,2,221,AS,exp,41,↓,down,↓,0.7739747000159696,True,13,1,0,10
Y2-S2-019K19,2,222,AS,exp,35,←,left,←,0.8375510999467224,True,13,1,0,10
Y2-S2-019K19,2,223,AS,exp,38,↑,down,↓,1.0556785000953823,False,12,-1,1,11
Y2-S2-019K19,2,224,AS,exp,47,→,left,←,0.8138211999321356,False,13,-1,0,11
Y2-S2-019K19,2,225,AS,exp,37,↑,up,↑,0.8932870000135154,True,14,-1,0,11
Y2-S2-019K19,2,226,AS,exp,27,←,left,←,0.7658410000149161,True,14,-1,0,11
Y2-S2-019K19,2,227,AS,exp,41,↓,down,↓,1.0473368000239134,True,14,1,1,12
Y2-S2-019K19,2,228,AS,exp,39,→,left,←,0.7863488000584766,False,13,-1,1,13
Y2-S2-019K19,2,229,AS,exp,45,↑,up,↑,0.8663077999372035,True,14,-1,0,13
Y2-S2-019K19,2,230,AS,exp,33,←,right,→,1.287747299997136,False,14,-1,0,13
Y2-S2-019K19,2,231,AS,exp,35,↑,up,↑,0.9213182999519631,True,15,-1,0,13
Y2-S2-019K19,2,232,AS,exp,37,↓,right,→,1.255233999923803,False,15,-1,0,13
Y2-S2-019K19,2,233,AS,exp,41,←,left,←,0.7603396999184042,True,16,-1,0,13
Y2-S2-019K19,2,234,AS,exp,28,↑,up,↑,0.7871095000300556,True,16,-1,0,13
Y2-S2-019K19,2,235,AS,exp,39,→,right,→,0.6783093999838457,True,16,1,1,14
Y2-S2-019K19,2,236,AS,exp,41,↑,up,↑,0.811843300005421,True,15,1,0,14
Y2-S2-019K19,2,237,AS,exp,46,←,left,←,0.7453539000125602,True,15,1,0,14
Y2-S2-019K19,2,238,AS,exp,50,↓,up,↑,0.7916693000588566,False,15,-1,1,15
Y2-S2-019K19,2,239,AS,exp,30,↑,up,↑,0.9765391000546515,True,16,-1,0,15
Y2-S2-019K19,2,240,AS,exp,30,↓,down,↓,0.9224638999439776,True,16,-1,0,15
Y2-S2-019K19,2,241,AS,exp,35,→,right,→,0.9573748999973759,True,16,1,1,16
Y2-S2-019K19,3,242,AS,intra_train,36,↑,up,↑,1.0052432999946177,True,28,-,-,-
Y2-S2-019K19,3,243,AS,intra_train,45,↓,down,↓,1.0301757999695837,True,28,-,-,-
Y2-S2-019K19,3,244,AS,intra_train,36,←,left,←,0.7789860999910161,True,28,-,-,-
Y2-S2-019K19,3,245,AS,intra_train,36,↑,up,↑,1.1398161000106484,True,28,-,-,-
Y2-S2-019K19,3,246,AS,intra_train,25,←,left,←,0.7288763000397012,True,28,-,-,-
Y2-S2-019K19,3,247,AS,exp,29,→,right,→,0.7175765999127179,True,19,0,0,0
Y2-S2-019K19,3,248,AS,exp,49,↓,down,↓,0.9996044998988509,True,19,0,0,0
Y2-S2-019K19,3,249,AS,exp,49,→,right,→,0.7265713999513537,True,19,1,0,0
Y2-S2-019K19,3,250,AS,exp,50,↓,down,↓,0.7527108000358567,True,18,1,0,0
Y2-S2-019K19,3,251,AS,exp,36,↑,up,↑,1.0616187999257818,True,18,1,0,0
Y2-S2-019K19,3,252,AS,exp,29,←,left,←,0.7149156000232324,True,18,1,0,0
Y2-S2-019K19,3,253,AS,exp,49,↑,up,↑,0.844576200004667,True,17,1,0,0
Y2-S2-019K19,3,254,AS,exp,40,↓,down,↓,0.8195074000395834,True,17,1,0,0
Y2-S2-019K19,3,255,AS,exp,43,↑,up,↑,0.8599977000849321,True,17,1,0,0
Y2-S2-019K19,3,256,AS,exp,36,↓,down,↓,1.0674598000478,True,16,1,0,0
Y2-S2-019K19,3,257,AS,exp,30,←,up,↑,1.0548276000190526,False,16,-1,1,1
Y2-S2-019K19,3,258,AS,exp,42,→,right,→,0.6361831000540406,True,17,-1,0,1
Y2-S2-019K19,3,259,AS,exp,31,↓,down,↓,0.8690097000217065,True,17,-1,0,1
Y2-S2-019K19,3,260,AS,exp,44,→,right,→,0.7036309000104666,True,17,1,1,2
Y2-S2-019K19,3,261,AS,exp,47,↓,down,↓,0.858214300009422,True,16,1,0,2
Y2-S2-019K19,3,262,AS,exp,33,↑,up,↑,1.0973838999634609,True,16,1,0,2
Y2-S2-019K19,3,263,AS,exp,36,→,right,→,0.6512280000606552,True,16,1,0,2
Y2-S2-019K19,3,264,AS,exp,41,↑,up,↑,0.7363700000569224,True,15,1,0,2
Y2-S2-019K19,3,265,AS,exp,48,→,right,→,0.7273065000772476,True,15,1,0,2
Y2-S2-019K19,3,266,AS,exp,35,↑,up,↑,0.7261861000442877,True,15,1,0,2
Y2-S2-019K19,3,267,AS,exp,47,→,right,→,0.6836398999439552,True,14,1,0,2
Y2-S2-019K19,3,268,AS,exp,27,↓,up,↑,0.7877514000283554,False,14,-1,1,3
Y2-S2-019K19,3,269,AS,exp,33,↑,up,↑,0.842900300049223,True,15,-1,0,3
Y2-S2-019K19,3,270,AS,exp,27,←,left,←,0.7068367000902072,True,15,-1,0,3
Y2-S2-019K19,3,271,AS,exp,42,→,right,→,0.6648875999962911,True,15,1,1,4
Y2-S2-019K19,3,272,AS,exp,25,↓,down,↓,0.843263000017032,True,14,1,0,4
Y2-S2-019K19,3,273,AS,exp,26,←,right,→,0.6869756999658421,False,14,-1,1,5
Y2-S2-019K19,3,274,AS,exp,44,↑,up,↑,0.8871291999239475,True,15,-1,0,5
Y2-S2-019K19,3,275,AS,exp,41,←,left,←,0.6922010000562295,True,15,-1,0,5
Y2-S2-019K19,3,276,AS,exp,43,→,right,→,0.5209072000579908,True,15,1,1,6
Y2-S2-019K19,3,277,AS,exp,36,↓,down,↓,0.7962665000231937,True,14,1,0,6
Y2-S2-019K19,3,278,AS,exp,35,→,right,→,0.725838000071235,True,14,1,0,6
Y2-S2-019K19,3,279,AS,exp,27,←,right,→,0.8029122999869287,False,14,-1,1,7
Y2-S2-019K19,3,280,AS,exp,30,↓,down,↓,0.918760700034909,True,15,-1,0,7
Y2-S2-019K19,3,281,AS,exp,50,→,right,→,0.7354213999351487,True,15,-1,0,7
Y2-S2-019K19,3,282,AS,exp,33,←,right,→,0.9199644000036642,False,15,-1,0,7
Y2-S2-019K19,3,283,AS,exp,29,→,right,→,0.7287799998885021,True,16,-1,0,7
Y2-S2-019K19,3,284,AS,exp,42,↑,up,↑,0.8618610999546945,True,16,-1,0,7
Y2-S2-019K19,3,285,AS,exp,33,↓,down,↓,0.8452610999811441,True,16,1,1,8
Y2-S2-019K19,3,286,AS,exp,47,→,right,→,0.7063827000092715,True,15,1,0,8
Y2-S2-019K19,3,287,AS,exp,41,↑,up,↑,0.9169822999974713,True,15,1,0,8
Y2-S2-019K19,3,288,AS,exp,29,→,right,→,0.6481335000135005,True,15,1,0,8
Y2-S2-019K19,3,289,AS,exp,50,↑,up,↑,0.7253547000000253,True,14,1,0,8
Y2-S2-019K19,3,290,AS,exp,42,←,left,←,0.6642280999803916,True,14,1,0,8
Y2-S2-019K19,3,291,AS,exp,30,↑,up,↑,0.8000922000501305,True,14,1,0,8
Y2-S2-019K19,3,292,AS,exp,26,↓,up,↑,1.0136363999918103,False,13,-1,1,9
Y2-S2-019K19,3,293,AS,exp,44,↑,up,↑,0.6449206999968737,True,14,-1,0,9
Y2-S2-019K19,3,294,AS,exp,34,→,left,←,0.7325109000084922,False,14,-1,0,9
Y2-S2-019K19,3,295,AS,exp,29,↑,left,←,0.7424101999495178,False,15,-1,0,9
Y2-S2-019K19,3,296,AS,exp,25,↓,up,↑,0.7412386999931186,False,16,-1,0,9
Y2-S2-019K19,3,297,AS,exp,50,←,left,←,0.9753278000280261,True,17,-1,0,9
Y2-S2-019K19,3,298,AS,exp,26,→,right,→,0.8756896000122651,True,17,-1,0,9
Y2-S2-019K19,3,299,AS,exp,33,↓,up,↑,1.1628920999355614,False,17,-1,0,9
Y2-S2-019K19,3,300,AS,exp,36,→,right,→,0.619020999991335,True,18,-1,0,9
Y2-S2-019K19,3,301,AS,exp,41,↑,up,↑,0.9190732999704778,True,18,-1,0,9
Y2-S2-019K19,3,302,AS,exp,42,←,left,←,0.7755962000228465,True,18,1,1,10
Y2-S2-019K19,3,303,AS,exp,41,→,right,→,0.6725656000198796,True,17,1,0,10
Y2-S2-019K19,3,304,AS,exp,47,↓,down,↓,0.8457534000044689,True,17,1,0,10
Y2-S2-019K19,3,305,AS,exp,30,↑,up,↑,0.6607638000277802,True,17,1,0,10
Y2-S2-019K19,3,306,AS,exp,35,←,right,→,1.0619786999886855,False,16,-1,1,11
Y2-S2-019K19,3,307,AS,exp,29,↓,down,↓,0.9354912000708282,True,17,-1,0,11
Y2-S2-019K19,3,308,AS,exp,48,→,right,→,0.6976947999792174,True,17,-1,0,11
Y2-S2-019K19,3,309,AS,exp,37,↓,down,↓,0.834178899996914,True,17,1,1,12
Y2-S2-019K19,3,310,AS,exp,25,↑,up,↑,0.9046536000678316,True,16,1,0,12
Y2-S2-019K19,3,311,AS,exp,35,←,left,←,0.7680985999759287,True,16,1,0,12
Y2-S2-019K19,3,312,AS,exp,47,↓,up,↑,0.8107435000129044,False,16,-1,1,13
Y2-S2-019K19,3,313,AS,exp,37,→,right,→,0.7972165000392124,True,17,-1,0,13
Y2-S2-019K19,3,314,AS,exp,37,↓,down,↓,0.8330792000051588,True,17,-1,0,13
Y2-S2-019K19,3,315,AS,exp,34,→,right,→,0.6279129000613466,True,17,1,1,14
Y2-S2-019K19,3,316,AS,exp,29,←,left,←,0.8457254999084398,True,16,1,0,14
Y2-S2-019K19,3,317,AS,exp,48,↓,down,↓,0.9748132000677288,True,16,1,0,14
Y2-S2-019K19,3,318,AS,exp,44,↑,up,↑,0.79995570005849,True,16,1,0,14
Y2-S2-019K19,3,319,AS,exp,45,←,right,→,0.7335934999864548,False,15,-1,1,15
Y2-S2-019K19,3,320,AS,exp,35,↓,down,↓,0.918642400065437,True,16,-1,0,15
Y2-S2-019K19,3,321,AS,exp,41,→,right,→,0.636361200013198,True,16,-1,0,15
Y2-S2-019K19,3,322,AS,exp,30,↓,down,↓,0.8420302999438718,True,16,1,1,16
Y2-S2-019K19,4,323,PS,intra_train,38,↑,no_key,no_letter,-1.0,False,15,-,-,-
Y2-S2-019K19,4,324,PS,intra_train,48,↓,right,→,1.0146051000338048,False,15,-,-,-
Y2-S2-019K19,4,325,PS,intra_train,38,↑,up,↑,0.7289840000448748,True,15,-,-,-
Y2-S2-019K19,4,326,PS,intra_train,38,→,right,→,0.5433426999952644,True,15,-,-,-
Y2-S2-019K19,4,327,PS,intra_train,37,↓,down,↓,0.8692012999672443,True,15,-,-,-
Y2-S2-019K19,4,328,PS,exp,48,→,right,→,0.5916815000819042,True,10,0,0,0
Y2-S2-019K19,4,329,PS,exp,35,↓,up,↑,0.9798038000008091,False,10,-1,0,0
Y2-S2-019K19,4,330,PS,exp,31,↑,up,↑,0.7256753999972716,True,11,-1,0,0
Y2-S2-019K19,4,331,PS,exp,49,←,left,←,0.659005899913609,True,11,-1,0,0
Y2-S2-019K19,4,332,PS,exp,39,→,right,→,0.8936931999633089,True,11,1,1,1
Y2-S2-019K19,4,333,PS,exp,46,←,left,←,0.5368445999920368,True,10,1,0,1
Y2-S2-019K19,4,334,PS,exp,37,↓,down,↓,0.7518086000345647,True,10,1,0,1
Y2-S2-019K19,4,335,PS,exp,27,←,right,→,0.7066693000961095,False,10,-1,1,2
Y2-S2-019K19,4,336,PS,exp,26,↓,down,↓,0.7744457999942824,True,11,-1,0,2
Y2-S2-019K19,4,337,PS,exp,33,→,right,→,0.40503230004105717,True,11,-1,0,2
Y2-S2-019K19,4,338,PS,exp,29,←,right,→,0.7115904999664053,False,11,-1,0,2
Y2-S2-019K19,4,339,PS,exp,27,→,right,→,0.4890677999937907,True,12,-1,0,2
Y2-S2-019K19,4,340,PS,exp,38,↑,right,→,0.7581906999694183,False,12,-1,0,2
Y2-S2-019K19,4,341,PS,exp,29,↓,down,↓,0.738353900029324,True,13,-1,0,2
Y2-S2-019K19,4,342,PS,exp,31,↑,up,↑,0.9630344999022782,True,13,-1,0,2
Y2-S2-019K19,4,343,PS,exp,46,→,right,→,0.6549177999841049,True,13,1,1,3
Y2-S2-019K19,4,344,PS,exp,31,↑,up,↑,0.5357486000284553,True,12,1,0,3
Y2-S2-019K19,4,345,PS,exp,35,↓,down,↓,0.7025548000819981,True,12,1,0,3
Y2-S2-019K19,4,346,PS,exp,45,→,right,→,0.4811762999743223,True,12,1,0,3
Y2-S2-019K19,4,347,PS,exp,47,↓,down,↓,0.6965284000616521,True,11,1,0,3
Y2-S2-019K19,4,348,PS,exp,27,→,right,→,0.5757917000446469,True,11,1,0,3
Y2-S2-019K19,4,349,PS,exp,46,↑,up,↑,0.5888021000428125,True,11,1,0,3
Y2-S2-019K19,4,350,PS,exp,31,→,left,←,0.7828963999636471,False,10,-1,1,4
Y2-S2-019K19,4,351,PS,exp,49,←,left,←,0.5209587999852374,True,11,-1,0,4
Y2-S2-019K19,4,352,PS,exp,26,→,right,→,0.709165999898687,True,11,-1,0,4
Y2-S2-019K19,4,353,PS,exp,28,↑,up,↑,0.6327991000143811,True,11,1,1,5
Y2-S2-019K19,4,354,PS,exp,38,←,left,←,0.5106422000098974,True,10,1,0,5
Y2-S2-019K19,4,355,PS,exp,25,↓,down,↓,0.721377200097777,True,10,1,0,5
Y2-S2-019K19,4,356,PS,exp,42,←,left,←,0.5911913000745699,True,10,1,0,5
Y2-S2-019K19,4,357,PS,exp,37,↑,up,↑,0.7303322000661865,True,9,1,0,5
Y2-S2-019K19,4,358,PS,exp,27,↓,down,↓,0.7651252000359818,True,9,1,0,5
Y2-S2-019K19,4,359,PS,exp,37,→,right,→,0.5456488999770954,True,9,1,0,5
Y2-S2-019K19,4,360,PS,exp,26,↑,right,→,0.9902860999573022,False,8,-1,1,6
Y2-S2-019K19,4,361,PS,exp,44,→,right,→,0.5559367999667302,True,9,-1,0,6
Y2-S2-019K19,4,362,PS,exp,35,↓,down,↓,0.9620678999926895,True,9,-1,0,6
Y2-S2-019K19,4,363,PS,exp,42,←,left,←,0.6026224999222904,True,9,1,1,7
Y2-S2-019K19,4,364,PS,exp,26,→,right,→,0.6656571000348777,True,8,1,0,7
Y2-S2-019K19,4,365,PS,exp,26,↑,up,↑,0.8595787000376731,True,8,1,0,7
Y2-S2-019K19,4,366,PS,exp,34,↓,down,↓,0.6810706000542268,True,8,1,0,7
Y2-S2-019K19,4,367,PS,exp,37,→,right,→,0.5598549999995157,True,7,1,0,7
Y2-S2-019K19,4,368,PS,exp,36,↑,up,↑,0.7972184999380261,True,7,1,0,7
Y2-S2-019K19,4,369,PS,exp,34,↓,down,↓,0.6742396000772715,True,7,1,0,7
Y2-S2-019K19,4,370,PS,exp,50,↑,up,↑,0.7359358000103384,True,6,1,0,7
Y2-S2-019K19,4,371,PS,exp,30,→,down,↓,1.1228650000412017,False,6,-1,1,8
Y2-S2-019K19,4,372,PS,exp,31,↑,up,↑,1.1512985000154004,True,7,-1,0,8
Y2-S2-019K19,4,373,PS,exp,42,←,left,←,0.5948755000717938,True,7,-1,0,8
Y2-S2-019K19,4,374,PS,exp,40,↓,left,←,0.9895867999875918,False,7,-1,0,8
Y2-S2-019K19,4,375,PS,exp,50,←,left,←,0.5475078000454232,True,8,-1,0,8
Y2-S2-019K19,4,376,PS,exp,25,→,right,→,0.6630771999480203,True,8,-1,0,8
Y2-S2-019K19,4,377,PS,exp,47,↓,down,↓,0.7645215999800712,True,8,1,1,9
Y2-S2-019K19,4,378,PS,exp,41,→,right,→,0.5628531000111252,True,7,1,0,9
Y2-S2-019K19,4,379,PS,exp,46,↓,right,→,0.6800594000378624,False,7,-1,1,10
Y2-S2-019K19,4,380,PS,exp,37,←,left,←,0.592311599990353,True,8,-1,0,10
Y2-S2-019K19,4,381,PS,exp,41,↑,left,←,0.6848030000692233,False,8,-1,0,10
Y2-S2-019K19,4,382,PS,exp,33,←,left,←,0.6339632000308484,True,9,-1,0,10
Y2-S2-019K19,4,383,PS,exp,36,↑,up,↑,0.7425961999688298,True,9,-1,0,10
Y2-S2-019K19,4,384,PS,exp,39,→,right,→,0.5350962999509647,True,9,1,1,11
Y2-S2-019K19,4,385,PS,exp,35,←,left,←,1.100168399978429,True,8,1,0,11
Y2-S2-019K19,4,386,PS,exp,31,↓,down,↓,0.862361800041981,True,8,1,0,11
Y2-S2-019K19,4,387,PS,exp,49,→,right,→,1.0457763999002054,True,8,1,0,11
Y2-S2-019K19,4,388,PS,exp,45,←,left,←,0.6194230000255629,True,7,1,0,11
Y2-S2-019K19,4,389,PS,exp,46,→,right,→,0.6922166000586003,True,7,1,0,11
Y2-S2-019K19,4,390,PS,exp,34,←,left,←,0.5905000999337062,True,7,1,0,11
Y2-S2-019K19,4,391,PS,exp,40,↑,left,←,1.0063991000643,False,6,-1,1,12
Y2-S2-019K19,4,392,PS,exp,36,←,left,←,0.6911327000707388,True,7,-1,0,12
Y2-S2-019K19,4,393,PS,exp,32,↑,up,↑,0.6856845000293106,True,7,-1,0,12
Y2-S2-019K19,4,394,PS,exp,39,↓,down,↓,0.7051970999455079,True,7,1,1,13
Y2-S2-019K19,4,395,PS,exp,31,←,left,←,0.6219556999858469,True,6,1,0,13
Y2-S2-019K19,4,396,PS,exp,48,↑,up,↑,0.6417499000672251,True,6,1,0,13
Y2-S2-019K19,4,397,PS,exp,40,↓,right,→,1.0192570999497548,False,6,-1,1,14
Y2-S2-019K19,4,398,PS,exp,47,→,right,→,0.5599479000084102,True,7,-1,0,14
Y2-S2-019K19,4,399,PS,exp,32,←,left,←,0.6053514999803156,True,7,-1,0,14
Y2-S2-019K19,4,400,PS,exp,39,↓,up,↑,0.7993519000010565,False,7,-1,0,14
Y2-S2-019K19,4,401,PS,exp,35,↑,down,↓,1.1904509000014514,False,8,-1,0,14
Y2-S2-019K19,4,402,PS,exp,38,→,right,→,0.5099860000191256,True,9,-1,0,14
Y2-S2-019K19,4,403,PS,exp,44,↑,left,←,0.8782507000723854,False,9,-1,0,14
Y2-S2-019K19,4,404,PS,exp,49,←,left,←,0.5858385000610724,True,10,-1,0,14
Y2-S2-019K19,4,405,PS,exp,35,↓,down,↓,0.7391153000062332,True,10,-1,0,14
Y2-S2-019K19,4,406,PS,exp,27,→,right,→,0.5843982000369579,True,10,1,1,15
Y2-S2-019K19,4,407,PS,exp,26,←,left,←,0.6521213999949396,True,9,1,0,15
Y2-S2-019K19,4,408,PS,exp,29,→,right,→,0.6944010999286547,True,9,1,0,15
Y2-S2-019K19,4,409,PS,exp,26,↓,down,↓,0.7826325999340042,True,9,1,0,15
Y2-S2-019K19,4,410,PS,exp,33,←,right,→,0.8497248000930995,False,8,-1,1,16
Y2-S2-019K19,5,411,PS,intra_train,33,→,right,→,0.5624314999440685,True,15,-,-,-
Y2-S2-019K19,5,412,PS,intra_train,50,↓,down,↓,0.8184270999627188,True,15,-,-,-
Y2-S2-019K19,5,413,PS,intra_train,44,←,left,←,0.6120108000468463,True,15,-,-,-
Y2-S2-019K19,5,414,PS,intra_train,32,↑,up,↑,0.8514841999858618,True,15,-,-,-
Y2-S2-019K19,5,415,PS,intra_train,45,↓,down,↓,0.6609556000912562,True,15,-,-,-
Y2-S2-019K19,5,416,PS,exp,28,→,up,↑,0.911858000094071,False,10,-1,0,0
Y2-S2-019K19,5,417,PS,exp,39,↑,up,↑,0.8156429999507964,True,11,-1,0,0
Y2-S2-019K19,5,418,PS,exp,28,→,right,→,0.6066685999976471,True,11,-1,0,0
Y2-S2-019K19,5,419,PS,exp,50,←,left,←,0.6456664999714121,True,11,1,1,1
Y2-S2-019K19,5,420,PS,exp,34,↓,up,↑,0.8197006999980658,False,10,-1,1,2
Y2-S2-019K19,5,421,PS,exp,31,→,right,→,0.5652631999691948,True,11,-1,0,2
Y2-S2-019K19,5,422,PS,exp,38,↑,up,↑,0.5407412999775261,True,11,-1,0,2
Y2-S2-019K19,5,423,PS,exp,32,→,right,→,0.727876799996011,True,11,1,1,3
Y2-S2-019K19,5,424,PS,exp,42,↓,right,→,0.9806219999445602,False,10,-1,1,4
Y2-S2-019K19,5,425,PS,exp,45,←,left,←,0.6774456000421196,True,11,-1,0,4
Y2-S2-019K19,5,426,PS,exp,45,↑,up,↑,0.7245504000457004,True,11,-1,0,4
Y2-S2-019K19,5,427,PS,exp,43,←,left,←,0.5591719999210909,True,11,1,1,5
Y2-S2-019K19,5,428,PS,exp,37,→,right,→,0.6089208000339568,True,10,1,0,5
Y2-S2-019K19,5,429,PS,exp,39,←,left,←,0.6073732000077143,True,10,1,0,5
Y2-S2-019K19,5,430,PS,exp,47,→,right,→,0.548382900073193,True,10,1,0,5
Y2-S2-019K19,5,431,PS,exp,49,←,left,←,0.5773445999948308,True,9,1,0,5
Y2-S2-019K19,5,432,PS,exp,41,→,right,→,0.47975930001121014,True,9,1,0,5
Y2-S2-019K19,5,433,PS,exp,50,↓,right,→,0.8421031999168918,False,9,-1,1,6
Y2-S2-019K19,5,434,PS,exp,42,←,left,←,0.5500576000194997,True,10,-1,0,6
Y2-S2-019K19,5,435,PS,exp,46,↑,left,←,0.6925934000173584,False,10,-1,0,6
Y2-S2-019K19,5,436,PS,exp,27,←,right,→,0.6740183999063447,False,11,-1,0,6
Y2-S2-019K19,5,437,PS,exp,37,↑,up,↑,0.7247028000419959,True,12,-1,0,6
Y2-S2-019K19,5,438,PS,exp,36,←,left,←,0.5511592000257224,True,12,-1,0,6
Y2-S2-019K19,5,439,PS,exp,32,↓,down,↓,0.7830870000179857,True,12,1,1,7
Y2-S2-019K19,5,440,PS,exp,39,→,right,→,0.5687677999958396,True,11,1,0,7
Y2-S2-019K19,5,441,PS,exp,49,↓,down,↓,0.9583023999584839,True,11,1,0,7
Y2-S2-019K19,5,442,PS,exp,29,↑,up,↑,0.5121207000920549,True,11,1,0,7
Y2-S2-019K19,5,443,PS,exp,33,→,right,→,0.629344700020738,True,10,1,0,7
Y2-S2-019K19,5,444,PS,exp,29,↓,down,↓,0.6505746999755502,True,10,1,0,7
Y2-S2-019K19,5,445,PS,exp,37,←,left,←,0.5408468999667093,True,10,1,0,7
Y2-S2-019K19,5,446,PS,exp,38,→,right,→,0.4820845000213012,True,9,1,0,7
Y2-S2-019K19,5,447,PS,exp,28,↓,down,↓,1.0446694999700412,True,9,1,0,7
Y2-S2-019K19,5,448,PS,exp,44,←,left,←,0.6413519999478012,True,9,1,0,7
Y2-S2-019K19,5,449,PS,exp,38,↓,right,→,0.7524957000277936,False,8,-1,1,8
Y2-S2-019K19,5,450,PS,exp,45,←,left,←,0.6371897999197245,True,9,-1,0,8
Y2-S2-019K19,5,451,PS,exp,40,↓,down,↓,0.7717609999235719,True,9,-1,0,8
Y2-S2-019K19,5,452,PS,exp,47,→,right,→,0.3861719999695197,True,9,1,1,9
Y2-S2-019K19,5,453,PS,exp,49,←,right,→,0.7007505000801757,False,8,-1,1,10
Y2-S2-019K19,5,454,PS,exp,48,↓,down,↓,1.045083999983035,True,9,-1,0,10
Y2-S2-019K19,5,455,PS,exp,41,←,right,→,0.6926295000594109,False,9,-1,0,10
Y2-S2-019K19,5,456,PS,exp,28,↑,down,↓,0.8094118000008166,False,10,-1,0,10
Y2-S2-019K19,5,457,PS,exp,38,↓,down,↓,0.7911237999796867,True,11,-1,0,10
Y2-S2-019K19,5,458,PS,exp,38,←,left,←,0.6673818998970091,True,11,-1,0,10
Y2-S2-019K19,5,459,PS,exp,32,↑,right,→,1.0008486000588164,False,11,-1,0,10
Y2-S2-019K19,5,460,PS,exp,36,←,left,←,0.6648842999711633,True,12,-1,0,10
Y2-S2-019K19,5,461,PS,exp,30,→,right,→,0.6396564999595284,True,12,-1,0,10
Y2-S2-019K19,5,462,PS,exp,30,↑,up,↑,0.8221209000330418,True,12,1,1,11
Y2-S2-019K19,5,463,PS,exp,49,←,left,←,0.6167548999655992,True,11,1,0,11
Y2-S2-019K19,5,464,PS,exp,48,↓,down,↓,0.7871785999741405,True,11,1,0,11
Y2-S2-019K19,5,465,PS,exp,47,←,left,←,0.6489152999129146,True,11,1,0,11
Y2-S2-019K19,5,466,PS,exp,25,↑,up,↑,0.854414900066331,True,10,1,0,11
Y2-S2-019K19,5,467,PS,exp,30,→,right,→,0.7173883999930695,True,10,1,0,11
Y2-S2-019K19,5,468,PS,exp,38,↓,down,↓,0.7128358000190929,True,10,1,0,11
Y2-S2-019K19,5,469,PS,exp,43,↑,up,↑,0.7896176000358537,True,9,1,0,11
Y2-S2-019K19,5,470,PS,exp,26,↓,right,→,0.6503373999148607,False,9,-1,1,12
Y2-S2-019K19,5,471,PS,exp,34,↑,no_key,no_letter,-1.0,False,10,-1,0,12
Y2-S2-019K19,5,472,PS,exp,42,↓,down,↓,0.8027558999601752,True,11,-1,0,12
Y2-S2-019K19,5,473,PS,exp,25,←,right,→,0.8495816000504419,False,11,-1,0,12
Y2-S2-019K19,5,474,PS,exp,26,→,right,→,0.5748020000755787,True,12,-1,0,12
Y2-S2-019K19,5,475,PS,exp,37,↑,up,↑,0.771421100012958,True,12,-1,0,12
Y2-S2-019K19,5,476,PS,exp,50,←,left,←,0.558554399991408,True,12,1,1,13
Y2-S2-019K19,5,477,PS,exp,32,↑,up,↑,0.6112561000045389,True,11,1,0,13
Y2-S2-019K19,5,478,PS,exp,28,←,left,←,0.5558358000125736,True,11,1,0,13
Y2-S2-019K19,5,479,PS,exp,49,↓,up,↑,0.7843797999667004,False,11,-1,1,14
Y2-S2-019K19,5,480,PS,exp,41,→,right,→,0.6708142999559641,True,12,-1,0,14
Y2-S2-019K19,5,481,PS,exp,50,←,left,←,0.6295707999961451,True,12,-1,0,14
Y2-S2-019K19,5,482,PS,exp,25,↓,down,↓,0.8975128000602126,True,12,1,1,15
Y2-S2-019K19,5,483,PS,exp,42,→,right,→,0.4593878999585286,True,11,1,0,15
Y2-S2-019K19,5,484,PS,exp,33,↑,up,↑,0.8307420000201091,True,11,1,0,15
Y2-S2-019K19,5,485,PS,exp,41,↓,down,↓,0.6714120000833645,True,11,1,0,15
Y2-S2-019K19,5,486,PS,exp,40,→,right,→,0.6306380000896752,True,10,1,0,15
Y2-S2-019K19,5,487,PS,exp,39,↓,down,↓,0.7184963999316096,True,10,1,0,15
Y2-S2-019K19,5,488,PS,exp,42,→,right,→,0.48406069993507117,True,10,1,0,15
Y2-S2-019K19,5,489,PS,exp,44,↓,right,→,1.0396289000054821,False,9,-1,1,16
Y2-S2-019K19,6,490,AS,intra_train,48,↑,up,↑,0.7028618000913411,True,28,-,-,-
Y2-S2-019K19,6,491,AS,intra_train,48,←,no_key,no_letter,-1.0,False,28,-,-,-
Y2-S2-019K19,6,492,AS,intra_train,35,→,right,→,0.6508581000380218,True,28,-,-,-
Y2-S2-019K19,6,493,AS,intra_train,47,↓,down,↓,0.791368400095962,True,28,-,-,-
Y2-S2-019K19,6,494,AS,intra_train,44,→,right,→,0.8341117000672966,True,28,-,-,-
Y2-S2-019K19,6,495,AS,exp,46,←,left,←,0.724987699999474,True,19,0,0,0
Y2-S2-019K19,6,496,AS,exp,34,↑,up,↑,0.9894218998961151,True,19,0,0,0
Y2-S2-019K19,6,497,AS,exp,25,→,right,→,0.646690700086765,True,19,1,0,0
Y2-S2-019K19,6,498,AS,exp,50,↓,down,↓,0.7636038000928238,True,18,1,0,0
Y2-S2-019K19,6,499,AS,exp,25,↑,up,↑,0.8432824000483379,True,18,1,0,0
Y2-S2-019K19,6,500,AS,exp,41,→,right,→,0.5795823999214917,True,18,1,0,0
Y2-S2-019K19,6,501,AS,exp,28,↑,up,↑,0.6601415000623092,True,17,1,0,0
Y2-S2-019K19,6,502,AS,exp,44,↓,down,↓,0.7849727999418974,True,17,1,0,0
Y2-S2-019K19,6,503,AS,exp,47,←,left,←,0.7140893000178039,True,17,1,0,0
Y2-S2-019K19,6,504,AS,exp,29,→,right,→,0.6592997999396175,True,16,1,0,0
Y2-S2-019K19,6,505,AS,exp,33,↓,up,↑,1.0795934000052512,False,16,-1,1,1
Y2-S2-019K19,6,506,AS,exp,29,↑,right,→,1.2685043999226764,False,17,-1,0,1
Y2-S2-019K19,6,507,AS,exp,34,→,right,→,0.6785665999632329,True,18,-1,0,1
Y2-S2-019K19,6,508,AS,exp,45,↑,up,↑,0.7095932000083849,True,18,-1,0,1
Y2-S2-019K19,6,509,AS,exp,33,←,right,→,0.7257761999499053,False,18,-1,0,1
Y2-S2-019K19,6,510,AS,exp,25,↑,right,→,0.8056911000749096,False,19,-1,0,1
Y2-S2-019K19,6,511,AS,exp,27,←,left,←,0.7806524999905378,True,20,-1,0,1
Y2-S2-019K19,6,512,AS,exp,38,↓,down,↓,0.9178546000039205,True,20,-1,0,1
Y2-S2-019K19,6,513,AS,exp,49,←,left,←,0.6280911000212654,True,20,1,1,2
Y2-S2-019K19,6,514,AS,exp,34,↑,right,→,0.8003359000431374,False,19,-1,1,3
Y2-S2-019K19,6,515,AS,exp,34,↓,down,↓,0.7879596001002938,True,20,-1,0,3
Y2-S2-019K19,6,516,AS,exp,39,←,left,←,0.7320612000767142,True,20,-1,0,3
Y2-S2-019K19,6,517,AS,exp,39,→,right,→,0.6009467999683693,True,20,1,1,4
Y2-S2-019K19,6,518,AS,exp,49,←,left,←,0.650908499956131,True,19,1,0,4
Y2-S2-019K19,6,519,AS,exp,32,↓,down,↓,0.6884698999347165,True,19,1,0,4
Y2-S2-019K19,6,520,AS,exp,34,←,left,←,0.5987419000593945,True,19,1,0,4
Y2-S2-019K19,6,521,AS,exp,27,→,right,→,0.7192223999882117,True,18,1,0,4
Y2-S2-019K19,6,522,AS,exp,34,←,left,←,0.7815627999370918,True,18,1,0,4
Y2-S2-019K19,6,523,AS,exp,49,→,right,→,0.6602896000258625,True,18,1,0,4
Y2-S2-019K19,6,524,AS,exp,28,↑,up,↑,0.7740194000070915,True,17,1,0,4
Y2-S2-019K19,6,525,AS,exp,35,→,right,→,0.6034278000006452,True,17,1,0,4
Y2-S2-019K19,6,526,AS,exp,36,↓,down,↓,0.7835113999899477,True,17,1,0,4
Y2-S2-019K19,6,527,AS,exp,30,←,left,←,0.7187227999093011,True,16,1,0,4
Y2-S2-019K19,6,528,AS,exp,39,→,right,→,0.5535195999545977,True,16,1,0,4
Y2-S2-019K19,6,529,AS,exp,48,←,left,←,0.7967911999439821,True,16,1,0,4
Y2-S2-019K19,6,530,AS,exp,30,→,right,→,0.6691769999451935,True,15,1,0,4
Y2-S2-019K19,6,531,AS,exp,32,↓,down,↓,0.8105904000112787,True,15,1,0,4
Y2-S2-019K19,6,532,AS,exp,48,→,right,→,0.5671350000193343,True,15,1,0,4
Y2-S2-019K19,6,533,AS,exp,34,←,left,←,0.6029418000252917,True,14,1,0,4
Y2-S2-019K19,6,534,AS,exp,37,→,right,→,0.5728724000509828,True,14,1,0,4
Y2-S2-019K19,6,535,AS,exp,38,↓,down,↓,0.7691793999401852,True,14,1,0,4
Y2-S2-019K19,6,536,AS,exp,49,↑,down,↓,0.8290566999930888,False,13,-1,1,5
Y2-S2-019K19,6,537,AS,exp,49,↓,down,↓,0.7545241999905556,True,14,-1,0,5
Y2-S2-019K19,6,538,AS,exp,48,↑,up,↑,0.7448643000097945,True,14,-1,0,5
Y2-S2-019K19,6,539,AS,exp,50,↓,down,↓,0.7755423000780866,True,14,1,1,6
Y2-S2-019K19,6,540,AS,exp,27,←,left,←,0.7955420999787748,True,13,1,0,6
Y2-S2-019K19,6,541,AS,exp,46,↑,down,↓,0.9465763000771403,False,13,-1,1,7
Y2-S2-019K19,6,542,AS,exp,31,↓,right,→,1.7135617999592796,False,14,-1,0,7
Y2-S2-019K19,6,543,AS,exp,35,→,right,→,0.7680345000699162,True,15,-1,0,7
Y2-S2-019K19,6,544,AS,exp,30,↑,down,↓,0.9322775999316946,False,15,-1,0,7
Y2-S2-019K19,6,545,AS,exp,40,←,left,←,0.7450543999439105,True,16,-1,0,7
Y2-S2-019K19,6,546,AS,exp,40,→,right,→,0.6579205000307411,True,16,-1,0,7
Y2-S2-019K19,6,547,AS,exp,45,↓,down,↓,0.7460880000144243,True,16,1,1,8
Y2-S2-019K19,6,548,AS,exp,34,←,left,←,0.7966298999963328,True,15,1,0,8
Y2-S2-019K19,6,549,AS,exp,32,↑,right,→,0.8707621999783441,False,15,-1,1,9
Y2-S2-019K19,6,550,AS,exp,38,↓,down,↓,0.8493853999534622,True,16,-1,0,9
Y2-S2-019K19,6,551,AS,exp,42,←,left,←,0.6544169000117108,True,16,-1,0,9
Y2-S2-019K19,6,552,AS,exp,45,→,right,→,0.6377234000246972,True,16,1,1,10
Y2-S2-019K19,6,553,AS,exp,40,↓,right,→,0.9657471000682563,False,15,-1,1,11
Y2-S2-019K19,6,554,AS,exp,36,→,left,←,1.1017651000292972,False,16,-1,0,11
Y2-S2-019K19,6,555,AS,exp,41,↑,down,↓,0.9299931999994442,False,17,-1,0,11
Y2-S2-019K19,6,556,AS,exp,29,↓,down,↓,0.7516494999872521,True,18,-1,0,11
Y2-S2-019K19,6,557,AS,exp,27,←,left,←,0.7537833000533283,True,18,-1,0,11
Y2-S2-019K19,6,558,AS,exp,33,↑,up,↑,0.9298091999953613,True,18,1,1,12
Y2-S2-019K19,6,559,AS,exp,40,↓,down,↓,0.8222962999716401,True,17,1,0,12
Y2-S2-019K19,6,560,AS,exp,45,→,right,→,0.7047933000139892,True,17,1,0,12
Y2-S2-019K19,6,561,AS,exp,25,↑,right,→,1.0465891999192536,False,17,-1,1,13
Y2-S2-019K19,6,562,AS,exp,32,→,right,→,0.5774252000264823,True,18,-1,0,13
Y2-S2-019K19,6,563,AS,exp,42,←,left,←,0.8034290999639779,True,18,-1,0,13
Y2-S2-019K19,6,564,AS,exp,33,↓,down,↓,0.8703467000741512,True,18,1,1,14
Y2-S2-019K19,6,565,AS,exp,27,←,left,←,0.7492976998910308,True,17,1,0,14
Y2-S2-019K19,6,566,AS,exp,38,↓,down,↓,0.754449600004591,True,17,1,0,14
Y2-S2-019K19,6,567,AS,exp,32,↑,up,↑,0.8563236000481993,True,17,1,0,14
Y2-S2-019K19,6,568,AS,exp,42,←,left,←,0.7267741999821737,True,16,1,0,14
Y2-S2-019K19,6,569,AS,exp,45,↓,down,↓,0.6975430999882519,True,16,1,0,14
Y2-S2-019K19,6,570,AS,exp,48,↑,up,↑,0.9610280999913812,True,16,1,0,14
Y2-S2-019K19,6,571,AS,exp,29,→,right,→,0.6449806001037359,True,15,1,0,14
Y2-S2-019K19,6,572,AS,exp,25,←,left,←,0.6774879000149667,True,15,1,0,14
Y2-S2-019K19,6,573,AS,exp,38,→,right,→,0.6700346000725403,True,15,1,0,14
Y2-S2-019K19,6,574,AS,exp,29,↓,down,↓,0.8618624999653548,True,14,1,0,14
Y2-S2-019K19,6,575,AS,exp,27,→,right,→,0.6084348000586033,True,14,1,0,14
Y2-S2-019K19,6,576,AS,exp,40,←,left,←,0.6117957000387833,True,14,1,0,14
Y2-S2-019K19,6,577,AS,exp,50,→,right,→,0.8360161000164226,True,13,1,0,14
Y2-S2-019K19,6,578,AS,exp,28,↓,right,→,0.7509976999135688,False,13,-1,1,15
Y2-S2-019K19,6,579,AS,exp,27,↑,up,↑,0.8249728999799117,True,14,-1,0,15
Y2-S2-019K19,6,580,AS,exp,31,←,left,←,0.6700032000662759,True,14,-1,0,15
Y2-S2-019K19,6,581,AS,exp,46,↓,up,↑,0.948185000102967,False,14,-1,0,15
Y2-S2-019K19,6,582,AS,exp,31,←,right,→,0.8215859000338241,False,15,-1,0,15
Y2-S2-019K19,6,583,AS,exp,46,↓,down,↓,0.8166951999301091,True,16,-1,0,15
Y2-S2-019K19,6,584,AS,exp,41,→,right,→,0.526578199933283,True,16,-1,0,15
Y2-S2-019K19,6,585,AS,exp,28,↑,down,↓,1.470753200002946,False,16,-1,0,15
Y2-S2-019K19,6,586,AS,exp,38,←,left,←,0.6851320000132546,True,17,-1,0,15
Y2-S2-019K19,6,587,AS,exp,48,↓,down,↓,0.7423277000198141,True,17,-1,0,15
Y2-S2-019K19,6,588,AS,exp,36,↑,up,↑,0.8921839999966323,True,17,1,1,16
Y2-S2-019K19,7,589,AS,intra_train,30,→,right,→,0.6842825000640005,True,28,-,-,-
Y2-S2-019K19,7,590,AS,intra_train,38,↓,down,↓,0.9089816000778228,True,28,-,-,-
Y2-S2-019K19,7,591,AS,intra_train,43,↑,up,↑,1.1094400000292808,True,28,-,-,-
Y2-S2-019K19,7,592,AS,intra_train,37,→,right,→,0.6574087999761105,True,28,-,-,-
Y2-S2-019K19,7,593,AS,intra_train,27,←,left,←,0.6850803999695927,True,28,-,-,-
Y2-S2-019K19,7,594,AS,exp,48,→,right,→,0.7161259000422433,True,19,0,0,0
Y2-S2-019K19,7,595,AS,exp,29,←,left,←,0.7285433999495581,True,19,0,0,0
Y2-S2-019K19,7,596,AS,exp,25,↓,down,↓,0.7701024999842048,True,19,1,0,0
Y2-S2-019K19,7,597,AS,exp,32,↑,up,↑,0.9376326000783592,True,18,1,0,0
Y2-S2-019K19,7,598,AS,exp,44,→,right,→,0.7342865000246093,True,18,1,0,0
Y2-S2-019K19,7,599,AS,exp,30,←,left,←,0.6798802999546751,True,18,1,0,0
Y2-S2-019K19,7,600,AS,exp,42,↓,down,↓,0.7333107000449672,True,17,1,0,0
Y2-S2-019K19,7,601,AS,exp,30,→,right,→,0.5794189000735059,True,17,1,0,0
Y2-S2-019K19,7,602,AS,exp,48,↑,up,↑,0.9000584000023082,True,17,1,0,0
Y2-S2-019K19,7,603,AS,exp,32,↓,down,↓,0.7077656000619754,True,16,1,0,0
Y2-S2-019K19,7,604,AS,exp,42,→,right,→,0.5536481000017375,True,16,1,0,0
Y2-S2-019K19,7,605,AS,exp,47,↓,down,↓,0.760960099985823,True,16,1,0,0
Y2-S2-019K19,7,606,AS,exp,34,←,left,←,0.806213999981992,True,15,1,0,0
Y2-S2-019K19,7,607,AS,exp,32,↑,up,↑,0.8056088000303134,True,15,1,0,0
Y2-S2-019K19,7,608,AS,exp,28,↓,down,↓,0.7908140999497846,True,15,1,0,0
Y2-S2-019K19,7,609,AS,exp,43,←,right,→,0.61131559999194,False,14,-1,1,1
Y2-S2-019K19,7,610,AS,exp,35,↓,down,↓,0.7910955999977887,True,15,-1,0,1
Y2-S2-019K19,7,611,AS,exp,40,→,right,→,0.5022138999775052,True,15,-1,0,1
Y2-S2-019K19,7,612,AS,exp,45,↓,right,→,0.8344560000114143,False,15,-1,0,1
Y2-S2-019K19,7,613,AS,exp,48,↑,up,↑,0.7352691000560299,True,16,-1,0,1
Y2-S2-019K19,7,614,AS,exp,28,→,right,→,0.5243042999645695,True,16,-1,0,1
Y2-S2-019K19,7,615,AS,exp,50,↑,up,↑,0.6067817999282852,True,16,1,1,2
Y2-S2-019K19,7,616,AS,exp,42,→,right,→,0.5087508000433445,True,15,1,0,2
Y2-S2-019K19,7,617,AS,exp,48,↓,down,↓,0.6743424000451341,True,15,1,0,2
Y2-S2-019K19,7,618,AS,exp,36,←,left,←,1.1729005000088364,True,15,1,0,2
Y2-S2-019K19,7,619,AS,exp,49,→,right,→,0.9077911999775097,True,14,1,0,2
Y2-S2-019K19,7,620,AS,exp,35,←,left,←,0.9470512000843883,True,14,1,0,2
Y2-S2-019K19,7,621,AS,exp,41,↓,down,↓,0.7547092000022531,True,14,1,0,2
Y2-S2-019K19,7,622,AS,exp,27,→,right,→,0.7552889999933541,True,13,1,0,2
Y2-S2-019K19,7,623,AS,exp,36,↓,down,↓,0.7437606999883428,True,13,1,0,2
Y2-S2-019K19,7,624,AS,exp,46,↑,up,↑,0.5358530000085011,True,13,1,0,2
Y2-S2-019K19,7,625,AS,exp,50,→,right,→,0.6928065000101924,True,12,1,0,2
Y2-S2-019K19,7,626,AS,exp,32,↓,down,↓,0.8092002000194043,True,12,1,0,2
Y2-S2-019K19,7,627,AS,exp,29,→,right,→,0.7365833999356255,True,12,1,0,2
Y2-S2-019K19,7,628,AS,exp,32,↑,up,↑,0.8384015000192448,True,11,1,0,2
Y2-S2-019K19,7,629,AS,exp,31,↓,down,↓,0.7612864000257105,True,11,1,0,2
Y2-S2-019K19,7,630,AS,exp,39,↑,down,↓,0.9094701999565586,False,11,-1,1,3
Y2-S2-019K19,7,631,AS,exp,49,←,left,←,0.5986812000628561,True,12,-1,0,3
Y2-S2-019K19,7,632,AS,exp,34,→,right,→,0.6665331999538466,True,12,-1,0,3
Y2-S2-019K19,7,633,AS,exp,50,←,left,←,0.6390994999092072,True,12,1,1,4
Y2-S2-019K19,7,634,AS,exp,33,↓,right,→,0.6532663999823853,False,11,-1,1,5
Y2-S2-019K19,7,635,AS,exp,41,←,left,←,0.5351597999688238,True,12,-1,0,5
Y2-S2-019K19,7,636,AS,exp,27,↓,down,↓,0.7446691000368446,True,12,-1,0,5
Y2-S2-019K19,7,637,AS,exp,36,↑,down,↓,0.873565600020811,False,12,-1,0,5
Y2-S2-019K19,7,638,AS,exp,29,←,down,↓,1.000493900035508,False,13,-1,0,5
Y2-S2-019K19,7,639,AS,exp,40,→,right,→,0.6589681999757886,True,14,-1,0,5
Y2-S2-019K19,7,640,AS,exp,35,←,left,←,0.680047299945727,True,14,-1,0,5
Y2-S2-019K19,7,641,AS,exp,46,→,right,→,0.5650370999937877,True,14,1,1,6
Y2-S2-019K19,7,642,AS,exp,34,←,left,←,0.552338800043799,True,13,1,0,6
Y2-S2-019K19,7,643,AS,exp,47,↓,down,↓,0.7311939999926835,True,13,1,0,6
Y2-S2-019K19,7,644,AS,exp,35,←,left,←,0.6405436999630183,True,13,1,0,6
Y2-S2-019K19,7,645,AS,exp,44,↓,left,←,0.7650336000369862,False,12,-1,1,7
Y2-S2-019K19,7,646,AS,exp,47,→,right,→,0.5341673999791965,True,13,-1,0,7
Y2-S2-019K19,7,647,AS,exp,38,↓,down,↓,0.7223654000554234,True,13,-1,0,7
Y2-S2-019K19,7,648,AS,exp,43,↑,down,↓,0.9160361000103876,False,13,-1,0,7
Y2-S2-019K19,7,649,AS,exp,41,←,right,→,0.6207448000786826,False,14,-1,0,7
Y2-S2-019K19,7,650,AS,exp,34,↑,right,→,0.6812819999177009,False,15,-1,0,7
Y2-S2-019K19,7,651,AS,exp,26,↓,down,↓,0.7181995999999344,True,16,-1,0,7
Y2-S2-019K19,7,652,AS,exp,34,→,right,→,0.5946476999670267,True,16,-1,0,7
Y2-S2-019K19,7,653,AS,exp,36,↓,down,↓,0.739005499985069,True,16,1,1,8
Y2-S2-019K19,7,654,AS,exp,36,↑,up,↑,0.6549261999316514,True,15,1,0,8
Y2-S2-019K19,7,655,AS,exp,30,↓,down,↓,0.8542673999909312,True,15,1,0,8
Y2-S2-019K19,7,656,AS,exp,34,↑,right,→,0.6854588999412954,False,15,-1,1,9
Y2-S2-019K19,7,657,AS,exp,43,←,right,→,0.737303499947302,False,16,-1,0,9
Y2-S2-019K19,7,658,AS,exp,47,↓,down,↓,0.7346729000564665,True,17,-1,0,9
Y2-S2-019K19,7,659,AS,exp,50,←,left,←,0.5892845999915153,True,17,-1,0,9
Y2-S2-019K19,7,660,AS,exp,49,↓,down,↓,0.8547110999934375,True,17,1,1,10
Y2-S2-019K19,7,661,AS,exp,29,↑,up,↑,0.7166718000080436,True,16,1,0,10
Y2-S2-019K19,7,662,AS,exp,33,→,right,→,0.4807657999917865,True,16,1,0,10
Y2-S2-019K19,7,663,AS,exp,48,↓,down,↓,0.7000901000574231,True,16,1,0,10
Y2-S2-019K19,7,664,AS,exp,50,↑,up,↑,0.7549917000578716,True,15,1,0,10
Y2-S2-019K19,7,665,AS,exp,25,→,right,→,0.6305895000696182,True,15,1,0,10
Y2-S2-019K19,7,666,AS,exp,38,↑,up,↑,0.8524385000346228,True,15,1,0,10
Y2-S2-019K19,7,667,AS,exp,44,↓,down,↓,0.6717628999613225,True,14,1,0,10
Y2-S2-019K19,7,668,AS,exp,38,→,right,→,0.49320299993269145,True,14,1,0,10
Y2-S2-019K19,7,669,AS,exp,35,↓,down,↓,0.729958500014618,True,14,1,0,10
Y2-S2-019K19,7,670,AS,exp,41,↑,up,↑,0.9790428000269458,True,13,1,0,10
Y2-S2-019K19,7,671,AS,exp,48,←,left,←,0.607561600045301,True,13,1,0,10
Y2-S2-019K19,7,672,AS,exp,29,↑,up,↑,0.7078630999894813,True,13,1,0,10
Y2-S2-019K19,7,673,AS,exp,27,←,left,←,0.6661914000287652,True,12,1,0,10
Y2-S2-019K19,7,674,AS,exp,39,→,right,→,0.6211798000149429,True,12,1,0,10
Y2-S2-019K19,7,675,AS,exp,44,↑,left,←,0.8417778000002727,False,12,-1,1,11
Y2-S2-019K19,7,676,AS,exp,40,→,right,→,0.5312967000063509,True,13,-1,0,11
Y2-S2-019K19,7,677,AS,exp,44,↓,down,↓,0.733321400010027,True,13,-1,0,11
Y2-S2-019K19,7,678,AS,exp,49,↑,up,↑,0.8374113000463694,True,13,1,1,12
Y2-S2-019K19,7,679,AS,exp,42,←,right,→,0.568039600038901,False,12,-1,1,13
Y2-S2-019K19,7,680,AS,exp,42,↓,up,↑,0.8105055000633001,False,13,-1,0,13
Y2-S2-019K19,7,681,AS,exp,43,→,right,→,0.6633417999837548,True,14,-1,0,13
Y2-S2-019K19,7,682,AS,exp,43,↓,down,↓,0.7412045000819489,True,14,-1,0,13
Y2-S2-019K19,7,683,AS,exp,43,→,right,→,0.6133091000374407,True,14,1,1,14
Y2-S2-019K19,7,684,AS,exp,47,↓,down,↓,0.7643653000704944,True,13,1,0,14
Y2-S2-019K19,7,685,AS,exp,27,←,left,←,0.6622256999835372,True,13,1,0,14
Y2-S2-019K19,7,686,AS,exp,27,→,right,→,0.6614671000279486,True,13,1,0,14
Y2-S2-019K19,7,687,AS,exp,25,←,left,←,0.6546534999506548,True,12,1,0,14
Y2-S2-019K19,7,688,AS,exp,49,↓,down,↓,0.6859177000587806,True,12,1,0,14
Y2-S2-019K19,7,689,AS,exp,27,→,right,→,0.6286879000253975,True,12,1,0,14
Y2-S2-019K19,7,690,AS,exp,29,↑,up,↑,0.8000835999846458,True,11,1,0,14
Y2-S2-019K19,7,691,AS,exp,25,→,right,→,0.6663081999868155,True,11,1,0,14
Y2-S2-019K19,7,692,AS,exp,46,←,left,←,0.5721816999139264,True,11,1,0,14
Y2-S2-019K19,7,693,AS,exp,46,↓,down,↓,0.7638705999124795,True,10,1,0,14
Y2-S2-019K19,7,694,AS,exp,28,↑,down,↓,0.763627800042741,False,10,-1,1,15
Y2-S2-019K19,7,695,AS,exp,49,→,right,→,0.6622722999891266,True,11,-1,0,15
Y2-S2-019K19,7,696,AS,exp,46,↓,down,↓,0.8787793000228703,True,11,-1,0,15
Y2-S2-019K19,7,697,AS,exp,36,←,left,←,0.7506306999130175,True,11,1,1,16
Y2-S2-019K19,8,698,PS,intra_train,44,→,right,→,1.477622599923052,True,15,-,-,-
Y2-S2-019K19,8,699,PS,intra_train,46,↑,up,↑,0.9087788000470027,True,15,-,-,-
Y2-S2-019K19,8,700,PS,intra_train,34,↓,down,↓,0.8228342999937013,True,15,-,-,-
Y2-S2-019K19,8,701,PS,intra_train,47,↑,up,↑,0.8461824000114575,True,15,-,-,-
Y2-S2-019K19,8,702,PS,intra_train,38,←,right,→,0.7374310999875888,False,15,-,-,-
Y2-S2-019K19,8,703,PS,exp,39,↓,down,↓,0.7401138000423089,True,10,0,0,0
Y2-S2-019K19,8,704,PS,exp,25,↑,right,→,0.8113830999936908,False,10,-1,0,0
Y2-S2-019K19,8,705,PS,exp,28,→,right,→,0.6403706000419334,True,11,-1,0,0
Y2-S2-019K19,8,706,PS,exp,33,↑,up,↑,0.7654835999710485,True,11,-1,0,0
Y2-S2-019K19,8,707,PS,exp,44,→,right,→,0.6706167999655008,True,11,1,1,1
Y2-S2-019K19,8,708,PS,exp,38,↑,up,↑,0.7507184999994934,True,10,1,0,1
Y2-S2-019K19,8,709,PS,exp,29,→,right,→,0.5878808000124991,True,10,1,0,1
Y2-S2-019K19,8,710,PS,exp,45,↑,up,↑,0.6352956000482664,True,10,1,0,1
Y2-S2-019K19,8,711,PS,exp,44,→,right,→,0.5362385999178514,True,9,1,0,1
Y2-S2-019K19,8,712,PS,exp,45,↑,up,↑,0.7201336000580341,True,9,1,0,1
Y2-S2-019K19,8,713,PS,exp,27,→,right,→,0.5642390000866726,True,9,1,0,1
Y2-S2-019K19,8,714,PS,exp,47,↑,right,→,0.6778516999911517,False,8,-1,1,2
Y2-S2-019K19,8,715,PS,exp,46,←,left,←,0.6190324000781402,True,9,-1,0,2
Y2-S2-019K19,8,716,PS,exp,37,↓,down,↓,0.6807002999121323,True,9,-1,0,2
Y2-S2-019K19,8,717,PS,exp,30,←,left,←,0.6806592000648379,True,9,1,1,3
Y2-S2-019K19,8,718,PS,exp,43,↑,up,↑,0.6215053000487387,True,8,1,0,3
Y2-S2-019K19,8,719,PS,exp,27,→,right,→,0.5796621000627056,True,8,1,0,3
Y2-S2-019K19,8,720,PS,exp,46,↑,up,↑,0.5603531999513507,True,8,1,0,3
Y2-S2-019K19,8,721,PS,exp,43,↓,up,↑,0.9924373000394553,False,7,-1,1,4
Y2-S2-019K19,8,722,PS,exp,41,→,left,←,0.89802049996797,False,8,-1,0,4
Y2-S2-019K19,8,723,PS,exp,34,↑,up,↑,0.6848105000099167,True,9,-1,0,4
Y2-S2-019K19,8,724,PS,exp,47,↓,up,↑,0.6717163999564946,False,9,-1,0,4
Y2-S2-019K19,8,725,PS,exp,31,→,right,→,0.5977730999002233,True,10,-1,0,4
Y2-S2-019K19,8,726,PS,exp,33,↑,up,↑,0.6453524000244215,True,10,-1,0,4
Y2-S2-019K19,8,727,PS,exp,39,↓,down,↓,0.7081339000724256,True,10,1,1,5
Y2-S2-019K19,8,728,PS,exp,44,↑,up,↑,0.4779986999928951,True,9,1,0,5
Y2-S2-019K19,8,729,PS,exp,25,↓,down,↓,0.7168290000408888,True,9,1,0,5
Y2-S2-019K19,8,730,PS,exp,28,←,left,←,0.6492890999652445,True,9,1,0,5
Y2-S2-019K19,8,731,PS,exp,26,↓,up,↑,0.8302928000921384,False,8,-1,1,6
Y2-S2-019K19,8,732,PS,exp,45,↑,up,↑,0.634016599971801,True,9,-1,0,6
Y2-S2-019K19,8,733,PS,exp,39,↓,down,↓,0.6737430000212044,True,9,-1,0,6
Y2-S2-019K19,8,734,PS,exp,28,↑,up,↑,0.6949357999255881,True,9,1,1,7
Y2-S2-019K19,8,735,PS,exp,35,→,right,→,0.5281981999287382,True,8,1,0,7
Y2-S2-019K19,8,736,PS,exp,27,↑,up,↑,0.8062468999996781,True,8,1,0,7
Y2-S2-019K19,8,737,PS,exp,50,→,right,→,0.6083993000211194,True,8,1,0,7
Y2-S2-019K19,8,738,PS,exp,29,↓,down,↓,0.6301907999441028,True,7,1,0,7
Y2-S2-019K19,8,739,PS,exp,50,←,down,↓,0.8631678000092506,False,7,-1,1,8
Y2-S2-019K19,8,740,PS,exp,49,→,right,→,0.4548530000029132,True,8,-1,0,8
Y2-S2-019K19,8,741,PS,exp,39,↑,right,→,0.6493904000381008,False,8,-1,0,8
Y2-S2-019K19,8,742,PS,exp,41,←,left,←,0.6185836000367999,True,9,-1,0,8
Y2-S2-019K19,8,743,PS,exp,41,↑,left,←,0.8720712999347597,False,9,-1,0,8
Y2-S2-019K19,8,744,PS,exp,36,→,right,→,0.6618022000184283,True,10,-1,0,8
Y2-S2-019K19,8,745,PS,exp,30,↓,down,↓,0.7320654999930412,True,10,-1,0,8
Y2-S2-019K19,8,746,PS,exp,47,→,right,→,0.5464401000645012,True,10,1,1,9
Y2-S2-019K19,8,747,PS,exp,26,↓,right,→,1.1886128999758512,False,9,-1,1,10
Y2-S2-019K19,8,748,PS,exp,45,←,right,→,0.7303465999430045,False,10,-1,0,10
Y2-S2-019K19,8,749,PS,exp,46,↑,up,↑,0.7240868000080809,True,11,-1,0,10
Y2-S2-019K19,8,750,PS,exp,30,→,right,→,0.5610578000778332,True,11,-1,0,10
Y2-S2-019K19,8,751,PS,exp,44,↑,right,→,0.6431839999277145,False,11,-1,0,10
Y2-S2-019K19,8,752,PS,exp,46,←,left,←,0.5872318000765517,True,12,-1,0,10
Y2-S2-019K19,8,753,PS,exp,27,→,right,→,0.5881786000682041,True,12,-1,0,10
Y2-S2-019K19,8,754,PS,exp,47,←,left,←,0.6994513999670744,True,12,1,1,11
Y2-S2-019K19,8,755,PS,exp,30,↓,down,↓,0.7919815999921411,True,11,1,0,11
Y2-S2-019K19,8,756,PS,exp,36,↑,up,↑,0.7066123000113294,True,11,1,0,11
Y2-S2-019K19,8,757,PS,exp,46,→,right,→,0.47385519999079406,True,11,1,0,11
Y2-S2-019K19,8,758,PS,exp,36,←,left,←,0.5979244000045583,True,10,1,0,11
Y2-S2-019K19,8,759,PS,exp,34,↓,down,↓,0.8622267000610009,True,10,1,0,11
Y2-S2-019K19,8,760,PS,exp,32,↑,up,↑,0.8589512000326067,True,10,1,0,11
Y2-S2-019K19,8,761,PS,exp,40,←,left,←,0.5895292999921367,True,9,1,0,11
Y2-S2-019K19,8,762,PS,exp,47,↓,down,↓,0.6631574000930414,True,9,1,0,11
Y2-S2-019K19,8,763,PS,exp,42,→,left,←,0.930441299919039,False,9,-1,1,12
Y2-S2-019K19,8,764,PS,exp,35,↓,down,↓,0.8715354999294505,True,10,-1,0,12
Y2-S2-019K19,8,765,PS,exp,36,→,right,→,0.4514285000041127,True,10,-1,0,12
Y2-S2-019K19,8,766,PS,exp,45,↑,right,→,0.6928806999931112,False,10,-1,0,12
Y2-S2-019K19,8,767,PS,exp,47,↓,down,↓,0.7353688000002876,True,11,-1,0,12
Y2-S2-019K19,8,768,PS,exp,41,↑,up,↑,0.7075525999534875,True,11,-1,0,12
Y2-S2-019K19,8,769,PS,exp,49,↓,down,↓,0.640301899984479,True,11,1,1,13
Y2-S2-019K19,8,770,PS,exp,26,←,left,←,0.8671609000302851,True,10,1,0,13
Y2-S2-019K19,8,771,PS,exp,26,↓,down,↓,0.6182564001064748,True,10,1,0,13
Y2-S2-019K19,8,772,PS,exp,36,→,right,→,0.7332696999656036,True,10,1,0,13
Y2-S2-019K19,8,773,PS,exp,32,↓,down,↓,0.6145164000336081,True,9,1,0,13
Y2-S2-019K19,8,774,PS,exp,47,←,left,←,0.5886159000219777,True,9,1,0,13
Y2-S2-019K19,8,775,PS,exp,43,→,left,←,0.7974624999333173,False,9,-1,1,14
Y2-S2-019K19,8,776,PS,exp,42,↑,up,↑,0.6202350000385195,True,10,-1,0,14
Y2-S2-019K19,8,777,PS,exp,43,←,left,←,0.8958737999200821,True,10,-1,0,14
Y2-S2-019K19,8,778,PS,exp,42,↓,right,→,1.1417625999310985,False,10,-1,0,14
Y2-S2-019K19,8,779,PS,exp,40,→,right,→,0.4302964999806136,True,11,-1,0,14
Y2-S2-019K19,8,780,PS,exp,42,↓,up,↑,0.8325431999983266,False,11,-1,0,14
Y2-S2-019K19,8,781,PS,exp,26,↑,up,↑,0.6405260000610724,True,12,-1,0,14
Y2-S2-019K19,8,782,PS,exp,45,←,left,←,0.5336362000089139,True,12,-1,0,14
Y2-S2-019K19,8,783,PS,exp,43,↓,down,↓,0.7458279000129551,True,12,1,1,15
Y2-S2-019K19,8,784,PS,exp,27,↑,up,↑,0.615699699963443,True,11,1,0,15
Y2-S2-019K19,8,785,PS,exp,46,↓,down,↓,0.6333549000555649,True,11,1,0,15
Y2-S2-019K19,8,786,PS,exp,31,→,right,→,0.8883878999622539,True,11,1,0,15
Y2-S2-019K19,8,787,PS,exp,49,↑,up,↑,0.5290895999642089,True,10,1,0,15
Y2-S2-019K19,8,788,PS,exp,46,↓,down,↓,0.7964977000374347,True,10,1,0,15
Y2-S2-019K19,8,789,PS,exp,26,→,right,→,0.4779589999234304,True,10,1,0,15
Y2-S2-019K19,8,790,PS,exp,47,↓,right,→,1.2528367000631988,False,9,-1,1,16
