PART_ID,Block_no,Trial_no,Block_type,Trial_type,CSI,Stim_letter,Key_pressed,letter_choose,Rt,Corr,Stimulus Time,Level,Reversal,Revs_count
Y2-S2-153K20,1,1,PS,train,26,→,right,→,0.9896034998819232,True,30,-,-,-
Y2-S2-153K20,1,2,PS,train,32,←,left,←,0.7541669998317957,True,30,-,-,-
Y2-S2-153K20,1,3,PS,train,47,↑,up,↑,0.8971763998270035,True,30,-,-,-
Y2-S2-153K20,1,4,PS,train,49,→,right,→,0.6907313000410795,True,30,-,-,-
Y2-S2-153K20,1,5,PS,train,50,↑,up,↑,0.8626496000215411,True,30,-,-,-
Y2-S2-153K20,1,6,PS,train,48,←,left,←,0.6914921002462506,True,30,-,-,-
Y2-S2-153K20,1,7,PS,train,37,↑,up,↑,0.6174519001506269,True,30,-,-,-
Y2-S2-153K20,1,8,PS,train,29,↓,down,↓,0.7654138002544641,True,30,-,-,-
Y2-S2-153K20,1,9,PS,train,28,↑,up,↑,0.7693768003955483,True,30,-,-,-
Y2-S2-153K20,1,10,PS,train,44,↓,no_key,no_letter,-1.0,False,30,-,-,-
Y2-S2-153K20,2,11,AS,train,36,←,left,←,0.7674754001200199,True,45,-,-,-
Y2-S2-153K20,2,12,AS,train,37,↓,down,↓,0.7839601999148726,True,45,-,-,-
Y2-S2-153K20,2,13,AS,train,40,↑,up,↑,0.7672206000424922,True,45,-,-,-
Y2-S2-153K20,2,14,AS,train,29,→,right,→,0.7516167997382581,True,45,-,-,-
Y2-S2-153K20,2,15,AS,train,26,←,left,←,0.6180296000093222,True,45,-,-,-
Y2-S2-153K20,2,16,AS,train,36,↓,down,↓,0.5514406999573112,True,45,-,-,-
Y2-S2-153K20,2,17,AS,train,32,→,right,→,0.8843825999647379,True,45,-,-,-
Y2-S2-153K20,2,18,AS,train,47,↑,up,↑,0.8173091001808643,True,45,-,-,-
Y2-S2-153K20,2,19,AS,train,38,←,left,←,0.7504524998366833,True,45,-,-,-
Y2-S2-153K20,2,20,AS,train,42,↓,down,↓,0.7679297002032399,True,45,-,-,-
Y2-S2-153K20,-,21,PS,adaptive,25,→,right,→,0.6627391995862126,True,10,0,0,0
Y2-S2-153K20,-,22,PS,adaptive,37,↓,down,↓,0.5318089998327196,True,10,0,0,0
Y2-S2-153K20,-,23,PS,adaptive,27,→,right,→,0.5679828003048897,True,10,1,0,0
Y2-S2-153K20,-,24,PS,adaptive,29,←,left,←,0.7088693999685347,True,9,1,0,0
Y2-S2-153K20,-,25,PS,adaptive,33,↓,down,↓,0.5471750004217029,True,9,1,0,0
Y2-S2-153K20,-,26,PS,adaptive,31,↑,up,↑,0.6330421003513038,True,9,1,0,0
Y2-S2-153K20,-,27,PS,adaptive,36,←,left,←,0.5528605999425054,True,8,1,0,0
Y2-S2-153K20,-,28,PS,adaptive,26,↓,down,↓,0.7558315000496805,True,8,1,0,0
Y2-S2-153K20,-,29,PS,adaptive,34,↑,up,↑,0.898877099622041,True,8,1,0,0
Y2-S2-153K20,-,30,PS,adaptive,37,←,left,←,0.6610844996757805,True,7,1,0,0
Y2-S2-153K20,-,31,PS,adaptive,37,→,right,→,0.7188089000992477,True,7,1,0,0
Y2-S2-153K20,-,32,PS,adaptive,39,↓,down,↓,0.6512679997831583,True,7,1,0,0
Y2-S2-153K20,-,33,PS,adaptive,26,→,right,→,0.7571880002506077,True,6,1,0,0
Y2-S2-153K20,-,34,PS,adaptive,36,←,left,←,0.6479468997567892,True,6,1,0,0
Y2-S2-153K20,-,35,PS,adaptive,26,↑,left,←,0.5977048999629915,False,6,-1,1,1
Y2-S2-153K20,-,36,PS,adaptive,42,↓,down,↓,0.6726653999648988,True,7,-1,0,1
Y2-S2-153K20,-,37,PS,adaptive,37,→,right,→,0.634043799713254,True,7,-1,0,1
Y2-S2-153K20,-,38,PS,adaptive,35,←,left,←,0.5935144000686705,True,7,1,1,2
Y2-S2-153K20,-,39,PS,adaptive,39,→,right,→,0.6456400998868048,True,6,1,0,2
Y2-S2-153K20,-,40,PS,adaptive,44,←,left,←,0.660238899756223,True,6,1,0,2
Y2-S2-153K20,-,41,PS,adaptive,46,↑,up,↑,0.5743726002983749,True,6,1,0,2
Y2-S2-153K20,-,42,PS,adaptive,33,→,up,↑,0.7063613003119826,False,5,-1,1,3
Y2-S2-153K20,-,43,PS,adaptive,25,↑,up,↑,0.742356900125742,True,6,-1,0,3
Y2-S2-153K20,-,44,PS,adaptive,48,→,left,←,0.624012699816376,False,6,-1,0,3
Y2-S2-153K20,-,45,PS,adaptive,25,←,down,↓,0.7439060001634061,False,7,-1,0,3
Y2-S2-153K20,-,46,PS,adaptive,39,↓,left,←,0.631519400049001,False,8,-1,0,3
Y2-S2-153K20,-,47,PS,adaptive,33,←,left,←,0.5801427001133561,True,9,-1,0,3
Y2-S2-153K20,-,48,PS,adaptive,46,↑,up,↑,0.5660791001282632,True,9,-1,0,3
Y2-S2-153K20,-,49,PS,adaptive,25,↓,up,↑,0.7849980001337826,False,9,-1,0,3
Y2-S2-153K20,-,50,PS,adaptive,26,←,left,←,0.6531008002348244,True,10,-1,0,3
Y2-S2-153K20,-,51,PS,adaptive,35,↓,down,↓,0.682275699917227,True,10,-1,0,3
Y2-S2-153K20,-,52,PS,adaptive,36,→,down,↓,1.0040926001966,False,10,-1,0,3
Y2-S2-153K20,-,53,PS,adaptive,43,←,left,←,1.0101757999509573,True,11,-1,0,3
Y2-S2-153K20,-,54,PS,adaptive,31,→,right,→,0.8349902997724712,True,11,-1,0,3
Y2-S2-153K20,-,55,PS,adaptive,47,↑,up,↑,0.6227819002233446,True,11,1,1,4
Y2-S2-153K20,-,56,AS,adaptive,32,→,right,→,0.7905576997436583,True,20,0,0,0
Y2-S2-153K20,-,57,AS,adaptive,34,↓,left,←,0.9040133003145456,False,20,-1,0,0
Y2-S2-153K20,-,58,AS,adaptive,50,←,left,←,0.9391960999928415,True,21,-1,0,0
Y2-S2-153K20,-,59,AS,adaptive,37,↑,up,↑,0.7668892997317016,True,21,-1,0,0
Y2-S2-153K20,-,60,AS,adaptive,27,→,right,→,0.6991423997096717,True,21,1,1,1
Y2-S2-153K20,-,61,AS,adaptive,36,↑,down,↓,0.6349558997899294,False,20,-1,1,2
Y2-S2-153K20,-,62,AS,adaptive,34,↓,down,↓,0.731892999727279,True,21,-1,0,2
Y2-S2-153K20,-,63,AS,adaptive,37,←,left,←,0.6502984999679029,True,21,-1,0,2
Y2-S2-153K20,-,64,AS,adaptive,46,↑,up,↑,0.8485824000090361,True,21,1,1,3
Y2-S2-153K20,-,65,AS,adaptive,49,→,right,→,0.6685583000071347,True,20,1,0,3
Y2-S2-153K20,-,66,AS,adaptive,37,↑,up,↑,0.6585768000222743,True,20,1,0,3
Y2-S2-153K20,-,67,AS,adaptive,41,←,up,↑,0.9000411001034081,False,20,-1,1,4
Y2-S2-153K20,1,68,PS,intra_train,29,↑,up,↑,0.6244065999053419,True,15,-,-,-
Y2-S2-153K20,1,69,PS,intra_train,35,←,left,←,0.9462250997312367,True,15,-,-,-
Y2-S2-153K20,1,70,PS,intra_train,40,↑,up,↑,0.6068838997744024,True,15,-,-,-
Y2-S2-153K20,1,71,PS,intra_train,30,→,right,→,0.5323925004340708,True,15,-,-,-
Y2-S2-153K20,1,72,PS,intra_train,26,↓,down,↓,0.6243445998989046,True,15,-,-,-
Y2-S2-153K20,1,73,PS,exp,31,↑,up,↑,0.6026161997579038,True,10,0,0,0
Y2-S2-153K20,1,74,PS,exp,40,←,left,←,0.5154850999824703,True,10,0,0,0
Y2-S2-153K20,1,75,PS,exp,41,→,right,→,0.7879265001975,True,10,1,0,0
Y2-S2-153K20,1,76,PS,exp,47,↑,up,↑,0.5491504999808967,True,9,1,0,0
Y2-S2-153K20,1,77,PS,exp,50,→,right,→,0.4882837003096938,True,9,1,0,0
Y2-S2-153K20,1,78,PS,exp,43,←,right,→,0.8293169001117349,False,9,-1,1,1
Y2-S2-153K20,1,79,PS,exp,26,↓,down,↓,0.7090699998661876,True,10,-1,0,1
Y2-S2-153K20,1,80,PS,exp,48,←,left,←,0.6387984999455512,True,10,-1,0,1
Y2-S2-153K20,1,81,PS,exp,44,↓,right,→,0.659856699872762,False,10,-1,0,1
Y2-S2-153K20,1,82,PS,exp,49,→,up,↑,0.919081199914217,False,11,-1,0,1
Y2-S2-153K20,1,83,PS,exp,27,↓,down,↓,0.7183289998210967,True,12,-1,0,1
Y2-S2-153K20,1,84,PS,exp,25,→,right,→,0.5792673001997173,True,12,-1,0,1
Y2-S2-153K20,1,85,PS,exp,34,↓,down,↓,0.6406222996301949,True,12,1,1,2
Y2-S2-153K20,1,86,PS,exp,28,→,right,→,0.5379379000514746,True,11,1,0,2
Y2-S2-153K20,1,87,PS,exp,48,↑,up,↑,0.5873022000305355,True,11,1,0,2
Y2-S2-153K20,1,88,PS,exp,36,→,right,→,0.8582635996863246,True,11,1,0,2
Y2-S2-153K20,1,89,PS,exp,30,←,left,←,0.56506900023669,True,10,1,0,2
Y2-S2-153K20,1,90,PS,exp,26,↑,up,↑,0.5605027000419796,True,10,1,0,2
Y2-S2-153K20,1,91,PS,exp,39,←,left,←,0.6083164000883698,True,10,1,0,2
Y2-S2-153K20,1,92,PS,exp,34,↑,left,←,0.7314280001446605,False,9,-1,1,3
Y2-S2-153K20,1,93,PS,exp,41,←,left,←,0.538427600171417,True,10,-1,0,3
Y2-S2-153K20,1,94,PS,exp,38,↓,down,↓,0.6860047001391649,True,10,-1,0,3
Y2-S2-153K20,1,95,PS,exp,31,↑,up,↑,0.5551489000208676,True,10,1,1,4
Y2-S2-153K20,1,96,PS,exp,37,←,down,↓,0.8077748003415763,False,9,-1,1,5
Y2-S2-153K20,1,97,PS,exp,40,↑,up,↑,0.6229250999167562,True,10,-1,0,5
Y2-S2-153K20,1,98,PS,exp,31,→,right,→,0.46844720002263784,True,10,-1,0,5
Y2-S2-153K20,1,99,PS,exp,28,←,left,←,0.6709082000888884,True,10,1,1,6
Y2-S2-153K20,1,100,PS,exp,33,↑,up,↑,0.6658262996934354,True,9,1,0,6
Y2-S2-153K20,1,101,PS,exp,25,→,right,→,0.7021948001347482,True,9,1,0,6
Y2-S2-153K20,1,102,PS,exp,42,←,up,↑,1.1406761002726853,False,9,-1,1,7
Y2-S2-153K20,1,103,PS,exp,46,↑,up,↑,0.7300133998505771,True,10,-1,0,7
Y2-S2-153K20,1,104,PS,exp,44,↓,down,↓,0.644057400058955,True,10,-1,0,7
Y2-S2-153K20,1,105,PS,exp,28,→,right,→,0.514909999910742,True,10,1,1,8
Y2-S2-153K20,1,106,PS,exp,36,←,right,→,1.3809671998023987,False,9,-1,1,9
Y2-S2-153K20,1,107,PS,exp,44,↓,down,↓,0.8179815001785755,True,10,-1,0,9
Y2-S2-153K20,1,108,PS,exp,41,←,left,←,0.6076390999369323,True,10,-1,0,9
Y2-S2-153K20,1,109,PS,exp,40,→,left,←,0.6932223001495004,False,10,-1,0,9
Y2-S2-153K20,1,110,PS,exp,45,↑,up,↑,0.536843600217253,True,11,-1,0,9
Y2-S2-153K20,1,111,PS,exp,40,→,right,→,0.6050404999405146,True,11,-1,0,9
Y2-S2-153K20,1,112,PS,exp,48,←,left,←,0.5175358997657895,True,11,1,1,10
Y2-S2-153K20,1,113,PS,exp,40,→,right,→,0.5969674997031689,True,10,1,0,10
Y2-S2-153K20,1,114,PS,exp,33,↑,up,↑,0.4813866997137666,True,10,1,0,10
Y2-S2-153K20,1,115,PS,exp,42,→,right,→,0.5447350000031292,True,10,1,0,10
Y2-S2-153K20,1,116,PS,exp,26,↓,down,↓,0.817845200188458,True,9,1,0,10
Y2-S2-153K20,1,117,PS,exp,43,→,right,→,0.6425838000141084,True,9,1,0,10
Y2-S2-153K20,1,118,PS,exp,37,↓,down,↓,0.6313306000083685,True,9,1,0,10
Y2-S2-153K20,1,119,PS,exp,32,→,right,→,0.5611168998293579,True,8,1,0,10
Y2-S2-153K20,1,120,PS,exp,40,←,left,←,0.7708544000051916,True,8,1,0,10
Y2-S2-153K20,1,121,PS,exp,47,↓,down,↓,0.6963738999329507,True,8,1,0,10
Y2-S2-153K20,1,122,PS,exp,48,←,up,↑,0.7814366999082267,False,7,-1,1,11
Y2-S2-153K20,1,123,PS,exp,35,→,right,→,0.6053857998922467,True,8,-1,0,11
Y2-S2-153K20,1,124,PS,exp,28,↑,up,↑,0.7329966998659074,True,8,-1,0,11
Y2-S2-153K20,1,125,PS,exp,34,←,left,←,0.552254999987781,True,8,1,1,12
Y2-S2-153K20,1,126,PS,exp,47,→,right,→,0.5119181000627577,True,7,1,0,12
Y2-S2-153K20,1,127,PS,exp,43,←,right,→,0.6630176999606192,False,7,-1,1,13
Y2-S2-153K20,1,128,PS,exp,27,→,right,→,0.8025574996136129,True,8,-1,0,13
Y2-S2-153K20,1,129,PS,exp,47,←,left,←,0.7519708001054823,True,8,-1,0,13
Y2-S2-153K20,1,130,PS,exp,41,→,left,←,0.8009922001510859,False,8,-1,0,13
Y2-S2-153K20,1,131,PS,exp,44,←,right,→,0.5749202999286354,False,9,-1,0,13
Y2-S2-153K20,1,132,PS,exp,37,↓,down,↓,0.6375636998564005,True,10,-1,0,13
Y2-S2-153K20,1,133,PS,exp,48,←,left,←,0.635927100200206,True,10,-1,0,13
Y2-S2-153K20,1,134,PS,exp,29,↓,down,↓,0.6196695999242365,True,10,1,1,14
Y2-S2-153K20,1,135,PS,exp,31,→,right,→,0.4928297000005841,True,9,1,0,14
Y2-S2-153K20,1,136,PS,exp,43,↑,down,↓,1.0681715998798609,False,9,-1,1,15
Y2-S2-153K20,1,137,PS,exp,38,←,left,←,0.4999551000073552,True,10,-1,0,15
Y2-S2-153K20,1,138,PS,exp,50,↑,up,↑,0.5572285000234842,True,10,-1,0,15
Y2-S2-153K20,1,139,PS,exp,42,←,right,→,0.7556129996664822,False,10,-1,0,15
Y2-S2-153K20,1,140,PS,exp,40,→,up,↑,1.057515099644661,False,11,-1,0,15
Y2-S2-153K20,1,141,PS,exp,42,↓,down,↓,0.6033167000859976,True,12,-1,0,15
Y2-S2-153K20,1,142,PS,exp,28,←,left,←,0.4923461996950209,True,12,-1,0,15
Y2-S2-153K20,1,143,PS,exp,25,↑,right,→,1.7459451998583972,False,12,-1,0,15
Y2-S2-153K20,1,144,PS,exp,37,←,left,←,0.5267768003977835,True,13,-1,0,15
Y2-S2-153K20,1,145,PS,exp,44,↓,right,→,1.087695499882102,False,13,-1,0,15
Y2-S2-153K20,1,146,PS,exp,49,↑,up,↑,0.6542708999477327,True,14,-1,0,15
Y2-S2-153K20,1,147,PS,exp,43,↓,down,↓,0.5109948003664613,True,14,-1,0,15
Y2-S2-153K20,1,148,PS,exp,27,→,down,↓,0.938033299986273,False,14,-1,0,15
Y2-S2-153K20,1,149,PS,exp,37,↓,down,↓,0.9670544001273811,True,15,-1,0,15
Y2-S2-153K20,1,150,PS,exp,36,↑,down,↓,0.8426855001598597,False,15,-1,0,15
Y2-S2-153K20,1,151,PS,exp,31,←,left,←,0.5343806999735534,True,16,-1,0,15
Y2-S2-153K20,1,152,PS,exp,29,↓,down,↓,0.7737376997247338,True,16,-1,0,15
Y2-S2-153K20,1,153,PS,exp,25,↑,down,↓,0.83152149990201,False,16,-1,0,15
Y2-S2-153K20,1,154,PS,exp,33,←,down,↓,1.1294701998122036,False,17,-1,0,15
Y2-S2-153K20,1,155,PS,exp,32,↑,up,↑,0.5893124002031982,True,18,-1,0,15
Y2-S2-153K20,1,156,PS,exp,49,←,left,←,0.8624505000188947,True,18,-1,0,15
Y2-S2-153K20,1,157,PS,exp,27,↓,down,↓,0.6951008001342416,True,18,1,1,16
Y2-S2-153K20,2,158,AS,intra_train,46,↑,up,↑,0.9355236003175378,True,31,-,-,-
Y2-S2-153K20,2,159,AS,intra_train,44,→,right,→,0.6175040998496115,True,31,-,-,-
Y2-S2-153K20,2,160,AS,intra_train,37,←,no_key,no_letter,-1.0,False,31,-,-,-
Y2-S2-153K20,2,161,AS,intra_train,38,↓,down,↓,0.7643927000463009,True,31,-,-,-
Y2-S2-153K20,2,162,AS,intra_train,29,→,right,→,0.730657400097698,True,31,-,-,-
Y2-S2-153K20,2,163,AS,exp,42,↓,down,↓,0.6379011999815702,True,21,0,0,0
Y2-S2-153K20,2,164,AS,exp,29,→,right,→,1.3079379997216165,True,21,0,0,0
Y2-S2-153K20,2,165,AS,exp,32,↓,down,↓,0.8627602001652122,True,21,1,0,0
Y2-S2-153K20,2,166,AS,exp,37,↑,up,↑,1.0149517999961972,True,20,1,0,0
Y2-S2-153K20,2,167,AS,exp,32,↓,down,↓,0.8751898002810776,True,20,1,0,0
Y2-S2-153K20,2,168,AS,exp,34,↑,down,↓,0.73394830012694,False,20,-1,1,1
Y2-S2-153K20,2,169,AS,exp,26,←,left,←,0.6732236999087036,True,21,-1,0,1
Y2-S2-153K20,2,170,AS,exp,25,↓,down,↓,0.7469443995505571,True,21,-1,0,1
Y2-S2-153K20,2,171,AS,exp,27,←,right,→,0.5705599002540112,False,21,-1,0,1
Y2-S2-153K20,2,172,AS,exp,25,↑,down,↓,0.6379925003275275,False,22,-1,0,1
Y2-S2-153K20,2,173,AS,exp,42,←,down,↓,0.6282394002191722,False,23,-1,0,1
Y2-S2-153K20,2,174,AS,exp,26,↓,down,↓,0.6219063000753522,True,24,-1,0,1
Y2-S2-153K20,2,175,AS,exp,45,→,right,→,0.8038257001899183,True,24,-1,0,1
Y2-S2-153K20,2,176,AS,exp,36,←,left,←,0.4677976998500526,True,24,1,1,2
Y2-S2-153K20,2,177,AS,exp,42,→,right,→,0.6671589999459684,True,23,1,0,2
Y2-S2-153K20,2,178,AS,exp,35,↑,up,↑,1.0216806000098586,True,23,1,0,2
Y2-S2-153K20,2,179,AS,exp,37,↓,down,↓,1.0092754000797868,True,23,1,0,2
Y2-S2-153K20,2,180,AS,exp,37,↑,up,↑,0.8644970003515482,True,22,1,0,2
Y2-S2-153K20,2,181,AS,exp,42,←,left,←,0.7574799000285566,True,22,1,0,2
Y2-S2-153K20,2,182,AS,exp,30,↓,down,↓,0.9586057998239994,True,22,1,0,2
Y2-S2-153K20,2,183,AS,exp,40,←,left,←,0.7214023000560701,True,21,1,0,2
Y2-S2-153K20,2,184,AS,exp,32,↓,down,↓,0.7411414999514818,True,21,1,0,2
Y2-S2-153K20,2,185,AS,exp,31,←,left,←,0.7040021000429988,True,21,1,0,2
Y2-S2-153K20,2,186,AS,exp,27,→,right,→,0.6735676000826061,True,20,1,0,2
Y2-S2-153K20,2,187,AS,exp,27,←,left,←,0.8354462999850512,True,20,1,0,2
Y2-S2-153K20,2,188,AS,exp,44,↑,up,↑,1.094418200198561,True,20,1,0,2
Y2-S2-153K20,2,189,AS,exp,30,↓,down,↓,0.9674249002709985,True,19,1,0,2
Y2-S2-153K20,2,190,AS,exp,33,←,left,←,0.5599265000782907,True,19,1,0,2
Y2-S2-153K20,2,191,AS,exp,31,↓,down,↓,0.9349731002002954,True,19,1,0,2
Y2-S2-153K20,2,192,AS,exp,41,←,right,→,1.410440200008452,False,18,-1,1,3
Y2-S2-153K20,2,193,AS,exp,34,↓,down,↓,0.8536649998277426,True,19,-1,0,3
Y2-S2-153K20,2,194,AS,exp,49,↑,up,↑,0.8354692999273539,True,19,-1,0,3
Y2-S2-153K20,2,195,AS,exp,47,→,right,→,0.8728106003254652,True,19,1,1,4
Y2-S2-153K20,2,196,AS,exp,27,←,up,↑,1.1294506001286209,False,18,-1,1,5
Y2-S2-153K20,2,197,AS,exp,38,↑,up,↑,0.7848712000995874,True,19,-1,0,5
Y2-S2-153K20,2,198,AS,exp,30,→,right,→,0.7530371001921594,True,19,-1,0,5
Y2-S2-153K20,2,199,AS,exp,34,↓,up,↑,0.8502389998175204,False,19,-1,0,5
Y2-S2-153K20,2,200,AS,exp,28,↑,up,↑,0.64576519979164,True,20,-1,0,5
Y2-S2-153K20,2,201,AS,exp,33,↓,up,↑,0.7446858999319375,False,20,-1,0,5
Y2-S2-153K20,2,202,AS,exp,41,←,up,↑,1.0222322000190616,False,21,-1,0,5
Y2-S2-153K20,2,203,AS,exp,37,↓,down,↓,0.8939094999805093,True,22,-1,0,5
Y2-S2-153K20,2,204,AS,exp,46,→,right,→,0.593355099670589,True,22,-1,0,5
Y2-S2-153K20,2,205,AS,exp,36,↓,up,↑,1.127691200003028,False,22,-1,0,5
Y2-S2-153K20,2,206,AS,exp,28,↑,down,↓,0.947585899848491,False,23,-1,0,5
Y2-S2-153K20,2,207,AS,exp,39,↓,down,↓,0.7458589999005198,True,24,-1,0,5
Y2-S2-153K20,2,208,AS,exp,28,→,right,→,0.7631082995794713,True,24,-1,0,5
Y2-S2-153K20,2,209,AS,exp,47,↓,down,↓,0.9117767000570893,True,24,1,1,6
Y2-S2-153K20,2,210,AS,exp,29,→,right,→,0.6803808002732694,True,23,1,0,6
Y2-S2-153K20,2,211,AS,exp,42,↓,down,↓,0.6291006999090314,True,23,1,0,6
Y2-S2-153K20,2,212,AS,exp,46,→,right,→,0.7641421002335846,True,23,1,0,6
Y2-S2-153K20,2,213,AS,exp,37,↑,up,↑,0.8384751998819411,True,22,1,0,6
Y2-S2-153K20,2,214,AS,exp,37,↓,down,↓,0.743440399877727,True,22,1,0,6
Y2-S2-153K20,2,215,AS,exp,49,←,left,←,0.48401129990816116,True,22,1,0,6
Y2-S2-153K20,2,216,AS,exp,25,↓,down,↓,0.7804837999865413,True,21,1,0,6
Y2-S2-153K20,2,217,AS,exp,27,←,right,→,0.9680237001739442,False,21,-1,1,7
Y2-S2-153K20,2,218,AS,exp,25,→,right,→,0.7988233999349177,True,22,-1,0,7
Y2-S2-153K20,2,219,AS,exp,41,↓,down,↓,0.8060870999470353,True,22,-1,0,7
Y2-S2-153K20,2,220,AS,exp,41,←,left,←,0.6652427003718913,True,22,1,1,8
Y2-S2-153K20,2,221,AS,exp,28,→,right,→,0.680711000226438,True,21,1,0,8
Y2-S2-153K20,2,222,AS,exp,35,←,left,←,0.6174762002192438,True,21,1,0,8
Y2-S2-153K20,2,223,AS,exp,49,↑,down,↓,0.7805106998421252,False,21,-1,1,9
Y2-S2-153K20,2,224,AS,exp,40,←,right,→,0.7080508000217378,False,22,-1,0,9
Y2-S2-153K20,2,225,AS,exp,50,→,right,→,0.6398288998752832,True,23,-1,0,9
Y2-S2-153K20,2,226,AS,exp,25,←,no_key,no_letter,-1.0,False,23,-1,0,9
Y2-S2-153K20,2,227,AS,exp,43,→,right,→,0.6826050002127886,True,24,-1,0,9
Y2-S2-153K20,2,228,AS,exp,33,←,left,←,0.6391333998180926,True,24,-1,0,9
Y2-S2-153K20,2,229,AS,exp,48,→,right,→,0.6051114001311362,True,24,1,1,10
Y2-S2-153K20,2,230,AS,exp,44,←,left,←,0.5177850001491606,True,23,1,0,10
Y2-S2-153K20,2,231,AS,exp,48,↑,up,↑,0.8198100998997688,True,23,1,0,10
Y2-S2-153K20,2,232,AS,exp,35,↓,down,↓,0.85998440021649,True,23,1,0,10
Y2-S2-153K20,2,233,AS,exp,48,↑,up,↑,0.6230582999996841,True,22,1,0,10
Y2-S2-153K20,2,234,AS,exp,31,→,right,→,0.744285199791193,True,22,1,0,10
Y2-S2-153K20,2,235,AS,exp,46,↑,up,↑,0.6127574997954071,True,22,1,0,10
Y2-S2-153K20,2,236,AS,exp,47,↓,down,↓,0.7813094002194703,True,21,1,0,10
Y2-S2-153K20,2,237,AS,exp,45,↑,up,↑,0.5832978999242187,True,21,1,0,10
Y2-S2-153K20,2,238,AS,exp,43,→,right,→,0.7261414001695812,True,21,1,0,10
Y2-S2-153K20,2,239,AS,exp,26,↓,up,↑,0.5793324997648597,False,20,-1,1,11
Y2-S2-153K20,2,240,AS,exp,32,←,left,←,0.6484118001535535,True,21,-1,0,11
Y2-S2-153K20,2,241,AS,exp,33,↑,up,↑,0.6311618001200259,True,21,-1,0,11
Y2-S2-153K20,2,242,AS,exp,48,←,left,←,0.7521967999637127,True,21,1,1,12
Y2-S2-153K20,2,243,AS,exp,43,↑,up,↑,0.5358135998249054,True,20,1,0,12
Y2-S2-153K20,2,244,AS,exp,33,←,left,←,0.7327692001126707,True,20,1,0,12
Y2-S2-153K20,2,245,AS,exp,37,↓,down,↓,0.7320541003718972,True,20,1,0,12
Y2-S2-153K20,2,246,AS,exp,45,→,right,→,0.7136462000198662,True,19,1,0,12
Y2-S2-153K20,2,247,AS,exp,35,↑,up,↑,0.7783941999077797,True,19,1,0,12
Y2-S2-153K20,2,248,AS,exp,35,↓,up,↑,0.8943173997104168,False,19,-1,1,13
Y2-S2-153K20,2,249,AS,exp,49,→,right,→,0.6964739998802543,True,20,-1,0,13
Y2-S2-153K20,2,250,AS,exp,48,↓,up,↑,0.7946879002265632,False,20,-1,0,13
Y2-S2-153K20,2,251,AS,exp,34,→,right,→,0.7959802001714706,True,21,-1,0,13
Y2-S2-153K20,2,252,AS,exp,50,←,left,←,0.8078403999097645,True,21,-1,0,13
Y2-S2-153K20,2,253,AS,exp,31,↑,up,↑,0.8329283003695309,True,21,1,1,14
Y2-S2-153K20,2,254,AS,exp,32,→,right,→,0.7917292001657188,True,20,1,0,14
Y2-S2-153K20,2,255,AS,exp,45,←,left,←,0.6431956999003887,True,20,1,0,14
Y2-S2-153K20,2,256,AS,exp,41,↓,down,↓,0.8658497999422252,True,20,1,0,14
Y2-S2-153K20,2,257,AS,exp,38,↑,up,↑,0.6234023999422789,True,19,1,0,14
Y2-S2-153K20,2,258,AS,exp,29,→,right,→,0.7950478000566363,True,19,1,0,14
Y2-S2-153K20,2,259,AS,exp,50,↑,down,↓,0.9350061998702586,False,19,-1,1,15
Y2-S2-153K20,2,260,AS,exp,29,←,left,←,0.9155353000387549,True,20,-1,0,15
Y2-S2-153K20,2,261,AS,exp,37,↑,no_key,no_letter,-1.0,False,20,-1,0,15
Y2-S2-153K20,2,262,AS,exp,50,→,right,→,0.7186278998851776,True,21,-1,0,15
Y2-S2-153K20,2,263,AS,exp,35,↑,up,↑,0.7606180999428034,True,21,-1,0,15
Y2-S2-153K20,2,264,AS,exp,38,→,right,→,0.6458266000263393,True,21,1,1,16
Y2-S2-153K20,3,265,AS,intra_train,41,↑,up,↑,0.8398261000402272,True,31,-,-,-
Y2-S2-153K20,3,266,AS,intra_train,45,→,right,→,0.5840738001279533,True,31,-,-,-
Y2-S2-153K20,3,267,AS,intra_train,36,↑,up,↑,0.6004282999783754,True,31,-,-,-
Y2-S2-153K20,3,268,AS,intra_train,49,←,left,←,0.617773300036788,True,31,-,-,-
Y2-S2-153K20,3,269,AS,intra_train,27,↑,no_key,no_letter,-1.0,False,31,-,-,-
Y2-S2-153K20,3,270,AS,exp,29,→,right,→,0.7404153998941183,True,21,0,0,0
Y2-S2-153K20,3,271,AS,exp,37,↓,down,↓,0.8465649001300335,True,21,0,0,0
Y2-S2-153K20,3,272,AS,exp,29,↑,up,↑,0.7738017002120614,True,21,1,0,0
Y2-S2-153K20,3,273,AS,exp,38,→,right,→,0.7305092001333833,True,20,1,0,0
Y2-S2-153K20,3,274,AS,exp,39,↑,up,↑,0.6418222999200225,True,20,1,0,0
Y2-S2-153K20,3,275,AS,exp,32,↓,down,↓,0.6512502003461123,True,20,1,0,0
Y2-S2-153K20,3,276,AS,exp,37,←,left,←,0.6767629999667406,True,19,1,0,0
Y2-S2-153K20,3,277,AS,exp,43,→,up,↑,0.8065753998234868,False,19,-1,1,1
Y2-S2-153K20,3,278,AS,exp,27,↓,down,↓,0.6985617000609636,True,20,-1,0,1
Y2-S2-153K20,3,279,AS,exp,25,↑,up,↑,0.8263401999138296,True,20,-1,0,1
Y2-S2-153K20,3,280,AS,exp,46,→,left,←,0.5316472998820245,False,20,-1,0,1
Y2-S2-153K20,3,281,AS,exp,30,←,left,←,0.6278135003522038,True,21,-1,0,1
Y2-S2-153K20,3,282,AS,exp,29,↑,up,↑,0.8845814000815153,True,21,-1,0,1
Y2-S2-153K20,3,283,AS,exp,34,→,right,→,1.4170896001160145,True,21,1,1,2
Y2-S2-153K20,3,284,AS,exp,28,←,left,←,0.6734509998932481,True,20,1,0,2
Y2-S2-153K20,3,285,AS,exp,49,↓,up,↑,0.7433035001158714,False,20,-1,1,3
Y2-S2-153K20,3,286,AS,exp,46,→,right,→,0.558824900072068,True,21,-1,0,3
Y2-S2-153K20,3,287,AS,exp,25,↓,down,↓,0.8680296000093222,True,21,-1,0,3
Y2-S2-153K20,3,288,AS,exp,45,→,right,→,0.7434266000054777,True,21,1,1,4
Y2-S2-153K20,3,289,AS,exp,47,↓,down,↓,0.7226001000963151,True,20,1,0,4
Y2-S2-153K20,3,290,AS,exp,50,↑,up,↑,0.6744567002169788,True,20,1,0,4
Y2-S2-153K20,3,291,AS,exp,48,↓,down,↓,0.5257462998852134,True,20,1,0,4
Y2-S2-153K20,3,292,AS,exp,41,↑,up,↑,0.7920168996788561,True,19,1,0,4
Y2-S2-153K20,3,293,AS,exp,46,↓,down,↓,1.0219696997664869,True,19,1,0,4
Y2-S2-153K20,3,294,AS,exp,37,↑,right,→,1.349329899996519,False,19,-1,1,5
Y2-S2-153K20,3,295,AS,exp,49,↓,down,↓,0.742522600106895,True,20,-1,0,5
Y2-S2-153K20,3,296,AS,exp,42,↑,up,↑,0.8242853996343911,True,20,-1,0,5
Y2-S2-153K20,3,297,AS,exp,36,↓,down,↓,0.5558603000827134,True,20,1,1,6
Y2-S2-153K20,3,298,AS,exp,25,↑,up,↑,0.8370215003378689,True,19,1,0,6
Y2-S2-153K20,3,299,AS,exp,49,↓,down,↓,0.6984478002414107,True,19,1,0,6
Y2-S2-153K20,3,300,AS,exp,47,↑,up,↑,0.5816724998876452,True,19,1,0,6
Y2-S2-153K20,3,301,AS,exp,48,←,left,←,0.886315899901092,True,18,1,0,6
Y2-S2-153K20,3,302,AS,exp,35,→,right,→,0.4984573000110686,True,18,1,0,6
Y2-S2-153K20,3,303,AS,exp,38,↑,up,↑,0.5452646003104746,True,18,1,0,6
Y2-S2-153K20,3,304,AS,exp,34,←,left,←,1.1532650999724865,True,17,1,0,6
Y2-S2-153K20,3,305,AS,exp,25,↑,up,↑,0.7290678997524083,True,17,1,0,6
Y2-S2-153K20,3,306,AS,exp,32,←,left,←,0.6053488999605179,True,17,1,0,6
Y2-S2-153K20,3,307,AS,exp,43,↑,right,→,0.9856475000269711,False,16,-1,1,7
Y2-S2-153K20,3,308,AS,exp,32,→,right,→,0.899392900057137,True,17,-1,0,7
Y2-S2-153K20,3,309,AS,exp,48,↓,right,→,0.9297760999761522,False,17,-1,0,7
Y2-S2-153K20,3,310,AS,exp,38,↑,up,↑,0.4913814999163151,True,18,-1,0,7
Y2-S2-153K20,3,311,AS,exp,29,→,right,→,1.0128313996829093,True,18,-1,0,7
Y2-S2-153K20,3,312,AS,exp,35,↑,up,↑,1.2038149000145495,True,18,1,1,8
Y2-S2-153K20,3,313,AS,exp,26,←,left,←,0.593036100268364,True,17,1,0,8
Y2-S2-153K20,3,314,AS,exp,48,↑,up,↑,0.5592164001427591,True,17,1,0,8
Y2-S2-153K20,3,315,AS,exp,32,←,right,→,0.7388406000100076,False,17,-1,1,9
Y2-S2-153K20,3,316,AS,exp,32,→,right,→,0.7361750998534262,True,18,-1,0,9
Y2-S2-153K20,3,317,AS,exp,30,↓,up,↑,0.7267044000327587,False,18,-1,0,9
Y2-S2-153K20,3,318,AS,exp,36,↑,up,↑,0.5084363999776542,True,19,-1,0,9
Y2-S2-153K20,3,319,AS,exp,26,↓,up,↑,0.7780403001233935,False,19,-1,0,9
Y2-S2-153K20,3,320,AS,exp,46,←,left,←,0.5428097997792065,True,20,-1,0,9
Y2-S2-153K20,3,321,AS,exp,38,→,right,→,0.6278315000236034,True,20,-1,0,9
Y2-S2-153K20,3,322,AS,exp,32,↑,no_key,no_letter,-1.0,False,20,-1,0,9
Y2-S2-153K20,3,323,AS,exp,39,↓,up,↑,1.054142199922353,False,21,-1,0,9
Y2-S2-153K20,3,324,AS,exp,37,↑,up,↑,0.7864237995818257,True,22,-1,0,9
Y2-S2-153K20,3,325,AS,exp,31,←,left,←,0.6733730998821557,True,22,-1,0,9
Y2-S2-153K20,3,326,AS,exp,40,→,right,→,0.6829337002709508,True,22,1,1,10
Y2-S2-153K20,3,327,AS,exp,40,↓,up,↑,1.4131422000937164,False,21,-1,1,11
Y2-S2-153K20,3,328,AS,exp,46,↑,up,↑,0.586228400003165,True,22,-1,0,11
Y2-S2-153K20,3,329,AS,exp,27,→,right,→,0.9003202002495527,True,22,-1,0,11
Y2-S2-153K20,3,330,AS,exp,28,↓,down,↓,0.8171101002953947,True,22,1,1,12
Y2-S2-153K20,3,331,AS,exp,39,→,right,→,0.8035089997574687,True,21,1,0,12
Y2-S2-153K20,3,332,AS,exp,48,↓,down,↓,0.63778269989416,True,21,1,0,12
Y2-S2-153K20,3,333,AS,exp,29,↑,up,↑,0.6121529997326434,True,21,1,0,12
Y2-S2-153K20,3,334,AS,exp,46,→,right,→,0.572369999717921,True,20,1,0,12
Y2-S2-153K20,3,335,AS,exp,31,↓,down,↓,0.5921030999161303,True,20,1,0,12
Y2-S2-153K20,3,336,AS,exp,45,←,left,←,0.6582790003158152,True,20,1,0,12
Y2-S2-153K20,3,337,AS,exp,43,↑,up,↑,0.8621592000126839,True,19,1,0,12
Y2-S2-153K20,3,338,AS,exp,31,→,right,→,0.7302327998913825,True,19,1,0,12
Y2-S2-153K20,3,339,AS,exp,34,↑,up,↑,0.6896149003878236,True,19,1,0,12
Y2-S2-153K20,3,340,AS,exp,26,↓,down,↓,0.6178870000876486,True,18,1,0,12
Y2-S2-153K20,3,341,AS,exp,37,→,right,→,0.49879010021686554,True,18,1,0,12
Y2-S2-153K20,3,342,AS,exp,30,←,left,←,0.6890318999066949,True,18,1,0,12
Y2-S2-153K20,3,343,AS,exp,36,↓,down,↓,0.5663980999961495,True,17,1,0,12
Y2-S2-153K20,3,344,AS,exp,25,→,left,←,1.0156666999682784,False,17,-1,1,13
Y2-S2-153K20,3,345,AS,exp,34,↓,down,↓,0.8457712000235915,True,18,-1,0,13
Y2-S2-153K20,3,346,AS,exp,34,←,left,←,0.6765848002396524,True,18,-1,0,13
Y2-S2-153K20,3,347,AS,exp,48,→,right,→,0.7522841999307275,True,18,1,1,14
Y2-S2-153K20,3,348,AS,exp,38,↓,down,↓,0.6683209999464452,True,17,1,0,14
Y2-S2-153K20,3,349,AS,exp,34,↑,up,↑,0.7238062000833452,True,17,1,0,14
Y2-S2-153K20,3,350,AS,exp,40,→,right,→,0.61609400017187,True,17,1,0,14
Y2-S2-153K20,3,351,AS,exp,38,↓,down,↓,0.4663102999329567,True,16,1,0,14
Y2-S2-153K20,3,352,AS,exp,50,→,left,←,0.7542742998339236,False,16,-1,1,15
Y2-S2-153K20,3,353,AS,exp,35,↑,up,↑,0.6594345001503825,True,17,-1,0,15
Y2-S2-153K20,3,354,AS,exp,26,↓,down,↓,0.4838790004141629,True,17,-1,0,15
Y2-S2-153K20,3,355,AS,exp,44,←,left,←,0.5459785000421107,True,17,1,1,16
Y2-S2-153K20,4,356,PS,intra_train,33,↓,down,↓,1.0212216996587813,True,15,-,-,-
Y2-S2-153K20,4,357,PS,intra_train,44,→,right,→,0.6048487997613847,True,15,-,-,-
Y2-S2-153K20,4,358,PS,intra_train,34,↓,down,↓,0.5885348999872804,True,15,-,-,-
Y2-S2-153K20,4,359,PS,intra_train,35,↑,up,↑,0.6959001002833247,True,15,-,-,-
Y2-S2-153K20,4,360,PS,intra_train,26,→,right,→,0.46147970017045736,True,15,-,-,-
Y2-S2-153K20,4,361,PS,exp,28,↑,right,→,0.6880676997825503,False,10,-1,0,0
Y2-S2-153K20,4,362,PS,exp,35,→,right,→,0.6428270996548235,True,11,-1,0,0
Y2-S2-153K20,4,363,PS,exp,49,↑,up,↑,0.6924296002835035,True,11,-1,0,0
Y2-S2-153K20,4,364,PS,exp,36,→,right,→,0.3605877999216318,True,11,1,1,1
Y2-S2-153K20,4,365,PS,exp,49,↑,right,→,0.6388745000585914,False,10,-1,1,2
Y2-S2-153K20,4,366,PS,exp,34,→,right,→,0.7714883000589907,True,11,-1,0,2
Y2-S2-153K20,4,367,PS,exp,36,↓,down,↓,0.5232119997963309,True,11,-1,0,2
Y2-S2-153K20,4,368,PS,exp,37,→,right,→,0.5755540998652577,True,11,1,1,3
Y2-S2-153K20,4,369,PS,exp,33,↑,up,↑,0.7063480000942945,True,10,1,0,3
Y2-S2-153K20,4,370,PS,exp,46,←,left,←,0.9856454003602266,True,10,1,0,3
Y2-S2-153K20,4,371,PS,exp,43,↑,up,↑,0.578916400205344,True,10,1,0,3
Y2-S2-153K20,4,372,PS,exp,26,↓,down,↓,0.633082200307399,True,9,1,0,3
Y2-S2-153K20,4,373,PS,exp,34,→,right,→,0.5155648002400994,True,9,1,0,3
Y2-S2-153K20,4,374,PS,exp,47,↓,right,→,0.6401499998755753,False,9,-1,1,4
Y2-S2-153K20,4,375,PS,exp,33,↑,right,→,0.7206099000759423,False,10,-1,0,4
Y2-S2-153K20,4,376,PS,exp,49,→,right,→,0.5091611999087036,True,11,-1,0,4
Y2-S2-153K20,4,377,PS,exp,31,←,left,←,0.6412840001285076,True,11,-1,0,4
Y2-S2-153K20,4,378,PS,exp,29,↑,up,↑,0.5841568000614643,True,11,1,1,5
Y2-S2-153K20,4,379,PS,exp,39,←,left,←,0.7850355999544263,True,10,1,0,5
Y2-S2-153K20,4,380,PS,exp,25,↓,down,↓,0.689402500167489,True,10,1,0,5
Y2-S2-153K20,4,381,PS,exp,41,↑,up,↑,0.5572909996844828,True,10,1,0,5
Y2-S2-153K20,4,382,PS,exp,46,→,right,→,0.5489738001488149,True,9,1,0,5
Y2-S2-153K20,4,383,PS,exp,44,↓,down,↓,0.8823802997358143,True,9,1,0,5
Y2-S2-153K20,4,384,PS,exp,41,↑,up,↑,0.7073854003101587,True,9,1,0,5
Y2-S2-153K20,4,385,PS,exp,50,↓,right,→,0.5832469998858869,False,8,-1,1,6
Y2-S2-153K20,4,386,PS,exp,37,↑,right,→,0.7211043001152575,False,9,-1,0,6
Y2-S2-153K20,4,387,PS,exp,42,↓,down,↓,0.6904636998660862,True,10,-1,0,6
Y2-S2-153K20,4,388,PS,exp,33,→,left,←,0.6126193003728986,False,10,-1,0,6
Y2-S2-153K20,4,389,PS,exp,36,↑,up,↑,0.6696959999389946,True,11,-1,0,6
Y2-S2-153K20,4,390,PS,exp,25,↓,down,↓,1.0364916999824345,True,11,-1,0,6
Y2-S2-153K20,4,391,PS,exp,50,→,right,→,0.4925855998881161,True,11,1,1,7
Y2-S2-153K20,4,392,PS,exp,25,↓,right,→,1.0928032002411783,False,10,-1,1,8
Y2-S2-153K20,4,393,PS,exp,35,↑,up,↑,0.6386175001971424,True,11,-1,0,8
Y2-S2-153K20,4,394,PS,exp,29,↓,down,↓,0.5345499003306031,True,11,-1,0,8
Y2-S2-153K20,4,395,PS,exp,40,↑,up,↑,0.6097868997603655,True,11,1,1,9
Y2-S2-153K20,4,396,PS,exp,46,↓,right,→,1.2729012998752296,False,10,-1,1,10
Y2-S2-153K20,4,397,PS,exp,34,→,right,→,0.47912729997187853,True,11,-1,0,10
Y2-S2-153K20,4,398,PS,exp,42,↑,up,↑,0.5339290997944772,True,11,-1,0,10
Y2-S2-153K20,4,399,PS,exp,35,←,left,←,1.107946699950844,True,11,1,1,11
Y2-S2-153K20,4,400,PS,exp,29,↑,up,↑,0.6631120000965893,True,10,1,0,11
Y2-S2-153K20,4,401,PS,exp,48,↓,down,↓,0.5073160999454558,True,10,1,0,11
Y2-S2-153K20,4,402,PS,exp,43,↑,up,↑,0.740434099920094,True,10,1,0,11
Y2-S2-153K20,4,403,PS,exp,43,↓,right,→,0.6387137998826802,False,9,-1,1,12
Y2-S2-153K20,4,404,PS,exp,44,→,right,→,0.5978765999898314,True,10,-1,0,12
Y2-S2-153K20,4,405,PS,exp,45,↑,up,↑,0.6219506002962589,True,10,-1,0,12
Y2-S2-153K20,4,406,PS,exp,27,→,right,→,0.5540261999703944,True,10,1,1,13
Y2-S2-153K20,4,407,PS,exp,39,↑,up,↑,0.6597219998948276,True,9,1,0,13
Y2-S2-153K20,4,408,PS,exp,26,←,left,←,0.4440166996791959,True,9,1,0,13
Y2-S2-153K20,4,409,PS,exp,36,↑,up,↑,0.5418767002411187,True,9,1,0,13
Y2-S2-153K20,4,410,PS,exp,44,←,left,←,0.5346355000510812,True,8,1,0,13
Y2-S2-153K20,4,411,PS,exp,49,→,right,→,0.5595104000531137,True,8,1,0,13
Y2-S2-153K20,4,412,PS,exp,44,↓,down,↓,0.7158207995817065,True,8,1,0,13
Y2-S2-153K20,4,413,PS,exp,25,→,right,→,0.5140927000902593,True,7,1,0,13
Y2-S2-153K20,4,414,PS,exp,46,↓,down,↓,0.7929986999370158,True,7,1,0,13
Y2-S2-153K20,4,415,PS,exp,30,←,left,←,0.5014678002335131,True,7,1,0,13
Y2-S2-153K20,4,416,PS,exp,28,→,right,→,0.38874159986153245,True,6,1,0,13
Y2-S2-153K20,4,417,PS,exp,26,↑,down,↓,0.6570664998143911,False,6,-1,1,14
Y2-S2-153K20,4,418,PS,exp,26,→,right,→,0.6610607001930475,True,7,-1,0,14
Y2-S2-153K20,4,419,PS,exp,44,↓,right,→,0.9568937998265028,False,7,-1,0,14
Y2-S2-153K20,4,420,PS,exp,35,→,right,→,0.43338550021871924,True,8,-1,0,14
Y2-S2-153K20,4,421,PS,exp,41,↑,right,→,0.851575099863112,False,8,-1,0,14
Y2-S2-153K20,4,422,PS,exp,41,→,right,→,0.5209836000576615,True,9,-1,0,14
Y2-S2-153K20,4,423,PS,exp,26,↓,right,→,0.8797666002064943,False,9,-1,0,14
Y2-S2-153K20,4,424,PS,exp,29,↑,down,↓,1.2772405999712646,False,10,-1,0,14
Y2-S2-153K20,4,425,PS,exp,25,←,left,←,0.7450548000633717,True,11,-1,0,14
Y2-S2-153K20,4,426,PS,exp,27,↑,left,←,0.9540956998243928,False,11,-1,0,14
Y2-S2-153K20,4,427,PS,exp,25,→,right,→,0.5105491001158953,True,12,-1,0,14
Y2-S2-153K20,4,428,PS,exp,45,←,left,←,0.6091939001344144,True,12,-1,0,14
Y2-S2-153K20,4,429,PS,exp,26,↓,down,↓,0.4626276004128158,True,12,1,1,15
Y2-S2-153K20,4,430,PS,exp,27,↑,down,↓,0.6796170002780855,False,11,-1,1,16
Y2-S2-153K20,5,431,PS,intra_train,47,↓,down,↓,0.5108809000812471,True,15,-,-,-
Y2-S2-153K20,5,432,PS,intra_train,27,↑,up,↑,0.6429957998916507,True,15,-,-,-
Y2-S2-153K20,5,433,PS,intra_train,39,↓,down,↓,0.5281232995912433,True,15,-,-,-
Y2-S2-153K20,5,434,PS,intra_train,43,→,right,→,0.523594600148499,True,15,-,-,-
Y2-S2-153K20,5,435,PS,intra_train,47,↓,down,↓,0.6827565999701619,True,15,-,-,-
Y2-S2-153K20,5,436,PS,exp,40,↑,up,↑,0.670618699863553,True,10,0,0,0
Y2-S2-153K20,5,437,PS,exp,25,→,right,→,1.2510063997469842,True,10,0,0,0
Y2-S2-153K20,5,438,PS,exp,37,↑,up,↑,0.7702552000992,True,10,1,0,0
Y2-S2-153K20,5,439,PS,exp,32,↓,down,↓,0.5264069000259042,True,9,1,0,0
Y2-S2-153K20,5,440,PS,exp,28,↑,up,↑,0.6983004002831876,True,9,1,0,0
Y2-S2-153K20,5,441,PS,exp,39,←,left,←,0.463578499853611,True,9,1,0,0
Y2-S2-153K20,5,442,PS,exp,27,↑,up,↑,0.8082415000535548,True,8,1,0,0
Y2-S2-153K20,5,443,PS,exp,32,↓,down,↓,0.6529052997939289,True,8,1,0,0
Y2-S2-153K20,5,444,PS,exp,50,←,down,↓,1.067910599987954,False,8,-1,1,1
Y2-S2-153K20,5,445,PS,exp,48,↓,down,↓,0.5988868996500969,True,9,-1,0,1
Y2-S2-153K20,5,446,PS,exp,26,←,left,←,0.5247574001550674,True,9,-1,0,1
Y2-S2-153K20,5,447,PS,exp,32,→,left,←,0.8178031002171338,False,9,-1,0,1
Y2-S2-153K20,5,448,PS,exp,40,←,left,←,0.5945469001308084,True,10,-1,0,1
Y2-S2-153K20,5,449,PS,exp,25,→,left,←,0.7598453997634351,False,10,-1,0,1
Y2-S2-153K20,5,450,PS,exp,34,↓,down,↓,0.5521630998700857,True,11,-1,0,1
Y2-S2-153K20,5,451,PS,exp,25,↑,up,↑,0.7323615001514554,True,11,-1,0,1
Y2-S2-153K20,5,452,PS,exp,25,→,left,←,0.6678872997872531,False,11,-1,0,1
Y2-S2-153K20,5,453,PS,exp,38,↑,right,→,0.7782164998352528,False,12,-1,0,1
Y2-S2-153K20,5,454,PS,exp,49,→,right,→,0.5114415003918111,True,13,-1,0,1
Y2-S2-153K20,5,455,PS,exp,43,↓,down,↓,0.5532738002948463,True,13,-1,0,1
Y2-S2-153K20,5,456,PS,exp,36,→,right,→,0.6370598999783397,True,13,1,1,2
Y2-S2-153K20,5,457,PS,exp,36,↑,up,↑,0.5976200997829437,True,12,1,0,2
Y2-S2-153K20,5,458,PS,exp,40,→,right,→,0.5299279000610113,True,12,1,0,2
Y2-S2-153K20,5,459,PS,exp,50,↓,down,↓,0.518219199962914,True,12,1,0,2
Y2-S2-153K20,5,460,PS,exp,42,←,left,←,0.48092349991202354,True,11,1,0,2
Y2-S2-153K20,5,461,PS,exp,30,↓,down,↓,0.49648950016126037,True,11,1,0,2
Y2-S2-153K20,5,462,PS,exp,33,→,right,→,0.4664475000463426,True,11,1,0,2
Y2-S2-153K20,5,463,PS,exp,43,↓,left,←,0.6188548002392054,False,10,-1,1,3
Y2-S2-153K20,5,464,PS,exp,39,←,left,←,0.4574959999881685,True,11,-1,0,3
Y2-S2-153K20,5,465,PS,exp,32,→,left,←,0.5340607999823987,False,11,-1,0,3
Y2-S2-153K20,5,466,PS,exp,37,↓,down,↓,0.6141495001502335,True,12,-1,0,3
Y2-S2-153K20,5,467,PS,exp,41,↑,down,↓,0.5839722999371588,False,12,-1,0,3
Y2-S2-153K20,5,468,PS,exp,26,↓,down,↓,0.5196535000577569,True,13,-1,0,3
Y2-S2-153K20,5,469,PS,exp,48,←,left,←,0.5489231999963522,True,13,-1,0,3
Y2-S2-153K20,5,470,PS,exp,34,↑,up,↑,0.7581736999563873,True,13,1,1,4
Y2-S2-153K20,5,471,PS,exp,31,←,left,←,0.5247157998383045,True,12,1,0,4
Y2-S2-153K20,5,472,PS,exp,43,→,right,→,0.48866230016574264,True,12,1,0,4
Y2-S2-153K20,5,473,PS,exp,37,↓,down,↓,0.6381232999265194,True,12,1,0,4
Y2-S2-153K20,5,474,PS,exp,28,←,left,←,0.46362469997256994,True,11,1,0,4
Y2-S2-153K20,5,475,PS,exp,26,↓,down,↓,0.5217023999430239,True,11,1,0,4
Y2-S2-153K20,5,476,PS,exp,31,→,right,→,0.5056468001566827,True,11,1,0,4
Y2-S2-153K20,5,477,PS,exp,33,↓,down,↓,0.42138259997591376,True,10,1,0,4
Y2-S2-153K20,5,478,PS,exp,28,↑,right,→,0.8393227998167276,False,10,-1,1,5
Y2-S2-153K20,5,479,PS,exp,39,→,left,←,0.54010030021891,False,11,-1,0,5
Y2-S2-153K20,5,480,PS,exp,48,↑,up,↑,0.7257840996608138,True,12,-1,0,5
Y2-S2-153K20,5,481,PS,exp,45,←,left,←,0.5499208001419902,True,12,-1,0,5
Y2-S2-153K20,5,482,PS,exp,36,↑,up,↑,0.7299922998063266,True,12,1,1,6
Y2-S2-153K20,5,483,PS,exp,38,←,left,←,0.45255190040916204,True,11,1,0,6
Y2-S2-153K20,5,484,PS,exp,40,→,right,→,0.46922670025378466,True,11,1,0,6
Y2-S2-153K20,5,485,PS,exp,43,↓,down,↓,0.513285799883306,True,11,1,0,6
Y2-S2-153K20,5,486,PS,exp,48,→,left,←,0.8801265996880829,False,10,-1,1,7
Y2-S2-153K20,5,487,PS,exp,37,↑,up,↑,0.7934344001114368,True,11,-1,0,7
Y2-S2-153K20,5,488,PS,exp,48,→,right,→,0.4974944000132382,True,11,-1,0,7
Y2-S2-153K20,5,489,PS,exp,39,↑,up,↑,0.8437578999437392,True,11,1,1,8
Y2-S2-153K20,5,490,PS,exp,35,→,right,→,0.6192824998870492,True,10,1,0,8
Y2-S2-153K20,5,491,PS,exp,48,↓,down,↓,1.1079166000708938,True,10,1,0,8
Y2-S2-153K20,5,492,PS,exp,28,↑,up,↑,0.7286755000241101,True,10,1,0,8
Y2-S2-153K20,5,493,PS,exp,37,→,right,→,0.5657568997703493,True,9,1,0,8
Y2-S2-153K20,5,494,PS,exp,48,↑,left,←,0.9157925001345575,False,9,-1,1,9
Y2-S2-153K20,5,495,PS,exp,43,↓,right,→,0.6804881002753973,False,10,-1,0,9
Y2-S2-153K20,5,496,PS,exp,36,←,left,←,0.4899665997363627,True,11,-1,0,9
Y2-S2-153K20,5,497,PS,exp,25,→,down,↓,0.7716246000491083,False,11,-1,0,9
Y2-S2-153K20,5,498,PS,exp,29,←,left,←,0.7875399999320507,True,12,-1,0,9
Y2-S2-153K20,5,499,PS,exp,36,↓,down,↓,0.6174184000119567,True,12,-1,0,9
Y2-S2-153K20,5,500,PS,exp,26,→,right,→,0.6159251001663506,True,12,1,1,10
Y2-S2-153K20,5,501,PS,exp,50,↓,down,↓,0.4655077997595072,True,11,1,0,10
Y2-S2-153K20,5,502,PS,exp,28,←,down,↓,0.7374921999871731,False,11,-1,1,11
Y2-S2-153K20,5,503,PS,exp,38,↓,down,↓,0.5377952000126243,True,12,-1,0,11
Y2-S2-153K20,5,504,PS,exp,30,↑,right,→,0.993624699767679,False,12,-1,0,11
Y2-S2-153K20,5,505,PS,exp,45,→,right,→,0.4904797002673149,True,13,-1,0,11
Y2-S2-153K20,5,506,PS,exp,48,↓,down,↓,0.5153992003761232,True,13,-1,0,11
Y2-S2-153K20,5,507,PS,exp,45,↑,up,↑,0.6301148999482393,True,13,1,1,12
Y2-S2-153K20,5,508,PS,exp,47,→,right,→,0.5273612001910806,True,12,1,0,12
Y2-S2-153K20,5,509,PS,exp,45,↑,up,↑,0.5929113999009132,True,12,1,0,12
Y2-S2-153K20,5,510,PS,exp,28,←,up,↑,0.9631226002238691,False,12,-1,1,13
Y2-S2-153K20,5,511,PS,exp,32,↑,up,↑,0.7140323999337852,True,13,-1,0,13
Y2-S2-153K20,5,512,PS,exp,45,←,left,←,0.5492104003205895,True,13,-1,0,13
Y2-S2-153K20,5,513,PS,exp,38,↓,down,↓,0.55302539980039,True,13,1,1,14
Y2-S2-153K20,5,514,PS,exp,35,↑,up,↑,0.6036026002839208,True,12,1,0,14
Y2-S2-153K20,5,515,PS,exp,46,↓,down,↓,0.7042910000309348,True,12,1,0,14
Y2-S2-153K20,5,516,PS,exp,26,→,right,→,0.4575115996412933,True,12,1,0,14
Y2-S2-153K20,5,517,PS,exp,40,↑,up,↑,0.7177344998344779,True,11,1,0,14
Y2-S2-153K20,5,518,PS,exp,46,↓,right,→,0.7274609999731183,False,11,-1,1,15
Y2-S2-153K20,5,519,PS,exp,36,↑,up,↑,0.68595220008865,True,12,-1,0,15
Y2-S2-153K20,5,520,PS,exp,30,↓,down,↓,0.6132792998105288,True,12,-1,0,15
Y2-S2-153K20,5,521,PS,exp,38,→,right,→,0.4852470997720957,True,12,1,1,16
Y2-S2-153K20,6,522,AS,intra_train,27,↑,up,↑,0.8841145001351833,True,31,-,-,-
Y2-S2-153K20,6,523,AS,intra_train,39,↓,down,↓,0.8504315000027418,True,31,-,-,-
Y2-S2-153K20,6,524,AS,intra_train,45,←,left,←,0.5336261000484228,True,31,-,-,-
Y2-S2-153K20,6,525,AS,intra_train,34,→,right,→,1.8396421996876597,True,31,-,-,-
Y2-S2-153K20,6,526,AS,intra_train,39,↓,down,↓,0.80443250015378,True,31,-,-,-
Y2-S2-153K20,6,527,AS,exp,49,→,right,→,0.5428549000062048,True,21,0,0,0
Y2-S2-153K20,6,528,AS,exp,38,↑,down,↓,1.090975800063461,False,21,-1,0,0
Y2-S2-153K20,6,529,AS,exp,25,→,right,→,0.7423108997754753,True,22,-1,0,0
Y2-S2-153K20,6,530,AS,exp,29,↑,down,↓,1.0099354996345937,False,22,-1,0,0
Y2-S2-153K20,6,531,AS,exp,44,→,right,→,0.5175653002224863,True,23,-1,0,0
Y2-S2-153K20,6,532,AS,exp,41,←,left,←,0.792348500341177,True,23,-1,0,0
Y2-S2-153K20,6,533,AS,exp,33,↑,up,↑,0.677290900144726,True,23,1,1,1
Y2-S2-153K20,6,534,AS,exp,25,↓,down,↓,0.7249432001262903,True,22,1,0,1
Y2-S2-153K20,6,535,AS,exp,34,←,right,→,0.7954727001488209,False,22,-1,1,2
Y2-S2-153K20,6,536,AS,exp,36,↑,up,↑,0.6662228000350296,True,23,-1,0,2
Y2-S2-153K20,6,537,AS,exp,40,↓,down,↓,0.7422587997280061,True,23,-1,0,2
Y2-S2-153K20,6,538,AS,exp,32,↑,up,↑,0.780785399954766,True,23,1,1,3
Y2-S2-153K20,6,539,AS,exp,49,↓,down,↓,1.0836605001240969,True,22,1,0,3
Y2-S2-153K20,6,540,AS,exp,34,↑,up,↑,0.6516026998870075,True,22,1,0,3
Y2-S2-153K20,6,541,AS,exp,32,←,no_key,no_letter,-1.0,False,22,-1,1,4
Y2-S2-153K20,6,542,AS,exp,48,↓,right,→,0.9459696002304554,False,23,-1,0,4
Y2-S2-153K20,6,543,AS,exp,44,←,left,←,0.6730948002077639,True,24,-1,0,4
Y2-S2-153K20,6,544,AS,exp,44,↑,up,↑,0.8901375997811556,True,24,-1,0,4
Y2-S2-153K20,6,545,AS,exp,45,←,right,→,0.7124336999841034,False,24,-1,0,4
Y2-S2-153K20,6,546,AS,exp,36,↓,down,↓,0.6328802998177707,True,25,-1,0,4
Y2-S2-153K20,6,547,AS,exp,34,←,left,←,0.7058100001886487,True,25,-1,0,4
Y2-S2-153K20,6,548,AS,exp,27,↓,down,↓,0.6005950001999736,True,25,1,1,5
Y2-S2-153K20,6,549,AS,exp,46,↑,up,↑,0.7916009002365172,True,24,1,0,5
Y2-S2-153K20,6,550,AS,exp,42,←,right,→,0.5344044999219477,False,24,-1,1,6
Y2-S2-153K20,6,551,AS,exp,39,↓,down,↓,0.8002017000690103,True,25,-1,0,6
Y2-S2-153K20,6,552,AS,exp,49,→,down,↓,1.0730837997980416,False,25,-1,0,6
Y2-S2-153K20,6,553,AS,exp,47,←,left,←,0.6085895001888275,True,26,-1,0,6
Y2-S2-153K20,6,554,AS,exp,29,↓,down,↓,0.71535350009799,True,26,-1,0,6
Y2-S2-153K20,6,555,AS,exp,25,↑,up,↑,0.6662894999608397,True,26,1,1,7
Y2-S2-153K20,6,556,AS,exp,25,←,left,←,0.7257439997047186,True,25,1,0,7
Y2-S2-153K20,6,557,AS,exp,49,↑,up,↑,0.7022323999553919,True,25,1,0,7
Y2-S2-153K20,6,558,AS,exp,26,←,left,←,1.7569987997412682,True,25,1,0,7
Y2-S2-153K20,6,559,AS,exp,40,↓,down,↓,0.7681253999471664,True,24,1,0,7
Y2-S2-153K20,6,560,AS,exp,29,↑,up,↑,0.9015534999780357,True,24,1,0,7
Y2-S2-153K20,6,561,AS,exp,36,→,right,→,0.5965334000065923,True,24,1,0,7
Y2-S2-153K20,6,562,AS,exp,25,↑,up,↑,0.7001606998965144,True,23,1,0,7
Y2-S2-153K20,6,563,AS,exp,40,←,left,←,0.6288618999533355,True,23,1,0,7
Y2-S2-153K20,6,564,AS,exp,34,→,right,→,0.6493389001116157,True,23,1,0,7
Y2-S2-153K20,6,565,AS,exp,42,↑,up,↑,0.6246078000403941,True,22,1,0,7
Y2-S2-153K20,6,566,AS,exp,48,←,left,←,0.5644077002070844,True,22,1,0,7
Y2-S2-153K20,6,567,AS,exp,46,→,right,→,0.7446608999744058,True,22,1,0,7
Y2-S2-153K20,6,568,AS,exp,25,↑,up,↑,0.6445483001880348,True,21,1,0,7
Y2-S2-153K20,6,569,AS,exp,45,→,right,→,0.7308306996710598,True,21,1,0,7
Y2-S2-153K20,6,570,AS,exp,41,←,left,←,0.647513700183481,True,21,1,0,7
Y2-S2-153K20,6,571,AS,exp,49,↓,up,↑,0.6374129997566342,False,20,-1,1,8
Y2-S2-153K20,6,572,AS,exp,37,←,left,←,0.6700129001401365,True,21,-1,0,8
Y2-S2-153K20,6,573,AS,exp,38,↓,down,↓,0.8756952001713216,True,21,-1,0,8
Y2-S2-153K20,6,574,AS,exp,47,→,right,→,0.6931773000396788,True,21,1,1,9
Y2-S2-153K20,6,575,AS,exp,39,↑,up,↑,0.5824910001829267,True,20,1,0,9
Y2-S2-153K20,6,576,AS,exp,49,→,right,→,0.5242376001551747,True,20,1,0,9
Y2-S2-153K20,6,577,AS,exp,37,↓,up,↑,0.8361223000101745,False,20,-1,1,10
Y2-S2-153K20,6,578,AS,exp,41,←,left,←,0.6960378000512719,True,21,-1,0,10
Y2-S2-153K20,6,579,AS,exp,37,↑,up,↑,0.6778835998848081,True,21,-1,0,10
Y2-S2-153K20,6,580,AS,exp,46,↓,down,↓,0.8807942001149058,True,21,1,1,11
Y2-S2-153K20,6,581,AS,exp,45,→,right,→,0.6378144002519548,True,20,1,0,11
Y2-S2-153K20,6,582,AS,exp,49,←,left,←,0.5983305997215211,True,20,1,0,11
Y2-S2-153K20,6,583,AS,exp,48,→,right,→,0.7707889000885189,True,20,1,0,11
Y2-S2-153K20,6,584,AS,exp,37,←,right,→,0.8440157002769411,False,19,-1,1,12
Y2-S2-153K20,6,585,AS,exp,33,→,no_key,no_letter,-1.0,False,20,-1,0,12
Y2-S2-153K20,6,586,AS,exp,31,←,no_key,no_letter,-1.0,False,21,-1,0,12
Y2-S2-153K20,6,587,AS,exp,39,↓,down,↓,0.7885552998632193,True,22,-1,0,12
Y2-S2-153K20,6,588,AS,exp,27,←,left,←,0.7047676998190582,True,22,-1,0,12
Y2-S2-153K20,6,589,AS,exp,43,→,right,→,0.5007984996773303,True,22,1,1,13
Y2-S2-153K20,6,590,AS,exp,50,←,left,←,0.7167871999554336,True,21,1,0,13
Y2-S2-153K20,6,591,AS,exp,49,→,right,→,0.4501911997795105,True,21,1,0,13
Y2-S2-153K20,6,592,AS,exp,35,↓,down,↓,0.8003908996470273,True,21,1,0,13
Y2-S2-153K20,6,593,AS,exp,28,↑,up,↑,1.4044738002121449,True,20,1,0,13
Y2-S2-153K20,6,594,AS,exp,47,↓,down,↓,0.8141103000380099,True,20,1,0,13
Y2-S2-153K20,6,595,AS,exp,36,←,left,←,0.6676046000793576,True,20,1,0,13
Y2-S2-153K20,6,596,AS,exp,49,↑,down,↓,0.8845836999826133,False,19,-1,1,14
Y2-S2-153K20,6,597,AS,exp,35,←,left,←,0.5825950000435114,True,20,-1,0,14
Y2-S2-153K20,6,598,AS,exp,46,↓,down,↓,0.7845997996628284,True,20,-1,0,14
Y2-S2-153K20,6,599,AS,exp,29,←,left,←,1.45713430037722,True,20,1,1,15
Y2-S2-153K20,6,600,AS,exp,36,→,right,→,0.5855077998712659,True,19,1,0,15
Y2-S2-153K20,6,601,AS,exp,44,←,left,←,0.6480368999764323,True,19,1,0,15
Y2-S2-153K20,6,602,AS,exp,35,↓,down,↓,0.9039465999230742,True,19,1,0,15
Y2-S2-153K20,6,603,AS,exp,47,↑,down,↓,0.9239428001455963,False,18,-1,1,16
Y2-S2-153K20,7,604,AS,intra_train,42,→,right,→,0.6344777997583151,True,31,-,-,-
Y2-S2-153K20,7,605,AS,intra_train,32,↑,up,↑,0.7888992000371218,True,31,-,-,-
Y2-S2-153K20,7,606,AS,intra_train,36,←,left,←,0.7788267000578344,True,31,-,-,-
Y2-S2-153K20,7,607,AS,intra_train,38,↓,down,↓,1.412005600053817,True,31,-,-,-
Y2-S2-153K20,7,608,AS,intra_train,47,←,left,←,0.691157900262624,True,31,-,-,-
Y2-S2-153K20,7,609,AS,exp,38,↓,down,↓,0.7343943999148905,True,21,0,0,0
Y2-S2-153K20,7,610,AS,exp,34,↑,up,↑,0.8915625000372529,True,21,0,0,0
Y2-S2-153K20,7,611,AS,exp,42,↓,down,↓,0.6763934995979071,True,21,1,0,0
Y2-S2-153K20,7,612,AS,exp,50,←,left,←,0.7796720000915229,True,20,1,0,0
Y2-S2-153K20,7,613,AS,exp,44,↑,down,↓,0.6068446999415755,False,20,-1,1,1
Y2-S2-153K20,7,614,AS,exp,49,↓,down,↓,0.9590197997167706,True,21,-1,0,1
Y2-S2-153K20,7,615,AS,exp,43,→,right,→,0.6019075997173786,True,21,-1,0,1
Y2-S2-153K20,7,616,AS,exp,37,↑,down,↓,0.8057527998462319,False,21,-1,0,1
Y2-S2-153K20,7,617,AS,exp,42,←,left,←,0.45079119969159365,True,22,-1,0,1
Y2-S2-153K20,7,618,AS,exp,40,↓,down,↓,0.8240975998342037,True,22,-1,0,1
Y2-S2-153K20,7,619,AS,exp,34,↑,up,↑,0.8083939999341965,True,22,1,1,2
Y2-S2-153K20,7,620,AS,exp,41,→,right,→,1.2991268001496792,True,21,1,0,2
Y2-S2-153K20,7,621,AS,exp,43,↓,down,↓,0.6806259998120368,True,21,1,0,2
Y2-S2-153K20,7,622,AS,exp,46,←,right,→,0.7639092998579144,False,21,-1,1,3
Y2-S2-153K20,7,623,AS,exp,39,↓,down,↓,1.1274910997599363,True,22,-1,0,3
Y2-S2-153K20,7,624,AS,exp,50,→,right,→,0.500522100366652,True,22,-1,0,3
Y2-S2-153K20,7,625,AS,exp,40,↓,down,↓,0.8512197998352349,True,22,1,1,4
Y2-S2-153K20,7,626,AS,exp,25,←,left,←,0.5955269001424313,True,21,1,0,4
Y2-S2-153K20,7,627,AS,exp,42,↑,up,↑,0.8268877002410591,True,21,1,0,4
Y2-S2-153K20,7,628,AS,exp,36,←,left,←,1.0622970000840724,True,21,1,0,4
Y2-S2-153K20,7,629,AS,exp,32,→,right,→,0.784735799767077,True,20,1,0,4
Y2-S2-153K20,7,630,AS,exp,32,↓,down,↓,0.8092102999798954,True,20,1,0,4
Y2-S2-153K20,7,631,AS,exp,42,↑,up,↑,0.8521961001679301,True,20,1,0,4
Y2-S2-153K20,7,632,AS,exp,31,→,right,→,0.6320116999559104,True,19,1,0,4
Y2-S2-153K20,7,633,AS,exp,39,↓,down,↓,0.7453415999189019,True,19,1,0,4
Y2-S2-153K20,7,634,AS,exp,36,→,left,←,0.8798799999058247,False,19,-1,1,5
Y2-S2-153K20,7,635,AS,exp,34,↑,up,↑,0.9933613003231585,True,20,-1,0,5
Y2-S2-153K20,7,636,AS,exp,32,←,down,↓,0.9176365002058446,False,20,-1,0,5
Y2-S2-153K20,7,637,AS,exp,49,↑,up,↑,0.7178907999768853,True,21,-1,0,5
Y2-S2-153K20,7,638,AS,exp,43,↓,down,↓,0.859757199883461,True,21,-1,0,5
Y2-S2-153K20,7,639,AS,exp,50,←,left,←,1.333280200138688,True,21,1,1,6
Y2-S2-153K20,7,640,AS,exp,28,→,right,→,1.0345699996687472,True,20,1,0,6
Y2-S2-153K20,7,641,AS,exp,28,←,left,←,0.9495153999887407,True,20,1,0,6
Y2-S2-153K20,7,642,AS,exp,49,↑,up,↑,0.9059272999875247,True,20,1,0,6
Y2-S2-153K20,7,643,AS,exp,30,←,left,←,1.017696199938655,True,19,1,0,6
Y2-S2-153K20,7,644,AS,exp,48,↑,up,↑,0.9611606001853943,True,19,1,0,6
Y2-S2-153K20,7,645,AS,exp,32,←,left,←,0.6969583998434246,True,19,1,0,6
Y2-S2-153K20,7,646,AS,exp,36,↑,up,↑,0.7649309001863003,True,18,1,0,6
Y2-S2-153K20,7,647,AS,exp,32,←,left,←,0.7664033002220094,True,18,1,0,6
Y2-S2-153K20,7,648,AS,exp,40,→,right,→,0.5049351998604834,True,18,1,0,6
Y2-S2-153K20,7,649,AS,exp,46,↑,up,↑,0.8229110999964178,True,17,1,0,6
Y2-S2-153K20,7,650,AS,exp,32,←,right,→,0.7591150002554059,False,17,-1,1,7
Y2-S2-153K20,7,651,AS,exp,29,→,up,↑,0.9413592000491917,False,18,-1,0,7
Y2-S2-153K20,7,652,AS,exp,42,↓,down,↓,0.9131487999111414,True,19,-1,0,7
Y2-S2-153K20,7,653,AS,exp,41,←,left,←,0.8898322000168264,True,19,-1,0,7
Y2-S2-153K20,7,654,AS,exp,41,↓,right,→,0.6079394002445042,False,19,-1,0,7
Y2-S2-153K20,7,655,AS,exp,41,→,right,→,0.6672888002358377,True,20,-1,0,7
Y2-S2-153K20,7,656,AS,exp,43,↑,down,↓,0.9110110998153687,False,20,-1,0,7
Y2-S2-153K20,7,657,AS,exp,46,←,left,←,0.5357224000617862,True,21,-1,0,7
Y2-S2-153K20,7,658,AS,exp,41,↓,down,↓,0.9122291998937726,True,21,-1,0,7
Y2-S2-153K20,7,659,AS,exp,46,↑,down,↓,1.1406866000033915,False,21,-1,0,7
Y2-S2-153K20,7,660,AS,exp,36,↓,down,↓,0.8227949999272823,True,22,-1,0,7
Y2-S2-153K20,7,661,AS,exp,28,←,right,→,0.8057764996774495,False,22,-1,0,7
Y2-S2-153K20,7,662,AS,exp,37,→,right,→,1.1905136997811496,True,23,-1,0,7
Y2-S2-153K20,7,663,AS,exp,39,←,left,←,0.562920100055635,True,23,-1,0,7
Y2-S2-153K20,7,664,AS,exp,29,↓,down,↓,0.839894000440836,True,23,1,1,8
Y2-S2-153K20,7,665,AS,exp,44,←,left,←,0.7105471999384463,True,22,1,0,8
Y2-S2-153K20,7,666,AS,exp,43,→,right,→,0.46724910009652376,True,22,1,0,8
Y2-S2-153K20,7,667,AS,exp,28,↓,down,↓,0.7028331002220511,True,22,1,0,8
Y2-S2-153K20,7,668,AS,exp,43,→,down,↓,0.870229700114578,False,21,-1,1,9
Y2-S2-153K20,7,669,AS,exp,44,←,left,←,0.45088870031759143,True,22,-1,0,9
Y2-S2-153K20,7,670,AS,exp,36,↓,down,↓,0.6465582000091672,True,22,-1,0,9
Y2-S2-153K20,7,671,AS,exp,38,→,right,→,0.6361668999306858,True,22,1,1,10
Y2-S2-153K20,7,672,AS,exp,36,↓,down,↓,0.59805510006845,True,21,1,0,10
Y2-S2-153K20,7,673,AS,exp,36,↑,up,↑,0.8555041002109647,True,21,1,0,10
Y2-S2-153K20,7,674,AS,exp,32,←,left,←,1.3372106002643704,True,21,1,0,10
Y2-S2-153K20,7,675,AS,exp,25,↑,down,↓,1.126101200003177,False,20,-1,1,11
Y2-S2-153K20,7,676,AS,exp,29,→,right,→,0.6886389995925128,True,21,-1,0,11
Y2-S2-153K20,7,677,AS,exp,43,↑,up,↑,0.7130264001898468,True,21,-1,0,11
Y2-S2-153K20,7,678,AS,exp,39,←,left,←,0.43380949972197413,True,21,1,1,12
Y2-S2-153K20,7,679,AS,exp,33,→,right,→,0.6192363002337515,True,20,1,0,12
Y2-S2-153K20,7,680,AS,exp,36,←,left,←,1.2174515002407134,True,20,1,0,12
Y2-S2-153K20,7,681,AS,exp,46,→,right,→,0.6715585999190807,True,20,1,0,12
Y2-S2-153K20,7,682,AS,exp,35,←,right,→,0.6847802000120282,False,19,-1,1,13
Y2-S2-153K20,7,683,AS,exp,37,↑,up,↑,0.8578111003153026,True,20,-1,0,13
Y2-S2-153K20,7,684,AS,exp,34,→,right,→,0.5267762001603842,True,20,-1,0,13
Y2-S2-153K20,7,685,AS,exp,43,←,left,←,0.5049980003386736,True,20,1,1,14
Y2-S2-153K20,7,686,AS,exp,48,↑,up,↑,0.809402999933809,True,19,1,0,14
Y2-S2-153K20,7,687,AS,exp,40,←,no_key,no_letter,-1.0,False,19,-1,1,15
Y2-S2-153K20,7,688,AS,exp,36,→,right,→,1.6509317997843027,True,20,-1,0,15
Y2-S2-153K20,7,689,AS,exp,36,↓,down,↓,1.0451910002157092,True,20,-1,0,15
Y2-S2-153K20,7,690,AS,exp,49,↑,up,↑,0.7577089001424611,True,20,1,1,16
Y2-S2-153K20,8,691,PS,intra_train,42,←,left,←,0.6560653001070023,True,15,-,-,-
Y2-S2-153K20,8,692,PS,intra_train,40,→,right,→,0.4763931999914348,True,15,-,-,-
Y2-S2-153K20,8,693,PS,intra_train,42,←,left,←,0.51795220002532,True,15,-,-,-
Y2-S2-153K20,8,694,PS,intra_train,49,→,right,→,0.468384999781847,True,15,-,-,-
Y2-S2-153K20,8,695,PS,intra_train,35,←,left,←,0.5785980997607112,True,15,-,-,-
Y2-S2-153K20,8,696,PS,exp,41,↑,up,↑,1.0440342002548277,True,10,0,0,0
Y2-S2-153K20,8,697,PS,exp,31,←,left,←,0.6118331998586655,True,10,0,0,0
Y2-S2-153K20,8,698,PS,exp,32,↓,right,→,0.7330875000916421,False,10,-1,0,0
Y2-S2-153K20,8,699,PS,exp,32,→,right,→,0.4715832998044789,True,11,-1,0,0
Y2-S2-153K20,8,700,PS,exp,39,←,left,←,0.4602104998193681,True,11,-1,0,0
Y2-S2-153K20,8,701,PS,exp,33,→,right,→,0.4791977000422776,True,11,1,1,1
Y2-S2-153K20,8,702,PS,exp,46,↓,up,↑,0.8232624996453524,False,10,-1,1,2
Y2-S2-153K20,8,703,PS,exp,47,←,right,→,0.6882784999907017,False,11,-1,0,2
Y2-S2-153K20,8,704,PS,exp,36,↑,down,↓,0.9872151999734342,False,12,-1,0,2
Y2-S2-153K20,8,705,PS,exp,35,←,left,←,0.7251184000633657,True,13,-1,0,2
Y2-S2-153K20,8,706,PS,exp,42,→,right,→,0.48080880008637905,True,13,-1,0,2
Y2-S2-153K20,8,707,PS,exp,26,↑,up,↑,1.2260700999759138,True,13,1,1,3
Y2-S2-153K20,8,708,PS,exp,32,←,left,←,0.6510956999845803,True,12,1,0,3
Y2-S2-153K20,8,709,PS,exp,45,↑,left,←,0.7870803000405431,False,12,-1,1,4
Y2-S2-153K20,8,710,PS,exp,36,←,left,←,0.5310941003262997,True,13,-1,0,4
Y2-S2-153K20,8,711,PS,exp,27,↓,up,↑,0.6763315997086465,False,13,-1,0,4
Y2-S2-153K20,8,712,PS,exp,33,↑,up,↑,0.6242267000488937,True,14,-1,0,4
Y2-S2-153K20,8,713,PS,exp,46,↓,up,↑,0.5375131000764668,False,14,-1,0,4
Y2-S2-153K20,8,714,PS,exp,28,←,left,←,0.6057818001136184,True,15,-1,0,4
Y2-S2-153K20,8,715,PS,exp,26,↓,down,↓,0.7350143999792635,True,15,-1,0,4
Y2-S2-153K20,8,716,PS,exp,25,→,down,↓,0.8706494001671672,False,15,-1,0,4
Y2-S2-153K20,8,717,PS,exp,27,↓,down,↓,0.7045300002209842,True,16,-1,0,4
Y2-S2-153K20,8,718,PS,exp,49,→,right,→,0.727339900098741,True,16,-1,0,4
Y2-S2-153K20,8,719,PS,exp,48,←,left,←,0.6425882000476122,True,16,1,1,5
Y2-S2-153K20,8,720,PS,exp,43,↓,down,↓,1.0921307997778058,True,15,1,0,5
Y2-S2-153K20,8,721,PS,exp,35,→,right,→,0.4422198999673128,True,15,1,0,5
Y2-S2-153K20,8,722,PS,exp,33,←,left,←,1.055845099966973,True,15,1,0,5
Y2-S2-153K20,8,723,PS,exp,47,↓,down,↓,0.5676414999179542,True,14,1,0,5
Y2-S2-153K20,8,724,PS,exp,32,←,left,←,0.534925099927932,True,14,1,0,5
Y2-S2-153K20,8,725,PS,exp,33,→,no_key,no_letter,-1.0,False,14,-1,1,6
Y2-S2-153K20,8,726,PS,exp,40,↑,up,↑,0.8269406002946198,True,15,-1,0,6
Y2-S2-153K20,8,727,PS,exp,40,↓,down,↓,0.642905400134623,True,15,-1,0,6
Y2-S2-153K20,8,728,PS,exp,25,→,right,→,0.5167685998603702,True,15,1,1,7
Y2-S2-153K20,8,729,PS,exp,36,↑,right,→,1.0589634999632835,False,14,-1,1,8
Y2-S2-153K20,8,730,PS,exp,25,↓,left,←,1.0211509000509977,False,15,-1,0,8
Y2-S2-153K20,8,731,PS,exp,44,↑,up,↑,0.6296167997643352,True,16,-1,0,8
Y2-S2-153K20,8,732,PS,exp,27,→,up,↑,0.7470509000122547,False,16,-1,0,8
Y2-S2-153K20,8,733,PS,exp,29,↑,up,↑,0.5597371999174356,True,17,-1,0,8
Y2-S2-153K20,8,734,PS,exp,29,→,right,→,0.5689488998614252,True,17,-1,0,8
Y2-S2-153K20,8,735,PS,exp,50,↑,up,↑,0.5866799000650644,True,17,1,1,9
Y2-S2-153K20,8,736,PS,exp,42,→,right,→,0.5057279001921415,True,16,1,0,9
Y2-S2-153K20,8,737,PS,exp,33,↑,up,↑,0.4745614002458751,True,16,1,0,9
Y2-S2-153K20,8,738,PS,exp,38,→,right,→,0.46602729987353086,True,16,1,0,9
Y2-S2-153K20,8,739,PS,exp,46,←,left,←,0.5822507999837399,True,15,1,0,9
Y2-S2-153K20,8,740,PS,exp,32,↑,up,↑,0.6165134999901056,True,15,1,0,9
Y2-S2-153K20,8,741,PS,exp,50,→,right,→,0.4539557001553476,True,15,1,0,9
Y2-S2-153K20,8,742,PS,exp,28,↑,up,↑,0.5279001998715103,True,14,1,0,9
Y2-S2-153K20,8,743,PS,exp,46,→,right,→,0.4259074996225536,True,14,1,0,9
Y2-S2-153K20,8,744,PS,exp,46,↓,down,↓,0.6683121002279222,True,14,1,0,9
Y2-S2-153K20,8,745,PS,exp,42,↑,up,↑,0.5437660999596119,True,13,1,0,9
Y2-S2-153K20,8,746,PS,exp,42,←,left,←,0.5293596000410616,True,13,1,0,9
Y2-S2-153K20,8,747,PS,exp,42,↑,up,↑,0.7769579002633691,True,13,1,0,9
Y2-S2-153K20,8,748,PS,exp,25,→,right,→,0.5022313999943435,True,12,1,0,9
Y2-S2-153K20,8,749,PS,exp,38,↓,down,↓,0.51356380013749,True,12,1,0,9
Y2-S2-153K20,8,750,PS,exp,41,←,left,←,0.40730420034378767,True,12,1,0,9
Y2-S2-153K20,8,751,PS,exp,31,→,right,→,0.4360581999644637,True,11,1,0,9
Y2-S2-153K20,8,752,PS,exp,50,↓,down,↓,0.6434051003307104,True,11,1,0,9
Y2-S2-153K20,8,753,PS,exp,45,→,right,→,0.6367950001731515,True,11,1,0,9
Y2-S2-153K20,8,754,PS,exp,47,↑,no_key,no_letter,-1.0,False,10,-1,1,10
Y2-S2-153K20,8,755,PS,exp,35,←,left,←,0.5072574000805616,True,11,-1,0,10
Y2-S2-153K20,8,756,PS,exp,26,↑,up,↑,1.2938451999798417,True,11,-1,0,10
Y2-S2-153K20,8,757,PS,exp,32,←,down,↓,0.9703712002374232,False,11,-1,0,10
Y2-S2-153K20,8,758,PS,exp,39,→,left,←,0.6987022999674082,False,12,-1,0,10
Y2-S2-153K20,8,759,PS,exp,42,↓,down,↓,0.7515716999769211,True,13,-1,0,10
Y2-S2-153K20,8,760,PS,exp,48,↑,up,↑,0.5428988002240658,True,13,-1,0,10
Y2-S2-153K20,8,761,PS,exp,42,←,right,→,0.6429940001107752,False,13,-1,0,10
Y2-S2-153K20,8,762,PS,exp,29,↓,right,→,0.8941617999225855,False,14,-1,0,10
Y2-S2-153K20,8,763,PS,exp,36,→,up,↑,1.200031400192529,False,15,-1,0,10
Y2-S2-153K20,8,764,PS,exp,42,↑,up,↑,0.6746678003109992,True,16,-1,0,10
Y2-S2-153K20,8,765,PS,exp,48,↓,down,↓,0.5807376001030207,True,16,-1,0,10
Y2-S2-153K20,8,766,PS,exp,49,↑,up,↑,0.5064524998888373,True,16,1,1,11
Y2-S2-153K20,8,767,PS,exp,27,→,right,→,0.49485119991004467,True,15,1,0,11
Y2-S2-153K20,8,768,PS,exp,49,↑,right,→,0.6253684000112116,False,15,-1,1,12
Y2-S2-153K20,8,769,PS,exp,38,↓,down,↓,0.762856500223279,True,16,-1,0,12
Y2-S2-153K20,8,770,PS,exp,35,←,left,←,0.5049803000874817,True,16,-1,0,12
Y2-S2-153K20,8,771,PS,exp,28,→,right,→,0.48697720002382994,True,16,1,1,13
Y2-S2-153K20,8,772,PS,exp,26,↑,up,↑,0.6609363998286426,True,15,1,0,13
Y2-S2-153K20,8,773,PS,exp,41,→,right,→,0.5331688998267055,True,15,1,0,13
Y2-S2-153K20,8,774,PS,exp,32,↓,down,↓,0.5933115999214351,True,15,1,0,13
Y2-S2-153K20,8,775,PS,exp,48,↑,up,↑,0.5322862002067268,True,14,1,0,13
Y2-S2-153K20,8,776,PS,exp,28,→,right,→,0.47574609983712435,True,14,1,0,13
Y2-S2-153K20,8,777,PS,exp,33,↓,down,↓,0.6960709998384118,True,14,1,0,13
Y2-S2-153K20,8,778,PS,exp,29,→,down,↓,1.0763309001922607,False,13,-1,1,14
Y2-S2-153K20,8,779,PS,exp,33,←,left,←,0.568081199657172,True,14,-1,0,14
Y2-S2-153K20,8,780,PS,exp,32,↑,up,↑,1.8092414997518063,True,14,-1,0,14
Y2-S2-153K20,8,781,PS,exp,50,↓,down,↓,0.7969263000413775,True,14,1,1,15
Y2-S2-153K20,8,782,PS,exp,25,→,right,→,0.6932773999869823,True,13,1,0,15
Y2-S2-153K20,8,783,PS,exp,49,↓,down,↓,0.6230872999876738,True,13,1,0,15
Y2-S2-153K20,8,784,PS,exp,41,←,left,←,0.694297400303185,True,13,1,0,15
Y2-S2-153K20,8,785,PS,exp,50,↓,down,↓,0.9345770999789238,True,12,1,0,15
Y2-S2-153K20,8,786,PS,exp,31,→,left,←,0.7913930001668632,False,12,-1,1,16
