PART_ID,Block_no,Trial_no,Block_type,Trial_type,CSI,Stim_letter,Key_pressed,letter_choose,Rt,Corr,Stimulus Time,Level,Reversal,Revs_count
Y2-S2-161K21,1,1,PS,train,47,→,right,→,0.9053440999705344,True,30,-,-,-
Y2-S2-161K21,1,2,PS,train,38,←,left,←,0.8449781999806874,True,30,-,-,-
Y2-S2-161K21,1,3,PS,train,33,↑,up,↑,0.9838524999795482,True,30,-,-,-
Y2-S2-161K21,1,4,PS,train,27,↓,down,↓,0.6337177999666892,True,30,-,-,-
Y2-S2-161K21,1,5,PS,train,49,→,right,→,0.7797478000284173,True,30,-,-,-
Y2-S2-161K21,1,6,PS,train,48,↓,down,↓,0.7397907000267878,True,30,-,-,-
Y2-S2-161K21,1,7,PS,train,45,→,right,→,0.6894402999896556,True,30,-,-,-
Y2-S2-161K21,1,8,PS,train,26,↑,up,↑,0.7467356999986805,True,30,-,-,-
Y2-S2-161K21,1,9,PS,train,33,←,left,←,0.9258323000394739,True,30,-,-,-
Y2-S2-161K21,1,10,PS,train,31,↓,down,↓,0.7245252000284381,True,30,-,-,-
Y2-S2-161K21,2,11,AS,train,49,→,no_key,no_letter,-1.0,False,45,-,-,-
Y2-S2-161K21,2,12,AS,train,29,↓,down,↓,0.7174914000206627,True,45,-,-,-
Y2-S2-161K21,2,13,AS,train,35,↑,up,↑,0.8841172999818809,True,45,-,-,-
Y2-S2-161K21,2,14,AS,train,45,←,left,←,0.8338978000101633,True,45,-,-,-
Y2-S2-161K21,2,15,AS,train,40,↓,down,↓,1.6492973999702372,True,45,-,-,-
Y2-S2-161K21,2,16,AS,train,26,→,right,→,0.8838582999887876,True,45,-,-,-
Y2-S2-161K21,2,17,AS,train,46,↓,down,↓,1.0814227999653667,True,45,-,-,-
Y2-S2-161K21,2,18,AS,train,36,←,left,←,0.850623500009533,True,45,-,-,-
Y2-S2-161K21,2,19,AS,train,30,↓,down,↓,0.8675259999581613,True,45,-,-,-
Y2-S2-161K21,2,20,AS,train,34,↑,up,↑,0.9851359000313096,True,45,-,-,-
Y2-S2-161K21,-,21,PS,adaptive,36,↓,down,↓,0.6067064999951981,True,10,0,0,0
Y2-S2-161K21,-,22,PS,adaptive,39,↑,left,←,1.2363184000132605,False,10,-1,0,0
Y2-S2-161K21,-,23,PS,adaptive,34,→,right,→,0.9517612000345252,True,11,-1,0,0
Y2-S2-161K21,-,24,PS,adaptive,30,←,left,←,0.7907965999911539,True,11,-1,0,0
Y2-S2-161K21,-,25,PS,adaptive,49,↓,down,↓,0.6746001000283286,True,11,1,1,1
Y2-S2-161K21,-,26,PS,adaptive,37,←,left,←,0.8257181000080891,True,10,1,0,1
Y2-S2-161K21,-,27,PS,adaptive,30,→,right,→,0.7529284000047483,True,10,1,0,1
Y2-S2-161K21,-,28,PS,adaptive,33,↓,down,↓,0.5932491999701597,True,10,1,0,1
Y2-S2-161K21,-,29,PS,adaptive,36,←,left,←,0.7634936000104062,True,9,1,0,1
Y2-S2-161K21,-,30,PS,adaptive,49,→,right,→,0.6950762000051327,True,9,1,0,1
Y2-S2-161K21,-,31,PS,adaptive,31,↑,no_key,no_letter,-1.0,False,9,-1,1,2
Y2-S2-161K21,-,32,PS,adaptive,36,→,right,→,0.7924400999909267,True,10,-1,0,2
Y2-S2-161K21,-,33,PS,adaptive,39,↓,down,↓,0.6940950999851339,True,10,-1,0,2
Y2-S2-161K21,-,34,PS,adaptive,47,↑,up,↑,0.8914974000072107,True,10,1,1,3
Y2-S2-161K21,-,35,PS,adaptive,38,←,left,←,0.7003765999688767,True,9,1,0,3
Y2-S2-161K21,-,36,PS,adaptive,32,→,up,↑,0.941539199964609,False,9,-1,1,4
Y2-S2-161K21,-,37,AS,adaptive,37,←,left,←,1.0882701999507844,True,20,0,0,0
Y2-S2-161K21,-,38,AS,adaptive,48,↓,down,↓,0.6262057000421919,True,20,0,0,0
Y2-S2-161K21,-,39,AS,adaptive,39,→,right,→,0.7035347999772057,True,20,1,0,0
Y2-S2-161K21,-,40,AS,adaptive,32,↑,up,↑,1.025134399998933,True,19,1,0,0
Y2-S2-161K21,-,41,AS,adaptive,27,←,left,←,1.141050299978815,True,19,1,0,0
Y2-S2-161K21,-,42,AS,adaptive,25,↓,down,↓,0.631440399971325,True,19,1,0,0
Y2-S2-161K21,-,43,AS,adaptive,40,→,right,→,0.7449817999731749,True,18,1,0,0
Y2-S2-161K21,-,44,AS,adaptive,38,←,left,←,0.8689209999865852,True,18,1,0,0
Y2-S2-161K21,-,45,AS,adaptive,41,↑,right,→,1.5470453000161797,False,18,-1,1,1
Y2-S2-161K21,-,46,AS,adaptive,48,→,right,→,0.8961288999998942,True,19,-1,0,1
Y2-S2-161K21,-,47,AS,adaptive,46,↑,up,↑,0.7934786999830976,True,19,-1,0,1
Y2-S2-161K21,-,48,AS,adaptive,37,→,right,→,0.6968354000127874,True,19,1,1,2
Y2-S2-161K21,-,49,AS,adaptive,41,←,left,←,0.8486020999844186,True,18,1,0,2
Y2-S2-161K21,-,50,AS,adaptive,28,↑,up,↑,0.7574301999993622,True,18,1,0,2
Y2-S2-161K21,-,51,AS,adaptive,47,↓,up,↑,0.9116811000276357,False,18,-1,1,3
Y2-S2-161K21,-,52,AS,adaptive,46,↑,up,↑,0.7566692999680527,True,19,-1,0,3
Y2-S2-161K21,-,53,AS,adaptive,50,→,right,→,0.8607230000197887,True,19,-1,0,3
Y2-S2-161K21,-,54,AS,adaptive,41,←,left,←,0.7366767000057735,True,19,1,1,4
Y2-S2-161K21,1,55,PS,intra_train,30,↓,down,↓,0.6633326999726705,True,15,-,-,-
Y2-S2-161K21,1,56,PS,intra_train,37,→,right,→,0.7811239000293426,True,15,-,-,-
Y2-S2-161K21,1,57,PS,intra_train,30,↓,down,↓,0.7154924000496976,True,15,-,-,-
Y2-S2-161K21,1,58,PS,intra_train,30,→,right,→,0.7058445000438951,True,15,-,-,-
Y2-S2-161K21,1,59,PS,intra_train,50,←,right,→,0.7900605000322685,False,15,-,-,-
Y2-S2-161K21,1,60,PS,exp,40,↑,up,↑,0.8373308000154793,True,10,0,0,0
Y2-S2-161K21,1,61,PS,exp,28,↓,right,→,1.210738499998115,False,10,-1,0,0
Y2-S2-161K21,1,62,PS,exp,50,→,right,→,0.9701924999826588,True,11,-1,0,0
Y2-S2-161K21,1,63,PS,exp,37,↑,left,←,1.6284956999588758,False,11,-1,0,0
Y2-S2-161K21,1,64,PS,exp,47,→,right,→,0.9174897000193596,True,12,-1,0,0
Y2-S2-161K21,1,65,PS,exp,36,↓,down,↓,0.9184676000149921,True,12,-1,0,0
Y2-S2-161K21,1,66,PS,exp,28,←,right,→,0.9333903000224382,False,12,-1,0,0
Y2-S2-161K21,1,67,PS,exp,49,↓,down,↓,0.7605827000224963,True,13,-1,0,0
Y2-S2-161K21,1,68,PS,exp,38,→,left,←,0.8936285999952815,False,13,-1,0,0
Y2-S2-161K21,1,69,PS,exp,50,↓,down,↓,0.7454111999832094,True,14,-1,0,0
Y2-S2-161K21,1,70,PS,exp,47,→,right,→,0.7085895999916829,True,14,-1,0,0
Y2-S2-161K21,1,71,PS,exp,37,←,left,←,0.8828137000091374,True,14,1,1,1
Y2-S2-161K21,1,72,PS,exp,49,↑,up,↑,0.6073100999929011,True,13,1,0,1
Y2-S2-161K21,1,73,PS,exp,30,→,right,→,0.7250884000095539,True,13,1,0,1
Y2-S2-161K21,1,74,PS,exp,25,←,left,←,0.8846043999656104,True,13,1,0,1
Y2-S2-161K21,1,75,PS,exp,47,↓,down,↓,1.2554048000019975,True,12,1,0,1
Y2-S2-161K21,1,76,PS,exp,29,←,left,←,0.8308737999759614,True,12,1,0,1
Y2-S2-161K21,1,77,PS,exp,39,↑,up,↑,0.7384625000413507,True,12,1,0,1
Y2-S2-161K21,1,78,PS,exp,38,↓,down,↓,0.5942394000012428,True,11,1,0,1
Y2-S2-161K21,1,79,PS,exp,31,→,right,→,0.6795244000386447,True,11,1,0,1
Y2-S2-161K21,1,80,PS,exp,48,↑,left,←,1.1211214000359178,False,11,-1,1,2
Y2-S2-161K21,1,81,PS,exp,36,←,left,←,0.7711188999819569,True,12,-1,0,2
Y2-S2-161K21,1,82,PS,exp,27,↓,right,→,0.8830733999493532,False,12,-1,0,2
Y2-S2-161K21,1,83,PS,exp,35,←,left,←,0.987985799962189,True,13,-1,0,2
Y2-S2-161K21,1,84,PS,exp,31,↓,down,↓,0.7755848999950103,True,13,-1,0,2
Y2-S2-161K21,1,85,PS,exp,46,↑,up,↑,0.5777678999584168,True,13,1,1,3
Y2-S2-161K21,1,86,PS,exp,40,→,right,→,0.6218102999846451,True,12,1,0,3
Y2-S2-161K21,1,87,PS,exp,44,←,left,←,0.8778423000476323,True,12,1,0,3
Y2-S2-161K21,1,88,PS,exp,34,↓,down,↓,0.6166812000446953,True,12,1,0,3
Y2-S2-161K21,1,89,PS,exp,32,↑,up,↑,0.5477418000227772,True,11,1,0,3
Y2-S2-161K21,1,90,PS,exp,27,↓,down,↓,0.6475632999790832,True,11,1,0,3
Y2-S2-161K21,1,91,PS,exp,28,→,right,→,0.7077723999973387,True,11,1,0,3
Y2-S2-161K21,1,92,PS,exp,29,↑,up,↑,0.6773821000242606,True,10,1,0,3
Y2-S2-161K21,1,93,PS,exp,25,←,left,←,1.047317499993369,True,10,1,0,3
Y2-S2-161K21,1,94,PS,exp,35,↑,up,↑,1.0232129000360146,True,10,1,0,3
Y2-S2-161K21,1,95,PS,exp,41,↓,down,↓,0.7339793000137433,True,9,1,0,3
Y2-S2-161K21,1,96,PS,exp,42,→,right,→,0.8467833999893628,True,9,1,0,3
Y2-S2-161K21,1,97,PS,exp,38,↓,down,↓,0.6610196999972686,True,9,1,0,3
Y2-S2-161K21,1,98,PS,exp,40,↑,up,↑,0.5788292000070214,True,8,1,0,3
Y2-S2-161K21,1,99,PS,exp,34,↓,left,←,1.3440421000123024,False,8,-1,1,4
Y2-S2-161K21,1,100,PS,exp,30,←,left,←,0.753152500023134,True,9,-1,0,4
Y2-S2-161K21,1,101,PS,exp,46,↓,right,→,1.1470539000001736,False,9,-1,0,4
Y2-S2-161K21,1,102,PS,exp,39,→,right,→,0.5808592000394128,True,10,-1,0,4
Y2-S2-161K21,1,103,PS,exp,33,↑,up,↑,0.709170299989637,True,10,-1,0,4
Y2-S2-161K21,1,104,PS,exp,25,↓,down,↓,0.9092981000430882,True,10,1,1,5
Y2-S2-161K21,1,105,PS,exp,28,→,left,←,1.0642688999651,False,9,-1,1,6
Y2-S2-161K21,1,106,PS,exp,28,↑,left,←,1.3609229999710806,False,10,-1,0,6
Y2-S2-161K21,1,107,PS,exp,27,→,right,→,0.8761161000002176,True,11,-1,0,6
Y2-S2-161K21,1,108,PS,exp,33,↓,down,↓,0.6031736999866553,True,11,-1,0,6
Y2-S2-161K21,1,109,PS,exp,38,←,left,←,0.704996399988886,True,11,1,1,7
Y2-S2-161K21,1,110,PS,exp,48,↑,left,←,0.991133900010027,False,10,-1,1,8
Y2-S2-161K21,1,111,PS,exp,44,←,right,→,0.783158199978061,False,11,-1,0,8
Y2-S2-161K21,1,112,PS,exp,40,↑,up,↑,0.6605964999762364,True,12,-1,0,8
Y2-S2-161K21,1,113,PS,exp,33,↓,left,←,1.0204089000471868,False,12,-1,0,8
Y2-S2-161K21,1,114,PS,exp,47,↑,up,↑,0.7653525999630801,True,13,-1,0,8
Y2-S2-161K21,1,115,PS,exp,35,↓,down,↓,0.5343890999793075,True,13,-1,0,8
Y2-S2-161K21,1,116,PS,exp,28,←,left,←,0.7759947999729775,True,13,1,1,9
Y2-S2-161K21,1,117,PS,exp,36,↑,up,↑,0.6725235999911092,True,12,1,0,9
Y2-S2-161K21,1,118,PS,exp,26,↓,down,↓,0.6002022000029683,True,12,1,0,9
Y2-S2-161K21,1,119,PS,exp,31,↑,up,↑,0.4950245000072755,True,12,1,0,9
Y2-S2-161K21,1,120,PS,exp,49,→,right,→,1.107175000011921,True,11,1,0,9
Y2-S2-161K21,1,121,PS,exp,28,↑,up,↑,0.7818724000244401,True,11,1,0,9
Y2-S2-161K21,1,122,PS,exp,48,←,left,←,0.6117790999705903,True,11,1,0,9
Y2-S2-161K21,1,123,PS,exp,45,↓,down,↓,0.5925742000108585,True,10,1,0,9
Y2-S2-161K21,1,124,PS,exp,49,←,right,→,0.8920151000493206,False,10,-1,1,10
Y2-S2-161K21,1,125,PS,exp,47,↓,down,↓,0.6040304999914952,True,11,-1,0,10
Y2-S2-161K21,1,126,PS,exp,47,→,left,←,0.9845453000161797,False,11,-1,0,10
Y2-S2-161K21,1,127,PS,exp,39,←,left,←,0.7086052999948151,True,12,-1,0,10
Y2-S2-161K21,1,128,PS,exp,44,↑,right,→,0.9886339000076987,False,12,-1,0,10
Y2-S2-161K21,1,129,PS,exp,26,↓,down,↓,0.5461620999849401,True,13,-1,0,10
Y2-S2-161K21,1,130,PS,exp,26,↑,up,↑,0.6461843000142835,True,13,-1,0,10
Y2-S2-161K21,1,131,PS,exp,29,→,right,→,0.8348259000340477,True,13,1,1,11
Y2-S2-161K21,1,132,PS,exp,33,↑,up,↑,0.9129436999792233,True,12,1,0,11
Y2-S2-161K21,1,133,PS,exp,50,→,right,→,0.7417626999667846,True,12,1,0,11
Y2-S2-161K21,1,134,PS,exp,33,↓,down,↓,0.6663210999686271,True,12,1,0,11
Y2-S2-161K21,1,135,PS,exp,43,→,right,→,0.5545611999696121,True,11,1,0,11
Y2-S2-161K21,1,136,PS,exp,43,↓,down,↓,0.6734846000326797,True,11,1,0,11
Y2-S2-161K21,1,137,PS,exp,26,←,left,←,0.9718144999933429,True,11,1,0,11
Y2-S2-161K21,1,138,PS,exp,43,↑,down,↓,0.7305074000032619,False,10,-1,1,12
Y2-S2-161K21,1,139,PS,exp,38,→,right,→,0.8696175999939442,True,11,-1,0,12
Y2-S2-161K21,1,140,PS,exp,48,↑,up,↑,0.7207110000308603,True,11,-1,0,12
Y2-S2-161K21,1,141,PS,exp,40,←,left,←,0.7836868999875151,True,11,1,1,13
Y2-S2-161K21,1,142,PS,exp,45,→,right,→,0.910488500026986,True,10,1,0,13
Y2-S2-161K21,1,143,PS,exp,27,←,left,←,0.8833905999781564,True,10,1,0,13
Y2-S2-161K21,1,144,PS,exp,27,↓,right,→,0.8482726999791339,False,10,-1,1,14
Y2-S2-161K21,1,145,PS,exp,49,→,right,→,0.5981872000265867,True,11,-1,0,14
Y2-S2-161K21,1,146,PS,exp,38,↑,left,←,1.0107318999944255,False,11,-1,0,14
Y2-S2-161K21,1,147,PS,exp,33,↓,down,↓,0.6976546000223607,True,12,-1,0,14
Y2-S2-161K21,1,148,PS,exp,49,←,down,↓,0.3700486999587156,False,12,-1,0,14
Y2-S2-161K21,1,149,PS,exp,50,↑,up,↑,0.7199700999772176,True,13,-1,0,14
Y2-S2-161K21,1,150,PS,exp,32,←,left,←,0.7776889000087976,True,13,-1,0,14
Y2-S2-161K21,1,151,PS,exp,46,↑,up,↑,0.7708007999463007,True,13,1,1,15
Y2-S2-161K21,1,152,PS,exp,41,→,right,→,0.8011656999588013,True,12,1,0,15
Y2-S2-161K21,1,153,PS,exp,27,↑,up,↑,1.0281502999714576,True,12,1,0,15
Y2-S2-161K21,1,154,PS,exp,27,←,left,←,0.9542927999864332,True,12,1,0,15
Y2-S2-161K21,1,155,PS,exp,26,→,right,→,0.7983816000050865,True,11,1,0,15
Y2-S2-161K21,1,156,PS,exp,34,↓,down,↓,0.6620859000249766,True,11,1,0,15
Y2-S2-161K21,1,157,PS,exp,47,↑,up,↑,0.6375441999989562,True,11,1,0,15
Y2-S2-161K21,1,158,PS,exp,40,↓,down,↓,0.761860299971886,True,10,1,0,15
Y2-S2-161K21,1,159,PS,exp,43,→,right,→,0.6977346999919973,True,10,1,0,15
Y2-S2-161K21,1,160,PS,exp,49,↓,left,←,1.076242400042247,False,10,-1,1,16
Y2-S2-161K21,2,161,AS,intra_train,39,↑,up,↑,1.1613721000030637,True,27,-,-,-
Y2-S2-161K21,2,162,AS,intra_train,44,→,right,→,1.057186999998521,True,27,-,-,-
Y2-S2-161K21,2,163,AS,intra_train,40,↑,up,↑,1.0132745999726467,True,27,-,-,-
Y2-S2-161K21,2,164,AS,intra_train,41,→,right,→,1.1219870999921113,True,27,-,-,-
Y2-S2-161K21,2,165,AS,intra_train,49,↓,down,↓,0.7389527999912389,True,27,-,-,-
Y2-S2-161K21,2,166,AS,exp,28,→,right,→,0.867610200017225,True,18,0,0,0
Y2-S2-161K21,2,167,AS,exp,45,↓,left,←,1.7017397999879904,False,18,-1,0,0
Y2-S2-161K21,2,168,AS,exp,27,→,right,→,0.7611971999867819,True,19,-1,0,0
Y2-S2-161K21,2,169,AS,exp,49,↓,down,↓,0.8893952000071295,True,19,-1,0,0
Y2-S2-161K21,2,170,AS,exp,31,←,left,←,0.7532242999877781,True,19,1,1,1
Y2-S2-161K21,2,171,AS,exp,37,↑,down,↓,0.9203107999637723,False,18,-1,1,2
Y2-S2-161K21,2,172,AS,exp,48,→,right,→,0.9581252000061795,True,19,-1,0,2
Y2-S2-161K21,2,173,AS,exp,45,↑,right,→,1.113648500002455,False,19,-1,0,2
Y2-S2-161K21,2,174,AS,exp,45,↓,down,↓,1.089354199997615,True,20,-1,0,2
Y2-S2-161K21,2,175,AS,exp,27,←,left,←,1.0383146000094712,True,20,-1,0,2
Y2-S2-161K21,2,176,AS,exp,27,↑,down,↓,0.797803700028453,False,20,-1,0,2
Y2-S2-161K21,2,177,AS,exp,34,←,left,←,0.923201399971731,True,21,-1,0,2
Y2-S2-161K21,2,178,AS,exp,32,↓,down,↓,0.8881402999977581,True,21,-1,0,2
Y2-S2-161K21,2,179,AS,exp,50,←,left,←,1.010888300021179,True,21,1,1,3
Y2-S2-161K21,2,180,AS,exp,25,↓,left,←,1.2224556999863125,False,20,-1,1,4
Y2-S2-161K21,2,181,AS,exp,45,→,right,→,0.8914396000327542,True,21,-1,0,4
Y2-S2-161K21,2,182,AS,exp,49,↑,up,↑,0.8841233000275679,True,21,-1,0,4
Y2-S2-161K21,2,183,AS,exp,45,→,right,→,0.7437846999964677,True,21,1,1,5
Y2-S2-161K21,2,184,AS,exp,36,↓,down,↓,0.66145770001458,True,20,1,0,5
Y2-S2-161K21,2,185,AS,exp,34,→,right,→,0.8060604000347666,True,20,1,0,5
Y2-S2-161K21,2,186,AS,exp,43,←,left,←,0.9523100000224076,True,20,1,0,5
Y2-S2-161K21,2,187,AS,exp,41,↑,up,↑,1.0830298999790102,True,19,1,0,5
Y2-S2-161K21,2,188,AS,exp,36,→,up,↑,0.8663330000126734,False,19,-1,1,6
Y2-S2-161K21,2,189,AS,exp,28,←,left,←,0.9907007999718189,True,20,-1,0,6
Y2-S2-161K21,2,190,AS,exp,43,↑,up,↑,0.8570353999966756,True,20,-1,0,6
Y2-S2-161K21,2,191,AS,exp,39,↓,down,↓,0.7615216000122018,True,20,1,1,7
Y2-S2-161K21,2,192,AS,exp,25,→,right,→,1.0604845999623649,True,19,1,0,7
Y2-S2-161K21,2,193,AS,exp,43,↑,up,↑,0.7020876999595203,True,19,1,0,7
Y2-S2-161K21,2,194,AS,exp,48,↓,down,↓,0.7833828000002541,True,19,1,0,7
Y2-S2-161K21,2,195,AS,exp,50,↑,up,↑,0.8947354999836534,True,18,1,0,7
Y2-S2-161K21,2,196,AS,exp,35,←,left,←,0.8403419000096619,True,18,1,0,7
Y2-S2-161K21,2,197,AS,exp,48,↓,down,↓,0.6067821999895386,True,18,1,0,7
Y2-S2-161K21,2,198,AS,exp,48,←,left,←,0.6370441999752074,True,17,1,0,7
Y2-S2-161K21,2,199,AS,exp,29,↑,up,↑,0.6299536000005901,True,17,1,0,7
Y2-S2-161K21,2,200,AS,exp,26,→,left,←,1.108785699994769,False,17,-1,1,8
Y2-S2-161K21,2,201,AS,exp,39,←,right,→,1.3252400000346825,False,18,-1,0,8
Y2-S2-161K21,2,202,AS,exp,26,↓,down,↓,0.990559600002598,True,19,-1,0,8
Y2-S2-161K21,2,203,AS,exp,37,←,left,←,0.9154395000077784,True,19,-1,0,8
Y2-S2-161K21,2,204,AS,exp,50,↓,down,↓,0.7135402000276372,True,19,1,1,9
Y2-S2-161K21,2,205,AS,exp,30,↑,up,↑,0.6717375000007451,True,18,1,0,9
Y2-S2-161K21,2,206,AS,exp,40,→,right,→,1.0554016000241973,True,18,1,0,9
Y2-S2-161K21,2,207,AS,exp,38,↓,down,↓,0.9206434999941848,True,18,1,0,9
Y2-S2-161K21,2,208,AS,exp,48,←,left,←,1.3003233000054024,True,17,1,0,9
Y2-S2-161K21,2,209,AS,exp,38,↑,down,↓,0.9012574999942444,False,17,-1,1,10
Y2-S2-161K21,2,210,AS,exp,33,→,right,→,0.7707939999527298,True,18,-1,0,10
Y2-S2-161K21,2,211,AS,exp,41,↑,up,↑,0.9197697000345215,True,18,-1,0,10
Y2-S2-161K21,2,212,AS,exp,36,←,left,←,0.6938850999576971,True,18,1,1,11
Y2-S2-161K21,2,213,AS,exp,43,↓,down,↓,0.7150913999648765,True,17,1,0,11
Y2-S2-161K21,2,214,AS,exp,35,↑,up,↑,0.7755868000094779,True,17,1,0,11
Y2-S2-161K21,2,215,AS,exp,30,←,right,→,0.8583474999759346,False,17,-1,1,12
Y2-S2-161K21,2,216,AS,exp,41,↓,down,↓,0.7497986000380479,True,18,-1,0,12
Y2-S2-161K21,2,217,AS,exp,47,→,right,→,0.814313700015191,True,18,-1,0,12
Y2-S2-161K21,2,218,AS,exp,50,←,left,←,1.1039299999829382,True,18,1,1,13
Y2-S2-161K21,2,219,AS,exp,43,↓,down,↓,0.5940003999858163,True,17,1,0,13
Y2-S2-161K21,2,220,AS,exp,33,→,left,←,1.6746214000158943,False,17,-1,1,14
Y2-S2-161K21,2,221,AS,exp,28,←,left,←,1.1001376999774948,True,18,-1,0,14
Y2-S2-161K21,2,222,AS,exp,32,↑,up,↑,0.8036851999931969,True,18,-1,0,14
Y2-S2-161K21,2,223,AS,exp,50,↓,left,←,0.9426678000018001,False,18,-1,0,14
Y2-S2-161K21,2,224,AS,exp,38,←,left,←,0.8826034999801777,True,19,-1,0,14
Y2-S2-161K21,2,225,AS,exp,44,→,right,→,1.4090772999916226,True,19,-1,0,14
Y2-S2-161K21,2,226,AS,exp,44,↓,right,→,0.9793386000092141,False,19,-1,0,14
Y2-S2-161K21,2,227,AS,exp,38,→,up,↑,1.2130097999470308,False,20,-1,0,14
Y2-S2-161K21,2,228,AS,exp,47,↓,down,↓,0.7339424999663606,True,21,-1,0,14
Y2-S2-161K21,2,229,AS,exp,41,→,right,→,0.5937265999964438,True,21,-1,0,14
Y2-S2-161K21,2,230,AS,exp,40,↓,down,↓,0.6826529999962077,True,21,1,1,15
Y2-S2-161K21,2,231,AS,exp,42,↑,up,↑,0.6801696000038646,True,20,1,0,15
Y2-S2-161K21,2,232,AS,exp,49,→,right,→,0.902334799990058,True,20,1,0,15
Y2-S2-161K21,2,233,AS,exp,42,←,left,←,1.0891378000378609,True,20,1,0,15
Y2-S2-161K21,2,234,AS,exp,43,↓,up,↑,0.912440299987793,False,19,-1,1,16
Y2-S2-161K21,3,235,AS,intra_train,39,→,right,→,1.135889999975916,True,27,-,-,-
Y2-S2-161K21,3,236,AS,intra_train,35,↓,down,↓,0.8810770999989472,True,27,-,-,-
Y2-S2-161K21,3,237,AS,intra_train,25,↑,up,↑,0.8991085999878123,True,27,-,-,-
Y2-S2-161K21,3,238,AS,intra_train,37,←,left,←,0.7502306000096723,True,27,-,-,-
Y2-S2-161K21,3,239,AS,intra_train,45,→,right,→,0.8396005999529734,True,27,-,-,-
Y2-S2-161K21,3,240,AS,exp,39,↑,up,↑,0.8403570000082254,True,18,0,0,0
Y2-S2-161K21,3,241,AS,exp,26,→,right,→,0.6898609000490978,True,18,0,0,0
Y2-S2-161K21,3,242,AS,exp,36,←,left,←,0.6712716000038199,True,18,1,0,0
Y2-S2-161K21,3,243,AS,exp,48,→,up,↑,0.91708430001745,False,17,-1,1,1
Y2-S2-161K21,3,244,AS,exp,45,↑,up,↑,0.7508648000075482,True,18,-1,0,1
Y2-S2-161K21,3,245,AS,exp,26,↓,down,↓,1.0119077999843284,True,18,-1,0,1
Y2-S2-161K21,3,246,AS,exp,37,↑,up,↑,0.5507799000479281,True,18,1,1,2
Y2-S2-161K21,3,247,AS,exp,44,→,right,→,0.8854935999843292,True,17,1,0,2
Y2-S2-161K21,3,248,AS,exp,45,↓,down,↓,0.6818240000284277,True,17,1,0,2
Y2-S2-161K21,3,249,AS,exp,46,↑,up,↑,0.8695667000138201,True,17,1,0,2
Y2-S2-161K21,3,250,AS,exp,28,→,right,→,0.6280723999952897,True,16,1,0,2
Y2-S2-161K21,3,251,AS,exp,46,↑,up,↑,0.620973100012634,True,16,1,0,2
Y2-S2-161K21,3,252,AS,exp,26,→,left,←,1.155996799992863,False,16,-1,1,3
Y2-S2-161K21,3,253,AS,exp,26,↑,left,←,1.19954920001328,False,17,-1,0,3
Y2-S2-161K21,3,254,AS,exp,31,↓,up,↑,0.8593583999900147,False,18,-1,0,3
Y2-S2-161K21,3,255,AS,exp,39,←,left,←,0.9346965000149794,True,19,-1,0,3
Y2-S2-161K21,3,256,AS,exp,46,→,right,→,0.8248727999744006,True,19,-1,0,3
Y2-S2-161K21,3,257,AS,exp,28,↑,up,↑,1.0451575000188313,True,19,1,1,4
Y2-S2-161K21,3,258,AS,exp,28,→,right,→,1.1333956000162289,True,18,1,0,4
Y2-S2-161K21,3,259,AS,exp,47,↑,up,↑,0.9071099999709986,True,18,1,0,4
Y2-S2-161K21,3,260,AS,exp,50,↓,down,↓,0.6880042999982834,True,18,1,0,4
Y2-S2-161K21,3,261,AS,exp,31,↑,left,←,1.0779426000081003,False,17,-1,1,5
Y2-S2-161K21,3,262,AS,exp,27,←,left,←,0.8578549999510869,True,18,-1,0,5
Y2-S2-161K21,3,263,AS,exp,31,→,right,→,0.7986389999859966,True,18,-1,0,5
Y2-S2-161K21,3,264,AS,exp,34,←,left,←,0.8868026999989524,True,18,1,1,6
Y2-S2-161K21,3,265,AS,exp,49,↓,up,↑,0.9515816999482922,False,17,-1,1,7
Y2-S2-161K21,3,266,AS,exp,40,↑,up,↑,0.6882230999763124,True,18,-1,0,7
Y2-S2-161K21,3,267,AS,exp,32,→,right,→,1.1853733999887481,True,18,-1,0,7
Y2-S2-161K21,3,268,AS,exp,39,↓,down,↓,0.6686670999624766,True,18,1,1,8
Y2-S2-161K21,3,269,AS,exp,40,↑,up,↑,0.897771299991291,True,17,1,0,8
Y2-S2-161K21,3,270,AS,exp,43,↓,down,↓,0.8062504999688827,True,17,1,0,8
Y2-S2-161K21,3,271,AS,exp,30,↑,up,↑,0.7927213999792002,True,17,1,0,8
Y2-S2-161K21,3,272,AS,exp,43,→,right,→,0.8605819000513293,True,16,1,0,8
Y2-S2-161K21,3,273,AS,exp,41,↓,down,↓,0.9806075000087731,True,16,1,0,8
Y2-S2-161K21,3,274,AS,exp,43,←,left,←,0.8777345000416972,True,16,1,0,8
Y2-S2-161K21,3,275,AS,exp,25,↑,right,→,1.0556996000232175,False,15,-1,1,9
Y2-S2-161K21,3,276,AS,exp,47,→,right,→,0.7038296000100672,True,16,-1,0,9
Y2-S2-161K21,3,277,AS,exp,45,↑,up,↑,0.6591575999627821,True,16,-1,0,9
Y2-S2-161K21,3,278,AS,exp,33,←,left,←,0.6488607000210322,True,16,1,1,10
Y2-S2-161K21,3,279,AS,exp,39,↑,up,↑,0.797464300005231,True,15,1,0,10
Y2-S2-161K21,3,280,AS,exp,25,→,right,→,0.694580200011842,True,15,1,0,10
Y2-S2-161K21,3,281,AS,exp,44,↑,up,↑,0.6430079999845475,True,15,1,0,10
Y2-S2-161K21,3,282,AS,exp,25,→,up,↑,0.8362397999735549,False,14,-1,1,11
Y2-S2-161K21,3,283,AS,exp,49,↑,up,↑,0.6452014000387862,True,15,-1,0,11
Y2-S2-161K21,3,284,AS,exp,44,→,up,↑,0.7976704000029713,False,15,-1,0,11
Y2-S2-161K21,3,285,AS,exp,39,←,left,←,0.7076952999923378,True,16,-1,0,11
Y2-S2-161K21,3,286,AS,exp,42,↓,up,↑,0.9498407999635674,False,16,-1,0,11
Y2-S2-161K21,3,287,AS,exp,42,→,right,→,0.6731920999591239,True,17,-1,0,11
Y2-S2-161K21,3,288,AS,exp,42,↑,up,↑,0.8580193999805488,True,17,-1,0,11
Y2-S2-161K21,3,289,AS,exp,34,↓,up,↑,0.9347274000174366,False,17,-1,0,11
Y2-S2-161K21,3,290,AS,exp,50,→,right,→,0.9276414000196382,True,18,-1,0,11
Y2-S2-161K21,3,291,AS,exp,27,←,right,→,1.1447382999467663,False,18,-1,0,11
Y2-S2-161K21,3,292,AS,exp,39,↓,down,↓,0.6959158999961801,True,19,-1,0,11
Y2-S2-161K21,3,293,AS,exp,27,→,right,→,0.7825980000197887,True,19,-1,0,11
Y2-S2-161K21,3,294,AS,exp,25,↓,down,↓,0.6660558999865316,True,19,1,1,12
Y2-S2-161K21,3,295,AS,exp,39,←,right,→,0.89627319999272,False,18,-1,1,13
Y2-S2-161K21,3,296,AS,exp,27,→,right,→,0.763523300003726,True,19,-1,0,13
Y2-S2-161K21,3,297,AS,exp,50,↓,down,↓,0.6938859999645501,True,19,-1,0,13
Y2-S2-161K21,3,298,AS,exp,25,↑,up,↑,0.6225386000005528,True,19,1,1,14
Y2-S2-161K21,3,299,AS,exp,30,→,right,→,0.6227053999900818,True,18,1,0,14
Y2-S2-161K21,3,300,AS,exp,46,↑,up,↑,0.9824017999926582,True,18,1,0,14
Y2-S2-161K21,3,301,AS,exp,28,←,left,←,0.8913376000127755,True,18,1,0,14
Y2-S2-161K21,3,302,AS,exp,49,↓,down,↓,0.6471900999895297,True,17,1,0,14
Y2-S2-161K21,3,303,AS,exp,37,←,left,←,0.8845980000332929,True,17,1,0,14
Y2-S2-161K21,3,304,AS,exp,37,↓,down,↓,0.5634288999717683,True,17,1,0,14
Y2-S2-161K21,3,305,AS,exp,50,→,left,←,0.9156003000098281,False,16,-1,1,15
Y2-S2-161K21,3,306,AS,exp,49,↓,down,↓,0.5819545999984257,True,17,-1,0,15
Y2-S2-161K21,3,307,AS,exp,29,↑,left,←,1.3187612000037916,False,17,-1,0,15
Y2-S2-161K21,3,308,AS,exp,50,↓,down,↓,0.5696250000037253,True,18,-1,0,15
Y2-S2-161K21,3,309,AS,exp,36,→,right,→,0.7211826000129804,True,18,-1,0,15
Y2-S2-161K21,3,310,AS,exp,31,←,left,←,0.7352461999980733,True,18,1,1,16
Y2-S2-161K21,4,311,PS,intra_train,27,↓,down,↓,0.6376487000379711,True,15,-,-,-
Y2-S2-161K21,4,312,PS,intra_train,42,←,down,↓,0.8314691000268795,False,15,-,-,-
Y2-S2-161K21,4,313,PS,intra_train,27,↑,up,↑,0.6756869999808259,True,15,-,-,-
Y2-S2-161K21,4,314,PS,intra_train,47,→,right,→,0.590335100016091,True,15,-,-,-
Y2-S2-161K21,4,315,PS,intra_train,32,↓,up,↑,0.8309849999495782,False,15,-,-,-
Y2-S2-161K21,4,316,PS,exp,29,→,right,→,0.760586799995508,True,10,0,0,0
Y2-S2-161K21,4,317,PS,exp,29,←,left,←,0.8337599000078626,True,10,0,0,0
Y2-S2-161K21,4,318,PS,exp,42,→,right,→,0.723654700035695,True,10,1,0,0
Y2-S2-161K21,4,319,PS,exp,42,↓,right,→,0.8768679000204429,False,9,-1,1,1
Y2-S2-161K21,4,320,PS,exp,42,→,right,→,0.6007573999813758,True,10,-1,0,1
Y2-S2-161K21,4,321,PS,exp,28,←,left,←,0.863569000037387,True,10,-1,0,1
Y2-S2-161K21,4,322,PS,exp,43,↓,down,↓,0.5976187000051141,True,10,1,1,2
Y2-S2-161K21,4,323,PS,exp,38,←,right,→,0.6392329999944195,False,9,-1,1,3
Y2-S2-161K21,4,324,PS,exp,50,↑,up,↑,0.6313453000038862,True,10,-1,0,3
Y2-S2-161K21,4,325,PS,exp,46,→,right,→,0.6825239000027068,True,10,-1,0,3
Y2-S2-161K21,4,326,PS,exp,35,↑,up,↑,0.7508873000042513,True,10,1,1,4
Y2-S2-161K21,4,327,PS,exp,47,→,up,↑,0.7696029000217095,False,9,-1,1,5
Y2-S2-161K21,4,328,PS,exp,30,↑,left,←,0.9413867000257596,False,10,-1,0,5
Y2-S2-161K21,4,329,PS,exp,25,→,right,→,0.7824058000114746,True,11,-1,0,5
Y2-S2-161K21,4,330,PS,exp,37,←,left,←,0.8567989000002854,True,11,-1,0,5
Y2-S2-161K21,4,331,PS,exp,29,→,right,→,0.7276376999798231,True,11,1,1,6
Y2-S2-161K21,4,332,PS,exp,42,←,left,←,0.7800745000131428,True,10,1,0,6
Y2-S2-161K21,4,333,PS,exp,25,↑,up,↑,0.6923812999739312,True,10,1,0,6
Y2-S2-161K21,4,334,PS,exp,48,→,right,→,0.6381528999772854,True,10,1,0,6
Y2-S2-161K21,4,335,PS,exp,36,↑,right,→,0.8975683000171557,False,9,-1,1,7
Y2-S2-161K21,4,336,PS,exp,28,↓,right,→,0.808969400008209,False,10,-1,0,7
Y2-S2-161K21,4,337,PS,exp,25,↑,up,↑,0.7981531000114046,True,11,-1,0,7
Y2-S2-161K21,4,338,PS,exp,28,←,left,←,0.656898999994155,True,11,-1,0,7
Y2-S2-161K21,4,339,PS,exp,26,↑,left,←,1.1650019999942742,False,11,-1,0,7
Y2-S2-161K21,4,340,PS,exp,47,↓,down,↓,0.7717704999959096,True,12,-1,0,7
Y2-S2-161K21,4,341,PS,exp,30,↑,up,↑,0.6859478999977,True,12,-1,0,7
Y2-S2-161K21,4,342,PS,exp,27,←,left,←,0.825264299986884,True,12,1,1,8
Y2-S2-161K21,4,343,PS,exp,36,↓,left,←,0.9726864999975078,False,11,-1,1,9
Y2-S2-161K21,4,344,PS,exp,29,↑,up,↑,0.6475862000370398,True,12,-1,0,9
Y2-S2-161K21,4,345,PS,exp,32,↓,down,↓,0.5343660000362433,True,12,-1,0,9
Y2-S2-161K21,4,346,PS,exp,31,←,left,←,0.6444934000028297,True,12,1,1,10
Y2-S2-161K21,4,347,PS,exp,27,↓,down,↓,0.5501974999788217,True,11,1,0,10
Y2-S2-161K21,4,348,PS,exp,35,↑,up,↑,0.5090836000163108,True,11,1,0,10
Y2-S2-161K21,4,349,PS,exp,50,→,right,→,0.6589911000337452,True,11,1,0,10
Y2-S2-161K21,4,350,PS,exp,48,↑,up,↑,0.649354100052733,True,10,1,0,10
Y2-S2-161K21,4,351,PS,exp,40,→,right,→,0.6420323000056669,True,10,1,0,10
Y2-S2-161K21,4,352,PS,exp,35,←,left,←,0.7606164000462741,True,10,1,0,10
Y2-S2-161K21,4,353,PS,exp,40,→,right,→,0.54666339996038,True,9,1,0,10
Y2-S2-161K21,4,354,PS,exp,37,←,left,←,1.0542734000482596,True,9,1,0,10
Y2-S2-161K21,4,355,PS,exp,48,↑,up,↑,0.666586599953007,True,9,1,0,10
Y2-S2-161K21,4,356,PS,exp,50,→,right,→,0.609981500019785,True,8,1,0,10
Y2-S2-161K21,4,357,PS,exp,31,↑,right,→,0.8766159000224434,False,8,-1,1,11
Y2-S2-161K21,4,358,PS,exp,33,↓,left,←,0.9824024999979883,False,9,-1,0,11
Y2-S2-161K21,4,359,PS,exp,41,←,left,←,0.695110599976033,True,10,-1,0,11
Y2-S2-161K21,4,360,PS,exp,49,↓,right,→,0.7856529999990016,False,10,-1,0,11
Y2-S2-161K21,4,361,PS,exp,42,→,right,→,0.6174133000313304,True,11,-1,0,11
Y2-S2-161K21,4,362,PS,exp,26,↑,up,↑,0.8716353999916464,True,11,-1,0,11
Y2-S2-161K21,4,363,PS,exp,31,↓,left,←,1.2920043999911286,False,11,-1,0,11
Y2-S2-161K21,4,364,PS,exp,34,←,left,←,0.7306775999604724,True,12,-1,0,11
Y2-S2-161K21,4,365,PS,exp,44,↓,down,↓,0.9057754999957979,True,12,-1,0,11
Y2-S2-161K21,4,366,PS,exp,27,→,right,→,0.6050720000057481,True,12,1,1,12
Y2-S2-161K21,4,367,PS,exp,38,↑,up,↑,1.1038202000199817,True,11,1,0,12
Y2-S2-161K21,4,368,PS,exp,35,↓,down,↓,0.6256691999733448,True,11,1,0,12
Y2-S2-161K21,4,369,PS,exp,42,←,left,←,0.7708721000235528,True,11,1,0,12
Y2-S2-161K21,4,370,PS,exp,35,↓,down,↓,0.6427476000390016,True,10,1,0,12
Y2-S2-161K21,4,371,PS,exp,28,→,right,→,0.6803098000236787,True,10,1,0,12
Y2-S2-161K21,4,372,PS,exp,30,↑,up,↑,0.7105660999659449,True,10,1,0,12
Y2-S2-161K21,4,373,PS,exp,27,↓,right,→,0.8088516000425443,False,9,-1,1,13
Y2-S2-161K21,4,374,PS,exp,45,↑,up,↑,0.7299151999759488,True,10,-1,0,13
Y2-S2-161K21,4,375,PS,exp,34,↓,down,↓,0.7261577000026591,True,10,-1,0,13
Y2-S2-161K21,4,376,PS,exp,27,↑,up,↑,0.7973750000237487,True,10,1,1,14
Y2-S2-161K21,4,377,PS,exp,48,↓,left,←,1.3412455000216141,False,9,-1,1,15
Y2-S2-161K21,4,378,PS,exp,30,↑,up,↑,0.7359424000023864,True,10,-1,0,15
Y2-S2-161K21,4,379,PS,exp,47,↓,right,→,0.7268598999944516,False,10,-1,0,15
Y2-S2-161K21,4,380,PS,exp,45,←,right,→,0.7202857999945991,False,11,-1,0,15
Y2-S2-161K21,4,381,PS,exp,46,↓,down,↓,0.759053599962499,True,12,-1,0,15
Y2-S2-161K21,4,382,PS,exp,48,→,right,→,0.5701126999920234,True,12,-1,0,15
Y2-S2-161K21,4,383,PS,exp,38,↓,down,↓,0.6844890000065789,True,12,1,1,16
Y2-S2-161K21,5,384,PS,intra_train,31,→,right,→,0.46576370002003387,True,15,-,-,-
Y2-S2-161K21,5,385,PS,intra_train,34,↓,down,↓,0.7919671999989077,True,15,-,-,-
Y2-S2-161K21,5,386,PS,intra_train,48,→,right,→,0.68494909995934,True,15,-,-,-
Y2-S2-161K21,5,387,PS,intra_train,47,↑,up,↑,0.7052446000161581,True,15,-,-,-
Y2-S2-161K21,5,388,PS,intra_train,32,↓,down,↓,0.6049776999861933,True,15,-,-,-
Y2-S2-161K21,5,389,PS,exp,49,↑,left,←,0.8263638999778777,False,10,-1,0,0
Y2-S2-161K21,5,390,PS,exp,47,↓,down,↓,0.8932859000051394,True,11,-1,0,0
Y2-S2-161K21,5,391,PS,exp,29,←,left,←,0.8211656999774277,True,11,-1,0,0
Y2-S2-161K21,5,392,PS,exp,44,→,right,→,0.5973564999876544,True,11,1,1,1
Y2-S2-161K21,5,393,PS,exp,32,←,left,←,0.8273242000141181,True,10,1,0,1
Y2-S2-161K21,5,394,PS,exp,30,↑,up,↑,0.6774060999741778,True,10,1,0,1
Y2-S2-161K21,5,395,PS,exp,47,↓,down,↓,0.6837558999541216,True,10,1,0,1
Y2-S2-161K21,5,396,PS,exp,37,↑,up,↑,0.7582193999551237,True,9,1,0,1
Y2-S2-161K21,5,397,PS,exp,32,↓,down,↓,0.6345676999771968,True,9,1,0,1
Y2-S2-161K21,5,398,PS,exp,41,↑,up,↑,0.4973488000105135,True,9,1,0,1
Y2-S2-161K21,5,399,PS,exp,46,→,left,←,0.9941840000101365,False,8,-1,1,2
Y2-S2-161K21,5,400,PS,exp,34,←,right,→,0.7125162999727763,False,9,-1,0,2
Y2-S2-161K21,5,401,PS,exp,48,↑,up,↑,0.7146420000353828,True,10,-1,0,2
Y2-S2-161K21,5,402,PS,exp,48,↓,down,↓,0.5798349999822676,True,10,-1,0,2
Y2-S2-161K21,5,403,PS,exp,44,↑,up,↑,0.5919379999977536,True,10,1,1,3
Y2-S2-161K21,5,404,PS,exp,37,←,right,→,1.102818900020793,False,9,-1,1,4
Y2-S2-161K21,5,405,PS,exp,26,↑,up,↑,0.6689313999959268,True,10,-1,0,4
Y2-S2-161K21,5,406,PS,exp,38,↓,left,←,0.9692434000317007,False,10,-1,0,4
Y2-S2-161K21,5,407,PS,exp,30,→,right,→,0.606628300040029,True,11,-1,0,4
Y2-S2-161K21,5,408,PS,exp,38,↑,right,→,0.8039756999933161,False,11,-1,0,4
Y2-S2-161K21,5,409,PS,exp,33,↓,down,↓,0.5899421999929473,True,12,-1,0,4
Y2-S2-161K21,5,410,PS,exp,43,←,left,←,0.6548100999789312,True,12,-1,0,4
Y2-S2-161K21,5,411,PS,exp,40,→,right,→,0.6091368999914266,True,12,1,1,5
Y2-S2-161K21,5,412,PS,exp,44,↑,up,↑,0.591353399970103,True,11,1,0,5
Y2-S2-161K21,5,413,PS,exp,44,→,right,→,0.5496563999913633,True,11,1,0,5
Y2-S2-161K21,5,414,PS,exp,36,↓,down,↓,0.5795138999819756,True,11,1,0,5
Y2-S2-161K21,5,415,PS,exp,40,←,right,→,0.6313203999889083,False,10,-1,1,6
Y2-S2-161K21,5,416,PS,exp,33,↑,up,↑,0.578070999996271,True,11,-1,0,6
Y2-S2-161K21,5,417,PS,exp,26,←,left,←,0.6042291999910958,True,11,-1,0,6
Y2-S2-161K21,5,418,PS,exp,36,↓,down,↓,0.4946498000063002,True,11,1,1,7
Y2-S2-161K21,5,419,PS,exp,49,←,left,←,0.901842100021895,True,10,1,0,7
Y2-S2-161K21,5,420,PS,exp,26,↓,down,↓,0.6833713999949396,True,10,1,0,7
Y2-S2-161K21,5,421,PS,exp,47,↑,up,↑,0.6740557000157423,True,10,1,0,7
Y2-S2-161K21,5,422,PS,exp,49,←,left,←,0.8277803999953903,True,9,1,0,7
Y2-S2-161K21,5,423,PS,exp,35,↑,left,←,0.8816378000192344,False,9,-1,1,8
Y2-S2-161K21,5,424,PS,exp,34,→,right,→,0.604851400014013,True,10,-1,0,8
Y2-S2-161K21,5,425,PS,exp,36,↑,up,↑,0.633019000000786,True,10,-1,0,8
Y2-S2-161K21,5,426,PS,exp,49,←,left,←,0.5912773000309244,True,10,1,1,9
Y2-S2-161K21,5,427,PS,exp,35,→,left,←,0.8918820000253618,False,9,-1,1,10
Y2-S2-161K21,5,428,PS,exp,27,↑,up,↑,0.6025984999723732,True,10,-1,0,10
Y2-S2-161K21,5,429,PS,exp,26,←,left,←,0.6269907000241801,True,10,-1,0,10
Y2-S2-161K21,5,430,PS,exp,31,→,right,→,0.7206062999903224,True,10,1,1,11
Y2-S2-161K21,5,431,PS,exp,50,↑,left,←,0.8930284999660216,False,9,-1,1,12
Y2-S2-161K21,5,432,PS,exp,33,↓,down,↓,0.6149491000105627,True,10,-1,0,12
Y2-S2-161K21,5,433,PS,exp,40,→,right,→,0.6061698000412434,True,10,-1,0,12
Y2-S2-161K21,5,434,PS,exp,49,↑,right,→,0.7635532000567764,False,10,-1,0,12
Y2-S2-161K21,5,435,PS,exp,37,←,left,←,0.8439606000320055,True,11,-1,0,12
Y2-S2-161K21,5,436,PS,exp,28,↓,right,→,0.7240499000181444,False,11,-1,0,12
Y2-S2-161K21,5,437,PS,exp,45,←,left,←,0.848423300019931,True,12,-1,0,12
Y2-S2-161K21,5,438,PS,exp,31,→,right,→,0.6686470999848098,True,12,-1,0,12
Y2-S2-161K21,5,439,PS,exp,33,↓,down,↓,0.6887747999862768,True,12,1,1,13
Y2-S2-161K21,5,440,PS,exp,46,↑,up,↑,0.5646200000192039,True,11,1,0,13
Y2-S2-161K21,5,441,PS,exp,35,←,left,←,0.6495177000178955,True,11,1,0,13
Y2-S2-161K21,5,442,PS,exp,34,↓,down,↓,0.6542150999885052,True,11,1,0,13
Y2-S2-161K21,5,443,PS,exp,45,→,right,→,0.527273999992758,True,10,1,0,13
Y2-S2-161K21,5,444,PS,exp,27,←,left,←,0.7753429999575019,True,10,1,0,13
Y2-S2-161K21,5,445,PS,exp,42,↓,down,↓,0.6036336999968626,True,10,1,0,13
Y2-S2-161K21,5,446,PS,exp,37,↑,up,↑,0.5745646000141278,True,9,1,0,13
Y2-S2-161K21,5,447,PS,exp,35,←,right,→,0.6843069000169635,False,9,-1,1,14
Y2-S2-161K21,5,448,PS,exp,45,↓,down,↓,0.6521547000156716,True,10,-1,0,14
Y2-S2-161K21,5,449,PS,exp,26,←,left,←,0.5830446999752894,True,10,-1,0,14
Y2-S2-161K21,5,450,PS,exp,35,→,right,→,0.5935863999766298,True,10,1,1,15
Y2-S2-161K21,5,451,PS,exp,25,↓,left,←,0.9168257999699563,False,9,-1,1,16
Y2-S2-161K21,6,452,AS,intra_train,32,←,left,←,1.460900700010825,True,27,-,-,-
Y2-S2-161K21,6,453,AS,intra_train,43,↑,up,↑,0.6897605999838561,True,27,-,-,-
Y2-S2-161K21,6,454,AS,intra_train,27,←,left,←,0.7122185000334866,True,27,-,-,-
Y2-S2-161K21,6,455,AS,intra_train,50,→,right,→,0.856201599992346,True,27,-,-,-
Y2-S2-161K21,6,456,AS,intra_train,28,↑,up,↑,1.120060499990359,True,27,-,-,-
Y2-S2-161K21,6,457,AS,exp,43,←,left,←,0.8296218999894336,True,18,0,0,0
Y2-S2-161K21,6,458,AS,exp,45,↑,up,↑,0.6169362000073306,True,18,0,0,0
Y2-S2-161K21,6,459,AS,exp,48,→,right,→,0.8309987999964505,True,18,1,0,0
Y2-S2-161K21,6,460,AS,exp,40,←,left,←,0.8798830999876373,True,17,1,0,0
Y2-S2-161K21,6,461,AS,exp,42,↑,up,↑,0.6191928000189364,True,17,1,0,0
Y2-S2-161K21,6,462,AS,exp,26,→,up,↑,1.2375195999629796,False,17,-1,1,1
Y2-S2-161K21,6,463,AS,exp,29,↑,up,↑,0.9543350000167266,True,18,-1,0,1
Y2-S2-161K21,6,464,AS,exp,33,→,right,→,0.6685247999848798,True,18,-1,0,1
Y2-S2-161K21,6,465,AS,exp,50,↑,up,↑,0.6931612000335008,True,18,1,1,2
Y2-S2-161K21,6,466,AS,exp,35,→,right,→,0.5902765999780968,True,17,1,0,2
Y2-S2-161K21,6,467,AS,exp,30,←,right,→,0.8122532000415958,False,17,-1,1,3
Y2-S2-161K21,6,468,AS,exp,40,↑,up,↑,0.9097317999694496,True,18,-1,0,3
Y2-S2-161K21,6,469,AS,exp,49,↓,down,↓,0.7992529000039212,True,18,-1,0,3
Y2-S2-161K21,6,470,AS,exp,29,←,left,←,0.6378052000072785,True,18,1,1,4
Y2-S2-161K21,6,471,AS,exp,47,↓,down,↓,0.8074870999553241,True,17,1,0,4
Y2-S2-161K21,6,472,AS,exp,47,↑,up,↑,0.92728999996325,True,17,1,0,4
Y2-S2-161K21,6,473,AS,exp,46,→,right,→,0.8384626000188291,True,17,1,0,4
Y2-S2-161K21,6,474,AS,exp,35,↑,down,↓,0.8837798000313342,False,16,-1,1,5
Y2-S2-161K21,6,475,AS,exp,25,↓,down,↓,0.7763918000273407,True,17,-1,0,5
Y2-S2-161K21,6,476,AS,exp,43,→,right,→,0.7745221999939531,True,17,-1,0,5
Y2-S2-161K21,6,477,AS,exp,45,←,left,←,0.8317507000174373,True,17,1,1,6
Y2-S2-161K21,6,478,AS,exp,35,↑,right,→,0.8409158000140451,False,16,-1,1,7
Y2-S2-161K21,6,479,AS,exp,31,↓,down,↓,0.7285154000273906,True,17,-1,0,7
Y2-S2-161K21,6,480,AS,exp,47,↑,up,↑,1.051450700033456,True,17,-1,0,7
Y2-S2-161K21,6,481,AS,exp,46,↓,down,↓,0.6108502999995835,True,17,1,1,8
Y2-S2-161K21,6,482,AS,exp,43,→,right,→,0.6619118000380695,True,16,1,0,8
Y2-S2-161K21,6,483,AS,exp,26,↑,up,↑,0.6567634999519214,True,16,1,0,8
Y2-S2-161K21,6,484,AS,exp,50,↓,right,→,0.8250644999789074,False,16,-1,1,9
Y2-S2-161K21,6,485,AS,exp,48,→,up,↑,0.8049665000289679,False,17,-1,0,9
Y2-S2-161K21,6,486,AS,exp,49,↑,right,→,1.3684862999944016,False,18,-1,0,9
Y2-S2-161K21,6,487,AS,exp,38,→,right,→,1.835473400016781,True,19,-1,0,9
Y2-S2-161K21,6,488,AS,exp,40,←,left,←,0.9121339999837801,True,19,-1,0,9
Y2-S2-161K21,6,489,AS,exp,39,↓,left,←,0.9975300999940373,False,19,-1,0,9
Y2-S2-161K21,6,490,AS,exp,47,←,right,→,0.7904177000164054,False,20,-1,0,9
Y2-S2-161K21,6,491,AS,exp,31,↑,up,↑,0.6865740999928676,True,21,-1,0,9
Y2-S2-161K21,6,492,AS,exp,48,→,right,→,0.7399541000486352,True,21,-1,0,9
Y2-S2-161K21,6,493,AS,exp,31,↑,up,↑,0.8229923999751918,True,21,1,1,10
Y2-S2-161K21,6,494,AS,exp,46,↓,down,↓,0.9799634999944828,True,20,1,0,10
Y2-S2-161K21,6,495,AS,exp,43,↑,up,↑,0.700661399983801,True,20,1,0,10
Y2-S2-161K21,6,496,AS,exp,44,↓,down,↓,0.6169720999896526,True,20,1,0,10
Y2-S2-161K21,6,497,AS,exp,46,←,right,→,0.7154338999534957,False,19,-1,1,11
Y2-S2-161K21,6,498,AS,exp,44,↓,down,↓,0.6176483000162989,True,20,-1,0,11
Y2-S2-161K21,6,499,AS,exp,31,←,left,←,0.813388499955181,True,20,-1,0,11
Y2-S2-161K21,6,500,AS,exp,43,→,right,→,0.5899728999938816,True,20,1,1,12
Y2-S2-161K21,6,501,AS,exp,45,←,left,←,0.6387517999974079,True,19,1,0,12
Y2-S2-161K21,6,502,AS,exp,48,↓,down,↓,0.5315756000345573,True,19,1,0,12
Y2-S2-161K21,6,503,AS,exp,26,←,right,→,0.8292369999689981,False,19,-1,1,13
Y2-S2-161K21,6,504,AS,exp,31,↑,left,←,1.2561922000022605,False,20,-1,0,13
Y2-S2-161K21,6,505,AS,exp,44,←,left,←,0.9846056000096723,True,21,-1,0,13
Y2-S2-161K21,6,506,AS,exp,27,→,right,→,0.644496800028719,True,21,-1,0,13
Y2-S2-161K21,6,507,AS,exp,39,←,left,←,0.92095669999253,True,21,1,1,14
Y2-S2-161K21,6,508,AS,exp,39,↑,left,←,0.7802004999830388,False,20,-1,1,15
Y2-S2-161K21,6,509,AS,exp,47,→,right,→,0.6885062999790534,True,21,-1,0,15
Y2-S2-161K21,6,510,AS,exp,29,↓,down,↓,0.6629673999850638,True,21,-1,0,15
Y2-S2-161K21,6,511,AS,exp,27,→,right,→,0.6638419000082649,True,21,1,1,16
Y2-S2-161K21,7,512,AS,intra_train,49,←,left,←,0.8161672000424005,True,27,-,-,-
Y2-S2-161K21,7,513,AS,intra_train,45,→,right,→,0.6275425999774598,True,27,-,-,-
Y2-S2-161K21,7,514,AS,intra_train,34,↑,up,↑,1.0134774000034668,True,27,-,-,-
Y2-S2-161K21,7,515,AS,intra_train,30,←,left,←,0.7875198000110686,True,27,-,-,-
Y2-S2-161K21,7,516,AS,intra_train,27,→,right,→,0.6185292999725789,True,27,-,-,-
Y2-S2-161K21,7,517,AS,exp,36,↑,up,↑,0.8541097000124864,True,18,0,0,0
Y2-S2-161K21,7,518,AS,exp,27,←,right,→,0.9815054999780841,False,18,-1,0,0
Y2-S2-161K21,7,519,AS,exp,49,↑,up,↑,0.7949998000403866,True,19,-1,0,0
Y2-S2-161K21,7,520,AS,exp,34,↓,down,↓,0.5984084999654442,True,19,-1,0,0
Y2-S2-161K21,7,521,AS,exp,49,←,left,←,1.0854456999804825,True,19,1,1,1
Y2-S2-161K21,7,522,AS,exp,49,↑,down,↓,0.76820630003931,False,18,-1,1,2
Y2-S2-161K21,7,523,AS,exp,42,↓,down,↓,1.4291550999623723,True,19,-1,0,2
Y2-S2-161K21,7,524,AS,exp,30,←,right,→,0.6878154000150971,False,19,-1,0,2
Y2-S2-161K21,7,525,AS,exp,30,→,right,→,0.6132192999939434,True,20,-1,0,2
Y2-S2-161K21,7,526,AS,exp,46,↑,up,↑,0.8380808000219986,True,20,-1,0,2
Y2-S2-161K21,7,527,AS,exp,27,←,left,←,0.9464489000383765,True,20,1,1,3
Y2-S2-161K21,7,528,AS,exp,46,→,right,→,0.7978233000030741,True,19,1,0,3
Y2-S2-161K21,7,529,AS,exp,30,↓,down,↓,0.8449783999822102,True,19,1,0,3
Y2-S2-161K21,7,530,AS,exp,25,←,left,←,0.8310245999600738,True,19,1,0,3
Y2-S2-161K21,7,531,AS,exp,39,→,left,←,1.2154326000018045,False,18,-1,1,4
Y2-S2-161K21,7,532,AS,exp,31,↓,down,↓,0.6867971000028774,True,19,-1,0,4
Y2-S2-161K21,7,533,AS,exp,40,→,right,→,0.6398056000471115,True,19,-1,0,4
Y2-S2-161K21,7,534,AS,exp,45,↑,up,↑,0.970909700030461,True,19,1,1,5
Y2-S2-161K21,7,535,AS,exp,38,↓,down,↓,0.7055041999556124,True,18,1,0,5
Y2-S2-161K21,7,536,AS,exp,37,↑,up,↑,0.6630353999789804,True,18,1,0,5
Y2-S2-161K21,7,537,AS,exp,50,↓,down,↓,0.7739808000042103,True,18,1,0,5
Y2-S2-161K21,7,538,AS,exp,45,↑,up,↑,0.6279851999715902,True,17,1,0,5
Y2-S2-161K21,7,539,AS,exp,31,←,left,←,0.8514128999668173,True,17,1,0,5
Y2-S2-161K21,7,540,AS,exp,41,↑,up,↑,0.8704687000135891,True,17,1,0,5
Y2-S2-161K21,7,541,AS,exp,26,→,up,↑,0.8789161000167951,False,16,-1,1,6
Y2-S2-161K21,7,542,AS,exp,43,↓,down,↓,0.6832608999684453,True,17,-1,0,6
Y2-S2-161K21,7,543,AS,exp,44,→,right,→,0.6746578000020236,True,17,-1,0,6
Y2-S2-161K21,7,544,AS,exp,29,↑,up,↑,0.6840192000381649,True,17,1,1,7
Y2-S2-161K21,7,545,AS,exp,25,→,right,→,0.8029493999783881,True,16,1,0,7
Y2-S2-161K21,7,546,AS,exp,45,←,right,→,0.7668521999730729,False,16,-1,1,8
Y2-S2-161K21,7,547,AS,exp,49,↑,up,↑,0.6948127000359818,True,17,-1,0,8
Y2-S2-161K21,7,548,AS,exp,37,↓,left,←,0.8249767000088468,False,17,-1,0,8
Y2-S2-161K21,7,549,AS,exp,31,←,left,←,0.7150616000290029,True,18,-1,0,8
Y2-S2-161K21,7,550,AS,exp,44,↓,down,↓,0.5219599000411108,True,18,-1,0,8
Y2-S2-161K21,7,551,AS,exp,37,→,right,→,0.6150752999819815,True,18,1,1,9
Y2-S2-161K21,7,552,AS,exp,30,←,right,→,0.6446233000024222,False,17,-1,1,10
Y2-S2-161K21,7,553,AS,exp,48,↑,up,↑,0.7428457999485545,True,18,-1,0,10
Y2-S2-161K21,7,554,AS,exp,25,↓,no_key,no_letter,-1.0,False,18,-1,0,10
Y2-S2-161K21,7,555,AS,exp,32,↑,right,→,0.888654799957294,False,19,-1,0,10
Y2-S2-161K21,7,556,AS,exp,49,←,left,←,0.7812656000023708,True,20,-1,0,10
Y2-S2-161K21,7,557,AS,exp,47,→,left,←,1.2964916999917477,False,20,-1,0,10
Y2-S2-161K21,7,558,AS,exp,34,↑,up,↑,0.7412218999816105,True,21,-1,0,10
Y2-S2-161K21,7,559,AS,exp,48,→,right,→,0.7597366999834776,True,21,-1,0,10
Y2-S2-161K21,7,560,AS,exp,39,←,left,←,0.8507246999652125,True,21,1,1,11
Y2-S2-161K21,7,561,AS,exp,30,→,right,→,0.6048936999868602,True,20,1,0,11
Y2-S2-161K21,7,562,AS,exp,36,↑,up,↑,0.721790699986741,True,20,1,0,11
Y2-S2-161K21,7,563,AS,exp,30,←,left,←,1.011695699999109,True,20,1,0,11
Y2-S2-161K21,7,564,AS,exp,25,↑,up,↑,0.772826400003396,True,19,1,0,11
Y2-S2-161K21,7,565,AS,exp,30,←,left,←,0.8875355999916792,True,19,1,0,11
Y2-S2-161K21,7,566,AS,exp,29,→,left,←,0.9060921000200324,False,19,-1,1,12
Y2-S2-161K21,7,567,AS,exp,29,↓,up,↑,0.7703803000040352,False,20,-1,0,12
Y2-S2-161K21,7,568,AS,exp,25,→,right,→,0.6902251999708824,True,21,-1,0,12
Y2-S2-161K21,7,569,AS,exp,34,↑,up,↑,0.6642668999847956,True,21,-1,0,12
Y2-S2-161K21,7,570,AS,exp,49,←,left,←,0.7124578999937512,True,21,1,1,13
Y2-S2-161K21,7,571,AS,exp,41,↓,up,↑,0.8127496999804862,False,20,-1,1,14
Y2-S2-161K21,7,572,AS,exp,33,←,left,←,0.992039599979762,True,21,-1,0,14
Y2-S2-161K21,7,573,AS,exp,27,↑,up,↑,0.766175500000827,True,21,-1,0,14
Y2-S2-161K21,7,574,AS,exp,41,←,left,←,0.9575106000411324,True,21,1,1,15
Y2-S2-161K21,7,575,AS,exp,49,↑,up,↑,0.5256217999849468,True,20,1,0,15
Y2-S2-161K21,7,576,AS,exp,45,←,left,←,0.8051264000241645,True,20,1,0,15
Y2-S2-161K21,7,577,AS,exp,38,↓,down,↓,0.5216300000320189,True,20,1,0,15
Y2-S2-161K21,7,578,AS,exp,30,←,left,←,0.5855609999853186,True,19,1,0,15
Y2-S2-161K21,7,579,AS,exp,32,→,right,→,0.58159680000972,True,19,1,0,15
Y2-S2-161K21,7,580,AS,exp,32,↓,left,←,1.3416004999889992,False,19,-1,1,16
Y2-S2-161K21,8,581,PS,intra_train,26,↑,up,↑,0.9514843000215478,True,15,-,-,-
Y2-S2-161K21,8,582,PS,intra_train,30,→,right,→,0.6559395000222139,True,15,-,-,-
Y2-S2-161K21,8,583,PS,intra_train,28,↑,left,←,1.0739995999610983,False,15,-,-,-
Y2-S2-161K21,8,584,PS,intra_train,50,←,right,→,0.7572394000017084,False,15,-,-,-
Y2-S2-161K21,8,585,PS,intra_train,48,→,right,→,0.5324292999575846,True,15,-,-,-
Y2-S2-161K21,8,586,PS,exp,49,↓,down,↓,0.6839592999895103,True,10,0,0,0
Y2-S2-161K21,8,587,PS,exp,48,→,right,→,0.6821136000216939,True,10,0,0,0
Y2-S2-161K21,8,588,PS,exp,43,↑,up,↑,0.6723775999853387,True,10,1,0,0
Y2-S2-161K21,8,589,PS,exp,50,↓,down,↓,0.5937628000392579,True,9,1,0,0
Y2-S2-161K21,8,590,PS,exp,41,←,left,←,0.6380820999620482,True,9,1,0,0
Y2-S2-161K21,8,591,PS,exp,41,→,right,→,0.702963899995666,True,9,1,0,0
Y2-S2-161K21,8,592,PS,exp,31,←,left,←,0.7651740000001155,True,8,1,0,0
Y2-S2-161K21,8,593,PS,exp,38,↑,right,→,0.6218449000152759,False,8,-1,1,1
Y2-S2-161K21,8,594,PS,exp,36,→,right,→,0.5248239999637008,True,9,-1,0,1
Y2-S2-161K21,8,595,PS,exp,33,←,left,←,0.7898075999692082,True,9,-1,0,1
Y2-S2-161K21,8,596,PS,exp,41,↓,down,↓,0.5412140000262298,True,9,1,1,2
Y2-S2-161K21,8,597,PS,exp,31,↑,up,↑,0.5419369000010192,True,8,1,0,2
Y2-S2-161K21,8,598,PS,exp,36,↓,down,↓,0.10162420000415295,True,8,1,0,2
Y2-S2-161K21,8,599,PS,exp,30,→,right,→,0.6420485000126064,True,8,1,0,2
Y2-S2-161K21,8,600,PS,exp,49,←,left,←,0.9133402000297792,True,7,1,0,2
Y2-S2-161K21,8,601,PS,exp,30,↓,left,←,0.7556244000443257,False,7,-1,1,3
Y2-S2-161K21,8,602,PS,exp,46,←,left,←,0.6022101000417024,True,8,-1,0,3
Y2-S2-161K21,8,603,PS,exp,41,↑,up,↑,0.5808152999961749,True,8,-1,0,3
Y2-S2-161K21,8,604,PS,exp,36,←,left,←,0.5559533000341617,True,8,1,1,4
Y2-S2-161K21,8,605,PS,exp,34,→,left,←,0.580338399973698,False,7,-1,1,5
Y2-S2-161K21,8,606,PS,exp,25,↓,down,↓,0.5267298999824561,True,8,-1,0,5
Y2-S2-161K21,8,607,PS,exp,47,↑,up,↑,0.5183173000114039,True,8,-1,0,5
Y2-S2-161K21,8,608,PS,exp,29,←,left,←,0.5414467999944463,True,8,1,1,6
Y2-S2-161K21,8,609,PS,exp,31,↑,right,→,0.6035759999649599,False,7,-1,1,7
Y2-S2-161K21,8,610,PS,exp,27,↓,down,↓,0.5696339000132866,True,8,-1,0,7
Y2-S2-161K21,8,611,PS,exp,28,↑,up,↑,0.5680766000295989,True,8,-1,0,7
Y2-S2-161K21,8,612,PS,exp,34,←,left,←,0.6638145999750122,True,8,1,1,8
Y2-S2-161K21,8,613,PS,exp,29,↓,down,↓,0.5747206999803893,True,7,1,0,8
Y2-S2-161K21,8,614,PS,exp,31,←,left,←,0.6443217999767512,True,7,1,0,8
Y2-S2-161K21,8,615,PS,exp,25,→,right,→,0.6106049999943934,True,7,1,0,8
Y2-S2-161K21,8,616,PS,exp,41,↓,down,↓,0.5200194999924861,True,6,1,0,8
Y2-S2-161K21,8,617,PS,exp,34,→,right,→,0.5708109000115655,True,6,1,0,8
Y2-S2-161K21,8,618,PS,exp,29,←,left,←,0.8248037999728695,True,6,1,0,8
Y2-S2-161K21,8,619,PS,exp,44,→,right,→,0.7324960000114515,True,5,1,0,8
Y2-S2-161K21,8,620,PS,exp,37,↑,right,→,0.5973917000228539,False,5,-1,1,9
Y2-S2-161K21,8,621,PS,exp,48,↓,right,→,0.6655543000088073,False,6,-1,0,9
Y2-S2-161K21,8,622,PS,exp,50,→,left,←,0.9372304999851622,False,7,-1,0,9
Y2-S2-161K21,8,623,PS,exp,30,↑,left,←,0.7203031000099145,False,8,-1,0,9
Y2-S2-161K21,8,624,PS,exp,43,→,right,→,0.5233690000022762,True,9,-1,0,9
Y2-S2-161K21,8,625,PS,exp,30,↑,right,→,1.5565142999985255,False,9,-1,0,9
Y2-S2-161K21,8,626,PS,exp,31,→,right,→,0.7533502000151202,True,10,-1,0,9
Y2-S2-161K21,8,627,PS,exp,39,←,left,←,0.926693300018087,True,10,-1,0,9
Y2-S2-161K21,8,628,PS,exp,39,↑,up,↑,0.7016124000074342,True,10,1,1,10
Y2-S2-161K21,8,629,PS,exp,26,↓,down,↓,0.7832006000098772,True,9,1,0,10
Y2-S2-161K21,8,630,PS,exp,49,↑,no_key,no_letter,-1.0,False,9,-1,1,11
Y2-S2-161K21,8,631,PS,exp,39,←,left,←,0.7896259999834001,True,10,-1,0,11
Y2-S2-161K21,8,632,PS,exp,29,↓,down,↓,0.5846580000361428,True,10,-1,0,11
Y2-S2-161K21,8,633,PS,exp,28,↑,right,→,0.6555656000273302,False,10,-1,0,11
Y2-S2-161K21,8,634,PS,exp,37,↓,down,↓,0.5934593999991193,True,11,-1,0,11
Y2-S2-161K21,8,635,PS,exp,35,↑,up,↑,0.6091647999710403,True,11,-1,0,11
Y2-S2-161K21,8,636,PS,exp,40,→,right,→,0.6088784000021406,True,11,1,1,12
Y2-S2-161K21,8,637,PS,exp,26,↓,down,↓,0.5717905000201426,True,10,1,0,12
Y2-S2-161K21,8,638,PS,exp,45,←,right,→,0.6849965000292286,False,10,-1,1,13
Y2-S2-161K21,8,639,PS,exp,36,↑,up,↑,0.6116048999829218,True,11,-1,0,13
Y2-S2-161K21,8,640,PS,exp,44,↓,down,↓,0.5265453000320122,True,11,-1,0,13
Y2-S2-161K21,8,641,PS,exp,49,←,left,←,0.6305786999873817,True,11,1,1,14
Y2-S2-161K21,8,642,PS,exp,35,↓,down,↓,1.200821900041774,True,10,1,0,14
Y2-S2-161K21,8,643,PS,exp,33,←,left,←,0.6649772999808192,True,10,1,0,14
Y2-S2-161K21,8,644,PS,exp,49,↓,down,↓,0.5225177999818698,True,10,1,0,14
Y2-S2-161K21,8,645,PS,exp,30,→,left,←,1.1386286999913864,False,9,-1,1,15
Y2-S2-161K21,8,646,PS,exp,29,↑,left,←,1.0420291000045836,False,10,-1,0,15
Y2-S2-161K21,8,647,PS,exp,29,↓,right,→,0.8669482000404969,False,11,-1,0,15
Y2-S2-161K21,8,648,PS,exp,33,→,right,→,0.5782912999857217,True,12,-1,0,15
Y2-S2-161K21,8,649,PS,exp,32,↑,up,↑,0.6566231999895535,True,12,-1,0,15
Y2-S2-161K21,8,650,PS,exp,25,←,left,←,0.6162442000349984,True,12,1,1,16
