PART_ID,Block_no,Trial_no,Block_type,Trial_type,CSI,Stim_letter,Key_pressed,letter_choose,Rt,Corr,Stimulus Time,Level,Reversal,Revs_count
Y2-S2-002K25,1,1,PS,train,33,→,right,→,1.1965938999783248,True,30,-,-,-
Y2-S2-002K25,1,2,PS,train,40,←,left,←,0.8299364999402314,True,30,-,-,-
Y2-S2-002K25,1,3,PS,train,45,→,right,→,1.2559024000074714,True,30,-,-,-
Y2-S2-002K25,1,4,PS,train,28,←,left,←,0.8765439999988303,True,30,-,-,-
Y2-S2-002K25,1,5,PS,train,31,↓,down,↓,0.9464945999206975,True,30,-,-,-
Y2-S2-002K25,1,6,PS,train,32,→,right,→,0.5506839000154287,True,30,-,-,-
Y2-S2-002K25,1,7,PS,train,36,↑,up,↑,0.7547271000221372,True,30,-,-,-
Y2-S2-002K25,1,8,PS,train,28,←,left,←,0.8127600000007078,True,30,-,-,-
Y2-S2-002K25,1,9,PS,train,37,→,right,→,0.7931616998976097,True,30,-,-,-
Y2-S2-002K25,1,10,PS,train,45,←,left,←,0.6338659999892116,True,30,-,-,-
Y2-S2-002K25,2,11,AS,train,25,↑,up,↑,1.3495145000051707,True,45,-,-,-
Y2-S2-002K25,2,12,AS,train,28,↓,down,↓,0.6343256999971345,True,45,-,-,-
Y2-S2-002K25,2,13,AS,train,49,→,right,→,0.6848207000875846,True,45,-,-,-
Y2-S2-002K25,2,14,AS,train,32,↓,down,↓,0.8506961000384763,True,45,-,-,-
Y2-S2-002K25,2,15,AS,train,29,←,left,←,0.6678206000942737,True,45,-,-,-
Y2-S2-002K25,2,16,AS,train,43,↑,up,↑,0.8672679000301287,True,45,-,-,-
Y2-S2-002K25,2,17,AS,train,44,←,left,←,0.7506564999930561,True,45,-,-,-
Y2-S2-002K25,2,18,AS,train,50,→,right,→,0.800400200067088,True,45,-,-,-
Y2-S2-002K25,2,19,AS,train,47,←,left,←,0.7010104999644682,True,45,-,-,-
Y2-S2-002K25,2,20,AS,train,44,↓,down,↓,0.7675846000202,True,45,-,-,-
Y2-S2-002K25,-,21,PS,adaptive,32,→,right,→,0.6308283999096602,True,10,0,0,0
Y2-S2-002K25,-,22,PS,adaptive,41,↓,down,↓,0.5706231000367552,True,10,0,0,0
Y2-S2-002K25,-,23,PS,adaptive,43,↑,up,↑,0.6986694999504834,True,10,1,0,0
Y2-S2-002K25,-,24,PS,adaptive,50,←,left,←,0.5534389000386,True,9,1,0,0
Y2-S2-002K25,-,25,PS,adaptive,25,→,right,→,0.44522829994093627,True,9,1,0,0
Y2-S2-002K25,-,26,PS,adaptive,28,←,left,←,0.5385122000006959,True,9,1,0,0
Y2-S2-002K25,-,27,PS,adaptive,26,→,left,←,0.9098293000133708,False,8,-1,1,1
Y2-S2-002K25,-,28,PS,adaptive,34,↑,down,↓,1.2212841999717057,False,9,-1,0,1
Y2-S2-002K25,-,29,PS,adaptive,30,←,left,←,0.5181755000958219,True,10,-1,0,1
Y2-S2-002K25,-,30,PS,adaptive,34,→,right,→,0.47235780011396855,True,10,-1,0,1
Y2-S2-002K25,-,31,PS,adaptive,36,↓,down,↓,0.7896090999711305,True,10,1,1,2
Y2-S2-002K25,-,32,PS,adaptive,25,←,left,←,0.49287489999551326,True,9,1,0,2
Y2-S2-002K25,-,33,PS,adaptive,46,→,left,←,1.042192899971269,False,9,-1,1,3
Y2-S2-002K25,-,34,PS,adaptive,42,←,right,→,0.6321270999033004,False,10,-1,0,3
Y2-S2-002K25,-,35,PS,adaptive,47,↑,right,→,0.6629711999557912,False,11,-1,0,3
Y2-S2-002K25,-,36,PS,adaptive,43,→,right,→,0.6960298999911174,True,12,-1,0,3
Y2-S2-002K25,-,37,PS,adaptive,39,↑,left,←,0.7629775999812409,False,12,-1,0,3
Y2-S2-002K25,-,38,PS,adaptive,41,↓,left,←,0.8056536000221968,False,13,-1,0,3
Y2-S2-002K25,-,39,PS,adaptive,35,→,right,→,0.4627485000528395,True,14,-1,0,3
Y2-S2-002K25,-,40,PS,adaptive,36,←,right,→,0.7313002999871969,False,14,-1,0,3
Y2-S2-002K25,-,41,PS,adaptive,43,↑,up,↑,0.7732532001100481,True,15,-1,0,3
Y2-S2-002K25,-,42,PS,adaptive,33,←,left,←,0.505458900006488,True,15,-1,0,3
Y2-S2-002K25,-,43,PS,adaptive,28,→,right,→,0.7875267999479547,True,15,1,1,4
Y2-S2-002K25,-,44,AS,adaptive,48,↑,up,↑,0.9488163999048993,True,20,0,0,0
Y2-S2-002K25,-,45,AS,adaptive,38,↓,down,↓,0.9022226999513805,True,20,0,0,0
Y2-S2-002K25,-,46,AS,adaptive,43,↑,up,↑,0.5863164000911638,True,20,1,0,0
Y2-S2-002K25,-,47,AS,adaptive,43,←,left,←,1.050627600052394,True,19,1,0,0
Y2-S2-002K25,-,48,AS,adaptive,47,→,right,→,0.49034329992718995,True,19,1,0,0
Y2-S2-002K25,-,49,AS,adaptive,40,↑,up,↑,0.6993482999969274,True,19,1,0,0
Y2-S2-002K25,-,50,AS,adaptive,27,↓,down,↓,0.7852233001030982,True,18,1,0,0
Y2-S2-002K25,-,51,AS,adaptive,26,←,left,←,0.9946109999436885,True,18,1,0,0
Y2-S2-002K25,-,52,AS,adaptive,40,↓,left,←,0.6790620000101626,False,18,-1,1,1
Y2-S2-002K25,-,53,AS,adaptive,43,←,left,←,0.43397570005618036,True,19,-1,0,1
Y2-S2-002K25,-,54,AS,adaptive,29,→,right,→,0.7043154999846593,True,19,-1,0,1
Y2-S2-002K25,-,55,AS,adaptive,41,↑,up,↑,0.8972696999553591,True,19,1,1,2
Y2-S2-002K25,-,56,AS,adaptive,26,←,left,←,0.47977009997703135,True,18,1,0,2
Y2-S2-002K25,-,57,AS,adaptive,38,→,right,→,0.48304910003207624,True,18,1,0,2
Y2-S2-002K25,-,58,AS,adaptive,42,↓,down,↓,0.7453169000800699,True,18,1,0,2
Y2-S2-002K25,-,59,AS,adaptive,36,←,left,←,0.47827089997008443,True,17,1,0,2
Y2-S2-002K25,-,60,AS,adaptive,35,↑,up,↑,0.7227392999920994,True,17,1,0,2
Y2-S2-002K25,-,61,AS,adaptive,31,↓,down,↓,0.729638300021179,True,17,1,0,2
Y2-S2-002K25,-,62,AS,adaptive,38,←,left,←,0.6472917000064626,True,16,1,0,2
Y2-S2-002K25,-,63,AS,adaptive,39,↓,left,←,0.8830057999584824,False,16,-1,1,3
Y2-S2-002K25,-,64,AS,adaptive,30,←,left,←,0.5667746999533847,True,17,-1,0,3
Y2-S2-002K25,-,65,AS,adaptive,39,↑,left,←,0.8007627000333741,False,17,-1,0,3
Y2-S2-002K25,-,66,AS,adaptive,36,↓,down,↓,0.5907777999527752,True,18,-1,0,3
Y2-S2-002K25,-,67,AS,adaptive,47,→,right,→,0.4710573999909684,True,18,-1,0,3
Y2-S2-002K25,-,68,AS,adaptive,37,↓,down,↓,0.7570010999916121,True,18,1,1,4
Y2-S2-002K25,1,69,AS,intra_train,31,→,right,→,0.483659700024873,True,25,-,-,-
Y2-S2-002K25,1,70,AS,intra_train,37,↓,down,↓,0.8146724000107497,True,25,-,-,-
Y2-S2-002K25,1,71,AS,intra_train,40,↑,up,↑,0.8707973000127822,True,25,-,-,-
Y2-S2-002K25,1,72,AS,intra_train,41,↓,down,↓,0.6380328999366611,True,25,-,-,-
Y2-S2-002K25,1,73,AS,intra_train,33,↑,up,↑,0.8149945000186563,True,25,-,-,-
Y2-S2-002K25,1,74,AS,exp,36,↓,down,↓,0.6839607000583783,True,17,0,0,0
Y2-S2-002K25,1,75,AS,exp,40,→,right,→,0.9430907999631017,True,17,0,0,0
Y2-S2-002K25,1,76,AS,exp,49,←,down,↓,0.9332591999555007,False,17,-1,0,0
Y2-S2-002K25,1,77,AS,exp,48,↓,down,↓,0.6980522000230849,True,18,-1,0,0
Y2-S2-002K25,1,78,AS,exp,48,→,right,→,0.4339248000178486,True,18,-1,0,0
Y2-S2-002K25,1,79,AS,exp,46,↑,up,↑,0.6769346999935806,True,18,1,1,1
Y2-S2-002K25,1,80,AS,exp,39,←,left,←,0.46431119996123016,True,17,1,0,1
Y2-S2-002K25,1,81,AS,exp,47,→,right,→,0.41696860000956804,True,17,1,0,1
Y2-S2-002K25,1,82,AS,exp,47,↓,down,↓,0.6388495999854058,True,17,1,0,1
Y2-S2-002K25,1,83,AS,exp,30,←,left,←,0.8897644999669865,True,16,1,0,1
Y2-S2-002K25,1,84,AS,exp,31,↑,up,↑,0.7232740999897942,True,16,1,0,1
Y2-S2-002K25,1,85,AS,exp,25,→,right,→,0.7312051999615505,True,16,1,0,1
Y2-S2-002K25,1,86,AS,exp,48,←,left,←,0.6596797000383958,True,15,1,0,1
Y2-S2-002K25,1,87,AS,exp,29,→,left,←,0.8229494999395683,False,15,-1,1,2
Y2-S2-002K25,1,88,AS,exp,28,↓,down,↓,0.6131332000950351,True,16,-1,0,2
Y2-S2-002K25,1,89,AS,exp,47,→,right,→,0.7018497000681236,True,16,-1,0,2
Y2-S2-002K25,1,90,AS,exp,36,↑,up,↑,0.7179298000410199,True,16,1,1,3
Y2-S2-002K25,1,91,AS,exp,26,↓,down,↓,0.6182277000043541,True,15,1,0,3
Y2-S2-002K25,1,92,AS,exp,29,←,left,←,0.6707961999345571,True,15,1,0,3
Y2-S2-002K25,1,93,AS,exp,31,↓,down,↓,0.5399390999227762,True,15,1,0,3
Y2-S2-002K25,1,94,AS,exp,38,↑,up,↑,0.6182547999778762,True,14,1,0,3
Y2-S2-002K25,1,95,AS,exp,29,↓,down,↓,0.5432579999323934,True,14,1,0,3
Y2-S2-002K25,1,96,AS,exp,31,↑,up,↑,0.7593259999994189,True,14,1,0,3
Y2-S2-002K25,1,97,AS,exp,27,↓,down,↓,0.719505500048399,True,13,1,0,3
Y2-S2-002K25,1,98,AS,exp,32,←,left,←,0.9716898000333458,True,13,1,0,3
Y2-S2-002K25,1,99,AS,exp,36,↓,down,↓,0.5247910000616685,True,13,1,0,3
Y2-S2-002K25,1,100,AS,exp,49,→,left,←,1.0616290000034496,False,12,-1,1,4
Y2-S2-002K25,1,101,AS,exp,25,↑,up,↑,0.5346050000516698,True,13,-1,0,4
Y2-S2-002K25,1,102,AS,exp,25,→,right,→,0.48186990001704544,True,13,-1,0,4
Y2-S2-002K25,1,103,AS,exp,34,↑,up,↑,0.5996086000232026,True,13,1,1,5
Y2-S2-002K25,1,104,AS,exp,32,↓,up,↑,0.9399229000555351,False,12,-1,1,6
Y2-S2-002K25,1,105,AS,exp,43,→,right,→,0.4618746000342071,True,13,-1,0,6
Y2-S2-002K25,1,106,AS,exp,32,←,left,←,0.430691699963063,True,13,-1,0,6
Y2-S2-002K25,1,107,AS,exp,30,→,right,→,0.9811329999938607,True,13,1,1,7
Y2-S2-002K25,1,108,AS,exp,26,↓,down,↓,0.617210500058718,True,12,1,0,7
Y2-S2-002K25,1,109,AS,exp,39,→,right,→,0.7869762000627816,True,12,1,0,7
Y2-S2-002K25,1,110,AS,exp,48,←,left,←,0.7504526999546215,True,12,1,0,7
Y2-S2-002K25,1,111,AS,exp,50,→,right,→,0.6154497000388801,True,11,1,0,7
Y2-S2-002K25,1,112,AS,exp,34,↓,right,→,0.8972086999565363,False,11,-1,1,8
Y2-S2-002K25,1,113,AS,exp,49,←,right,→,0.6432899000355974,False,12,-1,0,8
Y2-S2-002K25,1,114,AS,exp,28,↓,down,↓,0.6285105999559164,True,13,-1,0,8
Y2-S2-002K25,1,115,AS,exp,48,←,left,←,0.6081581999314949,True,13,-1,0,8
Y2-S2-002K25,1,116,AS,exp,49,→,right,→,0.3991168000502512,True,13,1,1,9
Y2-S2-002K25,1,117,AS,exp,43,↑,up,↑,0.6126517999218777,True,12,1,0,9
Y2-S2-002K25,1,118,AS,exp,37,←,left,←,0.39454959996510297,True,12,1,0,9
Y2-S2-002K25,1,119,AS,exp,47,↑,up,↑,0.6351947999792174,True,12,1,0,9
Y2-S2-002K25,1,120,AS,exp,29,↓,up,↑,1.0325819000136107,False,11,-1,1,10
Y2-S2-002K25,1,121,AS,exp,45,↑,up,↑,0.7866526000434533,True,12,-1,0,10
Y2-S2-002K25,1,122,AS,exp,33,←,left,←,0.446251199929975,True,12,-1,0,10
Y2-S2-002K25,1,123,AS,exp,35,→,right,→,0.4255739999935031,True,12,1,1,11
Y2-S2-002K25,1,124,AS,exp,42,←,right,→,0.8560508999507874,False,11,-1,1,12
Y2-S2-002K25,1,125,AS,exp,50,↓,down,↓,0.6400112999835983,True,12,-1,0,12
Y2-S2-002K25,1,126,AS,exp,42,←,left,←,0.7316929999506101,True,12,-1,0,12
Y2-S2-002K25,1,127,AS,exp,25,↓,down,↓,0.6196294999681413,True,12,1,1,13
Y2-S2-002K25,1,128,AS,exp,26,↑,down,↓,0.8166898000054061,False,11,-1,1,14
Y2-S2-002K25,1,129,AS,exp,27,→,right,→,0.5042118000565097,True,12,-1,0,14
Y2-S2-002K25,1,130,AS,exp,39,↑,down,↓,0.6796485999366269,False,12,-1,0,14
Y2-S2-002K25,1,131,AS,exp,28,←,left,←,0.6222206999082118,True,13,-1,0,14
Y2-S2-002K25,1,132,AS,exp,41,↑,left,←,0.7262884000083432,False,13,-1,0,14
Y2-S2-002K25,1,133,AS,exp,41,↓,down,↓,0.5571753999684006,True,14,-1,0,14
Y2-S2-002K25,1,134,AS,exp,36,↑,down,↓,0.770713199977763,False,14,-1,0,14
Y2-S2-002K25,1,135,AS,exp,28,←,left,←,0.6646387999644503,True,15,-1,0,14
Y2-S2-002K25,1,136,AS,exp,27,→,right,→,0.6792239000787959,True,15,-1,0,14
Y2-S2-002K25,1,137,AS,exp,41,←,left,←,1.0098694999469444,True,15,1,1,15
Y2-S2-002K25,1,138,AS,exp,33,↓,down,↓,0.9707767999498174,True,14,1,0,15
Y2-S2-002K25,1,139,AS,exp,38,→,right,→,0.599377500009723,True,14,1,0,15
Y2-S2-002K25,1,140,AS,exp,25,↑,up,↑,0.6697922999737784,True,14,1,0,15
Y2-S2-002K25,1,141,AS,exp,38,←,right,→,0.8159946000669152,False,13,-1,1,16
Y2-S2-002K25,2,142,PS,intra_train,49,↑,up,↑,1.054376299958676,True,21,-,-,-
Y2-S2-002K25,2,143,PS,intra_train,50,→,right,→,0.5873019999125972,True,21,-,-,-
Y2-S2-002K25,2,144,PS,intra_train,44,←,left,←,1.2223750998964533,True,21,-,-,-
Y2-S2-002K25,2,145,PS,intra_train,39,↑,left,←,0.9642451000399888,False,21,-,-,-
Y2-S2-002K25,2,146,PS,intra_train,26,←,left,←,0.9600881000515074,True,21,-,-,-
Y2-S2-002K25,2,147,PS,exp,28,→,right,→,0.4540348000591621,True,14,0,0,0
Y2-S2-002K25,2,148,PS,exp,37,↑,up,↑,0.7005219999700785,True,14,0,0,0
Y2-S2-002K25,2,149,PS,exp,26,↓,down,↓,0.7078712000511587,True,14,1,0,0
Y2-S2-002K25,2,150,PS,exp,49,↑,up,↑,0.6152899999869987,True,13,1,0,0
Y2-S2-002K25,2,151,PS,exp,40,←,left,←,0.5235352000454441,True,13,1,0,0
Y2-S2-002K25,2,152,PS,exp,41,↓,down,↓,1.1217300000134856,True,13,1,0,0
Y2-S2-002K25,2,153,PS,exp,27,↑,right,→,0.8781448999652639,False,12,-1,1,1
Y2-S2-002K25,2,154,PS,exp,46,↓,left,←,0.6679675000486895,False,13,-1,0,1
Y2-S2-002K25,2,155,PS,exp,25,↑,up,↑,0.6640915999887511,True,14,-1,0,1
Y2-S2-002K25,2,156,PS,exp,35,→,left,←,0.8773968000896275,False,14,-1,0,1
Y2-S2-002K25,2,157,PS,exp,37,↑,up,↑,0.5414965999079868,True,15,-1,0,1
Y2-S2-002K25,2,158,PS,exp,48,↓,down,↓,0.6087331000017002,True,15,-1,0,1
Y2-S2-002K25,2,159,PS,exp,28,←,left,←,0.5956658000359312,True,15,1,1,2
Y2-S2-002K25,2,160,PS,exp,50,↓,down,↓,0.5829082999844104,True,14,1,0,2
Y2-S2-002K25,2,161,PS,exp,35,↑,up,↑,0.43867200007662177,True,14,1,0,2
Y2-S2-002K25,2,162,PS,exp,44,←,left,←,0.5568183999275789,True,14,1,0,2
Y2-S2-002K25,2,163,PS,exp,39,→,right,→,0.453513800050132,True,13,1,0,2
Y2-S2-002K25,2,164,PS,exp,36,↑,up,↑,0.5480391000164673,True,13,1,0,2
Y2-S2-002K25,2,165,PS,exp,46,→,right,→,0.4299206000287086,True,13,1,0,2
Y2-S2-002K25,2,166,PS,exp,34,←,right,→,0.7292232000036165,False,12,-1,1,3
Y2-S2-002K25,2,167,PS,exp,26,↓,down,↓,0.6884670000290498,True,13,-1,0,3
Y2-S2-002K25,2,168,PS,exp,35,←,down,↓,0.8895180999534205,False,13,-1,0,3
Y2-S2-002K25,2,169,PS,exp,34,→,right,→,0.482230200082995,True,14,-1,0,3
Y2-S2-002K25,2,170,PS,exp,47,↑,up,↑,0.6103532001143321,True,14,-1,0,3
Y2-S2-002K25,2,171,PS,exp,42,↓,down,↓,0.7215234000468627,True,14,1,1,4
Y2-S2-002K25,2,172,PS,exp,50,↑,up,↑,0.6220370000228286,True,13,1,0,4
Y2-S2-002K25,2,173,PS,exp,41,←,left,←,0.5112660999875516,True,13,1,0,4
Y2-S2-002K25,2,174,PS,exp,30,↑,up,↑,0.6710849000373855,True,13,1,0,4
Y2-S2-002K25,2,175,PS,exp,48,→,right,→,0.5254187000682577,True,12,1,0,4
Y2-S2-002K25,2,176,PS,exp,38,↑,up,↑,1.1528187999501824,True,12,1,0,4
Y2-S2-002K25,2,177,PS,exp,26,←,left,←,0.43963779998011887,True,12,1,0,4
Y2-S2-002K25,2,178,PS,exp,26,↑,up,↑,0.6527323999907821,True,11,1,0,4
Y2-S2-002K25,2,179,PS,exp,48,←,left,←,0.5368210999295115,True,11,1,0,4
Y2-S2-002K25,2,180,PS,exp,50,↑,up,↑,0.6766583999851719,True,11,1,0,4
Y2-S2-002K25,2,181,PS,exp,35,→,right,→,0.43902060005348176,True,10,1,0,4
Y2-S2-002K25,2,182,PS,exp,37,←,right,→,0.8450294000795111,False,10,-1,1,5
Y2-S2-002K25,2,183,PS,exp,37,↑,up,↑,0.6580040999688208,True,11,-1,0,5
Y2-S2-002K25,2,184,PS,exp,36,←,left,←,0.9176017000572756,True,11,-1,0,5
Y2-S2-002K25,2,185,PS,exp,50,↑,up,↑,0.7991807999787852,True,11,1,1,6
Y2-S2-002K25,2,186,PS,exp,46,→,right,→,0.4741855999454856,True,10,1,0,6
Y2-S2-002K25,2,187,PS,exp,48,↓,down,↓,0.5698967999778688,True,10,1,0,6
Y2-S2-002K25,2,188,PS,exp,27,↑,up,↑,0.6152475000126287,True,10,1,0,6
Y2-S2-002K25,2,189,PS,exp,47,→,right,→,0.42322140000760555,True,9,1,0,6
Y2-S2-002K25,2,190,PS,exp,37,↑,up,↑,0.5189510000636801,True,9,1,0,6
Y2-S2-002K25,2,191,PS,exp,38,↓,down,↓,0.6635931999189779,True,9,1,0,6
Y2-S2-002K25,2,192,PS,exp,36,→,left,←,0.7581681999145076,False,8,-1,1,7
Y2-S2-002K25,2,193,PS,exp,45,↓,down,↓,0.6664529000408947,True,9,-1,0,7
Y2-S2-002K25,2,194,PS,exp,33,←,down,↓,0.8415932999923825,False,9,-1,0,7
Y2-S2-002K25,2,195,PS,exp,46,→,right,→,0.5431708000833169,True,10,-1,0,7
Y2-S2-002K25,2,196,PS,exp,38,←,right,→,0.8271899999817833,False,10,-1,0,7
Y2-S2-002K25,2,197,PS,exp,28,↑,up,↑,0.5252388999797404,True,11,-1,0,7
Y2-S2-002K25,2,198,PS,exp,29,↓,down,↓,0.6755648000398651,True,11,-1,0,7
Y2-S2-002K25,2,199,PS,exp,25,←,left,←,0.5049847000045702,True,11,1,1,8
Y2-S2-002K25,2,200,PS,exp,47,→,no_key,no_letter,-1.0,False,10,-1,1,9
Y2-S2-002K25,2,201,PS,exp,45,↓,down,↓,0.5573565000668168,True,11,-1,0,9
Y2-S2-002K25,2,202,PS,exp,46,→,left,←,0.8628243999555707,False,11,-1,0,9
Y2-S2-002K25,2,203,PS,exp,42,↓,left,←,0.7938576999586076,False,12,-1,0,9
Y2-S2-002K25,2,204,PS,exp,28,→,right,→,0.7810900999465957,True,13,-1,0,9
Y2-S2-002K25,2,205,PS,exp,25,↑,up,↑,1.6455273000756279,True,13,-1,0,9
Y2-S2-002K25,2,206,PS,exp,44,←,left,←,0.4504911999683827,True,13,1,1,10
Y2-S2-002K25,2,207,PS,exp,46,→,right,→,0.4512588999932632,True,12,1,0,10
Y2-S2-002K25,2,208,PS,exp,50,↑,up,↑,0.5724920999491587,True,12,1,0,10
Y2-S2-002K25,2,209,PS,exp,45,↓,up,↑,1.0312321999808773,False,12,-1,1,11
Y2-S2-002K25,2,210,PS,exp,38,←,left,←,0.9544589000288397,True,13,-1,0,11
Y2-S2-002K25,2,211,PS,exp,43,→,right,→,0.5202730000019073,True,13,-1,0,11
Y2-S2-002K25,2,212,PS,exp,30,↓,up,↑,1.054702699999325,False,13,-1,0,11
Y2-S2-002K25,2,213,PS,exp,37,←,left,←,0.43793569994159043,True,14,-1,0,11
Y2-S2-002K25,2,214,PS,exp,36,↑,up,↑,0.6246718999464065,True,14,-1,0,11
Y2-S2-002K25,2,215,PS,exp,45,←,left,←,0.8264670999487862,True,14,1,1,12
Y2-S2-002K25,2,216,PS,exp,27,→,right,→,0.427144099958241,True,13,1,0,12
Y2-S2-002K25,2,217,PS,exp,42,←,right,→,0.7226362000219524,False,13,-1,1,13
Y2-S2-002K25,2,218,PS,exp,29,→,right,→,0.42582250002305955,True,14,-1,0,13
Y2-S2-002K25,2,219,PS,exp,46,←,right,→,0.4926499000284821,False,14,-1,0,13
Y2-S2-002K25,2,220,PS,exp,40,→,right,→,0.9426241000182927,True,15,-1,0,13
Y2-S2-002K25,2,221,PS,exp,29,↓,down,↓,0.703423900064081,True,15,-1,0,13
Y2-S2-002K25,2,222,PS,exp,31,↑,right,→,0.8595568999880925,False,15,-1,0,13
Y2-S2-002K25,2,223,PS,exp,33,→,right,→,0.43615990004036576,True,16,-1,0,13
Y2-S2-002K25,2,224,PS,exp,33,←,left,←,0.4499825000530109,True,16,-1,0,13
Y2-S2-002K25,2,225,PS,exp,43,↑,up,↑,0.6392368000233546,True,16,1,1,14
Y2-S2-002K25,2,226,PS,exp,36,↓,down,↓,0.5799065999453887,True,15,1,0,14
Y2-S2-002K25,2,227,PS,exp,37,↑,up,↑,0.644486999954097,True,15,1,0,14
Y2-S2-002K25,2,228,PS,exp,45,↓,down,↓,0.5626374999992549,True,15,1,0,14
Y2-S2-002K25,2,229,PS,exp,28,←,left,←,0.5051314000738785,True,14,1,0,14
Y2-S2-002K25,2,230,PS,exp,26,↓,down,↓,0.6744748000055552,True,14,1,0,14
Y2-S2-002K25,2,231,PS,exp,26,→,right,→,0.4534010000061244,True,14,1,0,14
Y2-S2-002K25,2,232,PS,exp,29,↓,down,↓,0.6171327999327332,True,13,1,0,14
Y2-S2-002K25,2,233,PS,exp,44,↑,up,↑,0.5158981999848038,True,13,1,0,14
Y2-S2-002K25,2,234,PS,exp,49,→,right,→,0.585487800068222,True,13,1,0,14
Y2-S2-002K25,2,235,PS,exp,29,←,left,←,0.3920369000406936,True,12,1,0,14
Y2-S2-002K25,2,236,PS,exp,36,↓,down,↓,0.6019872999750078,True,12,1,0,14
Y2-S2-002K25,2,237,PS,exp,47,↑,up,↑,0.5377058000303805,True,12,1,0,14
Y2-S2-002K25,2,238,PS,exp,38,↓,down,↓,0.561427199980244,True,11,1,0,14
Y2-S2-002K25,2,239,PS,exp,49,→,right,→,0.4358154999790713,True,11,1,0,14
Y2-S2-002K25,2,240,PS,exp,40,↓,down,↓,0.6073768999194726,True,11,1,0,14
Y2-S2-002K25,2,241,PS,exp,31,→,right,→,0.9450357999885455,True,10,1,0,14
Y2-S2-002K25,2,242,PS,exp,45,↑,left,←,0.9974486998980865,False,10,-1,1,15
Y2-S2-002K25,2,243,PS,exp,45,←,left,←,0.44280580000486225,True,11,-1,0,15
Y2-S2-002K25,2,244,PS,exp,50,↑,up,↑,0.6005968999816105,True,11,-1,0,15
Y2-S2-002K25,2,245,PS,exp,44,←,left,←,0.43398769991472363,True,11,1,1,16
Y2-S2-002K25,3,246,PS,intra_train,46,↑,up,↑,0.6070419999305159,True,21,-,-,-
Y2-S2-002K25,3,247,PS,intra_train,41,→,right,→,0.46728079998865724,True,21,-,-,-
Y2-S2-002K25,3,248,PS,intra_train,26,↑,up,↑,0.6660381999099627,True,21,-,-,-
Y2-S2-002K25,3,249,PS,intra_train,39,←,left,←,0.433800800004974,True,21,-,-,-
Y2-S2-002K25,3,250,PS,intra_train,48,↓,down,↓,0.6272444999776781,True,21,-,-,-
Y2-S2-002K25,3,251,PS,exp,45,↑,up,↑,0.752434300025925,True,14,0,0,0
Y2-S2-002K25,3,252,PS,exp,30,←,left,←,0.4398769000545144,True,14,0,0,0
Y2-S2-002K25,3,253,PS,exp,32,→,right,→,0.40668330003973097,True,14,1,0,0
Y2-S2-002K25,3,254,PS,exp,28,↓,down,↓,0.5902476999908686,True,13,1,0,0
Y2-S2-002K25,3,255,PS,exp,38,←,left,←,0.7917094000149518,True,13,1,0,0
Y2-S2-002K25,3,256,PS,exp,25,→,right,→,0.9103455999866128,True,13,1,0,0
Y2-S2-002K25,3,257,PS,exp,27,←,left,←,0.40184489998500794,True,12,1,0,0
Y2-S2-002K25,3,258,PS,exp,37,↓,down,↓,0.8133242999901995,True,12,1,0,0
Y2-S2-002K25,3,259,PS,exp,27,←,left,←,0.8208397999405861,True,12,1,0,0
Y2-S2-002K25,3,260,PS,exp,40,→,right,→,0.61371569999028,True,11,1,0,0
Y2-S2-002K25,3,261,PS,exp,46,↑,right,→,0.9338771000038832,False,11,-1,1,1
Y2-S2-002K25,3,262,PS,exp,37,←,right,→,0.7800670999567956,False,12,-1,0,1
Y2-S2-002K25,3,263,PS,exp,35,↑,left,←,0.9064797000028193,False,13,-1,0,1
Y2-S2-002K25,3,264,PS,exp,35,↓,down,↓,0.721975399996154,True,14,-1,0,1
Y2-S2-002K25,3,265,PS,exp,49,←,left,←,0.4632573000853881,True,14,-1,0,1
Y2-S2-002K25,3,266,PS,exp,41,↑,up,↑,0.5828424000646919,True,14,1,1,2
Y2-S2-002K25,3,267,PS,exp,35,↓,down,↓,0.5929829000961035,True,13,1,0,2
Y2-S2-002K25,3,268,PS,exp,29,↑,up,↑,0.8587333000032231,True,13,1,0,2
Y2-S2-002K25,3,269,PS,exp,36,←,left,←,0.5181606000987813,True,13,1,0,2
Y2-S2-002K25,3,270,PS,exp,32,↑,up,↑,0.7109353000996634,True,12,1,0,2
Y2-S2-002K25,3,271,PS,exp,31,↓,down,↓,0.6588751999661326,True,12,1,0,2
Y2-S2-002K25,3,272,PS,exp,25,→,right,→,0.42175620002672076,True,12,1,0,2
Y2-S2-002K25,3,273,PS,exp,48,↓,down,↓,0.598712099948898,True,11,1,0,2
Y2-S2-002K25,3,274,PS,exp,32,↑,up,↑,0.9467284000711516,True,11,1,0,2
Y2-S2-002K25,3,275,PS,exp,30,↓,up,↑,0.8744946999941021,False,11,-1,1,3
Y2-S2-002K25,3,276,PS,exp,27,↑,left,←,0.784780399990268,False,12,-1,0,3
Y2-S2-002K25,3,277,PS,exp,46,←,left,←,0.4907628999790177,True,13,-1,0,3
Y2-S2-002K25,3,278,PS,exp,33,→,right,→,0.4484791998984292,True,13,-1,0,3
Y2-S2-002K25,3,279,PS,exp,43,↑,up,↑,0.6732303999597207,True,13,1,1,4
Y2-S2-002K25,3,280,PS,exp,36,←,left,←,0.6449754999484867,True,12,1,0,4
Y2-S2-002K25,3,281,PS,exp,46,→,up,↑,0.8200061999959871,False,12,-1,1,5
Y2-S2-002K25,3,282,PS,exp,45,↓,down,↓,0.630779099999927,True,13,-1,0,5
Y2-S2-002K25,3,283,PS,exp,40,→,right,→,0.46676019998267293,True,13,-1,0,5
Y2-S2-002K25,3,284,PS,exp,26,↓,up,↑,0.7280460000038147,False,13,-1,0,5
Y2-S2-002K25,3,285,PS,exp,40,→,left,←,0.7860782999778166,False,14,-1,0,5
Y2-S2-002K25,3,286,PS,exp,25,↑,up,↑,0.857006499893032,True,15,-1,0,5
Y2-S2-002K25,3,287,PS,exp,44,←,left,←,0.5760718000819907,True,15,-1,0,5
Y2-S2-002K25,3,288,PS,exp,31,↓,down,↓,0.5729599000187591,True,15,1,1,6
Y2-S2-002K25,3,289,PS,exp,45,←,left,←,0.6550641999347135,True,14,1,0,6
Y2-S2-002K25,3,290,PS,exp,25,↑,up,↑,0.6083571999333799,True,14,1,0,6
Y2-S2-002K25,3,291,PS,exp,48,→,left,←,0.7842201000312343,False,14,-1,1,7
Y2-S2-002K25,3,292,PS,exp,41,↓,down,↓,0.634511600015685,True,15,-1,0,7
Y2-S2-002K25,3,293,PS,exp,38,→,right,→,0.47902489989064634,True,15,-1,0,7
Y2-S2-002K25,3,294,PS,exp,45,↑,up,↑,0.7184643000364304,True,15,1,1,8
Y2-S2-002K25,3,295,PS,exp,42,→,right,→,0.8246480000670999,True,14,1,0,8
Y2-S2-002K25,3,296,PS,exp,46,↓,down,↓,0.5492846999550238,True,14,1,0,8
Y2-S2-002K25,3,297,PS,exp,27,←,right,→,0.80938370001968,False,14,-1,1,9
Y2-S2-002K25,3,298,PS,exp,27,↑,up,↑,0.6537697999738157,True,15,-1,0,9
Y2-S2-002K25,3,299,PS,exp,39,↓,down,↓,0.6606544000096619,True,15,-1,0,9
Y2-S2-002K25,3,300,PS,exp,34,←,left,←,0.47926249995362014,True,15,1,1,10
Y2-S2-002K25,3,301,PS,exp,30,↑,up,↑,0.7362514999695122,True,14,1,0,10
Y2-S2-002K25,3,302,PS,exp,42,↓,down,↓,0.6281818998977542,True,14,1,0,10
Y2-S2-002K25,3,303,PS,exp,32,←,left,←,0.48483450000640005,True,14,1,0,10
Y2-S2-002K25,3,304,PS,exp,45,↓,up,↑,0.7004139999626204,False,13,-1,1,11
Y2-S2-002K25,3,305,PS,exp,36,←,left,←,0.5314770000986755,True,14,-1,0,11
Y2-S2-002K25,3,306,PS,exp,32,↑,up,↑,0.6061271000653505,True,14,-1,0,11
Y2-S2-002K25,3,307,PS,exp,31,↓,down,↓,0.6474785999162123,True,14,1,1,12
Y2-S2-002K25,3,308,PS,exp,32,↑,up,↑,0.8460494000464678,True,13,1,0,12
Y2-S2-002K25,3,309,PS,exp,46,←,left,←,0.5951141999103129,True,13,1,0,12
Y2-S2-002K25,3,310,PS,exp,29,↑,up,↑,0.8080654999939725,True,13,1,0,12
Y2-S2-002K25,3,311,PS,exp,38,→,right,→,0.4813138000899926,True,12,1,0,12
Y2-S2-002K25,3,312,PS,exp,43,↑,up,↑,0.6288865000242367,True,12,1,0,12
Y2-S2-002K25,3,313,PS,exp,37,→,right,→,0.7251077999826521,True,12,1,0,12
Y2-S2-002K25,3,314,PS,exp,36,↓,down,↓,0.7113805999979377,True,11,1,0,12
Y2-S2-002K25,3,315,PS,exp,47,←,up,↑,1.3669816000619903,False,11,-1,1,13
Y2-S2-002K25,3,316,PS,exp,49,→,right,→,0.4508853000588715,True,12,-1,0,13
Y2-S2-002K25,3,317,PS,exp,47,↓,down,↓,0.5457044999348,True,12,-1,0,13
Y2-S2-002K25,3,318,PS,exp,46,←,left,←,0.49496379995252937,True,12,1,1,14
Y2-S2-002K25,3,319,PS,exp,40,→,right,→,0.4944611000828445,True,11,1,0,14
Y2-S2-002K25,3,320,PS,exp,29,↓,up,↑,1.0010784999467432,False,11,-1,1,15
Y2-S2-002K25,3,321,PS,exp,28,↑,left,←,0.8761525000445545,False,12,-1,0,15
Y2-S2-002K25,3,322,PS,exp,29,↓,down,↓,0.7040134000126272,True,13,-1,0,15
Y2-S2-002K25,3,323,PS,exp,32,←,left,←,0.4975129999220371,True,13,-1,0,15
Y2-S2-002K25,3,324,PS,exp,27,↓,up,↑,0.9756839999463409,False,13,-1,0,15
Y2-S2-002K25,3,325,PS,exp,29,←,left,←,0.6024278999539092,True,14,-1,0,15
Y2-S2-002K25,3,326,PS,exp,45,↓,down,↓,0.6930084000341594,True,14,-1,0,15
Y2-S2-002K25,3,327,PS,exp,36,→,right,→,0.5905726999044418,True,14,1,1,16
Y2-S2-002K25,4,328,AS,intra_train,28,↓,down,↓,0.6411033000331372,True,25,-,-,-
Y2-S2-002K25,4,329,AS,intra_train,28,↑,up,↑,0.9112304999725893,True,25,-,-,-
Y2-S2-002K25,4,330,AS,intra_train,34,→,right,→,0.5006983999628574,True,25,-,-,-
Y2-S2-002K25,4,331,AS,intra_train,48,↑,up,↑,0.8195919999852777,True,25,-,-,-
Y2-S2-002K25,4,332,AS,intra_train,26,↓,down,↓,1.0486865000566468,True,25,-,-,-
Y2-S2-002K25,4,333,AS,exp,39,↑,up,↑,0.7232916000066325,True,17,0,0,0
Y2-S2-002K25,4,334,AS,exp,39,←,left,←,0.7896284000016749,True,17,0,0,0
Y2-S2-002K25,4,335,AS,exp,44,↑,up,↑,0.8030714999185875,True,17,1,0,0
Y2-S2-002K25,4,336,AS,exp,39,↓,down,↓,0.532765100011602,True,16,1,0,0
Y2-S2-002K25,4,337,AS,exp,42,→,right,→,0.5346730999881402,True,16,1,0,0
Y2-S2-002K25,4,338,AS,exp,50,←,right,→,0.8503214999800548,False,16,-1,1,1
Y2-S2-002K25,4,339,AS,exp,43,→,right,→,0.47026309999637306,True,17,-1,0,1
Y2-S2-002K25,4,340,AS,exp,43,←,left,←,0.8330375000368804,True,17,-1,0,1
Y2-S2-002K25,4,341,AS,exp,25,↓,down,↓,0.9402641999768093,True,17,1,1,2
Y2-S2-002K25,4,342,AS,exp,44,←,left,←,0.6924848998896778,True,16,1,0,2
Y2-S2-002K25,4,343,AS,exp,46,↑,up,↑,0.947753700078465,True,16,1,0,2
Y2-S2-002K25,4,344,AS,exp,28,←,left,←,0.44292349996976554,True,16,1,0,2
Y2-S2-002K25,4,345,AS,exp,44,↑,up,↑,0.9977283999323845,True,15,1,0,2
Y2-S2-002K25,4,346,AS,exp,25,→,right,→,0.45676229998935014,True,15,1,0,2
Y2-S2-002K25,4,347,AS,exp,46,↑,up,↑,0.7304097000742331,True,15,1,0,2
Y2-S2-002K25,4,348,AS,exp,43,↓,up,↑,0.8747639000648633,False,14,-1,1,3
Y2-S2-002K25,4,349,AS,exp,29,↑,up,↑,0.7288769000442699,True,15,-1,0,3
Y2-S2-002K25,4,350,AS,exp,47,↓,down,↓,0.6197872000047937,True,15,-1,0,3
Y2-S2-002K25,4,351,AS,exp,37,↑,up,↑,0.8545080999610946,True,15,1,1,4
Y2-S2-002K25,4,352,AS,exp,37,←,left,←,0.6444642998976633,True,14,1,0,4
Y2-S2-002K25,4,353,AS,exp,42,↑,up,↑,0.526782099972479,True,14,1,0,4
Y2-S2-002K25,4,354,AS,exp,30,↓,up,↑,0.6621260000392795,False,14,-1,1,5
Y2-S2-002K25,4,355,AS,exp,28,↑,up,↑,0.6957980999723077,True,15,-1,0,5
Y2-S2-002K25,4,356,AS,exp,29,→,up,↑,0.7619002000428736,False,15,-1,0,5
Y2-S2-002K25,4,357,AS,exp,27,↑,up,↑,0.8159231999889016,True,16,-1,0,5
Y2-S2-002K25,4,358,AS,exp,49,↓,down,↓,0.5479220000561327,True,16,-1,0,5
Y2-S2-002K25,4,359,AS,exp,49,→,right,→,0.6443494000704959,True,16,1,1,6
Y2-S2-002K25,4,360,AS,exp,42,↓,down,↓,0.7790616999845952,True,15,1,0,6
Y2-S2-002K25,4,361,AS,exp,37,↑,up,↑,0.7153714000014588,True,15,1,0,6
Y2-S2-002K25,4,362,AS,exp,41,↓,down,↓,0.5302085999865085,True,15,1,0,6
Y2-S2-002K25,4,363,AS,exp,32,↑,up,↑,0.6436112999217585,True,14,1,0,6
Y2-S2-002K25,4,364,AS,exp,49,←,left,←,0.817696199985221,True,14,1,0,6
Y2-S2-002K25,4,365,AS,exp,41,→,left,←,0.8765742999967188,False,14,-1,1,7
Y2-S2-002K25,4,366,AS,exp,36,↓,up,↑,0.6895003999816254,False,15,-1,0,7
Y2-S2-002K25,4,367,AS,exp,37,→,right,→,0.6659372999565676,True,16,-1,0,7
Y2-S2-002K25,4,368,AS,exp,41,↑,up,↑,0.5839076000265777,True,16,-1,0,7
Y2-S2-002K25,4,369,AS,exp,39,↓,down,↓,0.7634172000689432,True,16,1,1,8
Y2-S2-002K25,4,370,AS,exp,41,←,left,←,0.6431043999036774,True,15,1,0,8
Y2-S2-002K25,4,371,AS,exp,38,↑,up,↑,0.7099448000080884,True,15,1,0,8
Y2-S2-002K25,4,372,AS,exp,36,→,right,→,0.43682359997183084,True,15,1,0,8
Y2-S2-002K25,4,373,AS,exp,29,↑,up,↑,0.5799826999427751,True,14,1,0,8
Y2-S2-002K25,4,374,AS,exp,44,↓,down,↓,0.6458341999677941,True,14,1,0,8
Y2-S2-002K25,4,375,AS,exp,31,←,left,←,0.7285734999459237,True,14,1,0,8
Y2-S2-002K25,4,376,AS,exp,41,↑,up,↑,1.5504020999651402,True,13,1,0,8
Y2-S2-002K25,4,377,AS,exp,27,↓,left,←,0.6694421999854967,False,13,-1,1,9
Y2-S2-002K25,4,378,AS,exp,38,↑,up,↑,0.6916223000735044,True,14,-1,0,9
Y2-S2-002K25,4,379,AS,exp,48,←,left,←,0.43114629993215203,True,14,-1,0,9
Y2-S2-002K25,4,380,AS,exp,49,↓,down,↓,0.7158983000554144,True,14,1,1,10
Y2-S2-002K25,4,381,AS,exp,27,↑,down,↓,0.8353491000598297,False,13,-1,1,11
Y2-S2-002K25,4,382,AS,exp,41,↓,down,↓,0.5977588000241667,True,14,-1,0,11
Y2-S2-002K25,4,383,AS,exp,47,→,right,→,0.4362663000356406,True,14,-1,0,11
Y2-S2-002K25,4,384,AS,exp,50,←,left,←,0.43019860005006194,True,14,1,1,12
Y2-S2-002K25,4,385,AS,exp,35,↑,up,↑,0.5469350999919698,True,13,1,0,12
Y2-S2-002K25,4,386,AS,exp,43,←,left,←,0.4448065999895334,True,13,1,0,12
Y2-S2-002K25,4,387,AS,exp,45,↑,left,←,0.9712204999523237,False,13,-1,1,13
Y2-S2-002K25,4,388,AS,exp,38,←,left,←,0.8007843000814319,True,14,-1,0,13
Y2-S2-002K25,4,389,AS,exp,33,↓,right,→,1.1212681999895722,False,14,-1,0,13
Y2-S2-002K25,4,390,AS,exp,41,↑,up,↑,0.759047899977304,True,15,-1,0,13
Y2-S2-002K25,4,391,AS,exp,47,←,left,←,0.95565949997399,True,15,-1,0,13
Y2-S2-002K25,4,392,AS,exp,33,↑,left,←,0.7427143000531942,False,15,-1,0,13
Y2-S2-002K25,4,393,AS,exp,44,↓,down,↓,0.6007686000084504,True,16,-1,0,13
Y2-S2-002K25,4,394,AS,exp,27,↑,up,↑,0.562312199966982,True,16,-1,0,13
Y2-S2-002K25,4,395,AS,exp,36,←,left,←,0.44476739992387593,True,16,1,1,14
Y2-S2-002K25,4,396,AS,exp,29,→,right,→,0.3837111000902951,True,15,1,0,14
Y2-S2-002K25,4,397,AS,exp,29,←,left,←,0.5820409000152722,True,15,1,0,14
Y2-S2-002K25,4,398,AS,exp,49,↑,up,↑,0.6523496999870986,True,15,1,0,14
Y2-S2-002K25,4,399,AS,exp,31,←,left,←,0.44400979997590184,True,14,1,0,14
Y2-S2-002K25,4,400,AS,exp,30,↓,up,↑,1.6830627999734133,False,14,-1,1,15
Y2-S2-002K25,4,401,AS,exp,42,↑,up,↑,0.6159789999946952,True,15,-1,0,15
Y2-S2-002K25,4,402,AS,exp,49,←,left,←,0.38403630000539124,True,15,-1,0,15
Y2-S2-002K25,4,403,AS,exp,35,↓,down,↓,0.5485184999415651,True,15,1,1,16
Y2-S2-002K25,5,404,AS,intra_train,30,→,right,→,0.4342484000371769,True,25,-,-,-
Y2-S2-002K25,5,405,AS,intra_train,30,↓,down,↓,0.7548212999245152,True,25,-,-,-
Y2-S2-002K25,5,406,AS,intra_train,29,↑,up,↑,0.8188306998927146,True,25,-,-,-
Y2-S2-002K25,5,407,AS,intra_train,29,↓,down,↓,0.7456986999604851,True,25,-,-,-
Y2-S2-002K25,5,408,AS,intra_train,35,→,right,→,0.4171585999429226,True,25,-,-,-
Y2-S2-002K25,5,409,AS,exp,32,↓,down,↓,0.48929219995625317,True,17,0,0,0
Y2-S2-002K25,5,410,AS,exp,43,→,right,→,0.4005622999975458,True,17,0,0,0
Y2-S2-002K25,5,411,AS,exp,38,↑,up,↑,0.5799656000453979,True,17,1,0,0
Y2-S2-002K25,5,412,AS,exp,41,←,right,→,0.7568219000240788,False,16,-1,1,1
Y2-S2-002K25,5,413,AS,exp,38,→,right,→,0.4589514998951927,True,17,-1,0,1
Y2-S2-002K25,5,414,AS,exp,34,←,left,←,0.57381470000837,True,17,-1,0,1
Y2-S2-002K25,5,415,AS,exp,40,→,right,→,0.5809321999549866,True,17,1,1,2
Y2-S2-002K25,5,416,AS,exp,37,↓,right,→,0.7354328000219539,False,16,-1,1,3
Y2-S2-002K25,5,417,AS,exp,25,↑,up,↑,1.0965254999464378,True,17,-1,0,3
Y2-S2-002K25,5,418,AS,exp,46,↓,down,↓,0.6832078999141231,True,17,-1,0,3
Y2-S2-002K25,5,419,AS,exp,38,←,left,←,0.7635512000415474,True,17,1,1,4
Y2-S2-002K25,5,420,AS,exp,29,↑,up,↑,0.8292965999571607,True,16,1,0,4
Y2-S2-002K25,5,421,AS,exp,46,←,left,←,0.6737969999667257,True,16,1,0,4
Y2-S2-002K25,5,422,AS,exp,35,↓,down,↓,0.6263502000365406,True,16,1,0,4
Y2-S2-002K25,5,423,AS,exp,45,←,left,←,0.4839913999894634,True,15,1,0,4
Y2-S2-002K25,5,424,AS,exp,43,↑,down,↓,0.727495800005272,False,15,-1,1,5
Y2-S2-002K25,5,425,AS,exp,41,→,right,→,0.40073100000154227,True,16,-1,0,5
Y2-S2-002K25,5,426,AS,exp,25,←,up,↑,1.034166599973105,False,16,-1,0,5
Y2-S2-002K25,5,427,AS,exp,43,↑,up,↑,0.7168097000103444,True,17,-1,0,5
Y2-S2-002K25,5,428,AS,exp,45,→,right,→,0.6096687000244856,True,17,-1,0,5
Y2-S2-002K25,5,429,AS,exp,29,←,left,←,0.6831347999395803,True,17,1,1,6
Y2-S2-002K25,5,430,AS,exp,37,→,right,→,0.687917499919422,True,16,1,0,6
Y2-S2-002K25,5,431,AS,exp,47,↑,left,←,1.0420072000706568,False,16,-1,1,7
Y2-S2-002K25,5,432,AS,exp,28,↓,down,↓,0.6296699000522494,True,17,-1,0,7
Y2-S2-002K25,5,433,AS,exp,46,↑,up,↑,0.8151250999653712,True,17,-1,0,7
Y2-S2-002K25,5,434,AS,exp,33,←,left,←,0.546668199938722,True,17,1,1,8
Y2-S2-002K25,5,435,AS,exp,50,↓,down,↓,0.8992718999506906,True,16,1,0,8
Y2-S2-002K25,5,436,AS,exp,49,↑,up,↑,0.7926492999540642,True,16,1,0,8
Y2-S2-002K25,5,437,AS,exp,37,↓,down,↓,0.6393901000265032,True,16,1,0,8
Y2-S2-002K25,5,438,AS,exp,31,↑,up,↑,0.5782729999627918,True,15,1,0,8
Y2-S2-002K25,5,439,AS,exp,32,↓,down,↓,0.48935559997335076,True,15,1,0,8
Y2-S2-002K25,5,440,AS,exp,47,←,left,←,0.6386234000092372,True,15,1,0,8
Y2-S2-002K25,5,441,AS,exp,28,↓,down,↓,0.5908675999380648,True,14,1,0,8
Y2-S2-002K25,5,442,AS,exp,37,↑,left,←,0.77084669994656,False,14,-1,1,9
Y2-S2-002K25,5,443,AS,exp,36,↓,up,↑,0.6867939999792725,False,15,-1,0,9
Y2-S2-002K25,5,444,AS,exp,47,→,right,→,0.4495075000450015,True,16,-1,0,9
Y2-S2-002K25,5,445,AS,exp,47,←,left,←,0.5570594999007881,True,16,-1,0,9
Y2-S2-002K25,5,446,AS,exp,34,→,right,→,0.38374099996872246,True,16,1,1,10
Y2-S2-002K25,5,447,AS,exp,34,↑,up,↑,0.577377500012517,True,15,1,0,10
Y2-S2-002K25,5,448,AS,exp,40,←,left,←,0.7627713999245316,True,15,1,0,10
Y2-S2-002K25,5,449,AS,exp,44,↓,down,↓,0.8584930000361055,True,15,1,0,10
Y2-S2-002K25,5,450,AS,exp,45,→,right,→,0.4691638998920098,True,14,1,0,10
Y2-S2-002K25,5,451,AS,exp,41,←,left,←,0.5031843000324443,True,14,1,0,10
Y2-S2-002K25,5,452,AS,exp,43,↓,down,↓,0.8608267999952659,True,14,1,0,10
Y2-S2-002K25,5,453,AS,exp,50,←,left,←,0.5589418000308797,True,13,1,0,10
Y2-S2-002K25,5,454,AS,exp,32,↑,left,←,0.6786273999605328,False,13,-1,1,11
Y2-S2-002K25,5,455,AS,exp,40,↓,down,↓,0.6396261000772938,True,14,-1,0,11
Y2-S2-002K25,5,456,AS,exp,49,↑,right,→,0.5419268999248743,False,14,-1,0,11
Y2-S2-002K25,5,457,AS,exp,47,→,left,←,0.8635130000766367,False,15,-1,0,11
Y2-S2-002K25,5,458,AS,exp,25,↑,left,←,0.8142609000205994,False,16,-1,0,11
Y2-S2-002K25,5,459,AS,exp,33,↓,down,↓,0.6853417999809608,True,17,-1,0,11
Y2-S2-002K25,5,460,AS,exp,34,↑,up,↑,0.5801592000061646,True,17,-1,0,11
Y2-S2-002K25,5,461,AS,exp,47,←,left,←,0.735576199949719,True,17,1,1,12
Y2-S2-002K25,5,462,AS,exp,40,→,left,←,0.6632000999525189,False,16,-1,1,13
Y2-S2-002K25,5,463,AS,exp,38,↑,up,↑,0.6573395000305027,True,17,-1,0,13
Y2-S2-002K25,5,464,AS,exp,39,→,right,→,0.6651564999483526,True,17,-1,0,13
Y2-S2-002K25,5,465,AS,exp,32,↑,up,↑,0.764060499961488,True,17,1,1,14
Y2-S2-002K25,5,466,AS,exp,48,→,right,→,0.6916406999807805,True,16,1,0,14
Y2-S2-002K25,5,467,AS,exp,42,↓,down,↓,0.8682463000295684,True,16,1,0,14
Y2-S2-002K25,5,468,AS,exp,36,↑,up,↑,0.4565313000930473,True,16,1,0,14
Y2-S2-002K25,5,469,AS,exp,40,→,right,→,0.4224108000053093,True,15,1,0,14
Y2-S2-002K25,5,470,AS,exp,46,↓,down,↓,0.560214800061658,True,15,1,0,14
Y2-S2-002K25,5,471,AS,exp,39,→,right,→,1.0004860000917688,True,15,1,0,14
Y2-S2-002K25,5,472,AS,exp,43,←,left,←,0.4218784000258893,True,14,1,0,14
Y2-S2-002K25,5,473,AS,exp,34,↓,down,↓,0.6153047999832779,True,14,1,0,14
Y2-S2-002K25,5,474,AS,exp,27,←,down,↓,0.7663713999791071,False,14,-1,1,15
Y2-S2-002K25,5,475,AS,exp,46,↓,down,↓,0.6347426999127492,True,15,-1,0,15
Y2-S2-002K25,5,476,AS,exp,26,→,right,→,0.4183245999738574,True,15,-1,0,15
Y2-S2-002K25,5,477,AS,exp,37,←,left,←,0.4393955999985337,True,15,1,1,16
Y2-S2-002K25,6,478,PS,intra_train,49,↓,down,↓,0.9049847000278533,True,21,-,-,-
Y2-S2-002K25,6,479,PS,intra_train,28,←,left,←,0.5903951999498531,True,21,-,-,-
Y2-S2-002K25,6,480,PS,intra_train,26,↓,down,↓,0.6524244999745861,True,21,-,-,-
Y2-S2-002K25,6,481,PS,intra_train,28,←,left,←,0.4674475999781862,True,21,-,-,-
Y2-S2-002K25,6,482,PS,intra_train,42,→,right,→,0.4835694000357762,True,21,-,-,-
Y2-S2-002K25,6,483,PS,exp,47,←,left,←,0.5170485998969525,True,14,0,0,0
Y2-S2-002K25,6,484,PS,exp,46,→,right,→,0.5637771000619978,True,14,0,0,0
Y2-S2-002K25,6,485,PS,exp,37,←,left,←,0.8275006000185385,True,14,1,0,0
Y2-S2-002K25,6,486,PS,exp,34,→,right,→,0.49741050007287413,True,13,1,0,0
Y2-S2-002K25,6,487,PS,exp,37,←,left,←,0.7779893999686465,True,13,1,0,0
Y2-S2-002K25,6,488,PS,exp,29,↓,down,↓,0.632116400054656,True,13,1,0,0
Y2-S2-002K25,6,489,PS,exp,46,↑,up,↑,0.7098550999071449,True,12,1,0,0
Y2-S2-002K25,6,490,PS,exp,44,←,right,→,0.7686459999531507,False,12,-1,1,1
Y2-S2-002K25,6,491,PS,exp,40,→,right,→,0.50549049989786,True,13,-1,0,1
Y2-S2-002K25,6,492,PS,exp,49,←,left,←,0.4591891000745818,True,13,-1,0,1
Y2-S2-002K25,6,493,PS,exp,30,→,right,→,0.44045880006160587,True,13,1,1,2
Y2-S2-002K25,6,494,PS,exp,44,←,left,←,0.9620134000433609,True,12,1,0,2
Y2-S2-002K25,6,495,PS,exp,40,→,right,→,0.42151229991577566,True,12,1,0,2
Y2-S2-002K25,6,496,PS,exp,27,↑,up,↑,0.7618959000101313,True,12,1,0,2
Y2-S2-002K25,6,497,PS,exp,30,→,right,→,0.9730285000987351,True,11,1,0,2
Y2-S2-002K25,6,498,PS,exp,37,←,left,←,0.7197757998947054,True,11,1,0,2
Y2-S2-002K25,6,499,PS,exp,36,↑,up,↑,0.7706472999416292,True,11,1,0,2
Y2-S2-002K25,6,500,PS,exp,47,↓,down,↓,0.7472371000330895,True,10,1,0,2
Y2-S2-002K25,6,501,PS,exp,32,→,right,→,0.42585669993422925,True,10,1,0,2
Y2-S2-002K25,6,502,PS,exp,45,←,left,←,0.46523790003266186,True,10,1,0,2
Y2-S2-002K25,6,503,PS,exp,46,↑,up,↑,0.6518989000469446,True,9,1,0,2
Y2-S2-002K25,6,504,PS,exp,49,↓,down,↓,0.5759872000198811,True,9,1,0,2
Y2-S2-002K25,6,505,PS,exp,41,→,right,→,0.40567629993893206,True,9,1,0,2
Y2-S2-002K25,6,506,PS,exp,43,←,up,↑,1.3541705999523401,False,8,-1,1,3
Y2-S2-002K25,6,507,PS,exp,50,↑,up,↑,0.6330541000934318,True,9,-1,0,3
Y2-S2-002K25,6,508,PS,exp,29,←,right,→,0.6938000000081956,False,9,-1,0,3
Y2-S2-002K25,6,509,PS,exp,46,↑,up,↑,0.5852045000065118,True,10,-1,0,3
Y2-S2-002K25,6,510,PS,exp,40,←,left,←,0.5412756000878289,True,10,-1,0,3
Y2-S2-002K25,6,511,PS,exp,49,↓,down,↓,0.6552944000577554,True,10,1,1,4
Y2-S2-002K25,6,512,PS,exp,49,↑,up,↑,0.6920375000918284,True,9,1,0,4
Y2-S2-002K25,6,513,PS,exp,32,←,left,←,0.4553197999484837,True,9,1,0,4
Y2-S2-002K25,6,514,PS,exp,35,↓,right,→,0.9334424999542534,False,9,-1,1,5
Y2-S2-002K25,6,515,PS,exp,40,→,right,→,0.4485309000592679,True,10,-1,0,5
Y2-S2-002K25,6,516,PS,exp,28,↓,down,↓,0.6043744999915361,True,10,-1,0,5
Y2-S2-002K25,6,517,PS,exp,40,←,right,→,0.7967391000129282,False,10,-1,0,5
Y2-S2-002K25,6,518,PS,exp,47,↓,down,↓,0.5896636000834405,True,11,-1,0,5
Y2-S2-002K25,6,519,PS,exp,37,→,right,→,0.41509929997846484,True,11,-1,0,5
Y2-S2-002K25,6,520,PS,exp,29,←,left,←,0.42731379996985197,True,11,1,1,6
Y2-S2-002K25,6,521,PS,exp,48,↓,down,↓,0.6332187000662088,True,10,1,0,6
Y2-S2-002K25,6,522,PS,exp,27,←,left,←,0.8844557999400422,True,10,1,0,6
Y2-S2-002K25,6,523,PS,exp,34,↑,up,↑,0.5982423000968993,True,10,1,0,6
Y2-S2-002K25,6,524,PS,exp,38,→,right,→,0.4612556000938639,True,9,1,0,6
Y2-S2-002K25,6,525,PS,exp,41,↓,right,→,0.8704704999690875,False,9,-1,1,7
Y2-S2-002K25,6,526,PS,exp,43,↑,up,↑,0.6426470000296831,True,10,-1,0,7
Y2-S2-002K25,6,527,PS,exp,49,←,left,←,0.5463206999702379,True,10,-1,0,7
Y2-S2-002K25,6,528,PS,exp,37,↓,up,↑,0.8042040000436828,False,10,-1,0,7
Y2-S2-002K25,6,529,PS,exp,48,→,right,→,0.4850215999176726,True,11,-1,0,7
Y2-S2-002K25,6,530,PS,exp,41,↑,up,↑,1.4897706999909133,True,11,-1,0,7
Y2-S2-002K25,6,531,PS,exp,44,→,right,→,0.4196609000209719,True,11,1,1,8
Y2-S2-002K25,6,532,PS,exp,42,←,left,←,0.38275240000803024,True,10,1,0,8
Y2-S2-002K25,6,533,PS,exp,43,↑,up,↑,1.431861100019887,True,10,1,0,8
Y2-S2-002K25,6,534,PS,exp,31,←,left,←,0.5191466000396758,True,10,1,0,8
Y2-S2-002K25,6,535,PS,exp,40,↑,up,↑,0.6429270999506116,True,9,1,0,8
Y2-S2-002K25,6,536,PS,exp,26,↓,up,↑,0.7209463999606669,False,9,-1,1,9
Y2-S2-002K25,6,537,PS,exp,44,←,left,←,0.6224021000089124,True,10,-1,0,9
Y2-S2-002K25,6,538,PS,exp,29,↓,down,↓,0.6179962999885902,True,10,-1,0,9
Y2-S2-002K25,6,539,PS,exp,33,↑,up,↑,0.6000023999949917,True,10,1,1,10
Y2-S2-002K25,6,540,PS,exp,29,←,left,←,0.4501384000759572,True,9,1,0,10
Y2-S2-002K25,6,541,PS,exp,45,→,left,←,0.7687530999537557,False,9,-1,1,11
Y2-S2-002K25,6,542,PS,exp,34,←,up,↑,0.5675201000412926,False,10,-1,0,11
Y2-S2-002K25,6,543,PS,exp,39,→,right,→,0.42370319995097816,True,11,-1,0,11
Y2-S2-002K25,6,544,PS,exp,47,↑,up,↑,0.9997052000835538,True,11,-1,0,11
Y2-S2-002K25,6,545,PS,exp,38,←,left,←,0.48673610005062073,True,11,1,1,12
Y2-S2-002K25,6,546,PS,exp,38,→,right,→,0.93718180002179,True,10,1,0,12
Y2-S2-002K25,6,547,PS,exp,46,←,left,←,0.3969166000606492,True,10,1,0,12
Y2-S2-002K25,6,548,PS,exp,31,↑,right,→,0.6664393999380991,False,10,-1,1,13
Y2-S2-002K25,6,549,PS,exp,39,→,right,→,0.4216604999965057,True,11,-1,0,13
Y2-S2-002K25,6,550,PS,exp,44,↑,up,↑,0.5812758000101894,True,11,-1,0,13
Y2-S2-002K25,6,551,PS,exp,29,←,left,←,0.7075225000735372,True,11,1,1,14
Y2-S2-002K25,6,552,PS,exp,28,↑,up,↑,0.7063917000778019,True,10,1,0,14
Y2-S2-002K25,6,553,PS,exp,48,→,left,←,0.6341296000173315,False,10,-1,1,15
Y2-S2-002K25,6,554,PS,exp,38,←,left,←,0.41468219994567335,True,11,-1,0,15
Y2-S2-002K25,6,555,PS,exp,36,→,right,→,0.4359417000086978,True,11,-1,0,15
Y2-S2-002K25,6,556,PS,exp,32,↓,down,↓,0.6264976999955252,True,11,1,1,16
Y2-S2-002K25,7,557,PS,intra_train,33,←,left,←,0.7033808999694884,True,21,-,-,-
Y2-S2-002K25,7,558,PS,intra_train,35,↑,up,↑,0.5584172999951988,True,21,-,-,-
Y2-S2-002K25,7,559,PS,intra_train,34,↓,down,↓,0.5431318000191823,True,21,-,-,-
Y2-S2-002K25,7,560,PS,intra_train,41,←,left,←,1.0911880999337882,True,21,-,-,-
Y2-S2-002K25,7,561,PS,intra_train,34,↓,down,↓,0.6430285000242293,True,21,-,-,-
Y2-S2-002K25,7,562,PS,exp,26,←,left,←,0.8204555000411347,True,14,0,0,0
Y2-S2-002K25,7,563,PS,exp,26,↓,down,↓,0.5872716000303626,True,14,0,0,0
Y2-S2-002K25,7,564,PS,exp,41,↑,up,↑,0.6711349000688642,True,14,1,0,0
Y2-S2-002K25,7,565,PS,exp,48,↓,down,↓,0.9747222999576479,True,13,1,0,0
Y2-S2-002K25,7,566,PS,exp,42,↑,up,↑,0.6522322000237182,True,13,1,0,0
Y2-S2-002K25,7,567,PS,exp,32,←,left,←,0.5378279999131337,True,13,1,0,0
Y2-S2-002K25,7,568,PS,exp,45,↓,down,↓,0.6311099000740796,True,12,1,0,0
Y2-S2-002K25,7,569,PS,exp,25,→,up,↑,1.052068499964662,False,12,-1,1,1
Y2-S2-002K25,7,570,PS,exp,50,↑,up,↑,0.5223084000172094,True,13,-1,0,1
Y2-S2-002K25,7,571,PS,exp,46,→,right,→,0.4755423000315204,True,13,-1,0,1
Y2-S2-002K25,7,572,PS,exp,27,↓,up,↑,1.669937599916011,False,13,-1,0,1
Y2-S2-002K25,7,573,PS,exp,36,↑,up,↑,0.9653870000038296,True,14,-1,0,1
Y2-S2-002K25,7,574,PS,exp,46,←,left,←,0.5138444000622258,True,14,-1,0,1
Y2-S2-002K25,7,575,PS,exp,30,↑,up,↑,0.5895111999707296,True,14,1,1,2
Y2-S2-002K25,7,576,PS,exp,41,↓,down,↓,0.5676352999871597,True,13,1,0,2
Y2-S2-002K25,7,577,PS,exp,48,←,left,←,0.45325190003495663,True,13,1,0,2
Y2-S2-002K25,7,578,PS,exp,26,→,right,→,0.4682319000130519,True,13,1,0,2
Y2-S2-002K25,7,579,PS,exp,36,↓,up,↑,0.9894586999434978,False,12,-1,1,3
Y2-S2-002K25,7,580,PS,exp,46,↑,up,↑,0.557447100058198,True,13,-1,0,3
Y2-S2-002K25,7,581,PS,exp,45,↓,left,←,0.7529298999579623,False,13,-1,0,3
Y2-S2-002K25,7,582,PS,exp,50,→,right,→,0.5579132999991998,True,14,-1,0,3
Y2-S2-002K25,7,583,PS,exp,31,←,right,→,0.8240239000879228,False,14,-1,0,3
Y2-S2-002K25,7,584,PS,exp,43,↓,down,↓,0.6238423999166116,True,15,-1,0,3
Y2-S2-002K25,7,585,PS,exp,32,→,right,→,0.5771569000789896,True,15,-1,0,3
Y2-S2-002K25,7,586,PS,exp,36,←,left,←,0.4804325000150129,True,15,1,1,4
Y2-S2-002K25,7,587,PS,exp,37,↓,down,↓,0.7563696000725031,True,14,1,0,4
Y2-S2-002K25,7,588,PS,exp,30,←,right,→,0.6570918000070378,False,14,-1,1,5
Y2-S2-002K25,7,589,PS,exp,33,→,right,→,0.5150820000562817,True,15,-1,0,5
Y2-S2-002K25,7,590,PS,exp,38,↑,up,↑,0.865559000056237,True,15,-1,0,5
Y2-S2-002K25,7,591,PS,exp,33,←,left,←,0.4789796000113711,True,15,1,1,6
Y2-S2-002K25,7,592,PS,exp,30,↓,down,↓,0.5859572000335902,True,14,1,0,6
Y2-S2-002K25,7,593,PS,exp,32,→,right,→,0.8295596999814734,True,14,1,0,6
Y2-S2-002K25,7,594,PS,exp,48,↓,down,↓,0.699200400034897,True,14,1,0,6
Y2-S2-002K25,7,595,PS,exp,37,←,left,←,0.44823039998300374,True,13,1,0,6
Y2-S2-002K25,7,596,PS,exp,46,↓,down,↓,0.6468680999241769,True,13,1,0,6
Y2-S2-002K25,7,597,PS,exp,36,→,right,→,0.42479980003554374,True,13,1,0,6
Y2-S2-002K25,7,598,PS,exp,39,↑,up,↑,0.6494398999493569,True,12,1,0,6
Y2-S2-002K25,7,599,PS,exp,33,←,left,←,0.6267654000548646,True,12,1,0,6
Y2-S2-002K25,7,600,PS,exp,27,→,right,→,0.4019496999680996,True,12,1,0,6
Y2-S2-002K25,7,601,PS,exp,27,←,left,←,0.4331342000514269,True,11,1,0,6
Y2-S2-002K25,7,602,PS,exp,39,→,left,←,0.7068751000333577,False,11,-1,1,7
Y2-S2-002K25,7,603,PS,exp,49,↓,down,↓,0.5931229999987409,True,12,-1,0,7
Y2-S2-002K25,7,604,PS,exp,25,←,right,→,0.7561074999393895,False,12,-1,0,7
Y2-S2-002K25,7,605,PS,exp,31,↓,down,↓,0.5279552999418229,True,13,-1,0,7
Y2-S2-002K25,7,606,PS,exp,28,→,right,→,0.4412027000216767,True,13,-1,0,7
Y2-S2-002K25,7,607,PS,exp,48,←,left,←,0.447500400012359,True,13,1,1,8
Y2-S2-002K25,7,608,PS,exp,46,↑,left,←,0.9745752000017092,False,12,-1,1,9
Y2-S2-002K25,7,609,PS,exp,34,→,left,←,0.7154810999054462,False,13,-1,0,9
Y2-S2-002K25,7,610,PS,exp,29,←,left,←,0.44346460001543164,True,14,-1,0,9
Y2-S2-002K25,7,611,PS,exp,43,→,right,→,0.46621220000088215,True,14,-1,0,9
Y2-S2-002K25,7,612,PS,exp,43,↑,down,↓,0.9584149000002071,False,14,-1,0,9
Y2-S2-002K25,7,613,PS,exp,36,→,right,→,0.4407798000611365,True,15,-1,0,9
Y2-S2-002K25,7,614,PS,exp,36,↓,down,↓,0.7157070999965072,True,15,-1,0,9
Y2-S2-002K25,7,615,PS,exp,38,←,left,←,0.5408648999873549,True,15,1,1,10
Y2-S2-002K25,7,616,PS,exp,40,↑,up,↑,0.80082979996223,True,14,1,0,10
Y2-S2-002K25,7,617,PS,exp,36,↓,down,↓,0.6384483999572694,True,14,1,0,10
Y2-S2-002K25,7,618,PS,exp,41,↑,up,↑,0.581757300067693,True,14,1,0,10
Y2-S2-002K25,7,619,PS,exp,36,→,right,→,0.472509799990803,True,13,1,0,10
Y2-S2-002K25,7,620,PS,exp,31,↓,down,↓,0.5604299999540672,True,13,1,0,10
Y2-S2-002K25,7,621,PS,exp,45,→,right,→,0.4351233000634238,True,13,1,0,10
Y2-S2-002K25,7,622,PS,exp,26,↓,down,↓,0.6034274999983609,True,12,1,0,10
Y2-S2-002K25,7,623,PS,exp,36,←,left,←,0.6103917000582442,True,12,1,0,10
Y2-S2-002K25,7,624,PS,exp,43,↑,up,↑,0.6146470999810845,True,12,1,0,10
Y2-S2-002K25,7,625,PS,exp,50,→,right,→,0.47824730002321303,True,11,1,0,10
Y2-S2-002K25,7,626,PS,exp,43,↑,up,↑,0.5738240999635309,True,11,1,0,10
Y2-S2-002K25,7,627,PS,exp,38,←,right,→,0.6791191999800503,False,11,-1,1,11
Y2-S2-002K25,7,628,PS,exp,38,↑,right,→,0.7457782999845222,False,12,-1,0,11
Y2-S2-002K25,7,629,PS,exp,36,↓,down,↓,0.5878607999766245,True,13,-1,0,11
Y2-S2-002K25,7,630,PS,exp,39,↑,right,→,0.9387601000489667,False,13,-1,0,11
Y2-S2-002K25,7,631,PS,exp,42,↓,down,↓,0.7921066000126302,True,14,-1,0,11
Y2-S2-002K25,7,632,PS,exp,28,→,right,→,0.42193670000415295,True,14,-1,0,11
Y2-S2-002K25,7,633,PS,exp,26,↓,right,→,0.8748352999100462,False,14,-1,0,11
Y2-S2-002K25,7,634,PS,exp,47,→,right,→,0.5299074000213295,True,15,-1,0,11
Y2-S2-002K25,7,635,PS,exp,40,←,left,←,0.5989001999842003,True,15,-1,0,11
Y2-S2-002K25,7,636,PS,exp,46,↑,up,↑,0.6399848000146449,True,15,1,1,12
Y2-S2-002K25,7,637,PS,exp,40,←,left,←,0.4385346999624744,True,14,1,0,12
Y2-S2-002K25,7,638,PS,exp,44,↓,down,↓,0.5496163000352681,True,14,1,0,12
Y2-S2-002K25,7,639,PS,exp,48,→,right,→,0.4251861999509856,True,14,1,0,12
Y2-S2-002K25,7,640,PS,exp,31,↓,left,←,1.1376257999800146,False,13,-1,1,13
Y2-S2-002K25,7,641,PS,exp,34,←,left,←,0.7289517000317574,True,14,-1,0,13
Y2-S2-002K25,7,642,PS,exp,39,↑,up,↑,0.7457645999966189,True,14,-1,0,13
Y2-S2-002K25,7,643,PS,exp,50,←,left,←,0.46556459995917976,True,14,1,1,14
Y2-S2-002K25,7,644,PS,exp,42,↑,up,↑,0.6507670000428334,True,13,1,0,14
Y2-S2-002K25,7,645,PS,exp,36,→,right,→,0.4431490999413654,True,13,1,0,14
Y2-S2-002K25,7,646,PS,exp,36,←,left,←,0.5794757000403479,True,13,1,0,14
Y2-S2-002K25,7,647,PS,exp,25,↓,right,→,1.146515499916859,False,12,-1,1,15
Y2-S2-002K25,7,648,PS,exp,48,↑,up,↑,0.7302610999904573,True,13,-1,0,15
Y2-S2-002K25,7,649,PS,exp,47,→,right,→,0.4590348999481648,True,13,-1,0,15
Y2-S2-002K25,7,650,PS,exp,37,↓,up,↑,0.909288699971512,False,13,-1,0,15
Y2-S2-002K25,7,651,PS,exp,50,↑,up,↑,0.6238714999053627,True,14,-1,0,15
Y2-S2-002K25,7,652,PS,exp,38,↓,up,↑,0.8963198000565171,False,14,-1,0,15
Y2-S2-002K25,7,653,PS,exp,34,←,right,→,0.5554997000144795,False,15,-1,0,15
Y2-S2-002K25,7,654,PS,exp,35,→,right,→,0.7047309000045061,True,16,-1,0,15
Y2-S2-002K25,7,655,PS,exp,47,←,up,↑,0.6466227999189869,False,16,-1,0,15
Y2-S2-002K25,7,656,PS,exp,31,↑,up,↑,0.7051257999846712,True,17,-1,0,15
Y2-S2-002K25,7,657,PS,exp,42,↓,down,↓,0.6823945000069216,True,17,-1,0,15
Y2-S2-002K25,7,658,PS,exp,41,→,no_key,no_letter,-1.0,False,17,-1,0,15
Y2-S2-002K25,7,659,PS,exp,43,↑,up,↑,0.5764252999797463,True,18,-1,0,15
Y2-S2-002K25,7,660,PS,exp,35,↓,down,↓,0.6534463999560103,True,18,-1,0,15
Y2-S2-002K25,7,661,PS,exp,48,←,left,←,0.5350776000414044,True,18,1,1,16
Y2-S2-002K25,8,662,AS,intra_train,37,→,right,→,0.5979909000452608,True,25,-,-,-
Y2-S2-002K25,8,663,AS,intra_train,36,←,left,←,0.6686199000105262,True,25,-,-,-
Y2-S2-002K25,8,664,AS,intra_train,40,↑,up,↑,0.6588936001062393,True,25,-,-,-
Y2-S2-002K25,8,665,AS,intra_train,49,↓,down,↓,0.8681689999066293,True,25,-,-,-
Y2-S2-002K25,8,666,AS,intra_train,35,→,right,→,0.6788884000852704,True,25,-,-,-
Y2-S2-002K25,8,667,AS,exp,46,↓,down,↓,0.5855097000021487,True,17,0,0,0
Y2-S2-002K25,8,668,AS,exp,30,→,left,←,0.8924067000625655,False,17,-1,0,0
Y2-S2-002K25,8,669,AS,exp,30,↓,down,↓,0.5453822000417858,True,18,-1,0,0
Y2-S2-002K25,8,670,AS,exp,31,↑,up,↑,0.5388085999293253,True,18,-1,0,0
Y2-S2-002K25,8,671,AS,exp,29,←,left,←,0.5543451000703499,True,18,1,1,1
Y2-S2-002K25,8,672,AS,exp,32,↑,down,↓,1.1579843999352306,False,17,-1,1,2
Y2-S2-002K25,8,673,AS,exp,31,↓,down,↓,0.6122524000238627,True,18,-1,0,2
Y2-S2-002K25,8,674,AS,exp,27,↑,up,↑,0.6434799000853673,True,18,-1,0,2
Y2-S2-002K25,8,675,AS,exp,42,↓,down,↓,0.7764467999804765,True,18,1,1,3
Y2-S2-002K25,8,676,AS,exp,44,↑,up,↑,1.4031396999489516,True,17,1,0,3
Y2-S2-002K25,8,677,AS,exp,37,↓,down,↓,0.5765611999668181,True,17,1,0,3
Y2-S2-002K25,8,678,AS,exp,40,←,left,←,0.727780400076881,True,17,1,0,3
Y2-S2-002K25,8,679,AS,exp,39,→,left,←,0.7140016000485048,False,16,-1,1,4
Y2-S2-002K25,8,680,AS,exp,28,↓,down,↓,0.7882743999361992,True,17,-1,0,4
Y2-S2-002K25,8,681,AS,exp,30,←,left,←,0.4619537000544369,True,17,-1,0,4
Y2-S2-002K25,8,682,AS,exp,41,↑,up,↑,0.5218295999802649,True,17,1,1,5
Y2-S2-002K25,8,683,AS,exp,44,↓,down,↓,0.6076824000338092,True,16,1,0,5
Y2-S2-002K25,8,684,AS,exp,47,↑,up,↑,0.7747917000669986,True,16,1,0,5
Y2-S2-002K25,8,685,AS,exp,40,↓,down,↓,0.4974122999701649,True,16,1,0,5
Y2-S2-002K25,8,686,AS,exp,37,→,right,→,1.1937399000162259,True,15,1,0,5
Y2-S2-002K25,8,687,AS,exp,38,↑,up,↑,0.7374802000122145,True,15,1,0,5
Y2-S2-002K25,8,688,AS,exp,28,↓,down,↓,0.47149510006420314,True,15,1,0,5
Y2-S2-002K25,8,689,AS,exp,46,→,right,→,0.42616159992758185,True,14,1,0,5
Y2-S2-002K25,8,690,AS,exp,32,←,left,←,0.43091620004270226,True,14,1,0,5
Y2-S2-002K25,8,691,AS,exp,39,→,left,←,0.5227238000370562,False,14,-1,1,6
Y2-S2-002K25,8,692,AS,exp,26,↓,down,↓,0.562644699937664,True,15,-1,0,6
Y2-S2-002K25,8,693,AS,exp,36,←,left,←,0.6496610000031069,True,15,-1,0,6
Y2-S2-002K25,8,694,AS,exp,47,→,left,←,0.6528793999459594,False,15,-1,0,6
Y2-S2-002K25,8,695,AS,exp,29,↑,left,←,0.572448099963367,False,16,-1,0,6
Y2-S2-002K25,8,696,AS,exp,28,→,right,→,0.45650639990344644,True,17,-1,0,6
Y2-S2-002K25,8,697,AS,exp,38,←,left,←,0.41727989993523806,True,17,-1,0,6
Y2-S2-002K25,8,698,AS,exp,35,↓,down,↓,0.6377780999755487,True,17,1,1,7
Y2-S2-002K25,8,699,AS,exp,30,↑,up,↑,0.5007010999834165,True,16,1,0,7
Y2-S2-002K25,8,700,AS,exp,40,←,left,←,0.6004859000677243,True,16,1,0,7
Y2-S2-002K25,8,701,AS,exp,50,↑,up,↑,0.5331266999710351,True,16,1,0,7
Y2-S2-002K25,8,702,AS,exp,36,←,left,←,0.35080400004517287,True,15,1,0,7
Y2-S2-002K25,8,703,AS,exp,41,↓,up,↑,0.90660379990004,False,15,-1,1,8
Y2-S2-002K25,8,704,AS,exp,36,←,left,←,0.3507196999853477,True,16,-1,0,8
Y2-S2-002K25,8,705,AS,exp,50,↓,down,↓,0.49521299998741597,True,16,-1,0,8
Y2-S2-002K25,8,706,AS,exp,29,←,left,←,0.6393568000057712,True,16,1,1,9
Y2-S2-002K25,8,707,AS,exp,27,↓,down,↓,0.6051864000037313,True,15,1,0,9
Y2-S2-002K25,8,708,AS,exp,49,→,left,←,0.6581146999960765,False,15,-1,1,10
Y2-S2-002K25,8,709,AS,exp,33,↑,up,↑,1.0461110998876393,True,16,-1,0,10
Y2-S2-002K25,8,710,AS,exp,34,→,right,→,0.7476092999568209,True,16,-1,0,10
Y2-S2-002K25,8,711,AS,exp,47,←,left,←,0.566275899996981,True,16,1,1,11
Y2-S2-002K25,8,712,AS,exp,40,→,right,→,0.8355301000410691,True,15,1,0,11
Y2-S2-002K25,8,713,AS,exp,36,↑,up,↑,1.1312890000408515,True,15,1,0,11
Y2-S2-002K25,8,714,AS,exp,41,→,right,→,0.6097240999806672,True,15,1,0,11
Y2-S2-002K25,8,715,AS,exp,36,↑,up,↑,0.6334255000110716,True,14,1,0,11
Y2-S2-002K25,8,716,AS,exp,25,→,left,←,0.6414563999278471,False,14,-1,1,12
Y2-S2-002K25,8,717,AS,exp,49,←,left,←,0.5498908000299707,True,15,-1,0,12
Y2-S2-002K25,8,718,AS,exp,34,↓,down,↓,0.8101037999149412,True,15,-1,0,12
Y2-S2-002K25,8,719,AS,exp,44,←,left,←,0.7212207999546081,True,15,1,1,13
Y2-S2-002K25,8,720,AS,exp,46,↑,up,↑,0.7079317999305204,True,14,1,0,13
Y2-S2-002K25,8,721,AS,exp,34,←,left,←,0.5136447999393567,True,14,1,0,13
Y2-S2-002K25,8,722,AS,exp,40,↓,down,↓,0.5907024999614805,True,14,1,0,13
Y2-S2-002K25,8,723,AS,exp,28,→,right,→,0.4137454000301659,True,13,1,0,13
Y2-S2-002K25,8,724,AS,exp,25,↑,up,↑,0.5904710000613704,True,13,1,0,13
Y2-S2-002K25,8,725,AS,exp,48,→,right,→,0.6263351999223232,True,13,1,0,13
Y2-S2-002K25,8,726,AS,exp,48,↑,up,↑,0.5627022000262514,True,12,1,0,13
Y2-S2-002K25,8,727,AS,exp,29,←,left,←,0.43162240006495267,True,12,1,0,13
Y2-S2-002K25,8,728,AS,exp,40,↓,left,←,0.8094234999734908,False,12,-1,1,14
Y2-S2-002K25,8,729,AS,exp,34,←,left,←,0.6908873000647873,True,13,-1,0,14
Y2-S2-002K25,8,730,AS,exp,25,↑,right,→,0.7200834999093786,False,13,-1,0,14
Y2-S2-002K25,8,731,AS,exp,30,→,right,→,0.662009899970144,True,14,-1,0,14
Y2-S2-002K25,8,732,AS,exp,49,←,left,←,0.4181113000959158,True,14,-1,0,14
Y2-S2-002K25,8,733,AS,exp,25,↓,down,↓,0.6312219999963418,True,14,1,1,15
Y2-S2-002K25,8,734,AS,exp,48,←,left,←,0.4341762999538332,True,13,1,0,15
Y2-S2-002K25,8,735,AS,exp,38,→,right,→,0.46552880003582686,True,13,1,0,15
Y2-S2-002K25,8,736,AS,exp,27,←,left,←,0.8372864999109879,True,13,1,0,15
Y2-S2-002K25,8,737,AS,exp,45,↑,up,↑,0.7111477999715135,True,12,1,0,15
Y2-S2-002K25,8,738,AS,exp,48,↓,right,→,0.6140933999558911,False,12,-1,1,16
