PART_ID,Block_no,Trial_no,Block_type,Trial_type,CSI,Stim_letter,Key_pressed,letter_choose,Rt,Corr,Stimulus Time,Level,Reversal,Revs_count
Y2-S2-055K22,1,1,PS,train,47,←,left,←,0.5840234000061173,True,30,-,-,-
Y2-S2-055K22,1,2,PS,train,45,↓,right,→,0.4677750999981072,False,30,-,-,-
Y2-S2-055K22,1,3,PS,train,28,↑,up,↑,0.5840867999941111,True,30,-,-,-
Y2-S2-055K22,1,4,PS,train,45,↓,down,↓,0.5671368000039365,True,30,-,-,-
Y2-S2-055K22,1,5,PS,train,44,→,right,→,0.6003473000018857,True,30,-,-,-
Y2-S2-055K22,1,6,PS,train,39,↑,up,↑,0.5171655000012834,True,30,-,-,-
Y2-S2-055K22,1,7,PS,train,37,↓,down,↓,1.028022599988617,True,30,-,-,-
Y2-S2-055K22,1,8,PS,train,29,←,left,←,0.4509613999980502,True,30,-,-,-
Y2-S2-055K22,1,9,PS,train,48,↑,up,↑,0.5172649000014644,True,30,-,-,-
Y2-S2-055K22,1,10,PS,train,31,→,right,→,1.4691887999942992,True,30,-,-,-
Y2-S2-055K22,2,11,AS,train,30,↓,down,↓,0.5677398999978323,True,45,-,-,-
Y2-S2-055K22,2,12,AS,train,48,↑,up,↑,0.6175176000106148,True,45,-,-,-
Y2-S2-055K22,2,13,AS,train,48,←,left,←,0.5509448999946471,True,45,-,-,-
Y2-S2-055K22,2,14,AS,train,29,↑,up,↑,0.6336023999901954,True,45,-,-,-
Y2-S2-055K22,2,15,AS,train,31,↓,up,↑,0.46751670000958256,False,45,-,-,-
Y2-S2-055K22,2,16,AS,train,50,↑,up,↑,0.7168773000012152,True,45,-,-,-
Y2-S2-055K22,2,17,AS,train,44,↓,down,↓,0.6337874000018928,True,45,-,-,-
Y2-S2-055K22,2,18,AS,train,43,→,right,→,0.6670543999935035,True,45,-,-,-
Y2-S2-055K22,2,19,AS,train,34,↓,down,↓,0.6338440999970771,True,45,-,-,-
Y2-S2-055K22,2,20,AS,train,40,↑,up,↑,0.733716499991715,True,45,-,-,-
Y2-S2-055K22,-,21,PS,adaptive,28,←,up,↑,1.4153523000131827,False,10,-1,0,0
Y2-S2-055K22,-,22,PS,adaptive,29,→,down,↓,0.9568853999953717,False,11,-1,0,0
Y2-S2-055K22,-,23,PS,adaptive,39,↓,down,↓,0.585427800018806,True,12,-1,0,0
Y2-S2-055K22,-,24,PS,adaptive,43,→,right,→,0.5547202999878209,True,12,-1,0,0
Y2-S2-055K22,-,25,PS,adaptive,30,↓,down,↓,0.8120964000117965,True,12,1,1,1
Y2-S2-055K22,-,26,PS,adaptive,28,←,left,←,0.5659694999922067,True,11,1,0,1
Y2-S2-055K22,-,27,PS,adaptive,48,↑,up,↑,0.604927200009115,True,11,1,0,1
Y2-S2-055K22,-,28,PS,adaptive,35,←,left,←,1.1374648000055458,True,11,1,0,1
Y2-S2-055K22,-,29,PS,adaptive,49,↓,down,↓,0.8219455000071321,True,10,1,0,1
Y2-S2-055K22,-,30,PS,adaptive,42,↑,down,↓,0.6319911000027787,False,10,-1,1,2
Y2-S2-055K22,-,31,PS,adaptive,28,→,right,→,0.650677400000859,True,11,-1,0,2
Y2-S2-055K22,-,32,PS,adaptive,43,↑,up,↑,0.46992109998245724,True,11,-1,0,2
Y2-S2-055K22,-,33,PS,adaptive,25,→,left,←,0.7376005999976769,False,11,-1,0,2
Y2-S2-055K22,-,34,PS,adaptive,30,↓,down,↓,0.6195862000167836,True,12,-1,0,2
Y2-S2-055K22,-,35,PS,adaptive,38,↑,up,↑,0.6231364000122994,True,12,-1,0,2
Y2-S2-055K22,-,36,PS,adaptive,49,→,right,→,0.5507203000015579,True,12,1,1,3
Y2-S2-055K22,-,37,PS,adaptive,41,↓,down,↓,0.5995861999981571,True,11,1,0,3
Y2-S2-055K22,-,38,PS,adaptive,48,↑,up,↑,0.5434695000003558,True,11,1,0,3
Y2-S2-055K22,-,39,PS,adaptive,50,↓,up,↑,0.7574187999998685,False,11,-1,1,4
Y2-S2-055K22,-,40,AS,adaptive,43,↑,up,↑,0.6147003000078257,True,20,0,0,0
Y2-S2-055K22,-,41,AS,adaptive,28,←,left,←,0.5656995000026654,True,20,0,0,0
Y2-S2-055K22,-,42,AS,adaptive,31,↓,down,↓,0.5830122999905143,True,20,1,0,0
Y2-S2-055K22,-,43,AS,adaptive,48,↑,up,↑,0.5277270000078715,True,19,1,0,0
Y2-S2-055K22,-,44,AS,adaptive,49,→,right,→,0.8522253000119235,True,19,1,0,0
Y2-S2-055K22,-,45,AS,adaptive,43,↓,down,↓,0.6501738999795634,True,19,1,0,0
Y2-S2-055K22,-,46,AS,adaptive,41,↑,up,↑,0.7170340000011493,True,18,1,0,0
Y2-S2-055K22,-,47,AS,adaptive,30,→,right,→,0.6163421999954153,True,18,1,0,0
Y2-S2-055K22,-,48,AS,adaptive,43,←,left,←,0.6875213999883272,True,18,1,0,0
Y2-S2-055K22,-,49,AS,adaptive,32,↑,up,↑,0.5286674000089988,True,17,1,0,0
Y2-S2-055K22,-,50,AS,adaptive,44,→,right,→,0.5911226999887731,True,17,1,0,0
Y2-S2-055K22,-,51,AS,adaptive,27,↑,up,↑,0.5184599999920465,True,17,1,0,0
Y2-S2-055K22,-,52,AS,adaptive,27,→,right,→,0.5831341000157408,True,16,1,0,0
Y2-S2-055K22,-,53,AS,adaptive,29,←,right,→,0.8040422999765724,False,16,-1,1,1
Y2-S2-055K22,-,54,AS,adaptive,33,↓,down,↓,0.6374469000147656,True,17,-1,0,1
Y2-S2-055K22,-,55,AS,adaptive,44,↑,up,↑,0.4940841000061482,True,17,-1,0,1
Y2-S2-055K22,-,56,AS,adaptive,44,↓,down,↓,0.7073650000093039,True,17,1,1,2
Y2-S2-055K22,-,57,AS,adaptive,31,→,right,→,0.6054283000121359,True,16,1,0,2
Y2-S2-055K22,-,58,AS,adaptive,43,↓,down,↓,0.6464457999973092,True,16,1,0,2
Y2-S2-055K22,-,59,AS,adaptive,33,→,right,→,0.6239896999904886,True,16,1,0,2
Y2-S2-055K22,-,60,AS,adaptive,35,←,left,←,0.6310462999972515,True,15,1,0,2
Y2-S2-055K22,-,61,AS,adaptive,48,→,right,→,0.613187500013737,True,15,1,0,2
Y2-S2-055K22,-,62,AS,adaptive,45,↓,down,↓,0.9575398000015412,True,15,1,0,2
Y2-S2-055K22,-,63,AS,adaptive,33,↑,up,↑,0.5578994000097737,True,14,1,0,2
Y2-S2-055K22,-,64,AS,adaptive,29,←,right,→,0.7025731999892741,False,14,-1,1,3
Y2-S2-055K22,-,65,AS,adaptive,38,→,left,←,0.7055183000047691,False,15,-1,0,3
Y2-S2-055K22,-,66,AS,adaptive,26,←,left,←,0.5721312999958172,True,16,-1,0,3
Y2-S2-055K22,-,67,AS,adaptive,27,↓,down,↓,0.7504460000200197,True,16,-1,0,3
Y2-S2-055K22,-,68,AS,adaptive,27,↑,up,↑,0.507329199986998,True,16,1,1,4
Y2-S2-055K22,1,69,AS,intra_train,32,→,right,→,0.5678568000148516,True,22,-,-,-
Y2-S2-055K22,1,70,AS,intra_train,41,↓,down,↓,0.6273455999908037,True,22,-,-,-
Y2-S2-055K22,1,71,AS,intra_train,36,←,left,←,1.2356629999994766,True,22,-,-,-
Y2-S2-055K22,1,72,AS,intra_train,48,↓,left,←,0.4335875000106171,False,22,-,-,-
Y2-S2-055K22,1,73,AS,intra_train,30,←,left,←,0.656778700009454,True,22,-,-,-
Y2-S2-055K22,1,74,AS,exp,50,→,right,→,0.6689182000118308,True,15,0,0,0
Y2-S2-055K22,1,75,AS,exp,44,←,left,←,0.7805637000128627,True,15,0,0,0
Y2-S2-055K22,1,76,AS,exp,25,→,left,←,0.9903561999963131,False,15,-1,0,0
Y2-S2-055K22,1,77,AS,exp,48,←,left,←,0.5783059000095818,True,16,-1,0,0
Y2-S2-055K22,1,78,AS,exp,47,↓,down,↓,0.6343352000112645,True,16,-1,0,0
Y2-S2-055K22,1,79,AS,exp,38,→,right,→,0.8720478000177536,True,16,1,1,1
Y2-S2-055K22,1,80,AS,exp,35,↓,down,↓,0.5911903000087477,True,15,1,0,1
Y2-S2-055K22,1,81,AS,exp,30,→,right,→,0.5607866999926046,True,15,1,0,1
Y2-S2-055K22,1,82,AS,exp,30,←,down,↓,0.8002913999953307,False,15,-1,1,2
Y2-S2-055K22,1,83,AS,exp,37,→,right,→,0.6915576000174042,True,16,-1,0,2
Y2-S2-055K22,1,84,AS,exp,25,↓,down,↓,0.6304939999827184,True,16,-1,0,2
Y2-S2-055K22,1,85,AS,exp,39,→,right,→,0.5104645999963395,True,16,1,1,3
Y2-S2-055K22,1,86,AS,exp,38,←,left,←,0.6833856000157539,True,15,1,0,3
Y2-S2-055K22,1,87,AS,exp,46,→,right,→,0.5133897000050638,True,15,1,0,3
Y2-S2-055K22,1,88,AS,exp,37,↓,down,↓,0.5989522000018042,True,15,1,0,3
Y2-S2-055K22,1,89,AS,exp,38,→,left,←,0.7353695000056177,False,14,-1,1,4
Y2-S2-055K22,1,90,AS,exp,32,←,left,←,0.6028493999911007,True,15,-1,0,4
Y2-S2-055K22,1,91,AS,exp,29,→,right,→,0.5231913000170607,True,15,-1,0,4
Y2-S2-055K22,1,92,AS,exp,43,←,left,←,0.6010335000173654,True,15,1,1,5
Y2-S2-055K22,1,93,AS,exp,47,↓,down,↓,0.5813022000074852,True,14,1,0,5
Y2-S2-055K22,1,94,AS,exp,29,→,left,←,0.8889831000124104,False,14,-1,1,6
Y2-S2-055K22,1,95,AS,exp,27,↑,up,↑,0.664543799997773,True,15,-1,0,6
Y2-S2-055K22,1,96,AS,exp,45,→,left,←,0.5173179999983404,False,15,-1,0,6
Y2-S2-055K22,1,97,AS,exp,27,↑,up,↑,0.5271693999820855,True,16,-1,0,6
Y2-S2-055K22,1,98,AS,exp,50,↓,down,↓,0.6319723000051454,True,16,-1,0,6
Y2-S2-055K22,1,99,AS,exp,50,→,right,→,0.639988800015999,True,16,1,1,7
Y2-S2-055K22,1,100,AS,exp,35,←,left,←,0.5893622000003234,True,15,1,0,7
Y2-S2-055K22,1,101,AS,exp,44,→,right,→,0.710144400014542,True,15,1,0,7
Y2-S2-055K22,1,102,AS,exp,46,↑,up,↑,0.7166797000099905,True,15,1,0,7
Y2-S2-055K22,1,103,AS,exp,45,↓,down,↓,0.7180668000073638,True,14,1,0,7
Y2-S2-055K22,1,104,AS,exp,50,↑,up,↑,0.5312427000026219,True,14,1,0,7
Y2-S2-055K22,1,105,AS,exp,38,↓,down,↓,0.6322776000015438,True,14,1,0,7
Y2-S2-055K22,1,106,AS,exp,27,↑,up,↑,0.5255564000108279,True,13,1,0,7
Y2-S2-055K22,1,107,AS,exp,31,→,right,→,0.5938183999969624,True,13,1,0,7
Y2-S2-055K22,1,108,AS,exp,33,←,left,←,0.6659478000074159,True,13,1,0,7
Y2-S2-055K22,1,109,AS,exp,49,→,right,→,0.8984146000002511,True,12,1,0,7
Y2-S2-055K22,1,110,AS,exp,36,↑,up,↑,0.5134019999823067,True,12,1,0,7
Y2-S2-055K22,1,111,AS,exp,38,←,left,←,0.6161660000216216,True,12,1,0,7
Y2-S2-055K22,1,112,AS,exp,42,↑,up,↑,0.5083728000172414,True,11,1,0,7
Y2-S2-055K22,1,113,AS,exp,27,↓,down,↓,0.7330327999952715,True,11,1,0,7
Y2-S2-055K22,1,114,AS,exp,27,←,left,←,0.5341233000217471,True,11,1,0,7
Y2-S2-055K22,1,115,AS,exp,31,→,left,←,0.8435176000057254,False,10,-1,1,8
Y2-S2-055K22,1,116,AS,exp,38,←,left,←,0.7469225999957416,True,11,-1,0,8
Y2-S2-055K22,1,117,AS,exp,34,→,left,←,0.7708421999996062,False,11,-1,0,8
Y2-S2-055K22,1,118,AS,exp,35,↓,down,↓,0.7202011999906972,True,12,-1,0,8
Y2-S2-055K22,1,119,AS,exp,42,↑,up,↑,0.5614773000124842,True,12,-1,0,8
Y2-S2-055K22,1,120,AS,exp,27,←,left,←,0.7294616999861319,True,12,1,1,9
Y2-S2-055K22,1,121,AS,exp,44,↓,down,↓,0.6436190000094939,True,11,1,0,9
Y2-S2-055K22,1,122,AS,exp,29,←,left,←,0.5906269999977667,True,11,1,0,9
Y2-S2-055K22,1,123,AS,exp,38,↑,up,↑,0.6084973000106402,True,11,1,0,9
Y2-S2-055K22,1,124,AS,exp,31,→,right,→,1.161715499998536,True,10,1,0,9
Y2-S2-055K22,1,125,AS,exp,31,↑,up,↑,0.5467887999839149,True,10,1,0,9
Y2-S2-055K22,1,126,AS,exp,34,↓,down,↓,0.656226199993398,True,10,1,0,9
Y2-S2-055K22,1,127,AS,exp,45,↑,up,↑,0.5829331999993883,True,9,1,0,9
Y2-S2-055K22,1,128,AS,exp,38,←,left,←,0.6152120000042487,True,9,1,0,9
Y2-S2-055K22,1,129,AS,exp,47,→,right,→,0.6394135000009555,True,9,1,0,9
Y2-S2-055K22,1,130,AS,exp,30,↓,up,↑,0.7831044000049587,False,8,-1,1,10
Y2-S2-055K22,1,131,AS,exp,29,←,left,←,0.6990111999912187,True,9,-1,0,10
Y2-S2-055K22,1,132,AS,exp,42,↓,up,↑,0.5676028000016231,False,9,-1,0,10
Y2-S2-055K22,1,133,AS,exp,41,←,left,←,0.726624399976572,True,10,-1,0,10
Y2-S2-055K22,1,134,AS,exp,35,↓,left,←,0.6460917000076734,False,10,-1,0,10
Y2-S2-055K22,1,135,AS,exp,30,↑,left,←,1.2741748999978881,False,11,-1,0,10
Y2-S2-055K22,1,136,AS,exp,36,→,left,←,0.7911360999860335,False,12,-1,0,10
Y2-S2-055K22,1,137,AS,exp,42,←,left,←,0.6389060000074096,True,13,-1,0,10
Y2-S2-055K22,1,138,AS,exp,46,↓,down,↓,0.6640214999788441,True,13,-1,0,10
Y2-S2-055K22,1,139,AS,exp,42,↑,up,↑,0.6439881999976933,True,13,1,1,11
Y2-S2-055K22,1,140,AS,exp,46,→,left,←,0.646526399999857,False,12,-1,1,12
Y2-S2-055K22,1,141,AS,exp,28,←,left,←,0.9203409999900032,True,13,-1,0,12
Y2-S2-055K22,1,142,AS,exp,44,↑,up,↑,0.5892006999929436,True,13,-1,0,12
Y2-S2-055K22,1,143,AS,exp,50,←,left,←,0.6034467999998014,True,13,1,1,13
Y2-S2-055K22,1,144,AS,exp,30,→,right,→,0.7037183999782428,True,12,1,0,13
Y2-S2-055K22,1,145,AS,exp,44,↑,up,↑,0.576710000023013,True,12,1,0,13
Y2-S2-055K22,1,146,AS,exp,26,↓,down,↓,0.6844896999828052,True,12,1,0,13
Y2-S2-055K22,1,147,AS,exp,28,←,left,←,0.6806917999929283,True,11,1,0,13
Y2-S2-055K22,1,148,AS,exp,29,↑,up,↑,0.6363475999969523,True,11,1,0,13
Y2-S2-055K22,1,149,AS,exp,36,↓,down,↓,0.6920455999788828,True,11,1,0,13
Y2-S2-055K22,1,150,AS,exp,30,←,left,←,0.8071232999791391,True,10,1,0,13
Y2-S2-055K22,1,151,AS,exp,34,↓,down,↓,0.8994145999895409,True,10,1,0,13
Y2-S2-055K22,1,152,AS,exp,28,↑,up,↑,0.5843948000110686,True,10,1,0,13
Y2-S2-055K22,1,153,AS,exp,31,→,left,←,0.7800469000067096,False,9,-1,1,14
Y2-S2-055K22,1,154,AS,exp,41,↓,right,→,0.9611824000021443,False,10,-1,0,14
Y2-S2-055K22,1,155,AS,exp,31,←,left,←,0.6567753000126686,True,11,-1,0,14
Y2-S2-055K22,1,156,AS,exp,33,↓,down,↓,0.7116928999894299,True,11,-1,0,14
Y2-S2-055K22,1,157,AS,exp,46,→,right,→,0.5186601999739651,True,11,1,1,15
Y2-S2-055K22,1,158,AS,exp,42,↑,up,↑,0.5273863000038546,True,10,1,0,15
Y2-S2-055K22,1,159,AS,exp,50,↓,down,↓,0.7000372000038624,True,10,1,0,15
Y2-S2-055K22,1,160,AS,exp,28,→,left,←,0.705263499985449,False,10,-1,1,16
Y2-S2-055K22,2,161,PS,intra_train,32,↑,up,↑,0.5583933000161778,True,18,-,-,-
Y2-S2-055K22,2,162,PS,intra_train,41,→,right,→,0.6563716999953613,True,18,-,-,-
Y2-S2-055K22,2,163,PS,intra_train,32,←,left,←,0.5940123000182211,True,18,-,-,-
Y2-S2-055K22,2,164,PS,intra_train,41,→,right,→,0.6664761999854818,True,18,-,-,-
Y2-S2-055K22,2,165,PS,intra_train,46,←,left,←,0.6531084000016563,True,18,-,-,-
Y2-S2-055K22,2,166,PS,exp,45,↓,down,↓,0.6835422000149265,True,12,0,0,0
Y2-S2-055K22,2,167,PS,exp,37,→,right,→,0.49559820001013577,True,12,0,0,0
Y2-S2-055K22,2,168,PS,exp,42,↓,up,↑,0.71294399999897,False,12,-1,0,0
Y2-S2-055K22,2,169,PS,exp,37,↑,up,↑,0.6462408999796025,True,13,-1,0,0
Y2-S2-055K22,2,170,PS,exp,25,↓,down,↓,0.6509474999911617,True,13,-1,0,0
Y2-S2-055K22,2,171,PS,exp,42,→,left,←,0.7087606000131927,False,13,-1,0,0
Y2-S2-055K22,2,172,PS,exp,41,←,left,←,0.559338499995647,True,14,-1,0,0
Y2-S2-055K22,2,173,PS,exp,28,↓,down,↓,0.7287540000106674,True,14,-1,0,0
Y2-S2-055K22,2,174,PS,exp,48,→,right,→,0.5149334000016097,True,14,1,1,1
Y2-S2-055K22,2,175,PS,exp,34,←,left,←,0.712759999994887,True,13,1,0,1
Y2-S2-055K22,2,176,PS,exp,42,→,right,→,0.6515196000109427,True,13,1,0,1
Y2-S2-055K22,2,177,PS,exp,31,←,left,←,0.5668062999902759,True,13,1,0,1
Y2-S2-055K22,2,178,PS,exp,26,↑,up,↑,0.5701859000255354,True,12,1,0,1
Y2-S2-055K22,2,179,PS,exp,25,→,right,→,0.8843802000046708,True,12,1,0,1
Y2-S2-055K22,2,180,PS,exp,40,↑,up,↑,0.48100880000856705,True,12,1,0,1
Y2-S2-055K22,2,181,PS,exp,40,↓,down,↓,0.6568658000032883,True,11,1,0,1
Y2-S2-055K22,2,182,PS,exp,38,→,left,←,1.020320300012827,False,11,-1,1,2
Y2-S2-055K22,2,183,PS,exp,34,←,left,←,0.5307797999994364,True,12,-1,0,2
Y2-S2-055K22,2,184,PS,exp,43,→,left,←,0.5362716999952681,False,12,-1,0,2
Y2-S2-055K22,2,185,PS,exp,25,←,left,←,0.5070917000120971,True,13,-1,0,2
Y2-S2-055K22,2,186,PS,exp,36,↑,up,↑,0.4755423999740742,True,13,-1,0,2
Y2-S2-055K22,2,187,PS,exp,41,→,right,→,0.6223773999954574,True,13,1,1,3
Y2-S2-055K22,2,188,PS,exp,44,↓,down,↓,0.666986199998064,True,12,1,0,3
Y2-S2-055K22,2,189,PS,exp,46,→,right,→,0.5676221999747213,True,12,1,0,3
Y2-S2-055K22,2,190,PS,exp,32,↓,down,↓,0.6145923000003677,True,12,1,0,3
Y2-S2-055K22,2,191,PS,exp,47,→,right,→,0.5188687999907415,True,11,1,0,3
Y2-S2-055K22,2,192,PS,exp,49,←,right,→,0.6632186000060756,False,11,-1,1,4
Y2-S2-055K22,2,193,PS,exp,41,↑,up,↑,0.4527210000087507,True,12,-1,0,4
Y2-S2-055K22,2,194,PS,exp,41,→,right,→,0.5241346000111662,True,12,-1,0,4
Y2-S2-055K22,2,195,PS,exp,37,←,left,←,0.4073727000213694,True,12,1,1,5
Y2-S2-055K22,2,196,PS,exp,27,↑,up,↑,0.509465299983276,True,11,1,0,5
Y2-S2-055K22,2,197,PS,exp,43,↓,down,↓,0.6719389999925625,True,11,1,0,5
Y2-S2-055K22,2,198,PS,exp,43,←,left,←,0.48858830000972375,True,11,1,0,5
Y2-S2-055K22,2,199,PS,exp,44,↓,left,←,0.6272659999958705,False,10,-1,1,6
Y2-S2-055K22,2,200,PS,exp,41,↑,up,↑,0.4799582000123337,True,11,-1,0,6
Y2-S2-055K22,2,201,PS,exp,37,←,left,←,0.5122775000054389,True,11,-1,0,6
Y2-S2-055K22,2,202,PS,exp,31,↑,up,↑,0.4563743000035174,True,11,1,1,7
Y2-S2-055K22,2,203,PS,exp,25,↓,down,↓,0.5990352999942843,True,10,1,0,7
Y2-S2-055K22,2,204,PS,exp,27,←,left,←,0.47876040000119247,True,10,1,0,7
Y2-S2-055K22,2,205,PS,exp,47,↑,up,↑,0.4786227000004146,True,10,1,0,7
Y2-S2-055K22,2,206,PS,exp,31,←,left,←,0.36910909999278374,True,9,1,0,7
Y2-S2-055K22,2,207,PS,exp,32,↑,up,↑,0.5374057999870274,True,9,1,0,7
Y2-S2-055K22,2,208,PS,exp,39,←,left,←,0.6579560000100173,True,9,1,0,7
Y2-S2-055K22,2,209,PS,exp,45,↓,down,↓,0.6453128000139259,True,8,1,0,7
Y2-S2-055K22,2,210,PS,exp,30,→,down,↓,0.7122537000104785,False,8,-1,1,8
Y2-S2-055K22,2,211,PS,exp,32,↓,down,↓,0.5478077000007033,True,9,-1,0,8
Y2-S2-055K22,2,212,PS,exp,39,↑,up,↑,0.5956399999849964,True,9,-1,0,8
Y2-S2-055K22,2,213,PS,exp,47,↓,down,↓,0.6566471999976784,True,9,1,1,9
Y2-S2-055K22,2,214,PS,exp,34,→,left,←,0.5966431999986526,False,8,-1,1,10
Y2-S2-055K22,2,215,PS,exp,39,↑,up,↑,0.6258971999923233,True,9,-1,0,10
Y2-S2-055K22,2,216,PS,exp,35,→,right,→,0.5032404999947175,True,9,-1,0,10
Y2-S2-055K22,2,217,PS,exp,48,↓,up,↑,0.6280748000135645,False,9,-1,0,10
Y2-S2-055K22,2,218,PS,exp,46,→,right,→,0.7359953999985009,True,10,-1,0,10
Y2-S2-055K22,2,219,PS,exp,43,←,left,←,0.5566265999805182,True,10,-1,0,10
Y2-S2-055K22,2,220,PS,exp,31,↑,left,←,0.7586975000158418,False,10,-1,0,10
Y2-S2-055K22,2,221,PS,exp,44,←,left,←,0.5699484999931883,True,11,-1,0,10
Y2-S2-055K22,2,222,PS,exp,38,↑,up,↑,0.6963189000089187,True,11,-1,0,10
Y2-S2-055K22,2,223,PS,exp,50,↓,down,↓,0.7060583000129554,True,11,1,1,11
Y2-S2-055K22,2,224,PS,exp,29,←,left,←,0.5283619000110775,True,10,1,0,11
Y2-S2-055K22,2,225,PS,exp,25,→,right,→,0.49868809999316,True,10,1,0,11
Y2-S2-055K22,2,226,PS,exp,29,↓,left,←,0.6629867999872658,False,10,-1,1,12
Y2-S2-055K22,2,227,PS,exp,37,←,left,←,0.5258692000061274,True,11,-1,0,12
Y2-S2-055K22,2,228,PS,exp,40,↓,down,↓,0.6618652000033762,True,11,-1,0,12
Y2-S2-055K22,2,229,PS,exp,35,→,down,↓,0.6760062999965157,False,11,-1,0,12
Y2-S2-055K22,2,230,PS,exp,49,←,left,←,0.5122025999880861,True,12,-1,0,12
Y2-S2-055K22,2,231,PS,exp,28,→,right,→,0.5084414999873843,True,12,-1,0,12
Y2-S2-055K22,2,232,PS,exp,28,←,left,←,0.37510720000136644,True,12,1,1,13
Y2-S2-055K22,2,233,PS,exp,25,↓,down,↓,0.6243739999772515,True,11,1,0,13
Y2-S2-055K22,2,234,PS,exp,30,→,left,←,0.5021008000185248,False,11,-1,1,14
Y2-S2-055K22,2,235,PS,exp,46,↓,down,↓,0.6212731999985408,True,12,-1,0,14
Y2-S2-055K22,2,236,PS,exp,42,↑,up,↑,0.5122009000042453,True,12,-1,0,14
Y2-S2-055K22,2,237,PS,exp,46,←,left,←,0.5028592000016943,True,12,1,1,15
Y2-S2-055K22,2,238,PS,exp,26,→,right,→,0.5481826000032015,True,11,1,0,15
Y2-S2-055K22,2,239,PS,exp,40,↑,up,↑,0.4394146999984514,True,11,1,0,15
Y2-S2-055K22,2,240,PS,exp,48,←,left,←,0.47636749999946915,True,11,1,0,15
Y2-S2-055K22,2,241,PS,exp,32,↓,up,↑,0.5491260999988299,False,10,-1,1,16
Y2-S2-055K22,3,242,PS,intra_train,50,←,left,←,0.4943467999983113,True,18,-,-,-
Y2-S2-055K22,3,243,PS,intra_train,25,→,right,→,0.5437935999943875,True,18,-,-,-
Y2-S2-055K22,3,244,PS,intra_train,36,←,left,←,0.5955320999782998,True,18,-,-,-
Y2-S2-055K22,3,245,PS,intra_train,35,→,right,→,0.5033199999888893,True,18,-,-,-
Y2-S2-055K22,3,246,PS,intra_train,25,↑,up,↑,0.4991083999921102,True,18,-,-,-
Y2-S2-055K22,3,247,PS,exp,37,↓,down,↓,0.6535913999832701,True,12,0,0,0
Y2-S2-055K22,3,248,PS,exp,39,←,left,←,0.43984040000941604,True,12,0,0,0
Y2-S2-055K22,3,249,PS,exp,33,↑,up,↑,0.46452189999399707,True,12,1,0,0
Y2-S2-055K22,3,250,PS,exp,43,↓,down,↓,0.5638588999863714,True,11,1,0,0
Y2-S2-055K22,3,251,PS,exp,46,←,left,←,0.5239226999983657,True,11,1,0,0
Y2-S2-055K22,3,252,PS,exp,49,→,right,→,0.4413803000061307,True,11,1,0,0
Y2-S2-055K22,3,253,PS,exp,48,↓,down,↓,0.5526608000218403,True,10,1,0,0
Y2-S2-055K22,3,254,PS,exp,25,→,right,→,0.5274949999875389,True,10,1,0,0
Y2-S2-055K22,3,255,PS,exp,28,↓,down,↓,0.609691899997415,True,10,1,0,0
Y2-S2-055K22,3,256,PS,exp,39,↑,up,↑,0.5138035999843851,True,9,1,0,0
Y2-S2-055K22,3,257,PS,exp,27,←,right,→,0.339869000017643,False,9,-1,1,1
Y2-S2-055K22,3,258,PS,exp,39,↑,up,↑,0.44807090001995675,True,10,-1,0,1
Y2-S2-055K22,3,259,PS,exp,30,←,left,←,0.585171500017168,True,10,-1,0,1
Y2-S2-055K22,3,260,PS,exp,34,↑,up,↑,0.4590324999880977,True,10,1,1,2
Y2-S2-055K22,3,261,PS,exp,48,↓,down,↓,0.5984370999794919,True,9,1,0,2
Y2-S2-055K22,3,262,PS,exp,28,↑,up,↑,0.5685705000068992,True,9,1,0,2
Y2-S2-055K22,3,263,PS,exp,37,↓,down,↓,0.5569118999992497,True,9,1,0,2
Y2-S2-055K22,3,264,PS,exp,35,←,left,←,0.6295938000257593,True,8,1,0,2
Y2-S2-055K22,3,265,PS,exp,38,↓,down,↓,0.5792896999919321,True,8,1,0,2
Y2-S2-055K22,3,266,PS,exp,48,↑,down,↓,0.7801944999955595,False,8,-1,1,3
Y2-S2-055K22,3,267,PS,exp,35,→,right,→,0.5853062000242062,True,9,-1,0,3
Y2-S2-055K22,3,268,PS,exp,44,←,left,←,0.9176977999741212,True,9,-1,0,3
Y2-S2-055K22,3,269,PS,exp,42,→,right,→,0.5763188000128139,True,9,1,1,4
Y2-S2-055K22,3,270,PS,exp,40,↑,up,↑,0.6040604999870993,True,8,1,0,4
Y2-S2-055K22,3,271,PS,exp,36,←,left,←,0.550377599982312,True,8,1,0,4
Y2-S2-055K22,3,272,PS,exp,50,→,left,←,0.6957109999784734,False,8,-1,1,5
Y2-S2-055K22,3,273,PS,exp,26,←,right,→,0.6267053000046872,False,9,-1,0,5
Y2-S2-055K22,3,274,PS,exp,27,↑,up,↑,0.47996149997925386,True,10,-1,0,5
Y2-S2-055K22,3,275,PS,exp,43,↓,down,↓,0.5846171999874059,True,10,-1,0,5
Y2-S2-055K22,3,276,PS,exp,33,↑,up,↑,0.5541714999999385,True,10,1,1,6
Y2-S2-055K22,3,277,PS,exp,49,←,left,←,0.5092142000212334,True,9,1,0,6
Y2-S2-055K22,3,278,PS,exp,27,↑,up,↑,0.5248092999972869,True,9,1,0,6
Y2-S2-055K22,3,279,PS,exp,36,←,left,←,0.5124203999876045,True,9,1,0,6
Y2-S2-055K22,3,280,PS,exp,49,↑,left,←,0.7808265000057872,False,8,-1,1,7
Y2-S2-055K22,3,281,PS,exp,36,→,right,→,0.7691477999906056,True,9,-1,0,7
Y2-S2-055K22,3,282,PS,exp,47,↓,down,↓,0.7052732000011019,True,9,-1,0,7
Y2-S2-055K22,3,283,PS,exp,39,←,left,←,0.47652940000989474,True,9,1,1,8
Y2-S2-055K22,3,284,PS,exp,38,↑,left,←,0.5952073000080418,False,8,-1,1,9
Y2-S2-055K22,3,285,PS,exp,40,←,left,←,0.46417920000385493,True,9,-1,0,9
Y2-S2-055K22,3,286,PS,exp,45,↓,down,↓,0.5935829000081867,True,9,-1,0,9
Y2-S2-055K22,3,287,PS,exp,30,↑,up,↑,0.560897900024429,True,9,1,1,10
Y2-S2-055K22,3,288,PS,exp,44,↓,down,↓,0.5701676000026055,True,8,1,0,10
Y2-S2-055K22,3,289,PS,exp,37,→,left,←,0.6348526000219863,False,8,-1,1,11
Y2-S2-055K22,3,290,PS,exp,38,↓,down,↓,0.7901792000047863,True,9,-1,0,11
Y2-S2-055K22,3,291,PS,exp,32,↑,up,↑,0.4688016999862157,True,9,-1,0,11
Y2-S2-055K22,3,292,PS,exp,25,→,right,→,0.7717171999975108,True,9,1,1,12
Y2-S2-055K22,3,293,PS,exp,30,↑,up,↑,0.719601299992064,True,8,1,0,12
Y2-S2-055K22,3,294,PS,exp,44,→,right,→,0.531655500002671,True,8,1,0,12
Y2-S2-055K22,3,295,PS,exp,38,←,left,←,0.7293076000059955,True,8,1,0,12
Y2-S2-055K22,3,296,PS,exp,40,↓,left,←,0.7635208000137936,False,7,-1,1,13
Y2-S2-055K22,3,297,PS,exp,50,←,right,→,0.6583724000083748,False,8,-1,0,13
Y2-S2-055K22,3,298,PS,exp,45,↓,left,←,0.9336972000019159,False,9,-1,0,13
Y2-S2-055K22,3,299,PS,exp,46,→,right,→,0.49825029997737147,True,10,-1,0,13
Y2-S2-055K22,3,300,PS,exp,43,↓,left,←,0.5666693999955896,False,10,-1,0,13
Y2-S2-055K22,3,301,PS,exp,45,↑,up,↑,0.6990766999952029,True,11,-1,0,13
Y2-S2-055K22,3,302,PS,exp,26,←,left,←,0.7831764000002295,True,11,-1,0,13
Y2-S2-055K22,3,303,PS,exp,42,↑,down,↓,0.7296612999925856,False,11,-1,0,13
Y2-S2-055K22,3,304,PS,exp,35,↓,down,↓,0.8094050000072457,True,12,-1,0,13
Y2-S2-055K22,3,305,PS,exp,44,↑,up,↑,0.737136100011412,True,12,-1,0,13
Y2-S2-055K22,3,306,PS,exp,25,→,left,←,1.1220776000118349,False,12,-1,0,13
Y2-S2-055K22,3,307,PS,exp,42,↓,down,↓,0.5725628999934997,True,13,-1,0,13
Y2-S2-055K22,3,308,PS,exp,46,←,left,←,0.46037450002040714,True,13,-1,0,13
Y2-S2-055K22,3,309,PS,exp,45,→,right,→,0.634929199994076,True,13,1,1,14
Y2-S2-055K22,3,310,PS,exp,40,↓,down,↓,0.6640087999985553,True,12,1,0,14
Y2-S2-055K22,3,311,PS,exp,39,→,right,→,0.5487749000021722,True,12,1,0,14
Y2-S2-055K22,3,312,PS,exp,50,↓,down,↓,0.6178924999840092,True,12,1,0,14
Y2-S2-055K22,3,313,PS,exp,25,→,right,→,0.5082377000071574,True,11,1,0,14
Y2-S2-055K22,3,314,PS,exp,44,←,left,←,0.48704179999185726,True,11,1,0,14
Y2-S2-055K22,3,315,PS,exp,37,↑,up,↑,0.47049850001349114,True,11,1,0,14
Y2-S2-055K22,3,316,PS,exp,29,↓,down,↓,0.6581577999750152,True,10,1,0,14
Y2-S2-055K22,3,317,PS,exp,32,↑,up,↑,0.5406068000011146,True,10,1,0,14
Y2-S2-055K22,3,318,PS,exp,44,→,right,→,0.4700707000156399,True,10,1,0,14
Y2-S2-055K22,3,319,PS,exp,34,←,right,→,0.54495089998818,False,9,-1,1,15
Y2-S2-055K22,3,320,PS,exp,34,→,right,→,0.49183199999970384,True,10,-1,0,15
Y2-S2-055K22,3,321,PS,exp,27,↑,down,↓,0.7882943000004161,False,10,-1,0,15
Y2-S2-055K22,3,322,PS,exp,33,↓,down,↓,0.6304483999847434,True,11,-1,0,15
Y2-S2-055K22,3,323,PS,exp,50,←,left,←,0.5123824999900535,True,11,-1,0,15
Y2-S2-055K22,3,324,PS,exp,29,→,right,→,0.5404297999921255,True,11,1,1,16
Y2-S2-055K22,4,325,AS,intra_train,28,↑,up,↑,0.5717215999902692,True,22,-,-,-
Y2-S2-055K22,4,326,AS,intra_train,26,←,left,←,0.5445017000020016,True,22,-,-,-
Y2-S2-055K22,4,327,AS,intra_train,47,↓,down,↓,0.6684508999751415,True,22,-,-,-
Y2-S2-055K22,4,328,AS,intra_train,26,↑,up,↑,0.5664170999953058,True,22,-,-,-
Y2-S2-055K22,4,329,AS,intra_train,36,←,left,←,0.5367279000056442,True,22,-,-,-
Y2-S2-055K22,4,330,AS,exp,31,↑,up,↑,1.0115739000029862,True,15,0,0,0
Y2-S2-055K22,4,331,AS,exp,47,←,left,←,0.49967390001984313,True,15,0,0,0
Y2-S2-055K22,4,332,AS,exp,45,↑,up,↑,0.4678591000265442,True,15,1,0,0
Y2-S2-055K22,4,333,AS,exp,42,→,left,←,0.6168371999810915,False,14,-1,1,1
Y2-S2-055K22,4,334,AS,exp,34,↑,up,↑,0.7165494000073522,True,15,-1,0,1
Y2-S2-055K22,4,335,AS,exp,32,→,up,↑,0.5508800999959931,False,15,-1,0,1
Y2-S2-055K22,4,336,AS,exp,41,↑,up,↑,0.5494064999802504,True,16,-1,0,1
Y2-S2-055K22,4,337,AS,exp,34,→,right,→,0.6777755999937654,True,16,-1,0,1
Y2-S2-055K22,4,338,AS,exp,38,↑,up,↑,0.5574945000116713,True,16,1,1,2
Y2-S2-055K22,4,339,AS,exp,37,←,left,←,0.5312096000125166,True,15,1,0,2
Y2-S2-055K22,4,340,AS,exp,29,↓,down,↓,0.7000576999853365,True,15,1,0,2
Y2-S2-055K22,4,341,AS,exp,40,↑,up,↑,0.5215397999854758,True,15,1,0,2
Y2-S2-055K22,4,342,AS,exp,35,→,right,→,0.6415792000188958,True,14,1,0,2
Y2-S2-055K22,4,343,AS,exp,46,↑,up,↑,0.5833016000105999,True,14,1,0,2
Y2-S2-055K22,4,344,AS,exp,25,↓,down,↓,0.6640380000171717,True,14,1,0,2
Y2-S2-055K22,4,345,AS,exp,29,↑,up,↑,0.6933873000089079,True,13,1,0,2
Y2-S2-055K22,4,346,AS,exp,42,←,left,←,0.5225881999940611,True,13,1,0,2
Y2-S2-055K22,4,347,AS,exp,36,↑,up,↑,0.6331086999853142,True,13,1,0,2
Y2-S2-055K22,4,348,AS,exp,42,→,up,↑,0.5764560999814421,False,12,-1,1,3
Y2-S2-055K22,4,349,AS,exp,44,↓,down,↓,0.5967728999967221,True,13,-1,0,3
Y2-S2-055K22,4,350,AS,exp,47,↑,down,↓,0.6405354000162333,False,13,-1,0,3
Y2-S2-055K22,4,351,AS,exp,38,↓,down,↓,0.6457644999900367,True,14,-1,0,3
Y2-S2-055K22,4,352,AS,exp,37,←,left,←,0.5607617999776267,True,14,-1,0,3
Y2-S2-055K22,4,353,AS,exp,41,→,right,→,0.6238623000099324,True,14,1,1,4
Y2-S2-055K22,4,354,AS,exp,45,↑,down,↓,0.6292519000126049,False,13,-1,1,5
Y2-S2-055K22,4,355,AS,exp,32,→,right,→,0.6346279999997932,True,14,-1,0,5
Y2-S2-055K22,4,356,AS,exp,31,←,left,←,0.5127718999865465,True,14,-1,0,5
Y2-S2-055K22,4,357,AS,exp,38,→,right,→,0.4927070999983698,True,14,1,1,6
Y2-S2-055K22,4,358,AS,exp,44,←,left,←,0.5315468999906443,True,13,1,0,6
Y2-S2-055K22,4,359,AS,exp,26,→,left,←,0.5606384000275284,False,13,-1,1,7
Y2-S2-055K22,4,360,AS,exp,25,←,left,←,0.5937853000068571,True,14,-1,0,7
Y2-S2-055K22,4,361,AS,exp,33,→,right,→,0.6752287999843247,True,14,-1,0,7
Y2-S2-055K22,4,362,AS,exp,35,↑,left,←,0.862724700011313,False,14,-1,0,7
Y2-S2-055K22,4,363,AS,exp,33,←,left,←,0.5386633000161964,True,15,-1,0,7
Y2-S2-055K22,4,364,AS,exp,39,↓,down,↓,0.6138438000052702,True,15,-1,0,7
Y2-S2-055K22,4,365,AS,exp,46,←,left,←,0.5395624000229873,True,15,1,1,8
Y2-S2-055K22,4,366,AS,exp,42,→,right,→,0.5872069000033662,True,14,1,0,8
Y2-S2-055K22,4,367,AS,exp,31,←,left,←,0.4294491999899037,True,14,1,0,8
Y2-S2-055K22,4,368,AS,exp,47,↑,up,↑,0.507132200000342,True,14,1,0,8
Y2-S2-055K22,4,369,AS,exp,28,←,left,←,0.528972000000067,True,13,1,0,8
Y2-S2-055K22,4,370,AS,exp,44,↓,down,↓,0.6428880000021309,True,13,1,0,8
Y2-S2-055K22,4,371,AS,exp,50,←,left,←,0.48718759999610484,True,13,1,0,8
Y2-S2-055K22,4,372,AS,exp,32,→,right,→,0.5835019999940414,True,12,1,0,8
Y2-S2-055K22,4,373,AS,exp,46,←,left,←,0.4927437999867834,True,12,1,0,8
Y2-S2-055K22,4,374,AS,exp,32,↑,down,↓,0.64085569998133,False,12,-1,1,9
Y2-S2-055K22,4,375,AS,exp,29,↓,down,↓,0.5404154999996535,True,13,-1,0,9
Y2-S2-055K22,4,376,AS,exp,47,←,right,→,0.6862825000134762,False,13,-1,0,9
Y2-S2-055K22,4,377,AS,exp,30,→,up,↑,0.7318307000095956,False,14,-1,0,9
Y2-S2-055K22,4,378,AS,exp,37,↑,up,↑,0.632234899996547,True,15,-1,0,9
Y2-S2-055K22,4,379,AS,exp,25,→,right,→,0.5728395000041928,True,15,-1,0,9
Y2-S2-055K22,4,380,AS,exp,44,←,left,←,0.6382379000133369,True,15,1,1,10
Y2-S2-055K22,4,381,AS,exp,35,↓,down,↓,0.6158301000250503,True,14,1,0,10
Y2-S2-055K22,4,382,AS,exp,49,↑,up,↑,0.5690034000144806,True,14,1,0,10
Y2-S2-055K22,4,383,AS,exp,42,←,left,←,0.5259979999973439,True,14,1,0,10
Y2-S2-055K22,4,384,AS,exp,28,→,left,←,0.6255744000081904,False,13,-1,1,11
Y2-S2-055K22,4,385,AS,exp,47,↑,up,↑,0.8606984000070952,True,14,-1,0,11
Y2-S2-055K22,4,386,AS,exp,33,→,up,↑,0.807146900013322,False,14,-1,0,11
Y2-S2-055K22,4,387,AS,exp,25,↑,up,↑,0.5823549999913666,True,15,-1,0,11
Y2-S2-055K22,4,388,AS,exp,48,←,left,←,0.51394109998364,True,15,-1,0,11
Y2-S2-055K22,4,389,AS,exp,34,→,right,→,0.617254699987825,True,15,1,1,12
Y2-S2-055K22,4,390,AS,exp,34,↑,up,↑,0.5505501000152435,True,14,1,0,12
Y2-S2-055K22,4,391,AS,exp,41,→,left,←,0.4679329000064172,False,14,-1,1,13
Y2-S2-055K22,4,392,AS,exp,49,↓,left,←,0.6990767999959644,False,15,-1,0,13
Y2-S2-055K22,4,393,AS,exp,33,↑,up,↑,0.49660040001617745,True,16,-1,0,13
Y2-S2-055K22,4,394,AS,exp,38,→,right,→,0.6204904000042006,True,16,-1,0,13
Y2-S2-055K22,4,395,AS,exp,34,↓,down,↓,0.7376975000079256,True,16,1,1,14
Y2-S2-055K22,4,396,AS,exp,33,→,right,→,0.5804101999965496,True,15,1,0,14
Y2-S2-055K22,4,397,AS,exp,47,↑,up,↑,0.5110674999887124,True,15,1,0,14
Y2-S2-055K22,4,398,AS,exp,31,→,right,→,0.674983400007477,True,15,1,0,14
Y2-S2-055K22,4,399,AS,exp,28,←,left,←,0.6609365999756847,True,14,1,0,14
Y2-S2-055K22,4,400,AS,exp,27,↑,right,→,0.7356300999817904,False,14,-1,1,15
Y2-S2-055K22,4,401,AS,exp,27,→,right,→,0.573612799984403,True,15,-1,0,15
Y2-S2-055K22,4,402,AS,exp,31,↓,down,↓,0.7209750000038184,True,15,-1,0,15
Y2-S2-055K22,4,403,AS,exp,37,→,right,→,0.5621282999927644,True,15,1,1,16
Y2-S2-055K22,5,404,AS,intra_train,33,↓,down,↓,0.6373493999999482,True,22,-,-,-
Y2-S2-055K22,5,405,AS,intra_train,33,↑,up,↑,0.6174522000073921,True,22,-,-,-
Y2-S2-055K22,5,406,AS,intra_train,47,←,left,←,0.4338532999972813,True,22,-,-,-
Y2-S2-055K22,5,407,AS,intra_train,30,↑,up,↑,0.4838683999842033,True,22,-,-,-
Y2-S2-055K22,5,408,AS,intra_train,33,↓,up,↑,0.4836397999897599,False,22,-,-,-
Y2-S2-055K22,5,409,AS,exp,31,→,right,→,0.7596504999964964,True,15,0,0,0
Y2-S2-055K22,5,410,AS,exp,33,↓,down,↓,0.6802632999897469,True,15,0,0,0
Y2-S2-055K22,5,411,AS,exp,48,→,right,→,0.591903699998511,True,15,1,0,0
Y2-S2-055K22,5,412,AS,exp,36,↓,down,↓,0.5821743999840692,True,14,1,0,0
Y2-S2-055K22,5,413,AS,exp,46,←,left,←,0.6914906000019982,True,14,1,0,0
Y2-S2-055K22,5,414,AS,exp,40,↓,down,↓,0.6459687000024132,True,14,1,0,0
Y2-S2-055K22,5,415,AS,exp,44,→,right,→,0.5795164000010118,True,13,1,0,0
Y2-S2-055K22,5,416,AS,exp,49,↑,down,↓,0.7750124000012875,False,13,-1,1,1
Y2-S2-055K22,5,417,AS,exp,30,→,right,→,0.5333761999791022,True,14,-1,0,1
Y2-S2-055K22,5,418,AS,exp,29,↓,down,↓,1.3568143000011332,True,14,-1,0,1
Y2-S2-055K22,5,419,AS,exp,25,←,left,←,0.5855401000007987,True,14,1,1,2
Y2-S2-055K22,5,420,AS,exp,41,→,right,→,0.5407468999910634,True,13,1,0,2
Y2-S2-055K22,5,421,AS,exp,32,↓,down,↓,0.5977270000148565,True,13,1,0,2
Y2-S2-055K22,5,422,AS,exp,47,↑,up,↑,0.63994689998799,True,13,1,0,2
Y2-S2-055K22,5,423,AS,exp,47,←,left,←,0.5947898000013083,True,12,1,0,2
Y2-S2-055K22,5,424,AS,exp,40,↓,down,↓,0.5728960999986157,True,12,1,0,2
Y2-S2-055K22,5,425,AS,exp,38,→,right,→,0.5276756999955978,True,12,1,0,2
Y2-S2-055K22,5,426,AS,exp,27,↑,up,↑,0.5398781999829225,True,11,1,0,2
Y2-S2-055K22,5,427,AS,exp,42,←,left,←,0.6260199999960605,True,11,1,0,2
Y2-S2-055K22,5,428,AS,exp,49,↑,down,↓,0.639299900009064,False,11,-1,1,3
Y2-S2-055K22,5,429,AS,exp,47,↓,down,↓,0.5774448000011034,True,12,-1,0,3
Y2-S2-055K22,5,430,AS,exp,28,↑,up,↑,0.7282945999759249,True,12,-1,0,3
Y2-S2-055K22,5,431,AS,exp,49,→,right,→,0.5253433999896515,True,12,1,1,4
Y2-S2-055K22,5,432,AS,exp,38,↑,right,→,0.6518843999947421,False,11,-1,1,5
Y2-S2-055K22,5,433,AS,exp,36,→,right,→,0.6211706999747548,True,12,-1,0,5
Y2-S2-055K22,5,434,AS,exp,27,↓,down,↓,0.6598924999998417,True,12,-1,0,5
Y2-S2-055K22,5,435,AS,exp,44,←,left,←,0.6763379000185523,True,12,1,1,6
Y2-S2-055K22,5,436,AS,exp,33,↑,up,↑,0.5132534999866039,True,11,1,0,6
Y2-S2-055K22,5,437,AS,exp,28,↓,down,↓,0.6721910999913234,True,11,1,0,6
Y2-S2-055K22,5,438,AS,exp,44,↑,down,↓,0.584846900019329,False,11,-1,1,7
Y2-S2-055K22,5,439,AS,exp,43,↓,down,↓,0.6500689999957103,True,12,-1,0,7
Y2-S2-055K22,5,440,AS,exp,50,↑,up,↑,0.8255010000139009,True,12,-1,0,7
Y2-S2-055K22,5,441,AS,exp,30,↓,up,↑,0.5686737000069115,False,12,-1,0,7
Y2-S2-055K22,5,442,AS,exp,45,→,right,→,0.4950181000167504,True,13,-1,0,7
Y2-S2-055K22,5,443,AS,exp,42,←,left,←,0.6632187999784946,True,13,-1,0,7
Y2-S2-055K22,5,444,AS,exp,37,↑,up,↑,0.5479919000063092,True,13,1,1,8
Y2-S2-055K22,5,445,AS,exp,36,↓,up,↑,0.5603818999952637,False,12,-1,1,9
Y2-S2-055K22,5,446,AS,exp,48,→,right,→,0.5413774999906309,True,13,-1,0,9
Y2-S2-055K22,5,447,AS,exp,29,↓,down,↓,0.6433165000053123,True,13,-1,0,9
Y2-S2-055K22,5,448,AS,exp,47,→,left,←,0.7411787000019103,False,13,-1,0,9
Y2-S2-055K22,5,449,AS,exp,49,↑,left,←,0.5823882000113372,False,14,-1,0,9
Y2-S2-055K22,5,450,AS,exp,48,←,left,←,0.5844100000103936,True,15,-1,0,9
Y2-S2-055K22,5,451,AS,exp,48,↑,up,↑,0.5011117999965791,True,15,-1,0,9
Y2-S2-055K22,5,452,AS,exp,26,→,right,→,0.5390990000159945,True,15,1,1,10
Y2-S2-055K22,5,453,AS,exp,31,↓,up,↑,0.5399683000287041,False,14,-1,1,11
Y2-S2-055K22,5,454,AS,exp,47,↑,up,↑,0.47456839997903444,True,15,-1,0,11
Y2-S2-055K22,5,455,AS,exp,37,→,right,→,0.5317302999901585,True,15,-1,0,11
Y2-S2-055K22,5,456,AS,exp,43,↓,no_key,no_letter,-1.0,False,15,-1,0,11
Y2-S2-055K22,5,457,AS,exp,34,↑,up,↑,0.5253987000032794,True,16,-1,0,11
Y2-S2-055K22,5,458,AS,exp,49,←,left,←,0.5982331000268459,True,16,-1,0,11
Y2-S2-055K22,5,459,AS,exp,25,→,left,←,0.8910236000083387,False,16,-1,0,11
Y2-S2-055K22,5,460,AS,exp,44,←,right,→,0.6410504000086803,False,17,-1,0,11
Y2-S2-055K22,5,461,AS,exp,48,→,right,→,0.6031668999930844,True,18,-1,0,11
Y2-S2-055K22,5,462,AS,exp,27,↓,right,→,1.0229839999810793,False,18,-1,0,11
Y2-S2-055K22,5,463,AS,exp,35,←,left,←,0.6228531999804545,True,19,-1,0,11
Y2-S2-055K22,5,464,AS,exp,43,↓,right,→,0.8228233999980148,False,19,-1,0,11
Y2-S2-055K22,5,465,AS,exp,36,→,right,→,0.5657481999951415,True,20,-1,0,11
Y2-S2-055K22,5,466,AS,exp,46,←,left,←,0.6012440999911632,True,20,-1,0,11
Y2-S2-055K22,5,467,AS,exp,39,↑,up,↑,0.5783677999861538,True,20,1,1,12
Y2-S2-055K22,5,468,AS,exp,27,→,right,→,0.5819840999902226,True,19,1,0,12
Y2-S2-055K22,5,469,AS,exp,29,↑,up,↑,0.556573700014269,True,19,1,0,12
Y2-S2-055K22,5,470,AS,exp,30,→,right,→,0.586066900024889,True,19,1,0,12
Y2-S2-055K22,5,471,AS,exp,26,↑,up,↑,0.5217088999925181,True,18,1,0,12
Y2-S2-055K22,5,472,AS,exp,28,↓,down,↓,0.8238536999851931,True,18,1,0,12
Y2-S2-055K22,5,473,AS,exp,28,←,left,←,0.6347324999806006,True,18,1,0,12
Y2-S2-055K22,5,474,AS,exp,32,↓,down,↓,0.6174583999963943,True,17,1,0,12
Y2-S2-055K22,5,475,AS,exp,50,←,left,←,0.573504400003003,True,17,1,0,12
Y2-S2-055K22,5,476,AS,exp,33,→,up,↑,0.9823287000181153,False,17,-1,1,13
Y2-S2-055K22,5,477,AS,exp,29,↑,up,↑,0.5391423999972176,True,18,-1,0,13
Y2-S2-055K22,5,478,AS,exp,44,→,left,←,0.7122149000060745,False,18,-1,0,13
Y2-S2-055K22,5,479,AS,exp,42,↓,down,↓,0.699430200009374,True,19,-1,0,13
Y2-S2-055K22,5,480,AS,exp,44,↑,up,↑,0.5246666999883018,True,19,-1,0,13
Y2-S2-055K22,5,481,AS,exp,36,↓,down,↓,0.7353293999913149,True,19,1,1,14
Y2-S2-055K22,5,482,AS,exp,50,↑,up,↑,0.6228116000129376,True,18,1,0,14
Y2-S2-055K22,5,483,AS,exp,35,←,left,←,0.7473211000033189,True,18,1,0,14
Y2-S2-055K22,5,484,AS,exp,42,↑,up,↑,0.6124053000239655,True,18,1,0,14
Y2-S2-055K22,5,485,AS,exp,44,→,right,→,0.615250200004084,True,17,1,0,14
Y2-S2-055K22,5,486,AS,exp,45,↑,left,←,0.8456316999800038,False,17,-1,1,15
Y2-S2-055K22,5,487,AS,exp,44,→,right,→,0.6594551999878604,True,18,-1,0,15
Y2-S2-055K22,5,488,AS,exp,48,↑,up,↑,0.5675550999876577,True,18,-1,0,15
Y2-S2-055K22,5,489,AS,exp,50,↓,down,↓,0.5306880999996793,True,18,1,1,16
Y2-S2-055K22,6,490,PS,intra_train,26,→,right,→,0.6090275999740697,True,18,-,-,-
Y2-S2-055K22,6,491,PS,intra_train,31,←,left,←,0.6450675000087358,True,18,-,-,-
Y2-S2-055K22,6,492,PS,intra_train,40,↓,down,↓,0.7468397000047844,True,18,-,-,-
Y2-S2-055K22,6,493,PS,intra_train,45,←,left,←,1.1404417000012472,True,18,-,-,-
Y2-S2-055K22,6,494,PS,intra_train,49,↓,down,↓,0.6266533999878448,True,18,-,-,-
Y2-S2-055K22,6,495,PS,exp,33,→,right,→,0.5829259999736678,True,12,0,0,0
Y2-S2-055K22,6,496,PS,exp,29,↑,up,↑,0.43472369998926297,True,12,0,0,0
Y2-S2-055K22,6,497,PS,exp,28,→,right,→,0.5126109000120778,True,12,1,0,0
Y2-S2-055K22,6,498,PS,exp,30,←,left,←,0.5888504000031389,True,11,1,0,0
Y2-S2-055K22,6,499,PS,exp,41,→,right,→,0.49929079998400994,True,11,1,0,0
Y2-S2-055K22,6,500,PS,exp,36,↓,down,↓,0.6668845000094734,True,11,1,0,0
Y2-S2-055K22,6,501,PS,exp,44,↑,up,↑,0.47313840000424534,True,10,1,0,0
Y2-S2-055K22,6,502,PS,exp,42,↓,down,↓,0.6740502000029664,True,10,1,0,0
Y2-S2-055K22,6,503,PS,exp,37,→,right,→,0.7881768000079319,True,10,1,0,0
Y2-S2-055K22,6,504,PS,exp,48,↓,down,↓,0.6370430999959353,True,9,1,0,0
Y2-S2-055K22,6,505,PS,exp,37,←,left,←,0.6228894000232685,True,9,1,0,0
Y2-S2-055K22,6,506,PS,exp,48,↑,up,↑,0.47700450001866557,True,9,1,0,0
Y2-S2-055K22,6,507,PS,exp,36,←,right,→,0.7218747999868356,False,8,-1,1,1
Y2-S2-055K22,6,508,PS,exp,35,→,right,→,0.5964152000087779,True,9,-1,0,1
Y2-S2-055K22,6,509,PS,exp,25,↓,right,→,0.905380599986529,False,9,-1,0,1
Y2-S2-055K22,6,510,PS,exp,38,←,left,←,0.49281080000218935,True,10,-1,0,1
Y2-S2-055K22,6,511,PS,exp,38,→,right,→,0.4574745999998413,True,10,-1,0,1
Y2-S2-055K22,6,512,PS,exp,42,←,left,←,0.5417521999916062,True,10,1,1,2
Y2-S2-055K22,6,513,PS,exp,29,↓,down,↓,0.6205385999928694,True,9,1,0,2
Y2-S2-055K22,6,514,PS,exp,42,→,right,→,0.44287870000698604,True,9,1,0,2
Y2-S2-055K22,6,515,PS,exp,50,←,left,←,0.5448012000124436,True,9,1,0,2
Y2-S2-055K22,6,516,PS,exp,27,→,right,→,0.4729793000151403,True,8,1,0,2
Y2-S2-055K22,6,517,PS,exp,35,↓,left,←,0.6885671000054572,False,8,-1,1,3
Y2-S2-055K22,6,518,PS,exp,50,←,left,←,0.4739363999979105,True,9,-1,0,3
Y2-S2-055K22,6,519,PS,exp,43,→,right,→,0.5059800999879371,True,9,-1,0,3
Y2-S2-055K22,6,520,PS,exp,40,↓,left,←,0.37816679998650216,False,9,-1,0,3
Y2-S2-055K22,6,521,PS,exp,44,←,left,←,0.4445399999967776,True,10,-1,0,3
Y2-S2-055K22,6,522,PS,exp,32,→,right,→,0.5217171999975108,True,10,-1,0,3
Y2-S2-055K22,6,523,PS,exp,48,↑,up,↑,0.530010599992238,True,10,1,1,4
Y2-S2-055K22,6,524,PS,exp,38,←,left,←,0.41836419998435304,True,9,1,0,4
Y2-S2-055K22,6,525,PS,exp,34,↑,up,↑,0.46943159998045303,True,9,1,0,4
Y2-S2-055K22,6,526,PS,exp,45,→,right,→,0.4937799999897834,True,9,1,0,4
Y2-S2-055K22,6,527,PS,exp,25,↑,left,←,0.5032302000035997,False,8,-1,1,5
Y2-S2-055K22,6,528,PS,exp,42,→,left,←,0.6172318999888375,False,9,-1,0,5
Y2-S2-055K22,6,529,PS,exp,25,↓,up,↑,0.5534709999919869,False,10,-1,0,5
Y2-S2-055K22,6,530,PS,exp,36,↑,up,↑,0.5062823999905959,True,11,-1,0,5
Y2-S2-055K22,6,531,PS,exp,25,←,left,←,0.5323724999907427,True,11,-1,0,5
Y2-S2-055K22,6,532,PS,exp,48,↓,down,↓,0.7177759000041988,True,11,1,1,6
Y2-S2-055K22,6,533,PS,exp,46,←,right,→,0.7423084000183735,False,10,-1,1,7
Y2-S2-055K22,6,534,PS,exp,50,↑,up,↑,0.523004899994703,True,11,-1,0,7
Y2-S2-055K22,6,535,PS,exp,32,↓,down,↓,0.7141817999945488,True,11,-1,0,7
Y2-S2-055K22,6,536,PS,exp,34,←,left,←,0.5874898000038229,True,11,1,1,8
Y2-S2-055K22,6,537,PS,exp,35,↑,up,↑,0.7460161999915726,True,10,1,0,8
Y2-S2-055K22,6,538,PS,exp,45,←,left,←,0.5492015999916475,True,10,1,0,8
Y2-S2-055K22,6,539,PS,exp,32,↑,up,↑,0.6058949000143912,True,10,1,0,8
Y2-S2-055K22,6,540,PS,exp,40,→,right,→,0.5925046000047587,True,9,1,0,8
Y2-S2-055K22,6,541,PS,exp,39,←,left,←,0.4502179999835789,True,9,1,0,8
Y2-S2-055K22,6,542,PS,exp,35,↑,left,←,0.6203043000132311,False,9,-1,1,9
Y2-S2-055K22,6,543,PS,exp,35,→,right,→,0.5921797000046354,True,10,-1,0,9
Y2-S2-055K22,6,544,PS,exp,42,↓,right,→,0.5352475000254344,False,10,-1,0,9
Y2-S2-055K22,6,545,PS,exp,32,→,right,→,0.4622150999784935,True,11,-1,0,9
Y2-S2-055K22,6,546,PS,exp,33,↑,right,→,0.39711270001134835,False,11,-1,0,9
Y2-S2-055K22,6,547,PS,exp,47,←,left,←,0.4602893999835942,True,12,-1,0,9
Y2-S2-055K22,6,548,PS,exp,28,→,right,→,0.6995356000261381,True,12,-1,0,9
Y2-S2-055K22,6,549,PS,exp,27,↓,up,↑,0.621618999983184,False,12,-1,0,9
Y2-S2-055K22,6,550,PS,exp,45,←,left,←,0.502407599997241,True,13,-1,0,9
Y2-S2-055K22,6,551,PS,exp,36,→,left,←,0.44531239999923855,False,13,-1,0,9
Y2-S2-055K22,6,552,PS,exp,30,↑,up,↑,0.5412595999951009,True,14,-1,0,9
Y2-S2-055K22,6,553,PS,exp,47,↓,up,↑,0.8239429999957792,False,14,-1,0,9
Y2-S2-055K22,6,554,PS,exp,42,→,left,←,0.4739681000064593,False,15,-1,0,9
Y2-S2-055K22,6,555,PS,exp,35,↓,down,↓,0.6754135999944992,True,16,-1,0,9
Y2-S2-055K22,6,556,PS,exp,29,↑,up,↑,0.47795649999170564,True,16,-1,0,9
Y2-S2-055K22,6,557,PS,exp,28,←,left,←,0.7328391000046395,True,16,1,1,10
Y2-S2-055K22,6,558,PS,exp,25,↑,up,↑,0.4580872999795247,True,15,1,0,10
Y2-S2-055K22,6,559,PS,exp,41,←,right,→,0.7692265999794472,False,15,-1,1,11
Y2-S2-055K22,6,560,PS,exp,40,↓,down,↓,0.7652458999946248,True,16,-1,0,11
Y2-S2-055K22,6,561,PS,exp,29,↑,up,↑,0.6161392999929376,True,16,-1,0,11
Y2-S2-055K22,6,562,PS,exp,44,→,right,→,0.5168291999725625,True,16,1,1,12
Y2-S2-055K22,6,563,PS,exp,29,↓,down,↓,0.6460141999996267,True,15,1,0,12
Y2-S2-055K22,6,564,PS,exp,42,←,left,←,0.5405650000029709,True,15,1,0,12
Y2-S2-055K22,6,565,PS,exp,33,→,right,→,0.658064999995986,True,15,1,0,12
Y2-S2-055K22,6,566,PS,exp,34,↑,up,↑,0.6300163000123575,True,14,1,0,12
Y2-S2-055K22,6,567,PS,exp,39,↓,down,↓,0.7444758000201546,True,14,1,0,12
Y2-S2-055K22,6,568,PS,exp,39,←,right,→,0.9351665999856777,False,14,-1,1,13
Y2-S2-055K22,6,569,PS,exp,44,↓,left,←,0.8894764000142459,False,15,-1,0,13
Y2-S2-055K22,6,570,PS,exp,25,←,left,←,0.7045529999886639,True,16,-1,0,13
Y2-S2-055K22,6,571,PS,exp,25,→,right,→,0.6813079999992624,True,16,-1,0,13
Y2-S2-055K22,6,572,PS,exp,46,←,left,←,0.5961527999897953,True,16,1,1,14
Y2-S2-055K22,6,573,PS,exp,42,→,right,→,0.5627347999834456,True,15,1,0,14
Y2-S2-055K22,6,574,PS,exp,26,↓,down,↓,0.6773819999943953,True,15,1,0,14
Y2-S2-055K22,6,575,PS,exp,34,↑,up,↑,0.9686229999933857,True,15,1,0,14
Y2-S2-055K22,6,576,PS,exp,26,←,left,←,0.5513315999996848,True,14,1,0,14
Y2-S2-055K22,6,577,PS,exp,47,↓,down,↓,0.6568773999752011,True,14,1,0,14
Y2-S2-055K22,6,578,PS,exp,41,→,right,→,0.8559996999974828,True,14,1,0,14
Y2-S2-055K22,6,579,PS,exp,42,↑,up,↑,0.5572055999946315,True,13,1,0,14
Y2-S2-055K22,6,580,PS,exp,44,→,right,→,0.6148775999899954,True,13,1,0,14
Y2-S2-055K22,6,581,PS,exp,28,↓,left,←,1.3475198000087403,False,13,-1,1,15
Y2-S2-055K22,6,582,PS,exp,39,←,left,←,0.5842212999996264,True,14,-1,0,15
Y2-S2-055K22,6,583,PS,exp,30,↓,right,→,0.7777834000007715,False,14,-1,0,15
Y2-S2-055K22,6,584,PS,exp,27,→,right,→,0.5854861000261735,True,15,-1,0,15
Y2-S2-055K22,6,585,PS,exp,29,↓,down,↓,0.645003200013889,True,15,-1,0,15
Y2-S2-055K22,6,586,PS,exp,28,↑,up,↑,0.5532659000018612,True,15,1,1,16
Y2-S2-055K22,7,587,PS,intra_train,32,↓,down,↓,0.5621833000041079,True,18,-,-,-
Y2-S2-055K22,7,588,PS,intra_train,40,↑,up,↑,0.5521573000005446,True,18,-,-,-
Y2-S2-055K22,7,589,PS,intra_train,25,↓,down,↓,0.5550469000008889,True,18,-,-,-
Y2-S2-055K22,7,590,PS,intra_train,39,←,left,←,0.5616029000084382,True,18,-,-,-
Y2-S2-055K22,7,591,PS,intra_train,41,↑,up,↑,0.48870570000144653,True,18,-,-,-
Y2-S2-055K22,7,592,PS,exp,37,→,right,→,0.43008990000816993,True,12,0,0,0
Y2-S2-055K22,7,593,PS,exp,27,↑,up,↑,0.47920149998390116,True,12,0,0,0
Y2-S2-055K22,7,594,PS,exp,49,←,right,→,0.6052070999867283,False,12,-1,0,0
Y2-S2-055K22,7,595,PS,exp,45,↑,up,↑,0.5300326000142377,True,13,-1,0,0
Y2-S2-055K22,7,596,PS,exp,42,→,right,→,0.5416895000089426,True,13,-1,0,0
Y2-S2-055K22,7,597,PS,exp,46,↓,up,↑,0.7379235000116751,False,13,-1,0,0
Y2-S2-055K22,7,598,PS,exp,34,→,right,→,0.5692815999791492,True,14,-1,0,0
Y2-S2-055K22,7,599,PS,exp,37,↑,up,↑,0.5988902999961283,True,14,-1,0,0
Y2-S2-055K22,7,600,PS,exp,37,→,right,→,0.6951423000136856,True,14,1,1,1
Y2-S2-055K22,7,601,PS,exp,30,↑,up,↑,0.4628056999936234,True,13,1,0,1
Y2-S2-055K22,7,602,PS,exp,47,→,right,→,0.48708270001225173,True,13,1,0,1
Y2-S2-055K22,7,603,PS,exp,29,←,left,←,0.5733580999949481,True,13,1,0,1
Y2-S2-055K22,7,604,PS,exp,30,→,left,←,0.569145200017374,False,12,-1,1,2
Y2-S2-055K22,7,605,PS,exp,26,↑,up,↑,0.6088999999919906,True,13,-1,0,2
Y2-S2-055K22,7,606,PS,exp,31,←,right,→,0.5291978000022937,False,13,-1,0,2
Y2-S2-055K22,7,607,PS,exp,33,↑,up,↑,0.5086774000083096,True,14,-1,0,2
Y2-S2-055K22,7,608,PS,exp,44,→,left,←,0.7076686999935191,False,14,-1,0,2
Y2-S2-055K22,7,609,PS,exp,37,↑,up,↑,0.565207100007683,True,15,-1,0,2
Y2-S2-055K22,7,610,PS,exp,26,↓,down,↓,0.73552909999853,True,15,-1,0,2
Y2-S2-055K22,7,611,PS,exp,36,←,left,←,0.5790252000151668,True,15,1,1,3
Y2-S2-055K22,7,612,PS,exp,38,↓,down,↓,0.569529699976556,True,14,1,0,3
Y2-S2-055K22,7,613,PS,exp,48,↑,up,↑,0.7353713000193238,True,14,1,0,3
Y2-S2-055K22,7,614,PS,exp,40,←,left,←,0.5503201999817975,True,14,1,0,3
Y2-S2-055K22,7,615,PS,exp,47,↓,left,←,0.8312711000035051,False,13,-1,1,4
Y2-S2-055K22,7,616,PS,exp,30,→,right,→,0.7807594999903813,True,14,-1,0,4
Y2-S2-055K22,7,617,PS,exp,32,←,left,←,1.78784760000417,True,14,-1,0,4
Y2-S2-055K22,7,618,PS,exp,44,↑,up,↑,0.5934082999883685,True,14,1,1,5
Y2-S2-055K22,7,619,PS,exp,27,↓,down,↓,0.8056052000029013,True,13,1,0,5
Y2-S2-055K22,7,620,PS,exp,38,↑,up,↑,0.42651789999217726,True,13,1,0,5
Y2-S2-055K22,7,621,PS,exp,32,→,right,→,0.5361608999955934,True,13,1,0,5
Y2-S2-055K22,7,622,PS,exp,26,↓,down,↓,0.6955293999926653,True,12,1,0,5
Y2-S2-055K22,7,623,PS,exp,32,→,right,→,0.47787430000607856,True,12,1,0,5
Y2-S2-055K22,7,624,PS,exp,29,↑,up,↑,0.5015952000103425,True,12,1,0,5
Y2-S2-055K22,7,625,PS,exp,28,→,right,→,0.5924614999967162,True,11,1,0,5
Y2-S2-055K22,7,626,PS,exp,47,↓,down,↓,0.5577947000274435,True,11,1,0,5
Y2-S2-055K22,7,627,PS,exp,39,←,left,←,0.5817567999765743,True,11,1,0,5
Y2-S2-055K22,7,628,PS,exp,43,↓,down,↓,0.5875798999913968,True,10,1,0,5
Y2-S2-055K22,7,629,PS,exp,30,→,right,→,0.5141101999906823,True,10,1,0,5
Y2-S2-055K22,7,630,PS,exp,38,←,right,→,0.7354899999918416,False,10,-1,1,6
Y2-S2-055K22,7,631,PS,exp,33,↑,down,↓,1.1877947999746539,False,11,-1,0,6
Y2-S2-055K22,7,632,PS,exp,45,→,right,→,0.5079761999950279,True,12,-1,0,6
Y2-S2-055K22,7,633,PS,exp,35,↑,up,↑,0.4668128000048455,True,12,-1,0,6
Y2-S2-055K22,7,634,PS,exp,25,↓,down,↓,0.6778732000093441,True,12,1,1,7
Y2-S2-055K22,7,635,PS,exp,34,→,right,→,0.6194292999862228,True,11,1,0,7
Y2-S2-055K22,7,636,PS,exp,39,↓,up,↑,1.8175568000006024,False,11,-1,1,8
Y2-S2-055K22,7,637,PS,exp,30,↑,up,↑,0.48724449999281205,True,12,-1,0,8
Y2-S2-055K22,7,638,PS,exp,41,←,left,←,0.5545439000125043,True,12,-1,0,8
Y2-S2-055K22,7,639,PS,exp,37,↓,down,↓,0.6858065999986138,True,12,1,1,9
Y2-S2-055K22,7,640,PS,exp,47,→,right,→,0.565661500004353,True,11,1,0,9
Y2-S2-055K22,7,641,PS,exp,45,↑,up,↑,0.5101836000103503,True,11,1,0,9
Y2-S2-055K22,7,642,PS,exp,31,←,left,←,0.485923800006276,True,11,1,0,9
Y2-S2-055K22,7,643,PS,exp,27,↓,down,↓,0.7129863000009209,True,10,1,0,9
Y2-S2-055K22,7,644,PS,exp,46,↑,up,↑,0.7321357000037096,True,10,1,0,9
Y2-S2-055K22,7,645,PS,exp,27,←,left,←,0.5951277999847662,True,10,1,0,9
Y2-S2-055K22,7,646,PS,exp,46,↓,left,←,0.5025949999981094,False,9,-1,1,10
Y2-S2-055K22,7,647,PS,exp,44,←,right,→,0.8564183000125922,False,10,-1,0,10
Y2-S2-055K22,7,648,PS,exp,28,↓,down,↓,0.6387501999852248,True,11,-1,0,10
Y2-S2-055K22,7,649,PS,exp,33,↑,left,←,0.720998899982078,False,11,-1,0,10
Y2-S2-055K22,7,650,PS,exp,26,↓,down,↓,0.6972596000123303,True,12,-1,0,10
Y2-S2-055K22,7,651,PS,exp,44,←,left,←,0.6547602000064217,True,12,-1,0,10
Y2-S2-055K22,7,652,PS,exp,28,↓,right,→,1.3533262000128161,False,12,-1,0,10
Y2-S2-055K22,7,653,PS,exp,48,↑,left,←,0.9963125000067521,False,13,-1,0,10
Y2-S2-055K22,7,654,PS,exp,38,←,left,←,0.6837345999956597,True,14,-1,0,10
Y2-S2-055K22,7,655,PS,exp,31,→,right,→,0.49967580000520684,True,14,-1,0,10
Y2-S2-055K22,7,656,PS,exp,32,↑,up,↑,0.6530113999906462,True,14,1,1,11
Y2-S2-055K22,7,657,PS,exp,38,←,left,←,0.4330067999835592,True,13,1,0,11
Y2-S2-055K22,7,658,PS,exp,35,↑,left,←,0.9278842999774497,False,13,-1,1,12
Y2-S2-055K22,7,659,PS,exp,46,↓,down,↓,0.7898305999988224,True,14,-1,0,12
Y2-S2-055K22,7,660,PS,exp,47,→,right,→,0.509856899996521,True,14,-1,0,12
Y2-S2-055K22,7,661,PS,exp,39,↑,up,↑,0.6560464999929536,True,14,1,1,13
Y2-S2-055K22,7,662,PS,exp,36,↓,down,↓,0.6438325000053737,True,13,1,0,13
Y2-S2-055K22,7,663,PS,exp,31,←,left,←,1.00266119997832,True,13,1,0,13
Y2-S2-055K22,7,664,PS,exp,47,↑,up,↑,1.5960732999956235,True,13,1,0,13
Y2-S2-055K22,7,665,PS,exp,29,→,right,→,0.5158765999949537,True,12,1,0,13
Y2-S2-055K22,7,666,PS,exp,25,↑,up,↑,0.46867390000261366,True,12,1,0,13
Y2-S2-055K22,7,667,PS,exp,45,←,left,←,0.46966500001144595,True,12,1,0,13
Y2-S2-055K22,7,668,PS,exp,36,↓,down,↓,0.6590528999804519,True,11,1,0,13
Y2-S2-055K22,7,669,PS,exp,40,→,left,←,0.5680671000154689,False,11,-1,1,14
Y2-S2-055K22,7,670,PS,exp,33,↑,right,→,0.8061967999965418,False,12,-1,0,14
Y2-S2-055K22,7,671,PS,exp,26,→,right,→,0.5566403999982867,True,13,-1,0,14
Y2-S2-055K22,7,672,PS,exp,34,↑,up,↑,0.48208239997620694,True,13,-1,0,14
Y2-S2-055K22,7,673,PS,exp,31,↓,down,↓,0.5300052000093274,True,13,1,1,15
Y2-S2-055K22,7,674,PS,exp,38,→,right,→,0.43840840001939796,True,12,1,0,15
Y2-S2-055K22,7,675,PS,exp,37,←,left,←,0.4904203000187408,True,12,1,0,15
Y2-S2-055K22,7,676,PS,exp,32,↑,up,↑,0.4414297000039369,True,12,1,0,15
Y2-S2-055K22,7,677,PS,exp,32,←,left,←,0.5061159000033513,True,11,1,0,15
Y2-S2-055K22,7,678,PS,exp,43,↑,up,↑,0.48328529999707825,True,11,1,0,15
Y2-S2-055K22,7,679,PS,exp,46,←,left,←,0.46212770001147874,True,11,1,0,15
Y2-S2-055K22,7,680,PS,exp,41,↓,down,↓,0.6921749000030104,True,10,1,0,15
Y2-S2-055K22,7,681,PS,exp,33,↑,left,←,0.5005373999883886,False,10,-1,1,16
Y2-S2-055K22,8,682,AS,intra_train,40,→,right,→,0.6960299999918789,True,22,-,-,-
Y2-S2-055K22,8,683,AS,intra_train,47,↑,up,↑,0.6845022999914363,True,22,-,-,-
Y2-S2-055K22,8,684,AS,intra_train,49,→,right,→,0.7342456000042148,True,22,-,-,-
Y2-S2-055K22,8,685,AS,intra_train,41,↑,up,↑,1.5089920000173151,True,22,-,-,-
Y2-S2-055K22,8,686,AS,intra_train,27,→,right,→,1.381210599996848,True,22,-,-,-
Y2-S2-055K22,8,687,AS,exp,32,↓,down,↓,0.7228758000128437,True,15,0,0,0
Y2-S2-055K22,8,688,AS,exp,30,←,left,←,0.5467207999899983,True,15,0,0,0
Y2-S2-055K22,8,689,AS,exp,36,↑,up,↑,0.462316599994665,True,15,1,0,0
Y2-S2-055K22,8,690,AS,exp,27,↓,up,↑,0.6653999999980442,False,14,-1,1,1
Y2-S2-055K22,8,691,AS,exp,28,↑,up,↑,0.608673299982911,True,15,-1,0,1
Y2-S2-055K22,8,692,AS,exp,37,↓,up,↑,0.6310560000129044,False,15,-1,0,1
Y2-S2-055K22,8,693,AS,exp,36,←,left,←,0.5338684000016656,True,16,-1,0,1
Y2-S2-055K22,8,694,AS,exp,37,↓,down,↓,0.6072245000104886,True,16,-1,0,1
Y2-S2-055K22,8,695,AS,exp,49,↑,up,↑,0.5890986000013072,True,16,1,1,2
Y2-S2-055K22,8,696,AS,exp,46,→,right,→,0.7542114999960177,True,15,1,0,2
Y2-S2-055K22,8,697,AS,exp,28,↑,up,↑,0.6594479999912437,True,15,1,0,2
Y2-S2-055K22,8,698,AS,exp,35,→,right,→,0.5417983999941498,True,15,1,0,2
Y2-S2-055K22,8,699,AS,exp,27,←,left,←,1.0536475999979302,True,14,1,0,2
Y2-S2-055K22,8,700,AS,exp,34,↓,down,↓,0.740173500002129,True,14,1,0,2
Y2-S2-055K22,8,701,AS,exp,28,↑,down,↓,0.5642114999936894,False,14,-1,1,3
Y2-S2-055K22,8,702,AS,exp,26,→,left,←,1.0068461000046227,False,15,-1,0,3
Y2-S2-055K22,8,703,AS,exp,38,↓,down,↓,0.5671513999986928,True,16,-1,0,3
Y2-S2-055K22,8,704,AS,exp,46,→,left,←,0.6090963000024203,False,16,-1,0,3
Y2-S2-055K22,8,705,AS,exp,42,←,left,←,0.571630999998888,True,17,-1,0,3
Y2-S2-055K22,8,706,AS,exp,32,↑,up,↑,0.5843514000007417,True,17,-1,0,3
Y2-S2-055K22,8,707,AS,exp,39,→,right,→,0.5886127999983728,True,17,1,1,4
Y2-S2-055K22,8,708,AS,exp,44,↑,up,↑,0.5927115000085905,True,16,1,0,4
Y2-S2-055K22,8,709,AS,exp,50,→,right,→,0.7065119000035338,True,16,1,0,4
Y2-S2-055K22,8,710,AS,exp,28,↓,left,←,0.8292571000056341,False,16,-1,1,5
Y2-S2-055K22,8,711,AS,exp,33,→,right,→,0.5797374999965541,True,17,-1,0,5
Y2-S2-055K22,8,712,AS,exp,41,↓,down,↓,0.6974439000186976,True,17,-1,0,5
Y2-S2-055K22,8,713,AS,exp,27,→,right,→,1.4654540999908932,True,17,1,1,6
Y2-S2-055K22,8,714,AS,exp,26,↑,up,↑,0.723073100001784,True,16,1,0,6
Y2-S2-055K22,8,715,AS,exp,46,↓,left,←,1.0438473999965936,False,16,-1,1,7
Y2-S2-055K22,8,716,AS,exp,33,←,up,↑,0.7125634000112768,False,17,-1,0,7
Y2-S2-055K22,8,717,AS,exp,26,↑,up,↑,0.5469226000132039,True,18,-1,0,7
Y2-S2-055K22,8,718,AS,exp,33,↓,down,↓,0.6323435000085738,True,18,-1,0,7
Y2-S2-055K22,8,719,AS,exp,39,→,right,→,0.5960905000101775,True,18,1,1,8
Y2-S2-055K22,8,720,AS,exp,42,↓,down,↓,0.7432321000087541,True,17,1,0,8
Y2-S2-055K22,8,721,AS,exp,36,↑,up,↑,0.5919529999955557,True,17,1,0,8
Y2-S2-055K22,8,722,AS,exp,25,→,right,→,0.599838499998441,True,17,1,0,8
Y2-S2-055K22,8,723,AS,exp,33,↑,up,↑,1.2167551000020467,True,16,1,0,8
Y2-S2-055K22,8,724,AS,exp,34,←,up,↑,0.8495144000044093,False,16,-1,1,9
Y2-S2-055K22,8,725,AS,exp,50,→,right,→,0.8355707000009716,True,17,-1,0,9
Y2-S2-055K22,8,726,AS,exp,50,↑,up,↑,0.494875599979423,True,17,-1,0,9
Y2-S2-055K22,8,727,AS,exp,30,←,right,→,0.5885966000205372,False,17,-1,0,9
Y2-S2-055K22,8,728,AS,exp,33,↑,up,↑,0.4766419999941718,True,18,-1,0,9
Y2-S2-055K22,8,729,AS,exp,44,→,right,→,0.5848193000128958,True,18,-1,0,9
Y2-S2-055K22,8,730,AS,exp,37,←,right,→,0.5882558999874163,False,18,-1,0,9
Y2-S2-055K22,8,731,AS,exp,40,→,right,→,0.6176717999915127,True,19,-1,0,9
Y2-S2-055K22,8,732,AS,exp,25,←,left,←,0.7533550999942236,True,19,-1,0,9
Y2-S2-055K22,8,733,AS,exp,25,↑,up,↑,0.556924100004835,True,19,1,1,10
Y2-S2-055K22,8,734,AS,exp,36,←,left,←,0.7201308000076097,True,18,1,0,10
Y2-S2-055K22,8,735,AS,exp,38,↑,up,↑,0.5845899999840185,True,18,1,0,10
Y2-S2-055K22,8,736,AS,exp,39,←,left,←,0.7427468000096269,True,18,1,0,10
Y2-S2-055K22,8,737,AS,exp,44,↓,down,↓,0.6548454000148922,True,17,1,0,10
Y2-S2-055K22,8,738,AS,exp,47,→,up,↑,0.92835910001304,False,17,-1,1,11
Y2-S2-055K22,8,739,AS,exp,43,↑,up,↑,0.4803323999803979,True,18,-1,0,11
Y2-S2-055K22,8,740,AS,exp,28,↓,down,↓,0.7595070000097621,True,18,-1,0,11
Y2-S2-055K22,8,741,AS,exp,33,←,left,←,0.8323392000165768,True,18,1,1,12
Y2-S2-055K22,8,742,AS,exp,37,↓,down,↓,0.8362705999752507,True,17,1,0,12
Y2-S2-055K22,8,743,AS,exp,39,←,left,←,0.6713249999738764,True,17,1,0,12
Y2-S2-055K22,8,744,AS,exp,42,→,right,→,0.7134498999803327,True,17,1,0,12
Y2-S2-055K22,8,745,AS,exp,43,←,left,←,0.6800280999741517,True,16,1,0,12
Y2-S2-055K22,8,746,AS,exp,34,↓,down,↓,0.8668734000239056,True,16,1,0,12
Y2-S2-055K22,8,747,AS,exp,30,↑,up,↑,0.6658306000172161,True,16,1,0,12
Y2-S2-055K22,8,748,AS,exp,39,↓,down,↓,0.904687100002775,True,15,1,0,12
Y2-S2-055K22,8,749,AS,exp,47,→,right,→,0.5658741999941412,True,15,1,0,12
Y2-S2-055K22,8,750,AS,exp,35,←,left,←,1.1392183999996632,True,15,1,0,12
Y2-S2-055K22,8,751,AS,exp,42,↑,left,←,0.5276378999988083,False,14,-1,1,13
Y2-S2-055K22,8,752,AS,exp,34,↓,down,↓,0.8627066000190098,True,15,-1,0,13
Y2-S2-055K22,8,753,AS,exp,42,→,right,→,0.6014848000195343,True,15,-1,0,13
Y2-S2-055K22,8,754,AS,exp,46,←,left,←,0.6059245999786071,True,15,1,1,14
Y2-S2-055K22,8,755,AS,exp,46,→,right,→,0.5480565000034403,True,14,1,0,14
Y2-S2-055K22,8,756,AS,exp,45,↓,down,↓,0.6089455999899656,True,14,1,0,14
Y2-S2-055K22,8,757,AS,exp,40,←,left,←,0.5494763000169769,True,14,1,0,14
Y2-S2-055K22,8,758,AS,exp,46,↓,down,↓,0.6159436000161804,True,13,1,0,14
Y2-S2-055K22,8,759,AS,exp,44,←,left,←,0.5291876000119373,True,13,1,0,14
Y2-S2-055K22,8,760,AS,exp,28,→,right,→,0.4397896000009496,True,13,1,0,14
Y2-S2-055K22,8,761,AS,exp,36,←,up,↑,0.6337169000180438,False,12,-1,1,15
Y2-S2-055K22,8,762,AS,exp,32,→,right,→,0.5232735000026878,True,13,-1,0,15
Y2-S2-055K22,8,763,AS,exp,44,↑,left,←,0.5199196999892592,False,13,-1,0,15
Y2-S2-055K22,8,764,AS,exp,26,↓,down,↓,0.7385101999971084,True,14,-1,0,15
Y2-S2-055K22,8,765,AS,exp,29,←,right,→,0.7347521999909077,False,14,-1,0,15
Y2-S2-055K22,8,766,AS,exp,33,↑,up,↑,0.5531889999983832,True,15,-1,0,15
Y2-S2-055K22,8,767,AS,exp,42,←,right,→,0.5447673999879044,False,15,-1,0,15
Y2-S2-055K22,8,768,AS,exp,27,↑,up,↑,0.8612274000188336,True,16,-1,0,15
Y2-S2-055K22,8,769,AS,exp,37,→,right,→,0.5956118000030983,True,16,-1,0,15
Y2-S2-055K22,8,770,AS,exp,29,↑,down,↓,0.6859230000118259,False,16,-1,0,15
Y2-S2-055K22,8,771,AS,exp,46,←,left,←,0.551625599997351,True,17,-1,0,15
Y2-S2-055K22,8,772,AS,exp,26,↑,up,↑,0.6185368000005838,True,17,-1,0,15
Y2-S2-055K22,8,773,AS,exp,26,→,right,→,0.6323949999932665,True,17,1,1,16
