PART_ID,Block_no,Trial_no,Block_type,Trial_type,CSI,Stim_letter,Key_pressed,letter_choose,Rt,Corr,Stimulus Time,Level,Reversal,Revs_count
Y2-S2-026K24,1,1,PS,train,31,→,right,→,0.8336351000180002,True,30,-,-,-
Y2-S2-026K24,1,2,PS,train,28,↑,up,↑,0.7928051000053529,True,30,-,-,-
Y2-S2-026K24,1,3,PS,train,29,↓,down,↓,0.668485200003488,True,30,-,-,-
Y2-S2-026K24,1,4,PS,train,28,↑,up,↑,0.5840082000067923,True,30,-,-,-
Y2-S2-026K24,1,5,PS,train,41,→,no_key,no_letter,-1.0,False,30,-,-,-
Y2-S2-026K24,1,6,PS,train,41,↓,down,↓,0.5839825000148267,True,30,-,-,-
Y2-S2-026K24,1,7,PS,train,42,↑,down,↓,0.7611300999997184,False,30,-,-,-
Y2-S2-026K24,1,8,PS,train,46,→,right,→,0.6845414999988861,True,30,-,-,-
Y2-S2-026K24,1,9,PS,train,26,↑,up,↑,0.5675620000110939,True,30,-,-,-
Y2-S2-026K24,1,10,PS,train,25,→,right,→,0.6008149000117555,True,30,-,-,-
Y2-S2-026K24,2,11,AS,train,44,↑,up,↑,0.6009402000054251,True,45,-,-,-
Y2-S2-026K24,2,12,AS,train,26,←,left,←,0.5511203999922145,True,45,-,-,-
Y2-S2-026K24,2,13,AS,train,34,↑,up,↑,0.5179943999974057,True,45,-,-,-
Y2-S2-026K24,2,14,AS,train,26,→,right,→,0.6182089000067208,True,45,-,-,-
Y2-S2-026K24,2,15,AS,train,35,←,right,→,0.4844456000137143,False,45,-,-,-
Y2-S2-026K24,2,16,AS,train,36,↓,down,↓,0.7176769000070635,True,45,-,-,-
Y2-S2-026K24,2,17,AS,train,40,↑,up,↑,0.600910200009821,True,45,-,-,-
Y2-S2-026K24,2,18,AS,train,30,→,right,→,0.5676777000189759,True,45,-,-,-
Y2-S2-026K24,2,19,AS,train,32,↓,down,↓,0.6344528000045102,True,45,-,-,-
Y2-S2-026K24,2,20,AS,train,32,↑,up,↑,0.7177525000006426,True,45,-,-,-
Y2-S2-026K24,-,21,PS,adaptive,30,→,left,←,1.4163991999812424,False,10,-1,0,0
Y2-S2-026K24,-,22,PS,adaptive,43,↑,up,↑,0.9702977999986615,True,11,-1,0,0
Y2-S2-026K24,-,23,PS,adaptive,35,↓,up,↑,0.808766200003447,False,11,-1,0,0
Y2-S2-026K24,-,24,PS,adaptive,28,↑,up,↑,0.4983797000022605,True,12,-1,0,0
Y2-S2-026K24,-,25,PS,adaptive,37,←,left,←,0.6563487000239547,True,12,-1,0,0
Y2-S2-026K24,-,26,PS,adaptive,36,↓,down,↓,0.5551910999929532,True,12,1,1,1
Y2-S2-026K24,-,27,PS,adaptive,29,↑,up,↑,0.5707971999945585,True,11,1,0,1
Y2-S2-026K24,-,28,PS,adaptive,33,↓,down,↓,0.5829606000042986,True,11,1,0,1
Y2-S2-026K24,-,29,PS,adaptive,42,→,right,→,0.6186038999876473,True,11,1,0,1
Y2-S2-026K24,-,30,PS,adaptive,26,←,right,→,0.6330853999825194,False,10,-1,1,2
Y2-S2-026K24,-,31,PS,adaptive,30,→,left,←,1.0643152999982703,False,11,-1,0,2
Y2-S2-026K24,-,32,PS,adaptive,50,←,left,←,0.6361291999928653,True,12,-1,0,2
Y2-S2-026K24,-,33,PS,adaptive,25,→,right,→,0.5942544999998063,True,12,-1,0,2
Y2-S2-026K24,-,34,PS,adaptive,27,↓,down,↓,0.5868115999910515,True,12,1,1,3
Y2-S2-026K24,-,35,PS,adaptive,36,←,left,←,0.5336759999918286,True,11,1,0,3
Y2-S2-026K24,-,36,PS,adaptive,29,↑,up,↑,0.807641399995191,True,11,1,0,3
Y2-S2-026K24,-,37,PS,adaptive,38,←,left,←,0.5909768999845255,True,11,1,0,3
Y2-S2-026K24,-,38,PS,adaptive,43,→,right,→,0.5963508999848273,True,10,1,0,3
Y2-S2-026K24,-,39,PS,adaptive,49,↓,down,↓,0.5650479000178166,True,10,1,0,3
Y2-S2-026K24,-,40,PS,adaptive,50,↑,up,↑,0.5113539000158198,True,10,1,0,3
Y2-S2-026K24,-,41,PS,adaptive,29,→,up,↑,0.5911868999828584,False,9,-1,1,4
Y2-S2-026K24,-,42,AS,adaptive,43,←,left,←,0.7310653000022285,True,20,0,0,0
Y2-S2-026K24,-,43,AS,adaptive,38,→,right,→,0.5237566999858245,True,20,0,0,0
Y2-S2-026K24,-,44,AS,adaptive,31,←,right,→,0.43376300000818446,False,20,-1,0,0
Y2-S2-026K24,-,45,AS,adaptive,41,↓,down,↓,0.6259136000007857,True,21,-1,0,0
Y2-S2-026K24,-,46,AS,adaptive,34,→,left,←,0.7577827000059187,False,21,-1,0,0
Y2-S2-026K24,-,47,AS,adaptive,36,↑,up,↑,1.118700599996373,True,22,-1,0,0
Y2-S2-026K24,-,48,AS,adaptive,35,→,right,→,0.6208488999982364,True,22,-1,0,0
Y2-S2-026K24,-,49,AS,adaptive,33,↑,left,←,1.0354473000043072,False,22,-1,0,0
Y2-S2-026K24,-,50,AS,adaptive,32,←,left,←,0.6375944999745116,True,23,-1,0,0
Y2-S2-026K24,-,51,AS,adaptive,33,↑,up,↑,0.7279133000120055,True,23,-1,0,0
Y2-S2-026K24,-,52,AS,adaptive,25,↓,up,↑,0.9781665999908,False,23,-1,0,0
Y2-S2-026K24,-,53,AS,adaptive,36,→,right,→,0.6339046999928541,True,24,-1,0,0
Y2-S2-026K24,-,54,AS,adaptive,33,←,right,→,0.46757069998420775,False,24,-1,0,0
Y2-S2-026K24,-,55,AS,adaptive,30,→,right,→,0.8217435000115074,True,25,-1,0,0
Y2-S2-026K24,-,56,AS,adaptive,45,←,left,←,0.7062483000045177,True,25,-1,0,0
Y2-S2-026K24,-,57,AS,adaptive,36,↑,up,↑,1.0957583999843337,True,25,1,1,1
Y2-S2-026K24,-,58,AS,adaptive,49,→,right,→,0.6935478000086732,True,24,1,0,1
Y2-S2-026K24,-,59,AS,adaptive,36,←,left,←,0.7568870999966748,True,24,1,0,1
Y2-S2-026K24,-,60,AS,adaptive,47,↑,up,↑,0.5899413000151981,True,24,1,0,1
Y2-S2-026K24,-,61,AS,adaptive,34,←,left,←,0.6209220000018831,True,23,1,0,1
Y2-S2-026K24,-,62,AS,adaptive,39,→,right,→,0.593825799995102,True,23,1,0,1
Y2-S2-026K24,-,63,AS,adaptive,44,↑,up,↑,0.7776906999933999,True,23,1,0,1
Y2-S2-026K24,-,64,AS,adaptive,50,→,right,→,0.7358294000150636,True,22,1,0,1
Y2-S2-026K24,-,65,AS,adaptive,30,↓,down,↓,0.6360583999776281,True,22,1,0,1
Y2-S2-026K24,-,66,AS,adaptive,48,←,right,→,0.7612827999982983,False,22,-1,1,2
Y2-S2-026K24,-,67,AS,adaptive,46,↑,up,↑,0.6187337999872398,True,23,-1,0,2
Y2-S2-026K24,-,68,AS,adaptive,46,↓,down,↓,0.67999360000249,True,23,-1,0,2
Y2-S2-026K24,-,69,AS,adaptive,38,→,right,→,0.6379119000048377,True,23,1,1,3
Y2-S2-026K24,-,70,AS,adaptive,25,↓,down,↓,0.6003256000112742,True,22,1,0,3
Y2-S2-026K24,-,71,AS,adaptive,25,←,left,←,0.6312483999936376,True,22,1,0,3
Y2-S2-026K24,-,72,AS,adaptive,30,→,right,→,0.611849600012647,True,22,1,0,3
Y2-S2-026K24,-,73,AS,adaptive,45,↓,down,↓,0.6915931999974418,True,21,1,0,3
Y2-S2-026K24,-,74,AS,adaptive,25,←,left,←,0.6669550000224262,True,21,1,0,3
Y2-S2-026K24,-,75,AS,adaptive,43,→,right,→,0.8758759000047576,True,21,1,0,3
Y2-S2-026K24,-,76,AS,adaptive,29,←,left,←,0.5479794999992009,True,20,1,0,3
Y2-S2-026K24,-,77,AS,adaptive,42,↓,down,↓,0.6955237999791279,True,20,1,0,3
Y2-S2-026K24,-,78,AS,adaptive,29,→,right,→,0.6161388999898918,True,20,1,0,3
Y2-S2-026K24,-,79,AS,adaptive,39,←,left,←,0.5964249999960884,True,19,1,0,3
Y2-S2-026K24,-,80,AS,adaptive,38,↓,down,↓,0.5270281999837607,True,19,1,0,3
Y2-S2-026K24,-,81,AS,adaptive,28,←,right,→,0.768408299976727,False,19,-1,1,4
Y2-S2-026K24,1,82,PS,intra_train,46,↑,up,↑,1.5163158999930602,True,15,-,-,-
Y2-S2-026K24,1,83,PS,intra_train,32,←,left,←,1.21261260000756,True,15,-,-,-
Y2-S2-026K24,1,84,PS,intra_train,41,↑,down,↓,1.1320191999839153,False,15,-,-,-
Y2-S2-026K24,1,85,PS,intra_train,39,↓,down,↓,0.7061280000198167,True,15,-,-,-
Y2-S2-026K24,1,86,PS,intra_train,43,↑,up,↑,0.6614574999839533,True,15,-,-,-
Y2-S2-026K24,1,87,PS,exp,38,←,right,→,0.7081574000185356,False,10,-1,0,0
Y2-S2-026K24,1,88,PS,exp,33,→,left,←,0.833313300012378,False,11,-1,0,0
Y2-S2-026K24,1,89,PS,exp,43,←,left,←,0.6998279999825172,True,12,-1,0,0
Y2-S2-026K24,1,90,PS,exp,31,↑,up,↑,0.8558449000120163,True,12,-1,0,0
Y2-S2-026K24,1,91,PS,exp,32,→,right,→,0.5377455000125337,True,12,1,1,1
Y2-S2-026K24,1,92,PS,exp,33,↓,down,↓,0.6273789000115357,True,11,1,0,1
Y2-S2-026K24,1,93,PS,exp,36,↑,down,↓,0.8123731999949086,False,11,-1,1,2
Y2-S2-026K24,1,94,PS,exp,32,←,left,←,0.535462900006678,True,12,-1,0,2
Y2-S2-026K24,1,95,PS,exp,27,↑,down,↓,0.9219453999830876,False,12,-1,0,2
Y2-S2-026K24,1,96,PS,exp,32,←,left,←,0.5386357000097632,True,13,-1,0,2
Y2-S2-026K24,1,97,PS,exp,33,→,right,→,1.0424070000008214,True,13,-1,0,2
Y2-S2-026K24,1,98,PS,exp,50,←,left,←,0.6034645999898203,True,13,1,1,3
Y2-S2-026K24,1,99,PS,exp,46,↑,up,↑,0.5949698000040371,True,12,1,0,3
Y2-S2-026K24,1,100,PS,exp,47,←,down,↓,0.627585199981695,False,12,-1,1,4
Y2-S2-026K24,1,101,PS,exp,40,↑,up,↑,0.5190773000067566,True,13,-1,0,4
Y2-S2-026K24,1,102,PS,exp,39,→,right,→,0.5151233999931719,True,13,-1,0,4
Y2-S2-026K24,1,103,PS,exp,32,↓,no_key,no_letter,-1.0,False,13,-1,0,4
Y2-S2-026K24,1,104,PS,exp,29,↑,up,↑,0.6317686000256799,True,14,-1,0,4
Y2-S2-026K24,1,105,PS,exp,28,←,left,←,0.50975820000167,True,14,-1,0,4
Y2-S2-026K24,1,106,PS,exp,32,→,right,→,0.7952638999850024,True,14,1,1,5
Y2-S2-026K24,1,107,PS,exp,27,↑,up,↑,0.44349519998650067,True,13,1,0,5
Y2-S2-026K24,1,108,PS,exp,38,←,left,←,0.5405925999803003,True,13,1,0,5
Y2-S2-026K24,1,109,PS,exp,40,↑,up,↑,0.43597150000277907,True,13,1,0,5
Y2-S2-026K24,1,110,PS,exp,38,↓,down,↓,0.572110299981432,True,12,1,0,5
Y2-S2-026K24,1,111,PS,exp,34,←,left,←,0.6467112000100315,True,12,1,0,5
Y2-S2-026K24,1,112,PS,exp,46,→,right,→,0.5306297999923117,True,12,1,0,5
Y2-S2-026K24,1,113,PS,exp,45,↑,up,↑,0.5375042999803554,True,11,1,0,5
Y2-S2-026K24,1,114,PS,exp,43,→,down,↓,0.7057289000076707,False,11,-1,1,6
Y2-S2-026K24,1,115,PS,exp,48,↓,down,↓,0.5578765000100248,True,12,-1,0,6
Y2-S2-026K24,1,116,PS,exp,50,↑,up,↑,0.5706133000203408,True,12,-1,0,6
Y2-S2-026K24,1,117,PS,exp,28,→,right,→,1.5112707999942359,True,12,1,1,7
Y2-S2-026K24,1,118,PS,exp,39,↑,up,↑,0.4860099999932572,True,11,1,0,7
Y2-S2-026K24,1,119,PS,exp,41,←,left,←,0.6178010999865364,True,11,1,0,7
Y2-S2-026K24,1,120,PS,exp,36,→,right,→,0.4481963000143878,True,11,1,0,7
Y2-S2-026K24,1,121,PS,exp,37,←,left,←,0.556487299996661,True,10,1,0,7
Y2-S2-026K24,1,122,PS,exp,27,↑,up,↑,0.5783441000094172,True,10,1,0,7
Y2-S2-026K24,1,123,PS,exp,49,←,left,←,0.5591387000167742,True,10,1,0,7
Y2-S2-026K24,1,124,PS,exp,25,↑,up,↑,0.40387809998355806,True,9,1,0,7
Y2-S2-026K24,1,125,PS,exp,44,↓,left,←,0.6771390000067186,False,9,-1,1,8
Y2-S2-026K24,1,126,PS,exp,38,↑,up,↑,0.4157644000079017,True,10,-1,0,8
Y2-S2-026K24,1,127,PS,exp,28,→,left,←,0.6855455999902915,False,10,-1,0,8
Y2-S2-026K24,1,128,PS,exp,38,←,left,←,0.4311396999983117,True,11,-1,0,8
Y2-S2-026K24,1,129,PS,exp,48,↑,left,←,0.5200305999896955,False,11,-1,0,8
Y2-S2-026K24,1,130,PS,exp,39,←,left,←,0.519352200004505,True,12,-1,0,8
Y2-S2-026K24,1,131,PS,exp,36,→,right,→,0.5318825999856927,True,12,-1,0,8
Y2-S2-026K24,1,132,PS,exp,32,←,left,←,0.49262799997814,True,12,1,1,9
Y2-S2-026K24,1,133,PS,exp,28,→,right,→,0.43477240001084283,True,11,1,0,9
Y2-S2-026K24,1,134,PS,exp,26,↑,left,←,0.6091118000040296,False,11,-1,1,10
Y2-S2-026K24,1,135,PS,exp,48,↓,down,↓,0.6002849999931641,True,12,-1,0,10
Y2-S2-026K24,1,136,PS,exp,40,↑,up,↑,0.46493180000106804,True,12,-1,0,10
Y2-S2-026K24,1,137,PS,exp,47,→,right,→,0.4691968999977689,True,12,1,1,11
Y2-S2-026K24,1,138,PS,exp,30,↑,left,←,0.7839784999960102,False,11,-1,1,12
Y2-S2-026K24,1,139,PS,exp,34,←,left,←,0.9679217000084464,True,12,-1,0,12
Y2-S2-026K24,1,140,PS,exp,38,→,down,↓,1.0924871999886818,False,12,-1,0,12
Y2-S2-026K24,1,141,PS,exp,41,←,left,←,0.48315260000526905,True,13,-1,0,12
Y2-S2-026K24,1,142,PS,exp,50,↓,down,↓,0.6073840000026394,True,13,-1,0,12
Y2-S2-026K24,1,143,PS,exp,48,↑,up,↑,0.5221917000017129,True,13,1,1,13
Y2-S2-026K24,1,144,PS,exp,47,↓,down,↓,0.7069982000102755,True,12,1,0,13
Y2-S2-026K24,1,145,PS,exp,29,↑,up,↑,0.41295710002304986,True,12,1,0,13
Y2-S2-026K24,1,146,PS,exp,39,→,right,→,0.5048031999904197,True,12,1,0,13
Y2-S2-026K24,1,147,PS,exp,39,↓,left,←,0.3976901000132784,False,11,-1,1,14
Y2-S2-026K24,1,148,PS,exp,27,←,left,←,0.5146079999976791,True,12,-1,0,14
Y2-S2-026K24,1,149,PS,exp,39,↓,down,↓,0.6280910999921616,True,12,-1,0,14
Y2-S2-026K24,1,150,PS,exp,37,↑,up,↑,0.45150999998440966,True,12,1,1,15
Y2-S2-026K24,1,151,PS,exp,25,→,right,→,0.4376801000034902,True,11,1,0,15
Y2-S2-026K24,1,152,PS,exp,48,↓,up,↑,0.535203499981435,False,11,-1,1,16
Y2-S2-026K24,2,153,AS,intra_train,28,←,left,←,0.7135794000059832,True,30,-,-,-
Y2-S2-026K24,2,154,AS,intra_train,37,↑,up,↑,1.679627299978165,True,30,-,-,-
Y2-S2-026K24,2,155,AS,intra_train,29,→,right,→,0.567242899996927,True,30,-,-,-
Y2-S2-026K24,2,156,AS,intra_train,35,↑,up,↑,0.6336952999990899,True,30,-,-,-
Y2-S2-026K24,2,157,AS,intra_train,25,↓,down,↓,0.5674391999782529,True,30,-,-,-
Y2-S2-026K24,2,158,AS,exp,34,→,left,←,0.5984713000070769,False,20,-1,0,0
Y2-S2-026K24,2,159,AS,exp,44,↓,down,↓,0.8321321000112221,True,21,-1,0,0
Y2-S2-026K24,2,160,AS,exp,28,←,right,→,0.5597247999976389,False,21,-1,0,0
Y2-S2-026K24,2,161,AS,exp,31,↑,up,↑,0.6025129999907222,True,22,-1,0,0
Y2-S2-026K24,2,162,AS,exp,43,←,left,←,0.60568200002308,True,22,-1,0,0
Y2-S2-026K24,2,163,AS,exp,27,↓,down,↓,0.6877269000106025,True,22,1,1,1
Y2-S2-026K24,2,164,AS,exp,37,←,left,←,0.560851799993543,True,21,1,0,1
Y2-S2-026K24,2,165,AS,exp,44,→,left,←,0.5346134999999776,False,21,-1,1,2
Y2-S2-026K24,2,166,AS,exp,25,↓,down,↓,0.5841230000078212,True,22,-1,0,2
Y2-S2-026K24,2,167,AS,exp,40,↑,up,↑,0.5006025999900885,True,22,-1,0,2
Y2-S2-026K24,2,168,AS,exp,44,→,left,←,0.48396820001653396,False,22,-1,0,2
Y2-S2-026K24,2,169,AS,exp,30,↑,up,↑,1.7510781000019051,True,23,-1,0,2
Y2-S2-026K24,2,170,AS,exp,29,←,left,←,0.592618999973638,True,23,-1,0,2
Y2-S2-026K24,2,171,AS,exp,48,↑,up,↑,0.6508374999975786,True,23,1,1,3
Y2-S2-026K24,2,172,AS,exp,28,←,left,←,0.5559551999904215,True,22,1,0,3
Y2-S2-026K24,2,173,AS,exp,50,↓,down,↓,0.6233001999789849,True,22,1,0,3
Y2-S2-026K24,2,174,AS,exp,25,→,right,→,0.7122836000053212,True,22,1,0,3
Y2-S2-026K24,2,175,AS,exp,41,←,left,←,0.5405112000007648,True,21,1,0,3
Y2-S2-026K24,2,176,AS,exp,47,↓,down,↓,0.7925437999947462,True,21,1,0,3
Y2-S2-026K24,2,177,AS,exp,34,←,left,←,0.4839676999836229,True,21,1,0,3
Y2-S2-026K24,2,178,AS,exp,35,↓,down,↓,0.5942353999998886,True,20,1,0,3
Y2-S2-026K24,2,179,AS,exp,27,←,left,←,0.5489135000098031,True,20,1,0,3
Y2-S2-026K24,2,180,AS,exp,25,↑,up,↑,1.2811545000004116,True,20,1,0,3
Y2-S2-026K24,2,181,AS,exp,36,→,right,→,0.6585481000074651,True,19,1,0,3
Y2-S2-026K24,2,182,AS,exp,37,↑,down,↓,0.4909550999873318,False,19,-1,1,4
Y2-S2-026K24,2,183,AS,exp,28,←,left,←,0.5935642000113148,True,20,-1,0,4
Y2-S2-026K24,2,184,AS,exp,35,↓,down,↓,0.5959069000091404,True,20,-1,0,4
Y2-S2-026K24,2,185,AS,exp,45,→,right,→,0.9449597999919206,True,20,1,1,5
Y2-S2-026K24,2,186,AS,exp,40,↓,down,↓,0.7407744000083767,True,19,1,0,5
Y2-S2-026K24,2,187,AS,exp,40,→,right,→,0.694329399993876,True,19,1,0,5
Y2-S2-026K24,2,188,AS,exp,46,↓,down,↓,0.5743642000015825,True,19,1,0,5
Y2-S2-026K24,2,189,AS,exp,41,↑,up,↑,0.6472370999981649,True,18,1,0,5
Y2-S2-026K24,2,190,AS,exp,25,←,left,←,0.5933223000029102,True,18,1,0,5
Y2-S2-026K24,2,191,AS,exp,25,→,right,→,0.9376963000104297,True,18,1,0,5
Y2-S2-026K24,2,192,AS,exp,45,↑,up,↑,1.369011299975682,True,17,1,0,5
Y2-S2-026K24,2,193,AS,exp,42,↓,down,↓,0.5889791999943554,True,17,1,0,5
Y2-S2-026K24,2,194,AS,exp,32,→,right,→,0.6864113000046927,True,17,1,0,5
Y2-S2-026K24,2,195,AS,exp,25,←,right,→,0.8666956000088248,False,16,-1,1,6
Y2-S2-026K24,2,196,AS,exp,38,↑,up,↑,0.5242556999728549,True,17,-1,0,6
Y2-S2-026K24,2,197,AS,exp,34,↓,down,↓,0.6712286999973003,True,17,-1,0,6
Y2-S2-026K24,2,198,AS,exp,32,←,left,←,0.5885714000032749,True,17,1,1,7
Y2-S2-026K24,2,199,AS,exp,49,→,right,→,0.5348545000015292,True,16,1,0,7
Y2-S2-026K24,2,200,AS,exp,31,←,left,←,0.5848696000175551,True,16,1,0,7
Y2-S2-026K24,2,201,AS,exp,45,↓,down,↓,0.7240634000045247,True,16,1,0,7
Y2-S2-026K24,2,202,AS,exp,36,↑,down,↓,0.5828748999920208,False,15,-1,1,8
Y2-S2-026K24,2,203,AS,exp,28,↓,up,↑,0.631761299999198,False,16,-1,0,8
Y2-S2-026K24,2,204,AS,exp,47,→,right,→,0.8588967999967281,True,17,-1,0,8
Y2-S2-026K24,2,205,AS,exp,32,←,left,←,0.5358784999989439,True,17,-1,0,8
Y2-S2-026K24,2,206,AS,exp,31,↑,up,↑,0.5405596999917179,True,17,1,1,9
Y2-S2-026K24,2,207,AS,exp,28,→,right,→,0.5822062999941409,True,16,1,0,9
Y2-S2-026K24,2,208,AS,exp,36,↓,down,↓,0.6674460000067484,True,16,1,0,9
Y2-S2-026K24,2,209,AS,exp,40,↑,up,↑,1.3659901000210084,True,16,1,0,9
Y2-S2-026K24,2,210,AS,exp,39,↓,up,↑,0.7802501999831293,False,15,-1,1,10
Y2-S2-026K24,2,211,AS,exp,43,→,left,←,0.6244403000164311,False,16,-1,0,10
Y2-S2-026K24,2,212,AS,exp,46,↑,up,↑,0.6801480000140145,True,17,-1,0,10
Y2-S2-026K24,2,213,AS,exp,36,←,left,←,0.6116537000052631,True,17,-1,0,10
Y2-S2-026K24,2,214,AS,exp,46,↑,up,↑,0.6036784000170883,True,17,1,1,11
Y2-S2-026K24,2,215,AS,exp,43,←,left,←,0.5374120000051335,True,16,1,0,11
Y2-S2-026K24,2,216,AS,exp,39,↑,up,↑,0.6737411000067368,True,16,1,0,11
Y2-S2-026K24,2,217,AS,exp,48,→,left,←,0.46925219998229295,False,16,-1,1,12
Y2-S2-026K24,2,218,AS,exp,40,↓,down,↓,0.6298496999952476,True,17,-1,0,12
Y2-S2-026K24,2,219,AS,exp,31,→,right,→,0.7900266000069678,True,17,-1,0,12
Y2-S2-026K24,2,220,AS,exp,38,↓,down,↓,0.6921648000134155,True,17,1,1,13
Y2-S2-026K24,2,221,AS,exp,42,←,left,←,0.5235513999941759,True,16,1,0,13
Y2-S2-026K24,2,222,AS,exp,50,↑,up,↑,0.557976600015536,True,16,1,0,13
Y2-S2-026K24,2,223,AS,exp,35,→,right,→,0.5498434999899473,True,16,1,0,13
Y2-S2-026K24,2,224,AS,exp,37,↑,up,↑,0.46461560000898317,True,15,1,0,13
Y2-S2-026K24,2,225,AS,exp,50,↓,down,↓,0.6146523999923375,True,15,1,0,13
Y2-S2-026K24,2,226,AS,exp,30,→,right,→,0.4793505000125151,True,15,1,0,13
Y2-S2-026K24,2,227,AS,exp,45,←,left,←,0.5029712000105064,True,14,1,0,13
Y2-S2-026K24,2,228,AS,exp,26,↓,down,↓,0.6345066000067163,True,14,1,0,13
Y2-S2-026K24,2,229,AS,exp,29,↑,up,↑,0.49109699999098666,True,14,1,0,13
Y2-S2-026K24,2,230,AS,exp,31,→,right,→,0.6136120999872219,True,13,1,0,13
Y2-S2-026K24,2,231,AS,exp,39,↓,down,↓,0.6457986000168603,True,13,1,0,13
Y2-S2-026K24,2,232,AS,exp,29,→,right,→,0.9113915000052657,True,13,1,0,13
Y2-S2-026K24,2,233,AS,exp,29,←,right,→,1.0190944999922067,False,12,-1,1,14
Y2-S2-026K24,2,234,AS,exp,41,↓,up,↑,0.5219917999929748,False,13,-1,0,14
Y2-S2-026K24,2,235,AS,exp,38,←,left,←,0.662468299997272,True,14,-1,0,14
Y2-S2-026K24,2,236,AS,exp,47,→,right,→,0.46412859999691136,True,14,-1,0,14
Y2-S2-026K24,2,237,AS,exp,25,↑,up,↑,0.5199242999951821,True,14,1,1,15
Y2-S2-026K24,2,238,AS,exp,31,←,left,←,0.4159836000180803,True,13,1,0,15
Y2-S2-026K24,2,239,AS,exp,43,↑,up,↑,0.4257412999868393,True,13,1,0,15
Y2-S2-026K24,2,240,AS,exp,28,→,left,←,0.664083000010578,False,13,-1,1,16
Y2-S2-026K24,3,241,AS,intra_train,50,↓,down,↓,0.5505549999943469,True,30,-,-,-
Y2-S2-026K24,3,242,AS,intra_train,33,→,right,→,0.5504528999736067,True,30,-,-,-
Y2-S2-026K24,3,243,AS,intra_train,25,↑,up,↑,0.6174288999754936,True,30,-,-,-
Y2-S2-026K24,3,244,AS,intra_train,38,←,left,←,0.6340172000054736,True,30,-,-,-
Y2-S2-026K24,3,245,AS,intra_train,44,↑,up,↑,0.6777906999923289,True,30,-,-,-
Y2-S2-026K24,3,246,AS,exp,47,←,left,←,0.571207900007721,True,20,0,0,0
Y2-S2-026K24,3,247,AS,exp,37,↑,up,↑,1.2928076999960467,True,20,0,0,0
Y2-S2-026K24,3,248,AS,exp,44,↓,down,↓,0.8500851000135299,True,20,1,0,0
Y2-S2-026K24,3,249,AS,exp,50,←,left,←,0.5357532000052743,True,19,1,0,0
Y2-S2-026K24,3,250,AS,exp,27,→,left,←,0.5104101000179071,False,19,-1,1,1
Y2-S2-026K24,3,251,AS,exp,49,↑,up,↑,0.523856900021201,True,20,-1,0,1
Y2-S2-026K24,3,252,AS,exp,47,→,right,→,0.5023365000088234,True,20,-1,0,1
Y2-S2-026K24,3,253,AS,exp,50,←,left,←,0.6016613999963738,True,20,1,1,2
Y2-S2-026K24,3,254,AS,exp,35,→,no_key,no_letter,-1.0,False,19,-1,1,3
Y2-S2-026K24,3,255,AS,exp,30,↓,left,←,1.4425252999935765,False,20,-1,0,3
Y2-S2-026K24,3,256,AS,exp,47,←,right,→,0.5298739999998361,False,21,-1,0,3
Y2-S2-026K24,3,257,AS,exp,26,↓,down,↓,0.685960700007854,True,22,-1,0,3
Y2-S2-026K24,3,258,AS,exp,41,→,right,→,0.6010846999997739,True,22,-1,0,3
Y2-S2-026K24,3,259,AS,exp,30,↑,up,↑,0.46733849999145605,True,22,1,1,4
Y2-S2-026K24,3,260,AS,exp,31,→,left,←,0.5450825000007171,False,21,-1,1,5
Y2-S2-026K24,3,261,AS,exp,31,↓,down,↓,0.7914456000144128,True,22,-1,0,5
Y2-S2-026K24,3,262,AS,exp,29,←,left,←,0.6977989999868441,True,22,-1,0,5
Y2-S2-026K24,3,263,AS,exp,39,↑,up,↑,0.5007586999854539,True,22,1,1,6
Y2-S2-026K24,3,264,AS,exp,42,↓,down,↓,0.6261606000189204,True,21,1,0,6
Y2-S2-026K24,3,265,AS,exp,44,↑,up,↑,1.2296174000075553,True,21,1,0,6
Y2-S2-026K24,3,266,AS,exp,36,↓,down,↓,0.5706474999897182,True,21,1,0,6
Y2-S2-026K24,3,267,AS,exp,39,→,right,→,0.6716931999835651,True,20,1,0,6
Y2-S2-026K24,3,268,AS,exp,45,↓,down,↓,0.6418159999884665,True,20,1,0,6
Y2-S2-026K24,3,269,AS,exp,34,←,left,←,0.542795900022611,True,20,1,0,6
Y2-S2-026K24,3,270,AS,exp,36,↑,up,↑,0.606810500001302,True,19,1,0,6
Y2-S2-026K24,3,271,AS,exp,40,←,left,←,1.2976574000203982,True,19,1,0,6
Y2-S2-026K24,3,272,AS,exp,33,↓,down,↓,0.49515030000475235,True,19,1,0,6
Y2-S2-026K24,3,273,AS,exp,26,→,left,←,0.876824500010116,False,18,-1,1,7
Y2-S2-026K24,3,274,AS,exp,43,↓,down,↓,0.5472367000184022,True,19,-1,0,7
Y2-S2-026K24,3,275,AS,exp,28,↑,up,↑,0.5352568000089377,True,19,-1,0,7
Y2-S2-026K24,3,276,AS,exp,36,→,right,→,0.5580025000090245,True,19,1,1,8
Y2-S2-026K24,3,277,AS,exp,30,←,left,←,0.8692763999861199,True,18,1,0,8
Y2-S2-026K24,3,278,AS,exp,46,→,right,→,0.675583700009156,True,18,1,0,8
Y2-S2-026K24,3,279,AS,exp,31,↑,up,↑,0.5108022000058554,True,18,1,0,8
Y2-S2-026K24,3,280,AS,exp,49,←,left,←,0.5955807999998797,True,17,1,0,8
Y2-S2-026K24,3,281,AS,exp,48,→,right,→,0.6021795000124257,True,17,1,0,8
Y2-S2-026K24,3,282,AS,exp,40,←,left,←,0.5601056999876164,True,17,1,0,8
Y2-S2-026K24,3,283,AS,exp,45,→,left,←,0.5651710000238381,False,16,-1,1,9
Y2-S2-026K24,3,284,AS,exp,41,↑,up,↑,0.5083296000084374,True,17,-1,0,9
Y2-S2-026K24,3,285,AS,exp,49,→,left,←,0.6298916999949142,False,17,-1,0,9
Y2-S2-026K24,3,286,AS,exp,31,↓,down,↓,0.6513260999927297,True,18,-1,0,9
Y2-S2-026K24,3,287,AS,exp,27,↑,up,↑,0.4938540000002831,True,18,-1,0,9
Y2-S2-026K24,3,288,AS,exp,38,←,left,←,0.4996778000204358,True,18,1,1,10
Y2-S2-026K24,3,289,AS,exp,47,↓,down,↓,0.7058403999835718,True,17,1,0,10
Y2-S2-026K24,3,290,AS,exp,32,→,right,→,0.4892894000222441,True,17,1,0,10
Y2-S2-026K24,3,291,AS,exp,26,↑,up,↑,1.0483144000172615,True,17,1,0,10
Y2-S2-026K24,3,292,AS,exp,31,↓,down,↓,0.5857225000218023,True,16,1,0,10
Y2-S2-026K24,3,293,AS,exp,38,→,right,→,0.46909619998768903,True,16,1,0,10
Y2-S2-026K24,3,294,AS,exp,41,↓,down,↓,0.7104250999982469,True,16,1,0,10
Y2-S2-026K24,3,295,AS,exp,29,↑,up,↑,0.4720794000022579,True,15,1,0,10
Y2-S2-026K24,3,296,AS,exp,32,↓,down,↓,0.8963869999861345,True,15,1,0,10
Y2-S2-026K24,3,297,AS,exp,48,↑,up,↑,0.5074628999864217,True,15,1,0,10
Y2-S2-026K24,3,298,AS,exp,41,→,right,→,0.7464974999893457,True,14,1,0,10
Y2-S2-026K24,3,299,AS,exp,28,↑,right,→,0.9053341999824625,False,14,-1,1,11
Y2-S2-026K24,3,300,AS,exp,40,→,right,→,0.538138700008858,True,15,-1,0,11
Y2-S2-026K24,3,301,AS,exp,31,←,left,←,0.5495468000008259,True,15,-1,0,11
Y2-S2-026K24,3,302,AS,exp,40,→,left,←,1.430453499982832,False,15,-1,0,11
Y2-S2-026K24,3,303,AS,exp,46,↓,down,↓,0.6091648000001442,True,16,-1,0,11
Y2-S2-026K24,3,304,AS,exp,25,↑,up,↑,1.257438300002832,True,16,-1,0,11
Y2-S2-026K24,3,305,AS,exp,33,↓,down,↓,0.5602543999848422,True,16,1,1,12
Y2-S2-026K24,3,306,AS,exp,30,↑,up,↑,0.5981310000061058,True,15,1,0,12
Y2-S2-026K24,3,307,AS,exp,38,↓,down,↓,0.7782102000201121,True,15,1,0,12
Y2-S2-026K24,3,308,AS,exp,38,→,left,←,0.7825546000094619,False,15,-1,1,13
Y2-S2-026K24,3,309,AS,exp,45,↑,up,↑,0.5267276999948081,True,16,-1,0,13
Y2-S2-026K24,3,310,AS,exp,40,→,right,→,0.4577272000024095,True,16,-1,0,13
Y2-S2-026K24,3,311,AS,exp,30,↓,down,↓,0.9819931999954861,True,16,1,1,14
Y2-S2-026K24,3,312,AS,exp,32,←,left,←,0.5208206000097562,True,15,1,0,14
Y2-S2-026K24,3,313,AS,exp,27,→,right,→,0.6662707999930717,True,15,1,0,14
Y2-S2-026K24,3,314,AS,exp,27,↓,up,↑,0.6377780999755487,False,15,-1,1,15
Y2-S2-026K24,3,315,AS,exp,38,←,left,←,0.8503536000207532,True,16,-1,0,15
Y2-S2-026K24,3,316,AS,exp,42,↑,up,↑,0.9400043999776244,True,16,-1,0,15
Y2-S2-026K24,3,317,AS,exp,36,→,right,→,1.171937999984948,True,16,1,1,16
Y2-S2-026K24,4,318,PS,intra_train,31,↑,left,←,0.972540199989453,False,15,-,-,-
Y2-S2-026K24,4,319,PS,intra_train,42,↓,down,↓,0.6691196000028867,True,15,-,-,-
Y2-S2-026K24,4,320,PS,intra_train,28,←,left,←,0.5105859000177588,True,15,-,-,-
Y2-S2-026K24,4,321,PS,intra_train,25,↑,up,↑,0.5847360000188928,True,15,-,-,-
Y2-S2-026K24,4,322,PS,intra_train,25,←,left,←,0.5658092000230681,True,15,-,-,-
Y2-S2-026K24,4,323,PS,exp,33,↑,left,←,0.8500307000067551,False,10,-1,0,0
Y2-S2-026K24,4,324,PS,exp,38,←,left,←,0.5841683000035118,True,11,-1,0,0
Y2-S2-026K24,4,325,PS,exp,40,↑,up,↑,0.46629440001561306,True,11,-1,0,0
Y2-S2-026K24,4,326,PS,exp,37,→,right,→,0.4727293999749236,True,11,1,1,1
Y2-S2-026K24,4,327,PS,exp,43,↓,down,↓,0.5511750000005122,True,10,1,0,1
Y2-S2-026K24,4,328,PS,exp,43,↑,down,↓,0.6771237000066321,False,10,-1,1,2
Y2-S2-026K24,4,329,PS,exp,36,←,left,←,0.42803060001460835,True,11,-1,0,2
Y2-S2-026K24,4,330,PS,exp,35,↑,up,↑,0.4419034000020474,True,11,-1,0,2
Y2-S2-026K24,4,331,PS,exp,34,→,right,→,0.46106229998986237,True,11,1,1,3
Y2-S2-026K24,4,332,PS,exp,43,↑,up,↑,0.4714154000103008,True,10,1,0,3
Y2-S2-026K24,4,333,PS,exp,25,↓,left,←,0.7876489000045694,False,10,-1,1,4
Y2-S2-026K24,4,334,PS,exp,40,→,right,→,0.7142389000218827,True,11,-1,0,4
Y2-S2-026K24,4,335,PS,exp,49,←,right,→,0.5522530000016559,False,11,-1,0,4
Y2-S2-026K24,4,336,PS,exp,38,↑,left,←,0.807843500020681,False,12,-1,0,4
Y2-S2-026K24,4,337,PS,exp,25,→,right,→,0.6946044999931473,True,13,-1,0,4
Y2-S2-026K24,4,338,PS,exp,31,↓,down,↓,0.5552161000086926,True,13,-1,0,4
Y2-S2-026K24,4,339,PS,exp,29,↑,up,↑,0.6349494000023697,True,13,1,1,5
Y2-S2-026K24,4,340,PS,exp,40,↓,down,↓,0.5438463999889791,True,12,1,0,5
Y2-S2-026K24,4,341,PS,exp,47,↑,up,↑,0.5987527999968734,True,12,1,0,5
Y2-S2-026K24,4,342,PS,exp,29,↓,down,↓,0.5086876999994274,True,12,1,0,5
Y2-S2-026K24,4,343,PS,exp,50,←,left,←,0.4955637000093702,True,11,1,0,5
Y2-S2-026K24,4,344,PS,exp,35,↑,up,↑,0.3911059999954887,True,11,1,0,5
Y2-S2-026K24,4,345,PS,exp,25,↓,down,↓,0.5552061999915168,True,11,1,0,5
Y2-S2-026K24,4,346,PS,exp,37,→,right,→,0.5512309999903664,True,10,1,0,5
Y2-S2-026K24,4,347,PS,exp,29,↑,up,↑,0.43984459998318925,True,10,1,0,5
Y2-S2-026K24,4,348,PS,exp,49,←,left,←,0.4364293000253383,True,10,1,0,5
Y2-S2-026K24,4,349,PS,exp,28,→,right,→,0.6019189000071492,True,9,1,0,5
Y2-S2-026K24,4,350,PS,exp,47,←,left,←,0.6899345999991056,True,9,1,0,5
Y2-S2-026K24,4,351,PS,exp,31,↓,right,→,0.8639017000095919,False,9,-1,1,6
Y2-S2-026K24,4,352,PS,exp,25,→,right,→,0.5311451999878045,True,10,-1,0,6
Y2-S2-026K24,4,353,PS,exp,47,↓,up,↑,0.6276666999910958,False,10,-1,0,6
Y2-S2-026K24,4,354,PS,exp,38,↑,up,↑,0.42693459999281913,True,11,-1,0,6
Y2-S2-026K24,4,355,PS,exp,40,↓,down,↓,0.7994580999948084,True,11,-1,0,6
Y2-S2-026K24,4,356,PS,exp,39,↑,up,↑,0.42051399999763817,True,11,1,1,7
Y2-S2-026K24,4,357,PS,exp,45,↓,left,←,0.6761565000051633,False,10,-1,1,8
Y2-S2-026K24,4,358,PS,exp,32,→,left,←,0.57259470000281,False,11,-1,0,8
Y2-S2-026K24,4,359,PS,exp,40,←,left,←,0.5262560999835841,True,12,-1,0,8
Y2-S2-026K24,4,360,PS,exp,47,↓,down,↓,0.5443681000033394,True,12,-1,0,8
Y2-S2-026K24,4,361,PS,exp,34,→,right,→,0.42707559998962097,True,12,1,1,9
Y2-S2-026K24,4,362,PS,exp,26,←,left,←,0.4707209999905899,True,11,1,0,9
Y2-S2-026K24,4,363,PS,exp,38,↑,up,↑,0.5583241000131238,True,11,1,0,9
Y2-S2-026K24,4,364,PS,exp,42,↓,down,↓,0.5994141999981366,True,11,1,0,9
Y2-S2-026K24,4,365,PS,exp,45,↑,left,←,0.6250468000071123,False,10,-1,1,10
Y2-S2-026K24,4,366,PS,exp,35,↓,down,↓,0.5445433999993838,True,11,-1,0,10
Y2-S2-026K24,4,367,PS,exp,50,↑,up,↑,0.5549713000073098,True,11,-1,0,10
Y2-S2-026K24,4,368,PS,exp,30,→,right,→,0.6165518999914639,True,11,1,1,11
Y2-S2-026K24,4,369,PS,exp,31,←,left,←,0.5394557000254281,True,10,1,0,11
Y2-S2-026K24,4,370,PS,exp,43,→,right,→,0.5133521000097971,True,10,1,0,11
Y2-S2-026K24,4,371,PS,exp,27,↑,right,→,0.5293966000026558,False,10,-1,1,12
Y2-S2-026K24,4,372,PS,exp,29,←,left,←,0.6117042000114452,True,11,-1,0,12
Y2-S2-026K24,4,373,PS,exp,50,↓,up,↑,0.9254621999862138,False,11,-1,0,12
Y2-S2-026K24,4,374,PS,exp,35,↑,up,↑,0.6107359000016004,True,12,-1,0,12
Y2-S2-026K24,4,375,PS,exp,41,←,left,←,0.5867257000063546,True,12,-1,0,12
Y2-S2-026K24,4,376,PS,exp,45,→,left,←,0.6313915999780875,False,12,-1,0,12
Y2-S2-026K24,4,377,PS,exp,43,↑,up,↑,0.4287786000058986,True,13,-1,0,12
Y2-S2-026K24,4,378,PS,exp,36,→,right,→,0.5024241000064649,True,13,-1,0,12
Y2-S2-026K24,4,379,PS,exp,32,↑,right,→,0.6035687999974471,False,13,-1,0,12
Y2-S2-026K24,4,380,PS,exp,40,←,down,↓,0.8998470999940764,False,14,-1,0,12
Y2-S2-026K24,4,381,PS,exp,40,→,right,→,0.5507716999854892,True,15,-1,0,12
Y2-S2-026K24,4,382,PS,exp,41,↓,down,↓,0.677021599985892,True,15,-1,0,12
Y2-S2-026K24,4,383,PS,exp,47,←,left,←,0.5182460999931209,True,15,1,1,13
Y2-S2-026K24,4,384,PS,exp,25,→,left,←,0.502138499985449,False,14,-1,1,14
Y2-S2-026K24,4,385,PS,exp,26,↑,up,↑,0.5519094000046607,True,15,-1,0,14
Y2-S2-026K24,4,386,PS,exp,35,←,left,←,0.4648649000155274,True,15,-1,0,14
Y2-S2-026K24,4,387,PS,exp,25,→,left,←,0.5247562000004109,False,15,-1,0,14
Y2-S2-026K24,4,388,PS,exp,44,↓,down,↓,0.5456106000056025,True,16,-1,0,14
Y2-S2-026K24,4,389,PS,exp,43,↑,up,↑,0.5927264000056311,True,16,-1,0,14
Y2-S2-026K24,4,390,PS,exp,28,↓,down,↓,0.5120231999899261,True,16,1,1,15
Y2-S2-026K24,4,391,PS,exp,27,↑,up,↑,0.5278247999958694,True,15,1,0,15
Y2-S2-026K24,4,392,PS,exp,36,→,right,→,0.5117466000083368,True,15,1,0,15
Y2-S2-026K24,4,393,PS,exp,32,↓,down,↓,0.540707799984375,True,15,1,0,15
Y2-S2-026K24,4,394,PS,exp,38,→,right,→,1.2208969999919645,True,14,1,0,15
Y2-S2-026K24,4,395,PS,exp,46,←,left,←,0.5090517000062391,True,14,1,0,15
Y2-S2-026K24,4,396,PS,exp,42,↑,left,←,0.8402381000050809,False,14,-1,1,16
Y2-S2-026K24,5,397,PS,intra_train,28,←,left,←,0.5683848999906331,True,15,-,-,-
Y2-S2-026K24,5,398,PS,intra_train,38,↑,up,↑,0.521526199998334,True,15,-,-,-
Y2-S2-026K24,5,399,PS,intra_train,35,←,left,←,0.5365057000017259,True,15,-,-,-
Y2-S2-026K24,5,400,PS,intra_train,37,↑,up,↑,0.3831512000178918,True,15,-,-,-
Y2-S2-026K24,5,401,PS,intra_train,43,←,left,←,0.4213348999910522,True,15,-,-,-
Y2-S2-026K24,5,402,PS,exp,28,↑,up,↑,0.6035696000035387,True,10,0,0,0
Y2-S2-026K24,5,403,PS,exp,50,→,right,→,0.49972920000436716,True,10,0,0,0
Y2-S2-026K24,5,404,PS,exp,50,↑,up,↑,0.46343659999547526,True,10,1,0,0
Y2-S2-026K24,5,405,PS,exp,43,→,up,↑,0.5719279999902938,False,9,-1,1,1
Y2-S2-026K24,5,406,PS,exp,27,←,left,←,0.520003599987831,True,10,-1,0,1
Y2-S2-026K24,5,407,PS,exp,37,→,right,→,0.5001868999970611,True,10,-1,0,1
Y2-S2-026K24,5,408,PS,exp,26,↑,right,→,0.7906190999783576,False,10,-1,0,1
Y2-S2-026K24,5,409,PS,exp,46,↓,left,←,0.5358723000099417,False,11,-1,0,1
Y2-S2-026K24,5,410,PS,exp,46,←,left,←,0.5219483000109904,True,12,-1,0,1
Y2-S2-026K24,5,411,PS,exp,41,↑,left,←,0.6617610999965109,False,12,-1,0,1
Y2-S2-026K24,5,412,PS,exp,40,↓,down,↓,0.6191398999944795,True,13,-1,0,1
Y2-S2-026K24,5,413,PS,exp,43,←,left,←,0.5021966000203975,True,13,-1,0,1
Y2-S2-026K24,5,414,PS,exp,35,→,right,→,0.5389828999759629,True,13,1,1,2
Y2-S2-026K24,5,415,PS,exp,50,↑,right,→,0.7532744000200182,False,12,-1,1,3
Y2-S2-026K24,5,416,PS,exp,35,↓,down,↓,0.6155116000154521,True,13,-1,0,3
Y2-S2-026K24,5,417,PS,exp,42,←,left,←,0.5260300999798346,True,13,-1,0,3
Y2-S2-026K24,5,418,PS,exp,41,→,right,→,0.5466049000096973,True,13,1,1,4
Y2-S2-026K24,5,419,PS,exp,39,↑,up,↑,0.5720840999856591,True,12,1,0,4
Y2-S2-026K24,5,420,PS,exp,42,←,left,←,0.44389580001006834,True,12,1,0,4
Y2-S2-026K24,5,421,PS,exp,43,↓,left,←,0.5755395999876782,False,12,-1,1,5
Y2-S2-026K24,5,422,PS,exp,48,→,right,→,0.5072314999997616,True,13,-1,0,5
Y2-S2-026K24,5,423,PS,exp,26,←,left,←,0.5625600000203121,True,13,-1,0,5
Y2-S2-026K24,5,424,PS,exp,41,↓,down,↓,0.5342920000257436,True,13,1,1,6
Y2-S2-026K24,5,425,PS,exp,33,←,down,↓,0.5959450000082143,False,12,-1,1,7
Y2-S2-026K24,5,426,PS,exp,33,→,right,→,0.46029920000000857,True,13,-1,0,7
Y2-S2-026K24,5,427,PS,exp,48,↑,right,→,0.7199576999992132,False,13,-1,0,7
Y2-S2-026K24,5,428,PS,exp,26,←,left,←,0.569820599979721,True,14,-1,0,7
Y2-S2-026K24,5,429,PS,exp,31,↓,down,↓,0.5806987000105437,True,14,-1,0,7
Y2-S2-026K24,5,430,PS,exp,33,→,right,→,0.48526870002388023,True,14,1,1,8
Y2-S2-026K24,5,431,PS,exp,41,←,left,←,0.5356856000144035,True,13,1,0,8
Y2-S2-026K24,5,432,PS,exp,42,↑,up,↑,0.5040936000004876,True,13,1,0,8
Y2-S2-026K24,5,433,PS,exp,31,→,right,→,0.4446925000229385,True,13,1,0,8
Y2-S2-026K24,5,434,PS,exp,50,↓,down,↓,0.5886516000027768,True,12,1,0,8
Y2-S2-026K24,5,435,PS,exp,29,→,right,→,0.4714770000136923,True,12,1,0,8
Y2-S2-026K24,5,436,PS,exp,35,←,left,←,0.5948612999927718,True,12,1,0,8
Y2-S2-026K24,5,437,PS,exp,26,→,left,←,0.5322421000164468,False,11,-1,1,9
Y2-S2-026K24,5,438,PS,exp,31,↑,up,↑,0.46458239998901263,True,12,-1,0,9
Y2-S2-026K24,5,439,PS,exp,42,↓,down,↓,0.8085223000089172,True,12,-1,0,9
Y2-S2-026K24,5,440,PS,exp,47,→,right,→,0.5005370999861043,True,12,1,1,10
Y2-S2-026K24,5,441,PS,exp,41,↓,down,↓,0.5010590000019874,True,11,1,0,10
Y2-S2-026K24,5,442,PS,exp,32,←,left,←,0.4655403000069782,True,11,1,0,10
Y2-S2-026K24,5,443,PS,exp,34,↑,up,↑,0.4562626000260934,True,11,1,0,10
Y2-S2-026K24,5,444,PS,exp,41,→,right,→,0.3938499999931082,True,10,1,0,10
Y2-S2-026K24,5,445,PS,exp,42,↓,down,↓,0.701796999986982,True,10,1,0,10
Y2-S2-026K24,5,446,PS,exp,34,↑,left,←,0.49439810001058504,False,10,-1,1,11
Y2-S2-026K24,5,447,PS,exp,27,←,right,→,0.5828582999820355,False,11,-1,0,11
Y2-S2-026K24,5,448,PS,exp,39,↓,down,↓,0.6694592999992892,True,12,-1,0,11
Y2-S2-026K24,5,449,PS,exp,36,→,right,→,0.44751779999933206,True,12,-1,0,11
Y2-S2-026K24,5,450,PS,exp,43,←,left,←,0.4414735999889672,True,12,1,1,12
Y2-S2-026K24,5,451,PS,exp,50,↑,up,↑,0.5000882000022102,True,11,1,0,12
Y2-S2-026K24,5,452,PS,exp,45,↓,down,↓,0.6099050000193529,True,11,1,0,12
Y2-S2-026K24,5,453,PS,exp,49,→,right,→,0.46914239999023266,True,11,1,0,12
Y2-S2-026K24,5,454,PS,exp,46,←,left,←,0.44874279998475686,True,10,1,0,12
Y2-S2-026K24,5,455,PS,exp,41,↑,up,↑,0.45467289999942295,True,10,1,0,12
Y2-S2-026K24,5,456,PS,exp,31,←,left,←,0.49673740001162514,True,10,1,0,12
Y2-S2-026K24,5,457,PS,exp,35,→,left,←,0.8644472000014503,False,9,-1,1,13
Y2-S2-026K24,5,458,PS,exp,31,←,left,←,0.511395099980291,True,10,-1,0,13
Y2-S2-026K24,5,459,PS,exp,37,↓,down,↓,0.5165879999985918,True,10,-1,0,13
Y2-S2-026K24,5,460,PS,exp,27,←,down,↓,0.6874130999785848,False,10,-1,0,13
Y2-S2-026K24,5,461,PS,exp,44,↓,left,←,0.6731873000098858,False,11,-1,0,13
Y2-S2-026K24,5,462,PS,exp,44,↑,up,↑,0.47998929998720996,True,12,-1,0,13
Y2-S2-026K24,5,463,PS,exp,41,←,left,←,0.499529499997152,True,12,-1,0,13
Y2-S2-026K24,5,464,PS,exp,39,↓,down,↓,0.5927606000041123,True,12,1,1,14
Y2-S2-026K24,5,465,PS,exp,41,←,right,→,0.6200916999951005,False,11,-1,1,15
Y2-S2-026K24,5,466,PS,exp,25,→,left,←,0.5182439000054728,False,12,-1,0,15
Y2-S2-026K24,5,467,PS,exp,48,↓,up,↑,0.6480369000055362,False,13,-1,0,15
Y2-S2-026K24,5,468,PS,exp,34,←,left,←,0.47847600001841784,True,14,-1,0,15
Y2-S2-026K24,5,469,PS,exp,43,→,right,→,0.5021011999924667,True,14,-1,0,15
Y2-S2-026K24,5,470,PS,exp,32,↓,down,↓,0.6326298000058159,True,14,1,1,16
Y2-S2-026K24,6,471,AS,intra_train,25,↑,up,↑,0.584155099990312,True,30,-,-,-
Y2-S2-026K24,6,472,AS,intra_train,34,←,right,→,1.0036679999902844,False,30,-,-,-
Y2-S2-026K24,6,473,AS,intra_train,25,→,left,←,0.45097289999830537,False,30,-,-,-
Y2-S2-026K24,6,474,AS,intra_train,39,↑,up,↑,0.5010337000130676,True,30,-,-,-
Y2-S2-026K24,6,475,AS,intra_train,29,↓,down,↓,0.5508458999975119,True,30,-,-,-
Y2-S2-026K24,6,476,AS,exp,39,↑,up,↑,0.5503792999952566,True,20,0,0,0
Y2-S2-026K24,6,477,AS,exp,45,↓,down,↓,0.583473899983801,True,20,0,0,0
Y2-S2-026K24,6,478,AS,exp,26,←,left,←,0.7252128000254743,True,20,1,0,0
Y2-S2-026K24,6,479,AS,exp,45,↑,up,↑,0.7783581999829039,True,19,1,0,0
Y2-S2-026K24,6,480,AS,exp,44,←,no_key,no_letter,-1.0,False,19,-1,1,1
Y2-S2-026K24,6,481,AS,exp,41,↑,up,↑,0.5831732999940868,True,20,-1,0,1
Y2-S2-026K24,6,482,AS,exp,44,↓,down,↓,0.5198996000108309,True,20,-1,0,1
Y2-S2-026K24,6,483,AS,exp,48,←,right,→,0.6153050999855623,False,20,-1,0,1
Y2-S2-026K24,6,484,AS,exp,27,→,left,←,0.704282000020612,False,21,-1,0,1
Y2-S2-026K24,6,485,AS,exp,44,↑,down,↓,0.6274694000021555,False,22,-1,0,1
Y2-S2-026K24,6,486,AS,exp,36,→,right,→,1.395984500006307,True,23,-1,0,1
Y2-S2-026K24,6,487,AS,exp,50,↑,up,↑,0.5535801000078209,True,23,-1,0,1
Y2-S2-026K24,6,488,AS,exp,44,↓,down,↓,0.7884584999992512,True,23,1,1,2
Y2-S2-026K24,6,489,AS,exp,47,←,left,←,0.5548384000139777,True,22,1,0,2
Y2-S2-026K24,6,490,AS,exp,35,→,right,→,0.5553480999951717,True,22,1,0,2
Y2-S2-026K24,6,491,AS,exp,48,↑,up,↑,1.6571840000106022,True,22,1,0,2
Y2-S2-026K24,6,492,AS,exp,46,↓,down,↓,0.6460307000088505,True,21,1,0,2
Y2-S2-026K24,6,493,AS,exp,50,↑,up,↑,0.6070606999855954,True,21,1,0,2
Y2-S2-026K24,6,494,AS,exp,45,→,right,→,1.077926900004968,True,21,1,0,2
Y2-S2-026K24,6,495,AS,exp,38,←,left,←,0.5831796999846119,True,20,1,0,2
Y2-S2-026K24,6,496,AS,exp,45,↓,up,↑,0.826654199976474,False,20,-1,1,3
Y2-S2-026K24,6,497,AS,exp,37,↑,up,↑,0.5883935999881942,True,21,-1,0,3
Y2-S2-026K24,6,498,AS,exp,42,←,left,←,0.6935626000049524,True,21,-1,0,3
Y2-S2-026K24,6,499,AS,exp,34,→,right,→,0.5378495000186376,True,21,1,1,4
Y2-S2-026K24,6,500,AS,exp,35,↑,up,↑,1.4225916999857873,True,20,1,0,4
Y2-S2-026K24,6,501,AS,exp,26,→,right,→,0.6838886000041384,True,20,1,0,4
Y2-S2-026K24,6,502,AS,exp,47,↑,up,↑,0.5138929999957327,True,20,1,0,4
Y2-S2-026K24,6,503,AS,exp,42,→,left,←,0.5664885999867693,False,19,-1,1,5
Y2-S2-026K24,6,504,AS,exp,39,↑,up,↑,0.6536975000053644,True,20,-1,0,5
Y2-S2-026K24,6,505,AS,exp,31,→,right,→,0.5497555999900214,True,20,-1,0,5
Y2-S2-026K24,6,506,AS,exp,47,↑,down,↓,0.7252444000041578,False,20,-1,0,5
Y2-S2-026K24,6,507,AS,exp,32,→,right,→,0.5967971000063699,True,21,-1,0,5
Y2-S2-026K24,6,508,AS,exp,50,←,left,←,0.5887423999956809,True,21,-1,0,5
Y2-S2-026K24,6,509,AS,exp,29,→,right,→,1.1225195000006352,True,21,1,1,6
Y2-S2-026K24,6,510,AS,exp,26,↑,up,↑,0.5171115999983158,True,20,1,0,6
Y2-S2-026K24,6,511,AS,exp,38,→,right,→,1.0951199000119232,True,20,1,0,6
Y2-S2-026K24,6,512,AS,exp,26,↓,down,↓,0.7607902999734506,True,20,1,0,6
Y2-S2-026K24,6,513,AS,exp,49,↑,up,↑,0.6071595000103116,True,19,1,0,6
Y2-S2-026K24,6,514,AS,exp,43,←,left,←,0.5778219000203535,True,19,1,0,6
Y2-S2-026K24,6,515,AS,exp,33,↑,up,↑,1.1191562000021804,True,19,1,0,6
Y2-S2-026K24,6,516,AS,exp,48,←,left,←,0.8237882999819703,True,18,1,0,6
Y2-S2-026K24,6,517,AS,exp,39,↓,down,↓,0.5160529999993742,True,18,1,0,6
Y2-S2-026K24,6,518,AS,exp,46,←,left,←,0.7452450999990106,True,18,1,0,6
Y2-S2-026K24,6,519,AS,exp,37,↑,up,↑,0.5348221999884117,True,17,1,0,6
Y2-S2-026K24,6,520,AS,exp,37,←,left,←,0.6239615000085905,True,17,1,0,6
Y2-S2-026K24,6,521,AS,exp,41,↑,up,↑,0.5351810000138357,True,17,1,0,6
Y2-S2-026K24,6,522,AS,exp,38,←,left,←,0.5557414999930188,True,16,1,0,6
Y2-S2-026K24,6,523,AS,exp,32,↓,down,↓,0.6133091999799944,True,16,1,0,6
Y2-S2-026K24,6,524,AS,exp,32,→,left,←,0.6539346000063233,False,16,-1,1,7
Y2-S2-026K24,6,525,AS,exp,34,↓,up,↑,0.5592966999975033,False,17,-1,0,7
Y2-S2-026K24,6,526,AS,exp,37,←,right,→,0.6930011000076775,False,18,-1,0,7
Y2-S2-026K24,6,527,AS,exp,50,↓,down,↓,0.6210963999910746,True,19,-1,0,7
Y2-S2-026K24,6,528,AS,exp,30,←,right,→,0.7232967999880202,False,19,-1,0,7
Y2-S2-026K24,6,529,AS,exp,34,↓,down,↓,0.6257287000189535,True,20,-1,0,7
Y2-S2-026K24,6,530,AS,exp,44,→,right,→,0.5187419000139926,True,20,-1,0,7
Y2-S2-026K24,6,531,AS,exp,50,↓,down,↓,0.6626224000065122,True,20,1,1,8
Y2-S2-026K24,6,532,AS,exp,36,→,right,→,1.1703562999900896,True,19,1,0,8
Y2-S2-026K24,6,533,AS,exp,29,↑,up,↑,0.984565399994608,True,19,1,0,8
Y2-S2-026K24,6,534,AS,exp,38,↓,down,↓,0.7110156999842729,True,19,1,0,8
Y2-S2-026K24,6,535,AS,exp,25,→,left,←,0.8062917999923229,False,18,-1,1,9
Y2-S2-026K24,6,536,AS,exp,38,↑,up,↑,0.8208044999919366,True,19,-1,0,9
Y2-S2-026K24,6,537,AS,exp,35,←,right,→,0.6420705000055023,False,19,-1,0,9
Y2-S2-026K24,6,538,AS,exp,38,→,left,←,1.0590488000016194,False,20,-1,0,9
Y2-S2-026K24,6,539,AS,exp,50,↓,down,↓,0.8233798000146635,True,21,-1,0,9
Y2-S2-026K24,6,540,AS,exp,44,→,right,→,0.6285407000104897,True,21,-1,0,9
Y2-S2-026K24,6,541,AS,exp,28,←,left,←,0.5232332000159658,True,21,1,1,10
Y2-S2-026K24,6,542,AS,exp,31,↓,down,↓,0.5862906000111252,True,20,1,0,10
Y2-S2-026K24,6,543,AS,exp,44,↑,up,↑,0.5183277000032831,True,20,1,0,10
Y2-S2-026K24,6,544,AS,exp,42,←,left,←,0.6358660999976564,True,20,1,0,10
Y2-S2-026K24,6,545,AS,exp,50,→,right,→,0.5317835999885574,True,19,1,0,10
Y2-S2-026K24,6,546,AS,exp,35,↓,down,↓,0.5821560999902431,True,19,1,0,10
Y2-S2-026K24,6,547,AS,exp,28,↑,up,↑,0.5466795999964233,True,19,1,0,10
Y2-S2-026K24,6,548,AS,exp,43,←,down,↓,0.6171793999965303,False,18,-1,1,11
Y2-S2-026K24,6,549,AS,exp,47,↑,up,↑,0.5289947999990545,True,19,-1,0,11
Y2-S2-026K24,6,550,AS,exp,34,←,left,←,0.7586185999971349,True,19,-1,0,11
Y2-S2-026K24,6,551,AS,exp,35,→,right,→,0.5853904999967199,True,19,1,1,12
Y2-S2-026K24,6,552,AS,exp,34,↓,down,↓,0.5898238000227138,True,18,1,0,12
Y2-S2-026K24,6,553,AS,exp,45,↑,up,↑,0.5150880999863148,True,18,1,0,12
Y2-S2-026K24,6,554,AS,exp,30,↓,down,↓,0.5729251999873668,True,18,1,0,12
Y2-S2-026K24,6,555,AS,exp,40,↑,up,↑,0.49809380000806414,True,17,1,0,12
Y2-S2-026K24,6,556,AS,exp,37,←,right,→,0.6077268999943044,False,17,-1,1,13
Y2-S2-026K24,6,557,AS,exp,42,↑,up,↑,0.5112176999973599,True,18,-1,0,13
Y2-S2-026K24,6,558,AS,exp,50,→,left,←,0.5745613000181038,False,18,-1,0,13
Y2-S2-026K24,6,559,AS,exp,25,←,left,←,0.7416204999899492,True,19,-1,0,13
Y2-S2-026K24,6,560,AS,exp,30,→,right,→,1.327901499986183,True,19,-1,0,13
Y2-S2-026K24,6,561,AS,exp,28,↓,up,↑,0.8347361999913119,False,19,-1,0,13
Y2-S2-026K24,6,562,AS,exp,47,→,right,→,0.8012545000237878,True,20,-1,0,13
Y2-S2-026K24,6,563,AS,exp,41,←,left,←,0.5871678000257816,True,20,-1,0,13
Y2-S2-026K24,6,564,AS,exp,31,↓,down,↓,0.835440099996049,True,20,1,1,14
Y2-S2-026K24,6,565,AS,exp,37,→,right,→,0.5887151999922935,True,19,1,0,14
Y2-S2-026K24,6,566,AS,exp,41,↑,up,↑,0.56021779999719,True,19,1,0,14
Y2-S2-026K24,6,567,AS,exp,41,←,left,←,0.5458606999891344,True,19,1,0,14
Y2-S2-026K24,6,568,AS,exp,37,↑,up,↑,0.4810298999946099,True,18,1,0,14
Y2-S2-026K24,6,569,AS,exp,37,→,right,→,0.5205793000059202,True,18,1,0,14
Y2-S2-026K24,6,570,AS,exp,42,↓,down,↓,0.5923180000099819,True,18,1,0,14
Y2-S2-026K24,6,571,AS,exp,41,↑,up,↑,0.5012728000001516,True,17,1,0,14
Y2-S2-026K24,6,572,AS,exp,42,→,right,→,0.7020525000116322,True,17,1,0,14
Y2-S2-026K24,6,573,AS,exp,27,↑,up,↑,0.5787443000008352,True,17,1,0,14
Y2-S2-026K24,6,574,AS,exp,47,→,right,→,0.48943219997454435,True,16,1,0,14
Y2-S2-026K24,6,575,AS,exp,25,↑,down,↓,0.9422373000124935,False,16,-1,1,15
Y2-S2-026K24,6,576,AS,exp,49,→,right,→,0.5299630000081379,True,17,-1,0,15
Y2-S2-026K24,6,577,AS,exp,35,←,left,←,0.7761047000240069,True,17,-1,0,15
Y2-S2-026K24,6,578,AS,exp,50,↓,down,↓,0.5790698000055272,True,17,1,1,16
Y2-S2-026K24,7,579,AS,intra_train,42,↑,up,↑,1.5025996000040323,True,30,-,-,-
Y2-S2-026K24,7,580,AS,intra_train,41,→,right,→,0.4840769000002183,True,30,-,-,-
Y2-S2-026K24,7,581,AS,intra_train,46,↑,up,↑,0.4839030000148341,True,30,-,-,-
Y2-S2-026K24,7,582,AS,intra_train,43,↓,down,↓,0.7135357999941334,True,30,-,-,-
Y2-S2-026K24,7,583,AS,intra_train,39,←,left,←,0.5669032000005245,True,30,-,-,-
Y2-S2-026K24,7,584,AS,exp,36,→,up,↑,0.21768339999835007,False,20,-1,0,0
Y2-S2-026K24,7,585,AS,exp,33,↑,up,↑,0.5884786999959033,True,21,-1,0,0
Y2-S2-026K24,7,586,AS,exp,25,←,left,←,1.3402789999963716,True,21,-1,0,0
Y2-S2-026K24,7,587,AS,exp,32,→,right,→,0.4843224000069313,True,21,1,1,1
Y2-S2-026K24,7,588,AS,exp,35,←,left,←,0.5988018000207376,True,20,1,0,1
Y2-S2-026K24,7,589,AS,exp,33,↓,down,↓,0.5331443999893963,True,20,1,0,1
Y2-S2-026K24,7,590,AS,exp,44,→,right,→,0.7368879000132438,True,20,1,0,1
Y2-S2-026K24,7,591,AS,exp,37,↑,down,↓,0.8463433999859262,False,19,-1,1,2
Y2-S2-026K24,7,592,AS,exp,50,→,right,→,0.5395423000154551,True,20,-1,0,2
Y2-S2-026K24,7,593,AS,exp,33,←,left,←,0.6120455999916885,True,20,-1,0,2
Y2-S2-026K24,7,594,AS,exp,34,↓,down,↓,1.0097393000032753,True,20,1,1,3
Y2-S2-026K24,7,595,AS,exp,45,→,right,→,0.6460468999866862,True,19,1,0,3
Y2-S2-026K24,7,596,AS,exp,31,↓,down,↓,0.6811787000042386,True,19,1,0,3
Y2-S2-026K24,7,597,AS,exp,45,←,left,←,0.5330462999991141,True,19,1,0,3
Y2-S2-026K24,7,598,AS,exp,40,↓,down,↓,0.5757444000046235,True,18,1,0,3
Y2-S2-026K24,7,599,AS,exp,45,↑,up,↑,0.5260936999984551,True,18,1,0,3
Y2-S2-026K24,7,600,AS,exp,50,←,left,←,0.5091497999965213,True,18,1,0,3
Y2-S2-026K24,7,601,AS,exp,44,↓,down,↓,0.6199375999858603,True,17,1,0,3
Y2-S2-026K24,7,602,AS,exp,27,↑,up,↑,0.4005038999894168,True,17,1,0,3
Y2-S2-026K24,7,603,AS,exp,35,→,right,→,0.5102595999778714,True,17,1,0,3
Y2-S2-026K24,7,604,AS,exp,29,↑,up,↑,1.0064986000070348,True,16,1,0,3
Y2-S2-026K24,7,605,AS,exp,37,↓,down,↓,1.4449259999964852,True,16,1,0,3
Y2-S2-026K24,7,606,AS,exp,49,→,right,→,0.46202530001755804,True,16,1,0,3
Y2-S2-026K24,7,607,AS,exp,41,↑,up,↑,0.45725979999406263,True,15,1,0,3
Y2-S2-026K24,7,608,AS,exp,44,←,right,→,0.6366143000195734,False,15,-1,1,4
Y2-S2-026K24,7,609,AS,exp,26,→,down,↓,0.9548841000068933,False,16,-1,0,4
Y2-S2-026K24,7,610,AS,exp,37,↑,up,↑,0.51542729997891,True,17,-1,0,4
Y2-S2-026K24,7,611,AS,exp,42,→,right,→,0.5216717000002973,True,17,-1,0,4
Y2-S2-026K24,7,612,AS,exp,40,←,right,→,0.6111811999871861,False,17,-1,0,4
Y2-S2-026K24,7,613,AS,exp,30,↓,down,↓,0.5781842000142206,True,18,-1,0,4
Y2-S2-026K24,7,614,AS,exp,30,→,left,←,0.5438857999979518,False,18,-1,0,4
Y2-S2-026K24,7,615,AS,exp,47,↓,down,↓,0.5461345999792684,True,19,-1,0,4
Y2-S2-026K24,7,616,AS,exp,39,→,down,↓,0.6689329000073485,False,19,-1,0,4
Y2-S2-026K24,7,617,AS,exp,27,↑,up,↑,0.5251600000192411,True,20,-1,0,4
Y2-S2-026K24,7,618,AS,exp,47,←,left,←,0.6710106999962591,True,20,-1,0,4
Y2-S2-026K24,7,619,AS,exp,42,→,right,→,0.6602172000275459,True,20,1,1,5
Y2-S2-026K24,7,620,AS,exp,41,↓,down,↓,0.6032332000031602,True,19,1,0,5
Y2-S2-026K24,7,621,AS,exp,36,→,right,→,0.7041861000179779,True,19,1,0,5
Y2-S2-026K24,7,622,AS,exp,43,←,left,←,0.6022527000168338,True,19,1,0,5
Y2-S2-026K24,7,623,AS,exp,28,→,left,←,0.9058785999950487,False,18,-1,1,6
Y2-S2-026K24,7,624,AS,exp,32,↓,down,↓,0.5611745000060182,True,19,-1,0,6
Y2-S2-026K24,7,625,AS,exp,33,↑,up,↑,0.5636612999951467,True,19,-1,0,6
Y2-S2-026K24,7,626,AS,exp,40,↓,down,↓,0.4900863000075333,True,19,1,1,7
Y2-S2-026K24,7,627,AS,exp,41,→,right,→,1.4644305999972858,True,18,1,0,7
Y2-S2-026K24,7,628,AS,exp,39,←,left,←,0.5188820000039414,True,18,1,0,7
Y2-S2-026K24,7,629,AS,exp,49,→,right,→,1.355220299999928,True,18,1,0,7
Y2-S2-026K24,7,630,AS,exp,28,↑,up,↑,1.0540555999905337,True,17,1,0,7
Y2-S2-026K24,7,631,AS,exp,29,←,left,←,0.4877347000001464,True,17,1,0,7
Y2-S2-026K24,7,632,AS,exp,29,→,right,→,0.4618716000113636,True,17,1,0,7
Y2-S2-026K24,7,633,AS,exp,47,←,left,←,0.6881744000129402,True,16,1,0,7
Y2-S2-026K24,7,634,AS,exp,46,↓,right,→,0.6961478999874089,False,16,-1,1,8
Y2-S2-026K24,7,635,AS,exp,35,→,left,←,0.5982790999987628,False,17,-1,0,8
Y2-S2-026K24,7,636,AS,exp,38,←,left,←,0.7090232000045944,True,18,-1,0,8
Y2-S2-026K24,7,637,AS,exp,47,→,left,←,0.6786086999927647,False,18,-1,0,8
Y2-S2-026K24,7,638,AS,exp,40,↑,up,↑,0.6350782999943476,True,19,-1,0,8
Y2-S2-026K24,7,639,AS,exp,25,↓,down,↓,0.6498263000103179,True,19,-1,0,8
Y2-S2-026K24,7,640,AS,exp,26,↑,up,↑,0.5191442999930587,True,19,1,1,9
Y2-S2-026K24,7,641,AS,exp,38,→,left,←,0.7211696000013035,False,18,-1,1,10
Y2-S2-026K24,7,642,AS,exp,35,↑,up,↑,0.55481490000966,True,19,-1,0,10
Y2-S2-026K24,7,643,AS,exp,38,↓,down,↓,0.5931828999891877,True,19,-1,0,10
Y2-S2-026K24,7,644,AS,exp,37,←,left,←,0.4888024000101723,True,19,1,1,11
Y2-S2-026K24,7,645,AS,exp,37,→,left,←,0.6098482000234071,False,18,-1,1,12
Y2-S2-026K24,7,646,AS,exp,31,←,left,←,0.506813299987698,True,19,-1,0,12
Y2-S2-026K24,7,647,AS,exp,41,↓,down,↓,0.5703107999870554,True,19,-1,0,12
Y2-S2-026K24,7,648,AS,exp,38,←,left,←,0.7366509000130463,True,19,1,1,13
Y2-S2-026K24,7,649,AS,exp,37,↓,down,↓,0.5558182999957353,True,18,1,0,13
Y2-S2-026K24,7,650,AS,exp,27,↑,up,↑,0.4995224000012968,True,18,1,0,13
Y2-S2-026K24,7,651,AS,exp,38,↓,left,←,0.6468518000037875,False,18,-1,1,14
Y2-S2-026K24,7,652,AS,exp,50,←,left,←,1.1498349999892525,True,19,-1,0,14
Y2-S2-026K24,7,653,AS,exp,39,→,left,←,0.5044553000188898,False,19,-1,0,14
Y2-S2-026K24,7,654,AS,exp,43,←,left,←,0.5195971000066493,True,20,-1,0,14
Y2-S2-026K24,7,655,AS,exp,25,↓,down,↓,0.6342616000038106,True,20,-1,0,14
Y2-S2-026K24,7,656,AS,exp,41,→,left,←,0.5477031999907922,False,20,-1,0,14
Y2-S2-026K24,7,657,AS,exp,30,↓,down,↓,0.7819289999897592,True,21,-1,0,14
Y2-S2-026K24,7,658,AS,exp,32,→,right,→,0.6690137000114191,True,21,-1,0,14
Y2-S2-026K24,7,659,AS,exp,44,↑,up,↑,0.689812399999937,True,21,1,1,15
Y2-S2-026K24,7,660,AS,exp,40,→,right,→,0.5826639000151772,True,20,1,0,15
Y2-S2-026K24,7,661,AS,exp,27,↓,down,↓,0.5474855000211392,True,20,1,0,15
Y2-S2-026K24,7,662,AS,exp,48,←,left,←,0.7235225000185892,True,20,1,0,15
Y2-S2-026K24,7,663,AS,exp,34,↓,down,↓,0.6522307000122964,True,19,1,0,15
Y2-S2-026K24,7,664,AS,exp,46,→,right,→,0.4930463999917265,True,19,1,0,15
Y2-S2-026K24,7,665,AS,exp,41,↓,down,↓,0.5182797999877948,True,19,1,0,15
Y2-S2-026K24,7,666,AS,exp,27,↑,up,↑,0.5581260000180919,True,18,1,0,15
Y2-S2-026K24,7,667,AS,exp,30,↓,up,↑,0.5075494000047911,False,18,-1,1,16
Y2-S2-026K24,8,668,PS,intra_train,46,→,right,→,0.6563497000024654,True,15,-,-,-
Y2-S2-026K24,8,669,PS,intra_train,37,↓,down,↓,0.549213200021768,True,15,-,-,-
Y2-S2-026K24,8,670,PS,intra_train,28,→,right,→,0.47662460000719875,True,15,-,-,-
Y2-S2-026K24,8,671,PS,intra_train,25,←,down,↓,1.0964607000059914,False,15,-,-,-
Y2-S2-026K24,8,672,PS,intra_train,36,↑,up,↑,0.549526099988725,True,15,-,-,-
Y2-S2-026K24,8,673,PS,exp,41,←,left,←,0.5863930000050459,True,10,0,0,0
Y2-S2-026K24,8,674,PS,exp,30,→,left,←,0.7275330999982543,False,10,-1,0,0
Y2-S2-026K24,8,675,PS,exp,30,↓,right,→,0.6589960000128485,False,11,-1,0,0
Y2-S2-026K24,8,676,PS,exp,45,↑,up,↑,0.48117730001104064,True,12,-1,0,0
Y2-S2-026K24,8,677,PS,exp,27,←,left,←,0.5391262000193819,True,12,-1,0,0
Y2-S2-026K24,8,678,PS,exp,34,↑,up,↑,0.6252501999842934,True,12,1,1,1
Y2-S2-026K24,8,679,PS,exp,33,→,right,→,0.4408263999794144,True,11,1,0,1
Y2-S2-026K24,8,680,PS,exp,45,↓,down,↓,0.6661745999881532,True,11,1,0,1
Y2-S2-026K24,8,681,PS,exp,36,←,left,←,0.5006314999773167,True,11,1,0,1
Y2-S2-026K24,8,682,PS,exp,29,↓,left,←,0.7387961999920662,False,10,-1,1,2
Y2-S2-026K24,8,683,PS,exp,36,↑,up,↑,0.5344370999955572,True,11,-1,0,2
Y2-S2-026K24,8,684,PS,exp,29,→,right,→,0.4430955999996513,True,11,-1,0,2
Y2-S2-026K24,8,685,PS,exp,47,↑,up,↑,0.4634898000222165,True,11,1,1,3
Y2-S2-026K24,8,686,PS,exp,26,←,left,←,0.4604187000077218,True,10,1,0,3
Y2-S2-026K24,8,687,PS,exp,36,→,down,↓,1.125794199993834,False,10,-1,1,4
Y2-S2-026K24,8,688,PS,exp,34,↑,up,↑,0.4784059000085108,True,11,-1,0,4
Y2-S2-026K24,8,689,PS,exp,27,↓,right,→,0.6381271000136621,False,11,-1,0,4
Y2-S2-026K24,8,690,PS,exp,41,↑,up,↑,0.5661510000063572,True,12,-1,0,4
Y2-S2-026K24,8,691,PS,exp,35,→,right,→,0.721531999995932,True,12,-1,0,4
Y2-S2-026K24,8,692,PS,exp,48,↓,down,↓,0.49771540000801906,True,12,1,1,5
Y2-S2-026K24,8,693,PS,exp,34,↑,up,↑,0.510564099997282,True,11,1,0,5
Y2-S2-026K24,8,694,PS,exp,44,→,left,←,0.6510211999993771,False,11,-1,1,6
Y2-S2-026K24,8,695,PS,exp,35,↑,up,↑,0.46571119999862276,True,12,-1,0,6
Y2-S2-026K24,8,696,PS,exp,38,→,right,→,0.5191399000177626,True,12,-1,0,6
Y2-S2-026K24,8,697,PS,exp,34,↓,left,←,0.5573529000103008,False,12,-1,0,6
Y2-S2-026K24,8,698,PS,exp,25,↑,up,↑,0.4934611000062432,True,13,-1,0,6
Y2-S2-026K24,8,699,PS,exp,45,←,left,←,0.5080863999901339,True,13,-1,0,6
Y2-S2-026K24,8,700,PS,exp,44,→,right,→,0.4296611000027042,True,13,1,1,7
Y2-S2-026K24,8,701,PS,exp,29,↑,left,←,0.9414480999985244,False,12,-1,1,8
Y2-S2-026K24,8,702,PS,exp,47,↓,down,↓,0.8455613999976777,True,13,-1,0,8
Y2-S2-026K24,8,703,PS,exp,32,←,left,←,0.4823137999919709,True,13,-1,0,8
Y2-S2-026K24,8,704,PS,exp,32,↑,up,↑,0.4353214000002481,True,13,1,1,9
Y2-S2-026K24,8,705,PS,exp,43,→,right,→,0.3941332000249531,True,12,1,0,9
Y2-S2-026K24,8,706,PS,exp,40,←,left,←,0.5974096999852918,True,12,1,0,9
Y2-S2-026K24,8,707,PS,exp,46,↑,up,↑,0.4122417000180576,True,12,1,0,9
Y2-S2-026K24,8,708,PS,exp,33,↓,down,↓,0.4803922999999486,True,11,1,0,9
Y2-S2-026K24,8,709,PS,exp,47,←,down,↓,0.5315824999997858,False,11,-1,1,10
Y2-S2-026K24,8,710,PS,exp,39,→,left,←,0.5573363000003155,False,12,-1,0,10
Y2-S2-026K24,8,711,PS,exp,35,↑,left,←,0.7460207999974955,False,13,-1,0,10
Y2-S2-026K24,8,712,PS,exp,39,→,right,→,0.48397870000917464,True,14,-1,0,10
Y2-S2-026K24,8,713,PS,exp,48,↓,left,←,0.5973222000175156,False,14,-1,0,10
Y2-S2-026K24,8,714,PS,exp,33,→,down,↓,0.7782342999998946,False,15,-1,0,10
Y2-S2-026K24,8,715,PS,exp,28,←,up,↑,1.1149956000153907,False,16,-1,0,10
Y2-S2-026K24,8,716,PS,exp,35,↑,left,←,0.5605272999964654,False,17,-1,0,10
Y2-S2-026K24,8,717,PS,exp,49,←,no_key,no_letter,-1.0,False,18,-1,0,10
Y2-S2-026K24,8,718,PS,exp,43,↓,right,→,0.4996588999929372,False,19,-1,0,10
Y2-S2-026K24,8,719,PS,exp,28,↑,up,↑,0.5123175000189804,True,20,-1,0,10
Y2-S2-026K24,8,720,PS,exp,33,↓,down,↓,0.7108738000097219,True,20,-1,0,10
Y2-S2-026K24,8,721,PS,exp,40,→,right,→,0.4506781999953091,True,20,1,1,11
Y2-S2-026K24,8,722,PS,exp,36,←,left,←,0.5365550999995321,True,19,1,0,11
Y2-S2-026K24,8,723,PS,exp,36,↓,down,↓,0.6921535000146832,True,19,1,0,11
Y2-S2-026K24,8,724,PS,exp,37,←,left,←,0.4999485000153072,True,19,1,0,11
Y2-S2-026K24,8,725,PS,exp,44,→,right,→,0.5143058999965433,True,18,1,0,11
Y2-S2-026K24,8,726,PS,exp,38,↓,down,↓,0.49693910000496544,True,18,1,0,11
Y2-S2-026K24,8,727,PS,exp,25,←,left,←,0.6104541999811772,True,18,1,0,11
Y2-S2-026K24,8,728,PS,exp,27,→,right,→,0.5391152999945916,True,17,1,0,11
Y2-S2-026K24,8,729,PS,exp,43,↑,up,↑,0.4917518000002019,True,17,1,0,11
Y2-S2-026K24,8,730,PS,exp,28,→,right,→,0.5015852000215091,True,17,1,0,11
Y2-S2-026K24,8,731,PS,exp,36,←,left,←,0.6742492000048514,True,16,1,0,11
Y2-S2-026K24,8,732,PS,exp,34,↓,down,↓,0.515609800000675,True,16,1,0,11
Y2-S2-026K24,8,733,PS,exp,29,→,right,→,0.4676755999971647,True,16,1,0,11
Y2-S2-026K24,8,734,PS,exp,45,↓,right,→,0.5430044999811798,False,15,-1,1,12
Y2-S2-026K24,8,735,PS,exp,41,↑,up,↑,0.6210957999865059,True,16,-1,0,12
Y2-S2-026K24,8,736,PS,exp,42,→,right,→,0.532589199981885,True,16,-1,0,12
Y2-S2-026K24,8,737,PS,exp,48,↓,down,↓,0.5191788999945857,True,16,1,1,13
Y2-S2-026K24,8,738,PS,exp,31,←,left,←,0.6016843999968842,True,15,1,0,13
Y2-S2-026K24,8,739,PS,exp,26,↓,left,←,0.7259019000048283,False,15,-1,1,14
Y2-S2-026K24,8,740,PS,exp,37,↑,down,↓,0.7473431999969762,False,16,-1,0,14
Y2-S2-026K24,8,741,PS,exp,46,→,right,→,0.4946109000011347,True,17,-1,0,14
Y2-S2-026K24,8,742,PS,exp,48,↓,down,↓,0.6617370000167284,True,17,-1,0,14
Y2-S2-026K24,8,743,PS,exp,42,↑,up,↑,0.5679882999975234,True,17,1,1,15
Y2-S2-026K24,8,744,PS,exp,38,→,right,→,0.458086300001014,True,16,1,0,15
Y2-S2-026K24,8,745,PS,exp,32,←,left,←,1.1044167000218295,True,16,1,0,15
Y2-S2-026K24,8,746,PS,exp,46,↓,down,↓,0.534816100000171,True,16,1,0,15
Y2-S2-026K24,8,747,PS,exp,49,←,right,→,0.7094722999900114,False,15,-1,1,16
