PART_ID,Block_no,Trial_no,Block_type,Trial_type,CSI,Stim_letter,Key_pressed,letter_choose,Rt,Corr,Stimulus Time,Level,Reversal,Revs_count
Y2-S2-240K20,1,1,PS,train,25,→,right,→,0.468083499930799,True,30,-,-,-
Y2-S2-240K20,1,2,PS,train,40,↑,up,↑,0.45101260021328926,True,30,-,-,-
Y2-S2-240K20,1,3,PS,train,47,↓,up,↑,0.3177835997194052,False,30,-,-,-
Y2-S2-240K20,1,4,PS,train,29,→,right,→,0.5506782000884414,True,30,-,-,-
Y2-S2-240K20,1,5,PS,train,42,↓,down,↓,0.5338951000012457,True,30,-,-,-
Y2-S2-240K20,1,6,PS,train,50,←,left,←,0.43480069981887937,True,30,-,-,-
Y2-S2-240K20,1,7,PS,train,50,→,right,→,0.6172881000675261,True,30,-,-,-
Y2-S2-240K20,1,8,PS,train,44,↑,up,↑,0.5511622000485659,True,30,-,-,-
Y2-S2-240K20,1,9,PS,train,26,↓,down,↓,0.5174761000089347,True,30,-,-,-
Y2-S2-240K20,1,10,PS,train,47,←,left,←,0.40091219963505864,True,30,-,-,-
Y2-S2-240K20,2,11,AS,train,45,↓,down,↓,0.5176309999078512,True,45,-,-,-
Y2-S2-240K20,2,12,AS,train,32,←,left,←,0.5668629999272525,True,45,-,-,-
Y2-S2-240K20,2,13,AS,train,37,→,right,→,0.5843533999286592,True,45,-,-,-
Y2-S2-240K20,2,14,AS,train,31,←,left,←,0.6176064000464976,True,45,-,-,-
Y2-S2-240K20,2,15,AS,train,37,↓,down,↓,0.5680070002563298,True,45,-,-,-
Y2-S2-240K20,2,16,AS,train,37,↑,down,↓,0.46788319991901517,False,45,-,-,-
Y2-S2-240K20,2,17,AS,train,38,→,right,→,0.7015851000323892,True,45,-,-,-
Y2-S2-240K20,2,18,AS,train,33,↓,down,↓,0.6514098001644015,True,45,-,-,-
Y2-S2-240K20,2,19,AS,train,36,←,left,←,0.4010913004167378,True,45,-,-,-
Y2-S2-240K20,2,20,AS,train,46,↓,down,↓,0.767244300339371,True,45,-,-,-
Y2-S2-240K20,-,21,PS,adaptive,44,→,right,→,0.41556069999933243,True,10,0,0,0
Y2-S2-240K20,-,22,PS,adaptive,26,↑,up,↑,0.36045460030436516,True,10,0,0,0
Y2-S2-240K20,-,23,PS,adaptive,34,←,left,←,0.4558458002284169,True,10,1,0,0
Y2-S2-240K20,-,24,PS,adaptive,43,→,down,↓,0.3881369000300765,False,9,-1,1,1
Y2-S2-240K20,-,25,PS,adaptive,45,←,left,←,0.3705596998333931,True,10,-1,0,1
Y2-S2-240K20,-,26,PS,adaptive,32,→,down,↓,0.4267674000002444,False,10,-1,0,1
Y2-S2-240K20,-,27,PS,adaptive,31,←,left,←,0.4651144999079406,True,11,-1,0,1
Y2-S2-240K20,-,28,PS,adaptive,39,↓,left,←,0.6070233997888863,False,11,-1,0,1
Y2-S2-240K20,-,29,PS,adaptive,39,↑,up,↑,0.4106350000947714,True,12,-1,0,1
Y2-S2-240K20,-,30,PS,adaptive,50,↓,down,↓,0.5003948002122343,True,12,-1,0,1
Y2-S2-240K20,-,31,PS,adaptive,42,→,right,→,0.4117690999992192,True,12,1,1,2
Y2-S2-240K20,-,32,PS,adaptive,42,↑,up,↑,0.5147552997805178,True,11,1,0,2
Y2-S2-240K20,-,33,PS,adaptive,27,→,right,→,0.38590139988809824,True,11,1,0,2
Y2-S2-240K20,-,34,PS,adaptive,47,←,left,←,0.375755799934268,True,11,1,0,2
Y2-S2-240K20,-,35,PS,adaptive,35,↓,down,↓,0.4371033003553748,True,10,1,0,2
Y2-S2-240K20,-,36,PS,adaptive,31,↑,up,↑,0.3874695999547839,True,10,1,0,2
Y2-S2-240K20,-,37,PS,adaptive,29,↓,down,↓,0.4891452002339065,True,10,1,0,2
Y2-S2-240K20,-,38,PS,adaptive,45,←,left,←,0.36892540007829666,True,9,1,0,2
Y2-S2-240K20,-,39,PS,adaptive,46,↓,down,↓,0.4430088000372052,True,9,1,0,2
Y2-S2-240K20,-,40,PS,adaptive,40,↑,up,↑,0.5218198001384735,True,9,1,0,2
Y2-S2-240K20,-,41,PS,adaptive,26,↓,down,↓,0.4405777002684772,True,8,1,0,2
Y2-S2-240K20,-,42,PS,adaptive,48,→,left,←,0.5086835999973118,False,8,-1,1,3
Y2-S2-240K20,-,43,PS,adaptive,46,←,left,←,0.37416760018095374,True,9,-1,0,3
Y2-S2-240K20,-,44,PS,adaptive,25,↓,down,↓,0.41985630011186004,True,9,-1,0,3
Y2-S2-240K20,-,45,PS,adaptive,31,←,left,←,0.4157789000310004,True,9,1,1,4
Y2-S2-240K20,-,46,AS,adaptive,42,↓,down,↓,0.5882366998121142,True,20,0,0,0
Y2-S2-240K20,-,47,AS,adaptive,28,→,right,→,0.4009513999335468,True,20,0,0,0
Y2-S2-240K20,-,48,AS,adaptive,32,↑,down,↓,0.5311557999812067,False,20,-1,0,0
Y2-S2-240K20,-,49,AS,adaptive,32,↓,down,↓,0.4339850000105798,True,21,-1,0,0
Y2-S2-240K20,-,50,AS,adaptive,33,↑,up,↑,0.6777931996621192,True,21,-1,0,0
Y2-S2-240K20,-,51,AS,adaptive,41,↓,down,↓,0.6682000998407602,True,21,1,1,1
Y2-S2-240K20,-,52,AS,adaptive,37,→,right,→,0.35049259988591075,True,20,1,0,1
Y2-S2-240K20,-,53,AS,adaptive,26,↑,up,↑,0.35084869991987944,True,20,1,0,1
Y2-S2-240K20,-,54,AS,adaptive,39,↓,down,↓,0.8329038000665605,True,20,1,0,1
Y2-S2-240K20,-,55,AS,adaptive,45,←,right,→,0.5510665001347661,False,19,-1,1,2
Y2-S2-240K20,-,56,AS,adaptive,28,↑,up,↑,0.5421853000298142,True,20,-1,0,2
Y2-S2-240K20,-,57,AS,adaptive,47,→,left,←,0.7194406003691256,False,20,-1,0,2
Y2-S2-240K20,-,58,AS,adaptive,39,↓,down,↓,0.7142696999944746,True,21,-1,0,2
Y2-S2-240K20,-,59,AS,adaptive,29,↑,up,↑,0.585814599879086,True,21,-1,0,2
Y2-S2-240K20,-,60,AS,adaptive,50,→,left,←,0.532010099850595,False,21,-1,0,2
Y2-S2-240K20,-,61,AS,adaptive,48,←,left,←,0.5917108999565244,True,22,-1,0,2
Y2-S2-240K20,-,62,AS,adaptive,34,↓,down,↓,0.668816199991852,True,22,-1,0,2
Y2-S2-240K20,-,63,AS,adaptive,37,→,right,→,0.4171457998454571,True,22,1,1,3
Y2-S2-240K20,-,64,AS,adaptive,30,↓,down,↓,0.4506407999433577,True,21,1,0,3
Y2-S2-240K20,-,65,AS,adaptive,48,↑,up,↑,0.7041922998614609,True,21,1,0,3
Y2-S2-240K20,-,66,AS,adaptive,27,→,right,→,0.48385880002751946,True,21,1,0,3
Y2-S2-240K20,-,67,AS,adaptive,49,↓,down,↓,0.6764998999424279,True,20,1,0,3
Y2-S2-240K20,-,68,AS,adaptive,50,↑,up,↑,0.6225189999677241,True,20,1,0,3
Y2-S2-240K20,-,69,AS,adaptive,43,↓,down,↓,0.5971325999125838,True,20,1,0,3
Y2-S2-240K20,-,70,AS,adaptive,32,→,right,→,1.0261813001707196,True,19,1,0,3
Y2-S2-240K20,-,71,AS,adaptive,28,↑,up,↑,0.6644648001529276,True,19,1,0,3
Y2-S2-240K20,-,72,AS,adaptive,41,←,left,←,0.4175550998188555,True,19,1,0,3
Y2-S2-240K20,-,73,AS,adaptive,49,↑,left,←,0.70620740018785,False,18,-1,1,4
Y2-S2-240K20,1,74,AS,intra_train,33,→,right,→,0.5342728001996875,True,28,-,-,-
Y2-S2-240K20,1,75,AS,intra_train,48,↑,right,→,0.5172636997886002,False,28,-,-,-
Y2-S2-240K20,1,76,AS,intra_train,34,→,right,→,1.2592074000276625,True,28,-,-,-
Y2-S2-240K20,1,77,AS,intra_train,48,↓,down,↓,0.6536484998650849,True,28,-,-,-
Y2-S2-240K20,1,78,AS,intra_train,44,←,left,←,0.48420169996097684,True,28,-,-,-
Y2-S2-240K20,1,79,AS,exp,41,↑,up,↑,0.5815832000225782,True,19,0,0,0
Y2-S2-240K20,1,80,AS,exp,47,→,right,→,0.450513799674809,True,19,0,0,0
Y2-S2-240K20,1,81,AS,exp,39,↑,up,↑,0.5999505999498069,True,19,1,0,0
Y2-S2-240K20,1,82,AS,exp,49,↓,down,↓,1.1958035002462566,True,18,1,0,0
Y2-S2-240K20,1,83,AS,exp,28,→,right,→,0.38410660019144416,True,18,1,0,0
Y2-S2-240K20,1,84,AS,exp,41,←,left,←,0.6028518001548946,True,18,1,0,0
Y2-S2-240K20,1,85,AS,exp,48,↓,down,↓,0.6045520999468863,True,17,1,0,0
Y2-S2-240K20,1,86,AS,exp,37,←,left,←,0.40069920010864735,True,17,1,0,0
Y2-S2-240K20,1,87,AS,exp,48,↓,down,↓,1.0543645001016557,True,17,1,0,0
Y2-S2-240K20,1,88,AS,exp,27,←,right,→,0.9667000998742878,False,16,-1,1,1
Y2-S2-240K20,1,89,AS,exp,28,→,right,→,0.580069400370121,True,17,-1,0,1
Y2-S2-240K20,1,90,AS,exp,30,↓,down,↓,0.41731519997119904,True,17,-1,0,1
Y2-S2-240K20,1,91,AS,exp,28,←,left,←,0.3511736001819372,True,17,1,1,2
Y2-S2-240K20,1,92,AS,exp,33,↓,down,↓,0.5817979001440108,True,16,1,0,2
Y2-S2-240K20,1,93,AS,exp,29,→,left,←,0.5319209001027048,False,16,-1,1,3
Y2-S2-240K20,1,94,AS,exp,38,↓,down,↓,0.5682651996612549,True,17,-1,0,3
Y2-S2-240K20,1,95,AS,exp,32,→,right,→,0.45458639971911907,True,17,-1,0,3
Y2-S2-240K20,1,96,AS,exp,45,↑,up,↑,0.5559294000267982,True,17,1,1,4
Y2-S2-240K20,1,97,AS,exp,36,↓,down,↓,0.7305914997123182,True,16,1,0,4
Y2-S2-240K20,1,98,AS,exp,37,←,left,←,0.5512997000478208,True,16,1,0,4
Y2-S2-240K20,1,99,AS,exp,26,↑,down,↓,0.7296437001787126,False,16,-1,1,5
Y2-S2-240K20,1,100,AS,exp,35,↓,down,↓,0.5974963000044227,True,17,-1,0,5
Y2-S2-240K20,1,101,AS,exp,42,↑,up,↑,0.5946082002483308,True,17,-1,0,5
Y2-S2-240K20,1,102,AS,exp,45,↓,down,↓,0.5763189997524023,True,17,1,1,6
Y2-S2-240K20,1,103,AS,exp,26,↑,up,↑,0.3841176996938884,True,16,1,0,6
Y2-S2-240K20,1,104,AS,exp,30,↓,down,↓,0.59336409997195,True,16,1,0,6
Y2-S2-240K20,1,105,AS,exp,32,↑,up,↑,0.36728829983621836,True,16,1,0,6
Y2-S2-240K20,1,106,AS,exp,42,↓,down,↓,0.6602633995935321,True,15,1,0,6
Y2-S2-240K20,1,107,AS,exp,44,↑,up,↑,0.6281117997132242,True,15,1,0,6
Y2-S2-240K20,1,108,AS,exp,48,→,right,→,0.3840010999701917,True,15,1,0,6
Y2-S2-240K20,1,109,AS,exp,43,↓,down,↓,0.5870177000761032,True,14,1,0,6
Y2-S2-240K20,1,110,AS,exp,28,↑,up,↑,0.6501425001770258,True,14,1,0,6
Y2-S2-240K20,1,111,AS,exp,36,←,right,→,0.6948853000067174,False,14,-1,1,7
Y2-S2-240K20,1,112,AS,exp,30,→,left,←,0.5038207997567952,False,15,-1,0,7
Y2-S2-240K20,1,113,AS,exp,28,↓,down,↓,0.564622400328517,True,16,-1,0,7
Y2-S2-240K20,1,114,AS,exp,47,→,left,←,0.6081906999461353,False,16,-1,0,7
Y2-S2-240K20,1,115,AS,exp,42,↑,up,↑,0.6480694999918342,True,17,-1,0,7
Y2-S2-240K20,1,116,AS,exp,25,←,left,←,0.3509907000698149,True,17,-1,0,7
Y2-S2-240K20,1,117,AS,exp,31,→,right,→,0.4171624002046883,True,17,1,1,8
Y2-S2-240K20,1,118,AS,exp,41,↓,down,↓,0.4903714000247419,True,16,1,0,8
Y2-S2-240K20,1,119,AS,exp,44,→,right,→,0.3842992000281811,True,16,1,0,8
Y2-S2-240K20,1,120,AS,exp,47,↑,up,↑,0.5395923000760376,True,16,1,0,8
Y2-S2-240K20,1,121,AS,exp,33,↓,down,↓,0.5344283999875188,True,15,1,0,8
Y2-S2-240K20,1,122,AS,exp,38,→,right,→,1.0800708001479506,True,15,1,0,8
Y2-S2-240K20,1,123,AS,exp,30,↑,no_key,no_letter,-1.0,False,15,-1,1,9
Y2-S2-240K20,1,124,AS,exp,41,↓,down,↓,1.2598312003538013,True,16,-1,0,9
Y2-S2-240K20,1,125,AS,exp,27,↑,up,↑,0.800333600025624,True,16,-1,0,9
Y2-S2-240K20,1,126,AS,exp,39,→,right,→,0.6476918002590537,True,16,1,1,10
Y2-S2-240K20,1,127,AS,exp,46,↓,down,↓,0.5613068002276123,True,15,1,0,10
Y2-S2-240K20,1,128,AS,exp,45,→,right,→,0.6275213998742402,True,15,1,0,10
Y2-S2-240K20,1,129,AS,exp,43,←,down,↓,0.6299409000203013,False,15,-1,1,11
Y2-S2-240K20,1,130,AS,exp,39,→,right,→,0.4005398997105658,True,16,-1,0,11
Y2-S2-240K20,1,131,AS,exp,46,↓,down,↓,0.40075659984722733,True,16,-1,0,11
Y2-S2-240K20,1,132,AS,exp,40,→,right,→,0.3838606998324394,True,16,1,1,12
Y2-S2-240K20,1,133,AS,exp,25,↓,down,↓,0.47255450021475554,True,15,1,0,12
Y2-S2-240K20,1,134,AS,exp,45,↑,up,↑,0.41909009963274,True,15,1,0,12
Y2-S2-240K20,1,135,AS,exp,40,↓,down,↓,0.47066960018128157,True,15,1,0,12
Y2-S2-240K20,1,136,AS,exp,42,→,right,→,0.3673548996448517,True,14,1,0,12
Y2-S2-240K20,1,137,AS,exp,27,←,right,→,0.8534178999252617,False,14,-1,1,13
Y2-S2-240K20,1,138,AS,exp,34,→,right,→,0.8516232999972999,True,15,-1,0,13
Y2-S2-240K20,1,139,AS,exp,48,↓,down,↓,0.43276849994435906,True,15,-1,0,13
Y2-S2-240K20,1,140,AS,exp,41,←,left,←,0.5640980000607669,True,15,1,1,14
Y2-S2-240K20,1,141,AS,exp,34,↑,up,↑,0.36729800002649426,True,14,1,0,14
Y2-S2-240K20,1,142,AS,exp,34,←,left,←,0.47057579969987273,True,14,1,0,14
Y2-S2-240K20,1,143,AS,exp,48,→,right,→,0.8074349001981318,True,14,1,0,14
Y2-S2-240K20,1,144,AS,exp,38,↑,up,↑,0.35090170009061694,True,13,1,0,14
Y2-S2-240K20,1,145,AS,exp,40,←,no_key,no_letter,-1.0,False,13,-1,1,15
Y2-S2-240K20,1,146,AS,exp,33,↓,down,↓,0.5053485999815166,True,14,-1,0,15
Y2-S2-240K20,1,147,AS,exp,30,←,left,←,0.4944532001391053,True,14,-1,0,15
Y2-S2-240K20,1,148,AS,exp,45,↑,up,↑,1.4564625998027623,True,14,1,1,16
Y2-S2-240K20,2,149,PS,intra_train,25,→,right,→,0.4295362997800112,True,12,-,-,-
Y2-S2-240K20,2,150,PS,intra_train,40,←,left,←,0.39200059976428747,True,12,-,-,-
Y2-S2-240K20,2,151,PS,intra_train,39,↑,right,→,0.615282999817282,False,12,-,-,-
Y2-S2-240K20,2,152,PS,intra_train,26,→,no_key,no_letter,-1.0,False,12,-,-,-
Y2-S2-240K20,2,153,PS,intra_train,45,↓,right,→,0.6585961002856493,False,12,-,-,-
Y2-S2-240K20,2,154,PS,exp,46,↑,up,↑,0.42305919993668795,True,8,0,0,0
Y2-S2-240K20,2,155,PS,exp,45,→,right,→,0.42636309983208776,True,8,0,0,0
Y2-S2-240K20,2,156,PS,exp,29,←,left,←,0.3552810000255704,True,8,1,0,0
Y2-S2-240K20,2,157,PS,exp,38,↓,down,↓,0.5332851996645331,True,7,1,0,0
Y2-S2-240K20,2,158,PS,exp,40,↑,up,↑,0.37259600032120943,True,7,1,0,0
Y2-S2-240K20,2,159,PS,exp,31,↓,down,↓,0.4186201002448797,True,7,1,0,0
Y2-S2-240K20,2,160,PS,exp,34,↑,up,↑,0.44670569989830256,True,6,1,0,0
Y2-S2-240K20,2,161,PS,exp,48,→,right,→,0.48468289989978075,True,6,1,0,0
Y2-S2-240K20,2,162,PS,exp,41,↓,down,↓,0.44122759997844696,True,6,1,0,0
Y2-S2-240K20,2,163,PS,exp,34,→,right,→,0.5415103998966515,True,5,1,0,0
Y2-S2-240K20,2,164,PS,exp,47,←,left,←,0.4844415998086333,True,5,1,0,0
Y2-S2-240K20,2,165,PS,exp,47,↑,up,↑,0.381933500058949,True,5,1,0,0
Y2-S2-240K20,2,166,PS,exp,43,←,up,↑,0.4848831002600491,False,4,-1,1,1
Y2-S2-240K20,2,167,PS,exp,28,→,right,→,0.6399953002110124,True,5,-1,0,1
Y2-S2-240K20,2,168,PS,exp,45,←,left,←,0.3485912000760436,True,5,-1,0,1
Y2-S2-240K20,2,169,PS,exp,36,↑,up,↑,0.40478720003739,True,5,1,1,2
Y2-S2-240K20,2,170,PS,exp,34,←,left,←,0.4485571999102831,True,4,1,0,2
Y2-S2-240K20,2,171,PS,exp,48,↓,right,→,1.1892620003782213,False,4,-1,1,3
Y2-S2-240K20,2,172,PS,exp,38,↑,down,↓,0.5363102001138031,False,5,-1,0,3
Y2-S2-240K20,2,173,PS,exp,48,↓,up,↑,0.20036459993571043,False,6,-1,0,3
Y2-S2-240K20,2,174,PS,exp,28,←,left,←,0.32566680014133453,True,7,-1,0,3
Y2-S2-240K20,2,175,PS,exp,43,↑,left,←,0.31112470012158155,False,7,-1,0,3
Y2-S2-240K20,2,176,PS,exp,35,→,left,←,0.20069610001519322,False,8,-1,0,3
Y2-S2-240K20,2,177,PS,exp,50,↓,up,↑,0.25081560015678406,False,9,-1,0,3
Y2-S2-240K20,2,178,PS,exp,26,↑,right,→,0.411859099753201,False,10,-1,0,3
Y2-S2-240K20,2,179,PS,exp,48,↓,down,↓,0.30062220012769103,True,11,-1,0,3
Y2-S2-240K20,2,180,PS,exp,42,→,left,←,0.08466170029714704,False,11,-1,0,3
Y2-S2-240K20,2,181,PS,exp,25,←,left,←,0.9859400000423193,True,12,-1,0,3
Y2-S2-240K20,2,182,PS,exp,34,→,right,→,0.25061799958348274,True,12,-1,0,3
Y2-S2-240K20,2,183,PS,exp,50,↓,down,↓,0.4548374000005424,True,12,1,1,4
Y2-S2-240K20,2,184,PS,exp,47,↑,up,↑,0.4122217996045947,True,11,1,0,4
Y2-S2-240K20,2,185,PS,exp,45,→,right,→,0.371123599819839,True,11,1,0,4
Y2-S2-240K20,2,186,PS,exp,49,↑,right,→,0.45319960033521056,False,11,-1,1,5
Y2-S2-240K20,2,187,PS,exp,39,←,right,→,0.18385119969025254,False,12,-1,0,5
Y2-S2-240K20,2,188,PS,exp,39,↓,right,→,0.2837197999469936,False,13,-1,0,5
Y2-S2-240K20,2,189,PS,exp,28,←,left,←,0.4623565003275871,True,14,-1,0,5
Y2-S2-240K20,2,190,PS,exp,37,↑,down,↓,0.4939120998606086,False,14,-1,0,5
Y2-S2-240K20,2,191,PS,exp,38,→,right,→,0.4206727002747357,True,15,-1,0,5
Y2-S2-240K20,2,192,PS,exp,28,↑,up,↑,0.3676348999142647,True,15,-1,0,5
Y2-S2-240K20,2,193,PS,exp,28,→,right,→,0.3836930003017187,True,15,1,1,6
Y2-S2-240K20,2,194,PS,exp,45,↑,up,↑,0.4531129999086261,True,14,1,0,6
Y2-S2-240K20,2,195,PS,exp,44,→,right,→,1.0407245000824332,True,14,1,0,6
Y2-S2-240K20,2,196,PS,exp,29,↓,down,↓,0.46301629999652505,True,14,1,0,6
Y2-S2-240K20,2,197,PS,exp,25,↑,left,←,0.26720309955999255,False,13,-1,1,7
Y2-S2-240K20,2,198,PS,exp,30,↓,down,↓,0.4266114002093673,True,14,-1,0,7
Y2-S2-240K20,2,199,PS,exp,44,↑,up,↑,0.4026607000268996,True,14,-1,0,7
Y2-S2-240K20,2,200,PS,exp,35,←,left,←,0.4439752004109323,True,14,1,1,8
Y2-S2-240K20,2,201,PS,exp,50,↓,down,↓,0.42084209993481636,True,13,1,0,8
Y2-S2-240K20,2,202,PS,exp,27,←,right,→,0.42177849961444736,False,13,-1,1,9
Y2-S2-240K20,2,203,PS,exp,35,→,left,←,0.43237539986148477,False,14,-1,0,9
Y2-S2-240K20,2,204,PS,exp,44,←,left,←,0.9821429997682571,True,15,-1,0,9
Y2-S2-240K20,2,205,PS,exp,29,↓,down,↓,0.4902476002462208,True,15,-1,0,9
Y2-S2-240K20,2,206,PS,exp,45,↑,up,↑,0.4704791000112891,True,15,1,1,10
Y2-S2-240K20,2,207,PS,exp,38,←,left,←,0.4341656998731196,True,14,1,0,10
Y2-S2-240K20,2,208,PS,exp,31,↓,down,↓,0.4735073996707797,True,14,1,0,10
Y2-S2-240K20,2,209,PS,exp,33,→,right,→,0.4148261002264917,True,14,1,0,10
Y2-S2-240K20,2,210,PS,exp,37,↑,up,↑,0.40787180000916123,True,13,1,0,10
Y2-S2-240K20,2,211,PS,exp,44,←,left,←,0.5750877996906638,True,13,1,0,10
Y2-S2-240K20,2,212,PS,exp,31,→,right,→,0.4699137001298368,True,13,1,0,10
Y2-S2-240K20,2,213,PS,exp,33,←,left,←,0.5332516999915242,True,12,1,0,10
Y2-S2-240K20,2,214,PS,exp,42,↓,down,↓,0.56173160020262,True,12,1,0,10
Y2-S2-240K20,2,215,PS,exp,50,↑,up,↑,0.43908199993893504,True,12,1,0,10
Y2-S2-240K20,2,216,PS,exp,32,←,left,←,0.4641980999149382,True,11,1,0,10
Y2-S2-240K20,2,217,PS,exp,25,↑,up,↑,0.48570229997858405,True,11,1,0,10
Y2-S2-240K20,2,218,PS,exp,43,←,left,←,0.40178379975259304,True,11,1,0,10
Y2-S2-240K20,2,219,PS,exp,48,→,right,→,0.44963880022987723,True,10,1,0,10
Y2-S2-240K20,2,220,PS,exp,39,↓,down,↓,0.4760660999454558,True,10,1,0,10
Y2-S2-240K20,2,221,PS,exp,40,→,right,→,0.4334033001214266,True,10,1,0,10
Y2-S2-240K20,2,222,PS,exp,25,↑,up,↑,0.5490429000928998,True,9,1,0,10
Y2-S2-240K20,2,223,PS,exp,40,←,up,↑,0.6645904998295009,False,9,-1,1,11
Y2-S2-240K20,2,224,PS,exp,43,↑,up,↑,0.5296698003076017,True,10,-1,0,11
Y2-S2-240K20,2,225,PS,exp,50,↓,down,↓,0.5471930000931025,True,10,-1,0,11
Y2-S2-240K20,2,226,PS,exp,30,←,left,←,0.48567499965429306,True,10,1,1,12
Y2-S2-240K20,2,227,PS,exp,39,→,left,←,0.5361208999529481,False,9,-1,1,13
Y2-S2-240K20,2,228,PS,exp,34,↑,up,↑,0.48222990008071065,True,10,-1,0,13
Y2-S2-240K20,2,229,PS,exp,33,↓,down,↓,0.48229039972648025,True,10,-1,0,13
Y2-S2-240K20,2,230,PS,exp,36,→,right,→,0.46254120022058487,True,10,1,1,14
Y2-S2-240K20,2,231,PS,exp,28,↓,down,↓,0.5376246999949217,True,9,1,0,14
Y2-S2-240K20,2,232,PS,exp,46,↑,up,↑,0.4793683001771569,True,9,1,0,14
Y2-S2-240K20,2,233,PS,exp,46,←,left,←,0.44159309985116124,True,9,1,0,14
Y2-S2-240K20,2,234,PS,exp,26,↓,right,→,0.6402858002111316,False,8,-1,1,15
Y2-S2-240K20,2,235,PS,exp,34,←,left,←,0.45837939996272326,True,9,-1,0,15
Y2-S2-240K20,2,236,PS,exp,28,↓,down,↓,1.1159365000203252,True,9,-1,0,15
Y2-S2-240K20,2,237,PS,exp,44,←,left,←,0.41427490022033453,True,9,1,1,16
Y2-S2-240K20,3,238,PS,intra_train,28,↓,down,↓,0.42866390012204647,True,12,-,-,-
Y2-S2-240K20,3,239,PS,intra_train,46,→,right,→,0.5350958998315036,True,12,-,-,-
Y2-S2-240K20,3,240,PS,intra_train,35,←,left,←,0.38754639960825443,True,12,-,-,-
Y2-S2-240K20,3,241,PS,intra_train,25,→,right,→,0.39806869998574257,True,12,-,-,-
Y2-S2-240K20,3,242,PS,intra_train,26,↑,up,↑,0.44654860021546483,True,12,-,-,-
Y2-S2-240K20,3,243,PS,exp,30,→,down,↓,0.5537096997722983,False,8,-1,0,0
Y2-S2-240K20,3,244,PS,exp,36,↑,up,↑,0.4504935001023114,True,9,-1,0,0
Y2-S2-240K20,3,245,PS,exp,30,←,left,←,0.5613161004148424,True,9,-1,0,0
Y2-S2-240K20,3,246,PS,exp,46,↑,up,↑,0.4215453998185694,True,9,1,1,1
Y2-S2-240K20,3,247,PS,exp,39,→,right,→,0.4368007001467049,True,8,1,0,1
Y2-S2-240K20,3,248,PS,exp,38,↑,up,↑,0.42914249980822206,True,8,1,0,1
Y2-S2-240K20,3,249,PS,exp,28,→,right,→,0.7159629999659956,True,8,1,0,1
Y2-S2-240K20,3,250,PS,exp,38,↓,down,↓,0.4673329000361264,True,7,1,0,1
Y2-S2-240K20,3,251,PS,exp,49,←,left,←,0.3766120998188853,True,7,1,0,1
Y2-S2-240K20,3,252,PS,exp,27,↓,down,↓,0.3953597997315228,True,7,1,0,1
Y2-S2-240K20,3,253,PS,exp,36,→,right,→,0.45923220040276647,True,6,1,0,1
Y2-S2-240K20,3,254,PS,exp,32,←,left,←,0.39113570004701614,True,6,1,0,1
Y2-S2-240K20,3,255,PS,exp,25,↓,down,↓,0.40076819993555546,True,6,1,0,1
Y2-S2-240K20,3,256,PS,exp,38,↑,up,↑,0.5057446998544037,True,5,1,0,1
Y2-S2-240K20,3,257,PS,exp,33,←,down,↓,0.4318242999725044,False,5,-1,1,2
Y2-S2-240K20,3,258,PS,exp,26,↓,down,↓,0.44107900001108646,True,6,-1,0,2
Y2-S2-240K20,3,259,PS,exp,34,↑,up,↑,1.3275810000486672,True,6,-1,0,2
Y2-S2-240K20,3,260,PS,exp,29,→,right,→,0.4905846999026835,True,6,1,1,3
Y2-S2-240K20,3,261,PS,exp,45,←,left,←,0.4584232000634074,True,5,1,0,3
Y2-S2-240K20,3,262,PS,exp,36,→,left,←,0.5130968000739813,False,5,-1,1,4
Y2-S2-240K20,3,263,PS,exp,39,↓,right,→,0.4472102001309395,False,6,-1,0,4
Y2-S2-240K20,3,264,PS,exp,43,←,left,←,0.4307760000228882,True,7,-1,0,4
Y2-S2-240K20,3,265,PS,exp,27,→,right,→,0.5107088997028768,True,7,-1,0,4
Y2-S2-240K20,3,266,PS,exp,29,↓,right,→,0.5968304998241365,False,7,-1,0,4
Y2-S2-240K20,3,267,PS,exp,36,↑,up,↑,0.5022129998542368,True,8,-1,0,4
Y2-S2-240K20,3,268,PS,exp,47,↓,down,↓,0.3987900000065565,True,8,-1,0,4
Y2-S2-240K20,3,269,PS,exp,44,←,left,←,0.3837430998682976,True,8,1,1,5
Y2-S2-240K20,3,270,PS,exp,41,↓,down,↓,0.375375600066036,True,7,1,0,5
Y2-S2-240K20,3,271,PS,exp,33,←,right,→,0.4823587001301348,False,7,-1,1,6
Y2-S2-240K20,3,272,PS,exp,31,↓,right,→,0.34006449999287724,False,8,-1,0,6
Y2-S2-240K20,3,273,PS,exp,27,←,left,←,0.4336517001502216,True,9,-1,0,6
Y2-S2-240K20,3,274,PS,exp,50,↓,down,↓,0.3947626003064215,True,9,-1,0,6
Y2-S2-240K20,3,275,PS,exp,26,→,right,→,0.39888540003448725,True,9,1,1,7
Y2-S2-240K20,3,276,PS,exp,28,↑,up,↑,1.202651200350374,True,8,1,0,7
Y2-S2-240K20,3,277,PS,exp,28,←,left,←,0.4436639999039471,True,8,1,0,7
Y2-S2-240K20,3,278,PS,exp,45,→,right,→,0.368686200119555,True,8,1,0,7
Y2-S2-240K20,3,279,PS,exp,50,↑,up,↑,0.362873500213027,True,7,1,0,7
Y2-S2-240K20,3,280,PS,exp,38,→,left,←,0.5740144001320004,False,7,-1,1,8
Y2-S2-240K20,3,281,PS,exp,35,↑,up,↑,0.41370230028405786,True,8,-1,0,8
Y2-S2-240K20,3,282,PS,exp,30,→,right,→,0.4506029998883605,True,8,-1,0,8
Y2-S2-240K20,3,283,PS,exp,40,↑,up,↑,0.4228772004134953,True,8,1,1,9
Y2-S2-240K20,3,284,PS,exp,39,←,left,←,0.4839751999825239,True,7,1,0,9
Y2-S2-240K20,3,285,PS,exp,27,→,right,→,0.4454927002079785,True,7,1,0,9
Y2-S2-240K20,3,286,PS,exp,39,↓,right,→,0.9005594998598099,False,7,-1,1,10
Y2-S2-240K20,3,287,PS,exp,43,↑,up,↑,0.4258711999282241,True,8,-1,0,10
Y2-S2-240K20,3,288,PS,exp,39,↓,down,↓,0.5470883999951184,True,8,-1,0,10
Y2-S2-240K20,3,289,PS,exp,49,←,left,←,0.4418057999573648,True,8,1,1,11
Y2-S2-240K20,3,290,PS,exp,32,→,left,←,0.5946142002940178,False,7,-1,1,12
Y2-S2-240K20,3,291,PS,exp,30,↑,up,↑,0.38916390016674995,True,8,-1,0,12
Y2-S2-240K20,3,292,PS,exp,48,←,down,↓,0.9014976997859776,False,8,-1,0,12
Y2-S2-240K20,3,293,PS,exp,38,↓,down,↓,0.4941409998573363,True,9,-1,0,12
Y2-S2-240K20,3,294,PS,exp,25,→,right,→,0.7335633998736739,True,9,-1,0,12
Y2-S2-240K20,3,295,PS,exp,48,←,left,←,0.3318758001551032,True,9,1,1,13
Y2-S2-240K20,3,296,PS,exp,34,↓,down,↓,0.4868854000233114,True,8,1,0,13
Y2-S2-240K20,3,297,PS,exp,38,↑,up,↑,0.6382574001327157,True,8,1,0,13
Y2-S2-240K20,3,298,PS,exp,36,→,right,→,0.5044279000721872,True,8,1,0,13
Y2-S2-240K20,3,299,PS,exp,37,↑,right,→,0.6158890002407134,False,7,-1,1,14
Y2-S2-240K20,3,300,PS,exp,33,→,right,→,0.520092099905014,True,8,-1,0,14
Y2-S2-240K20,3,301,PS,exp,36,↑,down,↓,0.4166894997470081,False,8,-1,0,14
Y2-S2-240K20,3,302,PS,exp,33,→,right,→,0.7005488998256624,True,9,-1,0,14
Y2-S2-240K20,3,303,PS,exp,42,↑,up,↑,0.4834362999536097,True,9,-1,0,14
Y2-S2-240K20,3,304,PS,exp,42,→,right,→,0.39086929988116026,True,9,1,1,15
Y2-S2-240K20,3,305,PS,exp,25,↑,right,→,0.5852208002470434,False,8,-1,1,16
Y2-S2-240K20,4,306,AS,intra_train,38,→,right,→,0.36774219991639256,True,28,-,-,-
Y2-S2-240K20,4,307,AS,intra_train,30,↑,up,↑,0.5174420000985265,True,28,-,-,-
Y2-S2-240K20,4,308,AS,intra_train,47,→,right,→,0.3848260003142059,True,28,-,-,-
Y2-S2-240K20,4,309,AS,intra_train,41,↑,up,↑,0.5673599001020193,True,28,-,-,-
Y2-S2-240K20,4,310,AS,intra_train,43,→,right,→,0.3845055000856519,True,28,-,-,-
Y2-S2-240K20,4,311,AS,exp,33,←,left,←,0.8914883001707494,True,19,0,0,0
Y2-S2-240K20,4,312,AS,exp,37,→,left,←,0.5255566001869738,False,19,-1,0,0
Y2-S2-240K20,4,313,AS,exp,41,←,left,←,0.33402409963309765,True,20,-1,0,0
Y2-S2-240K20,4,314,AS,exp,37,↓,down,↓,0.6487798001617193,True,20,-1,0,0
Y2-S2-240K20,4,315,AS,exp,30,→,right,→,0.40056069986894727,True,20,1,1,1
Y2-S2-240K20,4,316,AS,exp,47,↑,up,↑,0.38416789984330535,True,19,1,0,1
Y2-S2-240K20,4,317,AS,exp,37,↓,down,↓,0.5644574998877943,True,19,1,0,1
Y2-S2-240K20,4,318,AS,exp,47,↑,up,↑,0.5002692001871765,True,19,1,0,1
Y2-S2-240K20,4,319,AS,exp,49,←,left,←,0.5063923001289368,True,18,1,0,1
Y2-S2-240K20,4,320,AS,exp,28,↑,up,↑,0.49349529994651675,True,18,1,0,1
Y2-S2-240K20,4,321,AS,exp,37,←,down,↓,0.4944755998440087,False,18,-1,1,2
Y2-S2-240K20,4,322,AS,exp,49,→,right,→,0.5557992998510599,True,19,-1,0,2
Y2-S2-240K20,4,323,AS,exp,42,←,left,←,0.6616377998143435,True,19,-1,0,2
Y2-S2-240K20,4,324,AS,exp,46,→,right,→,0.9735154001973569,True,19,1,1,3
Y2-S2-240K20,4,325,AS,exp,47,←,left,←,0.8499131998978555,True,18,1,0,3
Y2-S2-240K20,4,326,AS,exp,48,↑,up,↑,0.4005227000452578,True,18,1,0,3
Y2-S2-240K20,4,327,AS,exp,25,←,left,←,0.9971296000294387,True,18,1,0,3
Y2-S2-240K20,4,328,AS,exp,29,↓,down,↓,0.70357930008322,True,17,1,0,3
Y2-S2-240K20,4,329,AS,exp,50,→,right,→,0.5040390999056399,True,17,1,0,3
Y2-S2-240K20,4,330,AS,exp,37,←,left,←,0.3508945000357926,True,17,1,0,3
Y2-S2-240K20,4,331,AS,exp,40,↓,down,↓,0.4665832999162376,True,16,1,0,3
Y2-S2-240K20,4,332,AS,exp,30,←,right,→,0.7303030001930892,False,16,-1,1,4
Y2-S2-240K20,4,333,AS,exp,42,→,right,→,0.41754259960725904,True,17,-1,0,4
Y2-S2-240K20,4,334,AS,exp,25,↑,up,↑,0.54532720008865,True,17,-1,0,4
Y2-S2-240K20,4,335,AS,exp,40,←,right,→,0.48476019967347383,False,17,-1,0,4
Y2-S2-240K20,4,336,AS,exp,29,→,right,→,0.4990004999563098,True,18,-1,0,4
Y2-S2-240K20,4,337,AS,exp,25,↓,right,→,0.7406653999350965,False,18,-1,0,4
Y2-S2-240K20,4,338,AS,exp,42,→,right,→,0.5315681998617947,True,19,-1,0,4
Y2-S2-240K20,4,339,AS,exp,33,←,left,←,1.0071915998123586,True,19,-1,0,4
Y2-S2-240K20,4,340,AS,exp,48,↑,up,↑,0.35073000006377697,True,19,1,1,5
Y2-S2-240K20,4,341,AS,exp,27,←,left,←,0.6838782001286745,True,18,1,0,5
Y2-S2-240K20,4,342,AS,exp,27,↓,down,↓,1.651521499734372,True,18,1,0,5
Y2-S2-240K20,4,343,AS,exp,37,→,right,→,0.350452599581331,True,18,1,0,5
Y2-S2-240K20,4,344,AS,exp,29,↑,up,↑,0.5554586001671851,True,17,1,0,5
Y2-S2-240K20,4,345,AS,exp,40,→,right,→,0.4911798997782171,True,17,1,0,5
Y2-S2-240K20,4,346,AS,exp,40,↑,up,↑,0.6765304999426007,True,17,1,0,5
Y2-S2-240K20,4,347,AS,exp,50,→,right,→,0.383903999812901,True,16,1,0,5
Y2-S2-240K20,4,348,AS,exp,30,←,left,←,0.4619257999584079,True,16,1,0,5
Y2-S2-240K20,4,349,AS,exp,27,↓,up,↑,0.4609452001750469,False,16,-1,1,6
Y2-S2-240K20,4,350,AS,exp,27,↑,up,↑,0.36745169991627336,True,17,-1,0,6
Y2-S2-240K20,4,351,AS,exp,48,→,left,←,0.5094955000095069,False,17,-1,0,6
Y2-S2-240K20,4,352,AS,exp,43,↓,up,↑,0.49020810006186366,False,18,-1,0,6
Y2-S2-240K20,4,353,AS,exp,31,→,right,→,0.3671480002813041,True,19,-1,0,6
Y2-S2-240K20,4,354,AS,exp,42,←,left,←,0.38385980017483234,True,19,-1,0,6
Y2-S2-240K20,4,355,AS,exp,49,→,right,→,0.3836884996853769,True,19,1,1,7
Y2-S2-240K20,4,356,AS,exp,44,↑,down,↓,0.5502276001498103,False,18,-1,1,8
Y2-S2-240K20,4,357,AS,exp,39,←,left,←,0.48856989992782474,True,19,-1,0,8
Y2-S2-240K20,4,358,AS,exp,48,→,right,→,0.3507563001476228,True,19,-1,0,8
Y2-S2-240K20,4,359,AS,exp,42,↑,up,↑,0.6245058998465538,True,19,1,1,9
Y2-S2-240K20,4,360,AS,exp,27,→,right,→,0.36683329986408353,True,18,1,0,9
Y2-S2-240K20,4,361,AS,exp,49,↓,down,↓,1.0667305001989007,True,18,1,0,9
Y2-S2-240K20,4,362,AS,exp,33,→,right,→,0.3673363998532295,True,18,1,0,9
Y2-S2-240K20,4,363,AS,exp,41,↓,down,↓,0.6761284000240266,True,17,1,0,9
Y2-S2-240K20,4,364,AS,exp,36,↑,up,↑,0.5568070998415351,True,17,1,0,9
Y2-S2-240K20,4,365,AS,exp,44,→,right,→,0.4964616000652313,True,17,1,0,9
Y2-S2-240K20,4,366,AS,exp,28,←,left,←,0.5769217000342906,True,16,1,0,9
Y2-S2-240K20,4,367,AS,exp,48,→,right,→,0.38449000008404255,True,16,1,0,9
Y2-S2-240K20,4,368,AS,exp,33,↑,up,↑,0.383822999894619,True,16,1,0,9
Y2-S2-240K20,4,369,AS,exp,38,→,right,→,0.7647510999813676,True,15,1,0,9
Y2-S2-240K20,4,370,AS,exp,31,←,left,←,1.1051125000230968,True,15,1,0,9
Y2-S2-240K20,4,371,AS,exp,36,→,right,→,0.36659109964966774,True,15,1,0,9
Y2-S2-240K20,4,372,AS,exp,30,←,left,←,0.3336916002444923,True,14,1,0,9
Y2-S2-240K20,4,373,AS,exp,36,↑,up,↑,0.36719190003350377,True,14,1,0,9
Y2-S2-240K20,4,374,AS,exp,34,↓,down,↓,0.9214416001923382,True,14,1,0,9
Y2-S2-240K20,4,375,AS,exp,43,←,left,←,0.5303473002277315,True,13,1,0,9
Y2-S2-240K20,4,376,AS,exp,41,↑,up,↑,0.35076279984787107,True,13,1,0,9
Y2-S2-240K20,4,377,AS,exp,38,←,left,←,0.9742431999184191,True,13,1,0,9
Y2-S2-240K20,4,378,AS,exp,27,→,right,→,0.5699966000393033,True,12,1,0,9
Y2-S2-240K20,4,379,AS,exp,36,↑,up,↑,0.317024499643594,True,12,1,0,9
Y2-S2-240K20,4,380,AS,exp,44,→,right,→,0.6414625998586416,True,12,1,0,9
Y2-S2-240K20,4,381,AS,exp,36,↓,up,↑,0.2841950003057718,False,11,-1,1,10
Y2-S2-240K20,4,382,AS,exp,37,←,right,→,0.6335144001059234,False,12,-1,0,10
Y2-S2-240K20,4,383,AS,exp,33,↑,up,↑,0.937192500103265,True,13,-1,0,10
Y2-S2-240K20,4,384,AS,exp,32,←,down,↓,0.6371873999014497,False,13,-1,0,10
Y2-S2-240K20,4,385,AS,exp,42,→,right,→,0.3670038003474474,True,14,-1,0,10
Y2-S2-240K20,4,386,AS,exp,42,↓,down,↓,0.4212647001259029,True,14,-1,0,10
Y2-S2-240K20,4,387,AS,exp,41,←,left,←,0.3671988998539746,True,14,1,1,11
Y2-S2-240K20,4,388,AS,exp,35,→,right,→,1.0424345997162163,True,13,1,0,11
Y2-S2-240K20,4,389,AS,exp,30,↑,up,↑,0.31722360011190176,True,13,1,0,11
Y2-S2-240K20,4,390,AS,exp,50,←,right,→,0.6586933000944555,False,13,-1,1,12
Y2-S2-240K20,4,391,AS,exp,48,↓,down,↓,0.41718879994004965,True,14,-1,0,12
Y2-S2-240K20,4,392,AS,exp,32,↑,up,↑,0.6474759997799993,True,14,-1,0,12
Y2-S2-240K20,4,393,AS,exp,33,←,right,→,0.6611118000000715,False,14,-1,0,12
Y2-S2-240K20,4,394,AS,exp,37,↑,up,↑,0.6297645000740886,True,15,-1,0,12
Y2-S2-240K20,4,395,AS,exp,38,←,left,←,0.367181200068444,True,15,-1,0,12
Y2-S2-240K20,4,396,AS,exp,33,→,right,→,0.42424590000882745,True,15,1,1,13
Y2-S2-240K20,4,397,AS,exp,30,↓,down,↓,0.8404454998672009,True,14,1,0,13
Y2-S2-240K20,4,398,AS,exp,35,↑,up,↑,0.6696148002520204,True,14,1,0,13
Y2-S2-240K20,4,399,AS,exp,28,←,left,←,1.287324100267142,True,14,1,0,13
Y2-S2-240K20,4,400,AS,exp,39,→,right,→,0.817009599879384,True,13,1,0,13
Y2-S2-240K20,4,401,AS,exp,44,←,right,→,0.4758752998895943,False,13,-1,1,14
Y2-S2-240K20,4,402,AS,exp,31,↓,right,→,0.5117834000848234,False,14,-1,0,14
Y2-S2-240K20,4,403,AS,exp,32,→,left,←,0.25045499997213483,False,15,-1,0,14
Y2-S2-240K20,4,404,AS,exp,37,↓,right,→,0.586421400308609,False,16,-1,0,14
Y2-S2-240K20,4,405,AS,exp,47,↑,up,↑,0.6164543000049889,True,17,-1,0,14
Y2-S2-240K20,4,406,AS,exp,46,↓,down,↓,0.41708000004291534,True,17,-1,0,14
Y2-S2-240K20,4,407,AS,exp,31,→,right,→,0.6049136002548039,True,17,1,1,15
Y2-S2-240K20,4,408,AS,exp,32,↓,down,↓,0.4735264000482857,True,16,1,0,15
Y2-S2-240K20,4,409,AS,exp,25,↑,down,↓,0.4523207996971905,False,16,-1,1,16
Y2-S2-240K20,5,410,AS,intra_train,43,←,left,←,0.33437510021030903,True,28,-,-,-
Y2-S2-240K20,5,411,AS,intra_train,32,↓,down,↓,0.5840964000672102,True,28,-,-,-
Y2-S2-240K20,5,412,AS,intra_train,37,↑,up,↑,0.6983523997478187,True,28,-,-,-
Y2-S2-240K20,5,413,AS,intra_train,28,←,left,←,0.5174962999299169,True,28,-,-,-
Y2-S2-240K20,5,414,AS,intra_train,31,↓,up,↑,0.48395439982414246,False,28,-,-,-
Y2-S2-240K20,5,415,AS,exp,37,→,right,→,0.38403810001909733,True,19,0,0,0
Y2-S2-240K20,5,416,AS,exp,46,←,left,←,0.6202926998957992,True,19,0,0,0
Y2-S2-240K20,5,417,AS,exp,38,↓,right,→,0.41728039970621467,False,19,-1,0,0
Y2-S2-240K20,5,418,AS,exp,38,↑,down,↓,0.4168360000476241,False,20,-1,0,0
Y2-S2-240K20,5,419,AS,exp,39,↓,down,↓,0.5515999002382159,True,21,-1,0,0
Y2-S2-240K20,5,420,AS,exp,34,↑,left,←,0.922280800063163,False,21,-1,0,0
Y2-S2-240K20,5,421,AS,exp,50,←,right,→,0.5460423002950847,False,22,-1,0,0
Y2-S2-240K20,5,422,AS,exp,33,→,right,→,0.5566400000825524,True,23,-1,0,0
Y2-S2-240K20,5,423,AS,exp,39,←,left,←,0.4007118996232748,True,23,-1,0,0
Y2-S2-240K20,5,424,AS,exp,39,↑,up,↑,0.40073110023513436,True,23,1,1,1
Y2-S2-240K20,5,425,AS,exp,50,↓,down,↓,0.4674496999941766,True,22,1,0,1
Y2-S2-240K20,5,426,AS,exp,46,↑,up,↑,0.6089813001453876,True,22,1,0,1
Y2-S2-240K20,5,427,AS,exp,26,←,left,←,0.318051400128752,True,22,1,0,1
Y2-S2-240K20,5,428,AS,exp,48,↓,down,↓,0.45048659993335605,True,21,1,0,1
Y2-S2-240K20,5,429,AS,exp,34,←,left,←,0.5399659001268446,True,21,1,0,1
Y2-S2-240K20,5,430,AS,exp,30,↓,down,↓,0.6784737003035843,True,21,1,0,1
Y2-S2-240K20,5,431,AS,exp,40,→,right,→,0.5655929003842175,True,20,1,0,1
Y2-S2-240K20,5,432,AS,exp,39,↑,up,↑,0.35066739981994033,True,20,1,0,1
Y2-S2-240K20,5,433,AS,exp,45,←,left,←,0.35075420001521707,True,20,1,0,1
Y2-S2-240K20,5,434,AS,exp,41,→,right,→,0.9897555997595191,True,19,1,0,1
Y2-S2-240K20,5,435,AS,exp,45,←,left,←,0.9045072998851538,True,19,1,0,1
Y2-S2-240K20,5,436,AS,exp,33,↓,down,↓,0.5970628997310996,True,19,1,0,1
Y2-S2-240K20,5,437,AS,exp,30,←,right,→,0.5290859001688659,False,18,-1,1,2
Y2-S2-240K20,5,438,AS,exp,42,↑,up,↑,0.4171815002337098,True,19,-1,0,2
Y2-S2-240K20,5,439,AS,exp,48,↓,down,↓,0.5854964000172913,True,19,-1,0,2
Y2-S2-240K20,5,440,AS,exp,34,→,right,→,0.3839047998189926,True,19,1,1,3
Y2-S2-240K20,5,441,AS,exp,40,↑,up,↑,0.9149338998831809,True,18,1,0,3
Y2-S2-240K20,5,442,AS,exp,27,←,left,←,0.4337591999210417,True,18,1,0,3
Y2-S2-240K20,5,443,AS,exp,48,→,right,→,0.6004280000925064,True,18,1,0,3
Y2-S2-240K20,5,444,AS,exp,43,←,right,→,0.4781625000759959,False,17,-1,1,4
Y2-S2-240K20,5,445,AS,exp,44,↑,up,↑,0.48140010004863143,True,18,-1,0,4
Y2-S2-240K20,5,446,AS,exp,47,→,right,→,0.5291273002512753,True,18,-1,0,4
Y2-S2-240K20,5,447,AS,exp,50,↑,up,↑,0.5806525000371039,True,18,1,1,5
Y2-S2-240K20,5,448,AS,exp,46,←,left,←,0.417353100143373,True,17,1,0,5
Y2-S2-240K20,5,449,AS,exp,45,↑,right,→,0.7002937998622656,False,17,-1,1,6
Y2-S2-240K20,5,450,AS,exp,27,↓,left,←,0.829519999679178,False,18,-1,0,6
Y2-S2-240K20,5,451,AS,exp,43,↑,up,↑,0.5713418000377715,True,19,-1,0,6
Y2-S2-240K20,5,452,AS,exp,26,→,left,←,1.0533977998420596,False,19,-1,0,6
Y2-S2-240K20,5,453,AS,exp,28,↓,down,↓,0.7005098001100123,True,20,-1,0,6
Y2-S2-240K20,5,454,AS,exp,43,←,left,←,0.9946979000233114,True,20,-1,0,6
Y2-S2-240K20,5,455,AS,exp,43,↑,up,↑,0.545233900193125,True,20,1,1,7
Y2-S2-240K20,5,456,AS,exp,48,↓,down,↓,0.7872794000431895,True,19,1,0,7
Y2-S2-240K20,5,457,AS,exp,45,↑,down,↓,0.5070199002511799,False,19,-1,1,8
Y2-S2-240K20,5,458,AS,exp,39,←,left,←,0.5161254000850022,True,20,-1,0,8
Y2-S2-240K20,5,459,AS,exp,31,→,right,→,0.41722319973632693,True,20,-1,0,8
Y2-S2-240K20,5,460,AS,exp,47,↑,up,↑,0.4343829997815192,True,20,1,1,9
Y2-S2-240K20,5,461,AS,exp,38,←,left,←,0.5109912999905646,True,19,1,0,9
Y2-S2-240K20,5,462,AS,exp,27,→,right,→,0.367442199960351,True,19,1,0,9
Y2-S2-240K20,5,463,AS,exp,31,←,left,←,0.4998723999597132,True,19,1,0,9
Y2-S2-240K20,5,464,AS,exp,33,↑,up,↑,0.47528079990297556,True,18,1,0,9
Y2-S2-240K20,5,465,AS,exp,33,←,left,←,0.4174584997817874,True,18,1,0,9
Y2-S2-240K20,5,466,AS,exp,38,→,right,→,0.41723510017618537,True,18,1,0,9
Y2-S2-240K20,5,467,AS,exp,34,↓,up,↑,0.46927590016275644,False,17,-1,1,10
Y2-S2-240K20,5,468,AS,exp,26,←,left,←,0.5190853998064995,True,18,-1,0,10
Y2-S2-240K20,5,469,AS,exp,46,↓,up,↑,0.3840903998352587,False,18,-1,0,10
Y2-S2-240K20,5,470,AS,exp,30,↑,up,↑,0.3840588997118175,True,19,-1,0,10
Y2-S2-240K20,5,471,AS,exp,42,→,right,→,0.3837239998392761,True,19,-1,0,10
Y2-S2-240K20,5,472,AS,exp,50,↓,down,↓,0.4506883001886308,True,19,1,1,11
Y2-S2-240K20,5,473,AS,exp,42,←,left,←,0.49740519979968667,True,18,1,0,11
Y2-S2-240K20,5,474,AS,exp,42,→,right,→,0.40062119998037815,True,18,1,0,11
Y2-S2-240K20,5,475,AS,exp,42,←,left,←,0.3506343998014927,True,18,1,0,11
Y2-S2-240K20,5,476,AS,exp,39,↑,up,↑,0.40060060005635023,True,17,1,0,11
Y2-S2-240K20,5,477,AS,exp,33,↓,right,→,0.5275252000428736,False,17,-1,1,12
Y2-S2-240K20,5,478,AS,exp,25,←,left,←,0.7202721000649035,True,18,-1,0,12
Y2-S2-240K20,5,479,AS,exp,25,→,right,→,0.5461450000293553,True,18,-1,0,12
Y2-S2-240K20,5,480,AS,exp,41,←,left,←,0.43406179966405034,True,18,1,1,13
Y2-S2-240K20,5,481,AS,exp,33,→,right,→,0.3509864001534879,True,17,1,0,13
Y2-S2-240K20,5,482,AS,exp,34,↓,down,↓,0.48496839962899685,True,17,1,0,13
Y2-S2-240K20,5,483,AS,exp,34,←,left,←,0.3339974000118673,True,17,1,0,13
Y2-S2-240K20,5,484,AS,exp,25,↑,right,→,0.6413743998855352,False,16,-1,1,14
Y2-S2-240K20,5,485,AS,exp,33,←,left,←,0.3336662999354303,True,17,-1,0,14
Y2-S2-240K20,5,486,AS,exp,25,↑,up,↑,0.8032021997496486,True,17,-1,0,14
Y2-S2-240K20,5,487,AS,exp,25,→,right,→,0.36707350006327033,True,17,1,1,15
Y2-S2-240K20,5,488,AS,exp,25,←,left,←,0.31770570017397404,True,16,1,0,15
Y2-S2-240K20,5,489,AS,exp,25,↓,down,↓,0.43581319972872734,True,16,1,0,15
Y2-S2-240K20,5,490,AS,exp,39,←,left,←,0.5938510000705719,True,16,1,0,15
Y2-S2-240K20,5,491,AS,exp,40,↓,down,↓,0.6161083001643419,True,15,1,0,15
Y2-S2-240K20,5,492,AS,exp,38,→,right,→,0.5101570002734661,True,15,1,0,15
Y2-S2-240K20,5,493,AS,exp,34,←,right,→,0.49833030020818114,False,15,-1,1,16
Y2-S2-240K20,6,494,PS,intra_train,43,↓,down,↓,0.5676115998066962,True,12,-,-,-
Y2-S2-240K20,6,495,PS,intra_train,37,→,right,→,0.43730799993500113,True,12,-,-,-
Y2-S2-240K20,6,496,PS,intra_train,35,←,left,←,0.317331800237298,True,12,-,-,-
Y2-S2-240K20,6,497,PS,intra_train,34,↓,right,→,0.3905274998396635,False,12,-,-,-
Y2-S2-240K20,6,498,PS,intra_train,30,↑,up,↑,0.5038018999621272,True,12,-,-,-
Y2-S2-240K20,6,499,PS,exp,29,←,left,←,0.3576221000403166,True,8,0,0,0
Y2-S2-240K20,6,500,PS,exp,44,↓,down,↓,0.46300619980320334,True,8,0,0,0
Y2-S2-240K20,6,501,PS,exp,35,→,right,→,0.5002887998707592,True,8,1,0,0
Y2-S2-240K20,6,502,PS,exp,38,↑,right,→,0.532296699937433,False,7,-1,1,1
Y2-S2-240K20,6,503,PS,exp,46,→,left,←,0.3552302001044154,False,8,-1,0,1
Y2-S2-240K20,6,504,PS,exp,47,↓,right,→,0.4801921001635492,False,9,-1,0,1
Y2-S2-240K20,6,505,PS,exp,38,←,left,←,0.2673514001071453,True,10,-1,0,1
Y2-S2-240K20,6,506,PS,exp,44,↓,down,↓,0.47589970007538795,True,10,-1,0,1
Y2-S2-240K20,6,507,PS,exp,40,←,right,→,0.4260982000268996,False,10,-1,0,1
Y2-S2-240K20,6,508,PS,exp,47,↓,down,↓,0.40562340011820197,True,11,-1,0,1
Y2-S2-240K20,6,509,PS,exp,46,→,right,→,0.4488745001144707,True,11,-1,0,1
Y2-S2-240K20,6,510,PS,exp,26,←,left,←,1.7494160002097487,True,11,1,1,2
Y2-S2-240K20,6,511,PS,exp,38,↑,up,↑,0.41307089990004897,True,10,1,0,2
Y2-S2-240K20,6,512,PS,exp,33,→,down,↓,0.486476699821651,False,10,-1,1,3
Y2-S2-240K20,6,513,PS,exp,43,↑,up,↑,0.3950207997113466,True,11,-1,0,3
Y2-S2-240K20,6,514,PS,exp,25,←,right,→,0.4289652002044022,False,11,-1,0,3
Y2-S2-240K20,6,515,PS,exp,46,↑,left,←,0.38258880004286766,False,12,-1,0,3
Y2-S2-240K20,6,516,PS,exp,50,↓,down,↓,0.4416717002168298,True,13,-1,0,3
Y2-S2-240K20,6,517,PS,exp,33,←,left,←,0.49958919966593385,True,13,-1,0,3
Y2-S2-240K20,6,518,PS,exp,50,↑,up,↑,0.45440750010311604,True,13,1,1,4
Y2-S2-240K20,6,519,PS,exp,46,↓,down,↓,0.48889200016856194,True,12,1,0,4
Y2-S2-240K20,6,520,PS,exp,26,↑,left,←,0.5539099001325667,False,12,-1,1,5
Y2-S2-240K20,6,521,PS,exp,49,→,right,→,0.4097587000578642,True,13,-1,0,5
Y2-S2-240K20,6,522,PS,exp,38,↓,down,↓,0.44966090004891157,True,13,-1,0,5
Y2-S2-240K20,6,523,PS,exp,38,←,left,←,1.2196570001542568,True,13,1,1,6
Y2-S2-240K20,6,524,PS,exp,30,↓,down,↓,0.4362021000124514,True,12,1,0,6
Y2-S2-240K20,6,525,PS,exp,34,→,right,→,0.46369050024077296,True,12,1,0,6
Y2-S2-240K20,6,526,PS,exp,28,←,left,←,1.1458199000917375,True,12,1,0,6
Y2-S2-240K20,6,527,PS,exp,36,↑,up,↑,0.42586039984598756,True,11,1,0,6
Y2-S2-240K20,6,528,PS,exp,35,←,up,↑,0.37359580025076866,False,11,-1,1,7
Y2-S2-240K20,6,529,PS,exp,46,↑,up,↑,0.4734044000506401,True,12,-1,0,7
Y2-S2-240K20,6,530,PS,exp,39,→,left,←,0.5259131998755038,False,12,-1,0,7
Y2-S2-240K20,6,531,PS,exp,44,↓,down,↓,0.5410536997951567,True,13,-1,0,7
Y2-S2-240K20,6,532,PS,exp,28,→,left,←,0.4909133999608457,False,13,-1,0,7
Y2-S2-240K20,6,533,PS,exp,29,←,left,←,0.4078739997930825,True,14,-1,0,7
Y2-S2-240K20,6,534,PS,exp,41,↓,down,↓,0.4119858997873962,True,14,-1,0,7
Y2-S2-240K20,6,535,PS,exp,36,↑,left,←,0.4513731002807617,False,14,-1,0,7
Y2-S2-240K20,6,536,PS,exp,25,→,right,→,0.4636467997916043,True,15,-1,0,7
Y2-S2-240K20,6,537,PS,exp,41,←,right,→,0.7430668999440968,False,15,-1,0,7
Y2-S2-240K20,6,538,PS,exp,41,↓,down,↓,0.4452324998565018,True,16,-1,0,7
Y2-S2-240K20,6,539,PS,exp,28,→,right,→,0.4689738000743091,True,16,-1,0,7
Y2-S2-240K20,6,540,PS,exp,32,↓,down,↓,0.40094290021806955,True,16,1,1,8
Y2-S2-240K20,6,541,PS,exp,42,↑,up,↑,0.5042110001668334,True,15,1,0,8
Y2-S2-240K20,6,542,PS,exp,34,→,right,→,0.5162771996110678,True,15,1,0,8
Y2-S2-240K20,6,543,PS,exp,50,↑,up,↑,0.4495145999826491,True,15,1,0,8
Y2-S2-240K20,6,544,PS,exp,32,↓,down,↓,0.4528191997669637,True,14,1,0,8
Y2-S2-240K20,6,545,PS,exp,49,←,left,←,0.45683509996160865,True,14,1,0,8
Y2-S2-240K20,6,546,PS,exp,28,↑,up,↑,0.6331446999683976,True,14,1,0,8
Y2-S2-240K20,6,547,PS,exp,36,→,right,→,0.3851425996981561,True,13,1,0,8
Y2-S2-240K20,6,548,PS,exp,42,↓,down,↓,0.44655120000243187,True,13,1,0,8
Y2-S2-240K20,6,549,PS,exp,39,↑,up,↑,0.8646877999417484,True,13,1,0,8
Y2-S2-240K20,6,550,PS,exp,26,→,left,←,0.37654329976066947,False,12,-1,1,9
Y2-S2-240K20,6,551,PS,exp,33,←,left,←,0.9738859999924898,True,13,-1,0,9
Y2-S2-240K20,6,552,PS,exp,29,↑,right,→,0.3939676000736654,False,13,-1,0,9
Y2-S2-240K20,6,553,PS,exp,27,↓,down,↓,0.43604549998417497,True,14,-1,0,9
Y2-S2-240K20,6,554,PS,exp,44,→,right,→,0.49715990014374256,True,14,-1,0,9
Y2-S2-240K20,6,555,PS,exp,38,↓,down,↓,0.3671691999770701,True,14,1,1,10
Y2-S2-240K20,6,556,PS,exp,39,→,right,→,0.8569157999008894,True,13,1,0,10
Y2-S2-240K20,6,557,PS,exp,29,↑,up,↑,0.6550088999792933,True,13,1,0,10
Y2-S2-240K20,6,558,PS,exp,41,→,right,→,0.4095195000991225,True,13,1,0,10
Y2-S2-240K20,6,559,PS,exp,50,←,left,←,0.8381829997524619,True,12,1,0,10
Y2-S2-240K20,6,560,PS,exp,26,↓,down,↓,0.44624429987743497,True,12,1,0,10
Y2-S2-240K20,6,561,PS,exp,49,→,right,→,0.46068920008838177,True,12,1,0,10
Y2-S2-240K20,6,562,PS,exp,50,↑,up,↑,0.843463100027293,True,11,1,0,10
Y2-S2-240K20,6,563,PS,exp,45,←,left,←,0.3774319002404809,True,11,1,0,10
Y2-S2-240K20,6,564,PS,exp,44,↓,down,↓,0.40433930000290275,True,11,1,0,10
Y2-S2-240K20,6,565,PS,exp,41,→,right,→,0.4105287999846041,True,10,1,0,10
Y2-S2-240K20,6,566,PS,exp,50,↑,up,↑,0.402313900180161,True,10,1,0,10
Y2-S2-240K20,6,567,PS,exp,46,↓,right,→,0.40282729966565967,False,10,-1,1,11
Y2-S2-240K20,6,568,PS,exp,25,←,left,←,0.35205129999667406,True,11,-1,0,11
Y2-S2-240K20,6,569,PS,exp,31,↓,right,→,0.505691799800843,False,11,-1,0,11
Y2-S2-240K20,6,570,PS,exp,46,↑,up,↑,0.4018647000193596,True,12,-1,0,11
Y2-S2-240K20,6,571,PS,exp,50,→,up,↑,1.0330814998596907,False,12,-1,0,11
Y2-S2-240K20,6,572,PS,exp,49,↓,down,↓,0.5007139998488128,True,13,-1,0,11
Y2-S2-240K20,6,573,PS,exp,38,←,left,←,0.35017819982022047,True,13,-1,0,11
Y2-S2-240K20,6,574,PS,exp,27,↑,up,↑,0.474244000390172,True,13,1,1,12
Y2-S2-240K20,6,575,PS,exp,39,→,right,→,0.8777609998360276,True,12,1,0,12
Y2-S2-240K20,6,576,PS,exp,38,↓,down,↓,0.4737018998712301,True,12,1,0,12
Y2-S2-240K20,6,577,PS,exp,38,↑,left,←,0.41970149986445904,False,12,-1,1,13
Y2-S2-240K20,6,578,PS,exp,27,←,left,←,0.38651630003005266,True,13,-1,0,13
Y2-S2-240K20,6,579,PS,exp,40,→,right,→,0.7016751999035478,True,13,-1,0,13
Y2-S2-240K20,6,580,PS,exp,38,↓,down,↓,0.45007950020954013,True,13,1,1,14
Y2-S2-240K20,6,581,PS,exp,43,↑,up,↑,0.4415925000794232,True,12,1,0,14
Y2-S2-240K20,6,582,PS,exp,37,↓,right,→,0.8488588999025524,False,12,-1,1,15
Y2-S2-240K20,6,583,PS,exp,44,→,right,→,0.3991097002290189,True,13,-1,0,15
Y2-S2-240K20,6,584,PS,exp,37,↓,right,→,1.048429099842906,False,13,-1,0,15
Y2-S2-240K20,6,585,PS,exp,25,↑,down,↓,0.9710856000892818,False,14,-1,0,15
Y2-S2-240K20,6,586,PS,exp,44,↓,up,↑,0.7645628000609577,False,15,-1,0,15
Y2-S2-240K20,6,587,PS,exp,26,→,left,←,0.317229799926281,False,16,-1,0,15
Y2-S2-240K20,6,588,PS,exp,41,←,left,←,0.4006060999818146,True,17,-1,0,15
Y2-S2-240K20,6,589,PS,exp,36,↓,down,↓,1.0036245002411306,True,17,-1,0,15
Y2-S2-240K20,6,590,PS,exp,49,←,left,←,0.8844703999347985,True,17,1,1,16
Y2-S2-240K20,7,591,PS,intra_train,46,↓,down,↓,0.414217000361532,True,12,-,-,-
Y2-S2-240K20,7,592,PS,intra_train,40,→,right,→,0.933774400036782,True,12,-,-,-
Y2-S2-240K20,7,593,PS,intra_train,26,↑,up,↑,0.40082990005612373,True,12,-,-,-
Y2-S2-240K20,7,594,PS,intra_train,28,→,down,↓,0.6045872000977397,False,12,-,-,-
Y2-S2-240K20,7,595,PS,intra_train,31,↓,down,↓,0.5140563999302685,True,12,-,-,-
Y2-S2-240K20,7,596,PS,exp,35,←,left,←,0.3984032003208995,True,8,0,0,0
Y2-S2-240K20,7,597,PS,exp,36,→,right,→,0.37890829984098673,True,8,0,0,0
Y2-S2-240K20,7,598,PS,exp,30,←,left,←,0.39658809965476394,True,8,1,0,0
Y2-S2-240K20,7,599,PS,exp,48,↑,left,←,0.46290329983457923,False,7,-1,1,1
Y2-S2-240K20,7,600,PS,exp,48,←,left,←,0.35053670033812523,True,8,-1,0,1
Y2-S2-240K20,7,601,PS,exp,48,→,right,→,0.44445660011842847,True,8,-1,0,1
Y2-S2-240K20,7,602,PS,exp,25,↓,left,←,0.31700260005891323,False,8,-1,0,1
Y2-S2-240K20,7,603,PS,exp,34,→,left,←,0.2671060999855399,False,9,-1,0,1
Y2-S2-240K20,7,604,PS,exp,25,↑,up,↑,0.37347450014203787,True,10,-1,0,1
Y2-S2-240K20,7,605,PS,exp,45,→,right,→,0.40814319998025894,True,10,-1,0,1
Y2-S2-240K20,7,606,PS,exp,47,←,left,←,0.3505957000888884,True,10,1,1,2
Y2-S2-240K20,7,607,PS,exp,39,↑,up,↑,0.3695241999812424,True,9,1,0,2
Y2-S2-240K20,7,608,PS,exp,46,↓,left,←,0.34908480010926723,False,9,-1,1,3
Y2-S2-240K20,7,609,PS,exp,45,↑,up,↑,0.3934442000463605,True,10,-1,0,3
Y2-S2-240K20,7,610,PS,exp,29,→,right,→,0.8410630999132991,True,10,-1,0,3
Y2-S2-240K20,7,611,PS,exp,44,←,right,→,0.2838822999037802,False,10,-1,0,3
Y2-S2-240K20,7,612,PS,exp,37,→,right,→,0.8468054998666048,True,11,-1,0,3
Y2-S2-240K20,7,613,PS,exp,27,↓,down,↓,0.4857423002831638,True,11,-1,0,3
Y2-S2-240K20,7,614,PS,exp,41,→,right,→,0.3865322000347078,True,11,1,1,4
Y2-S2-240K20,7,615,PS,exp,41,↑,up,↑,1.035542099736631,True,10,1,0,4
Y2-S2-240K20,7,616,PS,exp,46,→,right,→,0.5047190999612212,True,10,1,0,4
Y2-S2-240K20,7,617,PS,exp,39,←,left,←,0.36033680010586977,True,10,1,0,4
Y2-S2-240K20,7,618,PS,exp,26,↑,up,↑,0.3681697999127209,True,9,1,0,4
Y2-S2-240K20,7,619,PS,exp,29,↓,down,↓,0.41815759986639023,True,9,1,0,4
Y2-S2-240K20,7,620,PS,exp,42,↑,right,→,0.49115139991045,False,9,-1,1,5
Y2-S2-240K20,7,621,PS,exp,29,↓,left,←,0.2667045001871884,False,10,-1,0,5
Y2-S2-240K20,7,622,PS,exp,43,←,left,←,0.43381129996851087,True,11,-1,0,5
Y2-S2-240K20,7,623,PS,exp,46,→,right,→,0.46184200001880527,True,11,-1,0,5
Y2-S2-240K20,7,624,PS,exp,43,↑,left,←,0.4149668999016285,False,11,-1,0,5
Y2-S2-240K20,7,625,PS,exp,31,→,right,→,0.5344442999921739,True,12,-1,0,5
Y2-S2-240K20,7,626,PS,exp,42,↓,down,↓,0.507277199998498,True,12,-1,0,5
Y2-S2-240K20,7,627,PS,exp,50,←,left,←,0.37826729984954,True,12,1,1,6
Y2-S2-240K20,7,628,PS,exp,34,↑,up,↑,0.4020252996124327,True,11,1,0,6
Y2-S2-240K20,7,629,PS,exp,34,→,right,→,0.48008579993620515,True,11,1,0,6
Y2-S2-240K20,7,630,PS,exp,26,↑,up,↑,0.40183099964633584,True,11,1,0,6
Y2-S2-240K20,7,631,PS,exp,43,←,left,←,0.46189510030671954,True,10,1,0,6
Y2-S2-240K20,7,632,PS,exp,49,↑,up,↑,0.37416210025548935,True,10,1,0,6
Y2-S2-240K20,7,633,PS,exp,38,↓,left,←,0.4277466000057757,False,10,-1,1,7
Y2-S2-240K20,7,634,PS,exp,25,↑,right,→,0.362591499928385,False,11,-1,0,7
Y2-S2-240K20,7,635,PS,exp,38,→,right,→,0.3005919000133872,True,12,-1,0,7
Y2-S2-240K20,7,636,PS,exp,40,←,left,←,0.41661900002509356,True,12,-1,0,7
Y2-S2-240K20,7,637,PS,exp,39,↓,down,↓,0.5262515000067651,True,12,1,1,8
Y2-S2-240K20,7,638,PS,exp,25,↑,up,↑,0.45410569990053773,True,11,1,0,8
Y2-S2-240K20,7,639,PS,exp,33,↓,down,↓,0.5091981999576092,True,11,1,0,8
Y2-S2-240K20,7,640,PS,exp,39,←,left,←,0.4141033999621868,True,11,1,0,8
Y2-S2-240K20,7,641,PS,exp,32,↑,right,→,0.6977923000231385,False,10,-1,1,9
Y2-S2-240K20,7,642,PS,exp,49,←,left,←,0.2839358001947403,True,11,-1,0,9
Y2-S2-240K20,7,643,PS,exp,34,→,right,→,0.48323730006814003,True,11,-1,0,9
Y2-S2-240K20,7,644,PS,exp,48,←,left,←,0.30058349994942546,True,11,1,1,10
Y2-S2-240K20,7,645,PS,exp,37,↑,right,→,0.2169221001677215,False,10,-1,1,11
Y2-S2-240K20,7,646,PS,exp,29,↓,left,←,0.2668824000284076,False,11,-1,0,11
Y2-S2-240K20,7,647,PS,exp,49,↑,down,↓,0.5899553997442126,False,12,-1,0,11
Y2-S2-240K20,7,648,PS,exp,49,→,right,→,0.42325880005955696,True,13,-1,0,11
Y2-S2-240K20,7,649,PS,exp,34,↓,left,←,0.48174160020425916,False,13,-1,0,11
Y2-S2-240K20,7,650,PS,exp,41,←,right,→,0.5014257999137044,False,14,-1,0,11
Y2-S2-240K20,7,651,PS,exp,43,↑,up,↑,0.5125599997118115,True,15,-1,0,11
Y2-S2-240K20,7,652,PS,exp,48,←,left,←,0.42062020022422075,True,15,-1,0,11
Y2-S2-240K20,7,653,PS,exp,28,↑,up,↑,0.5552877001464367,True,15,1,1,12
Y2-S2-240K20,7,654,PS,exp,47,→,right,→,0.41952400002628565,True,14,1,0,12
Y2-S2-240K20,7,655,PS,exp,49,↑,up,↑,0.433455899823457,True,14,1,0,12
Y2-S2-240K20,7,656,PS,exp,42,→,right,→,1.003150099888444,True,14,1,0,12
Y2-S2-240K20,7,657,PS,exp,33,←,up,↑,0.5279597998596728,False,13,-1,1,13
Y2-S2-240K20,7,658,PS,exp,29,↓,down,↓,0.4631256000138819,True,14,-1,0,13
Y2-S2-240K20,7,659,PS,exp,33,←,left,←,0.9435863001272082,True,14,-1,0,13
Y2-S2-240K20,7,660,PS,exp,40,↑,up,↑,0.9184206002391875,True,14,1,1,14
Y2-S2-240K20,7,661,PS,exp,25,←,left,←,0.7404192998073995,True,13,1,0,14
Y2-S2-240K20,7,662,PS,exp,36,↓,down,↓,0.3976313001476228,True,13,1,0,14
Y2-S2-240K20,7,663,PS,exp,29,←,left,←,0.35039310017600656,True,13,1,0,14
Y2-S2-240K20,7,664,PS,exp,32,→,right,→,0.470187199767679,True,12,1,0,14
Y2-S2-240K20,7,665,PS,exp,32,↑,up,↑,0.4790949998423457,True,12,1,0,14
Y2-S2-240K20,7,666,PS,exp,31,↓,right,→,0.39776770025491714,False,12,-1,1,15
Y2-S2-240K20,7,667,PS,exp,26,↑,up,↑,0.4020893000997603,True,13,-1,0,15
Y2-S2-240K20,7,668,PS,exp,44,→,right,→,0.40893989987671375,True,13,-1,0,15
Y2-S2-240K20,7,669,PS,exp,27,↓,down,↓,0.3905443996191025,True,13,1,1,16
Y2-S2-240K20,8,670,AS,intra_train,30,←,left,←,0.4504402996972203,True,28,-,-,-
Y2-S2-240K20,8,671,AS,intra_train,33,→,right,→,0.46707639982923865,True,28,-,-,-
Y2-S2-240K20,8,672,AS,intra_train,43,↑,up,↑,0.3839367995969951,True,28,-,-,-
Y2-S2-240K20,8,673,AS,intra_train,28,←,right,→,0.5672015999443829,False,28,-,-,-
Y2-S2-240K20,8,674,AS,intra_train,29,→,right,→,0.4174877000041306,True,28,-,-,-
Y2-S2-240K20,8,675,AS,exp,48,←,right,→,0.5965789998881519,False,19,-1,0,0
Y2-S2-240K20,8,676,AS,exp,30,→,right,→,0.43390659987926483,True,20,-1,0,0
Y2-S2-240K20,8,677,AS,exp,38,←,left,←,0.57076850021258,True,20,-1,0,0
Y2-S2-240K20,8,678,AS,exp,37,↓,no_key,no_letter,-1.0,False,20,-1,0,0
Y2-S2-240K20,8,679,AS,exp,34,→,right,→,0.6269677001982927,True,21,-1,0,0
Y2-S2-240K20,8,680,AS,exp,33,↓,down,↓,0.6522528999485075,True,21,-1,0,0
Y2-S2-240K20,8,681,AS,exp,47,←,left,←,0.5236076000146568,True,21,1,1,1
Y2-S2-240K20,8,682,AS,exp,30,→,right,→,0.40079550025984645,True,20,1,0,1
Y2-S2-240K20,8,683,AS,exp,35,↓,down,↓,0.40040199970826507,True,20,1,0,1
Y2-S2-240K20,8,684,AS,exp,35,←,left,←,0.43337809992954135,True,20,1,0,1
Y2-S2-240K20,8,685,AS,exp,25,↓,down,↓,0.40034199971705675,True,19,1,0,1
Y2-S2-240K20,8,686,AS,exp,47,↑,up,↑,0.4502602000720799,True,19,1,0,1
Y2-S2-240K20,8,687,AS,exp,36,←,left,←,0.3673193999566138,True,19,1,0,1
Y2-S2-240K20,8,688,AS,exp,38,↑,down,↓,0.6101859002374113,False,18,-1,1,2
Y2-S2-240K20,8,689,AS,exp,36,↓,down,↓,1.055355700198561,True,19,-1,0,2
Y2-S2-240K20,8,690,AS,exp,34,←,left,←,0.40002969978377223,True,19,-1,0,2
Y2-S2-240K20,8,691,AS,exp,42,↓,down,↓,0.3837929000146687,True,19,1,1,3
Y2-S2-240K20,8,692,AS,exp,25,↑,up,↑,0.40036029973998666,True,18,1,0,3
Y2-S2-240K20,8,693,AS,exp,31,←,left,←,0.4894744995981455,True,18,1,0,3
Y2-S2-240K20,8,694,AS,exp,43,↓,down,↓,1.0314172999933362,True,18,1,0,3
Y2-S2-240K20,8,695,AS,exp,29,↑,down,↓,0.5066955997608602,False,17,-1,1,4
Y2-S2-240K20,8,696,AS,exp,42,↓,down,↓,0.3506885999813676,True,18,-1,0,4
Y2-S2-240K20,8,697,AS,exp,38,→,right,→,0.6210811999626458,True,18,-1,0,4
Y2-S2-240K20,8,698,AS,exp,25,←,left,←,0.3505341000854969,True,18,1,1,5
Y2-S2-240K20,8,699,AS,exp,46,→,right,→,0.47877879999578,True,17,1,0,5
Y2-S2-240K20,8,700,AS,exp,34,↑,up,↑,0.46624029986560345,True,17,1,0,5
Y2-S2-240K20,8,701,AS,exp,44,←,left,←,0.4002582998946309,True,17,1,0,5
Y2-S2-240K20,8,702,AS,exp,49,↑,up,↑,0.36708159977570176,True,16,1,0,5
Y2-S2-240K20,8,703,AS,exp,41,↓,down,↓,0.4006248000077903,True,16,1,0,5
Y2-S2-240K20,8,704,AS,exp,41,↑,down,↓,0.6390745001845062,False,16,-1,1,6
Y2-S2-240K20,8,705,AS,exp,49,←,left,←,0.3668381003662944,True,17,-1,0,6
Y2-S2-240K20,8,706,AS,exp,48,↑,up,↑,0.35042240004986525,True,17,-1,0,6
Y2-S2-240K20,8,707,AS,exp,37,→,right,→,0.5018609999679029,True,17,1,1,7
Y2-S2-240K20,8,708,AS,exp,37,↓,up,↑,0.3508749003522098,False,16,-1,1,8
Y2-S2-240K20,8,709,AS,exp,27,←,left,←,0.33390159998089075,True,17,-1,0,8
Y2-S2-240K20,8,710,AS,exp,46,↑,up,↑,0.4169831997714937,True,17,-1,0,8
Y2-S2-240K20,8,711,AS,exp,30,↓,down,↓,0.5697785001248121,True,17,1,1,9
Y2-S2-240K20,8,712,AS,exp,39,←,up,↑,0.18410969991236925,False,16,-1,1,10
Y2-S2-240K20,8,713,AS,exp,42,→,right,→,1.0012944000773132,True,17,-1,0,10
Y2-S2-240K20,8,714,AS,exp,29,↓,left,←,0.47578580025583506,False,17,-1,0,10
Y2-S2-240K20,8,715,AS,exp,25,→,right,→,0.3007185999304056,True,18,-1,0,10
Y2-S2-240K20,8,716,AS,exp,30,↑,right,→,0.4339020997285843,False,18,-1,0,10
Y2-S2-240K20,8,717,AS,exp,47,→,up,↑,0.41698209987953305,False,19,-1,0,10
Y2-S2-240K20,8,718,AS,exp,32,←,left,←,0.637695699930191,True,20,-1,0,10
Y2-S2-240K20,8,719,AS,exp,30,↑,up,↑,0.5765887997113168,True,20,-1,0,10
Y2-S2-240K20,8,720,AS,exp,30,→,right,→,0.4001881000585854,True,20,1,1,11
Y2-S2-240K20,8,721,AS,exp,25,↑,up,↑,0.5023670000955462,True,19,1,0,11
Y2-S2-240K20,8,722,AS,exp,31,↓,down,↓,0.6029042000882328,True,19,1,0,11
Y2-S2-240K20,8,723,AS,exp,41,←,left,←,1.0590212000533938,True,19,1,0,11
Y2-S2-240K20,8,724,AS,exp,39,↑,up,↑,0.47456090012565255,True,18,1,0,11
Y2-S2-240K20,8,725,AS,exp,43,→,right,→,1.3509586998261511,True,18,1,0,11
Y2-S2-240K20,8,726,AS,exp,43,↑,up,↑,0.3671626001596451,True,18,1,0,11
Y2-S2-240K20,8,727,AS,exp,47,→,right,→,1.0633140997961164,True,17,1,0,11
Y2-S2-240K20,8,728,AS,exp,29,↑,up,↑,0.3671953999437392,True,17,1,0,11
Y2-S2-240K20,8,729,AS,exp,47,←,left,←,0.5059870998375118,True,17,1,0,11
Y2-S2-240K20,8,730,AS,exp,36,↓,down,↓,0.36745060002431273,True,16,1,0,11
Y2-S2-240K20,8,731,AS,exp,29,←,left,←,0.45971939992159605,True,16,1,0,11
Y2-S2-240K20,8,732,AS,exp,35,↓,down,↓,0.383858900051564,True,16,1,0,11
Y2-S2-240K20,8,733,AS,exp,36,↑,up,↑,0.30055349972099066,True,15,1,0,11
Y2-S2-240K20,8,734,AS,exp,41,↓,down,↓,1.0610294002108276,True,15,1,0,11
Y2-S2-240K20,8,735,AS,exp,26,↑,up,↑,0.36697519989684224,True,15,1,0,11
Y2-S2-240K20,8,736,AS,exp,42,←,left,←,0.5569600998423994,True,14,1,0,11
Y2-S2-240K20,8,737,AS,exp,46,↓,down,↓,1.0363737000152469,True,14,1,0,11
Y2-S2-240K20,8,738,AS,exp,29,↑,up,↑,0.49348080018535256,True,14,1,0,11
Y2-S2-240K20,8,739,AS,exp,29,→,right,→,0.4403258999809623,True,13,1,0,11
Y2-S2-240K20,8,740,AS,exp,34,↑,up,↑,0.5656512002460659,True,13,1,0,11
Y2-S2-240K20,8,741,AS,exp,48,↓,up,↑,0.5982424998655915,False,13,-1,1,12
Y2-S2-240K20,8,742,AS,exp,44,↑,up,↑,0.36739280028268695,True,14,-1,0,12
Y2-S2-240K20,8,743,AS,exp,45,←,left,←,0.4259163998067379,True,14,-1,0,12
Y2-S2-240K20,8,744,AS,exp,28,↑,up,↑,0.3670385000295937,True,14,1,1,13
Y2-S2-240K20,8,745,AS,exp,35,↓,up,↑,0.5320005998946726,False,13,-1,1,14
Y2-S2-240K20,8,746,AS,exp,40,→,right,→,0.9605117999017239,True,14,-1,0,14
Y2-S2-240K20,8,747,AS,exp,43,↓,down,↓,0.42479579988867044,True,14,-1,0,14
Y2-S2-240K20,8,748,AS,exp,50,↑,down,↓,0.7288886001333594,False,14,-1,0,14
Y2-S2-240K20,8,749,AS,exp,28,→,right,→,0.86274000024423,True,15,-1,0,14
Y2-S2-240K20,8,750,AS,exp,48,↑,up,↑,0.3673716001212597,True,15,-1,0,14
Y2-S2-240K20,8,751,AS,exp,46,→,left,←,0.49627669993788004,False,15,-1,0,14
Y2-S2-240K20,8,752,AS,exp,33,↑,up,↑,0.5000207000412047,True,16,-1,0,14
Y2-S2-240K20,8,753,AS,exp,35,↓,down,↓,0.4950266997329891,True,16,-1,0,14
Y2-S2-240K20,8,754,AS,exp,45,→,right,→,0.559572100173682,True,16,1,1,15
Y2-S2-240K20,8,755,AS,exp,30,↑,up,↑,0.4536895998753607,True,15,1,0,15
Y2-S2-240K20,8,756,AS,exp,49,↓,down,↓,0.4756186995655298,True,15,1,0,15
Y2-S2-240K20,8,757,AS,exp,50,↑,right,→,0.4738341998308897,False,15,-1,1,16
