PART_ID,Block_no,Trial_no,Block_type,Trial_type,CSI,Stim_letter,Key_pressed,letter_choose,Rt,Corr,Stimulus Time,Level,Reversal,Revs_count
Y2-S2-129K31,1,1,PS,train,40,→,left,←,1.5547099999967031,False,30,-,-,-
Y2-S2-129K31,1,2,PS,train,42,↓,down,↓,1.954624399993918,True,30,-,-,-
Y2-S2-129K31,1,3,PS,train,45,←,left,←,1.438060199987376,True,30,-,-,-
Y2-S2-129K31,1,4,PS,train,47,↓,down,↓,1.1183454999991227,True,30,-,-,-
Y2-S2-129K31,1,5,PS,train,41,←,left,←,1.325395899999421,True,30,-,-,-
Y2-S2-129K31,1,6,PS,train,34,↑,up,↑,1.1618330999917816,True,30,-,-,-
Y2-S2-129K31,1,7,PS,train,31,←,left,←,1.1067293000087375,True,30,-,-,-
Y2-S2-129K31,1,8,PS,train,33,↓,down,↓,1.084172300004866,True,30,-,-,-
Y2-S2-129K31,1,9,PS,train,26,→,right,→,1.112386199994944,True,30,-,-,-
Y2-S2-129K31,1,10,PS,train,47,←,left,←,0.9602346000028774,True,30,-,-,-
Y2-S2-129K31,2,11,AS,train,42,→,right,→,0.7679103999980725,True,45,-,-,-
Y2-S2-129K31,2,12,AS,train,30,↑,up,↑,1.1249317999900086,True,45,-,-,-
Y2-S2-129K31,2,13,AS,train,40,↓,down,↓,0.989912799996091,True,45,-,-,-
Y2-S2-129K31,2,14,AS,train,35,↑,no_key,no_letter,-1.0,False,45,-,-,-
Y2-S2-129K31,2,15,AS,train,45,→,right,→,0.750560399988899,True,45,-,-,-
Y2-S2-129K31,2,16,AS,train,34,←,left,←,0.9696304999961285,True,45,-,-,-
Y2-S2-129K31,2,17,AS,train,28,↑,up,↑,0.800739699989208,True,45,-,-,-
Y2-S2-129K31,2,18,AS,train,35,←,left,←,2.406147499990766,True,45,-,-,-
Y2-S2-129K31,2,19,AS,train,40,→,right,→,1.1005137000029208,True,45,-,-,-
Y2-S2-129K31,2,20,AS,train,27,←,left,←,0.9951693999901181,True,45,-,-,-
Y2-S2-129K31,-,21,PS,adaptive,37,↑,up,↑,0.6920883000129834,True,10,0,0,0
Y2-S2-129K31,-,22,PS,adaptive,44,↓,down,↓,0.8534639999998035,True,10,0,0,0
Y2-S2-129K31,-,23,PS,adaptive,45,↑,left,←,0.922313100003521,False,10,-1,0,0
Y2-S2-129K31,-,24,PS,adaptive,27,→,left,←,1.1232309000042733,False,11,-1,0,0
Y2-S2-129K31,-,25,PS,adaptive,31,←,left,←,0.7152785999933258,True,12,-1,0,0
Y2-S2-129K31,-,26,PS,adaptive,29,↓,up,↑,0.8602238000021316,False,12,-1,0,0
Y2-S2-129K31,-,27,PS,adaptive,28,←,left,←,0.7626493999996455,True,13,-1,0,0
Y2-S2-129K31,-,28,PS,adaptive,35,↓,down,↓,1.0186895999941044,True,13,-1,0,0
Y2-S2-129K31,-,29,PS,adaptive,26,←,left,←,0.8319514000031631,True,13,1,1,1
Y2-S2-129K31,-,30,PS,adaptive,45,↑,up,↑,0.6699909000017215,True,12,1,0,1
Y2-S2-129K31,-,31,PS,adaptive,47,→,right,→,0.7803394999937154,True,12,1,0,1
Y2-S2-129K31,-,32,PS,adaptive,41,↓,down,↓,0.7798459000041476,True,12,1,0,1
Y2-S2-129K31,-,33,PS,adaptive,30,←,left,←,0.7330797000031453,True,11,1,0,1
Y2-S2-129K31,-,34,PS,adaptive,31,→,right,→,0.7437663000018802,True,11,1,0,1
Y2-S2-129K31,-,35,PS,adaptive,35,←,left,←,0.7446803000057116,True,11,1,0,1
Y2-S2-129K31,-,36,PS,adaptive,31,↑,right,→,1.0688870000012685,False,10,-1,1,2
Y2-S2-129K31,-,37,PS,adaptive,46,←,left,←,0.8850141000002623,True,11,-1,0,2
Y2-S2-129K31,-,38,PS,adaptive,30,↑,left,←,0.7785297999944305,False,11,-1,0,2
Y2-S2-129K31,-,39,PS,adaptive,27,→,right,→,0.6961258000083035,True,12,-1,0,2
Y2-S2-129K31,-,40,PS,adaptive,32,←,right,→,0.7693141999916406,False,12,-1,0,2
Y2-S2-129K31,-,41,PS,adaptive,41,↑,up,↑,0.7213119999942137,True,13,-1,0,2
Y2-S2-129K31,-,42,PS,adaptive,48,→,right,→,0.6942095999984303,True,13,-1,0,2
Y2-S2-129K31,-,43,PS,adaptive,38,↑,left,←,0.7849378999962937,False,13,-1,0,2
Y2-S2-129K31,-,44,PS,adaptive,46,→,right,→,0.6336372999940068,True,14,-1,0,2
Y2-S2-129K31,-,45,PS,adaptive,43,↑,up,↑,0.6461679000058211,True,14,-1,0,2
Y2-S2-129K31,-,46,PS,adaptive,40,↓,down,↓,0.8913967000116827,True,14,1,1,3
Y2-S2-129K31,-,47,PS,adaptive,34,↑,up,↑,0.8429724000015995,True,13,1,0,3
Y2-S2-129K31,-,48,PS,adaptive,36,→,right,→,0.7270629999984521,True,13,1,0,3
Y2-S2-129K31,-,49,PS,adaptive,35,←,left,←,0.8543451000005007,True,13,1,0,3
Y2-S2-129K31,-,50,PS,adaptive,45,→,right,→,0.6826104000065243,True,12,1,0,3
Y2-S2-129K31,-,51,PS,adaptive,29,↓,right,→,0.726755099996808,False,12,-1,1,4
Y2-S2-129K31,-,52,AS,adaptive,42,←,left,←,0.8488827000110177,True,20,0,0,0
Y2-S2-129K31,-,53,AS,adaptive,27,↑,up,↑,0.7684735999937402,True,20,0,0,0
Y2-S2-129K31,-,54,AS,adaptive,25,←,left,←,0.8334891999984393,True,20,1,0,0
Y2-S2-129K31,-,55,AS,adaptive,35,→,right,→,0.7310145000083139,True,19,1,0,0
Y2-S2-129K31,-,56,AS,adaptive,43,↓,down,↓,0.8799769000033848,True,19,1,0,0
Y2-S2-129K31,-,57,AS,adaptive,32,→,right,→,0.801493400009349,True,19,1,0,0
Y2-S2-129K31,-,58,AS,adaptive,28,←,left,←,0.8375974999944447,True,18,1,0,0
Y2-S2-129K31,-,59,AS,adaptive,38,↑,up,↑,0.7694050999998581,True,18,1,0,0
Y2-S2-129K31,-,60,AS,adaptive,26,→,left,←,0.8752040000108536,False,18,-1,1,1
Y2-S2-129K31,-,61,AS,adaptive,49,↓,down,↓,0.8414516000048025,True,19,-1,0,1
Y2-S2-129K31,-,62,AS,adaptive,42,←,left,←,0.6832731000031345,True,19,-1,0,1
Y2-S2-129K31,-,63,AS,adaptive,31,→,right,→,0.7256579000095371,True,19,1,1,2
Y2-S2-129K31,-,64,AS,adaptive,38,↑,down,↓,0.8452299000055064,False,18,-1,1,3
Y2-S2-129K31,-,65,AS,adaptive,39,↓,down,↓,0.816028399989591,True,19,-1,0,3
Y2-S2-129K31,-,66,AS,adaptive,43,↑,up,↑,0.7743501999939326,True,19,-1,0,3
Y2-S2-129K31,-,67,AS,adaptive,36,↓,down,↓,0.8520762999978615,True,19,1,1,4
Y2-S2-129K31,1,68,PS,intra_train,41,→,right,→,0.7136222999979509,True,19,-,-,-
Y2-S2-129K31,1,69,PS,intra_train,43,←,left,←,0.7443945000122767,True,19,-,-,-
Y2-S2-129K31,1,70,PS,intra_train,30,→,right,→,0.7385531000036281,True,19,-,-,-
Y2-S2-129K31,1,71,PS,intra_train,37,←,left,←,0.7643704999936745,True,19,-,-,-
Y2-S2-129K31,1,72,PS,intra_train,32,→,right,→,0.8686156000039773,True,19,-,-,-
Y2-S2-129K31,1,73,PS,exp,46,←,left,←,0.7970895000034943,True,13,0,0,0
Y2-S2-129K31,1,74,PS,exp,47,→,left,←,0.8906526999926427,False,13,-1,0,0
Y2-S2-129K31,1,75,PS,exp,42,←,left,←,0.7525550999998813,True,14,-1,0,0
Y2-S2-129K31,1,76,PS,exp,50,→,right,→,0.8142487000004621,True,14,-1,0,0
Y2-S2-129K31,1,77,PS,exp,40,←,left,←,0.6637302000017371,True,14,1,1,1
Y2-S2-129K31,1,78,PS,exp,40,→,right,→,0.7008227999904193,True,13,1,0,1
Y2-S2-129K31,1,79,PS,exp,29,↑,left,←,1.0210468000004767,False,13,-1,1,2
Y2-S2-129K31,1,80,PS,exp,42,↓,down,↓,0.8790086000080919,True,14,-1,0,2
Y2-S2-129K31,1,81,PS,exp,40,→,right,→,0.6826740999968024,True,14,-1,0,2
Y2-S2-129K31,1,82,PS,exp,32,←,left,←,0.9465849999978673,True,14,1,1,3
Y2-S2-129K31,1,83,PS,exp,49,→,right,→,0.7153235000005225,True,13,1,0,3
Y2-S2-129K31,1,84,PS,exp,36,↑,up,↑,0.7177880999952322,True,13,1,0,3
Y2-S2-129K31,1,85,PS,exp,34,←,left,←,0.7692986000038218,True,13,1,0,3
Y2-S2-129K31,1,86,PS,exp,38,↑,up,↑,0.7186794000008376,True,12,1,0,3
Y2-S2-129K31,1,87,PS,exp,25,→,right,→,0.5718784999917261,True,12,1,0,3
Y2-S2-129K31,1,88,PS,exp,38,←,left,←,0.8892242000001715,True,12,1,0,3
Y2-S2-129K31,1,89,PS,exp,50,→,right,→,0.6031054999912158,True,11,1,0,3
Y2-S2-129K31,1,90,PS,exp,27,←,left,←,0.8088547999941511,True,11,1,0,3
Y2-S2-129K31,1,91,PS,exp,46,↓,down,↓,0.7635444999905303,True,11,1,0,3
Y2-S2-129K31,1,92,PS,exp,36,→,right,→,0.8235979000019142,True,10,1,0,3
Y2-S2-129K31,1,93,PS,exp,40,←,down,↓,0.8002762999967672,False,10,-1,1,4
Y2-S2-129K31,1,94,PS,exp,34,→,right,→,0.584032800004934,True,11,-1,0,4
Y2-S2-129K31,1,95,PS,exp,35,↑,left,←,0.6535084999923129,False,11,-1,0,4
Y2-S2-129K31,1,96,PS,exp,29,←,left,←,0.709205799998017,True,12,-1,0,4
Y2-S2-129K31,1,97,PS,exp,49,↓,left,←,0.7811425000109011,False,12,-1,0,4
Y2-S2-129K31,1,98,PS,exp,38,↑,up,↑,0.7427443000051426,True,13,-1,0,4
Y2-S2-129K31,1,99,PS,exp,48,↓,down,↓,0.7565948999981629,True,13,-1,0,4
Y2-S2-129K31,1,100,PS,exp,44,↑,up,↑,0.7169052999961423,True,13,1,1,5
Y2-S2-129K31,1,101,PS,exp,40,→,right,→,0.8368908999982523,True,12,1,0,5
Y2-S2-129K31,1,102,PS,exp,46,↓,down,↓,0.8198420999979135,True,12,1,0,5
Y2-S2-129K31,1,103,PS,exp,29,↑,up,↑,0.7493584999901941,True,12,1,0,5
Y2-S2-129K31,1,104,PS,exp,25,↓,down,↓,0.7325708999997005,True,11,1,0,5
Y2-S2-129K31,1,105,PS,exp,34,↑,up,↑,0.7279649999982212,True,11,1,0,5
Y2-S2-129K31,1,106,PS,exp,36,←,up,↑,0.9889322999952128,False,11,-1,1,6
Y2-S2-129K31,1,107,PS,exp,40,→,right,→,0.6786116000002949,True,12,-1,0,6
Y2-S2-129K31,1,108,PS,exp,38,↑,up,↑,0.8138453999999911,True,12,-1,0,6
Y2-S2-129K31,1,109,PS,exp,50,→,left,←,0.7143167000031099,False,12,-1,0,6
Y2-S2-129K31,1,110,PS,exp,37,↓,down,↓,0.8186425999883795,True,13,-1,0,6
Y2-S2-129K31,1,111,PS,exp,36,↑,up,↑,0.6803045999986352,True,13,-1,0,6
Y2-S2-129K31,1,112,PS,exp,31,↓,down,↓,0.8613688000041293,True,13,1,1,7
Y2-S2-129K31,1,113,PS,exp,41,↑,left,←,0.6594236999953864,False,12,-1,1,8
Y2-S2-129K31,1,114,PS,exp,49,→,right,→,0.5936536000081105,True,13,-1,0,8
Y2-S2-129K31,1,115,PS,exp,46,↑,up,↑,0.6451034000056097,True,13,-1,0,8
Y2-S2-129K31,1,116,PS,exp,25,↓,right,→,0.7423087999923155,False,13,-1,0,8
Y2-S2-129K31,1,117,PS,exp,37,→,up,↑,0.695178300011321,False,14,-1,0,8
Y2-S2-129K31,1,118,PS,exp,29,↓,left,←,0.6718011000048136,False,15,-1,0,8
Y2-S2-129K31,1,119,PS,exp,31,←,left,←,0.6888116000045557,True,16,-1,0,8
Y2-S2-129K31,1,120,PS,exp,28,→,right,→,0.6329288999986602,True,16,-1,0,8
Y2-S2-129K31,1,121,PS,exp,47,↓,down,↓,0.9593274000071688,True,16,1,1,9
Y2-S2-129K31,1,122,PS,exp,39,←,left,←,0.7408739999955287,True,15,1,0,9
Y2-S2-129K31,1,123,PS,exp,34,↓,left,←,0.8918942000018433,False,15,-1,1,10
Y2-S2-129K31,1,124,PS,exp,43,→,right,→,0.8248175000044284,True,16,-1,0,10
Y2-S2-129K31,1,125,PS,exp,33,↑,down,↓,0.8590724999958184,False,16,-1,0,10
Y2-S2-129K31,1,126,PS,exp,46,↓,down,↓,0.8309756000089692,True,17,-1,0,10
Y2-S2-129K31,1,127,PS,exp,32,→,right,→,0.6684031000040704,True,17,-1,0,10
Y2-S2-129K31,1,128,PS,exp,49,←,left,←,0.7682286000053864,True,17,1,1,11
Y2-S2-129K31,1,129,PS,exp,49,↓,down,↓,0.7325353000051109,True,16,1,0,11
Y2-S2-129K31,1,130,PS,exp,45,↑,up,↑,0.7254325999965658,True,16,1,0,11
Y2-S2-129K31,1,131,PS,exp,29,→,right,→,0.7090449999959674,True,16,1,0,11
Y2-S2-129K31,1,132,PS,exp,48,↓,down,↓,0.750534399994649,True,15,1,0,11
Y2-S2-129K31,1,133,PS,exp,35,→,right,→,0.6889540999982273,True,15,1,0,11
Y2-S2-129K31,1,134,PS,exp,27,↑,up,↑,0.6387953000084963,True,15,1,0,11
Y2-S2-129K31,1,135,PS,exp,48,→,right,→,0.9971799000049941,True,14,1,0,11
Y2-S2-129K31,1,136,PS,exp,40,↓,down,↓,0.7531608999997843,True,14,1,0,11
Y2-S2-129K31,1,137,PS,exp,48,→,right,→,0.7436941000050865,True,14,1,0,11
Y2-S2-129K31,1,138,PS,exp,27,←,left,←,0.597804899996845,True,13,1,0,11
Y2-S2-129K31,1,139,PS,exp,36,↑,up,↑,0.622248400002718,True,13,1,0,11
Y2-S2-129K31,1,140,PS,exp,48,→,right,→,0.6762438000005204,True,13,1,0,11
Y2-S2-129K31,1,141,PS,exp,30,↓,down,↓,0.7180987000028836,True,12,1,0,11
Y2-S2-129K31,1,142,PS,exp,34,↑,up,↑,0.640218399988953,True,12,1,0,11
Y2-S2-129K31,1,143,PS,exp,27,→,down,↓,1.0387872999999672,False,12,-1,1,12
Y2-S2-129K31,1,144,PS,exp,45,↓,down,↓,0.755534500000067,True,13,-1,0,12
Y2-S2-129K31,1,145,PS,exp,44,←,right,→,0.7273175999871455,False,13,-1,0,12
Y2-S2-129K31,1,146,PS,exp,29,↓,down,↓,0.7683964000025298,True,14,-1,0,12
Y2-S2-129K31,1,147,PS,exp,34,←,left,←,0.6978564000019105,True,14,-1,0,12
Y2-S2-129K31,1,148,PS,exp,45,↑,left,←,1.0694061999965925,False,14,-1,0,12
Y2-S2-129K31,1,149,PS,exp,27,↓,left,←,0.8776173000078415,False,15,-1,0,12
Y2-S2-129K31,1,150,PS,exp,30,↑,left,←,0.9990415000065695,False,16,-1,0,12
Y2-S2-129K31,1,151,PS,exp,35,←,left,←,0.5876308000006247,True,17,-1,0,12
Y2-S2-129K31,1,152,PS,exp,28,→,right,→,0.7353770000045188,True,17,-1,0,12
Y2-S2-129K31,1,153,PS,exp,31,↓,down,↓,0.7819859999872278,True,17,1,1,13
Y2-S2-129K31,1,154,PS,exp,47,→,right,→,0.7180131999921286,True,16,1,0,13
Y2-S2-129K31,1,155,PS,exp,29,←,left,←,0.7174128999904497,True,16,1,0,13
Y2-S2-129K31,1,156,PS,exp,28,↑,up,↑,0.6979761999973562,True,16,1,0,13
Y2-S2-129K31,1,157,PS,exp,29,←,left,←,0.7480451000010362,True,15,1,0,13
Y2-S2-129K31,1,158,PS,exp,33,↓,down,↓,0.7666524999949615,True,15,1,0,13
Y2-S2-129K31,1,159,PS,exp,40,↑,up,↑,0.5588227999978699,True,15,1,0,13
Y2-S2-129K31,1,160,PS,exp,28,←,right,→,1.374101099994732,False,14,-1,1,14
Y2-S2-129K31,1,161,PS,exp,27,→,left,←,0.6898619999992661,False,15,-1,0,14
Y2-S2-129K31,1,162,PS,exp,42,←,left,←,0.5630196000129217,True,16,-1,0,14
Y2-S2-129K31,1,163,PS,exp,37,→,right,→,0.6470894999947632,True,16,-1,0,14
Y2-S2-129K31,1,164,PS,exp,38,↓,down,↓,1.2849950000090757,True,16,1,1,15
Y2-S2-129K31,1,165,PS,exp,36,→,right,→,0.5812690000020666,True,15,1,0,15
Y2-S2-129K31,1,166,PS,exp,25,←,right,→,0.8143061000009766,False,15,-1,1,16
Y2-S2-129K31,2,167,AS,intra_train,35,→,right,→,0.8474660999927437,True,27,-,-,-
Y2-S2-129K31,2,168,AS,intra_train,37,↑,up,↑,1.036184399999911,True,27,-,-,-
Y2-S2-129K31,2,169,AS,intra_train,39,↓,down,↓,0.9643861999938963,True,27,-,-,-
Y2-S2-129K31,2,170,AS,intra_train,44,→,right,→,0.8402860000060173,True,27,-,-,-
Y2-S2-129K31,2,171,AS,intra_train,32,←,left,←,0.8626701000030152,True,27,-,-,-
Y2-S2-129K31,2,172,AS,exp,31,↑,up,↑,0.7598918000003323,True,18,0,0,0
Y2-S2-129K31,2,173,AS,exp,29,↓,down,↓,0.8921128000074532,True,18,0,0,0
Y2-S2-129K31,2,174,AS,exp,38,←,right,→,0.8902400000079069,False,18,-1,0,0
Y2-S2-129K31,2,175,AS,exp,39,↑,up,↑,0.8547209999960614,True,19,-1,0,0
Y2-S2-129K31,2,176,AS,exp,37,↓,down,↓,0.8561633999925107,True,19,-1,0,0
Y2-S2-129K31,2,177,AS,exp,28,←,right,→,0.8648995999974431,False,19,-1,0,0
Y2-S2-129K31,2,178,AS,exp,32,→,left,←,0.5984412000107113,False,20,-1,0,0
Y2-S2-129K31,2,179,AS,exp,41,↑,up,↑,0.7238862999947742,True,21,-1,0,0
Y2-S2-129K31,2,180,AS,exp,35,↓,down,↓,0.824460400006501,True,21,-1,0,0
Y2-S2-129K31,2,181,AS,exp,27,↑,up,↑,0.7950685999967391,True,21,1,1,1
Y2-S2-129K31,2,182,AS,exp,42,←,right,→,0.7983561000000918,False,20,-1,1,2
Y2-S2-129K31,2,183,AS,exp,33,↓,down,↓,0.9057727000035811,True,21,-1,0,2
Y2-S2-129K31,2,184,AS,exp,42,←,right,→,1.0152405000117142,False,21,-1,0,2
Y2-S2-129K31,2,185,AS,exp,26,↓,down,↓,0.8470354999881238,True,22,-1,0,2
Y2-S2-129K31,2,186,AS,exp,25,↑,up,↑,0.7080074999976205,True,22,-1,0,2
Y2-S2-129K31,2,187,AS,exp,28,↓,down,↓,0.775805199999013,True,22,1,1,3
Y2-S2-129K31,2,188,AS,exp,28,←,right,→,1.753609499995946,False,21,-1,1,4
Y2-S2-129K31,2,189,AS,exp,42,→,right,→,0.7407348999986425,True,22,-1,0,4
Y2-S2-129K31,2,190,AS,exp,31,↓,down,↓,0.7613886000035563,True,22,-1,0,4
Y2-S2-129K31,2,191,AS,exp,25,↑,up,↑,0.8145237000135239,True,22,1,1,5
Y2-S2-129K31,2,192,AS,exp,41,→,right,→,0.6385729999892646,True,21,1,0,5
Y2-S2-129K31,2,193,AS,exp,35,←,left,←,0.6990790999989258,True,21,1,0,5
Y2-S2-129K31,2,194,AS,exp,50,→,right,→,0.6854655999923125,True,21,1,0,5
Y2-S2-129K31,2,195,AS,exp,32,↓,down,↓,0.7855773999908706,True,20,1,0,5
Y2-S2-129K31,2,196,AS,exp,27,↑,up,↑,0.538711000001058,True,20,1,0,5
Y2-S2-129K31,2,197,AS,exp,48,↓,down,↓,0.9231679999938933,True,20,1,0,5
Y2-S2-129K31,2,198,AS,exp,38,→,right,→,0.7528199999942444,True,19,1,0,5
Y2-S2-129K31,2,199,AS,exp,43,↓,down,↓,0.7754300999949919,True,19,1,0,5
Y2-S2-129K31,2,200,AS,exp,29,←,left,←,0.4876175000099465,True,19,1,0,5
Y2-S2-129K31,2,201,AS,exp,40,↓,up,↑,0.9100166999996873,False,18,-1,1,6
Y2-S2-129K31,2,202,AS,exp,27,↑,up,↑,0.7046614999999292,True,19,-1,0,6
Y2-S2-129K31,2,203,AS,exp,49,→,right,→,0.68297330000496,True,19,-1,0,6
Y2-S2-129K31,2,204,AS,exp,37,↑,down,↓,1.505175699989195,False,19,-1,0,6
Y2-S2-129K31,2,205,AS,exp,36,↓,down,↓,0.7840280999953393,True,20,-1,0,6
Y2-S2-129K31,2,206,AS,exp,26,←,left,←,0.7931800999940606,True,20,-1,0,6
Y2-S2-129K31,2,207,AS,exp,36,↑,up,↑,0.8623920000100043,True,20,1,1,7
Y2-S2-129K31,2,208,AS,exp,25,←,left,←,0.8073350999911781,True,19,1,0,7
Y2-S2-129K31,2,209,AS,exp,50,↓,down,↓,0.8466219999972964,True,19,1,0,7
Y2-S2-129K31,2,210,AS,exp,38,→,right,→,0.6980734000098892,True,19,1,0,7
Y2-S2-129K31,2,211,AS,exp,27,↑,up,↑,0.8870765999890864,True,18,1,0,7
Y2-S2-129K31,2,212,AS,exp,25,←,left,←,0.7222444000071846,True,18,1,0,7
Y2-S2-129K31,2,213,AS,exp,29,→,right,→,0.7496968000050401,True,18,1,0,7
Y2-S2-129K31,2,214,AS,exp,42,↑,up,↑,0.7936404000065522,True,17,1,0,7
Y2-S2-129K31,2,215,AS,exp,40,←,left,←,0.6749979000014719,True,17,1,0,7
Y2-S2-129K31,2,216,AS,exp,46,→,left,←,0.7154566999961389,False,17,-1,1,8
Y2-S2-129K31,2,217,AS,exp,39,←,left,←,0.5060987999895588,True,18,-1,0,8
Y2-S2-129K31,2,218,AS,exp,27,↑,up,↑,0.6426470000005793,True,18,-1,0,8
Y2-S2-129K31,2,219,AS,exp,41,→,right,→,0.9016168999951333,True,18,1,1,9
Y2-S2-129K31,2,220,AS,exp,29,↑,up,↑,0.8821121000073617,True,17,1,0,9
Y2-S2-129K31,2,221,AS,exp,25,↓,up,↑,0.7922708999976749,False,17,-1,1,10
Y2-S2-129K31,2,222,AS,exp,29,→,left,←,0.824551599987899,False,18,-1,0,10
Y2-S2-129K31,2,223,AS,exp,30,↓,right,→,1.4080556999979308,False,19,-1,0,10
Y2-S2-129K31,2,224,AS,exp,39,←,left,←,0.611281899997266,True,20,-1,0,10
Y2-S2-129K31,2,225,AS,exp,46,↓,down,↓,0.8013782999914838,True,20,-1,0,10
Y2-S2-129K31,2,226,AS,exp,32,↑,down,↓,1.050733100011712,False,20,-1,0,10
Y2-S2-129K31,2,227,AS,exp,42,↓,down,↓,0.8820569999952568,True,21,-1,0,10
Y2-S2-129K31,2,228,AS,exp,43,↑,up,↑,0.7279603000060888,True,21,-1,0,10
Y2-S2-129K31,2,229,AS,exp,33,↓,down,↓,0.7587419000046793,True,21,1,1,11
Y2-S2-129K31,2,230,AS,exp,48,↑,up,↑,0.7685464000096545,True,20,1,0,11
Y2-S2-129K31,2,231,AS,exp,43,↓,down,↓,0.6996477000066079,True,20,1,0,11
Y2-S2-129K31,2,232,AS,exp,38,←,left,←,0.7688819000031799,True,20,1,0,11
Y2-S2-129K31,2,233,AS,exp,25,↓,down,↓,0.8529060000000754,True,19,1,0,11
Y2-S2-129K31,2,234,AS,exp,28,→,down,↓,0.9231093999987934,False,19,-1,1,12
Y2-S2-129K31,2,235,AS,exp,37,↑,up,↑,0.9246626000094693,True,20,-1,0,12
Y2-S2-129K31,2,236,AS,exp,46,←,left,←,0.8066614999988815,True,20,-1,0,12
Y2-S2-129K31,2,237,AS,exp,27,↑,down,↓,0.8756809000042267,False,20,-1,0,12
Y2-S2-129K31,2,238,AS,exp,43,←,left,←,0.5505375999928219,True,21,-1,0,12
Y2-S2-129K31,2,239,AS,exp,28,↑,down,↓,0.993536399997538,False,21,-1,0,12
Y2-S2-129K31,2,240,AS,exp,30,→,right,→,0.6703448999905959,True,22,-1,0,12
Y2-S2-129K31,2,241,AS,exp,32,↓,down,↓,0.755699100001948,True,22,-1,0,12
Y2-S2-129K31,2,242,AS,exp,37,→,right,→,0.9483036000019638,True,22,1,1,13
Y2-S2-129K31,2,243,AS,exp,40,←,right,→,0.6735622999985935,False,21,-1,1,14
Y2-S2-129K31,2,244,AS,exp,43,↓,down,↓,0.750442499993369,True,22,-1,0,14
Y2-S2-129K31,2,245,AS,exp,26,↑,down,↓,0.8080030000128318,False,22,-1,0,14
Y2-S2-129K31,2,246,AS,exp,42,↓,down,↓,0.7052885000011884,True,23,-1,0,14
Y2-S2-129K31,2,247,AS,exp,30,←,left,←,0.8100388000020757,True,23,-1,0,14
Y2-S2-129K31,2,248,AS,exp,25,→,right,→,0.6993490000022575,True,23,1,1,15
Y2-S2-129K31,2,249,AS,exp,44,↑,up,↑,0.8185372000007192,True,22,1,0,15
Y2-S2-129K31,2,250,AS,exp,33,→,right,→,0.7911010999960126,True,22,1,0,15
Y2-S2-129K31,2,251,AS,exp,26,←,left,←,0.6255817000055686,True,22,1,0,15
Y2-S2-129K31,2,252,AS,exp,26,→,right,→,0.670302400001674,True,21,1,0,15
Y2-S2-129K31,2,253,AS,exp,45,↑,up,↑,0.8175578999944264,True,21,1,0,15
Y2-S2-129K31,2,254,AS,exp,35,←,left,←,0.7420907000050647,True,21,1,0,15
Y2-S2-129K31,2,255,AS,exp,28,↓,down,↓,1.1047158000001218,True,20,1,0,15
Y2-S2-129K31,2,256,AS,exp,44,←,left,←,0.8466886000096565,True,20,1,0,15
Y2-S2-129K31,2,257,AS,exp,27,↓,down,↓,0.9434449000109453,True,20,1,0,15
Y2-S2-129K31,2,258,AS,exp,50,←,left,←,0.772697699998389,True,19,1,0,15
Y2-S2-129K31,2,259,AS,exp,26,↑,up,↑,1.0335621999984141,True,19,1,0,15
Y2-S2-129K31,2,260,AS,exp,43,→,right,→,0.8707018000131939,True,19,1,0,15
Y2-S2-129K31,2,261,AS,exp,33,←,left,←,0.8701307000010274,True,18,1,0,15
Y2-S2-129K31,2,262,AS,exp,30,→,right,→,0.7830620000022464,True,18,1,0,15
Y2-S2-129K31,2,263,AS,exp,35,←,left,←,0.6491746999963652,True,18,1,0,15
Y2-S2-129K31,2,264,AS,exp,34,↑,right,→,0.7825913000124274,False,17,-1,1,16
Y2-S2-129K31,3,265,AS,intra_train,31,←,left,←,0.7504774999979418,True,27,-,-,-
Y2-S2-129K31,3,266,AS,intra_train,30,↓,down,↓,0.7527336000057403,True,27,-,-,-
Y2-S2-129K31,3,267,AS,intra_train,35,←,left,←,0.6286812999896938,True,27,-,-,-
Y2-S2-129K31,3,268,AS,intra_train,32,↑,up,↑,0.6495706999994582,True,27,-,-,-
Y2-S2-129K31,3,269,AS,intra_train,39,↓,down,↓,0.9120102000015322,True,27,-,-,-
Y2-S2-129K31,3,270,AS,exp,31,→,left,←,0.7712852999975439,False,18,-1,0,0
Y2-S2-129K31,3,271,AS,exp,32,↓,up,↑,0.857439900006284,False,19,-1,0,0
Y2-S2-129K31,3,272,AS,exp,35,←,left,←,0.8150577000051271,True,20,-1,0,0
Y2-S2-129K31,3,273,AS,exp,31,↑,up,↑,1.1017002000007778,True,20,-1,0,0
Y2-S2-129K31,3,274,AS,exp,42,←,left,←,0.7338863999902969,True,20,1,1,1
Y2-S2-129K31,3,275,AS,exp,39,↑,up,↑,0.736239799996838,True,19,1,0,1
Y2-S2-129K31,3,276,AS,exp,48,→,right,→,0.6959847999969497,True,19,1,0,1
Y2-S2-129K31,3,277,AS,exp,37,↓,down,↓,0.7898332000040682,True,19,1,0,1
Y2-S2-129K31,3,278,AS,exp,32,←,left,←,0.6764444000000367,True,18,1,0,1
Y2-S2-129K31,3,279,AS,exp,38,→,right,→,0.7292022999899928,True,18,1,0,1
Y2-S2-129K31,3,280,AS,exp,33,↓,down,↓,0.9464077000011457,True,18,1,0,1
Y2-S2-129K31,3,281,AS,exp,42,↑,up,↑,0.7120964000059757,True,17,1,0,1
Y2-S2-129K31,3,282,AS,exp,47,↓,up,↑,0.954521300009219,False,17,-1,1,2
Y2-S2-129K31,3,283,AS,exp,28,→,right,→,0.6454147000040393,True,18,-1,0,2
Y2-S2-129K31,3,284,AS,exp,45,↑,down,↓,0.8346824999898672,False,18,-1,0,2
Y2-S2-129K31,3,285,AS,exp,50,→,right,→,0.889330299993162,True,19,-1,0,2
Y2-S2-129K31,3,286,AS,exp,30,←,left,←,0.6826683999970555,True,19,-1,0,2
Y2-S2-129K31,3,287,AS,exp,49,→,right,→,0.7271879000036279,True,19,1,1,3
Y2-S2-129K31,3,288,AS,exp,38,←,left,←,0.6568626000080258,True,18,1,0,3
Y2-S2-129K31,3,289,AS,exp,49,→,right,→,0.973197600003914,True,18,1,0,3
Y2-S2-129K31,3,290,AS,exp,43,←,right,→,1.0231350000103703,False,18,-1,1,4
Y2-S2-129K31,3,291,AS,exp,43,↓,down,↓,0.9598452999925939,True,19,-1,0,4
Y2-S2-129K31,3,292,AS,exp,33,→,right,→,0.8209733000112465,True,19,-1,0,4
Y2-S2-129K31,3,293,AS,exp,44,↑,down,↓,0.7669854999985546,False,19,-1,0,4
Y2-S2-129K31,3,294,AS,exp,49,↓,down,↓,0.8347180000127992,True,20,-1,0,4
Y2-S2-129K31,3,295,AS,exp,40,←,left,←,0.6881243000098038,True,20,-1,0,4
Y2-S2-129K31,3,296,AS,exp,28,↓,down,↓,0.8334451999980956,True,20,1,1,5
Y2-S2-129K31,3,297,AS,exp,36,↑,up,↑,0.7463109000091208,True,19,1,0,5
Y2-S2-129K31,3,298,AS,exp,44,←,left,←,0.8184671999915736,True,19,1,0,5
Y2-S2-129K31,3,299,AS,exp,50,→,right,→,0.7070026000001235,True,19,1,0,5
Y2-S2-129K31,3,300,AS,exp,43,←,left,←,0.6821609000035096,True,18,1,0,5
Y2-S2-129K31,3,301,AS,exp,31,→,left,←,0.6586496000090847,False,18,-1,1,6
Y2-S2-129K31,3,302,AS,exp,37,←,right,→,0.8749784000101499,False,19,-1,0,6
Y2-S2-129K31,3,303,AS,exp,48,↓,left,←,1.0864690000016708,False,20,-1,0,6
Y2-S2-129K31,3,304,AS,exp,37,←,right,→,0.721145899995463,False,21,-1,0,6
Y2-S2-129K31,3,305,AS,exp,47,↓,up,↑,0.8919263999996474,False,22,-1,0,6
Y2-S2-129K31,3,306,AS,exp,43,←,left,←,0.8764927000011085,True,23,-1,0,6
Y2-S2-129K31,3,307,AS,exp,46,↑,up,↑,0.7246235999919008,True,23,-1,0,6
Y2-S2-129K31,3,308,AS,exp,36,←,right,→,0.689567099994747,False,23,-1,0,6
Y2-S2-129K31,3,309,AS,exp,29,↑,up,↑,0.7534463000047253,True,24,-1,0,6
Y2-S2-129K31,3,310,AS,exp,41,↓,down,↓,0.9435509000031743,True,24,-1,0,6
Y2-S2-129K31,3,311,AS,exp,45,←,left,←,0.7330566000018734,True,24,1,1,7
Y2-S2-129K31,3,312,AS,exp,30,↑,up,↑,0.6884273000032408,True,23,1,0,7
Y2-S2-129K31,3,313,AS,exp,40,←,right,→,0.7589159000053769,False,23,-1,1,8
Y2-S2-129K31,3,314,AS,exp,48,↓,down,↓,0.8387138999969466,True,24,-1,0,8
Y2-S2-129K31,3,315,AS,exp,32,→,right,→,0.6952687000011792,True,24,-1,0,8
Y2-S2-129K31,3,316,AS,exp,43,↓,down,↓,0.8152555999986362,True,24,1,1,9
Y2-S2-129K31,3,317,AS,exp,42,←,left,←,0.7395776999910595,True,23,1,0,9
Y2-S2-129K31,3,318,AS,exp,37,↑,up,↑,0.8016665000031935,True,23,1,0,9
Y2-S2-129K31,3,319,AS,exp,46,↓,down,↓,0.8519891000032658,True,23,1,0,9
Y2-S2-129K31,3,320,AS,exp,47,←,left,←,0.6455547000077786,True,22,1,0,9
Y2-S2-129K31,3,321,AS,exp,35,→,right,→,0.6679169999988517,True,22,1,0,9
Y2-S2-129K31,3,322,AS,exp,35,↑,up,↑,0.714912399998866,True,22,1,0,9
Y2-S2-129K31,3,323,AS,exp,44,↓,down,↓,0.7501313999964623,True,21,1,0,9
Y2-S2-129K31,3,324,AS,exp,30,←,left,←,0.5703348999959417,True,21,1,0,9
Y2-S2-129K31,3,325,AS,exp,32,↑,left,←,0.882914100002381,False,21,-1,1,10
Y2-S2-129K31,3,326,AS,exp,50,←,left,←,0.7196046000026399,True,22,-1,0,10
Y2-S2-129K31,3,327,AS,exp,38,→,right,→,0.7227750000020023,True,22,-1,0,10
Y2-S2-129K31,3,328,AS,exp,36,↓,down,↓,0.8881142000027467,True,22,1,1,11
Y2-S2-129K31,3,329,AS,exp,31,→,right,→,0.6976352999918163,True,21,1,0,11
Y2-S2-129K31,3,330,AS,exp,36,←,left,←,0.6593198999908054,True,21,1,0,11
Y2-S2-129K31,3,331,AS,exp,36,→,right,→,0.7128060999966692,True,21,1,0,11
Y2-S2-129K31,3,332,AS,exp,41,←,left,←,0.6751565000013215,True,20,1,0,11
Y2-S2-129K31,3,333,AS,exp,40,→,right,→,0.6691864000022179,True,20,1,0,11
Y2-S2-129K31,3,334,AS,exp,34,↓,down,↓,0.7766561999887927,True,20,1,0,11
Y2-S2-129K31,3,335,AS,exp,48,→,right,→,0.8716845000017202,True,19,1,0,11
Y2-S2-129K31,3,336,AS,exp,34,←,left,←,0.8552744999906281,True,19,1,0,11
Y2-S2-129K31,3,337,AS,exp,37,↑,up,↑,0.6279247000056785,True,19,1,0,11
Y2-S2-129K31,3,338,AS,exp,41,←,left,←,0.8984404999937396,True,18,1,0,11
Y2-S2-129K31,3,339,AS,exp,31,↓,down,↓,0.8232078000000911,True,18,1,0,11
Y2-S2-129K31,3,340,AS,exp,44,↑,up,↑,0.7341789000056451,True,18,1,0,11
Y2-S2-129K31,3,341,AS,exp,47,↓,down,↓,0.7964671999943675,True,17,1,0,11
Y2-S2-129K31,3,342,AS,exp,37,→,right,→,0.6313542999996571,True,17,1,0,11
Y2-S2-129K31,3,343,AS,exp,28,↓,down,↓,0.6990525000001071,True,17,1,0,11
Y2-S2-129K31,3,344,AS,exp,26,←,left,←,0.5260485999897355,True,16,1,0,11
Y2-S2-129K31,3,345,AS,exp,31,→,right,→,0.6069279000075767,True,16,1,0,11
Y2-S2-129K31,3,346,AS,exp,43,↓,down,↓,1.2146045999979833,True,16,1,0,11
Y2-S2-129K31,3,347,AS,exp,37,←,left,←,0.5240193999925395,True,15,1,0,11
Y2-S2-129K31,3,348,AS,exp,46,→,right,→,0.47003710000717547,True,15,1,0,11
Y2-S2-129K31,3,349,AS,exp,40,←,right,→,0.6103542999917408,False,15,-1,1,12
Y2-S2-129K31,3,350,AS,exp,30,↑,up,↑,0.7044268000026932,True,16,-1,0,12
Y2-S2-129K31,3,351,AS,exp,48,→,right,→,0.5838175999961095,True,16,-1,0,12
Y2-S2-129K31,3,352,AS,exp,32,↓,down,↓,0.8068005999957677,True,16,1,1,13
Y2-S2-129K31,3,353,AS,exp,27,→,right,→,0.5172896000003675,True,15,1,0,13
Y2-S2-129K31,3,354,AS,exp,28,↓,down,↓,0.6371293999982299,True,15,1,0,13
Y2-S2-129K31,3,355,AS,exp,34,←,left,←,0.511258500002441,True,15,1,0,13
Y2-S2-129K31,3,356,AS,exp,37,→,right,→,0.4457875000080094,True,14,1,0,13
Y2-S2-129K31,3,357,AS,exp,46,↑,down,↓,1.1980124000110663,False,14,-1,1,14
Y2-S2-129K31,3,358,AS,exp,41,↓,down,↓,0.6296220000076573,True,15,-1,0,14
Y2-S2-129K31,3,359,AS,exp,45,→,right,→,0.9986537000077078,True,15,-1,0,14
Y2-S2-129K31,3,360,AS,exp,31,↓,down,↓,0.6827285000035772,True,15,1,1,15
Y2-S2-129K31,3,361,AS,exp,48,←,down,↓,0.946798500008299,False,14,-1,1,16
Y2-S2-129K31,4,362,PS,intra_train,42,↑,up,↑,0.6695744000026025,True,19,-,-,-
Y2-S2-129K31,4,363,PS,intra_train,26,→,right,→,0.7478599000023678,True,19,-,-,-
Y2-S2-129K31,4,364,PS,intra_train,41,↑,up,↑,0.6049104000121588,True,19,-,-,-
Y2-S2-129K31,4,365,PS,intra_train,39,←,left,←,0.8398546000098577,True,19,-,-,-
Y2-S2-129K31,4,366,PS,intra_train,30,→,right,→,0.6535730000032345,True,19,-,-,-
Y2-S2-129K31,4,367,PS,exp,35,↓,down,↓,0.8435485000081826,True,13,0,0,0
Y2-S2-129K31,4,368,PS,exp,49,→,right,→,0.8153635000053328,True,13,0,0,0
Y2-S2-129K31,4,369,PS,exp,36,←,right,→,0.8468831999925897,False,13,-1,0,0
Y2-S2-129K31,4,370,PS,exp,37,→,right,→,0.5225408999976935,True,14,-1,0,0
Y2-S2-129K31,4,371,PS,exp,29,↑,left,←,0.9115882999903988,False,14,-1,0,0
Y2-S2-129K31,4,372,PS,exp,34,←,left,←,0.6040160999982618,True,15,-1,0,0
Y2-S2-129K31,4,373,PS,exp,36,→,right,→,0.6762981999927433,True,15,-1,0,0
Y2-S2-129K31,4,374,PS,exp,47,↓,down,↓,0.8232739999948535,True,15,1,1,1
Y2-S2-129K31,4,375,PS,exp,36,→,right,→,0.539166499991552,True,14,1,0,1
Y2-S2-129K31,4,376,PS,exp,38,↓,down,↓,0.6778444000083255,True,14,1,0,1
Y2-S2-129K31,4,377,PS,exp,25,↑,up,↑,0.6299324999999953,True,14,1,0,1
Y2-S2-129K31,4,378,PS,exp,44,→,right,→,0.5462464999873191,True,13,1,0,1
Y2-S2-129K31,4,379,PS,exp,39,↑,up,↑,0.6797722999908729,True,13,1,0,1
Y2-S2-129K31,4,380,PS,exp,27,←,left,←,0.6067618999950355,True,13,1,0,1
Y2-S2-129K31,4,381,PS,exp,27,↓,down,↓,0.7331976999994367,True,12,1,0,1
Y2-S2-129K31,4,382,PS,exp,30,↑,up,↑,0.63232259999495,True,12,1,0,1
Y2-S2-129K31,4,383,PS,exp,29,←,left,←,0.75721420001355,True,12,1,0,1
Y2-S2-129K31,4,384,PS,exp,50,↓,down,↓,0.8415593999961857,True,11,1,0,1
Y2-S2-129K31,4,385,PS,exp,41,→,right,→,0.575976999985869,True,11,1,0,1
Y2-S2-129K31,4,386,PS,exp,29,↑,up,↑,0.9172288999980083,True,11,1,0,1
Y2-S2-129K31,4,387,PS,exp,36,↓,down,↓,0.8396899999934249,True,10,1,0,1
Y2-S2-129K31,4,388,PS,exp,50,←,left,←,0.781889299993054,True,10,1,0,1
Y2-S2-129K31,4,389,PS,exp,47,↓,up,↑,0.6942739000078291,False,10,-1,1,2
Y2-S2-129K31,4,390,PS,exp,34,↑,up,↑,0.6056630999955814,True,11,-1,0,2
Y2-S2-129K31,4,391,PS,exp,50,→,right,→,0.5766001000010874,True,11,-1,0,2
Y2-S2-129K31,4,392,PS,exp,28,↓,down,↓,1.1014899000001606,True,11,1,1,3
Y2-S2-129K31,4,393,PS,exp,45,→,up,↑,0.6037957000080496,False,10,-1,1,4
Y2-S2-129K31,4,394,PS,exp,49,↑,up,↑,0.5891645999945467,True,11,-1,0,4
Y2-S2-129K31,4,395,PS,exp,47,→,up,↑,0.6934091000002809,False,11,-1,0,4
Y2-S2-129K31,4,396,PS,exp,27,↑,right,→,0.5203476999886334,False,12,-1,0,4
Y2-S2-129K31,4,397,PS,exp,33,↓,down,↓,0.7553370999958133,True,13,-1,0,4
Y2-S2-129K31,4,398,PS,exp,33,→,down,↓,0.8489597000007052,False,13,-1,0,4
Y2-S2-129K31,4,399,PS,exp,37,←,left,←,0.5854254000005312,True,14,-1,0,4
Y2-S2-129K31,4,400,PS,exp,26,↑,right,→,0.6594159999949625,False,14,-1,0,4
Y2-S2-129K31,4,401,PS,exp,27,←,left,←,0.5681138000072679,True,15,-1,0,4
Y2-S2-129K31,4,402,PS,exp,32,↑,up,↑,0.5938131000002613,True,15,-1,0,4
Y2-S2-129K31,4,403,PS,exp,44,→,right,→,0.5856268000061391,True,15,1,1,5
Y2-S2-129K31,4,404,PS,exp,36,↓,down,↓,0.7498802000045544,True,14,1,0,5
Y2-S2-129K31,4,405,PS,exp,46,←,left,←,0.5446030000020983,True,14,1,0,5
Y2-S2-129K31,4,406,PS,exp,49,→,right,→,0.5006739999953425,True,14,1,0,5
Y2-S2-129K31,4,407,PS,exp,48,↑,up,↑,0.5870326000003843,True,13,1,0,5
Y2-S2-129K31,4,408,PS,exp,26,←,left,←,0.47931969999626745,True,13,1,0,5
Y2-S2-129K31,4,409,PS,exp,30,↓,left,←,0.6985946000058902,False,13,-1,1,6
Y2-S2-129K31,4,410,PS,exp,30,→,right,→,0.5780752999999095,True,14,-1,0,6
Y2-S2-129K31,4,411,PS,exp,35,↓,left,←,0.7713589000049978,False,14,-1,0,6
Y2-S2-129K31,4,412,PS,exp,32,↑,up,↑,0.6825196999998298,True,15,-1,0,6
Y2-S2-129K31,4,413,PS,exp,44,←,left,←,0.6379024999914691,True,15,-1,0,6
Y2-S2-129K31,4,414,PS,exp,41,↑,up,↑,0.5762384999979986,True,15,1,1,7
Y2-S2-129K31,4,415,PS,exp,47,↓,left,←,0.6888128999999026,False,14,-1,1,8
Y2-S2-129K31,4,416,PS,exp,29,↑,up,↑,0.5135187000123551,True,15,-1,0,8
Y2-S2-129K31,4,417,PS,exp,34,←,left,←,0.5888847999885911,True,15,-1,0,8
Y2-S2-129K31,4,418,PS,exp,33,↑,up,↑,0.5985551000048872,True,15,1,1,9
Y2-S2-129K31,4,419,PS,exp,50,↓,up,↑,0.5890738000016427,False,14,-1,1,10
Y2-S2-129K31,4,420,PS,exp,27,↑,left,←,0.5917060999927344,False,15,-1,0,10
Y2-S2-129K31,4,421,PS,exp,33,↓,down,↓,0.7960362000012537,True,16,-1,0,10
Y2-S2-129K31,4,422,PS,exp,37,→,right,→,0.5226522000011755,True,16,-1,0,10
Y2-S2-129K31,4,423,PS,exp,29,←,left,←,0.6116444999934174,True,16,1,1,11
Y2-S2-129K31,4,424,PS,exp,45,→,left,←,0.8488078000082169,False,15,-1,1,12
Y2-S2-129K31,4,425,PS,exp,31,↓,left,←,0.736212699994212,False,16,-1,0,12
Y2-S2-129K31,4,426,PS,exp,31,↑,left,←,0.6651379999966593,False,17,-1,0,12
Y2-S2-129K31,4,427,PS,exp,34,→,left,←,0.592956000007689,False,18,-1,0,12
Y2-S2-129K31,4,428,PS,exp,27,←,left,←,0.6221506000001682,True,19,-1,0,12
Y2-S2-129K31,4,429,PS,exp,45,↑,up,↑,0.684589299999061,True,19,-1,0,12
Y2-S2-129K31,4,430,PS,exp,31,←,left,←,0.6238775999954669,True,19,1,1,13
Y2-S2-129K31,4,431,PS,exp,44,→,right,→,0.6504419999982929,True,18,1,0,13
Y2-S2-129K31,4,432,PS,exp,42,↓,down,↓,1.0380373999942094,True,18,1,0,13
Y2-S2-129K31,4,433,PS,exp,27,→,right,→,0.6875476999994135,True,18,1,0,13
Y2-S2-129K31,4,434,PS,exp,26,↓,down,↓,0.714010599986068,True,17,1,0,13
Y2-S2-129K31,4,435,PS,exp,38,→,right,→,0.7299803999922005,True,17,1,0,13
Y2-S2-129K31,4,436,PS,exp,25,←,left,←,0.6844474999961676,True,17,1,0,13
Y2-S2-129K31,4,437,PS,exp,25,↓,down,↓,0.7201162999990629,True,16,1,0,13
Y2-S2-129K31,4,438,PS,exp,27,←,left,←,0.4771603999979561,True,16,1,0,13
Y2-S2-129K31,4,439,PS,exp,46,↑,up,↑,0.578540399990743,True,16,1,0,13
Y2-S2-129K31,4,440,PS,exp,47,←,left,←,0.47017969998705667,True,15,1,0,13
Y2-S2-129K31,4,441,PS,exp,39,↓,down,↓,0.684482399999979,True,15,1,0,13
Y2-S2-129K31,4,442,PS,exp,43,↑,up,↑,0.5519763000047533,True,15,1,0,13
Y2-S2-129K31,4,443,PS,exp,33,↓,down,↓,0.7046947000053478,True,14,1,0,13
Y2-S2-129K31,4,444,PS,exp,25,←,up,↑,0.6709544999903301,False,14,-1,1,14
Y2-S2-129K31,4,445,PS,exp,33,→,right,→,0.5293983000010485,True,15,-1,0,14
Y2-S2-129K31,4,446,PS,exp,35,←,up,↑,0.9982421000022441,False,15,-1,0,14
Y2-S2-129K31,4,447,PS,exp,46,↓,down,↓,0.7759613000089303,True,16,-1,0,14
Y2-S2-129K31,4,448,PS,exp,50,←,left,←,0.6014580000046408,True,16,-1,0,14
Y2-S2-129K31,4,449,PS,exp,28,↓,down,↓,0.8416136000014376,True,16,1,1,15
Y2-S2-129K31,4,450,PS,exp,40,↑,up,↑,0.5596725999930641,True,15,1,0,15
Y2-S2-129K31,4,451,PS,exp,34,→,right,→,0.6073845000064466,True,15,1,0,15
Y2-S2-129K31,4,452,PS,exp,42,←,left,←,0.4946477000048617,True,15,1,0,15
Y2-S2-129K31,4,453,PS,exp,30,↑,up,↑,0.625507300006575,True,14,1,0,15
Y2-S2-129K31,4,454,PS,exp,42,↓,down,↓,0.821036199995433,True,14,1,0,15
Y2-S2-129K31,4,455,PS,exp,29,↑,up,↑,0.5345366999972612,True,14,1,0,15
Y2-S2-129K31,4,456,PS,exp,36,←,left,←,0.48571790001005866,True,13,1,0,15
Y2-S2-129K31,4,457,PS,exp,45,↑,left,←,0.8476347999967402,False,13,-1,1,16
Y2-S2-129K31,5,458,PS,intra_train,35,↓,down,↓,0.7493137999990722,True,19,-,-,-
Y2-S2-129K31,5,459,PS,intra_train,27,→,right,→,0.6764100999862421,True,19,-,-,-
Y2-S2-129K31,5,460,PS,intra_train,28,↓,down,↓,0.7109360000031302,True,19,-,-,-
Y2-S2-129K31,5,461,PS,intra_train,34,→,right,→,0.650387799993041,True,19,-,-,-
Y2-S2-129K31,5,462,PS,intra_train,39,↓,down,↓,1.0576932999974815,True,19,-,-,-
Y2-S2-129K31,5,463,PS,exp,28,→,right,→,0.6023884000023827,True,13,0,0,0
Y2-S2-129K31,5,464,PS,exp,30,←,up,↑,0.8607029999984661,False,13,-1,0,0
Y2-S2-129K31,5,465,PS,exp,36,→,right,→,0.6606137000053423,True,14,-1,0,0
Y2-S2-129K31,5,466,PS,exp,34,←,left,←,0.5014790999994148,True,14,-1,0,0
Y2-S2-129K31,5,467,PS,exp,46,→,right,→,0.5409441999945557,True,14,1,1,1
Y2-S2-129K31,5,468,PS,exp,50,↑,right,→,0.5936944999994012,False,13,-1,1,2
Y2-S2-129K31,5,469,PS,exp,32,←,left,←,0.7592299999960233,True,14,-1,0,2
Y2-S2-129K31,5,470,PS,exp,30,→,right,→,0.5523813000036171,True,14,-1,0,2
Y2-S2-129K31,5,471,PS,exp,36,←,left,←,1.056784600004903,True,14,1,1,3
Y2-S2-129K31,5,472,PS,exp,38,→,right,→,0.5261682000127621,True,13,1,0,3
Y2-S2-129K31,5,473,PS,exp,50,←,up,↑,0.7942179999954533,False,13,-1,1,4
Y2-S2-129K31,5,474,PS,exp,26,→,right,→,0.5437194000114687,True,14,-1,0,4
Y2-S2-129K31,5,475,PS,exp,34,↓,down,↓,0.7331421999988379,True,14,-1,0,4
Y2-S2-129K31,5,476,PS,exp,31,→,right,→,0.649733100013691,True,14,1,1,5
Y2-S2-129K31,5,477,PS,exp,34,←,left,←,0.7312298000033479,True,13,1,0,5
Y2-S2-129K31,5,478,PS,exp,27,→,right,→,0.7254183000040939,True,13,1,0,5
Y2-S2-129K31,5,479,PS,exp,28,↓,down,↓,0.6602762999973493,True,13,1,0,5
Y2-S2-129K31,5,480,PS,exp,35,←,left,←,0.7241248000063933,True,12,1,0,5
Y2-S2-129K31,5,481,PS,exp,34,↓,down,↓,0.775884299990139,True,12,1,0,5
Y2-S2-129K31,5,482,PS,exp,44,→,up,↑,0.7384924000070896,False,12,-1,1,6
Y2-S2-129K31,5,483,PS,exp,47,↑,up,↑,0.48535510001238436,True,13,-1,0,6
Y2-S2-129K31,5,484,PS,exp,43,←,left,←,0.5426788000040688,True,13,-1,0,6
Y2-S2-129K31,5,485,PS,exp,36,↑,left,←,0.9912635000073351,False,13,-1,0,6
Y2-S2-129K31,5,486,PS,exp,32,↓,down,↓,0.7039660000009462,True,14,-1,0,6
Y2-S2-129K31,5,487,PS,exp,41,↑,down,↓,0.6295133000094211,False,14,-1,0,6
Y2-S2-129K31,5,488,PS,exp,25,↓,down,↓,0.671433600000455,True,15,-1,0,6
Y2-S2-129K31,5,489,PS,exp,25,←,left,←,0.8373318999947514,True,15,-1,0,6
Y2-S2-129K31,5,490,PS,exp,30,→,right,→,0.7054571000044234,True,15,1,1,7
Y2-S2-129K31,5,491,PS,exp,50,↓,down,↓,0.7221395000087796,True,14,1,0,7
Y2-S2-129K31,5,492,PS,exp,50,→,right,→,0.4842833000002429,True,14,1,0,7
Y2-S2-129K31,5,493,PS,exp,48,↑,up,↑,0.6443918000004487,True,14,1,0,7
Y2-S2-129K31,5,494,PS,exp,47,→,right,→,0.475129400001606,True,13,1,0,7
Y2-S2-129K31,5,495,PS,exp,38,↑,left,←,0.6934623999986798,False,13,-1,1,8
Y2-S2-129K31,5,496,PS,exp,37,←,up,↑,0.5675675999955274,False,14,-1,0,8
Y2-S2-129K31,5,497,PS,exp,27,→,right,→,0.4960849000053713,True,15,-1,0,8
Y2-S2-129K31,5,498,PS,exp,31,↑,up,↑,0.5747256000031484,True,15,-1,0,8
Y2-S2-129K31,5,499,PS,exp,27,→,down,↓,1.0953512999985833,False,15,-1,0,8
Y2-S2-129K31,5,500,PS,exp,48,←,up,↑,0.5965719999949215,False,16,-1,0,8
Y2-S2-129K31,5,501,PS,exp,34,→,right,→,0.45630759999039583,True,17,-1,0,8
Y2-S2-129K31,5,502,PS,exp,36,↑,up,↑,0.49019979999866337,True,17,-1,0,8
Y2-S2-129K31,5,503,PS,exp,33,→,right,→,0.4854583999986062,True,17,1,1,9
Y2-S2-129K31,5,504,PS,exp,29,←,left,←,0.5615324999962468,True,16,1,0,9
Y2-S2-129K31,5,505,PS,exp,34,↑,up,↑,0.48843420000048354,True,16,1,0,9
Y2-S2-129K31,5,506,PS,exp,26,→,right,→,0.44281690000207163,True,16,1,0,9
Y2-S2-129K31,5,507,PS,exp,25,↓,down,↓,0.7783786000072723,True,15,1,0,9
Y2-S2-129K31,5,508,PS,exp,37,→,right,→,0.4648047999944538,True,15,1,0,9
Y2-S2-129K31,5,509,PS,exp,44,↑,left,←,0.9865201999928104,False,15,-1,1,10
Y2-S2-129K31,5,510,PS,exp,31,↓,down,↓,0.6909476000000723,True,16,-1,0,10
Y2-S2-129K31,5,511,PS,exp,48,→,right,→,0.4460109000065131,True,16,-1,0,10
Y2-S2-129K31,5,512,PS,exp,41,↓,down,↓,0.623320300001069,True,16,1,1,11
Y2-S2-129K31,5,513,PS,exp,31,→,right,→,0.603590400001849,True,15,1,0,11
Y2-S2-129K31,5,514,PS,exp,27,←,left,←,0.517049499991117,True,15,1,0,11
Y2-S2-129K31,5,515,PS,exp,45,↓,down,↓,0.6348550999973668,True,15,1,0,11
Y2-S2-129K31,5,516,PS,exp,50,↑,up,↑,0.9932996999996249,True,14,1,0,11
Y2-S2-129K31,5,517,PS,exp,40,→,right,→,0.6103457999997772,True,14,1,0,11
Y2-S2-129K31,5,518,PS,exp,41,↑,up,↑,0.5014733999996679,True,14,1,0,11
Y2-S2-129K31,5,519,PS,exp,42,→,right,→,0.6224377999897115,True,13,1,0,11
Y2-S2-129K31,5,520,PS,exp,32,↑,up,↑,0.5200114000035683,True,13,1,0,11
Y2-S2-129K31,5,521,PS,exp,28,←,left,←,0.5141980000043986,True,13,1,0,11
Y2-S2-129K31,5,522,PS,exp,39,↓,up,↑,0.6331058000068879,False,12,-1,1,12
Y2-S2-129K31,5,523,PS,exp,48,↑,up,↑,0.5623507000127574,True,13,-1,0,12
Y2-S2-129K31,5,524,PS,exp,27,←,up,↑,0.5347959000064293,False,13,-1,0,12
Y2-S2-129K31,5,525,PS,exp,35,↑,up,↑,0.608876300000702,True,14,-1,0,12
Y2-S2-129K31,5,526,PS,exp,26,↓,down,↓,0.8447930999973323,True,14,-1,0,12
Y2-S2-129K31,5,527,PS,exp,43,←,left,←,0.5654001000075368,True,14,1,1,13
Y2-S2-129K31,5,528,PS,exp,36,↑,up,↑,0.7761661999975331,True,13,1,0,13
Y2-S2-129K31,5,529,PS,exp,45,↓,down,↓,0.636120099996333,True,13,1,0,13
Y2-S2-129K31,5,530,PS,exp,47,↑,up,↑,0.6558537000091746,True,13,1,0,13
Y2-S2-129K31,5,531,PS,exp,29,↓,up,↑,0.9207402000029106,False,12,-1,1,14
Y2-S2-129K31,5,532,PS,exp,28,←,left,←,0.5157963999954518,True,13,-1,0,14
Y2-S2-129K31,5,533,PS,exp,42,→,right,→,0.5827668999991147,True,13,-1,0,14
Y2-S2-129K31,5,534,PS,exp,31,↓,down,↓,0.6948530999943614,True,13,1,1,15
Y2-S2-129K31,5,535,PS,exp,27,←,left,←,0.5198528000037186,True,12,1,0,15
Y2-S2-129K31,5,536,PS,exp,50,↓,down,↓,1.0220106999913696,True,12,1,0,15
Y2-S2-129K31,5,537,PS,exp,42,←,left,←,0.569053500003065,True,12,1,0,15
Y2-S2-129K31,5,538,PS,exp,25,↑,left,←,0.8177211000001989,False,11,-1,1,16
Y2-S2-129K31,6,539,AS,intra_train,42,←,left,←,0.7660280999989482,True,27,-,-,-
Y2-S2-129K31,6,540,AS,intra_train,32,→,right,→,0.8452369000006001,True,27,-,-,-
Y2-S2-129K31,6,541,AS,intra_train,26,←,left,←,0.7642586000001756,True,27,-,-,-
Y2-S2-129K31,6,542,AS,intra_train,25,↓,down,↓,1.0821705999987898,True,27,-,-,-
Y2-S2-129K31,6,543,AS,intra_train,43,↑,up,↑,1.1533936000050744,True,27,-,-,-
Y2-S2-129K31,6,544,AS,exp,37,↓,down,↓,0.9510465000057593,True,18,0,0,0
Y2-S2-129K31,6,545,AS,exp,40,→,right,→,0.7000537999992957,True,18,0,0,0
Y2-S2-129K31,6,546,AS,exp,44,↓,up,↑,0.9169314999890048,False,18,-1,0,0
Y2-S2-129K31,6,547,AS,exp,46,←,left,←,0.6317796999937855,True,19,-1,0,0
Y2-S2-129K31,6,548,AS,exp,49,↓,down,↓,0.7463771999900928,True,19,-1,0,0
Y2-S2-129K31,6,549,AS,exp,35,↑,up,↑,0.5827134999999544,True,19,1,1,1
Y2-S2-129K31,6,550,AS,exp,26,←,left,←,0.5485961000085808,True,18,1,0,1
Y2-S2-129K31,6,551,AS,exp,47,↑,up,↑,0.720701199999894,True,18,1,0,1
Y2-S2-129K31,6,552,AS,exp,30,←,left,←,0.5109342999930959,True,18,1,0,1
Y2-S2-129K31,6,553,AS,exp,49,→,up,↑,0.873349599991343,False,17,-1,1,2
Y2-S2-129K31,6,554,AS,exp,42,↑,down,↓,0.983556299994234,False,18,-1,0,2
Y2-S2-129K31,6,555,AS,exp,50,←,left,←,0.6959261000010883,True,19,-1,0,2
Y2-S2-129K31,6,556,AS,exp,33,↑,up,↑,0.8217206000117585,True,19,-1,0,2
Y2-S2-129K31,6,557,AS,exp,26,↓,down,↓,0.7429497999983141,True,19,1,1,3
Y2-S2-129K31,6,558,AS,exp,43,←,left,←,0.5890276999998605,True,18,1,0,3
Y2-S2-129K31,6,559,AS,exp,38,→,right,→,0.521678899996914,True,18,1,0,3
Y2-S2-129K31,6,560,AS,exp,38,←,left,←,0.5251556000002893,True,18,1,0,3
Y2-S2-129K31,6,561,AS,exp,37,↓,down,↓,0.7180127000028733,True,17,1,0,3
Y2-S2-129K31,6,562,AS,exp,40,→,right,→,0.5267873000120744,True,17,1,0,3
Y2-S2-129K31,6,563,AS,exp,44,↑,left,←,1.0333333000016864,False,17,-1,1,4
Y2-S2-129K31,6,564,AS,exp,25,→,left,←,0.8819371999998111,False,18,-1,0,4
Y2-S2-129K31,6,565,AS,exp,37,↑,right,→,0.7288559000007808,False,19,-1,0,4
Y2-S2-129K31,6,566,AS,exp,34,↓,down,↓,0.7030361000070116,True,20,-1,0,4
Y2-S2-129K31,6,567,AS,exp,29,←,left,←,0.5981789999932516,True,20,-1,0,4
Y2-S2-129K31,6,568,AS,exp,36,→,left,←,0.6919793999986723,False,20,-1,0,4
Y2-S2-129K31,6,569,AS,exp,32,↑,up,↑,0.7003185999928974,True,21,-1,0,4
Y2-S2-129K31,6,570,AS,exp,45,←,no_key,no_letter,-1.0,False,21,-1,0,4
Y2-S2-129K31,6,571,AS,exp,29,↑,up,↑,0.5910930999962147,True,22,-1,0,4
Y2-S2-129K31,6,572,AS,exp,40,←,left,←,0.5970470000029309,True,22,-1,0,4
Y2-S2-129K31,6,573,AS,exp,48,↓,down,↓,0.7770012999972096,True,22,1,1,5
Y2-S2-129K31,6,574,AS,exp,26,↑,up,↑,0.8440721999941161,True,21,1,0,5
Y2-S2-129K31,6,575,AS,exp,37,↓,down,↓,0.8559954000083962,True,21,1,0,5
Y2-S2-129K31,6,576,AS,exp,31,→,right,→,0.683145400005742,True,21,1,0,5
Y2-S2-129K31,6,577,AS,exp,47,↑,up,↑,0.5087844999943627,True,20,1,0,5
Y2-S2-129K31,6,578,AS,exp,27,→,right,→,0.46739200000592973,True,20,1,0,5
Y2-S2-129K31,6,579,AS,exp,27,←,left,←,0.4338631999999052,True,20,1,0,5
Y2-S2-129K31,6,580,AS,exp,35,→,right,→,1.6940452999988338,True,19,1,0,5
Y2-S2-129K31,6,581,AS,exp,46,↓,down,↓,0.9361351999978069,True,19,1,0,5
Y2-S2-129K31,6,582,AS,exp,31,↑,up,↑,0.45087460000650026,True,19,1,0,5
Y2-S2-129K31,6,583,AS,exp,48,↓,down,↓,0.6870682000007946,True,18,1,0,5
Y2-S2-129K31,6,584,AS,exp,27,→,left,←,0.701645200009807,False,18,-1,1,6
Y2-S2-129K31,6,585,AS,exp,47,↓,down,↓,0.8315453999966849,True,19,-1,0,6
Y2-S2-129K31,6,586,AS,exp,43,←,left,←,0.4341061000013724,True,19,-1,0,6
Y2-S2-129K31,6,587,AS,exp,40,↑,up,↑,1.7642573999910383,True,19,1,1,7
Y2-S2-129K31,6,588,AS,exp,28,→,right,→,1.6141531000030227,True,18,1,0,7
Y2-S2-129K31,6,589,AS,exp,48,↑,up,↑,0.7697174000059022,True,18,1,0,7
Y2-S2-129K31,6,590,AS,exp,31,←,right,→,0.6433906000020215,False,18,-1,1,8
Y2-S2-129K31,6,591,AS,exp,50,↓,right,→,0.6466360999911558,False,19,-1,0,8
Y2-S2-129K31,6,592,AS,exp,40,↑,up,↑,0.6867612000060035,True,20,-1,0,8
Y2-S2-129K31,6,593,AS,exp,34,←,right,→,0.5444100000022445,False,20,-1,0,8
Y2-S2-129K31,6,594,AS,exp,32,↑,up,↑,1.2588514000090072,True,21,-1,0,8
Y2-S2-129K31,6,595,AS,exp,43,↓,down,↓,0.7085823000088567,True,21,-1,0,8
Y2-S2-129K31,6,596,AS,exp,44,→,right,→,0.6103112999990117,True,21,1,1,9
Y2-S2-129K31,6,597,AS,exp,27,←,left,←,1.8447203999967314,True,20,1,0,9
Y2-S2-129K31,6,598,AS,exp,33,→,right,→,0.52593170000182,True,20,1,0,9
Y2-S2-129K31,6,599,AS,exp,35,↑,down,↓,0.8721556999953464,False,20,-1,1,10
Y2-S2-129K31,6,600,AS,exp,50,→,right,→,0.6403494999976829,True,21,-1,0,10
Y2-S2-129K31,6,601,AS,exp,25,↑,up,↑,0.46741759999713395,True,21,-1,0,10
Y2-S2-129K31,6,602,AS,exp,40,←,left,←,0.46736650000093505,True,21,1,1,11
Y2-S2-129K31,6,603,AS,exp,42,→,no_key,no_letter,-1.0,False,20,-1,1,12
Y2-S2-129K31,6,604,AS,exp,26,↓,up,↑,0.9357097000029171,False,21,-1,0,12
Y2-S2-129K31,6,605,AS,exp,42,←,right,→,0.7038920000049984,False,22,-1,0,12
Y2-S2-129K31,6,606,AS,exp,38,↓,down,↓,0.7451753999921493,True,23,-1,0,12
Y2-S2-129K31,6,607,AS,exp,37,→,right,→,0.4339592000033008,True,23,-1,0,12
Y2-S2-129K31,6,608,AS,exp,43,←,left,←,0.434550499994657,True,23,1,1,13
Y2-S2-129K31,6,609,AS,exp,27,↓,down,↓,0.8077241999999387,True,22,1,0,13
Y2-S2-129K31,6,610,AS,exp,40,→,right,→,0.5840026000078069,True,22,1,0,13
Y2-S2-129K31,6,611,AS,exp,34,↑,up,↑,0.4673235999944154,True,22,1,0,13
Y2-S2-129K31,6,612,AS,exp,50,↓,up,↑,0.1510610999976052,False,21,-1,1,14
Y2-S2-129K31,6,613,AS,exp,31,←,left,←,0.7477903999970295,True,22,-1,0,14
Y2-S2-129K31,6,614,AS,exp,50,↑,up,↑,1.3955424000014318,True,22,-1,0,14
Y2-S2-129K31,6,615,AS,exp,50,←,left,←,0.8197201000002678,True,22,1,1,15
Y2-S2-129K31,6,616,AS,exp,35,↓,down,↓,0.9678227999975206,True,21,1,0,15
Y2-S2-129K31,6,617,AS,exp,30,↑,down,↓,1.069983699999284,False,21,-1,1,16
Y2-S2-129K31,7,618,AS,intra_train,45,←,left,←,0.739385000008042,True,27,-,-,-
Y2-S2-129K31,7,619,AS,intra_train,44,↓,down,↓,0.844207500005723,True,27,-,-,-
Y2-S2-129K31,7,620,AS,intra_train,42,←,left,←,0.7300627000076929,True,27,-,-,-
Y2-S2-129K31,7,621,AS,intra_train,34,→,right,→,1.76944539998658,True,27,-,-,-
Y2-S2-129K31,7,622,AS,intra_train,44,↓,down,↓,1.0207952999917325,True,27,-,-,-
Y2-S2-129K31,7,623,AS,exp,25,→,right,→,0.6140376999974251,True,18,0,0,0
Y2-S2-129K31,7,624,AS,exp,47,←,left,←,0.6562070999934804,True,18,0,0,0
Y2-S2-129K31,7,625,AS,exp,42,↑,up,↑,0.712952400004724,True,18,1,0,0
Y2-S2-129K31,7,626,AS,exp,40,→,right,→,0.5361520000005839,True,17,1,0,0
Y2-S2-129K31,7,627,AS,exp,29,←,left,←,0.4605093999998644,True,17,1,0,0
Y2-S2-129K31,7,628,AS,exp,36,↑,up,↑,0.6900286000018241,True,17,1,0,0
Y2-S2-129K31,7,629,AS,exp,42,→,right,→,0.4999450000032084,True,16,1,0,0
Y2-S2-129K31,7,630,AS,exp,37,←,left,←,1.3158801999961725,True,16,1,0,0
Y2-S2-129K31,7,631,AS,exp,35,↓,down,↓,0.7213664000009885,True,16,1,0,0
Y2-S2-129K31,7,632,AS,exp,42,↑,down,↓,0.7712581000087084,False,15,-1,1,1
Y2-S2-129K31,7,633,AS,exp,35,→,right,→,0.7089233000006061,True,16,-1,0,1
Y2-S2-129K31,7,634,AS,exp,50,←,right,→,0.6484196999954293,False,16,-1,0,1
Y2-S2-129K31,7,635,AS,exp,30,→,right,→,0.8740877999953227,True,17,-1,0,1
Y2-S2-129K31,7,636,AS,exp,35,↓,down,↓,0.6666047000035178,True,17,-1,0,1
Y2-S2-129K31,7,637,AS,exp,36,→,right,→,0.666741599998204,True,17,1,1,2
Y2-S2-129K31,7,638,AS,exp,25,←,down,↓,1.0280177000095136,False,16,-1,1,3
Y2-S2-129K31,7,639,AS,exp,26,↑,down,↓,0.8637184000108391,False,17,-1,0,3
Y2-S2-129K31,7,640,AS,exp,33,←,right,→,0.7412667999888072,False,18,-1,0,3
Y2-S2-129K31,7,641,AS,exp,32,↑,up,↑,0.7659121000033338,True,19,-1,0,3
Y2-S2-129K31,7,642,AS,exp,43,↓,up,↑,0.804785800006357,False,19,-1,0,3
Y2-S2-129K31,7,643,AS,exp,39,↑,up,↑,0.7255810999922687,True,20,-1,0,3
Y2-S2-129K31,7,644,AS,exp,25,←,left,←,0.5759858000092208,True,20,-1,0,3
Y2-S2-129K31,7,645,AS,exp,47,↓,down,↓,0.7730027999932645,True,20,1,1,4
Y2-S2-129K31,7,646,AS,exp,28,↑,down,↓,1.4813361999986228,False,19,-1,1,5
Y2-S2-129K31,7,647,AS,exp,46,→,down,↓,0.9708390000014333,False,20,-1,0,5
Y2-S2-129K31,7,648,AS,exp,44,←,left,←,0.941924900005688,True,21,-1,0,5
Y2-S2-129K31,7,649,AS,exp,25,↓,down,↓,0.8389188000001013,True,21,-1,0,5
Y2-S2-129K31,7,650,AS,exp,49,→,right,→,0.6714234999963082,True,21,1,1,6
Y2-S2-129K31,7,651,AS,exp,49,↓,down,↓,0.6855731999967247,True,20,1,0,6
Y2-S2-129K31,7,652,AS,exp,27,←,left,←,0.7454721000103746,True,20,1,0,6
Y2-S2-129K31,7,653,AS,exp,27,↓,down,↓,0.7032660999975633,True,20,1,0,6
Y2-S2-129K31,7,654,AS,exp,35,←,left,←,0.7180625000037253,True,19,1,0,6
Y2-S2-129K31,7,655,AS,exp,45,↑,up,↑,0.6238250000023982,True,19,1,0,6
Y2-S2-129K31,7,656,AS,exp,38,↓,up,↑,1.0522529000008944,False,19,-1,1,7
Y2-S2-129K31,7,657,AS,exp,45,↑,up,↑,0.6754621000000043,True,20,-1,0,7
Y2-S2-129K31,7,658,AS,exp,45,←,up,↑,0.7401485000009416,False,20,-1,0,7
Y2-S2-129K31,7,659,AS,exp,50,→,right,→,0.6239415000018198,True,21,-1,0,7
Y2-S2-129K31,7,660,AS,exp,43,←,left,←,0.6872831999935443,True,21,-1,0,7
Y2-S2-129K31,7,661,AS,exp,27,↑,up,↑,0.5836227999971015,True,21,1,1,8
Y2-S2-129K31,7,662,AS,exp,48,←,left,←,1.3815045000083046,True,20,1,0,8
Y2-S2-129K31,7,663,AS,exp,28,↓,up,↑,0.7872833000001265,False,20,-1,1,9
Y2-S2-129K31,7,664,AS,exp,36,↑,up,↑,0.4671813999884762,True,21,-1,0,9
Y2-S2-129K31,7,665,AS,exp,34,↓,up,↑,0.8868542999989586,False,21,-1,0,9
Y2-S2-129K31,7,666,AS,exp,29,→,right,→,0.6487401000049431,True,22,-1,0,9
Y2-S2-129K31,7,667,AS,exp,26,↑,up,↑,0.581150300000445,True,22,-1,0,9
Y2-S2-129K31,7,668,AS,exp,50,→,right,→,0.6162365000054706,True,22,1,1,10
Y2-S2-129K31,7,669,AS,exp,31,↑,up,↑,0.48339900000428315,True,21,1,0,10
Y2-S2-129K31,7,670,AS,exp,41,→,right,→,0.6206165999901714,True,21,1,0,10
Y2-S2-129K31,7,671,AS,exp,42,↑,up,↑,0.7565941999928327,True,21,1,0,10
Y2-S2-129K31,7,672,AS,exp,47,↓,down,↓,1.1670277000084752,True,20,1,0,10
Y2-S2-129K31,7,673,AS,exp,42,←,left,←,1.630127700002049,True,20,1,0,10
Y2-S2-129K31,7,674,AS,exp,43,↓,down,↓,0.6662120999972103,True,20,1,0,10
Y2-S2-129K31,7,675,AS,exp,26,←,left,←,1.8324648999987403,True,19,1,0,10
Y2-S2-129K31,7,676,AS,exp,47,→,right,→,1.0892693000059808,True,19,1,0,10
Y2-S2-129K31,7,677,AS,exp,47,↑,up,↑,1.4017107999970904,True,19,1,0,10
Y2-S2-129K31,7,678,AS,exp,37,↓,down,↓,0.9224078999977792,True,18,1,0,10
Y2-S2-129K31,7,679,AS,exp,41,↑,up,↑,0.846894300004351,True,18,1,0,10
Y2-S2-129K31,7,680,AS,exp,26,←,left,←,0.9861897999944631,True,18,1,0,10
Y2-S2-129K31,7,681,AS,exp,29,↑,up,↑,1.2606408999999985,True,17,1,0,10
Y2-S2-129K31,7,682,AS,exp,32,←,left,←,0.46582019999914337,True,17,1,0,10
Y2-S2-129K31,7,683,AS,exp,35,→,right,→,0.4793364999932237,True,17,1,0,10
Y2-S2-129K31,7,684,AS,exp,48,↑,up,↑,0.5846315999951912,True,16,1,0,10
Y2-S2-129K31,7,685,AS,exp,49,←,left,←,1.167594200000167,True,16,1,0,10
Y2-S2-129K31,7,686,AS,exp,39,↑,up,↑,0.503880800009938,True,16,1,0,10
Y2-S2-129K31,7,687,AS,exp,27,←,right,→,0.6589078999968478,False,15,-1,1,11
Y2-S2-129K31,7,688,AS,exp,46,↑,up,↑,0.5239450000080978,True,16,-1,0,11
Y2-S2-129K31,7,689,AS,exp,40,↓,up,↑,0.8410800999990897,False,16,-1,0,11
Y2-S2-129K31,7,690,AS,exp,38,→,right,→,0.49881969999114517,True,17,-1,0,11
Y2-S2-129K31,7,691,AS,exp,32,↓,down,↓,0.7630682000017259,True,17,-1,0,11
Y2-S2-129K31,7,692,AS,exp,26,↑,up,↑,0.5404886000033002,True,17,1,1,12
Y2-S2-129K31,7,693,AS,exp,43,→,right,→,0.7550141999963671,True,16,1,0,12
Y2-S2-129K31,7,694,AS,exp,44,←,left,←,0.782551299998886,True,16,1,0,12
Y2-S2-129K31,7,695,AS,exp,32,↓,down,↓,0.7043983000039589,True,16,1,0,12
Y2-S2-129K31,7,696,AS,exp,49,↑,up,↑,0.4914100000023609,True,15,1,0,12
Y2-S2-129K31,7,697,AS,exp,47,→,right,→,0.48173749999841675,True,15,1,0,12
Y2-S2-129K31,7,698,AS,exp,39,↑,up,↑,0.5211471000075107,True,15,1,0,12
Y2-S2-129K31,7,699,AS,exp,25,←,left,←,0.5985287000075914,True,14,1,0,12
Y2-S2-129K31,7,700,AS,exp,42,↓,down,↓,0.8843879999913042,True,14,1,0,12
Y2-S2-129K31,7,701,AS,exp,30,↑,up,↑,0.5430765000055544,True,14,1,0,12
Y2-S2-129K31,7,702,AS,exp,45,↓,down,↓,0.6681383999966783,True,13,1,0,12
Y2-S2-129K31,7,703,AS,exp,32,←,left,←,0.5319569999992382,True,13,1,0,12
Y2-S2-129K31,7,704,AS,exp,28,→,left,←,0.7672298999968916,False,13,-1,1,13
Y2-S2-129K31,7,705,AS,exp,32,↑,down,↓,1.0126098000037018,False,14,-1,0,13
Y2-S2-129K31,7,706,AS,exp,48,→,right,→,0.5123683999991044,True,15,-1,0,13
Y2-S2-129K31,7,707,AS,exp,45,←,left,←,0.4867406999983359,True,15,-1,0,13
Y2-S2-129K31,7,708,AS,exp,30,→,right,→,0.44195480000053067,True,15,1,1,14
Y2-S2-129K31,7,709,AS,exp,35,↑,up,↑,0.4880517999990843,True,14,1,0,14
Y2-S2-129K31,7,710,AS,exp,50,←,left,←,0.6097085000074003,True,14,1,0,14
Y2-S2-129K31,7,711,AS,exp,30,→,right,→,0.45743019999645185,True,14,1,0,14
Y2-S2-129K31,7,712,AS,exp,49,←,right,→,0.5596789999981411,False,13,-1,1,15
Y2-S2-129K31,7,713,AS,exp,28,↓,right,→,0.9393510999943828,False,14,-1,0,15
Y2-S2-129K31,7,714,AS,exp,38,↑,down,↓,0.7613230999995722,False,15,-1,0,15
Y2-S2-129K31,7,715,AS,exp,36,→,right,→,1.9270688999968115,True,16,-1,0,15
Y2-S2-129K31,7,716,AS,exp,48,↓,down,↓,0.7137748999957694,True,16,-1,0,15
Y2-S2-129K31,7,717,AS,exp,44,→,left,←,1.1237668999965535,False,16,-1,0,15
Y2-S2-129K31,7,718,AS,exp,26,←,left,←,0.8597857999993721,True,17,-1,0,15
Y2-S2-129K31,7,719,AS,exp,28,↑,up,↑,0.619209000011324,True,17,-1,0,15
Y2-S2-129K31,7,720,AS,exp,32,→,right,→,0.5430934000032721,True,17,1,1,16
Y2-S2-129K31,8,721,PS,intra_train,31,↓,down,↓,0.8586835000023711,True,19,-,-,-
Y2-S2-129K31,8,722,PS,intra_train,43,→,right,→,1.4795051999972202,True,19,-,-,-
Y2-S2-129K31,8,723,PS,intra_train,34,↑,up,↑,0.8668588000000454,True,19,-,-,-
Y2-S2-129K31,8,724,PS,intra_train,47,↓,down,↓,1.0030510000069626,True,19,-,-,-
Y2-S2-129K31,8,725,PS,intra_train,48,←,left,←,0.6823724999994738,True,19,-,-,-
Y2-S2-129K31,8,726,PS,exp,47,↑,left,←,0.671457400007057,False,13,-1,0,0
Y2-S2-129K31,8,727,PS,exp,32,↓,down,↓,0.8256175999995321,True,14,-1,0,0
Y2-S2-129K31,8,728,PS,exp,25,→,right,→,0.8949174000008497,True,14,-1,0,0
Y2-S2-129K31,8,729,PS,exp,35,↑,up,↑,0.6001700000051642,True,14,1,1,1
Y2-S2-129K31,8,730,PS,exp,46,←,left,←,0.529026200005319,True,13,1,0,1
Y2-S2-129K31,8,731,PS,exp,32,↓,down,↓,0.6563119000056759,True,13,1,0,1
Y2-S2-129K31,8,732,PS,exp,44,→,right,→,0.4651993999868864,True,13,1,0,1
Y2-S2-129K31,8,733,PS,exp,30,↑,up,↑,0.5643244999955641,True,12,1,0,1
Y2-S2-129K31,8,734,PS,exp,45,←,left,←,0.822438899995177,True,12,1,0,1
Y2-S2-129K31,8,735,PS,exp,28,↑,up,↑,0.5788521999929799,True,12,1,0,1
Y2-S2-129K31,8,736,PS,exp,25,↓,up,↑,0.5525514000037219,False,11,-1,1,2
Y2-S2-129K31,8,737,PS,exp,37,→,up,↑,0.5676841999957105,False,12,-1,0,2
Y2-S2-129K31,8,738,PS,exp,47,←,left,←,0.7244852000003448,True,13,-1,0,2
Y2-S2-129K31,8,739,PS,exp,42,↑,up,↑,0.6631964999978663,True,13,-1,0,2
Y2-S2-129K31,8,740,PS,exp,42,←,left,←,0.44026259999372996,True,13,1,1,3
Y2-S2-129K31,8,741,PS,exp,46,↑,left,←,0.6279026999982307,False,12,-1,1,4
Y2-S2-129K31,8,742,PS,exp,38,→,right,→,0.48090519999095704,True,13,-1,0,4
Y2-S2-129K31,8,743,PS,exp,34,↑,left,←,0.6463852999877417,False,13,-1,0,4
Y2-S2-129K31,8,744,PS,exp,44,→,left,←,0.5000503000046592,False,14,-1,0,4
Y2-S2-129K31,8,745,PS,exp,27,↓,up,↑,0.8064620999939507,False,15,-1,0,4
Y2-S2-129K31,8,746,PS,exp,26,→,left,←,0.7035629000019981,False,16,-1,0,4
Y2-S2-129K31,8,747,PS,exp,34,←,left,←,0.5693277000100352,True,17,-1,0,4
Y2-S2-129K31,8,748,PS,exp,38,→,left,←,0.6820460000017192,False,17,-1,0,4
Y2-S2-129K31,8,749,PS,exp,40,↓,left,←,0.5658067999902414,False,18,-1,0,4
Y2-S2-129K31,8,750,PS,exp,28,←,left,←,0.7533791000023484,True,19,-1,0,4
Y2-S2-129K31,8,751,PS,exp,26,→,right,→,0.6937883000064176,True,19,-1,0,4
Y2-S2-129K31,8,752,PS,exp,46,↓,down,↓,0.7758023999922443,True,19,1,1,5
Y2-S2-129K31,8,753,PS,exp,33,↑,up,↑,0.703972099989187,True,18,1,0,5
Y2-S2-129K31,8,754,PS,exp,25,←,left,←,0.8846019999909913,True,18,1,0,5
Y2-S2-129K31,8,755,PS,exp,33,→,right,→,0.528895299998112,True,18,1,0,5
Y2-S2-129K31,8,756,PS,exp,25,←,left,←,0.6441248000046471,True,17,1,0,5
Y2-S2-129K31,8,757,PS,exp,44,↑,up,↑,0.5617711999948369,True,17,1,0,5
Y2-S2-129K31,8,758,PS,exp,46,←,left,←,0.5169267000019317,True,17,1,0,5
Y2-S2-129K31,8,759,PS,exp,48,↑,up,↑,0.6921027999924263,True,16,1,0,5
Y2-S2-129K31,8,760,PS,exp,47,→,right,→,0.48877100000390783,True,16,1,0,5
Y2-S2-129K31,8,761,PS,exp,33,↓,down,↓,0.70132319998811,True,16,1,0,5
Y2-S2-129K31,8,762,PS,exp,43,→,left,←,0.8542786999896634,False,15,-1,1,6
Y2-S2-129K31,8,763,PS,exp,30,↑,up,↑,0.5347429999965243,True,16,-1,0,6
Y2-S2-129K31,8,764,PS,exp,37,↓,down,↓,0.696952499987674,True,16,-1,0,6
Y2-S2-129K31,8,765,PS,exp,46,↑,up,↑,0.5406070000026375,True,16,1,1,7
Y2-S2-129K31,8,766,PS,exp,28,→,right,→,0.5520887000020593,True,15,1,0,7
Y2-S2-129K31,8,767,PS,exp,35,↓,left,←,0.9426253999990877,False,15,-1,1,8
Y2-S2-129K31,8,768,PS,exp,35,↑,up,↑,0.5188235000096029,True,16,-1,0,8
Y2-S2-129K31,8,769,PS,exp,35,→,right,→,0.6877716000017244,True,16,-1,0,8
Y2-S2-129K31,8,770,PS,exp,39,←,left,←,0.5470862999936799,True,16,1,1,9
Y2-S2-129K31,8,771,PS,exp,45,↑,up,↑,0.5936157999967691,True,15,1,0,9
Y2-S2-129K31,8,772,PS,exp,34,↓,down,↓,0.7658344999945257,True,15,1,0,9
Y2-S2-129K31,8,773,PS,exp,43,↑,up,↑,0.6067146999994293,True,15,1,0,9
Y2-S2-129K31,8,774,PS,exp,34,→,right,→,0.49176029999216553,True,14,1,0,9
Y2-S2-129K31,8,775,PS,exp,30,↑,up,↑,0.5107537000003504,True,14,1,0,9
Y2-S2-129K31,8,776,PS,exp,49,→,right,→,0.6304593000095338,True,14,1,0,9
Y2-S2-129K31,8,777,PS,exp,39,←,left,←,0.6337226000032388,True,13,1,0,9
Y2-S2-129K31,8,778,PS,exp,31,↑,up,↑,0.6514679999963846,True,13,1,0,9
Y2-S2-129K31,8,779,PS,exp,30,→,right,→,0.4625279999891063,True,13,1,0,9
Y2-S2-129K31,8,780,PS,exp,30,↓,down,↓,0.8286610999930417,True,12,1,0,9
Y2-S2-129K31,8,781,PS,exp,31,↑,up,↑,0.5289838000026066,True,12,1,0,9
Y2-S2-129K31,8,782,PS,exp,29,←,left,←,0.7150459999975283,True,12,1,0,9
Y2-S2-129K31,8,783,PS,exp,50,↑,up,↑,0.5405788000061875,True,11,1,0,9
Y2-S2-129K31,8,784,PS,exp,46,←,left,←,0.5734697000007145,True,11,1,0,9
Y2-S2-129K31,8,785,PS,exp,30,↑,up,↑,0.6917465000005905,True,11,1,0,9
Y2-S2-129K31,8,786,PS,exp,25,←,left,←,0.5393752999952994,True,10,1,0,9
Y2-S2-129K31,8,787,PS,exp,32,↑,left,←,0.6626395999919623,False,10,-1,1,10
Y2-S2-129K31,8,788,PS,exp,38,↓,down,↓,0.742692600004375,True,11,-1,0,10
Y2-S2-129K31,8,789,PS,exp,47,←,left,←,0.48651149999932386,True,11,-1,0,10
Y2-S2-129K31,8,790,PS,exp,48,→,right,→,0.48929579999821726,True,11,1,1,11
Y2-S2-129K31,8,791,PS,exp,35,↑,up,↑,0.49088019999908283,True,10,1,0,11
Y2-S2-129K31,8,792,PS,exp,37,↓,down,↓,0.7170283000014024,True,10,1,0,11
Y2-S2-129K31,8,793,PS,exp,34,←,right,→,0.7091732999979286,False,10,-1,1,12
Y2-S2-129K31,8,794,PS,exp,37,↓,down,↓,0.7054109000018798,True,11,-1,0,12
Y2-S2-129K31,8,795,PS,exp,27,→,right,→,0.6517659999954049,True,11,-1,0,12
Y2-S2-129K31,8,796,PS,exp,47,←,left,←,0.5386583999934373,True,11,1,1,13
Y2-S2-129K31,8,797,PS,exp,47,→,right,→,0.8509259999991627,True,10,1,0,13
Y2-S2-129K31,8,798,PS,exp,50,↑,up,↑,0.6042406000051415,True,10,1,0,13
Y2-S2-129K31,8,799,PS,exp,27,→,down,↓,1.1186021999892546,False,10,-1,1,14
Y2-S2-129K31,8,800,PS,exp,42,↓,down,↓,0.7322979000018677,True,11,-1,0,14
Y2-S2-129K31,8,801,PS,exp,50,→,right,→,0.4638985000055982,True,11,-1,0,14
Y2-S2-129K31,8,802,PS,exp,28,↑,up,↑,0.4974826999969082,True,11,1,1,15
Y2-S2-129K31,8,803,PS,exp,46,↓,right,→,0.6590442000015173,False,10,-1,1,16
