PART_ID,Block_no,Trial_no,Block_type,Trial_type,CSI,Stim_letter,Key_pressed,letter_choose,Rt,Corr,Stimulus Time,Level,Reversal,Revs_count
Y2-S2-170K23,1,1,PS,train,35,←,left,←,0.9705731999129057,True,30,-,-,-
Y2-S2-170K23,1,2,PS,train,43,→,no_key,no_letter,-1.0,False,30,-,-,-
Y2-S2-170K23,1,3,PS,train,32,↑,up,↑,1.1217060999479145,True,30,-,-,-
Y2-S2-170K23,1,4,PS,train,27,↓,down,↓,0.7671733999159187,True,30,-,-,-
Y2-S2-170K23,1,5,PS,train,38,↑,up,↑,0.7894411999732256,True,30,-,-,-
Y2-S2-170K23,1,6,PS,train,40,←,left,←,0.6170200000051409,True,30,-,-,-
Y2-S2-170K23,1,7,PS,train,37,↑,up,↑,0.5176021999213845,True,30,-,-,-
Y2-S2-170K23,1,8,PS,train,36,→,right,→,0.5516952001489699,True,30,-,-,-
Y2-S2-170K23,1,9,PS,train,26,↓,down,↓,0.7494345000013709,True,30,-,-,-
Y2-S2-170K23,1,10,PS,train,45,→,right,→,0.5005250999238342,True,30,-,-,-
Y2-S2-170K23,2,11,AS,train,26,←,left,←,1.0456840998958796,True,45,-,-,-
Y2-S2-170K23,2,12,AS,train,31,↓,left,←,0.5843823000323027,False,45,-,-,-
Y2-S2-170K23,2,13,AS,train,30,←,left,←,0.7678966999519616,True,45,-,-,-
Y2-S2-170K23,2,14,AS,train,31,↑,up,↑,0.8173734999727458,True,45,-,-,-
Y2-S2-170K23,2,15,AS,train,29,←,right,→,0.8837872999720275,False,45,-,-,-
Y2-S2-170K23,2,16,AS,train,31,↑,up,↑,1.3337403999175876,True,45,-,-,-
Y2-S2-170K23,2,17,AS,train,36,↓,down,↓,1.306002500001341,True,45,-,-,-
Y2-S2-170K23,2,18,AS,train,42,→,right,→,1.0576965999789536,True,45,-,-,-
Y2-S2-170K23,2,19,AS,train,38,↑,up,↑,1.0181247000582516,True,45,-,-,-
Y2-S2-170K23,2,20,AS,train,35,→,right,→,0.9865323000121862,True,45,-,-,-
Y2-S2-170K23,-,21,PS,adaptive,29,↓,down,↓,0.9515473002102226,True,10,0,0,0
Y2-S2-170K23,-,22,PS,adaptive,32,←,left,←,0.7144319999497384,True,10,0,0,0
Y2-S2-170K23,-,23,PS,adaptive,40,→,left,←,1.4147882000543177,False,10,-1,0,0
Y2-S2-170K23,-,24,PS,adaptive,48,↓,down,↓,0.9470222999807447,True,11,-1,0,0
Y2-S2-170K23,-,25,PS,adaptive,48,←,up,↑,1.2006214000284672,False,11,-1,0,0
Y2-S2-170K23,-,26,PS,adaptive,32,↓,down,↓,0.8342369999736547,True,12,-1,0,0
Y2-S2-170K23,-,27,PS,adaptive,41,←,left,←,0.691574800061062,True,12,-1,0,0
Y2-S2-170K23,-,28,PS,adaptive,28,→,right,→,0.617325299885124,True,12,1,1,1
Y2-S2-170K23,-,29,PS,adaptive,28,↑,up,↑,0.6414665998890996,True,11,1,0,1
Y2-S2-170K23,-,30,PS,adaptive,50,↓,down,↓,0.9560186001472175,True,11,1,0,1
Y2-S2-170K23,-,31,PS,adaptive,27,↑,up,↑,0.785668500000611,True,11,1,0,1
Y2-S2-170K23,-,32,PS,adaptive,34,↓,down,↓,0.7342630000784993,True,10,1,0,1
Y2-S2-170K23,-,33,PS,adaptive,42,↑,down,↓,0.9332153999712318,False,10,-1,1,2
Y2-S2-170K23,-,34,PS,adaptive,30,→,right,→,0.661001100204885,True,11,-1,0,2
Y2-S2-170K23,-,35,PS,adaptive,31,↓,down,↓,0.8707912999670953,True,11,-1,0,2
Y2-S2-170K23,-,36,PS,adaptive,47,↑,down,↓,0.9960717000067234,False,11,-1,0,2
Y2-S2-170K23,-,37,PS,adaptive,46,→,right,→,0.6111659000162035,True,12,-1,0,2
Y2-S2-170K23,-,38,PS,adaptive,41,↑,down,↓,0.7443860999774188,False,12,-1,0,2
Y2-S2-170K23,-,39,PS,adaptive,30,→,right,→,0.6473048001062125,True,13,-1,0,2
Y2-S2-170K23,-,40,PS,adaptive,43,←,left,←,0.5742449001409113,True,13,-1,0,2
Y2-S2-170K23,-,41,PS,adaptive,48,↓,down,↓,0.8388127000071108,True,13,1,1,3
Y2-S2-170K23,-,42,PS,adaptive,42,↑,up,↑,0.5691237000282854,True,12,1,0,3
Y2-S2-170K23,-,43,PS,adaptive,46,↓,down,↓,0.8486832000780851,True,12,1,0,3
Y2-S2-170K23,-,44,PS,adaptive,32,←,left,←,0.6543302999343723,True,12,1,0,3
Y2-S2-170K23,-,45,PS,adaptive,44,↓,down,↓,0.7936523999087512,True,11,1,0,3
Y2-S2-170K23,-,46,PS,adaptive,50,↑,up,↑,0.5934167001396418,True,11,1,0,3
Y2-S2-170K23,-,47,PS,adaptive,32,→,right,→,0.6652116000186652,True,11,1,0,3
Y2-S2-170K23,-,48,PS,adaptive,39,↑,down,↓,1.053298399783671,False,10,-1,1,4
Y2-S2-170K23,-,49,AS,adaptive,31,↓,down,↓,1.4161374000832438,True,20,0,0,0
Y2-S2-170K23,-,50,AS,adaptive,36,←,right,→,0.8581294999457896,False,20,-1,0,0
Y2-S2-170K23,-,51,AS,adaptive,33,↑,up,↑,0.9127177998889238,True,21,-1,0,0
Y2-S2-170K23,-,52,AS,adaptive,31,←,down,↓,1.2406070998404175,False,21,-1,0,0
Y2-S2-170K23,-,53,AS,adaptive,31,→,left,←,0.799948199884966,False,22,-1,0,0
Y2-S2-170K23,-,54,AS,adaptive,47,↓,left,←,1.0159232001751661,False,23,-1,0,0
Y2-S2-170K23,-,55,AS,adaptive,49,↑,down,↓,0.9404970000032336,False,24,-1,0,0
Y2-S2-170K23,-,56,AS,adaptive,44,↓,down,↓,0.8499429000075907,True,25,-1,0,0
Y2-S2-170K23,-,57,AS,adaptive,48,←,left,←,0.9829474999569356,True,25,-1,0,0
Y2-S2-170K23,-,58,AS,adaptive,40,↓,down,↓,1.1557334999088198,True,25,1,1,1
Y2-S2-170K23,-,59,AS,adaptive,30,→,right,→,0.879992000060156,True,24,1,0,1
Y2-S2-170K23,-,60,AS,adaptive,27,↑,up,↑,0.6700666998513043,True,24,1,0,1
Y2-S2-170K23,-,61,AS,adaptive,35,↓,down,↓,1.0177639999892563,True,24,1,0,1
Y2-S2-170K23,-,62,AS,adaptive,40,↑,up,↑,0.9668212002143264,True,23,1,0,1
Y2-S2-170K23,-,63,AS,adaptive,36,→,right,→,0.784995699999854,True,23,1,0,1
Y2-S2-170K23,-,64,AS,adaptive,37,↑,up,↑,0.6618416998535395,True,23,1,0,1
Y2-S2-170K23,-,65,AS,adaptive,39,→,right,→,0.7493998999707401,True,22,1,0,1
Y2-S2-170K23,-,66,AS,adaptive,50,←,right,→,1.4087691998574883,False,22,-1,1,2
Y2-S2-170K23,-,67,AS,adaptive,25,→,right,→,1.0840737000107765,True,23,-1,0,2
Y2-S2-170K23,-,68,AS,adaptive,37,↑,down,↓,1.1251258000265807,False,23,-1,0,2
Y2-S2-170K23,-,69,AS,adaptive,50,→,no_key,no_letter,-1.0,False,24,-1,0,2
Y2-S2-170K23,-,70,AS,adaptive,45,↑,left,←,1.2917909000534564,False,25,-1,0,2
Y2-S2-170K23,-,71,AS,adaptive,43,→,right,→,0.6578267000149935,True,26,-1,0,2
Y2-S2-170K23,-,72,AS,adaptive,30,←,left,←,1.2606156000401825,True,26,-1,0,2
Y2-S2-170K23,-,73,AS,adaptive,32,↑,left,←,1.0682240000460297,False,26,-1,0,2
Y2-S2-170K23,-,74,AS,adaptive,33,←,right,→,0.9912723999004811,False,27,-1,0,2
Y2-S2-170K23,-,75,AS,adaptive,50,↑,up,↑,0.7245541999582201,True,28,-1,0,2
Y2-S2-170K23,-,76,AS,adaptive,47,↓,down,↓,1.3299114999826998,True,28,-1,0,2
Y2-S2-170K23,-,77,AS,adaptive,44,←,left,←,1.123850299976766,True,28,1,1,3
Y2-S2-170K23,-,78,AS,adaptive,25,↓,down,↓,1.2975137000903487,True,27,1,0,3
Y2-S2-170K23,-,79,AS,adaptive,50,←,left,←,0.9625826999545097,True,27,1,0,3
Y2-S2-170K23,-,80,AS,adaptive,29,→,left,←,0.9814432000275701,False,27,-1,1,4
Y2-S2-170K23,1,81,AS,intra_train,49,←,left,←,0.8949732000473887,True,42,-,-,-
Y2-S2-170K23,1,82,AS,intra_train,27,↑,up,↑,0.8006579999346286,True,42,-,-,-
Y2-S2-170K23,1,83,AS,intra_train,44,↓,down,↓,1.0015462001319975,True,42,-,-,-
Y2-S2-170K23,1,84,AS,intra_train,33,→,right,→,0.8741670998279005,True,42,-,-,-
Y2-S2-170K23,1,85,AS,intra_train,45,↑,up,↑,1.125070899957791,True,42,-,-,-
Y2-S2-170K23,1,86,AS,exp,50,↓,down,↓,0.9865873001981527,True,28,0,0,0
Y2-S2-170K23,1,87,AS,exp,29,↑,up,↑,0.8046068002004176,True,28,0,0,0
Y2-S2-170K23,1,88,AS,exp,41,↓,left,←,0.7119191999081522,False,28,-1,0,0
Y2-S2-170K23,1,89,AS,exp,44,→,right,→,0.7518842997960746,True,29,-1,0,0
Y2-S2-170K23,1,90,AS,exp,42,↓,down,↓,0.8971450999379158,True,29,-1,0,0
Y2-S2-170K23,1,91,AS,exp,46,←,left,←,0.9003524999134243,True,29,1,1,1
Y2-S2-170K23,1,92,AS,exp,44,→,right,→,0.7402505001518875,True,28,1,0,1
Y2-S2-170K23,1,93,AS,exp,25,←,down,↓,1.071539199911058,False,28,-1,1,2
Y2-S2-170K23,1,94,AS,exp,41,↓,down,↓,1.2969164999667555,True,29,-1,0,2
Y2-S2-170K23,1,95,AS,exp,50,↑,up,↑,0.9854657000396401,True,29,-1,0,2
Y2-S2-170K23,1,96,AS,exp,30,↓,down,↓,0.8233749999199063,True,29,1,1,3
Y2-S2-170K23,1,97,AS,exp,46,→,right,→,1.023685700027272,True,28,1,0,3
Y2-S2-170K23,1,98,AS,exp,36,↓,down,↓,0.9355111999902874,True,28,1,0,3
Y2-S2-170K23,1,99,AS,exp,37,→,right,→,1.016696299891919,True,28,1,0,3
Y2-S2-170K23,1,100,AS,exp,44,↑,down,↓,1.1476845999713987,False,27,-1,1,4
Y2-S2-170K23,1,101,AS,exp,35,←,left,←,0.7446981000248343,True,28,-1,0,4
Y2-S2-170K23,1,102,AS,exp,32,↓,down,↓,0.9475727998651564,True,28,-1,0,4
Y2-S2-170K23,1,103,AS,exp,49,↑,right,→,0.705840100068599,False,28,-1,0,4
Y2-S2-170K23,1,104,AS,exp,30,←,left,←,0.868306600023061,True,29,-1,0,4
Y2-S2-170K23,1,105,AS,exp,34,→,right,→,0.8399185999296606,True,29,-1,0,4
Y2-S2-170K23,1,106,AS,exp,49,←,right,→,1.1547843001317233,False,29,-1,0,4
Y2-S2-170K23,1,107,AS,exp,50,→,right,→,1.1516023001167923,True,30,-1,0,4
Y2-S2-170K23,1,108,AS,exp,36,↑,up,↑,0.77350869984366,True,30,-1,0,4
Y2-S2-170K23,1,109,AS,exp,35,↓,down,↓,0.9452140000648797,True,30,1,1,5
Y2-S2-170K23,1,110,AS,exp,41,←,left,←,0.8760981000959873,True,29,1,0,5
Y2-S2-170K23,1,111,AS,exp,49,→,down,↓,1.3295405998360366,False,29,-1,1,6
Y2-S2-170K23,1,112,AS,exp,41,↑,up,↑,0.9170951000414789,True,30,-1,0,6
Y2-S2-170K23,1,113,AS,exp,27,↓,down,↓,1.0741948999930173,True,30,-1,0,6
Y2-S2-170K23,1,114,AS,exp,38,↑,up,↑,0.9233526999596506,True,30,1,1,7
Y2-S2-170K23,1,115,AS,exp,43,←,left,←,1.050442999927327,True,29,1,0,7
Y2-S2-170K23,1,116,AS,exp,37,↑,up,↑,0.731606800109148,True,29,1,0,7
Y2-S2-170K23,1,117,AS,exp,31,←,left,←,0.7498592999763787,True,29,1,0,7
Y2-S2-170K23,1,118,AS,exp,44,↓,down,↓,1.011452900012955,True,28,1,0,7
Y2-S2-170K23,1,119,AS,exp,48,↑,up,↑,0.8954996999818832,True,28,1,0,7
Y2-S2-170K23,1,120,AS,exp,26,↓,down,↓,0.9926571999676526,True,28,1,0,7
Y2-S2-170K23,1,121,AS,exp,48,↑,up,↑,0.887432900024578,True,27,1,0,7
Y2-S2-170K23,1,122,AS,exp,30,←,left,←,0.9182468999642879,True,27,1,0,7
Y2-S2-170K23,1,123,AS,exp,35,↓,down,↓,1.161240000044927,True,27,1,0,7
Y2-S2-170K23,1,124,AS,exp,37,→,right,→,0.7159166000783443,True,26,1,0,7
Y2-S2-170K23,1,125,AS,exp,29,↓,down,↓,1.1114401000086218,True,26,1,0,7
Y2-S2-170K23,1,126,AS,exp,41,→,right,→,0.8771001000422984,True,26,1,0,7
Y2-S2-170K23,1,127,AS,exp,25,↑,up,↑,0.6811426999047399,True,25,1,0,7
Y2-S2-170K23,1,128,AS,exp,50,→,right,→,0.6023389000911266,True,25,1,0,7
Y2-S2-170K23,1,129,AS,exp,49,↓,down,↓,0.9865143999923021,True,25,1,0,7
Y2-S2-170K23,1,130,AS,exp,48,←,left,←,0.8481335998512805,True,24,1,0,7
Y2-S2-170K23,1,131,AS,exp,32,→,right,→,0.8734134999103844,True,24,1,0,7
Y2-S2-170K23,1,132,AS,exp,27,↑,down,↓,1.1509217999409884,False,24,-1,1,8
Y2-S2-170K23,1,133,AS,exp,27,↓,down,↓,1.0023724001366645,True,25,-1,0,8
Y2-S2-170K23,1,134,AS,exp,37,←,left,←,0.6868569999933243,True,25,-1,0,8
Y2-S2-170K23,1,135,AS,exp,26,↓,down,↓,1.0268282000906765,True,25,1,1,9
Y2-S2-170K23,1,136,AS,exp,45,←,right,→,0.6653767998795956,False,24,-1,1,10
Y2-S2-170K23,1,137,AS,exp,32,↑,up,↑,0.8125137998722494,True,25,-1,0,10
Y2-S2-170K23,1,138,AS,exp,49,↓,right,→,1.4110308999661356,False,25,-1,0,10
Y2-S2-170K23,1,139,AS,exp,32,←,left,←,1.1364378000143915,True,26,-1,0,10
Y2-S2-170K23,1,140,AS,exp,26,↓,down,↓,1.018492499832064,True,26,-1,0,10
Y2-S2-170K23,1,141,AS,exp,28,←,left,←,0.911407700041309,True,26,1,1,11
Y2-S2-170K23,1,142,AS,exp,31,→,right,→,0.9631950000766665,True,25,1,0,11
Y2-S2-170K23,1,143,AS,exp,26,↓,right,→,1.044349999865517,False,25,-1,1,12
Y2-S2-170K23,1,144,AS,exp,42,↑,up,↑,0.7626809999346733,True,26,-1,0,12
Y2-S2-170K23,1,145,AS,exp,28,→,left,←,1.3479866001289338,False,26,-1,0,12
Y2-S2-170K23,1,146,AS,exp,49,↑,up,↑,0.8469090000726283,True,27,-1,0,12
Y2-S2-170K23,1,147,AS,exp,33,←,left,←,0.7900865999981761,True,27,-1,0,12
Y2-S2-170K23,1,148,AS,exp,40,↑,right,→,0.9253415998537093,False,27,-1,0,12
Y2-S2-170K23,1,149,AS,exp,45,↓,down,↓,0.9985713998321444,True,28,-1,0,12
Y2-S2-170K23,1,150,AS,exp,38,→,right,→,0.6545677999965847,True,28,-1,0,12
Y2-S2-170K23,1,151,AS,exp,50,←,left,←,1.935184400063008,True,28,1,1,13
Y2-S2-170K23,1,152,AS,exp,35,↑,right,→,1.9510903998743743,False,27,-1,1,14
Y2-S2-170K23,1,153,AS,exp,29,↓,down,↓,0.969727799994871,True,28,-1,0,14
Y2-S2-170K23,1,154,AS,exp,29,↑,right,→,1.087467199889943,False,28,-1,0,14
Y2-S2-170K23,1,155,AS,exp,27,↓,down,↓,0.7786878000479192,True,29,-1,0,14
Y2-S2-170K23,1,156,AS,exp,40,→,down,↓,1.2417101000901312,False,29,-1,0,14
Y2-S2-170K23,1,157,AS,exp,33,↓,down,↓,0.946738800033927,True,30,-1,0,14
Y2-S2-170K23,1,158,AS,exp,34,←,left,←,0.6812436000909656,True,30,-1,0,14
Y2-S2-170K23,1,159,AS,exp,38,↓,right,→,0.7421637000516057,False,30,-1,0,14
Y2-S2-170K23,1,160,AS,exp,26,→,right,→,0.768069899873808,True,31,-1,0,14
Y2-S2-170K23,1,161,AS,exp,44,←,left,←,0.5005755999591202,True,31,-1,0,14
Y2-S2-170K23,1,162,AS,exp,49,→,right,→,0.7820282999891788,True,31,1,1,15
Y2-S2-170K23,1,163,AS,exp,50,↑,up,↑,0.7510857000015676,True,30,1,0,15
Y2-S2-170K23,1,164,AS,exp,49,←,left,←,0.9034211998805404,True,30,1,0,15
Y2-S2-170K23,1,165,AS,exp,30,↑,up,↑,0.8586162999272346,True,30,1,0,15
Y2-S2-170K23,1,166,AS,exp,49,↓,down,↓,1.0508586999494582,True,29,1,0,15
Y2-S2-170K23,1,167,AS,exp,31,←,left,←,0.7629818001296371,True,29,1,0,15
Y2-S2-170K23,1,168,AS,exp,30,→,right,→,0.716721500037238,True,29,1,0,15
Y2-S2-170K23,1,169,AS,exp,42,↑,up,↑,0.833422499941662,True,28,1,0,15
Y2-S2-170K23,1,170,AS,exp,40,↓,down,↓,0.9898830999154598,True,28,1,0,15
Y2-S2-170K23,1,171,AS,exp,27,↑,up,↑,0.7867606000509113,True,28,1,0,15
Y2-S2-170K23,1,172,AS,exp,43,←,left,←,0.8630079000722617,True,27,1,0,15
Y2-S2-170K23,1,173,AS,exp,30,→,right,→,0.8110539000481367,True,27,1,0,15
Y2-S2-170K23,1,174,AS,exp,44,←,left,←,0.6531860998366028,True,27,1,0,15
Y2-S2-170K23,1,175,AS,exp,27,→,right,→,0.6580680999904871,True,26,1,0,15
Y2-S2-170K23,1,176,AS,exp,29,←,left,←,0.63422070001252,True,26,1,0,15
Y2-S2-170K23,1,177,AS,exp,36,↑,up,↑,0.6095801999326795,True,26,1,0,15
Y2-S2-170K23,1,178,AS,exp,28,←,left,←,0.9053555000573397,True,25,1,0,15
Y2-S2-170K23,1,179,AS,exp,42,↑,up,↑,0.6357933001127094,True,25,1,0,15
Y2-S2-170K23,1,180,AS,exp,44,←,right,→,0.6909893001429737,False,25,-1,1,16
Y2-S2-170K23,2,181,PS,intra_train,45,→,right,→,1.391388300107792,True,16,-,-,-
Y2-S2-170K23,2,182,PS,intra_train,40,↓,down,↓,0.6486007000785321,True,16,-,-,-
Y2-S2-170K23,2,183,PS,intra_train,38,→,right,→,0.6424489999189973,True,16,-,-,-
Y2-S2-170K23,2,184,PS,intra_train,41,↑,up,↑,0.72891839989461,True,16,-,-,-
Y2-S2-170K23,2,185,PS,intra_train,44,↓,left,←,0.40064299991354346,False,16,-,-,-
Y2-S2-170K23,2,186,PS,exp,47,↑,up,↑,0.5824294001795352,True,11,0,0,0
Y2-S2-170K23,2,187,PS,exp,31,→,right,→,0.5256610000506043,True,11,0,0,0
Y2-S2-170K23,2,188,PS,exp,37,↑,up,↑,0.6220557999331504,True,11,1,0,0
Y2-S2-170K23,2,189,PS,exp,30,←,left,←,0.6513429000042379,True,10,1,0,0
Y2-S2-170K23,2,190,PS,exp,44,→,right,→,0.49341299990192056,True,10,1,0,0
Y2-S2-170K23,2,191,PS,exp,50,←,left,←,0.574783899821341,True,10,1,0,0
Y2-S2-170K23,2,192,PS,exp,44,→,right,→,0.5725004998967052,True,9,1,0,0
Y2-S2-170K23,2,193,PS,exp,49,↑,up,↑,0.5541593998204917,True,9,1,0,0
Y2-S2-170K23,2,194,PS,exp,49,←,right,→,0.500928700203076,False,9,-1,1,1
Y2-S2-170K23,2,195,PS,exp,47,↓,down,↓,0.9022220000624657,True,10,-1,0,1
Y2-S2-170K23,2,196,PS,exp,43,←,left,←,0.5702021999750286,True,10,-1,0,1
Y2-S2-170K23,2,197,PS,exp,49,→,right,→,0.594503799919039,True,10,1,1,2
Y2-S2-170K23,2,198,PS,exp,45,↓,down,↓,0.8403037001844496,True,9,1,0,2
Y2-S2-170K23,2,199,PS,exp,29,←,up,↑,0.6226809998042881,False,9,-1,1,3
Y2-S2-170K23,2,200,PS,exp,43,↑,up,↑,0.6438095001503825,True,10,-1,0,3
Y2-S2-170K23,2,201,PS,exp,34,→,right,→,0.6111150998622179,True,10,-1,0,3
Y2-S2-170K23,2,202,PS,exp,33,↓,down,↓,0.781098699895665,True,10,1,1,4
Y2-S2-170K23,2,203,PS,exp,26,→,right,→,0.7973384999204427,True,9,1,0,4
Y2-S2-170K23,2,204,PS,exp,44,↑,down,↓,0.734093900071457,False,9,-1,1,5
Y2-S2-170K23,2,205,PS,exp,48,↓,down,↓,0.8637161001097411,True,10,-1,0,5
Y2-S2-170K23,2,206,PS,exp,45,↑,up,↑,0.690334599930793,True,10,-1,0,5
Y2-S2-170K23,2,207,PS,exp,33,←,left,←,0.5633375998586416,True,10,1,1,6
Y2-S2-170K23,2,208,PS,exp,45,↓,down,↓,0.8726594999898225,True,9,1,0,6
Y2-S2-170K23,2,209,PS,exp,37,→,down,↓,0.9994231997989118,False,9,-1,1,7
Y2-S2-170K23,2,210,PS,exp,31,←,left,←,0.5924243000335991,True,10,-1,0,7
Y2-S2-170K23,2,211,PS,exp,32,↑,up,↑,0.612171099986881,True,10,-1,0,7
Y2-S2-170K23,2,212,PS,exp,39,→,right,→,0.8092469000257552,True,10,1,1,8
Y2-S2-170K23,2,213,PS,exp,38,↑,left,←,0.9354530000127852,False,9,-1,1,9
Y2-S2-170K23,2,214,PS,exp,42,←,left,←,0.6323319000657648,True,10,-1,0,9
Y2-S2-170K23,2,215,PS,exp,46,↓,down,↓,0.9933446999639273,True,10,-1,0,9
Y2-S2-170K23,2,216,PS,exp,50,←,left,←,0.5336491998750716,True,10,1,1,10
Y2-S2-170K23,2,217,PS,exp,42,↑,down,↓,1.0203696000389755,False,9,-1,1,11
Y2-S2-170K23,2,218,PS,exp,46,→,right,→,0.5738065999466926,True,10,-1,0,11
Y2-S2-170K23,2,219,PS,exp,48,←,left,←,0.5706547000445426,True,10,-1,0,11
Y2-S2-170K23,2,220,PS,exp,33,↓,down,↓,0.8976576998829842,True,10,1,1,12
Y2-S2-170K23,2,221,PS,exp,37,←,left,←,0.6572897001169622,True,9,1,0,12
Y2-S2-170K23,2,222,PS,exp,40,→,left,←,0.7072644999716431,False,9,-1,1,13
Y2-S2-170K23,2,223,PS,exp,44,←,left,←,0.5915792998857796,True,10,-1,0,13
Y2-S2-170K23,2,224,PS,exp,42,→,right,→,0.6066203999798745,True,10,-1,0,13
Y2-S2-170K23,2,225,PS,exp,43,↓,down,↓,0.8976523000746965,True,10,1,1,14
Y2-S2-170K23,2,226,PS,exp,34,↑,up,↑,0.6365147000178695,True,9,1,0,14
Y2-S2-170K23,2,227,PS,exp,27,→,right,→,0.579508800059557,True,9,1,0,14
Y2-S2-170K23,2,228,PS,exp,26,↓,down,↓,1.0066154999658465,True,9,1,0,14
Y2-S2-170K23,2,229,PS,exp,29,→,right,→,0.5736354000400752,True,8,1,0,14
Y2-S2-170K23,2,230,PS,exp,49,↓,down,↓,0.8978168999310583,True,8,1,0,14
Y2-S2-170K23,2,231,PS,exp,36,←,left,←,0.7356847999617457,True,8,1,0,14
Y2-S2-170K23,2,232,PS,exp,49,↑,up,↑,0.6350691001862288,True,7,1,0,14
Y2-S2-170K23,2,233,PS,exp,34,→,right,→,0.5955305001698434,True,7,1,0,14
Y2-S2-170K23,2,234,PS,exp,37,↓,down,↓,0.7605572000611573,True,7,1,0,14
Y2-S2-170K23,2,235,PS,exp,48,←,right,→,0.4251469001173973,False,6,-1,1,15
Y2-S2-170K23,2,236,PS,exp,31,↓,down,↓,0.7125236999709159,True,7,-1,0,15
Y2-S2-170K23,2,237,PS,exp,46,↑,down,↓,0.7569944001734257,False,7,-1,0,15
Y2-S2-170K23,2,238,PS,exp,30,→,right,→,0.5884696000721306,True,8,-1,0,15
Y2-S2-170K23,2,239,PS,exp,45,←,left,←,0.6125572000164539,True,8,-1,0,15
Y2-S2-170K23,2,240,PS,exp,32,↓,down,↓,0.7589039001613855,True,8,1,1,16
Y2-S2-170K23,3,241,PS,intra_train,26,←,left,←,0.533088999800384,True,16,-,-,-
Y2-S2-170K23,3,242,PS,intra_train,28,↓,down,↓,0.6327430000528693,True,16,-,-,-
Y2-S2-170K23,3,243,PS,intra_train,50,←,left,←,0.5448900999035686,True,16,-,-,-
Y2-S2-170K23,3,244,PS,intra_train,29,→,right,→,0.519898199941963,True,16,-,-,-
Y2-S2-170K23,3,245,PS,intra_train,44,←,left,←,0.6730052998755127,True,16,-,-,-
Y2-S2-170K23,3,246,PS,exp,42,→,right,→,0.586014699889347,True,11,0,0,0
Y2-S2-170K23,3,247,PS,exp,28,↓,down,↓,0.682946200016886,True,11,0,0,0
Y2-S2-170K23,3,248,PS,exp,29,→,right,→,0.5226886000018567,True,11,1,0,0
Y2-S2-170K23,3,249,PS,exp,37,↓,down,↓,0.7164977001957595,True,10,1,0,0
Y2-S2-170K23,3,250,PS,exp,29,→,right,→,0.45168920001015067,True,10,1,0,0
Y2-S2-170K23,3,251,PS,exp,27,↓,down,↓,0.6784047998953611,True,10,1,0,0
Y2-S2-170K23,3,252,PS,exp,41,→,right,→,0.4868179000914097,True,9,1,0,0
Y2-S2-170K23,3,253,PS,exp,40,↑,up,↑,0.5983732999302447,True,9,1,0,0
Y2-S2-170K23,3,254,PS,exp,37,↓,up,↑,0.7276314999908209,False,9,-1,1,1
Y2-S2-170K23,3,255,PS,exp,46,↑,up,↑,0.5889396998099983,True,10,-1,0,1
Y2-S2-170K23,3,256,PS,exp,35,↓,right,→,0.6669298999477178,False,10,-1,0,1
Y2-S2-170K23,3,257,PS,exp,35,←,left,←,0.5700081998948008,True,11,-1,0,1
Y2-S2-170K23,3,258,PS,exp,29,→,right,→,0.5897109000943601,True,11,-1,0,1
Y2-S2-170K23,3,259,PS,exp,35,←,left,←,0.5019923998042941,True,11,1,1,2
Y2-S2-170K23,3,260,PS,exp,34,↑,up,↑,0.5909786000847816,True,10,1,0,2
Y2-S2-170K23,3,261,PS,exp,29,→,right,→,0.5916935000568628,True,10,1,0,2
Y2-S2-170K23,3,262,PS,exp,50,←,left,←,0.4693976000417024,True,10,1,0,2
Y2-S2-170K23,3,263,PS,exp,43,↓,down,↓,0.8891634000465274,True,9,1,0,2
Y2-S2-170K23,3,264,PS,exp,48,←,left,←,0.5734272000845522,True,9,1,0,2
Y2-S2-170K23,3,265,PS,exp,49,→,right,→,0.6464045001193881,True,9,1,0,2
Y2-S2-170K23,3,266,PS,exp,46,←,left,←,0.5137698999606073,True,8,1,0,2
Y2-S2-170K23,3,267,PS,exp,37,↑,up,↑,0.6747177999932319,True,8,1,0,2
Y2-S2-170K23,3,268,PS,exp,37,→,left,←,0.4982761999126524,False,8,-1,1,3
Y2-S2-170K23,3,269,PS,exp,27,↓,down,↓,0.7304086000658572,True,9,-1,0,3
Y2-S2-170K23,3,270,PS,exp,44,↑,up,↑,0.5540930000133812,True,9,-1,0,3
Y2-S2-170K23,3,271,PS,exp,31,→,right,→,0.5647885999642313,True,9,1,1,4
Y2-S2-170K23,3,272,PS,exp,42,↑,up,↑,0.5059176001232117,True,8,1,0,4
Y2-S2-170K23,3,273,PS,exp,34,←,left,←,0.5356452001724392,True,8,1,0,4
Y2-S2-170K23,3,274,PS,exp,26,↓,right,→,0.5186157000716776,False,8,-1,1,5
Y2-S2-170K23,3,275,PS,exp,34,↑,up,↑,0.690843400079757,True,9,-1,0,5
Y2-S2-170K23,3,276,PS,exp,36,↓,down,↓,0.7882450001779944,True,9,-1,0,5
Y2-S2-170K23,3,277,PS,exp,49,→,right,→,0.4945611001458019,True,9,1,1,6
Y2-S2-170K23,3,278,PS,exp,42,↓,down,↓,1.1065324998926371,True,8,1,0,6
Y2-S2-170K23,3,279,PS,exp,32,→,right,→,0.44053820008412004,True,8,1,0,6
Y2-S2-170K23,3,280,PS,exp,50,↓,down,↓,0.7427849001251161,True,8,1,0,6
Y2-S2-170K23,3,281,PS,exp,50,→,right,→,0.5017685999628156,True,7,1,0,6
Y2-S2-170K23,3,282,PS,exp,39,↑,down,↓,0.7703493000008166,False,7,-1,1,7
Y2-S2-170K23,3,283,PS,exp,39,→,down,↓,0.8321509000379592,False,8,-1,0,7
Y2-S2-170K23,3,284,PS,exp,25,↓,down,↓,0.8390534999780357,True,9,-1,0,7
Y2-S2-170K23,3,285,PS,exp,40,↑,up,↑,0.5708905998617411,True,9,-1,0,7
Y2-S2-170K23,3,286,PS,exp,42,↓,down,↓,0.6256085999775678,True,9,1,1,8
Y2-S2-170K23,3,287,PS,exp,25,↑,up,↑,0.6238188999705017,True,8,1,0,8
Y2-S2-170K23,3,288,PS,exp,26,→,right,→,0.49288869998417795,True,8,1,0,8
Y2-S2-170K23,3,289,PS,exp,45,←,left,←,0.5977140001486987,True,8,1,0,8
Y2-S2-170K23,3,290,PS,exp,50,↑,right,→,0.5279113000724465,False,7,-1,1,9
Y2-S2-170K23,3,291,PS,exp,34,↓,left,←,0.5889718001708388,False,8,-1,0,9
Y2-S2-170K23,3,292,PS,exp,26,→,right,→,1.2952233001124114,True,9,-1,0,9
Y2-S2-170K23,3,293,PS,exp,49,↑,left,←,0.3763125999830663,False,9,-1,0,9
Y2-S2-170K23,3,294,PS,exp,33,→,right,→,0.529960700077936,True,10,-1,0,9
Y2-S2-170K23,3,295,PS,exp,49,↓,up,↑,0.37600440019741654,False,10,-1,0,9
Y2-S2-170K23,3,296,PS,exp,45,←,left,←,0.6513841000851244,True,11,-1,0,9
Y2-S2-170K23,3,297,PS,exp,33,↓,down,↓,0.7621871000155807,True,11,-1,0,9
Y2-S2-170K23,3,298,PS,exp,41,←,left,←,0.6337021000217646,True,11,1,1,10
Y2-S2-170K23,3,299,PS,exp,26,→,left,←,0.6528886000160128,False,10,-1,1,11
Y2-S2-170K23,3,300,PS,exp,46,←,left,←,0.6490766999777406,True,11,-1,0,11
Y2-S2-170K23,3,301,PS,exp,50,↑,up,↑,0.5263133000116795,True,11,-1,0,11
Y2-S2-170K23,3,302,PS,exp,35,↓,down,↓,0.7893626999575645,True,11,1,1,12
Y2-S2-170K23,3,303,PS,exp,35,→,right,→,0.682861799839884,True,10,1,0,12
Y2-S2-170K23,3,304,PS,exp,42,↑,up,↑,0.5288851000368595,True,10,1,0,12
Y2-S2-170K23,3,305,PS,exp,39,→,right,→,0.5689054999966174,True,10,1,0,12
Y2-S2-170K23,3,306,PS,exp,38,↑,up,↑,0.6803914001211524,True,9,1,0,12
Y2-S2-170K23,3,307,PS,exp,42,→,right,→,0.48894249997101724,True,9,1,0,12
Y2-S2-170K23,3,308,PS,exp,39,↓,down,↓,0.7787432998884469,True,9,1,0,12
Y2-S2-170K23,3,309,PS,exp,31,←,left,←,0.6113218001555651,True,8,1,0,12
Y2-S2-170K23,3,310,PS,exp,43,↓,down,↓,0.7697686001192778,True,8,1,0,12
Y2-S2-170K23,3,311,PS,exp,47,↑,left,←,0.8270604000426829,False,8,-1,1,13
Y2-S2-170K23,3,312,PS,exp,34,←,left,←,0.5786494000349194,True,9,-1,0,13
Y2-S2-170K23,3,313,PS,exp,40,→,right,→,0.6052758002188057,True,9,-1,0,13
Y2-S2-170K23,3,314,PS,exp,28,←,left,←,0.5852408998180181,True,9,1,1,14
Y2-S2-170K23,3,315,PS,exp,44,→,right,→,0.5593973000068218,True,8,1,0,14
Y2-S2-170K23,3,316,PS,exp,30,↑,up,↑,0.6145124998874962,True,8,1,0,14
Y2-S2-170K23,3,317,PS,exp,38,←,left,←,0.5055442000739276,True,8,1,0,14
Y2-S2-170K23,3,318,PS,exp,31,→,right,→,0.5738815998192877,True,7,1,0,14
Y2-S2-170K23,3,319,PS,exp,48,↓,right,→,0.9031998000573367,False,7,-1,1,15
Y2-S2-170K23,3,320,PS,exp,40,→,right,→,0.6875070000533015,True,8,-1,0,15
Y2-S2-170K23,3,321,PS,exp,48,↓,down,↓,0.7519082999788225,True,8,-1,0,15
Y2-S2-170K23,3,322,PS,exp,30,↑,up,↑,0.6245862999930978,True,8,1,1,16
Y2-S2-170K23,4,323,AS,intra_train,41,→,right,→,0.7675017002038658,True,42,-,-,-
Y2-S2-170K23,4,324,AS,intra_train,40,↓,down,↓,0.9802172998897731,True,42,-,-,-
Y2-S2-170K23,4,325,AS,intra_train,26,←,left,←,0.7688631000928581,True,42,-,-,-
Y2-S2-170K23,4,326,AS,intra_train,49,↑,up,↑,0.7169827001634985,True,42,-,-,-
Y2-S2-170K23,4,327,AS,intra_train,41,←,left,←,0.8711858000606298,True,42,-,-,-
Y2-S2-170K23,4,328,AS,exp,47,↑,up,↑,0.8004983998835087,True,28,0,0,0
Y2-S2-170K23,4,329,AS,exp,30,↓,down,↓,0.9723567999899387,True,28,0,0,0
Y2-S2-170K23,4,330,AS,exp,29,←,left,←,0.6523653001058847,True,28,1,0,0
Y2-S2-170K23,4,331,AS,exp,26,→,right,→,0.6865964999888092,True,27,1,0,0
Y2-S2-170K23,4,332,AS,exp,25,↓,down,↓,1.0895948000252247,True,27,1,0,0
Y2-S2-170K23,4,333,AS,exp,39,↑,up,↑,0.996625600149855,True,27,1,0,0
Y2-S2-170K23,4,334,AS,exp,40,←,left,←,0.7550464000087231,True,26,1,0,0
Y2-S2-170K23,4,335,AS,exp,44,→,right,→,0.7314449001569301,True,26,1,0,0
Y2-S2-170K23,4,336,AS,exp,50,←,left,←,0.7950966998469085,True,26,1,0,0
Y2-S2-170K23,4,337,AS,exp,25,↑,up,↑,0.7131791999563575,True,25,1,0,0
Y2-S2-170K23,4,338,AS,exp,25,←,left,←,0.731691500172019,True,25,1,0,0
Y2-S2-170K23,4,339,AS,exp,43,→,right,→,0.6670872999820858,True,25,1,0,0
Y2-S2-170K23,4,340,AS,exp,39,↓,down,↓,1.023237699875608,True,24,1,0,0
Y2-S2-170K23,4,341,AS,exp,34,↑,up,↑,0.7728350998368114,True,24,1,0,0
Y2-S2-170K23,4,342,AS,exp,39,→,right,→,0.863142800051719,True,24,1,0,0
Y2-S2-170K23,4,343,AS,exp,39,↑,up,↑,0.9218441001139581,True,23,1,0,0
Y2-S2-170K23,4,344,AS,exp,41,↓,down,↓,0.9344023000448942,True,23,1,0,0
Y2-S2-170K23,4,345,AS,exp,32,→,right,→,0.7088563998695463,True,23,1,0,0
Y2-S2-170K23,4,346,AS,exp,49,↑,down,↓,0.9260744999628514,False,22,-1,1,1
Y2-S2-170K23,4,347,AS,exp,26,←,left,←,0.9109973998274654,True,23,-1,0,1
Y2-S2-170K23,4,348,AS,exp,25,→,right,→,0.7301625998225063,True,23,-1,0,1
Y2-S2-170K23,4,349,AS,exp,47,←,right,→,0.7661223001778126,False,23,-1,0,1
Y2-S2-170K23,4,350,AS,exp,27,→,right,→,0.7155389999970794,True,24,-1,0,1
Y2-S2-170K23,4,351,AS,exp,30,↓,down,↓,0.9161857001017779,True,24,-1,0,1
Y2-S2-170K23,4,352,AS,exp,44,↑,right,→,0.5870632000733167,False,24,-1,0,1
Y2-S2-170K23,4,353,AS,exp,44,↓,down,↓,0.963713200064376,True,25,-1,0,1
Y2-S2-170K23,4,354,AS,exp,48,→,right,→,0.873026299988851,True,25,-1,0,1
Y2-S2-170K23,4,355,AS,exp,28,←,left,←,0.7604286000132561,True,25,1,1,2
Y2-S2-170K23,4,356,AS,exp,46,↓,down,↓,1.299778499873355,True,24,1,0,2
Y2-S2-170K23,4,357,AS,exp,38,←,left,←,0.8394834999926388,True,24,1,0,2
Y2-S2-170K23,4,358,AS,exp,41,→,left,←,1.0221786999609321,False,24,-1,1,3
Y2-S2-170K23,4,359,AS,exp,34,↑,up,↑,1.0057197001297027,True,25,-1,0,3
Y2-S2-170K23,4,360,AS,exp,41,→,right,→,0.7987070998642594,True,25,-1,0,3
Y2-S2-170K23,4,361,AS,exp,36,↑,up,↑,0.7289334998931736,True,25,1,1,4
Y2-S2-170K23,4,362,AS,exp,41,←,left,←,0.9628162998706102,True,24,1,0,4
Y2-S2-170K23,4,363,AS,exp,29,→,right,→,0.7070548001211137,True,24,1,0,4
Y2-S2-170K23,4,364,AS,exp,47,↑,up,↑,0.6728257001377642,True,24,1,0,4
Y2-S2-170K23,4,365,AS,exp,41,→,right,→,0.7980516001116484,True,23,1,0,4
Y2-S2-170K23,4,366,AS,exp,39,↓,down,↓,0.9436311998870224,True,23,1,0,4
Y2-S2-170K23,4,367,AS,exp,27,←,left,←,0.596501599997282,True,23,1,0,4
Y2-S2-170K23,4,368,AS,exp,29,↑,up,↑,0.6135273000691086,True,22,1,0,4
Y2-S2-170K23,4,369,AS,exp,43,→,no_key,no_letter,-1.0,False,22,-1,1,5
Y2-S2-170K23,4,370,AS,exp,39,←,left,←,0.5525414999574423,True,23,-1,0,5
Y2-S2-170K23,4,371,AS,exp,38,↓,down,↓,0.7638220998924226,True,23,-1,0,5
Y2-S2-170K23,4,372,AS,exp,43,←,left,←,0.6882025999948382,True,23,1,1,6
Y2-S2-170K23,4,373,AS,exp,36,→,right,→,0.7457850999198854,True,22,1,0,6
Y2-S2-170K23,4,374,AS,exp,49,↓,down,↓,0.9562416998669505,True,22,1,0,6
Y2-S2-170K23,4,375,AS,exp,45,→,right,→,0.6648501998279244,True,22,1,0,6
Y2-S2-170K23,4,376,AS,exp,42,↓,down,↓,0.9022597000002861,True,21,1,0,6
Y2-S2-170K23,4,377,AS,exp,37,←,left,←,0.7836071001365781,True,21,1,0,6
Y2-S2-170K23,4,378,AS,exp,40,↓,down,↓,0.8161414000205696,True,21,1,0,6
Y2-S2-170K23,4,379,AS,exp,42,→,right,→,0.6167131999973208,True,20,1,0,6
Y2-S2-170K23,4,380,AS,exp,29,↑,up,↑,0.7724602001253515,True,20,1,0,6
Y2-S2-170K23,4,381,AS,exp,49,←,right,→,0.8023242000490427,False,20,-1,1,7
Y2-S2-170K23,4,382,AS,exp,27,→,right,→,0.9698598999530077,True,21,-1,0,7
Y2-S2-170K23,4,383,AS,exp,45,←,right,→,0.8519105000887066,False,21,-1,0,7
Y2-S2-170K23,4,384,AS,exp,44,↑,up,↑,0.7452781000174582,True,22,-1,0,7
Y2-S2-170K23,4,385,AS,exp,42,→,right,→,0.8317501998972148,True,22,-1,0,7
Y2-S2-170K23,4,386,AS,exp,38,←,left,←,0.7111530997790396,True,22,1,1,8
Y2-S2-170K23,4,387,AS,exp,32,↑,up,↑,0.7934239001479,True,21,1,0,8
Y2-S2-170K23,4,388,AS,exp,32,→,right,→,0.8176015999633819,True,21,1,0,8
Y2-S2-170K23,4,389,AS,exp,47,←,left,←,0.8013911000452936,True,21,1,0,8
Y2-S2-170K23,4,390,AS,exp,39,→,right,→,0.6825202000327408,True,20,1,0,8
Y2-S2-170K23,4,391,AS,exp,31,↑,up,↑,0.6248031000141054,True,20,1,0,8
Y2-S2-170K23,4,392,AS,exp,42,←,left,←,0.7569277000147849,True,20,1,0,8
Y2-S2-170K23,4,393,AS,exp,36,↑,up,↑,0.7535703999456018,True,19,1,0,8
Y2-S2-170K23,4,394,AS,exp,29,↓,up,↑,0.7064265999943018,False,19,-1,1,9
Y2-S2-170K23,4,395,AS,exp,34,←,left,←,0.8718480998650193,True,20,-1,0,9
Y2-S2-170K23,4,396,AS,exp,29,↓,down,↓,1.0976537999231368,True,20,-1,0,9
Y2-S2-170K23,4,397,AS,exp,27,←,left,←,0.7202705000527203,True,20,1,1,10
Y2-S2-170K23,4,398,AS,exp,35,↓,down,↓,0.8919546999968588,True,19,1,0,10
Y2-S2-170K23,4,399,AS,exp,50,→,right,→,0.709610200021416,True,19,1,0,10
Y2-S2-170K23,4,400,AS,exp,32,←,left,←,0.7609044001437724,True,19,1,0,10
Y2-S2-170K23,4,401,AS,exp,39,↑,down,↓,0.8587700999341905,False,18,-1,1,11
Y2-S2-170K23,4,402,AS,exp,36,←,left,←,0.7783111000899225,True,19,-1,0,11
Y2-S2-170K23,4,403,AS,exp,41,↓,down,↓,0.8268798000644892,True,19,-1,0,11
Y2-S2-170K23,4,404,AS,exp,47,←,left,←,0.7239081999287009,True,19,1,1,12
Y2-S2-170K23,4,405,AS,exp,36,→,right,→,0.633370199939236,True,18,1,0,12
Y2-S2-170K23,4,406,AS,exp,42,←,right,→,0.7767372999805957,False,18,-1,1,13
Y2-S2-170K23,4,407,AS,exp,49,↓,down,↓,0.9872652001213282,True,19,-1,0,13
Y2-S2-170K23,4,408,AS,exp,38,←,right,→,0.5792306000366807,False,19,-1,0,13
Y2-S2-170K23,4,409,AS,exp,37,↓,left,←,0.5453222000505775,False,20,-1,0,13
Y2-S2-170K23,4,410,AS,exp,30,↑,up,↑,0.5982770000118762,True,21,-1,0,13
Y2-S2-170K23,4,411,AS,exp,41,↓,down,↓,0.8319533001631498,True,21,-1,0,13
Y2-S2-170K23,4,412,AS,exp,45,←,left,←,0.7117947998922318,True,21,1,1,14
Y2-S2-170K23,4,413,AS,exp,43,↑,up,↑,1.0254739997908473,True,20,1,0,14
Y2-S2-170K23,4,414,AS,exp,34,←,left,←,0.6259023998863995,True,20,1,0,14
Y2-S2-170K23,4,415,AS,exp,32,→,right,→,0.6731894998811185,True,20,1,0,14
Y2-S2-170K23,4,416,AS,exp,34,↑,left,←,1.130879299947992,False,19,-1,1,15
Y2-S2-170K23,4,417,AS,exp,35,←,left,←,0.7731343999039382,True,20,-1,0,15
Y2-S2-170K23,4,418,AS,exp,33,↑,right,→,0.5798152000643313,False,20,-1,0,15
Y2-S2-170K23,4,419,AS,exp,25,↓,down,↓,0.9177113000769168,True,21,-1,0,15
Y2-S2-170K23,4,420,AS,exp,41,←,left,←,0.5634053000248969,True,21,-1,0,15
Y2-S2-170K23,4,421,AS,exp,37,↓,down,↓,0.8501871000044048,True,21,1,1,16
Y2-S2-170K23,5,422,AS,intra_train,49,→,right,→,0.7503503998741508,True,42,-,-,-
Y2-S2-170K23,5,423,AS,intra_train,37,↓,down,↓,0.8755807999987155,True,42,-,-,-
Y2-S2-170K23,5,424,AS,intra_train,38,↑,up,↑,0.818031599977985,True,42,-,-,-
Y2-S2-170K23,5,425,AS,intra_train,42,→,right,→,0.8340009001549333,True,42,-,-,-
Y2-S2-170K23,5,426,AS,intra_train,37,←,left,←,0.9261676999740303,True,42,-,-,-
Y2-S2-170K23,5,427,AS,exp,39,↑,up,↑,0.6417433999013156,True,28,0,0,0
Y2-S2-170K23,5,428,AS,exp,41,→,right,→,0.8508530000690371,True,28,0,0,0
Y2-S2-170K23,5,429,AS,exp,38,↓,down,↓,1.072861999971792,True,28,1,0,0
Y2-S2-170K23,5,430,AS,exp,38,←,left,←,0.8711369999218732,True,27,1,0,0
Y2-S2-170K23,5,431,AS,exp,50,↓,down,↓,1.0186741999350488,True,27,1,0,0
Y2-S2-170K23,5,432,AS,exp,28,→,right,→,0.7413498000241816,True,27,1,0,0
Y2-S2-170K23,5,433,AS,exp,26,↓,down,↓,0.9641404000576586,True,26,1,0,0
Y2-S2-170K23,5,434,AS,exp,48,←,left,←,0.8530670001637191,True,26,1,0,0
Y2-S2-170K23,5,435,AS,exp,32,↓,down,↓,0.9926066999323666,True,26,1,0,0
Y2-S2-170K23,5,436,AS,exp,27,→,right,→,0.8841838999651372,True,25,1,0,0
Y2-S2-170K23,5,437,AS,exp,49,↓,down,↓,0.9632270999718457,True,25,1,0,0
Y2-S2-170K23,5,438,AS,exp,46,→,up,↑,1.5747096999548376,False,25,-1,1,1
Y2-S2-170K23,5,439,AS,exp,36,↑,up,↑,0.9028239999897778,True,26,-1,0,1
Y2-S2-170K23,5,440,AS,exp,48,→,left,←,0.6614836999215186,False,26,-1,0,1
Y2-S2-170K23,5,441,AS,exp,45,←,left,←,0.7780363999772817,True,27,-1,0,1
Y2-S2-170K23,5,442,AS,exp,50,→,left,←,0.6230246999766678,False,27,-1,0,1
Y2-S2-170K23,5,443,AS,exp,44,↑,up,↑,0.7145690999459475,True,28,-1,0,1
Y2-S2-170K23,5,444,AS,exp,29,↓,down,↓,1.0192485998850316,True,28,-1,0,1
Y2-S2-170K23,5,445,AS,exp,49,↑,up,↑,0.7949013998731971,True,28,1,1,2
Y2-S2-170K23,5,446,AS,exp,49,←,left,←,0.6445355000905693,True,27,1,0,2
Y2-S2-170K23,5,447,AS,exp,35,↓,down,↓,0.7582304999232292,True,27,1,0,2
Y2-S2-170K23,5,448,AS,exp,43,↑,up,↑,0.6841516999993473,True,27,1,0,2
Y2-S2-170K23,5,449,AS,exp,41,→,right,→,0.5503312000073493,True,26,1,0,2
Y2-S2-170K23,5,450,AS,exp,46,←,left,←,0.6520422000903636,True,26,1,0,2
Y2-S2-170K23,5,451,AS,exp,27,↑,up,↑,0.6646656999364495,True,26,1,0,2
Y2-S2-170K23,5,452,AS,exp,30,→,right,→,1.518681799992919,True,25,1,0,2
Y2-S2-170K23,5,453,AS,exp,30,←,left,←,1.1704476000741124,True,25,1,0,2
Y2-S2-170K23,5,454,AS,exp,37,→,right,→,0.7573683999944478,True,25,1,0,2
Y2-S2-170K23,5,455,AS,exp,49,←,left,←,0.7483327998779714,True,24,1,0,2
Y2-S2-170K23,5,456,AS,exp,46,↑,up,↑,0.8369024000130594,True,24,1,0,2
Y2-S2-170K23,5,457,AS,exp,32,←,right,→,0.5775240999646485,False,24,-1,1,3
Y2-S2-170K23,5,458,AS,exp,32,↑,up,↑,0.6823905000928789,True,25,-1,0,3
Y2-S2-170K23,5,459,AS,exp,44,←,left,←,0.69349590013735,True,25,-1,0,3
Y2-S2-170K23,5,460,AS,exp,36,↑,up,↑,0.6814796000253409,True,25,1,1,4
Y2-S2-170K23,5,461,AS,exp,49,←,left,←,0.8786110000219196,True,24,1,0,4
Y2-S2-170K23,5,462,AS,exp,43,→,right,→,0.6311244999524206,True,24,1,0,4
Y2-S2-170K23,5,463,AS,exp,47,←,left,←,0.6207563998177648,True,24,1,0,4
Y2-S2-170K23,5,464,AS,exp,27,↓,down,↓,1.0076446998864412,True,23,1,0,4
Y2-S2-170K23,5,465,AS,exp,32,←,up,↑,0.9322127001360059,False,23,-1,1,5
Y2-S2-170K23,5,466,AS,exp,34,↑,up,↑,0.7825497000012547,True,24,-1,0,5
Y2-S2-170K23,5,467,AS,exp,45,←,left,←,0.7554017000366002,True,24,-1,0,5
Y2-S2-170K23,5,468,AS,exp,41,→,right,→,0.6198810997884721,True,24,1,1,6
Y2-S2-170K23,5,469,AS,exp,46,↓,down,↓,0.9751490000635386,True,23,1,0,6
Y2-S2-170K23,5,470,AS,exp,39,↑,up,↑,0.794465099927038,True,23,1,0,6
Y2-S2-170K23,5,471,AS,exp,28,→,right,→,0.6592590000946075,True,23,1,0,6
Y2-S2-170K23,5,472,AS,exp,29,↓,down,↓,0.8953370000235736,True,22,1,0,6
Y2-S2-170K23,5,473,AS,exp,44,↑,up,↑,1.3271578000858426,True,22,1,0,6
Y2-S2-170K23,5,474,AS,exp,38,→,left,←,1.495070300064981,False,22,-1,1,7
Y2-S2-170K23,5,475,AS,exp,36,↑,up,↑,0.9791739000938833,True,23,-1,0,7
Y2-S2-170K23,5,476,AS,exp,45,←,left,←,0.8950096999760717,True,23,-1,0,7
Y2-S2-170K23,5,477,AS,exp,41,↑,up,↑,0.7896527999546379,True,23,1,1,8
Y2-S2-170K23,5,478,AS,exp,39,↓,down,↓,1.0704083999153227,True,22,1,0,8
Y2-S2-170K23,5,479,AS,exp,48,←,left,←,0.8440811999607831,True,22,1,0,8
Y2-S2-170K23,5,480,AS,exp,36,→,right,→,0.7385593999642879,True,22,1,0,8
Y2-S2-170K23,5,481,AS,exp,43,←,left,←,0.8853240001481026,True,21,1,0,8
Y2-S2-170K23,5,482,AS,exp,35,↓,down,↓,0.8075105999596417,True,21,1,0,8
Y2-S2-170K23,5,483,AS,exp,36,→,right,→,0.8244290999136865,True,21,1,0,8
Y2-S2-170K23,5,484,AS,exp,32,↓,down,↓,0.9370663000736386,True,20,1,0,8
Y2-S2-170K23,5,485,AS,exp,48,←,up,↑,0.8864011000841856,False,20,-1,1,9
Y2-S2-170K23,5,486,AS,exp,48,→,right,→,0.6505032000131905,True,21,-1,0,9
Y2-S2-170K23,5,487,AS,exp,37,←,left,←,0.7207333000842482,True,21,-1,0,9
Y2-S2-170K23,5,488,AS,exp,39,↑,up,↑,0.7201654000673443,True,21,1,1,10
Y2-S2-170K23,5,489,AS,exp,40,←,left,←,0.9562013000249863,True,20,1,0,10
Y2-S2-170K23,5,490,AS,exp,47,↑,up,↑,0.8051307999994606,True,20,1,0,10
Y2-S2-170K23,5,491,AS,exp,46,←,left,←,0.7933323001489043,True,20,1,0,10
Y2-S2-170K23,5,492,AS,exp,37,→,right,→,0.6311949999071658,True,19,1,0,10
Y2-S2-170K23,5,493,AS,exp,34,↓,down,↓,1.0181605000980198,True,19,1,0,10
Y2-S2-170K23,5,494,AS,exp,39,→,right,→,0.7042953998316079,True,19,1,0,10
Y2-S2-170K23,5,495,AS,exp,47,←,right,→,1.0222325001377612,False,18,-1,1,11
Y2-S2-170K23,5,496,AS,exp,34,↑,right,→,0.6861221001017839,False,19,-1,0,11
Y2-S2-170K23,5,497,AS,exp,41,←,right,→,0.8857744000852108,False,20,-1,0,11
Y2-S2-170K23,5,498,AS,exp,49,↓,down,↓,0.8355198001954705,True,21,-1,0,11
Y2-S2-170K23,5,499,AS,exp,30,↑,down,↓,1.1602173999417573,False,21,-1,0,11
Y2-S2-170K23,5,500,AS,exp,45,→,left,←,0.6201959000900388,False,22,-1,0,11
Y2-S2-170K23,5,501,AS,exp,29,↑,up,↑,0.9639604000840336,True,23,-1,0,11
Y2-S2-170K23,5,502,AS,exp,37,→,right,→,0.8958851001225412,True,23,-1,0,11
Y2-S2-170K23,5,503,AS,exp,34,←,left,←,0.7646824999246746,True,23,1,1,12
Y2-S2-170K23,5,504,AS,exp,43,↑,up,↑,0.8813990999478847,True,22,1,0,12
Y2-S2-170K23,5,505,AS,exp,38,→,right,→,0.7456171000376344,True,22,1,0,12
Y2-S2-170K23,5,506,AS,exp,31,↓,down,↓,1.116585399955511,True,22,1,0,12
Y2-S2-170K23,5,507,AS,exp,32,↑,up,↑,0.6518548999447376,True,21,1,0,12
Y2-S2-170K23,5,508,AS,exp,26,→,right,→,0.6956837999168783,True,21,1,0,12
Y2-S2-170K23,5,509,AS,exp,46,↑,up,↑,0.7772637999150902,True,21,1,0,12
Y2-S2-170K23,5,510,AS,exp,49,←,left,←,0.8815945000387728,True,20,1,0,12
Y2-S2-170K23,5,511,AS,exp,25,↓,down,↓,1.101229300023988,True,20,1,0,12
Y2-S2-170K23,5,512,AS,exp,34,↑,up,↑,0.60363579983823,True,20,1,0,12
Y2-S2-170K23,5,513,AS,exp,44,→,right,→,0.8444881001487374,True,19,1,0,12
Y2-S2-170K23,5,514,AS,exp,47,↑,up,↑,0.7097271999809891,True,19,1,0,12
Y2-S2-170K23,5,515,AS,exp,42,←,left,←,0.7663487999234349,True,19,1,0,12
Y2-S2-170K23,5,516,AS,exp,44,→,right,→,0.5977588999085128,True,18,1,0,12
Y2-S2-170K23,5,517,AS,exp,50,←,right,→,0.7560554000083357,False,18,-1,1,13
Y2-S2-170K23,5,518,AS,exp,41,↑,up,↑,0.8046320998109877,True,19,-1,0,13
Y2-S2-170K23,5,519,AS,exp,45,←,right,→,0.9747719999868423,False,19,-1,0,13
Y2-S2-170K23,5,520,AS,exp,27,→,right,→,0.7559429001994431,True,20,-1,0,13
Y2-S2-170K23,5,521,AS,exp,39,↑,up,↑,0.9158002999611199,True,20,-1,0,13
Y2-S2-170K23,5,522,AS,exp,34,←,right,→,0.6189526999369264,False,20,-1,0,13
Y2-S2-170K23,5,523,AS,exp,38,→,right,→,0.6515711999963969,True,21,-1,0,13
Y2-S2-170K23,5,524,AS,exp,44,↑,up,↑,0.7889258998911828,True,21,-1,0,13
Y2-S2-170K23,5,525,AS,exp,42,↓,down,↓,1.0827391999773681,True,21,1,1,14
Y2-S2-170K23,5,526,AS,exp,40,↑,up,↑,0.7747007000725716,True,20,1,0,14
Y2-S2-170K23,5,527,AS,exp,44,↓,down,↓,0.8659662001300603,True,20,1,0,14
Y2-S2-170K23,5,528,AS,exp,34,→,right,→,0.8929597001988441,True,20,1,0,14
Y2-S2-170K23,5,529,AS,exp,46,↑,down,↓,0.9135664000641555,False,19,-1,1,15
Y2-S2-170K23,5,530,AS,exp,26,←,left,←,0.7441986999474466,True,20,-1,0,15
Y2-S2-170K23,5,531,AS,exp,41,↑,up,↑,0.590614799875766,True,20,-1,0,15
Y2-S2-170K23,5,532,AS,exp,32,→,right,→,0.7725933000911027,True,20,1,1,16
Y2-S2-170K23,6,533,PS,intra_train,35,↓,down,↓,0.713824300095439,True,16,-,-,-
Y2-S2-170K23,6,534,PS,intra_train,47,↑,up,↑,0.548065299866721,True,16,-,-,-
Y2-S2-170K23,6,535,PS,intra_train,34,↓,down,↓,0.6875579000916332,True,16,-,-,-
Y2-S2-170K23,6,536,PS,intra_train,43,↑,up,↑,0.5086574000306427,True,16,-,-,-
Y2-S2-170K23,6,537,PS,intra_train,48,→,right,→,0.5183536000549793,True,16,-,-,-
Y2-S2-170K23,6,538,PS,exp,30,↑,up,↑,0.4869166000280529,True,11,0,0,0
Y2-S2-170K23,6,539,PS,exp,48,←,left,←,0.5500084001105279,True,11,0,0,0
Y2-S2-170K23,6,540,PS,exp,33,→,right,→,0.5373522997833788,True,11,1,0,0
Y2-S2-170K23,6,541,PS,exp,33,↑,up,↑,0.47037200001068413,True,10,1,0,0
Y2-S2-170K23,6,542,PS,exp,25,←,left,←,0.5732106000650674,True,10,1,0,0
Y2-S2-170K23,6,543,PS,exp,39,↑,up,↑,0.4433838000986725,True,10,1,0,0
Y2-S2-170K23,6,544,PS,exp,48,←,left,←,0.7885306000243872,True,9,1,0,0
Y2-S2-170K23,6,545,PS,exp,43,↑,up,↑,0.49412969988770783,True,9,1,0,0
Y2-S2-170K23,6,546,PS,exp,37,↓,down,↓,0.651960999937728,True,9,1,0,0
Y2-S2-170K23,6,547,PS,exp,35,↑,left,←,0.7238179000560194,False,8,-1,1,1
Y2-S2-170K23,6,548,PS,exp,33,↓,down,↓,0.778437800006941,True,9,-1,0,1
Y2-S2-170K23,6,549,PS,exp,43,←,left,←,0.49998680013231933,True,9,-1,0,1
Y2-S2-170K23,6,550,PS,exp,31,↑,up,↑,0.5588129998650402,True,9,1,1,2
Y2-S2-170K23,6,551,PS,exp,48,←,left,←,0.6039024000056088,True,8,1,0,2
Y2-S2-170K23,6,552,PS,exp,43,↑,up,↑,0.5420605998951942,True,8,1,0,2
Y2-S2-170K23,6,553,PS,exp,42,→,right,→,0.6217437000013888,True,8,1,0,2
Y2-S2-170K23,6,554,PS,exp,39,←,up,↑,0.7266991999931633,False,7,-1,1,3
Y2-S2-170K23,6,555,PS,exp,37,↑,up,↑,0.5865237000398338,True,8,-1,0,3
Y2-S2-170K23,6,556,PS,exp,37,→,right,→,0.5956486000213772,True,8,-1,0,3
Y2-S2-170K23,6,557,PS,exp,27,↓,down,↓,0.7158370001707226,True,8,1,1,4
Y2-S2-170K23,6,558,PS,exp,27,↑,down,↓,1.0105306999757886,False,7,-1,1,5
Y2-S2-170K23,6,559,PS,exp,38,←,left,←,0.7314403001219034,True,8,-1,0,5
Y2-S2-170K23,6,560,PS,exp,41,↓,down,↓,0.6342654000036418,True,8,-1,0,5
Y2-S2-170K23,6,561,PS,exp,39,↑,down,↓,0.7535053000319749,False,8,-1,0,5
Y2-S2-170K23,6,562,PS,exp,36,→,right,→,0.6285853001754731,True,9,-1,0,5
Y2-S2-170K23,6,563,PS,exp,26,←,left,←,0.5780807000119239,True,9,-1,0,5
Y2-S2-170K23,6,564,PS,exp,25,→,right,→,0.5473569000605494,True,9,1,1,6
Y2-S2-170K23,6,565,PS,exp,47,↑,down,↓,0.7535972001496702,False,8,-1,1,7
Y2-S2-170K23,6,566,PS,exp,26,→,right,→,0.48031649994663894,True,9,-1,0,7
Y2-S2-170K23,6,567,PS,exp,39,←,right,→,0.5114051999989897,False,9,-1,0,7
Y2-S2-170K23,6,568,PS,exp,31,↑,left,←,0.5275002999696881,False,10,-1,0,7
Y2-S2-170K23,6,569,PS,exp,34,↓,down,↓,0.8669082000851631,True,11,-1,0,7
Y2-S2-170K23,6,570,PS,exp,38,↑,up,↑,0.5707299998030066,True,11,-1,0,7
Y2-S2-170K23,6,571,PS,exp,44,→,right,→,0.49246939993463457,True,11,1,1,8
Y2-S2-170K23,6,572,PS,exp,38,↓,down,↓,0.8194955999497324,True,10,1,0,8
Y2-S2-170K23,6,573,PS,exp,32,↑,right,→,0.5831408000085503,False,10,-1,1,9
Y2-S2-170K23,6,574,PS,exp,50,←,left,←,0.5842122999019921,True,11,-1,0,9
Y2-S2-170K23,6,575,PS,exp,50,↓,right,→,0.48352380003780127,False,11,-1,0,9
Y2-S2-170K23,6,576,PS,exp,30,↑,up,↑,0.8134786000009626,True,12,-1,0,9
Y2-S2-170K23,6,577,PS,exp,43,←,left,←,0.6381417999509722,True,12,-1,0,9
Y2-S2-170K23,6,578,PS,exp,39,↑,up,↑,0.5927651000674814,True,12,1,1,10
Y2-S2-170K23,6,579,PS,exp,50,→,right,→,0.6175239000003785,True,11,1,0,10
Y2-S2-170K23,6,580,PS,exp,49,←,left,←,0.5007742999587208,True,11,1,0,10
Y2-S2-170K23,6,581,PS,exp,48,↓,down,↓,0.7238652999512851,True,11,1,0,10
Y2-S2-170K23,6,582,PS,exp,48,↑,up,↑,0.7430652000475675,True,10,1,0,10
Y2-S2-170K23,6,583,PS,exp,46,↓,down,↓,0.6714595002122223,True,10,1,0,10
Y2-S2-170K23,6,584,PS,exp,39,↑,up,↑,0.5226671998389065,True,10,1,0,10
Y2-S2-170K23,6,585,PS,exp,42,←,left,←,0.4648496999870986,True,9,1,0,10
Y2-S2-170K23,6,586,PS,exp,50,↓,down,↓,0.7390354999806732,True,9,1,0,10
Y2-S2-170K23,6,587,PS,exp,42,→,right,→,0.563065700000152,True,9,1,0,10
Y2-S2-170K23,6,588,PS,exp,34,↑,up,↑,0.5857993999961764,True,8,1,0,10
Y2-S2-170K23,6,589,PS,exp,38,↓,down,↓,0.6900981001090258,True,8,1,0,10
Y2-S2-170K23,6,590,PS,exp,49,←,up,↑,0.8263835001271218,False,8,-1,1,11
Y2-S2-170K23,6,591,PS,exp,44,↓,down,↓,0.6656954002100974,True,9,-1,0,11
Y2-S2-170K23,6,592,PS,exp,33,←,left,←,0.5794333999510854,True,9,-1,0,11
Y2-S2-170K23,6,593,PS,exp,44,↓,down,↓,0.6888429000973701,True,9,1,1,12
Y2-S2-170K23,6,594,PS,exp,48,→,right,→,0.6144143000710756,True,8,1,0,12
Y2-S2-170K23,6,595,PS,exp,39,↓,left,←,1.0070352000184357,False,8,-1,1,13
Y2-S2-170K23,6,596,PS,exp,38,←,left,←,0.6038819998502731,True,9,-1,0,13
Y2-S2-170K23,6,597,PS,exp,42,↓,left,←,0.4717977000400424,False,9,-1,0,13
Y2-S2-170K23,6,598,PS,exp,41,←,left,←,0.5469047999940813,True,10,-1,0,13
Y2-S2-170K23,6,599,PS,exp,46,↓,left,←,0.6212910001631826,False,10,-1,0,13
Y2-S2-170K23,6,600,PS,exp,32,→,left,←,0.513101699994877,False,11,-1,0,13
Y2-S2-170K23,6,601,PS,exp,41,↓,down,↓,0.7259634002111852,True,12,-1,0,13
Y2-S2-170K23,6,602,PS,exp,30,←,left,←,0.4996121001895517,True,12,-1,0,13
Y2-S2-170K23,6,603,PS,exp,45,→,right,→,0.5386938999872655,True,12,1,1,14
Y2-S2-170K23,6,604,PS,exp,33,↓,right,→,0.546329999808222,False,11,-1,1,15
Y2-S2-170K23,6,605,PS,exp,45,↑,up,↑,0.5147029000800103,True,12,-1,0,15
Y2-S2-170K23,6,606,PS,exp,39,↓,right,→,0.6044944000896066,False,12,-1,0,15
Y2-S2-170K23,6,607,PS,exp,38,↑,up,↑,0.5340245000552386,True,13,-1,0,15
Y2-S2-170K23,6,608,PS,exp,50,←,left,←,0.6536331998649985,True,13,-1,0,15
Y2-S2-170K23,6,609,PS,exp,42,↑,up,↑,0.5569962998852134,True,13,1,1,16
Y2-S2-170K23,7,610,PS,intra_train,28,→,right,→,0.6002740000840276,True,16,-,-,-
Y2-S2-170K23,7,611,PS,intra_train,38,↓,down,↓,0.7033216999843717,True,16,-,-,-
Y2-S2-170K23,7,612,PS,intra_train,42,→,right,→,0.500293199904263,True,16,-,-,-
Y2-S2-170K23,7,613,PS,intra_train,49,↑,up,↑,0.5451558998320252,True,16,-,-,-
Y2-S2-170K23,7,614,PS,intra_train,34,↓,down,↓,0.7744451002217829,True,16,-,-,-
Y2-S2-170K23,7,615,PS,exp,49,→,right,→,0.4405082000885159,True,11,0,0,0
Y2-S2-170K23,7,616,PS,exp,26,↑,up,↑,0.5651611001230776,True,11,0,0,0
Y2-S2-170K23,7,617,PS,exp,42,→,right,→,0.39595290017314255,True,11,1,0,0
Y2-S2-170K23,7,618,PS,exp,42,↑,up,↑,0.5860175001434982,True,10,1,0,0
Y2-S2-170K23,7,619,PS,exp,40,←,right,→,0.42906720004975796,False,10,-1,1,1
Y2-S2-170K23,7,620,PS,exp,41,↓,down,↓,0.7729512001387775,True,11,-1,0,1
Y2-S2-170K23,7,621,PS,exp,41,↑,up,↑,0.6126587998587638,True,11,-1,0,1
Y2-S2-170K23,7,622,PS,exp,49,→,right,→,0.5143034001812339,True,11,1,1,2
Y2-S2-170K23,7,623,PS,exp,37,↓,down,↓,0.7198350001126528,True,10,1,0,2
Y2-S2-170K23,7,624,PS,exp,29,→,right,→,0.5241253999993205,True,10,1,0,2
Y2-S2-170K23,7,625,PS,exp,35,↑,up,↑,0.6665529999881983,True,10,1,0,2
Y2-S2-170K23,7,626,PS,exp,45,←,left,←,1.292981200153008,True,9,1,0,2
Y2-S2-170K23,7,627,PS,exp,42,→,right,→,0.5402865000069141,True,9,1,0,2
Y2-S2-170K23,7,628,PS,exp,47,←,right,→,0.547020599944517,False,9,-1,1,3
Y2-S2-170K23,7,629,PS,exp,49,↑,up,↑,0.6040811999700963,True,10,-1,0,3
Y2-S2-170K23,7,630,PS,exp,28,→,right,→,0.4586477999109775,True,10,-1,0,3
Y2-S2-170K23,7,631,PS,exp,32,↑,up,↑,0.6028953001368791,True,10,1,1,4
Y2-S2-170K23,7,632,PS,exp,47,→,right,→,0.6516191000118852,True,9,1,0,4
Y2-S2-170K23,7,633,PS,exp,41,↓,up,↑,0.7387790998909622,False,9,-1,1,5
Y2-S2-170K23,7,634,PS,exp,37,←,left,←,0.6768867000937462,True,10,-1,0,5
Y2-S2-170K23,7,635,PS,exp,29,→,right,→,0.5584672000259161,True,10,-1,0,5
Y2-S2-170K23,7,636,PS,exp,42,↑,down,↓,1.116651999996975,False,10,-1,0,5
Y2-S2-170K23,7,637,PS,exp,32,↓,down,↓,0.8012731000781059,True,11,-1,0,5
Y2-S2-170K23,7,638,PS,exp,37,←,left,←,0.5702840001322329,True,11,-1,0,5
Y2-S2-170K23,7,639,PS,exp,47,↓,down,↓,0.6844365000724792,True,11,1,1,6
Y2-S2-170K23,7,640,PS,exp,45,↑,down,↓,0.7442715000361204,False,10,-1,1,7
Y2-S2-170K23,7,641,PS,exp,49,←,left,←,0.5675550999585539,True,11,-1,0,7
Y2-S2-170K23,7,642,PS,exp,46,↓,down,↓,0.7516714001540095,True,11,-1,0,7
Y2-S2-170K23,7,643,PS,exp,25,→,right,→,0.7246620000805706,True,11,1,1,8
Y2-S2-170K23,7,644,PS,exp,27,↓,down,↓,0.6963096000254154,True,10,1,0,8
Y2-S2-170K23,7,645,PS,exp,26,↑,left,←,0.5997267998754978,False,10,-1,1,9
Y2-S2-170K23,7,646,PS,exp,31,↓,down,↓,0.6673391999211162,True,11,-1,0,9
Y2-S2-170K23,7,647,PS,exp,30,→,right,→,0.6650239999871701,True,11,-1,0,9
Y2-S2-170K23,7,648,PS,exp,37,↓,down,↓,0.7582227999810129,True,11,1,1,10
Y2-S2-170K23,7,649,PS,exp,42,→,right,→,0.6096548999194056,True,10,1,0,10
Y2-S2-170K23,7,650,PS,exp,31,↓,down,↓,0.6084156001452357,True,10,1,0,10
Y2-S2-170K23,7,651,PS,exp,26,→,right,→,0.5464310001116246,True,10,1,0,10
Y2-S2-170K23,7,652,PS,exp,40,↑,up,↑,1.0105013998690993,True,9,1,0,10
Y2-S2-170K23,7,653,PS,exp,50,→,right,→,0.9438736999873072,True,9,1,0,10
Y2-S2-170K23,7,654,PS,exp,27,↓,down,↓,0.7220691000111401,True,9,1,0,10
Y2-S2-170K23,7,655,PS,exp,25,↑,right,→,0.5862896000035107,False,8,-1,1,11
Y2-S2-170K23,7,656,PS,exp,32,→,right,→,0.6641518999822438,True,9,-1,0,11
Y2-S2-170K23,7,657,PS,exp,27,↓,down,↓,0.5734080998227,True,9,-1,0,11
Y2-S2-170K23,7,658,PS,exp,25,↑,up,↑,0.6763180000707507,True,9,1,1,12
Y2-S2-170K23,7,659,PS,exp,38,↓,down,↓,0.707852000137791,True,8,1,0,12
Y2-S2-170K23,7,660,PS,exp,50,↑,down,↓,0.7337414000649005,False,8,-1,1,13
Y2-S2-170K23,7,661,PS,exp,47,↓,down,↓,0.6823123001959175,True,9,-1,0,13
Y2-S2-170K23,7,662,PS,exp,26,↑,down,↓,0.6102544998284429,False,9,-1,0,13
Y2-S2-170K23,7,663,PS,exp,40,→,right,→,0.5312538000289351,True,10,-1,0,13
Y2-S2-170K23,7,664,PS,exp,35,↓,down,↓,0.6907013000454754,True,10,-1,0,13
Y2-S2-170K23,7,665,PS,exp,31,↑,up,↑,0.5246353999245912,True,10,1,1,14
Y2-S2-170K23,7,666,PS,exp,47,↓,right,→,0.5474519000854343,False,9,-1,1,15
Y2-S2-170K23,7,667,PS,exp,47,→,right,→,0.5003353001084179,True,10,-1,0,15
Y2-S2-170K23,7,668,PS,exp,46,↑,right,→,0.47391810012049973,False,10,-1,0,15
Y2-S2-170K23,7,669,PS,exp,40,←,right,→,0.5469724999275059,False,11,-1,0,15
Y2-S2-170K23,7,670,PS,exp,28,→,right,→,0.45425970014184713,True,12,-1,0,15
Y2-S2-170K23,7,671,PS,exp,47,↓,down,↓,0.702662399969995,True,12,-1,0,15
Y2-S2-170K23,7,672,PS,exp,29,→,right,→,0.4935657000169158,True,12,1,1,16
Y2-S2-170K23,8,673,AS,intra_train,38,↓,down,↓,1.0798705001361668,True,42,-,-,-
Y2-S2-170K23,8,674,AS,intra_train,32,←,right,→,0.7670656000263989,False,42,-,-,-
Y2-S2-170K23,8,675,AS,intra_train,26,↑,up,↑,0.9462989999447018,True,42,-,-,-
Y2-S2-170K23,8,676,AS,intra_train,36,←,left,←,0.6678156000562012,True,42,-,-,-
Y2-S2-170K23,8,677,AS,intra_train,50,↑,up,↑,1.0367213001009077,True,42,-,-,-
Y2-S2-170K23,8,678,AS,exp,26,→,left,←,0.7395671000704169,False,28,-1,0,0
Y2-S2-170K23,8,679,AS,exp,42,↑,up,↑,0.8063927998300642,True,29,-1,0,0
Y2-S2-170K23,8,680,AS,exp,28,→,right,→,0.9029047999065369,True,29,-1,0,0
Y2-S2-170K23,8,681,AS,exp,33,↑,up,↑,0.9055874000769109,True,29,1,1,1
Y2-S2-170K23,8,682,AS,exp,45,←,left,←,0.9397005999926478,True,28,1,0,1
Y2-S2-170K23,8,683,AS,exp,48,↑,up,↑,0.7562975001055747,True,28,1,0,1
Y2-S2-170K23,8,684,AS,exp,38,←,left,←,0.7301267001312226,True,28,1,0,1
Y2-S2-170K23,8,685,AS,exp,33,→,right,→,0.7167567999567837,True,27,1,0,1
Y2-S2-170K23,8,686,AS,exp,49,↑,up,↑,1.0305010001175106,True,27,1,0,1
Y2-S2-170K23,8,687,AS,exp,27,→,right,→,0.6945161998737603,True,27,1,0,1
Y2-S2-170K23,8,688,AS,exp,41,↑,up,↑,0.6864126999862492,True,26,1,0,1
Y2-S2-170K23,8,689,AS,exp,30,←,left,←,0.7319594000000507,True,26,1,0,1
Y2-S2-170K23,8,690,AS,exp,29,↑,up,↑,0.7084418998565525,True,26,1,0,1
Y2-S2-170K23,8,691,AS,exp,39,←,left,←,0.7787677000742406,True,25,1,0,1
Y2-S2-170K23,8,692,AS,exp,35,→,right,→,0.7340849000029266,True,25,1,0,1
Y2-S2-170K23,8,693,AS,exp,26,↑,up,↑,0.7933702000882477,True,25,1,0,1
Y2-S2-170K23,8,694,AS,exp,25,↓,up,↑,0.6485999000724405,False,24,-1,1,2
Y2-S2-170K23,8,695,AS,exp,37,←,left,←,0.7910456999670714,True,25,-1,0,2
Y2-S2-170K23,8,696,AS,exp,43,→,right,→,0.8432551000732929,True,25,-1,0,2
Y2-S2-170K23,8,697,AS,exp,36,←,left,←,0.7585067998152226,True,25,1,1,3
Y2-S2-170K23,8,698,AS,exp,45,↑,up,↑,0.7645558000076562,True,24,1,0,3
Y2-S2-170K23,8,699,AS,exp,37,→,right,→,0.7478593999985605,True,24,1,0,3
Y2-S2-170K23,8,700,AS,exp,33,←,left,←,0.6943653000053018,True,24,1,0,3
Y2-S2-170K23,8,701,AS,exp,36,↓,down,↓,1.1929983000736684,True,23,1,0,3
Y2-S2-170K23,8,702,AS,exp,43,→,right,→,0.5730713999364525,True,23,1,0,3
Y2-S2-170K23,8,703,AS,exp,40,↓,down,↓,0.9389933000784367,True,23,1,0,3
Y2-S2-170K23,8,704,AS,exp,31,←,right,→,0.8204616999719292,False,22,-1,1,4
Y2-S2-170K23,8,705,AS,exp,50,↑,up,↑,0.8186264000833035,True,23,-1,0,4
Y2-S2-170K23,8,706,AS,exp,45,↓,down,↓,0.9018672998063266,True,23,-1,0,4
Y2-S2-170K23,8,707,AS,exp,49,↑,up,↑,0.8764593000523746,True,23,1,1,5
Y2-S2-170K23,8,708,AS,exp,43,↓,down,↓,0.9226344998460263,True,22,1,0,5
Y2-S2-170K23,8,709,AS,exp,32,→,right,→,0.7327147999312729,True,22,1,0,5
Y2-S2-170K23,8,710,AS,exp,36,↓,down,↓,0.7222524001263082,True,22,1,0,5
Y2-S2-170K23,8,711,AS,exp,36,←,left,←,0.8248429999221116,True,21,1,0,5
Y2-S2-170K23,8,712,AS,exp,38,↑,up,↑,0.8700284999795258,True,21,1,0,5
Y2-S2-170K23,8,713,AS,exp,29,↓,down,↓,0.7687052001710981,True,21,1,0,5
Y2-S2-170K23,8,714,AS,exp,42,→,right,→,0.7219183999113739,True,20,1,0,5
Y2-S2-170K23,8,715,AS,exp,31,←,left,←,0.5708058001473546,True,20,1,0,5
Y2-S2-170K23,8,716,AS,exp,47,↑,up,↑,0.9081888999789953,True,20,1,0,5
Y2-S2-170K23,8,717,AS,exp,40,→,right,→,0.5541455999482423,True,19,1,0,5
Y2-S2-170K23,8,718,AS,exp,40,↓,down,↓,0.7196933999657631,True,19,1,0,5
Y2-S2-170K23,8,719,AS,exp,32,↑,up,↑,0.7898368998430669,True,19,1,0,5
Y2-S2-170K23,8,720,AS,exp,46,←,left,←,0.79836819996126,True,18,1,0,5
Y2-S2-170K23,8,721,AS,exp,42,↑,up,↑,0.9457362000830472,True,18,1,0,5
Y2-S2-170K23,8,722,AS,exp,44,→,right,→,0.5394393000751734,True,18,1,0,5
Y2-S2-170K23,8,723,AS,exp,48,↑,up,↑,0.9060725998133421,True,17,1,0,5
Y2-S2-170K23,8,724,AS,exp,33,←,right,→,0.7516844000201672,False,17,-1,1,6
Y2-S2-170K23,8,725,AS,exp,47,↓,down,↓,0.899587000021711,True,18,-1,0,6
Y2-S2-170K23,8,726,AS,exp,25,←,down,↓,0.6838273999746889,False,18,-1,0,6
Y2-S2-170K23,8,727,AS,exp,36,→,right,→,0.7374093998223543,True,19,-1,0,6
Y2-S2-170K23,8,728,AS,exp,39,↑,up,↑,0.721631099935621,True,19,-1,0,6
Y2-S2-170K23,8,729,AS,exp,45,↓,up,↑,0.9073399999178946,False,19,-1,0,6
Y2-S2-170K23,8,730,AS,exp,33,↑,up,↑,0.6985615999437869,True,20,-1,0,6
Y2-S2-170K23,8,731,AS,exp,42,↓,down,↓,0.9773614001460373,True,20,-1,0,6
Y2-S2-170K23,8,732,AS,exp,26,↑,up,↑,0.7876309999264777,True,20,1,1,7
Y2-S2-170K23,8,733,AS,exp,42,→,right,→,0.8162362999282777,True,19,1,0,7
Y2-S2-170K23,8,734,AS,exp,27,←,left,←,0.9287088999990374,True,19,1,0,7
Y2-S2-170K23,8,735,AS,exp,32,↓,down,↓,0.793030799832195,True,19,1,0,7
Y2-S2-170K23,8,736,AS,exp,39,↑,up,↑,0.8028100000228733,True,18,1,0,7
Y2-S2-170K23,8,737,AS,exp,39,↓,down,↓,0.909613800002262,True,18,1,0,7
Y2-S2-170K23,8,738,AS,exp,45,→,right,→,0.7296937999781221,True,18,1,0,7
Y2-S2-170K23,8,739,AS,exp,37,↑,up,↑,0.72660670010373,True,17,1,0,7
Y2-S2-170K23,8,740,AS,exp,47,→,right,→,0.6606816998682916,True,17,1,0,7
Y2-S2-170K23,8,741,AS,exp,38,↓,down,↓,0.952753399964422,True,17,1,0,7
Y2-S2-170K23,8,742,AS,exp,36,←,left,←,0.8403046000748873,True,16,1,0,7
Y2-S2-170K23,8,743,AS,exp,46,↑,right,→,0.7692603999748826,False,16,-1,1,8
Y2-S2-170K23,8,744,AS,exp,46,↓,down,↓,0.6778130000457168,True,17,-1,0,8
Y2-S2-170K23,8,745,AS,exp,49,←,left,←,0.6477270999457687,True,17,-1,0,8
Y2-S2-170K23,8,746,AS,exp,34,→,right,→,0.7458963999524713,True,17,1,1,9
Y2-S2-170K23,8,747,AS,exp,28,↓,down,↓,0.7564191999845207,True,16,1,0,9
Y2-S2-170K23,8,748,AS,exp,29,←,left,←,0.7141279000788927,True,16,1,0,9
Y2-S2-170K23,8,749,AS,exp,44,→,right,→,0.8058555000461638,True,16,1,0,9
Y2-S2-170K23,8,750,AS,exp,48,←,right,→,0.9181927999015898,False,15,-1,1,10
Y2-S2-170K23,8,751,AS,exp,42,→,left,←,0.7124648001044989,False,16,-1,0,10
Y2-S2-170K23,8,752,AS,exp,25,←,left,←,0.7916391999460757,True,17,-1,0,10
Y2-S2-170K23,8,753,AS,exp,46,→,right,→,0.6194511998910457,True,17,-1,0,10
Y2-S2-170K23,8,754,AS,exp,29,←,left,←,0.6209095001686364,True,17,1,1,11
Y2-S2-170K23,8,755,AS,exp,48,↑,up,↑,0.5590649000369012,True,16,1,0,11
Y2-S2-170K23,8,756,AS,exp,29,↓,down,↓,0.9688440000172704,True,16,1,0,11
Y2-S2-170K23,8,757,AS,exp,29,←,left,←,0.6313149000052363,True,16,1,0,11
Y2-S2-170K23,8,758,AS,exp,31,→,right,→,0.5600725000258535,True,15,1,0,11
Y2-S2-170K23,8,759,AS,exp,46,←,right,→,0.4818053999915719,False,15,-1,1,12
Y2-S2-170K23,8,760,AS,exp,48,→,right,→,0.8569960000459105,True,16,-1,0,12
Y2-S2-170K23,8,761,AS,exp,30,←,right,→,0.7219007001258433,False,16,-1,0,12
Y2-S2-170K23,8,762,AS,exp,39,↓,down,↓,0.8799516998697072,True,17,-1,0,12
Y2-S2-170K23,8,763,AS,exp,47,→,left,←,0.5520594001282007,False,17,-1,0,12
Y2-S2-170K23,8,764,AS,exp,38,←,left,←,0.7450653999112546,True,18,-1,0,12
Y2-S2-170K23,8,765,AS,exp,39,↑,down,↓,1.0152060000691563,False,18,-1,0,12
Y2-S2-170K23,8,766,AS,exp,29,←,left,←,0.6267623000312597,True,19,-1,0,12
Y2-S2-170K23,8,767,AS,exp,43,→,right,→,0.6501435998361558,True,19,-1,0,12
Y2-S2-170K23,8,768,AS,exp,49,↑,right,→,0.8228968000039458,False,19,-1,0,12
Y2-S2-170K23,8,769,AS,exp,39,←,right,→,0.6100425999611616,False,20,-1,0,12
Y2-S2-170K23,8,770,AS,exp,47,↑,up,↑,0.8316418000031263,True,21,-1,0,12
Y2-S2-170K23,8,771,AS,exp,41,←,left,←,0.7917518001049757,True,21,-1,0,12
Y2-S2-170K23,8,772,AS,exp,27,→,right,→,0.7006896999664605,True,21,1,1,13
Y2-S2-170K23,8,773,AS,exp,41,←,left,←,0.6771081001497805,True,20,1,0,13
Y2-S2-170K23,8,774,AS,exp,43,↓,down,↓,0.7725249000359327,True,20,1,0,13
Y2-S2-170K23,8,775,AS,exp,48,←,left,←,0.7025297998916358,True,20,1,0,13
Y2-S2-170K23,8,776,AS,exp,39,↑,up,↑,0.8298857999034226,True,19,1,0,13
Y2-S2-170K23,8,777,AS,exp,32,→,right,→,0.8124245000071824,True,19,1,0,13
Y2-S2-170K23,8,778,AS,exp,33,←,left,←,0.6643924999516457,True,19,1,0,13
Y2-S2-170K23,8,779,AS,exp,36,→,right,→,0.7193364000413567,True,18,1,0,13
Y2-S2-170K23,8,780,AS,exp,27,←,left,←,0.6774661999661475,True,18,1,0,13
Y2-S2-170K23,8,781,AS,exp,30,→,right,→,0.6784389999229461,True,18,1,0,13
Y2-S2-170K23,8,782,AS,exp,45,←,right,→,0.7502137999981642,False,17,-1,1,14
Y2-S2-170K23,8,783,AS,exp,45,↑,up,↑,0.8705297000706196,True,18,-1,0,14
Y2-S2-170K23,8,784,AS,exp,35,↓,down,↓,0.8861254001967609,True,18,-1,0,14
Y2-S2-170K23,8,785,AS,exp,29,↑,up,↑,0.6673423999454826,True,18,1,1,15
Y2-S2-170K23,8,786,AS,exp,30,↓,right,→,0.9219814999960363,False,17,-1,1,16
