PART_ID,Block_no,Trial_no,Block_type,Trial_type,CSI,Stim_letter,Key_pressed,letter_choose,Rt,Corr,Stimulus Time,Level,Reversal,Revs_count
Y2-S2-065K21,1,1,PS,train,32,→,right,→,1.840267499908805,True,30,-,-,-
Y2-S2-065K21,1,2,PS,train,30,↑,up,↑,1.4412434003315866,True,30,-,-,-
Y2-S2-065K21,1,3,PS,train,40,←,left,←,0.9032601001672447,True,30,-,-,-
Y2-S2-065K21,1,4,PS,train,50,→,right,→,0.7716431999579072,True,30,-,-,-
Y2-S2-065K21,1,5,PS,train,32,↑,up,↑,0.8312863996252418,True,30,-,-,-
Y2-S2-065K21,1,6,PS,train,42,←,left,←,0.725388600025326,True,30,-,-,-
Y2-S2-065K21,1,7,PS,train,47,↑,up,↑,0.6005787001922727,True,30,-,-,-
Y2-S2-065K21,1,8,PS,train,47,↓,down,↓,0.8803522000089288,True,30,-,-,-
Y2-S2-065K21,1,9,PS,train,44,←,left,←,0.7519229999743402,True,30,-,-,-
Y2-S2-065K21,1,10,PS,train,49,↑,up,↑,0.6171312001533806,True,30,-,-,-
Y2-S2-065K21,2,11,AS,train,48,→,right,→,0.8340574000030756,True,45,-,-,-
Y2-S2-065K21,2,12,AS,train,47,↑,up,↑,0.5178279997780919,True,45,-,-,-
Y2-S2-065K21,2,13,AS,train,31,→,right,→,0.5342243001796305,True,45,-,-,-
Y2-S2-065K21,2,14,AS,train,40,←,left,←,0.5340414000675082,True,45,-,-,-
Y2-S2-065K21,2,15,AS,train,50,↓,down,↓,0.9264143002219498,True,45,-,-,-
Y2-S2-065K21,2,16,AS,train,48,↑,up,↑,0.7176354001276195,True,45,-,-,-
Y2-S2-065K21,2,17,AS,train,37,←,left,←,0.5174500001594424,True,45,-,-,-
Y2-S2-065K21,2,18,AS,train,40,→,right,→,0.718036999925971,True,45,-,-,-
Y2-S2-065K21,2,19,AS,train,26,↓,down,↓,0.9627300002612174,True,45,-,-,-
Y2-S2-065K21,2,20,AS,train,35,→,right,→,0.7340529998764396,True,45,-,-,-
Y2-S2-065K21,-,21,PS,adaptive,31,←,down,↓,1.2470208001323044,False,10,-1,0,0
Y2-S2-065K21,-,22,PS,adaptive,46,→,right,→,0.5850868998095393,True,11,-1,0,0
Y2-S2-065K21,-,23,PS,adaptive,26,←,left,←,0.5420703999698162,True,11,-1,0,0
Y2-S2-065K21,-,24,PS,adaptive,46,↓,down,↓,0.7290989998728037,True,11,1,1,1
Y2-S2-065K21,-,25,PS,adaptive,50,←,left,←,0.5344336996786296,True,10,1,0,1
Y2-S2-065K21,-,26,PS,adaptive,25,→,right,→,0.4800150999799371,True,10,1,0,1
Y2-S2-065K21,-,27,PS,adaptive,44,↓,down,↓,0.7571748998016119,True,10,1,0,1
Y2-S2-065K21,-,28,PS,adaptive,37,↑,left,←,0.9297199998982251,False,9,-1,1,2
Y2-S2-065K21,-,29,PS,adaptive,44,→,down,↓,1.0082343998365104,False,10,-1,0,2
Y2-S2-065K21,-,30,PS,adaptive,48,↑,up,↑,0.5199233996681869,True,11,-1,0,2
Y2-S2-065K21,-,31,PS,adaptive,36,←,left,←,0.5550794000737369,True,11,-1,0,2
Y2-S2-065K21,-,32,PS,adaptive,29,↑,left,←,0.9679343001917005,False,11,-1,0,2
Y2-S2-065K21,-,33,PS,adaptive,40,←,left,←,0.5307080000638962,True,12,-1,0,2
Y2-S2-065K21,-,34,PS,adaptive,48,→,right,→,0.4977252995595336,True,12,-1,0,2
Y2-S2-065K21,-,35,PS,adaptive,34,←,left,←,0.5314993001520634,True,12,1,1,3
Y2-S2-065K21,-,36,PS,adaptive,46,↑,up,↑,0.5336822001263499,True,11,1,0,3
Y2-S2-065K21,-,37,PS,adaptive,36,↓,down,↓,0.6993172997608781,True,11,1,0,3
Y2-S2-065K21,-,38,PS,adaptive,35,→,left,←,0.6804573000408709,False,11,-1,1,4
Y2-S2-065K21,-,39,AS,adaptive,43,↑,up,↑,0.7076834999024868,True,20,0,0,0
Y2-S2-065K21,-,40,AS,adaptive,38,←,left,←,0.509354299865663,True,20,0,0,0
Y2-S2-065K21,-,41,AS,adaptive,28,↓,down,↓,0.7335016997531056,True,20,1,0,0
Y2-S2-065K21,-,42,AS,adaptive,31,←,left,←,0.7239010003395379,True,19,1,0,0
Y2-S2-065K21,-,43,AS,adaptive,26,↑,up,↑,0.5701386998407543,True,19,1,0,0
Y2-S2-065K21,-,44,AS,adaptive,26,←,left,←,0.6490484997630119,True,19,1,0,0
Y2-S2-065K21,-,45,AS,adaptive,33,↑,up,↑,0.7207936001941562,True,18,1,0,0
Y2-S2-065K21,-,46,AS,adaptive,25,←,left,←,0.7257203999906778,True,18,1,0,0
Y2-S2-065K21,-,47,AS,adaptive,50,→,right,→,0.9319076999090612,True,18,1,0,0
Y2-S2-065K21,-,48,AS,adaptive,30,↓,down,↓,0.682747199665755,True,17,1,0,0
Y2-S2-065K21,-,49,AS,adaptive,35,↑,up,↑,0.601361199747771,True,17,1,0,0
Y2-S2-065K21,-,50,AS,adaptive,49,↓,down,↓,0.7163121998310089,True,17,1,0,0
Y2-S2-065K21,-,51,AS,adaptive,46,↑,up,↑,0.7064376999624074,True,16,1,0,0
Y2-S2-065K21,-,52,AS,adaptive,37,↓,down,↓,0.833532300312072,True,16,1,0,0
Y2-S2-065K21,-,53,AS,adaptive,33,←,left,←,0.551225199829787,True,16,1,0,0
Y2-S2-065K21,-,54,AS,adaptive,31,↓,down,↓,0.7053117998875678,True,15,1,0,0
Y2-S2-065K21,-,55,AS,adaptive,38,↑,up,↑,0.5123906000517309,True,15,1,0,0
Y2-S2-065K21,-,56,AS,adaptive,47,→,down,↓,0.9239158998243511,False,15,-1,1,1
Y2-S2-065K21,-,57,AS,adaptive,39,←,left,←,0.6544060003943741,True,16,-1,0,1
Y2-S2-065K21,-,58,AS,adaptive,36,→,right,→,0.5891003999859095,True,16,-1,0,1
Y2-S2-065K21,-,59,AS,adaptive,40,↓,down,↓,0.6841613003052771,True,16,1,1,2
Y2-S2-065K21,-,60,AS,adaptive,32,→,right,→,0.7298387996852398,True,15,1,0,2
Y2-S2-065K21,-,61,AS,adaptive,29,←,left,←,0.7656900002621114,True,15,1,0,2
Y2-S2-065K21,-,62,AS,adaptive,48,↑,up,↑,0.5287440000101924,True,15,1,0,2
Y2-S2-065K21,-,63,AS,adaptive,50,←,left,←,0.6121570002287626,True,14,1,0,2
Y2-S2-065K21,-,64,AS,adaptive,41,↓,down,↓,0.6766699999570847,True,14,1,0,2
Y2-S2-065K21,-,65,AS,adaptive,32,↑,up,↑,0.5535099999979138,True,14,1,0,2
Y2-S2-065K21,-,66,AS,adaptive,45,←,left,←,0.8394248001277447,True,13,1,0,2
Y2-S2-065K21,-,67,AS,adaptive,49,↑,up,↑,0.5692958999425173,True,13,1,0,2
Y2-S2-065K21,-,68,AS,adaptive,39,→,right,→,0.49592179991304874,True,13,1,0,2
Y2-S2-065K21,-,69,AS,adaptive,39,←,left,←,0.7162004997953773,True,12,1,0,2
Y2-S2-065K21,-,70,AS,adaptive,43,↑,down,↓,0.8048616000451148,False,12,-1,1,3
Y2-S2-065K21,-,71,AS,adaptive,47,←,left,←,0.5199661003425717,True,13,-1,0,3
Y2-S2-065K21,-,72,AS,adaptive,25,↑,up,↑,0.6798316999338567,True,13,-1,0,3
Y2-S2-065K21,-,73,AS,adaptive,28,←,right,→,0.688856900203973,False,13,-1,0,3
Y2-S2-065K21,-,74,AS,adaptive,43,→,left,←,0.8880924000404775,False,14,-1,0,3
Y2-S2-065K21,-,75,AS,adaptive,46,↓,down,↓,0.7511559003032744,True,15,-1,0,3
Y2-S2-065K21,-,76,AS,adaptive,38,←,left,←,0.6763967000879347,True,15,-1,0,3
Y2-S2-065K21,-,77,AS,adaptive,48,→,right,→,0.5853746999055147,True,15,1,1,4
Y2-S2-065K21,1,78,PS,intra_train,38,↑,right,→,0.782455800101161,False,18,-,-,-
Y2-S2-065K21,1,79,PS,intra_train,36,↓,down,↓,0.7412941004149616,True,18,-,-,-
Y2-S2-065K21,1,80,PS,intra_train,33,↑,up,↑,0.4883987996727228,True,18,-,-,-
Y2-S2-065K21,1,81,PS,intra_train,43,↓,down,↓,0.6735495999455452,True,18,-,-,-
Y2-S2-065K21,1,82,PS,intra_train,39,→,right,→,0.6646422003395855,True,18,-,-,-
Y2-S2-065K21,1,83,PS,exp,30,←,left,←,0.5113349002785981,True,12,0,0,0
Y2-S2-065K21,1,84,PS,exp,40,↑,up,↑,0.7099270997568965,True,12,0,0,0
Y2-S2-065K21,1,85,PS,exp,31,↓,up,↑,1.1692344001494348,False,12,-1,0,0
Y2-S2-065K21,1,86,PS,exp,50,↑,up,↑,0.5908454000018537,True,13,-1,0,0
Y2-S2-065K21,1,87,PS,exp,30,→,right,→,0.707725599873811,True,13,-1,0,0
Y2-S2-065K21,1,88,PS,exp,38,↓,down,↓,0.6744357002899051,True,13,1,1,1
Y2-S2-065K21,1,89,PS,exp,29,↑,up,↑,0.5420340998098254,True,12,1,0,1
Y2-S2-065K21,1,90,PS,exp,39,↓,down,↓,0.8244715998880565,True,12,1,0,1
Y2-S2-065K21,1,91,PS,exp,46,→,right,→,0.8264720998704433,True,12,1,0,1
Y2-S2-065K21,1,92,PS,exp,46,↓,down,↓,0.6847613998688757,True,11,1,0,1
Y2-S2-065K21,1,93,PS,exp,27,←,right,→,0.5088510001078248,False,11,-1,1,2
Y2-S2-065K21,1,94,PS,exp,39,↑,left,←,0.6800025999546051,False,12,-1,0,2
Y2-S2-065K21,1,95,PS,exp,32,←,left,←,0.5067837997339666,True,13,-1,0,2
Y2-S2-065K21,1,96,PS,exp,29,↑,up,↑,0.43744410015642643,True,13,-1,0,2
Y2-S2-065K21,1,97,PS,exp,34,↓,up,↑,0.7868010997772217,False,13,-1,0,2
Y2-S2-065K21,1,98,PS,exp,50,↑,up,↑,0.48877020040526986,True,14,-1,0,2
Y2-S2-065K21,1,99,PS,exp,44,←,left,←,0.5697696004062891,True,14,-1,0,2
Y2-S2-065K21,1,100,PS,exp,27,↑,up,↑,0.834451099857688,True,14,1,1,3
Y2-S2-065K21,1,101,PS,exp,40,↓,down,↓,0.7067169998772442,True,13,1,0,3
Y2-S2-065K21,1,102,PS,exp,47,→,right,→,0.7494198000058532,True,13,1,0,3
Y2-S2-065K21,1,103,PS,exp,45,↓,down,↓,0.6018845001235604,True,13,1,0,3
Y2-S2-065K21,1,104,PS,exp,30,←,left,←,0.4877194999717176,True,12,1,0,3
Y2-S2-065K21,1,105,PS,exp,45,↓,left,←,0.710081699769944,False,12,-1,1,4
Y2-S2-065K21,1,106,PS,exp,37,→,right,→,1.0917891999706626,True,13,-1,0,4
Y2-S2-065K21,1,107,PS,exp,38,↓,down,↓,0.6390550998039544,True,13,-1,0,4
Y2-S2-065K21,1,108,PS,exp,45,↑,up,↑,0.5202721999958158,True,13,1,1,5
Y2-S2-065K21,1,109,PS,exp,38,→,right,→,0.7410880997776985,True,12,1,0,5
Y2-S2-065K21,1,110,PS,exp,44,↑,up,↑,0.5647154999896884,True,12,1,0,5
Y2-S2-065K21,1,111,PS,exp,28,←,left,←,0.49203020008280873,True,12,1,0,5
Y2-S2-065K21,1,112,PS,exp,37,↓,down,↓,1.1363050998188555,True,11,1,0,5
Y2-S2-065K21,1,113,PS,exp,38,↑,up,↑,0.4099691999144852,True,11,1,0,5
Y2-S2-065K21,1,114,PS,exp,35,→,left,←,0.7685936000198126,False,11,-1,1,6
Y2-S2-065K21,1,115,PS,exp,37,↑,up,↑,0.5182913998141885,True,12,-1,0,6
Y2-S2-065K21,1,116,PS,exp,25,↓,down,↓,0.7941894000396132,True,12,-1,0,6
Y2-S2-065K21,1,117,PS,exp,37,→,right,→,0.45686009991914034,True,12,1,1,7
Y2-S2-065K21,1,118,PS,exp,25,←,left,←,0.5188001999631524,True,11,1,0,7
Y2-S2-065K21,1,119,PS,exp,30,→,right,→,0.4718998996540904,True,11,1,0,7
Y2-S2-065K21,1,120,PS,exp,30,↓,down,↓,0.7726270002312958,True,11,1,0,7
Y2-S2-065K21,1,121,PS,exp,43,→,right,→,0.6836338001303375,True,10,1,0,7
Y2-S2-065K21,1,122,PS,exp,50,←,left,←,0.7501532002352178,True,10,1,0,7
Y2-S2-065K21,1,123,PS,exp,41,↑,down,↓,0.6969189997762442,False,10,-1,1,8
Y2-S2-065K21,1,124,PS,exp,30,↓,down,↓,0.9382007997483015,True,11,-1,0,8
Y2-S2-065K21,1,125,PS,exp,39,↑,up,↑,0.5205892999656498,True,11,-1,0,8
Y2-S2-065K21,1,126,PS,exp,28,→,right,→,0.49428610038012266,True,11,1,1,9
Y2-S2-065K21,1,127,PS,exp,25,↓,up,↑,1.0915152998641133,False,10,-1,1,10
Y2-S2-065K21,1,128,PS,exp,38,→,right,→,0.5268025998957455,True,11,-1,0,10
Y2-S2-065K21,1,129,PS,exp,30,←,left,←,0.5905907000415027,True,11,-1,0,10
Y2-S2-065K21,1,130,PS,exp,34,↓,down,↓,0.6413133000023663,True,11,1,1,11
Y2-S2-065K21,1,131,PS,exp,49,→,right,→,0.487657000310719,True,10,1,0,11
Y2-S2-065K21,1,132,PS,exp,34,↓,down,↓,0.5911757000721991,True,10,1,0,11
Y2-S2-065K21,1,133,PS,exp,45,→,right,→,0.5050920001231134,True,10,1,0,11
Y2-S2-065K21,1,134,PS,exp,42,←,left,←,0.5515943998470902,True,9,1,0,11
Y2-S2-065K21,1,135,PS,exp,36,↓,down,↓,0.5870074001140893,True,9,1,0,11
Y2-S2-065K21,1,136,PS,exp,38,→,right,→,0.5943698999471962,True,9,1,0,11
Y2-S2-065K21,1,137,PS,exp,50,↑,right,→,1.1386914001777768,False,8,-1,1,12
Y2-S2-065K21,1,138,PS,exp,47,→,right,→,0.40561720030382276,True,9,-1,0,12
Y2-S2-065K21,1,139,PS,exp,41,←,left,←,0.6145640998147428,True,9,-1,0,12
Y2-S2-065K21,1,140,PS,exp,33,↑,up,↑,0.49773399997502565,True,9,1,1,13
Y2-S2-065K21,1,141,PS,exp,38,↓,down,↓,0.5858041001483798,True,8,1,0,13
Y2-S2-065K21,1,142,PS,exp,37,→,right,→,0.5398134998977184,True,8,1,0,13
Y2-S2-065K21,1,143,PS,exp,50,↑,down,↓,1.0733676999807358,False,8,-1,1,14
Y2-S2-065K21,1,144,PS,exp,29,↓,right,→,0.6064830999821424,False,9,-1,0,14
Y2-S2-065K21,1,145,PS,exp,28,←,left,←,0.4525557002052665,True,10,-1,0,14
Y2-S2-065K21,1,146,PS,exp,26,↓,down,↓,0.5186864999122918,True,10,-1,0,14
Y2-S2-065K21,1,147,PS,exp,43,→,right,→,0.6338957999832928,True,10,1,1,15
Y2-S2-065K21,1,148,PS,exp,33,←,left,←,0.5725492998026311,True,9,1,0,15
Y2-S2-065K21,1,149,PS,exp,29,↓,down,↓,0.6135205002501607,True,9,1,0,15
Y2-S2-065K21,1,150,PS,exp,50,←,left,←,0.6220361003652215,True,9,1,0,15
Y2-S2-065K21,1,151,PS,exp,37,↑,down,↓,0.6952239996753633,False,8,-1,1,16
Y2-S2-065K21,2,152,AS,intra_train,32,←,left,←,0.5735804997384548,True,21,-,-,-
Y2-S2-065K21,2,153,AS,intra_train,46,↑,down,↓,1.0586045999079943,False,21,-,-,-
Y2-S2-065K21,2,154,AS,intra_train,35,←,left,←,0.7859477000311017,True,21,-,-,-
Y2-S2-065K21,2,155,AS,intra_train,47,↑,up,↑,0.6693984000012279,True,21,-,-,-
Y2-S2-065K21,2,156,AS,intra_train,32,←,left,←,0.5201460001990199,True,21,-,-,-
Y2-S2-065K21,2,157,AS,exp,33,→,right,→,0.704589799977839,True,14,0,0,0
Y2-S2-065K21,2,158,AS,exp,27,←,left,←,0.6722606997936964,True,14,0,0,0
Y2-S2-065K21,2,159,AS,exp,33,↓,down,↓,0.7095262999646366,True,14,1,0,0
Y2-S2-065K21,2,160,AS,exp,50,↑,up,↑,0.5416170000098646,True,13,1,0,0
Y2-S2-065K21,2,161,AS,exp,27,←,left,←,0.5577132999897003,True,13,1,0,0
Y2-S2-065K21,2,162,AS,exp,29,↓,down,↓,0.7147659002803266,True,13,1,0,0
Y2-S2-065K21,2,163,AS,exp,50,←,down,↓,0.7417969000525773,False,12,-1,1,1
Y2-S2-065K21,2,164,AS,exp,31,↓,right,→,1.1194410999305546,False,13,-1,0,1
Y2-S2-065K21,2,165,AS,exp,27,↑,up,↑,0.5555125996470451,True,14,-1,0,1
Y2-S2-065K21,2,166,AS,exp,29,→,right,→,0.7496556998230517,True,14,-1,0,1
Y2-S2-065K21,2,167,AS,exp,40,↑,up,↑,0.5201346999965608,True,14,1,1,2
Y2-S2-065K21,2,168,AS,exp,45,↓,down,↓,1.1058767000213265,True,13,1,0,2
Y2-S2-065K21,2,169,AS,exp,37,←,right,→,0.8492343998514116,False,13,-1,1,3
Y2-S2-065K21,2,170,AS,exp,42,↑,down,↓,0.9684751997701824,False,14,-1,0,3
Y2-S2-065K21,2,171,AS,exp,29,←,left,←,0.7412053998559713,True,15,-1,0,3
Y2-S2-065K21,2,172,AS,exp,34,→,right,→,0.512283000163734,True,15,-1,0,3
Y2-S2-065K21,2,173,AS,exp,48,←,left,←,0.5886043002828956,True,15,1,1,4
Y2-S2-065K21,2,174,AS,exp,50,↓,right,→,1.1332026002928615,False,14,-1,1,5
Y2-S2-065K21,2,175,AS,exp,44,←,left,←,0.5138184004463255,True,15,-1,0,5
Y2-S2-065K21,2,176,AS,exp,34,↓,down,↓,0.7070745998062193,True,15,-1,0,5
Y2-S2-065K21,2,177,AS,exp,37,←,left,←,0.6236577001400292,True,15,1,1,6
Y2-S2-065K21,2,178,AS,exp,34,→,right,→,0.6009931000880897,True,14,1,0,6
Y2-S2-065K21,2,179,AS,exp,34,←,left,←,0.6072210995480418,True,14,1,0,6
Y2-S2-065K21,2,180,AS,exp,28,↓,down,↓,0.7685811999253929,True,14,1,0,6
Y2-S2-065K21,2,181,AS,exp,33,↑,up,↑,0.603692399803549,True,13,1,0,6
Y2-S2-065K21,2,182,AS,exp,44,←,right,→,0.5752697000280023,False,13,-1,1,7
Y2-S2-065K21,2,183,AS,exp,31,↑,up,↑,0.5061612999998033,True,14,-1,0,7
Y2-S2-065K21,2,184,AS,exp,34,→,right,→,0.5925591997802258,True,14,-1,0,7
Y2-S2-065K21,2,185,AS,exp,35,↓,right,→,0.8696606000885367,False,14,-1,0,7
Y2-S2-065K21,2,186,AS,exp,45,→,right,→,0.5302585996687412,True,15,-1,0,7
Y2-S2-065K21,2,187,AS,exp,48,←,left,←,0.8050150997005403,True,15,-1,0,7
Y2-S2-065K21,2,188,AS,exp,26,↓,left,←,1.0581102999858558,False,15,-1,0,7
Y2-S2-065K21,2,189,AS,exp,27,↑,up,↑,0.5180891999043524,True,16,-1,0,7
Y2-S2-065K21,2,190,AS,exp,30,↓,right,→,1.10373630002141,False,16,-1,0,7
Y2-S2-065K21,2,191,AS,exp,47,←,left,←,0.6899438998661935,True,17,-1,0,7
Y2-S2-065K21,2,192,AS,exp,26,↓,down,↓,0.6496570999734104,True,17,-1,0,7
Y2-S2-065K21,2,193,AS,exp,42,←,left,←,0.6210851003415883,True,17,1,1,8
Y2-S2-065K21,2,194,AS,exp,38,→,right,→,0.5033168001100421,True,16,1,0,8
Y2-S2-065K21,2,195,AS,exp,36,←,left,←,0.686213199980557,True,16,1,0,8
Y2-S2-065K21,2,196,AS,exp,48,→,left,←,0.6492477003484964,False,16,-1,1,9
Y2-S2-065K21,2,197,AS,exp,50,←,left,←,0.5979468999430537,True,17,-1,0,9
Y2-S2-065K21,2,198,AS,exp,46,→,right,→,0.4619896998628974,True,17,-1,0,9
Y2-S2-065K21,2,199,AS,exp,46,↑,up,↑,0.7673923000693321,True,17,1,1,10
Y2-S2-065K21,2,200,AS,exp,48,←,left,←,0.40071170032024384,True,16,1,0,10
Y2-S2-065K21,2,201,AS,exp,32,↓,down,↓,0.7607076000422239,True,16,1,0,10
Y2-S2-065K21,2,202,AS,exp,38,↑,up,↑,0.43838459998369217,True,16,1,0,10
Y2-S2-065K21,2,203,AS,exp,40,↓,down,↓,0.5688851000741124,True,15,1,0,10
Y2-S2-065K21,2,204,AS,exp,36,←,left,←,0.7900912002660334,True,15,1,0,10
Y2-S2-065K21,2,205,AS,exp,32,↑,up,↑,0.541368099860847,True,15,1,0,10
Y2-S2-065K21,2,206,AS,exp,33,←,left,←,0.657761899754405,True,14,1,0,10
Y2-S2-065K21,2,207,AS,exp,33,↓,down,↓,0.6926975999958813,True,14,1,0,10
Y2-S2-065K21,2,208,AS,exp,28,←,left,←,0.7714847000315785,True,14,1,0,10
Y2-S2-065K21,2,209,AS,exp,42,→,left,←,0.6814640001393855,False,13,-1,1,11
Y2-S2-065K21,2,210,AS,exp,26,↑,up,↑,0.6405396000482142,True,14,-1,0,11
Y2-S2-065K21,2,211,AS,exp,40,→,right,→,0.6097976001910865,True,14,-1,0,11
Y2-S2-065K21,2,212,AS,exp,27,↓,down,↓,0.6481556999497116,True,14,1,1,12
Y2-S2-065K21,2,213,AS,exp,29,↑,up,↑,0.47866739984601736,True,13,1,0,12
Y2-S2-065K21,2,214,AS,exp,45,←,right,→,0.8232963001355529,False,13,-1,1,13
Y2-S2-065K21,2,215,AS,exp,40,↑,right,→,0.9632477997802198,False,14,-1,0,13
Y2-S2-065K21,2,216,AS,exp,27,←,left,←,0.48967629997059703,True,15,-1,0,13
Y2-S2-065K21,2,217,AS,exp,48,→,right,→,1.1536505999974906,True,15,-1,0,13
Y2-S2-065K21,2,218,AS,exp,48,↑,up,↑,0.5651978999376297,True,15,1,1,14
Y2-S2-065K21,2,219,AS,exp,27,←,left,←,0.7964172000065446,True,14,1,0,14
Y2-S2-065K21,2,220,AS,exp,49,↓,down,↓,0.6509894002228975,True,14,1,0,14
Y2-S2-065K21,2,221,AS,exp,49,↑,up,↑,0.5139383003115654,True,14,1,0,14
Y2-S2-065K21,2,222,AS,exp,27,←,left,←,0.6374474000185728,True,13,1,0,14
Y2-S2-065K21,2,223,AS,exp,34,↓,right,→,0.9293516003526747,False,13,-1,1,15
Y2-S2-065K21,2,224,AS,exp,35,↑,up,↑,0.8209328996017575,True,14,-1,0,15
Y2-S2-065K21,2,225,AS,exp,34,←,left,←,0.8539414000697434,True,14,-1,0,15
Y2-S2-065K21,2,226,AS,exp,41,↓,down,↓,0.6202962999232113,True,14,1,1,16
Y2-S2-065K21,3,227,AS,intra_train,26,↑,up,↑,0.613468199968338,True,21,-,-,-
Y2-S2-065K21,3,228,AS,intra_train,32,↓,down,↓,0.6632127002812922,True,21,-,-,-
Y2-S2-065K21,3,229,AS,intra_train,29,↑,up,↑,0.7693694001063704,True,21,-,-,-
Y2-S2-065K21,3,230,AS,intra_train,43,←,left,←,0.6031962996348739,True,21,-,-,-
Y2-S2-065K21,3,231,AS,intra_train,43,→,right,→,0.8013878995552659,True,21,-,-,-
Y2-S2-065K21,3,232,AS,exp,39,←,right,→,0.7051400998607278,False,14,-1,0,0
Y2-S2-065K21,3,233,AS,exp,35,↑,right,→,0.8807312999852002,False,15,-1,0,0
Y2-S2-065K21,3,234,AS,exp,26,→,right,→,0.7867940999567509,True,16,-1,0,0
Y2-S2-065K21,3,235,AS,exp,49,↓,down,↓,0.7353856000117958,True,16,-1,0,0
Y2-S2-065K21,3,236,AS,exp,32,↑,up,↑,0.7984469998627901,True,16,1,1,1
Y2-S2-065K21,3,237,AS,exp,48,↓,down,↓,0.793594699818641,True,15,1,0,1
Y2-S2-065K21,3,238,AS,exp,25,→,left,←,1.0264445999637246,False,15,-1,1,2
Y2-S2-065K21,3,239,AS,exp,43,↓,down,↓,0.7224476998671889,True,16,-1,0,2
Y2-S2-065K21,3,240,AS,exp,30,←,left,←,0.7920201001688838,True,16,-1,0,2
Y2-S2-065K21,3,241,AS,exp,50,↓,down,↓,0.6318780998699367,True,16,1,1,3
Y2-S2-065K21,3,242,AS,exp,25,→,right,→,1.0989380003884435,True,15,1,0,3
Y2-S2-065K21,3,243,AS,exp,26,←,left,←,0.5315563003532588,True,15,1,0,3
Y2-S2-065K21,3,244,AS,exp,50,→,right,→,0.5298037002794445,True,15,1,0,3
Y2-S2-065K21,3,245,AS,exp,25,←,right,→,0.7457082998007536,False,14,-1,1,4
Y2-S2-065K21,3,246,AS,exp,38,→,right,→,0.5676904995925725,True,15,-1,0,4
Y2-S2-065K21,3,247,AS,exp,46,↑,up,↑,0.8308737999759614,True,15,-1,0,4
Y2-S2-065K21,3,248,AS,exp,50,↓,down,↓,0.7758957999758422,True,15,1,1,5
Y2-S2-065K21,3,249,AS,exp,39,←,left,←,0.8594595999456942,True,14,1,0,5
Y2-S2-065K21,3,250,AS,exp,43,↓,down,↓,0.7533408999443054,True,14,1,0,5
Y2-S2-065K21,3,251,AS,exp,46,↑,up,↑,0.4478454003110528,True,14,1,0,5
Y2-S2-065K21,3,252,AS,exp,42,←,right,→,0.7327078999951482,False,13,-1,1,6
Y2-S2-065K21,3,253,AS,exp,33,→,left,←,0.8261179002001882,False,14,-1,0,6
Y2-S2-065K21,3,254,AS,exp,32,←,left,←,0.5757023999467492,True,15,-1,0,6
Y2-S2-065K21,3,255,AS,exp,40,→,right,→,0.599312299862504,True,15,-1,0,6
Y2-S2-065K21,3,256,AS,exp,38,↓,down,↓,0.8095937999896705,True,15,1,1,7
Y2-S2-065K21,3,257,AS,exp,47,→,right,→,0.7566263996995986,True,14,1,0,7
Y2-S2-065K21,3,258,AS,exp,46,←,left,←,0.7006023996509612,True,14,1,0,7
Y2-S2-065K21,3,259,AS,exp,40,→,right,→,0.7310494999401271,True,14,1,0,7
Y2-S2-065K21,3,260,AS,exp,48,←,left,←,0.9767431998625398,True,13,1,0,7
Y2-S2-065K21,3,261,AS,exp,39,→,right,→,1.0260683000087738,True,13,1,0,7
Y2-S2-065K21,3,262,AS,exp,28,←,left,←,0.6260612001642585,True,13,1,0,7
Y2-S2-065K21,3,263,AS,exp,26,→,left,←,0.6214245003648102,False,12,-1,1,8
Y2-S2-065K21,3,264,AS,exp,32,↓,right,→,1.431485699955374,False,13,-1,0,8
Y2-S2-065K21,3,265,AS,exp,50,→,right,→,0.5346566000953317,True,14,-1,0,8
Y2-S2-065K21,3,266,AS,exp,45,←,left,←,0.5675408998504281,True,14,-1,0,8
Y2-S2-065K21,3,267,AS,exp,42,→,left,←,0.5052550002001226,False,14,-1,0,8
Y2-S2-065K21,3,268,AS,exp,43,←,left,←,0.9577902001328766,True,15,-1,0,8
Y2-S2-065K21,3,269,AS,exp,30,↓,down,↓,0.8529404997825623,True,15,-1,0,8
Y2-S2-065K21,3,270,AS,exp,47,→,right,→,0.814926499966532,True,15,1,1,9
Y2-S2-065K21,3,271,AS,exp,39,↓,down,↓,0.6969061000272632,True,14,1,0,9
Y2-S2-065K21,3,272,AS,exp,38,↑,up,↑,0.4971079998649657,True,14,1,0,9
Y2-S2-065K21,3,273,AS,exp,39,→,left,←,0.607398500200361,False,14,-1,1,10
Y2-S2-065K21,3,274,AS,exp,36,↓,down,↓,0.6090839998796582,True,15,-1,0,10
Y2-S2-065K21,3,275,AS,exp,26,↑,up,↑,0.52326750010252,True,15,-1,0,10
Y2-S2-065K21,3,276,AS,exp,42,↓,down,↓,0.6192432995885611,True,15,1,1,11
Y2-S2-065K21,3,277,AS,exp,32,↑,up,↑,0.43263519974425435,True,14,1,0,11
Y2-S2-065K21,3,278,AS,exp,41,←,left,←,0.6534500997513533,True,14,1,0,11
Y2-S2-065K21,3,279,AS,exp,47,↓,down,↓,0.6502489000558853,True,14,1,0,11
Y2-S2-065K21,3,280,AS,exp,38,↑,up,↑,1.0774129997007549,True,13,1,0,11
Y2-S2-065K21,3,281,AS,exp,25,↓,down,↓,0.6623677001334727,True,13,1,0,11
Y2-S2-065K21,3,282,AS,exp,43,↑,up,↑,0.443934400100261,True,13,1,0,11
Y2-S2-065K21,3,283,AS,exp,43,→,left,←,0.7121826997026801,False,12,-1,1,12
Y2-S2-065K21,3,284,AS,exp,31,↑,up,↑,0.4239941998384893,True,13,-1,0,12
Y2-S2-065K21,3,285,AS,exp,28,→,right,→,0.7587049999274313,True,13,-1,0,12
Y2-S2-065K21,3,286,AS,exp,42,↑,left,←,1.4029081999324262,False,13,-1,0,12
Y2-S2-065K21,3,287,AS,exp,45,→,left,←,0.8497486999258399,False,14,-1,0,12
Y2-S2-065K21,3,288,AS,exp,45,↓,down,↓,0.5986445001326501,True,15,-1,0,12
Y2-S2-065K21,3,289,AS,exp,27,↑,down,↓,1.0089726001024246,False,15,-1,0,12
Y2-S2-065K21,3,290,AS,exp,27,→,left,←,0.9839689997024834,False,16,-1,0,12
Y2-S2-065K21,3,291,AS,exp,48,←,right,→,0.9229939999058843,False,17,-1,0,12
Y2-S2-065K21,3,292,AS,exp,36,→,right,→,0.43371939985081553,True,18,-1,0,12
Y2-S2-065K21,3,293,AS,exp,39,←,left,←,0.5237898998893797,True,18,-1,0,12
Y2-S2-065K21,3,294,AS,exp,25,→,right,→,0.6949539999477565,True,18,1,1,13
Y2-S2-065K21,3,295,AS,exp,28,↑,up,↑,0.9806626001372933,True,17,1,0,13
Y2-S2-065K21,3,296,AS,exp,32,→,right,→,0.7919089002534747,True,17,1,0,13
Y2-S2-065K21,3,297,AS,exp,31,↑,up,↑,0.5030046999454498,True,17,1,0,13
Y2-S2-065K21,3,298,AS,exp,43,→,right,→,0.730263099540025,True,16,1,0,13
Y2-S2-065K21,3,299,AS,exp,46,↓,down,↓,0.8291909000836313,True,16,1,0,13
Y2-S2-065K21,3,300,AS,exp,30,→,right,→,1.1031538997776806,True,16,1,0,13
Y2-S2-065K21,3,301,AS,exp,36,↓,down,↓,0.6178642003796995,True,15,1,0,13
Y2-S2-065K21,3,302,AS,exp,47,←,left,←,0.8710004999302328,True,15,1,0,13
Y2-S2-065K21,3,303,AS,exp,34,↓,down,↓,0.7459944002330303,True,15,1,0,13
Y2-S2-065K21,3,304,AS,exp,30,↑,up,↑,0.8584342999383807,True,14,1,0,13
Y2-S2-065K21,3,305,AS,exp,45,←,left,←,0.5364669999107718,True,14,1,0,13
Y2-S2-065K21,3,306,AS,exp,39,→,right,→,0.5901057999581099,True,14,1,0,13
Y2-S2-065K21,3,307,AS,exp,32,←,left,←,0.6916902000084519,True,13,1,0,13
Y2-S2-065K21,3,308,AS,exp,40,↓,down,↓,0.6656221998855472,True,13,1,0,13
Y2-S2-065K21,3,309,AS,exp,31,↑,up,↑,0.5556906997226179,True,13,1,0,13
Y2-S2-065K21,3,310,AS,exp,32,→,left,←,0.5888008996844292,False,12,-1,1,14
Y2-S2-065K21,3,311,AS,exp,38,←,left,←,0.5209944997914135,True,13,-1,0,14
Y2-S2-065K21,3,312,AS,exp,40,↑,up,↑,0.7088019996881485,True,13,-1,0,14
Y2-S2-065K21,3,313,AS,exp,30,↓,down,↓,0.8398384000174701,True,13,1,1,15
Y2-S2-065K21,3,314,AS,exp,29,←,left,←,0.4802002003416419,True,12,1,0,15
Y2-S2-065K21,3,315,AS,exp,41,↑,up,↑,0.6525364997796714,True,12,1,0,15
Y2-S2-065K21,3,316,AS,exp,47,↓,down,↓,0.6911247000098228,True,12,1,0,15
Y2-S2-065K21,3,317,AS,exp,32,↑,up,↑,0.5413068998605013,True,11,1,0,15
Y2-S2-065K21,3,318,AS,exp,33,→,right,→,1.021287600044161,True,11,1,0,15
Y2-S2-065K21,3,319,AS,exp,39,↓,down,↓,0.6930117001757026,True,11,1,0,15
Y2-S2-065K21,3,320,AS,exp,49,→,right,→,0.5225778999738395,True,10,1,0,15
Y2-S2-065K21,3,321,AS,exp,46,↓,down,↓,0.7377881999127567,True,10,1,0,15
Y2-S2-065K21,3,322,AS,exp,31,←,left,←,0.5299199000000954,True,10,1,0,15
Y2-S2-065K21,3,323,AS,exp,35,→,left,←,0.6392001998610795,False,9,-1,1,16
Y2-S2-065K21,4,324,PS,intra_train,29,↑,up,↑,0.5385286002419889,True,18,-,-,-
Y2-S2-065K21,4,325,PS,intra_train,48,↓,down,↓,0.6156891998834908,True,18,-,-,-
Y2-S2-065K21,4,326,PS,intra_train,48,←,left,←,0.5227986997924745,True,18,-,-,-
Y2-S2-065K21,4,327,PS,intra_train,29,↑,up,↑,1.19760060030967,True,18,-,-,-
Y2-S2-065K21,4,328,PS,intra_train,46,←,left,←,0.47819940000772476,True,18,-,-,-
Y2-S2-065K21,4,329,PS,exp,25,↓,right,→,0.6612149998545647,False,12,-1,0,0
Y2-S2-065K21,4,330,PS,exp,35,→,right,→,0.5019012000411749,True,13,-1,0,0
Y2-S2-065K21,4,331,PS,exp,46,←,left,←,0.6703312997706234,True,13,-1,0,0
Y2-S2-065K21,4,332,PS,exp,34,→,left,←,1.0565248997882009,False,13,-1,0,0
Y2-S2-065K21,4,333,PS,exp,47,←,right,→,0.5694982996210456,False,14,-1,0,0
Y2-S2-065K21,4,334,PS,exp,48,→,right,→,1.0675725997425616,True,15,-1,0,0
Y2-S2-065K21,4,335,PS,exp,36,←,left,←,0.5148444999940693,True,15,-1,0,0
Y2-S2-065K21,4,336,PS,exp,47,↓,left,←,0.9929402996785939,False,15,-1,0,0
Y2-S2-065K21,4,337,PS,exp,33,←,left,←,0.612306300085038,True,16,-1,0,0
Y2-S2-065K21,4,338,PS,exp,41,→,right,→,0.6892320001497865,True,16,-1,0,0
Y2-S2-065K21,4,339,PS,exp,38,↓,right,→,1.0377234001643956,False,16,-1,0,0
Y2-S2-065K21,4,340,PS,exp,49,→,right,→,0.4725383003242314,True,17,-1,0,0
Y2-S2-065K21,4,341,PS,exp,42,↓,left,←,0.6257809996604919,False,17,-1,0,0
Y2-S2-065K21,4,342,PS,exp,37,↑,up,↑,0.6941065997816622,True,18,-1,0,0
Y2-S2-065K21,4,343,PS,exp,32,→,right,→,0.70514029962942,True,18,-1,0,0
Y2-S2-065K21,4,344,PS,exp,45,↑,up,↑,0.6169312000274658,True,18,1,1,1
Y2-S2-065K21,4,345,PS,exp,44,→,left,←,0.9402585998177528,False,17,-1,1,2
Y2-S2-065K21,4,346,PS,exp,28,↓,down,↓,0.7187760001979768,True,18,-1,0,2
Y2-S2-065K21,4,347,PS,exp,28,↑,up,↑,0.7177369999699295,True,18,-1,0,2
Y2-S2-065K21,4,348,PS,exp,45,←,left,←,0.6065844004042447,True,18,1,1,3
Y2-S2-065K21,4,349,PS,exp,30,↓,up,↑,0.871070799883455,False,17,-1,1,4
Y2-S2-065K21,4,350,PS,exp,33,←,left,←,0.7701162998564541,True,18,-1,0,4
Y2-S2-065K21,4,351,PS,exp,28,↓,down,↓,0.9046143000014126,True,18,-1,0,4
Y2-S2-065K21,4,352,PS,exp,44,→,right,→,0.6184196998365223,True,18,1,1,5
Y2-S2-065K21,4,353,PS,exp,42,↓,left,←,0.8068396998569369,False,17,-1,1,6
Y2-S2-065K21,4,354,PS,exp,44,→,right,→,0.5443969997577369,True,18,-1,0,6
Y2-S2-065K21,4,355,PS,exp,28,↑,up,↑,0.5666221999563277,True,18,-1,0,6
Y2-S2-065K21,4,356,PS,exp,30,↓,down,↓,0.7427050000987947,True,18,1,1,7
Y2-S2-065K21,4,357,PS,exp,49,→,right,→,0.5102337999269366,True,17,1,0,7
Y2-S2-065K21,4,358,PS,exp,34,←,left,←,0.5854788003489375,True,17,1,0,7
Y2-S2-065K21,4,359,PS,exp,43,↑,up,↑,0.5575242997147143,True,17,1,0,7
Y2-S2-065K21,4,360,PS,exp,32,←,left,←,0.4795038001611829,True,16,1,0,7
Y2-S2-065K21,4,361,PS,exp,34,↑,up,↑,0.5384547002613544,True,16,1,0,7
Y2-S2-065K21,4,362,PS,exp,35,→,right,→,0.5014227000065148,True,16,1,0,7
Y2-S2-065K21,4,363,PS,exp,27,↑,up,↑,0.48876360012218356,True,15,1,0,7
Y2-S2-065K21,4,364,PS,exp,26,↓,down,↓,0.6121954000554979,True,15,1,0,7
Y2-S2-065K21,4,365,PS,exp,27,↑,up,↑,0.5761287002824247,True,15,1,0,7
Y2-S2-065K21,4,366,PS,exp,27,↓,down,↓,0.5778104001656175,True,14,1,0,7
Y2-S2-065K21,4,367,PS,exp,32,→,right,→,0.45083869993686676,True,14,1,0,7
Y2-S2-065K21,4,368,PS,exp,29,↓,down,↓,0.6638056999072433,True,14,1,0,7
Y2-S2-065K21,4,369,PS,exp,42,↑,up,↑,0.4232200998812914,True,13,1,0,7
Y2-S2-065K21,4,370,PS,exp,29,→,right,→,0.5825501000508666,True,13,1,0,7
Y2-S2-065K21,4,371,PS,exp,45,↓,down,↓,0.6385914999991655,True,13,1,0,7
Y2-S2-065K21,4,372,PS,exp,29,↑,up,↑,0.5053247003816068,True,12,1,0,7
Y2-S2-065K21,4,373,PS,exp,38,→,right,→,0.5361977997235954,True,12,1,0,7
Y2-S2-065K21,4,374,PS,exp,28,←,left,←,0.5231833998113871,True,12,1,0,7
Y2-S2-065K21,4,375,PS,exp,30,↑,up,↑,0.5158742000348866,True,11,1,0,7
Y2-S2-065K21,4,376,PS,exp,45,↓,down,↓,0.6947757001034915,True,11,1,0,7
Y2-S2-065K21,4,377,PS,exp,29,→,right,→,0.45601020008325577,True,11,1,0,7
Y2-S2-065K21,4,378,PS,exp,41,↑,down,↓,0.7547145998105407,False,10,-1,1,8
Y2-S2-065K21,4,379,PS,exp,41,↓,down,↓,0.5282837999984622,True,11,-1,0,8
Y2-S2-065K21,4,380,PS,exp,38,↑,left,←,1.0582743999548256,False,11,-1,0,8
Y2-S2-065K21,4,381,PS,exp,25,→,left,←,0.8096588999032974,False,12,-1,0,8
Y2-S2-065K21,4,382,PS,exp,38,↑,up,↑,0.5448814001865685,True,13,-1,0,8
Y2-S2-065K21,4,383,PS,exp,34,↓,down,↓,0.6129689002409577,True,13,-1,0,8
Y2-S2-065K21,4,384,PS,exp,37,←,right,→,0.7340967999771237,False,13,-1,0,8
Y2-S2-065K21,4,385,PS,exp,45,↑,up,↑,0.6690831002779305,True,14,-1,0,8
Y2-S2-065K21,4,386,PS,exp,50,↓,right,→,0.8019900000654161,False,14,-1,0,8
Y2-S2-065K21,4,387,PS,exp,50,↑,up,↑,0.5181751996278763,True,15,-1,0,8
Y2-S2-065K21,4,388,PS,exp,44,→,right,→,0.6784060001373291,True,15,-1,0,8
Y2-S2-065K21,4,389,PS,exp,27,↓,down,↓,0.7350133000873029,True,15,1,1,9
Y2-S2-065K21,4,390,PS,exp,40,↑,up,↑,0.4889057003892958,True,14,1,0,9
Y2-S2-065K21,4,391,PS,exp,47,↓,down,↓,0.566175099927932,True,14,1,0,9
Y2-S2-065K21,4,392,PS,exp,32,←,up,↑,0.4682114003226161,False,14,-1,1,10
Y2-S2-065K21,4,393,PS,exp,31,→,right,→,0.5481246002018452,True,15,-1,0,10
Y2-S2-065K21,4,394,PS,exp,47,↓,down,↓,0.5953694996424019,True,15,-1,0,10
Y2-S2-065K21,4,395,PS,exp,49,→,right,→,0.5437337998300791,True,15,1,1,11
Y2-S2-065K21,4,396,PS,exp,29,↓,down,↓,0.6503844000399113,True,14,1,0,11
Y2-S2-065K21,4,397,PS,exp,43,←,left,←,0.47096799965947866,True,14,1,0,11
Y2-S2-065K21,4,398,PS,exp,44,↓,down,↓,0.6050726999528706,True,14,1,0,11
Y2-S2-065K21,4,399,PS,exp,49,→,right,→,0.46690519992262125,True,13,1,0,11
Y2-S2-065K21,4,400,PS,exp,31,↓,down,↓,0.5214039999991655,True,13,1,0,11
Y2-S2-065K21,4,401,PS,exp,37,↑,up,↑,0.6891036001034081,True,13,1,0,11
Y2-S2-065K21,4,402,PS,exp,46,←,left,←,0.4780654003843665,True,12,1,0,11
Y2-S2-065K21,4,403,PS,exp,47,↑,up,↑,0.4549886998720467,True,12,1,0,11
Y2-S2-065K21,4,404,PS,exp,27,→,right,→,0.4550433000549674,True,12,1,0,11
Y2-S2-065K21,4,405,PS,exp,27,←,left,←,0.5159306996501982,True,11,1,0,11
Y2-S2-065K21,4,406,PS,exp,39,↓,down,↓,0.6247827000916004,True,11,1,0,11
Y2-S2-065K21,4,407,PS,exp,28,←,left,←,0.6075499998405576,True,11,1,0,11
Y2-S2-065K21,4,408,PS,exp,44,→,right,→,0.44661949994042516,True,10,1,0,11
Y2-S2-065K21,4,409,PS,exp,36,↓,left,←,1.176980399992317,False,10,-1,1,12
Y2-S2-065K21,4,410,PS,exp,31,↑,up,↑,0.4566286997869611,True,11,-1,0,12
Y2-S2-065K21,4,411,PS,exp,28,↓,down,↓,0.69027219992131,True,11,-1,0,12
Y2-S2-065K21,4,412,PS,exp,26,→,right,→,0.9133025999180973,True,11,1,1,13
Y2-S2-065K21,4,413,PS,exp,35,↓,down,↓,0.5406055999919772,True,10,1,0,13
Y2-S2-065K21,4,414,PS,exp,47,↑,up,↑,0.5871760002337396,True,10,1,0,13
Y2-S2-065K21,4,415,PS,exp,34,←,down,↓,0.7494521997869015,False,10,-1,1,14
Y2-S2-065K21,4,416,PS,exp,32,→,left,←,0.9956165002658963,False,11,-1,0,14
Y2-S2-065K21,4,417,PS,exp,28,←,left,←,0.7728780996985734,True,12,-1,0,14
Y2-S2-065K21,4,418,PS,exp,43,→,left,←,1.0449532000347972,False,12,-1,0,14
Y2-S2-065K21,4,419,PS,exp,28,↑,up,↑,0.5119771999306977,True,13,-1,0,14
Y2-S2-065K21,4,420,PS,exp,27,→,right,→,0.614926400128752,True,13,-1,0,14
Y2-S2-065K21,4,421,PS,exp,46,↑,up,↑,0.4931176998652518,True,13,1,1,15
Y2-S2-065K21,4,422,PS,exp,36,←,left,←,1.346828700043261,True,12,1,0,15
Y2-S2-065K21,4,423,PS,exp,41,→,right,→,0.4745622999034822,True,12,1,0,15
Y2-S2-065K21,4,424,PS,exp,32,↑,up,↑,0.5440504997968674,True,12,1,0,15
Y2-S2-065K21,4,425,PS,exp,44,→,right,→,0.4963601999916136,True,11,1,0,15
Y2-S2-065K21,4,426,PS,exp,50,↓,down,↓,0.7049429998733103,True,11,1,0,15
Y2-S2-065K21,4,427,PS,exp,43,→,right,→,0.5707930000498891,True,11,1,0,15
Y2-S2-065K21,4,428,PS,exp,30,↓,down,↓,0.7650970001704991,True,10,1,0,15
Y2-S2-065K21,4,429,PS,exp,34,→,right,→,0.5920079001225531,True,10,1,0,15
Y2-S2-065K21,4,430,PS,exp,49,↓,down,↓,0.6132403002120554,True,10,1,0,15
Y2-S2-065K21,4,431,PS,exp,35,←,left,←,0.5317386998794973,True,9,1,0,15
Y2-S2-065K21,4,432,PS,exp,31,→,down,↓,1.0867834999226034,False,9,-1,1,16
Y2-S2-065K21,5,433,PS,intra_train,40,↓,down,↓,0.6120501002296805,True,18,-,-,-
Y2-S2-065K21,5,434,PS,intra_train,38,←,left,←,0.5966778001748025,True,18,-,-,-
Y2-S2-065K21,5,435,PS,intra_train,30,↓,left,←,0.6853013997897506,False,18,-,-,-
Y2-S2-065K21,5,436,PS,intra_train,49,→,right,→,1.007600300014019,True,18,-,-,-
Y2-S2-065K21,5,437,PS,intra_train,39,↓,down,↓,0.5853430000133812,True,18,-,-,-
Y2-S2-065K21,5,438,PS,exp,39,↑,up,↑,0.47768429992720485,True,12,0,0,0
Y2-S2-065K21,5,439,PS,exp,47,→,right,→,0.5539836999960244,True,12,0,0,0
Y2-S2-065K21,5,440,PS,exp,40,↓,down,↓,0.6446324000135064,True,12,1,0,0
Y2-S2-065K21,5,441,PS,exp,41,←,left,←,0.6002527996897697,True,11,1,0,0
Y2-S2-065K21,5,442,PS,exp,41,↓,down,↓,0.5581501997075975,True,11,1,0,0
Y2-S2-065K21,5,443,PS,exp,40,↑,down,↓,0.7286781999282539,False,11,-1,1,1
Y2-S2-065K21,5,444,PS,exp,31,↓,down,↓,0.9282146999612451,True,12,-1,0,1
Y2-S2-065K21,5,445,PS,exp,37,↑,up,↑,0.42474739998579025,True,12,-1,0,1
Y2-S2-065K21,5,446,PS,exp,43,→,left,←,0.8361529000103474,False,12,-1,0,1
Y2-S2-065K21,5,447,PS,exp,50,↓,right,→,0.9340611002407968,False,13,-1,0,1
Y2-S2-065K21,5,448,PS,exp,30,↑,up,↑,0.5152281001210213,True,14,-1,0,1
Y2-S2-065K21,5,449,PS,exp,45,→,right,→,0.759315500035882,True,14,-1,0,1
Y2-S2-065K21,5,450,PS,exp,48,←,left,←,0.4204870997928083,True,14,1,1,2
Y2-S2-065K21,5,451,PS,exp,25,↓,down,↓,0.5749169001355767,True,13,1,0,2
Y2-S2-065K21,5,452,PS,exp,28,→,right,→,0.502244200091809,True,13,1,0,2
Y2-S2-065K21,5,453,PS,exp,32,←,left,←,0.5751364999450743,True,13,1,0,2
Y2-S2-065K21,5,454,PS,exp,28,↑,up,↑,0.5062084998935461,True,12,1,0,2
Y2-S2-065K21,5,455,PS,exp,50,←,left,←,0.6062722001224756,True,12,1,0,2
Y2-S2-065K21,5,456,PS,exp,32,→,left,←,0.6584816002286971,False,12,-1,1,3
Y2-S2-065K21,5,457,PS,exp,49,←,right,→,0.7081439001485705,False,13,-1,0,3
Y2-S2-065K21,5,458,PS,exp,43,↑,left,←,0.7881804001517594,False,14,-1,0,3
Y2-S2-065K21,5,459,PS,exp,30,→,left,←,0.6493048998527229,False,15,-1,0,3
Y2-S2-065K21,5,460,PS,exp,36,↑,down,↓,0.8930536997504532,False,16,-1,0,3
Y2-S2-065K21,5,461,PS,exp,41,↓,down,↓,0.6783545003272593,True,17,-1,0,3
Y2-S2-065K21,5,462,PS,exp,31,←,left,←,0.5816289996728301,True,17,-1,0,3
Y2-S2-065K21,5,463,PS,exp,26,↓,down,↓,0.7134342002682388,True,17,1,1,4
Y2-S2-065K21,5,464,PS,exp,49,→,right,→,0.5547043001279235,True,16,1,0,4
Y2-S2-065K21,5,465,PS,exp,48,↑,up,↑,0.5611942997202277,True,16,1,0,4
Y2-S2-065K21,5,466,PS,exp,36,←,left,←,0.4806482996791601,True,16,1,0,4
Y2-S2-065K21,5,467,PS,exp,46,↑,up,↑,0.5392406997270882,True,15,1,0,4
Y2-S2-065K21,5,468,PS,exp,27,↓,down,↓,0.6439135996624827,True,15,1,0,4
Y2-S2-065K21,5,469,PS,exp,39,→,right,→,0.5176540999673307,True,15,1,0,4
Y2-S2-065K21,5,470,PS,exp,38,↓,down,↓,0.6593634001910686,True,14,1,0,4
Y2-S2-065K21,5,471,PS,exp,27,→,right,→,0.520384999923408,True,14,1,0,4
Y2-S2-065K21,5,472,PS,exp,41,←,left,←,0.5361624001525342,True,14,1,0,4
Y2-S2-065K21,5,473,PS,exp,40,↑,up,↑,0.4973442000336945,True,13,1,0,4
Y2-S2-065K21,5,474,PS,exp,43,←,left,←,0.5138276000507176,True,13,1,0,4
Y2-S2-065K21,5,475,PS,exp,45,↑,up,↑,0.49562419997528195,True,13,1,0,4
Y2-S2-065K21,5,476,PS,exp,34,↓,down,↓,0.614754700101912,True,12,1,0,4
Y2-S2-065K21,5,477,PS,exp,40,←,left,←,0.4379877997562289,True,12,1,0,4
Y2-S2-065K21,5,478,PS,exp,41,↑,up,↑,0.43759340001270175,True,12,1,0,4
Y2-S2-065K21,5,479,PS,exp,35,←,left,←,0.48554470017552376,True,11,1,0,4
Y2-S2-065K21,5,480,PS,exp,48,↑,up,↑,0.46723269997164607,True,11,1,0,4
Y2-S2-065K21,5,481,PS,exp,33,↓,left,←,0.7156819999217987,False,11,-1,1,5
Y2-S2-065K21,5,482,PS,exp,37,→,left,←,0.5677812001667917,False,12,-1,0,5
Y2-S2-065K21,5,483,PS,exp,43,↓,down,↓,0.6092506996355951,True,13,-1,0,5
Y2-S2-065K21,5,484,PS,exp,26,←,left,←,0.4627919001504779,True,13,-1,0,5
Y2-S2-065K21,5,485,PS,exp,28,→,left,←,0.7454174999147654,False,13,-1,0,5
Y2-S2-065K21,5,486,PS,exp,28,←,left,←,0.4052653000690043,True,14,-1,0,5
Y2-S2-065K21,5,487,PS,exp,33,↓,down,↓,0.8447323003783822,True,14,-1,0,5
Y2-S2-065K21,5,488,PS,exp,25,→,right,→,0.5670861997641623,True,14,1,1,6
Y2-S2-065K21,5,489,PS,exp,34,↑,up,↑,0.46978669986128807,True,13,1,0,6
Y2-S2-065K21,5,490,PS,exp,36,→,right,→,0.46905040042474866,True,13,1,0,6
Y2-S2-065K21,5,491,PS,exp,47,↑,up,↑,0.515402500052005,True,13,1,0,6
Y2-S2-065K21,5,492,PS,exp,50,↓,down,↓,0.6365601001307368,True,12,1,0,6
Y2-S2-065K21,5,493,PS,exp,47,→,right,→,0.4434845997020602,True,12,1,0,6
Y2-S2-065K21,5,494,PS,exp,29,↓,down,↓,0.5922232996672392,True,12,1,0,6
Y2-S2-065K21,5,495,PS,exp,41,→,right,→,0.4479640000499785,True,11,1,0,6
Y2-S2-065K21,5,496,PS,exp,26,↓,down,↓,0.584009500220418,True,11,1,0,6
Y2-S2-065K21,5,497,PS,exp,32,↑,down,↓,0.9090025001205504,False,11,-1,1,7
Y2-S2-065K21,5,498,PS,exp,48,↓,down,↓,0.5714918999001384,True,12,-1,0,7
Y2-S2-065K21,5,499,PS,exp,45,→,right,→,0.4431010000407696,True,12,-1,0,7
Y2-S2-065K21,5,500,PS,exp,34,←,left,←,0.5315482998266816,True,12,1,1,8
Y2-S2-065K21,5,501,PS,exp,44,→,right,→,0.47961500007659197,True,11,1,0,8
Y2-S2-065K21,5,502,PS,exp,25,←,right,→,0.5302607999183238,False,11,-1,1,9
Y2-S2-065K21,5,503,PS,exp,47,↑,right,→,0.6409771000035107,False,12,-1,0,9
Y2-S2-065K21,5,504,PS,exp,41,→,right,→,0.47265119990333915,True,13,-1,0,9
Y2-S2-065K21,5,505,PS,exp,26,↑,right,→,0.7638864000327885,False,13,-1,0,9
Y2-S2-065K21,5,506,PS,exp,28,↓,down,↓,0.6061915997415781,True,14,-1,0,9
Y2-S2-065K21,5,507,PS,exp,45,↑,up,↑,0.4549988000653684,True,14,-1,0,9
Y2-S2-065K21,5,508,PS,exp,44,→,right,→,0.4846202000044286,True,14,1,1,10
Y2-S2-065K21,5,509,PS,exp,38,←,left,←,0.4404354002326727,True,13,1,0,10
Y2-S2-065K21,5,510,PS,exp,46,↑,up,↑,0.4099910999648273,True,13,1,0,10
Y2-S2-065K21,5,511,PS,exp,40,↓,down,↓,0.5473859002813697,True,13,1,0,10
Y2-S2-065K21,5,512,PS,exp,29,←,left,←,0.577625600155443,True,12,1,0,10
Y2-S2-065K21,5,513,PS,exp,44,↑,up,↑,0.40029249992221594,True,12,1,0,10
Y2-S2-065K21,5,514,PS,exp,29,↓,down,↓,0.7179664997383952,True,12,1,0,10
Y2-S2-065K21,5,515,PS,exp,41,↑,up,↑,0.5898126000538468,True,11,1,0,10
Y2-S2-065K21,5,516,PS,exp,36,→,right,→,0.6081099999137223,True,11,1,0,10
Y2-S2-065K21,5,517,PS,exp,32,↓,down,↓,0.5286157997325063,True,11,1,0,10
Y2-S2-065K21,5,518,PS,exp,28,←,left,←,0.4564489000476897,True,10,1,0,10
Y2-S2-065K21,5,519,PS,exp,45,→,right,→,1.2473104000091553,True,10,1,0,10
Y2-S2-065K21,5,520,PS,exp,36,↑,right,→,0.6877994001843035,False,10,-1,1,11
Y2-S2-065K21,5,521,PS,exp,37,↓,down,↓,0.663503700401634,True,11,-1,0,11
Y2-S2-065K21,5,522,PS,exp,41,→,left,←,0.6525620999746025,False,11,-1,0,11
Y2-S2-065K21,5,523,PS,exp,33,←,left,←,0.561213499866426,True,12,-1,0,11
Y2-S2-065K21,5,524,PS,exp,28,→,right,→,0.4560875999741256,True,12,-1,0,11
Y2-S2-065K21,5,525,PS,exp,42,↓,down,↓,0.6436918997205794,True,12,1,1,12
Y2-S2-065K21,5,526,PS,exp,42,←,left,←,0.8087563998997211,True,11,1,0,12
Y2-S2-065K21,5,527,PS,exp,43,↓,left,←,0.7551496000960469,False,11,-1,1,13
Y2-S2-065K21,5,528,PS,exp,39,→,right,→,0.4908762997947633,True,12,-1,0,13
Y2-S2-065K21,5,529,PS,exp,45,←,left,←,0.48594800010323524,True,12,-1,0,13
Y2-S2-065K21,5,530,PS,exp,35,↓,down,↓,0.6731881997548044,True,12,1,1,14
Y2-S2-065K21,5,531,PS,exp,42,↑,left,←,0.6645765998400748,False,11,-1,1,15
Y2-S2-065K21,5,532,PS,exp,28,→,left,←,0.6654372001066804,False,12,-1,0,15
Y2-S2-065K21,5,533,PS,exp,50,↑,up,↑,0.5896107000298798,True,13,-1,0,15
Y2-S2-065K21,5,534,PS,exp,37,→,left,←,0.6743061998859048,False,13,-1,0,15
Y2-S2-065K21,5,535,PS,exp,46,↓,down,↓,0.605946899857372,True,14,-1,0,15
Y2-S2-065K21,5,536,PS,exp,33,→,right,→,0.46462730038911104,True,14,-1,0,15
Y2-S2-065K21,5,537,PS,exp,43,↓,down,↓,0.659818799700588,True,14,1,1,16
Y2-S2-065K21,6,538,AS,intra_train,38,←,left,←,0.686370600014925,True,21,-,-,-
Y2-S2-065K21,6,539,AS,intra_train,50,→,right,→,1.0011824001558125,True,21,-,-,-
Y2-S2-065K21,6,540,AS,intra_train,39,↑,up,↑,0.67735859984532,True,21,-,-,-
Y2-S2-065K21,6,541,AS,intra_train,46,←,left,←,0.5338252997025847,True,21,-,-,-
Y2-S2-065K21,6,542,AS,intra_train,38,↑,up,↑,0.7821979001164436,True,21,-,-,-
Y2-S2-065K21,6,543,AS,exp,49,→,right,→,0.49374180007725954,True,14,0,0,0
Y2-S2-065K21,6,544,AS,exp,43,↑,down,↓,0.9354481999762356,False,14,-1,0,0
Y2-S2-065K21,6,545,AS,exp,39,←,right,→,0.738807300105691,False,15,-1,0,0
Y2-S2-065K21,6,546,AS,exp,38,→,right,→,0.5583585002459586,True,16,-1,0,0
Y2-S2-065K21,6,547,AS,exp,35,↓,down,↓,0.6332825999706984,True,16,-1,0,0
Y2-S2-065K21,6,548,AS,exp,28,↑,up,↑,0.5876834997907281,True,16,1,1,1
Y2-S2-065K21,6,549,AS,exp,29,→,right,→,0.5437109000049531,True,15,1,0,1
Y2-S2-065K21,6,550,AS,exp,46,←,left,←,1.10546680027619,True,15,1,0,1
Y2-S2-065K21,6,551,AS,exp,44,↑,up,↑,0.5491738999262452,True,15,1,0,1
Y2-S2-065K21,6,552,AS,exp,44,↓,down,↓,0.74059720011428,True,14,1,0,1
Y2-S2-065K21,6,553,AS,exp,44,↑,up,↑,0.48877379996702075,True,14,1,0,1
Y2-S2-065K21,6,554,AS,exp,42,↓,up,↑,0.48256570007652044,False,14,-1,1,2
Y2-S2-065K21,6,555,AS,exp,33,→,right,→,0.6801793999038637,True,15,-1,0,2
Y2-S2-065K21,6,556,AS,exp,35,↑,up,↑,0.3673661998473108,True,15,-1,0,2
Y2-S2-065K21,6,557,AS,exp,44,↓,down,↓,0.7512465002946556,True,15,1,1,3
Y2-S2-065K21,6,558,AS,exp,28,↑,down,↓,0.6861672000959516,False,14,-1,1,4
Y2-S2-065K21,6,559,AS,exp,40,→,right,→,0.73520030034706,True,15,-1,0,4
Y2-S2-065K21,6,560,AS,exp,37,↓,down,↓,0.6722932001575828,True,15,-1,0,4
Y2-S2-065K21,6,561,AS,exp,44,↑,up,↑,0.42665010038763285,True,15,1,1,5
Y2-S2-065K21,6,562,AS,exp,46,→,left,←,0.8777653998695314,False,14,-1,1,6
Y2-S2-065K21,6,563,AS,exp,48,↓,down,↓,0.6812483998946846,True,15,-1,0,6
Y2-S2-065K21,6,564,AS,exp,43,←,left,←,0.6131425998173654,True,15,-1,0,6
Y2-S2-065K21,6,565,AS,exp,39,↑,up,↑,1.1441044001840055,True,15,1,1,7
Y2-S2-065K21,6,566,AS,exp,31,→,right,→,0.4892334998585284,True,14,1,0,7
Y2-S2-065K21,6,567,AS,exp,26,↑,up,↑,0.9534196997992694,True,14,1,0,7
Y2-S2-065K21,6,568,AS,exp,39,↓,down,↓,0.5738670001737773,True,14,1,0,7
Y2-S2-065K21,6,569,AS,exp,45,↑,down,↓,0.8176711997948587,False,13,-1,1,8
Y2-S2-065K21,6,570,AS,exp,39,←,left,←,0.43238210026174784,True,14,-1,0,8
Y2-S2-065K21,6,571,AS,exp,39,→,right,→,0.5526390001177788,True,14,-1,0,8
Y2-S2-065K21,6,572,AS,exp,50,↓,down,↓,0.5872284001670778,True,14,1,1,9
Y2-S2-065K21,6,573,AS,exp,28,↑,up,↑,0.4570869002491236,True,13,1,0,9
Y2-S2-065K21,6,574,AS,exp,42,←,left,←,0.4078310998156667,True,13,1,0,9
Y2-S2-065K21,6,575,AS,exp,43,→,left,←,0.8276960998773575,False,13,-1,1,10
Y2-S2-065K21,6,576,AS,exp,40,←,left,←,0.3669476001523435,True,14,-1,0,10
Y2-S2-065K21,6,577,AS,exp,41,→,left,←,0.563344500027597,False,14,-1,0,10
Y2-S2-065K21,6,578,AS,exp,48,←,left,←,0.9153994000516832,True,15,-1,0,10
Y2-S2-065K21,6,579,AS,exp,40,↑,left,←,0.8516110996715724,False,15,-1,0,10
Y2-S2-065K21,6,580,AS,exp,30,←,right,→,0.59370750002563,False,16,-1,0,10
Y2-S2-065K21,6,581,AS,exp,32,→,left,←,0.8521431996487081,False,17,-1,0,10
Y2-S2-065K21,6,582,AS,exp,34,←,left,←,0.5110299000516534,True,18,-1,0,10
Y2-S2-065K21,6,583,AS,exp,43,→,right,→,0.48582080006599426,True,18,-1,0,10
Y2-S2-065K21,6,584,AS,exp,37,↑,up,↑,0.5779844997450709,True,18,1,1,11
Y2-S2-065K21,6,585,AS,exp,31,→,right,→,0.46189239993691444,True,17,1,0,11
Y2-S2-065K21,6,586,AS,exp,25,↓,down,↓,0.6832805997692049,True,17,1,0,11
Y2-S2-065K21,6,587,AS,exp,29,→,left,←,0.9657418997958302,False,17,-1,1,12
Y2-S2-065K21,6,588,AS,exp,44,←,left,←,0.6029838998802006,True,18,-1,0,12
Y2-S2-065K21,6,589,AS,exp,50,↓,down,↓,0.7816518000327051,True,18,-1,0,12
Y2-S2-065K21,6,590,AS,exp,34,↑,left,←,1.063653999939561,False,18,-1,0,12
Y2-S2-065K21,6,591,AS,exp,36,←,left,←,0.48737369989976287,True,19,-1,0,12
Y2-S2-065K21,6,592,AS,exp,42,↑,up,↑,0.5970767000690103,True,19,-1,0,12
Y2-S2-065K21,6,593,AS,exp,46,↓,down,↓,0.7731131999753416,True,19,1,1,13
Y2-S2-065K21,6,594,AS,exp,40,↑,up,↑,0.38390310015529394,True,18,1,0,13
Y2-S2-065K21,6,595,AS,exp,39,↓,down,↓,0.7316240998916328,True,18,1,0,13
Y2-S2-065K21,6,596,AS,exp,35,←,left,←,0.5640171002596617,True,18,1,0,13
Y2-S2-065K21,6,597,AS,exp,41,→,right,→,0.5210136002860963,True,17,1,0,13
Y2-S2-065K21,6,598,AS,exp,39,←,left,←,0.6142278998158872,True,17,1,0,13
Y2-S2-065K21,6,599,AS,exp,30,↓,down,↓,0.5421976000070572,True,17,1,0,13
Y2-S2-065K21,6,600,AS,exp,34,→,right,→,0.6567691001109779,True,16,1,0,13
Y2-S2-065K21,6,601,AS,exp,32,↑,down,↓,0.6789036998525262,False,16,-1,1,14
Y2-S2-065K21,6,602,AS,exp,39,←,left,←,0.5060171000659466,True,17,-1,0,14
Y2-S2-065K21,6,603,AS,exp,26,→,right,→,0.7985318000428379,True,17,-1,0,14
Y2-S2-065K21,6,604,AS,exp,38,↑,left,←,0.3838475998491049,False,17,-1,0,14
Y2-S2-065K21,6,605,AS,exp,44,→,right,→,0.6675729998387396,True,18,-1,0,14
Y2-S2-065K21,6,606,AS,exp,48,↓,down,↓,0.6094777998514473,True,18,-1,0,14
Y2-S2-065K21,6,607,AS,exp,50,→,right,→,0.7348390999250114,True,18,1,1,15
Y2-S2-065K21,6,608,AS,exp,36,↓,down,↓,0.6266402998007834,True,17,1,0,15
Y2-S2-065K21,6,609,AS,exp,30,→,right,→,0.7279565003700554,True,17,1,0,15
Y2-S2-065K21,6,610,AS,exp,47,←,left,←,0.7571124001406133,True,17,1,0,15
Y2-S2-065K21,6,611,AS,exp,27,↓,down,↓,0.6495091998949647,True,16,1,0,15
Y2-S2-065K21,6,612,AS,exp,44,↑,down,↓,0.8060557004064322,False,16,-1,1,16
Y2-S2-065K21,7,613,AS,intra_train,46,←,left,←,0.709379100240767,True,21,-,-,-
Y2-S2-065K21,7,614,AS,intra_train,32,↓,down,↓,0.5227429000660777,True,21,-,-,-
Y2-S2-065K21,7,615,AS,intra_train,25,→,right,→,1.0277385003864765,True,21,-,-,-
Y2-S2-065K21,7,616,AS,intra_train,32,↑,up,↑,0.6889888998121023,True,21,-,-,-
Y2-S2-065K21,7,617,AS,intra_train,29,→,right,→,0.48392329970374703,True,21,-,-,-
Y2-S2-065K21,7,618,AS,exp,37,←,left,←,0.5909569999203086,True,14,0,0,0
Y2-S2-065K21,7,619,AS,exp,42,↑,up,↑,0.8186515001580119,True,14,0,0,0
Y2-S2-065K21,7,620,AS,exp,27,↓,down,↓,0.7150567998178303,True,14,1,0,0
Y2-S2-065K21,7,621,AS,exp,27,←,left,←,0.46680930024012923,True,13,1,0,0
Y2-S2-065K21,7,622,AS,exp,31,↓,down,↓,1.042642300017178,True,13,1,0,0
Y2-S2-065K21,7,623,AS,exp,40,↑,up,↑,0.3969554998911917,True,13,1,0,0
Y2-S2-065K21,7,624,AS,exp,38,←,down,↓,0.6533089000731707,False,12,-1,1,1
Y2-S2-065K21,7,625,AS,exp,45,↓,down,↓,0.6019784002564847,True,13,-1,0,1
Y2-S2-065K21,7,626,AS,exp,32,→,right,→,0.5522307003848255,True,13,-1,0,1
Y2-S2-065K21,7,627,AS,exp,35,←,left,←,0.9670241000130773,True,13,1,1,2
Y2-S2-065K21,7,628,AS,exp,29,↓,down,↓,0.6012987000867724,True,12,1,0,2
Y2-S2-065K21,7,629,AS,exp,38,←,left,←,0.4691000999882817,True,12,1,0,2
Y2-S2-065K21,7,630,AS,exp,38,→,left,←,0.7554997000843287,False,12,-1,1,3
Y2-S2-065K21,7,631,AS,exp,46,↓,left,←,0.9183633998036385,False,13,-1,0,3
Y2-S2-065K21,7,632,AS,exp,47,↑,up,↑,0.4228055998682976,True,14,-1,0,3
Y2-S2-065K21,7,633,AS,exp,44,←,left,←,0.49771769996732473,True,14,-1,0,3
Y2-S2-065K21,7,634,AS,exp,29,→,right,→,0.4957971000112593,True,14,1,1,4
Y2-S2-065K21,7,635,AS,exp,28,↑,down,↓,0.7602536999620497,False,13,-1,1,5
Y2-S2-065K21,7,636,AS,exp,47,↓,down,↓,0.5376953999511898,True,14,-1,0,5
Y2-S2-065K21,7,637,AS,exp,50,←,left,←,0.6103268000297248,True,14,-1,0,5
Y2-S2-065K21,7,638,AS,exp,31,→,right,→,0.5340529000386596,True,14,1,1,6
Y2-S2-065K21,7,639,AS,exp,27,↓,down,↓,0.5722296996973455,True,13,1,0,6
Y2-S2-065K21,7,640,AS,exp,27,→,right,→,0.5807839999906719,True,13,1,0,6
Y2-S2-065K21,7,641,AS,exp,50,←,left,←,0.5134405000135303,True,13,1,0,6
Y2-S2-065K21,7,642,AS,exp,27,↑,down,↓,0.814462199807167,False,12,-1,1,7
Y2-S2-065K21,7,643,AS,exp,46,→,left,←,0.8978440002538264,False,13,-1,0,7
Y2-S2-065K21,7,644,AS,exp,39,↑,down,↓,0.835326099768281,False,14,-1,0,7
Y2-S2-065K21,7,645,AS,exp,37,↓,down,↓,0.8738666996359825,True,15,-1,0,7
Y2-S2-065K21,7,646,AS,exp,38,→,right,→,0.9164243000559509,True,15,-1,0,7
Y2-S2-065K21,7,647,AS,exp,41,←,left,←,0.7542932000942528,True,15,1,1,8
Y2-S2-065K21,7,648,AS,exp,45,↓,left,←,1.1429095999337733,False,14,-1,1,9
Y2-S2-065K21,7,649,AS,exp,36,←,left,←,0.5745531003922224,True,15,-1,0,9
Y2-S2-065K21,7,650,AS,exp,34,↓,down,↓,0.6661078003235161,True,15,-1,0,9
Y2-S2-065K21,7,651,AS,exp,28,↑,up,↑,0.5347723001614213,True,15,1,1,10
Y2-S2-065K21,7,652,AS,exp,32,→,left,←,0.6235086000524461,False,14,-1,1,11
Y2-S2-065K21,7,653,AS,exp,27,↑,up,↑,0.6545019000768661,True,15,-1,0,11
Y2-S2-065K21,7,654,AS,exp,38,←,left,←,0.5924655999988317,True,15,-1,0,11
Y2-S2-065K21,7,655,AS,exp,35,↓,down,↓,0.7267089001834393,True,15,1,1,12
Y2-S2-065K21,7,656,AS,exp,33,↑,up,↑,0.5991273000836372,True,14,1,0,12
Y2-S2-065K21,7,657,AS,exp,32,←,left,←,0.5684005999937654,True,14,1,0,12
Y2-S2-065K21,7,658,AS,exp,45,↓,down,↓,0.7320350003428757,True,14,1,0,12
Y2-S2-065K21,7,659,AS,exp,36,↑,down,↓,0.8897730000317097,False,13,-1,1,13
Y2-S2-065K21,7,660,AS,exp,29,↓,down,↓,1.1012407001107931,True,14,-1,0,13
Y2-S2-065K21,7,661,AS,exp,25,↑,up,↑,0.6859904997982085,True,14,-1,0,13
Y2-S2-065K21,7,662,AS,exp,29,→,left,←,0.9618106000125408,False,14,-1,0,13
Y2-S2-065K21,7,663,AS,exp,28,←,left,←,0.5329201002605259,True,15,-1,0,13
Y2-S2-065K21,7,664,AS,exp,26,→,left,←,0.7897401000373065,False,15,-1,0,13
Y2-S2-065K21,7,665,AS,exp,39,←,left,←,0.913005500100553,True,16,-1,0,13
Y2-S2-065K21,7,666,AS,exp,27,→,right,→,0.6764346999116242,True,16,-1,0,13
Y2-S2-065K21,7,667,AS,exp,31,↓,left,←,1.2177381999790668,False,16,-1,0,13
Y2-S2-065K21,7,668,AS,exp,43,↑,up,↑,0.521771099884063,True,17,-1,0,13
Y2-S2-065K21,7,669,AS,exp,29,←,left,←,0.6447100001387298,True,17,-1,0,13
Y2-S2-065K21,7,670,AS,exp,32,↓,down,↓,0.6071568001061678,True,17,1,1,14
Y2-S2-065K21,7,671,AS,exp,42,→,right,→,0.45108320005238056,True,16,1,0,14
Y2-S2-065K21,7,672,AS,exp,46,↓,down,↓,0.6309412997215986,True,16,1,0,14
Y2-S2-065K21,7,673,AS,exp,41,↑,up,↑,0.47122700000181794,True,16,1,0,14
Y2-S2-065K21,7,674,AS,exp,43,←,left,←,0.4242520001716912,True,15,1,0,14
Y2-S2-065K21,7,675,AS,exp,34,↓,left,←,0.7676283996552229,False,15,-1,1,15
Y2-S2-065K21,7,676,AS,exp,28,↑,up,↑,0.4460987998172641,True,16,-1,0,15
Y2-S2-065K21,7,677,AS,exp,30,←,left,←,0.7095731999725103,True,16,-1,0,15
Y2-S2-065K21,7,678,AS,exp,49,→,left,←,0.6572267999872565,False,16,-1,0,15
Y2-S2-065K21,7,679,AS,exp,38,←,left,←,0.3673602999188006,True,17,-1,0,15
Y2-S2-065K21,7,680,AS,exp,39,↓,down,↓,0.5875522000715137,True,17,-1,0,15
Y2-S2-065K21,7,681,AS,exp,43,→,left,←,0.5532491002231836,False,17,-1,0,15
Y2-S2-065K21,7,682,AS,exp,34,↓,down,↓,0.819186800159514,True,18,-1,0,15
Y2-S2-065K21,7,683,AS,exp,47,←,left,←,0.6241568000987172,True,18,-1,0,15
Y2-S2-065K21,7,684,AS,exp,34,↑,up,↑,0.7861187998205423,True,18,1,1,16
Y2-S2-065K21,8,685,PS,intra_train,36,→,right,→,0.501061899587512,True,18,-,-,-
Y2-S2-065K21,8,686,PS,intra_train,47,↓,down,↓,0.6073694000951946,True,18,-,-,-
Y2-S2-065K21,8,687,PS,intra_train,50,←,left,←,0.7406501998193562,True,18,-,-,-
Y2-S2-065K21,8,688,PS,intra_train,45,↑,up,↑,0.48826219979673624,True,18,-,-,-
Y2-S2-065K21,8,689,PS,intra_train,40,→,left,←,0.7138515003025532,False,18,-,-,-
Y2-S2-065K21,8,690,PS,exp,38,↓,down,↓,0.6435325001366436,True,12,0,0,0
Y2-S2-065K21,8,691,PS,exp,31,←,right,→,0.555536899715662,False,12,-1,0,0
Y2-S2-065K21,8,692,PS,exp,34,↓,down,↓,0.705337299965322,True,13,-1,0,0
Y2-S2-065K21,8,693,PS,exp,48,←,left,←,0.46622930001467466,True,13,-1,0,0
Y2-S2-065K21,8,694,PS,exp,31,↑,up,↑,0.4874276998452842,True,13,1,1,1
Y2-S2-065K21,8,695,PS,exp,48,←,left,←,0.43285580025985837,True,12,1,0,1
Y2-S2-065K21,8,696,PS,exp,43,↓,down,↓,0.5971491001546383,True,12,1,0,1
Y2-S2-065K21,8,697,PS,exp,27,←,right,→,0.5554919000715017,False,12,-1,1,2
Y2-S2-065K21,8,698,PS,exp,33,↓,left,←,0.5997798000462353,False,13,-1,0,2
Y2-S2-065K21,8,699,PS,exp,40,↑,up,↑,0.47454619966447353,True,14,-1,0,2
Y2-S2-065K21,8,700,PS,exp,41,←,left,←,0.44535059994086623,True,14,-1,0,2
Y2-S2-065K21,8,701,PS,exp,39,→,right,→,0.4683314999565482,True,14,1,1,3
Y2-S2-065K21,8,702,PS,exp,48,←,left,←,0.4516314002685249,True,13,1,0,3
Y2-S2-065K21,8,703,PS,exp,30,↓,down,↓,0.49869990022853017,True,13,1,0,3
Y2-S2-065K21,8,704,PS,exp,28,↑,up,↑,0.7076266002841294,True,13,1,0,3
Y2-S2-065K21,8,705,PS,exp,31,←,left,←,0.561956100165844,True,12,1,0,3
Y2-S2-065K21,8,706,PS,exp,48,→,left,←,0.534769699908793,False,12,-1,1,4
Y2-S2-065K21,8,707,PS,exp,45,↑,up,↑,0.4029350997880101,True,13,-1,0,4
Y2-S2-065K21,8,708,PS,exp,36,←,left,←,0.6281618000939488,True,13,-1,0,4
Y2-S2-065K21,8,709,PS,exp,49,→,right,→,0.46227109991014004,True,13,1,1,5
Y2-S2-065K21,8,710,PS,exp,50,↑,up,↑,0.41771640023216605,True,12,1,0,5
Y2-S2-065K21,8,711,PS,exp,33,→,left,←,0.40266909962520003,False,12,-1,1,6
Y2-S2-065K21,8,712,PS,exp,36,↓,left,←,0.7326317001134157,False,13,-1,0,6
Y2-S2-065K21,8,713,PS,exp,42,↑,up,↑,0.4555585999041796,True,14,-1,0,6
Y2-S2-065K21,8,714,PS,exp,49,→,right,→,0.5360709000378847,True,14,-1,0,6
Y2-S2-065K21,8,715,PS,exp,26,←,left,←,0.48955720011144876,True,14,1,1,7
Y2-S2-065K21,8,716,PS,exp,26,↑,left,←,0.6358211003243923,False,13,-1,1,8
Y2-S2-065K21,8,717,PS,exp,38,→,right,→,0.5321196997538209,True,14,-1,0,8
Y2-S2-065K21,8,718,PS,exp,44,←,left,←,0.5517408000305295,True,14,-1,0,8
Y2-S2-065K21,8,719,PS,exp,42,→,left,←,0.536720999982208,False,14,-1,0,8
Y2-S2-065K21,8,720,PS,exp,38,←,left,←,0.4805879001505673,True,15,-1,0,8
Y2-S2-065K21,8,721,PS,exp,32,→,left,←,0.43980229971930385,False,15,-1,0,8
Y2-S2-065K21,8,722,PS,exp,36,↓,down,↓,0.6378075000829995,True,16,-1,0,8
Y2-S2-065K21,8,723,PS,exp,49,←,left,←,0.5799787999130785,True,16,-1,0,8
Y2-S2-065K21,8,724,PS,exp,33,↓,down,↓,0.6917652999982238,True,16,1,1,9
Y2-S2-065K21,8,725,PS,exp,45,↑,right,→,1.0139758000150323,False,15,-1,1,10
Y2-S2-065K21,8,726,PS,exp,28,→,right,→,0.6315836003050208,True,16,-1,0,10
Y2-S2-065K21,8,727,PS,exp,42,↑,up,↑,0.5853273998945951,True,16,-1,0,10
Y2-S2-065K21,8,728,PS,exp,44,↓,down,↓,0.6408497001975775,True,16,1,1,11
Y2-S2-065K21,8,729,PS,exp,46,←,left,←,0.9335862998850644,True,15,1,0,11
Y2-S2-065K21,8,730,PS,exp,42,↑,up,↑,0.5056551997549832,True,15,1,0,11
Y2-S2-065K21,8,731,PS,exp,49,↓,down,↓,0.6350581999868155,True,15,1,0,11
Y2-S2-065K21,8,732,PS,exp,35,←,left,←,0.49903229996562004,True,14,1,0,11
Y2-S2-065K21,8,733,PS,exp,36,→,right,→,0.5027870000340044,True,14,1,0,11
Y2-S2-065K21,8,734,PS,exp,41,↑,up,↑,0.5101330000907183,True,14,1,0,11
Y2-S2-065K21,8,735,PS,exp,48,↓,down,↓,0.570545700378716,True,13,1,0,11
Y2-S2-065K21,8,736,PS,exp,49,←,left,←,0.5205680998042226,True,13,1,0,11
Y2-S2-065K21,8,737,PS,exp,43,→,right,→,0.5959971998818219,True,13,1,0,11
Y2-S2-065K21,8,738,PS,exp,44,↑,up,↑,0.5028806999325752,True,12,1,0,11
Y2-S2-065K21,8,739,PS,exp,50,→,right,→,0.49919060012325644,True,12,1,0,11
Y2-S2-065K21,8,740,PS,exp,46,←,left,←,0.382608899846673,True,12,1,0,11
Y2-S2-065K21,8,741,PS,exp,45,↑,up,↑,0.52988709975034,True,11,1,0,11
Y2-S2-065K21,8,742,PS,exp,36,↓,up,↑,0.7882774998433888,False,11,-1,1,12
Y2-S2-065K21,8,743,PS,exp,26,↑,up,↑,0.5296129998750985,True,12,-1,0,12
Y2-S2-065K21,8,744,PS,exp,50,→,right,→,0.5250746998935938,True,12,-1,0,12
Y2-S2-065K21,8,745,PS,exp,31,←,left,←,0.47400330007076263,True,12,1,1,13
Y2-S2-065K21,8,746,PS,exp,31,↑,up,↑,0.47506409976631403,True,11,1,0,13
Y2-S2-065K21,8,747,PS,exp,40,↓,down,↓,0.6194246001541615,True,11,1,0,13
Y2-S2-065K21,8,748,PS,exp,39,→,right,→,0.49101149989292026,True,11,1,0,13
Y2-S2-065K21,8,749,PS,exp,26,↓,down,↓,0.6193386996164918,True,10,1,0,13
Y2-S2-065K21,8,750,PS,exp,26,↑,up,↑,0.5159104000777006,True,10,1,0,13
Y2-S2-065K21,8,751,PS,exp,42,←,left,←,0.4989805999211967,True,10,1,0,13
Y2-S2-065K21,8,752,PS,exp,40,↑,up,↑,0.6344559001736343,True,9,1,0,13
Y2-S2-065K21,8,753,PS,exp,30,↓,down,↓,0.6314289001747966,True,9,1,0,13
Y2-S2-065K21,8,754,PS,exp,32,→,right,→,0.4768175003118813,True,9,1,0,13
Y2-S2-065K21,8,755,PS,exp,32,↑,down,↓,0.5714914998970926,False,8,-1,1,14
Y2-S2-065K21,8,756,PS,exp,29,→,right,→,0.5324086998589337,True,9,-1,0,14
Y2-S2-065K21,8,757,PS,exp,36,↓,down,↓,0.6188385998830199,True,9,-1,0,14
Y2-S2-065K21,8,758,PS,exp,41,↑,up,↑,0.5406375997699797,True,9,1,1,15
Y2-S2-065K21,8,759,PS,exp,40,↓,down,↓,1.090299400035292,True,8,1,0,15
Y2-S2-065K21,8,760,PS,exp,30,↑,right,→,0.5334394997917116,False,8,-1,1,16
