PART_ID,Block_no,Trial_no,Block_type,Trial_type,CSI,Stim_letter,Key_pressed,letter_choose,Rt,Corr,Stimulus Time,Level,Reversal,Revs_count
Y2-S2-262K26,1,1,PS,train,35,←,left,←,1.4707745998166502,True,30,-,-,-
Y2-S2-262K26,1,2,PS,train,38,→,right,→,0.6009360998868942,True,30,-,-,-
Y2-S2-262K26,1,3,PS,train,40,↑,up,↑,1.7605920997448266,True,30,-,-,-
Y2-S2-262K26,1,4,PS,train,30,↓,down,↓,0.6339827999472618,True,30,-,-,-
Y2-S2-262K26,1,5,PS,train,39,↑,up,↑,0.5674470998346806,True,30,-,-,-
Y2-S2-262K26,1,6,PS,train,38,←,left,←,0.5839825998991728,True,30,-,-,-
Y2-S2-262K26,1,7,PS,train,40,→,right,→,0.7709121000953019,True,30,-,-,-
Y2-S2-262K26,1,8,PS,train,38,↑,up,↑,0.48372200038284063,True,30,-,-,-
Y2-S2-262K26,1,9,PS,train,46,←,left,←,0.5838600997813046,True,30,-,-,-
Y2-S2-262K26,1,10,PS,train,29,↑,up,↑,0.5505407000891864,True,30,-,-,-
Y2-S2-262K26,2,11,AS,train,38,↓,down,↓,0.6842295001260936,True,45,-,-,-
Y2-S2-262K26,2,12,AS,train,41,←,left,←,0.8338268003426492,True,45,-,-,-
Y2-S2-262K26,2,13,AS,train,39,↑,up,↑,0.8838999001309276,True,45,-,-,-
Y2-S2-262K26,2,14,AS,train,28,→,right,→,0.7010837001726031,True,45,-,-,-
Y2-S2-262K26,2,15,AS,train,43,↓,down,↓,0.6845025001093745,True,45,-,-,-
Y2-S2-262K26,2,16,AS,train,31,→,right,→,0.6678209002129734,True,45,-,-,-
Y2-S2-262K26,2,17,AS,train,32,↓,left,←,0.5175596000626683,False,45,-,-,-
Y2-S2-262K26,2,18,AS,train,25,←,left,←,1.190483400132507,True,45,-,-,-
Y2-S2-262K26,2,19,AS,train,39,↓,down,↓,0.7507108999416232,True,45,-,-,-
Y2-S2-262K26,2,20,AS,train,43,→,right,→,0.6680413000285625,True,45,-,-,-
Y2-S2-262K26,-,21,PS,adaptive,34,↓,down,↓,0.8383144997060299,True,10,0,0,0
Y2-S2-262K26,-,22,PS,adaptive,37,→,right,→,0.9661141997203231,True,10,0,0,0
Y2-S2-262K26,-,23,PS,adaptive,37,↓,down,↓,0.631740499753505,True,10,1,0,0
Y2-S2-262K26,-,24,PS,adaptive,37,←,left,←,0.877259399741888,True,9,1,0,0
Y2-S2-262K26,-,25,PS,adaptive,46,→,right,→,0.7982560000382364,True,9,1,0,0
Y2-S2-262K26,-,26,PS,adaptive,37,↑,up,↑,0.5631513996049762,True,9,1,0,0
Y2-S2-262K26,-,27,PS,adaptive,47,→,right,→,0.6201469004154205,True,8,1,0,0
Y2-S2-262K26,-,28,PS,adaptive,50,↑,up,↑,0.49407790042459965,True,8,1,0,0
Y2-S2-262K26,-,29,PS,adaptive,39,↓,up,↑,0.687457200139761,False,8,-1,1,1
Y2-S2-262K26,-,30,PS,adaptive,49,←,up,↑,0.6783596999011934,False,9,-1,0,1
Y2-S2-262K26,-,31,PS,adaptive,39,→,right,→,0.7628476996906102,True,10,-1,0,1
Y2-S2-262K26,-,32,PS,adaptive,38,←,left,←,1.0333928000181913,True,10,-1,0,1
Y2-S2-262K26,-,33,PS,adaptive,25,↑,up,↑,0.8251060000620782,True,10,1,1,2
Y2-S2-262K26,-,34,PS,adaptive,31,←,left,←,0.6905481996946037,True,9,1,0,2
Y2-S2-262K26,-,35,PS,adaptive,35,↓,down,↓,0.6990451002493501,True,9,1,0,2
Y2-S2-262K26,-,36,PS,adaptive,48,←,left,←,1.0138759999535978,True,9,1,0,2
Y2-S2-262K26,-,37,PS,adaptive,45,→,right,→,0.6542484001256526,True,8,1,0,2
Y2-S2-262K26,-,38,PS,adaptive,47,↓,down,↓,0.5400991998612881,True,8,1,0,2
Y2-S2-262K26,-,39,PS,adaptive,28,←,left,←,0.6097861002199352,True,8,1,0,2
Y2-S2-262K26,-,40,PS,adaptive,43,↓,down,↓,0.5957173001952469,True,7,1,0,2
Y2-S2-262K26,-,41,PS,adaptive,37,→,down,↓,0.5487917000427842,False,7,-1,1,3
Y2-S2-262K26,-,42,PS,adaptive,30,←,right,→,0.9255447001196444,False,8,-1,0,3
Y2-S2-262K26,-,43,PS,adaptive,33,↑,right,→,0.6095407996326685,False,9,-1,0,3
Y2-S2-262K26,-,44,PS,adaptive,42,←,left,←,0.6744638001546264,True,10,-1,0,3
Y2-S2-262K26,-,45,PS,adaptive,33,→,right,→,0.5644423002377152,True,10,-1,0,3
Y2-S2-262K26,-,46,PS,adaptive,34,↑,up,↑,0.7949447999708354,True,10,1,1,4
Y2-S2-262K26,-,47,AS,adaptive,40,→,right,→,0.856971699744463,True,20,0,0,0
Y2-S2-262K26,-,48,AS,adaptive,25,↓,down,↓,0.6243492001667619,True,20,0,0,0
Y2-S2-262K26,-,49,AS,adaptive,29,→,down,↓,1.477127999998629,False,20,-1,0,0
Y2-S2-262K26,-,50,AS,adaptive,41,←,left,←,1.0374377998523414,True,21,-1,0,0
Y2-S2-262K26,-,51,AS,adaptive,29,↑,up,↑,0.7192734000273049,True,21,-1,0,0
Y2-S2-262K26,-,52,AS,adaptive,27,←,left,←,0.7753530000336468,True,21,1,1,1
Y2-S2-262K26,-,53,AS,adaptive,38,↓,down,↓,0.6319830999709666,True,20,1,0,1
Y2-S2-262K26,-,54,AS,adaptive,33,←,left,←,0.7640423001721501,True,20,1,0,1
Y2-S2-262K26,-,55,AS,adaptive,47,→,right,→,0.9960252000018954,True,20,1,0,1
Y2-S2-262K26,-,56,AS,adaptive,45,↑,up,↑,0.587445099838078,True,19,1,0,1
Y2-S2-262K26,-,57,AS,adaptive,47,←,left,←,0.8206015997566283,True,19,1,0,1
Y2-S2-262K26,-,58,AS,adaptive,38,↑,up,↑,0.7525390000082552,True,19,1,0,1
Y2-S2-262K26,-,59,AS,adaptive,40,↓,down,↓,0.7120914999395609,True,18,1,0,1
Y2-S2-262K26,-,60,AS,adaptive,42,↑,up,↑,0.6346840998157859,True,18,1,0,1
Y2-S2-262K26,-,61,AS,adaptive,45,↓,down,↓,0.6669443999417126,True,18,1,0,1
Y2-S2-262K26,-,62,AS,adaptive,48,→,left,←,0.7966018998995423,False,17,-1,1,2
Y2-S2-262K26,-,63,AS,adaptive,39,↓,down,↓,0.8858950999565423,True,18,-1,0,2
Y2-S2-262K26,-,64,AS,adaptive,38,→,down,↓,0.6162771000526845,False,18,-1,0,2
Y2-S2-262K26,-,65,AS,adaptive,46,←,left,←,1.7802899996750057,True,19,-1,0,2
Y2-S2-262K26,-,66,AS,adaptive,38,↓,down,↓,0.7651280001737177,True,19,-1,0,2
Y2-S2-262K26,-,67,AS,adaptive,36,←,left,←,0.777176100295037,True,19,1,1,3
Y2-S2-262K26,-,68,AS,adaptive,36,→,left,←,0.9710711999796331,False,18,-1,1,4
Y2-S2-262K26,1,69,PS,intra_train,41,↑,up,↑,0.8791173999197781,True,13,-,-,-
Y2-S2-262K26,1,70,PS,intra_train,44,←,left,←,0.891754699870944,True,13,-,-,-
Y2-S2-262K26,1,71,PS,intra_train,41,→,right,→,0.5808509001508355,True,13,-,-,-
Y2-S2-262K26,1,72,PS,intra_train,45,↓,down,↓,0.8685813997872174,True,13,-,-,-
Y2-S2-262K26,1,73,PS,intra_train,49,↑,up,↑,0.49592379992827773,True,13,-,-,-
Y2-S2-262K26,1,74,PS,exp,33,→,right,→,0.9069809000939131,True,9,0,0,0
Y2-S2-262K26,1,75,PS,exp,31,↑,up,↑,0.5344324000179768,True,9,0,0,0
Y2-S2-262K26,1,76,PS,exp,44,→,right,→,0.5974053000099957,True,9,1,0,0
Y2-S2-262K26,1,77,PS,exp,45,←,left,←,0.626084600109607,True,8,1,0,0
Y2-S2-262K26,1,78,PS,exp,44,↑,up,↑,0.5111538995988667,True,8,1,0,0
Y2-S2-262K26,1,79,PS,exp,42,←,left,←,0.7031886000186205,True,8,1,0,0
Y2-S2-262K26,1,80,PS,exp,49,↓,down,↓,0.5264698998071253,True,7,1,0,0
Y2-S2-262K26,1,81,PS,exp,50,←,left,←,0.6671334002166986,True,7,1,0,0
Y2-S2-262K26,1,82,PS,exp,31,↓,right,→,0.8739659003913403,False,7,-1,1,1
Y2-S2-262K26,1,83,PS,exp,30,↑,up,↑,0.8085747002623975,True,8,-1,0,1
Y2-S2-262K26,1,84,PS,exp,28,←,right,→,0.7158168000169098,False,8,-1,0,1
Y2-S2-262K26,1,85,PS,exp,34,→,right,→,0.529271800071001,True,9,-1,0,1
Y2-S2-262K26,1,86,PS,exp,26,←,left,←,0.8660037997178733,True,9,-1,0,1
Y2-S2-262K26,1,87,PS,exp,40,→,left,←,0.5177131001837552,False,9,-1,0,1
Y2-S2-262K26,1,88,PS,exp,45,↑,up,↑,0.6097524999640882,True,10,-1,0,1
Y2-S2-262K26,1,89,PS,exp,48,↓,down,↓,0.6217251000925899,True,10,-1,0,1
Y2-S2-262K26,1,90,PS,exp,46,←,right,→,1.1155316000804305,False,10,-1,0,1
Y2-S2-262K26,1,91,PS,exp,31,→,right,→,0.5344417998567224,True,11,-1,0,1
Y2-S2-262K26,1,92,PS,exp,48,↓,down,↓,0.6352750002406538,True,11,-1,0,1
Y2-S2-262K26,1,93,PS,exp,30,←,left,←,0.6895948001183569,True,11,1,1,2
Y2-S2-262K26,1,94,PS,exp,44,↑,up,↑,0.5459011001512408,True,10,1,0,2
Y2-S2-262K26,1,95,PS,exp,44,→,right,→,0.6778274001553655,True,10,1,0,2
Y2-S2-262K26,1,96,PS,exp,27,↓,right,→,0.5689046001061797,False,10,-1,1,3
Y2-S2-262K26,1,97,PS,exp,26,↑,up,↑,0.8529392997734249,True,11,-1,0,3
Y2-S2-262K26,1,98,PS,exp,44,←,left,←,0.6256932998076081,True,11,-1,0,3
Y2-S2-262K26,1,99,PS,exp,31,→,right,→,1.1510220998898149,True,11,1,1,4
Y2-S2-262K26,1,100,PS,exp,37,←,left,←,0.5711884000338614,True,10,1,0,4
Y2-S2-262K26,1,101,PS,exp,36,↓,down,↓,0.663633200339973,True,10,1,0,4
Y2-S2-262K26,1,102,PS,exp,40,→,down,↓,0.7060616002418101,False,10,-1,1,5
Y2-S2-262K26,1,103,PS,exp,48,←,left,←,0.8203072999604046,True,11,-1,0,5
Y2-S2-262K26,1,104,PS,exp,44,→,right,→,0.6144030997529626,True,11,-1,0,5
Y2-S2-262K26,1,105,PS,exp,29,↓,down,↓,0.5332896001636982,True,11,1,1,6
Y2-S2-262K26,1,106,PS,exp,47,↑,up,↑,0.6253871996887028,True,10,1,0,6
Y2-S2-262K26,1,107,PS,exp,40,→,right,→,0.598185199778527,True,10,1,0,6
Y2-S2-262K26,1,108,PS,exp,28,↓,right,→,0.730487999971956,False,10,-1,1,7
Y2-S2-262K26,1,109,PS,exp,44,→,right,→,0.4922295999713242,True,11,-1,0,7
Y2-S2-262K26,1,110,PS,exp,39,↓,right,→,0.5846327999606729,False,11,-1,0,7
Y2-S2-262K26,1,111,PS,exp,50,↑,up,↑,0.6217975998297334,True,12,-1,0,7
Y2-S2-262K26,1,112,PS,exp,33,↓,up,↑,0.8770580999553204,False,12,-1,0,7
Y2-S2-262K26,1,113,PS,exp,28,→,right,→,0.6108138998970389,True,13,-1,0,7
Y2-S2-262K26,1,114,PS,exp,44,↓,down,↓,0.5429128003306687,True,13,-1,0,7
Y2-S2-262K26,1,115,PS,exp,38,←,left,←,0.6191861000843346,True,13,1,1,8
Y2-S2-262K26,1,116,PS,exp,40,→,right,→,0.5477382000535727,True,12,1,0,8
Y2-S2-262K26,1,117,PS,exp,30,↑,right,→,0.8705711998045444,False,12,-1,1,9
Y2-S2-262K26,1,118,PS,exp,44,↓,down,↓,0.5716701000928879,True,13,-1,0,9
Y2-S2-262K26,1,119,PS,exp,41,→,right,→,0.6455330001190305,True,13,-1,0,9
Y2-S2-262K26,1,120,PS,exp,41,↑,up,↑,0.45916879968717694,True,13,1,1,10
Y2-S2-262K26,1,121,PS,exp,50,↓,down,↓,0.5049477000720799,True,12,1,0,10
Y2-S2-262K26,1,122,PS,exp,47,←,down,↓,0.6593602001667023,False,12,-1,1,11
Y2-S2-262K26,1,123,PS,exp,48,→,right,→,0.5572088002227247,True,13,-1,0,11
Y2-S2-262K26,1,124,PS,exp,32,↓,down,↓,0.4823080999776721,True,13,-1,0,11
Y2-S2-262K26,1,125,PS,exp,27,←,left,←,0.4934725998900831,True,13,1,1,12
Y2-S2-262K26,1,126,PS,exp,46,→,right,→,0.5149694997817278,True,12,1,0,12
Y2-S2-262K26,1,127,PS,exp,30,↑,up,↑,0.5415813000872731,True,12,1,0,12
Y2-S2-262K26,1,128,PS,exp,39,←,left,←,0.6046111998148263,True,12,1,0,12
Y2-S2-262K26,1,129,PS,exp,26,↑,up,↑,0.5268828999251127,True,11,1,0,12
Y2-S2-262K26,1,130,PS,exp,32,↓,right,→,0.6791858999058604,False,11,-1,1,13
Y2-S2-262K26,1,131,PS,exp,48,↑,up,↑,0.488297900184989,True,12,-1,0,13
Y2-S2-262K26,1,132,PS,exp,41,→,right,→,0.5212832000106573,True,12,-1,0,13
Y2-S2-262K26,1,133,PS,exp,37,←,up,↑,0.8883611997589469,False,12,-1,0,13
Y2-S2-262K26,1,134,PS,exp,28,→,right,→,0.6803977000527084,True,13,-1,0,13
Y2-S2-262K26,1,135,PS,exp,31,↓,down,↓,0.5103788003325462,True,13,-1,0,13
Y2-S2-262K26,1,136,PS,exp,37,↑,up,↑,0.5694778999313712,True,13,1,1,14
Y2-S2-262K26,1,137,PS,exp,45,←,left,←,0.5799190998077393,True,12,1,0,14
Y2-S2-262K26,1,138,PS,exp,43,→,right,→,0.580587700009346,True,12,1,0,14
Y2-S2-262K26,1,139,PS,exp,26,←,left,←,0.4621024997904897,True,12,1,0,14
Y2-S2-262K26,1,140,PS,exp,49,↑,up,↑,0.9120554998517036,True,11,1,0,14
Y2-S2-262K26,1,141,PS,exp,29,↓,down,↓,0.4853031998500228,True,11,1,0,14
Y2-S2-262K26,1,142,PS,exp,46,↑,up,↑,0.7072105999104679,True,11,1,0,14
Y2-S2-262K26,1,143,PS,exp,48,→,right,→,0.5653478000313044,True,10,1,0,14
Y2-S2-262K26,1,144,PS,exp,48,←,right,→,0.5029670000076294,False,10,-1,1,15
Y2-S2-262K26,1,145,PS,exp,45,↑,up,↑,0.569221300072968,True,11,-1,0,15
Y2-S2-262K26,1,146,PS,exp,38,↓,down,↓,0.5257324003614485,True,11,-1,0,15
Y2-S2-262K26,1,147,PS,exp,33,→,right,→,0.4598904997110367,True,11,1,1,16
Y2-S2-262K26,2,148,AS,intra_train,34,↓,down,↓,0.7152184997685254,True,28,-,-,-
Y2-S2-262K26,2,149,AS,intra_train,43,→,right,→,0.6990112001076341,True,28,-,-,-
Y2-S2-262K26,2,150,AS,intra_train,46,←,left,←,1.2771462998352945,True,28,-,-,-
Y2-S2-262K26,2,151,AS,intra_train,42,→,right,→,0.6681821998208761,True,28,-,-,-
Y2-S2-262K26,2,152,AS,intra_train,27,←,left,←,0.7022877000272274,True,28,-,-,-
Y2-S2-262K26,2,153,AS,exp,44,→,right,→,0.6770828999578953,True,19,0,0,0
Y2-S2-262K26,2,154,AS,exp,40,↑,right,→,0.6213660999201238,False,19,-1,0,0
Y2-S2-262K26,2,155,AS,exp,50,↓,down,↓,0.5341397998854518,True,20,-1,0,0
Y2-S2-262K26,2,156,AS,exp,41,↑,up,↑,0.8878043000586331,True,20,-1,0,0
Y2-S2-262K26,2,157,AS,exp,36,←,left,←,0.8918877001851797,True,20,1,1,1
Y2-S2-262K26,2,158,AS,exp,41,↑,up,↑,0.8265891997143626,True,19,1,0,1
Y2-S2-262K26,2,159,AS,exp,35,→,right,→,0.5233106999658048,True,19,1,0,1
Y2-S2-262K26,2,160,AS,exp,36,↓,down,↓,0.7698979997076094,True,19,1,0,1
Y2-S2-262K26,2,161,AS,exp,30,←,down,↓,0.7766293999738991,False,18,-1,1,2
Y2-S2-262K26,2,162,AS,exp,45,↓,down,↓,1.114674599841237,True,19,-1,0,2
Y2-S2-262K26,2,163,AS,exp,27,←,up,↑,1.2312921001575887,False,19,-1,0,2
Y2-S2-262K26,2,164,AS,exp,34,↑,up,↑,0.5680468999780715,True,20,-1,0,2
Y2-S2-262K26,2,165,AS,exp,30,←,left,←,0.9635038999840617,True,20,-1,0,2
Y2-S2-262K26,2,166,AS,exp,47,→,right,→,0.5945316003635526,True,20,1,1,3
Y2-S2-262K26,2,167,AS,exp,34,↓,down,↓,0.5914686000905931,True,19,1,0,3
Y2-S2-262K26,2,168,AS,exp,41,→,right,→,0.6568327001295984,True,19,1,0,3
Y2-S2-262K26,2,169,AS,exp,38,↓,down,↓,1.052099300082773,True,19,1,0,3
Y2-S2-262K26,2,170,AS,exp,31,↑,right,→,0.6286265999078751,False,18,-1,1,4
Y2-S2-262K26,2,171,AS,exp,34,→,right,→,0.6298639997839928,True,19,-1,0,4
Y2-S2-262K26,2,172,AS,exp,27,↑,right,→,0.7096521998755634,False,19,-1,0,4
Y2-S2-262K26,2,173,AS,exp,40,←,left,←,0.8645351999439299,True,20,-1,0,4
Y2-S2-262K26,2,174,AS,exp,47,→,right,→,0.6378046995960176,True,20,-1,0,4
Y2-S2-262K26,2,175,AS,exp,39,↓,down,↓,0.503358599729836,True,20,1,1,5
Y2-S2-262K26,2,176,AS,exp,36,←,down,↓,0.8349417001008987,False,19,-1,1,6
Y2-S2-262K26,2,177,AS,exp,47,↑,up,↑,0.6937111001461744,True,20,-1,0,6
Y2-S2-262K26,2,178,AS,exp,28,←,left,←,0.6296823001466691,True,20,-1,0,6
Y2-S2-262K26,2,179,AS,exp,42,↑,up,↑,0.5837580999359488,True,20,1,1,7
Y2-S2-262K26,2,180,AS,exp,30,←,left,←,1.0875124000012875,True,19,1,0,7
Y2-S2-262K26,2,181,AS,exp,35,↑,up,↑,0.8269640998914838,True,19,1,0,7
Y2-S2-262K26,2,182,AS,exp,39,↓,down,↓,0.5505996998399496,True,19,1,0,7
Y2-S2-262K26,2,183,AS,exp,42,→,right,→,0.631175999995321,True,18,1,0,7
Y2-S2-262K26,2,184,AS,exp,47,←,left,←,1.0401377999223769,True,18,1,0,7
Y2-S2-262K26,2,185,AS,exp,48,→,up,↑,0.8788503999821842,False,18,-1,1,8
Y2-S2-262K26,2,186,AS,exp,43,↓,down,↓,0.5065268999896944,True,19,-1,0,8
Y2-S2-262K26,2,187,AS,exp,29,↑,up,↑,0.9644705001264811,True,19,-1,0,8
Y2-S2-262K26,2,188,AS,exp,37,↓,right,→,0.8884935001842678,False,19,-1,0,8
Y2-S2-262K26,2,189,AS,exp,28,→,right,→,0.5941868000663817,True,20,-1,0,8
Y2-S2-262K26,2,190,AS,exp,44,↑,up,↑,0.7684216001071036,True,20,-1,0,8
Y2-S2-262K26,2,191,AS,exp,30,↓,down,↓,0.5552857001312077,True,20,1,1,9
Y2-S2-262K26,2,192,AS,exp,39,→,right,→,0.7572718001902103,True,19,1,0,9
Y2-S2-262K26,2,193,AS,exp,47,←,left,←,0.7972411001101136,True,19,1,0,9
Y2-S2-262K26,2,194,AS,exp,40,↑,up,↑,0.6669872999191284,True,19,1,0,9
Y2-S2-262K26,2,195,AS,exp,37,↓,right,→,0.7141971001401544,False,18,-1,1,10
Y2-S2-262K26,2,196,AS,exp,42,↑,up,↑,0.5695944000035524,True,19,-1,0,10
Y2-S2-262K26,2,197,AS,exp,49,↓,down,↓,0.6690423996187747,True,19,-1,0,10
Y2-S2-262K26,2,198,AS,exp,41,↑,up,↑,0.5157858999446034,True,19,1,1,11
Y2-S2-262K26,2,199,AS,exp,38,←,down,↓,0.6212706002406776,False,18,-1,1,12
Y2-S2-262K26,2,200,AS,exp,43,→,right,→,0.7233279999345541,True,19,-1,0,12
Y2-S2-262K26,2,201,AS,exp,32,↑,down,↓,1.7104961997829378,False,19,-1,0,12
Y2-S2-262K26,2,202,AS,exp,40,←,left,←,0.7217995999380946,True,20,-1,0,12
Y2-S2-262K26,2,203,AS,exp,35,↓,up,↑,0.5985260996967554,False,20,-1,0,12
Y2-S2-262K26,2,204,AS,exp,46,←,right,→,0.7159289000555873,False,21,-1,0,12
Y2-S2-262K26,2,205,AS,exp,25,↓,down,↓,1.0493834000080824,True,22,-1,0,12
Y2-S2-262K26,2,206,AS,exp,46,→,right,→,0.818775000050664,True,22,-1,0,12
Y2-S2-262K26,2,207,AS,exp,25,←,left,←,0.5967969000339508,True,22,1,1,13
Y2-S2-262K26,2,208,AS,exp,34,→,left,←,1.1800752999261022,False,21,-1,1,14
Y2-S2-262K26,2,209,AS,exp,46,↓,down,↓,0.6842823000624776,True,22,-1,0,14
Y2-S2-262K26,2,210,AS,exp,50,↑,up,↑,0.5899277999997139,True,22,-1,0,14
Y2-S2-262K26,2,211,AS,exp,47,→,right,→,0.6882119998335838,True,22,1,1,15
Y2-S2-262K26,2,212,AS,exp,44,↑,up,↑,0.5641183997504413,True,21,1,0,15
Y2-S2-262K26,2,213,AS,exp,33,→,right,→,0.7067690002731979,True,21,1,0,15
Y2-S2-262K26,2,214,AS,exp,36,↓,down,↓,0.8299921001307666,True,21,1,0,15
Y2-S2-262K26,2,215,AS,exp,39,↑,up,↑,0.924465199932456,True,20,1,0,15
Y2-S2-262K26,2,216,AS,exp,26,←,left,←,0.6171425003558397,True,20,1,0,15
Y2-S2-262K26,2,217,AS,exp,34,↓,down,↓,0.5759303998202085,True,20,1,0,15
Y2-S2-262K26,2,218,AS,exp,35,→,right,→,0.6451339996419847,True,19,1,0,15
Y2-S2-262K26,2,219,AS,exp,32,↓,up,↑,0.9011555998586118,False,19,-1,1,16
Y2-S2-262K26,3,220,AS,intra_train,42,↑,up,↑,0.5173209998756647,True,28,-,-,-
Y2-S2-262K26,3,221,AS,intra_train,44,←,left,←,0.938738000113517,True,28,-,-,-
Y2-S2-262K26,3,222,AS,intra_train,43,↓,down,↓,0.7113478002138436,True,28,-,-,-
Y2-S2-262K26,3,223,AS,intra_train,49,↑,up,↑,1.35876559978351,True,28,-,-,-
Y2-S2-262K26,3,224,AS,intra_train,43,↓,down,↓,0.7767260000109673,True,28,-,-,-
Y2-S2-262K26,3,225,AS,exp,43,←,up,↑,0.5786552997305989,False,19,-1,0,0
Y2-S2-262K26,3,226,AS,exp,47,↑,up,↑,0.8030988997779787,True,20,-1,0,0
Y2-S2-262K26,3,227,AS,exp,41,→,right,→,0.5459043001756072,True,20,-1,0,0
Y2-S2-262K26,3,228,AS,exp,41,↑,down,↓,0.8412615996785462,False,20,-1,0,0
Y2-S2-262K26,3,229,AS,exp,29,→,right,→,0.7368411999195814,True,21,-1,0,0
Y2-S2-262K26,3,230,AS,exp,30,←,right,→,0.5418249000795186,False,21,-1,0,0
Y2-S2-262K26,3,231,AS,exp,48,→,right,→,0.5587162002921104,True,22,-1,0,0
Y2-S2-262K26,3,232,AS,exp,44,↓,down,↓,1.751300500240177,True,22,-1,0,0
Y2-S2-262K26,3,233,AS,exp,28,←,left,←,0.5601130002178252,True,22,1,1,1
Y2-S2-262K26,3,234,AS,exp,41,↓,down,↓,0.6464971001259983,True,21,1,0,1
Y2-S2-262K26,3,235,AS,exp,39,↑,up,↑,1.3982837996445596,True,21,1,0,1
Y2-S2-262K26,3,236,AS,exp,36,→,right,→,0.521627000067383,True,21,1,0,1
Y2-S2-262K26,3,237,AS,exp,35,↑,up,↑,0.5090956999920309,True,20,1,0,1
Y2-S2-262K26,3,238,AS,exp,45,↓,down,↓,0.5038995002396405,True,20,1,0,1
Y2-S2-262K26,3,239,AS,exp,40,←,left,←,0.788062599953264,True,20,1,0,1
Y2-S2-262K26,3,240,AS,exp,41,↑,down,↓,0.4969091000966728,False,19,-1,1,2
Y2-S2-262K26,3,241,AS,exp,50,←,left,←,0.5343944001942873,True,20,-1,0,2
Y2-S2-262K26,3,242,AS,exp,50,→,right,→,0.565189499873668,True,20,-1,0,2
Y2-S2-262K26,3,243,AS,exp,43,↓,up,↑,0.8976921001449227,False,20,-1,0,2
Y2-S2-262K26,3,244,AS,exp,40,→,down,↓,0.843618500046432,False,21,-1,0,2
Y2-S2-262K26,3,245,AS,exp,43,↓,right,→,0.6365168998017907,False,22,-1,0,2
Y2-S2-262K26,3,246,AS,exp,27,→,right,→,0.705549799837172,True,23,-1,0,2
Y2-S2-262K26,3,247,AS,exp,47,↓,down,↓,0.5165862999856472,True,23,-1,0,2
Y2-S2-262K26,3,248,AS,exp,39,→,right,→,1.3035504999570549,True,23,1,1,3
Y2-S2-262K26,3,249,AS,exp,36,←,left,←,0.5644124997779727,True,22,1,0,3
Y2-S2-262K26,3,250,AS,exp,32,↑,up,↑,0.7212425000034273,True,22,1,0,3
Y2-S2-262K26,3,251,AS,exp,36,←,left,←,0.46728029986843467,True,22,1,0,3
Y2-S2-262K26,3,252,AS,exp,40,↑,up,↑,0.7321172999218106,True,21,1,0,3
Y2-S2-262K26,3,253,AS,exp,31,→,down,↓,0.8803914999589324,False,21,-1,1,4
Y2-S2-262K26,3,254,AS,exp,46,↑,up,↑,0.7751114997081459,True,22,-1,0,4
Y2-S2-262K26,3,255,AS,exp,45,→,right,→,0.7145205000415444,True,22,-1,0,4
Y2-S2-262K26,3,256,AS,exp,44,↓,right,→,0.6381496000103652,False,22,-1,0,4
Y2-S2-262K26,3,257,AS,exp,39,→,right,→,0.5544684999622405,True,23,-1,0,4
Y2-S2-262K26,3,258,AS,exp,40,↑,up,↑,0.579451400320977,True,23,-1,0,4
Y2-S2-262K26,3,259,AS,exp,28,←,left,←,1.3876265999861062,True,23,1,1,5
Y2-S2-262K26,3,260,AS,exp,39,↓,down,↓,0.7334696999751031,True,22,1,0,5
Y2-S2-262K26,3,261,AS,exp,34,←,left,←,0.9630920998752117,True,22,1,0,5
Y2-S2-262K26,3,262,AS,exp,44,↑,up,↑,0.483965499792248,True,22,1,0,5
Y2-S2-262K26,3,263,AS,exp,45,→,left,←,1.0640892996452749,False,21,-1,1,6
Y2-S2-262K26,3,264,AS,exp,40,←,left,←,0.8653497998602688,True,22,-1,0,6
Y2-S2-262K26,3,265,AS,exp,32,→,right,→,0.630776199977845,True,22,-1,0,6
Y2-S2-262K26,3,266,AS,exp,39,↑,up,↑,0.6617250996641815,True,22,1,1,7
Y2-S2-262K26,3,267,AS,exp,50,→,right,→,0.6031818999908864,True,21,1,0,7
Y2-S2-262K26,3,268,AS,exp,29,←,left,←,1.0820093997754157,True,21,1,0,7
Y2-S2-262K26,3,269,AS,exp,35,↑,up,↑,1.693197200074792,True,21,1,0,7
Y2-S2-262K26,3,270,AS,exp,49,→,right,→,0.5835286998189986,True,20,1,0,7
Y2-S2-262K26,3,271,AS,exp,43,↑,up,↑,0.8869849997572601,True,20,1,0,7
Y2-S2-262K26,3,272,AS,exp,32,↓,up,↑,0.6833397001028061,False,20,-1,1,8
Y2-S2-262K26,3,273,AS,exp,42,→,right,→,0.6891157999634743,True,21,-1,0,8
Y2-S2-262K26,3,274,AS,exp,41,↓,down,↓,0.5415751999244094,True,21,-1,0,8
Y2-S2-262K26,3,275,AS,exp,46,→,right,→,0.6604182003065944,True,21,1,1,9
Y2-S2-262K26,3,276,AS,exp,39,←,left,←,0.5395879000425339,True,20,1,0,9
Y2-S2-262K26,3,277,AS,exp,38,↓,down,↓,0.5303952000103891,True,20,1,0,9
Y2-S2-262K26,3,278,AS,exp,43,→,right,→,0.5264278999529779,True,20,1,0,9
Y2-S2-262K26,3,279,AS,exp,33,←,left,←,1.0175967002287507,True,19,1,0,9
Y2-S2-262K26,3,280,AS,exp,43,→,right,→,0.6187187000177801,True,19,1,0,9
Y2-S2-262K26,3,281,AS,exp,46,↑,right,→,0.6230807998217642,False,19,-1,1,10
Y2-S2-262K26,3,282,AS,exp,48,↓,up,↑,0.8845429001376033,False,20,-1,0,10
Y2-S2-262K26,3,283,AS,exp,39,→,right,→,0.8108944999985397,True,21,-1,0,10
Y2-S2-262K26,3,284,AS,exp,40,←,right,→,0.41728980001062155,False,21,-1,0,10
Y2-S2-262K26,3,285,AS,exp,39,↓,down,↓,0.6440248000435531,True,22,-1,0,10
Y2-S2-262K26,3,286,AS,exp,47,→,right,→,0.638624900020659,True,22,-1,0,10
Y2-S2-262K26,3,287,AS,exp,26,↓,right,→,0.5918421000242233,False,22,-1,0,10
Y2-S2-262K26,3,288,AS,exp,37,←,left,←,0.646736599970609,True,23,-1,0,10
Y2-S2-262K26,3,289,AS,exp,42,↑,up,↑,0.5172425000928342,True,23,-1,0,10
Y2-S2-262K26,3,290,AS,exp,28,↓,down,↓,0.5545585001818836,True,23,1,1,11
Y2-S2-262K26,3,291,AS,exp,34,←,left,←,0.8974997000768781,True,22,1,0,11
Y2-S2-262K26,3,292,AS,exp,45,↑,up,↑,0.6711699003353715,True,22,1,0,11
Y2-S2-262K26,3,293,AS,exp,37,↓,down,↓,0.6098399003967643,True,22,1,0,11
Y2-S2-262K26,3,294,AS,exp,43,↑,up,↑,0.8822928997687995,True,21,1,0,11
Y2-S2-262K26,3,295,AS,exp,48,↓,down,↓,0.8116648998111486,True,21,1,0,11
Y2-S2-262K26,3,296,AS,exp,46,→,right,→,0.9312932998873293,True,21,1,0,11
Y2-S2-262K26,3,297,AS,exp,35,↑,up,↑,0.7835280001163483,True,20,1,0,11
Y2-S2-262K26,3,298,AS,exp,33,→,left,←,0.7918106000870466,False,20,-1,1,12
Y2-S2-262K26,3,299,AS,exp,50,←,left,←,0.8209816003218293,True,21,-1,0,12
Y2-S2-262K26,3,300,AS,exp,42,→,right,→,0.638866700232029,True,21,-1,0,12
Y2-S2-262K26,3,301,AS,exp,34,↓,down,↓,0.6997702997177839,True,21,1,1,13
Y2-S2-262K26,3,302,AS,exp,27,↑,up,↑,0.5304080997593701,True,20,1,0,13
Y2-S2-262K26,3,303,AS,exp,25,←,left,←,0.7326954999007285,True,20,1,0,13
Y2-S2-262K26,3,304,AS,exp,36,→,right,→,0.7499762000516057,True,20,1,0,13
Y2-S2-262K26,3,305,AS,exp,47,↓,down,↓,0.8276885999366641,True,19,1,0,13
Y2-S2-262K26,3,306,AS,exp,42,→,right,→,0.7305434998124838,True,19,1,0,13
Y2-S2-262K26,3,307,AS,exp,37,←,left,←,0.782139700371772,True,19,1,0,13
Y2-S2-262K26,3,308,AS,exp,30,↓,down,↓,0.5813141004182398,True,18,1,0,13
Y2-S2-262K26,3,309,AS,exp,32,→,right,→,0.6358849997632205,True,18,1,0,13
Y2-S2-262K26,3,310,AS,exp,49,↓,down,↓,0.6221708003431559,True,18,1,0,13
Y2-S2-262K26,3,311,AS,exp,42,↑,down,↓,0.9131609001196921,False,17,-1,1,14
Y2-S2-262K26,3,312,AS,exp,38,←,left,←,0.7906195996329188,True,18,-1,0,14
Y2-S2-262K26,3,313,AS,exp,39,↑,up,↑,0.6846386999823153,True,18,-1,0,14
Y2-S2-262K26,3,314,AS,exp,40,→,right,→,0.6528137000277638,True,18,1,1,15
Y2-S2-262K26,3,315,AS,exp,49,↑,up,↑,0.5357673997059464,True,17,1,0,15
Y2-S2-262K26,3,316,AS,exp,25,↓,down,↓,0.6173967001959682,True,17,1,0,15
Y2-S2-262K26,3,317,AS,exp,50,↑,up,↑,0.3842468997463584,True,17,1,0,15
Y2-S2-262K26,3,318,AS,exp,33,↓,right,→,0.4933782001025975,False,16,-1,1,16
Y2-S2-262K26,4,319,PS,intra_train,44,↑,up,↑,0.7652809000574052,True,13,-,-,-
Y2-S2-262K26,4,320,PS,intra_train,28,↓,down,↓,0.5849297000095248,True,13,-,-,-
Y2-S2-262K26,4,321,PS,intra_train,27,←,left,←,0.8426267998293042,True,13,-,-,-
Y2-S2-262K26,4,322,PS,intra_train,34,→,right,→,0.6445528999902308,True,13,-,-,-
Y2-S2-262K26,4,323,PS,intra_train,34,←,down,↓,1.3618703000247478,False,13,-,-,-
Y2-S2-262K26,4,324,PS,exp,38,→,right,→,0.5390061000362039,True,9,0,0,0
Y2-S2-262K26,4,325,PS,exp,46,←,left,←,0.780751199927181,True,9,0,0,0
Y2-S2-262K26,4,326,PS,exp,40,→,right,→,0.4699850999750197,True,9,1,0,0
Y2-S2-262K26,4,327,PS,exp,37,←,up,↑,0.8365886001847684,False,8,-1,1,1
Y2-S2-262K26,4,328,PS,exp,42,↑,up,↑,0.6678126999177039,True,9,-1,0,1
Y2-S2-262K26,4,329,PS,exp,46,←,left,←,0.5620169001631439,True,9,-1,0,1
Y2-S2-262K26,4,330,PS,exp,29,↓,down,↓,0.6094745001755655,True,9,1,1,2
Y2-S2-262K26,4,331,PS,exp,27,→,right,→,0.5471981996670365,True,8,1,0,2
Y2-S2-262K26,4,332,PS,exp,42,↓,down,↓,0.796108900103718,True,8,1,0,2
Y2-S2-262K26,4,333,PS,exp,36,↑,up,↑,0.6416747001931071,True,8,1,0,2
Y2-S2-262K26,4,334,PS,exp,45,←,up,↑,0.6596691999584436,False,7,-1,1,3
Y2-S2-262K26,4,335,PS,exp,39,↑,right,→,0.5029547000303864,False,8,-1,0,3
Y2-S2-262K26,4,336,PS,exp,42,→,right,→,0.46054380014538765,True,9,-1,0,3
Y2-S2-262K26,4,337,PS,exp,33,↓,up,↑,0.47354769986122847,False,9,-1,0,3
Y2-S2-262K26,4,338,PS,exp,33,↑,left,←,0.6504291999153793,False,10,-1,0,3
Y2-S2-262K26,4,339,PS,exp,44,↓,down,↓,0.5822870996780694,True,11,-1,0,3
Y2-S2-262K26,4,340,PS,exp,50,←,left,←,0.5202291999012232,True,11,-1,0,3
Y2-S2-262K26,4,341,PS,exp,27,↓,down,↓,0.6366396998055279,True,11,1,1,4
Y2-S2-262K26,4,342,PS,exp,43,→,right,→,0.5460231998004019,True,10,1,0,4
Y2-S2-262K26,4,343,PS,exp,37,↑,up,↑,0.6839116001501679,True,10,1,0,4
Y2-S2-262K26,4,344,PS,exp,50,↓,down,↓,0.4626322998665273,True,10,1,0,4
Y2-S2-262K26,4,345,PS,exp,47,↑,down,↓,0.6136713000014424,False,9,-1,1,5
Y2-S2-262K26,4,346,PS,exp,45,→,up,↑,0.43035379983484745,False,10,-1,0,5
Y2-S2-262K26,4,347,PS,exp,36,←,no_key,no_letter,-1.0,False,11,-1,0,5
Y2-S2-262K26,4,348,PS,exp,31,→,right,→,0.7065987000241876,True,12,-1,0,5
Y2-S2-262K26,4,349,PS,exp,48,↑,down,↓,0.9630811000242829,False,12,-1,0,5
Y2-S2-262K26,4,350,PS,exp,33,↓,left,←,0.6059253998100758,False,13,-1,0,5
Y2-S2-262K26,4,351,PS,exp,42,←,left,←,0.49984609987586737,True,14,-1,0,5
Y2-S2-262K26,4,352,PS,exp,45,→,right,→,0.5752166998572648,True,14,-1,0,5
Y2-S2-262K26,4,353,PS,exp,28,←,right,→,0.4721136000007391,False,14,-1,0,5
Y2-S2-262K26,4,354,PS,exp,42,↓,right,→,0.4957928000949323,False,15,-1,0,5
Y2-S2-262K26,4,355,PS,exp,37,←,right,→,0.6306055001914501,False,16,-1,0,5
Y2-S2-262K26,4,356,PS,exp,39,↓,down,↓,0.5752065000124276,True,17,-1,0,5
Y2-S2-262K26,4,357,PS,exp,29,←,left,←,1.0195515998639166,True,17,-1,0,5
Y2-S2-262K26,4,358,PS,exp,49,↑,up,↑,0.49818050023168325,True,17,1,1,6
Y2-S2-262K26,4,359,PS,exp,41,↓,left,←,0.44427069975063205,False,16,-1,1,7
Y2-S2-262K26,4,360,PS,exp,28,→,right,→,0.671261599753052,True,17,-1,0,7
Y2-S2-262K26,4,361,PS,exp,42,↑,up,↑,0.6829242003150284,True,17,-1,0,7
Y2-S2-262K26,4,362,PS,exp,35,←,left,←,0.5796675998717546,True,17,1,1,8
Y2-S2-262K26,4,363,PS,exp,36,→,right,→,0.6381393000483513,True,16,1,0,8
Y2-S2-262K26,4,364,PS,exp,42,←,left,←,1.3057297999039292,True,16,1,0,8
Y2-S2-262K26,4,365,PS,exp,33,↑,up,↑,0.902677200268954,True,16,1,0,8
Y2-S2-262K26,4,366,PS,exp,43,→,right,→,0.47399509977549314,True,15,1,0,8
Y2-S2-262K26,4,367,PS,exp,32,↓,down,↓,0.6925800000317395,True,15,1,0,8
Y2-S2-262K26,4,368,PS,exp,49,↑,up,↑,0.7345574996434152,True,15,1,0,8
Y2-S2-262K26,4,369,PS,exp,43,↓,down,↓,0.5223582000471652,True,14,1,0,8
Y2-S2-262K26,4,370,PS,exp,44,↑,up,↑,0.7158462000079453,True,14,1,0,8
Y2-S2-262K26,4,371,PS,exp,49,→,right,→,0.5043695000931621,True,14,1,0,8
Y2-S2-262K26,4,372,PS,exp,35,←,left,←,0.7972769001498818,True,13,1,0,8
Y2-S2-262K26,4,373,PS,exp,25,↓,down,↓,0.500278000254184,True,13,1,0,8
Y2-S2-262K26,4,374,PS,exp,48,←,left,←,0.5530976001173258,True,13,1,0,8
Y2-S2-262K26,4,375,PS,exp,32,↑,up,↑,0.5409312997944653,True,12,1,0,8
Y2-S2-262K26,4,376,PS,exp,49,←,left,←,0.7861342001706362,True,12,1,0,8
Y2-S2-262K26,4,377,PS,exp,42,↑,up,↑,0.494285199791193,True,12,1,0,8
Y2-S2-262K26,4,378,PS,exp,31,←,up,↑,1.1388671998865902,False,11,-1,1,9
Y2-S2-262K26,4,379,PS,exp,32,→,right,→,0.5326044000685215,True,12,-1,0,9
Y2-S2-262K26,4,380,PS,exp,31,←,left,←,0.8862478998489678,True,12,-1,0,9
Y2-S2-262K26,4,381,PS,exp,48,↑,up,↑,0.5309747997671366,True,12,1,1,10
Y2-S2-262K26,4,382,PS,exp,48,←,left,←,0.6900798003189266,True,11,1,0,10
Y2-S2-262K26,4,383,PS,exp,42,↑,up,↑,0.5448742001317441,True,11,1,0,10
Y2-S2-262K26,4,384,PS,exp,31,→,right,→,0.6194186001084745,True,11,1,0,10
Y2-S2-262K26,4,385,PS,exp,33,↓,right,→,0.6201565996743739,False,10,-1,1,11
Y2-S2-262K26,4,386,PS,exp,45,←,left,←,0.6050467998720706,True,11,-1,0,11
Y2-S2-262K26,4,387,PS,exp,25,↓,down,↓,0.6081868996843696,True,11,-1,0,11
Y2-S2-262K26,4,388,PS,exp,32,→,right,→,0.596450800076127,True,11,1,1,12
Y2-S2-262K26,4,389,PS,exp,44,←,left,←,0.5376988998614252,True,10,1,0,12
Y2-S2-262K26,4,390,PS,exp,32,↑,right,→,0.5010349997319281,False,10,-1,1,13
Y2-S2-262K26,4,391,PS,exp,39,↓,up,↑,0.652989000082016,False,11,-1,0,13
Y2-S2-262K26,4,392,PS,exp,33,↑,up,↑,0.5306019000709057,True,12,-1,0,13
Y2-S2-262K26,4,393,PS,exp,39,→,right,→,0.6302225003018975,True,12,-1,0,13
Y2-S2-262K26,4,394,PS,exp,28,↑,down,↓,0.6733936001546681,False,12,-1,0,13
Y2-S2-262K26,4,395,PS,exp,48,←,down,↓,0.5508407996967435,False,13,-1,0,13
Y2-S2-262K26,4,396,PS,exp,45,→,up,↑,0.573286300059408,False,14,-1,0,13
Y2-S2-262K26,4,397,PS,exp,36,↑,up,↑,0.6382891000248492,True,15,-1,0,13
Y2-S2-262K26,4,398,PS,exp,27,↓,right,→,0.5242139999754727,False,15,-1,0,13
Y2-S2-262K26,4,399,PS,exp,29,←,up,↑,0.8566936999559402,False,16,-1,0,13
Y2-S2-262K26,4,400,PS,exp,40,↓,down,↓,0.5264593996107578,True,17,-1,0,13
Y2-S2-262K26,4,401,PS,exp,28,↑,down,↓,0.8889005002565682,False,17,-1,0,13
Y2-S2-262K26,4,402,PS,exp,34,→,right,→,0.5874348003417253,True,18,-1,0,13
Y2-S2-262K26,4,403,PS,exp,28,←,right,→,0.6017561997286975,False,18,-1,0,13
Y2-S2-262K26,4,404,PS,exp,49,↑,up,↑,0.5793507001362741,True,19,-1,0,13
Y2-S2-262K26,4,405,PS,exp,29,↓,down,↓,1.2653437000699341,True,19,-1,0,13
Y2-S2-262K26,4,406,PS,exp,34,↑,up,↑,0.6938952002674341,True,19,1,1,14
Y2-S2-262K26,4,407,PS,exp,36,→,right,→,0.6199764995835721,True,18,1,0,14
Y2-S2-262K26,4,408,PS,exp,42,↑,up,↑,0.6663905000314116,True,18,1,0,14
Y2-S2-262K26,4,409,PS,exp,40,←,left,←,0.66507099987939,True,18,1,0,14
Y2-S2-262K26,4,410,PS,exp,32,↓,left,←,1.1169459000229836,False,17,-1,1,15
Y2-S2-262K26,4,411,PS,exp,26,↑,up,↑,0.9647015002556145,True,18,-1,0,15
Y2-S2-262K26,4,412,PS,exp,25,←,down,↓,1.5748376999981701,False,18,-1,0,15
Y2-S2-262K26,4,413,PS,exp,26,↑,up,↑,0.7260565003380179,True,19,-1,0,15
Y2-S2-262K26,4,414,PS,exp,42,→,right,→,0.7635719999670982,True,19,-1,0,15
Y2-S2-262K26,4,415,PS,exp,40,↓,down,↓,0.5180310998111963,True,19,1,1,16
Y2-S2-262K26,5,416,PS,intra_train,45,←,left,←,0.963482900056988,True,13,-,-,-
Y2-S2-262K26,5,417,PS,intra_train,33,↓,down,↓,0.5584721998311579,True,13,-,-,-
Y2-S2-262K26,5,418,PS,intra_train,37,→,right,→,0.5074256998486817,True,13,-,-,-
Y2-S2-262K26,5,419,PS,intra_train,26,↓,down,↓,0.607226500287652,True,13,-,-,-
Y2-S2-262K26,5,420,PS,intra_train,32,→,right,→,0.4612718001008034,True,13,-,-,-
Y2-S2-262K26,5,421,PS,exp,34,↑,up,↑,0.5505915000103414,True,9,0,0,0
Y2-S2-262K26,5,422,PS,exp,43,↓,right,→,0.5268486002460122,False,9,-1,0,0
Y2-S2-262K26,5,423,PS,exp,40,↑,up,↑,0.7344700000248849,True,10,-1,0,0
Y2-S2-262K26,5,424,PS,exp,28,→,right,→,0.6394413998350501,True,10,-1,0,0
Y2-S2-262K26,5,425,PS,exp,41,↓,down,↓,0.4074659999459982,True,10,1,1,1
Y2-S2-262K26,5,426,PS,exp,39,↑,up,↑,0.6485349000431597,True,9,1,0,1
Y2-S2-262K26,5,427,PS,exp,44,→,right,→,0.5599282998591661,True,9,1,0,1
Y2-S2-262K26,5,428,PS,exp,38,←,left,←,0.7755781998857856,True,9,1,0,1
Y2-S2-262K26,5,429,PS,exp,31,↑,up,↑,0.5654005003161728,True,8,1,0,1
Y2-S2-262K26,5,430,PS,exp,49,←,right,→,0.5930929998867214,False,8,-1,1,2
Y2-S2-262K26,5,431,PS,exp,36,→,right,→,0.44711720012128353,True,9,-1,0,2
Y2-S2-262K26,5,432,PS,exp,47,←,left,←,0.6640067002736032,True,9,-1,0,2
Y2-S2-262K26,5,433,PS,exp,33,→,left,←,0.8975729998201132,False,9,-1,0,2
Y2-S2-262K26,5,434,PS,exp,26,↑,up,↑,0.5295104999095201,True,10,-1,0,2
Y2-S2-262K26,5,435,PS,exp,37,→,right,→,0.6222880999557674,True,10,-1,0,2
Y2-S2-262K26,5,436,PS,exp,45,↓,down,↓,0.5428980002179742,True,10,1,1,3
Y2-S2-262K26,5,437,PS,exp,36,←,left,←,0.5034652999602258,True,9,1,0,3
Y2-S2-262K26,5,438,PS,exp,31,↓,left,←,0.8613978996872902,False,9,-1,1,4
Y2-S2-262K26,5,439,PS,exp,32,↑,up,↑,0.5585711998865008,True,10,-1,0,4
Y2-S2-262K26,5,440,PS,exp,35,←,right,→,0.5203434000723064,False,10,-1,0,4
Y2-S2-262K26,5,441,PS,exp,36,→,right,→,0.6487680999562144,True,11,-1,0,4
Y2-S2-262K26,5,442,PS,exp,27,↓,left,←,0.7721103997901082,False,11,-1,0,4
Y2-S2-262K26,5,443,PS,exp,44,←,left,←,0.5727619002573192,True,12,-1,0,4
Y2-S2-262K26,5,444,PS,exp,43,↑,up,↑,0.6826779004186392,True,12,-1,0,4
Y2-S2-262K26,5,445,PS,exp,35,↓,down,↓,0.5250299000181258,True,12,1,1,5
Y2-S2-262K26,5,446,PS,exp,49,→,up,↑,0.5806555999442935,False,11,-1,1,6
Y2-S2-262K26,5,447,PS,exp,30,←,left,←,0.5896875998005271,True,12,-1,0,6
Y2-S2-262K26,5,448,PS,exp,28,↑,right,→,0.524265400134027,False,12,-1,0,6
Y2-S2-262K26,5,449,PS,exp,43,→,left,←,0.4461071998812258,False,13,-1,0,6
Y2-S2-262K26,5,450,PS,exp,33,←,right,→,0.6761011001653969,False,14,-1,0,6
Y2-S2-262K26,5,451,PS,exp,38,↓,down,↓,0.5847578002139926,True,15,-1,0,6
Y2-S2-262K26,5,452,PS,exp,30,→,right,→,0.6169630000367761,True,15,-1,0,6
Y2-S2-262K26,5,453,PS,exp,49,↑,up,↑,0.5613078000023961,True,15,1,1,7
Y2-S2-262K26,5,454,PS,exp,40,↓,left,←,0.6699763000942767,False,14,-1,1,8
Y2-S2-262K26,5,455,PS,exp,39,→,right,→,0.5273986998945475,True,15,-1,0,8
Y2-S2-262K26,5,456,PS,exp,27,↑,up,↑,0.5310133998282254,True,15,-1,0,8
Y2-S2-262K26,5,457,PS,exp,42,↓,down,↓,0.5812558000907302,True,15,1,1,9
Y2-S2-262K26,5,458,PS,exp,37,↑,right,→,0.5830907002091408,False,14,-1,1,10
Y2-S2-262K26,5,459,PS,exp,44,→,down,↓,0.36735899979248643,False,15,-1,0,10
Y2-S2-262K26,5,460,PS,exp,29,←,left,←,0.6890524001792073,True,16,-1,0,10
Y2-S2-262K26,5,461,PS,exp,48,↓,right,→,0.7229438000358641,False,16,-1,0,10
Y2-S2-262K26,5,462,PS,exp,26,↑,left,←,0.3675216999836266,False,17,-1,0,10
Y2-S2-262K26,5,463,PS,exp,26,←,right,→,0.6923802997916937,False,18,-1,0,10
Y2-S2-262K26,5,464,PS,exp,44,↑,right,→,1.4111189995892346,False,19,-1,0,10
Y2-S2-262K26,5,465,PS,exp,32,↓,down,↓,0.5778431002981961,True,20,-1,0,10
Y2-S2-262K26,5,466,PS,exp,38,→,right,→,1.18436190020293,True,20,-1,0,10
Y2-S2-262K26,5,467,PS,exp,50,↓,down,↓,0.7421883000060916,True,20,1,1,11
Y2-S2-262K26,5,468,PS,exp,35,↑,up,↑,0.5386705999262631,True,19,1,0,11
Y2-S2-262K26,5,469,PS,exp,31,↓,down,↓,0.5001650997437537,True,19,1,0,11
Y2-S2-262K26,5,470,PS,exp,47,↑,down,↓,0.4507511002011597,False,19,-1,1,12
Y2-S2-262K26,5,471,PS,exp,40,↓,down,↓,0.6268704999238253,True,20,-1,0,12
Y2-S2-262K26,5,472,PS,exp,25,→,right,→,0.8284423998557031,True,20,-1,0,12
Y2-S2-262K26,5,473,PS,exp,33,←,left,←,0.5529695996083319,True,20,1,1,13
Y2-S2-262K26,5,474,PS,exp,42,↑,up,↑,0.572229000274092,True,19,1,0,13
Y2-S2-262K26,5,475,PS,exp,45,→,right,→,0.6195767000317574,True,19,1,0,13
Y2-S2-262K26,5,476,PS,exp,44,↑,right,→,0.5391491996124387,False,19,-1,1,14
Y2-S2-262K26,5,477,PS,exp,42,←,left,←,1.038300100248307,True,20,-1,0,14
Y2-S2-262K26,5,478,PS,exp,43,↓,down,↓,1.2077816003002226,True,20,-1,0,14
Y2-S2-262K26,5,479,PS,exp,28,↑,down,↓,0.5125283002853394,False,20,-1,0,14
Y2-S2-262K26,5,480,PS,exp,34,→,right,→,0.566138599999249,True,21,-1,0,14
Y2-S2-262K26,5,481,PS,exp,42,←,left,←,1.0589168998412788,True,21,-1,0,14
Y2-S2-262K26,5,482,PS,exp,34,↑,up,↑,1.1063720998354256,True,21,1,1,15
Y2-S2-262K26,5,483,PS,exp,28,↓,down,↓,0.5293744001537561,True,20,1,0,15
Y2-S2-262K26,5,484,PS,exp,48,↑,up,↑,0.6449541002511978,True,20,1,0,15
Y2-S2-262K26,5,485,PS,exp,31,↓,down,↓,0.4673409997485578,True,20,1,0,15
Y2-S2-262K26,5,486,PS,exp,48,↑,up,↑,0.6195391998626292,True,19,1,0,15
Y2-S2-262K26,5,487,PS,exp,37,→,right,→,0.7136964001692832,True,19,1,0,15
Y2-S2-262K26,5,488,PS,exp,32,↓,down,↓,1.0098423999734223,True,19,1,0,15
Y2-S2-262K26,5,489,PS,exp,50,←,left,←,0.6330804000608623,True,18,1,0,15
Y2-S2-262K26,5,490,PS,exp,46,→,right,→,0.5975070996209979,True,18,1,0,15
Y2-S2-262K26,5,491,PS,exp,31,↓,down,↓,0.5378439999185503,True,18,1,0,15
Y2-S2-262K26,5,492,PS,exp,30,↑,up,↑,0.5195051999762654,True,17,1,0,15
Y2-S2-262K26,5,493,PS,exp,29,↓,down,↓,0.6825695000588894,True,17,1,0,15
Y2-S2-262K26,5,494,PS,exp,27,→,right,→,0.6347203999757767,True,17,1,0,15
Y2-S2-262K26,5,495,PS,exp,42,↓,down,↓,0.6004618997685611,True,16,1,0,15
Y2-S2-262K26,5,496,PS,exp,48,→,right,→,0.7162537998519838,True,16,1,0,15
Y2-S2-262K26,5,497,PS,exp,48,↑,up,↑,1.0690508000552654,True,16,1,0,15
Y2-S2-262K26,5,498,PS,exp,30,→,right,→,0.7234302000142634,True,15,1,0,15
Y2-S2-262K26,5,499,PS,exp,31,↑,up,↑,0.7460990999825299,True,15,1,0,15
Y2-S2-262K26,5,500,PS,exp,39,→,right,→,0.48613600013777614,True,15,1,0,15
Y2-S2-262K26,5,501,PS,exp,36,↓,down,↓,0.7446801997721195,True,14,1,0,15
Y2-S2-262K26,5,502,PS,exp,30,↑,up,↑,0.7594885998405516,True,14,1,0,15
Y2-S2-262K26,5,503,PS,exp,43,→,right,→,0.624598499853164,True,14,1,0,15
Y2-S2-262K26,5,504,PS,exp,29,←,left,←,0.45416019996628165,True,13,1,0,15
Y2-S2-262K26,5,505,PS,exp,28,→,right,→,0.9663583999499679,True,13,1,0,15
Y2-S2-262K26,5,506,PS,exp,46,↓,down,↓,0.7370102000422776,True,13,1,0,15
Y2-S2-262K26,5,507,PS,exp,35,↑,up,↑,0.6512579000554979,True,12,1,0,15
Y2-S2-262K26,5,508,PS,exp,44,←,left,←,0.740310600027442,True,12,1,0,15
Y2-S2-262K26,5,509,PS,exp,45,→,right,→,1.1679614000022411,True,12,1,0,15
Y2-S2-262K26,5,510,PS,exp,40,↓,down,↓,0.6404222999699414,True,11,1,0,15
Y2-S2-262K26,5,511,PS,exp,38,←,left,←,0.9325627000071108,True,11,1,0,15
Y2-S2-262K26,5,512,PS,exp,50,→,down,↓,0.6748787998221815,False,11,-1,1,16
Y2-S2-262K26,6,513,AS,intra_train,44,↑,up,↑,1.5073343999683857,True,28,-,-,-
Y2-S2-262K26,6,514,AS,intra_train,44,↓,down,↓,0.5839390000328422,True,28,-,-,-
Y2-S2-262K26,6,515,AS,intra_train,50,←,down,↓,0.5507539003156126,False,28,-,-,-
Y2-S2-262K26,6,516,AS,intra_train,32,↓,down,↓,0.8907368998043239,True,28,-,-,-
Y2-S2-262K26,6,517,AS,intra_train,42,↑,up,↑,1.3335219998843968,True,28,-,-,-
Y2-S2-262K26,6,518,AS,exp,28,→,right,→,0.7535368003882468,True,19,0,0,0
Y2-S2-262K26,6,519,AS,exp,46,↓,down,↓,0.635736099909991,True,19,0,0,0
Y2-S2-262K26,6,520,AS,exp,45,←,left,←,0.5684856004081666,True,19,1,0,0
Y2-S2-262K26,6,521,AS,exp,27,↓,down,↓,0.5930781001225114,True,18,1,0,0
Y2-S2-262K26,6,522,AS,exp,38,→,up,↑,0.9094417998567224,False,18,-1,1,1
Y2-S2-262K26,6,523,AS,exp,50,↓,down,↓,0.7054105997085571,True,19,-1,0,1
Y2-S2-262K26,6,524,AS,exp,41,→,right,→,1.03376720007509,True,19,-1,0,1
Y2-S2-262K26,6,525,AS,exp,34,←,left,←,1.035467299632728,True,19,1,1,2
Y2-S2-262K26,6,526,AS,exp,37,→,right,→,0.8534927000291646,True,18,1,0,2
Y2-S2-262K26,6,527,AS,exp,33,←,left,←,0.701116600073874,True,18,1,0,2
Y2-S2-262K26,6,528,AS,exp,37,↑,up,↑,0.5746531002223492,True,18,1,0,2
Y2-S2-262K26,6,529,AS,exp,47,↓,down,↓,0.6335904998704791,True,17,1,0,2
Y2-S2-262K26,6,530,AS,exp,50,↑,right,→,0.9300261996686459,False,17,-1,1,3
Y2-S2-262K26,6,531,AS,exp,25,↓,up,↑,0.9746228996664286,False,18,-1,0,3
Y2-S2-262K26,6,532,AS,exp,38,→,right,→,0.5810668999329209,True,19,-1,0,3
Y2-S2-262K26,6,533,AS,exp,47,←,left,←,0.6381375999189913,True,19,-1,0,3
Y2-S2-262K26,6,534,AS,exp,40,→,right,→,0.6310078999958932,True,19,1,1,4
Y2-S2-262K26,6,535,AS,exp,46,↑,up,↑,1.072728700004518,True,18,1,0,4
Y2-S2-262K26,6,536,AS,exp,37,←,left,←,0.6965982001274824,True,18,1,0,4
Y2-S2-262K26,6,537,AS,exp,45,↓,right,→,1.1493754000402987,False,18,-1,1,5
Y2-S2-262K26,6,538,AS,exp,34,→,right,→,0.5632853000424802,True,19,-1,0,5
Y2-S2-262K26,6,539,AS,exp,39,←,left,←,0.7806814997456968,True,19,-1,0,5
Y2-S2-262K26,6,540,AS,exp,46,→,down,↓,0.9749287995509803,False,19,-1,0,5
Y2-S2-262K26,6,541,AS,exp,49,←,left,←,0.7984440000727773,True,20,-1,0,5
Y2-S2-262K26,6,542,AS,exp,30,↓,right,→,0.7495745001360774,False,20,-1,0,5
Y2-S2-262K26,6,543,AS,exp,33,←,down,↓,1.0698072002269328,False,21,-1,0,5
Y2-S2-262K26,6,544,AS,exp,28,↑,up,↑,0.990181100089103,True,22,-1,0,5
Y2-S2-262K26,6,545,AS,exp,26,→,right,→,0.6214339002035558,True,22,-1,0,5
Y2-S2-262K26,6,546,AS,exp,42,←,up,↑,1.7934377999044955,False,22,-1,0,5
Y2-S2-262K26,6,547,AS,exp,25,→,right,→,0.6894459002651274,True,23,-1,0,5
Y2-S2-262K26,6,548,AS,exp,50,↑,up,↑,0.6222124001942575,True,23,-1,0,5
Y2-S2-262K26,6,549,AS,exp,44,↓,down,↓,0.5966012999415398,True,23,1,1,6
Y2-S2-262K26,6,550,AS,exp,32,↑,up,↑,0.7348154997453094,True,22,1,0,6
Y2-S2-262K26,6,551,AS,exp,27,←,left,←,0.8066209000535309,True,22,1,0,6
Y2-S2-262K26,6,552,AS,exp,27,↓,right,→,1.0258455998264253,False,22,-1,1,7
Y2-S2-262K26,6,553,AS,exp,29,→,right,→,0.8965222998522222,True,23,-1,0,7
Y2-S2-262K26,6,554,AS,exp,49,←,left,←,0.6694016000255942,True,23,-1,0,7
Y2-S2-262K26,6,555,AS,exp,35,→,right,→,0.5928738000802696,True,23,1,1,8
Y2-S2-262K26,6,556,AS,exp,35,↓,down,↓,0.467658500187099,True,22,1,0,8
Y2-S2-262K26,6,557,AS,exp,27,↑,up,↑,0.8885283996351063,True,22,1,0,8
Y2-S2-262K26,6,558,AS,exp,35,↓,right,→,0.6560174999758601,False,22,-1,1,9
Y2-S2-262K26,6,559,AS,exp,48,←,left,←,0.7466382002457976,True,23,-1,0,9
Y2-S2-262K26,6,560,AS,exp,45,↑,right,→,0.48396690003573895,False,23,-1,0,9
Y2-S2-262K26,6,561,AS,exp,29,↓,down,↓,0.9071467001922429,True,24,-1,0,9
Y2-S2-262K26,6,562,AS,exp,36,←,left,←,0.6939988997764885,True,24,-1,0,9
Y2-S2-262K26,6,563,AS,exp,27,↑,up,↑,0.5942351999692619,True,24,1,1,10
Y2-S2-262K26,6,564,AS,exp,42,↓,down,↓,0.8197275996208191,True,23,1,0,10
Y2-S2-262K26,6,565,AS,exp,39,↑,up,↑,0.6252538999542594,True,23,1,0,10
Y2-S2-262K26,6,566,AS,exp,39,←,down,↓,1.0543831000104547,False,23,-1,1,11
Y2-S2-262K26,6,567,AS,exp,25,↑,right,→,1.0858822003938258,False,24,-1,0,11
Y2-S2-262K26,6,568,AS,exp,36,→,right,→,0.6103805000893772,True,25,-1,0,11
Y2-S2-262K26,6,569,AS,exp,30,←,left,←,0.8919004001654685,True,25,-1,0,11
Y2-S2-262K26,6,570,AS,exp,38,↓,down,↓,0.7801473001018167,True,25,1,1,12
Y2-S2-262K26,6,571,AS,exp,50,→,right,→,0.8379342001862824,True,24,1,0,12
Y2-S2-262K26,6,572,AS,exp,25,←,left,←,1.0060681998729706,True,24,1,0,12
Y2-S2-262K26,6,573,AS,exp,40,→,right,→,0.5725857997313142,True,24,1,0,12
Y2-S2-262K26,6,574,AS,exp,39,↓,down,↓,0.8207493000663817,True,23,1,0,12
Y2-S2-262K26,6,575,AS,exp,46,←,left,←,0.6395209999755025,True,23,1,0,12
Y2-S2-262K26,6,576,AS,exp,44,→,right,→,0.7831928003579378,True,23,1,0,12
Y2-S2-262K26,6,577,AS,exp,45,←,right,→,0.5352217997424304,False,22,-1,1,13
Y2-S2-262K26,6,578,AS,exp,31,→,right,→,1.2771031996235251,True,23,-1,0,13
Y2-S2-262K26,6,579,AS,exp,44,↓,down,↓,1.3407116001471877,True,23,-1,0,13
Y2-S2-262K26,6,580,AS,exp,41,→,right,→,0.7015986000187695,True,23,1,1,14
Y2-S2-262K26,6,581,AS,exp,38,↓,down,↓,0.7764244000427425,True,22,1,0,14
Y2-S2-262K26,6,582,AS,exp,27,→,right,→,0.5339886001311243,True,22,1,0,14
Y2-S2-262K26,6,583,AS,exp,46,↑,up,↑,0.8116429001092911,True,22,1,0,14
Y2-S2-262K26,6,584,AS,exp,41,↓,down,↓,0.5486423000693321,True,21,1,0,14
Y2-S2-262K26,6,585,AS,exp,49,←,down,↓,0.6588838999159634,False,21,-1,1,15
Y2-S2-262K26,6,586,AS,exp,39,↓,right,→,0.5990395997650921,False,22,-1,0,15
Y2-S2-262K26,6,587,AS,exp,32,↑,up,↑,0.9441643003374338,True,23,-1,0,15
Y2-S2-262K26,6,588,AS,exp,49,↓,down,↓,0.6151912999339402,True,23,-1,0,15
Y2-S2-262K26,6,589,AS,exp,38,→,right,→,0.8385212998837233,True,23,1,1,16
Y2-S2-262K26,7,590,AS,intra_train,49,↑,up,↑,1.204613999929279,True,28,-,-,-
Y2-S2-262K26,7,591,AS,intra_train,27,←,left,←,0.6887125000357628,True,28,-,-,-
Y2-S2-262K26,7,592,AS,intra_train,31,↓,down,↓,0.7557961996644735,True,28,-,-,-
Y2-S2-262K26,7,593,AS,intra_train,50,←,left,←,0.836719200015068,True,28,-,-,-
Y2-S2-262K26,7,594,AS,intra_train,46,↓,down,↓,0.666344900149852,True,28,-,-,-
Y2-S2-262K26,7,595,AS,exp,35,↑,up,↑,0.903008300345391,True,19,0,0,0
Y2-S2-262K26,7,596,AS,exp,45,↓,down,↓,0.5943132997490466,True,19,0,0,0
Y2-S2-262K26,7,597,AS,exp,40,→,right,→,0.7764872997067869,True,19,1,0,0
Y2-S2-262K26,7,598,AS,exp,43,↓,up,↑,0.8267168002203107,False,18,-1,1,1
Y2-S2-262K26,7,599,AS,exp,37,↑,up,↑,1.2174543999135494,True,19,-1,0,1
Y2-S2-262K26,7,600,AS,exp,37,←,left,←,1.9312322000041604,True,19,-1,0,1
Y2-S2-262K26,7,601,AS,exp,47,→,down,↓,1.1312235002405941,False,19,-1,0,1
Y2-S2-262K26,7,602,AS,exp,29,↓,down,↓,0.7786806002259254,True,20,-1,0,1
Y2-S2-262K26,7,603,AS,exp,46,→,right,→,0.5850511998869479,True,20,-1,0,1
Y2-S2-262K26,7,604,AS,exp,25,↑,up,↑,1.5279260999523103,True,20,1,1,2
Y2-S2-262K26,7,605,AS,exp,34,↓,up,↑,1.1010848004370928,False,19,-1,1,3
Y2-S2-262K26,7,606,AS,exp,29,↑,up,↑,1.3572937999852002,True,20,-1,0,3
Y2-S2-262K26,7,607,AS,exp,44,↓,down,↓,0.8932311995886266,True,20,-1,0,3
Y2-S2-262K26,7,608,AS,exp,30,←,left,←,0.8679106999188662,True,20,1,1,4
Y2-S2-262K26,7,609,AS,exp,42,↓,down,↓,0.7541592000052333,True,19,1,0,4
Y2-S2-262K26,7,610,AS,exp,26,↑,down,↓,0.60475969966501,False,19,-1,1,5
Y2-S2-262K26,7,611,AS,exp,35,↓,down,↓,1.1475332998670638,True,20,-1,0,5
Y2-S2-262K26,7,612,AS,exp,28,→,right,→,0.9061096999794245,True,20,-1,0,5
Y2-S2-262K26,7,613,AS,exp,44,↓,up,↑,1.4277094001881778,False,20,-1,0,5
Y2-S2-262K26,7,614,AS,exp,39,→,right,→,0.9372497000731528,True,21,-1,0,5
Y2-S2-262K26,7,615,AS,exp,30,↑,up,↑,0.9986618002876639,True,21,-1,0,5
Y2-S2-262K26,7,616,AS,exp,40,→,right,→,0.8598738997243345,True,21,1,1,6
Y2-S2-262K26,7,617,AS,exp,36,↑,up,↑,1.5480701001361012,True,20,1,0,6
Y2-S2-262K26,7,618,AS,exp,43,←,left,←,1.0944515001028776,True,20,1,0,6
Y2-S2-262K26,7,619,AS,exp,50,↑,down,↓,1.6742189000360668,False,20,-1,1,7
Y2-S2-262K26,7,620,AS,exp,38,←,left,←,0.6006395998410881,True,21,-1,0,7
Y2-S2-262K26,7,621,AS,exp,28,↓,down,↓,0.7452239999547601,True,21,-1,0,7
Y2-S2-262K26,7,622,AS,exp,29,→,right,→,0.7006925996392965,True,21,1,1,8
Y2-S2-262K26,7,623,AS,exp,37,↑,up,↑,0.8864426002837718,True,20,1,0,8
Y2-S2-262K26,7,624,AS,exp,37,↓,down,↓,0.6449719001539052,True,20,1,0,8
Y2-S2-262K26,7,625,AS,exp,30,←,left,←,1.2430699998512864,True,20,1,0,8
Y2-S2-262K26,7,626,AS,exp,46,↑,up,↑,1.0669470001012087,True,19,1,0,8
Y2-S2-262K26,7,627,AS,exp,36,→,right,→,0.7149510001763701,True,19,1,0,8
Y2-S2-262K26,7,628,AS,exp,47,↑,up,↑,0.7822221997193992,True,19,1,0,8
Y2-S2-262K26,7,629,AS,exp,44,←,left,←,0.49012580001726747,True,18,1,0,8
Y2-S2-262K26,7,630,AS,exp,36,→,right,→,0.6927569997496903,True,18,1,0,8
Y2-S2-262K26,7,631,AS,exp,47,↓,up,↑,0.6979167996905744,False,18,-1,1,9
Y2-S2-262K26,7,632,AS,exp,27,→,right,→,0.7932502999901772,True,19,-1,0,9
Y2-S2-262K26,7,633,AS,exp,31,←,left,←,0.7276467001065612,True,19,-1,0,9
Y2-S2-262K26,7,634,AS,exp,28,↓,up,↑,0.8594869999215007,False,19,-1,0,9
Y2-S2-262K26,7,635,AS,exp,42,↑,down,↓,1.051403199788183,False,20,-1,0,9
Y2-S2-262K26,7,636,AS,exp,44,←,left,←,0.8247941001318395,True,21,-1,0,9
Y2-S2-262K26,7,637,AS,exp,42,↑,up,↑,0.9425225001759827,True,21,-1,0,9
Y2-S2-262K26,7,638,AS,exp,44,→,right,→,0.8181228996254504,True,21,1,1,10
Y2-S2-262K26,7,639,AS,exp,32,↓,down,↓,0.6262849997729063,True,20,1,0,10
Y2-S2-262K26,7,640,AS,exp,30,→,up,↑,1.4040445000864565,False,20,-1,1,11
Y2-S2-262K26,7,641,AS,exp,31,↓,down,↓,0.8070910000242293,True,21,-1,0,11
Y2-S2-262K26,7,642,AS,exp,30,←,down,↓,0.7930475999601185,False,21,-1,0,11
Y2-S2-262K26,7,643,AS,exp,39,↑,up,↑,1.059685599990189,True,22,-1,0,11
Y2-S2-262K26,7,644,AS,exp,33,→,right,→,0.6425135000608861,True,22,-1,0,11
Y2-S2-262K26,7,645,AS,exp,40,↓,down,↓,0.8247231002897024,True,22,1,1,12
Y2-S2-262K26,7,646,AS,exp,30,→,right,→,0.9450026000849903,True,21,1,0,12
Y2-S2-262K26,7,647,AS,exp,29,←,left,←,0.5290856999345124,True,21,1,0,12
Y2-S2-262K26,7,648,AS,exp,25,→,right,→,0.5577631997875869,True,21,1,0,12
Y2-S2-262K26,7,649,AS,exp,44,←,left,←,0.8120206999592483,True,20,1,0,12
Y2-S2-262K26,7,650,AS,exp,36,↑,up,↑,0.8877795999869704,True,20,1,0,12
Y2-S2-262K26,7,651,AS,exp,26,←,left,←,0.5822653002105653,True,20,1,0,12
Y2-S2-262K26,7,652,AS,exp,44,↓,up,↑,1.0739084002561867,False,19,-1,1,13
Y2-S2-262K26,7,653,AS,exp,35,→,right,→,0.6230200999416411,True,20,-1,0,13
Y2-S2-262K26,7,654,AS,exp,46,↓,down,↓,0.539002800360322,True,20,-1,0,13
Y2-S2-262K26,7,655,AS,exp,50,↑,up,↑,0.8174743996933103,True,20,1,1,14
Y2-S2-262K26,7,656,AS,exp,45,↓,down,↓,0.6592959999106824,True,19,1,0,14
Y2-S2-262K26,7,657,AS,exp,31,→,right,→,0.5120747000910342,True,19,1,0,14
Y2-S2-262K26,7,658,AS,exp,46,↓,down,↓,0.5818401002325118,True,19,1,0,14
Y2-S2-262K26,7,659,AS,exp,26,→,right,→,0.5927701001055539,True,18,1,0,14
Y2-S2-262K26,7,660,AS,exp,33,↓,down,↓,0.5525985998101532,True,18,1,0,14
Y2-S2-262K26,7,661,AS,exp,48,←,down,↓,0.9012747001834214,False,18,-1,1,15
Y2-S2-262K26,7,662,AS,exp,39,↓,down,↓,0.5148065001703799,True,19,-1,0,15
Y2-S2-262K26,7,663,AS,exp,35,↑,up,↑,0.7846721997484565,True,19,-1,0,15
Y2-S2-262K26,7,664,AS,exp,29,↓,up,↑,1.173203299753368,False,19,-1,0,15
Y2-S2-262K26,7,665,AS,exp,39,↑,down,↓,1.1103371996432543,False,20,-1,0,15
Y2-S2-262K26,7,666,AS,exp,50,↓,left,←,0.46712559973821044,False,21,-1,0,15
Y2-S2-262K26,7,667,AS,exp,44,↑,up,↑,0.8677043002098799,True,22,-1,0,15
Y2-S2-262K26,7,668,AS,exp,43,←,left,←,0.6077410001307726,True,22,-1,0,15
Y2-S2-262K26,7,669,AS,exp,32,↑,right,→,0.710642000194639,False,22,-1,0,15
Y2-S2-262K26,7,670,AS,exp,38,↓,down,↓,0.8954592999070883,True,23,-1,0,15
Y2-S2-262K26,7,671,AS,exp,38,→,right,→,0.8278586002998054,True,23,-1,0,15
Y2-S2-262K26,7,672,AS,exp,37,↑,up,↑,1.0830294997431338,True,23,1,1,16
Y2-S2-262K26,8,673,PS,intra_train,44,←,up,↑,1.3957813000306487,False,13,-,-,-
Y2-S2-262K26,8,674,PS,intra_train,43,↑,up,↑,0.9109181999228895,True,13,-,-,-
Y2-S2-262K26,8,675,PS,intra_train,33,→,right,→,0.7625863002613187,True,13,-,-,-
Y2-S2-262K26,8,676,PS,intra_train,46,↓,down,↓,0.6005166000686586,True,13,-,-,-
Y2-S2-262K26,8,677,PS,intra_train,44,↑,up,↑,0.5366412000730634,True,13,-,-,-
Y2-S2-262K26,8,678,PS,exp,36,→,right,→,0.6075773001648486,True,9,0,0,0
Y2-S2-262K26,8,679,PS,exp,29,↑,up,↑,0.567234399728477,True,9,0,0,0
Y2-S2-262K26,8,680,PS,exp,35,↓,right,→,0.5531712998636067,False,9,-1,0,0
Y2-S2-262K26,8,681,PS,exp,35,←,left,←,0.6493038004264235,True,10,-1,0,0
Y2-S2-262K26,8,682,PS,exp,49,↑,up,↑,0.7854799996130168,True,10,-1,0,0
Y2-S2-262K26,8,683,PS,exp,36,↓,down,↓,0.5192142999731004,True,10,1,1,1
Y2-S2-262K26,8,684,PS,exp,34,↑,up,↑,0.42925240006297827,True,9,1,0,1
Y2-S2-262K26,8,685,PS,exp,47,←,right,→,0.8413774003274739,False,9,-1,1,2
Y2-S2-262K26,8,686,PS,exp,37,→,right,→,0.5418702000752091,True,10,-1,0,2
Y2-S2-262K26,8,687,PS,exp,48,←,down,↓,0.7271540998481214,False,10,-1,0,2
Y2-S2-262K26,8,688,PS,exp,35,↓,down,↓,0.5760622001253068,True,11,-1,0,2
Y2-S2-262K26,8,689,PS,exp,50,→,right,→,0.5147019000723958,True,11,-1,0,2
Y2-S2-262K26,8,690,PS,exp,42,←,left,←,0.7459138999693096,True,11,1,1,3
Y2-S2-262K26,8,691,PS,exp,30,↓,down,↓,0.5963181997649372,True,10,1,0,3
Y2-S2-262K26,8,692,PS,exp,44,←,left,←,0.5723918001167476,True,10,1,0,3
Y2-S2-262K26,8,693,PS,exp,39,→,right,→,0.6145663000643253,True,10,1,0,3
Y2-S2-262K26,8,694,PS,exp,33,↓,down,↓,0.6317582000046968,True,9,1,0,3
Y2-S2-262K26,8,695,PS,exp,25,→,left,←,0.6977758998982608,False,9,-1,1,4
Y2-S2-262K26,8,696,PS,exp,50,↑,right,→,0.5506182000972331,False,10,-1,0,4
Y2-S2-262K26,8,697,PS,exp,43,←,left,←,0.8334094001911581,True,11,-1,0,4
Y2-S2-262K26,8,698,PS,exp,27,↓,down,↓,0.7147145001217723,True,11,-1,0,4
Y2-S2-262K26,8,699,PS,exp,50,→,right,→,0.6220611999742687,True,11,1,1,5
Y2-S2-262K26,8,700,PS,exp,35,←,left,←,0.8117813002318144,True,10,1,0,5
Y2-S2-262K26,8,701,PS,exp,27,→,right,→,0.5396806998178363,True,10,1,0,5
Y2-S2-262K26,8,702,PS,exp,30,←,left,←,0.6438245000317693,True,10,1,0,5
Y2-S2-262K26,8,703,PS,exp,45,↓,right,→,0.5522680999711156,False,9,-1,1,6
Y2-S2-262K26,8,704,PS,exp,28,→,up,↑,0.8065430000424385,False,10,-1,0,6
Y2-S2-262K26,8,705,PS,exp,33,←,left,←,0.7137400996871293,True,11,-1,0,6
Y2-S2-262K26,8,706,PS,exp,29,→,right,→,0.6337634003721178,True,11,-1,0,6
Y2-S2-262K26,8,707,PS,exp,49,←,left,←,0.5652994997799397,True,11,1,1,7
Y2-S2-262K26,8,708,PS,exp,26,↓,down,↓,0.630492000374943,True,10,1,0,7
Y2-S2-262K26,8,709,PS,exp,37,→,right,→,0.6420199000276625,True,10,1,0,7
Y2-S2-262K26,8,710,PS,exp,46,↑,up,↑,0.555201300419867,True,10,1,0,7
Y2-S2-262K26,8,711,PS,exp,32,→,right,→,0.5693773003295064,True,9,1,0,7
Y2-S2-262K26,8,712,PS,exp,32,←,up,↑,0.7056881999596953,False,9,-1,1,8
Y2-S2-262K26,8,713,PS,exp,48,↑,up,↑,0.5816342001780868,True,10,-1,0,8
Y2-S2-262K26,8,714,PS,exp,32,←,left,←,0.6366476002149284,True,10,-1,0,8
Y2-S2-262K26,8,715,PS,exp,28,→,right,→,0.6929516000673175,True,10,1,1,9
Y2-S2-262K26,8,716,PS,exp,29,←,left,←,1.0529816001653671,True,9,1,0,9
Y2-S2-262K26,8,717,PS,exp,43,↑,up,↑,0.5849814000539482,True,9,1,0,9
Y2-S2-262K26,8,718,PS,exp,39,→,right,→,0.5493870000354946,True,9,1,0,9
Y2-S2-262K26,8,719,PS,exp,50,↑,up,↑,0.49883250007405877,True,8,1,0,9
Y2-S2-262K26,8,720,PS,exp,46,←,left,←,0.6409761998802423,True,8,1,0,9
Y2-S2-262K26,8,721,PS,exp,29,↓,right,→,0.7404428003355861,False,8,-1,1,10
Y2-S2-262K26,8,722,PS,exp,26,←,up,↑,0.6874731001444161,False,9,-1,0,10
Y2-S2-262K26,8,723,PS,exp,38,→,right,→,0.6968880998902023,True,10,-1,0,10
Y2-S2-262K26,8,724,PS,exp,29,↑,left,←,0.8498996999114752,False,10,-1,0,10
Y2-S2-262K26,8,725,PS,exp,49,→,right,→,0.6079027997329831,True,11,-1,0,10
Y2-S2-262K26,8,726,PS,exp,32,↑,left,←,0.974927700124681,False,11,-1,0,10
Y2-S2-262K26,8,727,PS,exp,25,→,up,↑,0.6737867998890579,False,12,-1,0,10
Y2-S2-262K26,8,728,PS,exp,29,↑,left,←,0.4532821998000145,False,13,-1,0,10
Y2-S2-262K26,8,729,PS,exp,28,↓,left,←,0.905269299633801,False,14,-1,0,10
Y2-S2-262K26,8,730,PS,exp,30,↑,up,↑,0.6201948001980782,True,15,-1,0,10
Y2-S2-262K26,8,731,PS,exp,40,←,left,←,0.7635343000292778,True,15,-1,0,10
Y2-S2-262K26,8,732,PS,exp,40,→,right,→,0.6794584998860955,True,15,1,1,11
Y2-S2-262K26,8,733,PS,exp,35,↓,up,↑,0.7876008003950119,False,14,-1,1,12
Y2-S2-262K26,8,734,PS,exp,45,→,right,→,0.6341899996623397,True,15,-1,0,12
Y2-S2-262K26,8,735,PS,exp,37,↓,down,↓,0.5884679998271167,True,15,-1,0,12
Y2-S2-262K26,8,736,PS,exp,39,↑,up,↑,0.5024190000258386,True,15,1,1,13
Y2-S2-262K26,8,737,PS,exp,35,→,left,←,1.0408248999156058,False,14,-1,1,14
Y2-S2-262K26,8,738,PS,exp,43,←,left,←,0.5284639997407794,True,15,-1,0,14
Y2-S2-262K26,8,739,PS,exp,27,↑,right,→,0.6257536998018622,False,15,-1,0,14
Y2-S2-262K26,8,740,PS,exp,37,←,left,←,0.5500664003193378,True,16,-1,0,14
Y2-S2-262K26,8,741,PS,exp,31,↑,up,↑,0.6809667996130884,True,16,-1,0,14
Y2-S2-262K26,8,742,PS,exp,40,↓,down,↓,0.6342945997603238,True,16,1,1,15
Y2-S2-262K26,8,743,PS,exp,38,→,right,→,0.7886456004343927,True,15,1,0,15
Y2-S2-262K26,8,744,PS,exp,47,↑,up,↑,0.583192600402981,True,15,1,0,15
Y2-S2-262K26,8,745,PS,exp,41,←,left,←,0.593125400133431,True,15,1,0,15
Y2-S2-262K26,8,746,PS,exp,32,↑,up,↑,0.6159168998710811,True,14,1,0,15
Y2-S2-262K26,8,747,PS,exp,45,←,left,←,1.341651199851185,True,14,1,0,15
Y2-S2-262K26,8,748,PS,exp,44,↑,up,↑,1.7774310000240803,True,14,1,0,15
Y2-S2-262K26,8,749,PS,exp,30,←,down,↓,0.7628355999477208,False,13,-1,1,16
