PART_ID,Block_no,Trial_no,Block_type,Trial_type,CSI,Stim_letter,Key_pressed,letter_choose,Rt,Corr,Stimulus Time,Level,Reversal,Revs_count
Y2-S2-200K18,1,1,PS,train,38,↑,up,↑,0.7355762999504805,True,30,-,-,-
Y2-S2-200K18,1,2,PS,train,34,←,left,←,0.5843588998541236,True,30,-,-,-
Y2-S2-200K18,1,3,PS,train,45,↓,down,↓,0.5837220000103116,True,30,-,-,-
Y2-S2-200K18,1,4,PS,train,42,↑,up,↑,0.5668147001415491,True,30,-,-,-
Y2-S2-200K18,1,5,PS,train,25,→,right,→,0.5672467998228967,True,30,-,-,-
Y2-S2-200K18,1,6,PS,train,43,↓,down,↓,0.5172159001231194,True,30,-,-,-
Y2-S2-200K18,1,7,PS,train,29,→,right,→,0.28467970015481114,True,30,-,-,-
Y2-S2-200K18,1,8,PS,train,50,↓,down,↓,0.6341309999115765,True,30,-,-,-
Y2-S2-200K18,1,9,PS,train,50,↑,up,↑,0.5839097001589835,True,30,-,-,-
Y2-S2-200K18,1,10,PS,train,43,↓,down,↓,0.467852299567312,True,30,-,-,-
Y2-S2-200K18,2,11,AS,train,29,←,left,←,0.5512565998360515,True,45,-,-,-
Y2-S2-200K18,2,12,AS,train,37,→,left,←,0.36750870011746883,False,45,-,-,-
Y2-S2-200K18,2,13,AS,train,41,↑,up,↑,1.0892948000691831,True,45,-,-,-
Y2-S2-200K18,2,14,AS,train,34,→,right,→,0.5509242000989616,True,45,-,-,-
Y2-S2-200K18,2,15,AS,train,46,↑,right,→,0.36753170005977154,False,45,-,-,-
Y2-S2-200K18,2,16,AS,train,29,←,left,←,0.5675679999403656,True,45,-,-,-
Y2-S2-200K18,2,17,AS,train,50,→,right,→,0.5009753000922501,True,45,-,-,-
Y2-S2-200K18,2,18,AS,train,36,←,left,←,0.8172169001773,True,45,-,-,-
Y2-S2-200K18,2,19,AS,train,45,↓,down,↓,0.5511495000682771,True,45,-,-,-
Y2-S2-200K18,2,20,AS,train,27,↑,down,↓,0.6509922998957336,False,45,-,-,-
Y2-S2-200K18,-,21,PS,adaptive,43,←,left,←,0.5346179003827274,True,10,0,0,0
Y2-S2-200K18,-,22,PS,adaptive,25,↑,up,↑,0.9900760003365576,True,10,0,0,0
Y2-S2-200K18,-,23,PS,adaptive,42,↓,down,↓,0.3942686999216676,True,10,1,0,0
Y2-S2-200K18,-,24,PS,adaptive,37,→,up,↑,0.6650375998578966,False,9,-1,1,1
Y2-S2-200K18,-,25,PS,adaptive,50,←,left,←,0.5479565998539329,True,10,-1,0,1
Y2-S2-200K18,-,26,PS,adaptive,25,↑,up,↑,0.5396091002039611,True,10,-1,0,1
Y2-S2-200K18,-,27,PS,adaptive,30,↓,down,↓,0.557355500292033,True,10,1,1,2
Y2-S2-200K18,-,28,PS,adaptive,34,→,right,→,0.4966906001791358,True,9,1,0,2
Y2-S2-200K18,-,29,PS,adaptive,27,↓,down,↓,0.497318500187248,True,9,1,0,2
Y2-S2-200K18,-,30,PS,adaptive,49,↑,up,↑,0.518191899638623,True,9,1,0,2
Y2-S2-200K18,-,31,PS,adaptive,41,←,left,←,0.6679651001468301,True,8,1,0,2
Y2-S2-200K18,-,32,PS,adaptive,35,↑,up,↑,0.4862437001429498,True,8,1,0,2
Y2-S2-200K18,-,33,PS,adaptive,45,→,left,←,0.6725119999609888,False,8,-1,1,3
Y2-S2-200K18,-,34,PS,adaptive,50,↑,up,↑,0.568864899687469,True,9,-1,0,3
Y2-S2-200K18,-,35,PS,adaptive,26,→,right,→,0.5626201000995934,True,9,-1,0,3
Y2-S2-200K18,-,36,PS,adaptive,38,←,left,←,0.6882589003071189,True,9,1,1,4
Y2-S2-200K18,-,37,AS,adaptive,28,↓,right,→,1.9007639000192285,False,20,-1,0,0
Y2-S2-200K18,-,38,AS,adaptive,48,↑,left,←,1.2249390999786556,False,21,-1,0,0
Y2-S2-200K18,-,39,AS,adaptive,25,→,left,←,1.3942551002837718,False,22,-1,0,0
Y2-S2-200K18,-,40,AS,adaptive,39,↓,down,↓,0.5844568000175059,True,23,-1,0,0
Y2-S2-200K18,-,41,AS,adaptive,25,→,left,←,0.8916972996667027,False,23,-1,0,0
Y2-S2-200K18,-,42,AS,adaptive,28,←,left,←,0.5339612001553178,True,24,-1,0,0
Y2-S2-200K18,-,43,AS,adaptive,50,↑,up,↑,0.6827676999382675,True,24,-1,0,0
Y2-S2-200K18,-,44,AS,adaptive,44,←,left,←,0.5344318998977542,True,24,1,1,1
Y2-S2-200K18,-,45,AS,adaptive,43,↓,down,↓,0.6786751998588443,True,23,1,0,1
Y2-S2-200K18,-,46,AS,adaptive,41,←,left,←,0.6516638998873532,True,23,1,0,1
Y2-S2-200K18,-,47,AS,adaptive,43,↓,left,←,0.8788375998847187,False,23,-1,1,2
Y2-S2-200K18,-,48,AS,adaptive,50,←,left,←,0.5339021999388933,True,24,-1,0,2
Y2-S2-200K18,-,49,AS,adaptive,36,↓,down,↓,0.671503100078553,True,24,-1,0,2
Y2-S2-200K18,-,50,AS,adaptive,39,←,left,←,0.6230305000208318,True,24,1,1,3
Y2-S2-200K18,-,51,AS,adaptive,39,↓,down,↓,0.663911399897188,True,23,1,0,3
Y2-S2-200K18,-,52,AS,adaptive,30,←,left,←,0.5602601999416947,True,23,1,0,3
Y2-S2-200K18,-,53,AS,adaptive,33,↑,left,←,0.956341200042516,False,23,-1,1,4
Y2-S2-200K18,1,54,PS,intra_train,28,←,left,←,0.4394081002101302,True,12,-,-,-
Y2-S2-200K18,1,55,PS,intra_train,35,↓,down,↓,0.4360617999918759,True,12,-,-,-
Y2-S2-200K18,1,56,PS,intra_train,26,↑,up,↑,0.4948912002146244,True,12,-,-,-
Y2-S2-200K18,1,57,PS,intra_train,47,→,right,→,0.48617490008473396,True,12,-,-,-
Y2-S2-200K18,1,58,PS,intra_train,35,↓,down,↓,0.5769301000982523,True,12,-,-,-
Y2-S2-200K18,1,59,PS,exp,36,↑,right,→,0.5820826003327966,False,8,-1,0,0
Y2-S2-200K18,1,60,PS,exp,37,↓,down,↓,0.619741499889642,True,9,-1,0,0
Y2-S2-200K18,1,61,PS,exp,47,↑,up,↑,0.6086546001024544,True,9,-1,0,0
Y2-S2-200K18,1,62,PS,exp,34,→,right,→,0.47834599995985627,True,9,1,1,1
Y2-S2-200K18,1,63,PS,exp,47,←,left,←,0.4685748000629246,True,8,1,0,1
Y2-S2-200K18,1,64,PS,exp,29,↓,left,←,0.48869149992242455,False,8,-1,1,2
Y2-S2-200K18,1,65,PS,exp,32,→,right,→,0.4916041996330023,True,9,-1,0,2
Y2-S2-200K18,1,66,PS,exp,36,←,left,←,0.3638302995823324,True,9,-1,0,2
Y2-S2-200K18,1,67,PS,exp,25,→,right,→,0.44016659958288074,True,9,1,1,3
Y2-S2-200K18,1,68,PS,exp,46,↑,up,↑,0.6554046999663115,True,8,1,0,3
Y2-S2-200K18,1,69,PS,exp,35,←,left,←,0.5870892000384629,True,8,1,0,3
Y2-S2-200K18,1,70,PS,exp,42,→,left,←,0.34054100001230836,False,8,-1,1,4
Y2-S2-200K18,1,71,PS,exp,32,↑,up,↑,0.6241183998063207,True,9,-1,0,4
Y2-S2-200K18,1,72,PS,exp,47,→,right,→,0.5134254000149667,True,9,-1,0,4
Y2-S2-200K18,1,73,PS,exp,38,←,left,←,0.5147814000956714,True,9,1,1,5
Y2-S2-200K18,1,74,PS,exp,30,↓,down,↓,0.5071664997376502,True,8,1,0,5
Y2-S2-200K18,1,75,PS,exp,29,↑,down,↓,0.8030336000956595,False,8,-1,1,6
Y2-S2-200K18,1,76,PS,exp,26,→,right,→,0.47680960036814213,True,9,-1,0,6
Y2-S2-200K18,1,77,PS,exp,40,↑,up,↑,0.6316045001149178,True,9,-1,0,6
Y2-S2-200K18,1,78,PS,exp,50,→,right,→,0.43834180012345314,True,9,1,1,7
Y2-S2-200K18,1,79,PS,exp,41,←,left,←,0.43688179971650243,True,8,1,0,7
Y2-S2-200K18,1,80,PS,exp,38,↑,left,←,0.9084084997884929,False,8,-1,1,8
Y2-S2-200K18,1,81,PS,exp,47,→,right,→,0.6612764997407794,True,9,-1,0,8
Y2-S2-200K18,1,82,PS,exp,47,↑,up,↑,0.5273535000160336,True,9,-1,0,8
Y2-S2-200K18,1,83,PS,exp,46,→,right,→,0.49859709991142154,True,9,1,1,9
Y2-S2-200K18,1,84,PS,exp,45,↓,down,↓,0.5230501000769436,True,8,1,0,9
Y2-S2-200K18,1,85,PS,exp,29,↑,up,↑,0.5209583998657763,True,8,1,0,9
Y2-S2-200K18,1,86,PS,exp,25,↓,up,↑,0.8956613996997476,False,8,-1,1,10
Y2-S2-200K18,1,87,PS,exp,34,→,right,→,0.4611567002721131,True,9,-1,0,10
Y2-S2-200K18,1,88,PS,exp,26,↑,up,↑,0.5301840002648532,True,9,-1,0,10
Y2-S2-200K18,1,89,PS,exp,44,←,left,←,0.4373592999763787,True,9,1,1,11
Y2-S2-200K18,1,90,PS,exp,26,→,right,→,0.45194979989901185,True,8,1,0,11
Y2-S2-200K18,1,91,PS,exp,34,←,left,←,0.7135140001773834,True,8,1,0,11
Y2-S2-200K18,1,92,PS,exp,25,↓,right,→,0.8558057998307049,False,8,-1,1,12
Y2-S2-200K18,1,93,PS,exp,47,↑,up,↑,0.5219084001146257,True,9,-1,0,12
Y2-S2-200K18,1,94,PS,exp,35,→,right,→,0.4434070000424981,True,9,-1,0,12
Y2-S2-200K18,1,95,PS,exp,33,↓,up,↑,0.9983271001838148,False,9,-1,0,12
Y2-S2-200K18,1,96,PS,exp,32,↑,up,↑,0.6428454001434147,True,10,-1,0,12
Y2-S2-200K18,1,97,PS,exp,42,→,right,→,0.4895250000990927,True,10,-1,0,12
Y2-S2-200K18,1,98,PS,exp,37,↑,up,↑,0.6196133997291327,True,10,1,1,13
Y2-S2-200K18,1,99,PS,exp,34,←,left,←,0.6448166999034584,True,9,1,0,13
Y2-S2-200K18,1,100,PS,exp,30,→,right,→,0.48754770029336214,True,9,1,0,13
Y2-S2-200K18,1,101,PS,exp,42,↑,up,↑,0.6357152001000941,True,9,1,0,13
Y2-S2-200K18,1,102,PS,exp,25,↓,down,↓,0.509472300298512,True,8,1,0,13
Y2-S2-200K18,1,103,PS,exp,34,→,left,←,1.3949764999561012,False,8,-1,1,14
Y2-S2-200K18,1,104,PS,exp,27,←,left,←,0.5875238003209233,True,9,-1,0,14
Y2-S2-200K18,1,105,PS,exp,34,↑,up,↑,1.0584550998173654,True,9,-1,0,14
Y2-S2-200K18,1,106,PS,exp,40,→,left,←,0.7577948998659849,False,9,-1,0,14
Y2-S2-200K18,1,107,PS,exp,44,←,left,←,0.4992204001173377,True,10,-1,0,14
Y2-S2-200K18,1,108,PS,exp,26,→,left,←,0.871339799836278,False,10,-1,0,14
Y2-S2-200K18,1,109,PS,exp,32,←,right,→,0.6819686000235379,False,11,-1,0,14
Y2-S2-200K18,1,110,PS,exp,27,↓,down,↓,0.5841328999958932,True,12,-1,0,14
Y2-S2-200K18,1,111,PS,exp,46,↑,up,↑,0.6841929000802338,True,12,-1,0,14
Y2-S2-200K18,1,112,PS,exp,28,→,right,→,0.49829600006341934,True,12,1,1,15
Y2-S2-200K18,1,113,PS,exp,35,↑,up,↑,0.5425486001186073,True,11,1,0,15
Y2-S2-200K18,1,114,PS,exp,27,←,left,←,0.5475886999629438,True,11,1,0,15
Y2-S2-200K18,1,115,PS,exp,39,↓,down,↓,0.5657958001829684,True,11,1,0,15
Y2-S2-200K18,1,116,PS,exp,31,↑,up,↑,0.85217190021649,True,10,1,0,15
Y2-S2-200K18,1,117,PS,exp,33,←,left,←,0.6077502998523414,True,10,1,0,15
Y2-S2-200K18,1,118,PS,exp,46,↑,up,↑,0.40064620040357113,True,10,1,0,15
Y2-S2-200K18,1,119,PS,exp,26,→,right,→,0.5213271998800337,True,9,1,0,15
Y2-S2-200K18,1,120,PS,exp,32,↓,down,↓,0.6192729999311268,True,9,1,0,15
Y2-S2-200K18,1,121,PS,exp,29,←,left,←,0.5794174000620842,True,9,1,0,15
Y2-S2-200K18,1,122,PS,exp,26,↓,down,↓,0.4509057002142072,True,8,1,0,15
Y2-S2-200K18,1,123,PS,exp,47,→,right,→,0.49079730035737157,True,8,1,0,15
Y2-S2-200K18,1,124,PS,exp,45,↑,up,↑,0.5520766000263393,True,8,1,0,15
Y2-S2-200K18,1,125,PS,exp,26,→,right,→,0.4686440001241863,True,7,1,0,15
Y2-S2-200K18,1,126,PS,exp,26,←,left,←,0.3881022003479302,True,7,1,0,15
Y2-S2-200K18,1,127,PS,exp,35,→,down,↓,0.6359949000179768,False,7,-1,1,16
Y2-S2-200K18,2,128,AS,intra_train,29,↑,up,↑,0.8963601002469659,True,36,-,-,-
Y2-S2-200K18,2,129,AS,intra_train,25,↓,down,↓,0.634148099925369,True,36,-,-,-
Y2-S2-200K18,2,130,AS,intra_train,36,←,left,←,0.6335873999632895,True,36,-,-,-
Y2-S2-200K18,2,131,AS,intra_train,31,→,right,→,0.7339568003080785,True,36,-,-,-
Y2-S2-200K18,2,132,AS,intra_train,39,↑,up,↑,0.7173731997609138,True,36,-,-,-
Y2-S2-200K18,2,133,AS,exp,44,↓,down,↓,0.4838805999606848,True,24,0,0,0
Y2-S2-200K18,2,134,AS,exp,27,←,left,←,0.48390519991517067,True,24,0,0,0
Y2-S2-200K18,2,135,AS,exp,42,↓,down,↓,0.6029487000778317,True,24,1,0,0
Y2-S2-200K18,2,136,AS,exp,42,←,left,←,0.7998775001615286,True,23,1,0,0
Y2-S2-200K18,2,137,AS,exp,36,→,right,→,0.6731670000590384,True,23,1,0,0
Y2-S2-200K18,2,138,AS,exp,40,↓,down,↓,0.5004583997651935,True,23,1,0,0
Y2-S2-200K18,2,139,AS,exp,42,→,left,←,0.45062310015782714,False,22,-1,1,1
Y2-S2-200K18,2,140,AS,exp,28,↓,down,↓,0.6883702999912202,True,23,-1,0,1
Y2-S2-200K18,2,141,AS,exp,33,↑,up,↑,0.685640599578619,True,23,-1,0,1
Y2-S2-200K18,2,142,AS,exp,34,←,left,←,0.5888378000818193,True,23,1,1,2
Y2-S2-200K18,2,143,AS,exp,41,↓,down,↓,0.6284483000636101,True,22,1,0,2
Y2-S2-200K18,2,144,AS,exp,37,←,no_key,no_letter,-1.0,False,22,-1,1,3
Y2-S2-200K18,2,145,AS,exp,34,↑,up,↑,0.7855503000319004,True,23,-1,0,3
Y2-S2-200K18,2,146,AS,exp,31,←,left,←,0.7831676001660526,True,23,-1,0,3
Y2-S2-200K18,2,147,AS,exp,42,↑,up,↑,0.9640352004207671,True,23,1,1,4
Y2-S2-200K18,2,148,AS,exp,29,↓,down,↓,0.7455069003626704,True,22,1,0,4
Y2-S2-200K18,2,149,AS,exp,27,←,left,←,0.575743599794805,True,22,1,0,4
Y2-S2-200K18,2,150,AS,exp,42,↓,down,↓,1.0270704999566078,True,22,1,0,4
Y2-S2-200K18,2,151,AS,exp,50,←,left,←,0.776193399913609,True,21,1,0,4
Y2-S2-200K18,2,152,AS,exp,45,↓,down,↓,0.9440454002469778,True,21,1,0,4
Y2-S2-200K18,2,153,AS,exp,42,→,right,→,0.6704583000391722,True,21,1,0,4
Y2-S2-200K18,2,154,AS,exp,48,↑,up,↑,0.8802911001257598,True,20,1,0,4
Y2-S2-200K18,2,155,AS,exp,48,→,right,→,0.6385471001267433,True,20,1,0,4
Y2-S2-200K18,2,156,AS,exp,32,↑,up,↑,0.7097582998685539,True,20,1,0,4
Y2-S2-200K18,2,157,AS,exp,37,←,left,←,0.590402000118047,True,19,1,0,4
Y2-S2-200K18,2,158,AS,exp,27,↑,up,↑,0.7331531997770071,True,19,1,0,4
Y2-S2-200K18,2,159,AS,exp,48,←,left,←,0.5466470997780561,True,19,1,0,4
Y2-S2-200K18,2,160,AS,exp,50,→,right,→,0.47797410003840923,True,18,1,0,4
Y2-S2-200K18,2,161,AS,exp,46,↑,right,→,1.05596929974854,False,18,-1,1,5
Y2-S2-200K18,2,162,AS,exp,30,→,right,→,0.6366616003215313,True,19,-1,0,5
Y2-S2-200K18,2,163,AS,exp,25,↓,down,↓,0.5746177001856267,True,19,-1,0,5
Y2-S2-200K18,2,164,AS,exp,30,↑,up,↑,0.552632899954915,True,19,1,1,6
Y2-S2-200K18,2,165,AS,exp,46,←,left,←,0.550191099755466,True,18,1,0,6
Y2-S2-200K18,2,166,AS,exp,26,↑,up,↑,0.9056586003862321,True,18,1,0,6
Y2-S2-200K18,2,167,AS,exp,37,→,no_key,no_letter,-1.0,False,18,-1,1,7
Y2-S2-200K18,2,168,AS,exp,35,↑,up,↑,0.6510386001318693,True,19,-1,0,7
Y2-S2-200K18,2,169,AS,exp,31,←,left,←,0.6924733999185264,True,19,-1,0,7
Y2-S2-200K18,2,170,AS,exp,44,↓,down,↓,0.6440192996524274,True,19,1,1,8
Y2-S2-200K18,2,171,AS,exp,35,←,right,→,0.7397536998614669,False,18,-1,1,9
Y2-S2-200K18,2,172,AS,exp,28,↓,down,↓,0.5749825998209417,True,19,-1,0,9
Y2-S2-200K18,2,173,AS,exp,46,↑,down,↓,0.6437951000407338,False,19,-1,0,9
Y2-S2-200K18,2,174,AS,exp,38,→,right,→,0.5863953996449709,True,20,-1,0,9
Y2-S2-200K18,2,175,AS,exp,40,↓,down,↓,0.7456870996393263,True,20,-1,0,9
Y2-S2-200K18,2,176,AS,exp,33,←,left,←,0.7873770999722183,True,20,1,1,10
Y2-S2-200K18,2,177,AS,exp,28,→,right,→,0.7317462000064552,True,19,1,0,10
Y2-S2-200K18,2,178,AS,exp,47,↑,up,↑,0.7755362000316381,True,19,1,0,10
Y2-S2-200K18,2,179,AS,exp,30,↓,right,→,1.0963431000709534,False,19,-1,1,11
Y2-S2-200K18,2,180,AS,exp,50,→,right,→,0.5718985996209085,True,20,-1,0,11
Y2-S2-200K18,2,181,AS,exp,27,↓,down,↓,0.6522166999056935,True,20,-1,0,11
Y2-S2-200K18,2,182,AS,exp,50,→,right,→,0.5119998003356159,True,20,1,1,12
Y2-S2-200K18,2,183,AS,exp,35,↑,up,↑,0.8544731000438333,True,19,1,0,12
Y2-S2-200K18,2,184,AS,exp,30,→,right,→,0.7704632999375463,True,19,1,0,12
Y2-S2-200K18,2,185,AS,exp,30,↑,up,↑,0.5692075998522341,True,19,1,0,12
Y2-S2-200K18,2,186,AS,exp,49,↓,up,↑,0.7787779998034239,False,18,-1,1,13
Y2-S2-200K18,2,187,AS,exp,32,←,no_key,no_letter,-1.0,False,19,-1,0,13
Y2-S2-200K18,2,188,AS,exp,50,↑,up,↑,0.6673173001036048,True,20,-1,0,13
Y2-S2-200K18,2,189,AS,exp,26,←,left,←,0.8884442001581192,True,20,-1,0,13
Y2-S2-200K18,2,190,AS,exp,36,↓,down,↓,1.9577528000809252,True,20,1,1,14
Y2-S2-200K18,2,191,AS,exp,43,↑,up,↑,0.6689697997644544,True,19,1,0,14
Y2-S2-200K18,2,192,AS,exp,40,↓,up,↑,0.775730799883604,False,19,-1,1,15
Y2-S2-200K18,2,193,AS,exp,30,←,left,←,0.5078237997367978,True,20,-1,0,15
Y2-S2-200K18,2,194,AS,exp,41,↓,down,↓,0.5900853998027742,True,20,-1,0,15
Y2-S2-200K18,2,195,AS,exp,28,↑,down,↓,0.41718020010739565,False,20,-1,0,15
Y2-S2-200K18,2,196,AS,exp,50,←,left,←,0.6653449996374547,True,21,-1,0,15
Y2-S2-200K18,2,197,AS,exp,46,↓,down,↓,0.7682939996011555,True,21,-1,0,15
Y2-S2-200K18,2,198,AS,exp,47,←,left,←,0.8020569998770952,True,21,1,1,16
Y2-S2-200K18,3,199,AS,intra_train,25,↑,up,↑,0.7005145000293851,True,36,-,-,-
Y2-S2-200K18,3,200,AS,intra_train,44,←,left,←,0.5510573000647128,True,36,-,-,-
Y2-S2-200K18,3,201,AS,intra_train,48,→,right,→,0.6671774000860751,True,36,-,-,-
Y2-S2-200K18,3,202,AS,intra_train,47,↓,down,↓,0.6005789996124804,True,36,-,-,-
Y2-S2-200K18,3,203,AS,intra_train,38,→,down,↓,0.7007098998874426,False,36,-,-,-
Y2-S2-200K18,3,204,AS,exp,26,↓,down,↓,0.6412770999595523,True,24,0,0,0
Y2-S2-200K18,3,205,AS,exp,25,↑,up,↑,0.8721012999303639,True,24,0,0,0
Y2-S2-200K18,3,206,AS,exp,49,→,right,→,0.5170761998742819,True,24,1,0,0
Y2-S2-200K18,3,207,AS,exp,40,←,left,←,0.7795766000635922,True,23,1,0,0
Y2-S2-200K18,3,208,AS,exp,41,↑,up,↑,0.7646248997189105,True,23,1,0,0
Y2-S2-200K18,3,209,AS,exp,25,↓,down,↓,0.7508992999792099,True,23,1,0,0
Y2-S2-200K18,3,210,AS,exp,49,↑,up,↑,0.699004199821502,True,22,1,0,0
Y2-S2-200K18,3,211,AS,exp,31,←,left,←,0.5711503997445107,True,22,1,0,0
Y2-S2-200K18,3,212,AS,exp,33,↑,up,↑,0.718701499979943,True,22,1,0,0
Y2-S2-200K18,3,213,AS,exp,49,↓,down,↓,0.6186280003748834,True,21,1,0,0
Y2-S2-200K18,3,214,AS,exp,37,↑,up,↑,0.5740777999162674,True,21,1,0,0
Y2-S2-200K18,3,215,AS,exp,34,↓,down,↓,0.5695026000030339,True,21,1,0,0
Y2-S2-200K18,3,216,AS,exp,43,↑,up,↑,0.763002899941057,True,20,1,0,0
Y2-S2-200K18,3,217,AS,exp,50,←,left,←,0.708409100305289,True,20,1,0,0
Y2-S2-200K18,3,218,AS,exp,46,→,right,→,0.9380954001098871,True,20,1,0,0
Y2-S2-200K18,3,219,AS,exp,33,←,left,←,0.578951200004667,True,19,1,0,0
Y2-S2-200K18,3,220,AS,exp,41,→,right,→,0.7700894000008702,True,19,1,0,0
Y2-S2-200K18,3,221,AS,exp,42,↑,up,↑,0.6014388999901712,True,19,1,0,0
Y2-S2-200K18,3,222,AS,exp,45,←,left,←,0.9409249001182616,True,18,1,0,0
Y2-S2-200K18,3,223,AS,exp,35,↓,down,↓,0.5886574001051486,True,18,1,0,0
Y2-S2-200K18,3,224,AS,exp,41,→,right,→,0.6899192999117076,True,18,1,0,0
Y2-S2-200K18,3,225,AS,exp,39,↑,up,↑,0.6557144997641444,True,17,1,0,0
Y2-S2-200K18,3,226,AS,exp,44,↓,down,↓,0.6346529996953905,True,17,1,0,0
Y2-S2-200K18,3,227,AS,exp,47,←,right,→,0.5346576999872923,False,17,-1,1,1
Y2-S2-200K18,3,228,AS,exp,34,↑,no_key,no_letter,-1.0,False,18,-1,0,1
Y2-S2-200K18,3,229,AS,exp,29,←,left,←,0.5989717999473214,True,19,-1,0,1
Y2-S2-200K18,3,230,AS,exp,25,↑,up,↑,0.7035888996906579,True,19,-1,0,1
Y2-S2-200K18,3,231,AS,exp,31,↓,down,↓,0.6056814002804458,True,19,1,1,2
Y2-S2-200K18,3,232,AS,exp,41,↑,up,↑,0.5575532000511885,True,18,1,0,2
Y2-S2-200K18,3,233,AS,exp,28,→,right,→,0.6770418998785317,True,18,1,0,2
Y2-S2-200K18,3,234,AS,exp,32,↑,up,↑,0.7267391001805663,True,18,1,0,2
Y2-S2-200K18,3,235,AS,exp,47,→,right,→,0.6536570996977389,True,17,1,0,2
Y2-S2-200K18,3,236,AS,exp,35,↑,up,↑,0.7908716001547873,True,17,1,0,2
Y2-S2-200K18,3,237,AS,exp,29,↓,down,↓,0.5584227000363171,True,17,1,0,2
Y2-S2-200K18,3,238,AS,exp,46,←,left,←,0.7818456999957561,True,16,1,0,2
Y2-S2-200K18,3,239,AS,exp,47,→,right,→,0.48228090023621917,True,16,1,0,2
Y2-S2-200K18,3,240,AS,exp,38,←,right,→,0.9653419000096619,False,16,-1,1,3
Y2-S2-200K18,3,241,AS,exp,45,↑,up,↑,0.6738342000171542,True,17,-1,0,3
Y2-S2-200K18,3,242,AS,exp,47,←,right,→,0.47735440032556653,False,17,-1,0,3
Y2-S2-200K18,3,243,AS,exp,47,↓,down,↓,0.4951872997917235,True,18,-1,0,3
Y2-S2-200K18,3,244,AS,exp,40,←,left,←,0.5973702999763191,True,18,-1,0,3
Y2-S2-200K18,3,245,AS,exp,39,→,right,→,0.9066567998379469,True,18,1,1,4
Y2-S2-200K18,3,246,AS,exp,50,←,left,←,0.5130742001347244,True,17,1,0,4
Y2-S2-200K18,3,247,AS,exp,26,→,right,→,0.5438836999237537,True,17,1,0,4
Y2-S2-200K18,3,248,AS,exp,30,↑,up,↑,0.6322738002054393,True,17,1,0,4
Y2-S2-200K18,3,249,AS,exp,26,↓,down,↓,0.49370819982141256,True,16,1,0,4
Y2-S2-200K18,3,250,AS,exp,25,↑,left,←,0.6962776002474129,False,16,-1,1,5
Y2-S2-200K18,3,251,AS,exp,35,←,left,←,0.45557620003819466,True,17,-1,0,5
Y2-S2-200K18,3,252,AS,exp,46,→,left,←,0.8176020998507738,False,17,-1,0,5
Y2-S2-200K18,3,253,AS,exp,45,←,left,←,0.7792095998302102,True,18,-1,0,5
Y2-S2-200K18,3,254,AS,exp,32,→,right,→,0.6643842998892069,True,18,-1,0,5
Y2-S2-200K18,3,255,AS,exp,39,↑,up,↑,0.6020808001048863,True,18,1,1,6
Y2-S2-200K18,3,256,AS,exp,45,→,right,→,0.6316430000588298,True,17,1,0,6
Y2-S2-200K18,3,257,AS,exp,33,↓,down,↓,0.7019505999051034,True,17,1,0,6
Y2-S2-200K18,3,258,AS,exp,49,↑,up,↑,0.5437105000019073,True,17,1,0,6
Y2-S2-200K18,3,259,AS,exp,30,→,left,←,0.9477014001458883,False,16,-1,1,7
Y2-S2-200K18,3,260,AS,exp,35,↑,up,↑,0.9173905001953244,True,17,-1,0,7
Y2-S2-200K18,3,261,AS,exp,29,←,left,←,0.5871494999155402,True,17,-1,0,7
Y2-S2-200K18,3,262,AS,exp,29,→,right,→,0.5449004997499287,True,17,1,1,8
Y2-S2-200K18,3,263,AS,exp,25,↓,down,↓,0.6324741002172232,True,16,1,0,8
Y2-S2-200K18,3,264,AS,exp,26,←,left,←,0.6156132998876274,True,16,1,0,8
Y2-S2-200K18,3,265,AS,exp,36,↑,no_key,no_letter,-1.0,False,16,-1,1,9
Y2-S2-200K18,3,266,AS,exp,39,↓,down,↓,0.634893000125885,True,17,-1,0,9
Y2-S2-200K18,3,267,AS,exp,45,←,up,↑,0.9596204003319144,False,17,-1,0,9
Y2-S2-200K18,3,268,AS,exp,38,↑,right,→,1.7812950001098216,False,18,-1,0,9
Y2-S2-200K18,3,269,AS,exp,45,↓,down,↓,0.5622323001734912,True,19,-1,0,9
Y2-S2-200K18,3,270,AS,exp,26,←,left,←,0.7740591000765562,True,19,-1,0,9
Y2-S2-200K18,3,271,AS,exp,32,→,right,→,0.5622692997567356,True,19,1,1,10
Y2-S2-200K18,3,272,AS,exp,50,←,no_key,no_letter,-1.0,False,18,-1,1,11
Y2-S2-200K18,3,273,AS,exp,39,↑,up,↑,0.8991974000819027,True,19,-1,0,11
Y2-S2-200K18,3,274,AS,exp,29,↓,down,↓,0.5996588999405503,True,19,-1,0,11
Y2-S2-200K18,3,275,AS,exp,31,↑,up,↑,0.7878330000676215,True,19,1,1,12
Y2-S2-200K18,3,276,AS,exp,37,→,right,→,0.5504227001219988,True,18,1,0,12
Y2-S2-200K18,3,277,AS,exp,50,↑,up,↑,0.7682742001488805,True,18,1,0,12
Y2-S2-200K18,3,278,AS,exp,32,←,left,←,0.485784700140357,True,18,1,0,12
Y2-S2-200K18,3,279,AS,exp,42,→,right,→,0.7197757996618748,True,17,1,0,12
Y2-S2-200K18,3,280,AS,exp,41,←,left,←,0.5284422002732754,True,17,1,0,12
Y2-S2-200K18,3,281,AS,exp,48,↓,left,←,0.5827886001206934,False,17,-1,1,13
Y2-S2-200K18,3,282,AS,exp,29,←,right,→,0.6456626998260617,False,18,-1,0,13
Y2-S2-200K18,3,283,AS,exp,42,↑,up,↑,0.6387995001859963,True,19,-1,0,13
Y2-S2-200K18,3,284,AS,exp,42,→,right,→,0.5476343999616802,True,19,-1,0,13
Y2-S2-200K18,3,285,AS,exp,41,↑,up,↑,0.5558332996442914,True,19,1,1,14
Y2-S2-200K18,3,286,AS,exp,33,→,right,→,0.8941029002889991,True,18,1,0,14
Y2-S2-200K18,3,287,AS,exp,43,↓,down,↓,0.558419699780643,True,18,1,0,14
Y2-S2-200K18,3,288,AS,exp,31,←,left,←,0.6238606004044414,True,18,1,0,14
Y2-S2-200K18,3,289,AS,exp,30,↓,down,↓,0.6607472999021411,True,17,1,0,14
Y2-S2-200K18,3,290,AS,exp,40,↑,down,↓,0.763459799811244,False,17,-1,1,15
Y2-S2-200K18,3,291,AS,exp,33,→,left,←,1.1435801000334322,False,18,-1,0,15
Y2-S2-200K18,3,292,AS,exp,32,↓,down,↓,0.6148049999028444,True,19,-1,0,15
Y2-S2-200K18,3,293,AS,exp,25,↑,down,↓,0.6017343997955322,False,19,-1,0,15
Y2-S2-200K18,3,294,AS,exp,26,↓,left,←,1.2743898998014629,False,20,-1,0,15
Y2-S2-200K18,3,295,AS,exp,25,→,left,←,0.5715708998031914,False,21,-1,0,15
Y2-S2-200K18,3,296,AS,exp,26,↑,up,↑,0.8459822000004351,True,22,-1,0,15
Y2-S2-200K18,3,297,AS,exp,32,←,left,←,0.5723836999386549,True,22,-1,0,15
Y2-S2-200K18,3,298,AS,exp,33,↓,down,↓,0.5003027999773622,True,22,1,1,16
Y2-S2-200K18,4,299,PS,intra_train,34,←,left,←,0.4580983999185264,True,12,-,-,-
Y2-S2-200K18,4,300,PS,intra_train,38,→,right,→,0.5632807002402842,True,12,-,-,-
Y2-S2-200K18,4,301,PS,intra_train,36,↑,left,←,0.30070250015705824,False,12,-,-,-
Y2-S2-200K18,4,302,PS,intra_train,32,↓,down,↓,0.4777585999108851,True,12,-,-,-
Y2-S2-200K18,4,303,PS,intra_train,45,←,left,←,0.7774224001914263,True,12,-,-,-
Y2-S2-200K18,4,304,PS,exp,44,↑,up,↑,0.5425368999131024,True,8,0,0,0
Y2-S2-200K18,4,305,PS,exp,34,→,right,→,0.5949670001864433,True,8,0,0,0
Y2-S2-200K18,4,306,PS,exp,30,↓,down,↓,0.42889090022072196,True,8,1,0,0
Y2-S2-200K18,4,307,PS,exp,33,↑,down,↓,0.6181886000558734,False,7,-1,1,1
Y2-S2-200K18,4,308,PS,exp,39,↓,down,↓,0.5868513998575509,True,8,-1,0,1
Y2-S2-200K18,4,309,PS,exp,44,→,left,←,1.2010404001921415,False,8,-1,0,1
Y2-S2-200K18,4,310,PS,exp,43,←,down,↓,0.7451634998433292,False,9,-1,0,1
Y2-S2-200K18,4,311,PS,exp,45,↓,down,↓,0.4644177001900971,True,10,-1,0,1
Y2-S2-200K18,4,312,PS,exp,43,↑,down,↓,0.476617899723351,False,10,-1,0,1
Y2-S2-200K18,4,313,PS,exp,41,↓,down,↓,0.5315951001830399,True,11,-1,0,1
Y2-S2-200K18,4,314,PS,exp,28,→,right,→,0.4888352998532355,True,11,-1,0,1
Y2-S2-200K18,4,315,PS,exp,29,↑,up,↑,0.9094751998782158,True,11,1,1,2
Y2-S2-200K18,4,316,PS,exp,49,←,left,←,0.7146097999066114,True,10,1,0,2
Y2-S2-200K18,4,317,PS,exp,40,→,right,→,0.4471883997321129,True,10,1,0,2
Y2-S2-200K18,4,318,PS,exp,28,↓,down,↓,0.6191822001710534,True,10,1,0,2
Y2-S2-200K18,4,319,PS,exp,29,←,left,←,0.5531203001737595,True,9,1,0,2
Y2-S2-200K18,4,320,PS,exp,46,↑,up,↑,0.6165726999752223,True,9,1,0,2
Y2-S2-200K18,4,321,PS,exp,42,→,right,→,0.5655002999119461,True,9,1,0,2
Y2-S2-200K18,4,322,PS,exp,28,↑,up,↑,0.5270738997496665,True,8,1,0,2
Y2-S2-200K18,4,323,PS,exp,47,→,right,→,0.4669511001557112,True,8,1,0,2
Y2-S2-200K18,4,324,PS,exp,39,↑,up,↑,0.6613869001157582,True,8,1,0,2
Y2-S2-200K18,4,325,PS,exp,39,→,right,→,0.4606262999586761,True,7,1,0,2
Y2-S2-200K18,4,326,PS,exp,36,↓,down,↓,0.5097735999152064,True,7,1,0,2
Y2-S2-200K18,4,327,PS,exp,38,↑,up,↑,0.6597678000107408,True,7,1,0,2
Y2-S2-200K18,4,328,PS,exp,47,↓,down,↓,0.7022043000906706,True,6,1,0,2
Y2-S2-200K18,4,329,PS,exp,38,↑,left,←,1.079721299931407,False,6,-1,1,3
Y2-S2-200K18,4,330,PS,exp,27,←,left,←,0.5795974000357091,True,7,-1,0,3
Y2-S2-200K18,4,331,PS,exp,46,→,right,→,0.5326081998646259,True,7,-1,0,3
Y2-S2-200K18,4,332,PS,exp,27,↓,down,↓,0.5378964003175497,True,7,1,1,4
Y2-S2-200K18,4,333,PS,exp,49,←,down,↓,0.5510547999292612,False,6,-1,1,5
Y2-S2-200K18,4,334,PS,exp,33,→,right,→,0.45933880005031824,True,7,-1,0,5
Y2-S2-200K18,4,335,PS,exp,48,↑,right,→,0.7918134001083672,False,7,-1,0,5
Y2-S2-200K18,4,336,PS,exp,45,←,down,↓,0.6937549002468586,False,8,-1,0,5
Y2-S2-200K18,4,337,PS,exp,50,↑,up,↑,0.6128392000682652,True,9,-1,0,5
Y2-S2-200K18,4,338,PS,exp,40,↓,down,↓,0.548215199727565,True,9,-1,0,5
Y2-S2-200K18,4,339,PS,exp,43,→,right,→,0.5496422997675836,True,9,1,1,6
Y2-S2-200K18,4,340,PS,exp,48,↑,up,↑,0.6672672000713646,True,8,1,0,6
Y2-S2-200K18,4,341,PS,exp,45,↓,down,↓,0.6460441001690924,True,8,1,0,6
Y2-S2-200K18,4,342,PS,exp,37,↑,up,↑,0.7138148997910321,True,8,1,0,6
Y2-S2-200K18,4,343,PS,exp,50,←,down,↓,0.6774756996892393,False,7,-1,1,7
Y2-S2-200K18,4,344,PS,exp,31,↑,up,↑,0.5312634999863803,True,8,-1,0,7
Y2-S2-200K18,4,345,PS,exp,33,→,up,↑,0.7319466997869313,False,8,-1,0,7
Y2-S2-200K18,4,346,PS,exp,40,↓,no_key,no_letter,-1.0,False,9,-1,0,7
Y2-S2-200K18,4,347,PS,exp,33,→,right,→,0.49990390008315444,True,10,-1,0,7
Y2-S2-200K18,4,348,PS,exp,34,↑,up,↑,0.5771973999217153,True,10,-1,0,7
Y2-S2-200K18,4,349,PS,exp,25,↓,up,↑,0.7958976002410054,False,10,-1,0,7
Y2-S2-200K18,4,350,PS,exp,27,↑,up,↑,0.5961108999326825,True,11,-1,0,7
Y2-S2-200K18,4,351,PS,exp,36,↓,down,↓,0.5120264999568462,True,11,-1,0,7
Y2-S2-200K18,4,352,PS,exp,34,→,right,→,0.46876040007919073,True,11,1,1,8
Y2-S2-200K18,4,353,PS,exp,34,↑,up,↑,0.626615600194782,True,10,1,0,8
Y2-S2-200K18,4,354,PS,exp,37,↓,down,↓,0.541767599992454,True,10,1,0,8
Y2-S2-200K18,4,355,PS,exp,29,→,right,→,0.44383420003578067,True,10,1,0,8
Y2-S2-200K18,4,356,PS,exp,46,↓,down,↓,0.5021216999739408,True,9,1,0,8
Y2-S2-200K18,4,357,PS,exp,39,↑,up,↑,0.9862585999071598,True,9,1,0,8
Y2-S2-200K18,4,358,PS,exp,33,→,right,→,0.5235970998182893,True,9,1,0,8
Y2-S2-200K18,4,359,PS,exp,34,↓,down,↓,0.4537476999685168,True,8,1,0,8
Y2-S2-200K18,4,360,PS,exp,37,→,right,→,0.492410299833864,True,8,1,0,8
Y2-S2-200K18,4,361,PS,exp,44,↑,up,↑,0.9290020000189543,True,8,1,0,8
Y2-S2-200K18,4,362,PS,exp,25,→,right,→,0.5161362998187542,True,7,1,0,8
Y2-S2-200K18,4,363,PS,exp,40,←,right,→,0.583218100015074,False,7,-1,1,9
Y2-S2-200K18,4,364,PS,exp,44,↓,down,↓,0.5526171997189522,True,8,-1,0,9
Y2-S2-200K18,4,365,PS,exp,40,←,left,←,0.6374036003835499,True,8,-1,0,9
Y2-S2-200K18,4,366,PS,exp,31,↑,up,↑,0.6252500000409782,True,8,1,1,10
Y2-S2-200K18,4,367,PS,exp,45,→,right,→,0.4725282001309097,True,7,1,0,10
Y2-S2-200K18,4,368,PS,exp,48,↑,right,→,1.1457513002678752,False,7,-1,1,11
Y2-S2-200K18,4,369,PS,exp,36,→,right,→,0.5888110999949276,True,8,-1,0,11
Y2-S2-200K18,4,370,PS,exp,44,←,left,←,0.7726516998372972,True,8,-1,0,11
Y2-S2-200K18,4,371,PS,exp,42,↓,right,→,0.7318525998853147,False,8,-1,0,11
Y2-S2-200K18,4,372,PS,exp,49,←,left,←,0.45967840030789375,True,9,-1,0,11
Y2-S2-200K18,4,373,PS,exp,48,→,left,←,1.1908416002988815,False,9,-1,0,11
Y2-S2-200K18,4,374,PS,exp,36,←,left,←,0.45754129998385906,True,10,-1,0,11
Y2-S2-200K18,4,375,PS,exp,43,→,right,→,0.5249100001528859,True,10,-1,0,11
Y2-S2-200K18,4,376,PS,exp,47,↓,down,↓,0.47124799992889166,True,10,1,1,12
Y2-S2-200K18,4,377,PS,exp,48,←,right,→,0.9079128997400403,False,9,-1,1,13
Y2-S2-200K18,4,378,PS,exp,30,↑,up,↑,0.6635349001735449,True,10,-1,0,13
Y2-S2-200K18,4,379,PS,exp,32,↓,down,↓,0.4588639000430703,True,10,-1,0,13
Y2-S2-200K18,4,380,PS,exp,44,→,right,→,0.47793109994381666,True,10,1,1,14
Y2-S2-200K18,4,381,PS,exp,43,↓,down,↓,0.4223625003360212,True,9,1,0,14
Y2-S2-200K18,4,382,PS,exp,49,→,left,←,0.630010699853301,False,9,-1,1,15
Y2-S2-200K18,4,383,PS,exp,40,↓,down,↓,0.975477300118655,True,10,-1,0,15
Y2-S2-200K18,4,384,PS,exp,44,↑,up,↑,0.6377666001208127,True,10,-1,0,15
Y2-S2-200K18,4,385,PS,exp,42,←,left,←,0.5125231998972595,True,10,1,1,16
Y2-S2-200K18,5,386,PS,intra_train,31,↑,up,↑,0.5516474000178277,True,12,-,-,-
Y2-S2-200K18,5,387,PS,intra_train,29,←,left,←,0.4784629000350833,True,12,-,-,-
Y2-S2-200K18,5,388,PS,intra_train,40,↑,up,↑,0.5775417000986636,True,12,-,-,-
Y2-S2-200K18,5,389,PS,intra_train,31,→,right,→,0.43220030004158616,True,12,-,-,-
Y2-S2-200K18,5,390,PS,intra_train,39,↑,up,↑,0.6130758998915553,True,12,-,-,-
Y2-S2-200K18,5,391,PS,exp,29,→,right,→,0.566209000069648,True,8,0,0,0
Y2-S2-200K18,5,392,PS,exp,47,←,left,←,0.4859732002951205,True,8,0,0,0
Y2-S2-200K18,5,393,PS,exp,41,→,right,→,0.4752837000414729,True,8,1,0,0
Y2-S2-200K18,5,394,PS,exp,31,↓,down,↓,0.5474609001539648,True,7,1,0,0
Y2-S2-200K18,5,395,PS,exp,38,→,right,→,0.48804030008614063,True,7,1,0,0
Y2-S2-200K18,5,396,PS,exp,40,↑,up,↑,1.0179336001165211,True,7,1,0,0
Y2-S2-200K18,5,397,PS,exp,46,←,right,→,0.6889283997006714,False,6,-1,1,1
Y2-S2-200K18,5,398,PS,exp,48,↓,down,↓,0.5417067999951541,True,7,-1,0,1
Y2-S2-200K18,5,399,PS,exp,40,→,right,→,0.5649023000150919,True,7,-1,0,1
Y2-S2-200K18,5,400,PS,exp,34,↑,right,→,0.843204400036484,False,7,-1,0,1
Y2-S2-200K18,5,401,PS,exp,38,←,down,↓,0.7680203998461366,False,8,-1,0,1
Y2-S2-200K18,5,402,PS,exp,49,↓,down,↓,0.5216985000297427,True,9,-1,0,1
Y2-S2-200K18,5,403,PS,exp,35,→,right,→,0.5876541002653539,True,9,-1,0,1
Y2-S2-200K18,5,404,PS,exp,40,←,left,←,0.6082369000650942,True,9,1,1,2
Y2-S2-200K18,5,405,PS,exp,40,→,right,→,0.5321468999609351,True,8,1,0,2
Y2-S2-200K18,5,406,PS,exp,32,↓,down,↓,0.47402160009369254,True,8,1,0,2
Y2-S2-200K18,5,407,PS,exp,35,→,right,→,0.6316710002720356,True,8,1,0,2
Y2-S2-200K18,5,408,PS,exp,30,↓,down,↓,0.6509484997950494,True,7,1,0,2
Y2-S2-200K18,5,409,PS,exp,46,→,right,→,0.5441224998794496,True,7,1,0,2
Y2-S2-200K18,5,410,PS,exp,42,↓,down,↓,0.45853069983422756,True,7,1,0,2
Y2-S2-200K18,5,411,PS,exp,33,→,right,→,0.5632327999919653,True,6,1,0,2
Y2-S2-200K18,5,412,PS,exp,30,↓,down,↓,0.5199934002012014,True,6,1,0,2
Y2-S2-200K18,5,413,PS,exp,37,↑,down,↓,1.4385084002278745,False,6,-1,1,3
Y2-S2-200K18,5,414,PS,exp,35,←,left,←,0.5415349001996219,True,7,-1,0,3
Y2-S2-200K18,5,415,PS,exp,40,→,left,←,0.6966389999724925,False,7,-1,0,3
Y2-S2-200K18,5,416,PS,exp,29,↓,no_key,no_letter,-1.0,False,8,-1,0,3
Y2-S2-200K18,5,417,PS,exp,30,↑,up,↑,0.8327182000502944,True,9,-1,0,3
Y2-S2-200K18,5,418,PS,exp,36,↓,down,↓,0.6359959999099374,True,9,-1,0,3
Y2-S2-200K18,5,419,PS,exp,50,←,left,←,0.9053688999265432,True,9,1,1,4
Y2-S2-200K18,5,420,PS,exp,35,→,right,→,0.47470919974148273,True,8,1,0,4
Y2-S2-200K18,5,421,PS,exp,43,↓,right,→,0.9334630002267659,False,8,-1,1,5
Y2-S2-200K18,5,422,PS,exp,36,→,right,→,0.7998097999952734,True,9,-1,0,5
Y2-S2-200K18,5,423,PS,exp,30,↓,down,↓,0.49177620001137257,True,9,-1,0,5
Y2-S2-200K18,5,424,PS,exp,35,←,left,←,1.1422276999801397,True,9,1,1,6
Y2-S2-200K18,5,425,PS,exp,47,→,right,→,0.6699294997379184,True,8,1,0,6
Y2-S2-200K18,5,426,PS,exp,30,←,right,→,1.1086841002106667,False,8,-1,1,7
Y2-S2-200K18,5,427,PS,exp,27,↓,left,←,0.7720268997363746,False,9,-1,0,7
Y2-S2-200K18,5,428,PS,exp,43,←,left,←,0.5899535999633372,True,10,-1,0,7
Y2-S2-200K18,5,429,PS,exp,49,→,left,←,0.6631529000587761,False,10,-1,0,7
Y2-S2-200K18,5,430,PS,exp,35,↓,down,↓,0.6155311004258692,True,11,-1,0,7
Y2-S2-200K18,5,431,PS,exp,30,←,right,→,0.9690010002814233,False,11,-1,0,7
Y2-S2-200K18,5,432,PS,exp,36,↑,right,→,1.1362713002599776,False,12,-1,0,7
Y2-S2-200K18,5,433,PS,exp,49,→,right,→,0.6616804003715515,True,13,-1,0,7
Y2-S2-200K18,5,434,PS,exp,43,↓,down,↓,0.5058871996589005,True,13,-1,0,7
Y2-S2-200K18,5,435,PS,exp,41,←,left,←,0.6609865999780595,True,13,1,1,8
Y2-S2-200K18,5,436,PS,exp,32,↓,down,↓,0.4407371999695897,True,12,1,0,8
Y2-S2-200K18,5,437,PS,exp,37,→,left,←,0.6702514998614788,False,12,-1,1,9
Y2-S2-200K18,5,438,PS,exp,50,↓,down,↓,0.48249009996652603,True,13,-1,0,9
Y2-S2-200K18,5,439,PS,exp,31,→,left,←,0.7683830996975303,False,13,-1,0,9
Y2-S2-200K18,5,440,PS,exp,34,↓,down,↓,0.7092696996405721,True,14,-1,0,9
Y2-S2-200K18,5,441,PS,exp,36,↑,up,↑,0.7201144001446664,True,14,-1,0,9
Y2-S2-200K18,5,442,PS,exp,46,↓,down,↓,0.5199344996362925,True,14,1,1,10
Y2-S2-200K18,5,443,PS,exp,42,→,right,→,0.5716822003014386,True,13,1,0,10
Y2-S2-200K18,5,444,PS,exp,43,↓,down,↓,0.4358351002447307,True,13,1,0,10
Y2-S2-200K18,5,445,PS,exp,39,↑,left,←,1.0264701000414789,False,13,-1,1,11
Y2-S2-200K18,5,446,PS,exp,45,→,left,←,0.8292682003229856,False,14,-1,0,11
Y2-S2-200K18,5,447,PS,exp,47,←,left,←,0.4423368996940553,True,15,-1,0,11
Y2-S2-200K18,5,448,PS,exp,31,↑,up,↑,0.6256295000202954,True,15,-1,0,11
Y2-S2-200K18,5,449,PS,exp,46,↓,down,↓,0.5213121003471315,True,15,1,1,12
Y2-S2-200K18,5,450,PS,exp,25,←,left,←,0.6396471001207829,True,14,1,0,12
Y2-S2-200K18,5,451,PS,exp,49,↓,down,↓,0.5288497000001371,True,14,1,0,12
Y2-S2-200K18,5,452,PS,exp,30,←,left,←,0.6310749999247491,True,14,1,0,12
Y2-S2-200K18,5,453,PS,exp,35,↑,no_key,no_letter,-1.0,False,13,-1,1,13
Y2-S2-200K18,5,454,PS,exp,49,←,left,←,0.6487610996700823,True,14,-1,0,13
Y2-S2-200K18,5,455,PS,exp,25,→,right,→,0.5039233998395503,True,14,-1,0,13
Y2-S2-200K18,5,456,PS,exp,32,↑,up,↑,0.7921638996340334,True,14,1,1,14
Y2-S2-200K18,5,457,PS,exp,27,→,right,→,0.6599930003285408,True,13,1,0,14
Y2-S2-200K18,5,458,PS,exp,25,↑,left,←,0.9170218999497592,False,13,-1,1,15
Y2-S2-200K18,5,459,PS,exp,25,←,left,←,0.5890454999171197,True,14,-1,0,15
Y2-S2-200K18,5,460,PS,exp,45,→,right,→,0.748335300013423,True,14,-1,0,15
Y2-S2-200K18,5,461,PS,exp,40,↓,down,↓,0.4798665000125766,True,14,1,1,16
Y2-S2-200K18,6,462,AS,intra_train,26,→,right,→,0.6842928002588451,True,36,-,-,-
Y2-S2-200K18,6,463,AS,intra_train,50,↑,up,↑,0.6670297998934984,True,36,-,-,-
Y2-S2-200K18,6,464,AS,intra_train,32,→,right,→,0.7007781001739204,True,36,-,-,-
Y2-S2-200K18,6,465,AS,intra_train,40,↑,up,↑,0.8473833999596536,True,36,-,-,-
Y2-S2-200K18,6,466,AS,intra_train,36,→,right,→,1.884043799713254,True,36,-,-,-
Y2-S2-200K18,6,467,AS,exp,37,←,left,←,0.6978553999215364,True,24,0,0,0
Y2-S2-200K18,6,468,AS,exp,50,→,right,→,0.6140811997465789,True,24,0,0,0
Y2-S2-200K18,6,469,AS,exp,47,↑,up,↑,0.9986066999845207,True,24,1,0,0
Y2-S2-200K18,6,470,AS,exp,42,→,right,→,0.6071051997132599,True,23,1,0,0
Y2-S2-200K18,6,471,AS,exp,43,↑,up,↑,0.7654043999500573,True,23,1,0,0
Y2-S2-200K18,6,472,AS,exp,50,→,right,→,0.4842711999081075,True,23,1,0,0
Y2-S2-200K18,6,473,AS,exp,50,↓,down,↓,0.6308001996949315,True,22,1,0,0
Y2-S2-200K18,6,474,AS,exp,25,←,right,→,0.41722270008176565,False,22,-1,1,1
Y2-S2-200K18,6,475,AS,exp,47,↓,down,↓,0.8477558996528387,True,23,-1,0,1
Y2-S2-200K18,6,476,AS,exp,46,↑,up,↑,0.6814759997650981,True,23,-1,0,1
Y2-S2-200K18,6,477,AS,exp,27,↓,down,↓,0.5925465002655983,True,23,1,1,2
Y2-S2-200K18,6,478,AS,exp,29,→,right,→,0.6407568003050983,True,22,1,0,2
Y2-S2-200K18,6,479,AS,exp,49,↑,up,↑,0.5834615002386272,True,22,1,0,2
Y2-S2-200K18,6,480,AS,exp,28,↓,down,↓,0.6218614000827074,True,22,1,0,2
Y2-S2-200K18,6,481,AS,exp,31,→,right,→,0.7109996001236141,True,21,1,0,2
Y2-S2-200K18,6,482,AS,exp,42,↓,down,↓,0.6542147002182901,True,21,1,0,2
Y2-S2-200K18,6,483,AS,exp,28,→,right,→,0.5293043004348874,True,21,1,0,2
Y2-S2-200K18,6,484,AS,exp,38,←,left,←,0.6059298999607563,True,20,1,0,2
Y2-S2-200K18,6,485,AS,exp,42,→,right,→,0.7499379999935627,True,20,1,0,2
Y2-S2-200K18,6,486,AS,exp,25,←,no_key,no_letter,-1.0,False,20,-1,1,3
Y2-S2-200K18,6,487,AS,exp,26,→,left,←,0.5767075000330806,False,21,-1,0,3
Y2-S2-200K18,6,488,AS,exp,36,↓,down,↓,0.5450842999853194,True,22,-1,0,3
Y2-S2-200K18,6,489,AS,exp,49,↑,up,↑,1.0592025998048484,True,22,-1,0,3
Y2-S2-200K18,6,490,AS,exp,33,↓,down,↓,0.5530425002798438,True,22,1,1,4
Y2-S2-200K18,6,491,AS,exp,29,←,left,←,0.8326503997668624,True,21,1,0,4
Y2-S2-200K18,6,492,AS,exp,34,↓,down,↓,0.5941748996265233,True,21,1,0,4
Y2-S2-200K18,6,493,AS,exp,32,↑,up,↑,1.0034274999052286,True,21,1,0,4
Y2-S2-200K18,6,494,AS,exp,34,↓,down,↓,0.7230305001139641,True,20,1,0,4
Y2-S2-200K18,6,495,AS,exp,32,↑,down,↓,0.7737021995708346,False,20,-1,1,5
Y2-S2-200K18,6,496,AS,exp,47,←,left,←,0.6199227999895811,True,21,-1,0,5
Y2-S2-200K18,6,497,AS,exp,33,↑,left,←,1.1287285001017153,False,21,-1,0,5
Y2-S2-200K18,6,498,AS,exp,47,↓,down,↓,0.640516399871558,True,22,-1,0,5
Y2-S2-200K18,6,499,AS,exp,26,→,right,→,0.5548666003160179,True,22,-1,0,5
Y2-S2-200K18,6,500,AS,exp,41,←,left,←,0.5454136002808809,True,22,1,1,6
Y2-S2-200K18,6,501,AS,exp,28,↓,down,↓,0.4171850997954607,True,21,1,0,6
Y2-S2-200K18,6,502,AS,exp,26,↑,up,↑,0.7717302003875375,True,21,1,0,6
Y2-S2-200K18,6,503,AS,exp,33,↓,down,↓,0.6561126001179218,True,21,1,0,6
Y2-S2-200K18,6,504,AS,exp,50,←,left,←,0.46717149997130036,True,20,1,0,6
Y2-S2-200K18,6,505,AS,exp,30,↓,down,↓,0.4508009999990463,True,20,1,0,6
Y2-S2-200K18,6,506,AS,exp,43,←,left,←,0.7406171001493931,True,20,1,0,6
Y2-S2-200K18,6,507,AS,exp,36,↓,no_key,no_letter,-1.0,False,19,-1,1,7
Y2-S2-200K18,6,508,AS,exp,34,↑,up,↑,0.7697813999839127,True,20,-1,0,7
Y2-S2-200K18,6,509,AS,exp,33,↓,down,↓,0.887149800080806,True,20,-1,0,7
Y2-S2-200K18,6,510,AS,exp,47,→,right,→,0.7755296998657286,True,20,1,1,8
Y2-S2-200K18,6,511,AS,exp,27,↑,up,↑,0.8414155002683401,True,19,1,0,8
Y2-S2-200K18,6,512,AS,exp,48,←,left,←,0.5760059002786875,True,19,1,0,8
Y2-S2-200K18,6,513,AS,exp,34,→,right,→,0.7365104001946747,True,19,1,0,8
Y2-S2-200K18,6,514,AS,exp,42,↑,up,↑,0.8407895998097956,True,18,1,0,8
Y2-S2-200K18,6,515,AS,exp,26,→,right,→,0.6404047003015876,True,18,1,0,8
Y2-S2-200K18,6,516,AS,exp,27,↑,up,↑,0.5579550000838935,True,18,1,0,8
Y2-S2-200K18,6,517,AS,exp,39,↓,up,↑,0.8201041999273002,False,17,-1,1,9
Y2-S2-200K18,6,518,AS,exp,41,↑,up,↑,0.754627900198102,True,18,-1,0,9
Y2-S2-200K18,6,519,AS,exp,38,←,left,←,1.074536300264299,True,18,-1,0,9
Y2-S2-200K18,6,520,AS,exp,49,↑,up,↑,0.6685711001046002,True,18,1,1,10
Y2-S2-200K18,6,521,AS,exp,36,→,no_key,no_letter,-1.0,False,17,-1,1,11
Y2-S2-200K18,6,522,AS,exp,34,↓,down,↓,0.5669927000999451,True,18,-1,0,11
Y2-S2-200K18,6,523,AS,exp,47,←,left,←,0.506388499867171,True,18,-1,0,11
Y2-S2-200K18,6,524,AS,exp,46,↓,down,↓,0.5693061999045312,True,18,1,1,12
Y2-S2-200K18,6,525,AS,exp,36,→,right,→,0.48219569958746433,True,17,1,0,12
Y2-S2-200K18,6,526,AS,exp,25,←,left,←,0.4780685999430716,True,17,1,0,12
Y2-S2-200K18,6,527,AS,exp,40,↑,up,↑,0.6922941999509931,True,17,1,0,12
Y2-S2-200K18,6,528,AS,exp,41,→,no_key,no_letter,-1.0,False,16,-1,1,13
Y2-S2-200K18,6,529,AS,exp,31,←,left,←,0.4817758002318442,True,17,-1,0,13
Y2-S2-200K18,6,530,AS,exp,45,→,left,←,0.585353100206703,False,17,-1,0,13
Y2-S2-200K18,6,531,AS,exp,32,↓,down,↓,0.4843160999007523,True,18,-1,0,13
Y2-S2-200K18,6,532,AS,exp,40,↑,up,↑,0.8236890998668969,True,18,-1,0,13
Y2-S2-200K18,6,533,AS,exp,48,↓,right,→,0.9934568000026047,False,18,-1,0,13
Y2-S2-200K18,6,534,AS,exp,46,→,left,←,0.7856525997631252,False,19,-1,0,13
Y2-S2-200K18,6,535,AS,exp,45,↑,left,←,0.8886410999111831,False,20,-1,0,13
Y2-S2-200K18,6,536,AS,exp,41,↓,down,↓,0.5970057002268732,True,21,-1,0,13
Y2-S2-200K18,6,537,AS,exp,27,↑,up,↑,0.6542593999765813,True,21,-1,0,13
Y2-S2-200K18,6,538,AS,exp,44,→,right,→,1.2129982002079487,True,21,1,1,14
Y2-S2-200K18,6,539,AS,exp,47,↑,up,↑,0.8813280002214015,True,20,1,0,14
Y2-S2-200K18,6,540,AS,exp,29,↓,down,↓,0.7038947003893554,True,20,1,0,14
Y2-S2-200K18,6,541,AS,exp,44,↑,up,↑,0.8583843000233173,True,20,1,0,14
Y2-S2-200K18,6,542,AS,exp,47,→,right,→,0.6252195001579821,True,19,1,0,14
Y2-S2-200K18,6,543,AS,exp,27,↑,up,↑,0.7266762000508606,True,19,1,0,14
Y2-S2-200K18,6,544,AS,exp,50,→,right,→,0.5863569001667202,True,19,1,0,14
Y2-S2-200K18,6,545,AS,exp,48,←,left,←,0.547004499938339,True,18,1,0,14
Y2-S2-200K18,6,546,AS,exp,36,→,right,→,0.6500635999254882,True,18,1,0,14
Y2-S2-200K18,6,547,AS,exp,41,↓,down,↓,0.7063969997689128,True,18,1,0,14
Y2-S2-200K18,6,548,AS,exp,40,↑,left,←,0.5050876000896096,False,17,-1,1,15
Y2-S2-200K18,6,549,AS,exp,36,→,right,→,1.2020902000367641,True,18,-1,0,15
Y2-S2-200K18,6,550,AS,exp,38,↓,down,↓,0.6420961003750563,True,18,-1,0,15
Y2-S2-200K18,6,551,AS,exp,35,→,right,→,0.6792384004220366,True,18,1,1,16
Y2-S2-200K18,7,552,AS,intra_train,45,↓,up,↑,0.5509530999697745,False,36,-,-,-
Y2-S2-200K18,7,553,AS,intra_train,48,→,right,→,0.48455880023539066,True,36,-,-,-
Y2-S2-200K18,7,554,AS,intra_train,38,←,left,←,0.6839336999692023,True,36,-,-,-
Y2-S2-200K18,7,555,AS,intra_train,44,↓,down,↓,0.43449500016868114,True,36,-,-,-
Y2-S2-200K18,7,556,AS,intra_train,25,↑,up,↑,0.7341554998420179,True,36,-,-,-
Y2-S2-200K18,7,557,AS,exp,26,←,left,←,0.6771916002035141,True,24,0,0,0
Y2-S2-200K18,7,558,AS,exp,50,↓,down,↓,0.6293807998299599,True,24,0,0,0
Y2-S2-200K18,7,559,AS,exp,37,→,right,→,0.4672396001406014,True,24,1,0,0
Y2-S2-200K18,7,560,AS,exp,36,↑,up,↑,0.6985408002510667,True,23,1,0,0
Y2-S2-200K18,7,561,AS,exp,38,↓,no_key,no_letter,-1.0,False,23,-1,1,1
Y2-S2-200K18,7,562,AS,exp,30,↑,up,↑,0.8229984999634326,True,24,-1,0,1
Y2-S2-200K18,7,563,AS,exp,43,→,left,←,1.3839500998146832,False,24,-1,0,1
Y2-S2-200K18,7,564,AS,exp,39,←,left,←,0.5507639995776117,True,25,-1,0,1
Y2-S2-200K18,7,565,AS,exp,29,↑,up,↑,0.6942205000668764,True,25,-1,0,1
Y2-S2-200K18,7,566,AS,exp,47,←,left,←,0.6028969003818929,True,25,1,1,2
Y2-S2-200K18,7,567,AS,exp,40,↓,down,↓,0.5171489999629557,True,24,1,0,2
Y2-S2-200K18,7,568,AS,exp,38,←,left,←,0.6206091996282339,True,24,1,0,2
Y2-S2-200K18,7,569,AS,exp,48,↓,down,↓,0.6731390003114939,True,24,1,0,2
Y2-S2-200K18,7,570,AS,exp,27,←,left,←,0.5871874000877142,True,23,1,0,2
Y2-S2-200K18,7,571,AS,exp,43,↑,left,←,0.9849243997596204,False,23,-1,1,3
Y2-S2-200K18,7,572,AS,exp,31,↓,no_key,no_letter,-1.0,False,24,-1,0,3
Y2-S2-200K18,7,573,AS,exp,34,→,right,→,0.8348157000727952,True,25,-1,0,3
Y2-S2-200K18,7,574,AS,exp,35,←,no_key,no_letter,-1.0,False,25,-1,0,3
Y2-S2-200K18,7,575,AS,exp,42,→,left,←,0.5007596001960337,False,26,-1,0,3
Y2-S2-200K18,7,576,AS,exp,50,↑,up,↑,0.8094946998171508,True,27,-1,0,3
Y2-S2-200K18,7,577,AS,exp,50,↓,no_key,no_letter,-1.0,False,27,-1,0,3
Y2-S2-200K18,7,578,AS,exp,46,←,left,←,0.6610947996377945,True,28,-1,0,3
Y2-S2-200K18,7,579,AS,exp,38,↓,down,↓,0.6441603996790946,True,28,-1,0,3
Y2-S2-200K18,7,580,AS,exp,25,↑,up,↑,0.7788857002742589,True,28,1,1,4
Y2-S2-200K18,7,581,AS,exp,36,→,no_key,no_letter,-1.0,False,27,-1,1,5
Y2-S2-200K18,7,582,AS,exp,39,↓,down,↓,0.7086375998333097,True,28,-1,0,5
Y2-S2-200K18,7,583,AS,exp,30,←,left,←,0.5839852998033166,True,28,-1,0,5
Y2-S2-200K18,7,584,AS,exp,26,→,right,→,0.779028800316155,True,28,1,1,6
Y2-S2-200K18,7,585,AS,exp,48,↓,down,↓,1.3932969998568296,True,27,1,0,6
Y2-S2-200K18,7,586,AS,exp,39,←,left,←,0.7352140001021326,True,27,1,0,6
Y2-S2-200K18,7,587,AS,exp,34,↓,down,↓,0.7729966002516448,True,27,1,0,6
Y2-S2-200K18,7,588,AS,exp,25,←,left,←,0.567349299788475,True,26,1,0,6
Y2-S2-200K18,7,589,AS,exp,45,↑,up,↑,0.7913274997845292,True,26,1,0,6
Y2-S2-200K18,7,590,AS,exp,43,←,no_key,no_letter,-1.0,False,26,-1,1,7
Y2-S2-200K18,7,591,AS,exp,29,↓,down,↓,0.4339173003099859,True,27,-1,0,7
Y2-S2-200K18,7,592,AS,exp,50,→,right,→,0.9381085997447371,True,27,-1,0,7
Y2-S2-200K18,7,593,AS,exp,31,←,no_key,no_letter,-1.0,False,27,-1,0,7
Y2-S2-200K18,7,594,AS,exp,32,→,right,→,0.7738630999810994,True,28,-1,0,7
Y2-S2-200K18,7,595,AS,exp,43,←,left,←,0.6621028003282845,True,28,-1,0,7
Y2-S2-200K18,7,596,AS,exp,49,↓,no_key,no_letter,-1.0,False,28,-1,0,7
Y2-S2-200K18,7,597,AS,exp,42,←,left,←,0.7722720000892878,True,29,-1,0,7
Y2-S2-200K18,7,598,AS,exp,33,↓,down,↓,0.5674825999885798,True,29,-1,0,7
Y2-S2-200K18,7,599,AS,exp,31,→,no_key,no_letter,-1.0,False,29,-1,0,7
Y2-S2-200K18,7,600,AS,exp,44,←,left,←,0.6859428999014199,True,30,-1,0,7
Y2-S2-200K18,7,601,AS,exp,43,↑,up,↑,1.0562939001247287,True,30,-1,0,7
Y2-S2-200K18,7,602,AS,exp,33,←,left,←,0.6787352999672294,True,30,1,1,8
Y2-S2-200K18,7,603,AS,exp,49,↑,up,↑,0.7163571999408305,True,29,1,0,8
Y2-S2-200K18,7,604,AS,exp,26,←,left,←,0.700986800249666,True,29,1,0,8
Y2-S2-200K18,7,605,AS,exp,37,↑,up,↑,0.6008167997933924,True,29,1,0,8
Y2-S2-200K18,7,606,AS,exp,30,↓,down,↓,0.6527900001965463,True,28,1,0,8
Y2-S2-200K18,7,607,AS,exp,36,↑,up,↑,0.7657882999628782,True,28,1,0,8
Y2-S2-200K18,7,608,AS,exp,49,↓,no_key,no_letter,-1.0,False,28,-1,1,9
Y2-S2-200K18,7,609,AS,exp,50,←,left,←,0.7160702999681234,True,29,-1,0,9
Y2-S2-200K18,7,610,AS,exp,34,↓,down,↓,0.6173299001529813,True,29,-1,0,9
Y2-S2-200K18,7,611,AS,exp,26,→,right,→,0.739298100117594,True,29,1,1,10
Y2-S2-200K18,7,612,AS,exp,39,←,left,←,0.7326432000845671,True,28,1,0,10
Y2-S2-200K18,7,613,AS,exp,40,→,right,→,0.7193965995684266,True,28,1,0,10
Y2-S2-200K18,7,614,AS,exp,40,↓,down,↓,0.7937997998669744,True,28,1,0,10
Y2-S2-200K18,7,615,AS,exp,39,→,right,→,0.8784612999297678,True,27,1,0,10
Y2-S2-200K18,7,616,AS,exp,46,↑,up,↑,0.9694196004420519,True,27,1,0,10
Y2-S2-200K18,7,617,AS,exp,34,→,right,→,0.6778492000885308,True,27,1,0,10
Y2-S2-200K18,7,618,AS,exp,27,↓,down,↓,0.6936491001397371,True,26,1,0,10
Y2-S2-200K18,7,619,AS,exp,32,↑,up,↑,0.7809103997424245,True,26,1,0,10
Y2-S2-200K18,7,620,AS,exp,42,→,right,→,0.7043003998696804,True,26,1,0,10
Y2-S2-200K18,7,621,AS,exp,43,↑,up,↑,0.7214282001368701,True,25,1,0,10
Y2-S2-200K18,7,622,AS,exp,46,←,left,←,0.7163650998845696,True,25,1,0,10
Y2-S2-200K18,7,623,AS,exp,31,↓,down,↓,0.6175378002226353,True,25,1,0,10
Y2-S2-200K18,7,624,AS,exp,38,←,right,→,0.6034683999605477,False,24,-1,1,11
Y2-S2-200K18,7,625,AS,exp,39,↑,up,↑,0.7116205999627709,True,25,-1,0,11
Y2-S2-200K18,7,626,AS,exp,34,↓,down,↓,0.6334238997660577,True,25,-1,0,11
Y2-S2-200K18,7,627,AS,exp,39,→,right,→,0.7719689002260566,True,25,1,1,12
Y2-S2-200K18,7,628,AS,exp,43,↑,up,↑,0.9524215999990702,True,24,1,0,12
Y2-S2-200K18,7,629,AS,exp,40,→,right,→,0.7473901999182999,True,24,1,0,12
Y2-S2-200K18,7,630,AS,exp,33,↑,up,↑,0.517091799993068,True,24,1,0,12
Y2-S2-200K18,7,631,AS,exp,41,↓,down,↓,0.5007723998278379,True,23,1,0,12
Y2-S2-200K18,7,632,AS,exp,27,→,right,→,0.5909893000498414,True,23,1,0,12
Y2-S2-200K18,7,633,AS,exp,32,↓,down,↓,0.583988799713552,True,23,1,0,12
Y2-S2-200K18,7,634,AS,exp,41,←,left,←,0.631921200081706,True,22,1,0,12
Y2-S2-200K18,7,635,AS,exp,50,↑,up,↑,0.4838839997537434,True,22,1,0,12
Y2-S2-200K18,7,636,AS,exp,30,←,left,←,0.7004128997214139,True,22,1,0,12
Y2-S2-200K18,7,637,AS,exp,31,↓,down,↓,0.4673355999402702,True,21,1,0,12
Y2-S2-200K18,7,638,AS,exp,41,←,left,←,0.7144952998496592,True,21,1,0,12
Y2-S2-200K18,7,639,AS,exp,44,↑,up,↑,0.5406265999190509,True,21,1,0,12
Y2-S2-200K18,7,640,AS,exp,41,→,left,←,0.5751215000636876,False,20,-1,1,13
Y2-S2-200K18,7,641,AS,exp,25,↑,up,↑,0.5223729996941984,True,21,-1,0,13
Y2-S2-200K18,7,642,AS,exp,47,→,left,←,0.5764689999632537,False,21,-1,0,13
Y2-S2-200K18,7,643,AS,exp,48,↓,down,↓,0.7699747001752257,True,22,-1,0,13
Y2-S2-200K18,7,644,AS,exp,34,→,right,→,0.6894845999777317,True,22,-1,0,13
Y2-S2-200K18,7,645,AS,exp,35,↓,down,↓,0.4842218002304435,True,22,1,1,14
Y2-S2-200K18,7,646,AS,exp,34,↑,up,↑,0.6973879998549819,True,21,1,0,14
Y2-S2-200K18,7,647,AS,exp,41,↓,down,↓,0.7095319996587932,True,21,1,0,14
Y2-S2-200K18,7,648,AS,exp,48,→,right,→,0.6141230999492109,True,21,1,0,14
Y2-S2-200K18,7,649,AS,exp,44,←,left,←,0.6450829999521375,True,20,1,0,14
Y2-S2-200K18,7,650,AS,exp,29,↑,up,↑,0.6364934998564422,True,20,1,0,14
Y2-S2-200K18,7,651,AS,exp,42,→,right,→,1.0878277998417616,True,20,1,0,14
Y2-S2-200K18,7,652,AS,exp,33,↑,up,↑,0.9726232998073101,True,19,1,0,14
Y2-S2-200K18,7,653,AS,exp,44,↓,down,↓,0.6378477001562715,True,19,1,0,14
Y2-S2-200K18,7,654,AS,exp,46,→,right,→,0.7760939998552203,True,19,1,0,14
Y2-S2-200K18,7,655,AS,exp,33,↑,up,↑,0.868560700211674,True,18,1,0,14
Y2-S2-200K18,7,656,AS,exp,49,←,left,←,0.6622785003855824,True,18,1,0,14
Y2-S2-200K18,7,657,AS,exp,45,↑,left,←,0.9561696001328528,False,18,-1,1,15
Y2-S2-200K18,7,658,AS,exp,50,→,right,→,0.7958863000385463,True,19,-1,0,15
Y2-S2-200K18,7,659,AS,exp,28,←,left,←,0.709056599996984,True,19,-1,0,15
Y2-S2-200K18,7,660,AS,exp,30,→,right,→,0.6798324999399483,True,19,1,1,16
Y2-S2-200K18,8,661,PS,intra_train,45,↓,down,↓,0.6977317999117076,True,12,-,-,-
Y2-S2-200K18,8,662,PS,intra_train,25,→,right,→,0.6046151998452842,True,12,-,-,-
Y2-S2-200K18,8,663,PS,intra_train,43,↑,up,↑,0.5805798997171223,True,12,-,-,-
Y2-S2-200K18,8,664,PS,intra_train,35,↓,down,↓,0.44891140004619956,True,12,-,-,-
Y2-S2-200K18,8,665,PS,intra_train,38,←,left,←,0.6270892997272313,True,12,-,-,-
Y2-S2-200K18,8,666,PS,exp,44,↑,up,↑,0.5677955001592636,True,8,0,0,0
Y2-S2-200K18,8,667,PS,exp,45,↓,down,↓,0.5237714000977576,True,8,0,0,0
Y2-S2-200K18,8,668,PS,exp,44,↑,up,↑,0.5510599999688566,True,8,1,0,0
Y2-S2-200K18,8,669,PS,exp,26,←,right,→,0.5807153997011483,False,7,-1,1,1
Y2-S2-200K18,8,670,PS,exp,44,→,up,↑,0.6679072002880275,False,8,-1,0,1
Y2-S2-200K18,8,671,PS,exp,38,↓,down,↓,0.4996899999678135,True,9,-1,0,1
Y2-S2-200K18,8,672,PS,exp,39,→,right,→,0.5201393002644181,True,9,-1,0,1
Y2-S2-200K18,8,673,PS,exp,50,←,left,←,0.49537899997085333,True,9,1,1,2
Y2-S2-200K18,8,674,PS,exp,30,↑,up,↑,0.6182547998614609,True,8,1,0,2
Y2-S2-200K18,8,675,PS,exp,31,←,left,←,0.5311602996662259,True,8,1,0,2
Y2-S2-200K18,8,676,PS,exp,30,→,left,←,0.6979183000512421,False,8,-1,1,3
Y2-S2-200K18,8,677,PS,exp,42,←,down,↓,0.7909359000623226,False,9,-1,0,3
Y2-S2-200K18,8,678,PS,exp,48,↓,left,←,0.727615799754858,False,10,-1,0,3
Y2-S2-200K18,8,679,PS,exp,37,←,left,←,0.49164880020543933,True,11,-1,0,3
Y2-S2-200K18,8,680,PS,exp,34,→,right,→,0.49284909991547465,True,11,-1,0,3
Y2-S2-200K18,8,681,PS,exp,48,↓,down,↓,0.5786077999509871,True,11,1,1,4
Y2-S2-200K18,8,682,PS,exp,50,→,right,→,0.4359845998696983,True,10,1,0,4
Y2-S2-200K18,8,683,PS,exp,39,↑,up,↑,0.5126644000411034,True,10,1,0,4
Y2-S2-200K18,8,684,PS,exp,42,→,right,→,0.609128300100565,True,10,1,0,4
Y2-S2-200K18,8,685,PS,exp,30,↑,up,↑,0.5298874997533858,True,9,1,0,4
Y2-S2-200K18,8,686,PS,exp,45,↓,down,↓,0.43537990003824234,True,9,1,0,4
Y2-S2-200K18,8,687,PS,exp,50,←,left,←,0.5379692004062235,True,9,1,0,4
Y2-S2-200K18,8,688,PS,exp,48,↑,left,←,0.6096685999073088,False,8,-1,1,5
Y2-S2-200K18,8,689,PS,exp,43,↓,left,←,0.5626670001074672,False,9,-1,0,5
Y2-S2-200K18,8,690,PS,exp,37,←,left,←,0.4528593998402357,True,10,-1,0,5
Y2-S2-200K18,8,691,PS,exp,40,↑,up,↑,0.8011562996543944,True,10,-1,0,5
Y2-S2-200K18,8,692,PS,exp,50,↓,down,↓,0.5356370001100004,True,10,1,1,6
Y2-S2-200K18,8,693,PS,exp,34,→,right,→,0.6793343001045287,True,9,1,0,6
Y2-S2-200K18,8,694,PS,exp,45,↑,up,↑,0.5751426997594535,True,9,1,0,6
Y2-S2-200K18,8,695,PS,exp,32,→,right,→,0.4306562002748251,True,9,1,0,6
Y2-S2-200K18,8,696,PS,exp,33,↑,up,↑,0.6211243001744151,True,8,1,0,6
Y2-S2-200K18,8,697,PS,exp,35,←,left,←,0.7203687001019716,True,8,1,0,6
Y2-S2-200K18,8,698,PS,exp,29,↓,down,↓,0.5124218002893031,True,8,1,0,6
Y2-S2-200K18,8,699,PS,exp,36,→,right,→,0.4636396002024412,True,7,1,0,6
Y2-S2-200K18,8,700,PS,exp,28,←,right,→,0.7379295001737773,False,7,-1,1,7
Y2-S2-200K18,8,701,PS,exp,37,↓,down,↓,0.4353059995919466,True,8,-1,0,7
Y2-S2-200K18,8,702,PS,exp,38,→,right,→,0.560657300055027,True,8,-1,0,7
Y2-S2-200K18,8,703,PS,exp,38,↓,down,↓,0.5045582000166178,True,8,1,1,8
Y2-S2-200K18,8,704,PS,exp,42,←,right,→,0.5646044001914561,False,7,-1,1,9
Y2-S2-200K18,8,705,PS,exp,34,→,right,→,0.6845073997974396,True,8,-1,0,9
Y2-S2-200K18,8,706,PS,exp,27,←,left,←,0.3770903004333377,True,8,-1,0,9
Y2-S2-200K18,8,707,PS,exp,36,↓,left,←,0.8728906000033021,False,8,-1,0,9
Y2-S2-200K18,8,708,PS,exp,37,↑,up,↑,1.2261283998377621,True,9,-1,0,9
Y2-S2-200K18,8,709,PS,exp,28,→,right,→,0.4457402997650206,True,9,-1,0,9
Y2-S2-200K18,8,710,PS,exp,35,↓,down,↓,0.47751150000840425,True,9,1,1,10
Y2-S2-200K18,8,711,PS,exp,35,→,right,→,0.4953752001747489,True,8,1,0,10
Y2-S2-200K18,8,712,PS,exp,35,↑,right,→,0.7873682999052107,False,8,-1,1,11
Y2-S2-200K18,8,713,PS,exp,32,↓,down,↓,0.5082974997349083,True,9,-1,0,11
Y2-S2-200K18,8,714,PS,exp,38,←,left,←,0.530780500266701,True,9,-1,0,11
Y2-S2-200K18,8,715,PS,exp,36,→,right,→,0.5467368001118302,True,9,1,1,12
Y2-S2-200K18,8,716,PS,exp,29,←,left,←,0.5517045999877155,True,8,1,0,12
Y2-S2-200K18,8,717,PS,exp,26,→,right,→,0.601572799962014,True,8,1,0,12
Y2-S2-200K18,8,718,PS,exp,36,↓,down,↓,0.575367100071162,True,8,1,0,12
Y2-S2-200K18,8,719,PS,exp,37,←,right,→,0.8115681000053883,False,7,-1,1,13
Y2-S2-200K18,8,720,PS,exp,30,↑,up,↑,0.8397357002831995,True,8,-1,0,13
Y2-S2-200K18,8,721,PS,exp,37,→,right,→,0.6083542997948825,True,8,-1,0,13
Y2-S2-200K18,8,722,PS,exp,45,↓,down,↓,0.5210500000976026,True,8,1,1,14
Y2-S2-200K18,8,723,PS,exp,44,←,left,←,0.5789920999668539,True,7,1,0,14
Y2-S2-200K18,8,724,PS,exp,27,↑,up,↑,0.9537908001802862,True,7,1,0,14
Y2-S2-200K18,8,725,PS,exp,36,→,right,→,0.7454328001476824,True,7,1,0,14
Y2-S2-200K18,8,726,PS,exp,28,←,left,←,0.6806048997677863,True,6,1,0,14
Y2-S2-200K18,8,727,PS,exp,38,↓,down,↓,0.5160165000706911,True,6,1,0,14
Y2-S2-200K18,8,728,PS,exp,46,↑,down,↓,0.7178235999308527,False,6,-1,1,15
Y2-S2-200K18,8,729,PS,exp,50,↓,left,←,0.8163640000857413,False,7,-1,0,15
Y2-S2-200K18,8,730,PS,exp,29,↑,up,↑,0.5259194998070598,True,8,-1,0,15
Y2-S2-200K18,8,731,PS,exp,49,←,left,←,0.5041180001571774,True,8,-1,0,15
Y2-S2-200K18,8,732,PS,exp,26,→,left,←,0.6237550000660121,False,8,-1,0,15
Y2-S2-200K18,8,733,PS,exp,26,↑,right,→,0.47824550000950694,False,9,-1,0,15
Y2-S2-200K18,8,734,PS,exp,28,←,left,←,0.5260029998607934,True,10,-1,0,15
Y2-S2-200K18,8,735,PS,exp,49,→,right,→,0.9363400996662676,True,10,-1,0,15
Y2-S2-200K18,8,736,PS,exp,50,↑,left,←,0.6656033000908792,False,10,-1,0,15
Y2-S2-200K18,8,737,PS,exp,30,←,left,←,0.42269299970939755,True,11,-1,0,15
Y2-S2-200K18,8,738,PS,exp,37,→,left,←,0.9950363002717495,False,11,-1,0,15
Y2-S2-200K18,8,739,PS,exp,37,↓,right,→,1.1037084003910422,False,12,-1,0,15
Y2-S2-200K18,8,740,PS,exp,28,→,left,←,0.8073187000118196,False,13,-1,0,15
Y2-S2-200K18,8,741,PS,exp,28,↑,left,←,1.0519233997911215,False,14,-1,0,15
Y2-S2-200K18,8,742,PS,exp,38,↓,down,↓,0.5905388002283871,True,15,-1,0,15
Y2-S2-200K18,8,743,PS,exp,50,←,left,←,0.5310928001999855,True,15,-1,0,15
Y2-S2-200K18,8,744,PS,exp,45,↓,down,↓,0.5132233002223074,True,15,1,1,16
